timestamp_us,ecg,leads,ir,red,accX,accY,accZ,gyroX,gyroY,gyroZ,temp,time_sec,ecg_filtered,ppg_filtered,accel_magnitude,gyro_magnitude,ecg_norm,ppg_norm
2448957,1755,1,186194.5,203377,0.34,0.14,9.904999999999998,-0.03,-0.01,-0.0,30.71,0.030471,1.7889167724975765,-0.016977955415168198,9.911822486303915,0.03162277660168379,0.05173069847200909,0.005224982268104581
2489175,1755,1,186194.5,204341,0.36,0.16,10.01,-0.03,-0.01,-0.0,30.71,0.070689,-4.713564003255339,0.0036637594758542986,10.0177492482094,0.03162277660168379,-0.11499670932839778,0.005261645027902085
2529168,1755,1,186194.5,204135,0.38,0.15,9.99,-0.03,-0.01,-0.0,30.71,0.110682,-11.523966532172148,0.025948118507573562,9.998349863852535,0.03162277660168379,-0.28961941086066934,0.005301225368330902
2569170,1755,1,186194.5,204056,0.4,0.13,9.99,-0.03,-0.01,-0.0,30.71,0.150684,-18.394059152958146,0.04962822414098258,9.998849933867394,0.03162277660168379,-0.46577260123741826,0.00534328476259154
2609168,1755,1,186194.5,203935,0.38,0.14,9.96,-0.03,-0.01,-0.0,30.71,0.190682,-24.58924551504155,0.07441281414938154,9.968229531867733,0.03162277660168379,-0.6246208006572773,0.0053873058855919715
2649170,1755,1,186194.5,204059,0.35,0.13,9.96,-0.03,-0.01,-0.01,30.71,0.230684,-33.000737425243614,0.09996759700994164,9.96699553526538,0.033166247903554,-0.8402963697649302,0.005432694985801934
2689168,1755,1,186194.5,205166,0.37,0.14,9.98,-0.03,-0.01,-0.01,30.71,0.270682,-38.430774145649394,0.12591743644879086,9.987837603805941,0.033166247903554,-0.9795256851410222,0.005478785765330339
2729171,1755,1,186194.5,206627,0.38,0.14,9.99,-0.03,-0.01,-0.0,30.71,0.310685,-47.37462655784992,0.15184941778970887,9.998204838869826,0.03162277660168379,-1.2088512886854552,0.005524844826217229
2769168,1755,1,186194.5,207948,0.34,0.15,9.99,-0.03,-0.01,-0.0,30.71,0.350682,-54.81685257353083,0.17731681631132729,9.996909522447424,0.03162277660168379,-1.3996743137201666,0.005570078718827164
2809170,1755,1,186194.5,208372,0.4,0.14,9.96,-0.03,-0.01,-0.0,30.71,0.390684,-60.67084393560872,0.20184397399896042,9.96901198715299,0.03162277660168379,-1.5497740739108774,0.005613642603686763
2849168,1755,1,186194.5,208026,0.37,0.14,9.97,-0.03,-0.01,-0.0,30.71,0.430682,-73.54012378832867,0.22493207600899282,9.977845458815244,0.03162277660168379,-1.8797499314486579,0.005654650511345745
2889170,1755,1,186194.5,205122,0.39,0.13,9.96,-0.03,-0.01,-0.01,30.71,0.470684,-75.13493522171669,0.246065801999808,9.96848032550599,0.033166247903554,-1.9206418287704838,0.005692187156131228
2929168,1755,1,186194.5,203859,0.37,0.13,10.0,-0.03,-0.01,-0.01,30.71,0.510682,-90.73002020453205,0.2647208104083802,10.0076870454666,0.033166247903554,-2.3205089230812384,0.005725321229337585
2969171,1755,1,186194.5,204756,0.36,0.14,10.0,-0.03,-0.01,-0.0,30.71,0.550685,-95.36098162906595,0.2803719959833779,10.00745721949387,0.03162277660168379,-2.439249480810425,0.0057531200658350245
3009168,1791,1,186194.5,204705,0.36,0.16,10.0,-0.03,-0.01,-0.0,30.71,0.590682,-66.68812248907531,0.292502442673366,10.007756991454178,0.03162277660168379,-1.7040606131304112,0.005774665545732379
3049185,1827,1,186194.5,204858,0.37,0.15,9.93,-0.03,-0.01,-0.0,30.71,0.630699,-49.856130535912946,0.3006129755905679,9.938022942215419,0.03162277660168379,-1.2724785011259163,0.005789071060087316
3089168,1877,1,186194.5,205666,0.37,0.12,9.95,-0.03,-0.01,-0.01,30.71,0.670682,9.194527017164834,0.30423219752924074,9.957600112476902,0.033166247903554,0.2416148737359555,0.005795499337257695
3129171,1927,1,186194.5,206180,0.36,0.14,9.97,-0.03,-0.01,-0.0,30.71,0.710685,25.106923749385185,0.3029268777362612,9.97747964167304,0.03162277660168379,0.6496180267706635,0.005793180894905323
3168168,1828,1,186194.5,206012,0.38,0.14,9.97,-0.03,-0.01,-0.0,30.71,0.749682,-56.972278258913136,0.29631254365130943,9.978221284377291,0.03162277660168379,-1.4549406881430262,0.005781432852503938
3208171,1872,1,186194.5,205800,0.37,0.14,9.97,-0.03,-0.01,-0.0,30.71,0.789685,-45.72164567917037,0.2840641105120931,9.977845458815244,0.03162277660168379,-1.1664678927862233,0.005759677811101143
3248168,1936,1,186194.5,205593,0.37,0.15,9.95,-0.03,-0.01,-0.0,30.71,0.829682,24.674815771776093,0.26592636942485653,9.958006828678116,0.03162277660168379,0.6385385256569831,0.0057274624816936095
3288170,1985,1,186194.5,205377,0.37,0.14,9.99,-0.03,-0.01,-0.01,30.71,0.869684,57.31497006123845,0.24172414210521512,9.997829764503894,0.033166247903554,1.4754511598596218,0.005684475721559135
3328168,2019,1,186194.5,205174,0.37,0.15,9.99,-0.03,-0.01,-0.0,30.71,0.909682,81.29484729498533,0.21137190036947723,9.99797479492722,0.03162277660168379,2.0903092284083398,0.005630565619905851
3368171,2019,1,186194.5,205606,0.37,0.14,9.99,-0.03,-0.01,-0.0,30.71,0.949685,77.12264278376217,0.17488264096267123,9.997829764503894,0.03162277660168379,1.983331466080568,0.005565755260888521
3408168,2019,1,186194.5,205919,0.37,0.13,9.96,-0.03,-0.01,-0.01,30.71,0.989682,63.925969547755436,0.13237580179118885,9.967717893279284,0.033166247903554,1.6449610508333743,0.005490256784016671
3448171,2019,1,186194.5,206103,0.38,0.14,9.97,-0.03,-0.01,-0.0,30.71,1.029685,55.26364116327711,0.08408400440754354,9.978221284377291,0.03162277660168379,1.4228538879109696,0.0054044833598116725
3488854,2019,1,186194.5,206007,0.38,0.16,9.95,-0.03,-0.01,-0.0,30.77,1.070368,54.26391899397659,0.03035840996634463,9.958539049479095,0.03162277660168379,1.3972204271509452,0.005309058702782209
3529171,2019,1,186194.5,203812,0.37,0.14,9.99,-0.03,-0.01,-0.0,30.77,1.110685,32.58685086832946,-0.02832751790580398,9.997829764503894,0.03162277660168379,0.8414077301294012,0.00520482375484162
3569168,1972,1,186194.5,200713,0.39,0.15,9.97,-0.03,-0.01,-0.01,30.77,1.150682,-2.9482570354823703,-0.09137603959296203,9.978752427032148,0.033166247903554,-0.0697332068500373,0.005092840190568608
3609170,2019,1,186194.5,200886,0.35,0.13,9.99,-0.03,-0.01,-0.0,30.77,1.190684,17.478727175769947,-0.15806513707660633,9.996974542330294,0.03162277660168379,0.4540266079304363,0.004974390421493533
3649168,2019,1,186194.5,201139,0.37,0.14,9.97,-0.03,-0.01,-0.01,30.77,1.230682,28.87979927675592,-0.2275506455482895,9.977845458815244,0.033166247903554,0.7463567605440486,0.00485097381003686
3689170,2019,1,186194.5,201705,0.35,0.13,9.96,-0.03,-0.01,-0.01,30.77,1.270684,10.632520780388191,-0.2988706587999666,9.96699553526538,0.033166247903554,0.27848587433458805,0.004724298844879859
3729168,2019,1,186194.5,203114,0.36,0.17,9.99,-0.03,-0.01,-0.0,30.77,1.310682,12.665371083406361,-0.37095232066790795,9.99792978571064,0.03162277660168379,0.33060934430813005,0.004596271078348766
3769171,2019,1,186194.5,205155,0.38,0.16,9.94,-0.03,-0.01,-0.01,30.77,1.350685,6.525304470410086,-0.44262108312111875,9.948547632694934,0.033166247903554,0.17317444747244382,0.004468976682670951
3809168,2019,1,186194.5,206272,0.39,0.14,9.97,-0.03,-0.01,-0.0,30.77,1.390682,1.3129527908169702,-0.5126124758668869,9.978607117228336,0.03162277660168379,0.03952670378003259,0.0043446615454026385
3849171,2019,1,186194.5,206805,0.36,0.14,9.97,-0.03,-0.01,-0.0,30.77,1.430685,1.5184730954616317,-0.5795863928763019,9.97747964167304,0.03162277660168379,0.04479636451805864,0.004225705894431892
3889168,2019,1,186194.5,207306,0.37,0.16,9.97,-0.03,-0.01,-0.0,30.77,1.470682,-3.823473432331331,-0.6421438584151747,9.978146120397316,0.03162277660168379,-0.09217426683058652,0.0041145945190107615
3929171,2019,1,186194.5,207951,0.37,0.13,9.97,-0.03,-0.01,-0.0,30.77,1.510685,-3.295972524658067,-0.6988461895096582,9.97771015814751,0.03162277660168379,-0.07864883523274507,0.004013882734362495
3969221,2019,1,186194.5,208533,0.37,0.13,9.98,-0.03,-0.01,-0.01,30.77,1.550735,-4.979860679761688,-0.7482364238446461,9.987702438499056,0.033166247903554,-0.12182471176484116,0.003926158322542737
4009170,2019,1,186194.5,209259,0.38,0.16,9.95,-0.03,-0.01,-0.0,30.77,1.590684,-5.4895944890435135,-0.788862832457515,9.958539049479095,0.03162277660168379,-0.13489458457502954,0.003853999770393727
4049168,2019,1,186194.5,209965,0.36,0.15,9.98,-0.03,-0.01,-0.0,30.77,1.630682,-4.064075010776679,-0.8193042858397773,9.987617333478491,0.03162277660168379,-0.09834343193392114,0.003799931215570009
4089196,2019,1,186194.5,210231,0.38,0.15,9.97,-0.03,-0.01,-0.0,30.77,1.67071,-4.218014677978492,-0.8381971908993847,9.97836659979979,0.03162277660168379,-0.10229053497894995,0.0037663746024816903
4129168,2019,1,186194.5,210448,0.37,0.16,9.95,-0.03,-0.01,-0.0,30.77,1.710682,-1.3958718785445585,-0.8442636656055167,9.958162481100617,0.03162277660168379,-0.02992914405461903,0.003755599639929268
4169217,2019,1,186194.5,210038,0.38,0.15,9.97,-0.03,-0.01,-0.0,30.77,1.750731,0.05880395495037621,-0.8363405692160267,9.97836659979979,0.03162277660168379,0.007369594576472723,0.003769672239096243
4209168,2019,1,186194.5,206781,0.4,0.13,9.94,-0.03,-0.01,-0.0,30.77,1.790682,3.164482398075449,-0.8134089599939861,9.948894410938333,0.03162277660168379,0.0870010051320681,0.0038104021922574292
4249171,2019,1,186194.5,203875,0.37,0.15,9.98,-0.03,-0.01,-0.01,30.77,1.830685,6.801759301602524,-0.7746235101840638,9.987982779320358,0.033166247903554,0.1802629109324957,0.0038792909274001555
4289171,2019,1,186194.5,203334,0.38,0.16,9.97,-0.03,-0.01,-0.01,30.77,1.870685,9.529101306271453,-0.7193413702289183,9.97852193463541,0.033166247903554,0.2501935540678403,0.003977480241077237
4329171,2019,1,186194.5,202787,0.38,0.15,9.98,-0.03,-0.01,-0.01,30.77,1.910685,15.380906504109344,-0.6471499411134908,9.988358223451941,0.033166247903554,0.4002372597296211,0.004105702970587398
4369168,2019,1,186194.5,202329,0.36,0.13,9.95,-0.03,-0.01,-0.0,30.77,1.950682,17.95013330032836,-0.5578929862521216,9.95735908762961,0.03162277660168379,0.4661137365017252,0.004264236615374938
4409171,2016,1,186194.5,202823,0.37,0.14,9.96,-0.03,-0.01,-0.01,30.77,1.990685,21.489281686895314,-0.45169449446983223,9.967853329579043,0.033166247903554,0.5568595697710249,0.0044528609528210784
4449168,1998,1,186194.5,204306,0.38,0.14,9.98,-0.03,-0.01,-0.0,30.77,2.030682,8.146660054663338,-0.32897969597143095,9.988213053394487,0.03162277660168379,0.21474695233755176,0.0046708207107529496
4489857,1947,1,186194.5,205772,0.38,0.14,9.96,-0.03,-0.01,-0.0,31.01,2.071371,-39.14351985369529,-0.19049263538361805,9.968229531867733,0.03162277660168379,-0.9978009016962911,0.004916794355103671
4528168,1910,1,186194.5,206280,0.37,0.14,9.97,-0.03,-0.01,-0.01,31.01,2.109682,-66.05407943707498,-0.03730971912315346,9.977845458815244,0.033166247903554,-1.6878033786779751,0.005188870027768887
4568170,1929,1,186194.5,206440,0.37,0.15,9.97,-0.03,-0.01,-0.0,31.01,2.149684,-49.28823259881046,0.12915132460897527,9.977990779711114,0.03162277660168379,-1.2579172660813833,0.0054845296323227264
4608168,1939,1,186194.5,206630,0.38,0.14,9.97,-0.03,-0.01,-0.0,31.01,2.189682,-22.431209148859377,0.30712760824310975,9.978221284377291,0.03162277660168379,-0.5692874868527621,0.005800642017896301
4648170,1977,1,186194.5,206560,0.39,0.13,9.98,-0.03,-0.01,-0.01,31.01,2.229684,7.361381513962268,0.4945128698063061,9.988463345279893,0.033166247903554,0.1946119515574509,0.00613346614954206
4688168,1970,1,186194.5,206471,0.37,0.13,9.97,-0.03,-0.01,-0.0,31.01,2.269682,22.00706689883847,0.6888653291615608,9.97771015814751,0.03162277660168379,0.5701358852515072,0.0064786650620846835
4728171,1979,1,186194.5,206440,0.4,0.13,9.97,-0.03,-0.01,-0.01,31.01,2.309685,19.733909153310012,0.8874219880292131,9.978867671234047,0.033166247903554,0.5118507919919284,0.006831331259088776
4768168,1968,1,186194.5,206265,0.38,0.17,9.95,-0.03,-0.01,-0.0,31.01,2.349682,30.83504519927308,1.0871196468578543,9.958704735054654,0.03162277660168379,0.7964904088416639,0.007186024041951628
4808170,1970,1,186194.5,205373,0.4,0.14,9.99,-0.03,-0.01,-0.0,31.01,2.389684,23.411673774793996,1.2846228054018134,9.998984948483521,0.03162277660168379,0.6061508265459051,0.007536819065484037
4848168,1910,1,186194.5,201410,0.37,0.14,9.97,-0.03,-0.01,-0.0,31.01,2.429682,-20.01830381487201,1.4763585230297172,9.977845458815244,0.03162277660168379,-0.5074191837424147,0.007877370255010016
4888170,1885,1,186194.5,199680,0.37,0.13,9.96,-0.03,-0.01,-0.0,31.01,2.469684,-46.71109764134226,1.6585582449799,9.967717893279284,0.03162277660168379,-1.1918380194325175,0.00820098409602556
4928168,1897,1,186194.5,199525,0.35,0.13,9.96,-0.03,-0.01,-0.0,31.01,2.509682,-28.981457189616815,1.8273065237035018,9.96699553526538,0.03162277660168379,-0.7372396752479254,0.008500706170559997
4968171,1923,1,186194.5,199506,0.37,0.13,9.99,-0.03,-0.01,-0.0,31.01,2.549685,5.884193053117174,1.9785964295544525,9.9976947342875,0.03162277660168379,0.15673597600243547,0.00876941957481367
5008168,1921,1,186194.5,199617,0.35,0.14,9.97,-0.03,-0.01,-0.0,31.01,2.589682,-0.7967277035483238,2.1083912265724725,9.977123834051575,0.03162277660168379,-0.014566737207015705,0.008999954464533859
5049170,1891,1,186194.5,200743,0.37,0.12,9.97,-0.03,-0.01,-0.0,31.01,2.630684,-15.994560968439494,2.212691635947149,9.977584878115547,0.03162277660168379,-0.40424806527594825,0.009185207524944464
5089168,1931,1,186194.5,201686,0.38,0.14,9.98,-0.03,-0.01,-0.0,31.01,2.670682,16.740655658306757,2.28760784066191,9.988213053394487,0.03162277660168379,0.435102022818733,0.00931826986171729
5129170,1933,1,186194.5,201999,0.36,0.12,9.98,-0.03,-0.01,-0.0,31.01,2.710684,30.015732152638574,2.3294353957031078,9.987211823126614,0.03162277660168379,0.7754827434362082,0.009392561828808613
5167168,1922,1,186194.5,202341,0.38,0.15,9.98,-0.03,-0.01,-0.0,31.01,2.748682,17.511868059579996,2.334734343040222,9.988358223451941,0.03162277660168379,0.45487635956222394,0.009401973548446534
5208170,1915,1,186194.5,202753,0.35,0.16,9.98,-0.03,-0.01,-0.01,31.01,2.789684,13.194700190678377,2.3004108460138006,9.987417083510632,0.033166247903554,0.34418165201226897,0.00934100990596171
5248168,1887,1,186194.5,202751,0.36,0.15,9.98,-0.03,-0.01,-0.01,31.01,2.829682,-9.996706668342522,2.223800289575877,9.987617333478491,0.033166247903554,-0.25045957526631774,0.009204938148190348
5288170,1872,1,186194.5,202822,0.38,0.13,9.96,-0.03,-0.01,-0.01,31.01,2.869684,-27.375889081232316,2.1027500634271252,9.968094100679428,0.033166247903554,-0.6960719704918965,0.008989934918654638
5328168,1873,1,186194.5,202844,0.38,0.14,9.98,-0.03,-0.01,-0.0,31.01,2.909682,-21.093542145583964,1.9356996391787724,9.988213053394487,0.03162277660168379,-0.5349889230203417,0.0086932284865281
5368171,1878,1,186194.5,203063,0.36,0.14,9.96,-0.03,-0.01,-0.01,31.01,2.949685,-17.536944309298004,1.7217557570336017,9.967487145715314,0.033166247903554,-0.4437956756610163,0.008313232289378547
5408171,1872,1,186194.5,203275,0.37,0.15,9.98,-0.03,-0.01,-0.01,31.01,2.989685,-21.79677119997194,1.4607617558405426,9.987982779320358,0.033166247903554,-0.5530201270133227,0.007849668073670277
5448170,1885,1,186194.5,203421,0.37,0.14,10.0,-0.03,-0.01,-0.01,31.01,3.029684,-8.110247806184772,1.153361454546159,10.007821940862057,0.033166247903554,-0.20208966740246126,0.007303679357735735
5488168,1903,1,186194.5,200251,0.36,0.13,9.99,-0.03,-0.01,-0.01,31.01,3.069682,9.920435195447384,0.80105790328585,9.997329643459798,0.033166247903554,0.26022758372157656,0.006677935782463222
5528857,1885,1,186194.5,197945,0.4,0.13,9.98,-0.03,-0.01,-0.0,30.73,3.110371,-8.6496664750406,0.4062648158738585,9.988858793676084,0.03162277660168379,-0.21592067736297355,0.0059767244630589455
5567168,1872,1,186194.5,197856,0.36,0.15,9.97,-0.03,-0.01,-0.01,30.73,3.148682,-19.827551335936473,-0.027655096291126006,9.97762496789692,0.033166247903554,-0.5025281786873876,0.005206018075772402
5607216,1888,1,186194.5,197825,0.37,0.17,9.96,-0.03,-0.01,-0.0,30.73,3.18873,-7.042311734548441,-0.4963717456434208,9.968319818304387,0.03162277660168379,-0.17470716231541497,0.0043735075009960845
5647168,1885,1,186194.5,197663,0.38,0.13,9.96,-0.03,-0.01,-0.0,30.73,3.228682,-7.800542244142019,-0.9945915601840876,9.968094100679428,0.03162277660168379,-0.19414863576830355,0.0034885949109667697
5687171,1881,1,186194.5,198215,0.39,0.17,9.97,-0.03,-0.01,-0.0,30.73,3.268685,-13.224374621683012,-1.5160772842032062,9.97907310324962,0.03162277660168379,-0.3332188681668944,0.002562358600733863
5727168,1883,1,186194.5,199161,0.38,0.13,9.98,-0.03,-0.01,-0.0,30.73,3.308682,-14.16969101721721,-2.053671986630142,9.988077893168436,0.03162277660168379,-0.3574573330872911,0.001607510345753776
5767170,1885,1,186194.5,199287,0.37,0.15,10.0,-0.03,-0.01,-0.0,30.73,3.348684,-6.7046416542314065,-2.5993221757706984,10.00796682648379,0.03162277660168379,-0.16604910408740034,0.0006383543466742925
5807208,1897,1,186194.5,199623,0.36,0.14,9.94,-0.03,-0.01,-0.0,30.73,3.388722,-4.840890682146324,-3.1441135974788996,9.947502199044742,0.03162277660168379,-0.11826143979780401,-0.000329276353549908
5847171,1895,1,186194.5,200055,0.37,0.13,9.98,-0.03,-0.01,-0.01,30.73,3.428685,3.691074318758515,-3.67834966532914,9.987702438499056,0.033166247903554,0.10050312977217657,-0.0012781591733235175
5887168,1929,1,186194.5,200223,0.38,0.13,10.0,-0.03,-0.01,-0.0,30.73,3.468682,26.269429097829565,-4.1916948900226565,10.008061750409016,0.03162277660168379,0.6794253433909573,-0.0021899367443973007
5927171,1909,1,186194.5,200910,0.38,0.14,9.98,-0.03,-0.01,-0.0,30.73,3.508685,13.99097620187675,-4.673366315845073,9.988213053394487,0.03162277660168379,0.36459863436395923,-0.003045456931527145
5967168,1907,1,186194.5,201754,0.37,0.13,9.99,-0.03,-0.01,-0.0,30.73,3.548682,6.962109464818238,-5.112309897567506,9.9976947342875,0.03162277660168379,0.1843743828422658,-0.003825086104118066
6007170,1919,1,186194.5,202931,0.28,0.18,10.02,-0.03,-0.01,-0.0,30.73,3.588684,19.29028649193226,-5.497296544672899,10.025527417547666,0.03162277660168379,0.500476047656069,-0.004508879725073956
6047168,1900,1,186194.5,203403,0.39,0.12,9.95,-0.03,-0.01,-0.01,30.73,3.628682,2.055098822106937,-5.816947019415827,9.958363319341185,0.033166247903554,0.05855576180781407,-0.005076626573459842
6087174,1904,1,186194.5,203392,0.37,0.13,9.95,-0.03,-0.01,-0.01,30.73,3.668688,2.8217646603805338,-6.05980904755292,9.95772564394099,0.033166247903554,0.07821352201852105,-0.005507985704643143
6127168,1923,1,186194.5,202545,0.37,0.14,10.0,-0.03,-0.01,-0.0,30.73,3.708682,24.246343924386505,-6.214653261453564,10.007821940862057,0.03162277660168379,0.6275522570474544,-0.005783012089332801
6167171,1914,1,186194.5,198554,0.38,0.15,9.98,-0.03,-0.01,-0.0,30.73,3.748685,14.710363996545954,-6.271024944877724,9.988358223451941,0.03162277660168379,0.38304415790255975,-0.00588313659447553
6207168,1898,1,186194.5,196743,0.37,0.13,9.97,-0.03,-0.01,-0.01,30.73,3.788682,-2.4288297946664654,-6.219821761522814,9.97771015814751,0.033166247903554,-0.05641478878948934,-0.00579219211519561
6248171,1904,1,186194.5,196470,0.37,0.16,9.98,-0.03,-0.01,-0.01,30.73,3.829685,6.8592873380171495,-6.053489964967986,9.988137964605816,0.033166247903554,0.18173796341139323,-0.005496762072877316
6288168,1917,1,186194.5,196185,0.38,0.14,10.0,-0.03,-0.01,-0.0,30.73,3.869682,17.088968740177794,-5.765619123907291,10.008196640754017,0.03162277660168379,0.44403297382744317,-0.004985460586821819
6328170,1909,1,186194.5,196416,0.38,0.14,9.96,-0.03,-0.01,-0.0,30.73,3.909684,12.092283256351726,-5.350295517810252,9.968229531867733,0.03162277660168379,0.3159150374517251,-0.004247784008642196
6368168,1917,1,186194.5,197370,0.38,0.14,9.98,-0.03,-0.01,-0.0,30.73,3.949682,20.24033560690333,-4.802119548010934,9.988213053394487,0.03162277660168379,0.5248358622691089,-0.0032741418469506307
6408170,1917,1,186194.5,197984,0.35,0.13,9.95,-0.03,-0.01,-0.01,30.73,3.989684,19.438424813993855,-4.117619971679534,9.957002561012022,0.033166247903554,0.5042744008208073,-0.002058368657512486
6448168,1906,1,186194.5,198322,0.38,0.14,9.98,-0.03,-0.01,-0.0,30.73,4.029682,12.494453846722338,-3.297616113547928,9.988213053394487,0.03162277660168379,0.32622692645816165,-0.0006019196830728305
6488171,1926,1,186194.5,198554,0.35,0.14,9.99,-0.03,-0.01,-0.0,30.73,4.069685,29.28840315893113,-2.348612622794472,9.997109582274268,0.03162277660168379,0.756833602912624,0.0010836518506963351
6528854,1919,1,186194.5,199048,0.35,0.15,9.97,-0.03,-0.01,-0.01,30.63,4.110368,27.032983384207135,-1.2811319916990282,9.977269165458052,0.033166247903554,0.6990033215923432,0.0029796564304011668
6567170,1915,1,186194.5,199623,0.37,0.14,9.97,-0.03,-0.01,-0.0,30.63,4.148684,20.24183930270478,-0.10511015756899046,9.977845458815244,0.03162277660168379,0.5248744179083706,0.0050684463516340005
6607168,1915,1,186194.5,200072,0.39,0.14,9.95,-0.03,-0.01,-0.0,30.63,4.188682,24.486288017427658,1.1739104743907611,9.958624402998637,0.03162277660168379,0.6337045638407243,0.007340177477325811
6647171,1903,1,186194.5,200408,0.38,0.14,9.97,-0.03,-0.01,-0.0,30.63,4.228685,8.352798974946328,2.552448783375142,9.978221284377291,0.03162277660168379,0.22003247474212637,0.009788666818486743
6687168,1887,1,186194.5,200911,0.37,0.13,9.99,-0.03,-0.01,-0.01,30.63,4.268682,-0.3355156427981197,4.0189990117830385,9.9976947342875,0.033166247903554,-0.002740990390215387,0.012393478436075639
6727171,1895,1,186194.5,201391,0.38,0.14,9.96,-0.03,-0.01,-0.0,30.63,4.308685,-2.0362674918391446,5.542851020442273,9.968229531867733,0.03162277660168379,-0.04634926189172177,0.015100066549290771
6767168,1883,1,186194.5,201859,0.37,0.15,9.97,-0.03,-0.01,-0.01,30.63,4.348682,-1.3905893368759679,7.074472203625023,9.977990779711114,0.033166247903554,-0.029793696598582563,0.01782045387351547
6807170,1905,1,186194.5,202124,0.37,0.15,9.98,-0.03,-0.01,-0.0,30.63,4.388684,5.909536307315035,8.564999096388446,9.987982779320358,0.03162277660168379,0.15738579185324,0.020467851617821695
6847168,1883,1,186194.5,199392,0.38,0.16,9.98,-0.03,-0.01,-0.01,30.63,4.428682,-2.275015062224182,9.994615517651685,9.988513402904358,0.033166247903554,-0.05247088914471944,0.02300706329340476
6887170,1901,1,186194.5,196593,0.38,0.13,9.95,-0.03,-0.01,-0.0,30.63,4.468684,2.243595351384699,11.381801026740744,9.958102228838584,0.03162277660168379,0.06338892299500971,0.025470911349770926
6927168,1903,1,186194.5,196484,0.35,0.14,9.96,-0.03,-0.01,-0.0,30.63,4.508682,12.222485629583126,12.749083804476632,9.967130981380752,0.03162277660168379,0.3192535024048674,0.027899409191158926
6967171,1904,1,186194.5,196695,0.39,0.14,9.97,-0.03,-0.01,-0.0,30.63,4.548685,6.683478060334612,14.056540002570092,9.978607117228336,0.03162277660168379,0.17723011077081738,0.03022164611718613
7007168,1914,1,186194.5,196652,0.36,0.15,9.97,-0.03,-0.01,-0.0,30.63,4.588682,14.952591224226053,15.16109630758235,9.97762496789692,0.03162277660168379,0.3892550056024679,0.032183502615412224
7047170,1913,1,186194.5,196999,0.36,0.15,9.95,-0.03,-0.01,-0.0,30.63,4.628684,16.054306794348644,15.868993722129899,9.957640282717588,0.03162277660168379,0.4175036367748711,0.033440833850140135
7087168,1923,1,186194.5,197346,0.38,0.13,10.0,-0.03,-0.01,-0.0,30.63,4.668682,14.433254923963348,16.08322438876379,10.008061750409016,0.03162277660168379,0.3759389193108589,0.033821339419252194
7127171,1922,1,186194.5,197659,0.37,0.15,9.98,-0.03,-0.01,-0.0,30.63,4.708685,23.052502931607503,15.934407487061051,9.987982779320358,0.03162277660168379,0.5969414761906883,0.033557018438667915
7167168,1923,1,186194.5,197403,0.37,0.13,9.96,-0.03,-0.01,-0.0,30.63,4.748682,5.256938381119651,15.726001536719028,9.967717893279284,0.03162277660168379,0.14065279958109,0.03318685843315969
7207171,1891,1,186194.5,196367,0.37,0.14,9.98,-0.03,-0.01,-0.0,30.63,4.788685,-14.639703678866745,15.631273248688187,9.987837603805941,0.03162277660168379,-0.3695087324551152,0.033018606885822706
7248172,1858,1,186194.5,196422,0.39,0.14,9.97,-0.03,-0.01,-0.0,30.63,4.829686,-65.31196160670474,15.335641839182184,9.978607117228336,0.03162277660168379,-1.6687750437382591,0.03249352147443423
7288170,1769,1,186194.5,197679,0.38,0.15,9.97,-0.03,-0.01,-0.0,30.63,4.869684,-150.71577613024488,14.018747822179492,9.97836659979979,0.03162277660168379,-3.8585787667839218,0.030154521576458794
7328168,1783,1,186194.5,199137,0.34,0.16,9.97,-0.03,-0.01,-0.0,30.63,4.909682,-140.84224497768605,10.934927962103444,9.977078730770847,0.03162277660168379,-3.605415656938036,0.024677198234592822
7368171,1854,1,186194.5,201030,0.38,0.15,10.0,-0.03,-0.01,-0.0,30.63,4.949685,-85.14402750670433,6.308423515623778,10.008341520951411,0.03162277660168379,-2.1772808052875368,0.016459837316719718
7408168,1821,1,186194.5,201852,0.38,0.15,9.97,-0.03,-0.01,-0.0,30.63,4.989682,-102.7305376655901,1.6823899329032894,9.97836659979979,0.03162277660168379,-2.6282092051038415,0.008243312723008211
7448194,1837,1,186194.5,202548,0.42,0.14,9.96,-0.03,-0.01,-0.0,30.63,5.029708,-119.79395944943343,-1.0787637702518111,9.969834502136933,0.03162277660168379,-3.065725313238091,0.003339092530198971
7488168,1869,1,186194.5,203013,0.4,0.11,9.94,-0.03,-0.01,-0.01,30.63,5.069682,-60.32227761224223,-1.865267238479197,9.94865317517904,0.033166247903554,-1.5408366296422038,0.0019421452374105486
7528171,1972,1,186194.5,199778,0.39,0.13,10.0,-0.03,-0.01,-0.0,30.63,5.109685,4.912773575464137,-3.719208297355763,10.008446432888572,0.03162277660168379,0.13182821279921975,-0.0013507301888401686
7568854,1936,1,186194.5,198796,0.42,0.15,9.94,-0.03,-0.01,-0.01,31.039999999999996,5.150368,-6.196340497609722,-11.393635369815286,9.95,0.033166247903554,-0.15301596532880565,-0.014981655614683337
7607170,1952,1,186194.5,198062,0.36,0.14,9.99,-0.03,-0.01,-0.01,31.039999999999996,5.188684,-18.614976449903697,-26.839991864172976,9.99746467860727,0.033166247903554,-0.471437049857605,-0.042416685159905265
7647178,1979,1,186194.5,197700,0.44,0.12,9.904999999999998,-0.03,-0.01,-0.0,31.039999999999996,5.228692,21.115104682438016,-44.94104758087262,9.915494188390205,0.03162277660168379,0.5472654526697002,-0.07456685588584727
7687171,2019,1,186194.5,198454,0.39,0.14,9.95,-0.03,-0.01,-0.01,31.039999999999996,5.268685,46.89407230007864,-54.82644556862776,9.958624402998637,0.033166247903554,1.2082532502325747,-0.09212479493505975
7727158,2019,1,186194.5,200889,0.41,0.13,9.96,-0.03,-0.01,-0.01,31.039999999999996,5.308672,48.417188067241256,-49.08954752329959,9.969282822751094,0.033166247903554,1.2473068287661533,-0.08193520961576475
7767170,2019,1,186194.5,204525,0.39,0.12,9.96,-0.03,-0.01,-0.01,31.039999999999996,5.348684,44.263095945817305,-35.28940645549098,9.968354929475575,0.033166247903554,1.140793478699553,-0.05742410383739825
7807158,2019,1,186194.5,207527,0.34,0.13,9.98,-0.03,-0.01,-0.01,31.039999999999996,5.388672,41.00447233449107,-37.386316087608506,9.986636070269107,0.033166247903554,1.0572404646345916,-0.06114852763480439
7847162,2019,1,186194.5,210258,0.35,0.15,9.98,-0.03,-0.01,-0.01,31.039999999999996,5.428676,41.174908561816615,-78.10476914593852,9.987261887023891,0.033166247903554,1.061610549123458,-0.13347056442704594
7887159,2019,1,186194.5,212487,0.35,0.11,9.98,-0.03,-0.01,-0.01,31.039999999999996,5.468673,38.12488617520986,-149.49761126767532,9.986741210224686,0.033166247903554,0.9834061923880437,-0.26027488450360786
7927162,2019,1,186194.5,213696,0.32,0.11,10.0,-0.03,-0.01,-0.01,31.039999999999996,5.508676,39.59581832415909,-197.47708811324526,10.005723362156282,0.033166247903554,1.0211217524492253,-0.34549358091938287
7967168,2019,1,186194.5,214688,0.35,0.14,10.0,-0.03,-0.01,-0.0,31.039999999999996,5.548682,39.09362640573073,-146.2956026349107,10.007102477740498,0.03162277660168379,1.0082452581287666,-0.254587640299705
8007171,2019,1,186194.5,215766,0.36,0.12,9.96,-0.03,-0.01,-0.0,31.039999999999996,5.588685,40.33589923723495,40.65440810091611,9.967226294210441,0.03162277660168379,1.040097859638932,0.07746342105515235
8047168,2019,1,186580.0,217158,0.36,0.11,9.96,-0.03,-0.01,-0.01,31.039999999999996,5.628682,44.08912357764302,308.79420032452526,9.967110915405728,0.033166247903554,1.1363327254924454,0.553719625849569
8087170,2019,1,186962.0,217958,0.36,0.12,9.97,-0.03,-0.01,-0.01,31.039999999999996,5.668684,43.92447564618405,524.2897698819023,9.977219051419087,0.033166247903554,1.1321110562928658,0.936471850934538
8127168,2019,1,187173.0,218216,0.35,0.12,9.96,-0.03,-0.01,-0.0,31.039999999999996,5.708682,52.06856928876234,558.076771502068,9.966870120554397,0.03162277660168379,1.340930377523943,0.9964825976781022
8167170,2019,1,186848.0,216798,0.34,0.12,9.96,-0.03,-0.01,-0.01,31.039999999999996,5.748684,52.7016313553763,379.8320296411827,9.966523967763285,0.033166247903554,1.3571624589376852,0.6798933903125892
8207170,2019,1,186198.0,215298,0.34,0.13,9.98,-0.03,-0.01,-0.0,31.039999999999996,5.788684,59.92731903924672,80.24350863610414,9.986636070269107,0.03162277660168379,1.5424333145777847,0.14777955957289213
8247170,2019,1,186194.5,214732,0.34,0.14,9.95,-0.03,-0.01,-0.01,31.039999999999996,5.828684,69.34823480185061,-197.92489601186782,9.956791651932864,0.033166247903554,1.783991101270828,-0.3462889544389427
8288171,2019,1,186194.5,214672,0.35,0.14,9.99,-0.03,-0.01,-0.0,31.039999999999996,5.869685,66.42163419397244,-356.10662183669405,9.997109582274268,0.03162277660168379,1.7089513510822358,-0.6272432573584392
8328170,2019,1,186194.5,214601,0.35,0.14,9.98,-0.03,-0.01,-0.01,31.039999999999996,5.909684,91.56361018513712,-383.3429203806896,9.987116701030383,0.033166247903554,2.353606311019673,-0.6756189798487205
8366171,2019,1,186194.5,214890,0.34,0.13,10.01,-0.03,-0.01,-0.0,31.039999999999996,5.947685,76.69817617331564,-328.1504145858105,10.016616195103014,0.03162277660168379,1.9724478940873267,-0.5775888697894029
8406171,1950,1,186194.5,215787,0.36,0.13,9.99,-0.03,-0.01,-0.01,31.039999999999996,5.987685,42.040925330315005,-244.99771997110406,9.997329643459798,0.033166247903554,1.0838157252559015,-0.4298973003016334
8446168,1978,1,186326.0,216429,0.37,0.13,9.99,-0.03,-0.01,-0.0,31.039999999999996,6.027682,57.04812665707795,-165.62587560562636,9.9976947342875,0.03162277660168379,1.468609139006563,-0.28892108393494087
8486171,1906,1,186358.0,216827,0.34,0.12,9.95,-0.03,-0.01,-0.0,31.039999999999996,6.067685,9.66233912842596,-102.30995384679288,9.956530520216367,0.03162277660168379,0.25360984970559564,-0.1764625773109948
8526172,1831,1,186625.0,217034,0.34,0.11,9.96,-0.03,-0.01,-0.0,31.039999999999996,6.107686,-58.973955301219576,-57.19984614835872,9.9664085808279,0.03162277660168379,-1.5062648574911002,-0.09634030783296231
8566171,1803,1,186592.0,217092,0.34,0.12,9.95,-0.03,-0.01,-0.0,31.039999999999996,6.147685,-83.67385372322516,-19.94509472801677,9.956530520216367,0.03162277660168379,-2.1395846901602735,-0.030170320995591866
8606854,1755,1,186624.0,217083,0.36,0.12,9.98,-0.03,-0.01,-0.0,30.93,6.188368,-105.12076844977844,35.69404596770668,9.987211823126614,0.03162277660168379,-2.689496119504032,0.06865307916453811
8647171,1779,1,186700.0,217458,0.35,0.12,9.99,-0.03,-0.01,-0.01,30.93,6.228685,-90.48915557219743,136.34206100135663,9.996849503718659,0.033166247903554,-2.314333013122427,0.24741894327785047
8687170,1755,1,186884.0,217987,0.36,0.14,9.95,-0.03,-0.01,-0.01,30.93,6.268684,-83.89283730808162,276.994859075024,9.957494664824077,0.033166247903554,-2.1451995572722384,0.4972392599446813
8727170,1755,1,186960.0,218457,0.35,0.11,9.99,-0.03,-0.01,-0.0,30.93,6.308684,-88.88703366084275,402.00558674453464,9.996734466814651,0.03162277660168379,-2.2732536708725504,0.7192769300149999
8767168,1755,1,187067.0,218824,0.36,0.11,9.96,-0.03,-0.01,-0.01,30.93,6.348682,-68.5607132864092,427.1857832268847,9.967110915405728,0.033166247903554,-1.7520749357062786,0.7640007090304664
8807171,1755,1,187171.0,218474,0.38,0.12,9.97,-0.03,-0.01,-0.01,30.93,6.388685,-62.03303839766305,296.9523087294215,9.977960713492513,0.033166247903554,-1.5847015361227268,0.5326866627749656
8847171,1755,1,186650.0,216685,0.35,0.12,9.98,-0.03,-0.01,-0.0,30.93,6.428685,-52.81701714642358,33.33600901459022,9.98685636223932,0.03162277660168379,-1.3483973644622267,0.06446485435559327
8887170,1755,1,186194.5,215527,0.34,0.14,9.97,-0.03,-0.01,-0.01,30.93,6.468684,-39.79908047426963,-267.4388813574419,9.976778037021772,0.033166247903554,-1.0146098591840171,-0.4697561450646796
8927171,1755,1,186194.5,215317,0.36,0.14,10.01,-0.03,-0.01,-0.01,30.93,6.508685,-34.78462816096556,-491.94159775037764,10.017449775267156,0.033166247903554,-0.8860363709157436,-0.8685064043554478
8967171,1755,1,186194.5,215147,0.35,0.12,9.97,-0.03,-0.01,-0.0,30.93,6.548685,-22.557985386714822,-574.5440153539596,9.976863234504119,0.03162277660168379,-0.5725381036922834,-1.0152205999192259
9007168,1755,1,186194.5,215383,0.36,0.13,9.98,-0.03,-0.01,-0.0,30.93,6.588682,-16.897702881064745,-523.1403311906649,9.987336982399263,0.03162277660168379,-0.4274051518035089,-0.9239200013432193
9047171,1755,1,186194.5,216229,0.37,0.12,9.97,-0.03,-0.01,-0.0,30.93,6.628685,-8.197521565109348,-397.57713270401916,9.977584878115547,0.03162277660168379,-0.20432741759293488,-0.7009010608227132
9087179,1763,1,186353.0,216830,0.34,0.13,9.94,-0.03,-0.01,-0.01,30.93,6.668693,6.0114702329058325,-266.17933779894094,9.946662756925058,0.033166247903554,0.15999943728592572,-0.4675190081221527
9127171,1755,1,186550.0,217113,0.37,0.14,9.95,-0.03,-0.01,-0.01,30.93,6.708685,4.792925782773327,-167.62243694444774,9.957861216144758,0.033166247903554,0.1287552453434066,-0.29246727421867674
9167171,1755,1,186566.0,217514,0.36,0.12,9.98,-0.03,-0.01,-0.01,30.93,6.748685,8.37060931411777,-92.75720907554981,9.987211823126614,0.033166247903554,0.22048914224865301,-0.15949547991603621
9207171,1755,1,186667.0,217860,0.35,0.11,9.97,-0.03,-0.01,-0.01,30.93,6.788685,16.75252423855742,6.663651158002207,9.976747967148414,0.033166247903554,0.4354063401535636,0.017090774513300135
9247171,1763,1,186826.0,218397,0.35,0.11,9.96,-0.03,-0.01,-0.0,30.93,6.828685,22.17679782821937,182.42495924892148,9.966754737626486,0.03162277660168379,0.574487885488825,0.3292690336479142
9287171,1784,1,187029.0,219201,0.38,0.14,9.96,-0.03,-0.01,-0.01,30.93,6.868685,55.29696846887576,442.71684723136656,9.968229531867733,0.033166247903554,1.4237084195063807,0.791586191729078
9327168,1805,1,187301.0,220001,0.35,0.11,9.97,-0.03,-0.01,-0.01,30.93,6.908682,67.5252164273492,723.8092513210253,9.976747967148414,0.033166247903554,1.7372478445915438,1.290848164217816
9367171,1755,1,187472.0,220395,0.34,0.12,9.98,-0.03,-0.01,-0.0,30.93,6.948685,30.66186612865604,908.1830260328375,9.986510902212043,0.03162277660168379,0.7920499962476075,1.6183234467176324
9407168,1755,1,187517.0,220365,0.33,0.12,9.99,-0.03,-0.01,-0.0,30.93,6.988682,20.67424367859006,889.1885322023514,9.996169266273956,0.03162277660168379,0.5359615188470978,1.5845863968427136
9447171,1755,1,187340.0,219795,0.36,0.14,9.97,-0.03,-0.01,-0.0,30.93,7.028685,28.94079163833405,644.456233921734,9.97747964167304,0.03162277660168379,0.7479206403450418,1.1499053873469527
9487168,1755,1,186809.0,217501,0.33,0.13,10.01,-0.03,-0.01,-0.01,30.93,7.068682,22.8501967783836,262.9501914295226,10.016281745238599,0.033166247903554,0.591754228173767,0.4722938385472208
9527171,1755,1,186194.5,214075,0.34,0.12,9.98,-0.03,-0.01,-0.01,30.93,7.108685,23.5155484608423,-102.43719572456723,9.986510902212043,0.033166247903554,0.6088142342110988,-0.1766885778359344
9567171,1755,1,186194.5,211897,0.34,0.15,9.98,-0.03,-0.01,-0.01,30.93,7.148685,21.397253238784906,-326.47061116014225,9.986916441024226,0.033166247903554,0.5544999065707034,-0.574605288733883
9607848,1755,1,186194.5,211362,0.34,0.12,9.99,-0.03,-0.01,-0.0,31.039999999999996,7.189362,16.901883627775312,-378.5303214979177,9.996504389035199,0.03162277660168379,0.4392360021939051,-0.6670710874971244
9646168,1755,1,186194.5,210437,0.34,0.11,10.0,-0.03,-0.01,-0.0,31.039999999999996,7.227682,15.286135191179204,-318.1628407335338,10.006382962889237,0.03162277660168379,0.39780726787211285,-0.5598494511878455
9686170,1755,1,186194.5,208932,0.35,0.14,9.98,-0.03,-0.01,-0.0,31.039999999999996,7.267684,9.423344238496188,-234.4618502372283,9.987116701030383,0.03162277660168379,0.2474818810349123,-0.4111840265571697
9726168,1755,1,186194.5,207643,0.35,0.13,9.94,-0.03,-0.01,-0.0,31.039999999999996,7.307682,5.559745376464102,-184.82369549647618,9.947009600880055,0.03162277660168379,0.1484169479328803,-0.32301927117422324
9766171,1755,1,186194.5,206303,0.37,0.13,9.97,-0.03,-0.01,-0.0,31.039999999999996,7.347685,0.26558924863353034,-174.9311803408338,9.97771015814751,0.03162277660168379,0.012671690372833782,-0.30544869097488997
9806168,1755,1,186194.5,205571,0.39,0.12,9.93,-0.03,-0.01,-0.0,31.039999999999996,7.387682,-6.338275212107757,-179.25880423902277,9.938380149702466,0.03162277660168379,-0.1566552543695961,-0.3131351955270018
9846171,1755,1,186194.5,206167,0.35,0.14,9.99,-0.03,-0.01,-0.0,31.039999999999996,7.427685,-11.129952348078453,-173.11170551992512,9.997109582274268,0.03162277660168379,-0.27951665687860505,-0.3022170327202944
9886168,1755,1,186194.5,209415,0.4,0.13,9.92,-0.03,-0.01,-0.0,31.039999999999996,7.467682,-19.270897229674432,-150.05626175692498,9.928912327138356,0.03162277660168379,-0.4882552420376401,-0.2612671309718035
9926171,1755,1,186194.5,212623,0.37,0.13,9.95,-0.03,-0.01,-0.01,31.039999999999996,7.507685,-24.999393478034804,-118.98010726281879,9.95772564394099,0.033166247903554,-0.635137234160545,-0.2060712524480159
9966159,1755,1,186194.5,213631,0.37,0.13,10.01,-0.03,-0.01,-0.01,31.039999999999996,7.547673,-32.277884238822175,-91.45901411144428,10.017679371990301,0.033166247903554,-0.8217619915562755,-0.15718969232083838
10006162,1755,1,186194.5,213110,0.36,0.14,9.99,-0.03,-0.01,-0.0,31.039999999999996,7.587676,-41.15045501599789,-72.44275423001888,9.99746467860727,0.03162277660168379,-1.049259892314446,-0.123413982697854
10046171,1755,1,186194.5,212514,0.35,0.16,9.92,-0.03,-0.01,-0.0,31.039999999999996,7.627685,-45.177408490827766,-59.51290395766802,9.927461911284274,0.03162277660168379,-1.152513333169638,-0.10044864298380435
10086170,1755,1,186194.5,211538,0.38,0.11,10.0,-0.03,-0.01,-0.01,31.039999999999996,7.667684,-58.08563569834519,-47.70164007577336,10.007821940862057,0.033166247903554,-1.4834878236492148,-0.07947007928921655
10126168,1755,1,186194.5,209629,0.38,0.13,9.96,-0.03,-0.01,-0.0,31.039999999999996,7.707682,-59.20151866189099,-34.144735250273435,9.968094100679428,0.03162277660168379,-1.5120997150698525,-0.055390997302133475
10166171,1790,1,186194.5,205881,0.35,0.16,9.98,-0.03,-0.01,-0.01,31.039999999999996,7.747685,-38.32249682321568,-19.317344615030848,9.987417083510632,0.033166247903554,-0.9767493913055588,-0.029055343304699117
10206171,1808,1,186194.5,205137,0.41,0.15,9.97,-0.03,-0.01,-0.0,31.039999999999996,7.787685,-22.40928538045345,-5.372475135603209,9.979554098255093,0.03162277660168379,-0.5687253486163575,-0.004287178313031959
10246171,1833,1,186194.5,205311,0.36,0.12,9.99,-0.03,-0.01,-0.01,31.039999999999996,7.827685,-7.99786058330256,6.04669642556039,9.99720460928954,0.033166247903554,-0.19920799331725522,0.015994971025999512
10286171,1840,1,186194.5,204206,0.37,0.12,9.97,-0.03,-0.01,-0.0,31.039999999999996,7.867685,-7.129126890435308,14.747184925968872,9.977584878115547,0.03162277660168379,-0.17693315365594753,0.031448334358236664
10326171,1846,1,186194.5,202725,0.36,0.1,9.96,-0.03,-0.01,-0.0,31.039999999999996,7.907685,-7.143501299398812,21.52126154715234,9.967005568374084,0.03162277660168379,-0.1773017219036361,0.04348010329427361
10366168,1875,1,186194.5,201948,0.35,0.15,10.01,-0.03,-0.01,-0.0,31.039999999999996,7.947682,14.064747003929634,27.183456993265224,10.017240138880569,0.03162277660168379,0.36649016084774344,0.05353700567197493
10406171,1888,1,186194.5,201864,0.43,0.16,9.93,-0.03,-0.01,-0.0,31.039999999999996,7.987685,21.396368304475825,31.999002481707112,9.94059354364718,0.03162277660168379,0.554477216337773,0.06209013163407627
10446168,1898,1,186194.5,204966,0.42,0.12,9.93,-0.03,-0.01,-0.0,31.039999999999996,8.027682,27.267572458623867,35.749485980699355,9.939602607750473,0.03162277660168379,0.7050183225780662,0.06875154888424173
10486171,1919,1,186194.5,208984,0.43,0.14,9.95,-0.03,-0.01,-0.01,31.039999999999996,8.067685,39.202021472217325,38.12692299997695,9.960271080648356,0.033166247903554,1.0110245709905674,0.07297423109992222
10526162,1915,1,186194.5,211334,0.42,0.13,9.93,-0.03,-0.01,-0.01,31.039999999999996,8.107676,36.283815846701486,39.04024297348468,9.93972836650982,0.033166247903554,0.9362000730566256,0.07459642339275056
10566162,1937,1,186194.5,211878,0.39,0.11,10.02,-0.03,-0.01,-0.01,31.039999999999996,8.147676,47.48797720939761,38.651125550587594,10.028190265446701,0.033166247903554,1.2234813192458542,0.07390529289879609
10606161,1953,1,186194.5,211974,0.37,0.12,9.98,-0.03,-0.01,-0.0,31.039999999999996,8.187675,66.19616690257659,37.223803676312166,9.98757728380612,0.03162277660168379,1.7031702379448648,0.07137015668038808
10646857,1958,1,186194.5,212458,0.4,0.12,9.96,-0.03,-0.01,-0.01,30.73,8.228371,63.3896972348401,34.97106671922021,9.96875117554852,0.033166247903554,1.631210715278226,0.06736896034661144
10687168,1947,1,186194.5,212305,0.37,0.13,9.97,-0.03,-0.01,-0.0,30.73,8.268682,52.65790554261132,32.00654048180143,9.97771015814751,0.03162277660168379,1.3560413035405856,0.062103520244871
10727215,1941,1,186194.5,211710,0.36,0.13,9.96,-0.03,-0.01,-0.01,30.73,8.308729,44.642359622467566,28.392423502580545,9.967351704439851,0.033166247903554,1.150518021049073,0.0556843102427561
10767171,1933,1,186194.5,210386,0.37,0.13,9.96,-0.03,-0.01,-0.0,30.73,8.348685,33.6081072531371,24.2082871459645,9.967717893279284,0.03162277660168379,0.8675933407618104,0.04825266093394143
10807171,1919,1,186194.5,206175,0.37,0.12,9.97,-0.03,-0.01,-0.01,30.73,8.388685,22.568306870504003,19.582034900572534,9.977584878115547,0.033166247903554,0.5845264061706457,0.040035747962760146
10847171,1913,1,186194.5,199991,0.4,0.12,9.97,-0.03,-0.01,-0.01,30.73,8.428685,12.317943417159885,14.675197894390376,9.978742405734302,0.033166247903554,0.32170109587356044,0.03132047466919282
10887170,1893,1,186194.5,196704,0.39,0.11,10.0,-0.03,-0.01,-0.0,30.73,8.468684,-2.3880976355868038,9.650449197578485,10.008206632559101,0.03162277660168379,-0.05537039242267664,0.022395772652590688
10927222,1886,1,186194.5,195133,0.4,0.13,9.97,-0.03,-0.01,-0.0,30.73,8.508736,-12.577786923224066,4.650439639808851,9.978867671234047,0.03162277660168379,-0.3166399816468941,0.013515011031304144
10967170,1867,1,186194.5,194607,0.4,0.15,9.95,-0.03,-0.01,-0.0,30.73,8.548684,-25.384998889768536,-0.2029258867546479,9.95916663180208,0.03162277660168379,-0.6450243823043593,0.004894711048996372
11007168,1855,1,186194.5,193877,0.4,0.14,9.96,-0.03,-0.01,-0.0,30.73,8.588682,-39.47720791514687,-4.797913879284682,9.96901198715299,0.03162277660168379,-1.0063568586330993,-0.0032666719529465473
11047171,1851,1,186194.5,194395,0.43,0.14,9.95,-0.03,-0.01,-0.0,30.73,8.628685,-35.63411818710226,-9.024477653430926,9.960271080648356,0.03162277660168379,-0.9078177917141269,-0.010773678673969965
11087171,1847,1,186194.5,195165,0.4,0.14,9.96,-0.03,-0.01,-0.0,30.73,8.668685,-41.86572743358589,-12.77421047521169,9.96901198715299,0.03162277660168379,-1.06759989517924,-0.017433762609610184
11127171,1819,1,186194.5,195526,0.4,0.15,9.99,-0.03,-0.01,-0.0,30.73,8.708685,-60.04126812095164,-15.946400984832955,9.999129962151708,0.03162277660168379,-1.5336313820350294,-0.023068045386025606
11167168,1830,1,186194.5,195702,0.39,0.12,9.99,-0.03,-0.01,-0.0,30.73,8.748682,-50.72203810649868,-18.454385810836275,9.998329860531708,0.03162277660168379,-1.294680877360053,-0.027522599948812197
11207171,1842,1,186194.5,196204,0.38,0.12,9.97,-0.03,-0.01,-0.0,30.73,8.788685,-29.382021688857126,-20.228469472205003,9.977960713492513,0.03162277660168379,-0.7475103831390183,-0.030673636744002423
11247171,1847,1,186194.5,196875,0.41,0.16,9.96,-0.03,-0.01,-0.0,30.73,8.828685,-22.315624691136414,-21.215549867400714,9.969719153516815,0.03162277660168379,-0.5663238337974504,-0.03242683853081835
11287171,1844,1,186194.5,197750,0.39,0.13,10.0,-0.03,-0.01,-0.0,30.73,8.868685,-20.354263393382066,-21.37776008086064,10.008446432888572,0.03162277660168379,-0.5160333837043074,-0.032714948027736626
11327168,1840,1,186194.5,198817,0.41,0.15,9.97,-0.03,-0.01,-0.0,30.73,8.908682,-15.465869304474493,-20.69206389880871,9.979554098255093,0.03162277660168379,-0.3906921019907878,-0.03149704948832946
11367170,1849,1,186194.5,199783,0.41,0.12,9.94,-0.03,-0.01,-0.0,30.73,8.948684,-8.219585081327354,-19.151134430163292,9.949175845264772,0.03162277660168379,-0.20489313904492404,-0.028760129262848932
11407168,1840,1,186194.5,201372,0.4,0.13,9.95,-0.03,-0.01,-0.0,30.73,8.988682,-1.1805137265115868,-16.764654683634703,9.958885479811483,0.03162277660168379,-0.02440723515931964,-0.02452138581684586
11447170,1856,1,186194.5,202054,0.4,0.14,9.99,-0.03,-0.01,-0.01,30.73,9.028684,7.534082276509711,-13.560082963337692,9.998984948483521,0.033166247903554,0.199040100053031,-0.018829589187767278
11487168,1860,1,186194.5,198978,0.43,0.15,9.99,-0.03,-0.01,-0.01,30.73,9.068682,31.173408489686036,-9.58254470148237,10.000374992969014,0.033166247903554,0.8051662413817203,-0.01176488886370622
11525175,1890,1,186194.5,197535,0.44,0.11,9.99,-0.03,-0.01,-0.01,30.73,9.106689,53.19865460301487,-4.894113194255089,10.000289995795121,0.033166247903554,1.3699064255179976,-0.003437536263206854
11565171,1870,1,186194.5,198200,0.41,0.16,9.96,-0.03,-0.01,-0.01,30.73,9.146685,50.17106628048204,0.4270945417034292,9.969719153516815,0.033166247903554,1.2922772912981837,0.006013721158283601
11605171,1871,1,186194.5,199055,0.42,0.12,9.95,-0.03,-0.01,-0.01,30.73,9.186685,48.380061671576165,6.2877899027307835,9.959583324617551,0.033166247903554,1.2463548862808644,0.016423188947277335
11645171,1867,1,186194.5,199585,0.43,0.15,9.95,-0.03,-0.01,-0.01,30.73,9.226685,53.608806430350135,12.580414953254035,9.960416657951614,0.033166247903554,1.380422958105253,0.027599828191695337
11685857,1853,1,186194.5,200933,0.43,0.15,9.98,-0.03,-0.01,-0.01,30.63,9.267371,44.52180078899709,19.18425697203827,9.990385377952144,0.033166247903554,1.147426822092065,0.03932923512099316
11726171,1840,1,186194.5,201900,0.4,0.14,9.96,-0.03,-0.01,-0.01,30.63,9.307685,32.833549518434225,25.96689651096023,9.96901198715299,0.033166247903554,0.847733227713831,0.0513762130742009
11766170,1827,1,186194.5,202572,0.4,0.13,9.97,-0.03,-0.01,-0.01,30.63,9.347684,29.68583167126609,32.78598372482068,9.978867671234047,0.033166247903554,0.7670239022664745,0.06348792752621712
11806168,1814,1,186194.5,203496,0.41,0.13,9.95,-0.03,-0.01,-0.0,30.63,9.387682,14.450871393108088,39.491260284258594,9.959292143521044,0.03162277660168379,0.37639061587658357,0.07539749730626594
11846171,1771,1,186194.5,203957,0.4,0.14,10.01,-0.03,-0.01,-0.01,30.63,9.427685,-19.288086535082982,45.92674859709438,10.01896701262161,0.033166247903554,-0.488695985875491,0.08682788298104134
11886168,1755,1,186194.5,203914,0.4,0.14,9.96,-0.03,-0.01,-0.01,30.63,9.467682,-36.136750256793924,51.93307789506787,9.96901198715299,0.033166247903554,-0.9207055717702457,0.0974960183311757
11926170,1755,1,186194.5,203915,0.4,0.13,9.95,-0.03,-0.01,-0.0,30.63,9.507684,-31.234447462014238,57.349954613563355,9.958885479811483,0.03162277660168379,-0.7950076627085051,0.10711719811354277
11966168,1755,1,186194.5,204072,0.4,0.14,9.98,-0.03,-0.01,-0.0,30.63,9.547682,-29.214097147803624,62.01878738336672,9.988993943335835,0.03162277660168379,-0.7432046997542517,0.11540974043755585
12006171,1755,1,186194.5,204053,0.41,0.13,9.99,-0.03,-0.01,-0.01,30.63,9.587685,-28.138253907279157,65.78545362980529,9.999254972246682,0.033166247903554,-0.7156194502351612,0.12209990065726724
12046171,1755,1,186194.5,203986,0.4,0.14,9.97,-0.03,-0.01,-0.0,30.63,9.627685,-25.602431889479536,68.50316800454324,9.9790029562076,0.03162277660168379,-0.6505994915068751,0.12692696613342958
12086170,1755,1,186194.5,203583,0.41,0.16,9.95,-0.03,-0.01,-0.01,30.63,9.667684,-25.315813872731113,70.03539927384196,9.959728911973457,0.033166247903554,-0.64325043802877,0.1296484370614558
12126171,1755,1,186194.5,200476,0.39,0.14,9.96,-0.03,-0.01,-0.0,30.63,9.707685,-25.072245982202773,70.25878518581875,9.968615751447139,0.03162277660168379,-0.6370052149498134,0.13004520370977887
12166170,1755,1,186194.5,198518,0.41,0.14,9.95,-0.03,-0.01,-0.01,30.63,9.747684,-23.9752197021854,69.06600760579445,9.959427694400919,0.033166247903554,-0.6088768199166052,0.12792665308842047
12206171,1755,1,186194.5,198559,0.41,0.13,9.96,-0.03,-0.01,-0.01,30.63,9.787685,-25.828853441437982,66.36860178750769,9.969282822751094,0.033166247903554,-0.6564050724428381,0.1231356586330495
12246170,1755,1,186194.5,198349,0.4,0.14,9.97,-0.03,-0.01,-0.0,30.63,9.827684,-25.883870988062135,62.09967303283227,9.9790029562076,0.03162277660168379,-0.6578157544961227,0.11555340539722984
12286168,1755,1,186194.5,197970,0.4,0.14,9.97,-0.03,-0.01,-0.0,30.63,9.867682,-26.406169917848057,56.21647589351707,9.9790029562076,0.03162277660168379,-0.6712078043403685,0.10510397109882837
12326171,1755,1,186194.5,198283,0.41,0.12,9.96,-0.03,-0.01,-0.0,30.63,9.907685,-31.22178978685378,48.70278304134008,9.96915743681481,0.03162277660168379,-0.7946831125189602,0.09175853358620217
12366204,1755,1,186194.5,199088,0.4,0.11,9.96,-0.03,-0.01,-0.0,30.63,9.947718,-27.688768684660815,39.57095494258125,9.968635814393062,0.03162277660168379,-0.7040943864024168,0.07553904688829696
12406170,1771,1,186194.5,199545,0.4,0.14,9.98,-0.03,-0.01,-0.01,30.63,9.987684,-21.274805616533815,28.8636409099702,9.988993943335835,0.033166247903554,-0.5396366243642758,0.056521262536242296
12446171,1778,1,186194.5,200234,0.39,0.13,9.95,-0.03,-0.01,-0.01,30.63,10.027685,-9.874341335784573,16.655096659398122,9.958488841184689,0.033166247903554,-0.2473220566168052,0.03483706974029439
12486170,1778,1,186194.5,201135,0.4,0.13,9.98,-0.03,-0.01,-0.0,30.63,10.067684,-17.394096078241205,3.05215289413994,9.988858793676084,0.03162277660168379,-0.4401329635217073,0.010676215739664945
12526173,1755,1,186194.5,201680,0.4,0.13,9.96,-0.03,-0.01,-0.01,30.63,10.107687,-43.606342781659315,-11.805147066802494,9.968876566594654,0.033166247903554,-1.1122302900962142,-0.01571256167457989
12566172,1755,1,186194.5,202135,0.4,0.14,9.99,-0.03,-0.01,-0.0,30.63,10.147686,-41.07496179875565,-27.74332814337367,9.998984948483521,0.03162277660168379,-1.0473242020984523,-0.044021144924782166
12606168,1755,1,186194.5,202883,0.42,0.11,9.94,-0.03,-0.01,-0.01,30.63,10.187682,-55.43060613562057,-44.55589643958413,9.949477373209108,0.033166247903554,-1.4154113137920568,-0.07388277009872424
12646170,1755,1,186194.5,203463,0.39,0.13,10.01,-0.03,-0.01,-0.01,30.63,10.227684,-45.80142217801027,-62.00460272434549,10.018438002004105,0.033166247903554,-1.1685134088459657,-0.10487427107976084
12686845,1835,1,186194.5,203989,0.39,0.15,9.96,-0.03,-0.01,-0.0,30.37,10.268359,19.363934057010216,-79.82156303673237,9.968761206890253,0.03162277660168379,0.5023644142717838,-0.1365198460575839
12725170,1856,1,186194.5,204536,0.39,0.12,9.98,-0.03,-0.01,-0.0,30.37,10.306684,41.68224240883731,-97.7119126290589,9.988338200121179,0.03162277660168379,1.0746188854984895,-0.16829577132637574
12765171,1883,1,186194.5,201720,0.39,0.11,9.99,-0.03,-0.01,-0.0,30.37,10.346685,69.22720634175906,-115.35652877042399,9.998214840660307,0.03162277660168379,1.780887860812758,-0.19963523738940994
12805170,1932,1,186194.5,198823,0.37,0.14,9.99,-0.03,-0.01,-0.01,30.37,10.386684,101.28792689440596,-132.41469950765344,9.997829764503894,0.033166247903554,2.60294347532353,-0.22993308907594068
12845171,1927,1,186194.5,198611,0.38,0.13,9.99,-0.03,-0.01,-0.01,30.37,10.426685,112.50276221045102,-148.52735235524165,9.998069813719045,0.033166247903554,2.890498407915568,-0.2585515601753848
12885170,1951,1,186194.5,199210,0.38,0.13,9.94,-0.03,-0.01,-0.0,30.37,10.466684,111.91075446321159,-163.32196346555784,9.948110373332213,0.03162277660168379,2.875318983246902,-0.2848289928547263
12925171,1842,1,186194.5,199880,0.4,0.15,9.96,-0.03,-0.01,-0.0,30.37,10.506685,17.079079731552483,-176.41976033714855,9.96915743681481,0.03162277660168379,0.44377941386614933,-0.3080926307411539
12965170,1795,1,186194.5,200515,0.4,0.13,9.98,-0.03,-0.01,-0.0,30.37,10.546684,-43.282344229285414,-187.4442038158805,9.988858793676084,0.03162277660168379,-1.103922777835691,-0.3276736842193073
13005168,1825,1,186194.5,201226,0.38,0.13,9.97,-0.03,-0.01,-0.0,30.37,10.586682,-14.268219838445908,-196.02815997723837,9.978085988805669,0.03162277660168379,-0.3599836696538438,-0.34292006876233966
13045170,1815,1,186194.5,201680,0.41,0.12,9.96,-0.03,-0.01,-0.0,30.37,10.626684,-23.18504372900054,-201.81757354288035,9.96915743681481,0.03162277660168379,-0.5886162461050632,-0.3532029294667987
13085171,1830,1,186194.5,201857,0.39,0.15,9.99,-0.03,-0.01,-0.01,30.37,10.666685,-17.216586316786994,-204.47270875556862,9.998734919978627,0.033166247903554,-0.43558150948329033,-0.3579188450313055
13125171,1855,1,186194.5,202114,0.41,0.11,9.96,-0.03,-0.01,-0.0,30.37,10.706685,9.364153785679807,-203.6721738014748,9.96904208036058,0.03162277660168379,0.24596420322778878,-0.3564969757299224
13165171,1872,1,186194.5,202299,0.4,0.14,9.98,-0.03,-0.01,-0.01,30.37,10.746685,24.542323769568426,-199.12559028275317,9.988993943335835,0.033166247903554,0.6351413532785977,-0.3484215662822956
13205170,1910,1,186194.5,202742,0.38,0.13,9.98,-0.03,-0.01,-0.01,30.37,10.786684,53.09850400918065,-190.59467871579338,9.988077893168436,0.033166247903554,1.3673385057539105,-0.3332693968387954
13245171,1910,1,186194.5,202974,0.38,0.12,9.98,-0.03,-0.01,-0.0,30.37,10.826685,62.86502877819413,-177.91235780160866,9.987952743180156,0.03162277660168379,1.6177579093802965,-0.3107437061291617
13285171,1927,1,186194.5,203747,0.4,0.14,9.97,-0.03,-0.01,-0.0,30.37,10.866685,62.50973955635311,-160.9846288331136,9.9790029562076,0.03162277660168379,1.6086480860651913,-0.2806775384504723
13325168,1924,1,186194.5,204376,0.38,0.14,9.96,-0.03,-0.01,-0.01,30.37,10.906682,71.37688978748766,-139.770074593213,9.968229531867733,0.033166247903554,1.8360070008545486,-0.2429973306569393
13365170,1937,1,186194.5,204716,0.39,0.12,10.0,-0.03,-0.01,-0.0,30.37,10.946684,71.8946975502444,-114.25495099488309,10.008321537600597,0.03162277660168379,1.8492838945510721,-0.19767867120311455
13405168,1942,1,186194.5,203424,0.4,0.13,9.97,-0.03,-0.01,-0.0,30.37,10.986682,77.36284720996262,-84.45924569220169,9.978867671234047,0.03162277660168379,1.9894904479682074,-0.14475706113938272
13445171,1942,1,186194.5,200261,0.41,0.13,9.96,-0.03,-0.01,-0.01,30.37,11.026685,80.63277257928496,-50.4957118635535,9.969282822751094,0.033166247903554,2.073333245714084,-0.08443276690277904
13485171,1930,1,186194.5,199698,0.37,0.14,9.97,-0.03,-0.01,-0.0,30.37,11.066685,51.32196799940382,-12.654485790998441,9.977845458815244,0.03162277660168379,1.3217870840751784,-0.01722111373996363
13525175,1887,1,186194.5,199886,0.4,0.15,9.97,-0.03,-0.01,-0.0,30.37,11.106689,27.14107454677983,28.56497119573061,9.979148260247465,0.03162277660168379,0.7017748421801593,0.05599078064315513
13565168,1870,1,186194.5,199931,0.4,0.14,9.97,-0.03,-0.01,-0.0,30.37,11.146682,-18.299880224674773,72.54480900536682,9.9790029562076,0.03162277660168379,-0.4633577984685029,0.13410552246865845
13605171,1755,1,186194.5,200346,0.42,0.12,9.97,-0.03,-0.01,-0.0,30.37,11.186685,-111.19923381861086,118.73454053382397,9.979564118737851,0.03162277660168379,-2.8453515244333345,0.21614536465616624
13645171,1755,1,186194.5,201332,0.41,0.15,9.95,-0.03,-0.01,-0.01,30.37,11.226685,-136.22072439122803,166.77092256467108,9.959573284031801,0.033166247903554,-3.4869171678152995,0.30146513315582885
13685171,1755,1,186194.5,201565,0.4,0.13,10.01,-0.03,-0.01,-0.01,30.37,11.266685,-124.26869722036751,216.34048918318646,10.018832267285445,0.033166247903554,-3.180460205176011,0.3895080658189188
13725854,1755,1,186194.5,201925,0.4,0.14,9.96,-0.03,-0.01,-0.01,30.33,11.307368,-137.11065061609796,266.77232331522055,9.96901198715299,0.033166247903554,-3.5097353963842233,0.47908251400270196
13766171,1775,1,186194.5,202228,0.39,0.16,9.97,-0.03,-0.01,-0.0,30.33,11.347685,-118.24860239607936,316.66740234532625,9.978907755861862,0.03162277660168379,-3.0261014551264975,0.5677036051870314
13806171,1792,1,186194.5,202194,0.4,0.13,9.97,-0.03,-0.01,-0.0,30.33,11.387685,-103.91955050600421,364.04166109254896,9.978867671234047,0.03162277660168379,-2.658696189311909,0.6518473441255836
13846170,1830,1,186194.5,202351,0.39,0.13,9.98,-0.03,-0.01,-0.01,30.33,11.427684,-75.92797592112062,407.17360568154277,9.988463345279893,0.033166247903554,-1.9409758558367198,0.7284561013152918
13886171,1875,1,186194.5,202463,0.4,0.15,9.98,-0.03,-0.01,-0.0,30.33,11.467685,-26.975930214818725,445.6314357756797,9.989139102044781,0.03162277660168379,-0.685816791380474,0.7967629350506894
13926170,1902,1,186194.5,202385,0.39,0.14,9.97,-0.03,-0.01,-0.0,30.33,11.507684,-17.247785517855483,480.3745154674679,9.978607117228336,0.03162277660168379,-0.4363814752346678,0.8584718188372569
13966171,1910,1,186194.5,202740,0.39,0.11,9.98,-0.03,-0.01,-0.0,30.33,11.547685,1.3078044980489796,512.1744694678679,9.988223065190324,0.03162277660168379,0.0393946985442762,0.9149532730789972
14006188,1919,1,186194.5,203302,0.4,0.14,9.98,-0.03,-0.01,-0.01,30.33,11.587702,-13.346610618412157,539.1065174650303,9.988993943335835,0.033166247903554,-0.33635307057015945,0.9627886012863571
14046168,1847,1,186194.5,202879,0.39,0.15,9.97,-0.03,-0.01,-0.01,30.33,11.627682,-71.56898759540049,555.5078563184262,9.978752427032148,0.033166247903554,-1.8292088473298163,0.9919198217258492
14086171,1884,1,186194.5,199849,0.41,0.15,9.96,-0.03,-0.01,-0.0,30.33,11.667685,-57.48173966395897,554.6967954433816,9.969563681525887,0.03162277660168379,-1.468003576349383,0.990479256821242
14126171,1915,1,186194.5,199166,0.38,0.14,9.99,-0.03,-0.01,-0.0,30.33,11.707685,-18.390588158884295,534.7997804265967,9.998204838869826,0.03162277660168379,-0.4656836029205633,0.9551391949078312
14166170,1949,1,186194.5,199567,0.37,0.13,9.97,-0.03,-0.01,-0.0,30.33,11.747684,2.1306910068510745,502.8204609036636,9.97771015814751,0.03162277660168379,0.06049398960840303,0.8983391607853346
14206188,1984,1,186194.5,200168,0.4,0.14,9.96,-0.03,-0.01,-0.01,30.33,11.787702,34.5779692493881,470.81078896017095,9.96901198715299,0.033166247903554,0.8924611692315275,0.8414852162435671
14246170,2004,1,186194.5,201210,0.4,0.13,9.99,-0.03,-0.01,-0.01,30.33,11.827684,51.113774929974305,443.26016956774583,9.998849933867394,0.033166247903554,1.3164488920858337,0.7925512131149686
14286171,2019,1,186194.5,203184,0.38,0.13,9.96,-0.03,-0.01,-0.01,30.33,11.867685,57.22179396853397,404.8325313854194,9.968094100679428,0.033166247903554,1.4730620703811084,0.724298004711399
14326171,2019,1,186194.5,204522,0.39,0.13,9.97,-0.03,-0.01,-0.01,30.33,11.907685,57.25865000801543,323.644798067702,9.978471826888123,0.033166247903554,1.474007080775825,0.5800964991269071
14366171,2019,1,186194.5,205623,0.4,0.14,9.95,-0.03,-0.01,-0.0,30.33,11.947685,49.29123392509124,177.4552193280706,9.959021036226401,0.03162277660168379,1.2697178754425869,0.3204420354098237
14406197,2019,1,186194.5,207363,0.41,0.13,9.96,-0.03,-0.01,-0.01,30.33,11.987711,47.62473081534463,-11.63576149055779,9.969282822751094,0.033166247903554,1.2269877616350304,-0.015411707664735857
14446171,2019,1,186194.5,209153,0.41,0.14,9.97,-0.03,-0.01,-0.01,30.33,12.027685,43.578872750162994,-167.4788372946955,9.979408800124386,0.033166247903554,1.123249596033457,-0.2922122198545569
14486171,2019,1,186194.5,211031,0.4,0.13,9.95,-0.03,-0.01,-0.01,30.33,12.067685,40.15501089205686,-200.87883005940728,9.958885479811483,0.033166247903554,1.0354597767390474,-0.35153558123397266
14526173,2019,1,186282.0,212250,0.4,0.15,9.97,-0.03,-0.01,-0.01,30.33,12.107687,38.69199928108104,-85.40826080680435,9.979148260247465,0.033166247903554,0.997947303901071,-0.14644265331883918
14566171,2019,1,186849.0,213413,0.39,0.13,9.96,-0.03,-0.01,-0.0,30.33,12.147685,35.80278577418285,92.70286067430493,9.96848032550599,0.03162277660168379,0.9238661808344241,0.16990922435223488
14606171,2019,1,187306.0,214271,0.41,0.12,9.97,-0.03,-0.01,-0.01,30.33,12.187685,35.246749556984525,167.785724379709,9.979148260247465,0.033166247903554,0.9096090872214273,0.3032675723128093
14646171,2019,1,187482.0,214420,0.41,0.14,9.98,-0.03,-0.01,-0.01,30.33,12.227685,33.85219496576079,0.06340784289234919,9.989399381344207,0.033166247903554,0.8738518923831284,0.005367759417679536
14686171,2019,1,187261.0,212370,0.4,0.13,9.99,-0.03,-0.01,-0.0,30.33,12.267685,34.512320182449486,-432.9206468263002,9.998849933867394,0.03162277660168379,0.89077788878324,-0.7636764055799669
14726857,2019,1,186194.5,207916,0.39,0.14,9.99,-0.03,-0.01,-0.0,30.39,12.308371,33.54027537383109,-1040.178989446454,9.998589900580981,0.03162277660168379,0.8658540917285656,-1.8422576604831609
14765171,2002,1,186194.5,205751,0.39,0.14,9.95,-0.03,-0.01,-0.0,30.39,12.346685,20.002303327590266,-1701.4090517137613,9.958624402998637,0.03162277660168379,0.5187325754972854,-3.0167007274367874
14805170,1998,1,186194.5,205771,0.4,0.14,9.98,-0.03,-0.01,-0.01,30.39,12.386684,13.990433811509893,-2328.849496483526,9.988993943335835,0.033166247903554,0.364584727157925,-4.131128401459047
14845171,1998,1,186194.5,206294,0.38,0.14,9.96,-0.03,-0.01,-0.0,30.39,12.426685,20.94685742542563,-2836.7330406672345,9.968229531867733,0.03162277660168379,0.5429514946591198,-5.033205214544506
14885170,1984,1,186194.5,207768,0.4,0.15,9.98,-0.03,-0.01,-0.0,30.39,12.466684,4.407543332247628,-3075.4033045544147,9.989139102044781,0.03162277660168379,0.11887381405528741,-5.457119148144482
14925168,1965,1,186194.5,210648,0.39,0.14,9.97,-0.03,-0.01,-0.0,30.39,12.506682,-6.4465109216299235,-2854.4788302427996,9.978607117228336,0.03162277660168379,-0.15943048122568462,-5.0647243796943435
14965170,1981,1,187080.0,215258,0.4,0.14,10.01,-0.03,-0.01,-0.0,30.39,12.546684,10.047887897908636,-2086.4748188571257,10.01896701262161,0.03162277660168379,0.26349554550898535,-3.7006348773633873
15005168,1966,1,189217.0,220321,0.38,0.13,9.98,-0.03,-0.01,-0.01,30.39,12.586682,0.010960425637033984,-922.5116265685205,9.988077893168436,0.033166247903554,0.0061428585202615155,-1.6332628999230463
15045170,1948,1,191127.0,223719,0.4,0.13,9.97,-0.03,-0.01,-0.01,30.39,12.626684,-11.239425958123949,281.5685964022988,9.978867671234047,0.033166247903554,-0.2823236242276665,0.5053628986002895
15085168,1953,1,192222.0,225339,0.42,0.12,9.93,-0.03,-0.01,-0.01,30.39,12.666682,-5.75236364684724,1175.5792147907039,9.939602607750473,0.033166247903554,-0.14163213937009753,2.09325890101273
15125170,1927,1,192659.0,226176,0.4,0.12,10.0,-0.03,-0.01,-0.0,30.39,12.706684,-20.716006076770018,1625.676144070696,10.008716201391666,0.03162277660168379,-0.5253086775455341,2.8926980799233637
15165168,1919,1,193007.0,227114,0.41,0.14,9.95,-0.03,-0.01,-0.0,30.39,12.746682,-28.724875479436925,1741.2608139850138,9.959427694400919,0.03162277660168379,-0.7306607702265053,3.097993667606606
15205171,1909,1,193437.0,228356,0.44,0.15,9.98,-0.03,-0.01,-0.0,30.39,12.786685,-28.714654202837153,1711.764298896609,9.99082078710253,0.03162277660168379,-0.7303986907201352,3.045603463921545
15245171,1902,1,193921.0,229307,0.42,0.13,9.97,-0.03,-0.01,-0.0,30.39,12.826685,-32.17403973097073,1621.7504624088444,9.979689373923419,0.03162277660168379,-0.8190993576776887,2.8857254846438636
15285170,1904,1,194222.0,229832,0.41,0.15,9.99,-0.03,-0.01,-0.01,30.39,12.866684,-23.56973408854893,1412.9345295268904,9.999534989188247,0.033166247903554,-0.5984799317759959,2.5148372890864095
15325171,1900,1,194226.0,228268,0.41,0.14,9.95,-0.03,-0.01,-0.01,30.39,12.906685,-20.925175955526424,1004.7253389501554,9.959427694400919,0.033166247903554,-0.530671915496967,1.7897969724140117
15365170,1891,1,193498.0,226512,0.44,0.14,9.93,-0.03,-0.01,-0.0,30.39,12.946684,-25.024058340279886,435.9086229512231,9.940729349499462,0.03162277660168379,-0.6357696556451592,0.7794937714651495
15405171,1879,1,193286.0,226505,0.42,0.13,9.97,-0.03,-0.01,-0.0,30.39,12.986685,-29.92020928569986,-113.50556868359718,9.979689373923419,0.03162277660168379,-0.7613098276935513,-0.19634765661347292
15445170,1872,1,193501.0,226825,0.47,0.12,9.95,-0.03,-0.01,-0.01,30.39,13.026684,-32.14523693047801,-435.28963928279154,9.961817103320055,0.033166247903554,-0.8183608370377737,-0.7678840889944983
15485171,1883,1,193776.0,227340,0.47,0.12,9.95,-0.03,-0.01,-0.0,30.39,13.066685,-14.303217202977953,-434.7676970489951,9.961817103320055,0.03162277660168379,-0.3608810225364593,-0.7669570418549133
15525176,1901,1,194264.0,228636,0.45,0.13,9.99,-0.03,-0.01,-0.0,30.39,13.10669,7.416556940157816,-185.60541650920817,10.000974952473383,0.03162277660168379,0.196026681735227,-0.32440772411380525
15565168,1893,1,194888.0,229765,0.5,0.11,9.93,-0.03,-0.01,-0.0,30.39,13.146682,7.24798326926514,132.4451768977231,9.943188623374295,0.03162277660168379,0.19170435428196658,0.2404974967505387
15605171,1879,1,195258.0,230291,0.5,0.12,10.01,-0.03,-0.01,-0.0,30.39,13.186685,-5.586033958025531,353.7486592645759,10.02319809242539,0.03162277660168379,-0.13736734892874775,0.6335654399520902
15645168,1870,1,195477.0,230620,0.49,0.12,9.96,-0.03,-0.01,-0.0,30.39,13.226682,-5.45388202846883,419.0455816162825,9.972767920692831,0.03162277660168379,-0.13397889621190606,0.749542498657521
15685170,1883,1,195607.0,231001,0.47,0.14,9.96,-0.03,-0.01,-0.0,30.39,13.266684,6.9094021135088886,389.6166827663741,9.972065984539011,0.03162277660168379,0.18302293554716545,0.6972723914820514
15725171,1882,1,195885.0,231660,0.47,0.14,9.95,-0.03,-0.01,-0.01,30.39,13.306685,13.89714176092277,390.48673616095596,9.9620780964616,0.033166247903554,0.36219266445152287,0.6988177358870569
15765857,1875,1,196154.0,232346,0.47,0.13,9.99,-0.03,-0.01,-0.01,30.39,13.347371,7.728470818923249,526.1954920323552,10.001894820482766,0.033166247903554,0.20402433590091876,0.9398566972911373
15806171,1864,1,196528.0,233263,0.48,0.16,9.98,-0.03,-0.01,-0.0,30.39,13.387685,-0.1331194036540688,814.1197646096922,9.992817420527606,0.03162277660168379,0.002448567482353878,1.4512530856776948
15844202,1869,1,196798.0,234640,0.47,0.13,9.97,-0.03,-0.01,-0.0,30.39,13.425716,9.931235787236757,1163.388930059101,9.981918653244977,0.03162277660168379,0.2605045172080187,2.0716071398418445
15884168,1875,1,197181.0,235378,0.51,0.13,9.94,-0.03,-0.01,-0.0,30.39,13.465682,13.089271209662854,1410.487944324326,9.953923849417373,0.03162277660168379,0.341478391315628,2.510491789399038
15924171,1861,1,197347.0,235478,0.48,0.15,9.96,-0.03,-0.01,-0.01,30.39,13.505685,7.210693978141895,1402.5998911837642,9.972687701918677,0.033166247903554,0.19074823506191804,2.4964814322611173
15964168,1875,1,197280.0,234118,0.46,0.12,9.96,-0.03,-0.01,-0.01,30.39,13.545682,15.497679813764378,1088.921493003066,9.97133892714514,0.033166247903554,0.40323139564335686,1.9393418812654573
16004171,1855,1,196274.0,231317,0.5,0.12,9.99,-0.03,-0.01,-0.0,30.39,13.585685,2.6432041188053623,559.1720563333216,10.003224480136392,0.03162277660168379,0.07363512536362007,0.9984279866581411
16044180,1843,1,195669.0,230383,0.48,0.12,9.96,-0.03,-0.01,-0.01,30.39,13.625694,-14.365568226150744,-5.4060970585413815,9.972281584472032,0.033166247903554,-0.36247973921487947,-0.004346895855451291
16084171,1851,1,195429.0,230013,0.46,0.12,9.98,-0.03,-0.01,-0.01,30.39,13.665685,-1.997706012988867,-434.87510776905117,9.991316229606587,0.033166247903554,-0.045360523034756434,-0.7671478192903097
16124168,1863,1,195294.0,229808,0.46,0.12,9.97,-0.03,-0.01,-0.0,30.39,13.705682,5.550720025806231,-648.4052782470559,9.981327567012316,0.03162277660168379,0.14818553266668102,-1.14640920290529
16164171,1863,1,195121.0,229277,0.48,0.14,9.96,-0.03,-0.01,-0.01,30.39,13.745685,8.902083635148756,-658.2320813337816,9.972542303745822,0.033166247903554,0.23411645448745275,-1.163863068683791
16204170,1872,1,195072.0,229618,0.46,0.14,9.91,-0.03,-0.01,-0.01,30.39,13.785684,12.23474450665509,-522.3854927524009,9.92165812755106,0.033166247903554,0.3195678271783252,-0.9225792958594886
16244162,1861,1,195239.0,230081,0.45,0.13,9.96,-0.03,-0.01,-0.0,30.39,13.825676,4.485846895180261,-303.4106933564917,9.971007973118866,0.03162277660168379,0.12088156317743413,-0.5336474404228824
16285170,1855,1,195382.0,230298,0.46,0.1,9.93,-0.03,-0.01,-0.0,30.39,13.866684,-7.286182848776619,-61.860868497771484,9.941151844731072,0.03162277660168379,-0.18096016022727007,-0.10461897768716318
16325171,1846,1,195451.0,230539,0.46,0.13,9.96,-0.03,-0.01,-0.0,30.39,13.906685,-15.594039132440741,134.1031492091001,9.971464285650327,0.03162277660168379,-0.3939784512953057,0.24344230249579027
16365171,1856,1,195430.0,230680,0.45,0.12,9.94,-0.03,-0.01,-0.01,30.39,13.946685,-7.9776051782044375,217.2693541640714,9.950904481503176,0.033166247903554,-0.19868863289122363,0.3911578683599522
16405170,1860,1,195401.0,230408,0.44,0.13,9.98,-0.03,-0.01,-0.01,30.39,13.986684,-8.52631475038639,157.0620538873581,9.990540525917504,0.033166247903554,-0.21275786704356517,0.28422073645230467
16445171,1840,1,195096.0,229664,0.45,0.13,9.94,-0.03,-0.01,-0.0,30.39,14.026685,-26.015895765140122,-6.903993724662208,9.951030097432124,0.03162277660168379,-0.6612009469490894,-0.00700738341481363
16485171,1847,1,194678.0,229109,0.47,0.13,9.93,-0.03,-0.01,-0.01,30.39,14.066685,-28.007918145434488,-175.9055557461571,9.941966606260554,0.033166247903554,-0.7122775651200088,-0.30717932680755033
16525176,1841,1,194441.0,228785,0.45,0.14,9.96,-0.03,-0.01,-0.01,30.39,14.10669,-28.68520444161519,-258.8542033915406,9.971143364730045,0.033166247903554,-0.7296435816289729,-0.45450847848928033
16565162,1845,1,194313.0,228743,0.44,0.12,9.96,-0.03,-0.01,-0.0,30.39,14.146676,-34.82640469728008,-250.8170556628232,9.970436299380284,0.03162277660168379,-0.8871075457252983,-0.4402333071582794
16605171,1849,1,194362.0,229013,0.42,0.13,9.99,-0.03,-0.01,-0.0,30.39,14.186685,-25.53110990658862,-254.25824754306976,9.99966999455482,0.03162277660168379,-0.6487707541777423,-0.44634537643104466
16645170,1867,1,194268.0,227711,0.43,0.12,9.97,-0.03,-0.01,-0.0,30.39,14.226684,-16.343873782571173,-412.87372392174734,9.97998997995489,0.03162277660168379,-0.4132046500041664,-0.7280700849322403
16685170,1861,1,193515.0,225667,0.45,0.14,9.98,-0.03,-0.01,-0.0,30.39,14.266684,-18.20950375536561,-802.5872946609287,9.991121058219644,0.03162277660168379,-0.4610404929702294,-1.4202594262379988
16725171,1871,1,192819.0,224093,0.43,0.13,9.98,-0.03,-0.01,-0.01,30.39,14.306685,-15.094600381033668,-1364.2124257440728,9.990105104552205,0.033166247903554,-0.3811725497865033,-2.417789301340491
16765858,1875,1,192255.0,222923,0.43,0.12,9.94,-0.03,-0.01,-0.0,30.47,14.347372,-7.7576794358247385,-1927.8706554878152,9.95002010048221,0.03162277660168379,-0.19304960830967052,-3.4189302624516635
16804170,1878,1,191878.0,221913,0.43,0.14,9.99,-0.03,-0.01,-0.01,30.47,14.385684,-10.09931967114777,-2305.4173049480755,10.00022999735506,0.033166247903554,-0.25309063263570364,-4.089509339557996
16844170,1870,1,191575.0,222249,0.44,0.13,9.96,-0.03,-0.01,-0.0,30.47,14.425684,-14.817964737898217,-2382.1304745484117,9.970561669234087,0.03162277660168379,-0.3740794502025477,-4.225763353587882
16884171,1879,1,191990.0,223282,0.43,0.15,9.96,-0.03,-0.01,-0.01,30.47,14.465685,-9.988311711032303,-2152.2667444687345,9.9704062103808,0.033166247903554,-0.25024432365401816,-3.817491135578771
16924170,1885,1,192278.0,224098,0.45,0.12,9.96,-0.03,-0.01,-0.01,30.47,14.505684,-0.3764250215790448,-1690.2409408686078,9.970882608876709,0.033166247903554,-0.0037899307737536752,-2.9968644993196243
16964171,1899,1,192721.0,225476,0.42,0.14,9.99,-0.03,-0.01,-0.01,30.47,14.545685,10.585970810295613,-1089.8848017122284,9.999804998098712,0.033166247903554,0.2772923058928846,-1.9305425857067182
17004171,1907,1,193533.0,227681,0.46,0.14,9.92,-0.03,-0.01,-0.01,30.47,14.585685,22.628519938833147,-415.6211525986576,9.931646389194492,0.033166247903554,0.5860703044372367,-0.7329499274343836
17044171,1920,1,194348.0,229161,0.43,0.12,9.97,-0.03,-0.01,-0.0,30.47,14.625685,33.66078739704763,306.0654774971505,9.97998997995489,0.03162277660168379,0.8689440904433021,0.5488730077220453
17084170,1926,1,194851.0,230754,0.44,0.12,9.99,-0.03,-0.01,-0.01,30.47,14.665684,44.327383307403,1052.9903833565909,10.000404991799082,0.033166247903554,1.1424418442266728,1.87552287934719
17124162,1936,1,195527.0,232538,0.43,0.14,9.98,-0.03,-0.01,-0.01,30.47,14.705676,53.13470434114705,1756.8149321909918,9.990240237351653,0.033166247903554,1.3682667034246792,3.1256200980005158
17164171,1936,1,196127.0,233921,0.44,0.14,10.01,-0.03,-0.01,-0.0,30.47,14.745685,58.63419804763546,2280.8077091081113,10.020643691899238,0.03162277660168379,1.5092769365216459,4.056309307553286
17204170,1943,1,196425.0,234146,0.46,0.14,9.95,-0.03,-0.01,-0.0,30.47,14.785684,65.01442635469938,2462.479906354118,9.961611315444905,0.03162277660168379,1.6728697195681093,4.378986186130459
17244171,1943,1,196240.0,233381,0.44,0.12,9.97,-0.03,-0.01,-0.0,30.47,14.825685,71.07492584319597,2209.5527119568383,9.98042584261814,0.03162277660168379,1.8282644688245158,3.9297498206733885
17285171,1943,1,195686.0,230446,0.45,0.13,9.95,-0.03,-0.01,-0.01,30.47,14.866685,71.51598100539383,1582.0493723020827,9.96101902417619,0.033166247903554,1.8395733809806953,2.8152104359685084
17325171,1934,1,194488.0,228045,0.46,0.13,9.98,-0.03,-0.01,-0.0,30.47,14.906685,67.76388016222668,788.3443619174863,9.991441337464781,0.03162277660168379,1.7433673222531256,1.4054721317900274
17365171,1925,1,193976.0,227437,0.45,0.15,9.94,-0.03,-0.01,-0.0,30.47,14.946685,61.98119812663549,86.77040493579348,9.951311471358938,0.03162277660168379,1.595095974873946,0.15937229944562434
17405171,1921,1,193852.0,227281,0.45,0.13,9.98,-0.03,-0.01,-0.0,30.47,14.986685,59.75575142502549,-337.96260793548413,9.990985937333713,0.03162277660168379,1.5380342206676154,-0.5950167864990852
17445170,1907,1,193776.0,227117,0.47,0.11,9.99,-0.03,-0.01,-0.0,30.47,15.026684,54.20793362035738,-439.06636730411884,10.00165486307141,0.03162277660168379,1.3957849294478109,-0.7745921204249027
17485208,1904,1,193729.0,227364,0.44,0.12,9.97,-0.03,-0.01,-0.0,30.47,15.066722,47.09165629022148,-286.56202357317375,9.98042584261814,0.03162277660168379,1.213319419227986,-0.5037216936312771
17525176,1893,1,194105.0,228529,0.44,0.13,10.01,-0.03,-0.01,-0.0,30.47,15.10669,50.36741798390387,-0.3501436162680031,10.020508969109303,0.03162277660168379,1.2973118637417949,0.0046332304363836336
17565171,1861,1,194570.0,229190,0.47,0.12,9.99,-0.03,-0.01,-0.0,30.47,15.146685,9.486363340396165,309.160909688761,10.00176984338272,0.03162277660168379,0.24909772764239055,0.55437095629413
17605171,1767,1,194816.0,229486,0.48,0.14,9.97,-0.03,-0.01,-0.0,30.47,15.186685,-68.50399893803213,568.160372563173,9.982529739499903,0.03162277660168379,-1.7506207466642658,1.01439257490378
17645171,1755,1,194887.0,229755,0.47,0.1,9.96,-0.03,-0.01,-0.0,30.47,15.226685,-88.62211527714543,738.9715280382147,9.971584628332652,0.03162277660168379,-2.2664610086693444,1.317778625771055
17685211,1755,1,195131.0,230058,0.48,0.13,9.96,-0.03,-0.01,-0.01,30.47,15.266725,-77.34997641906554,808.600135144726,9.97240693112751,0.033166247903554,-1.9774367797655248,1.4414494017147266
17725170,1755,1,195154.0,229991,0.5,0.12,9.96,-0.03,-0.01,-0.01,30.47,15.306684,-80.00306459533515,780.3191643023151,9.97326426001036,0.033166247903554,-2.045463511339233,1.3912181856404036
17765170,1755,1,195072.0,229643,0.46,0.13,9.96,-0.03,-0.01,-0.01,30.47,15.346684,-75.8715664842394,670.0616770094435,9.971464285650327,0.033166247903554,-1.939529484903682,1.1953844676651117
17805854,1755,1,194839.0,229030,0.46,0.13,9.96,-0.03,-0.01,-0.01,30.65,15.387368,-74.15127150791805,498.54883431970916,9.971464285650327,0.033166247903554,-1.8954201161957198,0.8907521158029302
17844171,1755,1,194528.0,228599,0.44,0.13,9.94,-0.03,-0.01,-0.0,30.65,15.425685,-74.02420986158286,275.76726490465273,9.95058289749902,0.03162277660168379,-1.8921621813159561,0.4950588698736649
17884168,1755,1,194395.0,228331,0.46,0.14,9.97,-0.03,-0.01,-0.01,30.65,15.465682,-72.34780065137754,-7.804409866792209,9.98158805000487,0.033166247903554,-1.8491780693025073,-0.008606656581359728
17924170,1755,1,194189.0,227170,0.48,0.13,9.97,-0.03,-0.01,-0.0,30.65,15.505684,-72.529230235881,-365.1945462324447,9.982394502322578,0.03162277660168379,-1.8538300298950499,-0.6433847645412649
17964171,1755,1,193597.0,225499,0.47,0.12,9.96,-0.03,-0.01,-0.01,30.65,15.545685,-73.3699239510183,-777.4851382582316,9.97180525281155,0.033166247903554,-1.8753859081379507,-1.3756742580264312
18004170,1755,1,193156.0,224704,0.44,0.14,9.98,-0.03,-0.01,-0.0,30.65,15.585684,-73.11655343767141,-1170.2983870376972,9.990675652827491,0.03162277660168379,-1.8688893400802786,-2.0733690891638497
18044171,1782,1,193024.0,224377,0.45,0.12,9.97,-0.03,-0.01,-0.0,30.65,15.625685,-49.195730265480016,-1429.9370520092584,9.980871705417318,0.03162277660168379,-1.2555454521870333,-2.534526025893799
18084170,1808,1,192949.0,224455,0.45,0.13,9.95,-0.03,-0.01,-0.0,30.65,15.665684,-23.084590624067904,-1455.7591551792218,9.96101902417619,0.03162277660168379,-0.5860405697795947,-2.580389926785022
18124171,1823,1,193119.0,225014,0.48,0.14,10.01,-0.03,-0.01,-0.01,30.65,15.705685,-13.166132875420223,-1217.7103059216863,10.022479733080033,0.033166247903554,-0.33172551575032544,-2.157579718113987
18164171,1849,1,193575.0,226449,0.44,0.13,9.96,-0.03,-0.01,-0.01,30.65,15.745685,13.252370223674141,-783.6789715586469,9.970561669234087,0.033166247903554,0.34566034536650414,-1.3866754284096958
18204171,1876,1,194083.0,227420,0.43,0.13,9.96,-0.03,-0.01,-0.01,30.65,15.785685,32.58448120600386,-297.42372271315685,9.970125375340073,0.033166247903554,0.8413469706023013,-0.5230136889264523
18244170,1883,1,194374.0,228039,0.46,0.11,9.94,-0.03,-0.01,-0.01,30.65,15.825684,40.97149309526613,86.07919835663083,9.951246153120723,0.033166247903554,1.056394857664448,0.1581446136202903
18284171,1921,1,194568.0,228400,0.47,0.15,9.96,-0.03,-0.01,-0.0,30.65,15.865685,68.58281940206422,276.3029737743208,9.97221138965676,0.03162277660168379,1.7643654030338163,0.49601036860880987
18325171,1927,1,194628.0,228343,0.43,0.15,10.0,-0.03,-0.01,-0.0,30.65,15.906685,77.50529397840117,292.16928909334575,10.010364628723572,0.03162277660168379,1.9931428663713289,0.5241913075707109
18365168,1945,1,194490.0,228247,0.47,0.14,10.01,-0.03,-0.01,-0.0,30.65,15.946682,81.41234368126123,246.92459856361867,10.02200578726634,0.03162277660168379,2.093321904429274,0.4438299989410086
18405170,1943,1,194467.0,228408,0.46,0.15,9.96,-0.03,-0.01,-0.01,30.65,15.986684,86.26338263760384,274.8028474071309,9.971745082983219,0.033166247903554,2.217705378709695,0.49334592076828165
18445170,1937,1,194583.0,228821,0.48,0.11,9.97,-0.03,-0.01,-0.01,30.65,16.026684,60.13706638883701,438.50737891032725,9.982154076150097,0.033166247903554,1.547811359218931,0.7841095490787822
18485171,1918,1,194748.0,229462,0.44,0.13,9.97,-0.03,-0.01,-0.0,30.65,16.066685,53.384160407788784,677.289327203689,9.980551086989134,0.03162277660168379,1.3746629027808313,1.2082218508171894
18525175,1886,1,194934.0,229990,0.45,0.14,9.98,-0.03,-0.01,-0.0,30.65,16.106689,-2.6448449976553046,838.4651519840344,9.991121058219644,0.03162277660168379,-0.061953544855344475,1.4944941193900094
18565170,1755,1,195061.0,229861,0.44,0.12,9.97,-0.03,-0.01,-0.0,30.65,16.146684,-121.68877481320243,780.6992633995943,9.98042584261814,0.03162277660168379,-3.1143094866876484,1.39189329824497
18605168,1773,1,194643.0,227701,0.46,0.12,9.96,-0.03,-0.01,-0.0,30.65,16.186682,-122.48112552782385,479.0566476512218,9.97133892714514,0.03162277660168379,-3.1346258221407637,0.8561310893267982
18645170,1835,1,193876.0,226088,0.49,0.13,9.97,-0.03,-0.01,-0.0,30.65,16.226684,-57.65787247529261,50.583035442948905,9.982880345872127,0.03162277660168379,-1.472519724581879,0.09509814187566873
18685171,1870,1,193558.0,225826,0.44,0.14,9.99,-0.03,-0.01,-0.01,30.65,16.266685,-30.121906850414717,-322.8837053496627,10.00066497789022,0.033166247903554,-0.7664814711453798,-0.5682344098199863
18725171,1913,1,193557.0,225862,0.47,0.12,9.93,-0.03,-0.01,-0.0,30.65,16.306685,6.339558452653971,-514.1728269061358,9.941840875813694,0.03162277660168379,0.1684118110083415,-0.9079923782119761
18765171,1925,1,193472.0,225783,0.46,0.14,9.96,-0.03,-0.01,-0.01,30.65,16.346685,17.508275464873314,-520.1209045164937,9.971599671065823,0.033166247903554,0.4547842433340675,-0.9185570498895365
18805857,1926,1,193481.0,226002,0.46,0.12,9.98,-0.03,-0.01,-0.0,30.47,16.387371,10.828488000261995,-436.8923517375738,9.991316229606587,0.03162277660168379,0.2835105883952964,-0.7707307450046395
18844171,1937,1,193557.0,226269,0.46,0.11,9.95,-0.03,-0.01,-0.0,30.47,16.425685,19.853893921544202,-374.4601922018558,9.961234863208476,0.03162277660168379,0.5149272715807363,-0.6598419317068174
18884170,1949,1,193529.0,226162,0.46,0.15,9.98,-0.03,-0.01,-0.0,30.47,16.465684,28.42734353485253,-380.51628070842355,9.991721573382637,0.03162277660168379,0.7347555308605626,-0.670598446822007
18924170,1968,1,193409.0,225991,0.47,0.13,9.97,-0.03,-0.01,-0.0,30.47,16.505684,43.06744190526221,-422.8780342746101,9.981918653244977,0.03162277660168379,1.1101362102380785,-0.7458392300513899
18964162,1973,1,193361.0,226001,0.46,0.13,10.0,-0.03,-0.01,-0.0,30.47,16.545676,47.138460117238665,-429.2985409722931,10.01141848091468,0.03162277660168379,1.214519496709616,-0.7572430061464561
19004168,1973,1,193455.0,226661,0.43,0.14,9.96,-0.03,-0.01,-0.01,30.47,16.585682,43.95269011621941,-344.3091231054579,9.970260778936527,0.033166247903554,1.132834491795974,-0.6062891426214517
19044162,1968,1,193822.0,227338,0.44,0.15,9.98,-0.03,-0.01,-0.0,30.47,16.625676,37.46560100606086,-160.11218766488997,9.99082078710253,0.03162277660168379,0.9665017352978591,-0.2791279530038703
19084157,1955,1,193968.0,227661,0.46,0.15,9.98,-0.03,-0.01,-0.0,30.47,16.665671,24.05918769624419,89.67927443772797,9.991721573382637,0.03162277660168379,0.6227534619647798,0.16453888489623977
19124218,1962,1,194133.0,228189,0.46,0.16,9.98,-0.03,-0.01,-0.0,30.47,16.705732,29.324227410733556,350.89943565185166,9.991876700600343,0.03162277660168379,0.7577521576681691,0.628504794483718
19164171,1957,1,194262.0,228416,0.45,0.15,10.0,-0.03,-0.01,-0.0,30.47,16.745685,25.303357861050426,560.4434477751981,10.011243678984144,0.03162277660168379,0.6546547122098033,1.000686167206037
19204170,1939,1,194408.0,228877,0.45,0.12,9.99,-0.03,-0.01,-0.0,30.47,16.785684,6.7593781164332025,652.449010363008,10.00084996387807,0.03162277660168379,0.17917623257288579,1.1641017486632805
19244171,1939,1,194587.0,228901,0.45,0.15,10.0,-0.03,-0.01,-0.01,30.47,16.825685,8.413736374209725,579.0986754965478,10.011243678984144,0.033166247903554,0.22159494527724427,1.0338206299445494
19284170,1936,1,194249.0,227194,0.44,0.15,9.95,-0.03,-0.01,-0.0,30.47,16.865684,5.762318771161251,345.4812566634585,9.96085337709576,0.03162277660168379,0.1536110481773787,0.6188813016760668
19324208,1923,1,193686.0,226156,0.47,0.14,9.96,-0.03,-0.01,-0.0,30.47,16.905722,-4.333373124013813,27.086020332723702,9.972065984539011,0.03162277660168379,-0.10524839296248628,0.053363943651703626
19364171,1919,1,193514.0,226069,0.46,0.14,9.98,-0.03,-0.01,-0.0,30.47,16.945685,-7.505845329327656,-257.4379479265773,9.991576452192117,0.03162277660168379,-0.18659243462165934,-0.45199299786192054
19404171,1906,1,193520.0,225969,0.45,0.15,10.0,-0.03,-0.01,-0.01,30.47,16.985685,-16.974289269626983,-406.1487081777739,10.011243678984144,0.033166247903554,-0.42936887157110765,-0.7161254554207184
19444170,1898,1,193489.0,225792,0.45,0.12,9.98,-0.03,-0.01,-0.0,30.47,17.025684,-22.512509983143577,-385.0565870960488,9.990860823772895,0.03162277660168379,-0.5713720877642727,-0.6786627071499594
19484168,1898,1,193498.0,226057,0.47,0.15,9.96,-0.03,-0.01,-0.0,30.47,17.065682,-20.05253812509448,-239.35006529921807,9.97221138965676,0.03162277660168379,-0.5082969714665262,-0.41986622450450284
19524188,1897,1,193765.0,226824,0.48,0.12,9.98,-0.03,-0.01,-0.01,30.47,17.105702,-15.955797119570132,-62.64960899875611,9.992257002299331,0.033166247903554,-0.403254137533408,-0.10601989828328763
19564171,1903,1,193937.0,227181,0.44,0.13,9.97,-0.03,-0.01,-0.01,30.47,17.145685,-9.033769164426003,56.635442148067206,9.980551086989134,0.033166247903554,-0.22576929482743316,0.10584811756315687
19604170,1899,1,193985.0,227082,0.46,0.14,9.99,-0.03,-0.01,-0.0,30.47,17.185684,-6.107547250162047,83.79477722073234,10.001564877557911,0.03162277660168379,-0.1507392545644564,0.15408714146625851
19644171,1897,1,193848.0,226665,0.46,0.13,9.96,-0.03,-0.01,-0.0,30.47,17.225685,-7.657377799480768,53.412524040343406,9.971464285650327,0.03162277660168379,-0.19047781572734906,0.10012373501769821
19684171,1883,1,193792.0,226624,0.48,0.16,9.904999999999998,-0.03,-0.01,-0.0,30.47,17.265685,-14.448585289512954,40.672180062828566,9.917914347280881,0.03162277660168379,-0.3646083452430888,0.07749498670627032
19724168,1879,1,193941.0,227220,0.48,0.13,9.99,-0.03,-0.01,-0.0,30.47,17.305682,-17.62181800868194,106.39293825922675,10.00236971922154,0.03162277660168379,-0.4459718869220294,0.1942248409933442
19764161,1879,1,194155.0,227747,0.45,0.14,10.02,-0.03,-0.01,-0.01,30.47,17.345675,-10.846764885919418,252.70609084133565,10.031076711898876,0.033166247903554,-0.2722555648253364,0.45409879025840294
19804170,1877,1,194246.0,227870,0.46,0.13,9.99,-0.03,-0.01,-0.01,30.47,17.385684,-11.642315019490606,416.5735314924444,10.001429897769619,0.033166247903554,-0.2926539352503891,0.7451517694775008
19844857,1872,1,194148.0,227441,0.46,0.11,9.93,-0.03,-0.01,-0.0,30.53,17.426371,-10.686988586443633,501.9160780448592,9.941257465733397,0.03162277660168379,-0.26815880711728235,0.8967328421392153
19883168,1881,1,194159.0,227720,0.48,0.16,9.96,-0.03,-0.01,-0.01,30.53,17.464682,0.30908649526754073,432.19252114416054,9.972843125207577,0.033166247903554,0.013786985200737956,0.772893421220284
19923170,1881,1,194226.0,226866,0.49,0.16,10.01,-0.03,-0.01,-0.01,30.53,17.504684,4.242831321277998,198.48952428602655,10.023262941776993,0.033166247903554,0.11465050181960013,0.3578020936342682
19963158,1882,1,193594.0,224788,0.45,0.12,10.025000000000002,-0.03,-0.01,-0.0,30.53,17.544672,9.104323761555754,-124.8019789582608,10.03581212458663,0.03162277660168379,0.23930200953819583,-0.21641176362495834
20003171,1887,1,193081.0,224322,0.44,0.14,9.94,-0.03,-0.01,-0.0,30.53,17.584685,14.97460521091573,-415.4353926657327,9.950718567018162,0.03162277660168379,0.3898194570884006,-0.7326199901284581
20043171,1879,1,193121.0,224327,0.45,0.15,9.96,-0.03,-0.01,-0.0,30.53,17.624685,12.70458149260565,-574.2361689590437,9.971288783301786,0.03162277660168379,0.3316147221185448,-1.0146738188745832
20083170,1881,1,193104.0,224374,0.45,0.17,9.97,-0.03,-0.01,-0.0,30.53,17.664684,13.21286183557749,-580.2399286602749,9.981598068445754,0.03162277660168379,0.34464732720299185,-1.025337390238216
20123170,1881,1,193182.0,224728,0.45,0.15,9.96,-0.03,-0.01,-0.0,30.53,17.704684,19.200642325930396,-486.8030249393398,9.971288783301786,0.03162277660168379,0.49817751884262707,-0.8593795337602629
20163171,1895,1,193275.0,224980,0.45,0.13,9.98,-0.03,-0.01,-0.0,30.53,17.744685,30.999266178423273,-367.4375447805085,9.990985937333713,0.03162277660168379,0.8007011307344919,-0.6473686640102756
20203171,1902,1,193262.0,224867,0.46,0.16,9.99,-0.03,-0.01,-0.01,30.53,17.784685,42.7967559052897,-262.60448010134814,10.001864826121176,0.033166247903554,1.1031956629823965,-0.4611695284510569
20243170,1903,1,193193.0,224973,0.47,0.14,9.95,-0.03,-0.01,-0.0,30.53,17.824684,41.56390759066297,-169.27467532022436,9.9620780964616,0.03162277660168379,1.0715847115936146,-0.2954018956403524
20283170,1886,1,193340.0,225512,0.48,0.13,9.98,-0.03,-0.01,-0.0,30.53,17.864684,28.139461764017206,-68.49846609688187,9.992382098378744,0.03162277660168379,0.7273740739890031,-0.11640833955430685
20323171,1874,1,193530.0,225824,0.45,0.14,9.97,-0.03,-0.01,-0.0,30.53,17.904685,13.498146749988967,47.176275458512485,9.981132200306737,0.03162277660168379,0.3519621991579772,0.08904722877777188
20363168,1859,1,193586.0,226039,0.45,0.15,9.97,-0.03,-0.01,-0.0,30.53,17.944682,1.1716417711957974,172.94087476642525,9.981277473349792,0.03162277660168379,0.0359034066404355,0.3124238871512818
20403170,1827,1,193651.0,226219,0.48,0.15,10.01,-0.03,-0.01,-0.01,30.53,17.984684,-33.58410915550154,305.9256424625945,10.022624406810822,0.033166247903554,-0.8552543619104248,0.5486246398751746
20443171,1776,1,193586.0,226229,0.45,0.15,9.93,-0.03,-0.01,-0.01,30.53,18.024685,-83.73072194688301,445.01160362118827,9.941322849601052,0.033166247903554,-2.1410428246544257,0.7956620208332971
20483171,1755,1,193646.0,226573,0.45,0.15,9.98,-0.03,-0.01,-0.01,30.53,18.064685,-106.02482489248504,570.4279034850537,9.991266186024673,0.033166247903554,-2.712676655117423,1.0184200475222727
20523170,1755,1,193779.0,226803,0.47,0.13,9.96,-0.03,-0.01,-0.01,30.53,18.104684,-108.26073277829757,631.4282916326567,9.971930605454492,0.033166247903554,-2.7700066402012844,1.1267658216024459
20563170,1758,1,193841.0,226285,0.45,0.16,9.95,-0.03,-0.01,-0.0,30.53,18.144684,-104.5045980789187,569.7406422977001,9.961455716912061,0.03162277660168379,-2.673697151042651,1.017199369300375
20603171,1777,1,193366.0,224695,0.43,0.12,9.98,-0.03,-0.01,-0.0,30.53,18.184685,-89.69823049881965,367.30206356010245,9.98997997995992,0.03162277660168379,-2.2940532319440883,0.65763830447661
20643170,1798,1,192928.0,223813,0.47,0.17,9.93,-0.03,-0.01,-0.0,30.53,18.224684,-68.23073237308247,74.59983219011187,9.94257009027344,0.03162277660168379,-1.7436140322142255,0.13775554969742215
20683171,1825,1,192668.0,223343,0.43,0.13,9.92,-0.03,-0.01,-0.0,30.53,18.264685,-43.86690265451687,-209.50814836412007,9.930166161751776,0.03162277660168379,-1.118911197533932,-0.36686253569934446
20723171,1847,1,192545.0,223006,0.46,0.15,10.0,-0.03,-0.01,-0.0,30.53,18.304685,-24.685285722779494,-391.04882584952276,10.011698157655374,0.03162277660168379,-0.6270833277193286,-0.689305815594571
20763173,1873,1,192388.0,222909,0.48,0.13,9.94,-0.03,-0.01,-0.0,30.53,18.344687,2.247766258078208,-426.8422477719658,9.952431863620067,0.03162277660168379,0.06349586748053272,-0.752880263609255
20803171,1904,1,192382.0,223228,0.46,0.13,9.97,-0.03,-0.01,-0.0,30.53,18.384685,27.504192615835567,-336.4075045553511,9.981452800068736,0.03162277660168379,0.7110854017138232,-0.5922546912958955
20843168,1908,1,192555.0,223720,0.46,0.16,9.99,-0.03,-0.01,-0.01,30.53,18.424682,34.008317423076804,-181.2232536805936,10.001864826121176,0.033166247903554,0.8778549634425297,-0.31662435029882624
20883857,1929,1,192659.0,223777,0.47,0.14,9.98,-0.03,-0.01,-0.0,30.39,18.465371,49.747841572369566,-28.64817996298692,9.992041833379202,0.03162277660168379,1.2814255624066815,-0.045628296515139756
20924168,1938,1,192650.0,223981,0.45,0.12,9.97,-0.03,-0.01,-0.01,30.39,18.505682,60.10537719429296,80.811088783353,9.980871705417318,0.033166247903554,1.546998829748438,0.14878766644357985
20964213,1939,1,192755.0,224279,0.45,0.14,9.99,-0.03,-0.01,-0.0,30.39,18.545727,57.581495729449394,149.33344164172198,10.001109938401838,0.03162277660168379,1.482285033777217,0.2704935700891533
21004168,1943,1,192837.0,224393,0.48,0.14,9.96,-0.03,-0.01,-0.01,30.39,18.585682,63.26685096232646,214.2595236095308,9.972542303745822,0.033166247903554,1.6280608650471395,0.3858119610438744
21044170,1947,1,192874.0,224495,0.46,0.14,9.96,-0.03,-0.01,-0.0,30.39,18.625684,62.18682094928519,318.62480887510344,9.971599671065823,0.03162277660168379,1.600368264233543,0.5711802506986162
21084171,1938,1,192931.0,224673,0.45,0.11,9.96,-0.03,-0.01,-0.0,30.39,18.665685,59.38900411339583,471.27246077937235,9.970767272381801,0.03162277660168379,1.5286306052330583,0.8423052141508155
21124170,1941,1,193014.0,225081,0.45,0.17,9.96,-0.03,-0.01,-0.0,30.39,18.705684,52.84852189581301,620.1474872177754,9.971609699541995,0.03162277660168379,1.360928818252231,1.1067294329220998
21164187,1921,1,193156.0,225415,0.48,0.14,9.96,-0.03,-0.01,-0.01,30.39,18.745701,43.96814519012223,665.0553023123156,9.972542303745822,0.033166247903554,1.133230768924357,1.1864924006083706
21204170,1936,1,193146.0,224917,0.43,0.13,9.98,-0.03,-0.01,-0.0,30.39,18.785684,47.86021310465082,514.4438107599572,9.990105104552205,0.03162277660168379,1.2330256651726046,0.918983961184597
21244171,1924,1,192640.0,222932,0.47,0.16,9.97,-0.03,-0.01,-0.01,30.39,18.825685,46.37502697460415,152.5658334290453,9.982354431695962,0.033166247903554,1.1949446247046107,0.27623477930048684
21284170,1925,1,191997.0,221568,0.46,0.15,10.0,-0.03,-0.01,-0.01,30.39,18.865684,41.337812159444155,-334.7128266984936,10.011698157655374,0.033166247903554,1.0657874925840338,-0.5892446910353484
21324171,1918,1,191640.0,220703,0.45,0.13,9.95,-0.03,-0.01,-0.01,30.39,18.905685,38.33620114921947,-799.0148196694838,9.96101902417619,0.033166247903554,0.9888244318355803,-1.413914178607876
21364171,1909,1,191467.0,220283,0.46,0.13,10.0,-0.03,-0.01,-0.0,30.39,18.945685,31.665229602358025,-1105.5862068769557,10.01141848091468,0.03162277660168379,0.8177768221808335,-1.9584306196746732
21403168,1900,1,191308.0,220247,0.46,0.14,9.93,-0.03,-0.01,-0.01,30.39,18.984682,20.128204062433216,-1193.9058831416462,9.941634674438605,0.033166247903554,0.5219607439278334,-2.115299518086498
21443171,1881,1,191393.0,220883,0.48,0.13,9.96,-0.03,-0.01,-0.0,30.39,19.024685,8.279166035588132,-1090.1515139661483,9.97240693112751,0.03162277660168379,0.21814448313841492,-1.9310163063908832
21483168,1885,1,191708.0,221833,0.5,0.14,9.98,-0.03,-0.01,-0.01,30.39,19.064682,8.847558192374253,-875.6634461679506,9.993497886125759,0.033166247903554,0.23271839026450858,-1.5500535544764995
21523170,1877,1,191967.0,222293,0.49,0.14,9.96,-0.03,-0.01,-0.01,30.39,19.104684,6.207848797038457,-637.7618366762521,9.973028627252607,0.033166247903554,0.16503469845386162,-1.12750486555787
21563171,1872,1,192145.0,222723,0.47,0.14,9.96,-0.03,-0.01,-0.0,30.39,19.144685,2.182343628142919,-430.57033366654116,9.972065984539011,0.03162277660168379,0.061818393009363204,-0.7595018993783221
21603171,1872,1,192339.0,223287,0.46,0.14,9.97,-0.03,-0.01,-0.01,30.39,19.184685,2.4245641979558576,-261.5415213396195,9.98158805000487,0.033166247903554,0.06802906999766581,-0.45928155538478527
21643171,1853,1,192635.0,223980,0.48,0.14,9.98,-0.03,-0.01,-0.0,30.39,19.224685,-10.931063294410274,-103.27692069583838,9.992517200385496,0.03162277660168379,-0.2744170252915925,-0.17818005444435658
21683170,1850,1,192848.0,224511,0.47,0.11,9.96,-0.03,-0.01,-0.0,30.39,19.264684,-17.07343873247786,80.21324307345648,9.971689926988304,0.03162277660168379,-0.431911121751619,0.1477258034262083
21723171,1847,1,193068.0,225235,0.49,0.14,9.98,-0.03,-0.01,-0.0,30.39,19.304685,-13.171431269291661,304.7041822456917,9.993002551785924,0.03162277660168379,-0.3318613696661086,0.546455144619042
21763170,1847,1,193328.0,225723,0.46,0.13,9.99,-0.03,-0.01,-0.0,30.39,19.344684,-16.31843746877669,545.101298551532,10.001429897769619,0.03162277660168379,-0.41255244805091096,0.9734362252930534
21803171,1839,1,193542.0,226324,0.47,0.16,9.95,-0.03,-0.01,-0.0,30.39,19.384685,-19.385839255886392,735.3460478999506,9.962379233897893,0.03162277660168379,-0.4912024227735074,1.3113392331061748
21843171,1823,1,193737.0,226751,0.48,0.14,9.96,-0.03,-0.01,-0.0,30.39,19.424685,-36.33998483020095,797.41052087452,9.972542303745822,0.03162277660168379,-0.9259166250233253,1.4215749803121858
21883858,1806,1,193837.0,225774,0.45,0.14,9.96,-0.03,-0.01,-0.01,30.53,19.465372,-52.05583757345981,689.3950234502192,9.971143364730045,0.033166247903554,-1.3288802753007944,1.2297233702409032
21924170,1808,1,193322.0,224492,0.48,0.14,10.0,-0.03,-0.01,-0.01,30.53,19.505684,-48.188960907796215,441.15811360345896,10.012492197250394,0.033166247903554,-1.2297312973977692,0.7888176486651912
21964171,1792,1,193160.0,224179,0.49,0.15,9.97,-0.03,-0.01,-0.01,30.53,19.545685,-66.2486097703822,147.30499019050654,9.983160822104391,0.033166247903554,-1.692791250127254,0.2668907382164413
22004171,1773,1,193081.0,223896,0.45,0.13,9.96,-0.03,-0.01,-0.0,30.53,19.585685,-82.47431699721102,-81.59251916792653,9.971007973118866,0.03162277660168379,-2.108827867374193,-0.13966532789340397
22044171,1789,1,192984.0,223700,0.48,0.13,9.96,-0.03,-0.01,-0.0,30.53,19.625685,-68.54991298550495,-176.08763982797112,9.97240693112751,0.03162277660168379,-1.7517980096783008,-0.30750273525446187
22084171,1786,1,192996.0,224122,0.49,0.16,9.97,-0.03,-0.01,-0.01,30.53,19.665685,-72.10405816763586,-136.38855003642342,9.983316082344583,0.033166247903554,-1.8429283695515106,-0.2369912394368316
22124171,1783,1,193294.0,224821,0.47,0.14,9.95,-0.03,-0.01,-0.0,30.53,19.705685,-73.41228231569833,-19.390369844247108,9.9620780964616,0.03162277660168379,-1.876472001366877,-0.029185046987365414
22164171,1806,1,193412.0,225124,0.47,0.13,10.0,-0.03,-0.01,-0.01,30.53,19.745685,-56.09095229084508,101.32676301854843,10.0118829397871,0.033166247903554,-1.4323429751853656,0.18522655926521933
22204171,1809,1,193435.0,225194,0.49,0.13,9.97,-0.03,-0.01,-0.0,30.53,19.785685,-48.62180152052336,175.15702797265914,9.982880345872127,0.03162277660168379,-1.240829583704103,0.31636010529515113
22244171,1828,1,193511.0,225356,0.47,0.13,9.94,-0.03,-0.01,-0.01,30.53,19.825685,-36.55846736881594,192.72084645316957,9.95195458188993,0.033166247903554,-0.9315186450167965,0.3475560626793884
22284171,1842,1,193544.0,225720,0.48,0.15,9.95,-0.03,-0.01,-0.0,30.53,19.865685,-20.522849278251915,179.8982317602074,9.962700437130486,0.03162277660168379,-0.5203560243310815,0.3247811893248263
22324171,1858,1,193660.0,226018,0.45,0.14,9.98,-0.03,-0.01,-0.0,30.53,19.905685,-7.608116899372443,178.32393893496945,9.991121058219644,0.03162277660168379,-0.18921473745549905,0.3219850108092643
22364171,1872,1,193690.0,226032,0.46,0.14,9.95,-0.03,-0.01,-0.01,30.53,19.945685,3.145846174365028,222.03871662986313,9.961611315444905,0.033166247903554,0.08652316146323123,0.39962896639583306
22404171,1885,1,193691.0,226295,0.5,0.15,9.96,-0.03,-0.01,-0.0,30.53,19.985685,17.028104658910266,314.5607697025493,9.973670337443483,0.03162277660168379,0.44247238320859383,0.5639619118746554
22444168,1911,1,193800.0,226627,0.47,0.15,9.97,-0.03,-0.01,-0.01,30.53,20.025682,37.566923785493955,414.810372563669,9.982199156498531,0.033166247903554,0.9690997105858454,0.7420201366344065
22484170,1921,1,193934.0,226727,0.48,0.12,9.98,-0.03,-0.01,-0.0,30.53,20.065684,47.8291252592836,447.83993937395456,9.992257002299331,0.03162277660168379,1.2322285546464953,0.8006855663515747
22524177,1943,1,193915.0,226589,0.49,0.15,9.97,-0.03,-0.01,-0.0,30.53,20.105691,67.17434286475125,346.68170335586524,9.983160822104391,0.03162277660168379,1.7282512413603905,0.6210134737831701
22564171,1967,1,193685.0,225111,0.48,0.12,9.97,-0.03,-0.01,-0.0,30.53,20.145685,87.58399091456712,102.9744368352459,9.98226928108033,0.03162277660168379,2.2515665468286206,0.18815307335017495
22604171,1958,1,193137.0,224111,0.46,0.17,9.94,-0.03,-0.01,-0.01,30.53,20.185685,79.79449191585863,-214.19111706597093,9.95209023270991,0.033166247903554,2.0518392395274843,-0.37518018554392485
22644170,1957,1,192949.0,223921,0.47,0.13,9.95,-0.03,-0.01,-0.0,30.53,20.225684,72.9829133893337,-492.1004155707763,9.961942581645408,0.03162277660168379,1.8771863847291683,-0.8687884884570634
22684171,1951,1,192872.0,223885,0.49,0.13,9.97,-0.03,-0.01,-0.0,30.53,20.265685,69.22498701081956,-638.1396077272582,9.982880345872127,0.03162277660168379,1.7808309558702669,-1.1281758432055418
22724170,1945,1,192908.0,223875,0.48,0.14,9.98,-0.03,-0.01,-0.01,30.53,20.305684,58.326603296647676,-626.870492132039,9.992517200385496,0.033166247903554,1.50139002731671,-1.1081602156097203
22764170,1930,1,192922.0,224485,0.46,0.14,9.98,-0.03,-0.01,-0.0,30.53,20.345684,44.779402173317955,-501.86803493853614,9.991576452192117,0.03162277660168379,1.1540318721544607,-0.8861372351365059
22804170,1911,1,193145.0,224908,0.48,0.11,10.01,-0.03,-0.01,-0.0,30.53,20.385684,22.149798682100347,-340.1709185667139,10.022105567194949,0.03162277660168379,0.5737956116012904,-0.59893907506176
22844171,1897,1,193179.0,224941,0.47,0.13,9.96,-0.03,-0.01,-0.01,30.53,20.425685,9.999352232046027,-207.45991464271296,9.971930605454492,0.033166247903554,0.2622510626670961,-0.36322456756861726
22884857,1899,1,193265.0,225197,0.45,0.16,9.97,-0.03,-0.01,-0.01,30.45,20.466371,7.872170977122808,-127.7724529601528,9.981432762885296,0.033166247903554,0.2077088919501209,-0.22168776784219815
22923170,1886,1,193352.0,225419,0.5,0.16,9.96,-0.03,-0.01,-0.0,30.45,20.504684,-1.182587554000853,-77.5311695516468,9.973825745419859,0.03162277660168379,-0.02446040930829981,-0.13245176612193954
22963170,1888,1,193429.0,225585,0.46,0.14,9.96,-0.03,-0.01,-0.01,30.45,20.544684,-4.809191627002617,-3.70295923808042,9.971599671065823,0.033166247903554,-0.11744865749577245,-0.0013218694396101517
23003171,1877,1,193479.0,225943,0.49,0.11,9.96,-0.03,-0.01,-0.01,30.45,20.584685,-9.612776638212834,139.7543105603553,9.972652606002077,0.033166247903554,-0.24061538488609427,0.253479606677727
23043171,1873,1,193633.0,226448,0.48,0.15,9.97,-0.03,-0.01,-0.01,30.45,20.624685,-20.223406525269287,351.52025187604283,9.982674992205245,0.033166247903554,-0.5126781371198532,0.6296074565554538
23083171,1869,1,193848.0,226892,0.45,0.16,10.0,-0.03,-0.01,-0.0,30.45,20.664685,-16.898851471888552,563.4237832385293,10.011398503705664,0.03162277660168379,-0.42743460234358444,1.0059796868474509
23123170,1878,1,193910.0,227094,0.48,0.13,9.92,-0.03,-0.01,-0.01,30.45,20.704684,-14.123291476092124,664.4238009465768,9.932456896458197,0.033166247903554,-0.35626762173224014,1.1853707601339183
23163171,1865,1,193990.0,226883,0.48,0.17,9.95,-0.03,-0.01,-0.0,30.45,20.744685,-20.365355505179743,564.6598387330616,9.963021630007635,0.03162277660168379,-0.5163177919341564,1.0081751054903145
23203170,1874,1,193558.0,225038,0.49,0.12,9.99,-0.03,-0.01,-0.01,30.45,20.784684,-15.792135313156722,260.5463282577832,10.002729627456697,0.033166247903554,-0.3990577531563884,0.4680242195491463
23243171,1869,1,192916.0,223855,0.46,0.12,9.96,-0.03,-0.01,-0.0,30.45,20.824685,-15.656004811290877,-149.08025540422537,9.97133892714514,0.03162277660168379,-0.3955672875200586,-0.2595335983337073
23283170,1872,1,192660.0,223437,0.47,0.13,9.97,-0.03,-0.01,-0.01,30.45,20.864684,-15.35691708956662,-513.0073222830515,9.981918653244977,0.033166247903554,-0.38789850351781124,-0.9059222684238788
23323170,1883,1,192562.0,223041,0.46,0.14,9.96,-0.03,-0.01,-0.0,30.45,20.904684,-0.018770296216080277,-709.75579535529,9.971599671065823,0.03162277660168379,0.0053805454342946155,-1.2553768581639184
23363170,1885,1,192450.0,222977,0.48,0.13,9.97,-0.03,-0.01,-0.0,30.45,20.944684,-0.5751702725822768,-705.5616288622306,9.982394502322578,0.03162277660168379,-0.008885875176384112,-1.2479273938390014
23403171,1879,1,192563.0,223665,0.49,0.14,9.95,-0.03,-0.01,-0.0,30.45,20.984685,-1.949478741208779,-556.0472838158989,9.963041704218647,0.03162277660168379,-0.0441239475973998,-0.9823676500069215
23443170,1891,1,192806.0,224195,0.48,0.14,9.96,-0.03,-0.01,-0.0,30.45,21.024684,7.324854224807224,-360.60414187024406,9.972542303745822,0.03162277660168379,0.1936753705132584,-0.6352315227494227
23483168,1875,1,192936.0,224301,0.47,0.14,9.97,-0.03,-0.01,-0.0,30.45,21.064682,-4.930486999787808,-203.05881817910875,9.982053896869122,0.03162277660168379,-0.12055874175131834,-0.3554075647981284
23523171,1872,1,192935.0,224496,0.46,0.15,9.99,-0.03,-0.01,-0.01,30.45,21.104685,-9.035349375339917,-111.97255310847059,10.001709853819996,0.033166247903554,-0.22580981235890166,-0.19362479264149052
23563171,1884,1,193036.0,224765,0.46,0.16,9.97,-0.03,-0.01,-0.0,30.45,21.144685,3.8308178339785295,-57.53000174865715,9.981888598857433,0.03162277660168379,0.10408623518271919,-0.09692671334885317
23603171,1872,1,193140.0,225101,0.46,0.13,9.97,-0.03,-0.01,-0.01,30.45,21.184685,-6.670360284018455,18.95995176134653,9.981452800068736,0.033166247903554,-0.16517010971762616,0.03893083566124205
23643171,1861,1,193259.0,225484,0.48,0.14,9.95,-0.03,-0.01,-0.0,30.45,21.224685,-19.61890177423352,161.3590037645229,9.962554893198831,0.03162277660168379,-0.4971782819693314,0.29185275937482463
23683170,1865,1,193396.0,225784,0.49,0.13,9.96,-0.03,-0.01,-0.0,30.45,21.264684,-12.870838628140124,362.93138158675356,9.97289326123568,0.03162277660168379,-0.324153998650118,0.6498753223704158
23723171,1870,1,193557.0,226256,0.49,0.14,9.96,-0.03,-0.01,-0.0,30.45,21.304685,-10.673714431398766,557.5708783382611,9.973028627252607,0.03162277660168379,-0.26781845002316773,0.9955840560769914
23763171,1867,1,193683.0,226612,0.46,0.13,9.96,-0.03,-0.01,-0.0,30.45,21.344685,-12.023046719863075,648.1438708056678,9.971464285650327,0.03162277660168379,-0.3024161185862087,1.1564551796490876
23803171,1875,1,193766.0,226409,0.47,0.15,9.97,-0.03,-0.01,-0.0,30.45,21.384685,-5.5363209281496735,562.7181262783133,9.982199156498531,0.03162277660168379,-0.13609267778538764,1.0047263349932847
23843170,1872,1,193389.0,224559,0.47,0.15,9.97,-0.03,-0.01,-0.0,30.45,21.424684,-9.713763547966067,305.48376860433433,9.982199156498531,0.03162277660168379,-0.2432047482791726,0.5478398060950493
23883171,1857,1,192867.0,223523,0.47,0.15,9.95,-0.03,-0.01,-0.01,30.45,21.464685,-23.977867698469986,-36.093575849497284,9.962223647359057,0.033166247903554,-0.6089447160891001,-0.05885242844533962
23923857,1861,1,192705.0,223087,0.45,0.15,9.96,-0.03,-0.01,-0.0,30.31,21.505371,-24.01810063126679,-337.3588575226396,9.971288783301786,0.03162277660168379,-0.6099763120022218,-0.5939444358498962
23962170,1873,1,192606.0,222795,0.45,0.16,9.97,-0.03,-0.01,-0.0,30.31,21.543684,-9.839865467030673,-503.3150226366653,9.981432762885296,0.03162277660168379,-0.24643807519075644,-0.8887073007868906
24002170,1886,1,192546.0,222899,0.48,0.13,9.96,-0.03,-0.01,-0.0,30.31,21.583684,-2.2560822668818346,-509.80098846639686,9.97240693112751,0.03162277660168379,-0.0519854412058934,-0.9002273420492417
24042171,1878,1,192657.0,223406,0.47,0.15,9.98,-0.03,-0.01,-0.0,30.31,21.623685,-8.208456126847782,-398.07912423921954,9.992186947810774,0.03162277660168379,-0.20460778614717665,-0.7017926725503529
24082171,1886,1,192866.0,223815,0.48,0.15,9.97,-0.03,-0.01,-0.01,30.31,21.663685,-5.575928989591475,-237.667550824608,9.982674992205245,0.033166247903554,-0.1371082516317288,-0.41687782822230823
24122171,1899,1,192955.0,224029,0.49,0.14,9.94,-0.03,-0.01,-0.0,30.31,21.703685,8.66823043861509,-87.20192435201213,9.953054807444797,0.03162277660168379,0.22812032184077335,-0.14962846690374113
24162170,1904,1,193032.0,224366,0.48,0.13,9.94,-0.03,-0.01,-0.01,30.31,21.743684,8.493797912307091,26.538954942629836,9.952431863620067,0.033166247903554,0.22364776991015398,0.052392274044966526
24202171,1893,1,193190.0,224866,0.47,0.12,9.98,-0.03,-0.01,-0.01,30.31,21.783685,-1.4573532969322835,109.7105465533181,9.991781622913903,0.033166247903554,-0.031505563558064734,0.20011740741191136
24242170,1894,1,193328.0,225184,0.48,0.15,9.96,-0.03,-0.01,-0.01,30.31,21.823684,-6.100439406370093,190.86061227534202,9.972687701918677,0.033166247903554,-0.15055700529508495,0.34425200973665243
24282171,1890,1,193435.0,225494,0.46,0.15,9.93,-0.03,-0.01,-0.01,30.31,21.863685,-8.37873017840438,303.52075003073924,9.941780524634408,0.033166247903554,-0.2089737123545351,0.5443531927578475
24322171,1901,1,193523.0,225785,0.48,0.14,9.95,-0.03,-0.01,-0.0,30.31,21.903685,-3.9143924736448086,461.3847014676215,9.962554893198831,0.03162277660168379,-0.0945054841921848,0.8247430810385169
24362171,1904,1,193647.0,226222,0.45,0.14,9.97,-0.03,-0.01,-0.01,30.31,21.943685,1.8734708692609012,633.0414938968544,9.981132200306737,0.033166247903554,0.05389871493502148,1.129631109076346
24402171,1909,1,193770.0,226471,0.49,0.13,9.93,-0.03,-0.01,-0.0,30.31,21.983685,-0.35248306478153574,737.9892691982786,9.942932163099576,0.03162277660168379,-0.003176045007354649,1.3160339877844498
24442171,1908,1,193851.0,226507,0.47,0.13,9.94,-0.03,-0.01,-0.0,30.31,22.023685,2.108040667094018,683.1292287511341,9.95195458188993,0.03162277660168379,0.05991322165787337,1.218594385696458
24482171,1920,1,193714.0,225094,0.48,0.13,9.96,-0.03,-0.01,-0.01,30.31,22.063685,7.421992954246701,427.4138618694037,9.97240693112751,0.033166247903554,0.19616606431382463,0.7644058106671163
24522174,1914,1,193039.0,223540,0.45,0.14,9.96,-0.03,-0.01,-0.01,30.31,22.103688,3.9566079718213705,27.32692677416103,9.971143364730045,0.033166247903554,0.10731156784154038,0.053791829369664465
24562170,1913,1,192643.0,222784,0.46,0.14,9.97,-0.03,-0.01,-0.01,30.31,22.143684,-0.9075869625641365,-380.6315079791998,9.98158805000487,0.033166247903554,-0.017409233405590037,-0.6708031076155938
24602171,1914,1,192437.0,222567,0.45,0.14,10.01,-0.03,-0.01,-0.01,30.31,22.183685,-0.36497591189975465,-655.2510022072145,10.021087765307716,0.033166247903554,-0.0034963689095543053,-1.158568228185717
24642171,1918,1,192453.0,222696,0.48,0.14,9.95,-0.03,-0.01,-0.0,30.31,22.223685,4.293388549524554,-729.1979444034414,9.962554893198831,0.03162277660168379,0.11594681870262018,-1.2899090103742783
24682171,1926,1,192471.0,223015,0.46,0.16,9.96,-0.03,-0.01,-0.0,30.31,22.263685,8.502374234042165,-635.4100885316719,9.971900520963896,0.03162277660168379,0.22386767181231465,-1.123327810609472
24722171,1927,1,192686.0,223605,0.46,0.14,9.98,-0.03,-0.01,-0.0,30.31,22.303685,13.646211778871487,-470.1429373755955,9.991576452192117,0.03162277660168379,0.35575867304276415,-0.8297887370759918
24762170,1936,1,192789.0,223868,0.48,0.13,9.97,-0.03,-0.01,-0.0,30.31,22.343684,18.29207919624495,-326.55469419771913,9.982394502322578,0.03162277660168379,0.47488142914093323,-0.5747546327310267
24802170,1936,1,192865.0,224102,0.45,0.14,9.96,-0.03,-0.01,-0.01,30.31,22.383684,22.090695564499864,-244.34208168361752,9.971143364730045,0.033166247903554,0.5722801731201501,-0.42873278905946816
24842171,1939,1,192874.0,224298,0.47,0.15,9.96,-0.03,-0.01,-0.01,30.31,22.423685,24.46376339249931,-200.50683498936996,9.97221138965676,0.033166247903554,0.6331270192918832,-0.350874862588713
24882171,1925,1,192986.0,224728,0.48,0.14,9.97,-0.03,-0.01,-0.0,30.31,22.463685,10.382356365172415,-136.6340883913208,9.982529739499903,0.03162277660168379,0.2720715125069667,-0.23742735212292396
24922170,1910,1,193194.0,225217,0.49,0.15,9.93,-0.03,-0.01,-0.0,30.31,22.503684,0.35344719613455633,-0.6635893241672165,9.943213766182442,0.03162277660168379,0.014924419499866719,0.004076504177982233
24962857,1920,1,193337.0,225659,0.47,0.14,9.98,-0.03,-0.01,-0.0,30.43,22.544371,6.787933364462276,217.94282226206886,9.992041833379202,0.03162277660168379,0.17990840582293802,0.3923540480009617
25003168,1909,1,193546.0,226206,0.47,0.16,9.98,-0.03,-0.01,-0.0,30.43,22.584682,3.781056206072354,472.050710423016,9.992342067803724,0.03162277660168379,0.10281031795745614,0.843687501421909
25043170,1910,1,193705.0,226571,0.48,0.13,9.97,-0.03,-0.01,-0.01,30.43,22.624684,1.5437300853996883,667.4140260835256,9.982394502322578,0.033166247903554,0.04544396850282022,1.1906818453085368
25083171,1905,1,193803.0,226705,0.47,0.12,9.97,-0.03,-0.01,-0.0,30.43,22.664685,3.5975471066630678,703.1411542382812,9.981793426033219,0.03162277660168379,0.09810503738724873,1.2541385457187397
25123171,1904,1,193863.0,226183,0.48,0.13,9.96,-0.03,-0.01,-0.0,30.43,22.704685,2.3845764939423493,529.1242770618517,9.97240693112751,0.03162277660168379,0.06700376189388442,0.9450586556847034
25163171,1901,1,193239.0,224296,0.45,0.13,9.96,-0.03,-0.01,-0.01,30.43,22.744685,4.414695144405478,185.7311760260664,9.971007973118866,0.033166247903554,0.11905719069925998,0.33514136703585673
25203171,1897,1,192727.0,223502,0.5,0.13,9.96,-0.03,-0.01,-0.01,30.43,22.784685,2.440686917394256,-208.31068483882459,9.973389594315465,0.033166247903554,0.06844246594782087,-0.36473566214131103
25243171,1893,1,192603.0,223225,0.48,0.15,9.94,-0.03,-0.01,-0.01,30.43,22.824685,2.9668560928154215,-517.5277005505386,9.95271319791744,0.033166247903554,0.08193375115231895,-0.9139511334425897
25283170,1895,1,192516.0,223083,0.46,0.15,9.96,-0.03,-0.01,-0.0,30.43,22.864684,7.494900744612046,-657.6307257304331,9.971745082983219,0.03162277660168379,0.1980354626735087,-1.1627949715729236
25323171,1895,1,192472.0,223163,0.48,0.15,9.98,-0.03,-0.01,-0.0,30.43,22.904685,12.152345205983105,-624.7348604031466,9.992662307913742,0.03162277660168379,0.31745506094657644,-1.104367015601597
25363170,1897,1,192598.0,223637,0.52,0.12,9.96,-0.03,-0.01,-0.0,30.43,22.944684,17.40944395378303,-476.99855148728165,9.974286941932242,0.03162277660168379,0.45225014562254096,-0.8419653287384626
25403171,1886,1,192798.0,224010,0.45,0.14,9.97,-0.03,-0.01,-0.0,30.43,22.984685,9.79512721564641,-292.82751321437917,9.981132200306737,0.03162277660168379,0.25701461387677094,-0.5148501363474958
25443170,1872,1,192892.0,224294,0.51,0.14,9.93,-0.03,-0.01,-0.01,30.43,23.024684,1.0563679101697216,-133.3596406989686,9.944073611956018,0.033166247903554,0.0329477174659763,-0.23161144536091302
25483170,1871,1,193046.0,224638,0.49,0.12,9.98,-0.03,-0.01,-0.01,30.43,23.064684,1.1588987228671497,-21.958183161023268,9.992742366337682,0.033166247903554,0.035576667432957454,-0.03374586585996504
25523171,1866,1,193182.0,225049,0.45,0.11,9.97,-0.03,-0.01,-0.0,30.43,23.104685,3.03761525413289,58.3457127655744,9.980756484355283,0.03162277660168379,0.08374805740733841,0.10888581288883283
25563170,1872,1,193219.0,225278,0.47,0.13,9.97,-0.03,-0.01,-0.0,30.43,23.144684,8.987671811617197,150.2075487885979,9.981918653244977,0.03162277660168379,0.23631098535852552,0.27204611456195443
25603171,1862,1,193371.0,225670,0.51,0.13,9.97,-0.03,-0.01,-0.01,30.43,23.184685,5.434208273233804,291.3102145809181,9.983882010520757,0.033166247903554,0.14519810322942386,0.5226654632954859
25643170,1851,1,193506.0,225984,0.47,0.13,9.96,-0.03,-0.01,-0.0,30.43,23.224684,-5.1269932900237665,478.02879982778103,9.971930605454492,0.03162277660168379,-0.12559727789119982,0.8543054785159645
25683170,1847,1,193555.0,226236,0.45,0.14,9.94,-0.03,-0.01,-0.0,30.43,23.264684,-4.368087473882101,647.4854128104106,9.951165760854353,0.03162277660168379,-0.10613848918370053,1.155285660185985
25723171,1851,1,193757.0,226772,0.46,0.15,10.0,-0.03,-0.01,-0.0,30.43,23.304685,0.6117859733624619,701.9066593989894,10.011698157655374,0.03162277660168379,0.021548376747406322,1.2519458990320105
25763171,1847,1,193858.0,226452,0.52,0.13,9.99,-0.03,-0.01,-0.0,30.43,23.344685,0.0968065965857877,571.771319526169,10.004369045572039,0.03162277660168379,0.008344004520607672,1.020806154484972
25803171,1842,1,193297.0,224448,0.46,0.16,9.97,-0.03,-0.01,-0.0,30.43,23.384685,-4.26610938996751,274.9248504851996,9.981888598857433,0.03162277660168379,-0.10352371150578216,0.49356261640473453
25843170,1839,1,192744.0,223531,0.49,0.15,9.92,-0.03,-0.01,-0.0,30.43,23.424684,-4.7323540656015,-80.67041861121517,9.933227068782834,0.03162277660168379,-0.11547849750977396,-0.13802753997712205
25883173,1838,1,192638.0,223464,0.5,0.18,9.97,-0.03,-0.01,-0.01,30.43,23.464687,-5.163468368855963,-359.906632568671,9.984152442746455,0.033166247903554,-0.1265325202321975,-0.6339926423504294
25923170,1833,1,192628.0,223436,0.44,0.16,9.97,-0.03,-0.01,-0.01,30.43,23.504684,-9.879031764624527,-480.2586478454248,9.980986925149237,0.033166247903554,-0.24744232195382454,-0.8477557453935877
25963857,1827,1,192612.0,223429,0.46,0.13,9.97,-0.03,-0.01,-0.0,30.31,23.545371,-13.618824355310178,-447.46697530564137,9.981452800068736,0.03162277660168379,-0.34333278989357624,-0.7895128513301997
26002170,1827,1,192644.0,223756,0.48,0.13,9.95,-0.03,-0.01,-0.0,30.31,23.583684,-17.34929564510201,-330.3088708280579,9.962419384868316,0.03162277660168379,-0.4389842542300956,-0.581422609532478
26042171,1825,1,192826.0,223944,0.46,0.13,9.95,-0.03,-0.01,-0.0,30.31,23.623685,-14.507311978486353,-206.11539479575464,9.961475794278677,0.03162277660168379,-0.3661141318742076,-0.36083650008235196
26082225,1831,1,192822.0,224123,0.47,0.14,9.96,-0.03,-0.01,-0.0,30.31,23.663739,-15.70033636960309,-118.44521298841994,9.972065984539011,0.03162277660168379,-0.39670397458704837,-0.20512120055538588
26122171,1813,1,192920.0,224425,0.51,0.11,9.99,-0.03,-0.01,-0.0,30.31,23.703685,-28.34316194839595,-65.59385706754172,10.003614346824852,0.03162277660168379,-0.7208734121784636,-0.1112493213375271
26162170,1805,1,192999.0,224640,0.47,0.15,9.93,-0.03,-0.01,-0.01,30.31,23.743684,-43.81474430888213,-14.25756701026746,9.94224823669174,0.033166247903554,-1.1175738270652233,-0.020068424730753032
26202170,1776,1,193087.0,224966,0.47,0.14,9.97,-0.03,-0.01,-0.01,30.31,23.783684,-69.95782167295032,75.3528689097848,9.982053896869122,0.033166247903554,-1.7878976113492124,0.1390930550606067
26242170,1776,1,193239.0,225267,0.49,0.13,9.94,-0.03,-0.01,-0.0,30.31,23.823684,-75.84447435992219,222.48494340675322,9.95291916977125,0.03162277660168379,-1.9388348270008,0.4004215316077211
26282171,1793,1,193338.0,225471,0.46,0.14,9.94,-0.03,-0.01,-0.0,30.31,23.863685,-57.957459707126205,403.96875564707756,9.951622983212335,0.03162277660168379,-1.4802013163152943,0.7227638103588014
26322170,1808,1,193414.0,225623,0.47,0.13,9.96,-0.03,-0.01,-0.0,30.31,23.903684,-49.80873798576967,549.5838164835097,9.971930605454492,0.03162277660168379,-1.2712633284392236,0.9813978447173959
26362171,1831,1,193519.0,225997,0.48,0.14,9.97,-0.03,-0.01,-0.0,30.31,23.943685,-23.802699271258167,568.3716562847719,9.982529739499903,0.03162277660168379,-0.6044532952291715,1.0147678462596241
26402170,1871,1,193556.0,225467,0.46,0.13,9.97,-0.03,-0.01,-0.0,30.31,23.983684,4.878838769653193,402.52135011682054,9.981452800068736,0.03162277660168379,0.13095810454328047,0.7201930025763302
26442171,1867,1,193074.0,223554,0.51,0.16,9.97,-0.03,-0.01,-0.0,30.31,24.023685,7.912264930481335,75.5914682575347,9.984317703278478,0.03162277660168379,0.20873692434921146,0.1395168430365854
26482170,1894,1,192479.0,222487,0.46,0.08,9.96,-0.03,-0.01,-0.0,30.31,24.063684,20.283992591852705,-307.6517768914806,9.970937769337446,0.03162277660168379,0.5259552528807864,-0.5411802364015765
26522170,1904,1,192189.0,222133,0.46,0.11,9.95,-0.03,-0.01,-0.0,30.31,24.103684,37.86676255146301,-617.9214589032728,9.961234863208476,0.03162277660168379,0.976787751801516,-1.092265399824389
26562171,1923,1,192266.0,222334,0.47,0.18,10.01,-0.03,-0.01,-0.0,30.31,24.143685,44.414228131896785,-771.7670757216903,10.022644361644286,0.03162277660168379,1.1446685962876282,-1.365518127375896
26602171,1925,1,192288.0,222316,0.47,0.15,9.98,-0.03,-0.01,-0.0,30.31,24.183685,48.98292939129128,-761.8897388214423,9.992186947810774,0.03162277660168379,1.2618127669914776,-1.3479745060186266
26642170,1930,1,192260.0,222311,0.49,0.13,9.97,-0.03,-0.01,-0.0,30.31,24.223684,48.79669430784877,-635.8232737642533,9.982880345872127,0.03162277660168379,1.2570375905973163,-1.124061689117822
26682170,1937,1,192347.0,222864,0.49,0.13,9.97,-0.03,-0.01,-0.01,30.31,24.263684,50.1715036672009,-455.84892196714395,9.982880345872127,0.033166247903554,1.2922885061493086,-0.8044004369164056
26722170,1936,1,192589.0,223481,0.47,0.14,9.97,-0.03,-0.01,-0.01,30.31,24.303684,52.638260168224505,-273.04485735180793,9.982053896869122,0.033166247903554,1.3555375846585558,-0.4797131933233688
26762170,1936,1,192801.0,223978,0.47,0.15,9.96,-0.03,-0.01,-0.01,30.31,24.343684,39.968395339785864,-118.20407627550235,9.97221138965676,0.033166247903554,1.0306748449017393,-0.204692905840982
26802170,1918,1,192906.0,224221,0.45,0.1,9.99,-0.03,-0.01,-0.01,30.31,24.383684,30.96471215195601,3.1352609634924113,10.000629980156251,0.033166247903554,0.7998151452989892,0.010823828048040987
26842170,1935,1,192990.0,224448,0.46,0.16,9.94,-0.03,-0.01,-0.0,30.31,24.423684,33.43489262030759,112.29176388102312,9.95192443701217,0.03162277660168379,0.8631520163318401,0.2047020338041673
26882170,1917,1,193079.0,224799,0.47,0.13,9.98,-0.03,-0.01,-0.01,30.31,24.463684,23.889670630818287,243.48465390454632,9.991906724944943,0.033166247903554,0.6184069453242719,0.4377201449187962
26922170,1921,1,193219.0,225153,0.46,0.13,9.95,-0.03,-0.01,-0.01,30.31,24.503684,17.694945327561317,411.47439035065725,9.961475794278677,0.033166247903554,0.4595705677222122,0.7360949353994264
