timestamp_us,ecg,leads,ir,red,accX,accY,accZ,gyroX,gyroY,gyroZ,temp,time_sec,ecg_filtered,ppg_filtered,accel_magnitude,gyro_magnitude,ecg_norm,ppg_norm
1948948,1936.0,1,182213.0,218415,0.37,-0.76,9.894999999999998,-0.03,-0.01,-0.01,30.73,0.030466,-2.405903382162772,-82.63693743809941,9.931038465336842,0.033166247903554,-0.10975272808596005,-0.11847238504135214
1989195,1954.0,1,182205.0,218443,0.35,-0.79,9.97,-0.03,-0.01,-0.01,30.73,0.070713,10.366086828550836,-156.4831307511083,10.007372282472558,0.033166247903554,0.4512169094253352,-0.22013042604726096
2029182,1961.0,1,182238.0,218561,0.35,-0.77,9.96,-0.03,-0.01,-0.0,30.73,0.1107,15.312046160599992,-128.93495543279633,9.995849138517448,0.03162277660168379,0.668452670482985,-0.18220709634661433
2069183,1981.0,1,182478.0,219707,0.38,-0.76,9.92,-0.03,-0.01,-0.01,30.73,0.150701,28.458919033489327,29.257321643221108,9.956324623072511,0.033166247903554,1.2458878538990665,0.03556332983700484
2109182,1993.0,1,182883.0,220564,0.35,-0.77,9.95,-0.03,-0.01,-0.01,30.73,0.1907,38.01634433812859,257.2423996318014,9.98588503839294,0.033166247903554,1.6656678036352799,0.34941182177837077
2149183,1991.0,1,183081.0,220934,0.37,-0.77,9.97,-0.03,-0.01,-0.0,30.73,0.230701,32.64391325783346,450.34405712194103,10.006532866083038,0.03162277660168379,1.429700607767911,0.615239149291859
2189182,1993.0,1,183179.0,221196,0.36,-0.77,9.96,-0.03,-0.01,-0.01,30.73,0.2707,27.07390533742825,536.544456502286,9.996204279625342,0.033166247903554,1.1850554684830623,0.7339042197822173
2229190,1994.0,1,183259.0,221416,0.36,-0.77,9.93,-0.03,-0.01,-0.01,30.73,0.310708,31.610728246939416,526.9848486041737,9.966313260178008,0.033166247903554,1.3843211945769145,0.720744286031976
2269182,2002.0,1,183242.0,221579,0.38,-0.77,9.96,-0.03,-0.01,-0.0,30.73,0.3507,26.152459935762973,504.5930962746366,9.996944533206134,0.03162277660168379,1.1445838673910866,0.6899193839701762
2309183,1984.0,1,183435.0,222018,0.37,-0.79,9.95,-0.03,-0.01,-0.01,30.73,0.390701,16.761333651042253,558.4251270251274,9.988168000189022,0.033166247903554,0.7321080808575615,0.7640255571383562
2349182,2011.0,1,183521.0,222330,0.37,-0.77,9.96,-0.03,-0.01,-0.0,30.73,0.4307,28.710741200571174,707.5729358256325,9.996569411553146,0.03162277660168379,1.2569483532773635,0.9693452003421207
2389183,2001.0,1,183611.0,222725,0.39,-0.77,9.94,-0.03,-0.01,-0.01,30.73,0.470701,27.050246515117397,868.0406137610695,9.97740447210596,0.033166247903554,1.1840163288692118,1.1902479856020065
2429182,1991.0,1,183867.0,223346,0.37,-0.79,9.94,-0.03,-0.01,-0.01,30.73,0.5107,5.611697363826546,893.6077981813166,9.978206251626592,0.033166247903554,0.24239525433381526,1.2254442464462505
2469183,1981.0,1,183811.0,223109,0.37,-0.78,9.94,-0.03,-0.01,-0.01,30.73,0.550701,0.03622268598858252,673.4223776668945,9.977419506064681,0.033166247903554,-0.002489995136276201,0.9223329078200079
2509182,1993.0,1,183356.0,220016,0.39,-0.78,9.94,-0.03,-0.01,-0.01,30.73,0.5907,5.820133719179212,220.4956466416168,9.978181196991763,0.033166247903554,0.25155016792028817,0.2988255592410963
2549183,1997.0,1,182303.0,218601,0.36,-0.79,9.94,-0.03,-0.01,-0.01,30.73,0.630701,10.73316417861633,-319.5834905543798,9.977840447712119,0.033166247903554,0.4673396314606304,-0.4446574100541484
2589182,1994.0,1,182280.0,218518,0.38,-0.78,9.92,-0.03,-0.01,-0.01,30.73,0.6707,5.002250322509984,-751.5524746134175,9.9578712584568,0.033166247903554,0.21562720329327337,-1.0393139349832217
2629200,1987.0,1,182256.0,218486,0.36,-0.78,9.95,-0.03,-0.01,-0.01,30.73,0.710718,-2.335341773701572,-941.5465996628036,9.987016571529256,0.033166247903554,-0.10665353060243161,-1.3008633756332626
2669182,1994.0,1,182179.0,218545,0.37,-0.76,9.93,-0.03,-0.01,-0.0,30.73,0.7507,3.178441740474578,-876.290735000778,9.965911900072166,0.03162277660168379,0.13552212786844436,-1.2110309405669093
2709183,1990.0,1,182381.0,219396,0.37,-0.77,9.94,-0.03,-0.01,-0.0,30.73,0.790701,-0.5875961110605175,-643.5654758833392,9.976642721877935,0.03162277660168379,-0.029889280500574447,-0.8906570272604851
2749182,1986.0,1,182691.0,220052,0.36,-0.78,9.97,-0.03,-0.01,-0.01,30.73,0.8307,-6.340614481409636,-366.84611621120155,10.00694259002219,0.033166247903554,-0.2825725801717109,-0.5097200181794301
2789183,1989.0,1,182905.0,220491,0.35,-0.77,9.96,-0.03,-0.01,-0.0,30.73,0.870701,-1.6045579221863715,-141.70357579564353,9.995849138517448,0.03162277660168379,-0.07455614049171017,-0.19978461624575503
2829182,1984.0,1,183009.0,221028,0.37,-0.74,9.95,-0.03,-0.01,-0.01,30.73,0.9107,-8.952747140588531,-0.9567124270800974,9.98433773467224,0.033166247903554,-0.397302319764044,-0.0060298705254507486
2869183,1979.0,1,183157.0,221445,0.38,-0.78,9.94,-0.03,-0.01,-0.01,30.73,0.950701,-11.683100068588676,86.66675956422569,9.977795347670746,0.033166247903554,-0.5172245141150345,0.11459422814698661
2909182,1972.0,1,183312.0,221744,0.36,-0.78,9.93,-0.03,-0.01,-0.01,30.73,0.9907,-19.432757578090932,189.1125594005755,9.967090849390308,0.033166247903554,-0.8576039297127286,0.2556230185749984
2949183,1951.0,1,183447.0,221949,0.37,-0.78,9.98,-0.03,-0.01,-0.01,30.73,1.030701,-41.02942721813627,362.91341254280854,10.017270087204398,0.033166247903554,-1.8061699511042,0.49488050041573933
2989868,1969.0,1,183506.0,222277,0.35,-0.77,9.95,-0.03,-0.01,-0.01,30.67,1.071386,-19.061615510183437,601.5025288063097,9.98588503839294,0.033166247903554,-0.841302677686665,0.8233267083586724
3028193,2006.0,1,183681.0,222876,0.36,-0.77,9.96,-0.03,-0.01,-0.0,30.67,1.109711,12.877470363378926,811.9625363731104,9.996204279625342,0.03162277660168379,0.5615215595183636,1.1130498629245928
3068182,2001.0,1,183881.0,223267,0.37,-0.76,9.99,-0.03,-0.01,-0.0,30.67,1.1497,14.89664425688594,852.2647475779099,10.025696983252585,0.03162277660168379,0.6502074438970374,1.1685306352633962
3108182,2007.0,1,183913.0,222642,0.36,-0.76,9.95,-0.03,-0.01,-0.01,30.67,1.1897,16.228869489116626,623.9841736593633,9.98547445042047,0.033166247903554,0.708721261499321,0.8542753581376095
3148182,2002.0,1,183101.0,219447,0.37,-0.76,9.96,-0.03,-0.01,-0.01,30.67,1.2297,13.994723065457086,159.6076894359726,9.995804119729438,0.033166247903554,0.6105933825430606,0.2150060666893116
3188183,2011.0,1,182347.0,218533,0.38,-0.77,9.97,-0.03,-0.01,-0.0,30.67,1.269701,25.823448869599034,-371.2417867452006,10.006907614243273,0.03162277660168379,1.1301330875613018,-0.5157711798621952
3228182,2016.0,1,182158.0,218447,0.36,-0.77,9.93,-0.03,-0.01,-0.01,30.67,1.3097,24.587791037184978,-753.4354757973782,9.966313260178008,0.033166247903554,1.075860690315346,-1.041906109379563
3269183,1971.0,1,182228.0,218510,0.35,-0.78,9.98,-0.03,-0.01,-0.0,30.67,1.350701,-9.747839360225642,-850.6697760039589,10.016551302718916,0.03162277660168379,-0.43222425337653153,-1.1757606526419864
3309182,1979.0,1,182261.0,218655,0.37,-0.77,9.96,-0.03,-0.01,-0.01,30.67,1.3907,-13.08292912724726,-674.805800782833,9.996569411553146,0.033166247903554,-0.5787076178958984,-0.9336630386361751
3349183,1979.0,1,182497.0,219833,0.37,-0.78,9.96,-0.03,-0.01,-0.0,30.67,1.430701,-1.606806089457292,-363.67694657883095,9.997344647455144,0.03162277660168379,-0.07465488419243545,-0.5053572804134273
3389182,1981.0,1,182836.0,220548,0.36,-0.77,9.96,-0.03,-0.01,-0.01,30.67,1.4707,-8.53848619028846,-95.37093894089362,9.996204279625342,0.033166247903554,-0.379107205980604,-0.13600224797488694
3429183,1967.0,1,182892.0,220410,0.34,-0.77,9.96,-0.03,-0.01,-0.01,30.67,1.510701,-16.133770190029118,6.494930041034833,9.995503989294388,0.033166247903554,-0.7127062490299644,0.004228198869868418
3469182,1968.0,1,182773.0,220193,0.37,-0.81,9.97,-0.03,-0.01,-0.0,30.67,1.5507,-19.078972304204473,-68.44191055728314,10.009690304899548,0.03162277660168379,-0.8420650204609471,-0.09893124744183568
3509182,1970.0,1,182761.0,219862,0.37,-0.79,9.99,-0.03,-0.01,-0.0,30.67,1.5907,-14.954516213329608,-217.50112805673677,10.028015755871149,0.03162277660168379,-0.6609112143541653,-0.30412893421547127
3549182,1973.0,1,182667.0,219792,0.36,-0.79,9.97,-0.03,-0.01,-0.0,30.67,1.6307,-14.341495265579367,-284.6675228731397,10.00772701466222,0.03162277660168379,-0.6339861906755675,-0.39659144057004214
3589182,1968.0,1,182721.0,220414,0.38,-0.77,9.95,-0.03,-0.01,-0.01,30.67,1.6707,-17.027963102592885,-156.78771018748463,9.98698152596669,0.033166247903554,-0.7519808699582903,-0.22054971575528237
3629182,1977.0,1,182995.0,221213,0.38,-0.77,9.98,-0.03,-0.01,-0.01,30.67,1.7107,-12.781805243136349,150.52646386157292,10.016870768857908,0.033166247903554,-0.5654816951282788,0.20250468292924173
3669183,1978.0,1,183228.0,222090,0.37,-0.76,9.97,-0.03,-0.01,-0.0,30.67,1.750701,-7.186623747352067,475.19866993651715,10.005768336314809,0.03162277660168379,-0.3197308854488965,0.6494544708315959
3709182,1983.0,1,183536.0,222809,0.37,-0.78,9.94,-0.03,-0.01,-0.0,30.67,1.7907,-8.835456392849226,592.2578519897804,9.977419506064681,0.03162277660168379,-0.3921506913054225,0.8106003145834695
3749182,1974.0,1,183643.0,222270,0.34,-0.78,9.95,-0.03,-0.01,-0.01,30.67,1.8307,-13.900065258102419,364.52054121107085,9.98631563691034,0.033166247903554,-0.6145977612142584,0.4970929035841394
3789182,1978.0,1,182919.0,218927,0.38,-0.79,9.98,-0.03,-0.01,-0.01,30.67,1.8707,-13.545501197665,-142.2664061562187,10.018428020403201,0.033166247903554,-0.5990246462042524,-0.2005594189716342
3829183,1979.0,1,181938.0,217742,0.36,-0.77,9.97,-0.03,-0.01,-0.01,30.67,1.910701,-14.857552340832108,-680.141755052031,10.006168097728521,0.033166247903554,-0.656652380178033,-0.941008612369469
3869191,1971.0,1,181877.0,218124,0.37,-0.78,9.95,-0.03,-0.01,-0.01,30.67,1.950709,-18.348507901178245,-976.447890764563,9.987382039353456,0.033166247903554,-0.8099816611238252,-1.348909141065518
3909183,1989.0,1,182233.0,219208,0.36,-0.75,9.93,-0.03,-0.01,-0.01,30.67,1.990701,-12.124867670337439,-910.5515761227637,9.964788005773128,0.033166247903554,-0.5366277713465785,-1.2581950506641348
3949182,1984.0,1,182564.0,220186,0.34,-0.78,9.98,-0.03,-0.01,-0.01,30.67,2.0307,-3.8746750464786093,-573.1157018265252,10.016206866873308,0.033166247903554,-0.17426391972678745,-0.7936745600726609
3989183,1991.0,1,182897.0,221222,0.37,-0.79,9.99,-0.03,-0.01,-0.01,30.67,2.070701,-15.377630136575814,-174.4663254146427,10.028015755871149,0.033166247903554,-0.6794951672255278,-0.2448864257610712
4029868,1974.0,1,183245.0,221960,0.38,-0.78,9.96,-0.03,-0.01,-0.0,30.63,2.111386,-15.883879813762318,109.0410790442133,9.997719740020722,0.03162277660168379,-0.701730597508218,0.1453951318243763
4068182,2025.0,1,183347.0,221800,0.35,-0.78,9.97,-0.03,-0.01,-0.0,30.63,2.1497,17.42223433819,229.86156114585424,10.00658783002478,0.03162277660168379,0.7611360720150587,0.31171885106852865
4108182,2025.0,1,183181.0,221747,0.36,-0.74,9.93,-0.03,-0.01,-0.01,30.63,2.1897,29.557420194725616,253.04732778613493,9.964040345161195,0.033166247903554,1.2941360742670671,0.34363680797499346
4148183,2031.0,1,183403.0,222539,0.35,-0.78,9.93,-0.03,-0.01,-0.01,30.63,2.229701,24.74758339347582,271.97263816847834,9.966734670893974,0.033166247903554,1.082879068712658,0.36968974168198926
4188182,2032.0,1,183570.0,223311,0.36,-0.77,9.98,-0.03,-0.01,-0.01,30.63,2.2697,30.80753889706253,340.84964895650864,10.016131987948242,0.033166247903554,1.3490436198982696,0.464507113748486
4228183,2032.0,1,183873.0,224015,0.38,-0.78,9.97,-0.03,-0.01,-0.01,30.63,2.309701,25.98231177166723,470.06657311560326,10.007682049305924,0.033166247903554,1.137110642595163,0.6423895310471527
4268182,2023.0,1,184009.0,224328,0.35,-0.77,9.96,-0.03,-0.01,-0.01,30.63,2.3497,19.089964616585537,655.3935119712003,9.995849138517448,0.033166247903554,0.8343858971639527,0.8975140365152355
4308183,2027.0,1,183993.0,224417,0.38,-0.76,9.96,-0.03,-0.01,-0.0,30.63,2.389701,18.80897817944985,880.6786158180541,9.996179270101152,0.03162277660168379,0.8220444486359562,1.2076456939157727
4348182,2029.0,1,184078.0,224930,0.38,-0.79,9.97,-0.03,-0.01,-0.0,30.63,2.4297,24.979140509241244,1081.2696355519117,10.008466415990014,0.03162277660168379,1.0930494892306073,1.483783016568115
4388182,2032.0,1,184393.0,225829,0.38,-0.79,9.94,-0.03,-0.01,-0.01,30.63,2.4697,21.42875715728143,1127.0132187377712,9.978582063600017,0.033166247903554,0.9371100288085065,1.5467544826199218
4428182,2009.0,1,184537.0,225671,0.35,-0.76,9.96,-0.03,-0.01,-0.01,30.63,2.5097,4.846852742200575,885.8365359654206,9.995083791544722,0.033166247903554,0.20880185165597118,1.214746182570938
4468183,2017.0,1,184055.0,221945,0.37,-0.78,9.95,-0.03,-0.01,-0.01,30.63,2.549701,6.087878262642558,340.962748678832,9.987382039353456,0.033166247903554,0.2633100077740856,0.4646628089264483
4508182,2006.0,1,182573.0,219459,0.37,-0.76,9.94,-0.03,-0.01,-0.0,30.63,2.5897,0.9325284301837098,-347.8470333421977,9.97587590139332,0.03162277660168379,0.03687742529900296,-0.48356552789737506
4548182,2001.0,1,182275.0,219487,0.37,-0.77,9.97,-0.03,-0.01,-0.01,30.63,2.6297,-8.965000142982742,-916.9514176306807,10.006532866083038,0.033166247903554,-0.3978404944884295,-1.267005191326166
4588182,2005.0,1,182379.0,219920,0.36,-0.78,9.96,-0.03,-0.01,-0.01,30.63,2.6697,0.0700023285850418,-1157.9368194947622,9.996979543842231,0.033166247903554,-0.0010063302140543328,-1.5987501705248237
4628183,2011.0,1,182525.0,220185,0.36,-0.76,9.96,-0.03,-0.01,-0.01,30.63,2.709701,1.4392391861251617,-1034.752686497078,9.995438959845636,0.033166247903554,0.05913310702080008,-1.4291726055652243
4668182,2007.0,1,182695.0,221068,0.36,-0.77,9.95,-0.03,-0.01,-0.0,30.63,2.7497,4.005322289513015,-677.7535122990436,9.986240533854568,0.03162277660168379,0.17184026421262466,-0.9377209130470925
4708182,2015.0,1,183170.0,222440,0.34,-0.78,9.93,-0.03,-0.01,-0.01,30.63,2.7897,6.0571983374194955,-282.87185355663405,9.966388513398423,0.033166247903554,0.26196248822174373,-0.3941194888441537
4748182,2002.0,1,183425.0,222801,0.36,-0.77,9.96,-0.03,-0.01,-0.0,30.63,2.8297,0.5848792262564486,-2.0875266918752193,9.996204279625342,0.03162277660168379,0.02160802368729677,-0.007586570441089573
4788182,2005.0,1,183498.0,223033,0.36,-0.78,9.94,-0.03,-0.01,-0.0,30.63,2.8697,-0.7460672930981738,111.80851536238242,9.977053673304559,0.03162277660168379,-0.03684963045990029,0.14920483605003904
4828182,1993.0,1,183514.0,223052,0.35,-0.78,9.94,-0.03,-0.01,-0.01,30.63,2.9097,-8.859127952345878,98.28145752177576,9.976697850491414,0.033166247903554,-0.39319039036023584,0.13058323703516544
4868183,1997.0,1,183509.0,223216,0.36,-0.77,9.94,-0.03,-0.01,-0.01,30.63,2.949701,-3.231882693673024,48.01553745266709,9.976276860632927,0.033166247903554,-0.14603128039655147,0.06138623805207758
4908182,2005.0,1,183562.0,223431,0.4,-0.79,9.95,-0.03,-0.01,-0.0,30.63,2.9897,2.650073851368984,57.00355673905923,9.989324301473047,0.03162277660168379,0.11231522445447656,0.07375931230527664
4948182,1991.0,1,183688.0,223814,0.37,-0.76,9.95,-0.03,-0.01,-0.0,30.63,3.0297,-4.846132034436583,186.32579827299378,9.985839974684152,0.03162277660168379,-0.2169321229904784,0.2517867114578451
4988182,2007.0,1,183842.0,224264,0.38,-0.79,9.96,-0.03,-0.01,-0.0,30.63,3.0697,7.338674337116522,427.1631099268908,9.998504888232041,0.03162277660168379,0.3182473048532545,0.5833278269231934
5028182,2000.0,1,183964.0,224465,0.36,-0.77,9.97,-0.03,-0.01,-0.01,30.63,3.1097,5.202098238238773,681.9132173577248,10.006168097728521,0.033166247903554,0.2244048965888512,0.9340215554095508
5068868,1980.0,1,184045.0,224748,0.36,-0.77,9.95,-0.03,-0.01,-0.01,30.53,3.150386,-13.817190754954567,789.2709533449757,9.986240533854568,0.033166247903554,-0.6109577584251251,1.0818122083553798
5109183,1983.0,1,184188.0,225025,0.37,-0.77,9.94,-0.03,-0.01,-0.01,30.53,3.190701,-12.43002302862809,608.3182505240713,9.976642721877935,0.033166247903554,-0.5500307639813005,0.8327093574402875
5149182,1974.0,1,183954.0,222183,0.37,-0.77,9.94,-0.03,-0.01,-0.0,30.53,3.2307,-13.794390198882535,123.68361774668786,9.976642721877935,0.03162277660168379,-0.6099563154656673,0.1655523225076846
5189182,1977.0,1,182504.0,219151,0.38,-0.78,9.95,-0.03,-0.01,-0.01,30.53,3.2707,-17.971478705333546,-511.7254146909189,9.987757506067114,0.033166247903554,-0.793421835455719,-0.7091635508112453
5229182,1972.0,1,182070.0,218891,0.36,-0.78,9.97,-0.03,-0.01,-0.01,30.53,3.3107,-11.844086025717472,-1050.364801978196,10.00694259002219,0.033166247903554,-0.5242953176879338,-1.4506645336466262
5269183,1986.0,1,182167.0,219239,0.37,-0.78,9.96,-0.03,-0.01,-0.0,30.53,3.350701,-6.430950063681402,-1295.5010462362975,9.997344647455144,0.03162277660168379,-0.28654028747537413,-1.7881236395642035
5309182,1981.0,1,182255.0,219470,0.35,-0.77,9.96,-0.03,-0.01,-0.01,30.53,3.3907,-1.2436750007384851,-1206.4667281473671,9.995849138517448,0.033166247903554,-0.05870548931764174,-1.6655573439549867
5349183,1984.0,1,182377.0,220247,0.37,-0.75,9.96,-0.03,-0.01,-0.0,30.53,3.430701,-4.364049100126018,-891.3383312192402,9.995048774268188,0.03162277660168379,-0.19575814114043522,-1.2317457409484656
5389182,1971.0,1,182795.0,221391,0.38,-0.78,9.97,-0.03,-0.01,-0.01,30.53,3.4707,-11.163744945498483,-513.8333196564138,10.007682049305924,0.033166247903554,-0.49441346819870174,-0.7120653319296105
5429183,1982.0,1,183090.0,221816,0.36,-0.77,9.98,-0.03,-0.01,-0.01,30.53,3.510701,-2.1234688043348164,-196.8641866636499,10.016131987948242,0.033166247903554,-0.09734767451710427,-0.2757197374748535
5469182,1983.0,1,183127.0,222139,0.35,-0.77,9.97,-0.03,-0.01,-0.0,30.53,3.5507,0.9446158538884207,18.249162111468195,10.005813310271185,0.03162277660168379,0.03740832749844164,0.02040929300892928
5509188,1975.0,1,183336.0,222820,0.37,-0.77,9.95,-0.03,-0.01,-0.0,30.53,3.590706,-6.503715982053972,156.04000233262232,9.986606030078486,0.03162277660168379,-0.289736302362576,0.21009472237246457
5549182,1977.0,1,183526.0,223336,0.36,-0.76,9.96,-0.03,-0.01,-0.01,30.53,3.6307,-3.465713199835061,270.27188885614163,9.995438959845636,0.033166247903554,-0.15630155246196295,0.36734845859646237
5589183,1975.0,1,183675.0,223761,0.36,-0.78,9.96,-0.03,-0.01,-0.01,30.53,3.670701,-6.279969294241402,415.36460003759305,9.996979543842231,0.033166247903554,-0.2799089304114698,0.5670857791164643
5629182,1968.0,1,183791.0,224155,0.35,-0.78,9.93,-0.03,-0.01,-0.0,30.53,3.7107,-9.739633240382588,625.2248918159763,9.966734670893974,0.03162277660168379,-0.43186382528366696,0.8559833537915916
5669182,1983.0,1,183962.0,224697,0.36,-0.77,9.97,-0.03,-0.01,-0.01,30.53,3.7507,0.9189795209783896,886.6567598069332,10.006168097728521,0.033166247903554,0.03628233192982653,1.2158753179423591
5709202,1983.0,1,184075.0,224878,0.36,-0.76,9.96,-0.03,-0.01,-0.0,30.53,3.79072,7.111028313740734,1116.4822568369254,9.995438959845636,0.03162277660168379,0.30824866680960156,1.5322573649119025
5749182,1984.0,1,184125.0,225023,0.35,-0.76,9.97,-0.03,-0.01,-0.01,30.53,3.8307,2.1315313790943624,1177.833444106915,10.005048725518533,0.033166247903554,0.08953987167804715,1.6167145485722427
5789182,1970.0,1,184201.0,225004,0.36,-0.78,9.94,-0.03,-0.01,-0.0,30.53,3.8707,-6.366989350538539,956.4783091778764,9.977053673304559,0.03162277660168379,-0.2837310136288738,1.3119929593617585
5829182,1974.0,1,183867.0,221999,0.37,-0.79,9.96,-0.03,-0.01,-0.01,30.53,3.9107,-6.032826753438603,458.56859651424395,9.998129825122296,0.033166247903554,-0.2690539689496711,0.6265612029453701
5869182,1983.0,1,182484.0,219369,0.37,-0.76,9.92,-0.03,-0.01,-0.0,30.53,3.9507,4.190292060319789,-154.66773654325976,9.955947970936771,0.03162277660168379,0.17996448162652337,-0.2176313206696674
5909194,1984.0,1,182159.0,219299,0.38,-0.79,9.96,-0.03,-0.01,-0.0,30.53,3.990712,6.392926870313588,-645.5133998393508,9.998504888232041,0.03162277660168379,0.2767083117224396,-0.8933385755504188
5949182,1981.0,1,182235.0,219453,0.36,-0.77,9.96,-0.03,-0.01,-0.0,30.53,4.0307,-0.6831165345139287,-842.769955178304,9.996204279625342,0.03162277660168379,-0.03408471570178822,-1.1648856125972034
5989182,1973.0,1,182282.0,219653,0.4,-0.78,9.95,-0.03,-0.01,-0.01,30.53,4.0707,-3.176270621388493,-737.7828655778407,9.988538431622516,0.033166247903554,-0.14358869443179428,-1.0203584354892834
6029182,1979.0,1,182465.0,220557,0.37,-0.76,9.95,-0.03,-0.01,-0.01,30.53,4.1107,-4.477254498014277,-464.9862616429884,9.985839974684152,0.033166247903554,-0.20073033341195987,-0.6448215648000184
6069869,1973.0,1,182805.0,221162,0.36,-0.78,9.99,-0.03,-0.01,-0.01,30.57,4.151387,-3.786449877125052,-197.45603781685307,10.026868903102304,0.033166247903554,-0.1703889056956835,-0.2765344907627677
6108182,1995.0,1,182795.0,220941,0.36,-0.76,9.95,-0.03,-0.01,-0.0,30.57,4.1897,11.342208659821505,-43.91200610396553,9.98547445042047,0.03162277660168379,0.49409000131006303,-0.06516292546189825
6148182,2000.0,1,182757.0,220989,0.38,-0.77,9.96,-0.03,-0.01,-0.01,30.57,4.2297,20.782559896576725,-10.202979781466922,9.996944533206134,0.033166247903554,0.9087278395711365,-0.018758453864603956
6188182,1994.0,1,182846.0,221305,0.39,-0.78,9.94,-0.03,-0.01,-0.01,30.57,4.2697,10.999113018308538,-26.74879605107866,9.978181196991763,0.033166247903554,0.47902060065473007,-0.041535731789857776
6228183,1987.0,1,182972.0,221699,0.37,-0.79,9.95,-0.03,-0.01,-0.01,30.57,4.309701,4.7390665551311,-3.133207059457429,9.988168000189022,0.033166247903554,0.20406768123370075,-0.009026073452926199
6268182,1990.0,1,183098.0,221968,0.38,-0.77,9.95,-0.03,-0.01,-0.01,30.57,4.3497,7.294108015741314,123.64131854664251,9.98698152596669,0.033166247903554,0.31628986887541516,0.16549409264342468
6308183,1997.0,1,183170.0,222294,0.38,-0.78,9.95,-0.03,-0.01,-0.01,30.57,4.389701,12.088644623527253,354.8911122562125,9.987757506067114,0.033166247903554,0.5268748613888129,0.48383685287063527
6348182,2000.0,1,183325.0,222671,0.38,-0.78,9.96,-0.03,-0.01,-0.01,30.57,4.4297,16.609026669480045,611.8269058214258,9.997719740020722,0.033166247903554,0.725418474083065,0.8375394374768063
6388183,2000.0,1,183475.0,223265,0.38,-0.77,9.96,-0.03,-0.01,-0.01,30.57,4.469701,13.151885600926677,751.9728510763465,9.996944533206134,0.033166247903554,0.5735743887012117,1.0304669481630857
6428182,1993.0,1,183696.0,223521,0.36,-0.76,9.95,-0.03,-0.01,-0.0,30.57,4.5097,7.882779396008959,638.836112957326,9.98547445042047,0.03162277660168379,0.3421454141235636,0.8747208135691434
6468182,1998.0,1,183457.0,221061,0.37,-0.79,9.96,-0.03,-0.01,-0.01,30.57,4.5497,9.804121332357738,238.94814770458072,9.998129825122296,0.033166247903554,0.42653433642830474,0.3242276148591739
6508182,2001.0,1,182248.0,218557,0.34,-0.77,9.95,-0.03,-0.01,-0.01,30.57,4.5897,13.4797908782465,-327.54079310409304,9.985539544761714,0.033166247903554,0.5879766002220005,-0.4556115805076803
6548183,2000.0,1,181887.0,218257,0.36,-0.78,9.96,-0.03,-0.01,-0.01,30.57,4.629701,10.399962613001142,-839.0114184136022,9.996979543842231,0.033166247903554,0.4527047970771405,-1.1597115410925458
6588182,1990.0,1,181897.0,218453,0.36,-0.77,9.95,-0.03,-0.01,-0.01,30.57,4.6697,0.34506304495450735,-1098.8127310617963,9.986240533854568,0.033166247903554,0.01107484960285026,-1.5173588524797728
6628183,1995.0,1,181999.0,218819,0.35,-0.79,9.95,-0.03,-0.01,-0.01,30.57,4.709701,2.8406042688263087,-1041.9249558509323,9.987447121261768,0.033166247903554,0.12068367584322369,-1.4390460847436168
6668182,2005.0,1,182139.0,219609,0.36,-0.77,9.96,-0.03,-0.01,-0.01,30.57,4.7497,14.481246586173679,-750.5903678849985,9.996204279625342,0.033166247903554,0.6319624032324256,-1.0379894809949828
6708183,2007.0,1,182579.0,220801,0.36,-0.77,9.97,-0.03,-0.01,-0.01,30.57,4.789701,10.645884622709774,-385.403789172498,10.006168097728521,0.033166247903554,0.46350615053625754,-0.5352668553857481
6748182,1993.0,1,182892.0,221383,0.36,-0.76,9.96,-0.03,-0.01,-0.01,30.57,4.8297,2.573740580697047,-90.49980900538588,9.995438959845636,0.033166247903554,0.10896252479902516,-0.12929656005093373
6788183,2000.0,1,183018.0,221677,0.36,-0.78,9.96,-0.03,-0.01,-0.0,30.57,4.869701,-0.8487137610868323,71.98639054460776,9.996979543842231,0.03162277660168379,-0.04135805483146856,0.09438495954660646
6828182,1989.0,1,183119.0,222090,0.38,-0.8,9.96,-0.03,-0.01,-0.01,30.57,4.9097,-2.3806437823846434,135.01069311678785,9.999299975498285,0.033166247903554,-0.10864327933933238,0.18114538480095513
6868182,2000.0,1,183319.0,222718,0.33000000000000007,-0.76,9.96,-0.03,-0.01,-0.01,30.57,4.9497,-3.329700933532619,192.32175825804157,9.994403433922407,0.033166247903554,-0.15032763998113685,0.26004086131559273
6908182,1989.0,1,183476.0,223250,0.36,-0.77,9.94,-0.03,-0.01,-0.01,30.57,4.9897,-6.065617464828042,335.42336370650247,9.976276860632927,0.033166247903554,-0.2704941981683281,0.45703718870960514
6948183,2000.0,1,183634.0,223578,0.36,-0.77,9.97,-0.03,-0.01,-0.01,30.57,5.029701,-3.073695429637394,586.3487928187833,10.006168097728521,0.033166247903554,-0.13908340064555277,0.8024657940000538
6988182,1998.0,1,183821.0,224145,0.35,-0.75,9.92,-0.03,-0.01,-0.01,30.57,5.0697,-2.5721423725451986,858.8837370077432,9.954466334264234,0.033166247903554,-0.11705425467943081,1.1776424590242174
7028183,2000.0,1,184000.0,224780,0.37,-0.76,9.94,-0.03,-0.01,-0.0,30.57,5.109701,-2.051216544685116,983.6965797284049,9.97587590139332,0.03162277660168379,-0.09417422047929383,1.3494621360328884
7068181,1995.0,1,184167.0,225001,0.37,-0.79,9.96,-0.03,-0.01,-0.01,30.57,5.149699,-9.97577484102649,805.8018519887004,9.998129825122296,0.033166247903554,-0.4422356049303056,1.1045689503998237
7108869,1968.0,1,183865.0,221918,0.38,-0.77,9.98,-0.03,-0.01,-0.0,30.51,5.190387,-34.65358590549368,303.0945055994054,10.016870768857908,0.03162277660168379,-1.5261311058675016,0.4125326823067473
7149182,1971.0,1,182455.0,219128,0.35,-0.76,9.93,-0.03,-0.01,-0.01,30.51,5.2307,-35.66056064070381,-366.4645953772773,9.965189411145179,0.033166247903554,-1.570359314852505,-0.5091948095147766
7189183,1975.0,1,182060.0,219012,0.37,-0.77,9.98,-0.03,-0.01,-0.0,30.51,5.270701,-29.49278890155485,-941.824871751553,10.016496393450158,0.03162277660168379,-1.2994592734587616,-1.3012464501580248
7229182,1968.0,1,182206.0,219362,0.35,-0.8,9.95,-0.03,-0.01,-0.01,30.51,5.3107,-39.06944704073062,-1210.1077273637068,9.988243088751895,0.033166247903554,-1.7200839651686426,-1.6705696110879484
7269182,1973.0,1,182253.0,219491,0.36,-0.76,9.94,-0.03,-0.01,-0.01,30.51,5.3507,-31.961169202918743,-1119.1019363256107,9.975510012024447,0.033166247903554,-1.4078751413111028,-1.5452893492075277
7309182,1986.0,1,182412.0,220407,0.37,-0.76,9.95,-0.03,-0.01,-0.01,30.51,5.3907,-22.016107337679564,-779.5415864619938,9.985839974684152,0.033166247903554,-0.9710694706576082,-1.077844266099427
7349188,1978.0,1,182898.0,221679,0.35,-0.78,9.97,-0.03,-0.01,-0.01,30.51,5.430706,-24.878184281108442,-378.0513569451421,10.00658783002478,0.033166247903554,-1.09677722951088,-0.5251453606501482
7389182,1985.0,1,183229.0,222236,0.38,-0.77,9.96,-0.03,-0.01,-0.0,30.51,5.4707,-23.72369071472346,-71.82016552257846,9.996944533206134,0.03162277660168379,-1.046069718249178,-0.10358181595976508
7429183,1986.0,1,183305.0,222456,0.35,-0.77,9.93,-0.03,-0.01,-0.01,30.51,5.510701,-13.649228599454112,77.98947790911542,9.965957053891012,0.033166247903554,-0.6035805472049295,0.10264892108727085
7469182,1999.0,1,183375.0,222733,0.38,-0.77,9.96,-0.03,-0.01,-0.01,30.51,5.5507,-7.719614351355326,115.62568394427967,9.996944533206134,0.033166247903554,-0.3431408271253182,0.15445962120301482
7509183,1984.0,1,183478.0,223249,0.35,-0.78,9.95,-0.03,-0.01,-0.0,30.51,5.590701,-13.008250730963368,152.5507928983349,9.986661103692263,0.03162277660168379,-0.5754276034109078,0.2052914118721451
7549200,1988.0,1,183691.0,223895,0.35,-0.77,9.93,-0.03,-0.01,-0.0,30.51,5.630718,-12.55503837135487,301.548237225994,9.965957053891012,0.03162277660168379,-0.5555216710627955,0.4104040605503878
7589183,1988.0,1,183894.0,224478,0.38,-0.8,9.96,-0.03,-0.01,-0.01,30.51,5.670701,-6.770713300954226,604.9120333680363,9.999299975498285,0.033166247903554,-0.3014633227195384,0.8280202956513403
7629182,1986.0,1,184089.0,225104,0.37,-0.77,9.96,-0.03,-0.01,-0.01,30.51,5.7107,-5.07850415076405,985.3441225979094,9.996569411553146,0.033166247903554,-0.2271383398535798,1.3517301741411925
7669183,1986.0,1,184282.0,225882,0.35,-0.77,9.96,-0.03,-0.01,-0.01,30.51,5.750701,-4.866177753002402,1257.3445597735788,9.995849138517448,0.033166247903554,-0.21781256834723167,1.726171026885301
7709182,1975.0,1,184613.0,226399,0.35,-0.76,9.97,-0.03,-0.01,-0.0,30.51,5.7907,-5.281645907994591,1220.6577011536272,10.005048725518533,0.03162277660168379,-0.23606070481291352,1.6756672160503012
7749199,1979.0,1,184510.0,224491,0.37,-0.78,9.95,-0.03,-0.01,-0.01,30.51,5.830717,-4.271413375836203,797.5323996627369,9.987382039353456,0.033166247903554,-0.19168940730818854,1.0931850687678222
7789182,1968.0,1,183034.0,220324,0.38,-0.78,9.96,-0.03,-0.01,-0.01,30.51,5.8707,-1.2886964808257242,114.20909834552731,9.997719740020722,0.033166247903554,-0.06068291671525868,0.1525095231624029
7829183,1980.0,1,182264.0,219483,0.38,-0.79,9.96,-0.03,-0.01,-0.01,30.51,5.910701,8.402322584357881,-554.7157664238661,9.998504888232041,0.033166247903554,0.36496472021691473,-0.7683448673186799
7869182,1976.0,1,182282.0,219685,0.36,-0.76,9.93,-0.03,-0.01,-0.01,30.51,5.9507,18.341725383913886,-950.0702998843914,9.96554564487063,0.033166247903554,0.8015218341480373,-1.3125972596396518
7909183,1979.0,1,182288.0,219793,0.36,-0.78,9.96,-0.03,-0.01,-0.0,30.51,5.990701,22.139207097273562,-973.9731388716218,9.996979543842231,0.03162277660168379,0.9683143155901388,-1.3455023516546447
7949182,1975.0,1,182368.0,220263,0.35,-0.78,9.97,-0.03,-0.01,-0.0,30.51,6.0307,30.54530191472904,-713.1876574911917,10.00658783002478,0.03162277660168379,1.3375256824042154,-0.9865002153150424
7989183,1982.0,1,182686.0,221290,0.37,-0.75,9.96,-0.03,-0.01,-0.01,30.51,6.070701,41.976443438249724,-346.32536818458857,9.995048774268188,0.033166247903554,1.8396027440833462,-0.4814707753847599
8029182,1979.0,1,183043.0,221849,0.39,-0.78,9.95,-0.03,-0.01,-0.0,30.51,6.1107,49.39685845736574,-24.609635532105276,9.98814297054262,0.03162277660168379,2.1655212152676664,-0.03859092369617221
8069182,1969.0,1,183148.0,222004,0.37,-0.77,9.98,-0.03,-0.01,-0.0,30.51,6.1507,47.70781818629999,190.2659245486303,10.016496393450158,0.03162277660168379,2.0913354154847212,0.25721076245529245
8109868,1968.0,1,183159.0,222424,0.35,-0.77,9.96,-0.03,-0.01,-0.0,30.45,6.191386,54.3167410775123,310.9763397542978,9.995849138517448,0.03162277660168379,2.381611638489775,0.4233829615665541
8148182,1979.0,1,183316.0,222654,0.39,-0.78,9.96,-0.03,-0.01,-0.01,30.45,6.2297,77.84327233629818,370.7058521218571,9.998104820414717,0.033166247903554,3.4149407825309757,0.5056077174424217
8188182,1968.0,1,183338.0,222601,0.36,-0.79,9.96,-0.03,-0.01,-0.0,30.45,6.2697,71.46398394070481,385.00571762880065,9.997764750182913,0.03162277660168379,3.134750534980192,0.525293177841472
8228182,1938.0,1,183234.0,222192,0.38,-0.78,9.97,-0.03,-0.01,-0.0,30.45,6.3097,56.66520427520896,354.32034165895584,10.007682049305924,0.03162277660168379,2.4847605234314045,0.4830511194674936
8268183,1953.0,1,183187.0,221946,0.37,-0.76,9.94,-0.03,-0.01,-0.0,30.45,6.349701,75.5200643319459,288.44033613206534,9.97587590139332,0.03162277660168379,3.312901152797183,0.39235948049654695
8308182,1935.0,1,183008.0,221393,0.36,-0.76,9.96,-0.03,-0.01,-0.0,30.45,6.3897,71.88446600765428,216.2261371229805,9.995438959845636,0.03162277660168379,3.1532188918130046,0.29294807315483395
8348182,1906.0,1,182878.0,221135,0.38,-0.76,9.96,-0.03,-0.01,-0.01,30.45,6.4297,48.35755001883281,164.80992193789263,9.996179270101152,0.033166247903554,2.1198728497108883,0.22216755655461648
8388183,1881.0,1,182984.0,221395,0.38,-0.77,9.91,-0.03,-0.01,-0.01,30.45,6.469701,35.33586819491957,128.2235220526106,9.947130239420815,0.033166247903554,1.5479362907225696,0.1718020390792373
8428182,1848.0,1,182803.0,220394,0.37,-0.79,9.92,-0.03,-0.01,-0.01,30.45,6.5097,8.344281782022954,60.63980105510803,9.958282984531017,0.033166247903554,0.3624154598972993,0.07876503375420167
8468167,1818.0,1,182630.0,220617,0.36,-0.78,9.96,-0.03,-0.01,-0.01,30.45,6.549685,-10.340827201994555,-89.92624090436452,9.996979543842231,0.033166247903554,-0.458269385666617,-0.12850697555216123
8508167,1803.0,1,182577.0,220200,0.36,-0.79,9.96,-0.03,-0.01,-0.01,30.45,6.589685,-21.409310856260664,-328.34489291371733,9.997764750182913,0.033166247903554,-0.9444178371526628,-0.4567185192373877
8548183,1767.0,1,182236.0,218929,0.38,-0.75,9.97,-0.03,-0.01,-0.0,30.45,6.629701,-45.903816996677776,-583.7987197610478,10.005388548177427,0.03162277660168379,-2.0202622438514566,-0.8083810009402532
8588182,1754.0,1,181935.0,218478,0.37,-0.77,9.95,-0.03,-0.01,-0.0,30.45,6.6697,-56.96434352500885,-738.916331149732,9.986606030078486,0.03162277660168379,-2.5060612035216017,-1.0219187852435045
8628183,1745.5,1,181981.0,219100,0.36,-0.77,9.95,-0.03,-0.01,-0.0,30.45,6.709701,-55.9237685709754,-705.8345066845325,9.986240533854568,0.03162277660168379,-2.460357210241226,-0.9763777313698299
8668182,1745.5,1,182361.0,219971,0.35,-0.78,9.94,-0.03,-0.01,-0.01,30.45,6.7497,-53.9001769783853,-493.9470565472514,9.976697850491414,0.033166247903554,-2.3714772922771528,-0.6846895328544076
8708183,1745.5,1,182664.0,220913,0.38,-0.8,9.95,-0.03,-0.01,-0.01,30.45,6.789701,-48.52947648486669,-212.27189063621557,9.989339317492423,0.033166247903554,-2.135586107009596,-0.2969302688777506
8748181,1745.5,1,182948.0,221510,0.38,-0.78,9.98,-0.03,-0.01,-0.0,30.45,6.829699,-45.89720297199929,0.6039273937434237,10.017644433697974,0.03162277660168379,-2.0199717435484366,-0.003881464767712342
8788182,1745.5,1,182901.0,221107,0.36,-0.76,9.97,-0.03,-0.01,-0.01,30.45,6.8697,-44.32425563973117,67.54379895374038,10.005403540087727,0.033166247903554,-1.9508849622207591,0.08826920546565313
8828181,1745.5,1,182879.0,221423,0.36,-0.75,9.94,-0.03,-0.01,-0.01,30.45,6.909699,-42.88162683025466,18.659317280369468,9.974753129777197,0.033166247903554,-1.8875220135366502,0.020973920230839254
8868183,1745.5,1,183091.0,221851,0.34,-0.75,9.97,-0.03,-0.01,-0.01,30.45,6.949701,-43.177478029948354,-37.99644066805516,10.003949220182998,0.033166247903554,-1.9005163501679323,-0.05701944823338447
8908182,1745.5,1,183122.0,221681,0.41,-0.78,9.96,-0.03,-0.01,-0.0,30.45,6.9897,-44.804600319831565,0.6714235992105229,9.998904940042186,0.03162277660168379,-1.9719825967030002,-0.0037885482378915846
8948182,1745.5,1,183087.0,221716,0.34,-0.75,9.93,-0.03,-0.01,-0.01,30.45,7.0297,-46.02904865371253,150.36592830646984,9.964085507461284,0.033166247903554,-2.025762651860914,0.20228368670301242
8988182,1745.5,1,183223.0,222799,0.35,-0.77,9.93,-0.03,-0.01,-0.01,30.45,7.0697,-50.6195185452733,315.8862434303895,9.965957053891012,0.033166247903554,-2.2273846534903283,0.4301420261418064
9028183,1745.5,1,183776.0,224437,0.34,-0.76,9.96,-0.03,-0.01,-0.0,30.45,7.109701,-53.783658860611986,356.2682485678837,9.994738615891864,0.03162277660168379,-2.366359599168058,0.48573264429009533
9068182,1761.0,1,184109.0,223300,0.34,-0.78,10.0,-0.03,-0.01,-0.01,30.45,7.1497,-44.176930380549045,202.77288995877612,10.036134714121767,0.033166247903554,-1.9444141619871098,0.27442808328772744
9108182,1777.0,1,183021.0,220800,0.39,-0.79,9.96,-0.03,-0.01,-0.01,30.45,7.1897,-34.48986479066534,-68.5632320403018,9.998889938388162,0.033166247903554,-1.5189401690657212,-0.09909826084824556
9148868,1792.0,1,182827.0,221480,0.38,-0.77,9.96,-0.03,-0.01,-0.01,30.45,7.230386,-26.027632736855672,-288.2605807204347,9.996944533206134,0.033166247903554,-1.1472631501012007,-0.401537710724127
9189213,1806.0,1,183271.0,222923,0.34,-0.76,9.93,-0.03,-0.01,-0.01,30.45,7.270731,-20.489421244455695,-332.61652958992414,9.964843199970584,0.033166247903554,-0.9040145692538373,-0.462598933608262
9229182,1811.0,1,183639.0,223621,0.36,-0.79,9.97,-0.03,-0.01,-0.01,30.45,7.3107,-24.226917774966534,-220.40433264173478,10.00772701466222,0.033166247903554,-1.068172389556711,-0.3081255395584075
9269183,1825.0,1,183739.0,223979,0.34,-0.77,9.96,-0.03,-0.01,-0.0,30.45,7.350701,-18.412404725385375,-76.7758965281744,9.995503989294388,0.03162277660168379,-0.8127881288490767,-0.1104039672878062
9309182,1837.0,1,183985.0,224425,0.37,-0.78,9.93,-0.03,-0.01,-0.01,30.45,7.3907,-18.421552472313746,-7.960506820577715,9.967457047813149,0.033166247903554,-0.8131899149602302,-0.01567142394491062
9349183,1837.0,1,183933.0,223734,0.35,-0.78,9.97,-0.03,-0.01,-0.0,30.45,7.430701,-26.146441376687026,-11.452410313409693,10.00658783002478,0.03162277660168379,-1.1524814472122882,-0.02047844313624997
9389214,1857.0,1,183802.0,223911,0.4,-0.78,9.97,-0.03,-0.01,-0.0,30.45,7.470732,-19.11582630432052,1.270509207858309,10.008461420218394,0.03162277660168379,-0.8436837169009583,-0.0029638358642716718
9429182,1872.0,1,184186.0,225421,0.37,-0.79,9.95,-0.03,-0.01,-0.01,30.45,7.5107,-14.070369091279797,107.20416172551998,9.988168000189022,0.033166247903554,-0.6220778232866642,0.1428663973327191
9469182,1895.0,1,184740.0,226987,0.38,-0.78,9.93,-0.03,-0.01,-0.01,30.45,7.5507,-1.6454359894361572,301.92934184775106,9.96783326505816,0.033166247903554,-0.07635158146754484,0.41092869624964323
9509182,1926.0,1,185152.0,227660,0.38,-0.76,9.94,-0.03,-0.01,-0.01,30.45,7.5907,16.044512731665918,516.6571188325045,9.976251801152575,0.033166247903554,0.70062396877566,0.706526941446912
9549182,1945.0,1,185221.0,227491,0.38,-0.76,9.93,-0.03,-0.01,-0.01,30.45,7.6307,26.591979327728165,683.5300748688743,9.966288175644932,0.033166247903554,1.1638883790546704,0.9362473514837297
9589183,1981.0,1,185129.0,227158,0.39,-0.78,9.95,-0.03,-0.01,-0.01,30.45,7.670701,48.970749493494964,767.968975343083,9.98814297054262,0.033166247903554,2.1468057146245174,1.0524875098696436
9629182,1998.0,1,185142.0,227414,0.39,-0.78,9.93,-0.03,-0.01,-0.01,30.45,7.7107,56.44543952980861,744.9572017689316,9.968219499990958,0.033166247903554,2.475108045819765,1.0208090750489867
9669183,2007.0,1,185410.0,228472,0.39,-0.77,9.95,-0.03,-0.01,-0.01,30.45,7.750701,54.8915865391035,578.1362523061928,9.987367020391309,0.033166247903554,2.406859923595986,0.7911602582271686
9709182,2041.0,1,185732.0,228433,0.39,-0.79,9.93,-0.03,-0.01,-0.01,30.45,7.7907,77.30335878621318,256.9095599640944,9.96900697160956,0.033166247903554,3.3912267721471783,0.34895362851111955
9749183,2057.0,1,184998.0,224577,0.4,-0.78,9.97,-0.03,-0.01,-0.01,30.45,7.830701,85.37498595121647,-144.04390426541264,10.008461420218394,0.033166247903554,3.745747695681869,-0.20300635587610605
9789182,2055.0,1,183907.0,224107,0.37,-0.75,9.94,-0.03,-0.01,-0.01,30.45,7.8707,72.33612381940259,-474.4118078954168,9.975119046908663,0.033166247903554,3.173056545518929,-0.6577969467993457
9829183,2062.0,1,184508.0,226692,0.4,-0.8,9.92,-0.03,-0.01,-0.01,30.45,7.910701,71.33655204502328,-609.3243758264286,9.960240960940654,0.033166247903554,3.1291534883845973,-0.843520093080025
9869162,2070.0,1,185046.0,227314,0.35,-0.77,10.0,-0.03,-0.01,-0.01,30.45,7.95068,71.56953361046224,-547.6832026543202,10.035706253174213,0.033166247903554,3.1393864733896653,-0.7586637094419175
9909182,2064.0,1,185046.0,227133,0.39,-0.77,9.95,-0.03,-0.01,-0.01,30.45,7.9907,56.28037061443401,-404.4051259921346,9.987367020391309,0.033166247903554,2.467857911103533,-0.561424448498099
9949182,2054.0,1,185091.0,227264,0.37,-0.78,10.01,-0.03,-0.01,-0.0,30.45,8.0307,41.89944811171821,-307.27542065879726,10.04715880236796,0.03162277660168379,1.836220965699409,-0.42771389248046315
9989182,2061.0,1,185142.0,226851,0.37,-0.76,9.94,-0.03,-0.01,-0.0,30.45,8.0707,39.70644043577846,-303.37572911864424,9.97587590139332,0.03162277660168379,1.7398999772915522,-0.42234550469073756
10029182,2063.0,1,184987.0,226631,0.4,-0.78,9.9,-0.03,-0.01,-0.0,30.45,8.1107,38.640889241075065,-351.9119264663772,9.93873231352973,0.03162277660168379,1.6930989809252157,-0.48916133525539207
10069182,2060.0,1,185239.0,227681,0.38,-0.77,9.97,-0.03,-0.01,-0.01,30.45,8.1507,28.85473166204635,-383.7206984806395,10.006907614243273,0.033166247903554,1.2632726829743168,-0.5329498814850843
10109167,2042.0,1,185481.0,228086,0.35,-0.75,9.94,-0.03,-0.01,-0.01,30.45,8.190685,7.360023529391027,-356.64830340875733,9.974397224895347,0.033166247903554,0.319185001207057,-0.4956815197067021
10149869,2034.0,1,185572.0,228272,0.38,-0.77,9.96,-0.03,-0.01,-0.01,30.71,8.231387,-4.498428268131205,-268.4592059305804,9.996944533206134,0.033166247903554,-0.2016603248973336,-0.3742787704856223
10188182,2043.0,1,185553.0,228104,0.39,-0.78,9.95,-0.03,-0.01,-0.0,30.71,8.2697,1.320417009318277,-147.0119266357104,9.98814297054262,0.03162277660168379,0.053914215340492656,-0.20709219058592357
10228183,2045.0,1,185564.0,228010,0.39,-0.76,9.95,-0.03,-0.01,-0.0,30.71,8.309701,0.31077302459562095,-47.70346693612345,9.986601023371264,0.03162277660168379,0.009568767937140569,-0.07038232084920128
10268182,2043.0,1,185568.0,228090,0.37,-0.76,9.97,-0.03,-0.01,-0.0,30.71,8.3497,-2.2147206081657282,-47.420682018516096,10.005768336314809,0.03162277660168379,-0.10135562398095047,-0.06999303388043188
10308183,2047.0,1,185754.0,228532,0.38,-0.76,9.93,-0.03,-0.01,-0.01,30.71,8.389701,-2.6760994377862617,-200.42467080175743,9.966288175644932,0.033166247903554,-0.12162024292737818,-0.2806211660559915
10348182,2035.0,1,185942.0,228029,0.38,-0.78,9.96,-0.03,-0.01,-0.01,30.71,8.4297,-11.507661263150048,-465.395758053739,9.997719740020722,0.033166247903554,-0.5095189144810974,-0.6453852851632254
10388183,2029.0,1,185162.0,224712,0.39,-0.77,9.92,-0.03,-0.01,-0.01,30.71,8.469701,-23.634371828560365,-680.0016100051007,9.95747960078252,0.033166247903554,-1.0421466661353584,-0.9408156860954331
10428182,2006.0,1,184546.0,225316,0.38,-0.79,9.95,-0.03,-0.01,-0.01,30.71,8.5097,-40.81334257996088,-648.2488964254223,9.988543437358622,0.033166247903554,-1.7966791106674977,-0.8971043109477694
10468183,2006.0,1,185539.0,229108,0.36,-0.8,9.98,-0.03,-0.01,-0.01,30.71,8.549701,-47.53056728551511,-293.1995752839055,10.018482919085105,0.033166247903554,-2.0917121514065835,-0.40833682235515034
10508181,2003.0,1,186526.0,230784,0.39,-0.75,9.94,-0.03,-0.01,-0.01,30.71,8.589699,-43.443989800983026,265.5059784685934,9.97588091348328,0.033166247903554,-1.912222044356799,0.36078761785611085
10548167,1998.0,1,186851.625,231664,0.38,-0.78,9.99,-0.03,-0.01,-0.01,30.71,8.629685,-54.875795454685125,793.8025481888931,10.027606892973019,0.033166247903554,-2.4143282758725007,1.0880504859672329
10588182,1984.0,1,186851.625,232489,0.38,-0.78,9.95,-0.03,-0.01,-0.01,30.71,8.6697,-61.83925096723559,1111.8566197709758,9.987757506067114,0.033166247903554,-2.7201762330236683,1.525889627030877
10628183,1994.0,1,186851.625,232707,0.35,-0.75,9.97,-0.03,-0.01,-0.01,30.71,8.709701,-56.47228445152712,1196.791209105393,10.004294078044687,0.033166247903554,-2.4844490510276507,1.642812159906477
10668182,1989.0,1,186851.625,232603,0.37,-0.79,9.97,-0.03,-0.01,-0.01,30.71,8.7497,-57.03165805301323,1147.6807709139246,10.008091726198357,0.033166247903554,-2.509017783173705,1.5752058187329376
10708183,1995.0,1,186851.625,232474,0.37,-0.79,9.94,-0.03,-0.01,-0.0,30.71,8.789701,-51.0516254235374,1075.8388233822488,9.978206251626592,0.03162277660168379,-2.2463635937233564,1.4763068596875717
10748182,2001.0,1,186851.625,232151,0.34,-0.79,9.96,-0.03,-0.01,-0.0,30.71,8.8297,-46.13522305239001,1029.8399941817356,9.99706456916229,0.03162277660168379,-2.030426029530052,1.4129840172321866
10788183,1990.0,1,186851.625,231396,0.37,-0.77,9.96,-0.03,-0.01,-0.0,30.71,8.869701,-50.71875697335797,1000.0923296745812,9.996569411553146,0.03162277660168379,-2.231743390391266,1.3720328298706357
10828181,2001.0,1,186676.0,230125,0.4,-0.76,9.9,-0.03,-0.01,-0.0,30.71,8.909699,-46.752544966575655,960.4616634843642,9.937182699336871,0.03162277660168379,-2.0575399596783863,1.3174765188692013
10868167,1997.0,1,186363.0,228580,0.34,-0.78,9.98,-0.03,-0.01,-0.0,30.71,8.949685,-39.370783551230375,883.8521995282478,10.016206866873308,0.03162277660168379,-1.7333192268839364,1.212014508183274
10908182,2015.0,1,186044.0,227432,0.42,-0.79,9.91,-0.03,-0.01,-0.0,30.71,8.9897,-31.30662533507859,723.3830598857562,9.95030652794174,0.03162277660168379,-1.3791263535168932,0.9911097107103136
10948183,2017.0,1,185972.0,227434,0.38,-0.75,9.98,-0.03,-0.01,-0.01,30.71,9.029701,-17.32558596439664,409.936357372387,10.015353213941085,0.033166247903554,-0.7650530212946637,0.5596131594634709
10988182,2032.0,1,185996.0,225666,0.37,-0.75,9.95,-0.03,-0.01,-0.01,30.71,9.0697,-9.941716479414339,-95.71187695872894,9.985083875461436,0.033166247903554,-0.4407396981489356,-0.13647158958130756
11028229,2032.0,1,184583.0,221562,0.34,-0.74,9.98,-0.03,-0.01,-0.01,30.71,9.109747,-2.92455101793681,-734.3843072285281,10.013171325808823,0.033166247903554,-0.1325326998394771,-1.015679916955891
11068182,2041.0,1,183773.0,220117,0.36,-0.76,9.95,-0.03,-0.01,-0.0,30.71,9.1497,6.148343834488085,-1345.6497601249416,9.98547445042047,0.03162277660168379,0.26596576849426257,-1.857159290342797
11108183,2054.0,1,183617.0,219740,0.37,-0.75,9.96,-0.03,-0.01,-0.01,30.71,9.189701,17.082898670709923,-1755.5307568304495,9.995048774268188,0.033166247903554,0.7462318164338673,-2.4214090817168232
11148182,2067.0,1,183615.0,219637,0.38,-0.78,9.95,-0.03,-0.01,-0.0,30.71,9.2297,39.75215192372967,-1882.5307113206813,9.987757506067114,0.03162277660168379,1.741907711121835,-2.5962395774011853
11188869,2071.0,1,183575.0,219822,0.38,-0.75,9.95,-0.03,-0.01,-0.01,31.25,9.270387,34.22137675065834,-1769.6342050727628,9.985459428589152,0.033166247903554,1.4989857472926014,-2.440824150462002
11229167,2043.0,1,183787.0,220776,0.38,-0.75,9.92,-0.03,-0.01,-0.01,31.25,9.310685,20.088210674811847,-1525.4721114342938,9.955566282236285,0.033166247903554,0.8782307263715853,-2.1047060783769576
11268183,2071.0,1,184097.0,221311,0.37,-0.77,9.93,-0.03,-0.01,-0.01,31.25,9.349701,39.9083069801987,-1237.6398401543204,9.966679487171241,0.033166247903554,1.7487663325252174,-1.7084708288146915
11308181,2062.0,1,184159.0,221762,0.36,-0.74,9.96,-0.03,-0.01,-0.01,31.25,9.389699,38.8846440281706,-928.8959537017932,9.993938162706431,0.033166247903554,1.7038051459239896,-1.283448261486423
11348183,2059.0,1,184494.0,223178,0.36,-0.76,9.95,-0.03,-0.01,-0.01,31.25,9.429701,37.930320561451936,-573.9861658616046,9.98547445042047,0.033166247903554,1.6618894788774692,-0.7948728570274842
11388182,2080.0,1,185104.0,225275,0.38,-0.74,9.96,-0.03,-0.01,-0.01,31.25,9.4697,56.14818962557666,-142.83454730867157,9.994678584126655,0.033166247903554,2.462052275475736,-0.2013415326322313
11428183,2055.0,1,185774.0,226946,0.37,-0.74,9.95,-0.03,-0.01,-0.01,31.25,9.509701,43.07800221090327,368.6715370970733,9.98433773467224,0.033166247903554,1.8879852604490805,0.5028072416029721
11468181,2054.0,1,186091.0,227780,0.38,-0.76,9.95,-0.03,-0.01,-0.01,31.25,9.549699,33.880661115306886,924.4055887802061,9.986215499377128,0.033166247903554,1.4840208809480278,1.2678410568860619
11508183,2047.0,1,186309.0,228570,0.37,-0.75,9.94,-0.03,-0.01,-0.01,31.25,9.589701,40.30111497234574,1433.829779820104,9.975119046908663,0.033166247903554,1.7660191923638837,1.9691238580539994
11548182,2045.0,1,186701.0,230209,0.38,-0.75,9.91,-0.03,-0.01,-0.01,31.25,9.6297,33.65312944028722,1747.0460021545834,9.945602043114334,0.033166247903554,1.4740272652975044,2.4003031260066674
11588183,2034.0,1,186851.625,230753,0.37,-0.76,10.0,-0.03,-0.01,-0.01,31.25,9.669701,30.261147474276687,1698.2344241542396,10.035661413180499,0.033166247903554,1.325045089260316,2.3331082013219313
11628182,2031.0,1,186804.0,229086,0.35,-0.77,9.96,-0.03,-0.01,-0.01,31.25,9.7097,30.36286748068843,1206.591305558978,9.995849138517448,0.033166247903554,1.329512821711017,1.6563031546679488
11668183,2018.0,1,185393.0,224653,0.38,-0.76,9.97,-0.03,-0.01,-0.01,31.25,9.749701,18.27973187436356,368.18195911411357,10.006143113108067,0.033166247903554,0.7987989635533412,0.5021332794603826
11708182,1995.0,1,184005.0,223443,0.39,-0.76,9.93,-0.03,-0.01,-0.01,31.25,9.7897,3.9428471965905345,-552.8030202534708,9.966674470454024,0.033166247903554,0.16909624157778033,-0.7657117454216615
11748183,1992.0,1,184043.0,223472,0.34,-0.78,9.98,-0.03,-0.01,-0.01,31.25,9.829701,-0.7976828727754537,-1247.5996798551316,10.016206866873308,0.033166247903554,-0.03911668301348045,-1.7221817290966561
11788182,1977.0,1,183842.0,222568,0.37,-0.74,9.99,-0.03,-0.01,-0.0,31.25,9.8697,-6.585391454037595,-1514.5332641900093,10.02420071626661,0.03162277660168379,-0.2933236414660607,-2.0896474581309095
11828183,1975.0,1,183686.0,222611,0.41,-0.79,9.94,-0.03,-0.01,-0.0,31.25,9.909701,-8.511812254508774,-1338.2478916846326,9.97976953641716,0.03162277660168379,-0.37793563695819915,-1.846969740798437
11868182,1974.0,1,184046.0,224683,0.37,-0.76,9.94,-0.03,-0.01,-0.0,31.25,9.9497,-3.238297109625567,-866.0087640078957,9.97587590139332,0.03162277660168379,-0.14631301351193754,-1.1968765883664438
11908183,1968.0,1,184956.0,226806,0.35,-0.77,9.97,-0.03,-0.01,-0.0,31.25,9.989701,-5.700813729747112,-315.41497667901825,10.005813310271185,0.03162277660168379,-0.2544713375448167,-0.4389189564458626
11948182,1966.0,1,185352.0,227347,0.38,-0.77,9.96,-0.03,-0.01,-0.0,31.25,10.0297,-4.7802250907555734,133.57390449529976,9.996944533206134,0.03162277660168379,-0.21403736706785015,0.17916747490408397
11988183,1963.0,1,185478.0,228081,0.39,-0.76,9.95,-0.03,-0.01,-0.01,31.25,10.069701,-1.6716204749807089,412.95150325156504,9.986601023371264,0.033166247903554,-0.07750165292250301,0.5637638652706757
12028182,1954.0,1,185704.0,228767,0.4,-0.78,9.94,-0.03,-0.01,-0.01,31.25,10.1097,-9.981924893856421,572.3713087826378,9.978577052866806,0.033166247903554,-0.44250572672415,0.7832241299201858
12068183,1949.0,1,185935.0,229408,0.38,-0.78,9.98,-0.03,-0.01,-0.01,31.25,10.149701,-7.787908043415844,715.9880195086266,10.017644433697974,0.033166247903554,-0.3461404134894982,0.9809295608045208
12108182,1958.0,1,186153.0,229796,0.39,-0.79,9.99,-0.03,-0.01,-0.01,31.25,10.1897,0.7258133632526196,910.5420447215303,10.028773603985684,0.033166247903554,0.027798113911245658,1.2487562446949936
12148183,1936.0,1,186261.0,230017,0.4,-0.78,9.96,-0.03,-0.01,-0.01,31.25,10.229701,-14.00506142653127,1121.3637912545112,9.998499887483122,0.033166247903554,-0.6192093888127669,1.5389773758390908
12188868,1924.0,1,186275.0,230038,0.4,-0.79,9.94,-0.03,-0.01,-0.01,32.28,10.270386,-27.363484895549355,1218.1348675370148,9.979363707170913,0.033166247903554,-1.2059362690801423,1.6721942364457658
12229183,1923.0,1,186338.0,230096,0.38,-0.77,9.97,-0.03,-0.01,-0.0,32.28,10.310701,-21.03784203875322,1055.7334310586339,10.006907614243273,0.03162277660168379,-0.9281022336745844,1.4486294032666205
12268182,1927.0,1,186161.0,228660,0.39,-0.78,9.95,-0.03,-0.01,-0.0,32.28,10.3497,-19.878123284456514,587.1646623690169,9.98814297054262,0.03162277660168379,-0.8771652224116762,0.8035889351732429
12308183,1915.0,1,185103.0,225244,0.41,-0.78,9.91,-0.03,-0.01,-0.01,32.28,10.389701,-24.071364927828224,-70.70788953085638,9.94910046185081,0.033166247903554,-1.0613402183106175,-0.10205063617508614
12348182,1918.0,1,184337.0,224476,0.39,-0.79,9.94,-0.03,-0.01,-0.01,32.28,10.4297,-25.44308119008275,-680.2831382172919,9.978967882501676,0.033166247903554,-1.1215885556261123,-0.9412032430601902
12388183,1908.0,1,184286.0,224740,0.39,-0.78,9.96,-0.03,-0.01,-0.01,32.28,10.469701,-28.285561622509842,-1016.7100074610565,9.998104820414717,0.033166247903554,-1.2464355991568858,-1.40433471855965
12428181,1905.0,1,184385.0,225278,0.39,-0.78,9.95,-0.03,-0.01,-0.0,32.28,10.509699,-35.00038693807994,-995.7371144776861,9.98814297054262,0.03162277660168379,-1.5413632542115605,-1.3754630446213751
12468200,1903.0,1,184586.0,226397,0.39,-0.78,9.94,-0.03,-0.01,-0.01,32.28,10.549718,-33.58397378329712,-703.7272304110128,9.978181196991763,0.033166247903554,-1.479151745989589,-0.9734768157205123
12508182,1921.0,1,185080.0,227808,0.4,-0.78,9.96,-0.03,-0.01,-0.01,32.28,10.5897,-15.595315861667313,-319.19963688480146,9.998499887483122,0.033166247903554,-0.6890563303865775,-0.4441289899646136
12548183,1931.0,1,185359.0,228367,0.37,-0.78,9.95,-0.03,-0.01,-0.0,32.28,10.629701,-7.932941640217895,4.94095262000614,9.987382039353456,0.03162277660168379,-0.35251055963608374,0.0020889646954053947
12588182,1927.0,1,185476.0,228677,0.41,-0.79,9.96,-0.03,-0.01,-0.01,32.28,10.6697,-8.202618495509869,215.05692380705585,9.999689995194851,0.033166247903554,-0.3643552702303202,0.2913385123923568
12628183,1936.0,1,185593.0,229537,0.39,-0.77,9.93,-0.03,-0.01,-0.01,32.28,10.709701,-4.878310047274476,350.5342972213568,9.967441998827985,0.033166247903554,-0.21834544134569955,0.47783918038952033
12668193,1925.0,1,185881.0,230610,0.38,-0.78,9.98,-0.03,-0.01,-0.01,32.28,10.749711,-12.756924273422596,482.6852851295178,10.017644433697974,0.033166247903554,-0.5643888765204518,0.6597606843294208
12708167,1926.0,1,186148.0,231266,0.39,-0.77,9.97,-0.03,-0.01,-0.01,32.28,10.789685,-15.494876435700146,650.2371992099825,10.007292341088073,0.033166247903554,-0.6846448434180562,0.8904157606176907
12748181,1939.0,1,186227.0,231373,0.37,-0.79,9.96,-0.03,-0.01,-0.01,32.28,10.829699,-4.272856003988917,825.6152878511549,9.998129825122296,0.033166247903554,-0.1917527702280264,1.1318444941348387
12788183,1953.0,1,186144.0,231199,0.37,-0.78,9.96,-0.03,-0.01,-0.0,32.28,10.869701,9.969039936028047,917.837621087243,9.997344647455144,0.03162277660168379,0.4337778691740625,1.258799470595667
12828182,1957.0,1,185996.0,230963,0.39,-0.78,9.93,-0.03,-0.01,-0.01,32.28,10.9097,8.719786309851347,809.3302009111934,9.968219499990958,0.033166247903554,0.3789083193017049,1.10942614104641
12868196,1951.0,1,185948.0,230710,0.38,-0.79,9.94,-0.03,-0.01,-0.0,32.28,10.949714,2.6291117727825792,423.57552433142143,9.978582063600017,0.03162277660168379,0.11139453085605562,0.578389089972589
12908183,1968.0,1,185586.0,228763,0.38,-0.78,9.94,-0.03,-0.01,-0.0,32.28,10.989701,17.211180261451023,-202.37214697805572,9.977795347670746,0.03162277660168379,0.7518661832216716,-0.28330209792405686
12948183,1971.0,1,184303.0,224935,0.39,-0.77,9.96,-0.03,-0.01,-0.01,32.28,11.029701,14.019003267299933,-897.974960342501,9.997329643459798,0.033166247903554,0.6116598143052036,-1.2408818478388204
12988182,1965.0,1,183553.0,224691,0.38,-0.78,9.95,-0.03,-0.01,-0.01,32.28,11.0697,12.038010044714714,-1431.7840997644475,9.987757506067114,0.033166247903554,0.5246508962233697,-1.975733421767216
13028183,1993.0,1,183894.0,225637,0.39,-0.76,9.97,-0.03,-0.01,-0.0,32.28,11.109701,28.056269393437898,-1638.0846901798532,10.00652786934609,0.03162277660168379,1.228202730523836,-2.2597306454439847
13068182,1969.0,1,184109.0,225804,0.4,-0.77,9.97,-0.03,-0.01,-0.0,32.28,11.1497,10.951639825240173,-1501.2222514192558,10.0076870454666,0.03162277660168379,0.4769354894490602,-2.0713232707710576
13108182,1981.0,1,184221.0,226630,0.41,-0.79,9.95,-0.03,-0.01,-0.01,32.28,11.1897,10.892687668583006,-1138.3602325798984,9.989729726073673,0.033166247903554,0.47434620074738715,-1.5718006774492426
13148182,1995.0,1,184613.0,227826,0.39,-0.77,9.95,-0.03,-0.01,-0.01,32.28,11.2297,29.554455655508615,-712.3346188010796,9.987367020391309,0.033166247903554,1.2940058661740048,-0.9853259064136821
13188183,1984.0,1,184978.0,228618,0.38,-0.77,9.96,-0.03,-0.01,-0.0,32.28,11.269701,9.555194357627487,-349.527583908889,9.996944533206134,0.03162277660168379,0.41560099929936795,-0.4858790050145647
13228868,1973.0,1,185267.0,229311,0.38,-0.78,9.96,-0.03,-0.01,-0.01,32.28,11.310386,0.868612458983175,-105.42590511472858,9.997719740020722,0.033166247903554,0.034070116602080376,-0.14984410112607263
13269167,1991.0,1,185364.0,229622,0.4,-0.78,9.97,-0.03,-0.01,-0.01,32.28,11.350685,11.228782917988255,29.396578123590054,10.008461420218394,0.033166247903554,0.48910813112140017,0.035755032893812114
13308182,1989.0,1,185512.0,230010,0.36,-0.79,9.94,-0.03,-0.01,-0.0,32.28,11.3897,11.57767175132657,106.72290038943697,9.977840447712119,0.03162277660168379,0.5044319795694956,0.14220388404065662
13348183,2001.0,1,185586.0,230180,0.37,-0.77,9.95,-0.03,-0.01,-0.01,32.28,11.429701,16.02795664024837,192.57326945774136,9.986606030078486,0.033166247903554,0.6998967943535159,0.26038709630355145
13388182,2002.0,1,185627.0,230389,0.38,-0.77,9.93,-0.03,-0.01,-0.0,32.28,11.4697,19.228473452328064,332.8026910321812,9.967055733766117,0.03162277660168379,0.8404694636321935,0.4534295220413994
13428183,2005.0,1,185748.0,230617,0.38,-0.77,9.98,-0.03,-0.01,-0.0,32.28,11.509701,16.503145620718996,519.0746026917654,10.016870768857908,0.03162277660168379,0.7207679808895315,0.709854894619179
13468182,2000.0,1,185856.0,231080,0.37,-0.79,9.96,-0.03,-0.01,-0.0,32.28,11.5497,11.335421812479952,678.753848333415,9.998129825122296,0.03162277660168379,0.49379191031326275,0.9296723093425975
13508183,1997.0,1,186020.0,231533,0.39,-0.78,9.96,-0.03,-0.01,-0.01,32.28,11.589701,6.399298236865385,711.2281835454967,9.998104820414717,0.033166247903554,0.2769881540278318,0.9743770822296227
13548182,1999.0,1,186054.0,230835,0.36,-0.8,9.95,-0.03,-0.01,-0.01,32.28,11.6297,5.081914030001963,559.6639217154585,9.988598500290218,0.033166247903554,0.21912618194713224,0.7657309049129367
13588183,1993.0,1,185360.0,228797,0.4,-0.78,9.93,-0.03,-0.01,-0.01,32.28,11.669701,0.34327528998448603,266.53873983180483,9.968615751447139,0.033166247903554,0.0109963280693268,0.36220933632663044
13628182,1987.0,1,184931.0,228508,0.39,-0.77,9.94,-0.03,-0.01,-0.0,32.28,11.7097,-10.18850004811916,-38.25511081118218,9.97740447210596,0.03162277660168379,-0.4515788928864919,-0.057375538355803536
13668183,1983.0,1,184970.0,228730,0.4,-0.79,9.95,-0.03,-0.01,-0.01,32.28,11.749701,-12.428732342949255,-214.10544161271625,9.989324301473047,0.033166247903554,-0.5499740746583796,-0.29945436920023394
13708182,1995.0,1,185014.0,228710,0.38,-0.78,9.92,-0.03,-0.01,-0.01,32.28,11.7897,-3.4577860302680534,-192.7731314608219,9.9578712584568,0.033166247903554,-0.15595337638563267,-0.2700879149135508
13748183,1994.0,1,185037.0,229076,0.39,-0.79,9.94,-0.03,-0.01,-0.01,32.28,11.829701,-4.102780891162437,-9.269319950629798,9.978967882501676,0.033166247903554,-0.18428275398013325,-0.01747316040382255
13788182,1989.0,1,185212.0,229535,0.4,-0.78,9.96,-0.03,-0.01,-0.01,32.28,11.8697,-10.256093575373466,230.4360580392102,9.998499887483122,0.033166247903554,-0.45454772670615384,0.3125097141600762
13828183,1984.0,1,185354.0,229794,0.39,-0.79,9.94,-0.03,-0.01,-0.01,32.28,11.909701,-14.9730953796813,414.20822800180713,9.978967882501676,0.033166247903554,-0.6617272460016707,0.5654938958986829
13868182,1987.0,1,185420.0,229863,0.37,-0.77,9.98,-0.03,-0.01,-0.01,32.28,11.9497,-13.989002939175034,482.8584246673309,10.016496393450158,0.033166247903554,-0.618504070089327,0.6599990314322991
13908183,1999.0,1,185346.0,229711,0.39,-0.79,9.97,-0.03,-0.01,-0.0,32.28,11.989701,1.1984191760062943,457.3328489778292,10.00885108291656,0.03162277660168379,0.04855584290196864,0.6248600499394552
13948182,1994.0,1,185267.0,229592,0.41,-0.79,9.94,-0.03,-0.01,-0.0,32.28,12.0297,-8.60945682603965,421.5271703896142,9.97976953641716,0.03162277660168379,-0.3822243687057912,0.5755692878992684
13988183,1973.0,1,185256.0,229641,0.38,-0.79,9.94,-0.03,-0.01,-0.0,32.28,12.069701,-24.026447719004203,464.7169186200995,9.978582063600017,0.03162277660168379,-1.0593673707014097,0.635025097327919
14028182,1998.0,1,185273.0,229749,0.39,-0.79,9.96,-0.03,-0.01,-0.01,32.28,12.1097,-3.3999943772941923,610.2928055552369,9.998889938388162,0.033166247903554,-0.15341505917076895,0.8354275665628056
14068183,2000.0,1,185321.0,229798,0.4,-0.8,10.0,-0.03,-0.01,-0.0,32.28,12.149701,1.151355349446122,776.150743929264,10.039920318408907,0.03162277660168379,0.046488711837053796,1.0637506844372122
14108181,1984.0,1,185354.0,229834,0.4,-0.78,9.94,-0.03,-0.01,-0.01,32.28,12.189699,-12.996472884107513,806.1756180523493,9.978577052866806,0.033166247903554,-0.5749102984042181,1.1050834837037136
14148183,1991.0,1,185253.0,229461,0.36,-0.77,9.99,-0.03,-0.01,-0.0,32.28,12.229701,-10.851219665575234,570.2434334119635,10.026095950069498,0.03162277660168379,-0.48068677485653194,0.7802948571712088
14188182,1993.0,1,184755.0,226814,0.38,-0.79,9.95,-0.03,-0.01,-0.01,32.28,12.2697,0.5276380507982878,71.3394284947228,9.988543437358622,0.033166247903554,0.019093884471894817,0.09349433957493507
14228183,2009.0,1,183700.0,224071,0.38,-0.77,9.96,-0.03,-0.01,-0.0,32.28,12.309701,6.259086953678544,-526.4752980359556,9.996944533206134,0.03162277660168379,0.27082981289174657,-0.7294685141228472
14268868,1990.0,1,183223.0,223585,0.38,-0.79,9.97,-0.03,-0.01,-0.01,32.17,12.350386,-0.5561199636559564,-986.7337783360507,10.008466415990014,0.033166247903554,-0.028506789384587117,-1.363068884900821
14308183,2009.0,1,183175.0,223487,0.39,-0.76,9.96,-0.03,-0.01,-0.0,32.17,12.389701,8.491523209535998,-1148.5644481066554,9.996564409836012,0.03162277660168379,0.3688825780876462,-1.5858479900311555
14348182,2011.0,1,183191.0,223905,0.41,-0.78,9.94,-0.03,-0.01,-0.0,32.17,12.4297,20.28303505979052,-1021.9905017788946,9.978982914105023,0.03162277660168379,0.8867877768247066,-1.411603945094035
14388183,2002.0,1,183530.0,224892,0.38,-0.78,9.93,-0.03,-0.01,-0.01,32.17,12.469701,4.895106097085266,-759.8907082704626,9.96783326505816,0.033166247903554,0.21092122902408592,-1.0507925022728293
14428182,1989.0,1,183663.0,224986,0.38,-0.79,9.93,-0.03,-0.01,-0.01,32.17,12.5097,-1.7434630279213128,-535.877920258846,9.968620767187405,0.033166247903554,-0.08065711187730007,-0.7424123384774233
14468183,1999.0,1,183564.0,224444,0.37,-0.81,9.96,-0.03,-0.01,-0.01,32.17,12.549701,4.536362029121358,-426.02171365100463,9.999729996354903,0.033166247903554,0.1951645202852842,-0.5911822444797928
14508182,1993.0,1,183494.0,224461,0.38,-0.79,9.96,-0.03,-0.01,-0.0,32.17,12.5897,3.264397628632577,-377.15778972692857,9.998504888232041,0.03162277660168379,0.13929747083586277,-0.5239152594244065
14548183,1994.0,1,183707.0,225350,0.37,-0.78,9.96,-0.03,-0.01,-0.01,32.17,12.629701,1.290752916983654,-269.93251719902423,9.997344647455144,0.033166247903554,0.05261131306375146,-0.3763069581365021
14588182,1984.0,1,183994.0,226246,0.4,-0.8,9.94,-0.03,-0.01,-0.0,32.17,12.6697,-4.231093483487763,-19.398177228378632,9.980160319353592,0.03162277660168379,-0.18991848241535345,-0.03141673342078128
14628182,1985.0,1,184231.0,226822,0.38,-0.8,9.98,-0.03,-0.01,-0.01,32.17,12.7097,-6.242161940545043,354.1651575804809,10.019221526645671,0.033166247903554,-0.2782483609036325,0.4828374901833652
14668182,1985.0,1,184390.0,227186,0.36,-0.78,9.96,-0.03,-0.01,-0.01,32.17,12.7497,-1.831865249725146,719.3845154686782,9.996979543842231,0.033166247903554,-0.08453990238232964,0.9856052402145588
14708183,1979.0,1,184536.0,227571,0.39,-0.79,9.93,-0.03,-0.01,-0.01,32.17,12.789701,-10.651385242698964,893.0188504165083,9.96900697160956,0.033166247903554,-0.471909674192209,1.224633490016715
14748182,1969.0,1,184575.0,227443,0.39,-0.78,9.93,-0.03,-0.01,-0.0,32.17,12.8297,-16.9168444815062,739.412442601394,9.968219499990958,0.03162277660168379,-0.7471003328169867,1.0131760566152237
14788183,1984.0,1,184300.0,224669,0.38,-0.78,9.95,-0.03,-0.01,-0.0,32.17,12.869701,-3.717681047425663,260.4033180123791,9.987757506067114,0.03162277660168379,-0.16736845039998632,0.3537632007179334
14828182,1987.0,1,182894.0,221540,0.39,-0.78,9.96,-0.03,-0.01,-0.01,32.17,12.9097,1.503728626680185,-385.69922193063314,9.998104820414717,0.033166247903554,0.06196560356163766,-0.5356735536066529
14868183,1984.0,1,182444.0,221158,0.39,-0.78,9.95,-0.03,-0.01,-0.0,32.17,12.949701,-1.8057782325802567,-961.2629520566035,9.98814297054262,0.03162277660168379,-0.08339411192132193,-1.3280052724625304
14908182,1985.0,1,182464.0,221200,0.38,-0.79,9.96,-0.03,-0.01,-0.01,32.17,12.9897,0.11182951614046673,-1274.2417100425496,9.998504888232041,0.033166247903554,0.0008307978962852297,-1.758857642583399
14948183,1982.0,1,182424.0,221056,0.38,-0.79,9.96,-0.03,-0.01,-0.0,32.17,13.029701,-2.711114380873607,-1263.9966046470192,9.998504888232041,0.03162277660168379,-0.12315816455173945,-1.744754040248826
14988182,1985.0,1,182396.0,221498,0.39,-0.8,9.95,-0.03,-0.01,-0.0,32.17,13.0697,1.5609602020506783,-1001.3343912978465,9.989724720932003,0.03162277660168379,0.06447932112327931,-1.3831683598309683
15028182,1991.0,1,182754.0,222745,0.38,-0.77,9.93,-0.03,-0.01,-0.0,32.17,13.1097,6.227469729330659,-624.9880922351183,9.967055733766117,0.03162277660168379,0.26944112541321497,-0.8650830559565282
15068182,1973.0,1,183173.0,223943,0.38,-0.78,9.97,-0.03,-0.01,-0.01,32.17,13.1497,-8.0163440458963,-264.07645940263717,10.007682049305924,0.033166247903554,-0.35617374888921505,-0.36824540022958674
15108183,1983.0,1,183473.0,224703,0.4,-0.75,9.97,-0.03,-0.01,-0.0,32.17,13.189701,-3.0200889249459886,18.793333127649564,10.006168097728521,0.03162277660168379,-0.13672890295107754,0.021158408934820176
15148182,1994.0,1,183697.0,225241,0.37,-0.77,9.93,-0.03,-0.01,-0.01,32.17,13.2297,16.415375477571537,245.285325044856,9.966679487171241,0.033166247903554,0.7169129524582974,0.3329514908643834
15188183,1995.0,1,183830.0,225826,0.39,-0.79,9.92,-0.03,-0.01,-0.0,32.17,13.269701,6.792771987552061,489.3565623943108,9.959046139063721,0.03162277660168379,0.29427025522360006,0.6689444884948096
15228182,1973.0,1,184090.0,226959,0.38,-0.79,9.98,-0.03,-0.01,-0.01,32.17,13.3097,-0.9480562683893551,804.777057355907,10.018428020403201,0.033166247903554,-0.04572136308582446,1.1031581990783363
15268183,1995.0,1,184446.0,227647,0.38,-0.77,9.96,-0.03,-0.01,-0.01,32.17,13.349701,5.309601837124207,1154.27141879325,9.996944533206134,0.033166247903554,0.22912665521088135,1.5842786269890394
15308868,1977.0,1,184559.0,227829,0.38,-0.78,9.96,-0.03,-0.01,-0.0,32.25,13.390386,4.718575160407698,1397.9845726458727,9.997719740020722,0.03162277660168379,0.20316766094865188,1.9197786802282741
15349183,1990.0,1,184634.0,227827,0.36,-0.77,9.93,-0.03,-0.01,-0.01,32.25,13.430701,1.666595275812089,1369.3253168010817,9.966313260178008,0.033166247903554,0.06911901063593721,1.8803258164426013
15389181,1969.0,1,184559.0,227122,0.34,-0.76,9.94,-0.03,-0.01,-0.01,32.25,13.470699,-4.805980864888398,999.8913955674731,9.974808268834042,0.033166247903554,-0.2151686087178002,1.3717562202475329
15429183,1984.0,1,183691.0,223035,0.39,-0.78,9.97,-0.03,-0.01,-0.01,32.25,13.510701,-0.30579695881914215,400.7007921058548,10.008066746380141,0.033166247903554,-0.01751213600893283,0.5468993088171914
15469182,1984.0,1,182586.0,221854,0.38,-0.78,9.95,-0.03,-0.01,-0.01,32.25,13.5507,7.125446820270492,-178.1420947129911,9.987757506067114,0.033166247903554,0.3088819545155902,-0.24994655803459132
15509183,1984.0,1,182706.0,222702,0.37,-0.79,9.96,-0.03,-0.01,-0.01,32.25,13.590701,3.8674529896216603,-495.3100070813153,9.998129825122296,0.033166247903554,0.16578478735208704,-0.6865657958689899
15549182,1986.0,1,182883.0,222848,0.4,-0.79,9.95,-0.03,-0.01,-0.01,32.25,13.6307,7.082080838476091,-466.3455947409119,9.989324301473047,0.033166247903554,0.30697723969149643,-0.6466928479848357
15589182,1983.0,1,182896.0,223129,0.38,-0.75,9.94,-0.03,-0.01,-0.01,32.25,13.6707,5.46349738354361,-203.08816818958923,9.975494975187948,0.033166247903554,0.23588603471753627,-0.28428778602005184
15629182,1984.0,1,183184.0,224060,0.37,-0.78,9.95,-0.03,-0.01,-0.01,32.25,13.7107,4.523491317869646,74.20855873123206,9.987382039353456,0.033166247903554,0.19459921463547802,0.09744403753699603
15669183,1984.0,1,183336.0,223988,0.37,-0.79,9.94,-0.03,-0.01,-0.01,32.25,13.750701,8.156710089567154,179.6924076539317,9.978206251626592,0.033166247903554,0.35417696123042386,0.24265506275250784
15709182,1985.0,1,183078.0,223168,0.37,-0.78,9.95,-0.03,-0.01,-0.01,32.25,13.7907,5.316688482124568,66.34531733527481,9.987382039353456,0.033166247903554,0.22943791388015977,0.08661935341439869
15749183,1988.0,1,182851.0,222500,0.41,-0.78,9.93,-0.03,-0.01,-0.0,32.25,13.830701,13.70483118491634,-160.18504702877567,9.96902201823228,0.03162277660168379,0.5978607903266966,-0.22522655273804948
15789182,1984.0,1,182779.0,222545,0.4,-0.77,9.98,-0.03,-0.01,-0.01,32.25,13.8707,4.640232252240039,-313.15633870171314,10.017649424890053,0.033166247903554,0.19972669426520365,-0.43580967346439387
15829183,1954.0,1,182913.0,223054,0.39,-0.78,9.96,-0.03,-0.01,-0.01,32.25,13.910701,-19.989991520647806,-237.4494519917479,9.998104820414717,0.033166247903554,-0.8820786840468579,-0.3315901673759797
15869182,1964.0,1,183071.0,223710,0.39,-0.78,9.96,-0.03,-0.01,-0.01,32.25,13.9507,-13.142962306754004,91.93195373208263,9.998104820414717,0.033166247903554,-0.5813443871378838,0.1218423922107906
15909183,1970.0,1,183367.0,224651,0.37,-0.78,9.94,-0.03,-0.01,-0.01,32.25,13.990701,-5.6676051700773495,533.9630167029566,9.977419506064681,0.033166247903554,-0.2530127556501491,0.7303505618182625
15949193,1966.0,1,183727.0,225599,0.37,-0.79,9.96,-0.03,-0.01,-0.01,32.25,14.030711,-7.610724476635074,838.4069287897045,9.998129825122296,0.033166247903554,-0.3383581806823832,1.1494537045859732
15989183,1977.0,1,183965.0,226030,0.37,-0.77,9.93,-0.03,-0.01,-0.0,32.25,14.070701,-0.4113776160378875,785.0299852091948,9.966679487171241,0.03162277660168379,-0.022149435445517247,1.075974012866757
16029181,1969.0,1,183646.0,222815,0.4,-0.8,9.95,-0.03,-0.01,-0.0,32.25,14.110699,-2.438091540886943,332.9217234195793,9.990120119397963,0.03162277660168379,-0.11116649206743473,0.45359338423627055
16069182,1968.0,1,182303.0,220505,0.39,-0.78,9.96,-0.03,-0.01,-0.0,32.25,14.1507,-8.756849445602981,-327.92803589708194,9.998104820414717,0.03162277660168379,-0.3886981275330509,-0.4561446661274366
16109182,1968.0,1,182016.0,220242,0.38,-0.82,9.93,-0.03,-0.01,-0.0,32.25,14.1907,-4.046659759269891,-880.3256662013546,9.971043074824218,0.03162277660168379,-0.18181780916768917,-1.2165855017845149
16149200,1976.0,1,181902.0,220079,0.42,-0.79,9.98,-0.03,-0.01,-0.0,32.25,14.230718,2.1986795312813463,-1078.1154500318464,10.020024950068738,0.03162277660168379,0.09248914379385947,-1.4888665910745689
16189182,1967.0,1,181999.0,220930,0.4,-0.75,9.99,-0.03,-0.01,-0.01,32.25,14.2707,-6.861104528275919,-896.7307116937857,10.026095950069498,0.033166247903554,-0.30543347405760607,-1.2391689920438504
16229183,1958.0,1,182522.0,222568,0.35,-0.76,9.96,-0.03,-0.01,-0.01,32.25,14.310701,-13.15529916743067,-529.1967163141418,9.995083791544722,0.033166247903554,-0.5818862450744811,-0.7332148690601348
16269182,1968.0,1,182909.0,222647,0.36,-0.76,9.94,-0.03,-0.01,-0.0,32.25,14.3507,-5.984115048026316,-239.92262794220352,9.975510012024447,0.03162277660168379,-0.2669144599712845,-0.33499478731516286
16309869,1968.0,1,182677.0,221889,0.4,-0.81,9.95,-0.03,-0.01,-0.0,32.11,14.391387,-3.141039378037155,-188.42700133653796,9.99092588302005,0.03162277660168379,-0.14204127249630816,-0.2641049514787431
16348182,1978.0,1,182451.0,221656,0.39,-0.79,9.9,-0.03,-0.01,-0.0,32.11,14.4297,6.61473568336412,-342.2803736515799,9.939124709953086,0.03162277660168379,0.2864505685986931,-0.47590236079685677
16388182,1984.0,1,182540.0,221905,0.39,-0.78,9.98,-0.03,-0.01,-0.0,32.11,14.4697,10.839094097319734,-521.7736165526824,10.018028748211895,0.03162277660168379,0.47199227111320413,-0.7229960920848231
16428182,1969.0,1,182614.0,222055,0.38,-0.79,9.96,-0.03,-0.01,-0.01,32.11,14.5097,0.9639899701694581,-529.5869320709451,9.998504888232041,0.033166247903554,0.0382592748299044,-0.7337520473170845
16468183,1977.0,1,182663.0,222446,0.4,-0.74,9.95,-0.03,-0.01,-0.0,32.11,14.549701,2.4315528326565152,-280.6215074972249,9.985494479493742,0.03162277660168379,0.10271737363926806,-0.39102162067083784
16508182,1968.0,1,182975.0,223793,0.4,-0.76,9.97,-0.03,-0.01,-0.01,32.11,14.5897,1.666012082388608,137.74207182945045,10.006922603877777,0.033166247903554,0.06909339569277083,0.18490545145730378
16548183,1970.0,1,183496.0,225328,0.39,-0.78,9.96,-0.03,-0.01,-0.0,32.11,14.629701,-3.882487572911617,507.7752714064548,9.998104820414717,0.03162277660168379,-0.17460706046279392,0.694300025348225
16588182,1968.0,1,183848.0,225897,0.38,-0.77,9.96,-0.03,-0.01,-0.01,32.11,14.6697,1.4164328213433668,610.2476587748939,9.996944533206134,0.033166247903554,0.0581314089319727,0.8353654166666297
16628183,1981.0,1,183734.0,223638,0.36,-0.78,9.97,-0.03,-0.01,-0.01,32.11,14.709701,9.286392726251082,367.14012690248103,10.00694259002219,0.033166247903554,0.4037947301723231,0.5006990738914848
16668182,1979.0,1,182567.0,221408,0.38,-0.76,9.92,-0.03,-0.01,-0.01,32.11,14.7497,11.266895124621767,-100.28788803802512,9.956324623072511,0.033166247903554,0.4907820903389717,-0.14277101140757298
16708183,1975.0,1,182407.0,221760,0.38,-0.79,9.97,-0.03,-0.01,-0.01,32.11,14.789701,5.957759647943596,-544.4318631479009,10.008466415990014,0.033166247903554,0.2575949554668954,-0.7541878551014409
16748181,1973.0,1,182593.0,222231,0.36,-0.77,9.96,-0.03,-0.01,-0.01,32.11,14.829699,3.8684461004912176,-740.9658775910149,9.996204279625342,0.033166247903554,0.16582840663422813,-1.0247402289337475
16788183,1965.0,1,182609.0,222252,0.36,-0.78,9.95,-0.03,-0.01,-0.0,32.11,14.869701,-1.19292676791446,-607.7372002842596,9.987016571529256,0.03162277660168379,-0.056476532255980975,-0.8413351577555257
16828182,1957.0,1,182759.0,223347,0.39,-0.77,9.95,-0.03,-0.01,-0.01,32.11,14.9097,-13.51489285398992,-226.13163065951355,9.987367020391309,0.033166247903554,-0.5976802706470408,-0.3160098443630784
16868183,1954.0,1,183379.0,225109,0.38,-0.8,9.97,-0.03,-0.01,-0.01,32.11,14.949701,-9.719546730843225,224.86579407087092,10.0092607119607,0.033166247903554,-0.43098158831125594,0.3048415853439167
16908182,1971.0,1,183801.0,225924,0.36,-0.79,9.98,-0.03,-0.01,-0.01,32.11,14.9897,0.17594836138589778,569.9674959298181,10.017689354337158,0.033166247903554,0.003647017199741979,0.7799149965092503
16948184,1968.0,1,183908.0,226100,0.39,-0.8,9.97,-0.03,-0.01,-0.01,32.11,15.029702,4.884067313107984,721.6115968868005,10.00964534836275,0.033166247903554,0.21043638503782078,0.9886710818506651
16988182,1974.0,1,183885.0,226102,0.39,-0.79,9.97,-0.03,-0.01,-0.01,32.11,15.0697,5.394476884511653,709.0796184621452,10.00885108291656,0.033166247903554,0.23285452563523784,0.9714193276379757
17028183,1959.0,1,183872.0,226035,0.38,-0.78,9.97,-0.03,-0.01,-0.0,32.11,15.109701,-6.179329297971273,640.1063056811639,10.007682049305924,0.03162277660168379,-0.27548863402105794,0.8764693844596971
17068182,1956.0,1,183843.0,225964,0.38,-0.78,9.95,-0.03,-0.01,-0.01,32.11,15.1497,-8.325892944349015,617.4671862517995,9.987757506067114,0.033166247903554,-0.36976971400445435,0.8453039522547771
17108183,1964.0,1,183831.0,225945,0.37,-0.77,9.94,-0.03,-0.01,-0.01,32.11,15.189701,-4.076340003524361,661.3258322730658,9.976642721877935,0.033166247903554,-0.1831214208668831,0.9056805788033536
17148181,1958.0,1,183820.0,225952,0.4,-0.79,9.93,-0.03,-0.01,-0.01,32.11,15.229699,-2.8747273292734357,689.1923419624286,9.969403191766295,0.033166247903554,-0.130344350482184,0.9440421335105177
17188183,1973.0,1,183928.0,226205,0.39,-0.79,9.96,-0.03,-0.01,-0.01,32.11,15.269701,4.233588105272892,572.9815144470207,9.998889938388162,0.033166247903554,0.18186612469407298,0.7840641503690251
17228182,1961.0,1,183728.0,223856,0.4,-0.79,9.95,-0.03,-0.01,-0.01,32.11,15.3097,0.41333206120453503,240.30448584236294,9.989324301473047,0.033166247903554,0.014073352159398258,0.3260947751262456
17268182,1969.0,1,182718.0,221982,0.37,-0.78,9.97,-0.03,-0.01,-0.01,32.11,15.3497,2.596038598403284,-250.58038467971917,10.007307330146308,0.033166247903554,0.10994189533592046,-0.34966645314986616
17308182,1977.0,1,182462.0,221925,0.38,-0.78,9.96,-0.03,-0.01,-0.01,32.11,15.3897,14.204401018918142,-719.2620029994115,9.997719740020722,0.033166247903554,0.6198028294347825,-0.9948622721395732
17348869,1966.0,1,182499.0,222225,0.38,-0.77,9.94,-0.03,-0.01,-0.01,31.91,15.430387,3.129099640632897,-952.9458362588375,9.977018592746031,0.033166247903554,0.13335493079065336,-1.3165557764101559
17389182,1962.0,1,182532.0,222333,0.36,-0.77,9.96,-0.03,-0.01,-0.0,31.91,15.4707,-3.245479173420438,-822.7399655604784,9.996204279625342,0.03162277660168379,-0.14662846315268438,-1.1373119569412369
17429183,1968.0,1,182679.0,223457,0.39,-0.77,9.93,-0.03,-0.01,-0.0,31.91,15.510701,7.696219957770479,-362.94656799153694,9.967441998827985,0.03162277660168379,0.33395137555037685,-0.5043518276873503
17469182,1972.0,1,183378.0,225729,0.37,-0.79,9.96,-0.03,-0.01,-0.0,31.91,15.5507,5.624355852940645,229.7184179347283,9.998129825122296,0.03162277660168379,0.2429512387914153,0.3115217974659864
17509183,1963.0,1,184028.0,226999,0.4,-0.78,9.96,-0.03,-0.01,-0.0,31.91,15.590701,3.1763563345676262,689.4311275405634,9.998499887483122,0.03162277660168379,0.1354305329504726,0.9443708501715208
17549182,1971.0,1,184289.0,226659,0.37,-0.79,9.95,-0.03,-0.01,-0.01,31.91,15.6307,5.411964402255034,830.7648815015842,9.988168000189022,0.033166247903554,0.23362261003928378,1.1389335203797013
17589169,1957.0,1,183923.0,225762,0.36,-0.79,9.95,-0.03,-0.01,-0.01,31.91,15.670687,-4.61937083433684,664.1801345540308,9.987802561124242,0.033166247903554,-0.20697234803583786,0.9096098643264638
17629182,1957.0,1,183556.0,225026,0.39,-0.79,9.98,-0.03,-0.01,-0.0,31.91,15.7107,-6.404633759867242,385.5790887774618,10.018812304859294,0.03162277660168379,-0.2853844263160943,0.526082491211968
17669183,1969.0,1,183450.0,224975,0.36,-0.79,9.93,-0.03,-0.01,-0.01,31.91,15.750701,4.483932609866083,230.06697066946475,9.96787841017335,0.033166247903554,0.19286172237913735,0.3120016216330951
17709181,1968.0,1,183412.0,224842,0.36,-0.78,9.95,-0.03,-0.01,-0.0,31.91,15.790699,6.339556277490318,290.47766671483004,9.987016571529256,0.03162277660168379,0.2743641757173306,0.3951641076091107
17749183,1968.0,1,183520.0,225698,0.42,-0.77,9.91,-0.03,-0.01,-0.01,31.91,15.830701,1.4666783930290546,442.16182382166403,9.94873861351277,0.033166247903554,0.06033828817867181,0.6039753349902361
17789193,1961.0,1,183957.0,226874,0.39,-0.75,9.92,-0.03,-0.01,-0.01,31.91,15.870711,-1.1091173037082231,441.54635506608633,9.955952993058977,0.033166247903554,-0.052795464232897854,0.6031280692723248
17829183,1964.0,1,183803.0,223925,0.4,-0.8,10.0,-0.03,-0.01,-0.01,31.91,15.910701,-2.683387541138491,126.67155695645113,10.039920318408907,0.033166247903554,-0.12194035002331187,0.16966557510855723
17869181,1963.0,1,182477.0,220833,0.39,-0.77,9.96,-0.03,-0.01,-0.0,31.91,15.950699,-1.8042984745617052,-443.68212219406615,9.997329643459798,0.03162277660168379,-0.08332911818850691,-0.6154938908261642
17909183,1969.0,1,181952.0,220211,0.4,-0.77,9.9,-0.03,-0.01,-0.0,31.91,15.990701,3.037577967376846,-1029.0115240622943,9.937952505420823,0.03162277660168379,0.12933512815818599,-1.4212692147466481
17949181,1968.0,1,181898.0,220219,0.39,-0.77,9.95,-0.03,-0.01,-0.01,31.91,16.030699,0.08737700210885643,-1385.367051804452,9.987367020391309,0.033166247903554,-0.00024320213865418563,-1.9118348516013899
17989189,1965.0,1,181936.0,220392,0.38,-0.79,9.95,-0.03,-0.01,-0.01,31.91,16.070707,-1.6711437648424181,-1425.6385035362928,9.988543437358622,0.033166247903554,-0.07748071492387766,-1.9672732798785282
18029182,1973.0,1,182056.0,221107,0.36,-0.78,9.94,-0.03,-0.01,-0.0,31.91,16.1107,3.7658969099799364,-1237.0142155793524,9.977053673304559,0.03162277660168379,0.16132425487094737,-1.7076095824072184
18069183,1970.0,1,182457.0,222018,0.4,-0.78,9.93,-0.03,-0.01,-0.01,31.91,16.150701,-0.20854998022062055,-968.818273277623,9.968615751447139,0.033166247903554,-0.013240867284680236,-1.3384060679543668
18109182,1969.0,1,182564.0,221989,0.41,-0.76,9.98,-0.03,-0.01,-0.01,31.91,16.1907,0.38876789083906427,-706.9677035488651,10.017290052703876,0.033166247903554,0.012994447969969356,-0.9779377112162358
18149183,1979.0,1,182520.0,222406,0.34,-0.79,9.98,-0.03,-0.01,-0.01,31.91,16.230701,3.774442363205289,-436.95468354789097,10.016990566033293,0.033166247903554,0.16169958711902369,-0.6062327738602727
18189182,1968.0,1,183148.0,224802,0.4,-0.78,9.91,-0.03,-0.01,-0.01,31.91,16.2707,-0.40876412490076725,-101.85035578065097,9.948693381545137,0.033166247903554,-0.022034646039039353,-0.14492193351640817
18229183,1979.0,1,183874.0,226494,0.41,-0.8,10.0,-0.03,-0.01,-0.0,31.91,16.310701,0.1180427385218704,315.7094105948575,10.040323699961073,0.03162277660168379,0.0011036942146796318,0.42989859477670533
18269182,1968.0,1,184168.0,227043,0.38,-0.76,9.98,-0.03,-0.01,-0.0,31.91,16.3507,-2.8521930761382226,754.0030317803903,10.016107028182157,0.03162277660168379,-0.12935460404452667,1.0332617326198321
18309183,1972.0,1,184249.0,226827,0.38,-0.78,9.94,-0.03,-0.01,-0.0,31.91,16.390701,-7.940699224868006,1084.732338886017,9.977795347670746,0.03162277660168379,-0.3528512872264859,1.488549838278717
18349868,1965.0,1,184170.0,226711,0.39,-0.77,9.95,-0.03,-0.01,-0.0,31.81,16.431386,-10.651444683383772,1156.085846535665,9.987367020391309,0.03162277660168379,-0.4719122849379785,1.5867764019123705
18388183,1967.0,1,184163.0,226814,0.39,-0.78,9.96,-0.03,-0.01,-0.01,31.81,16.469701,-12.628494391207681,858.7370720494774,9.998104820414717,0.033166247903554,-0.5587479964944645,1.177440557319165
18428182,1975.0,1,184082.0,224682,0.38,-0.76,9.97,-0.03,-0.01,-0.01,31.81,16.5097,-5.778844814994187,208.0413468467837,10.006143113108067,0.033166247903554,-0.25789860838385525,0.2816807388726781
18468183,1977.0,1,182578.0,220425,0.39,-0.77,9.95,-0.03,-0.01,-0.0,31.81,16.549701,-2.746815020438243,-605.8162756788555,9.987367020391309,0.03162277660168379,-0.12472620324462035,-0.8386907772730041
18508182,1974.0,1,181818.0,219722,0.37,-0.79,9.96,-0.03,-0.01,-0.0,31.81,16.5897,-10.634503394520712,-1268.5514252049184,9.998129825122296,0.03162277660168379,-0.47116819192540216,-1.7510242908098375
18548183,1968.0,1,181865.0,220217,0.43,-0.77,9.93,-0.03,-0.01,-0.0,31.81,16.629701,-12.990747303466753,-1497.7281320050092,9.969087220001638,0.03162277660168379,-0.5746588202208185,-2.06651320110115
18588181,1981.0,1,182165.0,221444,0.37,-0.76,9.96,-0.03,-0.01,-0.01,31.81,16.669699,-5.894105532036028,-1207.6013142295778,9.995804119729438,0.033166247903554,-0.26296107410701375,-1.6671192362245209
18628183,1985.0,1,182764.0,223631,0.39,-0.76,9.96,-0.03,-0.01,-0.01,31.81,16.709701,2.1226766565997273,-561.3744122167252,9.996564409836012,0.033166247903554,0.08915095574669044,-0.7775112827652437
18668182,1990.0,1,183607.0,225647,0.39,-0.77,9.96,-0.03,-0.01,-0.01,31.81,16.7497,1.8571829109758247,129.34932994532525,9.997329643459798,0.033166247903554,0.07748997513309543,0.17335184713010401
18708183,1974.0,1,183991.0,226146,0.38,-0.8,9.94,-0.03,-0.01,-0.01,31.81,16.789701,-10.283133920718797,588.0646588266021,9.979378738178044,0.033166247903554,-0.4557353891202564,0.8048278870092916
18748182,1974.0,1,184007.0,226071,0.4,-0.79,9.93,-0.03,-0.01,-0.0,31.81,16.8297,-15.274060141940804,720.0867277025819,9.969403191766295,0.03162277660168379,-0.6749461798407183,0.986571918615522
18788182,1975.0,1,183940.0,225982,0.4,-0.77,9.97,-0.03,-0.01,-0.01,31.81,16.8697,-9.22488879088827,638.4148254238117,10.0076870454666,0.033166247903554,-0.40925528875334927,0.8741408613273842
18828182,1982.0,1,184012.0,226281,0.41,-0.8,9.95,-0.03,-0.01,-0.0,31.81,16.9097,-8.485119455035527,567.6058145081588,9.990525511703575,0.03162277660168379,-0.376763239407181,0.7766638620088123
18868182,1979.0,1,184132.0,226898,0.39,-0.77,9.95,-0.03,-0.01,-0.0,31.81,16.9497,-3.9719078581295064,693.1682710362688,9.987367020391309,0.03162277660168379,-0.17853456621227046,0.9495154713048144
18908182,1990.0,1,184439.0,227833,0.4,-0.78,9.97,-0.03,-0.01,-0.0,31.81,16.9897,-0.5165904662380008,1041.9185798750225,10.008461420218394,0.03162277660168379,-0.02677058011166165,1.4296116225915712
18948182,1983.0,1,184767.0,228486,0.38,-0.78,9.96,-0.03,-0.01,-0.01,31.81,17.0297,1.0500392273506958,1454.0585251941627,9.997719740020722,0.033166247903554,0.04203871873901291,1.996971124574803
18988181,1998.0,1,184955.0,228926,0.38,-0.77,9.95,-0.03,-0.01,-0.01,31.81,17.069699,10.06703146555655,1664.8870636124464,9.98698152596669,0.033166247903554,0.438081839964196,2.28720160555433
19028183,1985.0,1,184988.0,228818,0.38,-0.76,9.97,-0.03,-0.01,-0.01,31.81,17.109701,3.4176148987740924,1463.0150865372416,10.006143113108067,0.033166247903554,0.146027059182999,2.009300893239077
19068182,1981.0,1,184734.0,226646,0.38,-0.79,9.95,-0.03,-0.01,-0.01,31.81,17.1497,-2.3185620279921793,840.1943321968834,9.988543437358622,0.033166247903554,-0.10591653286653971,1.151914277307588
19108183,1984.0,1,183265.0,222139,0.38,-0.77,9.92,-0.03,-0.01,-0.0,31.81,17.189701,3.795677234989668,29.78653154072869,9.957092949249796,0.03162277660168379,0.16263226230362332,0.03629185000910803
19148182,1980.0,1,182508.0,222031,0.4,-0.8,9.99,-0.03,-0.01,-0.01,31.81,17.2297,1.4600171922779357,-610.6596500906936,10.029960119561792,0.033166247903554,0.06004571581452996,-0.8453582564276659
19188182,1988.0,1,182843.0,223271,0.37,-0.79,9.96,-0.03,-0.01,-0.0,31.81,17.2697,11.490901390662819,-802.1396421741935,9.998129825122296,0.03162277660168379,0.5006208634501426,-1.1089531692287629
19228182,1994.0,1,183235.0,224521,0.37,-0.76,9.95,-0.03,-0.01,-0.01,31.81,17.3097,20.293881845821748,-491.53430513681553,9.985839974684152,0.033166247903554,0.887264187902989,-0.6813680944590726
19268183,1985.0,1,183781.0,226769,0.39,-0.79,9.98,-0.03,-0.01,-0.01,31.81,17.349701,13.323620853912148,145.68009088043448,10.018812304859294,0.033166247903554,0.5811173214020493,0.19583307588839904
19308182,1981.0,1,184586.0,228348,0.38,-0.75,9.98,-0.03,-0.01,-0.01,31.81,17.3897,13.898642589707386,816.9537252140626,10.015353213941085,0.033166247903554,0.6063733488001589,1.1199208261672218
19348167,1985.0,1,184742.0,228385,0.37,-0.76,9.97,-0.03,-0.01,-0.0,31.81,17.429685,17.695913897576187,1242.4003026695652,10.005768336314809,0.03162277660168379,0.7731565888405679,1.7055984850476567
19388868,1983.0,1,184707.0,228408,0.41,-0.77,9.96,-0.03,-0.01,-0.0,31.71,17.470386,24.62174876802408,1240.4207958605589,9.998129825122296,0.03162277660168379,1.0773521772054266,1.7028734592158106
19429219,1987.0,1,184710.0,227958,0.38,-0.79,9.94,-0.03,-0.01,-0.0,31.71,17.510737,24.341164647756386,772.7954171902153,9.978582063600017,0.03162277660168379,1.065028399184836,1.059131679341301
19469182,1974.0,1,184213.0,225191,0.36,-0.79,10.01,-0.03,-0.01,-0.0,31.71,17.5507,24.445595512454933,-33.795253759271034,10.047576822298996,0.03162277660168379,1.0696151975888775,-0.051236016320565375
19509183,2000.0,1,183052.0,221083,0.42,-0.77,9.97,-0.03,-0.01,-0.0,31.71,17.590701,44.146181049670375,-913.6054571506032,10.008506382073202,0.03162277660168379,1.9349016678448343,-1.2623990799962816
19549182,1978.0,1,182198.0,219463,0.45,-0.77,9.9,-0.03,-0.01,-0.0,31.71,17.6307,35.747365337956865,-1572.0711590431993,9.940090542847184,0.03162277660168379,1.5660100129348626,-2.168855192639126
19589182,1953.0,1,182120.0,219203,0.44,-0.78,9.91,-0.03,-0.01,-0.0,31.71,17.6707,6.1838212480872645,-1849.123773948451,9.950381902218629,0.03162277660168379,0.26752400268628973,-2.5502509670624884
19629220,1939.0,1,182312.0,219734,0.45,-0.78,9.94,-0.03,-0.01,-0.0,31.71,17.710738,3.0641202408591366,-1818.8235647091687,9.980706387826464,0.03162277660168379,0.13050091432685973,-2.508539136362179
19669183,1935.0,1,182777.0,221027,0.43,-0.78,9.97,-0.03,-0.01,-0.01,31.71,17.750701,-2.0596192233769157,-1723.4167398239488,10.009705290366945,0.033166247903554,-0.09454328180349598,-2.377200329562551
19709182,1921.0,1,183035.0,220546,0.4,-0.76,9.95,-0.03,-0.01,-0.01,31.71,17.7907,-8.70658859436809,-1772.301184034543,9.986996545508564,0.033166247903554,-0.3864905771800452,-2.4444955632254106
19749182,1925.0,1,182347.0,219322,0.44,-0.75,9.98,-0.03,-0.01,-0.01,31.71,17.8307,-2.54126601012647,-1964.7824673396237,10.017809141723554,0.033166247903554,-0.1156981072389816,-2.7094688721156723
19789182,1909.0,1,182281.0,220221,0.43,-0.79,9.95,-0.03,-0.01,-0.01,31.71,17.8707,-14.464147169256515,-2085.85280462791,9.990570554277667,0.033166247903554,-0.6393732911047648,-2.876136546649461
19829183,1892.0,1,182896.0,222265,0.4,-0.78,9.97,-0.03,-0.01,-0.01,31.71,17.910701,-26.845707185924883,-1876.9876715395599,10.008461420218394,0.033166247903554,-1.1831945061060507,-2.5886089259066907
19869182,1894.0,1,183718.0,224381,0.43,-0.79,9.96,-0.03,-0.01,-0.01,31.71,17.9507,-22.979242897338057,-1238.9168787645426,10.000529985955746,0.033166247903554,-1.0133721812659087,-1.7102288238795669
19909183,1885.0,1,184670.0,227163,0.42,-0.77,9.98,-0.03,-0.01,-0.01,31.71,17.990701,-26.736013300343583,-311.276788315802,10.018467946747148,0.033166247903554,-1.1783765460061337,-0.4332222495007274
19949181,1887.0,1,185801.0,229773,0.43,-0.78,9.92,-0.03,-0.01,-0.01,31.71,18.030699,-23.228623254789362,613.8562804005777,9.959904618017182,0.033166247903554,-1.024325431809786,0.840333112207057
19989183,1889.0,1,186570.0,231245,0.41,-0.78,9.97,-0.03,-0.01,-0.01,31.71,18.070701,-17.225414936766885,1264.6590236266704,10.008866069640456,0.033166247903554,-0.7606533228818461,1.7362402536518329
20029181,1875.0,1,186851.625,232187,0.42,-0.78,9.94,-0.03,-0.01,-0.01,31.71,18.110699,-28.988626272167117,1526.1674674689311,9.979398779485665,0.033166247903554,-1.277315510208995,2.096237633541485
20069183,1878.0,1,186851.625,233185,0.41,-0.77,9.92,-0.03,-0.01,-0.01,31.71,18.150701,-23.884460822879447,1464.9981559312714,9.958282984531017,0.033166247903554,-1.0531310413325035,2.0120308233916218
20109181,1891.0,1,186851.625,233872,0.42,-0.79,10.01,-0.03,-0.01,-0.01,31.71,18.190699,-7.770897793514267,1251.5181195844943,10.049905472192263,0.033166247903554,-0.34539329157945636,1.7181502411265843
20149183,1887.0,1,186851.625,233713,0.43,-0.78,9.97,-0.03,-0.01,-0.01,31.71,18.230701,-11.794446432896404,1048.768399701892,10.009705290366945,0.033166247903554,-0.5221150541634845,1.4390412117633709
20189182,1881.0,1,186851.625,233668,0.4,-0.77,9.93,-0.03,-0.01,-0.0,31.71,18.2707,-13.710426538824724,937.2968664845148,9.967838281192167,0.03162277660168379,-0.6062684748731149,1.2855874291591511
20229182,1885.0,1,186851.625,233449,0.42,-0.8,9.96,-0.03,-0.01,-0.0,31.71,18.3107,-11.742018575696994,901.8618314908749,10.000899959503645,0.03162277660168379,-0.5198123248657454,1.2368069019739443
20269182,1881.0,1,186851.625,233366,0.46,-0.79,9.97,-0.03,-0.01,-0.0,31.71,18.3507,-11.546217208059993,865.7916908451515,10.011823010820757,0.03162277660168379,-0.511212363511609,1.1871520765544479
20309183,1890.0,1,186851.625,233289,0.44,-0.79,9.95,-0.03,-0.01,-0.0,31.71,18.390701,-4.952717964173088,747.0364215345373,9.991005955358048,0.03162277660168379,-0.22161357587148173,1.0236713675885132
20349182,1885.0,1,186851.625,232536,0.42,-0.79,9.95,-0.03,-0.01,-0.01,31.71,18.4307,-7.795340757270179,513.3286616335123,9.99014514409075,0.033166247903554,-0.3464668721484701,0.701944925458798
20389853,1883.0,1,186824.0,230511,0.42,-0.78,9.94,-0.03,-0.01,-0.01,31.81,18.471371,-10.549047912683662,211.9198019994206,9.979398779485665,0.033166247903554,-0.46741482773715914,0.2870198922569986
20428162,1889.0,1,186089.0,230211,0.43,-0.8,9.97,-0.03,-0.01,-0.01,31.81,18.50968,-5.622937573640629,-50.139350553354596,10.011283633980211,0.033166247903554,-0.25105087148266914,-0.07373560346996547
20468167,1889.0,1,186258.0,230931,0.41,-0.78,9.94,-0.03,-0.01,-0.01,31.81,18.549685,-4.55688198520808,-172.91125830205115,9.978982914105023,0.033166247903554,-0.20422772120275015,-0.24274569149696765
20508182,1901.0,1,186479.0,231475,0.4,-0.76,9.97,-0.03,-0.01,-0.01,31.81,18.5897,3.898171422067885,-132.5868752119019,10.006922603877777,0.033166247903554,0.16713399821350933,-0.18723439692906974
20548182,1909.0,1,186642.0,232052,0.4,-0.8,10.0,-0.03,-0.01,-0.01,31.81,18.6297,13.971192144954484,3.7904489638703986,10.039920318408907,0.033166247903554,0.6095598606152425,0.000505159998023767
20588181,1923.0,1,186851.625,232275,0.41,-0.77,9.92,-0.03,-0.01,-0.0,31.81,18.669699,22.303219013868688,130.20701113683606,9.958282984531017,0.03162277660168379,0.9755180249480369,0.174532546985099
20628183,1923.0,1,186851.625,231965,0.42,-0.79,9.92,-0.03,-0.01,-0.01,31.81,18.709701,26.157391833661393,174.87074650032272,9.960266060703399,0.033166247903554,1.1448004855477463,0.23601747447232993
20668182,1923.0,1,186720.0,231684,0.42,-0.81,9.96,-0.03,-0.01,-0.0,31.81,18.7497,17.02209711781492,137.06904269011554,10.001704854673527,0.03162277660168379,0.7435612987991902,0.1839789470462412
20708183,1913.0,1,186670.0,231785,0.41,-0.77,9.95,-0.03,-0.01,-0.0,31.81,18.789701,14.03675806016015,69.75773810722686,9.988168000189022,0.03162277660168379,0.61243963793101,0.09131695521621568
20748181,1914.0,1,186851.625,232187,0.44,-0.79,10.0,-0.03,-0.01,-0.01,31.81,18.829699,2.4818972456842,35.71732180327463,10.040801760815716,0.033166247903554,0.10492859418210633,0.04445628601668663
20788183,1896.0,1,186851.625,232584,0.42,-0.79,9.99,-0.03,-0.01,-0.01,31.81,18.869701,-7.2333480144324245,73.07918781253953,10.029985044854254,0.033166247903554,-0.32178310242797487,0.09588932455840433
20828182,1931.0,1,186851.625,232908,0.42,-0.78,9.95,-0.03,-0.01,-0.01,31.81,18.9097,15.87030530978698,179.92686684798267,9.989359338816477,0.033166247903554,0.6929724538049369,0.24297782363284215
20868183,1936.0,1,186851.625,233257,0.4,-0.78,9.93,-0.03,-0.01,-0.0,31.81,18.949701,25.590026374362452,308.58294595465856,9.968615751447139,0.03162277660168379,1.1198807360969225,0.4200881712177041
20908182,1938.0,1,186851.625,233279,0.41,-0.8,9.95,-0.03,-0.01,-0.0,31.81,18.9897,20.68424305973095,371.334546557711,9.990525511703575,0.03162277660168379,0.9044095806767343,0.5064731898773964
20948182,1942.0,1,186851.625,232997,0.43,-0.78,9.94,-0.03,-0.01,-0.0,31.81,19.0297,24.01548752912168,274.9670947518906,9.979824647758095,0.03162277660168379,1.0507240525503556,0.3738119662204519
20988182,1938.0,1,186822.0,230672,0.43,-0.8,9.94,-0.03,-0.01,-0.0,31.81,19.0697,17.06213693454674,-15.935665649809568,9.981407716349432,0.03162277660168379,0.7453199222484336,-0.02665017568441113
21028183,1934.0,1,185829.0,228679,0.44,-0.81,9.96,-0.03,-0.01,-0.01,31.81,19.109701,10.919381316306339,-428.3318191971574,10.002564671123102,0.033166247903554,0.4755186355551316,-0.5943623786722673
21068241,1929.0,1,185489.0,227823,0.43,-0.78,9.96,-0.03,-0.01,-0.01,31.81,19.149759,1.9566679633743387,-795.9050349895667,9.999744996748667,0.033166247903554,0.08185954423399974,-1.1003704932045018
21108183,1913.0,1,185463.0,227652,0.43,-0.78,9.98,-0.03,-0.01,-0.0,31.81,19.189701,-13.060791029606825,-947.0134726932457,10.019665663084773,0.03162277660168379,-0.5777352713466405,-1.3083891745643887
21148182,1920.0,1,185378.0,228019,0.42,-0.8,9.93,-0.03,-0.01,-0.01,31.81,19.2297,-13.294107468252776,-809.1903592656749,9.971023016722006,0.033166247903554,-0.5879829646076997,-1.1186593173056012
21188183,1927.0,1,185620.0,229409,0.41,-0.8,9.91,-0.03,-0.01,-0.01,31.81,19.269701,-2.6615098768320435,-456.4437562486639,9.950688418395986,0.033166247903554,-0.12097944219194766,-0.633061793243636
21228182,1937.0,1,186123.0,230296,0.39,-0.77,9.95,-0.03,-0.01,-0.01,31.81,19.3097,0.31595607726209973,-65.83850902317651,9.987367020391309,0.033166247903554,0.009796417279768283,-0.09534735654596692
21268226,1936.0,1,186200.0,230361,0.43,-0.77,9.95,-0.03,-0.01,-0.01,31.81,19.349744,0.46937658240394425,188.99798443175297,9.989008959851823,0.033166247903554,0.016534932087274676,0.2554652925453107
21308182,1947.0,1,186071.0,230057,0.4,-0.79,9.97,-0.03,-0.01,-0.01,31.81,19.3897,10.300003146751243,239.5135682012684,10.009245725827697,0.033166247903554,0.44831439083481567,0.3250059832145233
21348183,1946.0,1,185979.0,229633,0.43,-0.79,9.94,-0.03,-0.01,-0.0,31.81,19.429701,3.865093560476329,154.97318207164412,9.980611203728957,0.03162277660168379,0.1656811568222672,0.20862611779082052
21388182,1920.0,1,185852.0,229353,0.44,-0.79,9.92,-0.03,-0.01,-0.01,31.81,19.4697,-15.87150979976402,86.36542333130332,9.961129454032811,0.033166247903554,-0.7011872834158839,0.11417940309306482
21428869,1919.0,1,185823.0,229320,0.42,-0.78,9.95,-0.03,-0.01,-0.01,31.63,19.510387,-26.998444672619524,156.0015186043187,9.989359338816477,0.033166247903554,-1.1899030214691149,0.21004174495745595
21469191,1902.0,1,185820.0,229464,0.43,-0.8,9.96,-0.03,-0.01,-0.01,31.63,19.550709,-34.90275415156445,360.5970822175703,10.00132491223038,0.033166247903554,-1.5370750400838304,0.49169179707678445
21509183,1919.0,1,185837.0,229716,0.42,-0.78,9.95,-0.03,-0.01,-0.0,31.63,19.590701,-26.478709712936844,553.5150283937888,9.989359338816477,0.03162277660168379,-1.1670752924210162,0.7572662241840908
21549182,1920.0,1,186002.0,230092,0.43,-0.78,9.92,-0.03,-0.01,-0.01,31.63,19.6307,-19.259141873962385,531.3617064738672,9.959904618017182,0.033166247903554,-0.8499784040895126,0.7267695498517152
21589162,1921.0,1,185904.0,228318,0.39,-0.78,9.98,-0.03,-0.01,-0.01,31.63,19.67068,-21.495344476359122,180.16491523789188,10.018028748211895,0.033166247903554,-0.948196594251923,0.24330552546684472
21629162,1927.0,1,184603.0,224683,0.41,-0.79,9.96,-0.03,-0.01,-0.01,31.63,19.71068,-12.90848236826165,-421.3596212657602,9.999689995194851,0.033166247903554,-0.5710455907929423,-0.5847643215292672
21669184,1927.0,1,183803.0,223868,0.39,-0.79,9.96,-0.03,-0.01,-0.0,31.63,19.750702,-12.580922508574423,-1027.7656684958934,9.998889938388162,0.03162277660168379,-0.5566585506589891,-1.4195541468389528
21709182,1919.0,1,183840.0,223973,0.4,-0.79,9.96,-0.03,-0.01,-0.01,31.63,19.7907,-18.292038606084077,-1370.7984577537225,9.999284974436923,0.033166247903554,-0.8075014243340317,-1.8917794544987931
21749183,1915.0,1,183837.0,224119,0.4,-0.79,9.99,-0.03,-0.01,-0.01,31.63,19.830701,-21.54244663974748,-1316.3071617704845,10.029167462955238,0.033166247903554,-0.9502654091418532,-1.816765724568949
21789182,1910.0,1,183954.0,225101,0.41,-0.78,9.95,-0.03,-0.01,-0.0,31.63,19.8707,-22.76219958938141,-928.5698968610627,9.988943888119504,0.03162277660168379,-1.0038392342639166,-1.2829994055847418
21829183,1921.0,1,184411.0,226781,0.42,-0.78,9.96,-0.03,-0.01,-0.0,31.63,19.910701,-10.347100279603639,-415.1180372041078,9.999319976878429,0.03162277660168379,-0.45854491093827715,-0.5761720410065349
21869182,1931.0,1,184842.0,227627,0.4,-0.78,9.95,-0.03,-0.01,-0.01,31.63,19.9507,2.996688729250932,-0.20705042101903764,9.988538431622516,0.033166247903554,0.12753919653663134,-0.004997871887014474
21909183,1933.0,1,185004.0,227811,0.41,-0.77,9.97,-0.03,-0.01,-0.01,31.63,19.990701,9.786652279508225,197.96764901692913,10.008091726198357,0.033166247903554,0.4257670630368456,0.2678130993759772
21949181,1934.0,1,185056.0,227610,0.4,-0.77,9.96,-0.03,-0.01,-0.01,31.63,20.030699,11.302234624831764,221.05282679359942,9.99772474115986,0.033166247903554,0.4923342671176543,0.2995925837849051
21989183,1925.0,1,184917.0,227350,0.39,-0.8,9.94,-0.03,-0.01,-0.01,31.63,20.070701,11.551026953276612,223.5573145112823,9.979764526280166,0.033166247903554,0.5032616903305398,0.303040308084299
22029182,1930.0,1,184892.0,227496,0.4,-0.78,9.94,-0.03,-0.01,-0.0,31.63,20.1107,14.684311417056595,348.7512443351472,9.978577052866806,0.03162277660168379,0.6408813894430576,0.475384596675859
22069182,1917.0,1,185088.0,228245,0.42,-0.79,9.94,-0.03,-0.01,-0.01,31.63,20.1507,13.451442443673084,607.7226573376383,9.980185369019956,0.033166247903554,0.5867314840886259,0.8318894527999412
22109182,1926.0,1,185436.0,228757,0.43,-0.79,9.94,-0.03,-0.01,-0.01,31.63,20.1907,20.663460029916294,854.4959646544685,9.980611203728957,0.033166247903554,0.9034967512344024,1.1716021701237032
22149184,1926.0,1,185577.0,229050,0.42,-0.79,9.96,-0.03,-0.01,-0.01,31.63,20.230702,32.481097587046115,889.1572588931211,10.000104999448757,0.033166247903554,1.4225494397576097,1.21931755141757
22189182,1923.0,1,185485.0,227137,0.4,-0.79,9.94,-0.03,-0.01,-0.01,31.63,20.2707,29.18820251754649,618.0970188349161,9.979363707170913,0.033166247903554,1.2779193450719417,0.8461709914844084
22229183,1909.0,1,184384.0,223967,0.44,-0.79,9.96,-0.03,-0.01,-0.01,31.63,20.310701,26.458468291547682,142.15294126306654,10.000964953443244,0.033166247903554,1.1580243252671019,0.1909775362275185
22269182,1915.0,1,183925.0,224002,0.41,-0.79,9.97,-0.03,-0.01,-0.01,31.63,20.3507,33.11174050374493,-304.85818151680064,10.009650343543475,0.033166247903554,1.4502484531880182,-0.4243862761905265
22309183,1907.0,1,184075.0,224436,0.43,-0.79,9.99,-0.03,-0.01,-0.01,31.63,20.390701,36.4467976040846,-518.4454125427552,10.030408765349495,0.033166247903554,1.5967303829257709,-0.7184144246414776
22349181,1909.0,1,184110.0,224297,0.41,-0.79,9.97,-0.03,-0.01,-0.0,31.63,20.430699,39.266915546699735,-454.70002993909094,10.009650343543475,0.03162277660168379,1.7205952241844866,-0.6306613472256499
22389183,1904.0,1,184158.0,224653,0.43,-0.79,9.93,-0.03,-0.01,-0.01,31.63,20.470701,45.466016585574266,-234.89399873577767,9.970651934552725,0.033166247903554,1.9928713068701966,-0.3280722829701719
22429868,1895.0,1,184398.0,225184,0.41,-0.78,9.93,-0.03,-0.01,-0.01,31.49,20.511386,38.09925888554675,-36.412875085386254,9.96902201823228,0.033166247903554,1.6693095652434717,-0.05483948244616844
22468184,1873.0,1,184518.0,225196,0.41,-0.77,9.94,-0.03,-0.01,-0.0,31.49,20.549702,25.329206108175104,39.058279215751455,9.978206251626592,0.03162277660168379,1.1084250234190358,0.04905551003080698
22508182,1872.0,1,184405.0,224764,0.44,-0.77,9.94,-0.03,-0.01,-0.0,31.49,20.5897,28.596278017680454,29.437333841895704,9.979483954594045,0.03162277660168379,1.2519209167420038,0.03581113797244738
22548183,1863.0,1,184459.0,225111,0.42,-0.78,9.95,-0.03,-0.01,-0.01,31.49,20.629701,24.8146924059995,72.76598332431756,9.989359338816477,0.033166247903554,1.085826621741439,0.09545816144384885
22588181,1840.0,1,184711.0,226446,0.44,-0.79,9.93,-0.03,-0.01,-0.01,31.49,20.669699,9.43104559319341,295.3212868385367,9.97108820540667,0.033166247903554,0.4101481539531791,0.4018319250152934
22628183,1830.0,1,185129.0,227663,0.4,-0.79,9.94,-0.03,-0.01,-0.01,31.49,20.709701,0.8214354741333785,700.8699682051965,9.979363707170913,0.033166247903554,0.03199801541397685,0.9601177706446778
22668182,1813.0,1,185492.0,228492,0.42,-0.76,9.97,-0.03,-0.01,-0.0,31.49,20.7497,-7.138259340410693,1133.9249346753882,10.007742003069424,0.03162277660168379,-0.3176066304672733,1.55626927912716
22708195,1808.0,1,185552.0,228977,0.41,-0.77,9.92,-0.03,-0.01,-0.01,31.49,20.789713,-12.267796655126457,1348.6283620482616,9.958282984531017,0.033166247903554,-0.5429054790071822,1.851834004196553
22748182,1793.0,1,185756.0,229082,0.41,-0.77,9.98,-0.03,-0.01,-0.0,31.49,20.8297,-19.52621545511982,1152.9944548063293,10.018053703190056,0.03162277660168379,-0.8617087740270857,1.5825207346519867
22788183,1781.0,1,185341.0,225684,0.41,-0.79,9.96,-0.03,-0.01,-0.0,31.49,20.869701,-31.507027079800473,543.2481974612944,9.999689995194851,0.03162277660168379,-1.3879283720150724,0.7431327140718994
22828182,1769.0,1,183712.0,221920,0.41,-0.8,9.93,-0.03,-0.01,-0.0,31.49,20.9097,-38.090530374555286,-267.7120352803684,9.970606801995553,0.03162277660168379,-1.6770881189208506,-0.3732502014939112
22868182,1760.0,1,183270.0,221270,0.42,-0.79,9.95,-0.03,-0.01,-0.01,31.49,20.9497,-46.99661045883574,-960.573881134999,9.99014514409075,0.033166247903554,-2.0682597714276394,-1.3270566846361067
22908229,1749.0,1,183357.0,221574,0.43,-0.79,9.95,-0.03,-0.01,-0.01,31.49,20.989747,-54.87507675624773,-1286.8938564085756,9.990570554277667,0.033166247903554,-2.4142967092963246,-1.776274822215645
22948183,1745.5,1,183303.0,221846,0.41,-0.78,9.96,-0.03,-0.01,-0.01,31.49,21.029701,-58.04863123758544,-1190.4899771684052,9.998904940042186,0.033166247903554,-2.553685142707823,-1.6435634518761328
22988182,1745.5,1,183590.0,222918,0.42,-0.79,9.93,-0.03,-0.01,-0.01,31.49,21.0697,-58.35586741976892,-803.289993461979,9.970225674476982,0.033166247903554,-2.567179529009908,-1.1105367641730441
23028183,1750.0,1,184107.0,224313,0.44,-0.79,9.94,-0.03,-0.01,-0.01,31.49,21.109701,-51.575520001899356,-342.7616564622074,9.981047039263967,0.033166247903554,-2.269374020984044,-0.476564903651176
23068182,1763.0,1,184382.0,225439,0.4,-0.8,9.96,-0.03,-0.01,-0.01,31.49,21.1497,-44.26993072436778,11.377542430192994,10.000079999680002,0.033166247903554,-1.9484989105893018,0.010949693752740866
23108207,1766.0,1,184731.0,226098,0.42,-0.77,9.95,-0.03,-0.01,-0.01,31.49,21.189725,-35.7692806558216,195.37161237630988,9.988583483157159,0.033166247903554,-1.5751345007448097,0.26423934712924596
23148183,1779.0,1,184900.0,226296,0.4,-0.79,9.94,-0.03,-0.01,-0.01,31.49,21.229701,-33.64912740336775,264.2103512816206,9.979363707170913,0.033166247903554,-1.482013414533847,0.359004033411299
23188182,1771.0,1,184795.0,226252,0.43,-0.78,9.95,-0.03,-0.01,-0.01,31.49,21.2697,-34.855037468285964,322.9642752862569,9.989784782466536,0.033166247903554,-1.5349792343338762,0.43988577623052144
23228181,1798.0,1,184842.0,226217,0.42,-0.79,9.95,-0.03,-0.01,-0.0,31.49,21.309699,-20.297561454088292,425.8356612021848,9.99014514409075,0.03162277660168379,-0.8955877293267981,0.5815004363586261
23268183,1808.0,1,184952.0,226715,0.42,-0.78,9.94,-0.03,-0.01,-0.0,31.49,21.349701,-6.374004090184121,511.46951023259555,9.979398779485665,0.03162277660168379,-0.28403911408082355,0.699385583116675
23308182,1825.0,1,184983.0,227095,0.4,-0.79,9.96,-0.03,-0.01,-0.01,31.49,21.3897,0.5715422672749544,434.9546138808039,9.999284974436923,0.033166247903554,0.021022239567365642,0.5940537559509401
23349183,1835.0,1,185096.0,226505,0.4,-0.78,9.96,-0.03,-0.01,-0.0,31.49,21.430701,9.458884953943375,90.5551398353615,9.998499887483122,0.03162277660168379,0.4113709106144983,0.11994704463373783
23389182,1851.0,1,184176.0,222389,0.4,-0.79,9.96,-0.03,-0.01,-0.01,31.49,21.4707,18.159614798407627,-466.4539259297756,9.999284974436923,0.033166247903554,0.7935231974866406,-0.6468419787110878
23429183,1863.0,1,183382.0,221602,0.42,-0.77,9.97,-0.03,-0.01,-0.01,31.49,21.510701,26.001571275150845,-1010.939069035785,10.008506382073202,0.033166247903554,1.1379565559187408,-1.3963903375596414
23469867,1872.0,1,183368.0,222159,0.42,-0.8,9.97,-0.03,-0.01,-0.0,31.39,21.551385,27.537216842150183,-1278.963542073001,10.010859103993024,0.03162277660168379,1.205404974125547,-1.7653578042388554
23508182,1877.0,1,183629.0,222960,0.41,-0.78,9.95,-0.03,-0.01,-0.01,31.39,21.5897,28.873476057829542,-1143.7190206833995,9.988943888119504,0.033166247903554,1.264095971806706,-1.5791776846628525
23548182,1884.0,1,184084.0,224500,0.41,-0.77,9.94,-0.03,-0.01,-0.0,31.39,21.6297,25.92938736570914,-699.6871057876541,9.978206251626592,0.03162277660168379,1.13478610394958,-0.9679151051406654
23588183,1881.0,1,184683.0,226329,0.42,-0.8,9.93,-0.03,-0.01,-0.0,31.39,21.669701,21.02866326102288,-193.98391970724148,9.971023016722006,0.03162277660168379,0.9195371584686615,-0.2717547084973754
23628182,1904.0,1,184964.0,226504,0.42,-0.8,9.95,-0.03,-0.01,-0.0,31.39,21.7097,32.28071140927908,138.96715753192194,9.990940896632308,0.03162277660168379,1.4137481049891292,0.18659192718462686
23668183,1909.0,1,185045.0,226356,0.43,-0.77,9.96,-0.03,-0.01,-0.0,31.39,21.749701,35.89213264498906,221.47080671722776,9.998969946949536,0.03162277660168379,1.5723684631379653,0.3001679827094746
23708182,1910.0,1,185096.0,226524,0.4,-0.78,9.95,-0.03,-0.01,-0.01,31.39,21.7897,25.21379536334358,163.26351165178974,9.988538431622516,0.033166247903554,1.1033559681954621,0.2200387394386107
23748183,1910.0,1,185160.0,226817,0.42,-0.77,9.93,-0.03,-0.01,-0.0,31.39,21.829701,23.381924933463086,166.25195969192663,9.968660893018681,0.03162277660168379,1.0228968013730737,0.2241526925048244
23788182,1921.0,1,185310.0,227551,0.42,-0.79,9.97,-0.03,-0.01,-0.01,31.39,21.8697,23.316847719417407,368.39819817423194,10.01006493485432,0.033166247903554,1.0200384887239746,0.5024309581660055
23828183,1920.0,1,185592.0,228562,0.41,-0.8,9.94,-0.03,-0.01,-0.0,31.39,21.909701,20.54726262857654,728.8014602159112,9.980566116208037,0.03162277660168379,0.898393144589399,0.9985687812221079
23868182,1925.0,1,186015.0,229752,0.41,-0.79,9.96,-0.03,-0.01,-0.0,31.39,21.9497,14.693470374459876,1035.9656300851436,9.999689995194851,0.03162277660168379,0.6412836679391835,1.4214166813671734
23908183,1918.0,1,186311.0,230144,0.44,-0.78,9.96,-0.03,-0.01,-0.01,31.39,21.989701,6.593886358069339,1046.6852213659188,10.00017999838003,0.033166247903554,0.28553482733519314,1.436173469782368
23948183,1926.0,1,186182.0,227772,0.43,-0.78,9.95,-0.03,-0.01,-0.0,31.39,22.029701,3.9263258491388164,666.8352382907481,9.989784782466536,0.03162277660168379,0.16837059317543393,0.9132649294345334
23988183,1923.0,1,184849.0,224252,0.43,-0.81,9.94,-0.03,-0.01,-0.0,31.39,22.069701,0.6659244921476615,38.21462297234039,9.9822141832361,0.03162277660168379,0.025167682963488775,0.047894117179803186
24028183,1936.0,1,184396.0,224208,0.41,-0.79,9.94,-0.03,-0.01,-0.0,31.39,22.109701,3.1245499835012125,-543.3215533894521,9.97976953641716,0.03162277660168379,0.1331551013615781,-0.752659382069998
24068183,1938.0,1,184525.0,224638,0.42,-0.79,9.96,-0.03,-0.01,-0.0,31.39,22.149701,6.2814864871342735,-818.3071474833711,10.000104999448757,0.03162277660168379,0.27181364218974763,-1.1312096572608155
24108182,1940.0,1,184623.0,225090,0.42,-0.79,9.97,-0.03,-0.01,-0.0,31.39,22.1897,-2.6660596988096636,-716.4035831598079,10.01006493485432,0.03162277660168379,-0.12117927886136395,-0.9909273183087799
24148183,1939.0,1,184917.0,226319,0.41,-0.8,9.91,-0.03,-0.01,-0.01,31.39,22.229701,-0.7907115946567971,-368.31610178464246,9.950688418395986,0.033166247903554,-0.03881049147287523,-0.5117436276168124
24188182,1958.0,1,185256.0,227341,0.43,-0.78,9.91,-0.03,-0.01,-0.01,31.39,22.2697,7.7319983705918816,7.7315789512209045,9.949944723464547,0.033166247903554,0.3355228301897889,0.0059305927236550805
24228183,1958.0,1,185524.0,227896,0.43,-0.77,9.94,-0.03,-0.01,-0.0,31.39,22.309701,10.030394473569245,249.05337895374385,9.979048050791217,0.03162277660168379,0.4364726749260501,0.33813866384645663
24268182,1964.0,1,185669.0,228286,0.42,-0.8,9.96,-0.03,-0.01,-0.0,31.39,22.3497,9.749806244977952,329.3613889096032,10.000899959503645,0.03162277660168379,0.42414871646022223,0.4486921616359968
24308183,1953.0,1,185742.0,228444,0.41,-0.79,9.97,-0.03,-0.01,-0.0,31.39,22.389701,-3.75561130150758,340.835772883682,10.009650343543475,0.03162277660168379,-0.1690344179220406,0.46448801168896037
24349182,1943.0,1,185735.0,228454,0.42,-0.79,9.97,-0.03,-0.01,-0.01,31.39,22.4307,-12.421869030746617,400.14715525868195,10.01006493485432,0.033166247903554,-0.5496726251822274,0.5461371620525813
24389183,1950.0,1,185769.0,228642,0.41,-0.8,9.96,-0.03,-0.01,-0.0,31.39,22.470701,-14.022127571019524,542.0234034485175,10.000484988239322,0.03162277660168379,-0.6199589657173327,0.7414466398900265
24429182,1937.0,1,185939.0,229011,0.42,-0.79,9.95,-0.03,-0.01,-0.0,31.39,22.5107,-19.76015157216242,674.5661261901754,9.99014514409075,0.03162277660168379,-0.8719836847193994,0.9239074132760617
24469183,1948.0,1,185976.0,229260,0.41,-0.79,9.96,-0.03,-0.01,-0.0,31.39,22.550701,-19.078662634934254,637.4844151882742,9.999689995194851,0.03162277660168379,-0.8420514192088793,0.8728600413198356
24509868,1938.0,1,186110.0,228546,0.43,-0.78,9.94,-0.03,-0.01,-0.0,31.35,22.591386,-21.985359052041062,331.3378817948878,9.979824647758095,0.03162277660168379,-0.9697189485882869,0.4514130384444802
24548183,1945.0,1,185027.0,224760,0.44,-0.79,9.93,-0.03,-0.01,-0.0,31.35,22.629701,-21.128425036831572,-180.79691386263588,9.97108820540667,0.03162277660168379,-0.9320808079420526,-0.25360123137481233
24588182,1948.0,1,184367.0,223983,0.43,-0.79,9.95,-0.03,-0.01,-0.01,31.35,22.6697,-15.413686687199485,-690.2676301573493,9.990570554277667,0.033166247903554,-0.6810788381961101,-0.9549480800724822
24628183,1950.0,1,184303.0,224346,0.42,-0.79,9.96,-0.03,-0.01,-0.01,31.35,22.709701,-14.207444509687013,-974.6408406252633,10.000104999448757,0.033166247903554,-0.6280984313913511,-1.3464215222876343
24668182,1957.0,1,184517.0,224905,0.41,-0.79,9.97,-0.03,-0.01,-0.01,31.35,22.7497,-7.185326677146276,-940.9110788029589,10.009650343543475,0.033166247903554,-0.31967391570564074,-1.2999885058162584
24708184,1959.0,1,184560.0,225453,0.43,-0.77,9.96,-0.03,-0.01,-0.01,31.35,22.789702,-4.614425913899231,-670.4902102747283,9.998969946949536,0.033166247903554,-0.2067551579049622,-0.9277221166041069
24748181,1959.0,1,184940.0,226564,0.42,-0.78,9.93,-0.03,-0.01,-0.01,31.35,22.829699,-2.8056837161985024,-343.6811598583948,9.969438299121972,0.033166247903554,-0.1273118261879964,-0.47783070910113984
24788184,1968.0,1,185121.0,226756,0.41,-0.78,9.96,-0.03,-0.01,-0.01,31.35,22.869702,4.361743238190282,-112.01682154739872,9.998904940042186,0.033166247903554,0.18749493721833999,-0.15891727907769587
24828182,1968.0,1,185062.0,226801,0.41,-0.78,9.96,-0.03,-0.01,-0.01,31.35,22.9097,9.593371935729536,-9.548692206226834,9.998904940042186,0.033166247903554,0.41727782975379474,-0.017857749438696925
24868183,1977.0,1,185268.0,227397,0.4,-0.79,9.96,-0.03,-0.01,-0.01,31.35,22.949701,14.798267418250003,46.88094560076684,9.999284974436923,0.033166247903554,0.6458865496120718,0.05982433783988171
24908182,1968.0,1,185325.0,227828,0.42,-0.79,9.96,-0.03,-0.01,-0.0,31.35,22.9897,12.060926288670554,178.41796864091657,10.000104999448757,0.03162277660168379,0.5256574204105121,0.24090064634142117
24948183,1968.0,1,185492.0,228342,0.41,-0.78,9.92,-0.03,-0.01,-0.0,31.35,23.029701,9.290008844753006,438.76016768645934,9.959061200735741,0.03162277660168379,0.4039535568431673,0.5992925519872602
24988182,1965.0,1,185721.0,228875,0.41,-0.8,9.95,-0.03,-0.01,-0.0,31.35,23.0697,10.75490301872922,748.1987184400956,9.990525511703575,0.03162277660168379,0.4682944418744228,1.0252714070920452
25028183,1958.0,1,185720.0,229015,0.42,-0.81,9.95,-0.03,-0.01,-0.0,31.35,23.109701,3.488366885071258,916.3502194419046,9.991746594064523,0.03162277660168379,0.1491346184162524,1.2567518858703022
25068183,1947.0,1,185763.0,228965,0.41,-0.77,9.98,-0.03,-0.01,-0.01,31.35,23.149701,-4.969373899381503,756.5917376285593,10.018053703190056,0.033166247903554,-0.22234513561918953,1.0368253931615468
25108184,1945.0,1,185655.0,226425,0.43,-0.77,9.96,-0.03,-0.01,-0.01,31.35,23.189702,-6.158727378302875,229.29703504204767,9.998969946949536,0.033166247903554,-0.2745837592742293,0.3109417139510279
25148182,1947.0,1,183985.0,222214,0.43,-0.8,9.97,-0.03,-0.01,-0.0,31.35,23.2297,-1.3558405450680513,-491.37634132562596,10.011283633980211,0.03162277660168379,-0.0636320092809152,-0.6811506385432708
25188182,1952.0,1,183471.0,221601,0.42,-0.79,9.93,-0.03,-0.01,-0.01,31.35,23.2697,2.8623566804328604,-1094.9228636517469,9.970225674476982,0.033166247903554,0.12163908234233672,-1.5120039887699777
25228182,1942.0,1,183498.0,222234,0.43,-0.78,9.93,-0.03,-0.01,-0.01,31.35,23.3097,-1.737144716424945,-1313.3861204052282,9.96986459286183,0.033166247903554,-0.08037959984892193,-1.812744564783088
25268184,1941.0,1,183735.0,223340,0.42,-0.78,9.98,-0.03,-0.01,-0.01,31.35,23.349702,-7.0220365918246355,-1073.4047747117513,10.019241488256485,0.033166247903554,-0.31250191052392434,-1.4823817879537642
25308182,1936.0,1,184114.0,225249,0.41,-0.76,9.96,-0.03,-0.01,-0.01,31.35,23.3897,-3.032783786981365,-519.374207894726,9.997364652747244,0.033166247903554,-0.13728648497523752,-0.7196930215703204
25348184,1949.0,1,184682.0,226677,0.44,-0.79,9.97,-0.03,-0.01,-0.01,31.35,23.429702,1.9773772025597962,88.96444692190933,10.01092403327485,0.033166247903554,0.08276913265423326,0.11775726723061415
25389181,1936.0,1,184983.0,227239,0.44,-0.79,9.98,-0.03,-0.01,-0.01,31.35,23.470699,0.7176349795991465,521.4412669870034,10.020883194609146,0.033166247903554,0.0274389040435722,0.7131128886359152
25429183,1947.0,1,185108.0,227441,0.4,-0.78,9.95,-0.03,-0.01,-0.0,31.35,23.510701,1.639018835136606,679.7239840041675,9.988538431622516,0.03162277660168379,0.06790780191479358,0.9310078161219466
25469182,1941.0,1,185020.0,227319,0.42,-0.79,9.98,-0.03,-0.01,-0.0,31.35,23.5507,7.706024941645866,617.8860946303815,10.020024950068738,0.03162277660168379,0.33438202873438616,0.8458806293076768
25509183,1949.0,1,184986.0,226733,0.41,-0.77,9.92,-0.03,-0.01,-0.0,31.35,23.590701,6.374710741189166,487.6927458575169,9.958282984531017,0.03162277660168379,0.2759082253472391,0.6666540477539202
25549867,1932.0,1,184726.0,226044,0.42,-0.78,9.97,-0.03,-0.01,-0.01,31.39,23.631385,-1.2805856298708886,440.46032011061857,10.009280693436468,0.033166247903554,-0.06032667300969856,0.601633013385438
25588183,1937.0,1,184691.0,225923,0.41,-0.78,9.96,-0.03,-0.01,-0.0,31.39,23.669701,-2.11405080397338,530.9105233265328,9.998904940042186,0.03162277660168379,-0.09693401837098506,0.7261484427528228
25628181,1935.0,1,184695.0,226228,0.42,-0.77,9.94,-0.03,-0.01,-0.0,31.39,23.709699,0.4252615107358716,675.782960064564,9.978622149375132,0.03162277660168379,0.014597315838425324,0.9255825293836131
25668183,1938.0,1,184862.0,226950,0.42,-0.79,9.96,-0.03,-0.01,-0.01,31.39,23.749701,2.0537222003239544,704.2149267515222,10.000104999448757,0.033166247903554,0.08612234738545309,0.9647225026939538
25708183,1938.0,1,185000.0,226169,0.42,-0.78,9.97,-0.03,-0.01,-0.01,31.39,23.789701,2.138703806147835,481.09445021906225,10.009280693436468,0.033166247903554,0.08985489805513346,0.6575707114505854
25748183,1935.0,1,184035.0,222174,0.4,-0.8,9.9,-0.03,-0.01,-0.0,31.39,23.829701,0.6393978354512644,17.81245563020715,9.940321926376429,0.03162277660168379,0.024002582713186203,0.019808114757378693
25788181,1936.0,1,183049.0,221071,0.43,-0.79,9.94,-0.03,-0.01,-0.0,31.39,23.869699,-0.2865000599305784,-521.7328244063377,9.980611203728957,0.03162277660168379,-0.016664580209404475,-0.7229399368586729
25828183,1930.0,1,183058.0,221222,0.39,-0.79,9.96,-0.03,-0.01,-0.01,31.39,23.909701,-4.482946958879693,-928.6355259672216,9.998889938388162,0.033166247903554,-0.2009803569130381,-1.2830897518309836
25868182,1931.0,1,183004.0,220813,0.41,-0.78,9.98,-0.03,-0.01,-0.0,31.39,23.9497,-5.394861409484337,-1079.6200446126227,10.018827276682636,0.03162277660168379,-0.24103334085346478,-1.490937843914123
25908183,1929.0,1,182874.0,220848,0.43,-0.79,9.96,-0.03,-0.01,-0.0,31.39,23.989701,-6.086088840809666,-989.3684922039356,10.000529985955746,0.03162277660168379,-0.27139333919289105,-1.366695880936825
25948181,1925.0,1,183022.0,221570,0.43,-0.78,9.95,-0.03,-0.01,-0.01,31.39,24.029699,-12.473296168073855,-763.2551088153573,9.989784782466536,0.033166247903554,-0.5519314009962352,-1.0554239985383647
25988184,1924.0,1,183255.0,222073,0.42,-0.79,9.92,-0.03,-0.01,-0.0,31.39,24.069702,-11.043611988804704,-507.6708950894128,9.960266060703399,0.03162277660168379,-0.48913700462036774,-0.7035820238371723
26028182,1936.0,1,183425.0,222633,0.43,-0.79,9.98,-0.03,-0.01,-0.0,31.39,24.1097,-3.7511829483117145,-266.58633034925913,10.020449091732367,0.03162277660168379,-0.16883991638813145,-0.3717005351819024
26068183,1935.0,1,183723.0,223485,0.41,-0.77,10.0,-0.03,-0.01,-0.01,31.39,24.149701,0.16656086930592137,-15.934122505734775,10.037977884016282,0.033166247903554,0.003234701034260805,-0.02664805136362227
26108181,1934.0,1,183982.0,224454,0.41,-0.8,9.96,-0.03,-0.01,-0.0,31.39,24.189699,-7.822097994204663,292.0482978246321,10.000484988239322,0.03162277660168379,-0.3476420999130005,0.3973262675607907
26148183,1920.0,1,184328.0,225430,0.44,-0.78,9.96,-0.03,-0.01,-0.01,31.39,24.229701,-15.896793092637335,664.6858561388017,10.00017999838003,0.033166247903554,-0.702297772807454,0.910306050051086
26188226,1936.0,1,184530.0,226044,0.44,-0.79,9.95,-0.03,-0.01,-0.0,31.39,24.269744,-6.375413243683834,1023.8223101028285,9.991005955358048,0.03162277660168379,-0.2841010067314512,1.4046999615834252
26228183,1936.0,1,184675.0,226326,0.4,-0.77,9.96,-0.03,-0.01,-0.01,31.39,24.309701,-2.425581258357707,1215.707246240352,9.99772474115986,0.033166247903554,-0.11061701711953645,1.6688523278889238
26268182,1941.0,1,184619.0,225943,0.41,-0.78,9.96,-0.03,-0.01,-0.01,31.39,24.3497,-1.0423807856944483,1088.1276791794958,9.998904940042186,0.033166247903554,-0.049864271857918606,1.4932239267766907
26308184,1945.0,1,184482.0,224482,0.43,-0.8,9.98,-0.03,-0.01,-0.01,31.39,24.389702,4.24893815454093,599.983130967795,10.021242437941515,0.033166247903554,0.18254032749501536,0.8212350770796257
26348182,1939.0,1,183329.0,220078,0.43,-0.77,9.92,-0.03,-0.01,-0.01,31.39,24.4297,-3.3687971102856347,-114.23074891522573,9.95912646771794,0.033166247903554,-0.15204481700205405,-0.16196501260390073
