timestamp_us,ecg,leads,ir,red,accX,accY,accZ,gyroX,gyroY,gyroZ,temp,time_sec,ecg_filtered,ppg_filtered,accel_magnitude,gyro_magnitude,ecg_norm,ppg_norm
2448967,1600,1,194941.0,237913,0.67,-1.06,9.87,-0.02,0.01,0.01,27.99,0.030471,-4.205534260001326,86.98171410643197,9.949341686765008,0.024494897427831782,-0.023281077549771028,0.16242893226222416
2489175,1600,1,194798.0,237469,0.8,-1.43,10.43,-0.02,-0.02,0.01,27.99,0.070679,-32.70010831721382,-58.2966246646423,10.557925932682043,0.030000000000000002,-0.2752113486675937,-0.10613861924950727
2529178,1600,1,194778.0,237700,0.33,-1.13,9.14,-0.04,0.06,0.01,27.99,0.110682,-64.03728781788256,-102.24990592248416,9.215497816179004,0.07280109889280519,-0.5522740663562281,-0.18739247462932515
2569171,1600,1,194988.0,237251,0.42,-0.92,10.86,-0.03,0.0,0.01,27.99,0.150675,-90.76178540117263,22.110401973647555,10.90698858530621,0.03162277660168379,-0.7885544862048518,0.04250513900968135
2609167,1600,1,195468.0,238368,1.33,-1.09,10.5,0.0,-0.03,0.01,27.99,0.190671,-121.31456975846692,321.9250188077551,10.639877818847356,0.03162277660168379,-1.0586820982576886,0.5967548518828869
2649171,1600,1,195743.0,238679,1.38,-1.31,8.63,-0.02,-0.05,0.0,27.99,0.230675,-150.59023743528851,734.9274000244278,8.837273335141333,0.05385164807134505,-1.3175182851109568,1.3602481519175171
2689178,1600,1,196031.0,239410,0.96,-1.5,9.92,-0.06,-0.04,0.01,27.99,0.270682,-175.36141661179386,1135.5991368240952,10.078591171388986,0.07280109889280519,-1.5365287491142094,2.100946512199599
2729181,1600,1,196384.0,239463,0.99,-0.95,10.22,-0.03,-0.01,0.0,27.99,0.310685,-209.64943516199588,1367.9502339581877,10.311692392619166,0.03162277660168379,-1.8396808436884693,2.5304803695952227
2769178,1600,1,196501.0,239850,0.85,-0.86,10.06,-0.03,0.02,0.0,27.99,0.350682,-228.90227658765352,1314.088234289979,10.132408400770274,0.03605551275463989,-2.0099017969975312,2.4309088471454032
2809171,1600,1,196495.0,238512,0.47,-1.8,9.24,-0.05,0.03,0.01,27.99,0.390675,-262.66563158721596,973.9167057770712,9.425417762624637,0.05916079783099616,-2.308415161745794,1.80205367658432
2849169,1600,1,195518.0,235383,0.39,-0.57,10.33,-0.04,-0.01,0.01,27.99,0.430673,-285.1197237830684,493.0436974648966,10.35306234888982,0.042426406871192854,-2.506939467574954,0.9130919254867429
2889180,1722,1,195074.0,235603,0.32,-1.31,10.2,-0.04,0.07,0.01,27.99,0.470684,-185.0519916997607,92.78743956559931,10.28875599866184,0.08124038404635961,-1.622206436532778,0.17316163670052923
2929168,1894,1,195040.0,235611,1.02,-1.51,9.11,-0.03,-0.02,0.01,27.99,0.510672,-47.34418891644061,-63.14625753032313,9.290457469898884,0.03741657386773942,-0.4046846718422782,-0.11510385133767902
2969180,2014,1,195468.0,236397,1.02,-1.7,9.9,-0.05,-0.06,0.0,27.99,0.550684,66.63904819982949,35.54309434272909,10.096553867533219,0.07810249675906655,0.603080096703911,0.06733737023073959
3009178,2156,1,195646.0,237250,0.49,-1.75,9.9,-0.06,0.03,0.01,27.99,0.590682,166.63216478407668,260.3920388009098,10.065416037104477,0.06782329983125268,1.4871534266089452,0.4830024376038413
3049172,2156,1,195669.0,237838,1.08,-1.81,9.7,-0.04,-0.03,-0.01,27.99,0.630676,166.61185718260347,444.3455098887654,9.926353811949278,0.05099019513592785,1.4869738801614487,0.8230664398498944
3089201,2156,1,195664.0,237735,0.3,-1.33,9.59,-0.06,0.07,-0.01,27.99,0.670705,130.96570927065142,478.4650325861054,9.686433812296453,0.09273618495495704,1.171814099575397,0.8861412020414761
3127180,2156,1,195478.0,237337,0.65,-0.93,9.72,-0.04,-0.05,-0.0,27.99,0.708684,124.68749817998551,343.32236004308504,9.786000204373593,0.06403124237432849,1.1163062888942954,0.6363108627310626
3167197,2156,1,195311.0,237099,0.78,-1.2,9.5,-0.04,-0.04,-0.0,27.99,0.748701,103.63734795445605,85.05322749795593,9.60720562910985,0.0565685424949238,0.9301947140119816,0.15886385207929538
3207201,2156,1,195224.0,236391,0.4,-1.28,9.4,-0.04,0.07,-0.01,27.99,0.788705,89.83160668401509,-218.90351614804428,9.495177723455207,0.08124038404635961,0.8081334354590447,-0.4030431679006087
3247178,2156,1,194941.0,235715,0.69,-1.33,9.8,-0.05,0.03,-0.01,27.99,0.828682,79.71931813917541,-483.7158761074332,9.913879160046285,0.05916079783099616,0.718727235190602,-0.8925862596371225
3287180,2156,1,194310.0,234751,0.91,-1.61,8.75,-0.04,-0.04,-0.0,27.99,0.868684,65.64596057814889,-644.3569418208074,8.943304758309425,0.0565685424949238,0.5942998695185034,-1.1895539841845486
3327198,2156,1,194397.0,235055,0.75,-2.36,9.11,-0.07,-0.01,-0.0,27.99,0.908702,59.33454130820266,-691.2655902831355,9.440561423983215,0.07071067811865477,0.5384984539709938,-1.2762712537294862
3367200,2156,1,194443.0,234823,1.05,-1.39,10.13,-0.05,-0.06,-0.01,27.99,0.948704,50.59566129587589,-682.9520502300207,10.278691550970873,0.07874007874011811,0.4612350280867826,-1.2609024994103855
3407200,2156,1,194931.0,234900,0.1,-2.2,10.74,-0.06,0.08,-0.0,27.99,0.988704,45.484957253544124,-703.6835806893238,10.963466605047875,0.1,0.4160495463735827,-1.2992276648937238
3448182,2156,1,194208.0,232240,0.73,-1.82,9.32,-0.02,-0.03,-0.01,27.99,1.029686,42.219467375723944,-789.916021699661,9.524059008637021,0.03741657386773942,0.38717823394055795,-1.4586405253306798
3488887,2156,1,194075.0,232215,0.13,-1.31,11.07,-0.05,0.05,-0.01,28.07,1.070391,39.727991506386516,-893.8075006134599,11.147999820595622,0.07141428428542851,0.3651502439805952,-1.6506986143124012
3527184,2156,1,194017.0,232846,0.59,-1.42,9.47,-0.02,-0.04,-0.01,28.07,1.108688,40.04026041402638,-920.9974954816322,9.594029393325831,0.0458257569495584,0.3679111201532104,-1.7009631644795697
3567201,2156,1,194489.0,233595,-0.03,-1.3,10.5,-0.03,0.02,-0.01,28.07,1.148705,41.18652542141819,-805.7944074951845,10.580212663269108,0.03741657386773942,0.3780456409747981,-1.487993966670494
3607201,2156,1,194465.0,233740,0.38,-1.33,10.13,-0.01,-0.0,-0.01,28.07,1.188705,44.815450454345964,-557.1943062323224,10.224001173708855,0.01414213562373095,0.4101302078672917,-1.028421527540781
3647233,2156,1,194659.0,235205,0.68,-1.33,10.56,-0.0,0.0,-0.01,28.07,1.228737,48.36528851688187,-247.16668884692754,10.665125409483004,0.01,0.44151553981587266,-0.4552916390347212
3687180,2156,1,194909.0,235593,0.77,-1.54,9.1,-0.02,-0.02,-0.02,28.07,1.268684,56.4985375777265,37.810838821583495,9.261452369903976,0.034641016151377546,0.5134243754016681,0.0715296165579769
3727197,2156,1,195372.0,236492,0.13,-2.3,9.31,-0.07,0.05,-0.01,28.07,1.308701,60.748009826705136,245.72172835146117,9.590776819423962,0.08660254037844388,0.5509954123872822,0.4558822943625706
3767180,2128,1,195146.0,235396,0.74,-1.33,8.81,-0.05,-0.06,-0.02,28.07,1.348684,45.62051296993348,382.1452312170791,8.940503341535084,0.0806225774829855,0.4172480408066973,0.7080804296331515
3807198,2091,1,195396.0,236773,-0.13,-1.6,11.52,-0.07,0.1,-0.02,28.07,1.388702,13.427709880377472,496.1505968506373,11.63130689131707,0.12369316876852983,0.1326204624435229,0.9188354683154956
3847218,2046,1,195369.0,237224,0.14,-1.02,10.23,0.0,0.09,-0.02,28.07,1.428722,-15.460136396671304,636.9809071916602,10.281677878634401,0.09219544457292887,-0.12278686282389094,1.1791802103250073
3887167,2031,1,195617.0,238511,0.45,-1.37,11.96,-0.02,0.01,-0.025,28.07,1.468671,-24.38002968973477,809.4795331976467,12.046617782597737,0.03354101966249685,-0.2016506890088878,1.4980683117271534
3927180,2003,1,195834.0,238973,0.26,-2.6125000000000003,11.02,0.0,-0.02,-0.025,28.07,1.508684,-34.289067833754295,958.658277296946,11.32842249609362,0.032015621187164243,-0.289259882995341,1.773846314003712
3967178,1989,1,195555.0,238752,0.11,-1.28,8.44,-0.03,-0.08,-0.025,28.07,1.548682,-41.638319409635514,993.1183495916262,8.53721851658958,0.08902246907382427,-0.35423712877930436,1.8375506302795406
4007200,1968,1,195765.0,238000,0.23,-1.83,11.37,-0.08,0.07,-0.025,28.07,1.588704,-42.12210294288547,831.7013219166804,11.518624049772612,0.10920164833920779,-0.35851442439527964,1.5391484303254683
4047181,1937,1,194888.0,236676,0.92,-1.76,9.76,-0.03,-0.15500000000000003,-0.025,28.07,1.628685,-67.53007196940297,448.01282709617254,9.959999999999999,0.15984367363145785,-0.5831549651716237,0.8298459942648315
4087217,1904,1,194660.0,233910,0.05,-1.99,9.04,-0.11,0.03,-0.025,28.07,1.668721,-78.05354314382294,-105.23202599354647,9.256576040847932,0.11672617529928753,-0.6761965716455114,-0.1929053452511543
4127178,1920,1,193863.0,233444,0.84,-1.49,10.45,-0.05,-0.11,-0.025,28.07,1.708682,-56.20123340842611,-698.7674180888916,10.589060392688296,0.12338962679253067,-0.4829928302898592,-1.2901394431835889
4167201,1917,1,193703.0,231842,0.24,-1.8,8.9,-0.08,-0.02,-0.025,28.07,1.748705,-39.12138580599949,-1158.3803301030198,9.083369418888566,0.08616843969807043,-0.3319840582867808,-2.1397989001059328
4207197,1917,1,193227.0,230978,0.5,-1.08,9.77,-0.05,-0.01,0.015,28.07,1.788701,-28.748564795445617,-1325.6127746799382,9.842220277965739,0.05315072906367325,-0.2402744014167203,-2.4489517205007014
4247180,1879,1,193372.0,231604,0.54,-1.59,9.95,-0.07,0.02,0.015,28.07,1.828684,-53.235278871929665,-1133.1309069912863,10.090698687405148,0.07433034373659253,-0.45676981221622864,-2.093121771226537
4287171,1840,1,193855.0,233026,0.73,-1.36,8.71,-0.02,0.0,-0.025,28.07,1.868675,-77.10869282509944,-654.1363542418037,8.84571082502701,0.032015621187164243,-0.6678428269471757,-1.2076326108493887
4327180,1840,1,194629.0,235078,0.07,-1.79,9.33,-0.06,0.08,-0.025,28.07,1.908684,-67.21589668699703,-78.93206979922114,9.50041578037509,0.10307764064044152,-0.58037723408794,-0.14428615742367004
4367178,1817,1,195178.0,236176,0.6,-1.62,10.09,-0.01,0.01,-0.025,28.07,1.948682,-77.38381297298653,385.96059851430937,10.23682079553999,0.028722813232690145,-0.6702752582341992,0.7151336755733446
4407180,1807,1,195278.0,236595,0.74,-2.15,9.47,-0.01,-0.05,-0.025,28.07,1.988684,-73.67513597330974,634.2510909577094,9.739147806661526,0.05678908345800274,-0.6374855769376467,1.1741337590217307
4447200,1825,1,195290.0,236333,0.6,-2.58,8.0,-0.04,-0.03,-0.0,28.07,2.028704,-51.34507394345865,705.5381479168677,8.427122877945948,0.05,-0.44005786421020426,1.305917963769331
4486201,1811,1,195369.0,236944,0.28,-1.75,9.06,-0.06,0.06,-0.02,28.07,2.067705,-46.2917031952218,725.5564311042816,9.231711650609546,0.08717797887081347,-0.395379285751512,1.3429245908177307
4526870,1834,1,195484.0,238143,0.39,-1.34,10.63,-0.03,0.11,-0.025,27.93,2.108374,-24.610157981474135,791.53412458186,10.72122194528217,0.11672617529928753,-0.20368533191365182,1.4648936864279622
4567180,1843,1,195597.0,238822,0.23,-1.97,9.22,-0.01,0.03,-0.025,27.93,2.148684,1.9457512388020541,894.9286372858882,9.430917240650562,0.04031128874149275,0.031104540579671096,1.656033063100118
4607181,1866,1,195853.0,239407,0.5,-2.6125000000000003,10.14,-0.0,-0.03,-0.025,27.93,2.188685,25.68657366651934,937.9900806075531,10.483069982118788,0.03905124837953328,0.24100526830298985,1.7356382299494197
4647200,1887,1,195840.0,239064,0.8,-1.98,9.94,0.0,-0.07,-0.025,27.93,2.228704,56.4195616220099,821.4312080043838,10.166808742176672,0.07433034373659253,0.5127261219764537,1.520162672568984
4687178,1903,1,195363.0,237975,0.28,-2.25,10.91,-0.01,0.02,-0.025,27.93,2.268682,77.92229573349924,525.2924438910247,11.143114465893277,0.03354101966249685,0.7028391457263481,0.9727082932140451
4727180,1904,1,194900.0,237665,0.23,-2.6125000000000003,9.73,-0.02,0.02,-0.025,27.93,2.308684,82.19101161803982,119.69703300876641,10.077249438710943,0.03774917217635375,0.7405803222730829,0.22290782518493715
4767180,1883,1,194720.0,237091,0.25,-1.83,10.37,-0.02,-0.06,-0.025,27.93,2.348684,66.80938582707361,-288.9915711862635,10.53319989366954,0.06800735254367722,0.6045861099023191,-0.5326108480590072
4807200,1874,1,194625.0,236920,0.13,-1.68,10.0,-0.01,-0.03,-0.025,27.93,2.388704,61.00557320018891,-616.5979034514219,10.14097135386941,0.04031128874149275,0.5532726182294017,-1.138237476642886
4847198,1868,1,194464.0,236211,0.12,-1.63,9.73,-0.02,-0.03,-0.025,27.93,2.428702,54.81206135583337,-817.0380800232692,9.866316435225459,0.04387482193696061,0.49851366254236307,-1.5087794851890242
4887200,1813,1,194446.0,236316,0.5,-1.74,9.33,-0.03,-0.07,-0.025,27.93,2.468704,7.24754808939942,-865.9731523578724,9.504025462928853,0.08015609770940699,0.07797953914258265,-1.599242885797309
4927200,1782,1,194514.0,236192,0.24,-1.45,9.01,-0.02,-0.04,-0.025,27.93,2.508704,-31.147429525616964,-754.3132992507063,9.129085386828189,0.051234753829797995,-0.2614835846329221,-1.392823858674444
4967200,1788,1,194989.0,237573,0.26,-1.67,10.6,-0.03,0.01,-0.025,27.93,2.548704,-14.409767454707188,-507.8012514996168,10.733894912845011,0.04031128874149275,-0.11350019190221136,-0.9371114817110934
5007180,1812,1,195194.0,238002,0.33,-1.36,9.42,0.0,-0.07,-0.025,27.93,2.588684,-1.60551321323353,-203.36872873838024,9.52338700253224,0.07433034373659253,-0.0002934025661382173,-0.3743249167617167
5047180,1789,1,195967.0,239545,0.2,-1.74,10.82,-0.02,-0.03,-0.025,27.93,2.628684,-14.732452519624282,55.118826452058514,10.960839383915815,0.04387482193696061,-0.11635316088244635,0.10352587903477171
5087205,1813,1,196073.0,239435,0.44,-1.47,9.52,0.01,-0.1,-0.025,27.93,2.668709,-1.0763512142798393,197.42793062955135,9.642867830681908,0.10356157588603991,0.004385099579357396,0.3666043805517983
5127180,1831,1,196216.0,239803,0.38,-1.82,10.42,-0.04,-0.06,-0.025,27.93,2.708684,22.857455606895822,232.03762599556165,10.584573680597627,0.07632168761236874,0.2159920683037825,0.43058529623161745
5167200,1844,1,196173.0,239082,0.45,-1.57,9.71,-0.03,-0.03,-0.025,27.93,2.748704,27.920299874516296,226.4608392219701,9.846395279491883,0.04924428900898052,0.26075440538620304,0.42027581732542896
5207201,1838,1,196206.0,239923,0.61,-2.03,10.37,-0.07,-0.01,0.015,27.93,2.788705,25.081133345456145,233.4720361494629,10.584417792207562,0.07228416147400481,0.2356523634332817,0.4332370062260707
5247180,1829,1,196553.0,239902,0.46,-1.71,9.67,-0.02,-0.03,-0.025,27.93,2.828684,8.323193274438244,233.1020154200255,9.830798543353433,0.04387482193696061,0.08748968597086346,0.43255297058693676
5287201,1811,1,196843.0,241049,0.58,-1.89,10.73,-0.05,-0.04,0.015,27.93,2.868705,-6.350565617634455,150.72301065214705,10.91060951551287,0.06576473218982953,-0.04224603313744583,0.2802637319183608
5327181,1808,1,196780.0,238690,0.8,-2.03,10.13,-0.02,-0.08,-0.025,27.93,2.908685,-18.043690965848892,-65.48267879117152,10.36232599371396,0.08616843969807043,-0.14562895204950094,-0.11942305640729907
5367200,1795,1,195929.0,236480,0.21,-1.81,11.05,-0.05,0.01,0.015,27.93,2.948704,-28.249672299151715,-387.2852921263448,11.199227651941005,0.05315072906367325,-0.23586352229294003,-0.7143206899057886
5407171,1803,1,195927.0,236310,0.78,-1.96,10.0,-0.02,-0.04,-0.02,27.93,2.988675,-26.405772964911726,-723.5269115037296,10.220078277586722,0.048989794855663564,-0.21956097787671733,-1.3359108677424292
5447201,1796,1,196137.0,237700,-0.17,-2.11,10.88,-0.04,0.01,0.015,27.93,3.028705,-35.33285635080079,-981.3092206271748,11.084015517852725,0.04387482193696061,-0.2984883741305729,-1.8124579164625954
5487180,1797,1,196248.0,235707,0.73,-0.91,9.25,0.01,-0.06,-0.025,27.93,3.068684,-33.87750469482214,-1102.2826594067658,9.323277320770845,0.06576473218982952,-0.28562111257662565,-2.0360944236378686
5527867,1808,1,196194.0,235643,-0.14,-1.28,11.17,-0.04,-0.01,0.015,27.69,3.109371,-30.988696489064605,-1054.554100635141,11.243971718214166,0.04387482193696061,-0.2600801715882597,-1.9478614339512377
5566201,1775,1,196320.0,235194,0.49,-2.18,7.9,-0.02,-0.01,0.015,27.69,3.147705,-58.032296339818345,-822.3517680950421,8.20990255727801,0.026925824035672518,-0.4991818836799265,-1.5186025889428596
5606180,1795,1,197091.0,236385,0.22,-1.31,9.78,-0.04,0.06,0.01,27.69,3.187684,-48.34341264803205,-426.38045798113836,9.869797363674696,0.07280109889280519,-0.4135191504732537,-0.7865936320276838
5646172,1825,1,197552.0,238492,0.45,-1.67,8.99,-0.01,-0.03,-0.02,27.69,3.227676,-11.708611415755671,49.935048585417505,9.154862096175998,0.03741657386773942,-0.08961834787610802,0.09394293266436846
5686201,1820,1,198330.0,239925,0.3,-2.19,9.79,-0.05,-0.01,-0.025,27.69,3.267705,-24.61422818789022,475.8962330260363,10.03644359322564,0.05678908345800274,-0.20372131800012044,0.8813924128275569
5726198,1792,1,198655.5,240915,0.41,-1.96,8.61,-0.04,-0.05,-0.02,27.69,3.307702,-48.05093548225746,736.8594461478034,8.839785065260353,0.0670820393249937,-0.41093325985697643,1.3638198123670517
5766201,1807,1,198655.5,241589,0.17,-1.54,9.94,-0.05,0.09,-0.025,27.69,3.347705,-37.69819667806583,797.536735984927,10.060024850863938,0.10594810050208546,-0.31940115663917706,1.4759903623731518
5806180,1815,1,198655.5,242417,0.45,-1.62,10.67,-0.03,0.05,-0.02,27.69,3.387684,-26.136257437026224,711.8785846575664,10.801657280251026,0.061644140029689765,-0.21717809895126552,1.3176391576194875
5846181,1825,1,198655.5,242194,0.7,-1.7,9.55,-0.0,0.01,-0.025,27.69,3.427685,-19.856551251674507,573.6367549479562,9.725353464013532,0.026925824035672525,-0.16165706962689555,1.0620795880671683
5886178,1849,1,198655.5,242307,0.55,-1.59,10.66,0.0,-0.01,-0.02,27.69,3.467682,9.703523041627104,452.00474462753823,10.791950704112764,0.022360679774997897,0.09969365335713395,0.8372256182769495
5926180,1886,1,198612.0,243029,0.36,-1.94,10.47,0.01,-0.0,-0.01,27.69,3.507684,40.68268963016785,362.424178437772,10.654299601569313,0.01414213562373095,0.3735910564902677,0.6716232750223867
5966181,1879,1,198655.5,243102,0.43,-1.04,10.63,0.01,-0.02,-0.02,27.69,3.547685,43.945919509183945,285.295394761457,10.689405970398917,0.03,0.40244238750120503,0.529039812420526
6006181,1907,1,198616.0,240729,0.25,-0.77,11.95,0.01,-0.02,-0.01,27.69,3.587685,61.45997933009112,204.6450642773444,11.977391201760089,0.024494897427831782,0.5572901781786751,0.379946272599277
6046181,1936,1,198402.0,240220,0.23,-1.48,11.54,-0.01,0.05,0.015,27.69,3.627685,106.17995454732933,129.228163171828,11.636790794716557,0.05315072906367325,0.9526747681795712,0.24052746698898234
6086172,1981,1,198566.0,239816,1.39,-1.27,11.11,0.01,-0.09,0.01,27.69,3.667676,136.61134762028968,82.23271004604568,11.268411600576187,0.09110433579144298,1.2217291183857073,0.1536497267495083
6126171,1983,1,198548.0,239346,0.42,-1.36,10.0,-0.02,0.03,0.01,27.69,3.707675,157.15571479894393,76.58053991104066,10.10079204815147,0.03741657386773942,1.403368892430773,0.1432008910405728
6166172,1989,1,198588.0,238710,0.97,-1.01,8.91,-0.01,-0.08,0.015,27.69,3.747676,148.60778262032198,102.18801504502527,9.019373592439777,0.08200609733428363,1.327793701626617,0.19053992971149894
6206178,1939,1,198655.5,239555,0.87,-1.04,10.43,-0.02,-0.02,0.015,27.69,3.787682,113.97726590391873,135.2964337344687,10.517765922476123,0.032015621187164243,1.0216134636698597,0.25174552317482046
6246180,1958,1,198655.5,240495,1.11,-0.5,8.37,0.01,-0.1,-0.025,27.69,3.827684,123.95013264617043,158.33858589160388,8.45807306660329,0.10356157588603991,1.1097869881153475,0.29434219958749636
6286180,1955,1,198655.5,241185,0.41,-1.57,9.94,-0.05,0.09,0.015,27.69,3.867684,128.87645058028394,171.57462867799504,10.07157385913443,0.10404326023342406,1.1533422492068768,0.3188108962487866
6326172,1938,1,198655.5,240695,1.31,-0.63,7.4125000000000005,-0.01,-0.06,-0.0,27.69,3.907676,108.7565017843228,187.44859167420103,7.553684945111228,0.0608276253029822,0.975454903185637,0.34815616141868067
6366198,1953,1,198655.5,241674,0.26,-1.44,10.04,-0.07,0.04,-0.025,27.69,3.947702,126.82964441108078,214.5450498924804,10.146073132005307,0.08440971508067066,1.1352457360918664,0.3982477958624809
6406180,1956,1,198655.5,242179,1.455,-0.4,9.1,0.02,-0.15500000000000003,-0.025,27.69,3.987684,127.27729549420425,247.10437903753228,9.224262843176142,0.15827191791344417,1.1392035723631173,0.4584383196619738
6446178,1915,1,198655.5,243692,0.54,-1.35,10.8,-0.04,-0.05,0.0,27.69,4.027682,88.95398061430647,271.34104330175694,10.897435478129706,0.06403124237432849,0.8003740433292369,0.5032432206080928
6486181,1855,1,198655.5,244630,1.22,-1.89,8.6,-0.01,-0.11,0.01,27.69,4.067685,24.783595798735117,284.4219630816436,8.889347557610739,0.11090536506409417,0.2330217322589867,0.5274251504575344
6526182,1778,1,198655.5,244923,0.06,-1.81,10.69,-0.06,0.03,0.0,27.69,4.107686,-52.05734206398969,307.2952190200362,10.84231525090467,0.0670820393249937,-0.44635527017786936,0.5697095983280134
6566858,1742,1,198655.5,244875,0.84,-1.75,9.88,-0.02,-0.06,0.01,27.29,4.148362,-89.18177304516166,371.8526475520484,10.0688877240736,0.06403124237432849,-0.7745850567822492,0.6890531333615252
6605181,1687,1,198655.5,244172,0.0,-1.53,11.96,-0.04,-0.02,0.0,27.29,4.186685,-151.86590038084367,482.0181646082492,12.057466566406063,0.044721359549995794,-1.3287968573431086,0.8927096689957188
6645180,1600,1,198589.0,243233,1.05,-0.5,9.73,0.01,-0.1,0.01,27.29,4.226684,-234.45245771539845,577.1165779057909,9.799255073728819,0.10099504938362078,-2.058972845873655,1.0685125328501661
6685168,1600,1,198655.5,244067,0.24,-0.88,11.69,-0.04,0.08,0.015,27.29,4.266672,-248.03351476533578,538.8467613361405,11.725531970874497,0.09069178573608527,-2.1790476144168713,0.997765365585885
6725172,1600,1,198486.0,242472,1.3,-0.53,9.21,0.02,-0.08,0.015,27.29,4.306676,-244.4591190142044,258.47567994673517,9.316383418473073,0.08381527307120105,-2.1474451595475035,0.4794597772895978
6765167,1600,1,197648.0,241046,0.69,-1.33,10.31,-0.07,0.06,0.015,27.29,4.346671,-255.12343609475798,-271.38996200233254,10.41830600433679,0.09340770846134702,-2.241732032830673,-0.5000717846226901
6805172,1600,1,196959.0,238830,1.26,-1.05,8.35,-0.06,0.0,-0.0,27.29,4.386676,-260.08262907077955,-910.4779590820414,8.509559330541153,0.06,-2.2855779534072074,-1.681516313987092
6845178,1600,1,196633.0,238687,0.79,-1.26,10.68,-0.08,0.06,0.015,27.29,4.426682,-263.5962398811896,-1418.438942336544,10.783046879245216,0.10111874208078342,-2.3166429878341765,-2.6205540169933417
6885172,1600,1,196100.0,237292,1.455,-0.91,8.49,-0.01,-0.06,0.0,27.29,4.466676,-275.3959854956329,-1579.9131919346996,8.661710281462893,0.0608276253029822,-2.4209685729718697,-2.9190619997636222
6925192,1605,1,196295.0,239417,0.58,-0.76,9.08,-0.05,-0.02,0.015,27.29,4.506696,-273.1110766415805,-1332.008501413563,9.1301916737821,0.05590169943749475,-2.400766912616283,-2.4607751257207626
6965180,1678,1,196996.0,240860,1.3,-1.12,8.88,-0.01,-0.08,0.01,27.29,4.546684,-208.32857170699685,-808.7788468821061,9.044268903565396,0.08124038404635961,-1.8280026382989312,-1.4935111248756394
7005178,1781,1,197587.0,242656,0.85,-1.19,9.89,-0.05,0.02,0.015,27.29,4.586682,-117.32560149937828,-266.81043415374046,9.997534696113838,0.05590169943749475,-1.023414266109195,-0.49160587985133786
7045172,1863,1,197707.0,242363,0.8,-1.23,9.26,-0.02,-0.01,0.01,27.29,4.626676,-31.605821972978283,62.38199125209422,9.375526651874015,0.024494897427831782,-0.2655363889777152,0.1169528661759557
7085181,1959,1,197570.0,242629,0.78,-1.09,10.25,-0.05,-0.02,0.015,27.29,4.666685,40.448488925682135,95.67822071930938,10.337262693769565,0.05590169943749475,0.3715204079921149,0.17850565441834987
7125185,1981,1,197500.0,242383,0.29,-1.99,9.25,-0.04,0.04,0.01,27.29,4.706689,76.29619268217523,-76.90032684609419,9.466081554687769,0.05744562646538029,0.6884622127087485,-0.14053019328725216
7165171,2074,1,197262.0,241536,0.11,-0.89,9.64,-0.04,0.0,0.01,27.29,4.746675,140.81743758713964,-266.32078857580666,9.681621764973057,0.04123105625617661,1.2589165977832544,-0.4907007007648572
7205172,2132,1,197291.0,241561,0.45,-0.88,10.44,-0.03,0.02,0.01,27.29,4.786676,213.45806682450038,-299.7982986725124,10.486682030079866,0.03741657386773942,1.9011572356391964,-0.5525886118838662
7245172,2143,1,197448.0,241950,0.25,-0.91,10.81,-0.03,0.06,0.01,27.29,4.826676,202.8973683276044,-112.96731358135172,10.851115150066375,0.06782329983125268,1.8077864896798213,-0.20720511812348544
7285171,2127,1,197614.0,241983,0.52,-1.34,10.41,-0.02,-0.01,0.01,27.29,4.866675,191.9035039843956,218.4942191190177,10.508763009983621,0.024494897427831782,1.7105859763801288,0.4055483935885321
7325181,2150,1,197880.0,242233,0.05,-0.83,10.39,-0.05,0.04,0.01,27.29,4.906685,210.5813816046731,516.8378901073795,10.423219272374538,0.06480740698407861,1.8757234781141114,0.957078855074779
7365172,2137,1,198159.0,242763,0.37,-0.97,10.33,-0.07,0.05,0.015,27.29,4.946676,185.35517970344677,595.7989862647777,10.382037372308,0.0873212459828649,1.6526900026359876,1.1030496063861033
7405172,2102,1,198004.0,241135,0.44,0.08750000000000013,9.69,-0.03,-0.03,0.0,27.29,4.986676,168.1112741159652,368.8133358890326,9.70037918073309,0.042426406871192854,1.5002307378980133,0.6834345359951041
7445172,2112,1,197402.0,240327,0.41,-1.13,10.58,-0.08,0.05,0.015,27.29,5.026676,149.40147995386536,-90.52838799434348,10.648070247702163,0.09552486587271401,1.3348110511059808,-0.1657235913216617
7485171,2037,1,196705.0,235635,0.72,-0.51,8.87,-0.04,-0.05,-0.0,27.29,5.066675,108.03515144297931,-582.1960445580442,8.913775855382498,0.06403124237432849,0.9690771981986906,-1.0746407760707142
7525207,2090,1,196594.0,237663,-0.06,-2.3,11.75,-0.11,0.04,0.015,27.29,5.106711,127.3651998728817,-891.6912287282465,11.97314077424967,0.11800423721205947,1.1399807650282257,-1.6467863864926675
7565181,2072,1,196592.0,234830,0.76,-0.7,8.75,0.02,-0.14,0.01,27.29,5.146685,144.94764646119663,-903.6738268634385,8.810794515819785,0.14177446878757827,1.295433186496783,-1.6689379134796922
7605858,2073,1,197068.0,237824,0.55,-1.19,12.392499999999998,-0.1,0.06,0.015,27.47,5.187362,120.43593125102525,-642.1615529741597,12.461647413163316,0.11757976016304847,1.0787167321268232,-1.1854954974745002
7644172,2043,1,197254.0,237403,0.25,-0.89,8.99,0.01,-0.0,0.01,27.47,5.225676,118.15816060167205,-225.80541070191785,9.037405601166743,0.01414213562373095,1.0585781830794294,-0.4158022959083076
7684172,2037,1,197883.0,239823,0.21,-0.68,11.1,-0.04,0.02,0.0,27.47,5.265676,99.6392094422662,210.6563204146866,11.122791915701741,0.044721359549995794,0.894845804520645,0.39105892955813604
7724168,1985,1,197971.0,239306,0.72,-0.96,9.56,0.01,-0.1,0.01,27.47,5.305672,66.33680342581756,570.5571580031406,9.635019460281335,0.10099504938362078,0.600407847323805,1.056386517661019
7764172,1979,1,198432.0,242094,0.11,-1.58,10.08,-0.06,0.05,0.01,27.47,5.345676,58.50945124354497,807.775849847141,10.203670908060491,0.07874007874011811,0.5312035506231327,1.494918812153665
7804172,1969,1,198655.5,241817,0.64,-0.78,8.86,0.01,-0.08,-0.025,27.47,5.385676,61.45479984082289,918.6738187248365,8.917264154436605,0.08440971508067066,0.5572443845432631,1.6999293885482578
7844180,1968,1,198655.5,242529,0.47,-1.05,10.53,-0.05,-0.06,0.0,27.47,5.425684,63.82355107850707,934.8640194839898,10.592653114305216,0.07810249675906655,0.5781873240770233,1.7298592639388408
7884181,1931,1,198655.5,241653,0.39,-0.81,9.1,-0.03,0.02,-0.01,27.47,5.465685,40.22395527997397,912.8859413285398,9.144298770272108,0.03741657386773942,0.36953522926564036,1.6892296787778776
7924180,1915,1,198590.0,242706,0.54,-0.9,10.68,-0.03,-0.08,0.01,27.47,5.505684,23.653593808708635,906.0689070308138,10.731449109975783,0.08602325267042626,0.22303099833401363,1.6766274269528703
7964178,1879,1,198655.5,243253,0.53,-1.44,9.47,-0.03,0.01,0.01,27.47,5.545682,10.800483537950191,924.6568921448749,9.593508221709095,0.033166247903554,0.10939225613987201,1.7109899457691569
8004172,1857,1,198655.5,244256,0.06,-1.37,10.3,-0.04,-0.02,0.01,27.47,5.585676,-25.270425290113096,916.986319027487,10.39088542906715,0.0458257569495584,-0.20952298092506227,1.69680980674599
8044178,1853,1,198655.5,243520,0.02,-1.62,10.97,-0.01,0.05,-0.025,27.47,5.625682,8.062795899348597,800.2519687166963,11.088990035165512,0.05678908345800274,0.08518742375164284,1.4810098540105452
8084181,1855,1,198655.5,243364,0.48,-0.62,11.72,0.03,-0.1,0.0,27.47,5.665685,-16.064344262706147,528.5101480341308,11.746199385333114,0.1044030650891055,-0.1281288711373351,0.9786566743045315
8124168,1644,1,197986.0,240178,0.52,-1.21,9.55,-0.01,-0.0,0.01,27.47,5.705672,-186.1357990808891,144.03220611714607,9.64038380978683,0.01414213562373095,-1.6317887481272222,0.267894833658584
8164181,1600,1,197472.0,240960,0.46,-0.69,11.35,0.0,-0.04,0.015,27.47,5.745685,-252.71049748267725,-237.27698628949108,11.380254830187239,0.04272001872658766,-2.220398417612856,-0.4370091254576947
8204168,1600,1,197451.0,240811,0.92,-1.58,8.93,-0.01,-0.05,0.0,27.47,5.785672,-225.9149560814332,-499.1144056743176,9.115245471187269,0.050990195135927854,-1.9834898750808594,-0.9210526188868371
8244180,1600,1,197495.0,241347,0.29,-1.15,9.95,-0.03,-0.05,0.01,27.47,5.825684,-232.64972248932364,-595.1281433968464,10.020434122332224,0.05916079783099616,-2.043034247411127,-1.0985475893673455
8284181,1600,1,197558.0,241086,0.59,-0.85,9.68,-0.02,-0.04,0.0,27.47,5.865685,-224.31327686410367,-561.5934206137565,9.73514252592123,0.044721359549995794,-1.9693288815297567,-1.0365539125077066
8324181,1600,1,197527.0,241629,0.42,-1.61,10.2,-0.02,-0.09,0.015,27.47,5.905685,-220.94220100657185,-475.36681114833215,10.334819785559882,0.09340770846134701,-1.9395240473517994,-0.8771518325060998
8364181,1600,1,197590.0,241329,0.79,-0.71,8.9,-0.01,-0.07,0.01,27.47,5.945685,-219.0874334961234,-403.00350226475746,8.963157925642056,0.07141428428542851,-1.9231254136740472,-0.7433780238946658
8404180,1629,1,197811.0,241671,0.02,-0.99,10.58,-0.04,0.01,0.01,27.47,5.985684,-190.95706110263407,-376.94328735057223,10.626236398650278,0.042426406871192854,-1.6744151739804218,-0.6952020317228325
8444168,1675,1,197577.0,241316,0.72,-0.2,8.42,0.02,-0.12,0.015,27.47,6.025672,-138.19131471535073,-397.83626456366835,8.45309410807664,0.12257650672131262,-1.2078951703336998,-0.7338256543590573
8484172,1740,1,197820.0,242615,0.52,-0.57,10.92,-0.04,0.02,0.01,27.47,6.065676,-83.8445308860896,-442.6417568027411,10.947223392257966,0.0458257569495584,-0.7273966741288804,-0.8166549422399396
8524178,1758,1,197744.0,241831,0.97,-1.19,8.35,-0.01,-0.11,0.01,27.47,6.105682,-55.23412595341535,-468.361578295327,8.48996466423742,0.11090536506409417,-0.4744423026402185,-0.864201669040466
8564180,1804,1,197802.0,242401,0.31,-0.86,9.55,-0.05,-0.05,0.015,27.47,6.145684,-23.276063438048595,-420.84521554401437,9.593654152615677,0.07228416147400481,-0.19189014594781945,-0.7763609537018067
8604178,1827,1,197894.0,242537,0.71,-0.99,8.86,-0.02,-0.02,0.01,27.47,6.185682,6.126021241433852,-261.1583484545735,8.943366256617248,0.030000000000000002,0.0680637368460972,-0.4811572002339882
8644867,1872,1,198167.0,243295,0.24,-0.81,10.25,-0.07,0.06,0.01,27.41,6.226371,40.775405072814124,-2.0431989098734933,10.284755709301024,0.09273618495495704,0.3744107854167569,-0.0021462075320813783
8683168,1909,1,198655.5,244319,0.82,-1.08,11.07,-0.05,0.02,0.0,27.41,6.264672,77.36323525873887,274.71989945663705,11.152744056957463,0.05385164807134505,0.6978963009343941,0.5094895139791674
8723171,1923,1,198655.5,245302,0.75,-0.77,11.2,-0.03,-0.04,0.01,27.41,6.304675,83.42364720521128,445.04557201238754,11.251462127208178,0.05099019513592785,0.7514784749193401,0.8243606036738872
8763198,1943,1,198655.5,245039,0.78,-1.21,8.81,0.0,-0.1,0.015,27.41,6.344702,101.42855362000626,407.08465711495336,8.926847147789639,0.10111874208078343,0.9106660081466418,0.7541844848292587
8803172,1963,1,198655.5,243550,0.23,-0.51,9.47,-0.03,0.0,0.015,27.41,6.384676,110.86088053482754,145.6040852247872,9.48651147682856,0.03354101966249685,0.9940604351751582,0.27080067445207523
8843168,1942,1,198054.0,241843,0.33,-0.54,9.96,-0.03,0.03,0.015,27.41,6.424672,90.0755428423383,-248.06329314138853,9.980085169977258,0.045,0.810290158432984,-0.4569491388524864
8883172,1949,1,197486.0,241557,0.78,-0.56,10.58,-0.02,0.0,0.01,27.41,6.464676,84.60460298799788,-618.8924750149164,10.623483421175937,0.022360679774997897,0.7619197087464616,-1.1424793166294185
8923168,1950,1,197608.0,241737,0.8,-1.33,10.3,-0.04,-0.02,0.01,27.41,6.504672,84.67354447723775,-828.5162087249781,10.416280526176319,0.0458257569495584,0.762529244022918,-1.5299984290964985
8963181,1965,1,197602.0,241442,0.76,-1.07,9.79,-0.02,-0.12,0.015,27.41,6.544685,91.32540016176085,-819.8885942961489,9.87758067544882,0.12257650672131262,0.8213405743019315,-1.5140490638839104
9003178,1981,1,197739.0,241877,0.23,-0.62,9.21,-0.02,0.01,0.015,27.41,6.584682,100.60753200653772,-628.6051659250979,9.233709980284198,0.026925824035672518,0.9034070753666881,-1.160434599147125
9043172,1984,1,197941.0,242476,0.77,-0.66,10.06,-0.04,-0.01,0.01,27.41,6.624676,102.26489846471914,-346.42180453250717,10.11098907130257,0.042426406871192854,0.9180604188528154,-0.6387787550093517
9083178,1998,1,198325.0,242851,0.39,-1.61,9.87,-0.05,0.02,0.01,27.41,6.664682,105.01340267630871,-70.19402395012648,10.008051758459285,0.05477225575051661,0.9423608842608594,-0.12813264411576694
9123172,1975,1,198444.0,243125,0.46,-0.36,9.2,-0.03,-0.04,0.015,27.41,6.704676,84.2037666401971,135.59707866468736,9.218524827758506,0.05220153254455275,0.7583757775554717,0.2523013078393909
9163178,1957,1,198584.0,243313,0.29,-1.17,9.62,-0.05,0.03,0.015,27.41,6.744682,55.84791366448984,253.2181118600363,9.695225629143449,0.06020797289396148,0.5076719869459452,0.4697404192635128
9203172,1942,1,198655.5,244238,0.31,-0.67,10.17,-0.03,0.0,0.015,27.41,6.784676,42.10848985783024,305.4972458277048,10.196759289107495,0.03354101966249685,0.3861970437632699,0.5663857906493677
9243168,1931,1,198655.5,244137,0.65,-0.47,10.25,-0.01,-0.0,0.01,27.41,6.824672,24.663915329735744,334.9724145006541,10.281337461634065,0.01414213562373095,0.23196359631556177,0.6208748077172407
9283181,1918,1,198655.5,244551,0.52,-1.22,11.16,-0.03,-0.05,0.01,27.41,6.864685,11.691192981716492,375.710021104843,11.238523034634044,0.05916079783099616,0.11726732285273801,0.696184033804795
9323181,1927,1,198655.5,244393,0.77,-0.89,8.98,-0.03,-0.12,0.01,27.41,6.904685,16.65944194010323,429.183984599641,9.056787509928673,0.12409673645990855,0.16119331046547072,0.79503821651992
9363180,1938,1,198655.5,244158,0.3,-1.74,9.98,-0.07,0.03,0.015,27.41,6.944684,29.106459968543945,459.4983178537344,10.13498889984592,0.07762087348130012,0.2712416523082846,0.8510785479735417
9403167,1942,1,198509.0,243499,0.85,-0.58,9.36,-0.03,-0.11,0.01,27.41,6.984671,28.998547336321675,417.8770464569866,9.416395276325224,0.11445523142259596,0.2702875598330573,0.7741357425671278
9443180,1933,1,198648.0,244054,0.1,-1.77,10.08,-0.06,0.09,0.015,27.41,7.024684,24.18169699109122,286.45424577044713,10.234710547934416,0.10920164833920777,0.22770013912021017,0.5311821123716688
9483168,1936,1,198292.0,242489,0.52,-0.53,9.27,-0.01,-0.04,0.015,27.41,7.064672,23.085613787569905,108.11275373697086,9.299688166815056,0.04387482193696061,0.2180092927830662,0.20149264693901353
9523181,1919,1,197821.0,242594,0.13,-1.44,10.21,-0.04,0.03,0.015,27.41,7.104685,11.252000789675169,-31.16655598978077,10.311866950266573,0.05220153254455275,0.1133842745295154,-0.05598485112421107
9563172,1916,1,197846.0,243199,0.39,-0.17,9.45,0.01,-0.06,0.01,27.41,7.144676,6.38265160945978,-63.630280275103296,9.45957187191894,0.06164414002968976,0.07033269366798287,-0.11599863582200903
9603172,1910,1,197996.0,243883,0.31,-0.61,10.9,-0.02,0.01,0.01,27.41,7.184676,3.9878124501355936,5.41488474454505,10.921455946896458,0.024494897427831782,0.04915910189992461,0.011641114672869815
9643168,1879,1,198090.0,244316,0.33,-1.43,9.33,0.01,-0.03,0.015,27.41,7.224672,-25.269839255654045,101.35750219352899,9.44471810061052,0.034999999999999996,-0.2095177995940532,0.189004609271355
9683858,1860,1,198028.0,244550,0.69,-1.36,10.77,-0.03,-0.07,0.01,27.41,7.265362,-43.117216104789044,141.19671156312995,10.877435359495362,0.07681145747868609,-0.36731256007430113,0.2626530210377986
9722181,1872,1,197743.0,243769,-0.1,-0.74,9.35,-0.01,0.01,0.015,27.41,7.303685,-26.25341097807708,96.3447356400066,9.379770786111992,0.020615528128088305,-0.21821389346077794,0.17973780149417623
9762181,1878,1,197635.0,244040,0.35,-1.39,11.29,-0.03,0.02,0.015,27.41,7.343685,-21.060908945311933,4.887904509590828,11.38062827791155,0.03905124837953327,-0.17230520774862026,0.010666917193782783
9802172,1863,1,197503.0,243541,0.09,-0.62,9.99,-0.01,0.02,0.01,27.41,7.383676,-29.328194480401635,-67.54903539655743,10.009625367614914,0.024494897427831782,-0.245399105628326,-0.12324300877427286
9842172,1868,1,197461.0,243825,0.35,-1.12,10.83,-0.02,-0.03,0.01,27.41,7.423676,-26.55120010891474,-75.92433210830536,10.893383312818841,0.03741657386773942,-0.22084674897626097,-0.13872592900922157
9882181,1855,1,197484.0,243170,0.42,-0.52,9.43,0.01,-0.1,-0.025,27.41,7.463685,-31.47508256677515,-14.249398857434405,9.453660666641255,0.10356157588603991,-0.26438047718958296,-0.024711094086468138
9922180,1854,1,197549.0,243661,0.32,-1.48,9.92,-0.04,-0.05,0.01,27.41,7.503684,-37.07926447080173,97.6318595233234,10.034899102631774,0.06480740698407861,-0.31392896539088827,0.18211723199124005
9962181,1841,1,197359.0,242950,0.89,-0.84,8.68,-0.01,-0.13,0.01,27.41,7.543685,-39.078788948785146,233.58205568844042,8.765848504280688,0.1307669683062202,-0.3316074449089065,0.4334403929005852
10002180,1843,1,197591.0,243029,-0.03,-1.21,10.69,-0.08,0.09,0.01,27.41,7.583684,-46.79200068383822,367.4297212044239,10.75830376964696,0.12083045973594571,-0.399802586892762,0.6808767286080951
10042181,1841,1,197548.0,242996,0.63,-0.94,9.34,-0.01,-0.01,0.01,27.41,7.623685,-32.8771033832533,470.7544790382013,9.408299527544814,0.017320508075688773,-0.2767762225584725,0.8718871535392845
10082180,1872,1,197629.0,243297,-0.02,-2.18,10.58,-0.07,0.06,0.01,27.41,7.663684,-17.353996353471047,517.5508607210922,10.802277537630664,0.09273618495495704,-0.13953112618497035,0.9583968820679591
10122181,1853,1,197554.0,243659,0.76,-1.04,9.56,-0.01,-0.1,0.01,27.41,7.703685,-17.88303038038685,496.6556389901656,9.64638792502147,0.10099504938362078,-0.14420849688592724,0.9197691101231505
10162181,1860,1,197251.0,242368,0.15,-1.14,10.5,-0.03,-0.06,-0.025,27.41,7.743685,-27.107683858762687,415.86747059306714,10.562769523188509,0.07158910531638177,-0.22576681206231963,0.7704207574295268
10202204,1804,1,196969.0,242872,0.76,-1.3,9.98,-0.0,-0.07,0.01,27.41,7.783708,-69.08396702248076,288.32254618575826,10.092967848953053,0.07071067811865477,-0.5968934825898703,0.534635929866231
10242181,1779,1,196869.0,242430,0.74,-1.05,9.15,-0.02,-0.09,-0.025,27.41,7.823685,-104.21561377368162,116.27565576050844,9.239729433268055,0.095524865872714,-0.9075043825133008,0.2165829255602896
10282201,1775,1,196718.0,242310,0.77,-1.23,9.33,-0.01,-0.06,0.01,27.41,7.863705,-103.28764574978442,-103.31668425675724,9.442176655835242,0.06164414002968976,-0.899299899955334,-0.18936456522221765
10322180,1787,1,196249.0,241667,0.84,-1.52,9.04,-0.02,-0.08,0.0,27.41,7.903684,-94.2372880150576,-351.1877915045826,9.205302819570901,0.08246211251235322,-0.8192825930377075,-0.6475893558357012
10362178,1809,1,196030.0,242055,0.4,-1.4,8.84,-0.02,-0.03,0.01,27.41,7.943682,-73.50264511593625,-567.5895692586597,8.959107098366443,0.03741657386773942,-0.635960526295507,-1.0476386411305993
10402180,1837,1,195798.0,241907,0.76,-0.43,9.07,-0.01,-0.05,-0.025,27.41,7.983684,-46.79991789041782,-673.7704097710624,9.11193722542029,0.05678908345800274,-0.39987258562290934,-1.243928938742066
10442198,1852,1,195838.0,241997,-0.02,-0.84,11.56,-0.04,0.11,0.01,27.41,8.023702,-32.45495881314533,-625.6935628996728,11.59049610672468,0.1174734012447073,-0.27304389808909524,-1.1550520892552354
10482181,1855,1,195887.0,242517,0.66,-1.12,9.72,0.02,-0.06,0.0,27.41,8.063685,-34.63350839312893,-456.2342798962142,9.806548832285495,0.06324555320336758,-0.2923051997399604,-0.84178264315503
10522172,1856,1,196153.0,242348,0.26,-0.56,10.72,-0.0,-0.02,0.0,27.41,8.103676,-30.223300490913196,-263.6958427395115,10.737765130603297,0.02,-0.2533130438909087,-0.4858481172202753
10562180,1892,1,196393.0,242913,0.73,-1.36,10.05,0.0,-0.04,0.0,27.41,8.143684,-3.2745992116134977,-146.50515106419147,10.167841462178687,0.04,-0.015050362513900363,-0.26920455294602913
10602168,1919,1,196227.0,242848,1.455,-1.44,9.11,-0.01,-0.15500000000000003,-0.01,27.41,8.183672,28.929211925153744,-133.5057380164311,9.33716900350422,0.15564382416273384,0.26967454175815886,-0.24517329981593913
10642202,1966,1,196189.0,242806,0.58,-1.95,8.18,-0.08,0.03,0.0,27.41,8.223706,67.2458723425502,-170.96016634715795,8.429193318461737,0.08544003745317531,0.6084452364140016,-0.31441310662503064
10682168,1997,1,195937.0,241993,0.08,-0.39,9.37,-0.05,-0.01,0.0,27.41,8.263672,101.50295997683108,-182.009079202094,9.378454030382619,0.050990195135927854,0.9113238601857749,-0.3348385843488129
10722867,2021,1,196210.0,242704,-0.03,-1.09,10.81,-0.05,0.1,0.015,27.29,8.304371,119.95823518041404,-146.6497245319133,10.864856188647874,0.11280514172678478,1.0744932578492514,-0.2694718174437379
10761181,2027,1,196177.0,242208,0.45,-0.73,9.59,0.01,-0.07,0.01,27.29,8.342685,127.14342569710566,-125.59827883193113,9.6282656797577,0.07141428428542851,1.1380199837188436,-0.2305552434021295
10801172,2019,1,196361.0,242506,0.91,-1.42,11.48,-0.04,0.0,0.0,27.29,8.382676,115.1995292947616,-200.5311473376859,11.603227999138861,0.04,1.0324199121822737,-0.36907924630976735
10841168,1995,1,196062.0,240783,0.35,-0.96,9.85,-0.02,-0.0,0.0,27.29,8.422672,93.5176476119082,-384.0808108871117,9.902858173275026,0.02,0.8407229835060158,-0.708396753222824
10881181,1979,1,195597.0,239752,0.18,-1.27,9.8,-0.07,0.07,0.015,27.29,8.462685,72.33235622771726,-586.4229696573515,9.88358740539082,0.10012492197250393,0.6534165794371909,-1.0824548448021394
10921168,1951,1,195635.0,239324,0.06,-1.56,10.99,-0.07,0.01,0.015,27.29,8.502672,49.79148143573443,-674.4644138698187,11.100328823958325,0.07228416147400481,0.45412499900594255,-1.2452119034504923
10961172,1931,1,195877.0,240010,0.6,-1.41,11.24,-0.05,-0.02,0.015,27.29,8.542676,23.55599650658462,-572.4437609527703,11.343971967525308,0.05590169943749475,0.22216810721884542,-1.05661230085774
11001181,1904,1,196164.0,240628,0.64,-2.06,9.54,-0.07,-0.05,0.01,27.29,8.582685,3.238384365501555,-315.8059649502246,9.780838409870597,0.08660254037844388,0.042533151985176744,-0.58218104647521
11041180,1903,1,196589.0,241228,0.92,-1.58,8.47,-0.06,-0.06,0.015,27.29,8.622684,-1.6163740662075996,-17.26546868913726,8.665085112103633,0.08616843969807043,-0.0003894270804487098,-0.030286725641322582
11081181,1891,1,196800.0,241041,0.17,-1.1,9.08,-0.06,0.0,0.015,27.29,8.662685,-9.196494065572933,216.7728971862501,9.147966987260066,0.06184658438426491,-0.06740785952697158,0.4023662866016447
11121172,1886,1,196732.0,241262,0.84,-1.54,9.47,-0.05,0.03,0.015,27.29,8.702676,-13.207260163720786,346.56593752898254,9.631100663994745,0.06020797289396148,-0.10286841382294995,0.6423070743541784
11161172,1885,1,196933.0,241328,0.47,-1.4,9.72,-0.04,0.03,-0.0,27.29,8.742676,-12.468753928405718,397.5049087008071,9.831546165278379,0.05,-0.0963390277120516,0.7364749653134841
11201181,1868,1,197092.0,241197,0.45,-0.51,10.66,-0.04,0.03,-0.0,27.29,8.782685,-25.520513173425037,417.85280389810947,10.681675898472111,0.05,-0.21173409340281177,0.7740909267691563
11241181,1855,1,197193.0,242286,0.49,-0.7,11.14,-0.02,0.01,-0.01,27.29,8.822685,-36.0612252189925,442.0200187249004,11.172721244173239,0.024494897427831782,-0.3049281323129161,0.818767440610059
11281180,1856,1,197145.0,242668,0.78,-2.0,9.64,-0.02,-0.02,-0.0,27.29,8.862684,-32.078642343914176,481.54839615442813,9.876132846413114,0.0282842712474619,-0.2697167555275271,0.8918412355837771
11321197,1875,1,197237.0,242902,0.88,-2.06,8.89,-0.06,-0.06,-0.0,27.29,8.902701,-7.206238274947018,531.3977651686932,9.167884161571852,0.08485281374238571,-0.04981132764270962,0.9839948428855669
11361201,1883,1,197333.0,243107,0.32,-1.88,9.36,-0.06,0.05,0.01,27.29,8.942705,1.7669018385300914,572.9105132923211,9.552298152800716,0.07874007874011811,0.02952327188587321,1.0607370276764752
11401172,1845,1,197246.0,243530,0.17,-1.33,8.01,-0.03,0.03,0.0,27.29,8.982676,-28.098663563430325,573.3848377775827,8.121446915420922,0.042426406871192854,-0.23452840243274967,1.0616138835567555
11441172,1853,1,197335.0,243716,0.2,-1.48,11.53,-0.01,0.04,-0.025,27.29,9.022676,-19.389166425067103,495.59955958432994,11.626319279978508,0.04821825380496478,-0.1575247605828249,0.9178167980122985
11481181,1874,1,197240.0,243490,0.4,-0.84,11.25,0.02,-0.01,-0.01,27.29,9.062685,10.319955063315156,321.74564204296394,11.288405556144765,0.024494897427831782,0.1051437396099681,0.5964232485693745
11521180,1872,1,196885.0,242366,0.07,-1.29,10.4,0.02,0.0,-0.01,27.29,9.102684,8.605125683035606,75.84950384745162,10.479933205894016,0.022360679774997897,0.08998234678383868,0.1418494675088496
11561171,1872,1,196490.0,242581,0.42,-1.47,10.2,-0.01,-0.03,-0.01,27.29,9.142675,19.007278070504917,-177.90211035550942,10.313937172583513,0.033166247903554,0.18195133238517722,-0.32724627171230725
11601200,1875,1,196664.0,241809,0.28,-0.99,9.96,-0.01,0.0,-0.025,27.29,9.182704,20.08623587225705,-365.20763852798257,10.012996554478585,0.026925824035672525,0.19149076719035557,-0.6735070254586777
11641178,1857,1,196193.0,241834,0.7,-1.14,10.37,-0.01,-0.11,-0.0,27.29,9.222682,14.085180276699022,-439.2129099587743,10.455931331067548,0.11045361017187261,0.13843338299691174,-0.8103162340114267
11681201,1874,1,196589.0,242574,0.64,-2.05,8.15,-0.02,-0.03,-0.0,27.29,9.262705,29.082928666025683,-399.06145452718,8.428202655370836,0.03605551275463989,0.2710336040177126,-0.7360905912479323
11721200,1856,1,196400.0,242302,0.58,-1.51,8.55,-0.04,-0.07,-0.0,27.29,9.302704,19.873565729035004,-279.75333557938916,8.701666507054842,0.0806225774829855,0.18961047774531875,-0.5155326632572359
11761887,1840,1,196813.0,242895,0.23,-1.49,10.47,-0.06,0.11,-0.01,27.35,9.343391,6.720715332238469,-125.11512340449494,10.57799130270015,0.12569805089976535,0.07332163062011035,-0.2296620622765481
11800181,1843,1,196717.0,243141,0.41,-1.17,10.75,-0.01,-0.06,-0.01,27.35,9.381685,11.66409116459347,34.7518240409088,10.821252238073004,0.06164414002968976,0.11702770642183859,0.06587459519255105
11840216,1840,1,196868.0,242779,0.49,-1.13,10.65,-0.04,-0.0,-0.02,27.35,9.42172,15.987335978681434,187.50889377482036,10.720984096620981,0.044721359549995794,0.15525099187734503,0.3482676383783661
11880201,1836,1,197060.0,243656,0.49,-1.01,11.14,-0.04,-0.03,-0.01,27.35,9.461705,11.230001122278436,327.00460535252955,11.19641907039925,0.05099019513592785,0.11318976794869645,0.6061451858622126
11920201,1808,1,197198.0,243392,0.56,-1.25,10.51,-0.01,-0.0,-0.025,27.35,9.501705,-12.571657349375545,439.99733311665574,10.598877299035026,0.026925824035672525,-0.09724883203802005,0.8150282202563607
11960200,1795,1,196998.0,243796,0.86,-1.51,9.52,-0.01,-0.11,-0.0,27.35,9.541704,-20.933805535098355,501.53527195967763,9.677298176660674,0.11045361017187261,-0.17118144304412555,0.9287898016452559
12000200,1797,1,197190.0,243417,0.53,-1.85,9.36,-0.03,0.03,-0.01,27.35,9.581704,-24.368455569922236,480.04323898808184,9.555783589010375,0.04358898943540673,-0.20154835825860298,0.8890587397332227
12040198,1765,1,196665.0,242731,0.67,-0.55,10.17,-0.02,-0.09,-0.01,27.35,9.621702,-43.95676405159257,350.29885464205694,10.206875133947706,0.09273618495495703,-0.37473529050115195,0.6492078994705395
12080201,1776,1,196725.0,241949,0.47,-1.84,9.38,-0.07,0.04,-0.01,27.35,9.661705,-45.974561236689155,113.31055134373469,9.570313474489746,0.08124038404635961,-0.39257532526992894,0.21110151078141892
12120181,1761,1,196215.0,240685,0.72,-1.67,10.13,-0.06,-0.03,-0.01,27.35,9.701685,-46.74046097416292,-183.83146853300929,10.291948309236693,0.06782329983125268,-0.39934690669885,-0.3382075287120621
12160200,1770,1,195990.0,238905,0.41,-1.6,8.98,-0.08,0.06,-0.01,27.35,9.741704,-50.575806692570886,-445.8206836838095,9.130635246246563,0.1004987562112089,-0.4332565094438865,-0.8225316380784616
12200181,1767,1,195687.0,239964,0.34,-1.27,10.37,-0.02,-0.02,0.0,27.35,9.781685,-44.990380412982134,-561.5059360009949,10.453009136129173,0.0282842712474619,-0.3838738461305097,-1.036392184830731
12240180,1771,1,195800.0,239951,0.65,-1.6,8.35,-0.01,-0.01,-0.01,27.35,9.821684,-48.14075087856407,-464.58964517612634,8.526722699841951,0.017320508075688773,-0.4117273484822932,-0.8572287173199346
12280201,1776,1,195865.0,241206,0.34,-1.04,9.68,-0.03,0.02,-0.01,27.35,9.861705,-42.73409880923281,-185.91309675718,9.741642571969061,0.03741657386773942,-0.36392528908209,-0.3420557128257598
12320180,1794,1,196370.0,241758,0.5,-1.64,10.23,-0.06,0.07,-0.02,27.35,9.901684,-26.42872438035265,147.0316780582624,10.372680463602453,0.09433981132056604,-0.21976389918738373,0.27343978166575483
12360181,1795,1,196471.0,242807,0.39,-1.15,10.2,-0.05,-0.04,-0.02,27.35,9.941685,-30.307497350921167,376.37082070915193,10.272029984379913,0.0670820393249937,-0.2540574571159139,0.6974056153101343
12400201,1789,1,196552.0,242687,0.64,-1.82,9.2,-0.03,-0.01,-0.025,27.35,9.981705,-36.945474141915774,407.64733125288785,9.400106382376743,0.04031128874149275,-0.31274607935225135,0.755224667535107
12440201,1801,1,196232.0,241788,0.45,-1.02,9.39,-0.04,-0.01,-0.01,27.35,10.021705,-29.480277324197274,264.93806909986336,9.455950507484692,0.042426406871192854,-0.24674372204522266,0.4914064174181479
12480201,1813,1,195823.0,240969,0.68,-1.34,9.53,-0.03,0.04,-0.01,27.35,10.061705,-22.266471925925032,66.17865023604371,9.647740668156457,0.05099019513592785,-0.1829640022245669,0.12397152715370191
12520181,1826,1,195837.0,241229,0.2,-0.85,11.16,-0.04,0.07,-0.01,27.35,10.101685,-9.136395747430313,-60.887723172449256,11.194110058419115,0.08124038404635961,-0.06687650974953692,-0.11092863122138127
12560180,1846,1,195840.0,241702,1.18,-1.53,10.17,-0.03,-0.07,-0.01,27.35,10.141684,0.3818092437676979,-57.702659103179684,10.351917696736194,0.07681145747868609,0.017277194712684033,-0.10504058992267366
12600201,1847,1,195981.0,241990,0.39,-1.76,10.32,-0.07,0.03,-0.01,27.35,10.181705,5.113079706372518,42.874325247492074,10.476263646930619,0.07681145747868609,0.059107974424728,0.08089018719102929
12640180,1871,1,195891.0,241658,0.58,-1.06,9.45,-0.02,0.01,-0.0,27.35,10.221684,17.310026271254873,150.96080522035354,9.52693549888945,0.022360679774997897,0.16694534896244748,0.28070332880173815
12680181,1877,1,195812.0,241936,0.28,-1.41,10.37,-0.03,0.04,-0.01,27.35,10.261685,24.93863065631476,173.39065296489062,10.469164245535552,0.05099019513592785,0.23439244843899806,0.322168073928151
12720180,1897,1,195806.0,242339,0.86,-1.41,10.64,-0.02,-0.02,-0.01,27.35,10.301684,37.950159253284504,54.65022781680098,10.767418446405806,0.030000000000000002,0.3494318212160819,0.1026596081978566
12760201,1907,1,195634.0,241083,0.46,-1.49,10.64,-0.04,-0.05,-0.01,27.35,10.341705,43.66924882096354,-203.0332043045398,10.753664491697704,0.06480740698407861,0.3999962473569877,-0.3737046524027548
12800887,1905,1,195101.0,240006,0.65,-1.28,9.34,-0.03,-0.04,-0.0,27.35,10.382391,40.551430558170836,-538.6060412688809,9.44968253435003,0.05,0.37243055015918564,-0.9940584913833441
12841201,1927,1,194864.0,238905,0.32,-1.82,9.58,-0.04,0.0,-0.01,27.35,10.422705,55.04239463444426,-852.0637389803751,9.75659776766471,0.04123105625617661,0.5005501178061402,-1.5735293683840528
12881180,1923,1,194675.0,238294,0.97,-1.57,9.8,-0.01,-0.07,0.0,27.35,10.462684,51.17456064812606,-1043.711132941402,9.972251501040276,0.07071067811865477,0.46635327517724584,-1.9278166749784837
12921181,1909,1,194592.0,237918,0.61,-1.32,9.59,-0.04,-0.05,0.01,27.35,10.502685,31.92768177407711,-1057.0409093260855,9.699618549200787,0.06480740698407861,0.2961850388254654,-1.9524586514501072
12961181,1913,1,194850.0,238404,0.55,-1.08,9.56,-0.05,0.01,0.0,27.35,10.542685,33.4133654816798,-901.3803635530104,9.636519081079019,0.050990195135927854,0.3093204764179055,-1.6646981222556594
12999168,1911,1,195009.0,239612,1.05,-2.1,9.01,-0.06,-0.08,-0.0,27.35,10.580672,30.116256801426236,-639.8266576733498,9.310886101762817,0.1,0.28016961134256124,-1.1811791133577814
13039201,1904,1,195575.0,239748,0.34,-1.34,8.19,-0.08,0.04,-0.01,27.35,10.620705,19.193954179794027,-349.6558323471956,8.305859377571956,0.09,0.18360179968923301,-0.6447573127149182
13079180,1918,1,195552.0,239751,0.64,-1.2,10.27,-0.06,0.0,-0.01,27.35,10.660684,32.68414839060847,-81.18261101841837,10.359657330240223,0.0608276253029822,0.30287321880708856,-0.1484466010928977
13119180,1936,1,195960.0,240992,0.52,-1.72,10.56,-0.05,0.05,0.0,27.35,10.700684,49.600673754095304,158.30689112202916,10.711787899319143,0.07071067811865477,0.4524380030582161,0.2942836073243109
13159171,1922,1,196134.0,241376,0.85,-1.19,9.81,-0.04,-0.08,-0.01,27.35,10.740675,32.052118046458915,388.56055994911094,9.9184020890464,0.09,0.297285222452534,0.7199400719189821
13199201,1904,1,196544.0,242573,0.54,-1.56,9.36,-0.05,-0.02,-0.01,27.35,10.780705,18.137458897288305,623.8968308747025,9.504462109977608,0.05477225575051661,0.1742609636963189,1.1549924451704567
13239201,1925,1,196772.0,242448,0.36,-1.36,9.75,-0.03,0.05,-0.01,27.35,10.820705,32.4738116584047,845.9367649938833,9.850974571076712,0.05916079783099616,0.3010135598466234,1.565464659739087
13279180,1921,1,196859.0,243266,0.69,-2.19,10.8,-0.04,0.01,-0.01,27.35,10.860684,35.38751927832442,994.4942603896329,11.04138578259088,0.042426406871192854,0.32677464506834264,1.8400941959428396
13319181,1911,1,196746.0,242578,0.79,-0.95,10.24,-0.04,-0.04,-0.02,27.35,10.900685,19.508074497454793,982.8460281482227,10.314271665997556,0.060000000000000005,0.18637904481081302,1.8185607915896613
13359201,1888,1,196659.0,242412,0.35,-1.57,10.67,-0.08,0.06,-0.01,27.35,10.940705,1.7865053738494916,741.5305343670133,10.790565323466607,0.1004987562112089,0.029696593443793957,1.372454979430087
13399181,1883,1,196468.0,240986,0.46,-1.54,9.95,-0.05,0.04,-0.01,27.35,10.980685,-4.996885758554315,280.0829772198512,10.07897316198431,0.06480740698407861,-0.030277686699978233,0.5194039215613129
13439180,1879,1,196018.0,238827,0.12,-2.03,11.3,-0.06,0.05,-0.0,27.35,11.020684,-6.847164663827888,-274.49087121424276,11.481519934224737,0.07810249675906655,-0.04663663508479084,-0.505804253768109
13479178,1866,1,194894.0,236956,1.21,-1.27,10.25,0.02,-0.13,-0.01,27.35,11.060682,-18.709928720960917,-713.2289312079711,10.399014376372406,0.1319090595827292,-0.15151938781938806,-1.3168735950358212
13519180,1856,1,195256.0,238027,0.25,-1.45,9.56,-0.05,0.05,-0.01,27.35,11.100684,-26.657354100755473,-856.7046724068796,9.672569462143967,0.07141428428542851,-0.22178529271062172,-1.582108790048898
13559181,1856,1,195344.0,239367,0.38,-1.08,8.95,0.0,-0.07,-0.0,27.35,11.140685,-27.11917421643801,-668.6448499048208,9.022931896008082,0.07,-0.22586840224291238,-1.234453616577401
13599180,1845,1,196072.0,240958,0.56,-1.95,10.1,0.01,-0.0,-0.01,27.35,11.180684,-31.847634051973234,-279.0035586873239,10.301752278132104,0.01414213562373095,-0.26767433224012177,-0.5141465946541295
13639181,1840,1,196116.0,240906,0.65,-1.62,8.41,-0.02,-0.12,-0.01,27.35,11.220685,-42.49773116991693,105.78632944156747,8.589237451601859,0.12206555615733702,-0.36183548197226034,0.1971919226735851
13679201,1815,1,196621.0,240491,0.27,-1.7,9.33,-0.1,0.05,-0.01,27.35,11.260705,-55.478895408685034,335.2196624253939,9.487454874727996,0.11224972160321825,-0.47660639307735364,0.6213318804668703
13719178,1826,1,196478.0,241108,0.25,-1.0,10.5,-0.02,0.02,-0.01,27.35,11.300682,-54.940835330604315,391.62173452379136,10.550473923004596,0.030000000000000002,-0.47184921997217294,0.7255990859690216
13759180,1827,1,196505.0,241535,0.57,-1.48,10.05,0.01,0.02,-0.01,27.35,11.340684,-38.99428040589436,365.489440364263,10.17436975935119,0.024494897427831782,-0.3308602759889745,0.6772898451201976
13799171,1838,1,196377.0,242004,0.78,-1.13,9.5,0.0,-0.09,-0.01,27.35,11.380675,-38.839665981951114,363.06213458928454,9.598713455458498,0.09055385138137416,-0.3294932770064827,0.6728026271751777
13839867,1822,1,196707.0,242776,0.53,-1.11,8.34,-0.02,0.01,-0.01,27.17,11.421371,-42.776944120641936,424.1756860178358,8.430219451473372,0.024494897427831782,-0.3643040991284432,0.7857796684202297
13880181,1851,1,196761.0,242808,0.51,-1.6,9.41,-0.03,0.05,-0.01,27.17,11.461685,-19.280693730160827,507.845695642648,9.558671455803887,0.05916079783099616,-0.15656571640193107,0.9404555121143684
13920180,1855,1,196765.0,242885,0.53,-1.93,10.44,-0.03,0.04,-0.01,27.17,11.501684,-10.82514902793458,540.5310289300288,10.630117591071135,0.05099019513592785,-0.08180735486251603,1.0008789723878868
13960181,1837,1,196459.0,242769,0.98,-1.55,10.48,-0.04,-0.08,-0.01,27.17,11.541685,-26.80798857402144,475.3104882121335,10.63923399498291,0.09,-0.22311710358848882,0.8803095807149978
14000201,1843,1,196370.0,242691,0.28,-2.18,9.32,-0.07,0.03,-0.0,27.17,11.581705,-23.16611414679913,317.29590283664425,9.575656635448036,0.07615773105863909,-0.19091804667382875,0.5881972764553199
14040181,1853,1,196450.0,242444,0.44,-1.76,11.66,-0.05,0.05,-0.01,27.17,11.621685,-7.467093071570033,111.12171848093969,11.800288132075421,0.07141428428542851,-0.05211763408209246,0.20705514373453535
14080181,1865,1,196018.0,241246,0.55,-1.68,10.77,-0.02,-0.07,-0.01,27.17,11.661685,1.0774809864376127,-87.87899049320232,10.914110133217457,0.07348469228349536,0.023427866429620196,-0.16082580541715732
14120201,1863,1,195659.0,241045,0.57,-1.07,9.75,-0.04,-0.06,-0.01,27.17,11.701705,2.2854521395895726,-240.25357538455728,9.825085241360505,0.07280109889280519,0.03410795238230185,-0.4425117712883174
14160201,1865,1,195720.0,240885,-0.03,-0.23,9.74,-0.01,0.06,-0.01,27.17,11.741705,4.729719516888388,-336.1824995379435,9.742761415533073,0.06164414002968976,0.055718555924258416,-0.6198499518936643
14200201,1878,1,195773.0,240624,0.37,-0.88,11.46,-0.0,0.01,-0.01,27.17,11.781705,15.78046905742087,-388.2921938771859,11.499691300204542,0.01414213562373095,0.15342201070170638,-0.7161820901676844
14240180,1889,1,195640.0,240283,0.23,-0.74,9.39,0.0,0.0,-0.0,27.17,11.821684,30.995846028569964,-407.38713437258946,9.421921247813527,0.0,0.2879463604184277,-0.7514817876896511
14278168,1893,1,195484.0,240334,0.92,-2.13,8.76,-0.03,-0.1,-0.0,27.17,11.859672,30.611019492464443,-383.8344569287236,9.062058265096292,0.1044030650891055,0.2845439774461559,-0.707941333096402
14318201,1872,1,195737.0,240434,0.58,-1.99,8.69,-0.05,0.03,-0.01,27.17,11.899705,13.339623810111409,-295.6901805065155,8.933789789333527,0.05916079783099616,0.13184166338096187,-0.5449941745679137
14358180,1881,1,195615.0,239760,0.36,-1.52,9.4,-0.04,-0.02,-0.01,27.17,11.939684,20.060203117763365,-137.0227004560819,9.528903399657278,0.0458257569495584,0.191260602707659,-0.2516749021825805
14398201,1893,1,196156.0,241036,0.23,-0.74,10.72,-0.04,0.01,-0.01,27.17,11.979705,32.0345263053315,62.65739115148929,10.747971901712434,0.042426406871192854,0.2971296878548676,0.1174619818314125
14438181,1875,1,196020.0,241421,0.8,-0.52,8.77,0.02,-0.09,-0.0,27.17,12.019685,15.0822185373788,248.71580935032281,8.821751526766098,0.09219544457292887,0.14724853913237673,0.46141727645070674
14478180,1872,1,196246.0,241841,0.77,-1.05,9.56,-0.03,0.03,-0.01,27.17,12.059684,9.464084171803261,373.448322131829,9.648264092571265,0.04358898943540673,0.09757669244837465,0.6920029634499356
14519181,1878,1,196430.0,241982,0.49,-0.74,9.71,-0.05,0.04,-0.01,27.17,12.100685,17.122006599614135,421.68338536375666,9.750476911413104,0.06480740698407861,0.1652830027642966,0.7811722982509447
14559181,1873,1,196023.0,241419,1.06,-1.11,9.09,-0.03,-0.06,-0.01,27.17,12.140685,10.294354613344966,407.82685770465855,9.218665847073535,0.06782329983125268,0.10491739727936233,0.7555565475661667
14599201,1865,1,196119.0,242160,0.71,-1.79,8.96,-0.05,0.08,-0.01,27.17,12.180705,1.7433863573244965,348.925045749264,9.164594917398151,0.09486832980505139,0.029315363476935537,0.6466682194762365
14639180,1859,1,196029.0,241404,1.02,-1.2,9.42,-0.06,-0.01,-0.02,27.17,12.220684,-3.5080772074358464,242.3766928556114,9.55074866175422,0.06403124237432849,-0.017114621297676838,0.44969852326193993
14679201,1856,1,196070.0,240700,0.33,-1.24,9.68,-0.07,0.04,-0.01,27.17,12.260705,-9.660562359869411,73.17646846262627,9.76467613390224,0.08124038404635961,-0.07151084597500744,0.1369079836339686
14719180,1856,1,195414.0,239627,0.6,-1.16,10.61,-0.02,0.05,-0.01,27.17,12.300684,-7.026512014219122,-155.8150277029432,10.690074836033656,0.05477225575051661,-0.04822230632583506,-0.2864151763252363
14759181,1874,1,195416.0,239897,0.49,-0.97,11.08,-0.02,0.05,-0.01,27.17,12.340685,6.806240099007358,-402.4042449388042,11.133166665419143,0.05477225575051661,0.07407778432278067,-0.7422702119929181
14799181,1886,1,195182.0,240069,0.58,-1.17,9.41,-0.01,-0.1,-0.0,27.17,12.380685,21.364010575255392,-595.6200776876836,9.500178945683077,0.1004987562112089,0.20278801019204157,-1.0994569994632513
14839887,1895,1,195068.0,239688,0.49,-0.88,9.46,0.0,0.04,-0.01,27.03,12.421391,27.206611132443758,-672.1629129606613,9.51346939869993,0.04123105625617661,0.25444443921779974,-1.2409572535886955
14878172,1885,1,195146.0,239576,0.52,-1.43,10.49,-0.04,0.04,-0.01,27.03,12.459676,18.066411268914024,-613.4639485089145,10.599783016647086,0.05744562646538029,0.17363280732371714,-1.1324439177918064
14918181,1869,1,195390.0,240024,0.63,-1.67,11.16,-0.04,-0.04,-0.0,27.03,12.499685,0.916965175989653,-459.89297238372814,11.301831709948614,0.0565685424949238,0.02200869127144247,-0.848546253555713
14958201,1858,1,195453.0,240404,1.05,-1.91,9.35,0.0,-0.11,-0.0,27.03,12.539705,-11.140878924252519,-293.0458455458682,9.600682267422457,0.11,-0.08459883081929548,-0.5401057474853531
14998178,1855,1,195573.0,240084,0.7,-1.64,9.85,-0.03,-0.04,-0.0,27.03,12.579682,-13.735353132984505,-193.64701233061623,10.010099899601402,0.05,-0.10753746431147092,-0.35635294933552764
15038201,1868,1,195626.0,239562,0.65,-1.69,10.36,-0.07,-0.01,-0.01,27.03,12.619705,-2.8145059246683726,-194.90066458815565,10.517043310740904,0.07141428428542851,-0.010982520464854668,-0.35867050279946877
15078201,1879,1,195734.0,239733,0.19,-1.41,11.3,-0.06,0.02,-0.01,27.03,12.659705,9.069121238012617,-256.87782784873144,11.389214195896045,0.06403124237432849,0.09408469011868263,-0.4732440526303524
15118184,1882,1,195585.0,239445,0.55,-1.68,10.81,-0.02,-0.02,-0.0,27.03,12.699688,10.013953679982066,-284.03891531415496,10.953583888390138,0.0282842712474619,0.10243827676252396,-0.5234551633760458
15158201,1886,1,195507.0,239596,0.23,-1.32,9.37,-0.04,-0.04,-0.0,27.03,12.739705,14.367760827870248,-187.68190025956102,9.46531563129302,0.0565685424949238,0.14093177425997294,-0.3453255962079508
15198201,1890,1,196129.0,240750,0.35,-1.31,11.02,-0.04,0.08,-0.01,27.03,12.779705,17.31204113253047,39.89454455105743,11.103107673079641,0.09,0.16696316303983663,0.07538164123398595
15238180,1887,1,196002.0,240963,0.56,-1.08,10.24,0.0,-0.09,-0.0,27.03,12.819684,13.167783935584048,295.2480861406688,10.312012412715571,0.09,0.13032236830072633,0.547438769741196
15278180,1884,1,196479.0,241624,0.57,-1.26,9.9,-0.02,-0.01,0.01,27.03,12.859684,10.78585761843243,413.39199740941376,9.996124248927682,0.024494897427831782,0.10926294338502758,0.7658444952187208
15318203,1872,1,196388.0,241005,0.81,-1.74,9.5,-0.02,-0.04,0.0,27.03,12.899707,-3.8255738127454153,275.7702985079629,9.69193995028859,0.044721359549995794,-0.019921717332663257,0.5114313251515085
15358180,1856,1,195910.0,238513,1.0,-1.31,9.76,-0.03,-0.07,-0.01,27.03,12.939684,-18.777897212334747,-95.94689993916127,9.898166496882137,0.07681145747868609,-0.15212032048905694,-0.1757404768268705
15398201,1853,1,195368.0,237020,0.17,-1.05,8.8,-0.06,0.0,0.0,27.03,12.979705,-23.283731306336147,-532.6686647921084,8.864050992633109,0.06,-0.19195794019288168,-0.9830824114235999
15438171,1846,1,195158.0,236328,0.77,-1.07,10.05,-0.03,0.03,0.015,27.03,13.019675,-32.28244909909345,-810.2754174758994,10.1360889893489,0.045,-0.271518680728615,-1.496277747232692
15478171,1849,1,195425.0,237253,0.35,-1.11,11.01,-0.05,0.04,0.01,27.03,13.059675,-26.333410090680704,-780.5928787551464,11.071345898308842,0.06480740698407861,-0.21892119296583282,-1.4414053773094202
15518172,1865,1,195382.0,238376,0.98,-0.78,7.85,-0.01,-0.08,0.015,27.03,13.099676,-17.307825703505475,-452.8483297294763,7.9492955662750395,0.08200609733428363,-0.13912291568355498,-0.8355232354999461
15558181,1843,1,196267.0,240440,0.83,-1.4,10.21,-0.02,0.03,-0.01,27.03,13.139685,-32.34518494313011,24.10156969034811,10.338907098915243,0.03741657386773942,-0.2720733497742104,0.04618609408424438
15598180,1840,1,196499.0,241212,0.57,-1.25,8.92,-0.03,-0.03,0.0,27.03,13.179684,-44.20007683807533,459.8893998234635,9.025175898562864,0.042426406871192854,-0.3768865020315282,0.8518015182934049
15638181,1856,1,196892.0,241941,0.4,-1.39,10.03,-0.03,0.07,-0.01,27.03,13.219685,-22.160918145280903,732.3018031153422,10.133755473663255,0.07681145747868609,-0.18203076516259875,1.3553943647728208
15678180,1901,1,196785.0,242502,0.33,-1.35,10.13,0.0,-0.03,-0.0,27.03,13.259684,17.491186860459205,838.1176552273942,10.224886307436382,0.03,0.1685470516677581,1.5510099297170394
15718181,1908,1,196869.0,242776,0.75,-1.51,9.61,-0.03,-0.06,-0.01,27.03,13.299685,25.71726001538314,860.593752597148,9.756777131819707,0.06782329983125268,0.24127657680450845,1.592560173815342
15758200,1904,1,196929.0,242941,0.39,-1.56,9.94,-0.05,0.01,-0.0,27.03,13.339704,20.911544258427607,888.3550698651567,10.069225392253369,0.050990195135927854,0.1987876007933528,1.6438808942233452
15798180,1911,1,197010.0,243218,0.51,-1.02,11.76,-0.03,0.01,-0.01,27.03,13.379684,26.96634585089284,947.8063761254081,11.81516398531988,0.033166247903554,0.2523201717204233,1.7537850402340567
15838180,1906,1,197016.0,242838,0.34,-1.09,9.58,-0.03,-0.02,0.0,27.03,13.419684,20.211519534466373,990.2980100461896,9.647802858682384,0.03605551275463989,0.19259844288059946,1.832336833835026
15878864,1897,1,196793.0,243242,0.58,-1.67,10.91,-0.02,-0.0,-0.01,26.87,13.460368,14.853278064295399,931.9141059659511,11.052302927444579,0.022360679774997897,0.14522439813844795,1.7244059316842684
15917200,1893,1,196651.0,242243,0.81,-1.26,10.28,-0.04,-0.02,-0.01,26.87,13.498704,2.833444066066116,714.2755067301601,10.388556203823512,0.0458257569495584,0.03895293635470375,1.322070206994407
15957201,1872,1,196188.0,240711,0.03,-1.33,9.04,-0.05,0.01,-0.01,26.87,13.538705,-7.9720237716016875,350.80203109959257,9.137362858067966,0.05196152422706632,-0.05658189902949175,0.6501380923012245
15997181,1890,1,196002.0,239006,0.21,-0.91,11.69,-0.05,0.12,-0.01,26.87,13.578685,-1.577402290701674,-66.88272234402339,11.727246053528509,0.13038404810405296,-4.486428932091634e-05,-0.12201123488029023
16037181,1873,1,195260.0,238063,0.26,-1.57,10.18,-0.03,-0.05,-0.0,26.87,13.618685,-8.215235239254683,-410.78793440178816,10.303635280812301,0.05830951894845301,-0.0587322147654546,-0.757768647415258
16077201,1881,1,194879.0,238409,0.85,-1.55,9.86,0.02,-0.1,-0.0,26.87,13.658705,-7.105144085107467,-587.7910869382304,10.017215181875649,0.10198039027185571,-0.0489175193477136,-1.0849840030470277
16117178,1883,1,195292.0,238702,0.43,-1.39,9.28,-0.03,-0.05,-0.0,26.87,13.698682,-1.7290412237908739,-593.6038966558707,9.393370002294171,0.05830951894845301,-0.0013855559398953444,-1.095729803738831
16157201,1878,1,195157.0,237368,0.72,-0.88,9.42,-0.04,-0.05,-0.01,26.87,13.738705,-4.902520836745778,-506.121766214091,9.48837183082535,0.06480740698407861,-0.02944337416428271,-0.934006715682316
16197201,1886,1,195094.0,238362,0.64,-1.55,10.77,-0.04,-0.02,-0.01,26.87,13.778705,-0.07507845217126574,-421.3622432182352,10.899770639788711,0.0458257569495584,0.01323769438966848,-0.7773167524650904
16237201,1870,1,195213.0,238071,0.68,-1.53,9.06,-0.01,-0.06,0.0,26.87,13.818705,-9.425266753857136,-384.2847948680833,9.213408706879338,0.0608276253029822,-0.06943051707812749,-0.7087738464548955
16277178,1866,1,194922.0,238159,0.6,-1.24,9.03,0.02,-0.08,-0.0,26.87,13.858682,-17.492505654214522,-367.88150814359943,9.134467691113697,0.08246211251235322,-0.14075573426714702,-0.6784500515271368
16317181,1853,1,195051.0,238934,0.88,-1.74,9.37,-0.04,-0.04,-0.01,26.87,13.898685,-23.81650915969695,-308.7684710384833,9.570731424504608,0.05744562646538029,-0.19666841134339827,-0.5691712438808028
16357201,1840,1,195152.0,238553,0.67,-1.44,8.64,-0.03,-0.03,-0.01,26.87,13.938705,-39.329221897160515,-162.66144919507929,8.78476522167781,0.04358898943540673,-0.3338216082248544,-0.29907175453444673
16397201,1833,1,195312.0,239655,0.57,-1.7,10.82,-0.04,-0.02,-0.0,26.87,13.978705,-39.14836818869352,63.53962379199693,10.967556701471846,0.044721359549995794,-0.3322226187570606,0.11909291361469941
16437201,1839,1,195612.0,240492,0.89,-0.96,9.05,0.02,-0.02,-0.0,26.87,14.018705,-36.327722306238314,316.87695605360386,9.144189411861502,0.0282842712474619,-0.30728432417271173,0.5874227940879784
16477180,1846,1,195639.0,241401,0.62,-1.9,10.52,0.0,-0.0,-0.0,26.87,14.058684,-19.448634408570456,522.199637602213,10.708165108925057,0.0,-0.15805053735621163,0.9669908034677235
16517178,1865,1,195473.0,241070,0.85,-1.88,8.77,-0.03,-0.05,-0.01,26.87,14.098682,-4.639760145862719,602.4175202643478,9.00942839474292,0.05916079783099616,-0.027120217062149444,1.115284902342114
16557201,1846,1,195437.0,240983,0.4,-1.29,10.01,-0.05,0.03,-0.01,26.87,14.138705,-13.321329164427395,495.2825879710431,10.100702945835007,0.05916079783099616,-0.10387693685671964,0.9172308311654906
16597180,1865,1,195265.0,240082,0.82,-0.76,10.65,-0.04,0.01,-0.01,26.87,14.178684,4.571084183918102,181.1942895897513,10.708524641611469,0.042426406871192854,0.05431600671036854,0.336594199660003
16637180,1866,1,194819.0,238423,0.39,-1.01,10.69,-0.02,-0.01,-0.01,26.87,14.218684,12.067247867235075,-283.2572787105457,10.744687059193486,0.024494897427831782,0.12059215266327164,-0.522010197591201
16677201,1842,1,193922.0,236332,0.75,-1.19,10.15,0.02,-0.05,0.0,26.87,14.258705,-7.7784314869321625,-762.1027903693091,10.247004440323035,0.05385164807134505,-0.05487028345435852,-1.4072238344378096
16717172,1842,1,193614.0,235868,0.51,-1.13,9.01,-0.02,-0.06,-0.0,26.87,14.298676,-4.364516300883608,-1094.6944759209,9.09489417200662,0.06324555320336758,-0.024686692126845218,-2.022066593498428
16757231,1843,1,193597.0,235402,0.88,-1.29,10.45,-0.02,-0.06,-0.01,26.87,14.338735,2.3419786961379407,-1182.1422322572132,10.56603047506489,0.06403124237432849,0.034607722994348694,-2.1837261361605047
16797201,1853,1,193753.0,235368,0.52,-1.35,10.26,-0.04,-0.02,-0.01,26.87,14.378705,17.179174605011465,-1039.0157511226944,10.361491205420194,0.0458257569495584,0.1657884446449191,-1.9191365977616723
16837200,1859,1,193868.0,235656,0.66,-0.79,10.28,-0.02,-0.01,-0.0,26.87,14.418704,26.667732920788275,-767.6234142671791,10.331413262472854,0.022360679774997897,0.2496800327139766,-1.4174294883268208
16877201,1842,1,194535.0,237084,0.29,-1.51,10.51,-0.07,-0.03,-0.0,26.87,14.458705,16.820669835974922,-479.0788303576285,10.621878364959748,0.07615773105863909,0.16261878141433125,-0.8840140248923727
16917887,1851,1,194357.0,235582,0.85,-0.78,7.88,-0.07,-0.03,0.015,26.93,14.499391,28.345226170781824,-229.65688800714872,7.964000251130082,0.07762087348130012,0.2645113240475708,-0.422922296304229
16956181,1850,1,194505.0,234446,0.41,-1.07,10.05,-0.07,0.01,0.015,26.93,14.537685,33.881952731406464,-20.785266471056094,10.115112456122276,0.07228416147400481,0.3134634164958644,-0.03679356953906255
16996172,1860,1,194583.0,235379,0.94,-0.96,10.69,-0.05,-0.01,0.015,26.93,14.577676,47.12527580820778,155.0835185643114,10.774103210940574,0.05315072906367325,0.4305521635162808,0.28832474736790337
17036180,1884,1,195326.0,236510,0.45,-0.93,10.47,-0.03,0.07,-0.01,26.93,14.617684,77.02383987517494,286.0273882216184,10.520850726058232,0.07681145747868609,0.6948955903139891,0.5303930058351887
17076181,1872,1,195098.0,236133,0.28,-1.33,8.49,-0.02,-0.03,0.01,26.93,14.657685,66.16848445525916,365.0812757552863,8.598104442259352,0.03741657386773942,0.5989196817593047,0.6765352951262075
17116180,1858,1,195208.0,236239,0.99,-1.56,9.68,-0.01,-0.02,-0.01,26.93,14.697684,60.435844423469376,430.6337672426751,9.854750123671325,0.024494897427831782,0.5482354513324903,0.7977183447341986
17156201,1870,1,195058.0,236884,0.51,-0.92,8.03,-0.03,-0.02,0.0,26.93,14.737705,69.30882956857995,557.6510781628947,8.098604818115277,0.03605551275463989,0.6266845465442261,1.032527804162294
17196180,1851,1,195527.0,238310,0.81,-1.57,9.16,-0.05,0.07,-0.01,26.93,14.777684,59.21069438028124,788.8606899567736,9.328804853784861,0.08660254037844388,0.5374034809397876,1.4599514645010063
17236181,1850,1,195924.0,240076,0.46,-0.62,10.88,-0.05,0.06,-0.01,26.93,14.817685,55.44379024124381,1068.613812710616,10.907355316482544,0.07874007874011811,0.5040989935971408,1.977114668880375
17276180,1853,1,196104.0,241110,0.29,-1.67,11.04,0.0,0.05,-0.025,26.93,14.857684,60.77157905629276,1250.4482605874275,11.169359874227348,0.05590169943749475,0.5512037960040411,2.3132613570918603
17316168,1877,1,196046.0,241388,0.52,-0.69,10.18,0.02,0.0,-0.025,26.93,14.897672,87.93602186576426,1185.30012794439,10.216599238494187,0.032015621187164243,0.7913739220081714,2.1928258219838157
17356172,1908,1,195816.0,241356,0.49,-1.77,9.6,-0.01,0.0,-0.025,26.93,14.937676,112.64813114823951,826.7118799086599,9.77409842389568,0.026925824035672525,1.0098621288831715,1.5299247412687302
17396178,1917,1,195345.0,239452,0.64,-0.32,9.47,-0.0,-0.03,-0.025,26.93,14.977682,126.1731290654382,273.113095396535,9.496994261343955,0.03905124837953328,1.129441259468048,0.5065191094726792
17436201,1936,1,194585.0,237762,0.23,-1.61,10.87,-0.05,0.09,-0.025,26.93,15.017705,140.1595494133584,-286.7218146888134,10.990991765987271,0.10594810050208546,1.2530999835165124,-0.5284148822308972
17476181,1934,1,194154.0,237346,1.01,-0.76,10.17,-0.01,-0.06,-0.025,26.93,15.057685,130.5480808788213,-686.3656253599383,10.248248630863715,0.06576473218982952,1.1681217041821896,-1.2672129757160648
17516201,1904,1,194554.0,237912,-0.08,-1.48,10.46,-0.04,0.07,-0.01,26.93,15.097705,108.7409703956562,-869.0422961228064,10.564487682798443,0.08124038404635961,0.9753175848684812,-1.6049166320223722
17556200,1803,1,194347.0,237039,0.89,-0.89,9.64,0.01,-0.09,-0.02,26.93,15.137704,-18.414164302924043,-889.0998232559606,9.721820817110343,0.09273618495495703,-0.14890443348199642,-1.6419958070535496
17597181,1600,1,194532.0,237459,0.24,-1.9,9.77,-0.04,0.02,-0.0,26.93,15.178685,-202.48425000987396,-841.3536452338561,9.95592788242261,0.044721359549995794,-1.7763309920865793,-1.553730245691053
17637178,1600,1,194193.0,236873,1.35,-0.6,9.73,-0.01,-0.15,0.0,26.93,15.218682,-236.24013676594407,-785.9351631676439,9.8415141111518,0.15033296378372907,-2.074778327540843,-1.4512813454425952
17677180,1600,1,194913.0,238185,0.49,-1.81,9.46,-0.1,0.08,0.01,26.93,15.258684,-222.53024400890118,-722.1379445738644,9.644055163674668,0.1284523257866513,-1.9535644784640631,-1.3333431659732584
17717169,1600,1,194893.0,236698,0.83,-0.69,10.43,-0.04,-0.12,-0.0,26.93,15.298673,-248.01134985643384,-612.9666867242672,10.48569978589889,0.12649110640673517,-2.1788516468794112,-1.1315246590702877
17757201,1600,1,195107.0,237444,-0.0,-2.6125000000000003,11.25,-0.09,0.02,0.015,26.93,15.338705,-249.8546640199104,-430.2058795598086,11.549357395543701,0.09340770846134701,-2.195149017600853,-0.7936654647287896
17797181,1600,1,195277.0,236154,1.09,-0.36,8.22,-0.01,-0.14,0.0,26.93,15.378685,-264.0347444806673,-188.86461493434612,8.299765056915769,0.14035668847618202,-2.320519956916466,-0.34751201151962746
17837181,1600,1,195732.0,238581,0.47,-1.64,11.06,-0.11,0.06,0.015,26.93,15.418685,-276.6832813503482,51.90685728361913,11.19080426064186,0.12619429464123963,-2.432349995731028,0.09758809985587949
17877172,1600,1,196034.0,237881,0.68,-0.68,8.3,-0.02,-0.02,-0.025,26.93,15.458676,-287.90646060043616,228.7756901409618,8.355525118147872,0.03774917217635375,-2.5315779605218514,0.42455514656809007
17917201,1600,1,196284.0,239344,0.49,-1.37,11.18,-0.09,0.07,-0.01,26.93,15.498705,-301.460894540623,330.44924728612415,11.274280464845639,0.11445523142259598,-2.651417345049712,0.6125130935473212
17957867,1683,1,196285.0,238856,1.06,-0.77,8.99,0.0,-0.06,0.0,27.05,15.539371,-233.59272301453856,418.72812105621506,9.0849656025766,0.06,-2.051371637452636,0.7757090743053768
17996172,1840,1,196393.0,240026,0.36,-2.03,9.56,-0.06,0.03,0.0,27.05,15.577676,-86.55277895604999,580.2401423408738,9.779780161128368,0.0670820393249937,-0.7513412212257948,1.0742868833790584
18036167,2002,1,196799.0,240597,0.77,-0.76,8.75,-0.01,0.01,-0.0,27.05,15.617671,56.37542348182343,836.1346829111637,8.816632010013802,0.01414213562373095,0.5123358815888808,1.5473441249990714
18076180,2102,1,197058.0,242428,0.46,-2.02,10.58,-0.04,0.02,0.0,27.05,15.657684,148.80624684547422,1087.7384892904388,10.78092760387528,0.044721359549995794,1.329548391693203,2.01246933775906
18116169,2156,1,197394.0,242383,1.05,-1.22,8.73,0.02,-0.12,-0.025,27.05,15.697673,183.51413489873678,1159.631465880938,8.877150443695319,0.1241974234837422,1.6364126960912615,2.1453736706219644
18156181,2156,1,197176.0,242211,0.4,-1.51,10.6,-0.05,0.01,-0.0,27.05,15.737685,175.68688503574384,922.0954231393425,10.714480855365789,0.050990195135927854,1.567209304030322,1.7062547081218362
18196180,2156,1,196814.0,239768,0.67,-1.02,9.47,-0.01,0.02,-0.0,27.05,15.777684,159.52806089095895,400.0931853527954,9.54830875076838,0.022360679774997897,1.4243436153007003,0.7412597606858682
18236180,2156,1,195634.0,238528,0.3,-1.35,11.1,-0.01,-0.02,0.0,27.05,15.817684,150.39406980767765,-223.0136566241954,11.185816912501295,0.022360679774997897,1.343586877355485,-0.4106413437428351
18276178,2156,1,195688.0,238596,1.0,-1.42,9.57,0.0,-0.0,0.0,27.05,15.857682,138.5479134089409,-715.2153092018392,9.726319961835515,0.0,1.238850958606685,-1.3205456956304638
18316171,2156,1,195316.0,238642,0.4,-1.39,9.86,-0.01,-0.04,0.0,27.05,15.897675,128.9823020623056,-933.5450359053771,9.96552557570347,0.04123105625617661,1.1542781183485034,-1.7241590671695761
18356178,2156,1,195694.0,239028,0.88,-1.14,8.87,-0.03,0.0,-0.0,27.05,15.937682,121.21690975132431,-886.7588747669898,8.986150455005747,0.03,1.085621630053091,-1.6376682327625973
18396232,2156,1,195651.0,239539,0.52,-0.95,11.15,-0.03,-0.05,0.0,27.05,15.977736,112.5923005153584,-690.666581337868,11.202472941275065,0.05830951894845301,1.0093685111701929,-1.2751639009945572
18436178,2156,1,196049.0,239955,0.89,-1.07,10.11,-0.01,-0.02,-0.0,27.05,16.017682,108.40685577221659,-470.17601311184376,10.205346637914852,0.022360679774997897,0.9723635632537497,-0.8675559083590848
18476200,2156,1,196135.0,239823,0.14,-1.23,10.74,-0.04,0.02,0.0,27.05,16.057704,102.23480598215305,-289.3155013429256,10.811110026264648,0.044721359549995794,0.9177943609262691,-0.5332096787571791
18516171,2156,1,196308.0,239768,1.03,-1.35,10.65,-0.02,-0.03,0.0,27.05,16.097675,100.1775661938675,-149.29221629608173,10.784521315292581,0.03605551275463989,0.8996056006178496,-0.27435683711698
18556180,2156,1,196333.0,240003,0.49,-1.52,9.79,-0.03,-0.08,0.01,27.05,16.137684,99.2063379542372,-31.782198162404466,9.91940522410492,0.08602325267042626,0.8910186397025515,-0.05712295273183924
18596214,2156,1,196656.0,240685,1.32,-1.36,9.95,-0.02,-0.05,-0.0,27.05,16.177718,96.23412226335975,66.82024527479652,10.128894312806308,0.05385164807134505,0.8647402646224415,0.12515760630409364
18636200,2156,1,196743.0,240300,0.93,-1.44,9.2,-0.06,-0.07,-0.0,27.05,16.217704,103.62648076791561,142.7139708904536,9.3583385277516,0.09219544457292887,0.9300986335004455,0.26545788944415993
18676197,2154,1,196877.0,240034,0.66,-1.76,9.77,-0.08,0.0,-0.01,27.05,16.257701,95.71456847763244,214.15467046341868,9.949175845264772,0.0806225774829855,0.8601467119749878,0.3975261242883802
18716179,2109,1,196757.0,239861,0.84,-1.28,10.13,-0.06,-0.05,-0.0,27.05,16.297683,66.16877081583317,323.9424632074519,10.24504270366893,0.07810249675906655,0.5989222135710419,0.6004843831214799
18756201,2086,1,196994.0,240130,0.31,-1.23,10.14,-0.02,0.02,0.0,27.05,16.337705,37.07908957033863,493.1354227678633,10.219031265242318,0.0282842712474619,0.3417303963431762,0.9132614926791945
18796171,2042,1,196984.0,240749,1.16,-1.61,9.19,-0.02,-0.09,0.01,27.05,16.377675,10.865847521476503,665.0673725269055,9.40179770044006,0.09273618495495703,0.10997016146521786,1.2311020129110912
18836181,2026,1,197327.0,241806,0.71,-1.67,9.77,-0.03,-0.0,-0.0,27.05,16.417685,-4.845713590748198,707.7531513901281,9.937097161646353,0.03,-0.028941121880851756,1.3100127108901727
18876201,2002,1,197173.0,241458,0.74,-1.51,8.21,-0.03,-0.05,0.0,27.05,16.457705,-15.765005612802327,499.0084535465848,8.380441515815264,0.05830951894845301,-0.1254823157940302,0.9241186205176382
18916180,1982,1,196774.0,238770,0.78,-1.53,9.75,-0.06,0.01,-0.0,27.05,16.497684,-24.83182020743086,35.39742238999948,9.900090908673516,0.0608276253029822,-0.20564512343640745,0.06706807502816865
18956180,1968,1,195543.0,235464,0.84,-1.17,9.18,-0.04,-0.06,0.0,27.05,16.537684,-32.514793994738085,-532.1985038105448,9.292303266682593,0.07211102550927978,-0.27357292138633,-0.9822132523686229
18996867,1935,1,195402.0,236125,0.22,-1.32,9.53,-0.07,0.09,0.015,27.15,16.578371,-46.42062876171623,-977.7162837912689,9.623497285290831,0.115,-0.3965191607626543,-1.8058158646817302
19035172,1920,1,195553.0,236694,0.44,-0.37,10.93,-0.0,0.07,0.0,27.15,16.616676,-57.530564260832435,-1134.7881069201676,10.945108496492852,0.07,-0.49474589883475434,-2.096185339622417
19075167,1895,1,195316.0,238015,0.76,-1.18,10.04,0.01,-0.05,0.01,27.15,16.656671,-62.39237746286033,-984.7998811918986,10.137632859795229,0.05196152422706632,-0.5377308515366905,-1.8189108960943605
19115171,1890,1,195719.0,239017,1.03,-0.98,9.63,0.02,-0.06,-0.0,27.15,16.696675,-60.01796262837725,-644.233463426301,9.734382363560618,0.06324555320336758,-0.5167378382073303,-1.1893257169125129
19155178,1873,1,196209.0,240740,0.47,-1.58,9.38,-0.05,0.04,0.0,27.15,16.736682,-61.40378946609654,-277.67458077036133,9.52374401167944,0.06403124237432849,-0.5289904070735284,-0.5116897910577294
19195172,1862,1,196256.0,240422,0.92,-0.81,9.73,-0.03,-0.06,-0.0,27.15,16.776676,-59.647647941384825,-4.380841270683545,9.806905730147507,0.0670820393249937,-0.5134637594544564,-0.006467669977643569
19235198,1872,1,196385.0,240677,0.44,-1.68,10.4,-0.07,0.05,0.0,27.15,16.816702,-39.03638131882644,145.93787524255546,10.54400303490093,0.08602325267042628,-0.3312325045538933,0.27141773249768203
19275171,1859,1,196466.0,240446,0.64,-1.08,10.11,-0.06,-0.02,0.0,27.15,16.856675,-36.51155418537162,215.34250212609692,10.187644477503127,0.06324555320336758,-0.3089096446655594,0.3997219990757172
19315180,1841,1,196500.0,240253,0.44,-0.94,10.59,-0.01,-0.01,0.01,27.15,16.896684,-46.456902911041624,266.74278671299305,10.640737756377609,0.017320508075688773,-0.39683987291844114,0.4947426931122973
19355180,1829,1,196381.0,240495,0.83,-1.11,9.86,-0.03,0.0,0.01,27.15,16.936684,-43.67199186350597,342.3386070051251,9.956937280107773,0.03162277660168379,-0.3722175222268333,0.6344922561381454
19395168,1815,1,196683.0,241480,0.65,-1.65,9.92,-0.03,-0.04,0.0,27.15,16.976672,-49.880521802070696,454.24335523468915,10.077271456103581,0.05,-0.42710925801924193,0.8413640065228263
19435180,1806,1,196960.0,242018,0.73,-1.7,9.69,-0.03,-0.0,-0.0,27.15,17.016684,-48.02267844571944,596.4766932046381,9.865039280205629,0.03,-0.4106834297362764,1.1043024434918993
19475197,1806,1,196513.0,241417,1.02,-1.52,9.38,-0.04,-0.12,-0.0,27.15,17.056701,-37.47708979052889,749.5988685647318,9.556945118603538,0.12649110640673517,-0.3174462750532529,1.3873704360534875
19515201,1809,1,196775.0,242141,0.28,-1.14,9.54,-0.07,0.12,-0.01,27.15,17.096705,-31.974493048318166,866.9236291965983,9.611950894589505,0.1392838827718412,-0.26879593599804225,1.6042618457512017
19555180,1799,1,196797.0,242593,0.65,-0.94,9.8,-0.05,-0.02,-0.025,27.15,17.136684,-24.652577938466436,868.6353596746743,9.866412721957257,0.059371710435189594,-0.20406038125618345,1.607426221577864
19595200,1799,1,196857.0,242714,0.26,-1.09,11.06,-0.01,-0.01,-0.025,27.15,17.176704,-33.63434179500513,677.5454637031702,11.116622688568683,0.028722813232690145,-0.2834712262455053,1.2541695288470376
19635201,1787,1,196117.0,241368,0.9,-1.3,10.24,0.01,-0.04,-0.025,27.15,17.216705,-21.684750782274826,285.45381839639356,10.36135126322817,0.04821825380496478,-0.17782080671160674,0.5293326809107388
19675180,1808,1,195575.0,240835,0.4,-2.04,9.74,-0.02,-0.01,-0.025,27.15,17.256684,-17.171817935343583,-208.60146469587463,9.959377490586448,0.03354101966249685,-0.13792042450616948,-0.383998369085715
19715198,1710,1,195035.0,239892,0.62,-1.17,8.89,0.0,-0.08,-0.02,27.15,17.296702,-92.23739964801656,-634.6638125343857,8.98806987066745,0.08246211251235322,-0.8016008962521224,-1.1716348640943672
19755180,1679,1,195006.0,240390,0.66,-1.9,9.93,-0.03,-0.01,0.0,27.15,17.336684,-137.89102844075757,-845.1209869441315,10.131658304542253,0.03162277660168379,-1.2052402367165373,-1.5606947095429626
19795178,1699,1,194780.0,239660,0.82,-0.69,9.04,-0.0,-0.08,-0.0,27.15,17.376682,-103.89238125786797,-798.2329990702281,9.103301598870598,0.08,-0.9046465733325239,-1.4740156340171264
19835201,1744,1,195188.0,240586,0.3,-1.6,10.27,-0.06,0.06,-0.01,27.15,17.416705,-67.35768616157503,-574.6381682322682,10.398216193174674,0.08544003745317531,-0.5816308433084311,-1.0606689730021188
19875180,1769,1,195259.0,240564,0.8,-0.67,9.79,-0.03,-0.03,-0.0,27.15,17.456684,-36.23426411106074,-320.4046160563546,9.845455804583146,0.042426406871192854,-0.3064580283171571,-0.5906823032921412
19915200,1808,1,195472.0,241581,0.29,-1.67,10.16,-0.04,0.03,0.0,27.15,17.496704,-4.566905756628525,-158.45086179989048,10.300417467268014,0.05,-0.026476086499080086,-0.2912878883592288
19955172,1826,1,195353.0,240989,0.79,-0.96,9.68,-0.01,-0.04,-0.0,27.15,17.536676,19.693436830892114,-125.34520507770698,9.75951330753742,0.04123105625617661,0.1880178965734024,-0.23008740078292828
19995201,1851,1,195425.0,241360,0.33,-1.71,10.61,-0.06,0.02,-0.0,27.15,17.576705,31.24622292372248,-168.5447003314573,10.751981212781205,0.06324555320336758,0.2901600281486686,-0.3099477761491725
20035869,1854,1,195141.0,240459,0.74,-0.73,9.54,-0.0,-0.07,0.0,27.11,17.617373,46.0756247601722,-197.76173731940287,9.596462890044435,0.07,0.42127183974026083,-0.36395960029760893
20074180,1895,1,195304.0,240040,0.36,-1.7,9.71,-0.08,0.02,-0.0,27.11,17.655684,66.54917242329917,-150.2959504927704,9.864263783983072,0.08246211251235322,0.6022854742363933,-0.2762123817071343
20114178,1877,1,195331.0,240860,0.89,-0.59,10.58,-0.02,-0.03,0.0,27.11,17.695682,63.72404863147295,-24.972832719324558,10.633748163277144,0.03605551275463989,0.5773075889243636,-0.04453487786901814
20154180,1894,1,195670.0,240874,0.5,-2.36,9.76,-0.06,0.04,-0.0,27.11,17.735684,58.95249652696071,133.32594588484667,10.053715731012092,0.07211102550927978,0.5351206654445121,0.24810279775867622
20194178,1886,1,195614.0,240664,0.29,-1.06,9.88,-0.04,-0.0,-0.0,27.11,17.775682,63.088598998961444,276.13506534663,9.940930539944437,0.04,0.5716893614723964,0.5121056482306556
20234249,1898,1,195692.0,240300,0.14,-1.71,10.63,-0.03,0.02,-0.0,27.11,17.815753,58.74932492496018,379.2518010996153,10.767571685389424,0.03605551275463989,0.5333243558498271,0.7027315149312698
20274181,1892,1,195570.0,241403,0.66,-1.45,10.04,0.01,-0.04,0.0,27.11,17.855685,57.43746241780941,435.30534511455704,10.16561360666438,0.04123105625617661,0.5217257309175078,0.8063544169894351
20314171,1899,1,195816.0,241562,0.59,-2.38,9.7,-0.02,-0.03,-0.025,27.11,17.895675,56.42918793960557,430.34348796779585,10.005123687391375,0.04387482193696061,0.5128112315414142,0.7971817224492221
20354200,1899,1,195650.0,241731,0.44,-1.01,9.47,0.0,-0.07,-0.01,27.11,17.935704,53.507924632156445,339.3829174493006,9.53386595248748,0.07071067811865477,0.4869833439030685,0.6290282460609966
20394181,1901,1,195462.0,240529,0.52,-1.89,9.59,-0.03,0.01,-0.01,27.11,17.975685,54.59181559788487,151.26124891412,9.788288920950382,0.033166247903554,0.4965663944975378,0.281258741452272
20434180,1903,1,194963.0,240437,0.68,-0.97,9.73,-0.01,-0.07,-0.0,27.11,18.015684,49.412517532355835,-101.49583665548835,9.801846764768362,0.07071067811865477,0.4507744495739579,-0.18599847096421968
20474200,1905,1,195063.0,240007,0.23,-1.46,9.74,-0.04,0.05,-0.01,27.11,18.055704,53.27597668468285,-339.2810696947524,9.851502423488512,0.06480740698407861,0.4849326127998445,-0.625578096964987
20514180,1920,1,194755.0,240105,0.41,-1.34,10.25,-0.01,0.01,-0.0,27.11,18.095684,62.31018599389786,-468.0794400440176,10.345346780074605,0.01414213562373095,0.5648071459666107,-0.8636800965886956
20554180,1909,1,194717.0,239568,0.44,-1.38,9.09,-0.03,0.0,-0.01,27.11,18.135684,50.740055136195444,-431.0182039251008,9.204678158414882,0.03162277660168379,0.46251166339518934,-0.7951671611803414
20594178,1905,1,194873.0,240724,0.14,-1.32,9.76,-0.02,0.02,0.0,27.11,18.175682,46.12421157988376,-246.50983818326574,9.849852790778144,0.0282842712474619,0.42170141242445364,-0.45407735770454655
20634171,1910,1,195345.0,241275,0.86,-1.77,9.97,-0.01,-0.02,-0.01,27.11,18.215675,46.50613667225894,-3.6173790352842703,10.162352089944532,0.024494897427831782,0.42507814274074424,-0.005056302082282687
20674201,1893,1,195434.0,241785,0.86,-1.29,10.21,-0.03,-0.05,-0.0,27.11,18.255705,32.69392482930806,189.08377121557973,10.327042170921935,0.05830951894845301,0.302959655644053,0.35117902201458934
20714200,1887,1,195512.0,241441,0.48,-1.62,8.81,-0.03,-0.02,-0.01,27.11,18.295704,22.42898122059917,268.5845113433697,8.970557396282574,0.03741657386773942,0.2122037797654095,0.49814738151060367
20754201,1870,1,195352.0,241247,0.55,-1.13,10.02,-0.06,-0.01,-0.01,27.11,18.335705,6.1741042167183995,249.69329698625467,10.098504839826537,0.06164414002968976,0.0684888548694537,0.4632243005620499
20794200,1849,1,195531.0,241585,0.56,-1.41,10.19,-0.05,-0.02,-0.01,27.11,18.375704,-12.890054725594032,202.60818823197224,10.302320127039344,0.05477225575051661,-0.1000638920965726,0.3761808192160268
20834200,1847,1,195440.0,241510,0.28,-0.87,10.58,-0.01,-0.03,-0.01,27.11,18.415704,-20.633085141502324,194.9433040261312,10.619402054729823,0.033166247903554,-0.16852267123243989,0.36201119695026385
20874201,1840,1,195439.0,240949,0.71,-1.46,9.58,-0.04,-0.0,-0.02,27.11,18.455705,-19.088058859938812,239.63206333937921,9.71658890763626,0.044721359549995794,-0.15486256565525425,0.4446246875117746
20914201,1854,1,195446.0,241859,-0.03,-1.39,10.01,-0.06,0.03,-0.01,27.11,18.495705,-14.564516187732712,283.2550989237252,10.106092222021328,0.06782329983125268,-0.11486837835721794,0.525268037067542
20954200,1840,1,195731.0,241240,0.4,-0.89,10.66,-0.01,0.01,-0.02,27.11,18.535704,-19.21729453132848,243.3625074039966,10.704564447001102,0.024494897427831782,-0.15600518240979572,0.45152094084837485
20994181,1840,1,195143.0,241163,0.35,-1.83,9.82,-0.01,-0.05,-0.0,27.11,18.575685,-26.016704115022343,71.18000198626427,9.995188842638242,0.050990195135927854,-0.21612108715789743,0.13321723305292912
21034201,1822,1,195415.0,240127,0.63,-1.39,9.65,-0.02,0.01,-0.02,27.11,18.615705,-39.84092636841323,-205.06502745614566,9.769928351835544,0.03,-0.3383457623994724,-0.3774607647974009
21074867,1818,1,194553.0,239209,0.53,-1.56,10.23,-0.01,-0.1,0.01,27.25,18.656371,-44.82157777625455,-491.164883238098,10.361824163727157,0.10099504938362078,-0.3823814043080491,-0.9063568026044985
21113180,1847,1,194612.0,239301,0.96,-1.36,9.01,0.02,-0.04,-0.01,27.25,18.694684,-17.27276546513708,-685.9381575127131,9.162494201908125,0.0458257569495584,-0.13881293612955742,-1.2664227409567028
21153180,1864,1,194455.0,239686,0.67,-1.41,9.0,-0.03,-0.08,-0.0,27.25,18.734684,1.7893321174716967,-740.3737822782344,9.134385584153977,0.08544003745317531,0.02972158565058016,-1.3670546905092418
21193201,1867,1,194951.0,240462,0.62,-1.34,9.85,-0.03,0.0,-0.01,27.25,18.774705,1.8508570387995702,-668.6504239763477,9.960045180620417,0.03162277660168379,0.030265548514510413,-1.2344639210367896
21233181,1870,1,194856.0,239737,0.23,-0.77,10.01,-0.03,0.0,-0.01,27.25,18.814685,5.121620040261006,-510.4621157785664,10.042205932961144,0.03162277660168379,0.05918348243645134,-0.942030465575774
21273180,1858,1,194996.0,240556,0.4,-1.68,9.49,-0.05,0.02,-0.01,27.25,18.854684,-7.656967934617544,-292.7931206853724,9.645854031655258,0.05477225575051661,-0.0537963826617334,-0.5396385498455422
21313181,1840,1,195249.0,241051,0.29,-1.1,10.43,-0.03,-0.0,-0.01,27.25,18.894685,-29.40961339863733,-33.323763858952404,10.491853982971742,0.03162277660168379,-0.2461189581203848,-0.05997275489862165
21353200,1840,1,195499.0,241745,0.48,-1.56,10.18,-0.01,-0.02,-0.0,27.25,18.934704,-27.98896092538639,227.5184208017302,10.310014548971305,0.022360679774997897,-0.2335584839040762,0.42223090641718714
21393201,1847,1,195836.0,242455,0.36,-1.07,9.74,-0.02,0.01,-0.01,27.25,18.974705,-27.004392547767093,417.94443029237533,9.805207799939785,0.024494897427831782,-0.22485357826801947,0.7742603111148887
21433180,1830,1,196061.0,242542,0.32,-1.28,10.64,-0.02,0.02,-0.01,27.25,19.014684,-43.75431245993355,477.39124781315525,10.721492433425489,0.030000000000000002,-0.3729453467640571,0.8841561590559815
21473181,1823,1,195706.0,242054,0.7,-1.17,10.31,0.01,-0.1,-0.01,27.25,19.054685,-54.90660914616179,416.1832210991866,10.399759612606438,0.10099504938362078,-0.4715466145740848,0.7710044668870717
21513180,1818,1,195736.0,242116,0.65,-1.52,9.79,-0.0,-0.01,-0.01,27.25,19.094684,-64.56497836000636,327.36708252081206,9.92859506677556,0.01414213562373095,-0.5569395588488212,0.6068152761618955
21553200,1813,1,195726.0,242199,0.89,-1.97,9.59,-0.04,-0.03,-0.01,27.25,19.134704,-69.45191693766746,322.5402191163256,9.830620529752942,0.05099019513592785,-0.6001466535867289,0.5978921366423333
21593200,1825,1,195650.0,241630,0.21,-1.35,8.58,-0.04,-0.02,-0.01,27.25,19.174704,-66.96523330463855,435.0524957329027,8.688095303344687,0.0458257569495584,-0.5781610334263653,0.8058869891546553
21633201,1822,1,195838.0,242782,0.24,-0.98,11.28,-0.03,0.01,-0.01,27.25,19.214705,-67.70703762962822,574.0759357740887,11.325034216283852,0.033166247903554,-0.5847195790756454,1.0628914759242505
21673180,1839,1,196157.0,242568,0.67,-0.54,10.64,-0.01,-0.03,-0.02,27.25,19.254684,-61.02799551286706,581.9031439309739,10.674741214661834,0.03741657386773942,-0.5256678842545717,1.077361176966054
21713200,1830,1,195840.0,242435,-0.01,-1.37,10.59,-0.03,-0.03,-0.01,27.25,19.294704,-69.62040647528907,361.48959289023577,10.678253602532578,0.04358898943540673,-0.6016363271929496,0.6698955614877794
21753217,1823,1,195568.0,240335,0.55,-1.08,10.33,0.0,-0.04,-0.01,27.25,19.334721,-84.28905400939999,-30.33211992771983,10.400855734024965,0.04123105625617661,-0.7313268550380203,-0.05444227807459814
21793178,1855,1,194445.0,238968,0.55,-1.46,10.39,-0.01,-0.07,-0.01,27.25,19.374682,-54.941759937908856,-412.6285778602577,10.50648371245109,0.07141428428542851,-0.47185739474146204,-0.7611713371144168
21833201,1891,1,194647.0,239416,0.94,-1.74,9.65,-0.02,-0.07,-0.01,27.25,19.414705,-24.11059418815927,-615.1318525495723,9.850568511512419,0.07348469228349536,-0.19926851762340253,-1.1355272742518623
21873204,1891,1,194806.0,239200,0.75,-1.17,9.21,-0.02,-0.09,-0.0,27.25,19.454708,-27.75552091876865,-598.8961140828421,9.314263255888788,0.09219544457292887,-0.2314945609958456,-1.1055132159698113
21913201,1910,1,195105.0,240696,0.49,-2.25,9.96,-0.03,-0.02,0.015,27.25,19.494705,-13.647149549257177,-456.37568136480786,10.22272957678134,0.03905124837953327,-0.10675762627222271,-0.8420440437638311
21953181,1954,1,195069.0,239020,0.95,-0.76,9.48,-0.01,-0.07,-0.025,27.25,19.534685,28.59652836712208,-303.7608839256306,9.557745550076126,0.07500000000000001,0.26673317268195945,-0.5599140110320725
21993200,1996,1,194973.0,239534,0.21,-1.77,9.49,-0.07,0.03,0.015,27.25,19.574704,63.97530988145899,-179.28546653606392,9.655935998130891,0.07762087348130012,0.5795290755380358,-0.32980360121801955
22033172,2013,1,195174.0,239178,0.88,-0.88,8.59,-0.03,-0.07,-0.01,27.25,19.614676,82.88277717636178,-41.50031000360751,8.679683173941315,0.07681145747868609,0.7466964580787315,-0.07508825660705622
22073201,2030,1,195320.0,239708,0.77,-1.16,10.48,-0.04,-0.03,-0.01,27.25,19.654705,91.50993389008946,147.51107837357947,10.572081157463748,0.05099019513592785,0.8229721000834668,0.27432602093561276
22113887,2037,1,195555.0,240857,1.1,-1.27,9.96,0.0,-0.02,-0.01,27.23,19.695391,102.83038885014157,350.70995304338567,10.100717796275669,0.022360679774997897,0.9230601126832251,0.6499678729945293
22152180,2054,1,195849.0,240954,0.27,-1.44,8.66,-0.05,0.05,-0.02,27.23,19.733684,113.30196545442945,473.2912311953617,8.783057554177816,0.07348469228349536,1.0156429015205806,0.8765766985974383
22192181,2067,1,195843.0,240662,0.66,-0.88,10.1,-0.03,-0.02,-0.01,27.23,19.773685,128.25742405262633,452.53943359649327,10.159724405711012,0.03741657386773942,1.1478692240397421,0.8382140664408487
22232200,2074,1,195403.0,240187,0.88,-1.25,10.33,-0.01,-0.04,-0.01,27.23,19.813704,136.0570098029117,329.59319111227165,10.442499700742156,0.042426406871192854,1.2168280282222785,0.6109305526639872
22272200,2043,1,195529.0,240503,0.56,-1.76,9.4,-0.04,0.07,-0.01,27.23,19.853704,100.78275313392842,225.13851587268337,9.579728597408176,0.08124038404635961,0.9049562652594892,0.41783131563833065
22312180,2010,1,195153.0,239556,0.69,-0.66,9.37,0.0,-0.06,-0.01,27.23,19.893684,76.60257635850832,230.93412633432658,9.418524300547299,0.0608276253029822,0.6911710555393059,0.42854532107345616
22352178,2015,1,195398.0,241030,0.82,-1.11,11.05,-0.02,0.01,-0.0,27.23,19.933682,75.16691340060687,314.18524575006984,11.135843030502901,0.022360679774997897,0.6784778684963371,0.582446786985239
22392181,1981,1,195700.0,241600,0.59,-1.32,9.26,-0.0,-0.06,-0.01,27.23,19.973685,49.38260995431613,330.7452836954176,9.372198248009909,0.0608276253029822,0.4505100264515455,0.6130603587093185
22432201,1955,1,195532.0,239999,0.74,-1.13,9.93,-0.03,-0.01,-0.01,27.23,20.013705,26.03335080677624,148.6547298716843,10.021447001306747,0.033166247903554,0.24407124355803217,0.27644022244167993
22472200,1936,1,194970.0,239256,0.68,-1.19,10.49,-0.05,-0.02,-0.01,27.23,20.053704,3.9071540374442506,-223.46305160381922,10.579158756725414,0.05477225575051661,0.048445973297389144,-0.41147211390692284
22512201,1903,1,194449.0,235713,0.38,-0.1,8.93,-0.02,-0.01,-0.01,27.23,20.093705,-11.119639303534274,-623.6625628773069,8.938640836279305,0.024494897427831782,-0.08441104407100988,-1.1512974985313795
22552201,1895,1,194022.0,235298,0.25,-1.69,11.66,-0.08,0.03,0.015,27.23,20.133705,-33.15745826722167,-858.1605452188926,11.784489806521112,0.08674675786448736,-0.27925493593687023,-1.584800176801681
22592172,1830,1,194390.0,236375,0.69,-1.13,10.54,-0.02,0.03,0.0,27.23,20.173676,-73.05034099024094,-849.7597535363831,10.622833896846924,0.03605551275463989,-0.6319615508840712,-1.569270125508302
22632171,1853,1,194703.0,237635,0.42,-1.36,10.67,-0.05,0.03,-0.01,27.23,20.213675,-61.70503307720251,-680.4078372399099,10.764520425917729,0.05916079783099616,-0.5316538048300998,-1.2561991619475643
22672181,1858,1,194747.0,237316,0.87,-1.63,8.73,-0.02,-0.12,0.0,27.23,20.253685,-39.908977678629405,-496.42704738434145,8.923379404687442,0.1216552506059644,-0.338947427298841,-0.9160846570965324
22712181,1856,1,195067.0,237858,0.24,-2.04,10.03,-0.08,-0.02,0.01,27.23,20.293685,-38.69031198598545,-373.2570726164931,10.238168781574172,0.08306623862918075,-0.328172787266204,-0.68838754255774
22752181,1871,1,194843.0,236183,0.82,-1.15,10.18,-0.03,-0.01,-0.01,27.23,20.333685,-22.567043543811884,-267.96959611558134,10.277514290916846,0.033166247903554,-0.18562145865934349,-0.4937487546427939
22792200,1847,1,194846.0,237889,0.25,-1.66,10.52,-0.07,-0.0,-0.01,27.23,20.373704,-28.344179485357056,-95.94133234270397,10.653098140916565,0.07071067811865477,-0.2366990926368058,-0.1757301843375635
22832200,1856,1,195431.0,239208,0.73,-1.2,8.87,-0.03,-0.02,-0.0,27.23,20.413704,-28.866191132873325,155.54919020036544,8.980523370049209,0.03605551275463989,-0.24131437608064263,0.2891856072329144
22872200,1857,1,195973.0,240503,0.26,-1.58,10.95,-0.08,-0.0,-0.01,27.23,20.453704,-3.6043157335687654,397.7586633542582,11.066458331372328,0.0806225774829855,-0.01796549900976213,0.7369440666711852
22912200,1856,1,196113.0,240405,0.51,-0.6,9.14,-0.01,-0.01,-0.0,27.23,20.493704,-15.45448585535856,524.450002590634,9.173859602152193,0.01414213562373095,-0.12273690445630756,0.9711509213494423
22952201,1801,1,195948.0,239912,0.27,-1.43,10.65,-0.06,0.07,-0.01,27.23,20.533705,-48.9992179052204,516.4673467322526,10.748967392266106,0.09273618495495704,-0.41931734896227923,0.9563938532511862
22992180,1798,1,195544.0,239050,0.73,-1.04,8.82,-0.03,-0.0,-0.0,27.23,20.573684,-57.955364434628684,453.15296410984456,8.911054931937072,0.03,-0.4985017024042518,0.8393482643477241
23032201,1789,1,195766.0,239970,0.11,-1.09,9.89,-0.08,0.07,-0.01,27.23,20.613705,-52.43682420888172,421.14324626443874,9.950492450125271,0.10677078252031312,-0.4497104015602535,0.7801737747504238
23072181,1808,1,195996.0,241248,0.74,-0.84,9.64,-0.02,0.0,-0.0,27.23,20.653685,-33.54036450475193,423.36895870555725,9.704782326255444,0.02,-0.28264034089291606,0.7842883189125945
23112181,1818,1,196375.0,241550,0.31,-1.56,10.37,-0.03,0.03,-0.01,27.23,20.693685,-14.87251978672444,386.0728538614174,10.491263031684984,0.04358898943540673,-0.11759154347782835,0.7153411954553307
23152867,1811,1,195803.0,240535,0.6,-1.1,9.47,-0.03,-0.0,-0.01,27.29,20.734371,-19.437700599988382,249.65450596135372,9.552533695308277,0.03162277660168379,-0.1579538678164283,0.4631525898674866
23193201,1806,1,195542.0,240069,0.11,-1.53,9.7,-0.07,0.05,-0.01,27.29,20.774705,-17.92598819440793,40.68729725494474,9.820539700036855,0.08660254037844388,-0.14458830160633576,0.07684715670200637
23233181,1815,1,195437.0,240684,-0.12,-1.0,9.4,-0.04,-0.0,0.0,27.29,20.814685,-7.400157525956111,-147.6263243023578,9.45380346738814,0.04,-0.05152583403903597,-0.27127720021018387
23273201,1808,1,195676.0,241133,0.5,-1.66,10.6,-0.03,-0.01,-0.0,27.29,20.854705,-8.494225452662258,-237.72239938090922,10.740837956137314,0.03162277660168379,-0.061198862624863425,-0.437832534538397
23313213,1809,1,195687.0,241654,0.63,-1.37,9.82,-0.02,-0.03,-0.01,27.29,20.894717,-6.570519440917746,-228.18676549595756,9.935099395577279,0.03741657386773942,-0.044190720088087755,-0.42020456696761366
23351200,1811,1,195552.0,241614,0.42,-1.17,9.5,-0.02,-0.06,-0.025,27.29,20.932704,-1.477732138228872,-183.63698941966612,9.580986379282667,0.06800735254367722,0.0008363536044581267,-0.33784800657178593
23391200,1806,1,195996.0,242525,-0.01,-0.98,10.47,-0.05,0.05,-0.0,27.29,20.972704,-3.321074507589504,-174.76305267626293,10.515769111196766,0.07071067811865477,-0.015461266494848016,-0.32144327973084064
23431200,1817,1,195627.0,241478,0.68,-0.45,9.77,-0.03,-0.09,-0.025,27.29,21.012704,5.591741253130229,-223.49819072023948,9.803968584200991,0.09810708435174292,0.06333998480699315,-0.41153707353228136
23471201,1840,1,195844.0,241034,0.07,-1.06,10.56,-0.06,0.03,-0.01,27.29,21.052705,34.57990600352354,-292.7339275662619,10.613298262086108,0.06782329983125268,0.31963425999466444,-0.5395291229949853
23511229,1847,1,195675.0,240433,0.34,-0.55,9.53,-0.03,-0.09,-0.0,27.29,21.092733,36.259767613747556,-320.8378657996892,9.551910803603644,0.09486832980505137,0.33448649081076387,-0.591483226704019
23551197,1811,1,196081.0,240910,0.36,-1.13,10.49,-0.04,0.02,0.015,27.29,21.132701,4.610574273194832,-269.80360368719715,10.556827174866509,0.04716990566028302,0.05466515209074791,-0.49713917696679216
23591172,1800,1,195917.0,241133,0.77,-0.93,9.25,-0.0,-0.07,0.0,27.29,21.172676,-8.592159806064192,-151.45261947870384,9.328467183841084,0.07,-0.062064733725612616,-0.2783506478801197
23631178,1808,1,196409.0,241191,0.06,-1.81,9.65,-0.06,0.09,0.0,27.29,21.212682,-4.254299412024375,-16.72365926360591,9.818462201383678,0.10816653826391967,-0.023712226930898864,-0.029285114306612684
23671172,1823,1,196368.0,241567,0.06,-0.82,9.75,-0.01,-0.05,0.0,27.29,21.252676,16.442834131064362,80.23407325049324,9.784605255195531,0.050990195135927854,0.15927820677071708,0.14995496402656308
23711178,1856,1,196518.0,241582,0.39,-1.01,9.73,-0.02,-0.0,-0.0,27.29,21.292682,36.57020824184123,116.37540534220312,9.790051072389767,0.02,0.3372312025388492,0.21676732676659935
23751200,1840,1,196652.0,242317,0.55,-0.87,9.79,-0.03,-0.05,-0.0,27.29,21.332704,31.662672026489812,108.55226873244776,9.843957537494765,0.05830951894845301,0.2938419970440903,0.2023051525553802
23791201,1856,1,196597.0,240611,0.5,-1.51,9.6,-0.03,-0.01,-0.0,27.29,21.372705,31.574100388385464,91.05127001933617,9.730883824196033,0.03162277660168379,0.2930589049102625,0.16995208180064925
23831201,1840,1,196362.0,241624,0.27,-1.36,9.9,-0.03,-0.03,-0.0,27.29,21.412705,24.917947766180948,80.61023683195788,9.996624430276452,0.042426406871192854,0.23420958393614746,0.15065035559626597
23871197,1835,1,196752.0,241742,0.55,-1.29,9.62,-0.03,-0.04,-0.01,27.29,21.452701,7.405340432864183,61.91158699259743,9.721676810098142,0.05099019513592785,0.07937463519804842,0.11608325738731985
23911201,1822,1,196816.0,241677,0.18,-1.1,10.68,-0.07,-0.0,-0.01,27.29,21.492705,-2.1890229282110663,11.944747520744446,10.73800726392006,0.07071067811865477,-0.005452411449689676,0.02371248933440774
23951201,1819,1,196654.0,241699,0.38,-1.07,9.41,-0.04,-0.02,-0.01,27.29,21.532705,-12.401898118800144,-59.011447673737706,9.478259333865052,0.0458257569495584,-0.0957479326423055,-0.10746007065748017
23991201,1831,1,196559.0,241443,0.28,-1.3,9.76,-0.05,-0.02,-0.01,27.29,21.572705,-2.0701128580191503,-98.00141066770756,9.850177663372373,0.05477225575051661,-0.004401086865509551,-0.17953853041550447
24031201,1840,1,196456.0,241524,0.66,-1.21,8.26,-0.04,-0.04,-0.0,27.29,21.612705,3.4707152756267656,-51.79678963625384,8.37420443982591,0.0565685424949238,0.044587268992133,-0.09412275512570822
24071201,1822,1,196871.0,242735,0.2,-1.21,10.14,-0.06,0.02,-0.01,27.29,21.652705,-19.415003958516802,78.11625441502184,10.21389739521599,0.06403124237432849,-0.15775319904952842,0.1460398764505395
24111181,1819,1,197195.0,243805,0.57,-1.16,9.15,-0.03,-0.02,-0.01,27.29,21.692685,-23.150747992071658,228.12159412841544,9.240833295758561,0.03741657386773942,-0.19078218924641965,0.42334595760000876
24151201,1826,1,197229.0,242770,0.33,-0.96,9.72,-0.05,-0.06,-0.01,27.29,21.732705,-22.988370614985786,324.78753341969536,9.772865495851256,0.07874007874011811,-0.18934655534115377,0.6020466149013695
24191887,1821,1,197125.0,242774,0.69,-0.9,10.13,-0.06,0.02,0.015,27.23,21.773391,-27.469024508268287,344.52617130935005,10.193282101462708,0.065,-0.22896154828168047,0.6385362780751387
24232171,1840,1,197101.0,242474,0.33,-0.88,9.47,-0.05,-0.0,0.01,27.23,21.813675,-14.553413482516456,321.1839843468952,9.516522474097354,0.050990195135927854,-0.11477021554454854,0.5953849449000396
24272180,1840,1,197056.0,242370,0.73,-0.78,9.99,-0.05,0.02,0.0,27.23,21.853684,-15.644887952861517,299.44737152254885,10.046959739144972,0.05385164807134505,-0.12442031449602284,0.555201742546713
24312171,1846,1,197178.0,243353,0.36,-1.54,9.26,-0.05,0.01,-0.01,27.23,21.893675,-12.384229505172875,287.7458512977929,9.394083244255397,0.05196152422706632,-0.0955917183885863,0.5335698278214227
24352181,1867,1,197329.0,243227,0.47,-0.77,9.6,-0.04,0.03,-0.01,27.23,21.933685,5.337291959543476,258.75686087720857,9.642292258586648,0.05099019513592785,0.06109031160990168,0.47997957999843816
24392180,1865,1,197110.0,243663,-0.06,-1.22,10.76,-0.05,0.01,0.0,27.23,21.973684,2.537005382464856,189.18078374178808,10.829108919943506,0.050990195135927854,0.03633202060493586,0.35135836338681414
24432180,1864,1,196925.0,243076,0.34,-1.32,8.98,-0.02,-0.0,-0.0,27.23,22.013684,-0.5070266101084805,88.00259667655953,9.08286298476422,0.02,0.009418693048589576,0.16431617804545276
24472201,1861,1,196633.0,243097,0.25,-0.97,10.74,-0.05,-0.01,-0.01,27.23,22.053705,-6.072914565877788,-19.031828584340623,10.786612072379352,0.05196152422706632,-0.03979122526403245,-0.033552091670120666
24512201,1846,1,196829.0,243302,0.04,-1.44,10.06,-0.05,0.02,-0.0,27.23,22.093705,-18.97068438102224,-124.88125487421325,10.162617772995302,0.05385164807134505,-0.15382481775853565,-0.2292297232294148
24552180,1856,1,196542.0,242989,0.79,-0.77,10.31,-0.04,-0.09,-0.0,27.23,22.133684,-14.143926514640619,-247.0177346886994,10.368852395516102,0.09848857801796104,-0.11114980126395456,-0.4550162762111838
24592201,1859,1,196879.0,243372,0.01,-2.13,9.73,-0.06,0.08,-0.01,27.23,22.173705,-5.919575734914244,-391.2146082592301,9.960416657951614,0.1004987562112089,-0.03843550423518073,-0.7215845863810053
24632180,1873,1,196022.0,241781,0.68,0.08750000000000013,8.49,-0.03,-0.07,-0.025,27.23,22.213684,2.5887754947384205,-517.2670591144777,8.517637950159656,0.08015609770940699,0.03678973786699045,-0.9546103655482099
24670181,1879,1,196170.0,242501,-0.0,-1.79,9.98,-0.1,0.12,-0.01,27.23,22.251685,14.633456830177082,-555.7726266963335,10.13925539672416,0.15652475842498528,0.14328088345394385,-1.0257933518936426
24710201,1885,1,196329.0,242429,0.08,-0.59,10.51,-0.04,0.02,-0.025,27.23,22.291705,16.16441005172254,-468.40332068375005,10.526851381111069,0.051234753829797995,0.15681656429613652,-0.8642788357478215
24750178,1870,1,196407.0,242623,0.12,-1.24,10.5,-0.03,0.0,-0.0,27.23,22.331682,8.004756831196815,-291.0304727595933,10.573646485484561,0.03,0.08467428050740462,-0.5363800459170958
24790180,1872,1,196768.0,243569,-0.01,-0.77,10.57,-0.02,0.02,-0.0,27.23,22.371684,5.342692204440569,-112.46360084084128,10.598013964889837,0.0282842712474619,0.0611380570213016,-0.20627393389789125
24830198,1874,1,196706.0,243291,0.31,-0.76,10.05,-0.0,-0.06,-0.0,27.23,22.411702,16.438965957284022,-6.536390478268015,10.083461707171798,0.06,0.15924400692385304,-0.010452507481576251
24870201,1881,1,196779.0,243136,-0.34,-1.08,10.25,-0.04,0.03,-0.0,27.23,22.451705,17.460192596641264,18.45494931649236,10.31234696856152,0.05,0.1682730207848583,0.03574751789352709
24910201,1874,1,196259.0,242899,0.81,-0.27,9.78,-0.01,-0.09,-0.01,27.23,22.491705,21.489801630800592,7.653540207340182,9.817199193252625,0.09110433579144298,0.20390017192023832,0.01577958584074745
24950204,1904,1,196820.0,242925,-0.14,-1.31,10.23,-0.08,0.08,-0.0,27.23,22.531708,45.56107918249576,2.487575350107787,10.314484960481545,0.1131370849898476,0.416722566372418,0.006229569336987726
24990201,1893,1,196424.0,242696,0.32,-0.81,9.68,-0.02,-0.01,0.0,27.23,22.571705,45.092290118607174,-0.7872250470855899,9.7190997525491,0.022360679774997897,0.41257784198645625,0.00017563774743553997
25030180,1893,1,196474.0,242752,0.06,-0.94,9.46,-0.03,0.02,-0.01,27.23,22.611684,41.07230592929921,-35.60962674622627,9.506776530454474,0.03741657386773942,0.3770357873950008,-0.06419849566575735
25070178,1890,1,196610.0,242899,0.12,-1.26,10.52,-0.05,0.05,-0.0,27.23,22.651682,46.88588496993839,-111.77323998893064,10.595867118834589,0.07071067811865477,0.42843562727091566,-0.20499770424641267
25110181,1869,1,196114.0,241052,0.1,-1.53,9.66,-0.04,-0.05,-0.01,27.23,22.691685,23.49245714542874,-183.0913630063434,9.780925314099889,0.06480740698407861,0.22160633400368826,-0.3368393389954233
25150206,1855,1,195940.0,240046,-0.21,-0.95,9.05,-0.05,0.0,-0.01,27.23,22.73171,16.72317595759053,-175.20052813598144,9.102148098113984,0.050990195135927854,0.16175680470380413,-0.3222520149769685
25190201,1860,1,196390.0,240880,-0.11,-1.19,11.77,-0.05,0.09,-0.0,27.23,22.771705,21.288382404524313,-51.60822929545709,11.830515626970787,0.10295630140987,0.20211935567844294,-0.09377417467339592
25230887,1840,1,196393.0,240901,0.76,-1.01,12.06,0.02,-0.08,-0.01,27.29,22.812391,4.4620699183473755,145.51372366881353,12.126058716664703,0.08306623862918075,0.05335217431807518,0.27063362833877347
25271180,1840,1,196518.0,242016,0.47,-1.18,10.52,0.0,-0.05,-0.0,27.29,22.852684,9.294304031137262,321.18917058806295,10.596400332188285,0.05,0.09607560817940027,0.5953945324001703
25311180,1846,1,196718.0,242605,0.48,-2.35,9.87,-0.0,-0.06,-0.0,27.29,22.892684,10.899278445911115,398.53357441993745,10.157253565802124,0.06,0.11026573569768824,0.7383765993481782
25351225,1830,1,196374.0,242034,0.53,-1.03,8.92,-0.02,-0.1,-0.01,27.29,22.932729,5.730644020557212,373.10498976425754,8.994898554180587,0.10246950765959599,0.06456807166263921,0.6913682650214334
25391201,1861,1,196282.0,241482,0.23,-1.55,10.53,-0.08,0.03,-0.01,27.29,22.972705,27.426258135591386,307.30516602432294,10.645952282440495,0.08602325267042626,0.25638641346672497,0.5697279867719395
25431181,1869,1,196134.0,241544,0.09,-0.85,9.96,-0.02,-0.05,-0.0,27.29,23.012685,45.25775302853362,275.87949564761726,9.996609425200127,0.05385164807134505,0.4140407561424642,0.5116331915045873
25471198,1875,1,196438.0,242032,-0.16,-1.83,10.66,-0.04,0.01,-0.0,27.29,23.052702,46.08266629603863,312.2983117106307,10.817120688981888,0.04123105625617661,0.4213340963662541,0.57895852260169
25511201,1867,1,196248.0,241471,0.61,-0.9,9.85,0.01,-0.08,0.0,27.29,23.092705,37.75867459206954,394.7489241844249,9.90982340912289,0.0806225774829855,0.34773883986047605,0.7313801382399494
25551168,1858,1,196399.0,241924,-0.03,-2.32,10.48,-0.03,0.02,0.015,27.29,23.132672,33.51087130507043,467.4320074909346,10.733764484094106,0.03905124837953327,0.3101825587383166,0.8657450950881421
25590180,1869,1,196014.0,240786,0.39,-0.74,9.57,0.01,-0.04,-0.0,27.29,23.171684,33.162334417737945,467.93171830127307,9.606487391341334,0.04123105625617661,0.30710102495774727,0.8666688811799422
25630178,1875,1,195901.0,240707,0.12,-2.14,10.63,-0.05,-0.04,0.015,27.29,23.211682,48.80979361632901,346.6130538479085,10.84393378806787,0.06576473218982953,0.4454455613698754,0.6423941755319399
25670181,1874,1,195969.0,240402,0.63,-1.21,8.82,-0.02,-0.03,0.015,27.29,23.251685,34.80378196436087,87.31413473995406,8.924875349269591,0.03905124837953327,0.3216136239043431,0.16304345880742155
25710181,1729,1,195586.0,237138,0.2,-1.07,9.49,-0.02,0.0,0.01,27.29,23.291685,-106.55836305291032,-269.4864364798428,9.552224871724912,0.022360679774997897,-0.9282174298426669,-0.49655284853669357
25750172,1604,1,194557.0,235633,0.43,-0.81,10.26,-0.0,0.02,0.015,27.29,23.331676,-237.41284074095455,-626.1027081891662,10.300902873049527,0.025,-2.085146604314244,-1.1558084521758285
25790167,1600,1,194403.0,238087,0.46,-1.52,10.3,-0.03,-0.03,-0.0,27.29,23.371671,-247.36207258537212,-868.7935101217746,10.421708113356468,0.042426406871192854,-2.1731111645475543,-1.6044567159212335
25830201,1600,1,194897.0,238541,0.36,-1.09,9.06,-0.02,0.09,-0.01,27.29,23.411705,-248.37272522329178,-926.5985826272484,9.13243122065532,0.09273618495495703,-2.1820466900467537,-1.711317566059508
25870178,1629,1,194490.0,238506,0.12,-0.91,9.98,-0.01,-0.09,-0.0,27.29,23.451682,-227.6970159127304,-802.2705327807711,10.02212053409856,0.09055385138137416,-1.9992456753095436,-1.4814795859865615
25910201,1703,1,194808.0,238686,0.6,-0.69,10.63,-0.02,0.02,-0.0,27.29,23.491705,-158.18923310326426,-560.3818586369376,10.669254894321346,0.0282842712474619,-1.3847036037969793,-1.0343141688792246
25950178,1777,1,194848.0,239334,0.1,-1.12,10.01,-0.03,-0.05,0.015,27.29,23.531682,-87.98981340861408,-293.7994461205093,10.072958850308085,0.06020797289396148,-0.7640465341219702,-0.541498884706368
25990180,1849,1,195105.0,239739,0.78,-1.12,9.75,0.02,-0.03,0.0,27.29,23.571684,-26.49965012205183,-87.24373528039703,9.84506475346912,0.03605551275463989,-0.22039097791821963,-0.1596514463314782
26030168,1885,1,195272.0,239897,0.44,-1.59,9.71,-0.05,-0.07,-0.0,27.29,23.611672,9.333614131517619,20.545697401410386,9.849152247782548,0.08602325267042628,0.09642316221641123,0.03961256135936052
26070200,1935,1,195350.0,238938,0.8,-0.91,9.19,-0.04,-0.05,-0.0,27.29,23.651704,46.793783134718645,66.71879186719252,9.269530732458898,0.06403124237432849,0.4276213234574679,0.1249700553346703
26110198,1968,1,195328.0,238814,0.32,-1.22,10.59,-0.05,-0.0,-0.01,27.29,23.691702,79.46117655838863,155.37385940070547,10.664844115128922,0.050990195135927854,0.7164449172200361,0.28886148345804474
26150202,1970,1,195311.0,239094,0.86,-1.03,9.53,-0.02,-0.06,-0.0,27.29,23.731706,70.19566311827319,387.7735127610372,9.624001246882711,0.06324555320336758,0.6345253451524807,0.7184851039037006
26190200,1973,1,195831.0,239836,0.05,-1.46,9.67,-0.08,-0.01,-0.0,27.29,23.771704,71.78757245613409,762.1164818037504,9.779723922483702,0.0806225774829855,0.6485999598590225,1.4105110141108368
26230201,2001,1,195922.0,240123,0.64,-0.87,10.07,-0.01,-0.03,0.0,27.29,23.811705,90.12484666481839,1123.4852879433272,10.127753946458219,0.03162277660168379,0.8107260703837862,2.0785523496505793
26270865,1997,1,196265.0,240944,0.11,-0.95,11.3,-0.03,0.02,0.01,27.43,23.852369,84.34662476935611,1230.9552350883039,11.340396818453929,0.03741657386773942,0.7596388351164709,2.277225743151472
26309172,1999,1,196255.0,239728,0.48,-0.65,10.21,-0.03,-0.02,0.015,27.43,23.890676,78.61576888426609,921.4136005486636,10.241923647440457,0.03905124837953327,0.7089703789406029,1.7049942626535508
26349181,2003,1,195243.0,235627,0.5,-1.1,10.0,-0.02,-0.03,-0.0,27.43,23.930685,80.19744571598854,253.82844086979958,10.07273547751553,0.03605551275463989,0.7229545245620306,0.4708686987383146
26389201,1978,1,194224.0,233045,0.48,-0.59,9.12,-0.01,0.0,-0.0,27.43,23.970705,50.49441333451671,-492.52351377974634,9.151661051415749,0.01,0.46033986024520923,-0.9088684232704982
26429178,1936,1,193682.0,232406,0.59,-1.44,10.02,-0.05,-0.02,0.015,27.43,24.010682,5.216304071853845,-984.9860784667279,10.140123273412408,0.05590169943749475,0.06002061633084884,-1.8192551080850956
26469180,1946,1,194024.0,233627,0.13,-1.26,9.22,-0.03,0.04,0.01,27.43,24.050684,13.333169059862382,-1048.0665252335766,9.306605181267765,0.05099019513592785,0.13178459472722553,-1.935868233481129
26509172,1986,1,194012.0,235549,0.97,-2.03,9.74,0.0,-0.08,0.0,27.43,24.090676,50.95495227183513,-755.5245882727288,9.996469376734968,0.08,0.46441164244156663,-1.395063097707389
26549172,1995,1,194927.0,237179,0.49,-1.74,8.74,-0.04,-0.0,-0.0,27.43,24.130676,58.52908927854428,-343.28645096351545,8.924981792698516,0.04,0.5313771772045185,-0.6329826105994506
26589214,2013,1,194805.0,236006,0.59,-1.77,9.6,-0.07,-0.09,0.0,27.43,24.170718,77.82475733677623,-29.451840053117714,9.779621669573931,0.1140175425099138,0.7019767754139691,-0.05281495625520784
26629180,2042,1,194959.0,237795,0.42,-1.3,10.45,-0.04,0.06,0.01,27.43,24.210684,104.07743664899996,111.5213899446803,10.538923094889723,0.07280109889280519,0.9340856886203308,0.20779399294862957
26669171,2018,1,194746.0,237384,0.32,-0.65,10.0,-0.01,-0.07,0.0,27.43,24.250675,85.24698266138931,141.06144305280367,10.026210650091091,0.07071067811865477,0.7675992070591279,0.2624029580695524
26709181,1998,1,195202.0,240230,0.44,-1.1,10.1,-0.04,0.02,-0.0,27.43,24.290685,62.742037276566485,157.1445290991529,10.169247759790297,0.044721359549995794,0.5686252908003198,0.29213481676754377
26749178,1993,1,195162.0,240290,1.0,-0.09,9.13,0.02,-0.08,-0.025,27.43,24.330682,63.902553065733905,206.57896745899237,9.185042188253684,0.08616843969807043,0.5788858076557194,0.38352136608361515
26789207,1987,1,195441.0,240708,0.02,-0.93,11.34,-0.04,0.125,-0.01,27.43,24.370711,58.534949870566685,270.24314924917746,11.37808859167479,0.13162446581088183,0.5314289927022393,0.5012136082101619
26829181,1968,1,195107.0,240564,0.47,-0.73,9.92,0.01,-0.02,-0.025,27.43,24.410685,44.26187307020007,300.4732977631369,9.957921469865084,0.03354101966249685,0.4052358409540488,0.5570983122679605
26869181,1953,1,195043.0,240456,0.46,-1.9,9.88,-0.03,-0.01,-0.01,27.43,24.450685,33.762333102953725,256.89868671742005,10.071544072286038,0.033166247903554,0.31240581846451276,0.47654448231905766
26909200,1937,1,195109.0,240559,0.55,-1.0,9.33,-0.03,-0.08,-0.01,27.43,24.490704,21.413817776053495,119.65530827364464,9.399542542060225,0.08602325267042626,0.2032283726826509,0.2228306911122053
26949200,1911,1,195212.0,239168,0.61,-1.05,9.98,-0.05,-0.04,-0.0,27.43,24.530704,1.6489729864413414,-103.38181718471263,10.053606318132813,0.06403124237432849,0.028480622586407284,-0.18948497264931063
26989217,1886,1,194445.0,237645,0.56,-1.0,9.65,-0.02,0.0,0.0,27.43,24.570721,-18.337984051902506,-364.8558779964101,9.717823830467395,0.02,-0.14823089783780166,-0.6728567463772811
