timestamp_us,ecg,leads,ir,red,accX,accY,accZ,gyroX,gyroY,gyroZ,temp,time_sec,ecg_filtered,ppg_filtered,accel_magnitude,gyro_magnitude,ecg_norm,ppg_norm
1957961,1771.5,1,209502,252953,0.3,-1.8,12.36,0.01,0.15,0.11500000000000002,27.61,0.030471,1.4053222034541335,-10.418446181613103,12.493982551612596,0.189274932307477,0.021676463675304753,-0.014062972015926996
1998159,1771.5,1,209540,252812,0.37,-1.37,8.0,0.01,0.15,-0.02,27.61,0.070669,-6.435327782182059,97.97686734544807,8.124887691531496,0.15165750888103102,-0.11999104489835741,0.11474912218602694
2038162,1793.0,1,209621,253862,0.28,-1.53,9.63,-0.01,-0.06,-0.03,27.61,0.110672,6.099881163916628,173.3182908723488,9.754803944723852,0.06782329983125268,0.10649933843686946,0.20428146661006508
2078215,1808.0,1,209764,253702,0.18,-1.37,10.6,-0.09,0.13,-0.04,27.61,0.150725,10.979864412728448,223.3398271248158,10.68968194101209,0.16309506430300091,0.19467252178351532,0.2637248007378881
2118176,1834.0,1,209563,254053,0.62,-0.27,10.99,-0.01,-0.15,-0.03,27.61,0.190686,35.84675032115092,300.4277270010618,11.01078562138052,0.1532970971675589,0.6439758039202547,0.35533257876429497
2158196,1872.0,1,209786,254204,1.43,-1.57,7.320000000000001,-0.11,-0.03,-0.05,27.61,0.230706,50.905505408160494,457.74801505282045,7.621823928693185,0.12449899597988733,0.9160624701157624,0.5422849026702774
2198196,1865.0,1,209981,255115,-0.2,-1.7,9.24,-0.09,-0.05,-0.04,27.61,0.270706,58.664486416127325,688.425061436208,9.397212352607555,0.11045361017187261,1.0562543560541364,0.8164110845328101
2238210,1910.0,1,210065,254787,0.95,-0.6,8.03,-0.11,0.05,-0.06,27.61,0.31072,66.3677438131846,900.065942495817,8.108230386465348,0.13490737563232041,1.195439408995151,1.0679155474192878
2278173,1874.0,1,210208,254825,0.08,-0.66,10.99,-0.11,-0.01,-0.05,27.61,0.350683,55.20809766054247,957.480382474707,11.010090826146712,0.12124355652982141,0.9938031581862602,1.1361442743860386
2318196,1936.0,1,210085,254071,0.74,-0.96,9.45,-0.11,-0.01,-0.06,27.61,0.390706,77.73504244627011,774.3004374087436,9.527418328172642,0.12569805089976535,1.4008275948613964,0.9184615022073792
2358199,1915.0,1,209711,253516,-0.62,-1.78,11.25,-0.11,0.15,-0.04,27.61,0.430709,76.91646394260013,387.7721288247686,11.406809369845714,0.19026297590440447,1.3860372423524425,0.45912872040209546
2398197,1902.0,1,208814,250936,0.9,-1.14,7.61,-0.11,0.03,-0.06,27.61,0.470707,36.0436628134308,-47.4164236010657,7.747367294765365,0.12884098726725127,0.6475336852488978,-0.05802969712204979
2438173,1913.0,1,208617,250635,-0.1,-1.41,10.75,-0.11,0.04,-0.05,27.61,0.510683,52.925533659467035,-350.7207692108183,10.842536603581285,0.12727922061357855,0.9525610219112471,-0.41846288069129783
2478196,1952.0,1,208787,251063,0.33,-1.65,9.33,-0.11,0.09,-0.05,27.61,0.550706,80.59210849399767,-425.60765077106333,9.480522137519642,0.15066519173319362,1.4524500278935375,-0.5074550679745665
2518176,1935.0,1,208836,251907,-0.58,-2.24,9.23,-0.11,0.09,-0.05,27.61,0.590686,54.23649784953538,-306.3641177800757,9.515613485214708,0.15066519173319362,0.9762479650826049,-0.3657514397934991
2559196,1877.0,1,208804,251713,0.68,-1.0,8.67,-0.11,0.04,-0.05,27.61,0.631706,0.5135606707569496,-117.74473099700154,8.753930545760573,0.12727922061357855,0.00556381551342029,-0.14160468078670446
2597173,1843.0,1,209027,253224,-0.96,-2.27,10.84,-0.09,0.15,-0.04,27.61,0.669683,-56.84663689458583,9.365946543736605,11.116658670661792,0.17944358444926362,-1.0308395815597629,0.009447906605499443
2637196,1771.5,1,208847,253188,0.13,-1.39,8.25,-0.07,0.06,-0.05,27.61,0.709706,-108.93947219507832,6.302340656042099,8.367287493566836,0.10488088481701516,-1.9720705005624666,0.005807255756652134
2677173,1798.0,1,208979,253734,-0.64,-2.13,11.66,-0.08,0.08,-0.03,27.61,0.749683,-119.72794220207817,-112.01587025028714,11.870219037574664,0.11704699910719625,-2.167000215575033,-0.13479676145731923
2717196,1809.0,1,208640,253244,-0.71,-2.13,8.19,0.0,0.12,-0.04,27.61,0.789706,-74.88939255010715,-270.14538241865205,8.492178754595313,0.12649110640673517,-1.3568421765236618,-0.32271073074949963
2757189,1886.0,1,208400,253398,-0.76,-2.18,9.46,0.01,0.06,-0.05,27.61,0.829699,-46.092018342181966,-379.49315671153073,9.737638317374497,0.07874007874011811,-0.836521506046854,-0.4526546863013404
2797176,1840.0,1,208508,253888,-0.54,-1.28,8.98,0.02,0.07,-0.05,27.61,0.869686,-50.45944207333935,-383.62881860349137,9.08682562834789,0.08831760866327848,-0.9154335911433744,-0.4575693200791344
2837174,1869.0,1,208709,254119,-1.38,-1.4,10.43,0.04,0.08,-0.085,27.61,0.909684,-69.91129449950574,-278.89732398232195,10.613637453766733,0.12338962679253067,-1.266896221844385,-0.33311114276424963
2877176,1827.0,1,208825,254711,-0.9,-2.7,10.6,0.03,0.15,-0.04,27.61,0.949686,-75.86377035871169,-105.7834819300363,10.975427098751101,0.15811388300841897,-1.37444756342492,-0.12739047270470738
2917173,1920.0,1,208787,254814,-0.59,-1.61,8.17,0.02,-0.05,-0.085,27.61,0.989683,-18.368098826506337,73.28490482464635,8.347999760421654,0.10062305898749055,-0.33559637702340706,0.0854063093026399
2957197,1926.0,1,208997,255319,-0.96,-2.62,11.06,0.049999999999999996,0.15,-0.04,27.61,1.029707,8.863021694322134,193.92096575088624,11.406559516348477,0.16309506430300091,0.15642469354117505,0.22876475477919656
2997863,1939.0,1,209065,255296,-0.76,-2.26,10.65,0.049999999999999996,-0.02,-0.06,27.61,1.070373,1.440537208931848,208.4310216237839,10.913647419630157,0.0806225774829855,0.022312740272216365,0.24600784973559142
3036196,1947.0,1,209090,255426,-0.58,-2.01,10.62,0.049999999999999996,0.02,-0.04,27.61,1.108706,21.75095300374664,108.18478759666442,10.8240888762057,0.0670820393249937,0.3892881835094139,0.12687975350411843
3076213,1947.0,1,208778,254520,-0.57,-2.44,8.99,0.049999999999999996,-0.03,-0.02,27.61,1.148723,4.560145703185367,-62.69700163457554,9.332663071171059,0.06164414002968976,0.0786788787831513,-0.07618844580836988
3116197,1942.0,1,208560,254403,0.14,-1.64,10.15,0.04,-0.11,-0.06,27.61,1.188707,16.133595132687798,-224.49292926094242,10.282592085656223,0.13152946437965904,0.2877918667732465,-0.26845941761285674
3156176,1994.0,1,208401,254126,-0.78,-1.36,11.56,0.01,-0.01,-0.06,27.61,1.228686,44.90442090775167,-309.2099848515334,11.665830446221992,0.061644140029689765,0.807632851210391,-0.3691333396687491
3196196,1930.0,1,208527,254260,0.25,-0.74,9.65,0.04,-0.11,-0.06,27.61,1.268706,3.355894845662176,-302.81465596941456,9.681559791686462,0.13152946437965904,0.05692006809838078,-0.361533419712705
3236174,1947.0,1,208793,254173,-0.9,-2.02,12.36,-0.01,0.03,-0.05,27.61,1.308684,-2.41309344365648,-245.07934793553403,12.556273332482055,0.05916079783099616,-0.04731595817949587,-0.2929233876435383
3276197,1971.0,1,208682,254438,0.06,-1.16,10.16,0.049999999999999996,-0.04,-0.06,27.61,1.348707,37.945293791072785,-190.0239668997279,10.226182083260595,0.08774964387392122,0.6818929951686835,-0.2274980597621974
3316173,2002.0,1,208685,254601,-0.63,-1.78,12.36,-0.03,0.02,-0.05,27.61,1.388683,59.36916560709236,-168.95266898928088,12.503395538812647,0.061644140029689765,1.0689867373631614,-0.2024578811504134
3356196,2018.0,1,208455,254575,-0.08,-0.91,10.46,-0.01,-0.05,-0.06,27.61,1.428706,76.56609656184608,-189.2161153960507,10.499814284071887,0.07874007874011811,1.3797066863388676,-0.22653804552720117
3396209,2037.0,1,208661,254654,0.38,-1.56,10.92,-0.05,-0.09,-0.05,27.61,1.468719,101.59832242596947,-255.139113635327,11.037409116273619,0.11445523142259598,1.8319973865639974,-0.30487795878510165
3436196,2039.5,1,208572,254155,-0.47,-1.87,9.1,-0.1,-0.02,-0.05,27.61,1.508706,94.66076720763398,-370.98310033461087,9.302032036066098,0.11357816691600547,1.7066472988577102,-0.4425417197161746
3476209,1951.0,1,208498,253801,0.45,-0.64,10.92,-0.07,-0.1,-0.05,27.61,1.548719,17.940698724638537,-513.5242022844177,10.947990683225848,0.13190905958272922,0.32044322400449327,-0.6119311264586069
3516197,1904.0,1,208348,252897,-0.55,-1.68,10.15,-0.11,0.04,-0.04,27.61,1.588707,-37.285984961223946,-609.8427370307113,10.302786030972399,0.12369316876852982,-0.6774111246649206,-0.7263917222853472
3556196,1898.0,1,208120,252955,0.19,-1.63,11.05,-0.01,-0.05,-0.04,27.61,1.628706,-36.44573650099592,-562.5557330979973,11.171190625891226,0.06480740698407861,-0.6622292320716496,-0.6701979828430211
3596196,1894.0,1,208546,253521,0.4,-1.7,8.98,-0.04,-0.03,-0.02,27.61,1.668706,-40.530279472173255,-316.2817471944113,9.14824573347262,0.05385164807134504,-0.7360301321818215,-0.37753710259395346
3636193,1906.0,1,209143,254407,0.62,-1.06,9.26,-0.02,-0.09,-0.03,27.61,1.708703,-29.33327696425116,90.97820897756198,9.341070602452376,0.09695359714832658,-0.5337189141455195,0.10643223272247673
3676196,1908.0,1,209553,254679,0.58,-1.63,7.320000000000001,-0.04,-0.07,-0.04,27.61,1.748706,-20.11782355253434,540.8023821996587,7.521681992746038,0.09000000000000001,-0.36721099355140246,0.6409829608859706
3716193,1899.0,1,209832,254612,0.91,-0.44,9.89,-0.07,-0.15,-0.04,27.61,1.788703,-35.28789423937891,902.9210124950741,9.941518998623904,0.17029386365926402,-0.6413089475512245,1.0713083836382233
3756197,1904.0,1,210014,254776,0.56,-1.79,10.45,-0.05,0.06,-0.03,27.61,1.828707,-17.804415564946606,1104.4679361245724,10.616976970870757,0.08366600265340755,-0.32541155772447955,1.3108176434753245
3796176,1938.0,1,210108,255122,0.81,-0.55,8.73,-0.03,-0.14,-0.03,27.61,1.868686,4.743373300784496,1153.3449384694297,8.784731071580962,0.14628738838327796,0.08198949681881916,1.3689008652078127
3836196,1898.0,1,210075,255237,0.4,-1.57,10.9,-0.07,0.03,-0.02,27.61,1.908706,-15.021736199211109,1112.03893091882,11.019750450894975,0.07874007874011811,-0.27513316835302754,1.3198146716945902
3876173,1915.0,1,210117,255456,0.99,-0.03,8.6,0.01,-0.06,-0.03,27.61,1.948683,-20.457886865092455,1049.7370546752154,8.656847001073773,0.06782329983125268,-0.3733553721852748,1.2457779362443426
3916176,1879.0,1,210002,255595,-0.28,-1.82,12.36,-0.1,0.03,-0.01,27.61,1.988686,-19.95333328101319,1001.8929606546412,12.49641548605039,0.10488088481701516,-0.3642389278433685,1.188922176106274
3956196,1890.0,1,210000,255753,1.02,-0.45,7.320000000000001,0.049999999999999996,-0.05,-0.01,27.61,2.028706,-52.832474894438405,952.3494781627444,7.404410847596182,0.07141428428542851,-0.9583103485734988,1.1300469394730424
3996192,1771.5,1,209670,255306,-0.01,-2.43,12.36,-0.11,-0.02,-0.01,27.61,2.068702,-108.8468269903134,843.1604742318557,12.596610655251673,0.11224972160321824,-1.9703965557537597,1.0002916594474733
4036896,1826.0,1,209785,255097,1.87,0.35,7.320000000000001,0.049999999999999996,-0.16999999999999998,0.11500000000000002,27.49,2.109406,-125.10171618021177,612.0990106254976,7.56318715886365,0.2112463017427761,-2.264095376373541,0.7257086535219174
4077144,1872.0,1,209308,254627,-0.35,-2.7,12.36,-0.11,-0.02,0.03,27.49,2.149654,6.18439481839665,244.8783382503823,12.656306728267927,0.11575836902790225,0.10802635965227557,0.289320194429735
4117191,2039.5,1,209037,254263,0.61,-0.2,7.320000000000001,0.049999999999999996,0.15,0.01,27.49,2.189701,90.47208306451637,-191.05623617377418,7.348094991220515,0.1584297951775486,1.630964740926344,-0.22872476193818247
4157146,1898.0,1,208356,253871,1.19,-2.62,9.67,-0.11,-0.16999999999999998,-0.03,27.49,2.229656,31.627114517261205,-566.5706295129288,10.089073297384651,0.2046948949045872,0.5677340009421342,-0.6749691043830878
4197203,2002.0,1,208228,253770,0.19,-0.39,7.320000000000001,0.04,0.06,0.02,27.49,2.269713,71.51054731159796,-764.9856034444149,7.332843923062867,0.07483314773547883,1.2883613172602626,-0.9107564966743619
4237144,1966.0,1,208486,253688,0.85,-2.15,10.27,-0.1,-0.16999999999999998,0.04,27.49,2.309654,85.8908186087391,-761.3619274861848,10.527008121968938,0.20124611797498107,1.5481889094894072,-0.9064502838529711
4277173,1923.0,1,208446,253722,1.64,-0.49,7.320000000000001,0.03,0.08,0.11500000000000002,27.49,2.349683,16.66273478884376,-644.9139644989981,7.517453026125272,0.14326548781894405,0.29735254055826016,-0.7680687847839512
4317144,1904.0,1,208592,253578,1.23,-1.25,7.320000000000001,-0.01,-0.16999999999999998,0.11500000000000002,27.49,2.389654,13.224330393438388,-563.8198655850186,7.527137570152416,0.20548722588034518,0.23522629017619004,-0.6717002207876652
4357173,1878.0,1,208653,253406,0.86,-1.02,7.45,-0.01,-0.06,0.06,27.49,2.429683,-14.685326639503394,-630.5254425789872,7.568520330949769,0.08544003745317531,-0.26905480695805867,-0.7509701152872795
4397173,1886.0,1,208356,252452,0.96,-0.78,9.03,0.049999999999999996,0.02,0.01,27.49,2.469683,-2.453322648911916,-852.4314419811369,9.11432389154566,0.054772255750516606,-0.0480428330292694,-1.0146731811198475
4435144,1931.0,1,207928,251533,0.97,-0.23,8.74,-0.05,0.02,0.0,27.49,2.507654,40.373879255977776,-1130.7334820761587,8.796669824427878,0.05385164807134505,0.7257734965048724,-1.3453947542104239
4475167,1878.0,1,207885,252552,0.01,-1.57,11.56,0.049999999999999996,0.07,0.02,27.49,2.547677,-2.203217886124955,-1319.8850605402545,11.666130463868472,0.08831760866327847,-0.04352385581547395,-1.5701739457709758
4515144,1870.0,1,208094,252941,1.41,0.1,9.9,0.049999999999999996,0.0,-0.085,27.49,2.587654,-19.262498361728998,-1302.0907267944726,10.000404991799082,0.0986154146165801,-0.351756689504714,-1.5490279633466488
4555145,1862.0,1,208333,253400,0.7,-0.14,11.26,0.03,-0.02,-0.04,27.49,2.627655,-14.285262802598478,-1035.1072482253667,11.282606081929831,0.053851648071345036,-0.26182631861224953,-1.2317568574955338
4595173,1855.0,1,208842,254268,0.87,-0.84,11.04,0.04,0.07,0.0,27.49,2.667683,-27.740509066171917,-564.5088070524156,11.106038897824911,0.0806225774829855,-0.504940246526079,-0.6725189277069068
4635145,1862.0,1,208862,255040,0.05,-0.61,11.69,0.03,-0.02,0.01,27.49,2.707655,-15.430203123520496,-10.481798813907496,11.706011276263148,0.03741657386773942,-0.2825134865164027,-0.01413825742240363
4675162,1867.0,1,210145,255901,1.59,0.57,11.51,0.049999999999999996,-0.11,0.08,27.49,2.747672,-7.780003530873989,470.60403534164215,11.633275549044646,0.14491376746189438,-0.1442870998817572,0.5575624164540491
4715143,1883.0,1,210171,256010,0.52,-1.44,11.84,-0.11,-0.05,0.05,27.49,2.787653,5.207794458929711,753.1758289238438,11.938576129505561,0.1307669683062202,0.09038081495237424,0.8933579717170413
4755173,1918.0,1,210212,256136,1.03,1.18,12.36,0.049999999999999996,-0.16,0.02,27.49,2.827683,46.22078668184515,812.0303391343755,12.45884826137633,0.16881943016134132,0.8314173920238567,0.9632980130967473
4795142,1922.0,1,210306,255618,1.54,0.7,12.11,-0.11,-0.16999999999999998,0.02,27.49,2.867652,49.828129686206424,739.8176185948839,12.227579482465039,0.20346989949375802,0.8965960821751459,0.8774836779743149
4835166,1905.0,1,210010,255578,-1.02,-1.12,12.36,-0.11,0.15,0.11500000000000002,27.49,2.907676,27.94110688877972,680.3231164680051,12.452485695635229,0.2186892772862904,0.5011339718288444,0.8067830991107036
4875173,1902.0,1,210190,255718,1.3,-0.77,10.93,-0.11,-0.16999999999999998,0.03,27.49,2.947683,41.69087631198603,712.9679732870164,11.033938553390625,0.2046948949045872,0.7495694435329043,0.8455767723328396
4915173,1935.0,1,210205,255601,1.47,0.53,12.36,-0.11,-0.1,0.01,27.49,2.987683,47.548796007412655,775.9432539860958,12.458386733441854,0.1489966442575134,0.8554123124526982,0.9204137512191927
4955166,1875.0,1,210237,254880,1.41,-1.12,8.42,-0.11,-0.16999999999999998,0.11500000000000002,27.49,3.027676,25.803318875111053,700.4406971407761,8.610394880607974,0.23286262044390035,0.46250769692690413,0.830689923238201
4995173,1890.0,1,210063,253847,0.06,-0.4,7.320000000000001,-0.09,-0.16999999999999998,0.11,27.49,3.067683,-3.2596743188753607,348.83632919049575,7.331166346496308,0.22158519806160337,-0.0626122669827306,0.4128591749104793
5035173,1821.0,1,209237,252917,1.79,-0.6,7.320000000000001,-0.11,0.15,0.11500000000000002,27.49,3.107683,-28.480393039141553,-238.86539299155464,7.559530408696033,0.2186892772862904,-0.518308719710855,-0.2855390042826217
5075853,1815.0,1,208937,252279,0.82,-0.93,7.320000000000001,-0.11,-0.16999999999999998,0.01,28.11,3.148363,-70.83289764066448,-812.439842714143,7.424264273313553,0.2027313493271329,-1.2835480582534586,-0.9671489710369018
5116173,1771.5,1,208527,251310,-0.36,-0.59,7.320000000000001,0.02,0.15,0.0,28.11,3.188683,-93.53483962496263,-1047.4146238504716,7.352557378218821,0.15132745950421556,-1.6937344033385189,-1.2463823867441213
5156163,1840.0,1,208704,252822,1.28,-0.56,7.320000000000001,-0.07,0.02,-0.085,28.11,3.228673,-28.33960899759516,-779.4720900160859,7.4521406320600265,0.11191514642799696,-0.5157649861620617,-0.9279715829378428
5196176,1873.0,1,208988,254644,1.65,-0.59,9.72,-0.02,0.06,-0.085,28.11,3.268686,-12.13982909441942,-168.92573147434018,9.876689728851463,0.10594810050208546,-0.22306189872302035,-0.2024258698244695
5236176,1856.0,1,209912,258553,-0.33,-2.24,7.320000000000001,0.049999999999999996,0.15,-0.06,28.11,3.308686,-1.077797704653826,360.90477585828535,7.662173320931863,0.1691153452528776,-0.0231893843750176,0.42720077177900506
5276176,1952.0,1,210435,257729,2.415,1.13,7.320000000000001,0.02,-0.04,-0.085,28.11,3.348686,59.78809747798019,417.2160041439896,7.790476557952024,0.09604686356149274,1.076556139711118,0.4941184918034506
5316167,1838.0,1,210350,256854,-1.36,-0.99,12.36,0.04,0.15,0.11500000000000002,28.11,3.388677,-26.99941888543391,-37.328749243127376,12.473944845156243,0.19319679086361657,-0.49154997917249316,-0.04604196059182624
5356168,1793.0,1,208149,252088,1.33,-0.41,7.320000000000001,-0.01,-0.16999999999999998,0.03,28.11,3.428678,-89.43273688511384,-609.8534453278268,7.451134141860554,0.17291616465790582,-1.6196162274051216,-0.7264044475419279
5396176,1857.0,1,208607,254287,-1.21,-0.96,12.36,0.049999999999999996,0.15,0.11500000000000002,28.11,3.468686,-27.91580197015282,-761.5358112339017,12.456135034592393,0.19551214796017152,-0.508107497841099,-0.9066569194441446
5436167,1851.0,1,208659,255583,1.81,-0.7,7.320000000000001,0.049999999999999996,0.05,0.02,28.11,3.508677,-19.972402054487645,-241.24487434613806,7.572879241081296,0.07348469228349534,-0.3645834688743583,-0.28836667243934394
5476144,1890.0,1,210658,260371,-1.08,-1.93,12.36,-0.04,0.05,-0.085,28.11,3.548654,-8.753909493621503,702.2190022981608,12.556309171090046,0.10641898326896382,-0.16188396131291813,0.8328031807582844
5516196,1902.0,1,211631,261770,0.92,-0.44,12.36,0.049999999999999996,0.06,-0.085,28.11,3.588706,29.709846060204836,1517.0882890529233,12.401999838735687,0.11543396380615195,0.5330921477698035,1.8011570321591448
5556164,1970.0,1,211311,260870,-0.32,-0.08,12.36,-0.01,-0.06,-0.05,28.11,3.628674,71.08998071017794,1775.9024274141261,12.36440051114489,0.07874007874011811,1.2807623780496593,2.1087200631296468
5596210,1959.0,1,210299,257741,-0.78,-1.29,12.36,-0.08,-0.12,0.05,28.11,3.66872,73.23889730167447,1460.8790488240309,12.45159025988247,0.15264337522473748,1.319589727849437,1.734360510134447
5636196,1893.0,1,209986,257127,-0.04,-1.14,12.36,-0.03,-0.16999999999999998,0.04,28.11,3.708706,1.4988886253359388,893.9033195338479,12.412525931493557,0.1772004514666935,0.023367053345603878,1.0605921646670426
5676196,1903.0,1,209686,255547,0.22,-1.06,10.14,-0.07,-0.08,0.11500000000000002,28.11,3.748706,0.8844808857007266,428.5693074863266,10.197627174985366,0.15660459763365828,0.012265727067558928,0.5076102446482021
5716176,1905.0,1,209833,255970,-0.25,-1.63,12.36,-0.03,0.02,0.11500000000000002,28.11,3.788686,19.501539085813043,196.08660294585076,12.469522845722686,0.12051970793193952,0.3486450141180543,0.23133830019631815
5756176,1872.0,1,209485,254004,0.18,-1.17,9.19,-0.06,-0.11,0.01,28.11,3.828686,-40.987327542605705,85.97410687074321,9.265926828979387,0.12569805089976535,-0.7442882308796568,0.10048558382221029
5796176,1865.0,1,208896,252471,0.9,-0.84,9.78,-0.05,-0.16999999999999998,0.0,28.11,3.868686,-22.85139933260901,-90.15303441806654,9.857180124153153,0.1772004514666935,-0.41660216277460826,-0.10881595493436212
5836176,1920.0,1,208536,251005,0.88,-1.31,7.320000000000001,-0.08,-0.15,0.0,28.11,3.908686,8.145425836686247,-424.9639670258874,7.488184025516468,0.16999999999999998,0.1434589295419793,-0.5066901432880471
5876173,1890.0,1,208159,250059,0.67,-0.43,7.56,-0.04,-0.16999999999999998,-0.03,28.11,3.948683,-12.651714275515786,-852.031575741275,7.6018024178480195,0.1772004514666935,-0.23231081283276248,-1.0141979981430076
5916196,1904.0,1,208043,250123,1.22,-1.19,9.41,-0.03,0.13,-0.01,28.11,3.988706,5.269344534876391,-1195.8467022698367,9.563085276206628,0.13379088160259653,0.09149292248527777,-1.4227723638179341
5956176,1872.0,1,207479,249975,0.88,-0.52,7.320000000000001,0.02,-0.16999999999999998,-0.05,28.11,4.028686,-50.293347784519355,-1276.2212692863022,7.391021580268862,0.17832554500127007,-0.9124325435097536,-1.5182858686096474
5994176,1830.0,1,208276,251641,0.19,-1.61,12.36,-0.06,0.15,-0.0,28.11,4.066686,-58.60287233306901,-1012.351480728673,12.465865393144593,0.16155494421403513,-1.0625718358364467,-1.2047149313177006
6034191,1922.0,1,208028,252620,0.95,-1.02,7.320000000000001,0.049999999999999996,-0.03,-0.085,28.11,4.106701,-4.695939168430562,-488.06358415315077,7.451530044225818,0.10307764064044152,-0.08856318473332081,-0.5816748779691742
6074176,1821.0,1,208574,256044,1.07,-0.91,10.47,0.03,0.02,-0.085,28.11,4.146686,-78.62760856085332,59.07979554089273,10.56380139911765,0.09233092656309695,-1.424385524297477,0.06852559909784761
6114850,1830.0,1,209353,257343,1.2,-0.86,7.320000000000001,0.049999999999999996,0.11,-0.085,27.93,4.18736,-76.25581844639694,348.8206910405677,7.467395797732969,0.14773286702694158,-1.3815312205101347,0.41284059123950556
6155167,1905.0,1,209084,256326,-0.18,-0.28,8.23,0.049999999999999996,0.03,-0.085,27.93,4.227677,-22.647392594647574,234.26539690606995,8.236728719582793,0.10307764064044152,-0.41291610022211805,0.27670825434007346
6195173,1866.0,1,208617,254116,-0.17,-1.35,8.02,0.03,0.06,0.01,27.93,4.267683,-12.132751055391756,-170.40045703241557,8.134605091828366,0.06782329983125268,-0.22293401032646223,-0.20417836706192075
6235168,1974.0,1,207838,252982,1.52,1.3,8.81,0.03,-0.16,0.05,27.93,4.307678,26.173174635674453,-532.2539808870246,9.034185076696183,0.17029386365926402,0.4691903755602601,-0.6341887492952106
6275145,1856.0,1,208172,252620,-1.6250000000000002,-2.43,12.36,-0.04,0.15,0.11500000000000002,27.93,4.347655,-10.18502422433233,-521.7919086198912,12.700989134709154,0.19319679086361657,-0.18774182497910497,-0.6217560952018656
6315176,1947.0,1,207826,254428,1.12,0.51,7.320000000000001,0.049999999999999996,-0.16999999999999998,0.05,27.93,4.387686,1.9771533106704728,-67.79753099994757,7.422728608806873,0.1841195263952197,0.032008500997805424,-0.08224968450692403
6355144,1946.0,1,209376,255923,-1.0,-2.32,12.36,-0.11,0.15,0.01,27.93,4.427654,72.91861370699611,560.0582216980366,12.615545965197066,0.18627936010197158,1.3138027358298696,0.6638657307280775
6395176,1997.0,1,209217,256892,1.76,1.6275,7.320000000000001,0.049999999999999996,-0.01,-0.085,27.93,4.467686,68.7728046735949,932.3389248403628,7.702516228480146,0.09912113800799505,1.2388948598425351,1.1062673018141471
6435167,1970.0,1,209817,256571,-0.77,-2.8725,12.36,-0.11,0.15,0.04,27.93,4.507677,86.41147270459635,784.1707768051502,12.712739919073307,0.19026297590440447,1.5575962633087839,0.9301909676866942
6475176,2039.5,1,208636,252932,0.74,1.6275,7.320000000000001,0.03,0.08,-0.03,27.93,4.547686,126.2473871207337,224.20235635873394,7.535167964285867,0.09055385138137417,2.277365001541766,0.2647497915176202
6515156,2039.5,1,207474,250469,-0.45,-0.93,12.36,-0.11,0.14,0.11500000000000002,27.93,4.587666,152.51890367972126,-356.38561453403025,12.403104450096354,0.21195518394226645,2.7520476240515994,-0.4251947269830742
6555176,2039.5,1,206959,250172,-0.18,0.08,9.67,-0.1,0.15,0.11500000000000002,27.93,4.627686,134.86805761849553,-606.9582311264483,9.672005996689622,0.21383404780343096,2.4331261838276363,-0.7229639057665707
6595164,1963.0,1,208321,251622,0.12,-1.33,12.36,-0.11,-0.11,0.11500000000000002,27.93,4.667674,77.98413388277312,-491.28505707612794,12.431930662612304,0.19345542122153103,1.4053282629541006,-0.5855031308716392
6635176,1962.0,1,208338,250406,-0.02,1.6275,12.36,-0.1,0.12,0.01,27.93,4.707686,63.699865339768316,-273.1684291117723,12.466705910143224,0.15652475842498528,1.1472352808681991,-0.32630318288364
6675167,1943.0,1,208091,249627,1.16,-1.66,10.01,-0.11,0.15,0.11500000000000002,27.93,4.747677,60.77067179727405,-247.31282296916154,10.212800791163998,0.2186892772862904,1.094309623932175,-0.29557754848378087
6715168,1963.0,1,207519,247521,-0.23,-0.77,7.98,-0.11,-0.04,-0.03,27.93,4.787678,70.38481715722561,-478.92980701371863,8.020361587858742,0.12083045973594572,1.2680212451248738,-0.5708207098043258
6755209,1904.0,1,206982,249689,2.415,-1.29,7.320000000000001,-0.07,0.15,0.05,27.93,4.827719,25.325311353709946,-777.8221425500853,7.815287902566355,0.17291616465790582,0.45387089579939255,-0.9260108599000735
6795168,1779.0,1,207543,249907,0.09,-2.34,7.320000000000001,-0.11,0.13,-0.01,27.93,4.867678,-110.00947370435155,-893.2582941845383,7.68544728691831,0.1705872210923198,-1.9914036487410607,-1.0631899680626784
6835173,1771.5,1,207097,250574,0.03,-0.09,7.320000000000001,-0.1,-0.12,-0.085,27.93,4.907683,-103.52433895821201,-727.4808747290576,7.320614728286144,0.1778341924377874,-1.8742280467267933,-0.8661875712189708
6875196,1843.0,1,207866,252727,0.65,-1.92,10.12,-0.11,0.1,-0.085,27.93,4.947706,-42.07669212363831,-384.33218958278854,10.321012547226168,0.17124543789543709,-0.7639712375699188,-0.4584051743785136
6915176,1771.5,1,208357,253692,0.04,0.28,7.320000000000001,-0.09,0.07,-0.085,27.93,4.987686,-104.311454913855,-38.66867937292903,7.325462442740391,0.14221462653327893,-1.8884499233057506,-0.04763427303124694
6955167,1771.5,1,208543,253745,0.13,-2.08,11.27,-0.09,-0.04,-0.04,27.93,5.027677,-106.73207161216689,231.36212211148774,11.461073248173577,0.1063014581273465,-1.9321864422792887,0.27325813371986307
6995193,1792.0,1,208096,252935,0.05,-0.95,7.320000000000001,-0.05,0.02,-0.0,27.93,5.067703,-88.09938116383623,488.76753122309384,7.381558101105756,0.05385164807134505,-1.595524706495263,0.5791470944847488
7035176,1774.0,1,208657,253104,0.57,-1.36,10.31,-0.04,-0.12,0.0,27.93,5.107686,-100.77003625212049,826.7650424404086,10.414921987225828,0.12649110640673517,-1.8244623764131707,0.9808080689149884
7075176,1872.0,1,209452,254491,0.23,-1.42,7.320000000000001,0.01,0.08,0.05,27.93,5.147686,-7.205221267460671,1226.0755047730188,7.460006702409858,0.09486832980505139,-0.1339017400736713,1.4553305848443585
7115833,1971.0,1,209677,255081,-0.06,-1.22,9.45,-0.0,0.07,0.0,28.11,5.188343,88.53611569413103,1533.0358921692869,9.528614799644279,0.07,1.5959850294808848,1.8201084433233143
7154173,1918.0,1,209746,256292,-0.14,-2.8725,11.45,0.049999999999999996,0.14,-0.085,28.11,5.226683,47.349839219811024,1584.038341470987,11.805649336228822,0.17124543789543709,0.8518174941066455,1.880717450209399
7194176,1827.0,1,209399,256485,-0.29,-0.01,7.5,0.049999999999999996,-0.06,-0.085,28.11,5.266686,-69.76276308449076,1353.1608051354206,7.505611234269998,0.11543396380615195,-1.26421250613859,1.6063530151441563
7234192,1771.5,1,209104,256357,-0.55,-2.54,12.36,0.049999999999999996,0.09,-0.085,28.11,5.306702,-93.88376909950229,977.8290269323521,12.630269197447852,0.13351029922818689,-1.7000389787776098,1.1603256842779512
7274176,1837.0,1,208296,255681,-0.54,-0.23,9.59,0.049999999999999996,-0.12,-0.085,28.11,5.346686,-66.10656738322893,635.059082507247,9.607944629315886,0.15532224567009068,-1.1981511289817997,0.7529933658021875
7314196,1771.5,1,208070,255304,-0.63,-1.68,12.36,0.049999999999999996,-0.1,0.0,28.11,5.386706,-105.17018597445212,384.782037617751,12.489551633265304,0.11180339887498948,-1.903965765756629,0.45557543107898624
7354176,1771.5,1,208417,255408,-0.51,-1.55,9.37,-0.03,-0.12,-0.02,28.11,5.426686,-121.87395809220538,134.65973010627934,9.51101992427731,0.12529964086141668,-2.2057751545240705,0.15834137926608866
7394210,1771.5,1,208383,253452,-0.2,-1.25,12.36,0.01,-0.16999999999999998,0.03,28.11,5.46672,-131.9181418324825,-232.67581997253083,12.424656936913792,0.17291616465790582,-2.387256854223447,-0.27818359529995085
7434176,1771.5,1,207249,249909,0.6,-0.61,7.320000000000001,-0.05,-0.16999999999999998,0.11500000000000002,28.11,5.506686,-105.6404282655198,-696.6864830875037,7.369837175949006,0.2112463017427761,-1.9124622620832816,-0.8295929072251865
7474173,1910.0,1,206343,248057,0.48,-0.62,9.21,-0.06,-0.16,0.11500000000000002,28.11,5.546683,-18.904378569701414,-1073.7159526456242,9.243316504372228,0.20597329924045982,-0.34528606030937836,-1.27763769781024
7514176,1852.0,1,206732,249115,0.39,-2.46,7.53,-0.05,-0.16999999999999998,0.11500000000000002,28.11,5.586686,-19.923877063932075,-1163.1755583564036,7.931242021272583,0.2112463017427761,-0.3637067029776327,-1.3839474522002184
7554176,1910.0,1,207343,250787,1.1,0.2,7.320000000000001,-0.02,-0.16999999999999998,-0.04,28.11,5.626686,-28.289715171741484,-920.2800477481505,7.404890276027054,0.17578395831246946,-0.5148634876874649,-1.0953013993808693
7594176,1917.0,1,207764,252827,-0.34,-1.62,12.36,-0.08,0.04,-0.06,28.11,5.666686,32.344725544676905,-491.8780451178122,12.470348832330233,0.10770329614269007,0.5807000390340282,-0.586207811074137
7634196,1987.0,1,207896,253503,2.16,1.6275,7.92,0.03,-0.16999999999999998,-0.085,28.11,5.706706,55.37363737418078,-100.27788643028725,8.369035562715695,0.19241881404893857,0.9967941855684415,-0.1208478717095594
7674168,1957.0,1,208007,253608,1.21,-1.12,12.36,-0.06,-0.02,-0.02,28.11,5.746678,49.190326164889704,102.47884981140254,12.469486757681729,0.066332495807108,0.8850720330223362,0.12009907478665571
7714196,1991.0,1,208060,253226,1.7,1.08,8.35,-0.03,-0.11,-0.03,28.11,5.786706,71.3972798025016,93.2766056065961,8.589464476904249,0.11789826122551596,1.2863147617010395,0.10916354345408585
7754176,2027.0,1,208032,251988,0.6,-1.34,12.27,-0.09,0.03,-0.01,28.11,5.826686,98.76565869092143,-62.06477740967218,12.357528069966095,0.09539392014169455,1.7808158627481936,-0.07543713909809706
7794173,2017.0,1,207740,252501,1.07,-0.36,9.9,-0.02,-0.01,0.02,28.11,5.866683,102.88381692149078,-279.62045486517417,9.964160777506553,0.03,1.85522413470341,-0.33397047884042647
7834176,2039.5,1,207784,252302,-0.18,-1.58,10.47,-0.05,0.14,0.0,28.11,5.906686,104.25244031865927,-496.2841353382118,10.590075542695624,0.14866068747318506,1.879952883876971,-0.5914438096617579
7874176,2039.5,1,207324,252409,0.74,-1.06,8.31,0.049999999999999996,-0.04,-0.02,28.11,5.946686,117.55461345364958,-667.7366098340725,8.409952437439822,0.0670820393249937,2.120301034872347,-0.7951901855639347
7914176,2031.0,1,207430,252406,0.34,-0.15,9.59,-0.04,-0.02,-0.085,28.11,5.986686,105.22643885097979,-755.424640110264,9.597197507606062,0.09604686356149274,1.8975514178864006,-0.8993946797324088
7954191,2039.5,1,207324,251987,0.27,-2.17,11.33,0.049999999999999996,-0.05,-0.01,28.11,6.026701,98.87329372755111,-728.8006866483987,11.539094418540824,0.07141428428542851,1.782760648895069,-0.8677559760858526
7994173,2039.5,1,207613,251238,1.01,-1.15,7.320000000000001,-0.02,-0.16999999999999998,-0.01,28.11,6.066683,132.135608388594,-580.9961301367823,7.4783019462977025,0.17146428199482244,2.3837553694929414,-0.6921117177010174
8034191,2039.5,1,207930,251171,0.67,-0.92,11.63,-0.05,0.04,-0.01,28.11,6.106701,82.04476844939678,-338.29957595284156,11.685555185783858,0.06480740698407861,1.478697177946547,-0.4037020957091341
8074173,1915.0,1,208128,252596,0.71,-0.77,7.320000000000001,0.03,-0.16999999999999998,0.01,28.11,6.146683,19.28410261515589,-50.9947072305936,7.394552048636889,0.17291616465790582,0.3447162986254,-0.06228196775045649
8114163,2002.0,1,208551,253703,0.2,-0.78,11.26,-0.03,0.13,-0.0,28.11,6.186673,44.912844433024794,228.44858769445358,11.288755467278047,0.13341664064126335,0.8077850503062615,0.2697958210277747
8154860,1921.0,1,208680,254543,0.43,-1.19,8.57,0.02,-0.02,0.0,28.01,6.22737,19.210261333168074,464.8212132328834,8.662903670248216,0.0282842712474619,0.3433821094359497,0.5506903718795334
8193162,1921.0,1,208975,255083,0.6,-1.31,10.4,-0.07,0.01,-0.01,28.01,6.265672,-15.974573195913402,647.8016418404684,10.499338074374023,0.07141428428542851,-0.2923493485991697,0.7681360477115406
8233175,1898.0,1,209172,255639,-0.0,-0.59,9.95,-0.02,0.05,0.01,28.01,6.305685,-21.20092678984789,787.8658553538074,9.967477113091356,0.05477225575051661,-0.38678086817141183,0.9345820321211765
8273173,1878.0,1,209295,255802,0.65,-1.07,10.71,-0.05,-0.03,-0.0,28.01,6.345683,-33.42914359991192,903.9427883290084,10.782926318954425,0.05830951894845301,-0.6077244140450239,1.0725226158839851
8313191,1903.0,1,209469,255832,-0.22,-0.69,10.79,-0.05,0.09,0.01,28.01,6.385701,-28.26690162597104,1004.853337154339,10.81427759954404,0.10344080432788601,-0.5144512848475281,1.1924401538134664
8353173,1826.0,1,209518,255386,0.45,-1.95,11.6,-0.08,-0.03,0.0,28.01,6.425683,-69.60186478864225,1069.0572506190397,11.771363557379408,0.08544003745317531,-1.2613053414585744,1.2687371843791322
8393175,1843.0,1,209429,255113,0.3,-0.72,10.24,-0.05,0.04,0.01,28.01,6.465685,-86.74415747162598,1036.104944601883,10.269664064612824,0.06480740698407861,-1.571038067710577,1.2295781524179035
8433162,1867.0,1,209286,254991,0.48,-1.34,9.71,-0.07,0.05,0.01,28.01,6.505672,-23.970114203787535,827.6881237004129,9.813770936801003,0.08660254037844388,-0.4368154804070121,0.9819050169872872
8473167,1936.0,1,209076,254339,-0.38,-1.3,8.82,-0.09,0.08,0.0,28.01,6.545677,15.758427265077176,401.2868873358049,8.923385007944015,0.12041594578792295,0.2810132071979998,0.4751890489328641
8513173,1887.0,1,208556,252648,0.47,-0.92,8.66,-0.07,-0.07,-0.0,28.01,6.585683,-2.5769685710840484,-193.5258756851282,8.721404703372043,0.09899494936611666,-0.050276909256560344,-0.2316595699758195
8553196,1874.0,1,207766,250104,0.05,-1.38,9.34,-0.1,0.08,0.01,28.01,6.625706,-37.27512936363944,-807.0779550874463,9.441530596253978,0.1284523257866513,-0.6772149820661956,-0.9607771459865695
8593162,1863.0,1,207102,248595,0.63,-0.92,7.57,-0.07,-0.1,-0.0,28.01,6.665672,-23.57451939634752,-1254.9112566236129,7.651679554189394,0.12206555615733704,-0.4296677399929682,-1.4929620121694342
8633196,1881.0,1,207293,248869,0.56,-0.99,9.82,-0.06,0.05,0.01,28.01,6.705706,-23.61426512696,-1418.2892086847003,9.885651217800474,0.07874007874011811,-0.4303858792598179,-1.6871129903495117
8673163,1808.0,1,207565,249428,0.04,-2.12,8.2,-0.07,0.0,0.01,28.01,6.745673,-76.13809525447579,-1304.1146449119371,8.469710738862338,0.07071067811865477,-1.3794041581707415,-1.551433096213752
8713167,1823.0,1,207734,250114,0.82,-1.45,9.17,-0.01,0.03,0.0,28.01,6.785677,-74.30531230996935,-1022.3157264430541,9.320075106993505,0.03162277660168379,-1.346288817735932,-1.2165559908233945
8753163,1844.0,1,207873,252083,-0.03,-2.21,8.73,0.0,0.08,0.01,28.01,6.825673,-41.252218245088585,-709.5190934670816,9.00543724646394,0.0806225774829855,-0.7490743654391415,-0.8448426017302767
8793167,1840.0,1,208344,253654,1.32,-0.24,8.8,0.04,0.01,-0.085,28.01,6.865677,-48.7672156270438,-461.1644294905347,8.901685233707155,0.09447221813845594,-0.8848578729276223,-0.5497091376469342
8833164,1808.0,1,208466,253990,-0.27,-1.9,9.63,0.049999999999999996,0.08,-0.085,28.01,6.905674,-80.86219645955404,-307.9218142876206,9.819358431180726,0.12698425099200294,-1.4647608121725548,-0.3676025359593664
8873175,1790.0,1,208429,254101,0.41,-1.06,8.87,0.049999999999999996,0.02,-0.05,28.01,6.945685,-91.60930996540027,-228.56092397404024,8.942516424362887,0.07348469228349534,-1.6589432839728253,-0.2732936387719273
8913163,1859.0,1,208576,253903,0.31,-1.04,10.12,0.04,-0.03,-0.085,28.01,6.985673,-33.52932922944979,-172.02111371791827,10.1780204362145,0.0986154146165801,-0.6095346017918964,-0.20610428225925886
8953175,1898.0,1,208832,254259,-0.13,-1.44,10.47,0.049999999999999996,0.06,0.01,28.01,7.025685,20.353543987694177,-71.53190622508978,10.569361380897146,0.07874007874011811,0.3640393260645344,-0.08668744733664611
8993167,1903.0,1,208923,254005,0.38,-1.75,9.59,0.04,-0.08,0.0,28.01,7.065677,7.709786824918703,143.44742353755638,9.75576752490546,0.08944271909999159,0.1355876569373277,0.16878427718533268
9033166,1884.0,1,209195,255397,-0.18,-0.91,11.83,0.049999999999999996,0.07,0.01,28.01,7.105676,6.488840232166702,519.6003836456853,11.866313665161561,0.08660254037844387,0.11352718207700996,0.6157874635333817
9073163,1934.0,1,209821,256594,0.24,-1.17,9.91,0.03,-0.01,0.0,28.01,7.145673,38.07553497640355,1034.4896621497069,9.981713279793205,0.03162277660168379,0.6842462368352917,1.2276586237166875
9113167,1946.0,1,210251,257576,-0.32,-1.61,12.36,0.02,-0.02,0.01,28.01,7.185677,63.14332597665851,1564.1103110521653,12.46852437139215,0.030000000000000002,1.1371795399360853,1.8570358790414
9153176,1942.0,1,210468,257879,-0.32,-1.92,11.15,0.01,-0.01,0.0,28.01,7.225686,49.73714879349966,1906.687651905658,11.318626241730929,0.01414213562373095,0.8949522087180743,2.264139316132878
9193862,1909.0,1,210609,257911,0.51,-0.79,11.24,-0.01,-0.16,-0.0,27.81,7.266372,14.404997901958717,1876.6298385585246,11.27926416039628,0.16031219541881397,0.25655898895656754,2.2284199685117367
9232196,1909.0,1,210447,256546,-0.22,-1.97,12.36,-0.07,0.0,0.0,27.81,7.304706,24.114778061170142,1424.290367790543,12.51794312177524,0.07,0.431998571959691,1.6908801743648176
9272176,1914.0,1,209144,253452,0.57,-0.1,8.3,-0.03,-0.09,-0.02,27.81,7.344686,4.783725984344359,694.997173759213,8.32015023902814,0.09695359714832658,0.08271860271624604,0.824221085944406
9312192,1808.0,1,208553,252438,0.57,-1.82,9.91,-0.09,-0.12,-0.01,27.81,7.384702,-70.6801015276973,-36.46456632234708,10.091848195449632,0.15033296378372907,-1.2807872865465906,-0.04501500464532694
9352196,1861.0,1,207918,250948,1.34,0.74,7.320000000000001,-0.08,-0.16999999999999998,-0.02,27.81,7.424706,-59.6938624783268,-529.0805253676084,7.478342062248825,0.18894443627691182,-1.0822842137694284,-0.6304175581061128
9392176,1871.0,1,207823,250946,-0.42,-2.8725,11.79,-0.11,0.01,0.11500000000000002,27.81,7.464686,-7.121541864683784,-721.3944832122279,12.142147925717262,0.15945218719101975,-0.13238979239942864,-0.8589547784726302
9432176,1911.0,1,207565,250484,0.74,0.08,7.320000000000001,-0.05,-0.07,-0.02,27.81,7.504686,-14.868041164957477,-744.7476690492749,7.357744219528158,0.08831760866327848,-0.27235615463315177,-0.8867066496197757
9472173,1874.0,1,207961,251559,0.65,-1.24,11.94,-0.08,-0.08,-0.0,27.81,7.544683,-9.888086622665725,-789.397528770635,12.021801029795826,0.1131370849898476,-0.18237665623582336,-0.9397665260054461
9512196,1946.0,1,207913,250696,0.39,-0.8,7.320000000000001,-0.05,-0.07,-0.0,27.81,7.584706,21.165086012309114,-932.520652305046,7.373906698623194,0.08602325267042628,0.3787025410965334,-1.1098475809081552
9552193,1946.0,1,207008,248872,0.64,-1.37,10.72,-0.06,-0.05,0.01,27.81,7.624703,51.564910328169155,-1077.4694716503702,10.826121189050122,0.07874007874011811,0.9279768206262402,-1.2820982102428873
9592175,2000.0,1,206725,249321,1.27,-1.32,7.320000000000001,-0.01,0.01,0.06,27.81,7.664685,80.30322611160746,-1058.778510379993,7.545707388972886,0.061644140029689765,1.4472304035691488,-1.2598867161704628
9632163,1966.0,1,207405,251476,0.65,-1.02,10.04,-0.03,0.04,0.0,27.81,7.704673,60.27911119065156,-807.6431541751314,10.112591161517408,0.05,1.0854279410894592,-0.9614488030514072
9672167,1958.0,1,208372,253492,0.17,-1.67,9.35,0.01,0.15,0.01,27.81,7.744677,42.32116858482228,-410.2608740460085,9.49948945996573,0.15066519173319362,0.7609577769146421,-0.4892176517535175
9712144,1961.0,1,208458,253160,1.01,-0.18,7.61,0.01,-0.04,-0.01,27.81,7.784654,49.54745611555314,-9.317503588302966,7.678841058388955,0.042426406871192854,0.8915247774300331,-0.012754661569414892
9752176,1949.0,1,208274,253194,0.81,-0.88,9.53,-0.05,0.01,0.0,27.81,7.824686,31.187386330328714,327.7667194639572,9.604759236961643,0.050990195135927854,0.559788843741333,0.38782100246019413
9792164,1950.0,1,208467,253885,0.44,-1.38,10.83,-0.02,0.12,0.01,27.81,7.864674,40.648014329934284,623.8154334973698,10.926431256361795,0.12206555615733702,0.730726661486248,0.7396319212128655
9832168,1980.0,1,208642,254589,0.56,-1.06,8.38,-0.03,-0.0,-0.0,27.81,7.904678,55.86724477949514,888.4359162997724,8.465317477803183,0.03,1.0057128506603026,1.054094949635214
9872193,1951.0,1,209330,255369,0.21,-0.82,11.69,-0.02,-0.02,0.0,27.81,7.944703,45.927220749605794,1036.1745277731825,11.720605786391758,0.0282842712474619,0.826113143741043,1.22966084191549
9912176,1968.0,1,209204,254686,0.47,-0.92,10.24,-0.03,0.03,0.0,27.81,7.984686,40.78490388538156,937.1869753755235,10.291982316347031,0.042426406871192854,0.7332000281466012,1.11202850607576
9952163,1926.0,1,208602,252113,0.05,-1.09,10.91,-0.01,0.05,0.0,27.81,8.024673,20.907514557351384,553.5064541955918,10.964428849693904,0.050990195135927854,0.3740486531700984,0.6560799061822263
9992167,1941.0,1,207621,249439,0.26,-0.87,10.28,-0.05,-0.01,-0.01,27.81,8.064677,16.753649161492223,11.70308452076687,10.320024224777768,0.05196152422706632,0.2989952121084811,0.012225255805057117
10032196,1920.0,1,207279,249482,0.26,-1.57,11.95,-0.01,-0.01,0.01,27.81,8.104706,12.259868584066089,-473.7223238093955,12.055496671643187,0.017320508075688773,0.21780006889370368,-0.564632371994842
10072176,1901.0,1,207155,248492,-0.04,-1.55,8.93,-0.03,0.06,-0.0,27.81,8.144686,-20.1670615679298,-759.6428217392805,9.063608552888855,0.0670820393249937,-0.3681006426214368,-0.9044073762381686
10112193,1852.0,1,206861,248329,0.21,-1.41,10.85,-0.0,-0.05,0.01,27.81,8.184703,-53.567268523848796,-871.0436860835052,10.943249060493871,0.050990195135927854,-0.9715868477138851,-1.0367911312655933
10152175,1872.0,1,207016,248731,0.34,-1.17,9.13,-0.07,0.05,0.01,27.81,8.224685,-52.524079928610334,-952.9182547839513,9.21093914864277,0.08660254037844388,-0.9527381643100054,-1.1340871703010194
10192167,1887.0,1,206674,247868,0.48,-0.87,9.05,-0.01,-0.14,0.0,27.81,8.264677,-9.324907706305602,-1124.6356841568054,9.104383559582715,0.14035668847618202,-0.17220094961607688,-1.33814840661057
10232863,1897.0,1,206377,246617,0.51,-1.42,8.92,-0.09,-0.08,0.11500000000000002,27.81,8.305373,-34.534646664164,-1361.2548621336748,9.046706583061042,0.16650825805346714,-0.6276990162935687,-1.6193359492429933
10273176,1826.0,1,206037,246230,1.18,-1.63,8.57,-0.03,0.15,0.11500000000000002,27.81,8.345686,-61.96814813063004,-1495.9079377784074,8.80307900680211,0.1913765920900464,-1.1233767740465574,-1.7793515818395254
10313167,1908.0,1,206363,247241,1.13,-1.76,7.320000000000001,-0.02,-0.16999999999999998,-0.03,27.81,8.385677,-24.441524359768,-1336.3521169520463,7.612942926359032,0.17378147196982766,-0.4453330781108274,-1.5897426517668773
10353196,1837.0,1,206994,249511,0.52,-0.0,9.09,-0.0,0.01,-0.0,27.81,8.425706,-51.88279917488332,-803.8983542859306,9.104861338867275,0.01,-0.9411512873491439,-0.9569986520218171
10393176,1883.0,1,207641,251892,1.77,-0.65,7.85,-0.05,-0.11,-0.085,27.81,8.465686,-41.36143045754009,3.1569455939003492,8.07328309921063,0.14773286702694158,-0.751047648530743,0.0020694103474425064
10433196,1915.0,1,208479,254198,0.29,-1.07,10.47,-0.05,-0.02,-0.06,27.81,8.505706,19.244270336554532,856.8672968769625,10.528527912296193,0.0806225774829855,0.3439965955802948,1.0165802283193204
10473196,1909.0,1,209208,255358,0.9,-1.2,8.08,-0.05,-0.1,-0.04,27.81,8.545706,-6.752202335593747,1519.9704669481785,8.218053297466499,0.11874342087037919,-0.12571644121045708,1.8045820821771763
10513192,1857.0,1,209705,255350,-0.13,-1.07,12.19,-0.06,-0.04,-0.0,27.81,8.585702,-42.298464472308126,1863.1155495243627,12.237561031512774,0.07211102550927978,-0.7679782951689876,2.2123601978860785
10553213,1872.0,1,209406,255251,0.46,-0.89,9.46,-0.02,-0.0,0.0,27.81,8.625723,-40.97786559894864,1909.8996056209778,9.512901765497213,0.02,-0.7441172692901691,2.2679562568389615
10593173,1888.0,1,209579,255513,-0.11,-1.38,12.36,-0.07,-0.0,-0.085,27.81,8.665683,-10.959263683009178,1786.2224680814552,12.43728668158775,0.11011357772772622,-0.201731044667665,2.120983933285584
10633213,1897.0,1,209094,254257,0.15,-1.58,8.38,0.04,0.03,-0.085,27.81,8.705723,-14.103837556878984,1613.286576090085,8.528968284616846,0.0986154146165801,-0.2585482660782721,1.9154747310401383
10671167,1848.0,1,209100,254159,0.9,-1.06,11.38,-0.11,-0.16,-0.085,27.81,8.743677,-54.711707370377106,1422.9343122307143,11.464641293996076,0.21195518394226642,-0.9922649548095466,1.6892686991927648
10711197,1857.0,1,209117,253831,0.1,-0.85,12.36,-0.05,-0.05,-0.085,27.81,8.783707,-46.14091610262287,1155.5862414772432,12.3895964421768,0.11056672193747992,-0.8374050072756023,1.3715643284589756
10751197,1879.0,1,208466,251134,0.5,-1.47,8.64,-0.05,-0.13,-0.02,27.81,8.823707,-33.749851134106834,734.9853452021869,8.778411017946244,0.1407124727947029,-0.6135190659467705,0.8717412225561266
10791196,1878.0,1,207661,249789,0.52,-1.1,12.36,-0.06,-0.05,-0.0,27.81,8.863706,-15.617922444159694,155.48085262427992,12.419742348374221,0.07810249675906655,-0.28590526251900633,0.18308426074232098
10831197,1901.0,1,207425,249509,0.48,-1.85,7.5,-0.07,-0.12,-0.01,27.81,8.903707,-17.31988022215068,-483.9459442889622,7.739696376473693,0.1392838827718412,-0.31665680971818727,-0.5767816607551001
10871196,1884.0,1,206816,248003,0.64,-0.63,7.62,-0.04,-0.1,-0.0,27.81,8.943706,-11.807959902142336,-1017.8732023815269,7.672737451522761,0.1077032961426901,-0.21706557421824355,-1.2112766959047536
10911194,1964.0,1,206569,248851,0.7,-2.13,8.26,-0.04,-0.05,0.02,27.81,8.983704,55.50760344344038,-1297.6767461507684,8.558884273081393,0.0670820393249937,0.9992147296942706,-1.543782588136396
10951176,1941.0,1,206566,248305,0.31,-1.37,7.320000000000001,-0.05,0.02,-0.01,27.81,9.023686,27.983788324140846,-1273.1972139587128,7.4535494900081005,0.05477225575051661,0.5019051543992992,-1.5146922178598654
10991176,1890.0,1,206521,249499,0.54,-1.05,9.77,0.01,-0.05,0.01,27.81,9.063686,0.19825782022079175,-1025.143054584408,9.84108733829753,0.05196152422706632,-0.0001331827409925248,-1.219915859871543
11031168,1965.0,1,207460,251247,1.39,-0.8,9.06,-0.01,-0.0,-0.0,27.81,9.103678,35.30656327546137,-718.103924903354,9.200853221305078,0.01,0.6342155221748891,-0.8550444276182654
11071193,1904.0,1,207730,251307,-0.71,-2.35,9.24,0.049999999999999996,0.1,0.02,27.81,9.143703,22.40173441850249,-492.9600574219767,9.56055437723148,0.11357816691600547,0.40104672161829535,-0.5874936256201406
11111168,2002.0,1,207544,251797,0.85,-1.38,8.1,0.03,-0.03,0.01,27.81,9.183678,73.06798231260588,-375.0819412761976,8.260562934812615,0.04358898943540673,1.3165015781777136,-0.4474125971398068
11151164,1997.0,1,207547,252230,0.24,-0.8,10.3,0.04,0.08,0.01,27.81,9.223674,104.54585924197097,-277.5166983343594,10.333808591221342,0.09,1.885254475952894,-0.33147046960932963
11191146,1970.0,1,208045,253542,0.43,-1.61,8.08,0.03,0.06,0.0,27.81,9.263656,57.59817244983012,-100.70285207349556,8.250054545274232,0.0670820393249937,1.0369878356458329,-0.12135288168355497
11231145,1975.0,1,208166,253840,0.59,-0.89,10.48,-0.02,-0.06,-0.03,27.81,9.303655,63.03743549389227,159.3254816865708,10.534258398197759,0.06999999999999999,1.1352662749768487,0.18765304425176438
11271882,1955.0,1,208678,255041,0.3,-1.36,10.39,0.04,0.11,0.02,27.81,9.344392,60.397634201352986,390.6996687336046,10.48292421035276,0.11874342087037917,1.087569454824351,0.4626076765879902
11312145,1962.0,1,208798,253799,0.62,-0.3,9.02,-0.02,-0.05,-0.06,27.81,9.384655,35.74693961574353,448.9038025912255,9.046258895256093,0.0806225774829855,0.6421723904290327,0.5317748400884607
11352196,1919.0,1,208533,253039,-0.37,-2.32,12.36,-0.04,0.01,0.03,27.81,9.424706,33.67412153861632,268.6402928825298,12.58129166659767,0.05099019513592785,0.6047200142547334,0.31755782794822285
11392176,1949.0,1,208109,251807,0.55,-0.73,8.49,-0.02,-0.02,-0.01,27.81,9.464686,18.277244377328017,-88.76197576911774,8.539057325021306,0.030000000000000002,0.3265240443733606,-0.10716288367234578
11432196,1883.0,1,207600,251226,0.28,-1.46,12.36,-0.05,-0.08,0.02,27.81,9.504706,-1.6572468245666174,-481.99439783015447,12.4490802873144,0.09643650760992956,-0.03365906652045591,-0.5744625310979985
11472176,1917.0,1,207803,251282,0.6,-1.29,9.46,-0.08,0.03,-0.01,27.81,9.544686,-11.427646126013697,-778.9004422318262,9.566383851801056,0.08602325267042626,-0.21019393663219024,-0.927292262533294
11512176,1856.0,1,207569,250591,0.13,-1.07,10.1,-0.04,-0.11,0.02,27.81,9.584686,-32.05478069133967,-914.2564930042158,10.157352017135175,0.11874342087037917,-0.5828919614434959,-1.0881432790169974
11552176,1881.0,1,207562,250408,0.85,-1.55,10.28,-0.1,-0.06,0.07,27.81,9.624686,-43.27934081830545,-889.814792680687,10.430886827111106,0.13601470508735444,-0.7857010998358004,-1.0590978664240966
11592176,1851.0,1,207629,250280,0.63,-0.41,9.16,-0.05,0.03,0.11500000000000002,27.81,9.664686,-40.50710252895856,-745.1926832192736,9.190788867121254,0.1289379695822763,-0.7356113633542888,-0.8872354843573842
11632167,1857.0,1,207982,250571,-0.06,-2.79,10.84,-0.09,0.03,0.11500000000000002,27.81,9.704677,-63.787880251930474,-534.2869658788409,11.193448976968627,0.14908051515875576,-1.1562563078056685,-0.6366046568262278
11672176,1831.0,1,208089,251178,1.64,-0.93,7.320000000000001,-0.01,-0.03,-0.05,27.81,9.744686,-63.64284518679332,-311.2344145832072,7.558895421951544,0.05916079783099616,-1.1536357653287768,-0.371539080515068
11712196,1890.0,1,208649,252024,0.03,-2.55,9.98,-0.09,0.04,0.09,27.81,9.784706,-26.712707217978192,-112.27318978073406,10.30066988112909,0.13341664064126332,-0.4863695760577179,-0.1351025483637583
11752167,1877.0,1,208545,251739,0.67,-0.66,7.320000000000001,0.01,-0.03,0.0,27.81,9.824677,-22.56732959166135,65.33732820077137,7.38016937475015,0.03162277660168379,-0.41146949487909634,0.07596176824786219
11792163,1883.0,1,208828,253229,1.17,-2.57,10.92,-0.08,0.08,0.11500000000000002,27.81,9.864673,-27.59633749478757,265.1400849288243,11.279193233560633,0.1613226580490168,-0.5023353059455676,0.31339833892615754
11832168,1883.0,1,209256,253716,0.55,-0.87,8.03,-0.04,0.03,-0.01,27.81,9.904678,-23.297468314739852,536.6608736199636,8.095696387587665,0.05099019513592785,-0.42466188760178897,0.6360613791685774
11872173,1873.0,1,209304,254908,0.63,-1.59,10.78,0.01,0.01,0.0,27.81,9.944683,-31.21428617813504,877.6762807655967,10.914824781003128,0.01414213562373095,-0.5677056230820504,1.0413086847967354
11912145,1873.0,1,209756,255764,0.51,-1.06,8.57,-0.05,0.07,0.0,27.81,9.984655,-39.024441781323496,1196.7683040819827,8.650352593969798,0.08602325267042628,-0.708822148867962,1.420503231397322
11952163,1873.0,1,209896,256414,-0.06,-1.85,11.41,0.03,-0.01,0.01,27.81,10.024673,-27.385026761413233,1338.6413832841183,11.559160869198074,0.033166247903554,-0.49851727234033627,1.5890987900821019
11992176,1923.0,1,209872,256185,0.96,-0.96,7.320000000000001,0.04,0.03,-0.04,27.81,10.064686,8.02786739407571,1175.0885679470982,7.444837137238129,0.06403124237432849,0.14133484394870008,1.3947400122837663
12032163,1925.0,1,209403,254319,0.23,-1.39,11.33,-0.04,-0.03,-0.01,27.81,10.104673,25.704233179267867,708.0444733663788,11.417263244753535,0.05099019513592785,0.4607173831530324,0.8397259074296982
12072197,1942.0,1,208542,252662,0.0,-1.82,8.96,0.02,0.09,-0.0,27.81,10.144707,25.704149004226323,105.97058473373262,9.14297544566319,0.09219544457292887,0.4607158622499897,0.12424849484097518
12112163,1935.0,1,207801,251934,0.41,-0.91,10.16,0.049999999999999996,0.01,-0.04,27.81,10.184673,35.861892321566046,-365.2090347010922,10.208907874988391,0.0648074069840786,0.644249394691117,-0.4356800809412899
12150167,1943.0,1,208320,253369,-0.39,-2.55,11.17,-0.05,0.08,0.0,27.81,10.222677,25.855244510292827,-477.4692117391326,11.464008897414551,0.09433981132056604,0.46344590681776565,-0.5690850043574853
12190176,1904.0,1,208306,253465,1.12,0.21,8.47,0.049999999999999996,-0.1,-0.06,27.81,10.262686,3.764852279324798,-158.70612248167953,8.54630914488822,0.1268857754044952,0.0643092489501978,-0.19028134813404515
12230167,1930.0,1,208859,255398,0.23,-2.23,12.36,-0.05,0.02,0.01,27.81,10.302677,15.023200948727132,466.2898864798641,12.561663902525016,0.05477225575051661,0.26772889012404355,0.5524356768238725
12270167,1941.0,1,209356,255979,0.64,-0.12,8.42,-0.0,-0.01,-0.03,27.81,10.342677,34.16835096599129,1119.5116912448134,8.445140614578303,0.03162277660168379,0.6136499182509924,1.3286949625091942
12310883,1914.0,1,209682,256604,0.25,-2.58,12.36,-0.05,-0.1,0.01,27.81,10.383393,9.529401179838953,1476.6384306603697,12.628875642748248,0.11224972160321825,0.1684650628537591,1.7530882476316985
12351176,1926.0,1,209748,255064,-0.15,-0.22,9.45,-0.06,-0.07,-0.0,27.81,10.423686,2.5590166094417026,1305.2468501083906,9.453750578474132,0.09219544457292887,0.04252180334115496,1.5494142353417515
12391254,1890.0,1,208880,253030,0.25,-1.49,12.36,-0.07,-0.13,0.11,27.81,10.463764,6.407167199376625,582.5814136547434,12.45199582396332,0.1841195263952197,0.11205148617243293,0.6906312746400078
12431176,1926.0,1,207800,249789,-0.11,-0.9,7.320000000000001,-0.06,-0.13,0.11500000000000002,27.81,10.503686,-21.107879142987535,-473.8512560642249,7.375940617982225,0.1836436767220696,-0.3850996519031819,-0.5647855892624004
12471197,1871.0,1,206044,247514,1.24,-0.18,8.15,-0.09,-0.16999999999999998,0.11500000000000002,27.81,10.543707,9.590377767262009,-1497.215663701865,8.245756484398505,0.2241093483101497,0.16956680840258143,-1.7809056242548436
12511176,1943.0,1,206348,246809,-0.94,-2.8725,8.46,-0.11,0.06,0.11500000000000002,27.81,10.583686,-19.60392022834321,-2140.634727086743,8.983677212032944,0.1700735135169495,-0.3579256149515091,-2.5455157748899504
12551176,1777.0,1,205487,247076,1.3,-1.05,7.320000000000001,0.049999999999999996,-0.16999999999999998,-0.085,27.81,10.623686,-79.04469342716726,-2226.041405744507,7.508322049566068,0.19653244007033546,-1.4319215543438024,-2.647009213847469
12591213,1961.0,1,206586,248871,-0.13,-2.74,8.16,-0.11,0.07,0.02,27.81,10.663723,7.170599137116983,-1795.9066560679953,8.608722320995144,0.1319090595827292,0.12584543192736056,-2.1358565072220825
12631176,1893.0,1,206462,251010,0.81,-0.77,7.320000000000001,0.02,0.08,-0.085,27.81,10.703686,17.509640768525042,-1063.3642532093716,7.404822752774034,0.11842719282327012,0.31265472345857853,-1.2653362058033923
12671164,1887.0,1,207484,253486,1.47,-2.29,9.11,-0.0,-0.02,-0.085,27.81,10.743674,-37.37080634745031,-305.84193951088446,9.507738953084482,0.0873212459828649,-0.6789437060813168,-0.36513090672603876
12711197,1904.0,1,208089,253548,0.24,-0.03,7.54,0.049999999999999996,0.0,-0.085,27.81,10.783707,-0.6080579921260469,251.24856167739281,7.543878312910409,0.0986154146165801,-0.014701968806942207,0.2968902801969828
12751163,1909.0,1,208304,254536,0.6,-1.95,11.8,-0.03,-0.02,0.01,27.81,10.823673,12.541045477905064,525.4553553861977,11.975078287844301,0.03741657386773942,0.22288046785190516,0.6227452474711566
12791175,1936.0,1,208427,253175,0.24,-0.06,8.8,0.049999999999999996,0.1,-0.0,27.81,10.863685,15.66128088150822,605.377816674786,8.80347658598579,0.11180339887498948,0.27925793357242445,0.7177214902382157
12831163,1914.0,1,208082,253425,0.4,-1.65,11.69,-0.03,-0.16,0.11500000000000002,27.81,10.903673,25.971206252244606,686.451516318123,11.812645766296388,0.19931131427994753,0.4655411426849789,0.8140658126627388
12871176,1913.0,1,208839,254370,0.9,-0.71,10.38,0.01,0.15,0.0,27.81,10.943686,-0.3764494584094767,931.0774940097785,10.443107774987292,0.15033296378372907,-0.01051718769872606,1.1047682743959748
12911145,1907.0,1,208558,254045,-0.54,-1.01,12.36,0.049999999999999996,-0.08,0.01,27.81,10.983655,8.01863559956297,1331.4672128661164,12.412948884129024,0.09486832980505137,0.14116804077158088,1.5805733300263605
12951176,1927.0,1,209079,255819,0.84,-1.53,12.36,-0.07,0.1,-0.02,27.81,11.023686,34.77710791422195,1674.9967811223216,12.482631934011353,0.12369316876852983,0.6246491441239409,1.9888083511495527
12991176,1910.0,1,209508,255767,-0.4,-0.22,12.03,-0.02,-0.05,-0.085,27.81,11.063686,-4.754188358862208,1659.189359716912,12.038658563145646,0.10062305898749055,-0.08961565075335759,1.9700235255984435
13031213,1883.0,1,208975,252364,1.0,-0.8,8.63,-0.03,-0.16999999999999998,-0.01,27.81,11.103723,8.069178360825294,1097.6584675835788,8.724499985672532,0.17291616465790582,0.14208126443002556,1.3027255786560394
13071193,1982.0,1,207154,247719,0.1,-1.04,8.96,-0.11,0.15,0.11500000000000002,27.81,11.143703,64.3341439722786,76.61219539134186,9.020709506463447,0.2186892772862904,1.1586956411411173,0.08936031111294376
13111168,1888.0,1,206202,246623,0.72,-2.58,7.320000000000001,-0.03,0.15,0.11500000000000002,27.81,11.183678,12.896208985955244,-1053.742675766145,7.794690500590772,0.1913765920900464,0.22929768191118935,-1.2539023577922523
13151167,1878.0,1,205779,246131,0.69,-1.1,7.320000000000001,0.01,0.11,-0.085,27.81,11.223677,-24.375315217366044,-1848.2063918283056,7.434278714172614,0.13937359864766355,-0.44413678899371756,-2.1980071507350285
13191168,1872.0,1,206209,248052,1.58,-1.53,8.73,-0.02,0.15,-0.085,27.81,11.263678,-16.455303386498827,-1990.6163689609027,9.002788456917113,0.17356554957709783,-0.30103534383185354,-2.3672407346678113
13231176,1872.0,1,205978,247952,-0.21,-1.68,7.320000000000001,0.03,-0.0,-0.085,27.81,11.303686,-10.239513751861669,-1463.2435691694657,7.513248298838527,0.09013878188659974,-0.18872636014169722,-1.7405347216876157
13271196,1909.0,1,205929,250132,0.78,-1.27,9.55,0.049999999999999996,0.06,0.11,27.81,11.343706,11.726571062376207,-590.005450960539,9.665598791590721,0.13490737563232041,0.2081642693917847,-0.7028179876022124
13311834,1862.0,1,207839,253400,0.76,-1.07,9.94,0.049999999999999996,0.15,-0.085,27.81,11.384344,-12.34114781307385,98.81804624276928,10.02627049305972,0.1795132307101624,-0.22669939323600885,0.11574874119017682
13350168,1874.0,1,208650,252613,-1.24,-1.98,11.48,0.049999999999999996,0.0,-0.085,27.81,11.422678,-16.928724761837625,172.99955551983263,11.715306227325003,0.0986154146165801,-0.3095892809254148,0.20390269591493207
13390176,1915.0,1,207636,249340,-0.35,0.61,9.64,0.049999999999999996,-0.05,0.03,27.81,11.462686,34.23761740997591,-379.94090116422785,9.66561948350958,0.07681145747868608,0.6149014477243185,-0.4531867655835764
13430167,1969.0,1,206417,247132,1.57,-0.86,11.4,0.01,0.07,0.0,27.81,11.502677,92.62646319924576,-1090.2381294804447,11.539692370249737,0.07071067811865477,1.6698908078680936,-1.297271906426989
13470144,1975.0,1,205718,248254,-0.34,-0.69,8.68,0.049999999999999996,0.06,0.0,27.81,11.542654,85.78849441320368,-1316.5907880706604,8.7140174431774,0.07810249675906654,1.5463400814107577,-1.566259181175786
13510167,1853.0,1,206995,252195,0.87,-0.96,12.36,0.02,0.0,-0.06,27.81,11.582677,-14.55619343721958,-727.7202984059484,12.427714995122797,0.06324555320336758,-0.2667215847028629,-0.8664720915014287
13550167,1847.0,1,208934,255485,0.35,0.6,10.24,0.04,-0.03,-0.085,27.81,11.622677,-42.10291774084499,433.1724441658326,10.26353253027436,0.0986154146165801,-0.7644450908674494,0.5130804043469143
13590167,1873.0,1,209867,256583,-0.59,-1.88,12.36,-0.05,-0.14,-0.085,27.81,11.662677,3.3943859117867783,1517.7651984715978,12.516073665491106,0.17124543789543709,0.05761553766406807,1.801961440735192
13630210,1874.0,1,209866,255268,-0.57,-0.45,10.34,0.02,-0.0,-0.085,27.81,11.70272,-7.899440516721012,1928.3056961111408,10.36547152810715,0.0873212459828649,-0.14644512762786152,2.2898292233442583
13670196,1849.0,1,209450,254598,0.64,0.51,12.36,-0.09,-0.16999999999999998,-0.02,27.81,11.742706,-27.64550938500474,1503.0867010191441,12.38706179850573,0.19339079605813714,-0.5032237602435767,1.7845181774144343
13710173,1883.0,1,208897,253081,0.53,-0.01,11.78,-0.03,0.05,-0.02,27.81,11.782683,7.346346355085074,577.6747384774964,11.791920963100116,0.061644140029689765,0.12902089194074,0.6848004035019106
13750176,1915.0,1,208003,252169,1.3,-0.34,10.69,-0.11,-0.16999999999999998,0.05,27.81,11.822686,33.403489971576825,-266.95751411384424,10.774121773954478,0.2085665361461421,0.5998301518180594,-0.3189224120572915
13790176,1842.0,1,207962,251540,0.55,-0.76,11.27,-0.11,-0.09,0.04,27.81,11.862686,-32.94855155205581,-566.5776771516953,11.308978733731884,0.147648230602334,-0.5990409148217686,-0.6749774794786445
13830176,1783.0,1,208111,253838,2.415,0.68,8.7,-0.01,0.15,0.11500000000000002,27.81,11.902686,-100.24908591507234,-223.81371992031265,9.054536155982811,0.189274932307477,-1.8150496700080354,-0.26765227591344914
13870144,1792.0,1,209451,254933,0.5,-1.6,11.37,-0.11,0.01,0.01,27.81,11.942654,-86.28237258945984,471.4601818210307,11.49290650792914,0.11090536506409417,-1.5626943827006219,0.5585798222566176
13910167,1823.0,1,209449,255685,1.76,0.7,7.320000000000001,0.049999999999999996,-0.16999999999999998,-0.085,27.81,11.982677,-61.446413561609916,1031.3305558545899,7.561084578286373,0.19653244007033546,-1.113949897873633,1.223904484497569
13950167,1847.0,1,209915,255689,1.65,-2.6,12.09,-0.11,-0.0,-0.01,27.81,12.022677,-35.963695252886225,1048.7094494007101,12.476000961846708,0.11045361017187261,-0.6535195482094005,1.2445567765547316
13990196,1873.0,1,209127,255192,0.26,-0.33,7.320000000000001,-0.04,-0.16999999999999998,0.09,27.81,12.062706,-13.410197056918543,419.2392611892306,7.33204609914586,0.196468827043885,-0.24601533556164326,0.496522839082185
14030180,1882.0,1,208959,252646,1.55,-1.7,10.1,-0.11,-0.16999999999999998,0.03,27.81,12.10269,-7.030984619677637,-600.925881040339,10.358692002371727,0.2046948949045872,-0.13075357355190734,-0.7157953334153585
14070176,1906.0,1,207116,249288,1.29,-0.82,7.320000000000001,-0.02,-0.16999999999999998,0.11500000000000002,27.81,12.142686,17.920229769997192,-1530.4483400259905,7.477894088578683,0.2062159062730128,0.3200733840279022,-1.8203978356240886
14110176,1904.0,1,206978,248817,1.67,-2.45,10.91,-0.11,-0.02,0.02,27.81,12.182686,6.950501175421148,-1923.6338537137362,11.305728636403758,0.11357816691600546,0.1218686277169045,-2.2876417392578503
14150176,1826.0,1,207581,252042,0.61,-1.44,7.320000000000001,0.049999999999999996,0.15,-0.01,27.81,12.222686,-63.27229873835228,-1608.6532544055822,7.48519204830444,0.1584297951775486,-1.1469406071138801,-1.9133330232288994
14190167,1817.0,1,208923,253426,2.415,0.29,7.320000000000001,-0.07,-0.12,-0.085,27.81,12.262677,-89.13287700520856,-757.9546806118702,7.7135416638532535,0.1628649747490233,-1.614198257952946,-0.90240126557845
14230179,1855.0,1,209556,255549,0.0,-0.23,11.53,0.049999999999999996,0.13,0.01,27.81,12.302689,-35.596041394247514,241.0661584967246,11.532293787447491,0.1396424004376894,-0.6468766542827163,0.28478997221288294
14270144,1943.0,1,210216,256843,0.44,-2.24,7.320000000000001,0.03,-0.16999999999999998,0.01,27.81,12.342654,27.512676455282893,1009.7030525479329,7.667698481291502,0.17291616465790582,0.49339294624782504,1.1982033365176366
14310168,1936.0,1,210884,257694,0.81,-0.92,12.36,-0.0,-0.03,0.03,27.81,12.382678,43.99314399655488,1349.3283820505605,12.42063202900722,0.042426406871192854,0.7911675926072833,1.6017987366669277
14350862,1973.0,1,210830,257219,0.59,-0.8,8.2,-0.0,0.08,0.02,27.73,12.423372,48.41758889176498,1283.4047219328447,8.260030266288375,0.08246211251235322,0.8711099553290156,1.5234580368625878
14389167,1959.0,1,210501,256845,0.92,-0.96,10.57,-0.02,-0.13,0.05,27.73,12.461677,64.7360883454798,985.9953264970088,10.653304651609284,0.1407124727947029,1.1659581076510281,1.170030145795481
14429176,1991.0,1,210423,255941,-0.19,-1.25,11.41,-0.04,0.12,0.02,27.73,12.501686,60.22120744478117,660.391464344575,11.479838849043134,0.12806248474865697,1.0843817166782728,0.7830972240725462
14469176,1966.0,1,209875,256372,1.06,0.01,12.18,-0.07,-0.07,0.02,27.73,12.541686,64.98556839593883,433.61970524855565,12.22604187789327,0.10099504938362078,1.1704657973517685,0.5136119092141077
14509163,1975.0,1,210163,255712,-0.53,-2.23,11.43,-0.11,0.15,0.01,27.73,12.581673,45.83760309609997,312.1963646077066,11.65755977895889,0.18627936010197158,0.8244939017496715,0.36931789608742194
14549176,1921.0,1,209734,255444,1.29,0.52,9.47,-0.06,-0.16999999999999998,0.02,27.73,12.621686,5.192547751918663,212.00846933565634,9.571593388772843,0.18138357147217052,0.09010533230741945,0.25025912699721614
14589167,1946.0,1,210136,254649,-0.62,-2.8725,12.07,-0.11,0.15,0.08,27.73,12.661677,27.1396053940118,37.2061138034389,12.42258251129772,0.2024845673131659,0.4866521724767689,0.04253190379103859
14629176,1945.0,1,209004,253683,0.42,0.65,7.59,-0.05,-0.16999999999999998,0.01,27.73,12.701686,10.608789780763216,-243.54309550439058,7.629351217502049,0.17748239349298847,0.18796782017054853,-0.2910977746494025
14670167,1893.0,1,209725,253233,0.19,-2.63,12.36,-0.11,0.08,0.02,27.73,12.742677,-15.492764874471474,-570.9174543204005,12.638140686034477,0.1374772708486752,-0.28364387333451946,-0.6801346746311008
14710168,1967.0,1,208438,251405,1.29,0.37,7.320000000000001,0.03,-0.16,-0.02,27.73,12.782678,21.601981990053464,-831.6041939492075,7.4420024187042575,0.16401219466856726,0.38659652498642566,-0.9899230203595615
14750167,1901.0,1,209047,251225,0.56,-2.68,11.77,-0.09,0.15,-0.02,27.73,12.822677,-6.8774427157137,-928.7281562194008,12.08424180492926,0.17606816861659008,-0.12797932664175624,-1.1053407498732257
14790176,1911.0,1,208640,252132,0.92,0.08,7.64,0.03,-0.16,-0.07,27.73,12.862686,-32.82582956755344,-836.4863230219031,7.695609137683644,0.17720045146669353,-0.5968235326119369,-0.9957247220157975
14830164,1907.0,1,209427,252324,0.64,-1.9,11.64,-0.01,0.1,0.01,27.73,12.902674,-8.148670516583866,-604.6250737848441,11.811401271652743,0.10099504938362078,-0.1509482993300887,-0.7201912869743415
14870167,1934.0,1,209187,253207,0.25,-1.16,7.320000000000001,0.02,-0.16999999999999998,0.02,27.73,12.942677,-3.2527761381350744,-319.7954775934554,7.415557969566418,0.17233687939614084,-0.06248762832637463,-0.3817126610792282
14910167,1936.0,1,209836,253016,0.76,-0.96,11.9,-0.01,0.07,0.01,27.73,12.982677,15.859637484738686,-63.56208793891078,11.962825753140436,0.07141428428542851,0.28284190758481803,-0.07721647529507857
14950168,1949.0,1,209345,253857,1.41,-0.46,7.320000000000001,0.049999999999999996,-0.16999999999999998,0.06,27.73,13.022678,14.275629288659966,101.51815835016008,7.468741527191848,0.18708286933869706,0.2542215132157503,0.11895743245011979
14990167,1918.0,1,209785,253251,1.24,-0.71,10.01,-0.03,-0.03,-0.0,27.73,13.062677,0.1539266113084443,126.87494935305799,10.111468736044236,0.042426406871192854,-0.0009341739764355143,0.14909029747024
15030196,1961.0,1,209557,253893,0.7,-0.52,9.96,0.04,0.15,0.02,27.73,13.102706,24.326961108102918,-11.484029841404377,9.998099819465697,0.15652475842498528,0.43583236682052556,-0.015329263503066144
15070144,1945.0,1,209361,252698,0.92,-0.79,8.58,-0.02,-0.08,0.0,27.73,13.142654,33.138557129195924,-275.52279198320963,8.665269759216963,0.08246211251235322,0.5950432558606836,-0.32910100136963444
15110176,1959.0,1,208767,252289,1.07,-0.07,10.26,0.02,-0.07,0.01,27.73,13.182686,21.14932626716095,-537.6490919250377,10.315880960926217,0.07348469228349536,0.37841778870547066,-0.6406000555467956
15150163,1936.0,1,208899,252840,1.09,-0.81,10.29,-0.0,-0.03,0.01,27.73,13.222673,28.307658343134474,-613.7921425057933,10.379224441161295,0.03162277660168379,0.5077569471430877,-0.7310850173508296
15190176,1936.0,1,208841,252780,1.49,0.29,8.8,0.049999999999999996,-0.03,0.01,27.73,13.262686,1.30033133556099,-363.0011036813213,8.929960806184987,0.059160797830996155,0.01977945326103343,-0.43305627545324965
15230144,1847.0,1,209389,254446,1.05,-1.61,12.36,-0.01,0.03,0.01,27.73,13.302654,-59.60368621621596,205.73057765171538,12.50856506558606,0.033166247903554,-1.0806548786493642,0.24279876410265633
15270168,1872.0,1,209946,255722,1.19,0.63,8.95,0.049999999999999996,0.01,0.01,27.73,13.342678,-57.52956069583908,904.5074976227382,9.050718203546058,0.05196152422706631,-1.0431788791494323,1.0731936908998112
15310125,1861.0,1,210740,257202,1.05,-0.74,12.36,0.01,-0.06,0.02,27.73,13.382635,-42.795516001118216,1456.9209973412976,12.426572335121218,0.06403124237432849,-0.7769591898458645,1.7296569405440263
15348167,1906.0,1,211001,256738,0.9,-0.05,9.1,0.03,-0.0,0.01,27.73,13.420677,-23.011911855695935,1658.3695618141508,9.14453388642636,0.03162277660168379,-0.4195023571822473,1.9690493148024144
15388850,1899.0,1,210438,254934,1.12,-0.66,12.11,-0.0,-0.12,0.02,27.61,13.46136,4.811127303013209,1488.761639069688,12.179577168358513,0.1216552506059644,0.0832136989843565,1.7674949208801793
15429176,1887.0,1,209734,253413,0.9,0.22,8.82,-0.04,-0.07,0.01,27.61,13.501686,-47.49797098522204,1086.983255458042,8.868528626553562,0.08124038404635961,-0.8619247326258914,1.290039638782844
15469163,1879.0,1,209217,253355,2.36,0.26,8.84,-0.05,-0.16999999999999998,0.11500000000000002,27.61,13.541673,-3.845310419322342,613.6875683104952,9.153294488871206,0.2112463017427761,-0.07319373757931494,0.7275964237170196
15509167,2031.0,1,209191,252023,0.8,-0.23,8.43,-0.11,-0.01,0.03,27.61,13.581677,94.94562963541834,130.90547335352568,8.470997579978405,0.11445523142259596,1.711794289286359,0.15387999012703427
15549176,1920.0,1,208275,250983,1.96,-0.31,7.320000000000001,-0.05,-0.16999999999999998,0.11500000000000002,27.61,13.621686,38.270828765529146,-393.2830214584734,7.584200682998836,0.2112463017427761,0.6877748708893584,-0.46904193865586147
15589176,1936.0,1,207867,248934,1.48,-0.34,9.2,-0.11,-0.06,0.02,27.61,13.661686,10.40804043751965,-972.7259296510217,9.324483899927115,0.1268857754044952,0.18434061332453253,-1.1576257163679744
15629176,1917.0,1,206944,248622,1.63,-0.37,7.320000000000001,-0.04,0.02,0.09,27.61,13.701686,25.459995042006145,-1505.3372274640526,7.508408619674346,0.1004987562112089,0.45630440610802625,-1.7905569237655083
15668192,1911.0,1,206582,247366,1.87,-0.94,7.8,-0.1,-0.09,0.01,27.61,13.740702,-0.39593266750900347,-1793.835651750923,8.075921000108904,0.13490737563232041,-0.010869216892377883,-2.1333954192423263
15708173,1890.0,1,206864,248461,0.83,-0.65,9.74,-0.05,0.12,0.01,27.61,13.780683,-8.390695363463498,-1677.2615198809328,9.79688726075788,0.13038404810405296,-0.15532128589793348,-1.9948639867722375
15748168,1877.0,1,206860,249395,1.82,-0.42,7.65,-0.02,-0.07,-0.06,27.61,13.820678,-31.148015389610293,-1164.635764987985,7.87472539203749,0.09433981132056604,-0.566508220122001,-1.385682695801268
15788196,1868.0,1,208003,251544,0.34,-0.82,10.15,-0.03,0.13,-0.02,27.61,13.860706,-24.436771167608185,-455.7202845221199,10.188743789103738,0.13490737563232044,-0.44524719583164307,-0.5432395616874028
15828176,1895.0,1,208481,253468,1.22,-0.96,9.13,-0.01,0.05,0.0,27.61,13.900686,-23.086427956316136,176.84930295207585,9.261042057997578,0.050990195135927854,-0.42084873922236227,0.20847756186402167
15868167,1808.0,1,209179,253265,0.18,-0.99,10.16,-0.01,0.09,0.02,27.61,13.940677,-71.15815848015083,554.9745978828623,10.209706166193032,0.09273618495495703,-1.2894249808110303,0.657824581821727
15908167,1851.0,1,208385,252338,0.73,-1.56,8.95,0.01,-0.04,0.05,27.61,13.980677,-79.86749380852316,677.7057244898988,9.114219659411331,0.06480740698407861,-1.4467881891628152,0.8036727087157988
15948166,1837.0,1,208663,252809,-0.36,-1.44,10.68,-0.07,0.06,0.11500000000000002,27.61,14.020676,-32.75654798594486,658.8232416706896,10.782652734832928,0.14739402972983676,-0.5955717296269152,0.7812336190860841
15988176,1975.0,1,208266,252212,1.25,-0.61,7.78,0.049999999999999996,0.07,0.03,27.61,14.060686,37.09551087203733,594.404393401389,7.903353718517223,0.09110433579144299,0.6665388307577289,0.7046811697075884
16028144,1893.0,1,208904,253713,0.04,-1.79,12.36,-0.06,0.15,0.05,27.61,14.100654,24.845882565692328,496.9818592670792,12.489007166304294,0.16911534525287764,0.4452084147472639,0.5889086308775877
16068168,1922.0,1,208663,250953,0.28,-0.17,7.320000000000001,0.01,0.05,-0.085,27.61,14.140678,-17.307592117313845,349.50639592157927,7.327325569401159,0.09912113800799506,-0.3164347840952459,0.4136554519456887
16108164,1893.0,1,207967,250332,-1.23,-2.02,12.36,-0.05,0.07,0.08,27.61,14.180674,21.046882115107184,192.40965058178304,12.584232197476332,0.11747340124470732,0.37656679321198655,0.22696877610081245
16148176,1935.0,1,207866,249081,0.88,0.18,8.12,0.02,0.15,-0.03,27.61,14.220686,-1.6640852229634149,121.26649703689496,8.169528750178921,0.15427248620541514,-0.03378262500926528,0.14242546608067627
16188144,1868.0,1,207592,250437,-0.04,-1.7,12.36,0.01,-0.1,0.11500000000000002,27.61,14.260654,-13.43650920712007,185.31933644843562,12.476425770227626,0.15272524349301267,-0.24649075236651213,0.21854296706582885
16228176,1985.0,1,208428,251606,0.6,-0.92,8.71,0.01,0.15,0.02,27.61,14.300686,57.196929932929066,306.22426277672633,8.778980578632124,0.15165750888103102,1.0297380505122875,0.3622209200410928
16268144,1922.0,1,208446,251497,-0.24,-1.89,10.45,-0.03,-0.11,0.03,27.61,14.340654,24.499082358167556,325.9453214503594,10.622250232413093,0.11789826122551596,0.4389423116227948,0.3856565353363619
16308197,1918.0,1,208255,250548,0.84,-0.67,10.43,-0.06,0.02,0.01,27.61,14.380707,2.75493574954553,149.7589502819038,10.485199092053522,0.06403124237432849,0.04606173644762578,0.17628461046632884
16348167,1956.0,1,207349,249266,0.72,-1.19,9.66,-0.03,-0.06,0.02,27.61,14.420677,43.59490968611471,-160.78224015881906,9.75961577112542,0.06999999999999999,0.7839721607627345,-0.19274851259992656
16388862,1917.0,1,207074,249043,1.52,-0.76,8.27,-0.05,0.01,0.01,27.61,14.461372,7.565989016451295,-439.71556571048495,8.442801667693018,0.05196152422706632,0.13298946963126884,-0.5242202768109822
16429167,1890.0,1,207263,249666,0.12,-0.69,10.53,-0.07,-0.08,0.02,27.61,14.501677,-26.162079364191996,-554.1783965665724,10.553264897651342,0.10816653826391968,-0.47642064627000164,-0.6602427345270689
16469176,1885.0,1,207708,251006,1.17,-0.79,8.75,-0.02,0.01,0.01,27.61,14.541686,-30.08735891756691,-487.21449017603754,8.86315406613244,0.024494897427831782,-0.5473439212281351,-0.5806658530417366
16509167,1887.0,1,207851,251142,0.54,-0.55,11.04,-0.01,-0.03,0.02,27.61,14.581677,-23.712829328831585,-302.2498761119454,11.066873994041858,0.03741657386773942,-0.4321667705047121,-0.3608622608421186
16549176,1907.0,1,207426,251214,1.54,-0.95,7.38,0.02,-0.08,0.02,27.61,14.621686,-16.602205931083937,-58.524801184524684,7.59858539466393,0.08485281374238571,-0.3036896285573074,-0.07123039125864791
16589164,1888.0,1,208200,253307,0.04,-1.75,10.75,-0.04,0.06,0.01,27.61,14.661674,-19.47359363212066,218.8844878704305,10.891583906852116,0.07280109889280519,-0.3555708300520992,0.25843027682293795
16629167,1913.0,1,208421,253712,1.57,0.61,7.320000000000001,0.049999999999999996,-0.09,-0.085,27.61,14.701677,-11.361216481733557,496.2944285531122,7.511284843487166,0.13351029922818689,-0.20899366341277062,0.588091719269479
16669164,1883.0,1,208699,254361,0.25,-1.97,11.58,0.02,-0.06,0.04,27.61,14.741674,-28.906325748517474,687.3428707592442,11.74903400284466,0.07483314773547883,-0.5260046155699813,0.8151250580166292
16708168,1917.0,1,208589,254032,1.76,0.39,8.03,0.01,-0.01,-0.06,27.61,14.780678,-1.470859600311624,677.4762418405156,8.22986026612846,0.061644140029689765,-0.030291359284635097,0.8034000019013785
16748164,1955.0,1,208651,254981,0.15,-2.0,11.09,0.03,-0.03,0.06,27.61,14.820674,38.483680206757974,412.2540901016339,11.269897958721721,0.07348469228349534,0.6916207425237819,0.48822197729328815
16788167,1917.0,1,208343,252098,1.6,0.35,7.320000000000001,0.049999999999999996,-0.03,-0.07,27.61,14.860677,0.5850838713682003,-25.445693501996335,7.500993267561304,0.09110433579144299,0.006856120826675256,-0.0319206739261301
16828164,1904.0,1,207477,251301,0.33,-1.02,11.99,0.03,-0.08,0.05,27.61,14.900674,-7.871732063233538,-431.383710537834,12.037832030727127,0.09899494936611665,-0.14594448194425227,-0.5143190764873297
16868167,1929.0,1,207640,251606,0.96,-0.77,7.68,0.04,0.02,0.0,27.61,14.940677,6.464278274989832,-603.1634827504801,7.777975314951829,0.044721359549995794,0.11308338835004668,-0.718454398211561
16908145,1930.0,1,207568,252295,0.14,-0.97,10.82,0.03,-0.11,0.04,27.61,14.980655,29.53737749056003,-487.79173927887183,10.864294730906375,0.12083045973594572,0.5299759274802097,-0.5813518298002587
16948167,2011.0,1,208342,253509,0.82,-0.67,9.54,0.02,0.02,0.01,27.61,15.020677,82.58823538192263,-231.19125770965817,9.598588437890228,0.030000000000000002,1.488516721793569,-0.2764194085668586
16988144,1972.0,1,208251,253194,0.58,-0.87,9.81,0.01,-0.14,0.01,27.61,15.060654,78.25111969613678,-74.44152385094232,9.86556638009192,0.1407124727947029,1.4101522526836554,-0.09014510549102207
17028167,1957.0,1,208524,253438,0.92,-1.08,10.98,0.01,0.01,0.0,27.61,15.100677,33.389272031761784,-166.2763700498404,11.07127815566026,0.01414213562373095,0.5995732572858029,-0.19927748838358286
17068144,1936.0,1,208046,252376,1.15,-0.01,8.86,0.01,-0.15,0.01,27.61,15.140654,37.7806993780346,-437.1377344629241,8.934327059157841,0.15066519173319362,0.678919047796593,-0.5211568986012346
17108167,1967.0,1,207957,252750,0.51,-0.85,10.3,0.02,0.07,0.09,27.61,15.180677,59.135140047770506,-641.0723725990531,10.347589091184478,0.11575836902790225,1.0647582846210517,-0.7635036105010461
17148145,1919.0,1,208016,252918,0.81,-0.31,8.72,-0.0,-0.04,0.01,27.61,15.220655,10.744864332837293,-545.5647187712225,8.763024592000185,0.04123105625617661,0.19042646107505606,-0.6500066289289899
17188176,1869.0,1,208504,254612,0.88,-0.69,10.94,0.01,0.05,0.01,27.61,15.260686,-22.928148600957584,-130.5304322354828,10.997004137491265,0.05196152422706632,-0.41798889444248183,-0.15679863058747812
17228144,1893.0,1,209062,255673,1.22,0.26,9.2,-0.03,-0.04,0.0,27.61,15.300654,-18.38204759152245,362.503430848243,9.284180093039987,0.05,-0.3358484080146045,0.42910054115521007
17268167,1845.0,1,209604,256566,1.36,-0.39,10.5,-0.03,-0.04,0.0,27.61,15.340677,-42.140272285457876,587.500762613003,10.59489027786508,0.05,-0.7651200253791169,0.6964772067269648
17308176,1897.0,1,209682,255865,1.58,-0.04,9.28,-0.03,-0.06,0.0,27.61,15.380686,-4.706825589920654,353.7320036945342,9.413628418415504,0.0670820393249937,-0.08875988426876869,0.4186769733454538
17348176,1909.0,1,208747,253954,2.07,-0.28,7.79,-0.05,-0.13,-0.0,27.61,15.420686,16.246712082396346,-212.32413749663561,8.065196835787704,0.1392838827718412,0.28983570197466724,-0.25399857516438207
17388883,1857.0,1,208103,252910,1.02,-0.39,8.94,-0.08,-0.04,0.04,27.75,15.461393,-30.032060075967273,-744.2339875467311,9.006447690404913,0.09797958971132713,-0.5463447631059409,-0.8860962137259862
17427176,1882.0,1,207779,253548,2.12,0.35,7.69,0.02,-0.05,0.01,27.75,15.499686,-15.712178333739702,-902.8974137624602,7.98454757641283,0.05477225575051661,-0.28760830972423246,-1.0746446623542836
17467144,1875.0,1,208818,254739,1.34,0.0,10.42,-0.04,0.05,0.03,27.75,15.539654,-3.441064191290037,-619.514461832078,10.505807917528283,0.07071067811865475,-0.06588968037990531,-0.7378851631516629
17507167,1878.0,1,209335,255384,1.21,-0.17,8.64,0.0,-0.02,0.02,27.75,15.579677,-17.20022110419315,-117.68365353656222,8.725972725146464,0.0282842712474619,-0.31449476841418567,-0.14153209909168715
17547164,1856.0,1,209782,256430,1.53,-0.35,10.89,-0.0,-0.08,0.03,27.75,15.619674,-21.90765428238765,288.26767529238373,11.002522438059376,0.08544003745317531,-0.3995502588841762,0.34088212260312684
17587176,1838.0,1,209900,255863,1.58,0.48,9.82,-0.02,-0.07,0.08,27.75,15.659686,-50.065067691401715,433.0320882197665,9.9578712584568,0.10816653826391968,-0.9083079017889542,0.512913611680717
17627167,1840.0,1,209426,255341,1.87,0.18,11.56,0.0,-0.02,0.11500000000000002,27.75,15.699677,-40.562276319934185,381.90691222009826,11.711656586495353,0.11672617529928754,-0.736608262019629,0.45215876193053256
17667144,1867.0,1,209670,254922,1.31,-0.3,9.77,-0.07,-0.04,0.05,27.75,15.739654,-14.794590437267019,319.186204960307,9.861997769214916,0.09486832980505139,-0.27102902211047925,0.3776243066199308
17707182,1838.0,1,209949,256128,0.7,-0.87,11.06,0.02,0.1,0.04,27.75,15.779692,-44.05070816993919,375.99430116483944,11.116226877857432,0.10954451150103323,-0.7996384253255505,0.4451324820347751
17748145,1835.0,1,210537,256535,1.0,-0.2,11.19,-0.05,0.05,0.03,27.75,15.820655,-44.79715868506741,551.8149355277408,11.236373970280626,0.07681145747868609,-0.8131255450089272,0.6540697818060172
17788163,1865.0,1,210384,257082,0.91,-0.41,11.52,0.01,-0.02,0.04,27.75,15.860673,-15.318605377473913,763.77032822748,11.563157008360648,0.045825756949558406,-0.28049710079917023,0.9059479961186205
17828167,1867.0,1,210497,257362,1.0,-0.47,11.82,-0.1,-0.1,0.03,27.75,15.900677,-15.725467072360193,935.9453840099612,11.871533178153529,0.14456832294800961,-0.28784841513588844,1.1105530549816385
17868173,1881.0,1,210702,257999,1.43,0.14,12.36,0.02,-0.02,0.04,27.75,15.940683,4.00807688955379,1035.4045368112877,12.443235109890033,0.048989794855663564,0.06870391324691624,1.2287458194381253
17908144,1907.0,1,210836,258198,1.0,-0.69,12.02,-0.08,-0.05,0.04,27.75,15.980654,20.68524547214872,1048.5604351121904,12.081245796688354,0.10246950765959599,0.370032620367806,1.244379694705474
17948173,1901.0,1,210735,258420,1.56,0.17,10.48,-0.02,-0.14,0.04,27.75,16.020683,22.570860466448064,958.4770576694257,10.596834432980446,0.1469693845669907,0.40410254809840257,1.1373286781659935
17988168,1920.0,1,210785,258470,1.57,-1.08,11.45,-0.11,0.07,0.11500000000000002,27.75,16.060678,36.220495670948864,765.3738035283989,11.607488961872848,0.1738533865071371,0.6507287609638498,0.9078534937346304
18028167,1926.0,1,210646,257669,1.82,0.29,7.320000000000001,-0.08,-0.16999999999999998,0.11500000000000002,27.75,16.100677,36.91848204201305,524.781366185861,7.548436924291016,0.2202839077191069,0.6633402141454335,0.621944309150671
18066168,1903.0,1,210396,257634,2.31,-0.19,9.95,-0.11,0.15,0.11500000000000002,27.75,16.138678,27.997351223680962,340.33227620661165,10.216393688577197,0.2186892772862904,0.5021502134429248,0.4027533424864141
18106162,1862.0,1,209769,256116,1.57,-1.83,7.320000000000001,-0.11,-0.16999999999999998,0.11500000000000002,27.75,16.178672,-41.415406926488515,286.9004154615066,7.706893018590566,0.23286262044390035,-0.7520229135778419,0.33925733278147535
18146176,1791.0,1,210556,257914,0.79,1.6275,12.36,0.049999999999999996,0.15,0.04,27.75,16.218686,-78.61947031655369,323.4588285598142,12.49169549140548,0.16309506430300091,-1.4242384797544603,0.3827016995041888
18186125,1917.0,1,210205,257008,2.04,0.39,7.320000000000001,-0.01,-0.16999999999999998,-0.085,27.75,16.258635,6.815096420358026,291.7857724388067,7.608948679022616,0.1903286631067428,0.11942208893071189,0.34506287033373356
18226176,1915.0,1,211123,255991,0.25,-1.31,12.36,-0.11,0.12,0.1,27.75,16.298686,38.998936372611276,26.576466786641355,12.431741631806865,0.19104973174542803,0.7009305647231378,0.0299001114348182
18266167,1907.0,1,209183,252002,0.31,-0.07,7.320000000000001,0.049999999999999996,-0.16999999999999998,-0.085,27.75,16.338677,0.5082400941124067,-514.5825345991985,7.326895659145148,0.19653244007033546,0.005467681539988438,-0.6131888007748908
18306175,1859.0,1,208849,250828,2.415,-0.23,12.36,0.01,0.09,0.03,27.75,16.378685,-30.82220365731147,-1221.3786255736857,12.595821727858805,0.09539392014169455,-0.5606213438472787,-1.4531133481534921
18346144,1855.0,1,208166,249671,1.73,-0.14,7.320000000000001,0.049999999999999996,-0.16999999999999998,-0.085,27.75,16.418654,-46.656288418945785,-1916.9185738020371,7.522958194752913,0.19653244007033546,-0.8467169281208204,-2.2796616039509643
18386176,1882.0,1,208264,249815,0.35,-1.67,7.49,-0.01,0.15,0.11,27.75,16.458686,-17.57570647585382,-2458.6396762833074,7.681894297632583,0.18627936010197158,-0.321279164759702,-2.9234184917114567
18426853,1936.0,1,207774,248949,0.89,-0.31,8.23,0.049999999999999996,0.01,0.03,27.73,16.499363,31.365429600863838,-2761.0341252319236,8.28378536660626,0.059160797830996155,0.5630057896069468,-3.282770395190131
18467144,1970.0,1,207753,249135,0.82,-0.12,10.99,-0.04,0.15,0.1,27.73,16.539654,68.76248961430207,-2758.1495657831542,11.021202293760878,0.1846618531261939,1.2387084838719864,-3.2793425150414817
18507167,1968.0,1,207850,249921,1.72,0.16,9.17,0.049999999999999996,0.05,0.01,27.73,16.579677,55.33383190375911,-2391.8842764910673,9.331286084993858,0.07141428428542851,0.9960749669025691,-2.844089390048954
18547125,1955.0,1,208956,252186,-0.28,-1.06,11.04,-0.01,0.15,0.11,27.73,16.619635,52.40914038507535,-1662.4460936850126,11.09430484527985,0.18627936010197158,0.9432306540512756,-1.9772580035180396
18587173,1984.0,1,209805,254536,1.51,1.11,10.54,0.02,0.05,0.11500000000000002,27.73,16.659683,68.66657679013132,-684.8133730293966,10.705316436238585,0.12698425099200294,1.2369754986136945,-0.8154834395599333
18627125,1951.0,1,211142,257074,0.85,0.01,12.36,-0.08,0.06,0.11500000000000002,27.73,16.699635,39.010706119440144,327.50342056653625,12.389196906983116,0.1523975065412817,0.7011432244787502,0.3875081099441409
18667141,1958.0,1,212058,258452,1.45,0.43,12.36,0.04,0.05,0.11500000000000002,27.73,16.739651,48.54309560994984,1161.7629069582867,12.452188562658373,0.13162446581088186,0.8733776530463067,1.3789043987065652
18707125,1938.0,1,212355,259114,1.18,0.15,12.36,-0.09,-0.09,0.11500000000000002,27.73,16.779635,12.819166886499572,1715.3984234838101,12.417105137671983,0.17153716798408444,0.2279056592721015,2.0368198379236784
18747161,1863.0,1,212860,259778,1.39,-0.64,12.36,-0.1,-0.15,0.11500000000000002,27.73,16.819671,-41.892893466949694,2026.9906215586768,12.454368711420102,0.21383404780343096,-0.7606503014460052,2.4071019309866166
18787175,1960.0,1,213135,259775,1.67,0.7,12.36,-0.11,0.05,-0.04,27.73,16.859685,29.653240347607223,2204.0225861612766,12.491937399779106,0.12727922061357855,0.5320693766616134,2.617478720896948
18827162,1941.0,1,213164,259971,1.61,-0.32,11.58,-0.1,0.12,0.07,27.73,16.899672,31.16613659615208,2305.7294383162366,11.695764190509314,0.17117242768623692,0.5594048963767431,2.7383425497330367
18867167,1905.0,1,213229,260097,0.82,-1.13,11.19,-0.11,0.04,-0.085,27.73,16.939677,-21.21080118614691,2274.1910655671322,11.276763720145953,0.14465476141489433,-0.38695928209435365,2.700863772197883
18907176,1889.0,1,212942,260219,1.67,-0.36,9.11,-0.05,-0.15,-0.01,27.73,16.979686,-29.00965706230582,1972.5455042365058,9.268797117209978,0.1584297951775486,-0.5278716406009234,2.3424018129359494
18947217,1857.0,1,212497,259537,1.98,0.17,7.9,-0.08,-0.16999999999999998,0.01,27.73,17.019727,-65.98054246706747,1310.8733811063732,8.146121776649304,0.1881488772222678,-1.1958740682886801,1.556100550620146
18987167,1891.0,1,211937,256971,1.07,-1.39,7.6,-0.1,-0.07,0.11,27.73,17.059677,-29.03300252924967,366.2581084656,7.799807689936976,0.16431676725154984,-0.5282934543720371,0.43356243043074794
19027176,1941.0,1,210181,253078,1.74,-1.23,7.320000000000001,-0.03,-0.16999999999999998,0.06,27.73,17.099686,16.21807256039798,-609.8841061640355,7.623837616318964,0.18275666882497066,0.289318233431156,-0.7264408834946783
19067176,1904.0,1,209917,252846,0.75,-0.64,8.62,-0.1,0.09,0.05,27.73,17.139686,-14.083732988965373,-1326.435955775514,8.676203086604184,0.14352700094407325,-0.25818500996398447,-1.5779587337539058
19107167,1907.0,1,209305,252624,1.84,-0.54,7.73,0.049999999999999996,-0.16999999999999998,-0.085,27.73,17.179677,-17.769173827108986,-1635.4705329443307,7.964301601521631,0.19653244007033546,-0.3247747981182724,-1.9452014656640135
19147188,1856.0,1,209982,253775,0.73,-1.16,8.65,-0.02,0.07,-0.06,27.73,17.219698,-63.78605028422949,-1612.776505053778,8.757910709752641,0.09433981132056604,-1.156223243332003,-1.9182329080452394
19187175,1771.5,1,209946,253489,1.92,-0.18,7.320000000000001,0.049999999999999996,-0.16999999999999998,0.0,27.73,17.259685,-146.35320728906723,-1464.2703229046188,7.569755610321909,0.1772004514666935,-2.648074485807362,-1.7417548694463258
19227167,1823.0,1,210302,253924,2.05,0.11,10.13,0.049999999999999996,0.05,0.04,27.73,17.299677,-102.60517703247193,-1339.0873275296838,10.335932468819639,0.08124038404635961,-1.8576203190213203,-1.5929930524634062
19267125,1902.0,1,209979,253344,2.04,0.45,7.45,0.049999999999999996,-0.07,-0.0,27.73,17.339635,-6.126854697948818,-1213.2140288111677,7.737350967870076,0.08602325267042626,-0.11441744916517015,-1.4434109101691057
19307163,1906.0,1,210471,254314,1.39,-0.16,10.08,0.049999999999999996,0.14,0.03,27.73,17.379673,-21.979391376651016,-941.2052060400683,10.176644830198212,0.15165750888103102,-0.40084642890008343,-1.1201679122713588
19347156,1879.0,1,210814,255690,2.04,0.61,10.09,0.049999999999999996,-0.07,0.04,27.73,17.419666,-25.581428067874924,-420.1662411611808,10.312216056697027,0.09486832980505139,-0.46592924279579945,-0.5009887425915542
19385144,1939.0,1,211855,258317,1.7,-0.09,9.37,0.049999999999999996,0.09,0.05,27.73,17.457654,20.053975170650514,288.2179760382094,9.523392252763717,0.11445523142259596,0.3586266156343172,0.3408230622544626
19425145,1909.0,1,212735,259602,1.83,-0.09,10.17,0.049999999999999996,-0.02,0.02,27.73,17.497655,-2.300065629787246,987.6727278843565,10.333726336612559,0.05744562646538029,-0.04527373351448517,1.1720234938332408
19465851,1936.0,1,213174,260544,1.68,-0.03,12.36,0.04,-0.1,0.07,27.63,17.538361,35.32587976933497,1496.9111195294477,12.47368830779413,0.1284523257866513,0.6345645391016062,1.7771793953331958
19506167,1968.0,1,213334,260332,1.34,0.81,12.12,0.049999999999999996,-0.12,0.07,27.63,17.578677,48.425660650016006,1777.8907983812865,12.220724201126544,0.147648230602334,0.8712557985796806,2.1110829533690514
19546144,1852.0,1,213251,260624,2.415,0.08,11.11,-0.01,-0.16999999999999998,0.11500000000000002,27.63,17.618654,-34.12383815084876,1926.131615466051,11.369728448824096,0.20548722588034518,-0.6202763895102233,2.2872456441124123
19586168,1936.0,1,213661,260817,1.39,-0.06,12.36,-0.11,0.15,0.06,27.63,17.658678,18.770605171888242,2037.1236709723594,12.438058530172624,0.19544820285692063,0.33543825361893476,2.419143589183421
19626162,1957.0,1,213678,260963,2.21,1.0,10.08,-0.07,-0.01,0.04,27.63,17.698672,74.83427039324131,2075.223021010186,10.36776253586086,0.08124038404635961,1.3484154669835373,2.464419135758417
19666167,1957.0,1,213750,259782,1.13,-0.2,12.36,-0.09,0.13,0.05,27.63,17.738677,51.47576134629994,1865.6144323649905,12.413158341050838,0.16583123951777,0.9263660467520809,2.2153297573752555
19706167,1938.0,1,212669,257389,1.81,0.02,10.18,-0.08,0.08,0.09,27.63,17.778677,56.557745495933084,1222.469743348493,10.339676010398005,0.14456832294800961,1.018189050509205,1.4510456608455933
19746144,1926.0,1,211937,255573,1.83,-0.06,11.4,-0.11,0.01,0.06,27.63,17.818654,31.873374622369973,118.42729749507184,11.546103238755489,0.12569805089976535,0.5721835115842059,0.13905148959646083
19786162,1957.0,1,210385,252978,2.11,0.42,7.320000000000001,-0.11,-0.16999999999999998,0.06,27.63,17.858672,79.36891487375912,-1227.5816277944607,7.629606805071937,0.21118712081942875,1.4303489529826756,-1.460484715792905
19826168,2013.0,1,209468,251925,1.78,-1.15,7.84,-0.11,0.05,0.05,27.63,17.898678,128.7248261448906,-2412.5098626672107,8.1213607234256,0.1307669683062202,2.322128205464711,-2.8685999049692192
19866167,1931.0,1,208585,250979,1.35,-0.33,7.96,-0.11,-0.0,-0.085,27.63,17.938677,56.31307654367222,-3038.093662046614,8.080408405520107,0.13901438774457844,1.0137682893534816,-3.612015433508267
19906196,1911.0,1,208567,252458,1.87,-0.07,9.12,-0.07,0.01,0.04,27.63,17.978706,39.527349574401136,-2923.054661124227,9.310005370567731,0.08124038404635961,0.7104781126856332,-3.4753082813119343
19946164,1894.0,1,209677,254079,1.5,-0.12,9.14,-0.05,0.01,-0.085,27.63,18.018674,19.086008531017683,-2208.148996007236,9.26304485576962,0.09912113800799506,0.3411370678965123,-2.625746682345109
19986176,1813.0,1,210622,255614,1.36,-1.52,9.0,-0.03,-0.07,0.06,27.63,18.058686,-45.778152875782574,-1278.0900740065808,9.228217596047461,0.09695359714832658,-0.8308504789338507,-1.5205066717222606
20026178,1846.0,1,211204,256393,2.04,-0.22,8.74,-0.03,-0.1,0.04,27.63,18.098688,-26.337493931390828,-540.9011737525092,8.97761661021454,0.1118033988749895,-0.4795900958370798,-0.6444646826887073
20066175,1853.0,1,211789,257207,1.19,-1.47,7.320000000000001,-0.02,0.14,0.11500000000000002,27.63,18.138685,-0.18142464014508952,-204.08013269819313,7.560383588152126,0.18227726133558186,-0.006993413500902948,-0.2442017722570938
20106167,1884.0,1,211555,256220,1.36,0.04,8.7,0.04,-0.02,0.04,27.63,18.178677,20.236175208609637,-189.10914596821036,8.805748122675324,0.06,0.3619186673758159,-0.22641092789113973
20146145,1897.0,1,211543,256652,1.01,-0.6,11.08,-0.05,0.15,0.05,27.63,18.218655,43.15721156520418,-228.49570605259015,11.142104828083426,0.16583123951777,0.7760636834795546,-0.2732161367400762
20186163,1875.0,1,211800,257454,1.72,0.31,8.43,-0.01,0.12,0.02,27.63,18.258673,20.263973547814402,-66.8061620294453,8.609262453892319,0.12206555615733702,0.36242093714488344,-0.08107158640413704
20226144,1860.0,1,212368,258756,1.45,0.26,10.85,-0.03,-0.03,0.04,27.63,18.298654,5.705137325326999,373.3527478088288,10.949547935873882,0.05830951894845301,0.09936697361504417,0.4419933793497777
20266167,1825.0,1,213009,260328,1.47,-0.57,11.22,-0.0,0.07,0.07,27.63,18.338677,-26.306821868728605,960.6236244312212,11.330233889907129,0.09899494936611666,-0.4790359026632826,1.1398795611417798
20306167,1771.5,1,213410,260575,1.93,0.01,10.47,-0.04,-0.15,0.05,27.63,18.378677,-80.2755508577305,1458.972827340297,10.646403148481651,0.16309506430300091,-1.4541611015645963,1.7320952426303202
20346167,1771.5,1,213770,261014,1.16,-0.1,12.36,0.0,0.11,0.09,27.63,18.418677,-82.36785207012285,1681.4106773502,12.414717072893769,0.14212670403551894,-1.4919655055984828,1.9964303357005801
20386144,1771.5,1,213631,260988,1.81,-0.01,11.27,-0.07,-0.16999999999999998,0.08,27.63,18.458654,-76.93261429436845,1592.1314975034102,11.414425084076727,0.20049937655763422,-1.3937597961729649,1.8903349912572356
20426176,1776.0,1,213516,260267,0.76,-0.4,12.36,-0.08,0.13,0.11500000000000002,27.63,18.498686,-83.59861485498324,1303.1357742741798,12.389802258309048,0.19111514853616393,-1.514203342728794,1.5469055281811235
20466853,1771.5,1,212922,259420,2.08,-0.06,9.44,-0.03,-0.16999999999999998,0.06,27.63,18.539363,-76.37423860973666,981.5855325459502,9.666622988407068,0.18275666882497066,-1.3836708759642051,1.1647897458616485
20505173,1781.0,1,213110,259641,1.19,-0.38,12.01,-0.09,0.14,0.06,27.63,18.577683,-83.69173855434295,735.9389420876497,12.074791923673052,0.17691806012954134,-1.5158859331392345,0.8728744340192797
20545167,1797.0,1,212644,258762,1.7,1.01,9.47,-0.03,-0.16999999999999998,0.06,27.63,18.617677,-57.33281166057241,556.1356902974429,9.674244156521997,0.18275666882497066,-1.0396239512172374,0.6592043715987711
20585167,1856.0,1,212767,259311,0.92,0.27,12.36,-0.06,0.11,0.11,27.63,18.657677,-9.263386403579743,343.19565932114256,12.397132733015324,0.16673332000533067,-0.1710893619674323,0.40615605763602397
20625143,1869.0,1,212235,257838,2.38,-0.49,8.87,-0.02,-0.16999999999999998,0.05,27.63,18.697653,-0.9069152356403047,2.5142632984867466,9.196814665959078,0.17832554500127007,-0.02010182228661795,0.001305675738583449
20665175,1904.0,1,212037,257970,1.23,-0.13,11.47,-0.08,0.1,0.11500000000000002,27.63,18.737685,41.81159517402287,-467.10177994463646,11.536494268190836,0.17211914478058507,0.7517506326503801,-0.5567648167267574
20705166,1957.0,1,211433,255726,1.53,-0.11,7.320000000000001,0.01,-0.16999999999999998,-0.02,27.63,18.777676,67.43086036424484,-953.2796744367365,7.478997258991343,0.17146428199482244,1.2146481574264723,-1.1345166650904726
20745175,1890.0,1,211156,256107,1.78,-0.53,11.29,0.04,0.14,0.11500000000000002,27.63,18.817685,26.91426039449987,-1296.0641227867072,11.441739378258884,0.18553975315279475,0.4825805630172379,-1.5418662193753807
20785184,1926.0,1,210860,255485,1.9,-0.09,7.320000000000001,0.049999999999999996,-0.16999999999999998,-0.085,27.63,18.857694,21.460304355173125,-1393.982011910735,7.563101215771214,0.19653244007033546,0.3840366456918677,-1.6582274156991672
20825176,1880.0,1,211322,256741,1.58,-0.22,10.47,-0.0,0.02,0.09,27.63,18.897686,6.021213111371901,-1268.7032408905409,10.590830940015993,0.09219544457292887,0.10507793752893835,-1.509351783265764
20865167,1853.0,1,211545,257222,2.27,-0.21,7.78,0.03,-0.16999999999999998,-0.02,27.63,18.937677,-59.39929061153451,-1033.9398122094458,8.107120327218537,0.17378147196982766,-1.076961789921813,-1.2303695292692076
20905175,1798.0,1,211992,257985,1.67,-0.53,10.83,0.04,0.04,0.11500000000000002,27.63,18.977685,-93.8246302562968,-793.5166189933202,10.970811273556755,0.12816005617976298,-1.6989704382111772,-0.9446614667600427
20945144,1851.0,1,212107,257689,1.95,0.43,8.29,0.049999999999999996,-0.16999999999999998,0.06,27.63,19.017654,-67.99672287670212,-560.5443936867445,8.527103845972558,0.18708286933869706,-1.232303095982969,-0.6678077979421791
20985167,1879.0,1,212126,258443,2.21,0.23,10.31,0.049999999999999996,0.15,0.1,27.63,19.057677,-29.485219028703643,-275.9555527734672,10.546710387604278,0.18708286933869708,-0.5364642546157555,-0.32961527474426383
21025133,1936.0,1,212556,259445,1.83,0.44,9.19,0.02,0.05,0.01,27.63,19.097643,5.277078011933752,88.80745211646874,9.380756899099348,0.05477225575051661,0.09163265355723417,0.10385260332539147
21065122,1966.0,1,213132,260637,2.415,1.18,12.18,0.04,-0.12,0.04,27.63,19.137632,46.50455658488324,448.490167044032,12.473051952108593,0.132664991614216,0.8365446423468839,0.5312832942887701
21105144,1978.0,1,213525,260651,2.07,0.32,8.65,0.0,0.15,0.09,27.63,19.177654,30.758933906523847,634.4704787625387,8.899988764037852,0.17492855684535902,0.5520474208320105,0.75229389570017
21145125,1927.0,1,213115,259956,2.415,0.83,11.0,-0.01,-0.16,0.05,27.63,19.217635,-1.1149481723151806,526.7845358394835,11.292525182615268,0.16792855623746666,-0.02386063155549016,0.6243247854805863
21185166,1983.0,1,213012,259683,1.32,0.21,11.98,0.01,0.09,0.11500000000000002,27.63,19.257676,21.071866262828237,173.47770291737666,12.054331171823678,0.14637281168304447,0.37701821522010603,0.2044709046834734
21225125,1977.0,1,212203,258195,2.415,0.89,7.320000000000001,-0.04,-0.16999999999999998,0.11500000000000002,27.63,19.297635,36.600269892439876,-214.74775623825983,7.759299259598125,0.20910523666326483,0.6575906496947199,-0.2568786941981056
21265167,2027.0,1,212235,258046,1.14,-0.54,12.29,-0.11,0.09,0.11500000000000002,27.63,19.337677,57.16065434008572,-401.73118766881606,12.354565957572122,0.18282505298782223,1.0290826108651199,-0.479081357762747
21305167,2039.5,1,211933,259124,2.415,0.73,9.91,0.049999999999999996,0.15,0.11500000000000002,27.63,19.377677,82.22912972164987,-288.5281124687241,10.226105074758424,0.19551214796017152,1.4820282795982485,-0.3445559367630217
21345125,2039.5,1,212928,260145,2.31,0.24,8.46,-0.11,0.09,0.01,27.63,19.417635,66.8763506721828,28.888695295563203,8.772986948582565,0.14247806848775008,1.204629089275453,0.03264785934767725
21385141,2039.5,1,212982,260183,2.415,1.18,10.64,0.02,-0.13,0.03,27.63,19.457651,65.33138066824961,349.823528222509,10.974252821946468,0.13490737563232044,1.176714050129563,0.41403231764672893
21425144,2039.5,1,212951,259771,2.36,0.23,10.77,-0.09,-0.03,0.09,27.63,19.497654,64.27312082204548,525.3599684003129,11.027937250456224,0.1307669683062202,1.1575930542797372,0.6226318938859173
21465166,2013.0,1,212808,259669,2.415,1.05,9.06,-0.09,-0.13,0.07,27.63,19.537676,27.3167702295983,550.40227366787,9.434952305125872,0.17291616465790582,0.489853246483437,0.6523910382639935
21505853,2015.0,1,212794,259376,2.415,-0.29,9.02,-0.09,0.08,0.01,27.79,19.578363,32.950279835752134,528.978551106179,9.34220129305722,0.12083045973594571,0.5916413982172436,0.6269320541162691
21544163,2029.0,1,212774,259388,2.02,0.24,9.7,-0.11,0.02,0.05,27.79,19.616673,40.76130656231575,563.8999455707622,9.911003985469888,0.1224744871391589,0.7327736637541254,0.6684310618414736
21584144,2016.0,1,212924,260072,2.04,0.33,9.9,-0.08,0.02,0.05,27.79,19.656654,21.722266015605285,672.8231010589354,10.113382223568928,0.09643650760992956,0.38876985733162084,0.7978704195865284
21624144,2039.5,1,212970,260121,1.57,0.18,9.39,-0.04,0.05,-0.0,27.79,19.696654,55.58571121735065,789.1261426744719,9.522048099017354,0.06403124237432849,1.0006260072988535,0.9360797006438146
21664166,2029.0,1,212818,259717,2.415,0.03,11.71,0.049999999999999996,-0.13,0.08,27.79,19.736676,23.46467469100158,825.3773840198403,11.95647209673489,0.1606237840420901,0.4202522849891155,0.9791590383307855
21704144,1930.0,1,212457,259298,1.6,0.15,7.75,-0.11,-0.08,0.08,27.79,19.776654,-52.46357207276583,735.1773376017659,7.914859442845463,0.157797338380595,-0.9516448879614464,0.8719693776511757
21744166,1975.0,1,212393,258904,2.415,0.47,9.84,-0.04,-0.01,0.06,27.79,19.816676,-30.507909283483613,530.0419225805439,10.142915014925443,0.07280109889280519,-0.5549425670901883,0.6281957167421756
21784166,1983.0,1,211967,257727,0.97,-0.68,9.77,-0.11,0.15,0.0,27.79,19.856676,-7.944271432760663,255.9326311888274,9.841554755220335,0.18601075237738274,-0.1472551477402307,0.30245661681729047
21824167,1992.0,1,211397,256842,2.415,1.01,9.79,-0.01,-0.05,-0.085,27.79,19.896677,-2.0305033858996135,-38.564362281279344,10.133924461924906,0.09912113800799506,-0.04040319196919922,-0.04751030731170411
21864176,1978.0,1,211087,256896,2.2,-0.03,12.36,0.01,0.01,-0.04,27.79,19.936686,-23.995210121458797,-316.3314119354045,12.554302051488166,0.042426406871192854,-0.4372689219122917,-0.37759612192871217
21904167,1920.0,1,210909,255906,2.08,0.03,7.320000000000001,-0.03,-0.16999999999999998,0.1,27.79,19.976677,-64.2827463258718,-544.6632490802112,7.60984231111263,0.19949937343260005,-1.1651977149468273,-0.6489353630690525
21944163,1936.0,1,210534,255552,1.7,-0.87,11.59,-0.06,-0.05,0.1,27.79,20.016673,-65.72706644384333,-685.136076928114,11.74627600561131,0.12688577540449522,-1.1912941780041872,-0.8158669262961061
21984176,1894.0,1,210204,255458,1.99,-0.21,8.26,-0.07,0.03,0.1,27.79,20.056686,-92.1434589491957,-703.4457477238634,8.498929344335085,0.12569805089976535,-1.6685944679792637,-0.8376253119919972
22024181,1925.0,1,210260,255885,1.61,0.06,10.44,-0.1,0.03,0.03,27.79,20.096691,-63.65979962332975,-600.5591399237848,10.56358367222033,0.10862780491200216,-1.1539421038068094,-0.7153595148387414
22064144,1998.0,1,210380,256244,1.74,0.12,9.75,-0.08,-0.05,0.07,27.79,20.136654,5.473772769110315,-435.193357001394,9.904771577376229,0.11747340124470732,0.09518660077458903,-0.5188462882566625
22104163,2003.0,1,210377,257043,2.26,0.34,12.36,-0.04,0.0,0.06,27.79,20.176673,26.632516093140246,-304.4259883081357,12.569518686091365,0.07211102550927978,0.47748991194856805,-0.3634482542775239
22144144,2009.0,1,210204,257077,0.97,-0.25,10.11,-0.07,0.08,0.02,27.79,20.216654,19.93754833192757,-284.9422933819498,10.159502940597044,0.10816653826391968,0.3565229762417664,-0.34029471133761235
22184167,1914.0,1,210067,256625,1.5,-1.16,9.94,-0.03,-0.06,0.11,27.79,20.256677,-61.10916061358328,-377.25187958837785,10.119248983990857,0.12884098726725127,-1.107856297854045,-0.44999125381033905
22224193,1904.0,1,209731,256221,2.13,0.02,10.19,-0.1,-0.14,0.03,27.79,20.296703,-69.7319139215924,-499.3526053126652,10.410254559807843,0.1746424919657298,-1.2636551130579907,-0.5950902407715908
22264167,1982.0,1,209507,256251,0.15,-0.58,10.67,-0.04,0.15,0.11500000000000002,27.79,20.336677,3.0419698433999005,-540.5719650664901,10.686804948159201,0.19319679086361657,0.05124796527132552,-0.644073465957137
22304168,1930.0,1,209520,255894,2.12,-0.05,8.2,-0.07,-0.06,-0.085,27.79,20.376678,-27.78350618541103,-439.59172032369094,8.46976386919966,0.12539936203984453,-0.5057171329793207,-0.5240731045476148
22344195,1933.0,1,209659,256515,-0.1,-0.02,12.36,0.04,0.0,0.03,27.79,20.416705,-43.67145937397143,-229.24274263494132,12.360420704814217,0.05,-0.7927860301602593,-0.27410388126967805
22384167,1933.0,1,209728,256309,1.69,-0.84,7.320000000000001,0.049999999999999996,0.03,0.08,27.79,20.456677,-15.533545348850154,-12.996265325055996,7.559371667010428,0.09899494936611665,-0.2843807087007536,-0.017126335841687487
22424146,1917.0,1,209807,256257,0.89,-0.1,10.39,-0.01,-0.1,0.1,27.79,20.496656,-50.260414669055834,110.51477953464325,10.428528179949462,0.14177446878757827,-0.9118374968712946,0.12964861067366565
22464175,1871.0,1,209817,255163,2.15,0.16,9.2,0.02,-0.06,0.04,27.79,20.536685,-70.76734576636558,117.63798357032954,9.449238064521392,0.07483314773547883,-1.28236364487813,0.1381135045828981
22504144,1945.0,1,209256,254092,1.28,-0.02,7.58,-0.1,-0.13,0.11500000000000002,27.79,20.576654,-12.93346051032962,70.68943799661987,7.687340242242437,0.20031225624010132,-0.2374014988357351,0.08232197376569506
22544861,1953.0,1,209347,253946,1.38,-0.38,7.93,-0.04,-0.16999999999999998,0.11500000000000002,27.59,20.617371,22.288789596631364,64.05605119341043,8.058144947815222,0.20910523666326483,0.3990059964806995,0.07443915652969255
22583176,1936.0,1,209516,254455,1.58,-1.47,12.36,-0.08,-0.01,0.11500000000000002,27.59,20.655686,-16.91598781167051,152.70434607088873,12.546987686293471,0.1404457190518814,-0.30935914541365145,0.1797847857736132
22623194,1907.0,1,209510,254527,1.28,-1.16,9.16,-0.03,0.07,0.11500000000000002,27.59,20.695704,-8.508840702651218,319.3617424807214,9.321459113250457,0.13793114224133723,-0.1574559757365281,0.37783290747987436
22663167,1984.0,1,209680,254762,1.48,-0.5,11.88,-0.01,-0.1,0.11500000000000002,27.59,20.735677,35.884550324872485,495.2658499907284,11.982270235643997,0.15272524349301267,0.6446587871373501,0.5868694029685181
22703175,1961.0,1,209576,254646,1.04,-1.1,9.23,-0.05,0.03,0.11500000000000002,27.59,20.775685,57.77935111855026,604.3968039508446,9.353314920390526,0.1289379695822763,1.040261432943416,0.7165556990310331
22743166,2027.0,1,209486,254460,0.96,-0.41,9.2,-0.02,0.03,0.11500000000000002,27.59,20.815676,90.28943183731481,596.2995744671591,9.259033426875614,0.12051970793193952,1.6276645369454277,0.706933317277721
22783166,1978.0,1,209433,254059,1.01,-0.86,10.12,-0.04,0.04,0.11500000000000002,27.59,20.855676,79.84810673007357,459.7881892816343,10.20657141257533,0.12816005617976298,1.439007153072875,0.5447093535657929
22823166,1985.0,1,209198,253804,1.75,0.46,10.07,0.02,-0.04,0.1,27.59,20.895676,65.50949182237022,228.63969846661772,10.231275580297895,0.10954451150103323,1.1799322225386963,0.27002292843662845
22863144,1995.0,1,208956,253573,0.95,-1.26,8.29,-0.02,0.08,0.03,27.59,20.935654,99.79580945607341,-18.43120533282059,8.438850632639495,0.08774964387392122,1.799428974240441,-0.023584973041785286
22903161,2039.5,1,208412,253546,1.59,0.51,7.320000000000001,-0.0,-0.13,0.03,27.59,20.975671,134.74123673912507,-176.82004396463935,7.50803569517354,0.13341664064126335,2.4308347414027804,-0.21180711418893375
22943167,2039.5,1,209026,254569,1.22,-1.9,12.36,-0.07,0.04,-0.03,27.59,21.015677,152.64987375173297,-161.7422363456074,12.564553314782026,0.08602325267042626,2.7544140354886104,-0.1938893287037079
22983173,2039.5,1,208781,254121,1.39,-0.04,7.320000000000001,0.04,-0.0,0.11500000000000002,27.59,21.055683,142.14773353067565,36.41741976108373,7.450912695770902,0.12175795661885923,2.564657823626831,0.0415946554177036
23023168,2001.0,1,208969,254286,0.96,-1.27,11.01,-0.01,-0.04,0.07,27.59,21.095678,127.34083064144302,323.4602054581224,11.124504483346662,0.08124038404635961,2.2971217078899238,0.3827033357479415
23063173,1937.0,1,209422,255142,2.36,0.84,12.36,-0.02,-0.11,0.05,27.59,21.135683,44.378864313545115,532.3631002199897,12.61129652335556,0.1224744871391589,0.7981369173972378,0.6309540993975025
23103167,1771.5,1,209648,255464,1.64,1.18,9.04,0.049999999999999996,-0.11,0.06,27.59,21.175677,-92.00704340180076,514.1703849763111,9.263023264571885,0.13490737563232041,-1.6661296658562816,0.6093346983966187
23143143,1771.5,1,209430,252945,1.75,-0.62,10.35,-0.02,-0.16999999999999998,0.1,27.59,21.215653,-112.18408861209848,236.96625386257884,10.515198524041283,0.1982422760159901,-2.0306953243868335,0.2799178307450623
23183175,1771.5,1,208469,251045,0.13,-1.55,12.36,-0.06,0.14,0.11500000000000002,27.59,21.255685,-89.14730836586658,-184.71195622656484,12.457487708201842,0.19085334683992317,-1.6144590086449797,-0.22118550623042094
23223162,1771.5,1,208144,250633,1.9,1.46,7.320000000000001,0.03,-0.16999999999999998,0.11500000000000002,27.59,21.295672,-99.88362554551438,-560.9500203763251,7.702207475782512,0.2074246851269154,-1.808446408781921,-0.6682898263772559
23263143,1771.5,1,208762,251120,1.4,-0.3,12.0,-0.06,-0.13,0.11500000000000002,27.59,21.335653,-89.52019018372897,-742.0535603390251,12.085114811204733,0.1836436767220696,-1.621196363102296,-0.8835050925258118
23303173,1771.5,1,208552,250965,1.45,-0.24,7.89,-0.04,-0.02,0.01,27.59,21.375683,-90.23052704266827,-690.9755503320575,8.025721151398171,0.0458257569495584,-1.6340309690645984,-0.8228062927107878
23343173,1771.5,1,208781,251872,2.415,0.04,11.88,-0.05,-0.09,0.04,27.59,21.415683,-88.6990164861248,-480.39454535784193,12.123045203248234,0.11045361017187261,-1.6063591197539866,-0.5725613386878552
23383161,1771.5,1,208716,252248,1.24,-0.54,7.53,-0.04,-0.04,0.04,27.59,21.455671,-85.43727947599399,-246.51791515668083,7.650496715900217,0.06928203230275509,-1.5474249552785595,-0.29463291594671487
23423175,1806.0,1,209398,253158,1.91,0.38,11.82,-0.02,-0.15,0.06,27.59,21.495685,-52.7122135723254,-133.17901053961862,11.979353071013476,0.16278820596099705,-0.9561374264416941,-0.15994608140349906
23463162,1888.0,1,209322,252630,1.02,-0.92,10.33,-0.07,0.15,0.06,27.59,21.535672,32.119093802620796,-230.38786759004194,10.420926062495598,0.17606816861659008,0.5766232486134915,-0.2754646960391524
23503166,1877.0,1,209129,252512,1.18,-2.8725,8.59,-0.06,0.15,0.11,27.59,21.575676,20.12397671047514,-515.5182039552742,9.134098546107328,0.19544820285692063,0.35989142706722677,-0.6143007079719358
23543162,1833.0,1,208682,252055,1.65,-0.49,9.12,0.0,0.01,-0.085,27.59,21.615672,-27.153456298740313,-834.556289835132,9.281002101066457,0.08558621384311846,-0.49433317911257807,-0.9934311577593946
23583853,1839.0,1,208983,254050,0.31,-0.29,12.13,-0.03,0.15,0.05,27.37,21.656363,-13.136032884291213,-959.1406573254012,12.137425591944943,0.1609347693943108,-0.2410616448156685,-1.1414815924051782
23622166,1815.0,1,209067,254441,2.415,-0.51,7.320000000000001,-0.02,-0.16,-0.01,27.37,21.694676,-55.95501438096537,-707.9299907823291,7.7249417473531805,0.16155494421403513,-1.0147294452414475,-0.8429541838820843
23663195,1793.0,1,209875,256259,1.32,0.57,12.36,-0.1,0.02,0.05,27.37,21.735705,-53.4864011215937,-68.54169125501038,12.443347620315041,0.11357816691600547,-0.9701257082135516,-0.0831340109391048
23703144,1870.0,1,210761,257384,2.415,0.98,9.65,0.0,-0.09,0.04,27.37,21.775654,-12.223932834520149,758.8725752517925,9.995755349146958,0.09848857801796104,-0.22458151346715818,0.9001277277218261
23743144,1793.0,1,211633,258742,1.57,0.82,11.03,-0.06,-0.07,0.11500000000000002,27.37,21.815654,-54.39696365527151,1439.688207470084,11.17131147180133,0.14739402972983676,-0.9865780592026884,1.7091782714943808
23783161,1872.0,1,212097,258593,1.79,1.1,9.79,-0.09,-0.16999999999999998,0.11500000000000002,27.37,21.855671,-15.747542493343127,1675.0755660300879,10.012901677336096,0.2241093483101497,-0.28824728128819677,1.988901975575099
23823166,1885.0,1,211931,257872,1.19,-0.46,12.36,-0.11,0.15,0.11500000000000002,27.37,21.895676,28.995799553008943,1366.6917001944093,12.425671008038158,0.2186892772862904,0.5201905146315453,1.6224325196195972
23863162,1872.0,1,210944,254633,2.21,0.6,7.74,-0.07,0.04,0.04,27.37,21.935672,-18.749908074359457,668.7056690211022,8.071660300086966,0.09000000000000001,-0.34249503529699743,0.792977449343907
23903143,1872.0,1,210369,253838,1.53,0.58,11.15,-0.09,0.12,0.05,27.37,21.975653,6.125850049479169,-108.67812021419778,11.269418796016058,0.15811388300841897,0.10696855302045877,-0.13083033008605907
23943144,1920.0,1,210148,254378,0.97,-1.04,9.98,-0.11,0.15,0.07,27.37,22.015654,24.063278497107234,-676.7489182512626,10.080818419156254,0.19874606914351792,0.431068060465518,-0.8059000057862115
23983166,1873.0,1,209978,253631,1.83,-0.68,7.320000000000001,-0.05,-0.13,0.05,27.37,22.055676,-2.2753255899323763,-909.4841889357182,7.575862987145426,0.14798648586948743,-0.044826722129628904,-1.0824720884347752
24023184,1926.0,1,210030,254228,0.56,-1.24,11.07,-0.07,0.12,0.06,27.37,22.095694,25.56036932540723,-870.5774449463172,11.153299960101496,0.15132745950421556,0.45811800251653173,-1.0362370713590336
24063166,1927.0,1,209995,255418,2.1,-0.48,8.94,0.03,-0.01,0.01,27.37,22.135676,38.8821407709761,-730.5229979773143,9.195868637600256,0.033166247903554,0.6988202623979058,-0.8698026930695162
24103163,1921.0,1,210837,256121,0.25,-1.95,9.19,0.01,0.05,-0.03,27.37,22.175673,20.26156779591884,-636.8020222530392,9.39793062328085,0.05916079783099616,0.3623774692081798,-0.758428919048553
24143167,1922.0,1,210436,256035,1.93,0.69,7.91,0.049999999999999996,-0.16999999999999998,0.09,27.37,22.215677,17.9666126505805,-615.7464491672258,8.171236136595246,0.1987460691435179,0.3209114455591202,-0.7334074271080476
24183141,1959.0,1,210841,255795,1.47,-1.07,11.25,-0.05,0.02,0.07,27.37,22.255651,59.03327461460493,-564.8628697450607,11.395977360454873,0.08831760866327848,1.06291774561564,-0.6729396798172553
24223163,2000.0,1,210778,257359,1.42,1.15,8.45,0.049999999999999996,0.02,0.07,27.37,22.295673,82.80791927497594,-341.72307269004125,8.645310867747902,0.08831760866327847,1.4924860444721275,-0.40777042458667506
24263126,1936.0,1,211559,258113,2.07,0.03,9.55,0.03,-0.11,0.06,27.37,22.335636,32.91892104483068,111.81800478944689,9.771811500433275,0.12884098726725127,0.5910747970056268,0.13119730469765795
24303141,1954.0,1,212362,260134,1.19,0.53,12.16,0.02,0.13,0.07,27.37,22.375651,29.499503360545773,702.6244340552081,12.229578897083906,0.1489966442575134,0.5292916049242553,0.8332849775443437
24343123,1957.0,1,212797,260137,1.09,-0.3,7.97,0.049999999999999996,-0.16999999999999998,0.07,27.37,22.415633,47.69398154363341,1228.9477609902285,8.049782605760232,0.1905255888325765,0.858035573691882,1.4587438443883793
24383163,1958.0,1,213132,261068,1.17,0.63,12.36,0.04,0.06,0.11500000000000002,27.37,22.455673,29.01443962522103,1502.8799795659195,12.431226809933122,0.1357387196049823,0.5205273097435268,1.7842725189773685
24423123,1991.0,1,213396,260119,1.82,0.63,9.19,0.01,-0.11,0.08,27.37,22.495633,76.36490453943836,1465.5873915765092,9.389643230709034,0.13638181696985854,1.376071481016399,1.739955691977949
24463141,2030.0,1,212847,260013,1.74,0.8,9.23,0.03,0.15,0.11500000000000002,27.37,22.535651,97.1850665444791,1215.7875072691058,9.426584747404545,0.1913765920900464,1.752257190716182,1.443104793336383
24503122,1966.0,1,213101,259309,1.7,-0.67,10.69,-0.05,0.05,0.08,27.37,22.575632,46.734197559667905,931.6082226641296,10.845044951497433,0.10677078252031312,0.8406938729366652,1.1053989683549241
24543162,1968.0,1,212318,258910,2.415,1.27,9.4,0.049999999999999996,-0.16999999999999998,-0.01,27.37,22.615672,34.11108971933262,738.4553260719131,9.788009246011162,0.17748239349298847,0.6126153027322768,0.8758647910769979
24583848,1914.0,1,212694,258921,2.02,-0.47,10.8,-0.05,-0.1,-0.085,27.63,22.656358,-11.01071704309234,618.2477288872591,10.997331494503564,0.1404457190518814,-0.20266072133274746,0.7330155125565339
24622196,1834.0,1,212414,259455,2.415,1.6275,9.52,0.04,-0.16999999999999998,-0.03,27.63,22.694706,-98.50437085193852,435.10235022099755,9.95546991608131,0.1772004514666935,-1.7835255697589598,0.5153738175258592
24662167,1808.0,1,212678,258262,1.81,-0.23,9.87,-0.1,-0.06,0.03,27.63,22.734677,-120.97734979578935,68.12290945845564,10.037225712317124,0.12041594578792296,-2.1895749334005115,0.07927202718523262
24703176,1858.0,1,211505,257243,2.415,1.03,7.320000000000001,-0.02,-0.16999999999999998,0.11500000000000002,27.63,22.775686,-75.36428530259303,-452.4607323210133,7.776601121312575,0.2062159062730128,-1.3654226989558087,-0.539366057090912
24743167,1893.0,1,211553,256275,1.45,-0.33,10.16,-0.11,0.06,0.07,27.63,22.815677,-33.92132317835846,-928.5527436691171,10.268252042095577,0.14352700094407325,-0.6166172806794347,-1.1051322975221403
24783167,1910.0,1,210785,256946,2.415,0.9,8.43,-0.02,-0.16999999999999998,0.11500000000000002,27.63,22.855677,-28.684771046321323,-1128.220473864304,8.81516449080787,0.2062159062730128,-0.5220014904808103,-1.342408408768147
24823167,1904.0,1,211525,257822,2.0,-0.61,8.45,-0.09,0.08,0.06,27.63,22.895677,-16.409648208228734,-969.6442353937513,8.704860711119965,0.1345362404707371,-0.300210430671483,-1.1539635701178044
24863167,1941.0,1,211662,258358,2.12,1.38,8.16,-0.02,-0.16999999999999998,0.03,27.63,22.935677,-2.584304053674218,-600.0177297402565,8.5430907755917,0.17378147196982766,-0.05040944923024091,-0.71471612743302
24903167,1941.0,1,212549,259403,2.16,-0.05,12.36,-0.11,0.07,0.08,27.63,22.975677,23.946332986366752,-293.3888333760087,12.547418061099263,0.15297058540778355,0.42895504953200747,-0.35033219792252507
24943168,1977.0,1,212258,259100,1.64,0.29,7.8,-0.07,0.15,0.07,27.63,23.015678,36.28758905745872,-241.61786129435293,7.975819707089673,0.17972200755611428,0.6519410269017547,-0.28880991328017197
24981145,1910.0,1,212478,258621,1.76,-0.78,11.98,-0.11,0.07,0.07,27.63,23.053655,-11.814123681480906,-407.58452639233326,12.133688639486346,0.14798648586948743,-0.21717694346236138,-0.48603720109689086
25021171,1926.0,1,211722,258634,1.65,0.6,7.66,0.02,0.11,0.06,27.63,23.093681,-4.4400857792111585,-564.8753166538312,7.858632196508499,0.1268857754044952,-0.08394033939814553,-0.672954471161391
25061125,1918.0,1,212099,259405,2.07,-0.4,8.67,-0.08,-0.02,-0.085,27.63,23.133635,-11.186888072711113,-494.633989222112,8.922656555084926,0.11842719282327012,-0.20584383891798214,-0.5894828505571841
25101196,1843.0,1,212588,260196,1.87,0.73,10.0,-0.06,-0.05,-0.085,27.63,23.173706,-79.27104298378686,-175.9104476337799,10.199499987744497,0.11543396380615197,-1.4360113144799895,-0.2107261909972944
25141176,1905.0,1,213180,261149,1.82,-0.44,11.37,-0.09,0.02,0.03,27.63,23.213686,-24.98629774145486,190.14189211050947,11.523146271743668,0.09695359714832658,-0.4551762273219529,0.2242738743719103
25181167,1970.0,1,213398,260574,1.75,0.06,9.35,-0.03,-0.12,0.06,27.63,23.253677,48.1251414045504,339.2676334622509,9.512549605652525,0.1374772708486752,0.8658259154881585,0.4014881691406699
25221167,1935.0,1,213130,259894,1.3,0.15,12.36,-0.11,0.11,0.09,27.63,23.293677,10.18671559603796,148.8707383988462,12.429082830201109,0.17972200755611428,0.1803416414362819,0.17522909958648675
25261144,1853.0,1,212450,258698,1.26,-0.5,7.320000000000001,-0.04,0.13,0.06,27.63,23.333654,-70.55550522652274,-278.5279583828435,7.444461028173901,0.14866068747318506,-1.278536038550923,-0.33267220537067776
25301167,1821.0,1,212193,259169,0.97,-0.34,9.7,-0.06,0.01,0.05,27.63,23.373677,-101.0184490574596,-706.764942670418,9.754306741127223,0.07874007874011811,-1.8289507827691052,-0.841569693333018
25341167,1919.0,1,212229,259488,1.81,0.05,9.64,-0.02,0.05,0.06,27.63,23.413677,-1.5237294389047091,-940.2376962260836,9.80857787857139,0.0806225774829855,-0.031246629361209782,-1.1190181673124202
25381144,1993.0,1,212094,259144,1.21,0.41,7.57,-0.04,-0.09,0.11,27.63,23.453654,68.50635789567009,-937.8494502694529,7.67705021476348,0.147648230602334,1.2340806095871049,-1.1161800836985363
25421168,1955.0,1,212469,259785,1.92,0.18,12.36,-0.09,0.03,0.11,27.63,23.493678,40.26631294608186,-795.1634904855185,12.509532365360425,0.1452583904633395,0.7238299521358045,-0.9466185344494922
25461144,1983.0,1,212564,259801,1.11,0.08,8.05,-0.04,0.11,0.11500000000000002,27.63,23.533654,55.704200259005184,-636.4349606246648,8.12656138843484,0.16408839081421941,1.0027669072695486,-0.757992719590167
25501144,1969.0,1,212525,259884,1.43,-0.37,9.12,-0.04,-0.0,0.11,27.63,23.573654,57.30097393476358,-516.1954932181499,9.238841918768824,0.11704699910719625,1.0316179526312357,-0.6151055679376735
25541176,1964.0,1,212816,260904,1.47,0.38,12.05,-0.08,0.08,0.07,27.63,23.613686,37.281088847542385,-400.970746040887,12.145278918164045,0.13304134695650072,0.6698919162141781,-0.4781776832825082
25581145,1966.0,1,212863,261423,1.66,-0.4,7.320000000000001,0.049999999999999996,0.01,0.07,27.63,23.653655,53.24667032889204,-225.9760838548538,7.5165151499880585,0.08660254037844387,0.9583634275730772,-0.27022193153574214
