timestamp_us,ecg,leads,ir,red,accX,accY,accZ,gyroX,gyroY,gyroZ,temp,time_sec,ecg_filtered,ppg_filtered,accel_magnitude,gyro_magnitude,ecg_norm,ppg_norm
1948960,1766.5,1,184337.0,232131,0.5,-0.53,9.21,-0.05,-0.14,0.0,27.38,0.030472,1.50831516806292,90.02121975671979,9.238776975336076,0.14866068747318506,0.04269349266048468,0.16127229459686304
1989178,1766.5,1,184477.0,232327,0.69,-0.86,9.29,0.05,0.09,-0.02,27.38,0.07069,-11.00143954446071,529.6495276827642,9.355201761586972,0.10488088481701516,-0.2843606420429027,1.047829200293384
2029160,1766.5,1,185475.0,233878,0.57,-0.49,7.290000000000002,0.03,-0.19,-0.0,27.38,0.110672,-22.125740304311265,970.4397207288083,7.328649261630687,0.19235384061671346,-0.5751935674519735,1.9367291700242053
2069173,1766.5,1,186291.0,233316,1.8050000000000002,-0.53,9.82,-0.06,-0.02,-0.01,27.38,0.150685,-36.37032246956639,1393.9935758465576,9.998566147203308,0.06403124237432849,-0.9476029073093651,2.7908702442431865
2109193,1766.5,1,186927.0,235545,0.71,-0.98,9.54,-0.05,0.15,-0.0,27.38,0.190705,-43.77052186695072,1772.5812613536518,9.616449448731064,0.15811388300841897,-1.1410731923918624,3.5543322892178684
2149172,1779.0,1,186950.0,234051,1.14,0.16999999999999982,9.61,-0.01,-0.1,-0.04,27.38,0.230684,-48.79591953583485,2089.4510688711443,9.678873901441222,0.10816653826391968,-1.2724568305132333,4.193333716097363
2189172,1814.0,1,187357.0,235890,-0.4,-1.31,10.24,-0.04,0.14,-0.0,27.38,0.270684,-16.708598310339546,2320.63854084519,10.331200317484894,0.14560219778561037,-0.43356819364427296,4.6595476656858645
2229193,1872.0,1,187045.0,235668,0.58,-0.52,9.93,-0.0,-0.05,-0.0,27.38,0.310705,22.65790782492504,2393.7007081597244,9.96050701520761,0.05,0.5956269341766818,4.806885241110493
2269189,1857.0,1,188410.0,237858,0.37,-1.15,12.41,-0.07,0.14,0.01,27.38,0.350701,5.580485156170468,2197.247975649528,12.468660713966035,0.15684387141358122,0.1491560143030809,4.4107175614824445
2309165,1895.0,1,187138.0,235938,0.42,-1.48,9.11,-0.03,-0.17,-0.02,27.38,0.390677,28.741115718667388,1672.9255757565868,9.23898803982341,0.17378147196982768,0.7546658873479197,3.3533660760211017
2349193,1962.5,1,186551.0,234940,-0.5,-0.88,11.64,-0.06,0.11,0.0,27.38,0.430705,91.67807745430456,914.8921246896939,11.683920574875541,0.12529964086141668,2.4000853247652167,1.8247115770360807
2389173,1962.5,1,185752.0,234302,0.8,-0.26,9.02,0.01,-0.195,0.04,27.38,0.470685,81.9118402260173,165.58519720136215,9.059139031938962,0.1993113142799475,2.1447575154351215,0.3136550343287035
2429160,1945.0,1,185548.0,233622,0.57,-0.37,12.36,-0.09,0.04,0.01,27.38,0.510672,58.98742655995945,-314.16064599237126,12.378667133419494,0.09899494936611665,1.545423280078035,-0.6538031174656384
2469164,1962.5,1,185567.0,233667,0.7,-0.49,9.44,-0.04,-0.15,-0.0,27.38,0.550676,68.93205815643422,-404.8721857513184,9.478591667542176,0.15524174696260024,1.8054150190425875,-0.8367325161184379
2509189,1962.5,1,185875.0,233358,0.97,-0.12,9.95,-0.09,-0.04,-0.01,27.38,0.590701,65.62180582057432,-196.9235913231388,9.997889777348016,0.09899494936611665,1.718872018141803,-0.41738221702168127
2549193,1962.5,1,186304.0,233761,0.08,-0.8,11.36,-0.09,0.09,0.04,27.38,0.630705,58.693965496221544,76.17553701747993,11.38841516629948,0.13341664064126332,1.537751054964472,0.13335101331162522
2589159,1962.5,1,186272.0,233580,1.23,-0.83,9.43,-0.07,-0.03,-0.01,27.38,0.670671,57.414706006980104,184.72234474236396,9.546030588679255,0.07681145747868609,1.5043061861457327,0.35224711314147744
2627193,1962.5,1,186310.0,234100,0.47,-1.0,10.48,-0.09,0.13,0.0,27.38,0.708705,52.5348176789892,30.201217155279153,10.538088061882952,0.15811388300841897,1.376726733851399,0.040638942628971636
2667160,1962.5,1,185962.0,233693,0.46,-1.13,8.86,-0.04,-0.02,0.0,27.38,0.748672,51.0205612372783,-320.20095669586414,8.943606655035763,0.044721359549995794,1.337138121473013,-0.6659840418287598
2707172,1962.5,1,185553.0,233314,0.77,-1.54,10.25,-0.05,-0.03,0.0,27.38,0.788684,50.33307140568653,-699.5451527192643,10.393603802339205,0.05830951894845301,1.319164436364421,-1.4309716701436663
2747170,1962.5,1,185329.0,232765,0.51,-1.45,9.8,-0.06,-0.03,0.0,27.38,0.828682,46.63725995246656,-955.4675782113311,9.919808465892878,0.0670820393249937,1.222541405406855,-1.947066265400629
2787206,1958.0,1,185312.0,232870,0.6,-1.53,9.48,-0.03,-0.06,0.0,27.38,0.868718,46.46386468359763,-1038.186407364368,9.62139802731391,0.0670820393249937,1.2180081718683256,-2.1138775191224712
2827170,1961.0,1,185291.0,232556,0.89,-0.79,9.48,-0.03,-0.02,-0.0,27.38,0.908682,43.48209110301227,-1010.6322733066304,9.554402126768583,0.03605551275463989,1.140052896110322,-2.05831169820294
2867193,1933.0,1,185395.0,233118,0.65,-1.1,9.96,-0.03,0.02,0.0,27.38,0.948705,23.288384027583476,-982.6839978937146,10.041618395457975,0.03605551275463989,0.6121100590380432,-2.001951049621146
2907160,1904.0,1,185280.0,232307,0.64,-0.43,9.85,-0.03,0.0,-0.04,27.38,0.988672,-11.578721720265575,-1021.1409635953527,9.880131578071214,0.05,-0.2994530660612998,-2.079503581840379
2947172,1859.0,1,185179.0,232580,0.59,-0.47,10.76,-0.01,0.03,0.0,27.38,1.028684,-49.42694559703666,-1099.9094586477947,10.786408113918181,0.03162277660168379,-1.2889543308371234,-2.238348569710933
2987871,1840.0,1,184999.0,231508,0.64,-0.65,9.43,-0.01,-0.01,-0.0,27.38,1.069383,-69.32551017506252,-1122.6760264906516,9.474017099414587,0.01414213562373095,-1.8091809835140613,-2.284259757812788
3028193,1837.0,1,185167.0,232236,0.68,-1.38,11.27,-0.03,0.01,0.0,27.38,1.109705,-72.2365981591176,-996.4586494243861,11.374519770082603,0.03162277660168379,-1.8852882600793985,-2.0297290889737307
3068160,1801.0,1,185336.0,231806,0.42,-1.1,8.05,-0.0,-0.08,-0.0,27.38,1.149672,-97.41553841252009,-698.9976259842779,8.135656089093246,0.08,-2.5435646776881966,-1.429867524666216
3108193,1809.0,1,185953.0,232692,1.04,-1.2,9.77,-0.04,0.06,0.04,27.38,1.189705,-103.84212993535054,-293.17263030359885,9.898206908324354,0.0824621125123532,-2.7115810279598183,-0.6114785675895684
3148161,1819.0,1,186103.0,232500,0.77,-1.76,8.41,-0.0,-0.01,0.0,27.38,1.229673,-65.23055824561794,112.74705230118143,8.626621586693135,0.01,-1.7021228524225136,0.2071013356680411
3188173,1835.0,1,186268.0,232628,0.62,-1.19,9.09,-0.0,-0.08,0.0,27.38,1.269685,-81.9991261142203,421.04117136316876,9.18850368667282,0.08,-2.1405190944359926,0.8288089812230427
3228170,1766.5,1,186320.0,232648,0.77,-1.44,9.08,-0.03,0.03,0.0,27.38,1.309682,-105.21483453967802,579.919972326172,9.22566528766354,0.042426406871192854,-2.747468919200582,1.1492048602487142
3268164,1870.0,1,186378.0,233134,0.45,-1.01,9.1,0.01,0.01,0.01,27.38,1.349676,-46.276371225726436,592.7671214189482,9.16692969319608,0.017320508075688773,-1.2065859392493985,1.1751124929952153
3308141,1823.0,1,186273.0,232740,0.84,-0.87,8.92,-0.01,-0.02,0.0,27.38,1.389653,-43.9218410888056,515.0297681715309,9.001605412369507,0.022360679774997897,-1.1450292713322587,1.0183469114584107
3348173,1799.0,1,186275.0,232915,0.4,-0.91,9.73,0.0,0.06,-0.0,27.38,1.429685,-107.61692534837141,440.7881763600728,9.780644150565955,0.06,-2.810269009927356,0.8686309019938363
3388159,1785.0,1,185576.0,232397,1.44,-0.21,9.27,0.01,-0.13,-0.0,27.38,1.469671,-87.19380523262642,465.838441148532,9.383528121128,0.130384048104053,-2.2763284146963843,0.9191474061345817
3428173,1823.0,1,186625.0,233799,-0.36,-1.75,11.91,-0.05,0.15,0.04,27.38,1.509685,-65.56065824073184,629.4997620706705,12.043263677259583,0.16309506430300091,-1.7107529631439882,1.249187741670356
3468173,1811.0,1,185427.0,232925,0.88,0.06,8.95,0.05,-0.11,0.0,27.38,1.549685,-73.73390124166264,872.9023456841526,8.993358660700684,0.12083045973594572,-1.9244336450452793,1.7400347537403984
3508141,1877.0,1,187093.0,234693,0.63,-1.36,12.41,-0.08,0.165,0.01,27.38,1.589653,8.966690747383781,1061.2068875710493,12.500183998645781,0.1836436767220696,0.23768473169298635,2.119770746564436
3548163,1927.0,1,185777.0,234417,0.61,-0.68,8.53,-0.0,-0.14,-0.04,27.38,1.629675,31.15328042820604,1074.3088362101628,8.5787761364894,0.14560219778561037,0.8177293494196762,2.146192209501807
3588192,1845.0,1,187075.0,233440,0.03,-1.76,12.23,-0.07,0.13,-0.0,27.38,1.669704,-10.673635364286111,903.3634946676857,12.356026869507852,0.147648230602334,-0.27579055294340754,1.801462877225442
3628173,1962.5,1,184827.0,231775,0.56,-1.2,9.41,-0.01,-0.195,0.01,27.38,1.709685,66.82224963376008,666.0926980026942,9.50272066305224,0.19551214796017155,1.7502563355487986,1.3229812610260372
3668172,1962.5,1,185847.0,232533,0.53,-1.09,11.63,-0.09,0.01,0.01,27.38,1.749684,105.25425348097619,514.6784152071571,11.692985076531999,0.09110433579144298,2.7550199022225104,1.0176383711044648
3708160,1962.5,1,185440.0,232760,0.59,-0.85,9.36,-0.02,-0.1,0.01,27.38,1.789672,77.8033891810724,510.13586412747156,9.417016512675339,0.10246950765959599,2.0373464644310193,1.008477837179402
3748173,1962.5,1,185868.0,231969,0.77,-1.08,10.01,-0.09,-0.08,-0.01,27.38,1.829685,96.39363309781939,571.9919938821357,10.09749473879536,0.12083045973594571,2.5233684750808236,1.1332172545575996
3788190,1962.5,1,185436.0,231708,0.64,-0.46,9.91,-0.07,-0.05,-0.0,27.38,1.869702,89.79069133293001,542.0299598067144,9.941292672484801,0.08602325267042628,2.350741636662414,1.0727956489890433
3828193,1962.5,1,185043.0,230412,1.26,-0.63,9.46,-0.08,-0.12,-0.0,27.38,1.909705,89.67241765717972,303.3860370652413,9.56431388025299,0.14422205101855956,2.3476494981217617,0.5915449790605017
3866190,1962.5,1,185054.0,230995,0.85,-1.0,9.53,-0.08,0.02,0.0,27.38,1.947702,96.99809030759221,-135.69169372510203,9.619948024807618,0.08246211251235322,2.5391713612484925,-0.29390162970341926
3906163,1962.5,1,184366.0,227532,1.11,-0.77,9.01,-0.06,-0.07,-0.0,27.38,1.987675,86.68685848747913,-645.4056466757223,9.110713473707753,0.09219544457292887,2.2695952521920097,-1.321793639319557
3946190,1962.5,1,183694.5,224042,0.81,-1.29,8.63,-0.08,-0.07,0.01,27.38,2.027702,101.15314321007901,-1058.0913895287526,8.763395460664777,0.10677078252031312,2.647800767891389,-2.1540180175331645
3986173,1932.0,1,183694.5,221091,0.8,-0.82,7.49,-0.05,-0.03,0.04,27.38,2.067685,54.27293672237686,-1277.0449648009317,7.577103668289091,0.07071067811865475,1.4221679941166816,-2.595561022578117
4026893,1819.0,1,183694.5,221077,1.58,-1.08,8.81,-0.02,-0.01,0.04,27.38,2.108405,-39.157649871698894,-1335.064030354402,9.015481129701287,0.045825756949558406,-1.0204745960505415,-2.712562594817958
4067173,1839.0,1,183694.5,221675,1.2,-1.51,8.68,-0.01,-0.04,0.01,27.38,2.148685,-40.26005469735135,-1355.306855881231,8.891709621889369,0.042426406871192854,-1.0492957891619985,-2.7533843900437542
4107173,1867.0,1,183694.5,223434,0.59,-0.96,7.98,0.01,0.01,0.01,27.38,2.188685,10.93495498404351,-1438.3167349895725,8.059162487504517,0.017320508075688773,0.28914289147160516,-2.920782576734029
4147142,1889.0,1,183694.5,223198,0.74,-1.59,10.01,-0.01,0.04,0.0,27.38,2.228654,8.829207128942135,-1561.2335978261274,10.162470172157947,0.04123105625617661,0.23409036978113298,-3.1686574101094798
4187160,1808.0,1,183694.5,223122,0.78,-0.77,8.82,0.05,-0.09,0.0,27.38,2.268672,-46.85615846576281,-1573.8291576351696,8.887840007560893,0.10295630140987,-1.221743855488342,-3.194057686498639
4227163,1787.0,1,183694.5,226449,1.0,-1.12,9.84,0.02,0.02,0.0,27.38,2.308675,-94.10576643670548,-1305.3486482701246,9.953893710503444,0.0282842712474619,-2.4570342352861654,-2.65263838903488
4267142,1770.0,1,184482.0,228951,0.93,-0.38,9.59,0.04,0.01,0.0,27.38,2.348654,-83.87803783406781,-705.6323602026011,9.642478934381966,0.04123105625617661,-2.1896412283898736,-1.4432471668154314
4307142,1856.0,1,185933.0,232175,0.6,-0.95,10.2,0.01,0.08,0.0,27.38,2.388654,-26.365347427679435,91.52645690377327,10.261700638783028,0.0806225774829855,-0.686033553613123,0.1643077642501404
4347142,1872.0,1,186299.0,233316,0.88,-0.28,10.78,0.02,-0.04,-0.0,27.38,2.428654,18.443643082521948,835.1108072306405,10.819482427547078,0.044721359549995794,0.4854494974154465,1.6638241258331232
4387173,1883.0,1,187112.0,234411,0.78,-1.24,12.41,-0.02,0.04,-0.0,27.38,2.468685,0.06012805270800192,1299.4910108945023,12.496163411223462,0.044721359549995794,0.004832192036673374,2.6002958429733467
4427170,1817.0,1,186688.0,234365,0.62,-1.15,11.01,-0.04,-0.12,0.0,27.38,2.508682,-38.291256957645544,1396.5336760293844,11.08724492378517,0.12649110640673517,-0.9978236815178055,2.795992624484963
4467172,1829.0,1,187226.0,234265,0.25,-1.05,11.93,-0.06,0.02,0.0,27.38,2.548684,-52.819182955736714,1194.2042484355352,11.97872697743796,0.06324555320336758,-1.3776407423258694,2.3879739686682715
4507161,1808.0,1,186873.0,234613,0.07,-1.42,10.12,-0.02,-0.1,0.01,27.38,2.588673,-51.084561035446384,855.927219637363,10.219378650387702,0.10246950765959599,-1.3322909105973435,1.705802619570408
4547173,1866.0,1,186673.0,233519,0.98,-1.09,11.28,-0.06,-0.08,-0.0,27.38,2.628685,-14.673663466927685,549.5792478275355,11.374836262557805,0.1,-0.3803670022793002,1.0880195854537462
4587190,1851.0,1,186537.0,233895,0.27,-1.34,9.8,-0.06,-0.06,0.01,27.38,2.668702,-10.853151003582271,365.2048844359958,9.894872409485632,0.08544003745317531,-0.28048379700973236,0.716209212574694
4627173,1845.0,1,186219.0,233041,0.88,-0.65,8.99,-0.06,-0.09,-0.0,27.38,2.708685,-38.041245779159716,271.75206530750773,9.056323757463622,0.10816653826391967,-0.9912874071043672,0.5277517346064953
4667190,1862.0,1,186579.0,234544,0.48,-1.11,9.84,-0.07,0.06,0.0,27.38,2.748702,0.6343978148397,144.06899382383537,9.914035505282397,0.09219544457292887,0.019845859726918092,0.2702653382040261
4707164,1893.0,1,186635.0,234428,0.74,-0.69,9.63,-0.04,-0.05,-0.0,27.38,2.788676,4.618337264633768,-135.08621746026273,9.683005731693028,0.06403124237432849,0.12400168847060071,-0.292680622879812
4747190,1851.0,1,186039.0,233292,1.28,-0.77,9.35,-0.03,-0.06,-0.0,27.38,2.828702,-10.255782181107461,-556.5617427729883,9.46856905767709,0.0670820393249937,-0.2648662291338657,-1.1426305255847222
4787194,1935.0,1,185717.0,232374,0.86,-1.29,9.43,-0.05,-0.05,-0.0,27.38,2.868706,43.707854407781994,-948.3828709331109,9.556599813741286,0.07071067811865477,1.145955235843276,-1.9327792050610089
4827190,1902.0,1,185587.0,231808,0.88,-0.87,9.83,-0.04,-0.05,0.0,27.38,2.908702,35.83648334052791,-1072.289597714127,9.907582954484914,0.06403124237432849,0.9401666722391598,-2.1826502036056277
4867173,1900.0,1,185974.0,232381,1.02,-1.07,8.72,-0.02,-0.09,0.0,27.38,2.948685,10.007672976335936,-793.5385401209282,8.844416317654886,0.09219544457292887,0.26490009681846843,-1.6205192611162924
4907170,1904.0,1,186766.0,233097,0.56,-1.1,9.3,-0.03,0.0,0.0,27.38,2.988682,29.64411387847493,-192.6980834521185,9.381556374077812,0.03,0.7782738068140743,-0.408861034205223
4947164,1918.0,1,187659.0,233803,0.94,-1.04,9.86,-0.01,-0.02,0.0,27.38,3.028676,29.976640607290367,472.61621272061194,9.95915659079623,0.022360679774997897,0.7869673618883082,0.9328154982117458
4987170,1933.0,1,188143.0,234418,0.77,-0.92,10.41,-0.05,0.09,0.0,27.38,3.068682,49.99085552193081,929.3806103166309,10.478902614300793,0.10295630140987,1.310217568714695,1.8539291382214411
5027851,1920.0,1,188189.0,234854,0.76,-0.55,9.2,-0.01,0.02,0.01,27.25,3.109363,34.931667755943536,1051.3279271808092,9.247707824104305,0.024494897427831782,0.9165112381493027,2.09984877976392
5066160,1911.0,1,188008.0,234826,0.79,-0.79,10.21,-0.02,0.04,0.01,27.25,3.147672,15.411359830970168,905.4857716267968,10.270944455112199,0.0458257569495584,0.40617370042327844,1.8057426728163508
5106165,1918.0,1,187864.0,234741,0.87,-0.97,10.38,-0.01,0.01,0.01,27.25,3.187677,41.683724188397974,665.4959180628442,10.461462612847212,0.017320508075688773,1.0930365197980378,1.3217777912600637
5146161,1922.0,1,187826.0,234748,0.81,-0.95,9.47,-0.02,0.01,0.01,27.25,3.227673,7.490882078794573,475.7626142760518,9.5519369763415,0.024494897427831782,0.19910129515206065,0.9391605491940832
5186164,1855.0,1,187698.0,234335,0.59,-1.14,10.16,-0.04,-0.03,0.01,27.25,3.267676,-9.429537547591304,372.6640852436525,10.240766572869436,0.05099019513592785,-0.24326494838313942,0.7312514786612482
5226173,1890.0,1,187736.0,234440,1.15,-1.02,10.77,-0.02,-0.04,0.01,27.25,3.307685,-40.964460471258434,306.2849642291808,10.87914518700803,0.0458257569495584,-1.0677117234596245,0.5973909718002007
5266173,1766.5,1,187655.0,233806,0.73,-1.32,9.6,-0.04,0.01,0.01,27.25,3.347685,-95.18767901482015,221.56166553295986,9.717782668901378,0.042426406871192854,-2.4853196805400013,0.4265374935815978
5306160,1934.0,1,187487.0,234171,0.73,-1.24,10.29,-0.03,0.0,0.0,27.25,3.387672,0.6105157681631125,119.48403589357878,10.390120307291921,0.03,0.01922148920245546,0.22068717447714886
5346164,1917.0,1,187307.0,233089,0.55,-0.7,10.15,-0.05,-0.0,-0.0,27.25,3.427676,43.10427376648449,49.01904181526531,10.188964618645018,0.05,1.1301752666192875,0.07858707313312356
5386190,1882.0,1,187393.0,233553,0.68,-0.86,10.91,-0.03,-0.02,0.01,27.25,3.467702,-41.76114427525313,47.10389991839886,10.964948700290394,0.03741657386773942,-1.088540167992341,0.07472498726775813
5426173,1837.0,1,187408.0,232985,0.74,-0.57,9.1,-0.02,-0.01,0.0,27.25,3.507685,-54.861970432558444,89.6834918311687,9.147813946512029,0.022360679774997897,-1.4310472323784684,0.16059123057244573
5466170,1863.0,1,187524.0,233641,0.84,-0.83,10.24,-0.02,0.05,0.01,27.25,3.547682,-51.43086860150845,103.02583618464269,10.30786592850334,0.05477225575051661,-1.3413447508973677,0.18749747685252652
5506164,1874.0,1,187421.0,233974,0.85,-1.25,10.23,-0.04,0.06,0.0,27.25,3.587676,-29.853157800774873,25.978863358254028,10.341078280334212,0.07211102550927978,-0.7772186191716234,0.03212412033578056
5546161,1935.0,1,187052.0,233466,0.71,-0.98,10.17,-0.03,0.01,0.0,27.25,3.627673,21.63921188813735,-134.30793048527624,10.241747897697932,0.03162277660168379,0.5689942202835455,-0.2911111250111625
5586164,1913.0,1,186833.0,233772,0.43,-1.66,9.25,-0.04,-0.02,0.01,27.25,3.667676,7.2217841029184076,-303.92574964857874,9.407603307963193,0.0458257569495584,0.19206601686938538,-0.6331633682295547
5626170,1931.0,1,186844.0,232794,0.42,-1.17,9.43,-0.04,-0.05,0.0,27.25,3.707682,9.711220710858758,-398.75474783358106,9.511582413037274,0.06403124237432849,0.25714966994003935,-0.824396056583507
5666173,1911.0,1,186615.0,233580,0.68,-1.32,9.98,-0.02,-0.01,0.01,27.25,3.747685,12.09667600919792,-386.2641136179502,10.089856292336378,0.024494897427831782,0.3195148430709631,-0.7992073737331306
5706173,1888.0,1,186919.0,233776,0.43,-1.48,9.47,-0.05,0.07,0.0,27.25,3.787685,-46.60920659103124,-302.79981898972187,9.59459222687447,0.08602325267042628,-1.2152875632939908,-0.6308928101627777
5746165,1866.0,1,186818.0,234192,0.56,-1.01,9.36,-0.02,-0.0,0.0,27.25,3.827677,-23.468340481127303,-218.36135904541854,9.430975559293957,0.02,-0.6102944106876601,-0.46061373936510214
5786170,1938.0,1,186849.0,233720,0.39,-1.22,10.01,-0.05,0.06,0.01,27.25,3.867682,-5.97560711739253,-183.7053021830216,10.091610376941828,0.07874007874011811,-0.15296563763458548,-0.39072614117900467
5826165,1843.0,1,186513.0,233627,0.73,-0.54,8.69,0.0,-0.06,0.01,27.25,3.907677,-45.18655019572423,-202.4794889036888,8.737310799096024,0.0608276253029822,-1.1780937359936385,-0.42858627117055065
5866160,1962.5,1,186748.0,233557,0.96,-1.35,9.88,-0.03,0.04,0.0,27.25,3.947672,22.261150743426406,-242.28363708292707,10.017908963451406,0.05,0.5852541453443738,-0.5088555391122493
5906164,1962.5,1,186512.0,233715,0.81,-0.85,10.0,-0.02,-0.05,0.0,27.25,3.987676,63.55351225028714,-265.0003126967429,10.068694056331239,0.05385164807134505,1.6647986986013596,-0.5546661142658498
5946170,1962.5,1,186538.0,233621,0.6,-1.06,9.85,-0.04,0.02,0.0,27.25,4.027682,35.904869347930585,-249.6074879038585,9.925023929442185,0.044721359549995794,0.9419545511377373,-0.5236248576582248
5986164,1962.5,1,186522.0,234050,0.53,-1.24,9.73,-0.03,-0.01,0.01,27.25,4.067676,50.16342746625408,-197.66384344650962,9.823003613966556,0.033166247903554,1.3147292773150423,-0.4188750135957393
6026173,1962.5,1,186482.0,233760,0.74,-1.04,10.51,-0.03,0.0,0.01,27.25,4.107685,47.2745580654376,-127.69765674699798,10.587223432042983,0.03162277660168379,1.2392028818047243,-0.27778081000287413
6066857,1962.5,1,186539.0,233981,0.37,-0.93,10.11,-0.03,-0.01,0.01,27.17,4.148369,44.65932975329646,-66.20579414170858,10.159424196281991,0.033166247903554,1.1708305393939773,-0.15377597579635657
6105173,1962.5,1,186527.0,234203,0.61,-1.29,10.45,-0.05,0.04,0.0,27.17,4.186685,50.62156547188028,-37.27725984045141,10.546975869888012,0.06403124237432849,1.3267068046485568,-0.09543853165531047
6145164,1962.5,1,186479.0,234123,0.2,-0.66,11.13,-0.04,0.06,0.01,27.17,4.226676,46.778978881782606,-51.53315031126029,11.15134521033225,0.07280109889280519,1.226246494984043,-0.12418704014734089
6185160,1962.5,1,186413.0,233955,0.73,-0.74,10.85,-0.03,-0.03,0.01,27.17,4.266672,50.705909475586424,-99.1716382844591,10.899678894352805,0.04358898943540673,1.3289118882639788,-0.220255081554458
6225173,1936.0,1,186211.0,233549,0.53,-1.18,11.19,-0.05,0.02,0.0,27.17,4.306685,22.916082041402433,-153.34914540182862,11.26451951926934,0.05385164807134505,0.6023766224729845,-0.3295097455566823
6265161,1891.0,1,186224.0,233620,0.61,-1.52,10.21,-0.01,-0.08,0.01,27.17,4.346673,-17.589368619096287,-183.8071879346619,10.34053190121282,0.08124038404635961,-0.45659498975838797,-0.3909316045558625
6305173,1889.0,1,186259.0,233168,0.43,-1.68,11.03,-0.05,-0.03,0.0,27.17,4.386685,-25.188090493269943,-172.4193762212116,11.16549148044993,0.05830951894845301,-0.6552554323106001,-0.3679668797342082
6345170,1892.0,1,186229.0,233288,0.43,-1.5,9.71,-0.02,-0.05,0.0,27.17,4.426682,-9.406999544581966,-121.5354735093568,9.834581841644312,0.05385164807134505,-0.2426757164404234,-0.2653541168054535
6385173,1916.0,1,186223.0,233149,0.29,-1.82,9.03,-0.06,-0.03,0.0,27.17,4.466685,-1.2959534274113145,-52.033974067395015,9.216148870325393,0.0670820393249937,-0.030621105430758803,-0.12519700413631313
6425170,1878.0,1,186239.0,232811,0.64,-0.75,8.84,-0.02,-0.12,0.0,27.17,4.506682,-16.2701726332649,7.5641475595181,8.894813095281991,0.1216552506059644,-0.4221060240220462,-0.005011098583185233
6465173,1883.0,1,186459.0,233219,1.16,-0.66,9.43,-0.03,-0.01,0.0,27.17,4.546685,-34.85534517648494,37.80405150470547,9.523975010467005,0.03162277660168379,-0.907995449044176,0.05597086091955746
6505170,1862.0,1,186307.0,233219,0.73,-0.77,9.1,-0.04,-0.02,-0.0,27.17,4.586682,-29.685184350683983,42.51830953909543,9.161648323309512,0.044721359549995794,-0.7728271332764107,0.06547766005026041
6545193,1894.0,1,186273.0,233135,1.09,-0.92,8.94,-0.03,-0.06,-0.01,27.17,4.626705,-19.004648697100905,47.55649383951219,9.05307130204993,0.06782329983125268,-0.4935959711454455,0.07563769070155701
6585190,1859.0,1,186251.0,233044,0.66,-1.01,9.7,-0.05,0.02,-0.0,27.17,4.666702,-35.72057847830443,79.74374735738623,9.77474807859517,0.05385164807134505,-0.9306160467574018,0.14054668624894168
6625173,1872.0,1,186432.0,233341,0.89,-1.04,9.15,-0.02,-0.06,-0.0,27.17,4.706685,-32.25508320882846,141.34146999957252,9.251821442289081,0.06324555320336758,-0.8400143856758712,0.2647649983982036
6665189,1896.0,1,186409.0,233239,0.37,-1.13,9.04,-0.04,0.08,0.0,27.17,4.746701,-4.106591734610975,203.28013785629943,9.117861591403983,0.08944271909999159,-0.10410223281090861,0.3896708625748614
6705164,1881.0,1,186557.0,233700,0.46,-1.11,9.88,-0.0,0.0,0.0,27.17,4.786676,-15.188786293326006,224.58979651302508,9.952793577684611,0.0,-0.39383433670153356,0.4326440394598537
6745160,1871.0,1,186281.0,233478,0.81,-0.58,10.68,-0.0,0.07,0.0,27.17,4.826672,-32.478373340386476,182.06016119914008,10.72636471503743,0.07,-0.8458520669448255,0.3468785389120086
6785173,1870.0,1,186349.0,233801,0.4,-1.17,9.42,-0.0,0.02,0.0,27.17,4.866685,-22.282707246944092,87.29170783230273,9.500805229031906,0.02,-0.5792973000014552,0.15576794557714518
6825160,1875.0,1,186140.0,233336,0.8,-1.16,10.37,-0.03,0.0,-0.0,27.17,4.906672,-27.991979488607885,-18.695390137692776,10.465299804592318,0.03,-0.7285601061629627,-0.05796622923818562
6865173,1849.0,1,186192.0,233423,0.32,-0.94,10.6,-0.01,0.0,0.0,27.17,4.946685,-43.90961489019737,-86.95913470708335,10.64640784490243,0.01,-1.1447096304681157,-0.1956272785054621
6905160,1872.0,1,186102.0,233366,0.21,-1.19,9.57,-0.02,-0.01,0.0,27.17,4.986672,-27.575508344953167,-86.04604651793957,9.645988803642684,0.022360679774997897,-0.7176719142961339,-0.19378593975406505
6945173,1890.0,1,186166.0,233297,0.3,-1.24,11.06,-0.01,0.03,-0.0,27.17,5.026685,-6.212385972222472,-20.723300443408345,11.133337325348586,0.03162277660168379,-0.1591559671224163,-0.0620557245078299
6985170,1888.0,1,186219.0,233377,0.32,-1.48,9.85,-0.02,-0.01,0.0,27.17,5.066682,-7.592905117034557,65.70593669419956,9.965706196752942,0.022360679774997897,-0.19524816115208593,0.11223795871722418
7025178,1903.0,1,186149.0,232899,0.17,-0.85,9.69,-0.03,0.03,-0.0,27.17,5.10669,3.3730624806854266,113.33423750158363,9.728694670920657,0.042426406871192854,0.09144531336242626,0.20828545662875717
7065170,1910.0,1,186523.0,233382,0.46,-1.48,8.85,-0.02,-0.02,0.0,27.17,5.146682,16.757242165611927,87.34036693777914,8.984681407818531,0.0282842712474619,0.44136035215899716,0.1558660718015201
7105860,1904.0,1,186131.0,233417,-0.01,-1.32,9.74,-0.07,0.1,-0.0,27.25,5.187372,2.644779308309008,13.550635192160655,9.829043697125373,0.12206555615733704,0.07240513006273652,0.007061285874093383
7144190,1899.0,1,186063.0,233419,0.87,-0.85,11.15,0.01,-0.04,-0.01,27.25,5.225702,5.454845959396889,-26.337487041562113,11.216144613903657,0.042426406871192854,0.14587131210628443,-0.0733773246157542
7184173,1925.0,1,186043.0,233062,0.28,-1.05,10.21,-0.04,-0.0,-0.01,27.25,5.265685,24.057162349942242,51.85464706829702,10.267667700115737,0.04123105625617661,0.6322089446497696,0.08430537055296916
7224190,1915.0,1,186481.0,233413,0.73,-1.41,9.98,-0.04,-0.09,-0.01,27.25,5.305702,19.141121384921636,268.6834359425482,10.105513346683582,0.09899494936611665,0.5036843203922193,0.5215635194586535
7264193,1925.0,1,186594.0,233425,0.43,-1.05,9.88,-0.06,-0.01,-0.02,27.25,5.345705,25.005599605139963,554.6138881723173,9.944938411071233,0.06403124237432849,0.6570048205839806,1.0981724693442794
7304193,1923.0,1,186989.0,233760,0.18,-0.62,10.08,-0.06,-0.03,-0.01,27.25,5.385705,25.649927736235792,783.9423592924902,10.100653444208449,0.06782329983125268,0.6738500892741519,1.5606375474088527
7344194,1907.0,1,186759.0,233618,0.63,-1.2,10.26,-0.06,0.03,-0.01,27.25,5.425706,5.445542307674073,842.4055853567799,10.34913039825086,0.06782329983125268,0.1456280780994065,1.678534816220105
7384173,1904.0,1,186704.0,233546,0.19,-1.19,10.74,-0.05,0.01,-0.01,27.25,5.465685,8.374824893270324,682.9011636171955,10.807395615965948,0.05196152422706632,0.222211033029353,1.3568773068357294
7424173,1920.0,1,186282.0,233061,0.68,-1.01,10.53,-0.06,-0.02,-0.01,27.25,5.505685,14.194803235569026,341.9915193587087,10.600160376145258,0.06403124237432849,0.3743681315876003,0.66939701066984
7464193,1919.0,1,185933.0,232850,0.46,-1.05,10.17,-0.05,0.01,-0.01,27.25,5.545705,25.93117916360121,-81.07180950386244,10.234402767137905,0.05196152422706632,0.6812031065254815,-0.1837548655582169
7504173,1947.0,1,185460.0,232534,-0.1,-2.0,10.07,-0.09,0.02,-0.01,27.25,5.585685,39.02578792917362,-466.0566081824103,10.267175853174036,0.09273618495495703,1.0235476238657197,-0.9601173647493925
7544189,1922.0,1,185106.0,231618,0.33,-1.28,10.22,-0.06,-0.08,-0.01,27.25,5.625701,26.825043623587508,-716.8567325269461,10.305129790546065,0.1004987562112089,0.7045722351951479,-1.4658822988504934
7584193,1921.0,1,185058.0,231819,-0.04,-1.97,10.28,-0.06,0.02,-0.01,27.25,5.665705,17.32747262088861,-794.2519241846035,10.467134278301772,0.06403124237432849,0.45626841649900624,-1.6219578754108286
7624193,1910.0,1,185007.0,231346,0.11,-1.34,9.75,-0.04,-0.05,-0.01,27.25,5.705705,6.6217138732474465,-722.3032634337281,9.842265999250376,0.06480740698407861,0.1763778235965128,-1.4768658035530828
7664193,1895.0,1,185335.0,231649,0.15,-1.98,9.82,-0.03,-0.01,-0.01,27.25,5.745705,-0.18210179126340936,-564.7462376093063,10.018747426699607,0.033166247903554,-0.0015006477223745225,-1.1591354236678453
7704193,1904.0,1,185335.0,231507,-0.11,-1.11,9.97,-0.04,0.05,-0.01,27.25,5.785705,-8.103421013906763,-386.6666597905837,10.032203147863385,0.06480740698407861,-0.20859505233746717,-0.8000191505973037
7744193,1877.0,1,185410.0,231505,0.45,-1.7,10.1,-0.01,-0.03,-0.01,27.25,5.825705,-12.860341804198509,-227.69733506754895,10.251951033827659,0.033166247903554,-0.33295965009923817,-0.47944072085062833
7784190,1935.0,1,185496.0,231519,-0.02,-1.66,9.45,-0.03,0.03,-0.01,27.25,5.865702,20.544338380316166,-101.28128696123517,9.594712085310324,0.04358898943540673,0.540369925408152,-0.22450941088054857
7824194,1929.0,1,185599.0,231402,0.25,-1.5,10.06,-0.01,-0.07,-0.01,27.25,5.905706,36.76022528787699,-9.66179685244413,10.174286215749978,0.07141428428542851,0.9643169158068475,-0.039749034471832735
7864193,1920.0,1,185669.0,231805,0.34,-1.69,10.05,0.0,0.01,-0.01,27.25,5.945705,10.339230156999953,47.08706147368901,10.196773999653027,0.01414213562373095,0.2735683040950034,0.07469103076593701
7904170,1886.0,1,185607.0,231646,-0.02,-1.25,8.72,0.02,-0.01,-0.02,27.25,5.985682,-13.463540641955575,75.8549297634544,8.80916000535806,0.03,-0.3487296374787052,0.1327044749292048
7944190,1889.0,1,185597.0,232096,0.35,-1.47,9.94,-0.0,-0.05,-0.02,27.25,6.025702,-14.417916625084388,96.2372886288156,10.054203101191064,0.05385164807134505,-0.37368077509225167,0.17380765386624109
7984193,1899.0,1,185577.0,231983,0.28,-0.98,10.01,-0.01,0.0,-0.02,27.25,6.065705,-5.8889200849172285,131.5287844027625,10.061754320196851,0.022360679774997897,-0.15069929804218474,0.24497668171695802
8024200,1894.0,1,185560.0,231939,0.69,-0.62,10.06,-0.01,-0.08,-0.02,27.25,6.105712,-7.779089547908827,187.0022856860394,10.102677862824292,0.08306623862918075,-0.20011575362964804,0.3568448548058648
8064193,1889.0,1,185587.0,232280,0.3,-1.21,9.59,-0.04,0.01,-0.02,27.25,6.145705,-15.735841881770058,235.93577722180413,9.670687669447297,0.045825756949558406,-0.40813651897646713,0.4555244076434232
8104170,1874.0,1,185625.0,232159,0.23,-0.99,10.62,-0.02,-0.01,-0.02,27.25,6.185682,-31.688781535044573,232.43669796566465,10.668523796664653,0.03,-0.8252090351189132,0.44846814483645275
8144880,1873.0,1,185553.0,232253,0.54,-0.89,10.11,-0.02,-0.07,-0.02,27.38,6.226392,-28.11140373422676,146.92196551630786,10.16345413725078,0.07549834435270751,-0.7316823251201725,0.2760186568828216
8183193,1907.0,1,185359.0,231241,0.2,-1.7,10.49,-0.05,0.02,-0.02,27.38,6.264705,-3.96178630434841,-4.540653651064928,10.628739341991599,0.057445626465380296,-0.10031644997317934,-0.029421708436660123
8223173,1891.0,1,184905.0,230649,0.57,-1.23,9.42,-0.02,-0.12,-0.02,27.38,6.304685,-8.103996672722227,-165.1484673808789,9.517047861600782,0.12328828005937952,-0.20861010232046864,-0.35330432428254427
8263193,1889.0,1,185010.0,230877,0.27,-1.05,10.85,-0.08,0.05,-0.02,27.38,6.344705,-24.184721768371247,-274.10116405687626,10.904031364591722,0.09643650760992956,-0.6290234319515792,-0.5730189420423565
8303173,1875.0,1,184989.0,231689,0.02,-0.93,10.16,-0.02,0.02,-0.02,27.38,6.384685,-26.424805819788254,-302.2759671431237,10.202494792941577,0.034641016151377546,-0.6875880295743931,-0.6298364075977235
8343170,1894.0,1,185001.0,231346,0.35,-0.75,10.27,-0.04,0.01,-0.02,27.38,6.424682,-17.809945489011984,-257.75201212422655,10.303295589276278,0.045825756949558406,-0.4623617357085415,-0.5400491507735683
8383173,1893.0,1,185084.0,232075,-0.06,-1.5,11.07,-0.04,0.05,-0.02,27.38,6.464685,-13.698223955914328,-165.12081521073083,11.17132489904398,0.0670820393249937,-0.35486518129550476,-0.3532485607614964
8423189,1886.0,1,185076.0,231613,0.99,-0.76,9.63,-0.01,-0.1,-0.02,27.38,6.504701,-23.343535313600636,-45.623069398405526,9.710540664659204,0.10246950765959599,-0.6070315132919916,-0.11226873790871886
8463193,1903.0,1,185243.0,232625,0.14,-1.64,10.34,-0.06,0.06,-0.01,27.38,6.544705,-8.964791492202101,85.06602184800946,10.470186244761837,0.08544003745317531,-0.23111466066806838,0.15127961476743057
8503173,1925.0,1,185392.0,232660,0.24,-1.48,9.22,-0.04,-0.04,-0.02,27.38,6.584685,16.57455831054332,209.87503921722634,9.341113423998234,0.060000000000000005,0.43658427848555187,0.4029701775609671
8543193,1924.0,1,185614.0,233209,0.11,-1.25,10.64,-0.05,0.05,-0.02,27.38,6.624705,9.080779684995182,310.8006709440546,10.71373884318635,0.07348469228349536,0.24066746473829306,0.6064973712289768
8583173,1919.0,1,185565.0,233175,0.28,-1.11,9.05,-0.04,-0.02,-0.01,27.38,6.664685,8.304879505135139,377.7553557066019,9.122115982599652,0.0458257569495584,0.22038238579215783,0.7415185631649509
8623193,1930.0,1,185607.0,232868,0.4,-1.1,9.76,-0.04,0.01,-0.03,27.38,6.704705,15.62409107299289,411.25752902831647,9.82993387566773,0.05099019513592785,0.4117353308375396,0.8090792333463722
8663170,1920.0,1,185491.0,233287,0.68,-0.75,9.77,-0.03,-0.01,-0.02,27.38,6.744682,3.8823703613443965,411.47235899061656,9.822311336951195,0.03741657386773942,0.10476062225811382,0.809512460650424
8703194,1919.0,1,185621.0,233322,0.73,-0.95,10.19,-0.06,0.01,-0.02,27.38,6.784706,7.268071560495331,366.88864500649083,10.260190056719221,0.06403124237432849,0.193276152857926,0.7196046935626085
8743173,1926.0,1,185576.0,233314,0.4,-1.37,9.46,-0.04,-0.03,-0.02,27.38,6.824685,4.789265434978255,260.99872370053225,9.567052837734305,0.05385164807134504,0.12847042236132078,0.5060664857517251
8783193,1911.0,1,185450.0,232472,0.37,-1.24,9.62,-0.09,-0.01,-0.03,27.38,6.864705,-0.6435168987653062,94.2672342880736,9.706642055829604,0.09539392014169455,-0.013563851373524307,0.16983483125929458
8823194,1927.0,1,184991.0,231933,0.29,-1.23,9.86,-0.06,-0.02,-0.03,27.38,6.904706,6.009384805594808,-102.88511227038481,9.940653902032802,0.06999999999999999,0.1603691361380466,-0.2277436939731575
8863193,1909.0,1,184981.0,231885,0.4,-1.11,10.38,-0.08,0.04,-0.03,27.38,6.944705,-8.104805758180934,-282.6919683631277,10.446841627975415,0.09433981132056604,-0.20863125499297736,-0.5903432060760453
8903170,1915.0,1,184961.0,231637,0.23,-1.13,9.17,-0.06,-0.04,-0.02,27.38,6.984682,-0.5367832796292588,-406.16152435374426,9.242223758381963,0.07483314773547883,-0.010773415249676533,-0.8393326035585625
8943193,1931.0,1,184924.0,231596,0.59,-1.39,9.91,-0.06,0.01,-0.03,27.38,7.024705,7.028011896558025,-457.757780408491,10.024385267935386,0.06782329983125268,0.18700005013085957,-0.9433819022245544
8983173,1905.0,1,184919.0,231065,0.27,-0.84,10.09,-0.05,0.0,-0.03,27.38,7.064685,-6.634406262659818,-440.96894742960893,10.128504331834982,0.05830951894845301,-0.1701892354868297,-0.9095254476977062
9023194,1936.0,1,184976.0,231373,0.38,-1.84,9.75,-0.05,-0.01,-0.02,27.38,7.104706,11.441112695332835,-368.51022477878377,9.929375609775269,0.05477225575051661,0.30237584256403965,-0.7634047821584788
9063193,1931.0,1,185139.0,231765,-0.12,-1.48,10.36,-0.06,0.06,-0.02,27.38,7.144705,16.122921303110992,-260.0702103260075,10.465868334734582,0.08717797887081347,0.4247767127850083,-0.5447240422387192
9103193,1918.0,1,185307.0,231800,-0.0,-1.58,10.28,-0.03,-0.01,-0.02,27.38,7.184705,1.0531043013879473,-144.28208212125912,10.400711514122483,0.03741657386773942,0.03079249223887621,-0.31122505501048453
9143206,1935.0,1,185429.0,231935,0.04,-1.77,10.54,-0.02,0.02,-0.02,27.38,7.224718,12.456301042644842,-53.61518478458813,10.687661109896776,0.034641016151377546,0.32891685428817047,-0.12838568251624297
9183860,1936.0,1,185436.0,231634,0.13,-1.42,9.56,-0.01,-0.03,-0.02,27.31,7.265372,28.58956216640968,-9.363010121450198,9.665759152803261,0.03741657386773942,0.7507036820901901,-0.0391464994782542
9222193,1938.0,1,185603.0,231705,0.16,-1.95,9.69,-0.02,-0.02,-0.02,27.31,7.303705,11.608075264883949,-7.272845904076188,9.8855551184544,0.034641016151377546,0.30674090007054117,-0.03493146262201878
9262194,1895.0,1,185542.0,231703,0.31,-1.19,10.55,-0.03,0.02,-0.02,27.31,7.343706,-8.768512749083277,-18.61295106156336,10.621426457872785,0.0412310562561766,-0.2259831632113572,-0.05779998213597656
9302173,1916.0,1,185534.0,231755,0.09,-1.43,9.57,-0.0,-0.03,-0.01,27.31,7.383685,-4.990408782075637,-11.676629574734223,9.676667814904054,0.03162277660168379,-0.1272086826444358,-0.04381215741356581
9342193,1890.0,1,185534.0,231845,0.24,-1.73,9.88,-0.01,-0.05,-0.02,27.31,7.423705,-17.544789929165272,19.973540396512387,10.033189921455689,0.05477225575051661,-0.455429527669271,0.020013752448447962
9382193,1904.0,1,185665.0,231856,0.16,-1.2,10.25,-0.0,-0.06,-0.02,27.31,7.463705,-5.226701254064093,48.479978800135875,10.321245079931005,0.06324555320336758,-0.1333862961739595,0.07749999564049542
9422193,1931.0,1,185866.0,231788,0.34,-1.84,9.6,0.01,-0.06,-0.01,27.31,7.503705,18.661804416708392,36.283364492820844,9.780654374836072,0.06164414002968976,0.49115309177182936,0.05290423498241213
9462170,1881.0,1,185642.0,231468,0.3,-1.35,9.69,-0.01,-0.03,-0.02,27.31,7.543682,-18.217096528627188,-23.523730165893706,9.788186757515408,0.03741657386773942,-0.47300626344029845,-0.06770308675595166
9502193,1872.0,1,185575.0,231685,0.36,-1.22,9.04,-0.01,-0.03,-0.02,27.31,7.583705,-39.07141205026836,-89.97813598937935,9.129052524769477,0.03741657386773942,-1.0182200005996465,-0.20171541338411153
9542190,1876.0,1,185544.0,232022,0.46,-1.32,10.01,-0.04,-0.0,-0.02,27.31,7.623702,-19.229777160096983,-100.76653358378526,10.10713114587913,0.044721359549995794,-0.4994817136203619,-0.22347135633928916
9582193,1898.0,1,185694.0,231804,0.51,-1.03,9.41,-0.02,-0.08,-0.03,27.31,7.663705,-5.5608188860892875,-20.400543616546358,9.479931434351201,0.08774964387392122,-0.14212144370820726,-0.06140485128479958
9622190,1895.0,1,185982.0,232099,0.44,-1.65,9.24,-0.04,-0.03,-0.03,27.31,7.703702,0.6513044169363325,133.35683097006532,9.396472742470975,0.05830951894845301,0.02028786472594122,0.24866313065338494
9662193,1895.0,1,186150.0,232515,0.44,-1.34,10.33,-0.03,-0.02,-0.03,27.31,7.743705,0.1371692135372075,305.39084657450644,10.425838095807933,0.04690415759823429,0.00684635064893743,0.595587889134764
9702193,1897.0,1,186207.0,232729,0.3,-1.37,10.65,-0.02,0.02,-0.02,27.31,7.783705,5.270170594244366,441.55075351971317,10.74194582000859,0.034641016151377546,0.1410431725352883,0.8701687193609549
9742173,1904.0,1,186243.0,232661,0.28,-1.55,9.96,-0.04,-0.02,-0.03,27.31,7.823685,15.12099730348118,514.4840967678834,10.083774095049929,0.053851648071345036,0.398582483220344,1.0172465074525199
9782193,1904.0,1,186302.0,232271,0.39,-1.21,9.35,-0.04,-0.02,-0.03,27.31,7.863705,18.127017979656884,523.2874111854737,9.436032005032624,0.053851648071345036,0.47717167331556737,1.0349993205658314
9822193,1891.0,1,186394.0,232639,0.48,-1.38,10.43,-0.06,0.01,-0.03,27.31,7.903705,5.5564520107390765,480.7600819686758,10.531842194032343,0.06782329983125268,0.14852769346355274,0.9492384705062759
9862173,1871.0,1,186289.0,232880,0.32,-1.08,10.19,-0.06,0.08,-0.03,27.31,7.943685,-7.9362182733642035,405.0030669843422,10.252068084050164,0.1044030650891055,-0.20422371581770019,0.7964664501917557
9902173,1891.0,1,186135.0,232532,0.39,-1.38,9.13,-0.05,-0.01,-0.02,27.31,7.983685,8.90804352491341,315.3267610324654,9.24193702640307,0.05477225575051661,0.23615146289287134,0.6156247098269276
9942194,1914.0,1,185996.0,232270,0.27,-1.74,9.39,-0.07,0.02,-0.02,27.31,8.023706,40.28726289912071,224.27199785467687,9.553669452100591,0.07549834435270751,1.0565275354808532,0.4320031649071916
9982173,1923.0,1,185987.0,231943,0.41,-1.23,9.96,-0.04,-0.04,-0.02,27.31,8.063685,45.66075185782691,128.6545378556726,10.044033054505546,0.060000000000000005,1.1970116474489714,0.23918046004729793
10022193,1898.0,1,185894.0,231912,0.34,-1.68,8.86,-0.03,0.03,-0.02,27.31,8.103705,27.078584011248832,13.05305721795114,9.024278364500953,0.0469041575982343,0.711200777001481,0.006057867347113225
10062173,1900.0,1,185798.0,231823,-0.17,-1.8,9.22,-0.05,0.09,-0.02,27.31,8.143685,27.809363650368912,-130.4149793418664,9.395600034058496,0.10488088481701516,0.7303062277496082,-0.283260577952419
10102193,1905.0,1,185526.0,231399,0.59,-1.35,9.71,-0.03,-0.02,-0.02,27.31,8.183705,35.88465340396759,-282.3959536317953,9.821135372246939,0.0412310562561766,0.9414260269410629,-0.5897462611124948
10142193,1897.0,1,185443.0,231439,0.04,-1.34,9.76,-0.04,0.09,-0.02,27.31,8.223705,28.201210063084194,-398.3060306079224,9.851639457471025,0.1004987562112089,0.7405506324075928,-0.8234911709154541
10182170,1909.0,1,185429.0,231738,0.37,-1.41,8.75,-0.02,-0.02,-0.01,27.31,8.263682,41.95770297850383,-435.8940338412674,8.870597499605086,0.030000000000000002,1.1001994017397156,-0.8992913485588624
10222879,1915.0,1,185527.0,232362,0.28,-1.55,9.56,-0.03,0.06,-0.01,27.25,8.304391,47.1902968176189,-389.50590568694787,9.688885384810783,0.06782329983125268,1.2369999617533196,-0.8057447897588647
10263173,1889.0,1,185482.0,232616,0.14,-1.12,10.23,0.0,0.0,-0.01,27.25,8.344685,23.532446875156413,-305.00422052050965,10.292079478900268,0.01,0.6184908207124749,-0.6353382186244563
10303164,1899.0,1,185559.0,232831,0.19,-1.7,11.14,-0.01,0.04,-0.02,27.25,8.384676,30.87354597062202,-260.11764279675884,11.270567865019048,0.045825756949558406,0.8104159917180841,-0.5448196948246439
10343173,1877.0,1,185521.0,233020,0.19,-1.99,11.32,-0.02,-0.0,-0.02,27.25,8.424685,11.13462580620954,-315.1510738314735,11.495155501340554,0.0282842712474619,0.29436307120092065,-0.6558004197878944
10383193,1797.0,1,185543.0,233127,0.34,-1.07,12.12,-0.03,-0.04,-0.02,27.25,8.464705,-71.60535998406563,-461.2416284235507,12.1718897464609,0.05385164807134504,-1.8687852142661427,-0.9504074496255374
10423193,1766.5,1,185304.0,233120,-0.33,-1.55,12.41,-0.08,0.02,-0.02,27.25,8.504705,-103.03394422913044,-606.5403504946099,12.51077535566841,0.08485281374238571,-2.690451878515917,-1.2434176655706097
10463194,1766.5,1,185062.0,232959,-0.56,-1.29,12.41,-0.07,0.0,-0.03,27.25,8.544706,-101.3549194842971,-625.4330305693212,12.489427528914206,0.07615773105863909,-2.646555575375992,-1.2815167499229485
10501193,1766.5,1,185323.0,232696,-0.07,-1.3,12.41,-0.08,-0.17,-0.03,27.25,8.582705,-111.1611100925542,-447.9788159516714,12.478100817031413,0.1902629759044045,-2.902927923021569,-0.9236615877828996
10541210,1766.5,1,185670.0,232857,0.5,-1.37,10.15,-0.12,-0.195,-0.03,27.25,8.622722,-99.3117809139487,-122.27140782959061,10.254238148199992,0.2309220647751098,-2.59313990635928,-0.2668382060735452
10581193,1766.5,1,186191.0,233495,0.62,-1.23,7.6,-0.13,-0.19,-0.04,27.25,8.662705,-121.34616844334961,207.19924075413218,7.723813824788891,0.23366642891095846,-3.16920536189798,0.39757414740790575
10621193,1766.5,1,186590.0,234679,1.02,-0.58,7.83,-0.11,-0.07,-0.04,27.25,8.702705,-100.70136483735052,393.31980210680484,7.917430138624527,0.13638181696985857,-2.6294690893136785,0.7729059128662003
10701173,1895.0,1,185811.0,232982,0.85,-0.78,7.290000000000002,-0.06,-0.1,-0.04,27.25,8.782685,1.3165496651397608,377.5220727312272,7.3807181222425795,0.12328828005937953,0.03767998903345461,0.7410481234114792
10741190,1904.0,1,185897.0,233414,0.38,-1.98,7.55,-0.08,-0.03,-0.04,27.25,8.822702,27.023592959227937,213.33055869802968,7.8145569292187,0.09433981132056604,0.7097630948607498,0.40993859748125666
10781194,1917.0,1,185942.0,234466,0.63,-0.56,7.290000000000002,-0.01,-0.09,-0.04,27.25,8.862706,23.683234640459382,24.87648505276154,7.33856934286241,0.09899494936611665,0.6224330052906945,0.029901058076585007
10821193,1951.0,1,186402.0,234219,0.67,-1.95,10.79,-0.02,-0.01,-0.04,27.25,8.902705,59.364164147045855,-54.61271993830125,10.985240097512662,0.045825756949558406,1.555272680676708,-0.13039731748891212
10861194,1962.5,1,185520.0,232749,-0.35,-2.27,7.39,0.065,-0.03,-0.01,27.25,8.942706,68.75230632827841,60.41721284697313,7.738701441456441,0.07228416147400481,1.8007156000715665,0.10157268861394132
10901193,1962.5,1,185904.0,232992,0.04,-0.79,7.290000000000002,0.065,-0.195,-0.01,27.25,8.982705,60.705983114197885,357.3985508859628,7.33278937376494,0.20579115627256678,1.5903531000226738,0.7004669166574884
10941173,1962.5,1,186769.0,234102,-0.4,-2.3899999999999997,10.09,-0.01,0.165,0.04,27.25,9.022685,60.04647396946942,706.5705487996795,10.37690705364561,0.1700735135169495,1.573110939995171,1.4046091214363765
10981177,1962.5,1,186872.0,234514,1.19,-0.19,7.4,0.065,-0.195,0.04,27.25,9.062689,59.66446402394529,915.4109603264571,7.497479576497692,0.20940391591371924,1.5631236992336552,1.8257578638843135
11021168,1955.0,1,186863.0,234860,-0.61,-1.79,9.09,0.05,0.165,0.04,27.25,9.10268,36.469818043780315,845.9054910615266,9.28462707921002,0.17698870020427857,0.956724529536112,1.6855927456479614
11061161,1899.0,1,186427.0,234573,0.38,-0.94,8.54,0.065,-0.06,-0.01,27.25,9.142673,-0.44166078697173716,509.55258062317796,8.599976744154603,0.08902246907382427,-0.008286539588094588,1.0073015844008906
11101173,1881.0,1,185725.0,233891,-0.07,-1.06,12.28,0.06,0.09,-0.0,27.25,9.182685,-52.35963343334765,58.37746036494016,12.32586305294684,0.10816653826391967,-1.3656263123988106,0.09745931234527268
11141170,1813.0,1,185497.0,233582,-0.06,-0.37,8.77,0.065,-0.12,-0.04,27.25,9.222682,-87.3907805765116,-319.72897538208645,8.778006607425173,0.1422146265332789,-2.281478124033833,-0.6650322416704322
11181218,1892.0,1,185477.0,233269,0.96,-0.69,12.41,0.04,-0.06,-0.02,27.25,9.26273,-46.97059939119894,-510.1918297572552,12.4661862652537,0.07483314773547883,-1.224735790878226,-1.0491206995351203
11221173,1899.0,1,185610.0,233168,0.37,-1.12,12.41,-0.02,-0.07,-0.02,27.25,9.302685,-10.307336136108136,-502.9019148598525,12.465929568227153,0.07549834435270751,-0.26621405205531784,-1.034419816362421
11261880,1941.0,1,185660.0,233262,0.56,-0.41,12.41,-0.04,-0.13,-0.03,27.17,9.343392,5.424123720847,-347.60630766342894,12.429392583710598,0.1392838827718412,0.14506811209349552,-0.721249825936135
11302193,1962.5,1,185805.0,233437,0.71,-0.83,12.41,-0.08,-0.04,-0.03,27.17,9.383705,41.12823146787836,-103.8704763981758,12.457973350429034,0.09433981132056604,1.0785137577440629,-0.22973078478684933
11342193,1962.5,1,185987.0,233681,0.35,-0.86,11.5,-0.135,-0.09,-0.03,27.17,9.423705,32.88393798508959,160.99839471832175,11.537421722378012,0.165,0.8629755371141303,0.3044052627760275
11382193,1918.0,1,186260.0,234040,0.59,-0.86,11.02,-0.09,-0.14,-0.02,27.17,9.463705,-11.577153198432475,346.8791013388954,11.069241166403414,0.1676305461424021,-0.2994120587384005,0.6792533358394679
11422193,1905.0,1,186359.0,233802,0.92,-0.67,9.8,-0.135,-0.07,-0.02,27.17,9.503705,-20.991652679371256,332.9890317820761,9.865865395392339,0.1533786165017797,-0.5455440614963327,0.6512425438495337
11462193,1943.0,1,186302.0,233854,0.34,-1.2,8.16,-0.1,-0.08,-0.02,27.17,9.543705,11.903039048688504,53.37411575781644,8.254768318977826,0.12961481396815722,0.31445241219031594,0.08736953961441572
11502193,1962.5,1,185720.0,231868,1.3,-0.51,8.66,-0.1,-0.15,-0.02,27.17,9.583705,37.56824831417879,-419.158799576881,8.771869812075417,0.18138357147217055,0.9854418121585711,-0.8655429814995768
11542193,1962.5,1,184960.0,230880,1.09,-0.92,8.49,-0.09,-0.06,-0.02,27.17,9.623705,35.348869945619406,-869.9267676256943,8.608983679854434,0.10999999999999999,0.9274185424311525,-1.7745641881314558
11582193,1962.5,1,184909.0,231129,1.28,-1.09,8.01,-0.07,-0.07,-0.02,27.17,9.663705,38.14978549269043,-1051.0828778968776,8.184534195664405,0.10099504938362078,1.0006454786641636,-2.1398846137603154
11622193,1962.5,1,185410.0,232275,0.69,-2.18,8.95,-0.08,0.15,0.01,27.17,9.703705,42.62316334766262,-833.7732127262478,9.237478010799267,0.170293863659264,1.1175971501541382,-1.701656727024619
11662165,1962.5,1,185668.0,232832,1.25,-1.15,7.98,-0.03,-0.07,-0.01,27.17,9.743677,39.93803796886414,-292.48172399865143,8.158762161014378,0.07681145747868609,1.0473974238194654,-0.6100852820690568
11702193,1946.0,1,186592.0,233635,0.41,-1.99,8.26,-0.08,0.12,-0.01,27.17,9.783705,35.18106761904956,337.2509184464733,8.50622125270675,0.1445683229480096,0.9230315303770652,0.6598370883442728
11742173,1933.0,1,187058.0,234236,0.79,-1.05,7.8,-0.02,-0.05,-0.01,27.17,9.823685,14.597087455861443,792.1331072636988,7.909905182743975,0.05477225575051661,0.38488542154220257,1.5771550555987857
11782190,1904.0,1,186931.0,234298,-0.05,-1.57,8.73,-0.07,0.165,-0.01,27.17,9.863702,2.2912593746094236,913.2858390657962,8.870191655201143,0.17951323071016242,0.06316273013775893,1.821472332458984
11822193,1923.0,1,186773.0,234333,0.29,-0.96,8.54,0.0,0.04,-0.01,27.17,9.903705,12.538649924086494,701.8574020312396,8.598680131275962,0.04123105625617661,0.3310697775694502,1.3951045632908066
11862160,1907.0,1,186473.0,233841,0.48,-1.07,9.87,-0.0,0.12,-0.01,27.17,9.943672,12.63840490173473,287.2122604366262,9.939426542814227,0.12041594578792295,0.33367776458812765,0.5589288506111394
11900173,1900.0,1,186156.0,233755,0.33,-1.93,9.09,0.0,0.13,-0.01,27.17,9.981685,1.767295801639146,-149.8030784382281,9.298489124583627,0.130384048104053,0.049464263867885966,-0.32235872707592694
11940164,1886.0,1,185790.0,233431,-0.02,-2.18,9.81,-0.03,0.1,-0.03,27.17,10.021676,-2.9167939528771494,-451.5308746925217,10.049323360306404,0.10862780491200216,-0.07299624449065753,-0.9308246893151838
11980193,1878.0,1,185669.0,233316,0.05,-1.91,9.93,-0.01,0.05,-0.02,27.17,10.061705,-5.578350504069013,-535.3410760122199,10.11214616191835,0.05477225575051661,-0.14257978907788657,-1.09983681025507
12020173,1879.0,1,185617.0,233117,-0.55,-2.08,10.1,-0.04,0.07,-0.01,27.17,10.101685,-4.273917981133618,-417.05715687395485,10.326611254424172,0.08124038404635961,-0.10847679826220745,-0.8613047970651492
12060193,1879.0,1,186159.0,233203,0.01,-1.51,10.84,0.0,-0.07,-0.02,27.17,10.141705,8.88139362039593,-196.72277192679363,10.944669935635336,0.07280109889280519,0.23545472969048753,-0.41697724350333004
12100173,1886.0,1,186312.0,233320,0.24,-1.63,11.31,-0.03,0.07,-0.02,27.17,10.181685,11.360868477183939,-2.9487477419293397,11.429374436074793,0.07874007874011811,0.3002779434497298,-0.026211462072814346
12140173,1870.0,1,186298.0,233302,0.34,-0.93,12.07,-0.03,-0.01,-0.03,27.17,10.221685,9.122194192941588,80.22823865672689,12.110549120498211,0.04358898943540673,0.24175020267935105,0.14152371411415504
12180193,1872.0,1,186327.0,233471,0.03,-1.97,11.72,-0.05,0.07,-0.03,27.17,10.261705,9.630955653483312,57.79925480398881,11.884452027754582,0.091104335791443,0.25505122600647734,0.09629329977571859
12260193,1826.0,1,186254.0,233551,0.52,-2.11,11.1,-0.07,-0.11,-0.04,27.17,10.341705,-29.32220956511981,8.011564029274444,11.310724998867226,0.13638181696985857,-0.7633375463788359,-0.0041088360267631996
12300880,1799.0,1,186251.0,233784,-0.05,-1.19,10.41,-0.12,0.04,-0.04,27.25,10.382392,-50.99709880690057,18.145580394656495,10.477914868904023,0.132664991614216,-1.330004304334181,0.016327478080385687
12341193,1825.0,1,186370.0,233864,0.08,-1.53,8.42,-0.11,-0.04,-0.04,27.25,10.422705,-24.429288137840913,118.27751738993331,8.558253326467966,0.12369316876852982,-0.6354173576665555,0.21825410251164323
12381193,1828.0,1,186519.0,234104,0.08,-1.28,8.82,-0.13,-0.01,-0.04,27.25,10.462705,-14.151838880953536,259.2603558836387,8.912754905190651,0.13638181696985857,-0.36672445753284927,0.5025608834851694
12420193,1840.0,1,186701.0,234465,-0.09,-1.24,10.31,-0.1,0.09,-0.04,27.25,10.501705,-1.1892189696263686,348.9531767166269,10.384690654997867,0.14035668847618202,-0.027830647381334058,0.6834359278516554
12460193,1840.0,1,186416.0,234472,0.79,-1.47,8.35,-0.06,-0.11,-0.04,27.25,10.541705,1.4018722083094053,320.3169716914266,8.515133586738378,0.13152946437965904,0.03991065551479692,0.6256879965644292
12500193,1821.0,1,186629.0,234165,0.27,-1.97,8.66,-0.09,0.03,-0.04,27.25,10.581705,-13.156363161478804,183.6075938511131,8.885347488984323,0.10295630140987,-0.3406988113445108,0.34999910025661096
12540173,1825.0,1,186145.0,234536,0.41,-1.45,8.0,-0.04,-0.08,-0.04,27.25,10.621685,-9.987788159783923,25.288434376805025,8.140675647635153,0.09797958971132713,-0.25785981256025337,0.030731797388506663
12580190,1827.0,1,186275.0,234089,0.23,-1.87,10.22,-0.07,0.04,-0.04,27.25,10.661702,-5.385350857607797,-49.16753524217292,10.392218242512039,0.09000000000000001,-0.1375340200902468,-0.11941652756225964
12620211,1861.0,1,186071.0,233779,0.16,-1.03,9.11,-0.02,-0.1,-0.04,27.25,10.701723,31.047408438133232,7.624009149697166,9.169438368842444,0.10954451150103323,0.8149614396645853,-0.0048903813654755995
12660193,1870.0,1,186249.0,234048,0.08,-2.3899999999999997,10.92,-0.06,0.06,-0.03,27.25,10.741705,35.42462070160851,143.96573269779347,11.178770057568945,0.09,0.9293989647913401,0.2700571012394541
12700172,1783.0,1,186664.0,234251,0.28,-1.04,9.76,0.01,-0.06,-0.03,27.25,10.781684,-43.91770973418712,240.90674186396419,9.819246406929606,0.06782329983125268,-1.144921261491862,0.46554888275575285
12740173,1773.0,1,186374.0,234038,-0.3,-2.3,11.27,-0.05,0.16,-0.02,27.25,10.821685,-64.02486066877637,199.1108693057564,11.506211366040517,0.16881943016134132,-1.670601180993327,0.3812630922867637
12780193,1794.0,1,186185.0,233617,-0.32,-2.13,9.34,0.04,0.01,-0.03,27.25,10.861705,-34.10129183838945,14.232567205799885,9.585139539933678,0.05099019513592785,-0.8882815323704836,0.008436473788537456
12820213,1791.0,1,185776.0,233180,-0.64,-1.78,11.59,0.0,0.07,-0.02,27.25,10.901725,-48.3122686640342,-219.9567178672907,11.7433427949626,0.07280109889280519,-1.259812296626654,-0.4638309488920932
12860173,1766.5,1,185735.0,233235,0.03,-1.92,10.08,0.03,-0.06,-0.02,27.25,10.941685,-65.67325988723424,-380.5134084867499,10.26127185099391,0.06999999999999999,-1.7136968125566512,-0.7876104695875774
12900173,1766.5,1,185685.0,233004,0.15,-1.53,11.06,-0.0,-0.04,-0.03,27.25,10.981685,-76.0093331029272,-397.165970051614,11.16633332835806,0.05,-1.9839223732868798,-0.8211921184184128
12940193,1766.5,1,185887.0,233122,-0.09,-2.11,9.82,0.02,-0.04,-0.03,27.25,11.021705,-71.90837141097906,-285.22698295087326,10.04453085016916,0.053851648071345036,-1.8767071233932018,-0.5954553306783248
12980193,1790.0,1,185972.0,233533,0.15,-1.73,10.72,0.0,-0.04,-0.03,27.25,11.061705,-55.72877905370405,-116.62800955461861,10.859732961726086,0.05,-1.453709015127766,-0.25545769753469577
13020173,1789.0,1,185993.0,233796,-0.1,-2.0,10.72,-0.01,-0.02,-0.03,27.25,11.101685,-58.318006401764,34.75298394903869,10.905429840221798,0.03741657386773942,-1.5214015901885973,0.049818061014602254
13060206,1809.0,1,186137.0,234206,0.17,-1.98,9.79,-0.02,-0.06,-0.03,27.25,11.141718,-39.482340613619144,129.2344031162688,9.989664659036357,0.06999999999999999,-1.0289632876424413,0.2403498195764426
13100194,1861.0,1,186118.0,233871,-0.08,-1.91,8.55,-0.04,-0.06,-0.03,27.25,11.181706,3.864443815026858,163.25191964325347,8.761107235960532,0.07810249675906654,0.10429195191014663,0.3089497337492059
13140206,1894.0,1,186157.0,234027,0.04,-1.66,8.61,-0.03,-0.06,-0.03,27.25,11.221718,40.905539741211065,151.43470548614016,8.768654400761841,0.07348469228349534,1.0726917211298788,0.2851190735569466
13180193,1921.0,1,186079.0,233852,-0.19,-1.24,9.71,-0.04,-0.0,-0.03,27.25,11.261705,56.7874855616662,109.85199093052684,9.79069966856302,0.05,1.4879081795721067,0.20126313870871146
13220206,1911.0,1,185931.0,233770,0.2,-1.51,8.86,0.0,-0.07,-0.03,27.25,11.301718,49.50218837772507,49.62399624986222,8.989977753031427,0.07615773105863909,1.29744188976024,0.07980702763094412
13260173,1926.0,1,185844.0,233796,0.07,-1.56,9.29,-0.0,-0.02,-0.02,27.25,11.341685,58.21462724965352,-21.36833783517881,9.420329081300716,0.0282842712474619,1.5252192700442926,-0.06335651052137019
13300193,1925.0,1,185827.0,233739,0.33,-1.35,9.35,0.01,-0.08,-0.03,27.25,11.381705,53.818269655011036,-93.72038850109273,9.452719185504243,0.08602325267042626,1.4102812107454146,-0.20926206073894418
13340859,1919.0,1,185755.0,233670,0.74,-1.58,9.3,0.01,-0.01,-0.02,27.15,11.422371,47.61384053069077,-153.20273097194783,9.462240749420827,0.024494897427831782,1.2480730583704023,-0.32921448539812515
13379173,1962.5,1,185585.0,233504,0.35,-1.43,8.7,-0.01,-0.03,-0.03,27.15,11.460685,84.95190293163,-183.40828678151522,8.82368403786083,0.04358898943540673,2.224236697919238,-0.39012717825838217
13419194,1962.5,1,185646.0,233389,0.94,-1.28,9.6,-0.02,-0.09,-0.03,27.15,11.500706,85.05336017440028,-174.91216818584505,9.73046761466272,0.09695359714832658,2.226889188835819,-0.3729938579584639
13460193,1943.0,1,185645.0,233364,0.58,-1.25,10.08,-0.03,-0.01,-0.03,27.15,11.541705,62.806514364139844,-133.38680527381686,10.173755452142537,0.04358898943540673,1.6452692391600339,-0.2892535787555927
13500193,1947.0,1,185775.0,233520,0.72,-1.37,10.39,-0.02,-0.08,-0.03,27.15,11.581705,63.79489038213488,-77.12371541158052,10.50463707131284,0.08774964387392122,1.671109271259411,-0.1757931169202266
13540193,1923.0,1,185751.0,233451,0.35,-1.35,10.31,-0.05,-0.01,-0.03,27.15,11.621705,40.266436679054934,-24.43169446431792,10.40389830784596,0.05916079783099616,1.0559830562692876,-0.06953409264065302
13580193,1902.0,1,185764.0,233197,0.02,-1.19,9.43,-0.04,-0.02,-0.02,27.15,11.661705,16.79484999983508,17.253267223371267,9.504809308976167,0.048989794855663564,0.44234356869381924,0.01452803434624844
13620193,1888.0,1,185787.0,233332,0.45,-1.25,10.21,-0.05,-0.01,-0.03,27.15,11.701705,1.669939572004214,50.28286573727529,10.296072066569854,0.05916079783099616,0.04691898954613121,0.08113570752595453
13660193,1879.0,1,185793.0,232841,0.25,-0.9,9.48,-0.05,-0.01,-0.03,27.15,11.741705,-5.493062000225199,76.62189449481967,9.52590678098416,0.05916079783099616,-0.14035001251825024,0.13425114029801438
13700193,1902.0,1,185855.0,233159,0.46,-1.13,9.79,-0.03,-0.01,-0.03,27.15,11.781705,13.793847308252971,90.94862584389618,9.865728559006678,0.04358898943540673,0.36388556842980574,0.16314250690154822
13740193,1899.0,1,185828.0,233033,0.64,-0.74,10.81,-0.04,0.02,-0.03,27.15,11.821705,14.942287592741184,84.85152012208108,10.854183525258822,0.053851648071345036,0.393910309292693,0.15084704938668259
13780173,1879.0,1,185794.0,233158,0.77,-1.64,10.34,-0.02,-0.02,-0.02,27.15,11.861685,-7.591825032334169,57.21612061781413,10.497528280504891,0.034641016151377546,-0.195219923494737,0.09511734811296113
13820193,1858.0,1,185719.0,232855,0.81,-1.07,9.58,-0.03,-0.02,-0.03,27.15,11.901705,-26.019612616066798,19.224540620525506,9.673541233695135,0.04690415759823429,-0.6769946873645618,0.018503315309177072
13860193,1860.0,1,185695.0,232956,0.45,-1.72,9.61,-0.05,0.07,-0.02,27.15,11.941705,-23.267692205317235,-11.53570630488918,9.773075258075115,0.08831760866327848,-0.6050486764800107,-0.043527970759062486
13900173,1873.0,1,185698.0,232944,0.67,-1.25,9.01,-0.03,-0.04,-0.03,27.15,11.981685,-9.118397072827474,-21.943342969865945,9.120937451819302,0.05830951894845301,-0.23513051400904153,-0.0645160690934119
13940193,1863.0,1,185749.0,233480,0.42,-1.2,10.76,-0.07,0.1,-0.02,27.15,12.021705,-17.573083615969317,-9.043277284995463,10.834851175719951,0.12369316876852983,-0.45616923579848007,-0.03850172445119984
13980173,1859.0,1,185753.0,233377,0.24,-1.42,8.84,-0.03,-0.04,-0.02,27.15,12.061685,-18.644868535793602,22.94188792808891,8.956539510324285,0.05385164807134504,-0.48418990427652386,0.025999738689964254
14020193,1873.0,1,185815.0,233460,0.36,-1.83,10.75,-0.07,0.01,-0.02,27.15,12.101705,-5.183335253136675,68.64581661863963,10.910591184715885,0.07348469228349536,-0.132252538539634,0.11816653702289906
14060173,1856.0,1,185838.0,233374,0.13,-1.6,9.46,-0.05,-0.03,-0.02,27.15,12.141685,-16.6105944170676,123.37475930586437,9.59523319153839,0.061644140029689765,-0.4310059868505992,0.2285332290808419
14100193,1841.0,1,185946.0,233776,-0.12,-1.83,10.17,-0.05,0.05,-0.02,27.15,12.181705,-33.25536720890722,179.87427983709418,10.33403115923307,0.07348469228349536,-0.8661657392092775,0.3424704783262441
14140193,1842.0,1,186014.0,233913,0.05,-1.22,10.02,-0.03,0.01,-0.02,27.15,12.221705,-26.893038402526177,225.3881923819339,10.094122051966679,0.03741657386773942,-0.699829468811725,0.4342540890365059
14180173,1856.0,1,186016.0,233788,0.17,-1.08,10.1,-0.01,0.03,-0.02,27.15,12.261685,-12.593263965305097,243.77408507841068,10.159000935131367,0.03741657386773942,-0.3259771861337145,0.4713311831261768
14220173,1854.0,1,185986.0,233901,0.24,-1.76,10.56,-0.02,0.03,-0.02,27.15,12.301685,-11.936981699356283,222.19515533282052,10.708351880658386,0.0412310562561766,-0.3088193893948073,0.4278149926566784
14260188,1852.0,1,186035.0,233433,0.55,-1.02,10.05,0.0,-0.05,-0.02,27.15,12.3417,-11.33335102970686,157.9854069256984,10.11659033469281,0.05385164807134505,-0.29303811223315523,0.29832925473430033
14300173,1857.0,1,185858.0,233714,0.23,-2.28,9.92,-0.03,0.07,-0.02,27.15,12.381685,-4.632236171142364,61.16284317619055,10.181242556780582,0.07874007874011811,-0.11784464345780309,0.10307633090800324
14340173,1850.0,1,185755.0,233105,0.34,-1.24,9.66,-0.01,-0.05,-0.02,27.15,12.421685,-10.814322781576095,-49.08830102972905,9.7451936871465,0.05477225575051661,-0.27946867474377873,-0.11925674340609163
14380879,1829.0,1,185747.0,233532,0.09,-1.73,11.07,-0.04,0.05,-0.02,27.03,12.462391,-26.063882706017562,-151.3901076579481,11.204726681182366,0.0670820393249937,-0.6781520814378119,-0.3255591390806098
14419170,1825.0,1,185642.0,232762,0.41,-1.17,9.51,-0.04,-0.03,-0.02,27.03,12.500682,-35.85547302948117,-227.87255693867166,9.59046922731104,0.05385164807134504,-0.9341427202793968,-0.4797940742563855
14459230,1818.0,1,185665.0,233053,0.3,-2.04,10.56,-0.05,-0.0,-0.02,27.03,12.540742,-30.391851851964905,-266.73359913839107,10.759423776392488,0.05385164807134505,-0.7913021980131366,-0.5581614694026528
14499190,1840.0,1,185597.0,232778,0.49,-0.89,8.67,-0.02,-0.08,-0.02,27.03,12.580702,-20.31756524296603,-264.0447196651441,8.729324143368718,0.08485281374238571,-0.527920767651312,-0.5527390600113227
14539193,1840.0,1,185774.0,233169,-0.2,-1.93,10.22,-0.06,0.08,-0.02,27.03,12.620705,-5.525114592877618,-226.6590359967143,10.402562184385152,0.1019803902718557,-0.14118799321378242,-0.47734688113459806
14579193,1864.0,1,185692.0,233366,0.64,-1.36,8.34,0.0,-0.13,-0.01,27.03,12.660705,7.990982249006125,-173.44689385383364,8.47436133286751,0.130384048104053,0.21217587832272944,-0.37003897754161164
14619173,1841.0,1,185890.0,233863,0.08,-1.19,9.34,-0.06,0.04,-0.02,27.03,12.700685,-7.245837144836978,-129.9846677049822,9.41584303182673,0.07483314773547883,-0.1861744408483055,-0.2823928090976768
14659170,1831.0,1,185888.0,234222,0.75,-1.01,8.67,0.02,-0.1,-0.01,27.03,12.740682,-17.49549139322642,-116.13485251465897,8.760793343071162,0.10246950765959599,-0.45414067026285965,-0.2544631942884612
14699172,1846.0,1,185871.0,234408,0.54,-0.89,10.4,-0.03,0.01,-0.02,27.03,12.780684,-7.7070138091068605,-133.4401776706162,10.451971105968482,0.03741657386773942,-0.1982314106566091,-0.28936120982962266
14739173,1836.0,1,185837.0,234232,0.55,-1.12,9.66,0.03,-0.03,-0.01,27.03,12.820685,-6.273663201393492,-162.14031316464303,9.740251536793082,0.04358898943540673,-0.16075799463007687,-0.3472380636580063
14779172,1847.0,1,185870.0,234312,0.77,-1.55,8.71,-0.0,-0.13,-0.02,27.03,12.860684,-9.91569835139432,-171.36032681118004,8.880287157519177,0.13152946437965907,-0.25597510175291904,-0.3658311947680453
14819193,1841.0,1,185858.0,234315,0.66,-0.93,11.01,-0.01,0.01,-0.02,27.03,12.900705,-0.32343916497396286,-135.85145935828461,11.068902384608874,0.024494897427831782,-0.005195761937034392,-0.2942238139732612
14859172,1883.0,1,186110.0,234563,1.11,-0.7,8.6,0.02,-0.17,-0.02,27.03,12.940684,27.253900973426333,-48.81824288480858,8.699545965163928,0.17233687939614087,0.7157842511527677,-0.11871214263993916
14899170,1872.0,1,186108.0,234788,0.96,-1.36,9.91,-0.07,0.05,-0.02,27.03,12.980682,26.831391318349127,74.1865636633492,10.048845704855857,0.08831760866327848,0.7047381888741232,0.129340038516418
14939172,1856.0,1,186267.0,235038,1.29,-0.51,10.04,-0.01,-0.18,-0.02,27.03,13.020684,3.363749417022116,198.45536670380883,10.135373698093227,0.18138357147217055,0.09120183329044752,0.37994120207182236
14979193,1859.0,1,186319.0,235286,0.71,-1.38,10.07,-0.07,0.03,-0.02,27.03,13.060705,9.088520680100059,278.54705003072615,10.188886102023126,0.07874007874011811,0.24086984476203838,0.5414545388205612
15019173,1870.0,1,186381.0,235006,0.73,-0.78,9.29,-0.05,-0.14,-0.02,27.03,13.100685,18.689053814253075,273.90188159193167,9.351224518746195,0.15000000000000002,0.4918654980771459,0.5320870661549257
15059193,1877.0,1,186289.0,234520,0.38,-1.47,9.7,-0.07,0.01,-0.02,27.03,13.140705,24.45466854884519,171.0622114824238,9.818110816241585,0.07348469228349536,0.6426013183540507,0.32470001197443443
15099173,1894.0,1,186062.0,234423,0.18,-1.28,9.72,-0.07,-0.01,-0.01,27.03,13.180685,40.921784234256044,1.727518052257872,9.805569845756034,0.07141428428542851,1.0731164159970932,-0.016781278306289206
15139193,1887.0,1,185940.0,234144,0.74,-0.84,9.86,-0.05,-0.08,-0.02,27.03,13.220705,34.11358601431037,-159.93821247498863,9.923346209822572,0.09643650760992956,0.8951233674615888,-0.3427972950854316
15179193,1863.0,1,185882.0,234391,0.22,-1.1,10.29,-0.06,0.02,-0.01,27.03,13.260705,6.0872319484758135,-228.54280244743015,10.350966138481953,0.06403124237432849,0.16240436628757063,-0.48114569509969535
15219173,1844.0,1,185880.0,234262,0.96,-1.23,9.68,-0.02,-0.12,-0.01,27.03,13.300685,-8.270960716127258,-155.5890030064598,9.804942631142724,0.12206555615733702,-0.2129751983593018,-0.33402665493526734
15259194,1855.0,1,186031.0,234640,0.25,-1.22,10.02,-0.04,0.03,-0.01,27.03,13.340706,-5.967500307209024,33.78502993790211,10.097093641241523,0.05099019513592785,-0.15275369376752335,0.047866079539573704
15299173,1859.0,1,186279.0,235404,0.4,-1.36,10.13,-0.01,-0.04,-0.01,27.03,13.380685,6.544096201399424,244.2817466061329,10.228709596034097,0.042426406871192854,0.17434859272130362,0.47235493620359303
15339193,1874.0,1,186467.0,235347,1.0,-0.54,9.87,-0.02,-0.04,-0.01,27.03,13.420705,10.614722010455063,361.1419163776183,9.935215146135487,0.0458257569495584,0.28077074345693526,0.7080158084539001
15379190,1855.0,1,186431.0,235339,0.19,-1.04,9.75,-0.02,0.07,-0.01,27.03,13.460702,0.309411603501931,320.09823397122454,9.807150452603446,0.07348469228349536,0.011349443403646759,0.6252468888539264
15419859,1867.0,1,186041.0,234210,1.45,-0.51,9.58,0.01,-0.12,-0.02,26.97,13.501371,3.4256740330212985,148.0421897735039,9.70252544443971,0.12206555615733702,0.09282078603315613,0.2782777073880793
15458173,1865.0,1,185883.0,234006,0.88,-0.97,10.66,-0.03,0.08,-0.01,26.97,13.539685,6.604785643796067,-56.26831000820237,10.740153630186116,0.08602325267042626,0.17593525317347017,-0.13373598968770134
15498173,1856.0,1,185754.0,233836,1.01,-1.2,9.08,-0.01,-0.03,-0.01,26.97,13.579685,-6.947529800116553,-186.27423266317427,9.214472312617799,0.033166247903554,-0.17837551491049053,-0.39590666075968817
15538190,1851.0,1,185787.0,233790,1.08,-0.96,9.32,-0.04,0.02,-0.01,26.97,13.619702,-10.562315398789574,-188.52941469071692,9.43135197095305,0.0458257569495584,-0.2728802117075212,-0.4004544734552641
15578173,1865.0,1,185818.0,233981,0.87,-0.92,9.42,-0.04,0.06,-0.01,26.97,13.659685,1.6714671895824664,-81.25876933407905,9.50471988014376,0.07280109889280519,0.0469589274711101,-0.18413188979796233
15618173,1877.0,1,185957.0,233942,1.04,-0.62,9.55,-0.04,0.01,-0.02,26.97,13.699685,13.998531474188425,71.95130805465298,9.626447943036933,0.045825756949558406,0.36923681666095515,0.12483240954858575
15658173,1885.0,1,186042.0,234268,0.71,-1.13,9.31,-0.06,0.06,-0.01,26.97,13.739685,20.116145784524477,206.01669262639203,9.405163475453259,0.08544003745317531,0.5291752887329141,0.3951894142365766
15698206,1878.0,1,186140.0,234187,0.83,-1.22,9.6,-0.05,0.0,-0.01,26.97,13.779718,14.459118247398223,284.8411877251217,9.712739057547052,0.050990195135927854,0.38127836439946927,0.5541473321138216
15738173,1853.0,1,186073.0,234294,0.41,-1.28,10.37,-0.04,0.06,-0.01,26.97,13.819685,-13.059478778150723,304.5301295159223,10.456739453577296,0.07280109889280519,-0.33816587293893874,0.5938521622982953
15778173,1837.0,1,185958.0,233905,0.59,-0.9,9.73,-0.05,0.01,-0.01,26.97,13.859685,-27.986352293912788,277.1255500270659,9.789330927085876,0.05196152422706632,-0.7284129891863229,0.5385879339592003
15818173,1857.0,1,185991.0,233979,0.25,-1.24,10.33,-0.05,0.08,-0.01,26.97,13.899685,-8.49015994002282,214.56281057998842,10.407160996160288,0.09486832980505139,-0.21870592723019225,0.4124235635214595
15858173,1865.0,1,185919.0,233838,0.28,-1.29,11.01,-0.05,0.08,-0.01,26.97,13.939685,-2.7291971565243527,126.68589841156651,11.088850256000395,0.09486832980505139,-0.06809172723078918,0.23521049072882444
15898178,1861.0,1,185675.0,233250,0.37,-0.79,10.86,-0.03,0.0,-0.0,26.97,13.97969,-3.1426476852567107,28.977938934352146,10.894980495622743,0.03,-0.07890094835659181,0.038172072923817364
15938170,1872.0,1,185541.0,233418,0.09,-1.6,11.62,-0.05,0.08,0.0,26.97,14.019682,2.2106019575153186,-55.575817106864896,11.729982949689227,0.09433981132056604,0.061054028379704944,-0.1323395046280317
15978164,1849.0,1,185518.0,233383,0.22,-1.21,10.1,-0.01,-0.02,0.0,26.97,14.059676,-15.341270938734729,-107.35116310977239,10.174600729266972,0.022360679774997897,-0.3978208843921751,-0.23674995708557942
16018173,1847.0,1,185507.0,233589,0.35,-1.45,10.8,-0.05,0.02,0.0,26.97,14.099685,-22.58398425499396,-123.50261801508232,10.902522643865503,0.05385164807134505,-0.5871738646054864,-0.2693210714228238
16058164,1851.0,1,185449.0,233517,0.38,-0.9,10.36,-0.03,0.01,-0.0,26.97,14.139676,-15.355813016918004,-119.89041159570591,10.405959830789277,0.03162277660168379,-0.3982010714467029,-0.26203667574546863
16098176,1855.0,1,185460.0,233562,0.69,-1.36,11.17,-0.04,-0.02,0.0,26.97,14.179688,-13.297431534225613,-119.52484163853485,11.273624084561273,0.044721359549995794,-0.3443868928171662,-0.2612994653242969
16138173,1869.0,1,185374.0,233434,0.31,-1.26,9.79,-0.04,0.03,0.0,26.97,14.219685,0.7620176020522197,-137.64125550121918,9.875616436456005,0.05,0.023182342338846217,-0.29783312688987745
16178161,1877.0,1,185352.0,233189,0.88,-1.57,10.21,-0.02,-0.08,-0.0,26.97,14.259673,9.133699644651015,-174.04458453893005,10.367420122672758,0.08246211251235322,0.24205100038799288,-0.3712442839215453
16218193,1875.0,1,185276.0,233409,0.56,-1.25,10.42,-0.03,0.06,-0.0,26.97,14.299705,6.187881098649678,-215.4741363084128,10.509638433362015,0.0670820393249937,0.1650357304889638,-0.4547913498382497
16258173,1871.0,1,185259.0,233343,0.53,-1.41,10.17,-0.01,0.0,0.0,26.97,14.339685,2.427531465162665,-243.715686504231,10.280948399831603,0.01,0.06672541795093358,-0.5117434179882595
16298164,1857.0,1,185238.0,233019,0.86,-1.3,9.63,-0.01,-0.04,-0.0,26.97,14.379676,-11.473430788584919,-243.93551683731255,9.755331875441247,0.04123105625617661,-0.2967003474553581,-0.5121867290680087
16338190,1851.0,1,185258.0,233009,0.78,-1.59,9.66,-0.02,0.0,-0.0,26.97,14.419702,-18.847803461945826,-210.50535802146672,9.821003003766977,0.02,-0.48949542050757894,-0.44477128374207825
16378173,1855.0,1,185326.0,232970,0.78,-1.62,10.09,-0.0,-0.02,-0.0,26.97,14.459685,-12.61566964984069,-150.07498971569225,10.248946287301928,0.02,-0.32656295875169317,-0.3229070648795362
16418190,1862.0,1,185370.0,233305,0.75,-1.53,9.28,-0.0,-0.02,0.0,26.97,14.499702,-9.565316498488324,-81.60661403095065,9.435136459002594,0.02,-0.24681474358832456,-0.18483335536003279
16458860,1857.0,1,185409.0,233444,0.83,-1.37,9.27,-0.0,-0.01,0.0,27.11,14.540372,-9.277262920230788,-31.792462562509794,9.407374766639203,0.01,-0.23928389138936665,-0.0843778587745218
16497170,1877.0,1,185436.0,233571,0.75,-1.68,9.0,-0.01,-0.03,-0.01,27.11,14.578682,3.5399302274033975,-24.652131862823868,9.186125407373884,0.033166247903554,0.09580789182754314,-0.06997862793193389
16537193,1889.0,1,185396.0,233274,0.73,-0.92,9.65,-0.01,-0.03,-0.01,27.11,14.618705,23.841468104184234,-67.96730203668916,9.721203629180906,0.033166247903554,0.6265698496772468,-0.15732824247386243
16577193,1882.0,1,185391.0,233244,0.45,-2.0,9.84,-0.01,0.01,-0.0,27.11,14.658705,7.6546267133281995,-144.6467849818701,10.051273551147636,0.01414213562373095,0.20338222319504656,-0.3119605168398814
16617173,1841.0,1,185186.0,232850,0.4,-1.77,9.91,-0.02,-0.03,-0.01,27.11,14.698685,-24.64649173475879,-217.95058138718943,10.074770468849403,0.03741657386773942,-0.6410959130081181,-0.4597853628410178
16657193,1870.0,1,185199.0,232790,0.48,-1.47,10.0,-0.01,-0.0,-0.0,27.11,14.738705,-3.0698956087057963,-250.90267354883827,10.118858631288413,0.01,-0.07699892325769729,-0.5262367362770806
16697193,1902.0,1,185282.0,233056,0.47,-1.53,9.64,-0.02,-0.02,-0.0,27.11,14.778705,33.86587570202796,-227.41286778607477,9.771970118660823,0.0282842712474619,0.8886472467300187,-0.47886706253907557
16737193,1898.0,1,185356.0,233173,0.56,-1.33,9.85,-0.01,0.0,-0.01,27.11,14.818705,27.78420134518185,-159.12246507383776,9.95514942127942,0.01414213562373095,0.7296483862379869,-0.34115225431176976
16777173,1885.0,1,185416.0,233378,0.59,-1.61,9.0,-0.02,-0.04,-0.01,27.11,14.858685,13.81715412521691,-73.57274460850877,9.161888451623934,0.0458257569495584,0.3644949001897003,-0.16863220932935422
16817190,1889.0,1,185568.0,233686,0.02,-1.7,9.95,-0.04,0.01,-0.01,27.11,14.898702,21.397157699314004,5.200384166179195,10.094201305700217,0.042426406871192854,0.5626659728401566,-0.009777877068591085
16857173,1893.0,1,185558.0,233670,0.57,-1.57,10.47,-0.01,-0.07,-0.01,27.11,14.938685,19.873043449858645,68.31817291050208,10.60239123971569,0.07141428428542851,0.5228196386393985,0.11750580888774399
16897193,1869.0,1,185648.0,233943,0.05,-1.32,9.65,-0.04,0.01,-0.0,27.11,14.978705,2.690758492838103,120.02471445120608,9.739989733054138,0.04123105625617661,0.07360720658270826,0.2217775098818179
16937173,1885.0,1,185726.0,233899,0.27,-1.14,9.9,-0.02,-0.05,-0.0,27.11,15.018685,11.291965111309752,168.5434665464483,9.969077188987956,0.05385164807134505,0.2984765387681837,0.31962069684295097
16977190,1893.0,1,185801.0,234108,0.7,-0.85,10.01,-0.01,-0.06,-0.0,27.11,15.058702,27.18457952386589,220.3348925599636,10.07038231647637,0.0608276253029822,0.7139719161211561,0.42406357633986586
17017193,1884.0,1,185882.0,234186,0.22,-1.54,10.96,-0.05,0.04,0.0,27.11,15.098705,10.034253835896026,281.08602437824277,11.069850947506024,0.06403124237432849,0.26559502491441217,0.5465746486965517
17057164,1856.0,1,185927.0,234310,0.4,-1.44,9.35,-0.02,-0.09,-0.0,27.11,15.138676,-9.063815154998537,357.11911292894354,9.468690511364283,0.09219544457292887,-0.23370352824343546,0.699903400509773
17097193,1860.0,1,186094.0,234623,0.07,-1.35,9.44,-0.05,-0.0,0.0,27.11,15.178705,-14.558704504574383,449.640623724865,9.536299072491381,0.05,-0.3773615233692126,0.8864827968833977
17137170,1843.0,1,186103.0,234551,0.79,-1.08,8.91,-0.03,-0.11,-0.0,27.11,15.218682,-21.067947940141202,542.9721143601182,9.00991675877197,0.11401754250991379,-0.5475387193506633,1.0746956031332475
17177193,1856.0,1,186226.0,235029,0.66,-0.83,10.75,-0.05,0.04,-0.0,27.11,15.258705,-18.91351106343389,597.9636905014472,10.80217570677315,0.06403124237432849,-0.49121327535301407,1.1855919232842982
17217173,1851.0,1,186194.0,234525,0.56,-0.76,8.16,-0.02,-0.07,-0.01,27.11,15.298685,-12.762895902094014,562.7738051895415,8.214426334200095,0.07348469228349536,-0.3304120313868368,1.1146278036598931
17257193,1866.0,1,186062.0,234561,0.79,-1.31,9.27,-0.05,-0.05,-0.0,27.11,15.338705,-8.012741912895272,401.5932230134913,9.395376522524256,0.07071067811865477,-0.20622434439006798,0.7895901397604127
17297193,1872.0,1,185844.0,233740,0.67,-1.12,8.48,-0.05,-0.05,-0.01,27.11,15.378705,6.862823214831481,125.17401124489604,8.579842655899933,0.07141428428542851,0.1826813690210867,0.23216161060877735
17337193,1878.0,1,185379.0,232989,0.74,-1.26,8.89,-0.02,-0.08,-0.0,27.11,15.418705,6.9392721153046075,-200.04171989696346,9.009289650133356,0.08246211251235322,0.18468004362085588,-0.4236702525510925
17377193,1856.0,1,185207.0,232768,0.45,-0.84,8.96,-0.04,0.03,-0.0,27.11,15.458705,-12.573012076582604,-475.5198346130447,9.010532725649467,0.05,-0.32544772219981233,-0.9792009601207353
17417173,1845.0,1,185004.0,232360,1.04,-0.78,8.84,0.01,-0.1,-0.0,27.11,15.498685,-21.47213746594384,-615.1916669419292,8.935076944268584,0.1004987562112089,-0.5581058214765919,-1.2608639587265704
17457170,1846.0,1,185196.0,233126,0.5,-1.18,9.88,-0.02,0.04,-0.0,27.11,15.538682,-26.52334503684213,-584.5334944669551,9.962770698957193,0.044721359549995794,-0.6901642318348293,-1.1990385165662454
17497859,1846.0,1,185192.0,232797,1.0,-0.72,9.18,0.02,-0.12,-0.0,27.11,15.579371,-16.934587881470698,-412.98914174013896,9.262332319669813,0.1216552506059644,-0.43947644886883747,-0.8531012149837852
17538173,1871.0,1,185484.0,234038,0.74,-1.22,10.35,-0.01,0.04,0.01,27.11,15.619685,-2.6381941507681965,-175.9804433770113,10.447894524735593,0.042426406871192854,-0.06571255114085425,-0.3751481476864858
17578165,1851.0,1,185747.0,234268,0.64,-0.91,8.38,0.01,-0.05,0.01,27.11,15.659677,-12.451466240834984,42.24600669378304,8.453525891602865,0.05196152422706632,-0.3222700365416402,0.0649285326087374
17616161,1855.0,1,185904.0,234705,1.59,-0.55,10.14,-0.01,-0.09,-0.0,27.11,15.697673,-15.318795425077658,186.2135881558029,10.278628313155409,0.09055385138137416,-0.39723328616662645,0.35525436295324603
17656193,1847.0,1,185986.0,234370,1.29,-0.57,10.06,-0.03,-0.02,0.0,27.11,15.737705,-20.42735074451838,247.78625269407678,10.158375854436574,0.03605551275463989,-0.5307909919713171,0.47942214278994594
17696170,1837.0,1,185766.0,234144,1.34,-0.17,9.01,0.0,-0.195,0.0,27.11,15.777682,-28.284733180150482,255.63861882408585,9.110686033444463,0.195,-0.7362138377883186,0.49525726826550587
17736165,1869.0,1,186017.0,234214,1.21,-0.91,10.62,-0.08,0.05,-0.0,27.11,15.817677,-1.7555799347000276,244.931595275799,10.727376193645862,0.09433981132056604,-0.04263754804554171,0.473665424667059
17776173,1889.0,1,185910.0,233996,1.34,0.08,9.91,-0.02,-0.11,-0.0,27.11,15.857685,26.283941871046924,230.86964324376464,10.000504987249395,0.11180339887498948,0.6904257095813018,0.44530801351584065
17816173,1899.0,1,185984.0,234191,1.15,-0.77,11.75,-0.07,0.07,-0.0,27.11,15.897685,28.699917308135827,203.52735443185534,11.831225633889332,0.09899494936611666,0.7535887990422581,0.39016940090442365
17856173,1885.0,1,185699.0,233396,1.17,0.16999999999999982,9.05,-0.03,-0.09,0.0,27.11,15.937685,21.033286565294183,141.66280665425734,9.126899802232959,0.09486832980505137,0.5531529518725069,0.2654130076940749
17896164,1886.0,1,185699.0,233595,1.14,-1.81,10.14,-0.08,-0.03,0.0,27.11,15.977676,19.488169978747106,32.097213932915956,10.363170364323844,0.08544003745317531,0.5127575340692219,0.04446242033977234
17936173,1891.0,1,185647.0,233709,1.13,-0.4,9.19,-0.03,-0.09,0.0,27.11,16.017685,23.856068378181703,-115.62177767173843,9.267847646568214,0.09486832980505137,0.6269515581989891,-0.25342852468932586
17976173,1872.0,1,185515.0,233837,1.12,-1.09,10.15,-0.06,-0.01,0.01,27.11,16.057685,9.872155586652118,-265.54414268376695,10.26961537741312,0.06164414002968976,0.2613571398509803,-0.555762804860674
18016173,1869.0,1,185188.0,233488,1.13,-0.43,8.96,-0.02,-0.08,0.01,27.11,16.097685,-0.20616969149873976,-368.4798841297567,9.041205671811698,0.08306623862918075,-0.0021298771890173175,-0.7633435970358803
18056173,1889.0,1,185285.0,233622,1.45,-0.91,9.64,-0.04,-0.12,0.01,27.11,16.137685,28.898169727286508,-389.6034764607244,9.79082223309156,0.1268857754044952,0.7587718961443354,-0.805941551527218
18096173,1904.0,1,185415.0,233743,1.46,-0.52,9.73,-0.02,-0.05,0.01,27.11,16.177685,36.29763900627087,-332.30066651599077,9.852659539434011,0.05477225575051661,0.9522230930634736,-0.6903843843557516
18136173,1871.0,1,185503.0,233557,1.33,-0.8,10.2,-0.04,-0.02,0.01,27.11,16.217685,9.033212030639913,-237.34463030785878,10.317407620134041,0.0458257569495584,0.23942385937651423,-0.49889551041351665
18176173,1872.0,1,185488.0,233179,1.26,-0.11,8.69,-0.01,-0.18,0.01,27.11,16.257685,9.296401403159798,-156.12306785976628,8.781560225836865,0.18055470085267789,0.24630466355458863,-0.3351036531067962
18216172,1872.0,1,185691.0,233685,1.12,-1.1,10.38,-0.08,0.04,0.04,27.11,16.297684,6.30136997953587,-118.87173539192891,10.498037911914778,0.09797958971132713,0.16800277569405733,-0.2599824076129462
18256164,1872.0,1,185558.0,233148,1.37,0.16999999999999982,8.72,-0.0,-0.195,0.02,27.11,16.337676,13.82993107108459,-121.43338050526098,8.828601248215938,0.1960229578391266,0.3648289397509015,-0.2651482354821342
18296165,1905.0,1,185576.0,233586,1.48,-0.67,10.69,-0.08,0.01,0.04,27.11,16.377677,38.44794456927705,-137.35673653022482,10.812742482830153,0.09000000000000001,1.0084405282904665,-0.29725936434094913
18336164,1857.0,1,185570.0,233335,1.28,-0.18,8.77,-0.03,-0.04,0.01,27.11,16.417676,-1.1485608957897855,-142.17018763944063,8.864744779180052,0.05099019513592785,-0.026767685599675944,-0.30696619678137904
18376172,1833.0,1,185690.0,233783,1.42,-0.95,10.24,-0.08,0.04,0.01,27.11,16.457684,-29.849454534234027,-128.9450730449756,10.381546127624729,0.09,-0.7771218012353869,-0.2802963566892729
18416164,1851.0,1,185655.0,233029,1.19,0.14,8.6,-0.03,-0.07,0.01,27.11,16.497676,-10.566325978571095,-104.56136988427586,8.683069733682897,0.07681145747868609,-0.27298506401919687,-0.23112404445680168
18456164,1830.0,1,185732.0,233246,1.32,-0.88,10.57,-0.07,0.02,0.03,27.11,16.537676,-27.849004115197392,-74.73572235570974,10.68839089854034,0.07874007874011811,-0.7248221682010098,-0.17097747676178227
18496164,1826.0,1,185717.0,233458,1.48,-0.34,9.75,-0.04,0.01,0.01,27.11,16.577676,-38.713580524063346,-34.79815060416985,9.867547821014094,0.042426406871192854,-1.008864878707815,-0.09043914609761072
18536851,1824.0,1,185880.0,233701,1.51,-0.7,9.77,-0.04,-0.03,0.01,26.97,16.618363,-30.399888979783864,25.077996354156006,9.910751737380973,0.05099019513592785,-0.7915123201094315,0.03030742689453021
18577170,1829.0,1,185873.0,233973,1.29,-0.34,8.96,-0.03,-0.11,0.02,26.97,16.658682,-37.34878031869799,106.75839365113032,9.058769232075626,0.11575836902790225,-0.9731836395095824,0.1950245731249085
18617172,1831.0,1,186068.0,233827,1.48,-0.15,9.52,-0.07,-0.02,0.02,26.97,16.698684,-21.655306902916404,197.0463636883704,9.635522819235083,0.07549834435270751,-0.5628945901686907,0.37709979870683635
18657173,1867.0,1,186134.0,234336,1.52,-0.37,9.39,-0.06,0.01,0.04,26.97,16.738685,0.35043336143523035,274.38305172766877,9.519422251376394,0.07280109889280519,0.012421913316382604,0.5330573965430326
18697165,1853.0,1,186288.0,234315,1.44,-0.47,9.46,-0.09,-0.0,0.01,26.97,16.778677,0.14333924437701503,323.5871425596127,9.58050624967178,0.09055385138137416,0.007007659495016266,0.6322826414353998
18737173,1857.0,1,186199.0,234651,1.27,-0.71,10.75,-0.06,0.02,0.02,26.97,16.818685,-7.963717070231432,344.25611883801855,10.848018252197035,0.066332495807108,-0.2049426424011121,0.6739638146513449
18777165,1840.0,1,186198.0,234215,1.03,-0.44,9.14,-0.07,-0.03,0.01,26.97,16.858677,-15.636638050475979,344.32873077020207,9.208371191475722,0.07681145747868609,-0.40554294108875166,0.674110244280085
18817173,1855.0,1,186298.0,234555,1.32,-0.71,11.22,-0.09,0.01,0.02,26.97,16.898685,-6.31484117504145,326.30620107018274,11.319668723067828,0.09273618495495703,-0.16183454863531163,0.6377659100422619
18857164,1866.0,1,186292.0,234758,1.09,-0.77,8.99,-0.07,0.02,0.01,26.97,16.938676,6.0725845571439,282.1147189492896,9.088514730141554,0.07348469228349536,0.16202142593359828,0.5486491199245681
18897161,1862.0,1,186179.0,234076,1.21,-0.23,9.43,-0.07,-0.02,0.01,26.97,16.978673,4.287270210328922,202.82011802777106,9.510094636753095,0.07348469228349536,0.11534629502263216,0.38874318401461777
18937173,1872.0,1,186106.0,234403,0.92,-1.28,10.04,-0.1,0.04,0.01,26.97,17.018685,8.821594006561725,92.86868318867107,10.162991685522526,0.10816653826391968,0.2338913328527731,0.1670145052866701
18977164,1872.0,1,185965.0,233696,1.17,-0.06,9.51,-0.07,-0.08,0.01,26.97,17.058676,15.462303019666535,-25.56820678602297,9.581889166547482,0.10677078252031312,0.4075055555140455,-0.07182598974793913
19015173,1872.0,1,185963.0,234081,0.68,-1.29,9.5,-0.1,0.04,0.02,26.97,17.096685,8.365342343467422,-121.80514726117599,9.61126942708402,0.10954451150103323,0.22196312192383266,-0.265897942402327
19055160,1863.0,1,185895.0,233984,1.42,-0.36,9.32,-0.09,-0.06,0.02,26.97,17.136672,4.533786263718487,-171.419695988895,9.434426320662004,0.10999999999999999,0.12179119313491127,-0.36595091898402454
19095173,1871.0,1,185966.0,234008,0.68,-0.93,10.56,-0.12,0.1,0.02,26.97,17.176685,9.313800433787021,-166.63869551247075,10.622659742267942,0.15748015748023622,0.2467595425699835,-0.35630952667125904
19135164,1870.0,1,185956.0,233648,1.17,-0.79,9.01,-0.07,-0.18,0.02,26.97,17.216676,8.041187573433183,-117.74389700354229,9.119928727791681,0.194164878389476,0.21348844274268214,-0.25770800240812486
19175178,1873.0,1,186143.0,233939,1.06,-1.52,10.57,-0.11,0.06,0.02,26.97,17.25669,13.350318972943235,-46.39964919180046,10.731211487991466,0.1268857754044952,0.352289995274727,-0.11383479306541834
19215164,1879.0,1,186185.0,233968,1.02,-0.87,9.07,-0.06,-0.07,0.02,26.97,17.296676,14.77085069489929,25.17025135069176,9.168544050175035,0.09433981132056604,0.3894282752665756,0.0304934688367555
19255173,1861.0,1,186302.0,234176,0.82,-0.7,10.45,-0.08,-0.02,0.02,26.97,17.336685,1.0633332271750535,83.52280729505658,10.505470003764705,0.08485281374238571,0.031059916544877837,0.14816755966491452
19295170,1866.0,1,186320.0,234313,0.9,-0.76,10.4,-0.07,-0.02,0.02,26.97,17.376682,2.121015480158167,126.34609264454808,10.466498937084932,0.07549834435270751,0.05871188590717223,0.23452523651767757
19335173,1867.0,1,186465.0,234369,0.97,-1.29,10.35,-0.07,-0.03,0.02,26.97,17.416685,4.779500627096438,155.96679344201075,10.475089498424344,0.07874007874011811,0.12821513192072284,0.29425850748797777
19375196,1869.0,1,186409.0,234409,1.17,-0.6,9.59,-0.05,-0.12,0.02,26.97,17.456708,6.1373045071549575,168.1712421255167,9.679721070361479,0.13152946437965904,0.16371345968928194,0.3188700669929248
19415172,1881.0,1,186454.0,234624,0.84,-1.11,9.94,-0.07,0.02,0.02,26.97,17.496684,17.59913930076515,145.27221948226503,10.036996562717356,0.07549834435270751,0.4633708507958047,0.27269176979944443
19455163,1883.0,1,186298.0,234325,0.99,-0.55,9.7,-0.05,-0.08,0.02,26.97,17.536675,18.76363477105975,62.428613668023985,9.765889616414881,0.09643650760992956,0.49381533729096666,0.1056288907644322
19495173,1876.0,1,186371.0,234175,0.95,-0.84,9.97,-0.06,-0.0,0.02,26.97,17.576685,14.533350148940745,-91.48867068502094,10.050323377881927,0.06324555320336758,0.38321907793736715,-0.204761566103514
19535170,1861.0,1,186143.0,233771,1.4,-0.55,9.04,-0.02,-0.18,0.02,26.97,17.616682,-7.175269668745412,-291.68773628354273,9.164283932746736,0.18220867158288595,-0.18432952978796122,-0.6084841220000236
19575881,1824.0,1,185942.0,232832,1.22,-1.21,8.57,-0.06,-0.02,0.02,26.93,17.657393,-34.003667145327285,-476.3772615476891,8.740560622751838,0.066332495807108,-0.8857292393600406,-0.9809300520748574
19616173,1853.0,1,185696.0,233387,1.26,-0.77,9.3,-0.02,-0.09,0.02,26.93,17.697685,-18.864884591324273,-577.2045431399853,9.416501473477291,0.09433981132056603,-0.48994198833540625,-1.1842589123112532
19656173,1859.0,1,185932.0,232949,1.4,-0.54,8.83,-0.02,-0.02,0.01,26.93,17.737685,2.9186550229618793,-561.7857241416679,8.956589752802124,0.030000000000000002,0.07956531720712513,-1.153165235643502
19696173,1872.0,1,186092.0,234221,1.1,-0.65,9.55,0.01,-0.03,0.02,26.93,17.777685,-0.7108043651544499,-451.9115298755237,9.635092111651035,0.03741657386773942,-0.015323010094218777,-0.9315923206871753
19736164,1862.0,1,186267.0,233335,1.8050000000000002,-0.79,8.97,-0.01,-0.1,0.01,26.93,17.817676,4.664650217653923,-300.6459386455068,9.183845871964534,0.10099504938362078,0.12521249101019022,-0.6265492830086321
19776173,1884.0,1,186350.0,234452,1.13,-1.02,10.26,-0.01,-0.02,0.02,26.93,17.857685,13.910346896274714,-150.23515240978938,10.372314110168473,0.03,0.36693132534745404,-0.3232300498646401
19816172,1865.0,1,186613.0,234144,1.42,-0.66,9.33,0.01,-0.05,0.02,26.93,17.897684,3.6381397490690093,-9.382451999030808,9.460491530570703,0.05477225575051661,0.09837547455527039,-0.039185706077369965
19856164,1853.0,1,186639.0,235015,1.23,-0.45,10.35,0.02,-0.1,0.02,26.93,17.937676,-12.389162022016492,132.9532437085486,10.432540438455055,0.10392304845413264,-0.3206411594899061,0.24784925432354452
19896165,1840.0,1,186874.0,235131,1.28,-1.2,8.85,-0.02,0.02,0.02,26.93,17.977677,-25.776736841627834,275.73332281737044,9.022244731772686,0.034641016151377546,-0.6706449604454536,0.5357803607779443
19936163,1839.0,1,187048.0,235829,0.99,-0.75,9.3,0.02,-0.11,0.01,26.93,18.017675,-22.756380741870057,390.2285257080661,9.382568944590815,0.11224972160321824,-0.5916809860588527,0.7666720275833182
19976164,1867.0,1,187192.0,236015,1.05,-0.73,10.47,-0.03,0.01,0.02,26.93,18.057676,-0.13490586588261666,437.5602352513202,10.547810199278333,0.03741657386773942,-0.000266760816383628,0.8621214178920352
20016164,1872.0,1,187114.0,235915,0.89,-0.66,9.67,-0.01,-0.07,0.02,26.93,18.097676,9.8376759707738,402.75024059347425,9.733272830862186,0.07348469228349536,0.26045570723338474,0.7919233878862789
20056172,1855.0,1,186995.0,235601,1.17,-0.74,9.3,-0.0,-0.06,0.02,26.93,18.137684,-8.719746182874728,311.2687781117963,9.40247307892982,0.06324555320336758,-0.22470821358362186,0.6074413587627305
20096170,1845.0,1,186845.0,235377,1.19,-0.12,8.26,-0.0,-0.13,0.02,26.93,18.177682,-21.39511508088882,210.93900647085988,8.346142821687152,0.13152946437965907,-0.5560921537368286,0.40511577987805547
20136173,1853.0,1,186972.0,235785,1.04,-1.25,9.47,-0.06,0.01,0.02,26.93,18.217685,-4.953540660597033,136.10263973094942,9.60858990695305,0.06403124237432849,-0.12624480510683286,0.2542003439647109
20176164,1867.0,1,186883.0,235556,0.95,-0.47,10.06,-0.04,-0.08,0.02,26.93,18.257676,-2.993203234177915,86.8365018726003,10.115680896509142,0.0916515138991168,-0.07499388328961111,0.15484997469171188
20216173,1849.0,1,186805.0,235285,0.84,-0.75,8.59,-0.03,-0.03,0.02,26.93,18.297685,-6.526639296369018,39.343094748716304,8.663498138742803,0.0469041575982343,-0.1673717836086916,0.059074504137120495
20256173,1869.0,1,186830.0,235343,0.93,-0.52,9.5,-0.05,-0.06,0.02,26.93,18.337685,1.5654164118155784,-25.35299349741891,9.559565889725327,0.0806225774829855,0.04418634350330072,-0.07139198942591783
20296173,1857.0,1,186742.0,234477,1.4,-0.33,10.19,-0.05,-0.09,0.02,26.93,18.377685,-3.0316582092106947,-100.6903640352768,10.291015498968019,0.10488088481701516,-0.07599924741332133,-0.22331775240156157
20336173,1859.0,1,186684.0,234820,0.86,-0.93,9.45,-0.07,0.03,0.03,26.93,18.417685,0.35914536805118036,-158.4488169574623,9.534516243627674,0.0818535277187245,0.012649679395797196,-0.3397937717509002
20376164,1857.0,1,186586.0,234478,1.0,-0.77,9.03,-0.04,-0.1,0.02,26.93,18.457676,-10.354000452370553,-172.4909507197947,9.117773851110806,0.10954451150103323,-0.26743404061044523,-0.3681112172685449
20416170,1840.0,1,186826.0,235081,0.63,-1.01,9.59,-0.09,0.05,0.03,26.93,18.497682,-11.280370211824664,-141.2416432783922,9.663596638933146,0.10723805294763608,-0.2916529855103273,-0.30509368902723427
20454164,1885.0,1,186754.0,234605,0.98,-0.26,8.18,-0.06,-0.05,0.02,26.93,18.535676,16.598550478756216,-89.2459033380887,8.242596678231926,0.0806225774829855,0.4372115280196032,-0.2002387889223232
20494173,1875.0,1,186889.0,235547,0.94,-1.19,10.36,-0.1,0.09,0.03,26.93,18.575685,21.975565448939193,-46.989002069979946,10.47040113844737,0.13784048752090222,0.577787823780209,-0.11502328537726929
20534165,1899.0,1,186848.0,235005,0.96,-0.87,8.84,-0.05,-0.02,0.03,26.93,18.615677,39.25458433649384,-27.281498349328462,8.934433389980587,0.061644140029689765,1.0295292608153594,-0.07528102310119535
20574173,1904.0,1,186903.0,235425,0.4,-0.96,10.02,-0.08,-0.02,0.03,26.93,18.655685,42.32127749186811,-18.29064310950922,10.073827475195314,0.08774964387392122,1.109704667878109,-0.05715001411639541
20614859,1872.0,1,186830.0,235046,0.79,-0.83,9.85,-0.06,0.02,0.03,26.87,18.696371,23.10579019817019,2.352439971451415,9.916425767382117,0.06999999999999999,0.6073363389889078,-0.015521057267303339
20655161,1891.0,1,186967.0,235607,1.02,-0.97,10.52,-0.03,-0.07,0.03,26.87,18.736673,24.16215802786035,45.689366825123614,10.61375051525143,0.0818535277187245,0.634953944162408,0.07187243191686297
20695172,1856.0,1,187069.0,235315,0.7,-0.95,9.51,-0.08,0.04,0.02,26.87,18.776684,9.991950968491889,99.67676253109026,9.582932745250798,0.0916515138991168,0.2644890617670707,0.180743716183087
20735160,1869.0,1,187061.0,235598,0.96,-0.93,10.33,-0.02,-0.08,0.03,26.87,18.816672,7.121097772036662,134.58844103697572,10.41611251859349,0.08774964387392122,0.18943368061821797,0.25114680240577003
20775173,1870.0,1,186876.0,234337,0.95,-0.92,7.95,-0.03,-0.12,0.02,26.87,18.856685,17.494101696447373,119.36659940668736,8.059243140642923,0.12529964086141668,0.4606247551623647,0.2204503514005697
20815173,1857.0,1,186929.0,235658,0.85,-0.92,11.7,-0.1,0.07,0.03,26.87,18.896685,6.132153277839735,39.77751687341916,11.76685599469969,0.12569805089976538,0.1635787863175761,0.05995056222459802
20855164,1840.0,1,186950.0,234562,0.38,-2.07,7.290000000000002,0.01,-0.02,0.02,26.87,18.936676,-20.564250419877713,-87.71903076171104,7.587713753167025,0.03,-0.5343700873168874,-0.19715968914121
20895160,1799.0,1,186635.0,235169,0.48,-1.14,11.35,-0.01,-0.07,0.03,26.87,18.976672,-44.15604392402321,-214.66691461748854,11.41720193392409,0.07681145747868609,-1.1511522535471292,-0.45316350205953637
20935172,1833.0,1,186514.0,234865,-0.02,-2.04,10.3,-0.04,0.05,0.03,26.87,19.016684,-29.053914282830682,-281.22865760075933,10.500095237663324,0.07071067811865475,-0.7563232536600325,-0.5873922854047223
20975170,1840.0,1,186530.0,234926,0.49,-0.76,8.66,0.065,-0.17,0.02,26.87,19.056682,-3.919689739762469,-253.05367985157537,8.7070833233638,0.18309833423600555,-0.09921588039199826,-0.5305744676231001
21015170,1842.0,1,186717.0,235428,0.51,-1.26,11.13,-0.03,0.08,0.02,26.87,19.096682,-13.921814165404106,-147.40103448693867,11.212698158784086,0.08774964387392122,-0.3607107077804982,-0.31751475180315986
21055164,1826.0,1,186837.0,235596,1.15,-0.42,9.1,0.04,-0.13,0.02,26.87,19.136676,-24.350173375198526,-23.50119312608379,9.181987802213635,0.13747727084867523,-0.6333489869564275,-0.06765763843536535
21095164,1856.0,1,187006.0,235694,-0.29,-1.64,10.73,-0.02,0.15,0.03,26.87,19.176676,7.922249085192384,56.883109272106324,10.85848055668932,0.15427248620541514,0.2103789233917087,0.09444579556984735
21135173,1866.0,1,186666.0,234613,1.43,0.16999999999999982,8.44,0.03,-0.195,0.02,26.87,19.216685,10.841757293274437,65.2002735894938,8.561974071439366,0.1983053201505194,0.28670633769327103,0.11121823567084507
21175142,1809.0,1,186854.0,235419,-0.62,-2.09,12.39,-0.09,0.165,0.04,26.87,19.256654,-36.41448815826942,11.953050686718104,12.58032590992777,0.19215878850575635,-0.948757571923843,0.003839588021160496
21215173,1823.0,1,186534.0,234433,1.26,0.16999999999999982,7.290000000000002,0.05,-0.195,0.01,26.87,19.296685,-30.843519751521494,-70.55047808526041,7.400040540429493,0.20155644370746376,-0.8031105713551729,-0.16253748974752968
21255141,1833.0,1,186688.0,234980,0.83,-1.13,10.83,-0.1,0.11,0.03,26.87,19.336653,-15.85566670624433,-142.0957618847942,10.92038003001727,0.15165750888103102,-0.41126921063869337,-0.306816109388111
21295163,1827.0,1,186670.0,235101,0.39,-1.06,8.38,-0.05,-0.04,0.02,26.87,19.376675,-22.20349269934585,-154.66071948594967,8.455773175765774,0.0670820393249937,-0.5772263205205604,-0.3321546731936117
21335173,1856.0,1,186710.0,235109,1.06,-1.07,12.01,-0.07,-0.04,0.02,26.87,19.416685,2.793979122582147,-58.40476470704724,12.104073694422055,0.08306623862918075,0.07630579936252359,-0.13804437618788853
21375173,1857.0,1,186774.0,234982,0.45,-0.53,11.06,-0.06,0.04,0.02,26.87,19.456685,10.321763674789645,164.2700204869433,11.0818319785133,0.07483314773547883,0.2731116616302326,0.3110028416073571
21415165,1865.0,1,186912.0,234456,1.3,-0.73,9.36,-0.03,-0.19,0.02,26.87,19.496677,10.197079262660775,452.7852374372262,9.47800084405989,0.19339079605813714,0.26985192125506885,0.8928242424913789
21455173,1872.0,1,187195.0,236023,0.32,-1.96,11.12,-0.08,0.165,0.04,26.87,19.536685,24.916683966871332,666.3264234608438,11.295946175509158,0.1876832437912346,0.6546802164807175,1.3234525930927485
21495165,1872.0,1,187658.0,236464,1.64,-0.07,11.55,-0.02,0.03,-0.01,26.87,19.576677,16.692287702567494,663.607799129368,11.66606188908665,0.03741657386773942,0.43966218731130013,1.3179702000538775
21535173,1856.0,1,187191.0,235782,1.8050000000000002,0.16999999999999982,10.78,-0.01,-0.13,0.01,26.87,19.616685,8.57250891868523,422.1169932754965,10.93139172292348,0.1307669683062202,0.2273792700861539,0.8309784897111864
21575165,1877.0,1,186540.0,235410,0.93,-0.96,12.41,-0.13,0.11,0.01,26.87,19.656677,19.53432740255079,89.3070656713845,12.481770707716112,0.1705872210923198,0.5139642704640721,0.15983212747233863
21615850,1872.0,1,186400.0,235133,1.27,-0.04,9.2,0.02,-0.15,0.01,26.91,19.697362,25.85002386632004,-105.37188602050452,9.287330079199295,0.15165750888103102,0.6790813882233379,-0.23275853583234993
21654164,1875.0,1,186462.0,235295,1.36,-0.21,12.41,-0.05,-0.06,0.02,26.91,19.735676,13.927057405079958,-25.733873420160332,12.48606423177456,0.0806225774829855,0.3673682036974573,-0.07216007400932543
21694173,1847.0,1,186718.0,235528,1.44,-0.25,10.4,-0.1,-0.02,0.01,26.91,19.775685,2.0870441053539084,251.76936531521366,10.502195008663666,0.10246950765959599,0.05782374070795674,0.4874545099891708
21734173,1871.0,1,187325.0,236875,0.11,-1.54,9.37,-0.05,0.13,0.01,26.91,19.815685,7.6411978409000625,481.5069647439426,9.496346665955281,0.1396424004376894,0.2030311397123601,0.950744638490049
21774164,1857.0,1,187286.0,234412,1.8050000000000002,0.16999999999999982,7.31,-0.04,-0.195,0.01,26.91,19.855676,10.304552115957879,426.3442700930105,7.531468980218932,0.1993113142799475,0.27266168386408307,0.8395032397950419
21814165,1851.0,1,186283.0,234109,0.7,-2.3899999999999997,12.41,-0.135,0.165,0.04,26.91,19.895677,-10.728494549897945,28.96412082329149,12.657416798067448,0.2169101196348386,-0.2772247875781481,0.038144207243733436
21854164,1831.0,1,185836.0,230826,1.29,0.04,7.290000000000002,-0.01,-0.04,0.02,26.91,19.935676,-21.765224167229974,-551.4517656029235,7.403364100191212,0.045825756949558406,-0.5657682592849245,-1.1323257170307774
21894164,1844.0,1,185719.0,233970,-0.13,-0.93,12.41,0.01,0.15,0.04,26.91,19.975676,-12.673033314202257,-1047.6090483938124,12.445477090091806,0.15556349186104046,-0.3280626703001863,-2.132879269746679
21934164,1835.0,1,185338.0,232865,1.75,-0.07,7.290000000000002,0.065,0.01,-0.04,26.91,20.015676,-25.32921210444867,-1241.886436426176,7.497432893997787,0.07697402159170326,-0.6589449056450214,-2.524660137528626
21974165,1831.0,1,185459.0,233456,0.72,-1.33,10.81,-0.02,-0.03,0.01,26.91,20.055677,-21.919972594618457,-1069.433013487725,10.915282863948145,0.03741657386773942,-0.5698139911301366,-2.176889599870696
22014173,1858.0,1,185983.0,233725,1.37,-0.14,8.99,0.05,-0.08,0.01,26.91,20.095685,-5.461175977283521,-626.1277738079918,9.09486668401467,0.09486832980505139,-0.13951638660935192,-1.282917773025476
22054165,1842.0,1,186636.0,234408,1.04,-0.53,11.85,-0.04,0.05,0.02,26.91,20.135677,-13.759469402384083,-103.11651258666778,11.907350670909125,0.0670820393249937,-0.35646637787849095,-0.22821033714577035
22094164,1863.0,1,186789.0,234931,0.75,-0.77,8.96,0.0,0.09,0.02,26.91,20.175676,3.756716680751789,304.4345428702384,9.024245120784343,0.09219544457292887,0.10147554139738602,0.5936594017337556
22134143,1883.0,1,187042.0,235547,1.3,0.12,9.71,-0.0,-0.02,0.02,26.91,20.215655,18.816235653889976,472.2903219850226,9.797372096638977,0.0282842712474619,0.49519053101890215,0.9321583051308402
22174160,1870.0,1,187093.0,236183,0.91,-1.02,11.39,-0.04,0.15,0.02,26.91,20.255672,17.432420505323634,385.14251805742106,11.471730471031822,0.15652475842498528,0.45901216650223264,0.7564155560963565
22214165,1887.0,1,186927.0,235912,0.64,-0.17,9.39,-0.0,-0.03,0.02,26.91,20.295677,16.349283373783955,134.55806137839323,9.41332034937726,0.03605551275463989,0.43069470661101816,0.2510855386162837
22254170,1839.0,1,186491.0,235288,1.08,-0.84,12.21,-0.03,-0.02,0.02,26.91,20.335682,-12.06052916058303,-121.53867258225009,12.286419331929057,0.0412310562561766,-0.312049405406701,-0.2653605680737504
22294173,1856.0,1,186435.0,234994,0.69,0.03,9.7,-0.02,-0.12,0.02,26.91,20.375685,-13.862012719538859,-230.25139787590905,9.72455654515927,0.12328828005937952,-0.3591472630462949,-0.48459125820118315
22334160,1869.0,1,186664.0,235477,1.14,-1.4,12.27,-0.06,0.02,0.02,26.91,20.415672,13.065729894726422,-119.4807778169451,12.402116754812463,0.066332495807108,0.34484971871766107,-0.2612106059751206
22374165,1879.0,1,186894.0,236295,0.18,-0.35,10.82,-0.05,-0.03,0.02,26.91,20.455677,14.198125502432704,162.74609971578468,10.827155674506578,0.061644140029689765,0.3744549886954592,0.30792969445316537
22414173,1857.0,1,187256.0,236904,0.52,-1.15,11.88,-0.09,-0.04,0.02,26.91,20.495685,-4.152701875044347,472.4424351521772,11.946853142145844,0.1004987562112089,-0.1053077330326988,0.9324650573948708
22453175,1857.0,1,187494.0,237074,0.57,-0.44,10.22,-0.07,-0.03,0.02,26.91,20.534687,-5.400555618520816,647.0703243221864,10.245335524032388,0.07874007874011811,-0.13793153227478233,1.2846206358225507
22493173,1870.0,1,187554.0,236471,0.71,-1.18,10.01,-0.09,-0.11,0.02,26.91,20.574685,8.859555794176673,592.2705562457382,10.104286219223997,0.14352700094407325,0.2348838031198177,1.1741111168883978
22533173,1875.0,1,187052.0,235191,1.01,-0.6,9.73,-0.07,-0.09,0.02,26.91,20.614685,9.95164777753767,327.61379138326384,9.800663242862699,0.11575836902790225,0.2634353780181702,0.640402803984221
22573170,1889.0,1,186905.0,234953,0.62,-1.23,9.59,-0.09,-0.08,0.02,26.91,20.654682,31.465477006566474,-32.59161844156689,9.688415763167887,0.12206555615733702,0.8258913944908567,-0.08598944099189171
22613173,1889.0,1,186548.0,234106,1.03,-0.82,8.47,-0.05,-0.09,0.02,26.91,20.694685,21.423191900088675,-345.88748772924225,8.57170928111774,0.10488088481701516,0.5633466091278154,-0.7177836440392258
22653882,1830.0,1,186605.0,233730,0.57,-1.35,8.37,-0.06,-0.06,0.02,26.99,20.735394,-27.257822713962224,-512.3670903156335,8.49731133947674,0.08717797887081347,-0.7093663638245945,-1.0535073421487802
22694173,1855.0,1,186283.0,233294,1.12,-0.85,8.12,0.0,-0.12,0.03,26.99,20.775685,-9.038247370176727,-512.2487501448451,8.24083126874953,0.12369316876852982,-0.2330350859011721,-1.053268696698198
22734164,1865.0,1,186741.0,234265,0.32,-1.22,9.26,-0.03,0.03,0.03,26.99,20.815676,2.165237367124389,-397.90631927398954,9.345501591675001,0.05196152422706632,0.05986801976503355,-0.822685110802867
22774165,1840.0,1,186730.0,234379,0.78,-0.58,8.25,0.04,-0.08,0.03,26.99,20.855677,-16.644735282147316,-251.30746816121112,8.30706325966042,0.09433981132056604,-0.4318985631914841,-0.5270530473574132
22814161,1864.0,1,187062.0,234966,0.37,-1.12,9.47,-0.01,0.08,0.03,26.99,20.895673,-4.125689109122434,-132.7226702638118,9.54317557210387,0.08602325267042626,-0.10460151320764566,-0.28791428037826017
22854165,1854.0,1,186945.0,234852,0.71,-0.93,8.55,0.05,-0.07,0.03,26.99,20.935677,0.7867273693871724,-50.680624315153494,8.6296871322198,0.091104335791443,0.023828352733147918,-0.12246783145329693
22894161,1865.0,1,187234.0,235314,0.68,-1.23,10.02,0.02,0.04,0.03,26.99,20.975673,-1.7060086878892402,29.36958390484567,10.118087763999677,0.053851648071345036,-0.04134156090555089,0.038961866362757495
22934142,1849.0,1,187189.0,235581,0.59,-0.62,9.12,0.05,-0.03,0.04,26.99,21.015654,-7.623132964288185,146.17220910337977,9.160070960423832,0.07071067811865475,-0.19603843583409744,0.27450669390526133
22974161,1856.0,1,187556.0,236402,0.93,-0.89,11.4,0.02,0.08,0.03,26.99,21.055673,-4.167600745974155,303.07737598381294,11.472445249379053,0.08774964387392122,-0.10569724805133683,0.5909225313965855
23014141,1863.0,1,187637.0,236935,1.03,-0.15,10.34,0.06,0.02,0.03,26.99,21.095653,1.2144709000049518,456.43011554622404,10.392256732779458,0.06999999999999999,0.03501124908051748,0.9001745240808385
23054141,1843.0,1,187777.0,237111,1.07,-0.86,10.86,0.03,0.04,0.03,26.99,21.135653,-12.246338678160118,539.3050203486141,10.946419505938916,0.05830951894845301,-0.3169071961777695,1.067300520830485
23094142,1859.0,1,187750.0,237226,0.66,-0.66,11.57,0.04,0.03,0.03,26.99,21.175654,-3.810703289224075,503.6441836717766,11.6075880354189,0.05830951894845301,-0.09636654640469441,0.9953866780483581
23134141,1853.0,1,187585.0,236718,1.21,-0.07,11.68,0.02,-0.03,0.03,26.99,21.215653,-2.282554649364744,353.54962625072795,11.742716891758908,0.04690415759823429,-0.056414737389046,0.6927051537014803
23174165,1845.0,1,187476.0,236831,0.79,-0.24,12.12,0.01,0.03,0.03,26.99,21.255677,-14.767302003789483,149.8492064735905,12.148090384912354,0.04358898943540673,-0.3828150815064307,0.2819217473766057
23214142,1852.0,1,187244.0,235887,1.38,0.02,9.89,0.01,-0.14,0.03,26.99,21.295654,-5.520146521062972,-17.073261646969566,9.985834967592846,0.14352700094407325,-0.14105810829870435,-0.05469503584720029
23254141,1860.0,1,187304.0,236406,0.72,-0.62,12.41,-0.07,0.08,0.03,26.99,21.335653,3.2734961655597936,-72.90095147215938,12.446320741488226,0.11045361017187261,0.08884225872327982,-0.16727746753158476
23292161,1872.0,1,187201.0,236091,1.55,0.16999999999999982,9.78,0.02,-0.11,0.03,26.99,21.373673,13.580121543696901,-0.6807553577469787,9.903524625101912,0.11575836902790225,0.35829793728938636,-0.02163781594035866
23332142,1872.0,1,187687.0,236922,0.94,-0.34,12.22,-0.1,0.09,0.03,26.99,21.413654,16.371197418701882,144.2948069055659,12.260815633553912,0.13784048752090222,0.4312676258379083,0.2707207141281772
23372164,1872.0,1,187478.0,236007,1.76,0.16999999999999982,9.23,-0.04,-0.07,0.03,26.99,21.453676,13.966173487971513,256.3914395666291,9.397840177402465,0.08602325267042626,0.368390851777861,0.4967754107873145
23412164,1876.0,1,187643.0,236107,1.55,-0.7,10.47,-0.09,-0.0,0.02,26.99,21.493676,20.856397808100667,231.0086764474054,10.607233381047106,0.09219544457292887,0.5485283848244602,0.4455883886522606
23452170,1862.0,1,187342.0,235407,1.61,0.11,9.73,-0.08,-0.03,0.03,26.99,21.533682,3.970846494924545,23.274565163075454,9.8629153904918,0.09055385138137417,0.10707373598215737,0.026670617463528033
23493164,1841.0,1,187299.0,235789,1.66,-0.47,9.84,-0.07,-0.01,0.03,26.99,21.574676,-13.311026970960613,-315.5924345064313,9.990100099598601,0.07681145747868609,-0.3447423309452079,-0.6566904701946406
23533173,1852.0,1,186851.0,234134,1.51,0.16999999999999982,8.72,-0.05,-0.05,0.03,26.99,21.614685,-6.342126687508764,-651.3033568907193,8.851406667869238,0.07681145747868609,-0.16254789912658882,-1.3336869947396592
23573164,1844.0,1,186354.0,234292,1.34,-0.78,8.34,-0.07,-0.14,0.04,26.99,21.654676,-10.079651266532517,-833.9946313655886,8.48290044737058,0.16155494421403513,-0.2602614750691712,-1.702103241091658
23613173,1840.0,1,186555.0,234268,1.62,-0.06,8.27,-0.06,0.04,0.03,26.99,21.694685,-17.824233153328155,-784.1536803833188,8.42738986875533,0.07810249675906654,-0.46273527138507875,-1.6015937004566032
23653851,1844.0,1,187194.0,236159,0.74,-0.66,9.43,-0.08,0.05,0.04,26.99,21.735363,-11.265097417413015,-534.6928480800688,9.481988188138603,0.10246950765959599,-0.29125369466285733,-1.0985295901799454
23692161,1858.0,1,187338.0,236228,1.68,0.11,9.08,-0.04,-0.02,0.03,26.99,21.773673,1.656714872352668,-196.25794558555074,9.234765833522797,0.053851648071345036,0.04657324394194933,-0.4160398721026516
23732164,1872.0,1,187750.0,236895,0.64,-0.78,10.28,-0.09,0.05,0.04,26.99,21.813676,14.591341758180123,119.65418525433802,10.329394948398477,0.11045361017187261,0.3847352064319454,0.22103029863012383
23772161,1872.0,1,187570.0,237219,1.2,-0.7,8.27,-0.02,-0.09,0.04,26.99,21.853673,17.252888435686923,352.06644091178873,8.38587502888041,0.1004987562112089,0.4543184928822566,0.6897141538478366
23812173,1872.0,1,188125.0,237891,1.1,-0.66,11.4,-0.09,0.07,0.04,26.99,21.893685,12.47895699040665,486.635916865941,11.471948395978776,0.12083045973594572,0.3295091697700804,0.961087712038237
23852161,1863.0,1,188118.0,238328,1.02,-0.74,9.57,-0.03,-0.0,0.04,26.99,21.933673,8.942194173156373,526.4962865493048,9.652611045722292,0.05,0.23704429500407817,1.0414703565797419
23892173,1861.0,1,188200.0,237535,0.87,-0.72,9.59,-0.08,0.01,0.04,26.99,21.973685,0.4310185974107378,480.27993447595634,9.65626221682075,0.09000000000000001,0.014528727976421693,0.9482702023858005
23932161,1849.0,1,187938.0,237734,0.3,-1.6,10.22,-0.05,0.03,0.04,26.99,22.013673,-6.268662068600781,372.42516906215764,10.348835683302736,0.07071067811865475,-0.160627245371147,0.7307696789527942
23972164,1859.0,1,187856.0,237121,0.6,-0.87,9.36,-0.04,-0.01,0.03,26.99,22.053676,-0.6922070923168739,248.3695314189035,9.419474507635762,0.05099019513592785,-0.014836804319964293,0.4805983859301579
24012170,1870.0,1,187900.0,237562,0.18,-1.2,11.49,-0.07,0.09,0.04,26.99,22.093682,11.187565215707878,155.26485331996614,11.553895446991028,0.12083045973594572,0.2957471153459153,0.2928429711101683
24052164,1863.0,1,187718.0,237008,0.52,-0.79,9.57,-0.04,-0.01,0.03,26.99,22.133676,5.880310494817736,109.6547053059859,9.616621028199042,0.05099019513592785,0.15699462656581892,0.2008652914143538
24092173,1840.0,1,187821.0,237343,-0.05,-1.05,11.17,-0.08,0.04,0.03,26.99,22.173685,-23.49842202422808,81.26728931669098,11.219353813834378,0.09433981132056604,-0.6110808604043375,0.14361906948902925
24132173,1831.0,1,187683.0,236568,0.44,-1.08,8.6,-0.06,-0.01,0.03,26.99,22.213685,-23.886165160828224,12.246422797682959,8.678709581498852,0.06782329983125268,-0.6212179893043137,0.004431203861690974
24172170,1868.0,1,187885.0,236720,0.09,-1.22,10.5,-0.08,0.07,0.03,26.99,22.253682,1.2877792756413045,-137.10283353052424,10.571021710317314,0.11045361017187261,0.03692781802301288,-0.2967473421310429
24212164,1855.0,1,187364.0,235583,0.68,-0.78,9.0,-0.05,-0.02,0.02,26.99,22.293676,-0.3494132556876196,-350.48916919441984,9.059293570693027,0.057445626465380296,-0.005874826711546552,-0.7270634206305348
24252170,1872.0,1,187211.0,235313,-0.15,-1.53,9.96,-0.07,0.05,0.02,26.99,22.333682,4.998597364103647,-558.8588448494164,10.077946219344495,0.08831760866327848,0.13394318138171604,-1.1472628744854434
24292173,1878.0,1,187070.0,235168,0.1,-1.36,8.82,-0.04,0.03,0.02,26.99,22.373685,19.61047701135557,-683.8653967994634,8.924796916456978,0.05385164807134504,0.5159551204038167,-1.3993517866199834
24332160,1868.0,1,187302.0,235935,0.17,-1.11,10.32,-0.06,0.05,0.02,26.99,22.413672,2.169661934043725,-684.4466156961323,10.380915181235228,0.0806225774829855,0.059983695326904646,-1.4005238758992065
24372165,1847.0,1,187425.0,235899,0.38,-0.86,9.95,-0.04,0.03,0.01,26.99,22.453677,-14.5779919856293,-570.1870580293912,9.994323388804267,0.05099019513592785,-0.37786577389785875,-1.1701074125710085
24412161,1849.0,1,187562.0,236294,0.41,-1.07,10.89,-0.06,0.03,0.01,26.99,22.493673,-16.636464325788868,-381.5790678616533,10.950118720817597,0.06782329983125268,-0.43168232789853517,-0.7897594842458869
24452165,1835.0,1,187689.0,236515,0.24,-1.13,10.01,-0.06,0.03,0.01,26.99,22.533677,-27.850562850523715,-165.71210797841914,10.076437862657617,0.06782329983125268,-0.7248629196661741,-0.35444096506538547
24492164,1847.0,1,187980.0,236738,0.32,-1.1,9.91,-0.07,-0.02,0.0,26.99,22.573676,-20.58665459016652,33.247980554445036,9.975996190857332,0.07280109889280519,-0.5349558203465061,0.04678306274784331
24532173,1870.0,1,188253.0,237045,0.2,-0.95,11.16,-0.08,0.06,0.0,26.99,22.613685,8.148581532766116,176.2296010879041,11.20214711562029,0.1,0.2162961427535257,0.33512059876688827
24572161,1885.0,1,188296.0,236813,0.48,-0.55,10.23,-0.05,-0.02,0.0,26.99,22.653673,14.100117562994607,238.5315106977712,10.256012870506744,0.05385164807134505,0.3718926761191063,0.46075897829544177
24612173,1870.0,1,188278.0,236602,0.03,-1.28,9.85,-0.08,0.09,0.01,26.99,22.693685,9.692699602352693,223.3449380561474,9.932864642186564,0.12083045973594571,0.256665455400634,0.43013365093012945
24652164,1877.0,1,188134.0,236574,0.52,-1.24,9.69,-0.06,-0.07,-0.0,26.99,22.733676,4.1013866900896,163.4366499121188,9.78284723380673,0.09219544457292887,0.11048656953124186,0.3093222618430549
24692880,1841.0,1,188203.0,236428,0.37,-1.01,9.35,-0.07,-0.0,-0.0,26.83,22.774392,-20.052137389017364,104.33637718678598,9.411668289947325,0.07,-0.5209814407744667,0.190140321170559
24733190,1836.0,1,188178.0,236629,0.29,-1.27,9.62,-0.04,-0.0,0.0,26.83,22.814702,-35.244253925608,80.7752566664754,9.707800986835277,0.04,-0.9181630516347914,0.14262683369344403
24773173,1850.0,1,188192.0,236648,0.38,-1.15,9.7,-0.04,-0.01,0.0,26.83,22.854685,-14.911984116265558,102.97719083754676,9.775320966597464,0.04123105625617661,-0.38659764033274796,0.18739937837337867
24811170,1883.0,1,188246.0,236988,0.25,-0.99,9.8,-0.02,-0.03,0.0,26.83,22.892682,16.034363622909368,158.55297827541253,9.853050289123669,0.03605551275463989,0.4224614671119108,0.29947382229396985
24851173,1890.0,1,188331.0,236917,0.5,-1.08,9.25,-0.02,-0.05,0.0,26.83,22.932685,21.1395365145262,223.99357121705,9.32624790577647,0.05385164807134505,0.5559307429648908,0.43144168819182166
24891170,1887.0,1,188367.0,237410,0.21,-1.02,9.89,-0.01,0.01,0.0,26.83,22.972682,22.592568903685457,277.0493090623752,9.94467696810711,0.01414213562373095,0.5939187180813597,0.5384341860032
24931165,1883.0,1,188357.0,237098,0.2,-0.82,9.51,-0.02,-0.04,0.0,26.83,23.012677,14.768227650156323,305.20222602822236,9.547381840064846,0.044721359549995794,0.38935969857195496,0.5952075158857044
24971170,1859.0,1,188408.0,237600,0.1,-1.23,10.53,-0.01,-0.03,0.0,26.83,23.052682,-8.065735974928929,309.4553008953874,10.602065836430182,0.03162277660168379,-0.20760981736704684,0.6037842904608388
25011173,1870.0,1,188444.0,237271,-0.06,-1.22,9.87,-0.02,-0.05,-0.0,26.83,23.092685,7.921658425905725,303.129180903022,9.945295370173778,0.05385164807134505,0.2103634812374585,0.591027001486536
25051206,1891.0,1,188315.0,237401,0.38,-1.02,9.62,-0.0,-0.13,-0.01,26.83,23.132718,18.42965068380901,303.90170858081854,9.681384198553427,0.130384048104053,0.48508368114177464,0.5925848851242462
25091193,1872.0,1,188361.0,237250,-0.09,-1.37,10.63,-0.06,-0.02,-0.01,26.83,23.172705,16.213167109969778,319.70713494792346,10.718297439425724,0.06403124237432849,0.4271360927209923,0.6244581963751494
25131207,1907.0,1,188284.0,237404,0.09,-1.63,9.61,-0.02,-0.13,-0.01,26.83,23.212719,32.782675611148065,336.7053605513764,9.747671516829032,0.1319090595827292,0.8603281408343055,0.6587369132403603
25171193,1878.0,1,188520.0,237398,-0.61,-1.99,10.24,-0.05,-0.02,-0.0,26.83,23.252705,22.855836709497524,321.2027767894913,10.449392326829345,0.05385164807134505,0.6008015728138291,0.6274743160816941
25211207,1889.0,1,187999.0,236834,0.32,-1.04,8.11,0.01,-0.19,-0.01,26.83,23.292719,19.55036139744689,238.7417972498509,8.18267071315961,0.19052558883257653,0.5143834620827,0.4611830433330205
25251173,1869.0,1,188201.0,237064,-0.2,-1.47,10.3,-0.04,0.03,-0.0,26.83,23.332685,10.283107844589326,79.19513553302237,10.40629136628415,0.05,0.27210104636335214,0.13944035257418122
25291193,1845.0,1,187744.0,235850,-0.08,-1.13,8.82,0.0,-0.13,-0.01,26.83,23.372705,-18.22054420741344,-129.42625400283873,8.892451855365875,0.130384048104053,-0.47309639930851366,-0.2812667089013397
25331193,1854.0,1,187567.0,235803,0.01,-1.54,10.71,0.0,-0.0,-0.01,26.83,23.412705,-6.348011250319921,-329.3158575456706,10.820157115310296,0.01,-0.16270174471689317,-0.6843652018847551
25371170,1865.0,1,187453.0,235292,-0.27,-1.51,9.21,0.0,-0.07,0.0,26.83,23.452682,4.30534702539526,-460.68769413216637,9.336867783148694,0.07,0.11581889398604715,-0.9492903826340016
25411173,1869.0,1,187222.0,235243,0.09,-1.58,9.09,0.02,-0.09,-0.0,26.83,23.492685,11.045091149168108,-493.05280203188966,9.226732899569598,0.09219544457292887,0.29202228351502507,-1.0145580403230046
25451170,1878.0,1,187447.0,235450,-0.42,-1.19,9.98,-0.01,-0.0,-0.0,26.83,23.532682,17.186254496349058,-439.3476449760366,10.05946817679742,0.01,0.45257641992616526,-0.9062559200978614
25491210,1841.0,1,187423.0,235656,-0.02,-1.44,10.51,0.03,-0.03,0.0,26.83,23.572722,-14.006348919966603,-342.81913921313253,10.608209085420592,0.042426406871192854,-0.3629207783726996,-0.7115959952527461
25531173,1830.0,1,187565.0,235651,-0.57,-1.14,10.08,-0.0,0.08,0.0,26.83,23.612685,-29.839398052756437,-246.89797276978067,10.160260823423776,0.08,-0.7768588853011102,-0.5181608342777967
25571173,1827.0,1,187433.0,235636,0.06,-1.4,9.5,0.02,-0.03,0.0,26.83,23.652685,-27.188193132651413,-171.18771559538627,9.602791260878266,0.03605551275463989,-0.7075459730184848,-0.3654831060244324
25611160,1831.0,1,187573.0,235998,0.06,-0.75,11.17,0.0,0.06,-0.0,26.83,23.692672,-26.20590295410386,-109.19871456919223,11.19531151866709,0.06,-0.6818650486714319,-0.24047573969658884
25651164,1845.0,1,187593.0,236347,0.13,-0.8,10.71,0.01,0.02,-0.0,26.83,23.732676,-9.527070376807638,-43.300148952431776,10.740623818009828,0.022360679774997897,-0.24581483971175097,-0.1075843235395056
25691160,1850.0,1,187655.0,236668,0.05,-1.32,11.35,-0.0,0.05,-0.01,26.83,23.772672,-4.764488762409757,39.33836856314989,11.426609295849753,0.050990195135927854,-0.12130224576841724,0.059064973284861974
25731874,1850.0,1,187763.0,236745,0.15,-0.74,10.69,0.0,-0.01,-0.0,26.93,23.813386,-4.491344957973229,139.90643057845426,10.716631933588088,0.01,-0.11416119363250703,0.2618710898718374
25772170,1853.0,1,187735.0,236781,0.57,-1.01,9.33,-0.0,-0.03,-0.01,26.93,23.853682,-0.4834593544783063,247.80243724815563,9.401803018570428,0.03162277660168379,-0.009379318354892993,0.47945478065226177
25812193,1839.0,1,187883.0,237105,0.19,-0.79,11.87,-0.03,0.03,-0.01,26.93,23.893705,-14.737849842000864,341.0538315271622,11.897777103307995,0.04358898943540673,-0.38204508628987555,0.6675060641419267
25852173,1836.0,1,187868.0,236771,0.46,-0.81,11.03,-0.01,-0.03,-0.01,26.93,23.933685,-17.659001825254354,387.4257561960026,11.06926375148772,0.033166247903554,-0.45841547533224575,0.7610199469024409
25892193,1839.0,1,187815.0,236853,0.15,-0.94,10.01,-0.03,0.04,-0.01,26.93,23.973705,-12.846512194594206,352.05397016947126,10.055157880411425,0.05099019513592785,-0.33259808977240835,0.6896890052790994
25932214,1846.0,1,187599.0,236436,0.69,-0.82,10.33,-0.03,-0.04,-0.01,26.93,24.013726,-9.741657862692795,214.6989877147677,10.385441733503683,0.05099019513592785,-0.25142499963311904,0.41269817909343226
25972193,1859.0,1,187499.0,236303,0.51,-0.28,10.21,-0.04,0.03,-0.01,26.93,24.053705,10.059117885577956,-9.961674878757481,10.226563450152744,0.05099019513592785,0.26624506885538607,-0.04035377017765873
26012173,1863.0,1,187223.0,234944,0.63,-0.83,9.9,-0.05,-0.0,-0.01,26.93,24.093685,4.554828928641339,-264.4856891050638,9.95468733813373,0.050990195135927854,0.12234133106537819,-0.5536283214513018
26052193,1839.0,1,186753.0,234913,0.72,-0.76,9.78,-0.05,-0.04,-0.01,26.93,24.133705,-8.519140997813437,-466.90374051373556,9.835873118335758,0.06480740698407861,-0.21946360593743422,-0.9618256965488577
26092193,1853.0,1,186909.0,234568,0.33,-0.74,9.19,-0.07,0.02,-0.01,26.93,24.173705,-5.670118146491612,-551.0027181024071,9.225649028659175,0.07348469228349536,-0.14497895577427647,-1.1314201653285985
26132218,1827.0,1,186772.0,235065,0.86,-0.72,9.33,-0.03,-0.11,-0.01,26.93,24.21373,-22.877155307322795,-502.8561531538881,9.397175107445854,0.11445523142259596,-0.5948385076814612,-1.0343275330501143
26172193,1844.0,1,187077.0,235361,0.73,-0.89,10.78,-0.08,0.02,-0.01,26.93,24.253705,-12.078676146891118,-365.38968943691384,10.841282211989501,0.08306623862918075,-0.31252383892205393,-0.7571118931271605
26212173,1872.0,1,187133.0,235776,0.7,-0.71,9.39,-0.01,-0.04,-0.01,26.93,24.293685,18.325207656808523,-206.90273010398283,9.442785605953363,0.042426406871192854,0.482353130095298,-0.4375062041252359
26250190,1881.0,1,187329.0,236018,0.7,-0.97,9.76,-0.06,-0.0,-0.01,26.93,24.331702,26.09544773031234,-78.72396865734974,9.833031068800707,0.0608276253029822,0.6854977322139365,-0.17902019656983512
26290193,1887.0,1,187322.0,235769,0.67,-0.5,9.6,-0.04,-0.06,-0.01,26.93,24.371705,32.83221789014509,5.899167585800535,9.636332289828946,0.07280109889280519,0.86162337064184,-0.008368706514551731
