timestamp_us,ecg,leads,ir,red,accX,accY,accZ,gyroX,gyroY,gyroZ,temp,time_sec,ecg_filtered,ppg_filtered,accel_magnitude,gyro_magnitude,ecg_norm,ppg_norm
1948949,1836,1,204843.0,237896,1.2,-0.22,9.89,-0.03,-0.01,-0.0,32.0,0.030467,-0.2281499044637512,0.8036110454320088,9.96496362261298,0.03162277660168379,-0.0020404774725046215,-0.005229428134339346
1989195,1836,1,204444.0,236110,1.24,-0.23,9.91,-0.03,-0.01,-0.0,32.0,0.070713,-5.4160271089994545,-472.5640554396704,9.989924924642828,0.03162277660168379,-0.2535222000899076,-0.5066278163458818
2029201,1836,1,203813.0,234802,1.24,-0.25,9.91,-0.03,-0.01,-0.0,32.0,0.110719,-12.937022684042903,-827.7744833512128,9.990405397179837,0.03162277660168379,-0.6181015546968686,-0.8828722213624733
2069184,1836,1,203545.0,234459,1.22,-0.24,9.9,-0.03,-0.01,-0.0,32.0,0.150702,-16.16561454811484,-982.6987976386347,9.97777530314248,0.03162277660168379,-0.774607156428436,-1.0469704624934748
2109183,1836,1,203598.0,234805,1.27,-0.23,9.9,-0.03,-0.01,-0.0,32.0,0.190701,-24.47387003765888,-921.0644863486688,9.983776840454718,0.03162277660168379,-1.1773488405664712,-0.981686442212191
2149183,1836,1,203757.0,235390,1.26,-0.24,9.91,-0.03,-0.01,-0.0,32.0,0.230701,-28.328558048320232,-699.8439441528417,9.992662307913742,0.03162277660168379,-1.364204377591566,-0.747366206274061
2189182,1836,1,203997.0,235826,1.26,-0.24,9.92,-0.03,-0.01,-0.0,32.0,0.2707,-33.44071995151309,-423.40703450533584,10.00257966726584,0.03162277660168379,-1.6120158100961754,-0.45455993589944227
2229184,1836,1,204090.0,236037,1.25,-0.22,9.9,-0.03,-0.01,-0.0,32.0,0.310702,-42.4958373461667,-194.01843314772375,9.981027001265952,0.03162277660168379,-2.050961535125938,-0.21158796477004863
2269183,1836,1,204140.0,236206,1.25,-0.22,9.93,-0.03,-0.01,-0.0,32.0,0.350701,-40.14403125171957,-65.48170278221447,10.010784185067621,0.03162277660168379,-1.9369580179693278,-0.07543986257752958
2309184,1840,1,204143.0,236321,1.26,-0.24,9.9,-0.03,-0.01,-0.0,32.0,0.390702,-52.471678202643005,-23.959594365137942,9.982745113444498,0.03162277660168379,-2.5345392190677174,-0.03145900011166805
2349183,1841,1,204133.0,236436,1.26,-0.23,9.92,-0.03,-0.01,-0.0,32.0,0.430701,-42.88447573587248,-3.263450435093425,10.002344725113208,0.03162277660168379,-2.0698007342559817,-0.009537322854387529
2389184,1893,1,204177.0,236575,1.23,-0.22,9.91,-0.03,-0.01,-0.0,32.0,0.470702,-9.342589832186666,73.59284681790473,9.988463345279893,0.03162277660168379,-0.44386185514748616,0.0718700615001441
2429183,1881,1,204263.0,236839,1.24,-0.23,9.95,-0.03,-0.01,-0.0,32.0,0.510701,-14.061116935334445,243.73413392859243,10.02960617372387,0.03162277660168379,-0.6725918881326648,0.2520863567088514
2469184,1920,1,204347.0,237169,1.25,-0.23,9.93,-0.03,-0.01,-0.0,32.0,0.550702,11.838452166016635,468.17797648023566,10.011008940161826,0.03162277660168379,0.5828866044888944,0.4898207624721585
2509183,1955,1,204483.0,237532,1.26,-0.24,9.92,-0.03,-0.01,-0.0,32.0,0.590701,48.7716452523505,635.6519961512935,10.00257966726584,0.03162277660168379,2.3732186907981045,0.6672118465609558
2549184,1942,1,204563.0,237558,1.26,-0.25,9.93,-0.03,-0.01,-0.0,32.0,0.630702,26.68532525848992,618.0288349110026,10.012741882221873,0.03162277660168379,1.3025869893616906,0.6485451203211059
2589186,1925,1,204399.0,236137,1.26,-0.25,9.9,-0.03,-0.01,-0.0,32.0,0.670704,13.205472735540262,353.8066225370833,9.982990533903155,0.03162277660168379,0.6491527619408598,0.36867684710827886
2629183,1939,1,203653.0,233997,1.23,-0.24,9.91,-0.03,-0.01,-0.0,32.0,0.710701,12.104772485893342,-96.80282435923228,9.98892386596274,0.03162277660168379,0.5957964499170123,-0.10861568126473332
2669183,1929,1,203103.0,232683,1.26,-0.23,9.9,-0.03,-0.01,-0.0,32.0,0.750701,16.77507320245689,-573.4324402308946,9.982509704478128,0.03162277660168379,0.8221887146213204,-0.6134691769554012
2709183,1972,1,202899.0,231982,1.23,-0.23,9.92,-0.03,-0.01,-0.0,32.0,0.790701,33.2319573245371,-905.9667655525026,9.998609903381569,0.03162277660168379,1.6199341902307625,-0.9656947017346993
2749183,1947,1,202725.0,231830,1.26,-0.23,9.93,-0.03,-0.01,-0.0,32.0,0.830701,33.47127431871825,-1009.2387128966019,10.01226248157728,0.03162277660168379,1.6315350526983006,-1.0750819531502505
2789184,1972,1,202837.0,232511,1.24,-0.24,9.92,-0.03,-0.01,-0.0,32.0,0.870702,26.874240541194396,-914.4777090318433,10.000079999680002,0.03162277660168379,1.3117446349362116,-0.9747096253233498
2829183,1936,1,203100.0,233241,1.26,-0.25,9.94,-0.03,-0.01,-0.0,32.0,0.910701,16.79129765256041,-722.3856397522845,10.02265932774331,0.03162277660168379,0.8229751928858764,-0.7712427205384157
2869184,1972,1,203245.0,233772,1.24,-0.23,9.93,-0.03,-0.01,-0.0,32.0,0.950702,26.199002469370118,-522.0936517108233,10.009765232012187,0.03162277660168379,1.2790125507359995,-0.5590903343786932
2909183,1968,1,203278.0,234279,1.24,-0.24,9.89,-0.03,-0.01,-0.0,32.0,0.990701,41.71559752953334,-338.8408549790784,9.970320957722475,0.03162277660168379,2.031177627325502,-0.3649861244337877
2949184,1972,1,203454.0,235375,1.24,-0.23,9.93,-0.03,-0.01,-0.0,32.0,1.030702,26.25076851487674,-141.62050846689337,10.009765232012187,0.03162277660168379,1.2815219035567862,-0.15608726871347714
2989869,1927,1,203944.0,236553,1.24,-0.24,9.93,-0.03,-0.01,-0.0,32.0,1.071387,-2.875254896880632,107.87293469061783,10.01,0.03162277660168379,-0.13035857313986385,0.10818006326844047
3029184,1931,1,204195.0,237359,1.25,-0.24,9.95,-0.03,-0.01,-0.0,32.0,1.110702,-17.11066207688631,408.1435982637627,10.031081696407421,0.03162277660168379,-0.8204182215559962,0.4262314161643895
3069182,1935,1,204273.0,237931,1.24,-0.23,9.94,-0.03,-0.01,-0.0,32.0,1.1507,4.940326963143035,702.4758822754765,10.019685623810759,0.03162277660168379,0.24850081614901223,0.7379927451497518
3109201,1950,1,204483.0,238734,1.23,-0.23,9.96,-0.03,-0.01,-0.0,32.0,1.190719,0.1839523010213641,900.0899092743261,10.03829666826001,0.03162277660168379,0.01793612730125907,0.9473085933591134
3149183,1904,1,204692.0,239244,1.26,-0.25,9.93,-0.03,-0.01,-0.0,32.0,1.230701,-28.10500629830797,923.9316903948413,10.012741882221873,0.03162277660168379,-1.3533677334362135,0.9725621784099947
3189184,1934,1,204632.0,238307,1.25,-0.24,9.93,-0.03,-0.01,-0.0,32.0,1.270702,-11.876371498515716,762.8283240366108,10.011243678984144,0.03162277660168379,-0.566686616232372,0.8019189893065568
3229183,1919,1,204069.0,237083,1.26,-0.22,9.93,-0.03,-0.01,-0.0,32.0,1.310701,-19.908605988195117,492.382159889527,10.012037754623181,0.03162277660168379,-0.9560482156483072,0.5154582096588416
3269184,1889,1,203794.0,236471,1.24,-0.24,9.92,-0.03,-0.01,-0.0,32.0,1.350702,-48.3878266740765,238.54289521981147,10.000079999680002,0.03162277660168379,-2.3365750081145915,0.24658771599954546
3309183,1901,1,203767.0,236258,1.27,-0.24,9.92,-0.03,-0.01,-0.0,32.0,1.390701,-44.89463507244288,101.10692121723845,10.003844261082836,0.03162277660168379,-2.1672429659753853,0.10101339665734703
3349184,1910,1,203743.0,236111,1.26,-0.24,9.9,-0.03,-0.01,-0.0,32.0,1.430702,-21.31107298199383,93.73933120653297,9.982745113444498,0.03162277660168379,-1.0240326342475359,0.09320953082975264
3387167,1971,1,203825.0,236050,1.24,-0.24,9.93,-0.03,-0.01,-0.0,32.0,1.468685,24.399065430452904,147.20794133047622,10.01,0.03162277660168379,1.1917608195743559,0.14984431354552613
3427184,1964,1,203835.0,235738,1.25,-0.25,9.95,-0.03,-0.01,-0.0,32.0,1.508702,32.130778472314134,170.17375500244825,10.031325934292036,0.03162277660168379,1.5665546780046882,0.17417006026286297
3467182,1936,1,203705.0,235220,1.25,-0.23,9.9,-0.03,-0.01,-0.0,32.0,1.5487,-4.669060258834327,117.43750615542406,9.981252426424252,0.03162277660168379,-0.21731307199925276,0.11831100599208948
3507184,1923,1,203489.0,234727,1.25,-0.25499999999999995,9.92,-0.03,-0.01,-0.0,32.0,1.588702,-13.155180053732622,16.197787821680837,10.001696106161194,0.03162277660168379,-0.6286767069158313,0.01107632312401712
3547182,1936,1,203505.0,234709,1.24,-0.23,9.94,-0.03,-0.01,-0.0,32.0,1.6287,2.518078952910486,-61.08494360970938,10.019685623810759,0.03162277660168379,0.13108263560933328,-0.07078274693881759
3587184,1942,1,203539.0,234909,1.23,-0.23,9.93,-0.03,-0.01,-0.0,32.0,1.668702,3.6750508205225394,-50.42101656425925,10.00853136079415,0.03162277660168379,0.18716670753620393,-0.059487349700775675
3627182,1923,1,203585.0,235151,1.25,-0.24,9.94,-0.03,-0.01,-0.0,32.0,1.7087,-7.21145596707333,59.798392084280394,10.021162607202818,0.03162277660168379,-0.3405553977281744,0.05725876068812721
3667184,1929,1,203633.0,235424,1.23,-0.23,9.94,-0.03,-0.01,-0.0,32.0,1.748702,-6.205291983636554,216.04678592624836,10.018452974386813,0.03162277660168379,-0.29178171982210416,0.2227594874587644
3707182,1931,1,203648.0,235816,1.23,-0.24,9.95,-0.03,-0.01,-0.0,32.0,1.7887,-0.8536570530752595,321.92757611258116,10.02860907603841,0.03162277660168379,-0.03236186115999692,0.33491006575277754
3747184,1925,1,203737.0,236275,1.25,-0.23,9.92,-0.03,-0.01,-0.0,32.0,1.828702,-3.153792181522133,287.9380183697657,10.001089940601474,0.03162277660168379,-0.143860634463439,0.2989077980127456
3787182,1927,1,203637.0,235512,1.25,-0.25,9.95,-0.03,-0.01,-0.0,32.0,1.8687,-8.40229748125251,87.15380509136794,10.031325934292036,0.03162277660168379,-0.3982812966928356,0.0862340392331531
3827184,1909,1,203016.0,234174,1.24,-0.23,9.94,-0.03,-0.01,-0.0,32.0,1.908702,-12.171929514351447,-218.72428582109075,10.019685623810759,0.03162277660168379,-0.5810137554504645,-0.23775678783690227
3867182,1920,1,202663.0,233598,1.23,-0.24,9.93,-0.03,-0.01,-0.0,32.0,1.9487,-16.92967013385653,-509.15790377401726,10.008766157723938,0.03162277660168379,-0.8116446589178509,-0.5453885891496928
3907185,1899,1,202562.0,233526,1.24,-0.24,9.94,-0.03,-0.01,-0.0,32.0,1.988703,-18.359455229356133,-676.0883453040805,10.019920159362549,0.03162277660168379,-0.8809533192066034,-0.7222039068246462
3947183,1936,1,202547.0,233752,1.23,-0.25,9.94,-0.03,-0.01,-0.0,32.0,2.028701,1.2293095449705116,-685.3698554321329,10.018932078819578,0.03162277660168379,0.06860969378989379,-0.7320350265817898
3987184,1911,1,202625.0,234068,1.23,-0.22,9.94,-0.03,-0.01,-0.0,32.0,2.068702,-5.909236178632288,-584.0182143129105,10.01822838629665,0.03162277660168379,-0.27743045033402497,-0.6246817933601199
4028898,1887,1,202640.0,234144,1.24,-0.23,9.93,-0.03,-0.01,-0.0,32.0,2.110416,-42.78911156906987,-454.20979191191407,10.009765232012187,0.03162277660168379,-2.065177967756704,-0.48718669520222524
4067184,1906,1,202677.0,234033,1.23,-0.23,9.94,-0.03,-0.01,-0.0,32.0,2.148702,-12.633321290640541,-353.3715929003899,10.018452974386813,0.03162277660168379,-0.603379666232092,-0.3803773078396344
4107183,1955,1,202702.0,233903,1.23,-0.24,9.94,-0.03,-0.01,-0.0,32.0,2.188701,32.12302761602834,-281.3648383408124,10.018687538794689,0.03162277660168379,1.5661789561798138,-0.3041066344651729
4147184,1934,1,202892.0,233929,1.24,-0.22,9.94,-0.03,-0.01,-0.0,32.0,2.228702,12.02513241911857,-190.59744091497268,10.019461063350663,0.03162277660168379,0.5919359072726386,-0.20796439663680016
4187183,1917,1,202862.0,234003,1.26,-0.25,9.92,-0.03,-0.01,-0.0,32.0,2.268701,2.228730696614474,-28.654918993863422,10.002824601081436,0.03162277660168379,0.11705651373697197,-0.036432360921149966
4227184,1936,1,203097.0,234408,1.24,-0.23,9.92,-0.03,-0.01,-0.0,32.0,2.308702,10.687780875791454,212.09211798675412,9.999844998798732,0.03162277660168379,0.5271079522919567,0.21857064172390964
4267183,1919,1,203281.0,235019,1.24,-0.23,9.94,-0.03,-0.01,-0.0,32.0,2.348701,10.802637971345689,468.51975838677,10.019685623810759,0.03162277660168379,0.5326756361645738,0.49018278317866054
4307184,1954,1,203369.0,235641,1.24,-0.23,9.91,-0.03,-0.01,-0.0,32.0,2.388702,28.639127526031984,627.5607485985003,9.989924924642828,0.03162277660168379,1.3972973189480746,0.658641471419546
4347182,1937,1,203517.0,235700,1.22,-0.24,9.94,-0.03,-0.01,-0.0,32.0,2.4287,30.989142156595765,591.0125660911257,10.017464749126896,0.03162277660168379,1.5112139951087185,0.6199290685692858
4387184,1935,1,203162.0,234274,1.24,-0.25,9.94,-0.03,-0.01,-0.0,32.0,2.468702,14.342550734707565,346.2915095513331,10.02016466930559,0.03162277660168379,0.7042724809910595,0.360716722653092
4427182,1926,1,202609.0,232887,1.23,-0.22,9.95,-0.03,-0.01,-0.0,32.0,2.5087,17.966927298674886,-10.203649720416543,10.028150377811453,0.03162277660168379,0.879963698378349,-0.016888489784242518
4467185,1936,1,202302.0,232345,1.22,-0.23,9.94,-0.03,-0.01,-0.0,32.0,2.548703,23.14745189235716,-322.2242355542267,10.017230156086063,0.03162277660168379,1.1310890040702437,-0.34738554292595153
4507183,1929,1,202171.0,232543,1.24,-0.23,9.92,-0.03,-0.01,-0.0,32.0,2.588701,17.118778735894708,-464.59385168914514,9.999844998798732,0.03162277660168379,0.8388497989558736,-0.4981856526807877
4547184,1923,1,202290.0,232905,1.24,-0.25,9.94,-0.03,-0.01,-0.0,32.0,2.628702,18.319888774969556,-411.25549199124845,10.02016466930559,0.03162277660168379,0.897073463428023,-0.44168883324030195
4587183,1933,1,202394.0,233633,1.24,-0.23,9.94,-0.03,-0.01,-0.0,32.0,2.668701,17.97173424007046,-235.4843358277334,10.019685623810759,0.03162277660168379,0.8801967142835102,-0.25550929324580296
4627184,1904,1,202551.0,233981,1.24,-0.25,9.91,-0.03,-0.01,-0.0,32.0,2.708702,5.491114160511873,-50.08928213733591,9.990405397179837,0.03162277660168379,0.2752001591999284,-0.059135971440809794
4667183,1919,1,202623.0,234166,1.21,-0.24,9.94,-0.03,-0.01,-0.0,32.0,2.748701,3.3654511402184997,65.78652507637169,10.016251793959654,0.03162277660168379,0.17215890032430883,0.06360148420560983
4707184,1904,1,202676.0,234299,1.24,-0.25,9.92,-0.03,-0.01,-0.0,32.0,2.788702,8.137069916305201,106.79137464508652,10.000324994718921,0.03162277660168379,0.4034625457603849,0.10703445806137155
4747182,1906,1,202726.0,234458,1.23,-0.23,9.94,-0.03,-0.01,-0.0,32.0,2.8287,-6.806227533460814,129.84004412834398,10.018452974386813,0.03162277660168379,-0.3209119982179989,0.1314479669415552
4787184,1875,1,202787.0,234420,1.24,-0.24,9.92,-0.03,-0.01,-0.0,32.0,2.868702,-22.311123255311145,203.45251152513882,10.000079999680002,0.03162277660168379,-1.0725099507919529,0.20941943630508267
4827183,1882,1,202889.0,234485,1.25,-0.22,9.93,-0.03,-0.01,-0.0,32.0,2.908701,-24.70885642773316,349.8153322494878,10.010784185067621,0.03162277660168379,-1.1887397775215438,0.3644492104132243
4867184,1883,1,203022.0,234480,1.24,-0.21500000000000002,9.93,-0.03,-0.01,-0.0,32.0,2.948702,-19.017862247293365,515.556260812355,10.0094318020555,0.03162277660168379,-0.9128695200969175,0.5400045774689533
4907182,1897,1,203153.0,234579,1.22,-0.22,9.92,-0.03,-0.01,-0.0,32.0,2.9887,-2.4660513269230706,594.4613563360612,9.997159596605428,0.03162277660168379,-0.1105224793741618,0.6235820807890056
4947203,1909,1,203169.0,234651,1.24,-0.23,9.91,-0.03,-0.01,-0.0,32.0,3.028721,2.269994715489448,495.09562249136025,9.989924924642828,0.03162277660168379,0.11905678208174367,0.5183323514124045
4987183,1903,1,202971.0,233174,1.24,-0.23,9.93,-0.03,-0.01,-0.0,32.0,3.068701,7.6000612578392595,210.87872775218145,10.009765232012187,0.03162277660168379,0.37743111572318105,0.2172853999320402
5027193,1919,1,202300.0,231626,1.22,-0.23,9.95,-0.03,-0.01,-0.0,32.0,3.108711,11.805980737839555,-161.33290873618512,10.027153135362001,0.03162277660168379,0.581312555919148,-0.17696694939845845
5067869,1887,1,202070.0,231279,1.22,-0.23,9.93,-0.03,-0.01,-0.0,32.0,3.149387,-10.597023981045943,-474.5917042548493,10.007307330146308,0.03162277660168379,-0.5046703994186222,-0.5087755334794553
5108184,1882,1,202087.0,231591,1.23,-0.23,9.93,-0.03,-0.01,-0.0,32.0,3.189702,-20.882313695183253,-619.7247873207291,10.00853136079415,0.03162277660168379,-1.0032485794628423,-0.6625027503503064
5148182,1877,1,202176.0,231899,1.25,-0.25,9.93,-0.03,-0.01,-0.0,32.0,3.2297,-26.557896745223434,-581.9405140318546,10.011488400832317,0.03162277660168379,-1.2783717841975961,-0.6224810609361175
5188184,1875,1,202301.0,232411,1.24,-0.22,9.91,-0.03,-0.01,-0.0,32.0,3.269702,-23.890541206802588,-429.9735192697107,9.989699695186037,0.03162277660168379,-1.1490720457518442,-0.46151525860139286
5228183,1904,1,202487.0,232776,1.23,-0.23,9.94,-0.03,-0.01,-0.0,32.0,3.309701,-3.147432081077574,-257.3682310322747,10.018452974386813,0.03162277660168379,-0.1435523293604541,-0.27868905511002534
5268184,1886,1,202659.0,233257,1.24,-0.23,9.93,-0.03,-0.01,-0.0,32.0,3.349702,-14.260126934092126,-124.75706110973246,10.009765232012187,0.03162277660168379,-0.6822388738519708,-0.13822524322417015
5308182,1887,1,202742.0,233695,1.24,-0.23,9.91,-0.03,-0.01,-0.0,32.0,3.3897,-19.068088274778585,-38.12628243208844,9.989924924642828,0.03162277660168379,-0.9153042207296096,-0.0464645762546432
5348184,1893,1,202890.0,234202,1.23,-0.22,9.94,-0.03,-0.01,-0.0,32.0,3.429702,-12.737843723116214,34.960646454508435,10.01822838629665,0.03162277660168379,-0.6084463785567712,0.030950234552306145
5388182,1891,1,203058.0,234767,1.23,-0.22,9.94,-0.03,-0.01,-0.0,32.0,3.4697,-13.09133638991706,131.75167411599332,10.01822838629665,0.03162277660168379,-0.625581893002251,0.13347279513014124
5428183,1908,1,203233.0,235421,1.26,-0.23,9.92,-0.03,-0.01,-0.0,32.0,3.509701,-2.665896666235296,265.29361321959107,10.002344725113208,0.03162277660168379,-0.12020995812623371,0.27492249219620635
5468228,1878,1,203381.0,235931,1.22,-0.22,9.92,-0.03,-0.01,-0.0,32.0,3.549746,-26.328065534361272,411.068795363593,9.997159596605428,0.03162277660168379,-1.2672307439338968,0.42932983038846734
5508183,1900,1,203502.0,236455,1.23,-0.24,9.95,-0.03,-0.01,-0.0,32.0,3.589701,-14.337505659362915,511.5266928939117,10.02860907603841,0.03162277660168379,-0.6859897982393143,0.5357363965124915
5548182,1927,1,203471.0,236839,1.24,-0.22,9.9,-0.03,-0.01,-0.0,32.0,3.6297,22.029791153055303,498.6386263921964,9.979779556683605,0.03162277660168379,1.07691053435324,0.5220851562004822
5588183,1885,1,203552.0,236843,1.25,-0.22,9.92,-0.03,-0.01,-0.0,32.0,3.669701,-33.936029989842886,330.6144280218152,10.000864962591987,0.03162277660168379,-1.6360259045448196,0.34411131428389025
5628182,1870,1,203267.0,235620,1.24,-0.25,9.94,-0.03,-0.01,-0.0,32.0,3.7097,-35.02680859933616,26.43852726396892,10.02016466930559,0.03162277660168379,-1.6889012662572664,0.021923473476689576
5666189,1962,1,202753.0,234618,1.23,-0.23,9.93,-0.03,-0.01,-0.0,32.0,3.747707,39.29466156950594,-327.7660651397255,10.00853136079415,0.03162277660168379,1.913823048261483,-0.35325553493986445
5706182,1940,1,202572.0,234351,1.25,-0.21500000000000002,9.93,-0.03,-0.01,-0.0,32.0,3.7877,32.224809528444325,-613.8021353185334,10.01067555162987,0.03162277660168379,1.5711128221246915,-0.6562293853148594
5746184,1936,1,202553.0,234524,1.22,-0.22,9.95,-0.03,-0.01,-0.0,32.0,3.827702,13.564273016643702,-739.0906846816764,10.026928742142331,0.03162277660168379,0.6665455623503631,-0.7889369637147441
5786182,1937,1,202682.0,235183,1.23,-0.24,9.95,-0.03,-0.01,-0.0,32.0,3.8677,23.297648405979054,-678.3467373018108,10.02860907603841,0.03162277660168379,1.1383697619771074,-0.724596030722799
5826184,1942,1,202915.0,235681,1.2,-0.21500000000000002,9.969999999999999,-0.03,-0.01,-0.0,32.0,3.907702,21.27127481024251,-474.86900744609903,10.044258310099357,0.03162277660168379,1.0401415459976096,-0.5090692573287645
5866206,1934,1,203137.0,236103,1.25,-0.22,9.91,-0.03,-0.01,-0.0,32.0,3.947724,16.434997484090815,-208.83434686309613,9.990945901164714,0.03162277660168379,0.8057035851351637,-0.22728121080843808
5906184,1936,1,203440.0,236551,1.26,-0.23,9.92,-0.03,-0.01,-0.0,32.0,3.987702,13.104343130827935,42.45304914900993,10.002344725113208,0.03162277660168379,0.6442505165333475,0.038886303914097024
5946182,1942,1,203737.0,236677,1.25,-0.23,9.94,-0.03,-0.01,-0.0,32.0,4.0277,26.134826681870912,232.55852358498996,10.020928100729991,0.03162277660168379,1.2759016371668583,0.24024897657013236
5986184,1954,1,203856.0,236894,1.27,-0.23,9.92,-0.03,-0.01,-0.0,32.0,4.067702,25.18446199161381,354.7458665980435,10.003609348630123,0.03162277660168379,1.2298328232767268,0.36967170901297874
6026193,1936,1,203960.0,236956,1.26,-0.23,9.9,-0.03,-0.01,-0.0,32.0,4.107711,23.877389431474132,431.35135043604214,9.982509704478128,0.03162277660168379,1.1664726383589954,0.4508134279008418
6066184,1957,1,204085.0,236968,1.26,-0.22,9.92,-0.03,-0.01,-0.0,32.0,4.147702,24.422613359290512,488.2151715770113,10.002119775327628,0.03162277660168379,1.1929023025884442,0.5110444708855418
6106869,1889,1,204058.0,236843,1.28,-0.24,9.89,-0.03,-0.01,-0.0,32.0,4.188387,-23.328506836554208,526.7708833281465,9.975374679679957,0.03162277660168379,-1.1218274973502982,0.5518832799066824
6147167,1898,1,204050.0,236851,1.25,-0.23,9.93,-0.03,-0.01,-0.0,32.0,4.228685,-32.07185083626041,513.2448259830412,10.011008940161826,0.03162277660168379,-1.545660044612649,0.5375562697793311
6187167,1935,1,204069.0,236913,1.22,-0.24,9.92,-0.03,-0.01,-0.0,32.0,4.268685,17.627374116568202,398.97250779947507,9.997619716712574,0.03162277660168379,0.8635038987744276,0.4165172546309659
6227184,1941,1,203972.0,235648,1.24,-0.22,9.94,-0.03,-0.01,-0.0,32.0,4.308702,17.419066940260244,163.84491299301422,10.019461063350663,0.03162277660168379,0.8534062334932039,0.1674664524597821
6267182,1919,1,203463.0,234292,1.25,-0.25,9.91,-0.03,-0.01,-0.0,32.0,4.3487,-3.8678102038598814,-149.44402593361414,9.991651515140028,0.03162277660168379,-0.17847257209380132,-0.16437405998734228
6307167,1929,1,203100.0,233599,1.23,-0.22,9.94,-0.03,-0.01,-0.0,32.0,4.388685,10.71809134875383,-442.79525374493477,10.01822838629665,0.03162277660168379,0.5285772488179544,-0.47509623900017983
6347167,1935,1,203180.0,233581,1.21,-0.23,9.94,-0.03,-0.01,-0.0,32.0,4.428685,10.866221382644348,-612.0841716472029,10.01601717250924,0.03162277660168379,0.5357578343687444,-0.6544096914979852
6387167,1918,1,203102.0,233755,1.22,-0.22,9.94,-0.03,-0.01,-0.0,32.0,4.468685,0.25584228160955225,-603.7351843927431,10.01700554057948,0.03162277660168379,0.0214209854512251,-0.6455663144594384
6427182,1936,1,203302.0,234130,1.24,-0.24,9.96,-0.03,-0.01,-0.0,32.0,4.5087,16.515808179995204,-440.19274063454213,10.039760953329518,0.03162277660168379,0.809620873885595,-0.47233961667204427
6467183,1936,1,203491.0,234633,1.23,-0.24,9.94,-0.03,-0.01,-0.0,32.0,4.548701,14.414039021341718,-202.11262972174677,10.018687538794689,0.03162277660168379,0.7077378670749872,-0.2201614635605712
6507182,1904,1,203746.0,235185,1.23,-0.21500000000000002,9.96,-0.03,-0.01,-0.0,32.0,4.5887,-7.73120883151892,17.836402625051022,10.037964186028958,0.03162277660168379,-0.36575035522867766,0.01281196938691041
6547184,1902,1,203898.0,235543,1.22,-0.23,9.93,-0.03,-0.01,-0.0,32.0,4.628702,-23.36468769418736,163.43167639843298,10.007307330146308,0.03162277660168379,-1.1235813600661322,0.16702874583733457
6587183,1871,1,204011.0,235757,1.24,-0.24,9.93,-0.03,-0.01,-0.0,32.0,4.668701,-35.0997985537698,240.82742298788634,10.01,0.03162277660168379,-1.6924394455069007,0.24900752331178252
6627184,1898,1,204090.0,235993,1.24,-0.23,9.93,-0.03,-0.01,-0.0,32.0,4.708702,-26.81659611210624,306.328057262063,10.009765232012187,0.03162277660168379,-1.2909122048472677,0.3183868129784533
6667182,1883,1,204122.0,236162,1.23,-0.23,9.93,-0.03,-0.01,-0.0,32.0,4.7487,-22.04437572032943,418.46018963025625,10.00853136079415,0.03162277660168379,-1.0595793961630773,0.43715891005387714
6707184,1898,1,204284.0,236601,1.25,-0.22,9.95,-0.03,-0.01,-0.0,32.0,4.788702,-22.0255622207836,580.9799667888753,10.03062311125286,0.03162277660168379,-1.0586674140386525,0.6093023834873234
6747182,1896,1,204356.0,236834,1.23,-0.24,9.92,-0.03,-0.01,-0.0,32.0,4.8287,-10.672130179747521,718.7192966079594,9.998844933291045,0.03162277660168379,-0.5083111633542459,0.7551980220243512
6787184,1897,1,204489.0,236951,1.23,-0.22,9.94,-0.03,-0.01,-0.0,32.0,4.868702,-16.9585365361512,714.9726127339276,10.01822838629665,0.03162277660168379,-0.8130439542921677,0.7512294762435909
6827182,1889,1,204421.0,236212,1.22,-0.22,9.95,-0.03,-0.01,-0.0,32.0,4.9087,-19.307556401314162,494.99322657835734,10.026928742142331,0.03162277660168379,-0.9269124093198249,0.5182238920701763
6867183,1906,1,203828.0,234167,1.24,-0.23,9.9,-0.03,-0.01,-0.0,32.0,4.948701,-2.5459305835855903,95.1165124313532,9.980005010018782,0.03162277660168379,-0.11439461671953406,0.09466826258371326
6907182,1904,1,203232.0,232820,1.23,-0.22,9.95,-0.03,-0.01,-0.0,32.0,4.9887,-5.093668590561043,-343.35920621712285,10.028150377811453,0.03162277660168379,-0.2378959097362328,-0.36977203227779204
6947183,1879,1,202998.0,232348,1.25,-0.22,9.92,-0.03,-0.01,-0.0,32.0,5.028701,-25.13697662113229,-658.978363013912,10.000864962591987,0.03162277660168379,-1.2094928523300954,-0.7040807477032818
6987182,1884,1,202988.0,232538,1.24,-0.22,9.92,-0.03,-0.01,-0.0,32.0,5.0687,-24.879526740969133,-769.294722157535,9.999619992779726,0.03162277660168379,-1.1970130003986599,-0.8209295495631338
7027191,1904,1,203108.0,232837,1.23,-0.21500000000000002,9.91,-0.03,-0.01,-0.0,32.0,5.108709,2.830512285735886,-708.1381423184343,9.98835446908048,0.03162277660168379,0.1462278037858919,-0.7561515498582878
7067182,1915,1,203138.0,233097,1.23,-0.23,9.94,-0.03,-0.01,-0.0,32.0,5.1487,7.928847481161995,-579.7573796704771,10.018452974386813,0.03162277660168379,0.3933689882969155,-0.6201686510958515
7107869,1888,1,203263.0,233206,1.22,-0.24,9.92,-0.03,-0.01,-0.0,31.71,5.189387,-12.244039418369539,-475.12938290084617,9.997619716712574,0.03162277660168379,-0.5845092743622056,-0.5093450510565226
7146182,1910,1,203289.0,233133,1.23,-0.24,9.92,-0.03,-0.01,-0.0,31.71,5.2277,6.414090305068875,-415.4794152788592,9.998844933291045,0.03162277660168379,0.31994131663615905,-0.44616287842396024
7186184,1936,1,203307.0,233650,1.23,-0.25499999999999995,9.92,-0.03,-0.01,-0.0,31.71,5.267702,35.2753696028897,-355.3129759381171,9.999216219284389,0.03162277660168379,1.7189883542977884,-0.38243365092120885
7226182,1927,1,203518.0,234646,1.24,-0.23,9.91,-0.03,-0.01,-0.0,31.71,5.3077,27.166166947554938,-229.8787967694559,9.989924924642828,0.03162277660168379,1.3258957323224163,-0.24957181916831306
7266184,1920,1,203841.0,235639,1.24,-0.23,9.9,-0.03,-0.01,-0.0,31.71,5.347702,19.057185179288325,-8.061822630051946,9.980005010018782,0.03162277660168379,0.9328138178210671,-0.014619833247325407
7306211,1915,1,204009.0,236457,1.24,-0.23,9.93,-0.03,-0.01,-0.0,31.71,5.387729,17.743100818430133,279.8950339112283,10.009765232012187,0.03162277660168379,0.8691137367080672,0.2903885438907532
7346184,1919,1,204257.0,236885,1.24,-0.23,9.92,-0.03,-0.01,-0.0,31.71,5.427702,18.858723738716005,548.6804087576138,9.999844998798732,0.03162277660168379,0.9231934233937235,0.5750901897034258
7386182,1923,1,204407.0,237262,1.24,-0.23,9.91,-0.03,-0.01,-0.0,31.71,5.4677,26.913491066119416,692.8275935003655,9.989924924642828,0.03162277660168379,1.3136472994042818,0.7277731277501075
7426184,1913,1,204540.0,237278,1.25,-0.23,9.91,-0.03,-0.01,-0.0,31.71,5.507702,14.649446283606752,637.9982343967432,9.991171102528472,0.03162277660168379,0.7191492057588131,0.6696970185697748
7466182,1899,1,204310.0,236000,1.22,-0.24,9.93,-0.03,-0.01,-0.0,31.71,5.5477,2.508772952337944,386.07449697886034,10.0075421557943,0.03162277660168379,0.1306315283524739,0.40285548114184905
7506195,1901,1,203731.0,234783,1.23,-0.21500000000000002,9.92,-0.03,-0.01,-0.0,31.71,5.587713,5.6787323948254675,24.409785728375784,9.998276101408683,0.03162277660168379,0.28429493050992916,0.019774598916673082
7546182,1899,1,203498.0,234551,1.23,-0.22,9.93,-0.03,-0.01,-0.0,31.71,5.6277,0.4325714619675831,-314.2829379072955,10.008306550061304,0.03162277660168379,0.029987911182301052,-0.3389739970549689
7586184,1904,1,203397.0,234811,1.24,-0.23,9.94,-0.03,-0.01,-0.0,31.71,5.667702,12.257835055455644,-518.8402270128144,10.019685623810759,0.03162277660168379,0.603216139540375,-0.55564425638215
7626182,1923,1,203398.0,234986,1.24,-0.23,9.93,-0.03,-0.01,-0.0,31.71,5.7077,22.214316933037495,-549.0758168975954,10.009765232012187,0.03162277660168379,1.0858553993120077,-0.5876702630323771
7666184,1891,1,203514.0,235570,1.22,-0.24,9.95,-0.03,-0.01,-0.0,31.71,5.747702,1.1655890007810847,-439.2646698538719,10.02738749625245,0.03162277660168379,0.06552084808536066,-0.4713565896794541
7706182,1907,1,203690.0,235993,1.25,-0.23,9.92,-0.03,-0.01,-0.0,31.71,5.7877,5.915669308517086,-262.5652193078928,10.001089940601474,0.03162277660168379,0.2957804188624145,-0.2841937858498702
7746184,1906,1,203907.0,236301,1.24,-0.24,9.94,-0.03,-0.01,-0.0,31.71,5.827702,15.001605803392,-84.82077541047708,10.019920159362549,0.03162277660168379,0.7362200960632874,-0.0959241088238287
7786182,1889,1,204079.0,237195,1.24,-0.25,9.93,-0.03,-0.01,-0.0,31.71,5.8677,-10.08124571124791,66.43061129805201,10.010244752252564,0.03162277660168379,-0.479668109914925,0.06428371034035565
7826184,1889,1,204355.0,237960,1.24,-0.21500000000000002,9.92,-0.03,-0.01,-0.0,31.71,5.907702,-6.015453685857279,205.61215838314808,9.999511238055588,0.03162277660168379,-0.28257933120300804,0.21170696781679832
7866182,1904,1,204534.0,238356,1.23,-0.24,9.94,-0.03,-0.01,-0.0,31.71,5.9477,8.712705879706045,365.5121702363544,10.018687538794689,0.03162277660168379,0.43136642975170386,0.38107554512905417
7906184,1901,1,204669.0,238681,1.23,-0.23,9.95,-0.03,-0.01,-0.0,31.71,5.987702,-0.2767466574369181,557.4785267783507,10.02837474369601,0.03162277660168379,-0.004396199219468787,0.5844092930288559
7946182,1904,1,204842.0,239017,1.25,-0.22,9.91,-0.03,-0.01,-0.0,31.71,6.0277,13.196346873922137,739.4942229665678,9.990945901164714,0.03162277660168379,0.6487103868981183,0.7772031468542017
7986184,1911,1,205037.0,239253,1.23,-0.24,9.91,-0.03,-0.01,-0.0,31.71,6.067702,3.211127860950172,821.9499749842273,9.98892386596274,0.03162277660168379,0.16467809794979715,0.8645415607078785
8026193,1849,1,205172.0,239083,1.23,-0.22,9.94,-0.03,-0.01,-0.0,31.71,6.107711,-39.46964450277392,721.392695284237,10.01822838629665,0.03162277660168379,-1.9042672015431166,0.7580297274453943
8066184,1877,1,204894.0,237633,1.24,-0.23,9.95,-0.03,-0.01,-0.0,31.71,6.147702,-34.521086883817574,430.14802986218206,10.02960617372387,0.03162277660168379,-1.6643864670109678,0.44953885205007604
8106182,1872,1,204334.0,236507,1.26,-0.23,9.92,-0.03,-0.01,-0.0,31.71,6.1877,-18.307629415831535,42.65784517362829,10.002344725113208,0.03162277660168379,-0.8784410691383444,0.039103227045789224
8146869,1886,1,203989.0,236189,1.22,-0.23,9.91,-0.03,-0.01,-0.0,31.55,6.228387,-26.09916700758623,-293.81048195276003,9.987462140103462,0.03162277660168379,-1.2561349154189803,-0.31728925357733445
8187182,1856,1,204073.0,236184,1.26,-0.24,9.91,-0.03,-0.01,-0.0,31.55,6.2687,-38.812147523640704,-470.974971544068,9.992662307913742,0.03162277660168379,-1.8723951146742146,-0.504944633990179
8227183,1856,1,204135.0,236185,1.25,-0.22,9.93,-0.03,-0.01,-0.0,31.55,6.308701,-55.88386887668915,-481.14348459206064,10.010784185067621,0.03162277660168379,-2.699944750998568,-0.5157152810236557
8267182,1864,1,204198.0,236324,1.24,-0.25499999999999995,9.93,-0.03,-0.01,-0.0,31.55,6.3487,-35.48244501840215,-403.3656295905075,10.010370872250439,0.03162277660168379,-1.7109881867907288,-0.43333176838135923
8307183,1917,1,204323.0,236345,1.25,-0.24,9.94,-0.03,-0.01,-0.0,31.55,6.388701,4.583318393576818,-333.30001060993595,10.021162607202818,0.03162277660168379,0.23119486874046663,-0.3591171759763491
8347182,1898,1,204376.0,236335,1.24,-0.23,9.93,-0.03,-0.01,-0.0,31.55,6.4287,-5.4314525207257915,-315.2329038481028,10.009765232012187,0.03162277660168379,-0.2542699450653728,-0.3399802157414149
8387184,1874,1,204397.0,236502,1.24,-0.23,9.94,-0.03,-0.01,-0.0,31.55,6.468702,-39.83712961554108,-322.574069302822,10.019685623810759,0.03162277660168379,-1.9220809981214433,-0.3477560922686857
8427182,1856,1,204484.0,236793,1.24,-0.24,9.9,-0.03,-0.01,-0.0,31.55,6.5087,-50.3371761360209,-291.9161138123884,9.980240478064644,0.03162277660168379,-2.431069488485963,-0.3152827094056245
8467183,1909,1,204756.0,237306,1.24,-0.22,9.96,-0.03,-0.01,-0.0,31.55,6.548701,-7.256712815341619,-180.924110734438,10.039302764634604,0.03162277660168379,-0.3427492179968564,-0.19771825499140155
8505182,1972,1,204868.0,237655,1.23,-0.23,9.93,-0.03,-0.01,-0.0,31.55,6.5867,64.0051944803489,-10.682292415202985,10.00853136079415,0.03162277660168379,3.1116631547658873,-0.01739547556440185
8545184,1967,1,204964.0,238007,1.22,-0.23,9.93,-0.03,-0.01,-0.0,31.55,6.626702,47.90504467700008,134.35003038714686,10.007307330146308,0.03162277660168379,2.3312103322888054,0.1362250144695598
8585182,1903,1,205142.0,238367,1.23,-0.24,9.94,-0.03,-0.01,-0.0,31.55,6.6667,-6.2184135358760155,152.6779590829794,10.018687538794689,0.03162277660168379,-0.29241778548643965,0.1556382413500141
8625183,1952,1,205224.0,238122,1.24,-0.22,9.94,-0.03,-0.01,-0.0,31.55,6.706701,30.73731741845857,-4.3378425178152575,10.019461063350663,0.03162277660168379,1.4990068212594512,-0.0106753356438625
8665182,1959,1,204804.0,236767,1.24,-0.22,9.93,-0.03,-0.01,-0.0,31.55,6.7467,48.85393871815901,-284.24653682667514,10.009540448991652,0.03162277660168379,2.37720785664104,-0.30715897428139205
8705184,1930,1,204455.0,236140,1.24,-0.22,9.93,-0.03,-0.01,-0.0,31.55,6.786702,6.649349612395226,-549.1352903219953,10.009540448991652,0.03162277660168379,0.3313454832221534,-0.5877332582076855
8745182,1918,1,204460.0,236420,1.24,-0.23,9.95,-0.03,-0.01,-0.0,31.55,6.8267,8.396807129681978,-654.9631760226138,10.02960617372387,0.03162277660168379,0.4160532758938445,-0.6998277992483237
8785184,1939,1,204668.0,237230,1.25,-0.23,9.94,-0.03,-0.01,-0.0,31.55,6.866702,13.499426428695754,-540.8504409701092,10.020928100729991,0.03162277660168379,0.6634021318102661,-0.578957817032212
8825182,1917,1,205041.0,238380,1.25,-0.22,9.94,-0.03,-0.01,-0.0,31.55,6.9067,7.898846049835628,-262.15842209476097,10.020703568113369,0.03162277660168379,0.39191467252699985,-0.28376289992031833
8865183,1942,1,205317.0,239290,1.24,-0.22,9.93,-0.03,-0.01,-0.0,31.55,6.946701,17.611145518689703,54.585646695479596,10.009540448991652,0.03162277660168379,0.862717219446979,0.05173733976914239
8905182,1938,1,205636.0,239879,1.25,-0.23,9.92,-0.03,-0.01,-0.0,31.55,6.9867,25.829744996019453,297.06590477812836,10.001089940601474,0.03162277660168379,1.261112839191866,0.3085761971387664
8945201,1945,1,205694.0,240446,1.24,-0.21500000000000002,9.92,-0.03,-0.01,-0.0,31.55,7.026719,26.8038572615125,430.42804777043403,9.999511238055588,0.03162277660168379,1.308332813931198,0.4498354513698193
8985182,1919,1,205864.0,240763,1.24,-0.24,9.92,-0.03,-0.01,-0.0,31.55,7.0667,1.834208457807732,499.28354372679496,10.000079999680002,0.03162277660168379,0.09793209573046031,0.5227682626629461
9025251,1935,1,205962.0,241082,1.24,-0.23,9.92,-0.03,-0.01,-0.0,31.55,7.106769,22.559470015386527,574.8438951464335,9.999844998798732,0.03162277660168379,1.1025866534056767,0.602802961052505
9065182,1972,1,206087.0,241261,1.25,-0.24,9.92,-0.03,-0.01,-0.0,31.55,7.1467,55.84292995247801,687.7360410562254,10.001324912230379,0.03162277660168379,2.7159983649105537,0.7223800762813783
9105184,1937,1,206123.0,241415,1.25,-0.23,9.95,-0.03,-0.01,-0.0,31.55,7.186702,22.252035888141865,793.0414240033098,10.030847421828327,0.03162277660168379,1.0876838211174973,0.8339211742860707
9145205,1909,1,206160.0,241470,1.24,-0.24,9.92,-0.03,-0.01,-0.0,31.55,7.226723,3.5205202060461755,793.6468353815222,10.000079999680002,0.03162277660168379,0.17967585461245594,0.8345624354256298
9185870,1898,1,206190.0,241075,1.24,-0.23,9.93,-0.03,-0.01,-0.0,31.49,7.267388,-24.662855498553636,611.1202350056261,10.009765232012187,0.03162277660168379,-1.186509888020313,0.6412274239455272
9226183,1874,1,205819.0,239368,1.26,-0.23,9.93,-0.03,-0.01,-0.0,31.49,7.307701,-20.25142406559224,256.59769848815426,10.01226248157728,0.03162277660168379,-0.9726662806581806,0.2657116441829852
9266184,1950,1,205124.0,237861,1.24,-0.24,9.93,-0.03,-0.01,-0.0,31.49,7.347702,26.595311278921976,-155.1880902224917,10.01,0.03162277660168379,1.2982235725441909,-0.17045826214168888
9306182,1878,1,204911.0,237356,1.24,-0.24,9.95,-0.03,-0.01,-0.0,31.49,7.3877,-16.87710732998332,-468.01715934523156,10.029840477295737,0.03162277660168379,-0.8090966833312124,-0.5018116733464133
9346203,1872,1,204909.0,237228,1.25,-0.22,9.91,-0.03,-0.01,-0.0,31.49,7.427721,-38.00255252544131,-579.6409084657344,9.990945901164714,0.03162277660168379,-1.8331500946510704,-0.6200452829858902
9386182,1887,1,204962.0,237619,1.23,-0.24,9.93,-0.03,-0.01,-0.0,31.49,7.4677,-19.84987279234393,-498.2449829219484,10.008766157723938,0.03162277660168379,-0.9532011310537513,-0.5338294538024548
9426184,1865,1,205175.0,237996,1.24,-0.22,9.93,-0.03,-0.01,-0.0,31.49,7.507702,-25.44769488614905,-320.61996523969395,10.009540448991652,0.03162277660168379,-1.2245548828012076,-0.34568627487932907
9466182,1936,1,205293.0,238280,1.26,-0.24,9.93,-0.03,-0.01,-0.0,31.49,7.5477,17.531329954372914,-155.7831360562914,10.012497191010842,0.03162277660168379,0.8588481695803944,-0.17108854393553116
9506183,1881,1,205346.0,238530,1.25,-0.23,9.92,-0.03,-0.01,-0.0,31.49,7.587701,4.47947509121729,-54.53511811983909,10.001089940601474,0.03162277660168379,0.22616107716636727,-0.0638450699992981
9546182,1872,1,205426.0,238675,1.26,-0.21500000000000002,9.95,-0.03,-0.01,-0.0,31.49,7.6277,-49.52025790901359,7.519478973816575,10.031765796707974,0.03162277660168379,-2.3914694758284276,0.0018841235362616875
9586184,1851,1,205548.0,238965,1.25,-0.23,9.92,-0.03,-0.01,-0.0,31.49,7.667702,-21.48761032905393,89.1140346393298,10.001089940601474,0.03162277660168379,-1.0325902608826005,0.08831034483123233
9626182,1897,1,205581.0,239336,1.23,-0.25,9.93,-0.03,-0.01,-0.0,31.49,7.7077,-18.16134104522616,219.33507646807197,10.009010940147883,0.03162277660168379,-0.8713497579934759,0.22624249589887194
9666183,1839,1,205693.0,239607,1.24,-0.22,9.95,-0.03,-0.01,-0.0,31.49,7.747701,-38.79134932807418,358.24999561956474,10.029381835387463,0.03162277660168379,-1.8713869246492407,0.37338333692479203
9706182,1882,1,205780.0,239744,1.24,-0.23,9.91,-0.03,-0.01,-0.0,31.49,7.7877,-19.001060082192364,413.2539643383955,9.989924924642828,0.03162277660168379,-0.9120550371674434,0.4316443953228899
9746184,1872,1,205785.0,239657,1.25,-0.23,9.91,-0.03,-0.01,-0.0,31.49,7.827702,-17.69880055996794,304.3841261136321,9.991171102528472,0.03162277660168379,-0.8489281636829304,0.3163277708984253
9786182,1872,1,205483.0,238165,1.23,-0.23,9.96,-0.03,-0.01,-0.0,31.49,7.8677,-12.179897277074547,32.75766513120691,10.03829666826001,0.03162277660168379,-0.581399991788761,0.02861680250155944
9826183,1878,1,204907.0,236752,1.23,-0.24,9.92,-0.03,-0.01,-0.0,31.49,7.907701,-22.662241773691267,-303.55385310933065,9.998844933291045,0.03162277660168379,-1.089530378678701,-0.3276095837129481
9866191,1836,1,204689.0,236346,1.24,-0.23,9.93,-0.03,-0.01,-0.0,31.49,7.947709,-37.72201742727939,-565.03672375965,10.009765232012187,0.03162277660168379,-1.8195511895577268,-0.6045763036042898
9906183,1922,1,204687.0,236411,1.24,-0.22,9.93,-0.03,-0.01,-0.0,31.49,7.987701,19.220872908077116,-657.8600733869397,10.009540448991652,0.03162277660168379,0.9407485607581485,-0.7028962379527932
9946183,1905,1,204749.0,236773,1.24,-0.24,9.95,-0.03,-0.01,-0.0,31.49,8.027701,31.038696504012222,-585.9584371720289,10.029840477295737,0.03162277660168379,1.5136161361309801,-0.6267369075624832
9986184,1885,1,204878.0,237238,1.24,-0.22,9.9,-0.03,-0.01,-0.0,31.49,8.067702,-11.829020073436368,-431.88790460333024,9.979779556683605,0.03162277660168379,-0.5643912616050627,-0.46354300529524706
10026194,1885,1,204976.0,237501,1.23,-0.23,9.93,-0.03,-0.01,-0.0,31.49,8.107712,5.446225515231896,-287.56382735281704,10.00853136079415,0.03162277660168379,0.27302418752675534,-0.31067269995553315
10066184,1930,1,205079.0,237605,1.25,-0.24,9.95,-0.03,-0.01,-0.0,31.49,8.147702,39.45716805461622,-189.93248676072977,10.031081696407421,0.03162277660168379,1.9217005305535277,-0.20726006686360798
10106182,1913,1,205181.0,237851,1.24,-0.25,9.92,-0.03,-0.01,-0.0,31.49,8.1877,29.731763723268283,-106.70223526734142,10.000324994718921,0.03162277660168379,1.4502627270026212,-0.11910129112994769
10146184,1885,1,205264.0,238225,1.25,-0.25,9.94,-0.03,-0.01,-0.0,31.49,8.227702,-3.2896644430953854,21.145172742816026,10.021407086831669,0.03162277660168379,-0.15044702597758083,0.016316670112096296
10186868,1895,1,205389.0,238743,1.25,-0.23,9.91,-0.03,-0.01,-0.0,31.43,8.268386,10.45306699091735,213.05595775995624,9.991171102528472,0.03162277660168379,0.5157302249936397,0.21959155578921985
10225184,1920,1,205563.0,239208,1.22,-0.23,9.92,-0.03,-0.01,-0.0,31.43,8.306702,32.69758029743947,410.6408799831121,9.997384657999312,0.03162277660168379,1.5940303282071615,0.4288765757678947
10265183,1897,1,205746.0,239637,1.24,-0.23,9.92,-0.03,-0.01,-0.0,31.43,8.346701,9.320876258799686,503.7771088391266,9.999844998798732,0.03162277660168379,0.4608474156250069,0.5275279166574328
10305184,1897,1,205784.0,239506,1.25,-0.25,9.93,-0.03,-0.01,-0.0,31.43,8.386702,13.0493794543885,410.4424178323618,10.011488400832317,0.03162277660168379,0.6415861589382429,0.4286663615738284
10345182,1919,1,205421.0,237991,1.24,-0.24,9.94,-0.03,-0.01,-0.0,31.43,8.4267,25.29382428298768,150.91307946372203,10.019920159362549,0.03162277660168379,1.235134147178542,0.15376885343204802
10385184,1903,1,204881.0,237037,1.26,-0.23,9.94,-0.03,-0.01,-0.0,31.43,8.466702,22.60290451164394,-148.84017140825608,10.022180401489488,0.03162277660168379,1.1046921353801313,-0.16373444789051922
10425182,1929,1,204822.0,237066,1.24,-0.23,9.93,-0.03,-0.01,-0.0,31.43,8.5067,31.013482602339327,-336.0063923013878,10.009765232012187,0.03162277660168379,1.5123938952843654,-0.3619838175196027
10465184,1902,1,204849.0,237442,1.25,-0.24,9.95,-0.03,-0.01,-0.0,31.43,8.546702,20.151456173614864,-332.54053145148026,10.031081696407421,0.03162277660168379,0.9858584724676539,-0.3583127238498287
10505182,1907,1,205067.0,237999,1.24,-0.23,9.91,-0.03,-0.01,-0.0,31.43,8.5867,10.277803299314478,-179.10323279246842,9.989924924642828,0.03162277660168379,0.507234338653454,-0.1957895527798359
10545184,1905,1,205274.0,238366,1.24,-0.25,9.92,-0.03,-0.01,-0.0,31.43,8.626702,15.685421199639512,9.397044111214381,10.000324994718921,0.03162277660168379,0.7693679650317892,0.0038728697061124555
10585182,1904,1,205267.0,238588,1.24,-0.25499999999999995,9.93,-0.03,-0.01,-0.0,31.43,8.6667,12.188919747204883,135.0912869777866,10.010370872250439,0.03162277660168379,0.5998754782736707,0.13701016496908097
10625184,1883,1,205360.0,238709,1.23,-0.23,9.94,-0.03,-0.01,-0.0,31.43,8.706702,-15.831310324865644,182.1687160789243,10.018452974386813,0.03162277660168379,-0.7584017994729018,0.18687530943009684
10665182,1845,1,205401.0,238837,1.25,-0.22,9.92,-0.03,-0.01,-0.0,31.43,8.7467,-42.73763274991806,210.52684048868957,10.000864962591987,0.03162277660168379,-2.062682538198871,0.21691267547441706
10705184,1891,1,205471.0,238924,1.24,-0.23,9.95,-0.03,-0.01,-0.0,31.43,8.786702,-15.784534353197033,289.38224908527064,10.02960617372387,0.03162277660168379,-0.7561343398803655,0.30043754962915126
10745183,1882,1,205530.0,239148,1.22,-0.23,9.95,-0.03,-0.01,-0.0,31.43,8.826701,-4.305159274796523,424.030620464852,10.027153135362001,0.03162277660168379,-0.1996730156293786,0.443059196955281
10785189,1889,1,205634.0,239271,1.26,-0.24,9.93,-0.03,-0.01,-0.0,31.43,8.866707,-24.018760669227685,533.0261435412561,10.012497191010842,0.03162277660168379,-1.155287468749048,0.5585089487276762
10825182,1895,1,205707.0,239388,1.26,-0.24,9.92,-0.03,-0.01,-0.0,31.43,8.9067,8.205935153171051,499.117291808253,10.00257966726584,0.03162277660168379,0.4068007798227367,0.522592166047364
10865184,1922,1,205617.0,238547,1.24,-0.23,9.92,-0.03,-0.01,-0.0,31.43,8.946702,4.140080056981303,262.61166211855516,9.999844998798732,0.03162277660168379,0.20970894376142926,0.2720817279139592
10905182,1847,1,205010.0,236566,1.26,-0.22,9.93,-0.03,-0.01,-0.0,31.43,8.9867,-42.682861451028764,-114.25859478787687,10.012037754623181,0.03162277660168379,-2.0600275060823376,-0.12710510455572727
10945184,1910,1,204538.0,235619,1.25,-0.23,9.9,-0.03,-0.01,-0.0,31.43,9.026702,-10.17118596048864,-470.40360027315876,9.981252426424252,0.03162277660168379,-0.48402795266369364,-0.5043394286612398
10985182,1894,1,204451.0,235624,1.26,-0.24,9.92,-0.03,-0.01,-0.0,31.43,9.0667,-1.6202942951046144,-647.2508363496094,10.00257966726584,0.03162277660168379,-0.06952450912699937,-0.6916587692212042
11025207,1877,1,204572.0,236206,1.24,-0.23,9.92,-0.03,-0.01,-0.0,31.43,9.106725,-43.11203609340346,-591.9365765093964,9.999844998798732,0.03162277660168379,-2.080831695177973,-0.6330690456455867
11065182,1893,1,204769.0,237064,1.24,-0.23,9.95,-0.03,-0.01,-0.0,31.43,9.1467,-10.625385151184751,-382.3329276089425,10.02960617372387,0.03162277660168379,-0.5060452037250381,-0.4110536036059831
11105184,1917,1,205012.0,237577,1.24,-0.24,9.9,-0.03,-0.01,-0.0,31.43,9.186702,-1.2582940884095395,-158.4580992026193,9.980240478064644,0.03162277660168379,-0.05197659270986805,-0.1739219064675627
11145182,1887,1,205105.0,237792,1.24,-0.23,9.92,-0.03,-0.01,-0.0,31.43,9.2267,-26.62762152937655,-18.446666732470657,9.999844998798732,0.03162277660168379,-1.281751684711167,-0.025619621495314573
11185184,1904,1,205115.0,238056,1.24,-0.23,9.94,-0.03,-0.01,-0.0,31.43,9.266702,-10.419248453469987,40.35243372693187,10.019685623810759,0.03162277660168379,-0.4960527521321883,0.03666129941663545
11225868,1877,1,205178.0,238281,1.26,-0.22,9.96,-0.03,-0.01,-0.0,31.49,9.307386,-47.12033302108288,94.76544886508493,10.041792668642389,0.03162277660168379,-2.2751334059535417,0.09429641059898916
11266184,1872,1,205212.0,238599,1.26,-0.23,9.95,-0.03,-0.01,-0.0,31.49,9.347702,-40.47280823864028,210.26433480869437,10.032098484365072,0.03162277660168379,-1.9528954428095868,0.2166346253789737
11304182,1968,1,205382.0,238980,1.22,-0.23,9.94,-0.03,-0.01,-0.0,31.49,9.3857,39.14552391904425,367.31489348356223,10.017230156086063,0.03162277660168379,1.9065936186187717,0.3829850176058143
11344184,1936,1,205464.0,239317,1.23,-0.22,9.94,-0.03,-0.01,-0.0,31.49,9.425702,17.766929164117496,461.3445986563312,10.01822838629665,0.03162277660168379,0.8702688128951717,0.48258274249418426
11384182,1929,1,205545.0,239236,1.24,-0.23,9.94,-0.03,-0.01,-0.0,31.49,9.4657,4.097267856834398,381.24633863451993,10.019685623810759,0.03162277660168379,0.20763362751597692,0.39774142079662567
11424184,1957,1,205226.0,237590,1.25,-0.25,9.92,-0.03,-0.01,-0.0,31.49,9.505702,27.5357318680269,106.3113782421528,10.001569876774346,0.03162277660168379,1.3438103473287233,0.10652603841250675
11464182,1917,1,204588.0,235900,1.24,-0.23,9.94,-0.03,-0.01,-0.0,31.49,9.5457,-1.5983882773780105,-259.5307815669082,10.019685623810759,0.03162277660168379,-0.06846261755625106,-0.28097966224114285
11504234,1968,1,204265.0,235174,1.25,-0.24,9.92,-0.03,-0.01,-0.0,31.49,9.585752,30.134903478134163,-549.5607587488944,10.001324912230379,0.03162277660168379,1.4698048780621318,-0.588183920977
11544182,1972,1,204318.0,235137,1.25,-0.22,9.9,-0.03,-0.01,-0.0,31.49,9.6257,55.27368003011469,-644.5909294825028,9.981027001265952,0.03162277660168379,2.688404043489339,-0.6888413545340901
11584183,1936,1,204444.0,235425,1.25,-0.23,9.93,-0.03,-0.01,-0.0,31.49,9.665701,-3.5685424637359815,-543.4551852032752,10.011008940161826,0.03162277660168379,-0.16396560443767094,-0.5817168026002596
11624182,1922,1,204579.0,235722,1.25,-0.23,9.94,-0.03,-0.01,-0.0,31.49,9.7057,2.11807719604945,-342.9987777419354,10.020928100729991,0.03162277660168379,0.11169259862513992,-0.3693902608360153
11664184,1961,1,204696.0,235869,1.25,-0.21500000000000002,9.95,-0.03,-0.01,-0.0,31.49,9.745702,25.182905441539734,-153.59402407562476,10.030514692676542,0.03162277660168379,1.2297573696993702,-0.1687698025080252
11704182,1918,1,204795.0,236073,1.25,-0.25,9.95,-0.03,-0.01,-0.0,31.49,9.7857,-7.678008731897332,-21.27982282003138,10.031325934292036,0.03162277660168379,-0.36317148680739786,-0.028620544448930318
11744184,1934,1,204908.0,236479,1.23,-0.24,9.92,-0.03,-0.01,-0.0,31.49,9.825702,4.193390714125257,88.32197675681726,9.998844933291045,0.03162277660168379,0.21229317144528922,0.08747138481393564
11784182,1941,1,205063.0,236860,1.25,-0.23,9.94,-0.03,-0.01,-0.0,31.49,9.8657,11.321617451151019,240.3057494822813,10.020928100729991,0.03162277660168379,0.5578331039377934,0.24845495862812925
11824184,1925,1,205176.0,237398,1.23,-0.24,9.95,-0.03,-0.01,-0.0,31.49,9.905702,-1.863093565836333,456.12121198796547,10.02860907603841,0.03162277660168379,-0.08129417453089097,0.47705005016652474
11864182,1946,1,205303.0,237972,1.24,-0.24,9.94,-0.03,-0.01,-0.0,31.49,9.9457,18.90510461928368,671.0979126735547,10.019920159362549,0.03162277660168379,0.9254417309927301,0.704756712151183
11904184,1934,1,205458.0,238370,1.23,-0.22,9.93,-0.03,-0.01,-0.0,31.49,9.985702,4.840271445557572,761.1183891057517,10.008306550061304,0.03162277660168379,0.24365063698560233,0.8001077996563521
11944182,1925,1,205494.0,238087,1.24,-0.25,9.96,-0.03,-0.01,-0.0,31.49,10.0257,4.907850074804148,628.5696850898942,10.040004980078447,0.03162277660168379,0.24692650289857987,0.6597101526295428
11984184,1937,1,205032.0,236153,1.24,-0.25499999999999995,9.91,-0.03,-0.01,-0.0,31.49,10.065702,6.369763294779469,287.450770106515,9.990531767628788,0.03162277660168379,0.31779257015150575,0.29839169708074315
12024196,1906,1,204344.0,234794,1.25,-0.23,9.93,-0.03,-0.01,-0.0,31.49,10.105714,-10.485039127901024,-123.78123798511486,10.011008940161826,0.03162277660168379,-0.49924194715083925,-0.137191636206826
12064184,1963,1,204081.0,234731,1.24,-0.23,9.93,-0.03,-0.01,-0.0,31.49,10.145702,37.228049497333124,-421.8594361388108,10.009765232012187,0.03162277660168379,1.8136442769834045,-0.4529206956608002
12104182,1920,1,204113.0,235028,1.24,-0.22,9.91,-0.03,-0.01,-0.0,31.49,10.1857,3.312023413703867,-493.58615412622527,9.989699695186037,0.03162277660168379,0.16956899771680603,-0.528894749946414
12144184,1886,1,204282.0,235578,1.24,-0.23,9.94,-0.03,-0.01,-0.0,31.49,10.225702,-34.4123968605344,-357.8081101193555,10.019685623810759,0.03162277660168379,-1.6591177312238754,-0.38507653581897533
12184182,1947,1,204442.0,235932,1.23,-0.23,9.91,-0.03,-0.01,-0.0,31.49,10.2657,35.29053289674786,-132.73454618216672,9.98868860261446,0.03162277660168379,1.7197233931411657,-0.14667511937857805
12224184,1929,1,204543.0,236083,1.26,-0.24,9.95,-0.03,-0.01,-0.0,31.49,10.305702,6.645434734283275,56.40788705744333,10.032332729729411,0.03162277660168379,0.3311557099772181,0.053667485077137124
12264868,1885,1,204622.0,236219,1.24,-0.23,9.92,-0.03,-0.01,-0.0,31.49,10.346386,-15.16971990521198,156.3744827670575,9.999844998798732,0.03162277660168379,-0.72633128356782,0.15955365667811378
12305184,1919,1,204691.0,236300,1.23,-0.21500000000000002,9.95,-0.03,-0.01,-0.0,31.49,10.386702,-6.437960392671091,200.57944246376385,10.028041932501079,0.03162277660168379,-0.3030602929254728,0.20637623690937745
12345182,1840,1,204759.0,236331,1.25,-0.23,9.92,-0.03,-0.01,-0.0,31.49,10.4267,-53.88220352887528,259.34063912365684,10.001089940601474,0.03162277660168379,-2.6029142643610483,0.268617009527883
12385184,1904,1,204793.0,236328,1.24,-0.23,9.91,-0.03,-0.01,-0.0,31.49,10.466702,-14.425526408084552,365.7699802721971,9.989924924642828,0.03162277660168379,-0.6902565934316212,0.3813486215252434
12425220,1893,1,204825.0,236183,1.24,-0.24,9.94,-0.03,-0.01,-0.0,31.49,10.506738,-5.3543003363171335,469.68760963628773,10.019920159362549,0.03162277660168379,-0.2505300022190345,0.49141978936990927
12465184,1887,1,204783.0,236051,1.23,-0.22,9.94,-0.03,-0.01,-0.0,31.49,10.546702,-18.015644299797387,456.3131078287657,10.01822838629665,0.03162277660168379,-0.864287125807783,0.47725330922305503
12505182,1931,1,204771.0,235786,1.24,-0.25,9.95,-0.03,-0.01,-0.0,31.49,10.5867,28.119288715229708,227.03445310627993,10.030084745404697,0.03162277660168379,1.3720981952082831,0.2343977952780968
12545184,1891,1,204390.0,233799,1.26,-0.22,9.94,-0.03,-0.01,-0.0,31.49,10.626702,-7.330011167405287,-209.29185213262204,10.0219558969295,0.03162277660168379,-0.34630234678446,-0.2277658074992976
12585182,1884,1,203541.0,231428,1.25,-0.22,9.95,-0.03,-0.01,-0.0,31.49,10.6667,-14.545646682373558,-708.6142774614781,10.03062311125286,0.03162277660168379,-0.6960794092594637,-0.7566558796006753
12625225,1910,1,203140.0,231152,1.23,-0.23,9.94,-0.03,-0.01,-0.0,31.49,10.706743,10.297914612545735,-1063.7142237352427,10.018452974386813,0.03162277660168379,0.50820923213996,-1.1327832607497093
12665182,1873,1,203250.0,231737,1.23,-0.24,9.94,-0.03,-0.01,-0.0,31.49,10.7467,-19.074517940889816,-1131.0656750068058,10.018687538794689,0.03162277660168379,-0.9156158980199074,-1.2041229645406795
12705184,1882,1,203518.0,232717,1.24,-0.21500000000000002,9.94,-0.03,-0.01,-0.0,31.49,10.786702,-16.42030254128036,-916.576665705367,10.01935252399076,0.03162277660168379,-0.7869531262203265,-0.9769328728485664
12745182,1884,1,203887.0,233723,1.26,-0.25499999999999995,9.92,-0.03,-0.01,-0.0,31.49,10.8267,-9.332926163736275,-557.314563817077,10.00295081463465,0.03162277660168379,-0.4433934099833286,-0.5963968717950415
12785184,1894,1,204163.0,234053,1.23,-0.24,9.95,-0.03,-0.01,-0.0,31.49,10.866702,3.838494954935339,-222.02932381977462,10.02860907603841,0.03162277660168379,0.19508964226524977,-0.24125753544356238
12825182,1913,1,204267.0,234269,1.23,-0.24,9.94,-0.03,-0.01,-0.0,31.49,10.9067,13.29638101944356,-10.141273700456004,10.018687538794689,0.03162277660168379,0.6535595300532981,-0.016822420134611625
12865184,1891,1,204372.0,234786,1.27,-0.22,9.96,-0.03,-0.01,-0.0,31.49,10.946702,7.635914770958735,85.82926514750625,10.043052324866181,0.03162277660168379,0.3791691104531427,0.08483106594200002
12905182,1918,1,204541.0,235332,1.26,-0.24,9.93,-0.03,-0.01,-0.0,31.49,10.9867,17.31958768774743,146.68302949542309,10.012497191010842,0.03162277660168379,0.8485839887097802,0.14928831877299958
12945184,1877,1,204693.0,235758,1.24,-0.23,9.92,-0.03,-0.01,-0.0,31.49,11.026702,-9.5390481821202,258.1077499469959,9.999844998798732,0.03162277660168379,-0.45338514999738405,0.26731111415355097
12985182,1883,1,204804.0,236131,1.25,-0.23,9.93,-0.03,-0.01,-0.0,31.49,11.0667,-9.977016200256074,449.53300308446944,10.011008940161826,0.03162277660168379,-0.47461559692389277,0.470071716918836
13025209,1914,1,204930.0,236543,1.24,-0.24,9.92,-0.03,-0.01,-0.0,31.49,11.106727,17.210054761261716,667.1527308675006,10.000079999680002,0.03162277660168379,0.8432743932914712,0.7005779142762772
13064182,1887,1,205046.0,236899,1.24,-0.24,9.94,-0.03,-0.01,-0.0,31.49,11.1457,2.79288208733571,794.2514865610618,10.019920159362549,0.03162277660168379,0.14440368445094748,0.8352028913509415
13104184,1914,1,205150.0,237045,1.25,-0.22,9.95,-0.03,-0.01,-0.0,31.49,11.185702,9.276369052489398,717.0678705172273,10.03062311125286,0.03162277660168379,0.45868993415994574,0.7534488058468038
13144182,1888,1,204952.0,235475,1.24,-0.23,9.93,-0.03,-0.01,-0.0,31.49,11.2257,5.813882515423509,406.4296260415818,10.009765232012187,0.03162277660168379,0.29084631632727853,0.42441595015247946
13184183,1885,1,204219.0,233412,1.23,-0.24,9.92,-0.03,-0.01,-0.0,31.49,11.265701,-20.974779365825473,-40.366198260848876,9.998844933291045,0.03162277660168379,-1.0077308417098647,-0.04883712990751369
13224182,1879,1,203767.0,232708,1.24,-0.24,9.93,-0.03,-0.01,-0.0,31.49,11.3057,-8.245829661524372,-439.22129884232214,10.01,0.03162277660168379,-0.39069653797784143,-0.47131065043005915
13264184,1900,1,203729.0,232879,1.24,-0.24,9.93,-0.03,-0.01,-0.0,31.49,11.345702,-2.950996215557012,-622.8896742696754,10.01,0.03162277660168379,-0.13403012443976678,-0.665855047787215
13304868,1883,1,203806.0,233440,1.25,-0.24,9.92,-0.03,-0.01,-0.0,31.57,11.386386,-12.374821898749893,-536.5732863676145,10.001324912230379,0.03162277660168379,-0.5908489393460786,-0.5744273884126437
13345183,1901,1,204129.0,234413,1.23,-0.21500000000000002,9.91,-0.03,-0.01,-0.0,31.57,11.426701,1.1854766007541424,-258.7401506956379,9.98835446908048,0.03162277660168379,0.06648489709862136,-0.2801422137363289
13385182,1903,1,204433.0,235047,1.24,-0.24,9.92,-0.03,-0.01,-0.0,31.57,11.4667,0.6151217984763998,59.994712249522145,10.000079999680002,0.03162277660168379,0.03883701675663633,0.05746670605785756
13425184,1899,1,204547.0,235334,1.24,-0.22,9.92,-0.03,-0.01,-0.0,31.57,11.506702,-1.1416112359458412,289.7737923254437,9.999619992779726,0.03162277660168379,-0.04632040549097467,0.30085227831350697
13465182,1917,1,204655.0,235508,1.24,-0.24,9.96,-0.03,-0.01,-0.0,31.57,11.5467,11.746768958576002,385.1409017916057,10.039760953329518,0.03162277660168379,0.5784422720513223,0.4018666026119585
13505184,1898,1,204678.0,235613,1.23,-0.23,9.93,-0.03,-0.01,-0.0,31.57,11.586702,-7.3291990366278865,389.66659563772214,10.00853136079415,0.03162277660168379,-0.3462629788428455,0.40666028786053277
13545182,1885,1,204768.0,235626,1.25,-0.24,9.94,-0.03,-0.01,-0.0,31.57,11.6267,-19.31772976193838,390.61440964766524,10.021162607202818,0.03162277660168379,-0.927405561750717,0.4076642271883676
13585183,1903,1,204755.0,235640,1.25,-0.23,9.92,-0.03,-0.01,-0.0,31.57,11.666701,-9.807219201718652,453.2011506476019,10.001089940601474,0.03162277660168379,-0.46638470787159936,0.47395707581868085
13625182,1875,1,204741.0,235667,1.26,-0.23,9.93,-0.03,-0.01,-0.0,31.57,11.7067,-28.229365171964428,567.4856908276937,10.01226248157728,0.03162277660168379,-1.3593960148578599,0.595009036695689
13665184,1890,1,204798.0,235695,1.26,-0.25,9.93,-0.03,-0.01,-0.0,31.57,11.746702,-28.531972835894056,638.3189925194021,10.012741882221873,0.03162277660168379,-1.374064884918184,0.6700367705576981
13705182,1912,1,204762.0,235594,1.23,-0.21500000000000002,9.93,-0.03,-0.01,-0.0,31.57,11.7867,7.036587363049557,535.7521669643083,10.008197889730198,0.03162277660168379,0.3501167865428832,0.5613963950982624
13743184,1954,1,204631.0,234438,1.23,-0.23,9.96,-0.03,-0.01,-0.0,31.57,11.824702,33.39395612332118,188.15341855515265,10.03829666826001,0.03162277660168379,1.627787062489295,0.19321439929186915
13783182,1958,1,203906.0,231800,1.25,-0.23,9.93,-0.03,-0.01,-0.0,31.57,11.8647,47.89750837170025,-342.4436336167606,10.011008940161826,0.03162277660168379,2.330845010797133,-0.3688022435519989
13823184,1954,1,203136.0,230060,1.23,-0.23,9.93,-0.03,-0.01,-0.0,31.57,11.904702,35.031189731971025,-868.6014664435376,10.00853136079415,0.03162277660168379,1.7071517644661256,-0.9261167962824965
13863182,1928,1,202909.0,230097,1.23,-0.23,9.96,-0.03,-0.01,-0.0,31.57,11.9447,9.949385886018016,-1178.4084748210366,10.03829666826001,0.03162277660168379,0.4913143441013206,-1.254269193784717
13903184,1939,1,203047.0,230408,1.24,-0.24,9.94,-0.03,-0.01,-0.0,31.57,11.984702,24.30838596935213,-1160.9760728557892,10.019920159362549,0.03162277660168379,1.1873651436197086,-1.2358045227332863
13943182,1972,1,203311.0,231493,1.24,-0.22,9.9,-0.03,-0.01,-0.0,31.57,12.0247,45.349002755667236,-865.471591014343,9.979779556683605,0.03162277660168379,2.2073065080238266,-0.9228015835913684
13983183,1942,1,203716.0,232376,1.25,-0.21500000000000002,9.93,-0.03,-0.01,-0.0,31.57,12.064701,31.0809322892109,-456.831211298365,10.01067555162987,0.03162277660168379,1.5156635107312455,-0.4899633433517548
14023182,1943,1,203955.0,232709,1.23,-0.22,9.94,-0.03,-0.01,-0.0,31.57,12.1047,11.194614861941961,-108.81936615531089,10.01822838629665,0.03162277660168379,0.5516766687231665,-0.12134378906552261
14064228,1914,1,204118.0,233016,1.22,-0.23,9.92,-0.03,-0.01,-0.0,31.57,12.145746,2.123220920033142,90.36129404462744,9.997384657999312,0.03162277660168379,0.11194194002569512,0.08963146137504173
14104182,1905,1,204218.0,233474,1.25,-0.23,9.94,-0.03,-0.01,-0.0,31.57,12.1857,-24.89008097478832,167.72121475842866,10.020928100729991,0.03162277660168379,-1.1975246156118025,0.17157229152528475
14144184,1874,1,204341.0,233920,1.24,-0.23,9.89,-0.03,-0.01,-0.0,31.57,12.225702,-45.56796507077686,225.32268510591084,9.970085255402784,0.03162277660168379,-2.19988255654298,0.23258466401218222
14184182,1893,1,204432.0,234338,1.25,-0.25,9.93,-0.03,-0.01,-0.0,31.57,12.2657,-28.266689767303873,360.4379642958991,10.011488400832317,0.03162277660168379,-1.3612053201212448,0.375700867346583
14224184,1904,1,204533.0,234659,1.24,-0.21500000000000002,9.92,-0.03,-0.01,-0.0,31.57,12.305702,-26.71002971238494,589.9589822933553,9.999511238055588,0.03162277660168379,-1.2857464114565496,0.6188130962385806
14264201,1872,1,204689.0,235227,1.25,-0.23,9.93,-0.03,-0.01,-0.0,31.57,12.345719,-40.0624119230361,822.1933191499336,10.011008940161826,0.03162277660168379,-1.9330015308423294,0.8647993146296277
14304869,1906,1,204889.0,235712,1.23,-0.22,9.95,-0.03,-0.01,-0.0,31.61,12.386387,-31.26317753921973,902.0645555076597,10.028150377811453,0.03162277660168379,-1.5064597039421557,0.9494001693343658
14343182,1909,1,204938.0,235023,1.25,-0.24,9.91,-0.03,-0.01,-0.0,31.61,12.4247,-1.5606236997025513,713.9463782582677,9.991406307422395,0.03162277660168379,-0.0666319842021231,0.7501424727398585
14383184,1959,1,204282.0,232659,1.25,-0.23,9.92,-0.03,-0.01,-0.0,31.61,12.464702,26.09897076428175,276.0285582874633,10.001089940601474,0.03162277660168379,1.2741635258805182,0.28629311282717834
14423183,1937,1,203529.0,231132,1.26,-0.22,9.91,-0.03,-0.01,-0.0,31.61,12.504701,17.674905311731116,-250.2885803723618,9.99220195952824,0.03162277660168379,0.8658079677348847,-0.27119017911720794
14463184,1926,1,203184.0,230749,1.24,-0.23,9.94,-0.03,-0.01,-0.0,31.61,12.544702,6.0282282731303765,-653.4955763164656,10.019685623810759,0.03162277660168379,0.30123670111447587,-0.6982732948338877
14503182,1925,1,203175.0,231030,1.24,-0.24,9.94,-0.03,-0.01,-0.0,31.61,12.5847,-6.470885888506509,-799.8584524207151,10.019920159362549,0.03162277660168379,-0.3046563523702654,-0.8533031276012805
14543184,1899,1,203315.0,231701,1.23,-0.24,9.95,-0.03,-0.01,-0.0,31.61,12.624702,-9.452363789112317,-699.733814692799,10.02860907603841,0.03162277660168379,-0.4491831344873394,-0.7472495554386331
14583182,1957,1,203536.0,232265,1.23,-0.24,9.93,-0.03,-0.01,-0.0,31.61,12.6647,20.373319979867627,-472.3719718384252,10.008766157723938,0.03162277660168379,0.9966132937525752,-0.5064243584105705
14623184,1918,1,203670.0,232489,1.24,-0.24,9.94,-0.03,-0.01,-0.0,31.61,12.704702,11.430661103729795,-252.16593439823035,10.019920159362549,0.03162277660168379,0.5631189818623961,-0.2731787016744464
14663182,1927,1,203746.0,232632,1.23,-0.25,9.92,-0.03,-0.01,-0.0,31.61,12.7447,-3.8102510139960324,-112.22474985795436,9.999089958591233,0.03162277660168379,-0.1756823972980742,-0.1249508244011332
14703184,1922,1,203821.0,233001,1.24,-0.22,9.91,-0.03,-0.01,-0.0,31.61,12.784702,8.232279147744691,-47.48631541501692,9.989699695186037,0.03162277660168379,0.408077801786597,-0.05637886863987294
14743182,1909,1,203952.0,233391,1.24,-0.21500000000000002,9.94,-0.03,-0.01,-0.0,31.61,12.8247,-9.304043088331195,-4.978544772047289,10.01935252399076,0.03162277660168379,-0.4419933063819929,-0.01135397742770211
14783184,1916,1,204093.0,233804,1.24,-0.23,9.95,-0.03,-0.01,-0.0,31.61,12.864702,-8.035915533548174,75.2174861000021,10.02960617372387,0.03162277660168379,-0.3805209759080548,0.0735909046737334
14823182,1919,1,204228.0,234274,1.25,-0.24,9.93,-0.03,-0.01,-0.0,31.61,12.9047,13.605528784176924,229.39618473856194,10.011243678984144,0.03162277660168379,0.6685454307123373,0.2368993781230072
14863184,1927,1,204410.0,234694,1.24,-0.23,9.91,-0.03,-0.01,-0.0,31.61,12.944702,-4.835377456250029,448.4262854678476,9.989924924642828,0.03162277660168379,-0.22537527811130792,0.46889946442153324
14903182,1872,1,204504.0,235078,1.23,-0.23,9.91,-0.03,-0.01,-0.0,31.61,12.9847,-25.084865148095723,663.958907445396,9.98868860261446,0.03162277660168379,-1.206966754951401,0.6971949668773426
14943184,1920,1,204615.0,235548,1.23,-0.22,9.93,-0.03,-0.01,-0.0,31.61,13.024702,-12.589326579437506,760.2353602070739,10.008306550061304,0.03162277660168379,-0.6012470279056256,0.7991724817250941
14983182,1922,1,204756.0,235673,1.25,-0.22,9.91,-0.03,-0.01,-0.0,31.61,13.0647,24.317195687549493,629.5380775183022,9.990945901164714,0.03162277660168379,1.1877921936482077,0.660735888937993
15023184,1957,1,204502.0,233835,1.25,-0.22,9.92,-0.03,-0.01,-0.0,31.61,13.104702,33.83052677590431,252.37981726404288,10.000864962591987,0.03162277660168379,1.648949772288945,0.26124399884687577
15063183,1919,1,203657.0,231584,1.24,-0.24,9.96,-0.03,-0.01,-0.0,31.61,13.144701,10.9125621482138,-258.9887041141296,10.039760953329518,0.03162277660168379,0.538004197398044,-0.2804054853795773
15103184,1925,1,203139.0,230772,1.24,-0.25,9.91,-0.03,-0.01,-0.0,31.61,13.184702,18.66526390101063,-705.4783762505522,9.990405397179837,0.03162277660168379,0.913815481062919,-0.7533342843079001
15143182,1927,1,203127.0,231041,1.24,-0.24,9.95,-0.03,-0.01,-0.0,31.61,13.2247,5.474450012988167,-914.9401760776722,10.029840477295737,0.03162277660168379,0.27439236665588973,-0.9751994776047727
15183184,1873,1,203283.0,231782,1.22,-0.23,9.93,-0.03,-0.01,-0.0,31.61,13.264702,-19.271659554990705,-840.2165494464765,10.007307330146308,0.03162277660168379,-0.9251723140180196,-0.8960510511133707
15223182,1917,1,203594.0,232806,1.24,-0.24,9.93,-0.03,-0.01,-0.0,31.61,13.3047,-9.79441381215937,-568.8354762823567,10.01,0.03162277660168379,-0.4657639681551042,-0.6086000013068442
15263184,1873,1,203914.0,233324,1.24,-0.23,9.94,-0.03,-0.01,-0.0,31.61,13.344702,-17.1966598098349,-248.45391441461587,10.019685623810759,0.03162277660168379,-0.8245869513023739,-0.2692468724250739
15303183,1910,1,204098.0,233686,1.23,-0.22,9.92,-0.03,-0.01,-0.0,31.61,13.384701,-9.745401001607727,4.413631173374371,9.998384869567685,0.03162277660168379,-0.46338807806713694,-0.0014056387171158256
15343870,1903,1,204189.0,233962,1.24,-0.25,9.94,-0.03,-0.01,-0.0,31.75,13.425388,5.183939921271908,148.76264619117924,10.02016466930559,0.03162277660168379,0.26030992495147337,0.15149108109323248
15384183,1919,1,204325.0,234228,1.23,-0.23,9.95,-0.03,-0.01,-0.0,31.75,13.465701,10.44801506837417,206.46314557965155,10.02837474369601,0.03162277660168379,0.515485333656856,0.21260834667920298
15424184,1907,1,204437.0,234552,1.26,-0.23,9.92,-0.03,-0.01,-0.0,31.75,13.505702,3.1055144414481384,227.3777219824485,10.002344725113208,0.03162277660168379,0.15955850016042297,0.23476139100594212
15464182,1883,1,204580.0,234695,1.24,-0.22,9.93,-0.03,-0.01,-0.0,31.75,13.5457,-20.740837084533624,265.22781055495767,10.009540448991652,0.03162277660168379,-0.996390517802259,0.27485279299128984
15504184,1914,1,204621.0,234848,1.24,-0.23,9.91,-0.03,-0.01,-0.0,31.75,13.585702,11.74935305187993,363.6591063693942,9.989924924642828,0.03162277660168379,0.5785675356629799,0.379112751085587
15544182,1915,1,204710.0,235046,1.23,-0.24,9.91,-0.03,-0.01,-0.0,31.75,13.6257,9.738365922128411,533.1537390057207,9.98892386596274,0.03162277660168379,0.48108517676882795,0.5586440998263997
15584184,1875,1,204835.0,235388,1.24,-0.22,9.91,-0.03,-0.01,-0.0,31.75,13.665702,-23.606197192763705,720.4783863409593,9.989699695186037,0.03162277660168379,-1.1352885039201435,0.7570612772048217
15624182,1917,1,204969.0,235951,1.24,-0.24,9.92,-0.03,-0.01,-0.0,31.75,13.7057,12.318426058402084,806.5636056725424,10.000079999680002,0.03162277660168379,0.6061532811101031,0.8482440792373117
15664184,1905,1,205121.0,235995,1.25,-0.23,9.94,-0.03,-0.01,-0.0,31.75,13.745702,4.999288778193232,665.2893921966415,10.020928100729991,0.03162277660168379,0.25135898303170334,0.6986042370008557
15704278,1893,1,204751.0,233875,1.25,-0.21500000000000002,9.92,-0.03,-0.01,-0.0,31.75,13.785796,-6.612007553133173,260.7293032798089,10.00075622140646,0.03162277660168379,-0.3114972080651382,0.27008790418114864
15744184,1904,1,203924.0,231601,1.23,-0.24,9.93,-0.03,-0.01,-0.0,31.75,13.825702,0.7486573597606495,-294.7523767674295,10.008766157723938,0.03162277660168379,0.045310137005721014,-0.31828692320155444
15784182,1855,1,203373.0,230434,1.23,-0.23,9.93,-0.03,-0.01,-0.0,31.75,13.8657,-41.77360841477271,-785.8018225498196,10.00853136079415,0.03162277660168379,-2.0159515746680663,-0.8384141268098099
15824184,1870,1,203238.0,230410,1.24,-0.24,9.89,-0.03,-0.01,-0.0,31.75,13.905702,-31.717710067195398,-1022.1954126105597,9.970320957722475,0.03162277660168379,-1.5284931134879767,-1.0888058908271891
15864182,1893,1,203436.0,231303,1.23,-0.24,9.94,-0.03,-0.01,-0.0,31.75,13.9457,-6.166860904320513,-952.9315839804208,10.018687538794689,0.03162277660168379,-0.2899187778812282,-1.0154405672207338
15904221,1887,1,203784.0,232305,1.24,-0.22,9.96,-0.03,-0.01,-0.0,31.75,13.985739,-10.414278278117774,-679.9628810257392,10.039302764634604,0.03162277660168379,-0.4958118234806404,-0.7263078752691595
15944182,1899,1,204034.0,232785,1.21,-0.22,9.94,-0.03,-0.01,-0.0,31.75,14.0257,-1.7405940691346593,-371.10708772856253,10.015792529800125,0.03162277660168379,-0.0753560261831683,-0.39916301956137024
15984184,1895,1,204142.0,233095,1.23,-0.25499999999999995,9.91,-0.03,-0.01,-0.0,31.75,14.065702,-2.4017860225545666,-148.45187328811977,9.989295520706152,0.03162277660168379,-0.1074072264855635,-0.1633231564877338
16024195,1936,1,204238.0,233605,1.24,-0.24,9.91,-0.03,-0.01,-0.0,31.75,14.105713,39.56197653735639,-31.61943120820224,9.990160158876334,0.03162277660168379,1.9267811091303242,-0.0395724183254503
16064183,1959,1,204430.0,234169,1.24,-0.24,9.94,-0.03,-0.01,-0.0,31.75,14.145701,56.21732506227383,42.20733400455416,10.019920159362549,0.03162277660168379,2.734147122762545,0.03862603861481267
16104215,1884,1,204562.0,234756,1.26,-0.22,9.92,-0.03,-0.01,-0.0,31.75,14.185733,-4.797188923514656,155.42664531236142,10.002119775327628,0.03162277660168379,-0.2235240935867154,0.1585496925172323
16144184,1914,1,204772.0,235635,1.25,-0.22,9.9,-0.03,-0.01,-0.0,31.75,14.225702,4.91583084539339,350.5205237429981,9.981027001265952,0.03162277660168379,0.24731336979162086,0.36519616020143436
16184182,1922,1,204987.0,236189,1.25,-0.23,9.94,-0.03,-0.01,-0.0,31.75,14.2657,40.06727972248892,599.3234957886439,10.020928100729991,0.03162277660168379,1.9512756201665702,0.6287321344521267
16224183,1920,1,205054.0,236396,1.2,-0.23,9.96,-0.03,-0.01,-0.0,31.75,14.305701,6.286040598652579,806.8531818776563,10.03466491717586,0.03162277660168379,0.31373412254103494,0.8485508028536217
16264182,1846,1,205124.0,236474,1.22,-0.22,9.92,-0.03,-0.01,-0.0,31.75,14.3457,-31.09685062068243,850.2380879776529,9.997159596605428,0.03162277660168379,-1.498397026599902,0.8945047695720731
16304183,1878,1,205147.0,236187,1.26,-0.21500000000000002,9.9,-0.03,-0.01,-0.0,31.75,14.385701,-37.409323600318615,645.9136727424021,9.982175364117783,0.03162277660168379,-1.804393393959332,0.6780811738670106
16344868,1877,1,204752.0,233974,1.26,-0.25499999999999995,9.93,-0.03,-0.01,-0.0,31.61,14.426386,0.25918159345751246,214.92530092781502,10.012867970766418,0.03162277660168379,0.021582858190839587,0.22157159312117006
16383184,1924,1,203935.0,231867,1.23,-0.23,9.91,-0.03,-0.01,-0.0,31.61,14.464702,13.62943062728927,-302.77849701500014,9.98868860261446,0.03162277660168379,0.6697040696782651,-0.32678831448923035
16423182,1879,1,203449.0,231521,1.25,-0.22,9.93,-0.03,-0.01,-0.0,31.61,14.5047,-5.756886201511905,-711.5725727906255,10.010784185067621,0.03162277660168379,-0.27004530354345346,-0.7597893519835739
16463184,1917,1,203527.0,231957,1.24,-0.23,9.95,-0.03,-0.01,-0.0,31.61,14.544702,20.20265178577056,-866.4810103325526,10.02960617372387,0.03162277660168379,0.9883401736004622,-0.9238707762190315
16503183,1902,1,203670.0,232225,1.23,-0.25,9.96,-0.03,-0.01,-0.0,31.61,14.584701,3.0803054350354517,-747.5158226446898,10.038774825644811,0.03162277660168379,0.1583364966109571,-0.7978610007671306
16543184,1849,1,203903.0,233091,1.24,-0.22,9.94,-0.03,-0.01,-0.0,31.61,14.624702,-32.62438473657128,-452.9756784107745,10.019461063350663,0.03162277660168379,-1.5724440588782924,-0.4858795030043801
16583182,1902,1,204216.0,233798,1.26,-0.24,9.9,-0.03,-0.01,-0.0,31.61,14.6647,-7.058226535564829,-128.52031301576363,9.982745113444498,0.03162277660168379,-0.333127619492068,-0.14221133812188202
16623202,1877,1,204354.0,234220,1.26,-0.23,9.92,-0.03,-0.01,-0.0,31.61,14.70472,1.6642723972872944,111.09686772437117,10.002344725113208,0.03162277660168379,0.08969446566529,0.11159490323592006
16663182,1918,1,204499.0,234517,1.24,-0.23,9.91,-0.03,-0.01,-0.0,31.61,14.7447,10.083940315416479,223.767937790336,9.989924924642828,0.03162277660168379,0.49783685385952053,0.2309378514956159
16703184,1907,1,204555.0,234646,1.26,-0.23,9.94,-0.03,-0.01,-0.0,31.61,14.784702,27.20099764758538,238.9051011081214,10.022180401489488,0.03162277660168379,1.3275841463110836,0.2469713701049216
16743183,1925,1,204592.0,234698,1.24,-0.21500000000000002,9.91,-0.03,-0.01,-0.0,31.61,14.824701,25.55439643805645,229.75043252648587,9.989590832461559,0.03162277660168379,1.2477653510099533,0.23727460288479005
16783184,1902,1,204593.0,234687,1.24,-0.23,9.9,-0.03,-0.01,-0.0,31.61,14.864702,14.887531177277527,273.68090902245405,9.980005010018782,0.03162277660168379,0.7306903423025156,0.2838064462445154
16823183,1890,1,204698.0,234760,1.25,-0.23,9.95,-0.03,-0.01,-0.0,31.61,14.904701,-2.848100519799426,408.3617312782972,10.030847421828327,0.03162277660168379,-0.12904226798155868,0.42646246604305027
16863184,1902,1,204808.0,235119,1.23,-0.23,9.9,-0.03,-0.01,-0.0,31.61,14.944702,12.218264669363672,597.7899261288704,9.97876745896005,0.03162277660168379,0.6012979698407637,0.6271077536376742
16903182,1915,1,204923.0,235418,1.24,-0.24,9.96,-0.03,-0.01,-0.0,31.61,14.9847,22.777933562966844,733.7709158480442,10.039760953329518,0.03162277660168379,1.1131766475610076,0.7711409310172489
16943184,1881,1,205008.0,235528,1.26,-0.23,9.95,-0.03,-0.01,-0.0,31.61,15.024702,-6.769284956739115,690.1833470278766,10.032098484365072,0.03162277660168379,-0.3191212112610956,0.7249723007963262
16983182,1877,1,204956.0,234587,1.24,-0.23,9.91,-0.03,-0.01,-0.0,31.61,15.0647,-17.53543091033625,409.2471773849908,9.989924924642828,0.03162277660168379,-0.8410088395946772,0.42740034431860063
17023184,1875,1,204201.0,232462,1.24,-0.23,9.92,-0.03,-0.01,-0.0,31.61,15.104702,-10.802468099775414,-41.10053882418547,9.999844998798732,0.03162277660168379,-0.51462927832858,-0.04961495484344414
17063183,1872,1,203596.0,231417,1.22,-0.22,9.95,-0.03,-0.01,-0.0,31.61,15.144701,-23.145160641176975,-493.3951560902358,10.026928742142331,0.03162277660168379,-1.1129398126131766,-0.5286924418586906
17103183,1855,1,203443.0,231555,1.26,-0.23,9.89,-0.03,-0.01,-0.0,31.61,15.184701,-32.366872931801836,-780.7651105358221,9.972592441286269,0.03162277660168379,-1.559961205159026,-0.8330791631768776
17143182,1873,1,203558.0,231806,1.23,-0.24,9.92,-0.03,-0.01,-0.0,31.61,15.2247,-19.54537176181551,-835.1766831669185,9.998844933291045,0.03162277660168379,-0.9384404802756041,-0.8907127464333411
17183184,1883,1,203658.0,232273,1.25,-0.23,9.91,-0.03,-0.01,-0.0,31.61,15.264702,-8.861939387844233,-709.7999418419661,9.991171102528472,0.03162277660168379,-0.4205623827516523,-0.7579117537370539
17223182,1891,1,203828.0,232508,1.25,-0.22,9.95,-0.03,-0.01,-0.0,31.61,15.3047,1.6482259071937402,-520.0651955203824,10.03062311125286,0.03162277660168379,0.08891661399078199,-0.556941762060696
17263184,1910,1,203905.0,232671,1.23,-0.24,9.92,-0.03,-0.01,-0.0,31.61,15.344702,14.691197164179691,-361.75413460360954,9.998844933291045,0.03162277660168379,0.721173074665752,-0.38925622627172524
17303182,1904,1,203976.0,233068,1.24,-0.23,9.9,-0.03,-0.01,-0.0,31.61,15.3847,14.067607594744988,-266.59077277367055,9.980005010018782,0.03162277660168379,0.6909446453978856,-0.2884577146356862
17343183,1893,1,204119.0,233587,1.23,-0.23,9.93,-0.03,-0.01,-0.0,31.61,15.424701,-1.176030352689789,-209.66422256210785,10.00853136079415,0.03162277660168379,-0.04798886802940365,-0.22816022804463856
17383867,1882,1,204236.0,233892,1.21,-0.22,9.969999999999999,-0.03,-0.01,-0.0,31.47,15.465385,-13.794122634917535,-142.31979014536503,10.045566186134058,0.03162277660168379,-0.6596493715790406,-0.15682795873376307
17422185,1877,1,204392.0,234382,1.25,-0.24,9.93,-0.03,-0.01,-0.0,31.47,15.503703,-12.635490245824473,-21.371874949098476,10.011243678984144,0.03162277660168379,-0.6034848060733855,-0.028718047494477126
17462182,1879,1,204505.0,235288,1.24,-0.24,9.92,-0.03,-0.01,-0.0,31.47,15.5437,-23.99990479452547,172.47467267306376,10.000079999680002,0.03162277660168379,-1.1543734324940216,0.17660722801456108
17502184,1885,1,204819.0,235873,1.23,-0.23,9.9,-0.03,-0.01,-0.0,31.47,15.583702,-2.3133009083649365,420.1840761730849,9.97876745896005,0.03162277660168379,-0.10311792123312793,0.4389848774682803
17542216,1933,1,205003.0,236226,1.23,-0.24,9.93,-0.03,-0.01,-0.0,31.47,15.623734,27.080084291606642,655.1330239300228,10.008766157723938,0.03162277660168379,1.3217228859438568,0.6878464539085334
17582184,1877,1,205085.0,236534,1.23,-0.22,9.94,-0.03,-0.01,-0.0,31.47,15.663702,-13.360163311022783,774.5219458074107,10.01822838629665,0.03162277660168379,-0.6386132456230287,0.8143050551985731
17622182,1905,1,205126.0,236589,1.23,-0.22,9.93,-0.03,-0.01,-0.0,31.47,15.7037,-0.4851838382961523,683.8202875228686,10.008306550061304,0.03162277660168379,-0.014500166455656795,0.7182324492902126
17662184,1918,1,204968.0,235361,1.24,-0.23,9.91,-0.03,-0.01,-0.0,31.47,15.743702,24.70095564050927,360.0020812714782,9.989924924642828,0.03162277660168379,1.2063949111445897,0.3752391732737363
17702183,1904,1,204278.0,233473,1.22,-0.23,9.94,-0.03,-0.01,-0.0,31.47,15.783701,-5.501872424423715,-109.72186063769644,10.017230156086063,0.03162277660168379,-0.25768354141515193,-0.12229972524552819
17742209,1915,1,203812.0,232452,1.27,-0.24,9.93,-0.03,-0.01,-0.0,31.47,15.823727,25.656578023804318,-554.3151031113847,10.01376053238742,0.03162277660168379,1.252718591071454,-0.5932197964056195
17782183,1927,1,203628.0,232244,1.21,-0.24,9.92,-0.03,-0.01,-0.0,31.47,15.863701,7.156617355220206,-806.0086842693814,9.996404353566335,0.03162277660168379,0.35593522595591276,-0.8598175487465735
17822184,1836,1,203637.0,232762,1.24,-0.23,9.92,-0.03,-0.01,-0.0,31.47,15.903702,-46.87793722762992,-791.8447387457826,9.999844998798732,0.03162277660168379,-2.26338329906214,-0.844814877548134
17862182,1924,1,203980.0,233938,1.25,-0.21500000000000002,9.93,-0.03,-0.01,-0.0,31.47,15.9437,-2.9435721577655753,-565.6462035854436,10.01067555162987,0.03162277660168379,-0.13367024413254414,-0.6052218741067482
17902184,1904,1,204297.0,234709,1.24,-0.23,9.94,-0.03,-0.01,-0.0,31.47,15.983702,19.44959044252966,-261.9682884198889,10.019685623810759,0.03162277660168379,0.9518356156920325,-0.28356150737732216
17942182,1922,1,204447.0,235123,1.23,-0.25,9.92,-0.03,-0.01,-0.0,31.47,16.0237,-1.1453128173914222,-10.8283703540862,9.999089958591233,0.03162277660168379,-0.046499839205698966,-0.017550203587236957
17982184,1895,1,204561.0,235325,1.24,-0.22,9.93,-0.03,-0.01,-0.0,31.47,16.063702,-0.7913595996219321,127.47790839357519,10.009540448991652,0.03162277660168379,-0.02934199960748695,0.12894595606501125
18022191,1918,1,204645.0,235561,1.25,-0.23,9.95,-0.03,-0.01,-0.0,31.47,16.103709,4.55753997931329,174.43743544346856,10.030847421828327,0.03162277660168379,0.22994526321401565,0.17868621684121674
18062185,1900,1,204690.0,235865,1.25,-0.25,9.95,-0.03,-0.01,-0.0,31.47,16.143703,-6.746776153835587,200.8538305803088,10.031325934292036,0.03162277660168379,-0.3180300997515005,0.20666687306626072
18102182,1912,1,204873.0,236220,1.24,-0.23,9.93,-0.03,-0.01,-0.0,31.47,16.1837,2.9026093805261253,278.77883721495465,10.009765232012187,0.03162277660168379,0.14972270177185573,0.28920625100498365
18142184,1942,1,204972.0,236409,1.25,-0.23,9.93,-0.03,-0.01,-0.0,31.47,16.223702,33.96344367943952,439.7640307515451,10.011008940161826,0.03162277660168379,1.6553929031781613,0.4597242696194003
18182182,1915,1,205039.0,236567,1.23,-0.25499999999999995,9.92,-0.03,-0.01,-0.0,31.47,16.2637,0.46068064841893763,649.6686570247829,9.999216219284389,0.03162277660168379,0.03135050060981875,0.6820585115692777
18222184,1874,1,205134.0,236910,1.21,-0.23,9.95,-0.03,-0.01,-0.0,31.47,16.303702,-27.420467199454034,811.2508411378104,10.02594135231201,0.03162277660168379,-1.3201847830710343,0.8532088718791584
18262229,1910,1,205373.0,237369,1.25,-0.23,9.95,-0.03,-0.01,-0.0,31.47,16.343747,-12.303905792509946,807.0865021099999,10.030847421828327,0.03162277660168379,-0.5874112896378418,0.8487979392693868
18302184,1897,1,205237.0,236257,1.25,-0.24,9.92,-0.03,-0.01,-0.0,31.47,16.383702,-0.2877424007169645,573.2007763531424,10.001324912230379,0.03162277660168379,-0.004929216550547323,0.6010625440934979
18342183,1941,1,204562.0,234270,1.21,-0.24,9.91,-0.03,-0.01,-0.0,31.47,16.423701,18.072006010449147,156.7602658119171,9.986480861644907,0.03162277660168379,0.8850573762750242,0.15996228407408325
18382184,1899,1,203984.0,233109,1.26,-0.22,9.93,-0.03,-0.01,-0.0,31.47,16.463702,-1.3804958599562729,-294.7848354549187,10.012037754623181,0.03162277660168379,-0.05790030886656556,-0.31832130394773295
18422868,1915,1,203786.0,232582,1.24,-0.22,9.94,-0.03,-0.01,-0.0,31.47,16.504386,-3.466687592184722,-616.2901904542754,10.019461063350663,0.03162277660168379,-0.15902820180749871,-0.6588647719776317
18463184,1920,1,203709.0,232511,1.22,-0.24,9.93,-0.03,-0.01,-0.0,31.47,16.544702,17.593408557140357,-720.0575662500775,10.0075421557943,0.03162277660168379,0.8618574223722664,-0.7687767889079093
18503182,1942,1,203786.0,232869,1.24,-0.22,9.94,-0.03,-0.01,-0.0,31.47,16.5847,21.577831499411506,-633.6133446467945,10.019461063350663,0.03162277660168379,1.0550018445807574,-0.677213726090539
18543184,1922,1,203940.0,233082,1.24,-0.23,9.92,-0.03,-0.01,-0.0,31.47,16.624702,28.629658199835326,-459.95940072629645,9.999844998798732,0.03162277660168379,1.3968382945012587,-0.4932767702041454
18583182,1910,1,204023.0,233081,1.22,-0.23,9.93,-0.03,-0.01,-0.0,31.47,16.6647,-22.997450706813538,-298.8490097046494,10.007307330146308,0.03162277660168379,-1.1057795913363615,-0.3226261404680574
18623184,1836,1,204031.0,233456,1.24,-0.23,9.91,-0.03,-0.01,-0.0,31.47,16.704702,-41.506187916294415,-186.4190271242323,9.989924924642828,0.03162277660168379,-2.0029883982147516,-0.20353855581941926
18663183,1946,1,204245.0,234315,1.24,-0.24,9.9,-0.03,-0.01,-0.0,31.47,16.744701,1.698872596592223,-86.63641912072865,9.980240478064644,0.03162277660168379,0.0913717061590514,-0.0978472668558216
18703184,1885,1,204425.0,235006,1.24,-0.24,9.92,-0.03,-0.01,-0.0,31.47,16.784702,13.994605006606674,68.04218831415773,10.000079999680002,0.03162277660168379,0.6874058537309392,0.06599071775882623
18743182,1968,1,204584.0,235542,1.22,-0.24,9.93,-0.03,-0.01,-0.0,31.47,16.8247,28.586640684858143,312.44951675357504,10.0075421557943,0.03162277660168379,1.3947530256441385,0.3248707579959421
18783184,1900,1,204697.0,235921,1.25,-0.23,9.94,-0.03,-0.01,-0.0,31.47,16.864702,17.28543496538283,596.1431636099082,10.020928100729991,0.03162277660168379,0.8469284396068034,0.6253634771878149
18823182,1920,1,204833.0,236088,1.26,-0.23,9.94,-0.03,-0.01,-0.0,31.47,16.9047,1.1754925181507616,780.3436870802365,10.022180401489488,0.03162277660168379,0.0660009198969911,0.8204715340213748
18863184,1905,1,204923.0,236294,1.23,-0.24,9.94,-0.03,-0.01,-0.0,31.47,16.944702,1.7877557392482815,706.7045021379689,10.018687538794689,0.03162277660168379,0.09568030579345513,0.7424717650185069
18903182,1904,1,204736.0,234684,1.24,-0.22,9.94,-0.03,-0.01,-0.0,31.47,16.9847,5.8021374843387665,312.4394798571715,10.019461063350663,0.03162277660168379,0.290276977360118,0.32486012675930365
18943183,1936,1,203873.0,231946,1.22,-0.21500000000000002,9.93,-0.03,-0.01,-0.0,31.47,17.024701,20.35253425770233,-288.70931026293124,10.006973818292922,0.03162277660168379,0.9956057083742232,-0.31188601325409404
18983182,1882,1,203053.0,229993,1.22,-0.24,9.96,-0.03,-0.01,-0.0,31.47,17.0647,-9.025931253161481,-840.307708625902,10.03731039671485,0.03162277660168379,-0.4285118686703179,-0.8961476083327812
19023184,1904,1,202850.0,230302,1.25,-0.23,9.92,-0.03,-0.01,-0.0,31.47,17.104702,-9.591346883439604,-1090.3270848167522,10.001089940601474,0.03162277660168379,-0.45592032324453763,-1.1609720167563184
19063182,1919,1,203140.0,231714,1.24,-0.24,9.94,-0.03,-0.01,-0.0,31.47,17.1447,22.97003990807833,-949.1068721934616,10.019920159362549,0.03162277660168379,1.1224889795013497,-1.0113893730620906
19103184,1904,1,203620.0,233178,1.26,-0.24,9.93,-0.03,-0.01,-0.0,31.47,17.184702,-0.6553240521857715,-537.410315338528,10.012497191010842,0.03162277660168379,-0.022747692830808176,-0.5753139825056004
19143182,1872,1,204038.0,234003,1.22,-0.23,9.94,-0.03,-0.01,-0.0,31.47,17.2247,-30.915352076076868,-92.09367455937071,10.017230156086063,0.03162277660168379,-1.4895989065113902,-0.1036276766191486
19182184,1856,1,204158.0,234131,1.23,-0.21500000000000002,9.94,-0.03,-0.01,-0.0,31.47,17.263702,-42.308013083199874,191.349945333622,10.018119833581547,0.03162277660168379,-2.0418567766017874,0.19660021012787393
19222182,1869,1,204157.0,233869,1.22,-0.24,9.91,-0.03,-0.01,-0.0,31.47,17.3037,-36.95913165948636,264.212315929786,9.98769743234145,0.03162277660168379,-1.7825703938524704,0.27377716530408575
19262184,1873,1,204145.0,233840,1.25,-0.24,9.93,-0.03,-0.01,-0.0,31.47,17.343702,-22.70996286748044,219.93815932051422,10.011243678984144,0.03162277660168379,-1.0918436529521929,0.2268812906277512
19302183,1894,1,204255.0,234073,1.23,-0.21500000000000002,9.9,-0.03,-0.01,-0.0,31.47,17.383701,-13.948643931055075,206.2244271144596,9.978432993210909,0.03162277660168379,-0.6671397727974365,0.21235549237131934
19342184,1887,1,204373.0,234287,1.24,-0.21500000000000002,9.92,-0.03,-0.01,-0.0,31.47,17.423702,-5.126483694899044,322.72708278102186,9.999511238055588,0.03162277660168379,-0.23948661796648457,0.33575691563987936
19382182,1920,1,204467.0,234378,1.24,-0.24,9.94,-0.03,-0.01,-0.0,31.47,17.4637,6.733329688365895,560.1430230890655,10.019920159362549,0.03162277660168379,0.3354164072895503,0.5872315689259573
19422184,1892,1,204621.0,234957,1.24,-0.23,9.96,-0.03,-0.01,-0.0,31.47,17.503702,6.367318584789188,803.154504795718,10.039526881282804,0.03162277660168379,0.3176740631291887,0.8446331066130459
19462868,1891,1,204815.0,235641,1.22,-0.22,9.94,-0.03,-0.01,-0.0,31.41,17.544386,-29.089374781742666,893.6317211038177,10.01700554057948,0.03162277660168379,-1.40108487710492,0.9404679800922551
19501185,1864,1,204910.0,235160,1.23,-0.25,9.94,-0.03,-0.01,-0.0,31.41,17.582703,-17.714503400550722,726.5259349748187,10.018932078819578,0.03162277660168379,-0.8496893569887959,0.7634669346933511
19541182,1942,1,204311.0,233135,1.23,-0.22,9.92,-0.03,-0.01,-0.0,31.41,17.6227,21.316574316829097,324.4321403348896,9.998384869567685,0.03162277660168379,1.0423374341231328,0.3375629390965831
19581185,1899,1,203661.0,231638,1.24,-0.23,9.95,-0.03,-0.01,-0.0,31.41,17.662703,11.56753618090788,-165.2837404223777,10.02960617372387,0.03162277660168379,0.5697539847421944,-0.18115173171420285
19621183,1927,1,203306.0,231011,1.23,-0.23,9.94,-0.03,-0.01,-0.0,31.41,17.702701,15.297998605484501,-558.4655187596546,10.018452974386813,0.03162277660168379,0.750587701444628,-0.5976159811554201
19661184,1910,1,203212.0,230992,1.23,-0.25,9.95,-0.03,-0.01,-0.0,31.41,17.742702,10.101331496633245,-745.2064424856176,10.028853374140036,0.03162277660168379,0.4986798892742601,-0.7954148694161568
19701182,1923,1,203276.0,231441,1.24,-0.23,9.92,-0.03,-0.01,-0.0,31.41,17.7827,20.746053132080146,-739.5744172016438,9.999844998798732,0.03162277660168379,1.0146814884108966,-0.789449340716828
19741184,1937,1,203532.0,231636,1.25,-0.25,9.96,-0.03,-0.01,-0.0,31.41,17.822702,31.027792714157286,-636.7930576053752,10.04124494273494,0.03162277660168379,1.5130875762311082,-0.6805817274672402
19781182,1887,1,203461.0,231076,1.23,-0.25499999999999995,9.95,-0.03,-0.01,-0.0,31.41,17.8627,-17.834443242092505,-525.1709971978112,10.028979260124132,0.03162277660168379,-0.8555034263609497,-0.5623499065387497
19821183,1904,1,203434.0,231283,1.24,-0.22,9.93,-0.03,-0.01,-0.0,31.41,17.902701,5.677937186023788,-429.115009964994,10.009540448991652,0.03162277660168379,0.2842563828590496,-0.4606059122050793
19861182,1951,1,203590.0,232585,1.25,-0.23,9.94,-0.03,-0.01,-0.0,31.41,17.9427,32.781177533504454,-317.62682461258447,10.020928100729991,0.03162277660168379,1.5980826941562427,-0.34251589381535247
19901184,1875,1,203996.0,233677,1.23,-0.24,9.92,-0.03,-0.01,-0.0,31.41,17.982702,-11.467523664803029,-150.3557897405095,9.998844933291045,0.03162277660168379,-0.5468677667382923,-0.1653398143799088
19941183,1903,1,204283.0,234441,1.23,-0.23,9.91,-0.03,-0.01,-0.0,31.41,18.022701,-24.57928187908956,85.11826214260333,9.98868860261446,0.03162277660168379,-1.1824586668831163,0.0840779605106152
19981184,1878,1,204462.0,234779,1.25,-0.22,9.94,-0.03,-0.01,-0.0,31.41,18.062702,-7.030013688861831,359.9888484288872,10.020703568113369,0.03162277660168379,-0.3317600051463376,0.3752251568412329
20021183,1940,1,204503.0,234855,1.24,-0.24,9.94,-0.03,-0.01,-0.0,31.41,18.102701,16.55702038654243,602.5033680906348,10.019920159362549,0.03162277660168379,0.8116186306340198,0.6321003046078443
20061184,1901,1,204618.0,235205,1.23,-0.25,9.95,-0.03,-0.01,-0.0,31.41,18.142702,6.152555864248419,707.6219928150707,10.028853374140036,0.03162277660168379,0.3072634661188406,0.7434435854009884
20101182,1926,1,204759.0,235364,1.23,-0.21500000000000002,9.94,-0.03,-0.01,-0.0,31.41,18.1827,12.37781204768063,579.074095779783,10.018119833581547,0.03162277660168379,0.6090320097874223,0.6072836552983162
20141184,1927,1,204694.0,234222,1.24,-0.24,9.9,-0.03,-0.01,-0.0,31.41,18.222702,24.961538952257868,202.92418185068948,9.980240478064644,0.03162277660168379,1.219026655794712,0.20885982130395633
20181182,1911,1,203807.0,231345,1.22,-0.23,9.95,-0.03,-0.01,-0.0,31.41,18.2627,-1.9409921539817347,-302.53881647833356,10.027153135362001,0.03162277660168379,-0.08507029920846465,-0.32653444114029073
20221184,1904,1,203066.0,230556,1.23,-0.24,9.92,-0.03,-0.01,-0.0,31.41,18.302702,7.836418846496988,-726.5385354337731,9.998844933291045,0.03162277660168379,0.38888852136442753,-0.7756415321779399
20261182,1899,1,203194.0,231529,1.23,-0.23,9.91,-0.03,-0.01,-0.0,31.41,18.3427,-24.196795218217797,-888.556295332076,9.98868860261446,0.03162277660168379,-1.1639176720673343,-0.94725326112819
20301184,1843,1,203548.0,232541,1.23,-0.24,9.93,-0.03,-0.01,-0.0,31.41,18.382702,-42.00587794366901,-750.6906505099843,10.008766157723938,0.03162277660168379,-2.0272108121047787,-0.8012238277771114
20341182,1940,1,203851.0,233458,1.22,-0.24,9.94,-0.03,-0.01,-0.0,31.41,18.4227,10.452146441408402,-427.77055647774296,10.017464749126896,0.03162277660168379,0.5156856014670724,-0.45918184617932284
20381184,1884,1,204087.0,233858,1.23,-0.23,9.93,-0.03,-0.01,-0.0,31.41,18.462702,-0.9767319696746557,-95.35486858786086,10.00853136079415,0.03162277660168379,-0.03832790291795317,-0.10708198401126856
20421183,1918,1,204166.0,234022,1.24,-0.24,9.92,-0.03,-0.01,-0.0,31.41,18.502701,-2.0176275383259314,122.43910435638126,10.000079999680002,0.03162277660168379,-0.08878519023392603,0.12360877652860038
20461184,1897,1,204284.0,234327,1.24,-0.23,9.92,-0.03,-0.01,-0.0,31.41,18.542702,-2.3893144769881576,207.37451521399393,9.999844998798732,0.03162277660168379,-0.10680266981641183,0.21357368355807618
20501868,1863,1,204448.0,234582,1.24,-0.21500000000000002,9.92,-0.03,-0.01,-0.0,31.21,18.583386,-37.720334836828016,229.03551869057594,9.999511238055588,0.03162277660168379,-1.819469626188262,0.23651735504043045
20542184,1907,1,204500.0,234756,1.24,-0.23,9.94,-0.03,-0.01,-0.0,31.21,18.623702,-8.401648402072155,287.8281601083927,10.019685623810759,0.03162277660168379,-0.3982498326577485,0.29879143443516293
20582183,1923,1,204624.0,235328,1.23,-0.24,9.92,-0.03,-0.01,-0.0,31.21,18.663701,36.35740988043439,454.7059297087677,9.998844933291045,0.03162277660168379,1.7714401264215476,0.4755509611836982
20622184,1953,1,204835.0,236051,1.24,-0.23,9.93,-0.03,-0.01,-0.0,31.21,18.703702,32.453930848483324,725.8659657335796,10.009765232012187,0.03162277660168379,1.5822194505162432,0.7627678850174754
20662182,1878,1,205057.0,236511,1.24,-0.24,9.95,-0.03,-0.01,-0.0,31.21,18.7437,-6.880427319170218,1006.0756583519626,10.029840477295737,0.03162277660168379,-0.3245088238930031,1.0595703457417982
20702184,1904,1,205134.0,236709,1.22,-0.23,9.91,-0.03,-0.01,-0.0,31.21,18.783702,-9.930871272786659,1138.5144895824346,9.987462140103462,0.03162277660168379,-0.4723787271229041,1.1998516138069653
20742183,1902,1,205199.0,236566,1.22,-0.23,9.92,-0.03,-0.01,-0.0,31.21,18.823701,10.453150384824879,985.0568230640392,9.997384657999312,0.03162277660168379,0.5157342675032626,1.037306868783808
20782184,1886,1,204811.0,234240,1.25,-0.23,9.95,-0.03,-0.01,-0.0,31.21,18.863702,-15.967564103969426,521.4533769447754,10.030847421828327,0.03162277660168379,-0.7650066850033829,0.5462508945143211
20822182,1899,1,203831.0,231252,1.25,-0.25499999999999995,9.9,-0.03,-0.01,-0.0,31.21,18.9037,-1.381893509306257,-119.68760686477466,9.981859796651124,0.03162277660168379,-0.05796805975046115,-0.1328555985114086
20862183,1904,1,203137.0,230097,1.24,-0.23,9.93,-0.03,-0.01,-0.0,31.21,18.943701,14.51674027163954,-703.7593302571432,10.009765232012187,0.03162277660168379,0.7127162978129539,-0.7515134440786617
20902183,1885,1,203042.0,230268,1.23,-0.22,9.91,-0.03,-0.01,-0.0,31.21,18.983701,-23.180542893739062,-1020.1522080887819,9.988463345279893,0.03162277660168379,-1.1146549630443816,-1.086641696847459
20942184,1894,1,203105.0,230232,1.23,-0.23,9.92,-0.03,-0.01,-0.0,31.21,19.023702,14.470664769944358,-993.8392735470052,9.998609903381569,0.03162277660168379,0.7104827934180089,-1.0587706276924265
20982182,1936,1,203228.0,231104,1.23,-0.23,9.94,-0.03,-0.01,-0.0,31.21,19.0637,24.896063094605914,-709.8490242191624,10.018452974386813,0.03162277660168379,1.215852721481508,-0.757963742553693
21022249,1842,1,203611.0,232328,1.25,-0.23,9.93,-0.03,-0.01,-0.0,31.21,19.103767,-34.92647327124159,-345.71165975373,10.011008940161826,0.03162277660168379,-1.6840375233131306,-0.3722637876195872
21062183,1907,1,203862.0,232944,1.26,-0.23,9.92,-0.03,-0.01,-0.0,31.21,19.143701,1.6355642233993837,-64.94594870974771,10.002344725113208,0.03162277660168379,0.08830284039393244,-0.07487238353865218
21102184,1915,1,203934.0,233024,1.23,-0.25,9.93,-0.03,-0.01,-0.0,31.21,19.183702,32.67524071206769,64.37888316986101,10.009010940147883,0.03162277660168379,1.5929474194970357,0.06211048802426063
21142182,1905,1,203996.0,233169,1.24,-0.21500000000000002,9.95,-0.03,-0.01,-0.0,31.21,19.2237,9.864629306092723,87.24792596746167,10.02927340339269,0.03162277660168379,0.48720577909825213,0.0863337335276977
21182184,1901,1,204044.0,233002,1.24,-0.24,9.92,-0.03,-0.01,-0.0,31.21,19.263702,13.153165319419639,112.97792903053659,10.000079999680002,0.03162277660168379,0.6466171662447668,0.113587352602058
21222182,1890,1,204020.0,233191,1.23,-0.23,9.92,-0.03,-0.01,-0.0,31.21,19.3037,0.5222979184725035,229.5783695920362,9.998609903381569,0.03162277660168379,0.0343373903539524,0.23709235115085855
21262184,1889,1,204184.0,233762,1.23,-0.23,9.93,-0.03,-0.01,-0.0,31.21,19.343702,2.0450970505319055,430.7805284070832,10.00853136079415,0.03162277660168379,0.10815489486153217,0.4502088043375113
21302183,1886,1,204346.0,234132,1.25,-0.21500000000000002,9.93,-0.03,-0.01,-0.0,31.21,19.383701,-4.418289450978209,604.8217446578552,10.01067555162987,0.03162277660168379,-0.20515698729341625,0.6345559650941278
21342184,1858,1,204424.0,234387,1.23,-0.23,9.89,-0.03,-0.01,-0.0,31.21,19.423702,-24.589043965563448,602.6917317203909,9.968846472887423,0.03162277660168379,-1.1829318828491084,0.632299822291548
21382183,1919,1,204405.0,233410,1.25,-0.21500000000000002,9.94,-0.03,-0.01,-0.0,31.21,19.463701,26.944942056287253,347.6010680071783,10.020595042211815,0.03162277660168379,1.3151718823644403,0.36210382731933405
21422183,1922,1,203623.0,231141,1.25,-0.23,9.93,-0.03,-0.01,-0.0,31.21,19.503701,40.68531901890925,-94.73509875281356,10.011008940161826,0.03162277660168379,1.9812350006185873,-0.10642551417110759
21462182,1852,1,202962.0,230163,1.22,-0.23,9.969999999999999,-0.03,-0.01,-0.0,31.21,19.5437,-37.47521878890553,-546.4127325492451,10.046999552105095,0.03162277660168379,-1.8075876552891004,-0.5848494827077535
21502870,1836,1,202894.0,230163,1.23,-0.24,9.92,-0.03,-0.01,-0.0,31.25,19.584388,-49.65714011848641,-829.923908489356,9.998844933291045,0.03162277660168379,-2.398104824445354,-0.885148925869667
21541182,1881,1,202996.0,230375,1.25,-0.23,9.9,-0.03,-0.01,-0.0,31.25,19.6227,-1.6706941516673421,-873.8455793050277,9.981252426424252,0.03162277660168379,-0.07196763610328621,-0.931671442115987
21581184,1893,1,203103.0,230790,1.26,-0.24,9.9,-0.03,-0.01,-0.0,31.25,19.662702,-0.6455934475926018,-732.7348086430641,9.982745113444498,0.03162277660168379,-0.022276002945191827,-0.7822047210478638
21621182,1873,1,203263.0,231218,1.22,-0.23,9.91,-0.03,-0.01,-0.0,31.25,19.7027,-2.3609238691673906,-521.8294432242328,9.987462140103462,0.03162277660168379,-0.10542643852190868,-0.5588104806440435
21661184,1897,1,203392.0,231526,1.22,-0.23,9.93,-0.03,-0.01,-0.0,31.25,19.742702,-3.3253400354000573,-332.77795492044794,10.007307330146308,0.03162277660168379,-0.1521763960174752,-0.3585642064775881
21701182,1847,1,203500.0,231986,1.24,-0.22,9.92,-0.03,-0.01,-0.0,31.25,19.7827,-25.84117198856076,-191.86417847164864,9.999619992779726,0.03162277660168379,-1.2436286379468553,-0.20930614474122913
21741184,1889,1,203679.0,232740,1.22,-0.23,9.93,-0.03,-0.01,-0.0,31.25,19.822702,-12.520187184104113,-70.24180844765773,10.007307330146308,0.03162277660168379,-0.5978955040445816,-0.08048184046776428
21781182,1893,1,203994.0,233496,1.24,-0.23,9.93,-0.03,-0.01,-0.0,31.25,19.8627,16.34721516264153,82.92729082751269,10.009765232012187,0.03162277660168379,0.8014483476761659,0.08175724964719432
21821184,1931,1,204271.0,234190,1.24,-0.23,9.91,-0.03,-0.01,-0.0,31.25,19.902702,32.05667437615618,309.1729684507989,9.989924924642828,0.03162277660168379,1.5629624908691648,0.3214001871179015
21861182,1902,1,204457.0,234760,1.23,-0.24,9.91,-0.03,-0.01,-0.0,31.25,19.9427,19.751543169453956,611.9147363088138,9.98892386596274,0.03162277660168379,0.9664727377599092,0.6420689720719723
21901184,1891,1,204678.0,235235,1.23,-0.23,9.94,-0.03,-0.01,-0.0,31.25,19.982702,-7.117029169735197,928.2676303736284,10.018452974386813,0.03162277660168379,-0.3359780701007825,0.9771548734136241
21941183,1887,1,204914.0,235710,1.22,-0.21500000000000002,9.92,-0.03,-0.01,-0.0,31.25,20.022701,1.8951444004140126,1124.4705722837714,9.997050815115426,0.03162277660168379,0.10088595820865172,1.1849760783695495
21981184,1895,1,205023.0,235986,1.24,-0.23,9.94,-0.03,-0.01,-0.0,31.25,20.062702,-5.569513892963706,1048.6872828180917,10.019685623810759,0.03162277660168379,-0.2609624534553089,1.1047052405372904
22021182,1878,1,205005.0,234702,1.21,-0.25,9.92,-0.03,-0.01,-0.0,31.25,20.1027,-8.928252794573105,634.1275435018606,9.996649438686944,0.03162277660168379,-0.4237769171554784,0.6655971226255293
22061184,1920,1,204006.0,231423,1.23,-0.21500000000000002,9.95,-0.03,-0.01,-0.0,31.25,20.142702,17.920700114194496,-19.55276663940122,10.028041932501079,0.03162277660168379,0.8777228411786611,-0.026791219704913403
22101183,1893,1,203103.0,229963,1.23,-0.22,9.93,-0.03,-0.01,-0.0,31.25,20.182701,1.076194228312967,-669.6572180414405,10.008306550061304,0.03162277660168379,0.06118744725744245,-0.7153919568919136
22141184,1883,1,203000.0,230147,1.24,-0.23,9.93,-0.03,-0.01,-0.0,31.25,20.222702,-17.41554317356078,-1063.0412931212384,10.009765232012187,0.03162277660168379,-0.8351972959947946,-1.132070482186388
22181182,1869,1,203177.0,230889,1.22,-0.24,9.94,-0.03,-0.01,-0.0,31.25,20.2627,-29.663419504496396,-1082.803496881374,10.017464749126896,0.03162277660168379,-1.4289116258975327,-1.1530029155027899
22221184,1858,1,203483.0,232141,1.25,-0.21500000000000002,9.9,-0.03,-0.01,-0.0,31.25,20.302702,-41.811630357532216,-798.8582848364114,9.98091804394766,0.03162277660168379,-2.0177946837636442,-0.8522437345539373
22261182,1881,1,203943.0,233240,1.25,-0.24,9.91,-0.03,-0.01,-0.0,31.25,20.3427,-20.708834452901577,-396.64973145675395,9.991406307422395,0.03162277660168379,-0.9948391940885671,-0.426218184716762
22301184,1893,1,204226.0,233832,1.25,-0.25499999999999995,9.94,-0.03,-0.01,-0.0,31.25,20.382702,-10.841425785983171,-53.3312393010643,10.021533066352672,0.03162277660168379,-0.5165177474751029,-0.06256990284684393
22341183,1914,1,204396.0,234432,1.23,-0.23,9.92,-0.03,-0.01,-0.0,31.25,20.422701,13.10945701535717,148.25987240257015,9.998609903381569,0.03162277660168379,0.644498411469942,0.1509585352835124
22381184,1925,1,204628.0,235079,1.24,-0.25,9.94,-0.03,-0.01,-0.0,31.25,20.462702,16.451366692408268,228.92482199785204,10.02016466930559,0.03162277660168379,0.8064970805367042,0.2364001033833322
22421182,1888,1,204762.0,235507,1.23,-0.24,9.91,-0.03,-0.01,-0.0,31.25,20.5027,-14.249958456680888,267.8675185430151,9.98892386596274,0.03162277660168379,-0.6817459581342397,0.27764881271183567
22461191,1926,1,204930.0,236013,1.25,-0.21500000000000002,9.94,-0.03,-0.01,-0.0,31.25,20.542709,17.739605206917208,345.3780105482017,10.020595042211815,0.03162277660168379,0.8689442873610197,0.3597491303137083
22501182,1931,1,205099.0,236448,1.21,-0.21500000000000002,9.95,-0.03,-0.01,-0.0,31.25,20.5827,22.994472560826335,498.2733879081763,10.025608460337954,0.03162277660168379,1.1236733494004307,0.521698289922605
22541870,1906,1,205231.0,236827,1.22,-0.23,9.94,-0.03,-0.01,-0.0,31.13,20.623388,0.9887225232244005,694.022019156019,10.017230156086063,0.03162277660168379,0.05694726688911724,0.7290382819652867
22580183,1926,1,205346.0,237124,1.23,-0.24,9.94,-0.03,-0.01,-0.0,31.13,20.661701,13.357668096032773,831.4562715319106,10.018687538794689,0.03162277660168379,0.6565304137090185,0.8746107777337511
22620184,1884,1,205472.0,237395,1.25,-0.22,9.94,-0.03,-0.01,-0.0,31.13,20.701702,-20.742501068179084,782.5138594496448,10.020703568113369,0.03162277660168379,-0.9964711792090482,0.822770214318325
22660218,1911,1,205437.0,236614,1.24,-0.21500000000000002,9.92,-0.03,-0.01,-0.0,31.13,20.741736,-1.515177229319922,470.8285619376948,9.999511238055588,0.03162277660168379,-0.06442897202428816,0.49262830377732447
22700184,1972,1,204792.0,234227,1.22,-0.22,9.91,-0.03,-0.01,-0.0,31.13,20.781702,64.88499335818473,-57.5978543855811,9.987236855106621,0.03162277660168379,3.1543112993984495,-0.0670891678451919
22740183,1923,1,203970.0,232590,1.24,-0.24,9.93,-0.03,-0.01,-0.0,31.13,20.821701,11.799153836628667,-632.7960520526098,10.01,0.03162277660168379,0.5809816227052408,-0.6763480370745056
22780184,1872,1,203731.0,232432,1.24,-0.21500000000000002,9.91,-0.03,-0.01,-0.0,31.13,20.861702,-35.35892526492664,-1045.5959236173844,9.989590832461559,0.03162277660168379,-1.7050005816187828,-1.113592075716557
22820182,1920,1,203809.0,232653,1.24,-0.23,9.93,-0.03,-0.01,-0.0,31.13,20.9017,7.529921638599915,-1163.6775507147163,10.009765232012187,0.03162277660168379,0.37403110612877166,-1.2386659700609268
22860184,1913,1,203942.0,233263,1.24,-0.24,9.95,-0.03,-0.01,-0.0,31.13,20.941702,9.119821911136167,-996.1017505734935,10.029840477295737,0.03162277660168379,0.4511013303387294,-1.0611670785165188
22900183,1921,1,204231.0,234332,1.23,-0.24,9.94,-0.03,-0.01,-0.0,31.13,20.981701,5.119705637981718,-667.3672841157603,10.018687538794689,0.03162277660168379,0.2571961758059099,-0.7129664232935323
22940184,1939,1,204657.0,235238,1.23,-0.23,9.93,-0.03,-0.01,-0.0,31.13,21.021702,40.17779670590405,-330.0345028607843,10.00853136079415,0.03162277660168379,1.9566329176260047,-0.3556582994242717
22980183,1927,1,204862.0,235606,1.24,-0.25,9.969999999999999,-0.03,-0.01,-0.0,31.13,21.061701,8.802921115042814,-78.61536298016443,10.049925372857253,0.03162277660168379,0.4357396024183564,-0.08935123954898026
23020184,1882,1,205019.0,235845,1.22,-0.25,9.969999999999999,-0.03,-0.01,-0.0,31.13,21.101702,-14.44316666943884,86.1332050968033,10.047477295321446,0.03162277660168379,-0.6911117029760258,0.08515300385935339
23060182,1947,1,205220.0,236722,1.22,-0.23,9.91,-0.03,-0.01,-0.0,31.13,21.1417,31.724205161967813,230.77531110294026,9.987462140103462,0.03162277660168379,1.54684608575683,0.23836017019901418
23100184,1915,1,205490.0,237369,1.26,-0.23,9.92,-0.03,-0.01,-0.0,31.13,21.181702,15.260138321589837,423.2438607375295,10.002344725113208,0.03162277660168379,0.7487524287430518,0.442225848826292
23140182,1905,1,205621.0,237753,1.23,-0.23,9.94,-0.03,-0.01,-0.0,31.13,21.2217,-2.058533661126081,667.1324070259228,10.018452974386813,0.03162277660168379,-0.0907681096095787,0.7005563869474568
23180184,1941,1,205731.0,237938,1.23,-0.23,9.93,-0.03,-0.01,-0.0,31.13,21.261702,35.105226525711565,875.5310226190388,10.00853136079415,0.03162277660168379,1.7107406891250712,0.9212954389823801
23220183,1919,1,205774.0,237910,1.24,-0.23,9.94,-0.03,-0.01,-0.0,31.13,21.301701,20.357250571836214,908.6378919313244,10.019685623810759,0.03162277660168379,0.9958343311337899,0.956362749420307
23260184,1920,1,205744.0,237663,1.22,-0.23,9.91,-0.03,-0.01,-0.0,31.13,21.341702,10.043136327073125,666.3858066383916,9.987462140103462,0.03162277660168379,0.4958588854393591,0.6997655762152286
23300182,1909,1,205399.0,235503,1.24,-0.21500000000000002,9.89,-0.03,-0.01,-0.0,31.13,21.3817,15.358240294312727,181.3994006366766,9.969750498382595,0.03162277660168379,0.7535079100545501,0.18606043855893356
23340184,1869,1,204388.0,232644,1.26,-0.24,9.93,-0.03,-0.01,-0.0,31.13,21.421702,-41.70686723275776,-365.2478622332989,10.012497191010842,0.03162277660168379,-2.0127163039087725,-0.39295683686767835
23380183,1847,1,203823.0,232317,1.22,-0.22,9.95,-0.03,-0.01,-0.0,31.13,21.461701,-44.7943675141985,-739.458913161424,10.026928742142331,0.03162277660168379,-2.162382508166574,-0.7893269970425587
23420184,1927,1,204088.0,233587,1.25,-0.25499999999999995,9.91,-0.03,-0.01,-0.0,31.13,21.501702,17.35867716976672,-801.1569378917823,9.991777869828773,0.03162277660168379,0.8504788466423927,-0.8546785035899774
23460183,1879,1,204352.0,234405,1.24,-0.24,9.92,-0.03,-0.01,-0.0,31.13,21.541701,-12.077211174416265,-588.5706402751914,10.000079999680002,0.03162277660168379,-0.5764222953307965,-0.6295037936815379
23500184,1856,1,204593.0,234871,1.24,-0.25,9.92,-0.03,-0.01,-0.0,31.13,21.581702,-53.70123577440513,-275.0463334651855,10.000324994718921,0.03162277660168379,-2.5941418742604174,-0.29741397591485386
23540182,1858,1,204682.0,234915,1.23,-0.22,9.91,-0.03,-0.01,-0.0,31.13,21.6217,-30.27337778537715,-41.75729845236629,9.988463345279893,0.03162277660168379,-1.4584792800946158,-0.050310604847292974
23580870,1879,1,204595.0,234629,1.22,-0.23,9.95,-0.03,-0.01,-0.0,31.25,21.662388,-34.57964855108976,31.49519908935081,10.027153135362001,0.03162277660168379,-1.6672252367783171,0.027279578852004622
23621183,1854,1,204559.0,234382,1.22,-0.24,9.94,-0.03,-0.01,-0.0,31.25,21.702701,-28.89564318046701,-9.525637898173198,10.017464749126896,0.03162277660168379,-1.3916937610677798,-0.01617032912619537
23661184,1921,1,204590.0,234599,1.24,-0.23,9.94,-0.03,-0.01,-0.0,31.25,21.742702,2.235700173267369,-45.34556129409697,10.019685623810759,0.03162277660168379,0.11739435827825744,-0.05411134860886494
23701182,1877,1,204670.0,235052,1.24,-0.21500000000000002,9.93,-0.03,-0.01,-0.0,31.25,21.7827,-3.2065047710609775,39.90347278252111,10.0094318020555,0.03162277660168379,-0.1464158708921777,0.03618575300771196
23741184,1904,1,204847.0,235606,1.23,-0.24,9.91,-0.03,-0.01,-0.0,31.25,21.822702,-14.801426099142086,295.5100438974839,9.98892386596274,0.03162277660168379,-0.7084782856790494,0.3069282051167742
23781183,1873,1,205063.0,236208,1.25,-0.22,9.91,-0.03,-0.01,-0.0,31.25,21.862701,-12.746343685192539,669.8546189504985,9.990945901164714,0.03162277660168379,-0.6088584131946126,0.7034397961196283
23821184,1899,1,205228.0,236788,1.25,-0.23,9.95,-0.03,-0.01,-0.0,31.25,21.902702,-11.6003597058987,1013.994649140898,10.030847421828327,0.03162277660168379,-0.5533069778304919,1.0679582638421556
23861182,1892,1,205407.0,237198,1.23,-0.22,9.94,-0.03,-0.01,-0.0,31.25,21.9427,-7.164583725807378,1138.0412304002639,10.01822838629665,0.03162277660168379,-0.3382832714785025,1.1993503303270252
23901184,1900,1,205489.0,236695,1.23,-0.21500000000000002,9.9,-0.03,-0.01,-0.0,31.25,21.982702,2.432622083908422,915.3236576601951,9.978432993210909,0.03162277660168379,0.1269401241776171,0.9634444163734115
23941183,1902,1,204841.0,233750,1.23,-0.23,9.92,-0.03,-0.01,-0.0,31.25,22.022701,-12.52893454941756,379.53332982356704,9.998609903381569,0.03162277660168379,-0.5983195315245432,0.39592697524485926
23981184,1855,1,203650.0,231151,1.26,-0.23,9.93,-0.03,-0.01,-0.0,31.25,22.062702,-31.474768181846358,-266.33666966727236,10.01226248157728,0.03162277660168379,-1.516716534857688,-0.2881885646767681
24021182,1907,1,203249.0,230678,1.21,-0.21500000000000002,9.96,-0.03,-0.01,-0.0,31.25,22.1027,-18.345087279092272,-758.8635059433944,10.035533119869617,0.03162277660168379,-0.8802568345481621,-0.8098806432538119
24061184,1859,1,203238.0,230866,1.24,-0.23,9.92,-0.03,-0.01,-0.0,31.25,22.142702,-22.761094613023268,-930.6096487142063,9.999844998798732,0.03162277660168379,-1.094322258158635,-0.991796826516288
24099233,1923,1,203415.0,231393,1.24,-0.23,9.93,-0.03,-0.01,-0.0,31.25,22.180751,-6.451890652803783,-797.1438833045056,10.009765232012187,0.03162277660168379,-0.303735560607525,-0.8504278138104955
24139185,1932,1,203610.0,231867,1.23,-0.23,9.93,-0.03,-0.01,-0.0,31.25,22.220703,48.89242781481606,-517.5386358215242,10.00853136079415,0.03162277660168379,2.3790736109655337,-0.5542655907663315
24179183,1965,1,203733.0,231914,1.22,-0.23,9.92,-0.03,-0.01,-0.0,31.25,22.260701,36.87648905295185,-274.72580791903425,9.997384657999312,0.03162277660168379,1.79660242678698,-0.29707447027558154
24219184,1905,1,203716.0,231738,1.22,-0.23,9.92,-0.03,-0.01,-0.0,31.25,22.300702,16.05324687892298,-169.23961536791737,9.997384657999312,0.03162277660168379,0.7871982705309729,-0.18534185592861713
24259183,1972,1,203741.0,231761,1.23,-0.23,9.93,-0.03,-0.01,-0.0,31.25,22.340701,49.6584354849509,-184.30318601770122,10.00853136079415,0.03162277660168379,2.4162057405107804,-0.2012974240403864
24299207,1959,1,203761.0,231802,1.24,-0.24,9.91,-0.03,-0.01,-0.0,31.25,22.380725,61.130496755613244,-217.21270627760325,9.990160158876334,0.03162277660168379,2.9723125288125978,-0.2361556992953341
24339183,1961,1,203936.0,232184,1.22,-0.22,9.94,-0.03,-0.01,-0.0,31.25,22.420701,46.31573862177326,-142.15752837321128,10.01700554057948,0.03162277660168379,2.2541689126913496,-0.15665608854324004
24379184,1926,1,204132.0,232852,1.23,-0.21500000000000002,9.94,-0.03,-0.01,-0.0,31.25,22.460702,20.96839904105885,120.75818026051579,10.018119833581547,0.03162277660168379,1.0254596795673891,0.12182831560563318
24419183,1936,1,204400.0,233695,1.26,-0.25,9.93,-0.03,-0.01,-0.0,31.25,22.500701,24.478962283798783,544.3950926716603,10.012741882221873,0.03162277660168379,1.1956338099168344,0.570551116313753
24459185,1936,1,204677.0,234749,1.23,-0.22,9.93,-0.03,-0.01,-0.0,31.25,22.540703,31.935144495751,968.8786661675498,10.008306550061304,0.03162277660168379,1.5570713445546258,1.0201707135994773
24499182,1906,1,204976.0,235573,1.24,-0.22,9.93,-0.03,-0.01,-0.0,31.25,22.5807,-10.498136856365448,1152.734334016641,10.009540448991652,0.03162277660168379,-0.49987685796054937,1.2149134940001582
24539185,1901,1,205195.0,235347,1.23,-0.22,9.93,-0.03,-0.01,-0.0,31.25,22.620703,4.934850449854736,908.6279815974449,10.008306550061304,0.03162277660168379,0.24823534282700016,0.9563522522406608
24579182,1935,1,204575.0,231926,1.24,-0.25499999999999995,9.92,-0.03,-0.01,-0.0,31.25,22.6607,11.884287887938468,250.01700772851459,10.000451239819132,0.03162277660168379,0.5851084855882075,0.25874127427009685
24619870,1844,1,203083.0,228248,1.25,-0.22,9.92,-0.03,-0.01,-0.0,31.19,22.701388,-47.27226584766986,-574.4054575156274,10.000864962591987,0.03162277660168379,-2.282498331422252,-0.6144998119835381
24660182,1893,1,202455.0,227812,1.21,-0.23,9.92,-0.03,-0.01,-0.0,31.19,22.7417,-27.920473609655534,-1215.7098810762109,9.996169266273956,0.03162277660168379,-1.3444225335804878,-1.2937794229333253
24700184,1897,1,202642.0,228723,1.24,-0.23,9.92,-0.03,-0.01,-0.0,31.19,22.781702,0.41242009510834965,-1440.1132108676138,9.999844998798732,0.03162277660168379,0.02901107610100332,-1.53147091695144
24740182,1901,1,203020.0,229828,1.25,-0.23,9.92,-0.03,-0.01,-0.0,31.19,22.8217,-8.134698550820968,-1256.1798972851286,10.001089940601474,0.03162277660168379,-0.3853094707720789,-1.3366458929833767
24780184,1904,1,203354.0,230792,1.25,-0.24,9.92,-0.03,-0.01,-0.0,31.19,22.861702,-2.978179489282394,-863.8839355392264,10.001324912230379,0.03162277660168379,-0.13534783035941783,-0.921119914240841
24820182,1882,1,203614.0,231311,1.23,-0.22,9.94,-0.03,-0.01,-0.0,31.19,22.9017,-14.396908212537536,-490.43916366732657,10.01822838629665,0.03162277660168379,-0.6888693298495007,-0.5255614087498652
24860184,1904,1,203782.0,231862,1.23,-0.23,9.92,-0.03,-0.01,-0.0,31.19,22.941702,-9.884073069893118,-253.14333027193598,9.998609903381569,0.03162277660168379,-0.47011018987441694,-0.2742139745720642
24900182,1878,1,203939.0,232670,1.23,-0.23,9.92,-0.03,-0.01,-0.0,31.19,22.9817,-10.718015881576513,-132.83583765252993,9.998609903381569,0.03162277660168379,-0.5105354672235384,-0.14678240887799993
24940184,1893,1,204257.0,233579,1.24,-0.24,9.94,-0.03,-0.01,-0.0,31.19,23.021702,-22.2325437594079,-36.08091025857534,10.019920159362549,0.03162277660168379,-1.0687008191928322,-0.04429808626451101
24980182,1879,1,204525.0,234376,1.22,-0.23,9.93,-0.03,-0.01,-0.0,31.19,23.0617,-6.309690766625693,126.02360388946276,10.007307330146308,0.03162277660168379,-0.2968424382528171,0.12740553413517142
25020184,1906,1,204783.0,234944,1.23,-0.22,9.95,-0.03,-0.01,-0.0,31.19,23.101702,-7.220504864039653,388.2010651801518,10.028150377811453,0.03162277660168379,-0.3409940419186901,0.40510797522634523
25060183,1879,1,204982.0,235585,1.23,-0.23,9.94,-0.03,-0.01,-0.0,31.19,23.141701,-5.683790190634155,711.0645809775255,10.018452974386813,0.03162277660168379,-0.2665019832204656,0.7470900282785677
25100184,1902,1,205197.0,236193,1.23,-0.24,9.92,-0.03,-0.01,-0.0,31.19,23.181702,-6.209013191043708,983.1526825693898,9.998844933291045,0.03162277660168379,-0.29196210490295177,1.03528997358259
25140182,1866,1,205371.0,236612,1.22,-0.23,9.94,-0.03,-0.01,-0.0,31.19,23.2217,-21.44691074622519,1057.5924457940193,10.017230156086063,0.03162277660168379,-1.0306173535071845,1.1141377275426776
25180184,1899,1,205545.0,236680,1.24,-0.22,9.92,-0.03,-0.01,-0.0,31.19,23.261702,-1.3526316837444685,832.8402574185661,9.999619992779726,0.03162277660168379,-0.05654959628089892,0.8760767170912682
25220182,1882,1,205060.0,234274,1.23,-0.23,9.93,-0.03,-0.01,-0.0,31.19,23.3017,-9.74208963865648,339.9928018086701,10.00853136079415,0.03162277660168379,-0.4632275601469243,0.3540450335336448
25260184,1874,1,204005.0,231780,1.23,-0.23,9.95,-0.03,-0.01,-0.0,31.19,23.341702,-19.770851312801696,-239.41276029488182,10.02837474369601,0.03162277660168379,-0.9493705743509668,-0.25967034148694007
25300182,1918,1,203682.0,231842,1.25,-0.23,9.91,-0.03,-0.01,-0.0,31.19,23.3817,25.2979133504801,-664.7937970442165,9.991171102528472,0.03162277660168379,1.2353323642327148,-0.7102405457967939
25340184,1906,1,203823.0,232378,1.21,-0.24,9.95,-0.03,-0.01,-0.0,31.19,23.421702,13.756370926398509,-781.3564567370931,10.026175741527773,0.03162277660168379,0.6758574853878061,-0.8337055262624553
25380183,1879,1,204036.0,233165,1.24,-0.21500000000000002,9.94,-0.03,-0.01,-0.0,31.19,23.461701,-10.810804544556985,-606.9182041490294,10.01935252399076,0.03162277660168379,-0.5150333864852538,-0.6489378184476553
25420184,1904,1,204350.0,234070,1.21,-0.25,9.93,-0.03,-0.01,-0.0,31.19,23.501702,11.241470875252336,-297.2277496760371,10.00657283988879,0.03162277660168379,0.5539480083246464,-0.3209088766522712
25460183,1890,1,204561.0,234214,1.24,-0.23,9.94,-0.03,-0.01,-0.0,31.19,23.541701,1.3541596370201079,-27.591701805441527,10.019685623810759,0.03162277660168379,0.07466178696398111,-0.03530618475336914
25500184,1877,1,204584.0,234475,1.25,-0.23,9.94,-0.03,-0.01,-0.0,31.19,23.581702,-12.695730239888723,115.49956867462608,10.020928100729991,0.03162277660168379,-0.6064049325298281,0.11625831249795657
25540183,1891,1,204680.0,234911,1.22,-0.23,9.92,-0.03,-0.01,-0.0,31.19,23.621701,-1.8689365400538924,165.57502490606407,9.997384657999312,0.03162277660168379,-0.0815774120023092,0.16929901388306234
25580184,1889,1,204900.0,235243,1.24,-0.22,9.94,-0.03,-0.01,-0.0,31.19,23.661702,6.3070335198626175,228.16371894561786,10.019461063350663,0.03162277660168379,0.31475175186812393,0.23559393120328723
25620868,1907,1,205025.0,235617,1.24,-0.24,9.91,-0.03,-0.01,-0.0,31.21,23.702386,7.125105470496171,395.61787132349474,9.990160158876334,0.03162277660168379,0.3544076911394771,0.4129639715464206
25659184,1883,1,205165.0,236070,1.23,-0.23,9.93,-0.03,-0.01,-0.0,31.21,23.740702,6.628931544487265,672.8877860048631,10.00853136079415,0.03162277660168379,0.33035571983964235,0.7066525737973419
25699182,1923,1,205313.0,236458,1.27,-0.24,9.91,-0.03,-0.01,-0.0,31.21,23.7807,18.3933932747119,951.5576379144921,9.993928156635908,0.03162277660168379,0.9006365851995202,1.0018240113146837
25739205,1904,1,205456.0,236616,1.25,-0.23,9.92,-0.03,-0.01,-0.0,31.21,23.820723,28.944090302416697,1055.0448297581531,10.001089940601474,0.03162277660168379,1.4120803528009889,1.1114392530489505
25779182,1923,1,205532.0,236495,1.22,-0.23,9.9,-0.03,-0.01,-0.0,31.21,23.8607,18.553705091500067,846.0521839872146,9.977539776918958,0.03162277660168379,0.9084076812089952,0.8900709950187786
25819184,1889,1,205026.0,233938,1.27,-0.21500000000000002,9.92,-0.03,-0.01,-0.0,31.21,23.900702,9.661844471066132,335.84264622680905,10.003275713485058,0.03162277660168379,0.4773758086454844,0.34964912425022576
25859183,1922,1,203821.0,231191,1.24,-0.24,9.92,-0.03,-0.01,-0.0,31.21,23.940701,21.135013546045926,-291.50141728379316,10.000079999680002,0.03162277660168379,1.0335362976281564,-0.31484345639838274
25899184,1899,1,203394.0,230963,1.23,-0.23,9.93,-0.03,-0.01,-0.0,31.21,23.980702,12.842104443891708,-777.0351565715642,10.00853136079415,0.03162277660168379,0.6315385277703925,-0.8291283379765235
25939201,1888,1,203444.0,231123,1.24,-0.24,9.91,-0.03,-0.01,-0.0,31.21,24.020719,-9.73369465554073,-943.5151960863444,9.990160158876334,0.03162277660168379,-0.46282061435155214,-1.0054665828378921
25979184,1879,1,203577.0,231517,1.26,-0.23,9.92,-0.03,-0.01,-0.0,31.21,24.060702,-12.929674502122907,-793.0620025919975,10.002344725113208,0.03162277660168379,-0.6177453524633749,-0.8461042223296487
26019183,1880,1,203817.0,232167,1.23,-0.23,9.94,-0.03,-0.01,-0.0,31.21,24.100701,-17.21389534004339,-479.9237329852425,10.018452974386813,0.03162277660168379,-0.8254224415532352,-0.5144233011674517
26059184,1899,1,203981.0,232318,1.23,-0.23,9.91,-0.03,-0.01,-0.0,31.21,24.140702,2.4538582260797033,-194.45894763602166,9.98868860261446,0.03162277660168379,0.12796954361150673,-0.21205456456140415
26099182,1917,1,203969.0,232443,1.23,-0.22,9.92,-0.03,-0.01,-0.0,31.21,24.1807,19.538659544820515,-48.93182912281091,9.998384869567685,0.03162277660168379,0.9561532296973343,-0.057909979221648186
26139202,1902,1,204014.0,232578,1.23,-0.23,9.96,-0.03,-0.01,-0.0,31.21,24.22072,-0.5632948142484062,-30.82338573577013,10.03829666826001,0.03162277660168379,-0.018286586606585827,-0.03872923459094587
26179182,1906,1,204136.0,232880,1.23,-0.23,9.94,-0.03,-0.01,-0.0,31.21,24.2607,9.30581430796363,-31.963172510614932,10.018452974386813,0.03162277660168379,0.46011728937241975,-0.03993651445451466
26219184,1918,1,204214.0,232897,1.23,-0.24,9.93,-0.03,-0.01,-0.0,31.21,24.300702,8.507258789066556,74.10655668271457,10.008766157723938,0.03162277660168379,0.4214074067787659,0.07241419097171656
26259182,1872,1,204259.0,233099,1.24,-0.23,9.93,-0.03,-0.01,-0.0,31.21,24.3407,-25.68452825867414,342.1409484713072,10.009765232012187,0.03162277660168379,-1.2360353520081169,0.35632038385971554
26299184,1893,1,204402.0,233861,1.25,-0.24,9.95,-0.03,-0.01,-0.0,31.21,24.380702,-20.084149369099162,693.8448737151965,10.031081696407421,0.03162277660168379,-0.9645576598936791,0.7288506467616258
