timestamp_us,ecg,leads,ir,red,accX,accY,accZ,gyroX,gyroY,gyroZ,temp,time_sec,ecg_filtered,ppg_filtered,accel_magnitude,gyro_magnitude,ecg_norm,ppg_norm
1948965,1663.0,1,179743.0,210086,0.5549999999999999,-0.22,9.930000000000001,-0.03,-0.01,-0.01,32.03,0.030476,-1.6026700757518446,-114.06383853734081,9.947930689344394,0.033166247903554,-0.05693275090005214,-0.14354460648121833
1989202,1721.0,1,179952.0,210794,0.57,-0.22,9.98,-0.04,-0.01,-0.0,32.03,0.070713,34.457957569248876,436.4950916432981,9.998684913527379,0.04123105625617661,0.8807165538924172,0.5744911851412332
2029192,1766.0,1,180022.0,211740,0.58,-0.2,9.98,-0.03,-0.01,-0.01,32.03,0.110703,52.059737302483576,599.4019720812734,9.998839932712196,0.033166247903554,1.338398452622923,0.7869534020698491
2069201,1789.0,1,180451.0,212234,0.58,-0.21,9.95,-0.04,-0.01,-0.01,32.03,0.150712,57.544904804919526,199.73602465350697,9.969102266503237,0.042426406871192854,1.481023909560646,0.2657113710820369
2109193,1815.0,1,179403.0,206693,0.57,-0.22,9.96,-0.04,-0.01,-0.01,32.03,0.190704,55.40535881442552,-611.8946601563188,9.978722363108416,0.042426406871192854,1.4253913834075316,-0.7928127020472192
2149196,1834.0,1,177588.0,204508,0.57,-0.22,9.97,-0.03,-0.01,-0.0,32.03,0.230707,55.818975793204146,-1433.8829905700793,9.988703619589481,0.03162277660168379,1.4361462620086507,-1.8648451570278533
2189192,1874.0,1,177402.0,204832,0.57,-0.21,9.96,-0.03,-0.01,-0.01,32.03,0.270703,73.67170601658903,-1858.4250050158032,9.978506902337644,0.033166247903554,1.9003533814020659,-2.4185304116099715
2229195,1895.0,1,177803.0,205780,0.58,-0.2,9.96,-0.03,-0.01,-0.01,32.03,0.310706,70.49106567039705,-1726.996431812651,9.978877692406096,0.033166247903554,1.8176502948456885,-2.247122022010748
2269208,1888.0,1,178282.0,207424,0.58,-0.21,9.98,-0.03,-0.01,-0.01,32.03,0.350719,50.093821921342105,-1199.8853117609935,9.999044954394394,0.033166247903554,1.2872806737380156,-1.5596667295589337
2309196,1925.0,1,178989.0,208889,0.58,-0.22,9.96,-0.03,-0.01,-0.0,32.03,0.390707,58.54206324835809,-589.4354755420021,9.979298572545067,0.03162277660168379,1.506952047319716,-0.7635215625892787
2349192,1936.0,1,179304.0,209446,0.58,-0.22,9.95,-0.03,-0.01,-0.01,32.03,0.430703,61.64751610957132,-109.80596764646039,9.969317930530654,0.033166247903554,1.5877001070886105,-0.1379915157434904
2389196,1947.0,1,179459.0,209746,0.58,-0.23,9.99,-0.03,-0.01,-0.01,32.03,0.470707,45.2454699419436,239.01859282959722,10.00946552019637,0.033166247903554,1.1612137093017365,0.3169434706649596
2429193,1948.0,1,179470.0,210052,0.58,-0.21,9.99,-0.03,-0.01,-0.01,32.03,0.510704,38.72567237755292,566.9493300370773,10.009025926632422,0.033166247903554,0.9916857766816821,0.7446288528834452
2469196,1969.0,1,179722.0,210799,0.58,-0.2,9.97,-0.03,-0.01,-0.01,32.03,0.550707,38.2651113746877,890.1050322346135,9.988858793676084,0.033166247903554,0.9797102584405024,1.1660866618932553
2509192,1975.0,1,180128.0,211948,0.57,-0.18,9.96,-0.03,-0.01,-0.01,32.03,0.590703,34.052664683774545,1044.1436729040354,9.977920625060113,0.033166247903554,0.8701781185650158,1.366982971498523
2549196,1979.0,1,180538.0,212620,0.58,-0.2,9.96,-0.03,-0.01,-0.01,32.03,0.630707,24.78467991342335,820.154241257839,9.978877692406096,0.033166247903554,0.6291917563115084,1.0748572424428335
2589192,1995.0,1,179644.0,207081,0.58,-0.22,9.96,-0.04,-0.01,-0.01,32.03,0.670703,26.701542647193214,201.8254237149294,9.979298572545067,0.042426406871192854,0.6790340670831314,0.2684363533261564
2629196,2003.0,1,177821.0,205005,0.59,-0.21,9.98,-0.03,-0.01,-0.01,32.03,0.710707,30.3668018846384,-539.7352365115918,9.999629993154747,0.033166247903554,0.7743382256714832,-0.698702796568506
2669192,2005.0,1,177624.0,205364,0.58,-0.22,9.97,-0.03,-0.01,-0.01,32.03,0.750703,14.600122820929693,-1012.7567952499677,9.989279253279488,0.033166247903554,0.36437265855740164,-1.3156147941120884
2709196,1990.0,1,177969.0,206383,0.595,-0.22,9.99,-0.03,-0.01,-0.01,32.03,0.790707,2.510408288486239,-992.7350992674401,10.01012112813826,0.033166247903554,0.050015611362284995,-1.2895026133148006
2749192,2000.0,1,178565.0,207983,0.58,-0.19,9.95,-0.03,-0.01,-0.01,32.03,0.830703,-4.995777777215741,-567.9786341905217,9.968701018688442,0.033166247903554,-0.14516041872337332,-0.7355376734523381
2789196,1995.0,1,179117.0,209323,0.59,-0.21,9.95,-0.03,-0.01,-0.01,32.03,0.870707,-6.721575925880119,-21.926760091122873,9.969689062352947,0.033166247903554,-0.19003466357117824,-0.023379958460336005
2829192,1997.0,1,179393.0,209791,0.57,-0.18,9.96,-0.04,-0.01,-0.0,32.03,0.910703,-12.968542635853472,416.5815590084025,9.977920625060113,0.04123105625617661,-0.3524684417719375,0.5485200703601045
2869196,1977.0,1,179528.0,209982,0.59,-0.21,9.98,-0.04,-0.01,-0.01,32.03,0.950707,-39.33229917421072,716.6083092607506,9.999629993154747,0.042426406871192854,-1.0379794715095372,0.9398132332094903
2909193,1969.0,1,179520.0,210182,0.59,-0.2,9.99,-0.03,-0.01,-0.01,32.03,0.990704,-38.49802097846698,967.6047870926477,10.009405576756293,0.033166247903554,-1.0162865498570468,1.2671613966392279
2949196,1986.0,1,179746.0,210769,0.59,-0.2,9.98,-0.03,-0.01,-0.0,32.03,1.030707,-41.19036576241867,1187.385607148556,9.999424983467799,0.03162277660168379,-1.0862929634942735,1.553798278653834
2989879,1953.0,1,180038.0,211604,0.58,-0.21,9.95,-0.03,-0.01,-0.01,31.91,1.07139,-51.28825585984795,1230.6138042935343,9.969102266503237,0.033166247903554,-1.3488585439643617,1.610176244854876
3028204,2018.0,1,180278.0,212149,0.58,-0.23,9.96,-0.03,-0.01,-0.01,31.91,1.109715,-10.650064826275681,909.2153478247805,9.979524036746444,0.033166247903554,-0.29218332616805626,1.1910102256222792
3068193,2007.0,1,179504.0,206702,0.57,-0.22,9.97,-0.03,-0.01,-0.01,31.91,1.149704,2.2246886778505695,214.4510402058172,9.988703619589481,0.033166247903554,0.042586323194716134,0.28490260976991555
3108196,2000.0,1,177558.0,204370,0.58,-0.2,9.98,-0.04,-0.01,-0.01,31.91,1.189707,-20.840703429222437,-591.6250137186746,9.998839932712196,0.042426406871192854,-0.5571605555028047,-0.7663771456918156
3148193,1985.0,1,177307.0,204571,0.59,-0.22,9.96,-0.03,-0.01,-0.01,31.91,1.229704,-21.453267536577506,-1132.0073527602235,9.979884768873838,0.033166247903554,-0.5730884621121044,-1.4711406856550724
3188196,1984.0,1,177704.0,205604,0.57,-0.23,9.96,-0.04,-0.01,-0.01,31.91,1.269707,-25.489081194979427,-1187.0269409954253,9.97894784032866,0.042426406871192854,-0.6780277856404107,-1.542896916328222
3228193,1984.0,1,178090.0,207068,0.57,-0.21,9.95,-0.03,-0.01,-0.01,31.91,1.309704,-20.545565169083442,-832.9119100387418,9.968525467690794,0.033166247903554,-0.5494863633849826,-1.08106212873343
3268196,1984.0,1,178714.0,208409,0.57,-0.2,9.97,-0.04,-0.01,-0.01,31.91,1.349707,-15.100288934826429,-331.4411969875839,9.988283135754614,0.042426406871192854,-0.40789816015907765,-0.42704690768702414
3308192,1971.0,1,179018.0,208907,0.57,-0.2,9.98,-0.04,-0.01,-0.0,31.91,1.389703,-26.72869702548215,104.24364851298034,9.99826484946263,0.04123105625617661,-0.7102603061922751,0.14117076309757454
3348196,1971.0,1,179135.0,209128,0.56,-0.21,9.98,-0.04,-0.01,-0.01,31.91,1.429707,-19.295735508972385,441.12082933669546,9.997904780502763,0.042426406871192854,-0.5169882625907051,0.580524045647967
3388193,1977.0,1,179259.0,209600,0.57,-0.21,9.96,-0.04,-0.01,-0.01,31.91,1.469704,-10.548833330746952,748.8525723384236,9.978506902337644,0.042426406871192854,-0.28955110239369347,0.9818660157457086
3428196,1968.0,1,179534.0,210472,0.57,-0.22,9.97,-0.04,-0.01,-0.0,31.91,1.509707,-14.10329619029284,1019.1311721156726,9.988703619589481,0.04123105625617661,-0.38197433090690835,1.3343618117652016
3468192,1974.0,1,179828.0,211391,0.59,-0.2,9.94,-0.04,-0.01,-0.01,31.91,1.549703,-2.154400394046658,1089.096836827368,9.959502999648125,0.042426406871192854,-0.07127885586735655,1.425610629455199
3508209,1978.0,1,180172.0,211951,0.58,-0.2,9.96,-0.03,-0.01,-0.01,31.91,1.58972,4.8529750680016965,770.6650693423977,9.978877692406096,0.033166247903554,0.11092708894016116,1.0103137489399958
3548192,1965.0,1,179226.0,206407,0.57,-0.2,9.98,-0.04,-0.01,-0.01,31.91,1.629703,-0.9136196239285785,70.15131600658,9.99826484946263,0.042426406871192854,-0.03901604452767726,0.09670773903681278
3588196,1955.0,1,177431.0,204284,0.58,-0.22,9.99,-0.03,-0.01,-0.01,31.91,1.669707,-7.120464694381823,-731.6034911825741,10.009240730445041,0.033166247903554,-0.20040657889548066,-0.9489362712751919
3628193,1942.0,1,177255.0,204535,0.58,-0.24,9.96,-0.03,-0.01,-0.0,31.91,1.709704,-16.0599788256899,-1247.4146313463423,9.979759516140659,0.03162277660168379,-0.4328520397155597,-1.6216541949198988
3668196,1947.0,1,177509.0,205506,0.58,-0.19,9.95,-0.03,-0.01,-0.01,31.91,1.749707,-2.881407047703467,-1262.5022893309176,9.968701018688442,0.033166247903554,-0.090182500310032,-1.6413314317256462
3708238,1967.0,1,178039.0,206934,0.56,-0.21,9.98,-0.04,-0.01,-0.01,31.91,1.789749,16.195324824175106,-870.8754181660839,9.997904780502763,0.042426406871192854,0.40585113930020644,-1.130573917783946
3748196,1954.0,1,178698.0,208192,0.58,-0.21,9.98,-0.03,-0.01,-0.01,31.91,1.829707,14.09422994978977,-354.2070085075394,9.999044954394394,0.033166247903554,0.351218419990243,-0.45673794819252533
3788193,1953.0,1,178982.0,208854,0.57,-0.22,9.98,-0.04,-0.01,-0.0,31.91,1.869704,12.013793535621984,67.88908285921272,9.998684913527379,0.04123105625617661,0.2971228624582653,0.09375734757141331
3828195,1949.0,1,179056.0,209087,0.56,-0.21,9.96,-0.03,-0.01,-0.01,31.91,1.909706,14.162681832974064,379.36718499502825,9.977940669296446,0.033166247903554,0.3529983074983404,0.4999852977143136
3868193,1943.0,1,179193.0,209458,0.57,-0.22,9.97,-0.03,-0.01,-0.01,31.91,1.949704,14.84138283285455,683.4566515899613,9.988703619589481,0.033166247903554,0.3706459071731097,0.8965770318614682
3908220,1951.0,1,179482.0,210332,0.56,-0.21,9.94,-0.03,-0.01,-0.01,31.91,1.989731,17.77728194435236,997.8863510909416,9.95797670212177,0.033166247903554,0.4469852262758484,1.3066544383195198
3948193,1946.0,1,179849.0,211301,0.57,-0.2,9.97,-0.03,-0.01,-0.01,31.91,2.029704,30.06053831505862,1152.6735308591287,9.988283135754614,0.033166247903554,0.7663747529907865,1.508526988314106
3988196,1955.0,1,180239.0,212159,0.58,-0.21,9.97,-0.03,-0.01,-0.0,31.91,2.069707,24.476433851435882,914.4682457687402,9.98906402021731,0.03162277660168379,0.621176734815685,1.1978610249223025
4028883,1905.0,1,179512.0,207004,0.57,-0.22,9.96,-0.03,-0.01,-0.01,31.91,2.110394,-3.884361903965598,231.83856108247107,9.978722363108416,0.033166247903554,-0.11626135653434384,0.30757931453778437
4069196,1914.0,1,177475.0,204189,0.58,-0.22,9.98,-0.03,-0.01,-0.01,31.91,2.150707,-9.63861044053239,-643.00257408479,9.999259972617974,0.033166247903554,-0.2658834649743487,-0.8333834645558289
4109193,1900.0,1,177156.0,204045,0.57,-0.21,9.96,-0.03,-0.01,-0.0,31.91,2.190704,-7.752815128962389,-1296.6497459032469,9.978506902337644,0.03162277660168379,-0.2168489700597921,-1.6858663482762888
4149196,1903.0,1,177389.0,204758,0.595,-0.21,9.96,-0.04,-0.01,-0.0,31.91,2.230707,-11.432858504008863,-1446.5444284740122,9.979966182307434,0.04123105625617661,-0.3125375461485899,-1.8813581315525714
4189192,1893.0,1,177736.0,206105,0.58,-0.2,9.99,-0.03,-0.01,-0.01,31.91,2.270703,-15.52900702786252,-1122.7777323685655,10.008821109401447,0.033166247903554,-0.419045698295258,-1.4591034678006194
4229196,1887.0,1,178348.0,207589,0.57,-0.2,9.98,-0.04,-0.01,-0.01,31.91,2.310707,-20.61015828342257,-590.8001654696448,9.99826484946263,0.042426406871192854,-0.5511659150930311,-0.7653013833474173
4269192,1898.0,1,178841.0,208404,0.59,-0.2,9.96,-0.04,-0.01,-0.0,31.91,2.350703,-9.115920492749366,-108.53958973377772,9.979463913457476,0.04123105625617661,-0.2522924684175068,-0.13633991295007472
4309196,1902.0,1,179039.0,208885,0.56,-0.21,9.930000000000001,-0.03,-0.01,-0.01,31.91,2.390707,-3.0966670546229973,253.06165161003642,9.947994772817285,0.033166247903554,-0.09577969617208744,0.33525834719398967
4349193,1904.0,1,179158.0,209263,0.57,-0.21,9.96,-0.04,-0.01,-0.01,31.91,2.430704,0.1257516856142487,576.8505019784831,9.978506902337644,0.042426406871192854,-0.011990286811860578,0.7575419044083831
4389196,1911.0,1,179382.0,210063,0.57,-0.21,9.99,-0.03,-0.01,-0.01,31.91,2.470707,6.750428724970759,910.74723042153,10.008451428667673,0.033166247903554,0.16026472443136214,1.19300809809829
4429193,1899.0,1,179714.0,211114,0.57,-0.22,9.98,-0.03,-0.01,-0.01,31.91,2.510704,-3.094538224096624,1128.5305538562689,9.998684913527379,0.033166247903554,-0.09572434226968936,1.4770398565030147
4469196,1891.0,1,180109.0,212048,0.57,-0.21,9.98,-0.04,-0.01,-0.01,31.91,2.550707,-11.074138627844304,1000.6021873031274,9.998469882937089,0.042426406871192854,-0.3032101033261251,1.3101964162943278
4509193,1889.0,1,180147.0,208664,0.57,-0.22,9.98,-0.03,-0.01,-0.01,31.91,2.590704,-13.804702277542265,426.89159130774715,9.998684913527379,0.033166247903554,-0.3742102848270101,0.5619663552133609
4549196,1895.0,1,177781.0,204647,0.56,-0.21,9.96,-0.03,-0.01,-0.01,31.91,2.630707,-4.390135515552516,-396.9626072490127,9.977940669296446,0.033166247903554,-0.12941249411174527,-0.5124995542726465
4589193,1911.0,1,177265.0,204438,0.59,-0.21,9.96,-0.03,-0.01,-0.01,31.91,2.670704,7.744235794375222,-1068.0649700958074,9.979669333199373,0.033166247903554,0.1861057196824285,-1.387747397783771
4629196,1904.0,1,177563.0,205298,0.57,-0.24,9.97,-0.03,-0.01,-0.01,31.91,2.710707,4.821578649733327,-1262.2061150929494,9.989164129195196,0.033166247903554,0.11011071851943191,-1.64094516298717
4669193,1910.0,1,177991.0,206592,0.57,-0.22,9.97,-0.03,-0.01,-0.0,31.91,2.750704,8.889482180195158,-960.6532937491758,9.988703619589481,0.03162277660168379,0.21588444367058468,-1.2476617069936073
4709196,1911.0,1,178543.0,208258,0.59,-0.2,9.95,-0.03,-0.01,-0.0,31.91,2.790707,9.496474051640405,-419.3865867684539,9.969483436969037,0.03162277660168379,0.23166746086812975,-0.5417447794482417
4749192,1904.0,1,179091.0,209038,0.59,-0.22,9.96,-0.03,-0.01,-0.01,31.91,2.830703,5.5413876541158,70.70178388326407,9.979884768873838,0.033166247903554,0.1288272095130698,0.09742565607698846
4789196,1904.0,1,179310.0,209310,0.57,-0.21,9.97,-0.04,-0.01,-0.01,31.91,2.870707,1.7635774563496813,402.19904274211984,9.988488374123484,0.042426406871192854,0.030596498155377013,0.5297624753295512
4829193,1904.0,1,179295.0,209511,0.57,-0.21,9.98,-0.03,-0.01,-0.01,31.91,2.910704,4.327220296698755,659.5578402606492,9.998469882937089,0.033166247903554,0.097256400768657,0.8654083395181291
4869196,1914.0,1,179463.0,210094,0.57,-0.22,9.97,-0.03,-0.01,-0.0,31.91,2.950707,15.861563736140107,935.2699233302444,9.988703619589481,0.03162277660168379,0.39717267548522117,1.2249904532108402
4909192,1913.0,1,179790.0,211017,0.595,-0.22,9.98,-0.03,-0.01,-0.01,31.91,2.990703,7.9929306847303225,1152.648540063177,10.000141249002436,0.033166247903554,0.192572290185375,1.5084943954616958
4949196,1903.0,1,180146.0,212050,0.58,-0.23,9.98,-0.03,-0.01,-0.0,31.91,3.030707,10.654229244255804,1088.2876802926048,9.999484986738068,0.03162277660168379,0.26177143915055434,1.424555332154337
4989193,1904.0,1,180338.0,211103,0.57,-0.2,9.96,-0.04,-0.01,-0.01,31.91,3.070704,-4.318729899139207,591.2384463088405,9.978301458665198,0.042426406871192854,-0.12755580356139376,0.7763065786888972
5029882,1875.0,1,178337.0,205452,0.56,-0.21,9.97,-0.03,-0.01,-0.0,31.85,3.111393,-16.933698492379506,-213.26123597732206,9.987922706949629,0.03162277660168379,-0.4555705194414275,-0.2729172819445591
5068193,1961.0,1,177331.0,204419,0.58,-0.22,9.930000000000001,-0.03,-0.01,-0.0,31.85,3.149704,56.841824455980735,-954.630012047982,9.949356763127957,0.03162277660168379,1.4627423974670233,-1.2398061776262739
5108196,1965.0,1,177512.0,205066,0.57,-0.21,9.96,-0.03,-0.01,-0.01,31.85,3.189707,66.63635930422409,-1278.1611057932514,9.978506902337644,0.033166247903554,1.7174201274730398,-1.6617535701345418
5149193,1892.0,1,177891.0,206217,0.58,-0.23,9.96,-0.04,-0.01,-0.01,31.85,3.230704,-3.8702499083880557,-1101.8345334059331,9.979524036746444,0.042426406871192854,-0.11589441608691789,-1.4317894681143257
5189196,1901.0,1,178417.0,207824,0.58,-0.2,10.0,-0.03,-0.01,-0.01,31.85,3.270707,-3.7923121764791983,-638.6762313039001,10.018802323631304,0.033166247903554,-0.11386787731280497,-0.82774107317279
5229192,1895.0,1,178845.0,208752,0.58,-0.22,9.97,-0.04,-0.01,-0.01,31.85,3.310703,3.8243987704713516,-182.5186183977525,9.989279253279488,0.042426406871192854,0.0841820233855674,-0.23282293683412758
5269196,1897.0,1,179132.0,208928,0.58,-0.23,9.98,-0.03,-0.01,-0.0,31.85,3.350707,-8.645282377578013,131.59811422559528,9.999484986738068,0.03162277660168379,-0.24005492486048455,0.17684630002133722
5309193,1887.0,1,179122.0,209236,0.58,-0.21,9.96,-0.03,-0.01,-0.01,31.85,3.390704,-5.0876532098036,377.4632534524391,9.979083124215371,0.033166247903554,-0.14754936592478057,0.49750220114201865
5349196,1895.0,1,179253.0,209770,0.59,-0.2,9.95,-0.03,-0.01,-0.0,31.85,3.430707,-7.5885848529744315,671.9416846428012,9.969483436969037,0.03162277660168379,-0.21257865048515948,0.8815592781676035
5389192,1889.0,1,179541.0,210863,0.57,-0.21,9.96,-0.03,-0.01,-0.0,31.85,3.470703,-5.959045242274754,971.1813201530713,9.978506902337644,0.03162277660168379,-0.17020732244988138,1.2718258904954307
5429196,1890.0,1,180079.0,211768,0.5549999999999999,-0.2,9.97,-0.03,-0.01,-0.01,31.85,3.510707,-9.790133065890121,1045.543351904477,9.987438360260354,0.033166247903554,-0.269823359912553,1.3688084248042567
5469192,1872.0,1,180252.0,212084,0.59,-0.2,9.98,-0.03,-0.01,-0.01,31.85,3.550703,-24.73738325663521,681.299238304148,9.999424983467799,0.033166247903554,-0.6584821178211734,0.8937633458569065
5509195,1872.0,1,178943.0,206066,0.58,-0.21,9.94,-0.03,-0.01,-0.01,31.85,3.590706,-26.97416691606008,-74.27670313962162,9.959121447196033,0.033166247903554,-0.7166430201736772,-0.09165445322856365
5549227,1876.0,1,177332.0,204459,0.595,-0.21,9.98,-0.03,-0.01,-0.01,31.85,3.630738,-21.265151439249415,-874.3632113138925,9.999926249728045,0.033166247903554,-0.5681970628381816,-1.1351226775562748
5589196,1881.0,1,177343.0,204983,0.57,-0.22,9.96,-0.04,-0.01,-0.0,31.85,3.670707,-18.51366429681533,-1304.6803877324598,9.978722363108416,0.04123105625617661,-0.4966528281774073,-1.6963398651824324
5629192,1884.0,1,177769.0,206090,0.57,-0.23,9.94,-0.03,-0.01,-0.0,31.85,3.710703,-13.764811315338367,-1186.819284141237,9.958985892147854,0.03162277660168379,-0.37317303907116217,-1.5426260914527923
5669196,1888.0,1,178333.0,207572,0.56,-0.21,9.99,-0.03,-0.01,-0.01,31.85,3.750707,-12.386528196660526,-683.0330418012527,10.007886889848425,0.033166247903554,-0.33733488836679865,-0.8855909704196909
5709193,1887.0,1,178932.0,208902,0.57,-0.19,9.96,-0.03,-0.01,-0.01,31.85,3.790704,-11.94112682753079,-123.58732372093854,9.978106032709816,0.033166247903554,-0.32575355128555095,-0.1559650811079139
5749196,1899.0,1,179247.0,209482,0.58,-0.21,9.99,-0.04,-0.01,-0.0,31.85,3.830707,-2.8193556031916533,269.90454979025145,10.009025926632422,0.04123105625617661,-0.08856903716178487,0.3572247581721552
5789193,1898.0,1,179296.0,209544,0.58,-0.22,9.98,-0.04,-0.01,-0.01,31.85,3.870704,-1.7257069217641607,515.6744246924328,9.999259972617974,0.042426406871192854,-0.0601319579206016,0.6777564161082787
5829196,1904.0,1,179373.0,209790,0.57,-0.2,9.98,-0.04,-0.01,-0.0,31.85,3.910707,-1.781136362444242,757.9759564650674,9.99826484946263,0.04123105625617661,-0.061573235566414274,0.9937646808740739
5869192,1901.0,1,179556.0,210609,0.57,-0.2,9.96,-0.03,-0.01,-0.01,31.85,3.950703,2.99448228395115,1037.3346594608786,9.978301458665198,0.033166247903554,0.06260251500090516,1.3581026953104303
5909196,1922.0,1,179951.0,211615,0.58,-0.23,9.97,-0.03,-0.01,-0.0,31.85,3.990707,8.222574606750086,1180.8399025063636,9.989504492215818,0.03162277660168379,0.1985434969528063,1.5452614082902179
5949192,1909.0,1,180251.0,212368,0.57,-0.21,9.97,-0.03,-0.01,-0.01,31.85,4.030703,15.054555767555367,937.3529487152811,9.988488374123484,0.033166247903554,0.37618883493328426,1.227707122942859
5989196,1914.0,1,179739.0,207122,0.57,-0.21,9.96,-0.04,-0.01,-0.01,31.85,4.070707,-9.465557335251766,243.20355179022155,9.978506902337644,0.042426406871192854,-0.26138373398086867,0.3224014700824124
6029879,1878.0,1,177510.0,204285,0.58,-0.21,9.97,-0.03,-0.01,-0.01,31.89,4.11139,-13.9280321012876,-642.3510399354718,9.98906402021731,0.033166247903554,-0.3774171098615994,-0.8325337374639057
6068196,1968.0,1,177138.0,204378,0.57,-0.22,9.98,-0.03,-0.01,-0.01,31.89,4.149707,38.529136820388636,-1286.270001565324,9.998684913527379,0.033166247903554,0.9865754544111923,-1.6723291453830875
6108193,1955.0,1,177473.0,205196,0.57,-0.21,9.97,-0.04,-0.01,-0.01,31.89,4.189704,58.38331184495534,-1396.9811276747214,9.988488374123484,0.042426406871192854,1.5028241895214323,-1.816717959585578
6148196,1965.0,1,177890.0,206684,0.57,-0.22,9.99,-0.03,-0.01,-0.0,31.89,4.229707,35.63586632169632,-1023.1500919943363,10.008666244810044,0.03162277660168379,0.9113445655208956,-1.3291696719758646
6189192,1917.0,1,178591.0,208086,0.58,-0.21,9.95,-0.03,-0.01,-0.01,31.89,4.270703,9.791595974641295,-467.1329251062906,9.969102266503237,0.033166247903554,0.23934122818729522,-0.6040152794185781
6229196,1923.0,1,178917.0,208930,0.58,-0.22,9.96,-0.04,-0.01,-0.0,31.89,4.310707,-3.7562990537057908,-11.81850481651616,9.979298572545067,0.04123105625617661,-0.1129314632308229,-0.010196830042742874
6269193,1917.0,1,179136.0,209213,0.58,-0.21,9.96,-0.03,-0.01,-0.0,31.89,4.350704,-1.2994083968239436,283.5015799916715,9.979083124215371,0.03162277660168379,-0.04904733345207367,0.37495792679261103
6309196,1922.0,1,179133.0,209589,0.56,-0.2,9.97,-0.04,-0.01,-0.01,31.89,4.390707,-4.911024552068881,546.195204649797,9.98771745695682,0.042426406871192854,-0.14295666333064402,0.7175614418671568
6349192,1918.0,1,179380.0,210252,0.57,-0.21,9.99,-0.03,-0.01,-0.01,31.89,4.430703,-7.966932963058675,869.9552680243786,10.008451428667673,0.033166247903554,-0.22241646711670718,1.1398074552496456
6389196,1920.0,1,179767.0,211242,0.56,-0.21,9.98,-0.03,-0.01,-0.01,31.89,4.470707,-11.21769319545181,1138.5712713603525,9.997904780502763,0.033166247903554,-0.3069428126356266,1.4901349025485608
6429193,1921.0,1,180055.0,212286,0.58,-0.22,9.97,-0.03,-0.01,-0.01,31.89,4.510704,-9.981077030375545,1082.7298844473523,9.989279253279488,0.033166247903554,-0.2747882894561156,1.4173068867642813
6469196,1935.0,1,180316.0,210416,0.57,-0.21,9.96,-0.04,-0.01,-0.0,31.89,4.550707,-2.068901696571195,537.1889671926875,9.978506902337644,0.04123105625617661,-0.06905571668526182,0.7058155587517314
6509193,1925.0,1,178067.0,204802,0.58,-0.21,9.96,-0.04,-0.01,-0.0,31.89,4.590704,-11.152085118661413,-343.1801452764522,9.979083124215371,0.04123105625617661,-0.30523686984958043,-0.44235677655909383
6549196,1924.0,1,177076.0,204143,0.57,-0.21,9.96,-0.03,-0.01,-0.01,31.89,4.630707,-18.08577094359799,-1134.8946003816209,9.978506902337644,0.033166247903554,-0.4855267349457721,-1.4749062174043437
6589222,1927.0,1,177323.0,204968,0.56,-0.2,9.97,-0.03,-0.01,-0.0,31.89,4.670733,-15.196242054350527,-1443.393367635847,9.98771745695682,0.03162277660168379,-0.41039313547398776,-1.8772485361226325
6629196,1936.0,1,177776.0,206199,0.57,-0.18,9.97,-0.04,-0.01,-0.0,31.89,4.710707,-10.657162480094335,-1185.7382079688493,9.987902682745762,0.04123105625617661,-0.2923678795328572,-1.5412161581237844
6669192,1946.0,1,178339.0,207857,0.56,-0.2,9.99,-0.03,-0.01,-0.0,31.89,4.750703,-1.5862547604018264,-612.9874154379667,10.007682049305924,0.03162277660168379,-0.05650591947666655,-0.794237867203382
6709196,1952.0,1,178876.0,209018,0.56,-0.22,9.95,-0.03,-0.01,-0.0,31.89,4.790707,0.07636821307282954,-72.26790319812365,9.968174356420537,0.03162277660168379,-0.013274357049143847,-0.08903458789329177
6749193,1947.0,1,179215.0,209299,0.58,-0.22,9.97,-0.03,-0.01,-0.01,31.89,4.830704,-4.690299080877984,266.0599047039776,9.989279253279488,0.033166247903554,-0.13721735433553764,0.35221059415319317
6789196,1943.0,1,179256.0,209540,0.58,-0.22,9.98,-0.04,-0.01,-0.0,31.89,4.870707,-13.930755591579427,482.2405571232557,9.999259972617974,0.04123105625617661,-0.37748792612147924,0.6341521582331814
6829193,1942.0,1,179242.0,209977,0.57,-0.21,9.96,-0.03,-0.01,-0.01,31.89,4.910704,-14.162164594333099,738.4309871804937,9.978506902337644,0.033166247903554,-0.38350502856048185,0.9682742442955939
6869196,1947.0,1,179579.0,210912,0.59,-0.22,9.95,-0.03,-0.01,-0.01,31.89,4.950707,-12.30033910717356,1041.305746253997,9.969904713687086,0.033166247903554,-0.3350937975950646,1.3632817638765558
6909193,1941.0,1,180052.0,211884,0.58,-0.22,9.98,-0.04,-0.01,-0.01,31.89,4.990704,-21.392315703641778,1173.1222482445646,9.999259972617974,0.042426406871192854,-0.5715035910904284,1.535196087970155
6949196,1942.0,1,180285.0,212467,0.59,-0.21,9.94,-0.03,-0.01,-0.01,31.89,5.030707,-16.81307176020167,876.1707052015216,9.959708831085374,0.033166247903554,-0.452433980258599,1.1479135926840256
6989209,1937.0,1,179451.0,206664,0.57,-0.21,9.99,-0.03,-0.01,-0.0,31.89,5.07072,-31.33141871026138,129.27345057815293,10.008451428667673,0.03162277660168379,-0.8299403858174222,0.1738144870566478
7029882,1916.0,1,177382.0,204242,0.5549999999999999,-0.21,9.96,-0.03,-0.01,-0.01,31.85,5.111393,-42.66627934345423,-754.8895009511571,9.977661299122156,0.033166247903554,-1.124669703822131,-0.979305751345975
7068193,1978.0,1,177154.0,204671,0.59,-0.21,9.96,-0.04,-0.01,-0.01,31.85,5.149704,7.813893221971248,-1328.3740906456342,9.979669333199373,0.042426406871192854,0.18791695378522982,-1.7272410563085965
7108196,2000.0,1,177616.0,205812,0.58,-0.2,9.96,-0.03,-0.01,-0.01,31.85,5.189707,38.87573826934925,-1336.0485854618464,9.978877692406096,0.033166247903554,0.995587793598889,-1.7372500883278452
7148192,1997.0,1,178152.0,207290,0.57,-0.2,9.97,-0.03,-0.01,-0.0,31.85,5.229703,29.28845523047751,-881.2020252467781,9.988283135754614,0.03162277660168379,0.746299030110243,-1.1440418193717514
7188228,1994.0,1,178731.0,208729,0.57,-0.21,9.96,-0.03,-0.01,-0.01,31.85,5.269739,30.15797020532458,-295.2630529826946,9.978506902337644,0.033166247903554,0.7689081793379888,-0.37986358026109607
7228193,1996.0,1,179126.0,209376,0.57,-0.22,9.96,-0.03,-0.01,-0.01,31.85,5.309704,31.590768855522537,149.1329796735491,9.978722363108416,0.033166247903554,0.8061638442002712,0.19971517073202333
7268195,1994.0,1,179285.0,209506,0.58,-0.22,9.95,-0.03,-0.01,-0.01,31.85,5.349706,30.703748032018584,419.5412724208647,9.969317930530654,0.033166247903554,0.7830995074759427,0.5523801115774827
7308193,1983.0,1,179310.0,209705,0.57,-0.22,9.97,-0.04,-0.01,-0.01,31.85,5.389704,20.785739705335885,655.7015611757356,9.988703619589481,0.042426406871192854,0.525211217122538,0.860379002505024
7348196,1970.0,1,179478.0,210607,0.57,-0.19,9.95,-0.04,-0.01,-0.01,31.85,5.429707,10.462806800855901,941.5884851286306,9.968124196658065,0.042426406871192854,0.256794068186783,1.2332310851833905
7388193,1972.0,1,179883.0,211666,0.57,-0.21,9.97,-0.03,-0.01,-0.01,31.85,5.469704,12.777549080332557,1150.7060785331066,9.988488374123484,0.033166247903554,0.3169820524473931,1.5059610483012336
7428196,1969.0,1,180161.0,212619,0.57,-0.2,9.99,-0.03,-0.01,-0.0,31.85,5.509707,13.561545712348368,1029.1417718523392,10.008246599679687,0.03162277660168379,0.3373675516740316,1.347417578391627
7468192,1958.0,1,180285.0,209134,0.58,-0.2,9.97,-0.03,-0.01,-0.01,31.85,5.549703,5.19641751200295,452.00845648564814,9.988858793676084,0.033166247903554,0.1198572876051488,0.5947236263835357
7508196,1943.0,1,177812.0,204963,0.57,-0.21,9.97,-0.03,-0.01,-0.01,31.85,5.589707,-9.608009814079178,-395.0698988335608,9.988488374123484,0.033166247903554,-0.26508778675148104,-0.5100310948382429
7548193,1937.0,1,177302.0,204545,0.58,-0.21,9.99,-0.03,-0.01,-0.01,31.85,5.629704,-6.2015682499121985,-1104.9006755174014,10.009025926632422,0.033166247903554,-0.17651341151039596,-1.4357883130290974
7588196,1950.0,1,177512.0,205213,0.56,-0.23,9.99,-0.03,-0.01,-0.01,31.85,5.669707,0.5798916556120616,-1344.2741664804385,10.008326533442043,0.033166247903554,-0.00018172842128147095,-1.7479778438040874
7628193,1922.0,1,177843.0,206558,0.57,-0.21,9.97,-0.04,-0.01,-0.0,31.85,5.709704,-11.320543570593147,-1087.2330118395332,9.988488374123484,0.04123105625617661,-0.30961713055649864,-1.4127462476304034
7668196,1936.0,1,178576.0,208084,0.57,-0.19,9.97,-0.04,-0.01,-0.0,31.85,5.749707,-7.218240054709631,-581.7435158855898,9.988087905099755,0.04123105625617661,-0.2029489361594678,-0.7534897530258449
7708192,1932.0,1,178913.0,208947,0.59,-0.21,9.97,-0.04,-0.01,-0.0,31.85,5.789703,6.583996502207772,-104.73491224239363,9.989649643506024,0.04123105625617661,0.1559371497838805,-0.13137787443859736
7748195,1942.0,1,179110.0,209267,0.58,-0.23,9.99,-0.03,-0.01,-0.01,31.85,5.829706,8.608068722103605,252.30214942228056,10.00946552019637,0.033166247903554,0.20856712418473344,0.3342678088070356
7788193,1930.0,1,179238.0,209539,0.57,-0.22,9.95,-0.04,-0.01,-0.01,31.85,5.869704,10.608957791761783,577.0756064926678,9.968741144196693,0.042426406871192854,0.26059428975715354,0.7578354844216751
7828196,1936.0,1,179492.0,210492,0.59,-0.21,9.95,-0.04,-0.01,-0.01,31.85,5.909707,14.75335483448108,941.3237191614387,9.969689062352947,0.042426406871192854,0.36835700104841,1.2328857789310972
7868193,1938.0,1,179917.0,211516,0.58,-0.2,9.98,-0.03,-0.01,-0.01,31.85,5.949704,23.7640683600546,1229.9663587992652,9.998839932712196,0.033166247903554,0.6026537902256064,1.6093318501633627
7908196,1930.0,1,180218.0,212208,0.57,-0.2,9.96,-0.03,-0.01,-0.0,31.85,5.989707,21.73285698227366,1185.458661965112,9.978301458665198,0.03162277660168379,0.5498381832702213,1.5512851678234398
7948192,1918.0,1,180398.0,210978,0.59,-0.23,9.97,-0.03,-0.01,-0.01,31.85,6.029703,8.943963757151485,647.7718089203898,9.990090089683877,0.033166247903554,0.21730107494112164,0.8500370652011119
7988196,1909.0,1,178243.0,205305,0.57,-0.23,9.96,-0.03,-0.01,-0.01,31.85,6.069707,12.893986071951826,-236.4299041250418,9.97894784032866,0.033166247903554,0.32000964989574393,-0.303133725748
8028193,1902.0,1,177278.0,204194,0.57,-0.22,9.98,-0.03,-0.01,-0.01,31.85,6.109704,-0.42592929851357264,-1055.7134906406163,9.998684913527379,0.033166247903554,-0.026335108990971783,-1.3716386692859757
8068882,1857.0,1,177329.0,204851,0.57,-0.22,9.97,-0.03,-0.01,-0.01,31.89,6.150393,-29.927450538590726,-1414.482729896744,9.988703619589481,0.033166247903554,-0.7934343717491883,-1.8395434485882323
8109193,1870.0,1,177795.0,206080,0.57,-0.21,9.98,-0.03,-0.01,-0.01,31.89,6.190704,-23.133709953757407,-1208.7156031339437,9.998469882937089,0.033166247903554,-0.6167833661421777,-1.5711831448028983
8149196,1869.0,1,178356.0,207580,0.56,-0.21,9.98,-0.03,-0.01,-0.01,31.89,6.230707,-12.39024362081167,-660.5419931951371,9.997904780502763,0.033166247903554,-0.337431496914676,-0.8562582741268298
8189193,1864.0,1,178868.0,208799,0.58,-0.21,9.96,-0.04,-0.01,-0.0,31.89,6.270704,-18.58204924524372,-103.59693498801889,9.979083124215371,0.04123105625617661,-0.4984309752463765,-0.1298937310455818
8229196,1863.0,1,179175.0,209377,0.59,-0.21,9.96,-0.04,-0.01,-0.0,31.89,6.310707,-14.192944315240188,274.4218131955465,9.979669333199373,0.04123105625617661,-0.38430536360163414,0.36311614713595597
8269193,1867.0,1,179351.0,209516,0.58,-0.22,9.97,-0.03,-0.01,-0.0,31.89,6.350704,-7.21346930536568,513.3072761029727,9.989279253279488,0.03162277660168379,-0.2028248870206194,0.6746691945264522
8309196,1860.0,1,179336.0,209781,0.59,-0.22,10.0,-0.03,-0.01,-0.01,31.89,6.390707,-11.626181729788312,741.0232726620663,10.019805387331632,0.033166247903554,-0.31756434130137673,0.9716550881178195
8349193,1856.0,1,179553.0,210550,0.58,-0.2,9.96,-0.03,-0.01,-0.01,31.89,6.430704,-13.917542647084572,966.1270318504716,9.978877692406096,0.033166247903554,-0.3771443628218654,1.2652341167478782
8389196,1862.0,1,179840.0,211277,0.56,-0.21,9.97,-0.03,-0.01,-0.01,31.89,6.470707,-2.8530348789160738,1012.4374099332996,9.987922706949629,0.033166247903554,-0.08944476649683139,1.3256318456088527
8429193,1870.0,1,180173.0,211901,0.58,-0.2,9.96,-0.03,-0.01,-0.01,31.89,6.510704,1.9667044203610835,673.6428361354048,9.978877692406096,0.033166247903554,0.03587821034477371,0.8837779101644736
8469196,1867.0,1,179142.0,206173,0.57,-0.2,9.99,-0.04,-0.01,-0.01,31.89,6.550707,6.931301947494319,-50.44931190076655,10.008246599679687,0.042426406871192854,0.16496779430092667,-0.060578906556610294
8509193,1869.0,1,177337.0,204132,0.57,-0.2,9.96,-0.03,-0.01,-0.01,31.89,6.590704,3.863565641815486,-872.2004514006821,9.978301458665198,0.033166247903554,0.08520044131351534,-1.132302018510999
8549196,1840.0,1,177283.0,204330,0.57,-0.21,9.94,-0.03,-0.01,-0.0,31.89,6.630707,-19.97460722511635,-1391.1093314402392,9.958544070294613,0.03162277660168379,-0.5346403012338513,-1.809059996693052
8589193,1847.0,1,177524.0,205381,0.56,-0.22,9.95,-0.03,-0.01,-0.0,31.89,6.670704,-13.48834590062733,-1380.4372012374336,9.968174356420537,0.03162277660168379,-0.36598437872794976,-1.7951414658357736
8629208,1861.0,1,178061.0,206935,0.595,-0.19,9.96,-0.03,-0.01,-0.0,31.89,6.710719,-1.8450471194111844,-931.7425227163599,9.97956537129749,0.03162277660168379,-0.06323504460170769,-1.209956445618313
8669192,1847.0,1,178737.0,208648,0.5549999999999999,-0.22,9.96,-0.04,-0.01,-0.01,31.89,6.750703,-10.721539156388069,-341.59473275047094,9.977876778152755,0.042426406871192854,-0.29404180341365904,-0.4402890906571185
8709196,1859.0,1,179155.0,209380,0.56,-0.21,9.96,-0.03,-0.01,-0.0,31.89,6.790707,-5.233133232405012,138.89909820865518,9.977940669296446,0.03162277660168379,-0.1513321409612078,0.1863682013592725
8749193,1853.0,1,179378.0,209681,0.57,-0.2,9.95,-0.04,-0.01,-0.01,31.89,6.830704,-7.013399397605009,463.1756757692544,9.968319818304385,0.042426406871192854,-0.19762266448116525,0.6092878495737669
8789195,1858.0,1,179379.0,209986,0.59,-0.19,9.97,-0.03,-0.01,-0.01,31.89,6.870706,-5.097210114526099,730.7719691483442,9.989249221037586,0.033166247903554,-0.1477978647905584,0.958285397009145
8829193,1872.0,1,179595.0,210576,0.58,-0.21,9.98,-0.03,-0.01,-0.01,31.89,6.910704,6.712919975026627,992.2043411190235,9.999044954394394,0.033166247903554,0.15928942101582033,1.2992439935795639
8869196,1867.0,1,179973.0,211441,0.56,-0.21,9.98,-0.04,-0.01,-0.01,31.89,6.950707,3.7870918257213266,1125.2839707551796,9.997904780502763,0.042426406871192854,0.08321196731352226,1.47280568148692
8909193,1867.0,1,180114.0,212112,0.57,-0.19,9.96,-0.04,-0.01,-0.0,31.89,6.990704,-1.7457537233223985,922.884513930139,9.978106032709816,0.04123105625617661,-0.06065321533545972,1.208837473473948
8949196,1861.0,1,180057.0,208816,0.57,-0.21,9.97,-0.03,-0.01,-0.01,31.89,7.030707,-6.893378038843791,321.0097761409285,9.988488374123484,0.033166247903554,-0.19450186623243299,0.4238759005788603
8989193,1858.0,1,177871.0,204896,0.57,-0.21,9.95,-0.03,-0.01,-0.01,31.89,7.070704,-10.764672644250881,-461.90874032245625,9.968525467690794,0.033166247903554,-0.29516336139944876,-0.5972019276569208
9029196,1850.0,1,177449.0,204955,0.58,-0.21,9.97,-0.04,-0.01,-0.0,31.89,7.110707,-25.689210978626452,-1037.6270778411545,9.98906402021731,0.04123105625617661,-0.6832315650740977,-1.3480504736902543
9069879,1839.0,1,177819.0,206084,0.57,-0.19,9.96,-0.03,-0.01,-0.01,31.83,7.15139,-29.272873323737862,-1131.7672971173158,9.978106032709816,0.033166247903554,-0.7764140393112179,-1.470827606465653
9108196,1883.0,1,178281.0,207392,0.57,-0.2,9.95,-0.03,-0.01,-0.01,31.83,7.189707,0.7619471492722697,-782.6852234404315,9.968319818304385,0.033166247903554,0.0045520828907301665,-1.0155567728211072
9148192,1881.0,1,178874.0,208767,0.58,-0.21,10.0,-0.03,-0.01,-0.01,31.83,7.229703,10.461406647746712,-278.4912614011307,10.01900693681764,0.033166247903554,0.2567576613720609,-0.3579899061001053
9188196,1891.0,1,179123.0,209259,0.57,-0.21,9.930000000000001,-0.04,-0.01,-0.01,31.83,7.269707,5.714511272294927,98.69652227835392,9.948562710261218,0.042426406871192854,0.13332877398462772,0.13393623295235862
9228193,1887.0,1,179250.0,209609,0.57,-0.2,10.0,-0.03,-0.01,-0.01,31.83,7.309704,11.710051127578442,286.0765791499928,10.018228386296652,0.033166247903554,0.2892249450802936,0.37831622589143
9268196,1893.0,1,179307.0,209921,0.58,-0.22,9.97,-0.03,-0.01,-0.0,31.83,7.349707,6.9157855424229755,430.70358617076965,9.989279253279488,0.03162277660168379,0.1645643363641639,0.5669379369988621
9308193,1887.0,1,179407.0,210163,0.58,-0.21,9.98,-0.03,-0.01,-0.01,31.83,7.389704,6.919079626650266,682.1695552040399,9.999044954394394,0.033166247903554,0.16464998922123708,0.8948984081543633
9348196,1895.0,1,179679.0,210981,0.57,-0.22,9.98,-0.03,-0.01,-0.0,31.83,7.429707,8.619958869361074,986.9217896425686,9.998684913527379,0.03162277660168379,0.20887629207885888,1.292354520312936
9388193,1883.0,1,180033.0,212126,0.595,-0.22,9.98,-0.03,-0.01,-0.0,31.83,7.469704,-0.32933035559322954,1085.6584075724663,10.000141249002436,0.03162277660168379,-0.02382334096062514,1.4211262497882104
9428196,1889.0,1,180507.0,212351,0.57,-0.19,9.98,-0.03,-0.01,-0.0,31.83,7.509707,2.292304556459014,736.9782864944253,9.998069813719047,0.03162277660168379,0.044344472891784135,0.9663796404122833
9468192,1886.0,1,178990.0,206117,0.5549999999999999,-0.2,9.98,-0.03,-0.01,-0.0,31.83,7.549703,1.5021643669589917,-26.225099137888524,9.997420917416653,0.03162277660168379,0.02379922873611294,-0.028985827534321287
9508196,1879.0,1,177507.0,204530,0.56,-0.22,9.95,-0.03,-0.01,-0.01,31.83,7.589707,-8.07053057715298,-855.1278388985403,9.968174356420537,0.033166247903554,-0.22511021476275372,-1.110036015434786
9548193,1886.0,1,177448.0,204923,0.59,-0.19,9.98,-0.04,-0.01,-0.01,31.83,7.629704,2.427469918620197,-1320.4015071251983,9.999229970352717,0.042426406871192854,0.047859045880089456,-1.7168432587149873
9588196,1898.0,1,177762.0,206203,0.57,-0.21,9.97,-0.03,-0.01,-0.01,31.83,7.669707,11.114328769859055,-1226.331343303445,9.988488374123484,0.033166247903554,0.2737349580489017,-1.5941574918604844
9628193,1890.0,1,178363.0,207854,0.59,-0.22,9.96,-0.04,-0.01,-0.01,31.83,7.709704,8.58545630215343,-729.839507610648,9.979884768873838,0.042426406871192854,0.2079791554989223,-0.9466356940416859
9668196,1904.0,1,179029.0,208901,0.57,-0.21,9.99,-0.04,-0.01,-0.01,31.83,7.749707,18.909053562707346,-174.23938257857571,10.008451428667673,0.042426406871192854,0.4764135790372436,-0.22202520507541998
9708193,1904.0,1,179255.0,209421,0.57,-0.21,9.97,-0.03,-0.01,-0.0,31.83,7.789704,25.205684799631328,197.40894315584603,9.988488374123484,0.03162277660168379,0.6401387354587743,0.2626764047709924
9748196,1904.0,1,179312.0,209530,0.58,-0.22,9.97,-0.04,-0.01,-0.01,31.83,7.829707,22.31902103868821,394.3993813335995,9.989279253279488,0.042426406871192854,0.5650796351218679,0.519590201760187
9788193,1898.0,1,179307.0,209763,0.56,-0.21,9.97,-0.03,-0.01,-0.0,31.83,7.869704,22.833971352437892,578.9074790626001,9.987922706949629,0.03162277660168379,0.5784693855289713,0.7602246020960923
9828196,1905.0,1,179498.0,210584,0.59,-0.2,9.99,-0.03,-0.01,-0.01,31.83,7.909707,27.177162145463445,829.1986565984297,10.009405576756293,0.033166247903554,0.6914011366829489,1.0866529169344137
9868192,1904.0,1,179855.0,211432,0.58,-0.22,9.98,-0.03,-0.01,-0.0,31.83,7.949703,34.16478218538003,1003.1131176851725,9.999259972617974,0.03162277660168379,0.8730934005304428,1.3134711572634536
9908196,1902.0,1,180149.0,212100,0.5549999999999999,-0.22,9.98,-0.04,-0.01,-0.01,31.83,7.989707,28.060235707703267,846.397934310275,9.997841016939608,0.042426406871192854,0.7143628366252285,1.109084116048934
9948193,1879.0,1,180034.0,207908,0.56,-0.22,9.95,-0.03,-0.01,-0.01,31.83,8.029704,15.31883854589191,255.33563730748222,9.968174356420537,0.033166247903554,0.3830607220733362,0.33822406626763707
9988196,1884.0,1,177729.0,204519,0.57,-0.21,9.95,-0.03,-0.01,-0.0,31.83,8.069707,15.042897368443661,-560.9979610326415,9.968525467690794,0.03162277660168379,0.37588569296000246,-0.7264335196511609
10028192,1881.0,1,177344.0,204495,0.57,-0.2,9.96,-0.03,-0.01,-0.0,31.83,8.109703,22.434601025958127,-1194.5108686070232,9.978301458665198,0.03162277660168379,0.5680849487225752,-1.5526574116947685
10068196,1877.0,1,177624.0,205435,0.58,-0.19,9.98,-0.03,-0.01,-0.01,31.83,8.149707,15.02039048966317,-1339.8161121362505,9.998644908186309,0.033166247903554,0.3753004685582164,-1.7421636749573943
10108882,1837.0,1,178029.0,206791,0.57,-0.23,9.96,-0.03,-0.01,-0.01,31.91,8.190393,-18.15738842806034,-1010.9245937490115,9.97894784032866,0.033166247903554,-0.4873889344942156,-1.3132252474477208
10149196,1823.0,1,178663.0,208331,0.59,-0.21,9.96,-0.03,-0.01,-0.01,31.91,8.230707,-31.079319327701572,-484.7423460205515,9.979669333199373,0.033166247903554,-0.8233852916265261,-0.6269813849398086
10189196,1838.0,1,179112.0,209059,0.56,-0.22,9.97,-0.03,-0.01,-0.0,31.91,8.270707,-14.2008017901675,-42.9652171700483,9.988137964605816,0.03162277660168379,-0.3845096738531236,-0.05081819323426797
10229196,1834.0,1,179169.0,209098,0.57,-0.2,9.97,-0.03,-0.01,-0.01,31.91,8.310707,-13.53953659505863,241.52114763123524,9.988283135754614,0.033166247903554,-0.3673154403921526,0.320207288250269
10269195,1836.0,1,179220.0,209429,0.57,-0.22,9.97,-0.03,-0.01,-0.0,31.91,8.350706,-12.456702814887917,488.46632058673566,9.988703619589481,0.03162277660168379,-0.33915957047279943,0.6422717631508371
10309196,1841.0,1,179488.0,210149,0.57,-0.2,9.95,-0.03,-0.01,-0.0,31.91,8.390707,-2.4846454153461695,801.0705088848182,9.968319818304385,0.03162277660168379,-0.07986589483076711,1.0499683483927869
10349193,1832.0,1,179798.0,211123,0.59,-0.2,9.98,-0.03,-0.01,-0.01,31.91,8.430704,-12.356249532498483,1081.139288955817,9.999424983467799,0.033166247903554,-0.3365475818151468,1.4152324412684267
10389196,1826.0,1,180101.0,212060,0.58,-0.2,9.98,-0.03,-0.01,-0.0,31.91,8.470707,-15.52011008018517,1065.6565376581316,9.998839932712196,0.03162277660168379,-0.41881435964839453,1.395039926035081
10429192,1840.0,1,180490.0,211095,0.57,-0.22,9.98,-0.03,-0.01,-0.01,31.91,8.510703,-1.166411683241801,571.8392163712415,9.998684913527379,0.033166247903554,-0.04558914971612676,0.7510062145288977
10469226,1837.0,1,178279.0,205151,0.5549999999999999,-0.21,9.98,-0.03,-0.01,-0.0,31.91,8.550737,-3.9036350311112535,-276.66788548524625,9.997625968198651,0.03162277660168379,-0.11676249684857255,-0.35561186971305064
10509193,1830.0,1,177335.0,204251,0.56,-0.2,9.95,-0.04,-0.01,-0.01,31.91,8.590704,-10.093970166786894,-1075.5053932029016,9.967753006570739,0.042426406871192854,-0.27772373949636525,-1.3974511548256474
10549196,1831.0,1,177367.0,204822,0.57,-0.22,9.99,-0.03,-0.01,-0.0,31.91,8.630707,-10.038617647958356,-1419.6192710420535,10.008666244810044,0.03162277660168379,-0.27628446197438106,-1.8462424960203818
10589193,1821.0,1,177874.0,206175,0.58,-0.21,9.95,-0.03,-0.01,-0.01,31.91,8.670704,-20.699536098102197,-1194.641327142068,9.969102266503237,0.033166247903554,-0.5534899191736933,-1.552827554966178
10629196,1825.0,1,178400.0,207745,0.58,-0.21,9.96,-0.03,-0.01,-0.0,31.91,8.710707,-17.38821623831771,-626.7614094132272,9.979083124215371,0.03162277660168379,-0.4673889007710681,-0.8122018309603299
10669234,1838.0,1,179021.0,208968,0.5549999999999999,-0.2,9.98,-0.04,-0.01,-0.01,31.91,8.750745,-6.927109121989613,-65.26456800647598,9.997420917416653,0.042426406871192854,-0.19537894266529318,-0.07990087839795729
10709196,1830.0,1,179298.0,209365,0.58,-0.22,9.97,-0.03,-0.01,-0.01,31.91,8.790707,-16.674650047400828,295.8200719981256,9.989279253279488,0.033166247903554,-0.44883473556287096,0.3910236332494058
10749196,1825.0,1,179400.0,209776,0.57,-0.22,9.96,-0.03,-0.01,-0.0,31.91,8.830707,-23.241154306330127,517.8873220364721,9.978722363108416,0.03162277660168379,-0.6195771367743883,0.6806424641026054
10789196,1840.0,1,179420.0,210125,0.58,-0.2,9.96,-0.03,-0.01,-0.01,31.91,8.870707,-14.521434078849948,772.021171669595,9.978877692406096,0.033166247903554,-0.3928467623125031,1.012082369799003
10829196,1839.0,1,179757.0,210994,0.57,-0.24,9.97,-0.03,-0.01,-0.01,31.91,8.910707,-13.311052107116783,1097.9894400599082,9.989164129195196,0.033166247903554,-0.3613743812574196,1.4372083114682153
10869196,1841.0,1,180121.0,212036,0.5549999999999999,-0.19,9.98,-0.03,-0.01,-0.0,31.91,8.950707,-22.540312889749554,1303.4033160470021,9.997225865208808,0.03162277660168379,-0.6013538414536357,1.7051079076226832
10909193,1848.0,1,180484.0,212892,0.57,-0.23,9.97,-0.04,-0.01,-0.01,31.91,8.990704,-12.352771547666432,1114.365129568393,9.988928871505694,0.042426406871192854,-0.3364571471701386,1.4585653915826553
10949195,1858.0,1,180087.0,207743,0.57,-0.2,9.97,-0.04,-0.01,-0.01,31.91,9.030706,-11.894696432481519,451.5717959936277,9.988283135754614,0.042426406871192854,-0.3245462670400361,0.5941541362801688
10989195,1851.0,1,177734.0,204767,0.56,-0.21,9.97,-0.03,-0.01,-0.01,31.91,9.070706,-23.763307274819248,-431.24177806336786,9.987922706949629,0.033166247903554,-0.6331541707827529,-0.5572062517805244
11029196,1865.0,1,177464.0,204879,0.58,-0.22,9.96,-0.03,-0.01,-0.0,31.91,9.110707,-7.967270232863688,-1097.369182578792,9.979298572545067,0.03162277660168379,-0.22242523681426515,-1.425965783236512
11069193,1856.0,1,177823.0,205802,0.58,-0.23,9.95,-0.04,-0.01,-0.01,31.91,9.150704,-36.43636150135481,-1244.9930310995876,9.969543620447226,0.042426406871192854,-0.9626792306926774,-1.6184959577996672
11109882,1823.0,1,178091.0,206970,0.57,-0.21,9.96,-0.03,-0.01,-0.01,31.77,9.191393,-55.109417219468284,-911.8461137764559,9.978506902337644,0.033166247903554,-1.4482164732721887,-1.1840076634617498
11148196,1923.0,1,178708.0,208459,0.58,-0.23,9.95,-0.03,-0.01,-0.01,31.77,9.229707,16.982938116219543,-397.6283197341909,9.969543620447226,0.033166247903554,0.42633067900764016,-0.5133677726686882
11188196,1933.0,1,179099.0,209123,0.57,-0.21,9.99,-0.03,-0.01,-0.0,31.77,9.269707,42.17886073307274,5.559047113356164,10.008451428667673,0.03162277660168379,1.081475663112555,0.01246687328204415
11228195,1931.0,1,179213.0,209403,0.58,-0.22,9.97,-0.03,-0.01,-0.01,31.77,9.309706,18.450057555020216,229.4661110424851,9.989279253279488,0.033166247903554,0.4644787538382146,0.3044851788346597
11268196,1935.0,1,179312.0,209748,0.58,-0.2,9.97,-0.03,-0.01,-0.01,31.77,9.349707,25.90552067834643,415.4840117165875,9.988858793676084,0.033166247903554,0.6583358847598353,0.5470886554918307
11308196,1941.0,1,179434.0,210287,0.57,-0.21,9.97,-0.03,-0.01,-0.01,31.77,9.389707,24.38810803823246,702.3914867740583,9.988488374123484,0.033166247903554,0.618880084902635,0.9212717350537185
11348196,1943.0,1,179812.0,211300,0.57,-0.2,9.97,-0.03,-0.01,-0.01,31.77,9.429707,16.87518485955901,1021.7675716894446,9.988283135754614,0.033166247903554,0.4235288762439303,1.3378001889328652
11388193,1943.0,1,180162.0,212308,0.58,-0.23,9.98,-0.03,-0.01,-0.0,31.77,9.469704,19.40068287503298,1103.734922415673,9.999484986738068,0.03162277660168379,0.48919693620605975,1.4447015365262863
11428196,1955.0,1,180521.0,212552,0.58,-0.21,9.97,-0.03,-0.01,-0.01,31.77,9.509707,17.266730555569854,710.0031954760535,9.98906402021731,0.033166247903554,0.43370985682123175,0.9311988817837578
11468196,1942.0,1,179088.0,206193,0.56,-0.2,9.96,-0.04,-0.01,-0.01,31.77,9.549707,7.479384191163756,-108.4179684164502,9.977735213965142,0.042426406871192854,0.17921904194433788,-0.13618129512720736
11508196,1943.0,1,177482.0,204371,0.57,-0.19,9.95,-0.03,-0.01,-0.01,31.77,9.589707,-1.3769739430243269,-979.4141170231086,9.968124196658065,0.033166247903554,-0.051064194644469485,-1.2721294648530022
11548196,1950.0,1,177471.0,205056,0.58,-0.22,9.99,-0.03,-0.01,-0.01,31.77,9.629707,3.2771951731885243,-1459.8974207006006,10.009240730445041,0.033166247903554,0.06995362232657161,-1.8987730272492067
11588196,1962.0,1,177914.0,206338,0.59,-0.21,9.96,-0.04,-0.01,-0.01,31.77,9.669707,13.057804873062887,-1359.3816717167263,9.979669333199373,0.042426406871192854,0.3242692702907599,-1.7676809652814178
11628196,1970.0,1,178465.0,207956,0.57,-0.21,9.95,-0.03,-0.01,-0.01,31.77,9.709707,13.39137922307186,-856.9868334340091,9.968525467690794,0.033166247903554,0.33294287853911425,-1.112460505420734
11668196,1968.0,1,179040.0,209265,0.58,-0.21,9.96,-0.03,-0.01,-0.01,31.77,9.749707,13.828306824339165,-321.932837618758,9.979083124215371,0.033166247903554,0.34430388050519417,-0.41464616006099686
11708196,1983.0,1,179403.0,209747,0.57,-0.22,9.99,-0.03,-0.01,-0.01,31.77,9.789707,21.096561252312387,-6.79794388830246,10.008666244810044,0.033166247903554,0.5332932064408089,-0.0036490433429687214
11748196,1986.0,1,179455.0,210014,0.56,-0.21,9.98,-0.04,-0.01,-0.01,31.77,9.829707,25.225288416642037,122.51847355254785,9.997904780502763,0.042426406871192854,0.6406484691783996,0.16500468485367487
11788196,1984.0,1,179482.0,210476,0.57,-0.2,9.96,-0.03,-0.01,-0.01,31.77,9.869707,20.828335940785568,286.7777084624631,9.978301458665198,0.033166247903554,0.5263188054581978,0.3792306347100176
11828196,1980.0,1,179731.0,211142,0.595,-0.2,9.98,-0.03,-0.01,-0.0,31.77,9.909707,13.501543133131099,623.089852524674,9.999721246114813,0.03162277660168379,0.3358073631703069,0.8178469995644072
11868192,1979.0,1,180252.0,212442,0.57,-0.2,9.94,-0.04,-0.01,-0.0,31.77,9.949703,15.161095646263112,992.5067655699182,9.958338214782625,0.04123105625617661,0.37895908741436773,1.299638413809807
11908196,1968.0,1,180664.0,213406,0.59,-0.21,9.97,-0.03,-0.01,-0.01,31.77,9.989707,0.5976657265635916,1055.3827042778282,9.989649643506024,0.033166247903554,0.0002804333978388531,1.3816408516039336
11948196,1949.0,1,181001.0,212956,0.58,-0.2,9.95,-0.03,-0.01,-0.01,31.77,10.029707,-18.41692590904683,571.8904961321688,9.96889662901567,0.033166247903554,-0.4941374342987749,0.7510730932982959
11988196,1957.0,1,179100.0,206473,0.58,-0.22,10.01,-0.03,-0.01,-0.01,31.77,10.069707,-4.926618874097417,-333.44933651272146,10.029202361105293,0.033166247903554,-0.14336214726599628,-0.42966591171107543
12028195,1974.0,1,177806.0,205450,0.56,-0.21,9.98,-0.03,-0.01,-0.01,31.77,10.109706,1.0081345708922693,-1198.9854253951255,9.997904780502763,0.033166247903554,0.010953454131495174,-1.5584931029339433
12068196,1970.0,1,178022.0,206426,0.59,-0.2,9.97,-0.04,-0.01,-0.01,31.77,10.149707,15.72419507567675,-1546.9054858849538,9.98944442899604,0.042426406871192854,0.3936008122816256,-2.012248445660251
12108241,1993.0,1,178612.0,208123,0.56,-0.22,9.95,-0.04,-0.01,-0.01,31.77,10.189752,18.259787065472853,-1228.0000738972547,9.968174356420537,0.042426406871192854,0.45953133600614193,-1.5963338407075327
12148882,1911.0,1,179485.0,210280,0.58,-0.22,9.96,-0.03,-0.01,-0.01,31.81,10.230393,-39.89497138609667,-498.60589142388505,9.979298572545067,0.033166247903554,-1.052610087856395,-0.6450621411544255
12189196,1920.0,1,180270.0,211863,0.58,-0.21,9.95,-0.03,-0.01,-0.01,31.81,10.270707,-48.78757023269295,216.99585206961055,9.969102266503237,0.033166247903554,-1.283835656318326,0.2882215387727555
12229196,1938.0,1,180668.0,212504,0.58,-0.21,9.98,-0.03,-0.01,-0.01,31.81,10.310707,-14.7863911928105,656.7785686346466,9.999044954394394,0.033166247903554,-0.39973618354362167,0.8617836294413063
12269196,1943.0,1,180767.0,212790,0.58,-0.2,9.97,-0.03,-0.01,-0.01,31.81,10.350707,-15.25060268009368,865.3072264343854,9.988858793676084,0.033166247903554,-0.4118066217681792,1.1337455061291948
12309208,1952.0,1,180917.0,213193,0.59,-0.21,9.99,-0.03,-0.01,-0.01,31.81,10.390719,-3.4258366470995316,1052.6579650326237,10.009610382027864,0.033166247903554,-0.10433877180945317,1.3780872623446452
12349196,1958.0,1,181130.0,213969,0.58,-0.21,9.95,-0.04,-0.01,-0.01,31.81,10.430707,9.509620396599804,1316.624105344721,9.969102266503237,0.042426406871192854,0.23200929244502555,1.7223503850195108
12389195,1972.0,1,181450.0,214836,0.57,-0.22,9.96,-0.03,-0.01,-0.01,31.81,10.470706,16.406200908840482,1491.9531717093173,9.978722363108416,0.033166247903554,0.41133434431067883,1.951013545419475
12429196,1971.0,1,181786.0,215716,0.57,-0.19,9.96,-0.03,-0.01,-0.01,31.81,10.510707,29.36565926246277,1278.5474583278785,9.978106032709816,0.033166247903554,0.7483064912013477,1.6726910408797349
12469196,1969.0,1,181778.0,212542,0.595,-0.2,9.97,-0.03,-0.01,-0.0,31.81,10.550707,15.777387908253933,545.557960076908,9.989740987633263,0.03162277660168379,0.3949839335899108,0.7167303511586628
12509211,1951.0,1,179199.0,207119,0.58,-0.2,9.94,-0.04,-0.01,-0.0,31.81,10.590722,12.875284103576357,-472.664298136716,9.9589156036187,0.04123105625617661,0.3195233608655545,-0.611229264325439
12549196,1984.0,1,178546.0,207084,0.59,-0.22,9.99,-0.03,-0.01,-0.01,31.81,10.630707,35.578462941431596,-1295.1333964040477,10.009825173298482,0.033166247903554,0.9098519614506662,-1.683888733976805
12589195,1994.0,1,178874.0,208356,0.58,-0.21,9.98,-0.03,-0.01,-0.0,31.81,10.670706,55.34211653115444,-1543.6192474644106,9.999044954394394,0.03162277660168379,1.4237469560413085,-2.0079625524044995
12629196,2007.0,1,179368.0,209744,0.57,-0.22,9.97,-0.03,-0.01,-0.01,31.81,10.710707,65.23040725188763,-1215.7059998346947,9.988703619589481,0.033166247903554,1.6808625284921583,-1.580299979992788
12669196,1963.0,1,180017.0,211628,0.59,-0.22,9.97,-0.03,-0.01,-0.0,31.81,10.750707,20.94274719011244,-645.6285572371257,9.989864863950864,0.03162277660168379,0.5292937295068826,-0.8368082566865386
12709196,1904.0,1,180561.0,212470,0.58,-0.22,9.96,-0.04,-0.01,-0.01,31.81,10.790707,-32.440200779296035,-204.89792647918372,9.979298572545067,0.042426406871192854,-0.8587709637660796,-0.2620099017770827
12749196,1911.0,1,180642.0,212609,0.58,-0.23,9.98,-0.04,-0.01,-0.0,31.81,10.830707,-33.97064211581258,-16.22366986886701,9.999484986738068,0.04123105625617661,-0.8985655360995798,-0.015942020979078236
12789196,1883.0,1,180595.0,212523,0.58,-0.21,9.95,-0.03,-0.01,-0.0,31.81,10.870707,-52.84726428365606,77.57822328443343,9.969102266503237,0.03162277660168379,-1.3893959183866822,0.10639386881189487
12829193,1879.0,1,180718.0,213181,0.57,-0.21,9.96,-0.04,-0.01,-0.0,31.81,10.910704,-66.85727355406742,282.1944438089739,9.978506902337644,0.04123105625617661,-1.7536845154088818,0.3732531672977579
12869196,1904.0,1,180951.0,214057,0.57,-0.21,9.98,-0.04,-0.01,-0.01,31.81,10.950707,-36.14792173577706,582.8750205207832,9.998469882937089,0.042426406871192854,-0.9551792129910727,0.7653990468567771
12909195,1922.0,1,181452.0,215453,0.57,-0.22,9.96,-0.03,-0.01,-0.01,31.81,10.990706,-23.958123053104895,701.4002705392231,9.978722363108416,0.033166247903554,-0.6382197753215987,0.9199789965386691
12949195,1935.0,1,181832.0,216291,0.58,-0.22,9.97,-0.03,-0.01,-0.01,31.81,11.030706,-13.100151965064295,344.39373583079976,9.989279253279488,0.033166247903554,-0.3558905507061906,0.4543731263738814
12989196,1941.0,1,180924.0,209588,0.595,-0.21,9.98,-0.03,-0.01,-0.0,31.81,11.070707,-5.170395682503307,-471.2151912236201,9.999926249728045,0.03162277660168379,-0.1497008376841593,-0.6093393474201787
13029195,1936.0,1,178772.0,207347,0.57,-0.23,9.98,-0.04,-0.01,-0.0,31.81,11.110706,-23.009844319372252,-1334.7481682767257,9.998909940588524,0.04123105625617661,-0.6135626089464825,-1.7355540917110048
13069196,1926.0,1,178666.0,208274,0.58,-0.22,9.95,-0.03,-0.01,-0.01,31.81,11.150707,-21.673505931151062,-1717.398452530457,9.969317930530654,0.033166247903554,-0.5788151061293262,-2.2346043926089236
13109195,1919.0,1,179478.0,210946,0.57,-0.2,9.97,-0.04,-0.01,-0.01,31.81,11.190706,-51.18754797420381,-1380.6668338526056,9.988283135754614,0.042426406871192854,-1.3462399351067746,-1.7954409513723415
13149882,1869.0,1,180758.0,214247,0.58,-0.23,9.96,-0.03,-0.01,-0.01,31.85,11.231393,-85.03519256714382,-549.734930635061,9.979524036746444,0.033166247903554,-2.2263472015101837,-0.711744340156895
13188175,1955.0,1,181613.0,215840,0.57,-0.19,9.97,-0.03,-0.01,-0.01,31.85,11.269686,-22.64257127508983,300.12302347846713,9.988087905099755,0.033166247903554,-0.604012766441504,0.3966355178327442
13228195,2000.0,1,181911.0,216356,0.58,-0.2,9.97,-0.03,-0.01,-0.01,31.85,11.309706,32.86617411038908,837.3954784113671,9.988858793676084,0.033166247903554,0.8393269622227071,1.0973431648199752
13268196,2005.0,1,181997.0,216720,0.59,-0.2,9.97,-0.04,-0.01,-0.0,31.85,11.349707,23.233757137642804,1090.9733729450118,9.98944442899604,0.04123105625617661,0.5888646251031019,1.4280579970717744
13308193,2004.0,1,182136.0,217310,0.58,-0.22,9.98,-0.03,-0.01,-0.01,31.85,11.389704,20.95160530218663,1314.0938329459318,9.999259972617974,0.033166247903554,0.5295240583494614,1.7190504183033428
13348195,2015.0,1,182387.0,218143,0.58,-0.2,9.98,-0.03,-0.01,-0.01,31.85,11.429706,27.519883128624294,1647.1076049233343,9.998839932712196,0.033166247903554,0.700312575905863,2.153365065246802
13388193,2018.0,1,182774.0,219248,0.58,-0.21,9.98,-0.03,-0.01,-0.01,31.85,11.469704,21.894862434459355,1909.176629877579,9.999044954394394,0.033166247903554,0.5540506529229942,2.49515398097832
13428195,2013.0,1,183181.0,220019,0.57,-0.2,9.97,-0.04,-0.01,-0.01,31.85,11.509706,14.991226360496556,1730.2004789648115,9.988283135754614,0.042426406871192854,0.37454214217224335,2.2617343138774273
13468195,2023.0,1,183286.0,217090,0.58,-0.22,9.97,-0.04,-0.01,-0.01,31.85,11.549706,18.296448714073,917.7577411029926,9.989279253279488,0.042426406871192854,0.4604846130722232,1.2021511658261896
13508195,2021.0,1,180156.0,209856,0.59,-0.21,9.96,-0.04,-0.01,-0.01,31.85,11.589706,9.579882124102102,-284.1810288859875,9.979669333199373,0.042426406871192854,0.23383623956848143,-0.3654104681438385
13548195,2010.0,1,179168.0,209763,0.59,-0.22,9.99,-0.04,-0.01,-0.0,31.85,11.629706,-1.825840056579718,-1310.2786647321018,10.009825173298482,0.04123105625617661,-0.0627356220933608,-1.70364110586132
13588196,2029.0,1,179535.0,211032,0.57,-0.19,9.98,-0.03,-0.01,-0.01,31.85,11.669707,6.111573864055307,-1680.7692672965622,9.998069813719047,0.033166247903554,0.14365320501750886,-2.1868328198051263
13628196,2026.0,1,180197.0,212743,0.58,-0.21,9.95,-0.04,-0.01,-0.0,31.85,11.709707,5.113607715176445,-1339.5538423501437,9.969102266503237,0.04123105625617661,0.11770406528221061,-1.7418216242101217
13668196,2032.0,1,180819.0,214671,0.56,-0.2,9.96,-0.04,-0.01,-0.0,31.85,11.749707,2.399513518832561,-636.9313521364284,9.977735213965142,0.04123105625617661,0.047132122902391056,-0.8254654117937438
13708193,2039.0,1,181497.0,215893,0.5549999999999999,-0.23,9.930000000000001,-0.03,-0.01,-0.0,31.85,11.789704,7.366421018014764,-7.155496299921444,9.948156864464895,0.03162277660168379,0.17628177080715654,-0.00411536114266206
13748202,2035.0,1,181752.0,216269,0.57,-0.23,10.0,-0.03,-0.01,-0.01,31.85,11.829713,2.146616550033708,353.1024328241765,10.01887219201842,0.033166247903554,0.04055628985498037,0.4657309589270427
13788196,2032.0,1,181792.0,216466,0.57,-0.23,9.97,-0.04,-0.01,-0.0,31.85,11.869707,-8.658789890494853,539.841194592004,9.988928871505694,0.04123105625617661,-0.24040614753527087,0.7092745784784773
13828196,2021.0,1,181872.0,216872,0.5549999999999999,-0.21,9.95,-0.03,-0.01,-0.0,31.85,11.909707,-14.485755205428813,723.9966683542767,9.967679017705175,0.03162277660168379,-0.3919190393901944,0.9494490886641831
13868196,2033.0,1,182154.0,217654,0.56,-0.19,9.94,-0.04,-0.01,-0.01,31.85,11.949707,-11.976624865312912,893.5170819963932,9.95757500599418,0.042426406871192854,-0.32667657211523743,1.1705366375769681
13908196,2032.0,1,182374.0,218407,0.56,-0.22,9.99,-0.03,-0.01,-0.0,31.85,11.989707,-6.5812128394209335,812.5821231260944,10.008101718108184,0.03162277660168379,-0.18638493923103003,1.0649817295069124
13948209,2047.0,1,182757.0,218569,0.57,-0.2,9.99,-0.04,-0.01,-0.01,31.85,12.02972,2.7317044449278476,248.19354034886885,10.008246599679687,0.042426406871192854,0.055769759328965954,0.32890938447355617
13988196,2047.0,1,181087.0,210779,0.5549999999999999,-0.21,9.97,-0.03,-0.01,-0.01,31.85,12.069707,6.285292562386524,-747.4442539022405,9.98764361598871,0.033166247903554,0.14817024277745203,-0.9695957029469062
14028196,2035.0,1,179042.0,209164,0.57,-0.21,9.96,-0.03,-0.01,-0.01,31.85,12.109707,-5.252982801229281,-1780.7365005913298,9.978506902337644,0.033166247903554,-0.15184826992578745,-2.3172095107645547
14068196,2029.0,1,179253.0,210427,0.57,-0.22,9.97,-0.04,-0.01,-0.0,31.85,12.149707,-10.689322328203014,-2361.347366067195,9.988703619589481,0.04123105625617661,-0.29320410067460195,-3.0744388636328743
14108193,2030.0,1,179942.0,212180,0.57,-0.22,9.96,-0.03,-0.01,-0.0,31.85,12.189704,-4.481220320653087,-2235.150977573101,9.978722363108416,0.03162277660168379,-0.13178088339826807,-2.9098542592517944
14148215,2034.0,1,180662.0,214222,0.58,-0.2,9.99,-0.03,-0.01,-0.01,31.85,12.229726,-0.5827887047783373,-1520.8580061114715,10.008821109401447,0.033166247903554,-0.030413771034301647,-1.9782774722845475
14188882,2026.0,1,181415.0,216475,0.57,-0.22,9.99,-0.03,-0.01,-0.01,31.83,12.270393,-1.0588222064350528,-566.8771440323424,10.008666244810044,0.033166247903554,-0.042791605560102655,-0.7341011163204192
14229196,2027.0,1,182494.0,219112,0.57,-0.21,9.96,-0.04,-0.01,-0.0,31.83,12.310707,0.9358346299303316,309.40253634960925,9.978506902337644,0.04123105625617661,0.0090735093327835,0.40873780517211245
14269196,2022.0,1,183326.0,220534,0.57,-0.2,9.99,-0.03,-0.01,-0.01,31.83,12.350707,4.8043649349338295,976.2936413234045,10.008246599679687,0.033166247903554,0.10966312709441459,1.2784933503754548
14309196,2023.0,1,183511.0,221052,0.57,-0.21,9.96,-0.03,-0.01,-0.01,31.83,12.390707,7.659716829696706,1445.1713789506707,9.978506902337644,0.033166247903554,0.18390805553601489,1.890001000248423
14349196,2021.0,1,183875.0,221982,0.5549999999999999,-0.21,9.96,-0.03,-0.01,-0.0,31.83,12.430707,16.57682654361933,1719.996920037986,9.977661299122156,0.03162277660168379,0.4157709561579587,2.2484268909845033
14389196,2027.0,1,184090.0,222354,0.58,-0.25,9.97,-0.03,-0.01,-0.0,31.83,12.470707,23.92163165856574,1712.956223565591,9.9899849849737,0.03162277660168379,0.6067507548920065,2.2392444551216055
14429195,2003.0,1,184349.0,222724,0.58,-0.22,9.97,-0.03,-0.01,-0.01,31.83,12.510706,13.687639198876088,1325.3841908049665,9.989279253279488,0.033166247903554,0.3406462375345637,1.7337752381157339
14469195,1991.0,1,184151.0,219585,0.58,-0.22,9.98,-0.03,-0.01,-0.0,31.83,12.550706,1.8530430152512427,615.5336056357024,9.999259972617974,0.03162277660168379,0.03292278376340215,0.8079921858120679
14509193,1984.0,1,181927.0,215711,0.57,-0.2,9.97,-0.03,-0.01,-0.01,31.83,12.590704,10.725386815573476,-140.38185174832412,9.988283135754614,0.033166247903554,0.2636216800263807,-0.1778684080108354
14549195,1995.0,1,181908.0,217282,0.58,-0.21,9.98,-0.03,-0.01,-0.01,31.83,12.630706,21.871701339037124,-600.4446814754411,9.999044954394394,0.033166247903554,0.5534484175644008,-0.7778797056766278
14589196,1985.0,1,182579.0,218929,0.56,-0.21,9.95,-0.03,-0.01,-0.01,31.83,12.670707,27.22464075086002,-605.2038199543549,9.967958667651065,0.033166247903554,0.6926356765190513,-0.7840865467209217
14629196,1996.0,1,183171.0,220359,0.58,-0.21,9.98,-0.03,-0.01,-0.0,31.83,12.710707,40.72064954626223,-286.68952361461936,9.999044954394394,0.03162277660168379,1.0435592208638569,-0.36868203254778514
14669193,1984.0,1,183527.0,221119,0.57,-0.18,9.97,-0.03,-0.01,-0.01,31.83,12.750704,40.73818423130137,65.74355466567465,9.987902682745762,0.033166247903554,1.0440151581647426,0.09095916203587048
14709196,1969.0,1,183755.0,221298,0.58,-0.21,9.97,-0.03,-0.01,-0.01,31.83,12.790707,31.739296271232412,248.4127725648386,9.98906402021731,0.033166247903554,0.810025857625384,0.3291953058692755
14749195,1968.0,1,183725.0,221391,0.58,-0.22,9.95,-0.03,-0.01,-0.0,31.83,12.830706,38.82768110176198,267.6720258695028,9.969317930530654,0.03162277660168379,0.9943382099748297,0.3543131133093158
14789196,1961.0,1,183689.0,221471,0.58,-0.22,9.96,-0.04,-0.01,-0.0,31.83,12.870707,39.9503817470363,248.70429438288704,9.979298572545067,0.04123105625617661,1.023530699076651,0.3295755069484387
14829195,1949.0,1,183793.0,221776,0.57,-0.22,9.97,-0.03,-0.01,-0.0,31.83,12.910706,33.3725581289909,242.21669015363318,9.988703619589481,0.03162277660168379,0.8524939716179482,0.32111441080936226
14869196,1941.0,1,183934.0,222234,0.57,-0.22,9.96,-0.03,-0.01,-0.01,31.83,12.950707,33.651862529347284,136.02137939967568,9.978722363108416,0.033166247903554,0.8597564513339924,0.1826150970323761
14909196,1935.0,1,184069.0,222782,0.58,-0.21,9.98,-0.03,-0.01,-0.01,31.83,12.990707,31.019072020551484,-226.03229953821335,9.999044954394394,0.033166247903554,0.7912985693875357,-0.2895732296208533
14949195,1923.0,1,184189.0,220771,0.59,-0.21,9.99,-0.03,-0.01,-0.01,31.83,13.030706,26.841265256735763,-827.0338325152082,10.009610382027864,0.033166247903554,0.682667137727134,-1.073395973819834
14989196,1919.0,1,182110.0,216536,0.56,-0.21,9.98,-0.04,-0.01,-0.0,31.83,13.070707,23.600665469855116,-1392.3101402274924,9.997904780502763,0.04123105625617661,0.5984049843560871,-1.8106260846100342
15029196,1903.0,1,182128.0,218919,0.59,-0.22,9.96,-0.03,-0.01,-0.01,31.83,13.110707,14.881021847842842,-1558.9926407445303,9.979884768873838,0.033166247903554,0.3716766017914155,-2.0280124435400264
15069196,1891.0,1,183418.0,222047,0.58,-0.23,9.97,-0.04,-0.01,-0.0,31.83,13.150707,0.9506382593552666,-1166.926477432335,9.989504492215818,0.04123105625617661,0.009458433660095368,-1.516682007305193
15109196,1875.0,1,184428.0,224129,0.59,-0.2,9.96,-0.03,-0.01,-0.01,31.83,13.190707,-9.438003489511335,-401.02995490261253,9.979463913457476,0.033166247903554,-0.26066727822315927,-0.5178041656996158
15149193,1873.0,1,185276.0,225765,0.59,-0.2,9.96,-0.03,-0.01,-0.01,31.83,13.230704,-14.693803663233798,345.9966655851619,9.979463913457476,0.033166247903554,-0.3973287203792338,0.45646365814440587
15188882,1863.0,1,185315.625,226219,0.58,-0.23,9.96,-0.03,-0.01,-0.01,31.77,13.270393,-22.926199621492447,756.9739761265718,9.979524036746444,0.033166247903554,-0.6113876775063347,0.9924579038769125
15229196,1858.0,1,185315.625,226457,0.59,-0.21,9.97,-0.04,-0.01,-0.01,31.77,13.310707,-30.554008263835517,774.1757324941809,9.989649643506024,0.042426406871192854,-0.8097261407464363,1.0148923356400306
15269196,1857.0,1,185315.625,226567,0.58,-0.22,9.96,-0.03,-0.01,-0.0,31.77,13.350707,-35.359161579787525,564.2713472198961,9.979298572545067,0.03162277660168379,-0.9346698524998357,0.741136243088786
15309193,1854.0,1,185315.625,226778,0.58,-0.19,9.930000000000001,-0.03,-0.01,-0.0,31.77,13.390704,-39.3887936419927,344.64723296528445,9.948738613512772,0.03162277660168379,-1.0394484420155936,0.4547037358793416
15349196,1859.0,1,185315.625,227027,0.57,-0.21,9.98,-0.04,-0.01,-0.01,31.77,13.430707,-43.87757929003313,234.25163443411296,9.998469882937089,0.042426406871192854,-1.1561659540811673,0.31072643093043056
15389195,1848.0,1,185315.625,227308,0.57,-0.2,9.95,-0.03,-0.01,-0.0,31.77,13.470706,-54.66753985247553,223.25592309599799,9.968319818304385,0.03162277660168379,-1.4367267673790156,0.29638588741672367
15429196,1855.0,1,185315.625,226798,0.58,-0.2,9.95,-0.03,-0.01,-0.01,31.77,13.510707,-61.80934968651001,238.590489536978,9.96889662901567,0.033166247903554,-1.622428277950777,0.3163851408118571
15469193,1847.0,1,185315.625,225865,0.595,-0.21,9.95,-0.03,-0.01,-0.01,31.77,13.550704,-69.08227458128411,223.49785488468893,9.969986208616337,0.033166247903554,-1.8115390454761502,0.296701413464688
15509196,1846.0,1,185315.625,226173,0.59,-0.19,9.99,-0.03,-0.01,-0.01,31.77,13.590707,-87.5478068816646,171.20829333558774,10.009210758096765,0.033166247903554,-2.291680259171165,0.2285056679008462
15549196,1843.0,1,185315.625,226920,0.595,-0.2,9.95,-0.04,-0.01,-0.01,31.77,13.630707,-90.16761905739715,108.81259347419298,9.969780589361031,0.042426406871192854,-2.3598006781900787,0.1471295548494899
15589238,1866.0,1,185315.625,227541,0.58,-0.21,9.97,-0.03,-0.01,-0.0,31.77,13.670749,-85.91075568443763,63.80367794832329,9.98906402021731,0.03162277660168379,-2.24911361468287,0.0884291859732965
15629193,1854.0,1,185315.625,228521,0.58,-0.21,9.95,-0.03,-0.01,-0.01,31.77,13.710704,-99.42604786554347,44.3956442429545,9.969102266503237,0.033166247903554,-2.6005385660851745,0.0631173399899839
15669196,1869.0,1,185315.625,229543,0.59,-0.2,9.97,-0.03,-0.01,-0.01,31.77,13.750707,-101.89656634857224,41.82551657552085,9.98944442899604,0.033166247903554,-2.6647770469262038,0.05976539426157477
15709195,1877.0,1,185315.625,229936,0.57,-0.22,9.96,-0.03,-0.01,-0.01,31.77,13.790706,-98.14359947427036,43.571299129993164,9.978722363108416,0.033166247903554,-2.567192312260994,0.06204223383275366
15749196,1892.0,1,185315.625,230242,0.58,-0.22,9.96,-0.03,-0.01,-0.01,31.77,13.830707,-98.5740557795546,43.234512254902214,9.979298572545067,0.033166247903554,-2.5783850474337346,0.06160299832642078
15789244,1913.0,1,185315.625,231112,0.59,-0.21,9.97,-0.04,-0.01,-0.0,31.77,13.870755,-82.79052958621844,41.534102967810185,9.989649643506024,0.04123105625617661,-2.16798142085107,0.05938533430971198
15829175,1946.0,1,185315.625,231897,0.56,-0.22,9.99,-0.04,-0.01,-0.0,31.77,13.910686,-64.46113857514835,42.108750468351865,10.008101718108184,0.04123105625617661,-1.6913801562254982,0.06013478627631604
15869173,1968.0,1,185315.625,232232,0.595,-0.21,9.95,-0.04,-0.01,-0.0,31.77,13.950684,-46.33520975718041,48.170341965436585,9.969986208616337,0.04123105625617661,-1.2200693204241795,0.06804027905921052
15909175,2004.0,1,185315.625,231724,0.56,-0.21,9.97,-0.04,-0.01,-0.0,31.77,13.990686,-24.000257130412265,62.131932963604186,9.987922706949629,0.04123105625617661,-0.639315346610159,0.08624890577495371
15949173,2032.0,1,185315.625,228939,0.5549999999999999,-0.22,10.01,-0.03,-0.01,-0.0,31.77,14.030684,0.7039262086584521,85.8129245568167,10.02778764234664,0.03162277660168379,0.003043421001493931,0.1171335188706999
15989196,2071.0,1,185315.625,228854,0.595,-0.21,9.930000000000001,-0.03,-0.01,-0.01,31.77,14.070707,30.584132661579503,118.49151430307612,9.950026381874574,0.033166247903554,0.7799892657452986,0.15975274775117962
16029196,2095.0,1,185315.625,228990,0.59,-0.21,10.01,-0.03,-0.01,-0.0,31.77,14.110707,48.99941232405145,153.88358272990797,10.029571276978892,0.03162277660168379,1.258823809144311,0.20591087992729057
16069195,2118.0,1,185315.625,228529,0.595,-0.21,9.95,-0.03,-0.01,-0.01,31.77,14.150706,70.57004994723226,180.54765690444788,9.969986208616337,0.033166247903554,1.8197040459060738,0.2406860121761014
16109196,2155.0,1,185315.625,227719,0.595,-0.22,9.95,-0.04,-0.01,-0.0,31.77,14.190707,99.62081233655809,188.42344307883414,9.970201853523326,0.04123105625617661,2.5750826662174404,0.25095756722747287
16149175,2165.0,1,185315.625,227082,0.5549999999999999,-0.23,10.01,-0.03,-0.01,-0.0,31.77,14.230686,114.36705112313616,177.31565510493138,10.028012016347008,0.03162277660168379,2.9585147207744713,0.23647085400969114
16189193,2182.875,1,185147.0,227063,0.595,-0.2,9.930000000000001,-0.04,-0.01,-0.0,31.77,14.270704,126.34041582850037,157.91022117780585,9.949820350136983,0.04123105625617661,3.2698464369756968,0.21116239864221747
16228862,2182.875,1,185200.0,226959,0.59,-0.22,10.01,-0.04,-0.01,-0.0,31.77,14.310373,132.64347628198715,140.1297033406558,10.029785640780165,0.04123105625617661,3.4337387660404723,0.1879731494977775
16269192,2182.875,1,185045.0,226717,0.58,-0.19,9.96,-0.03,-0.01,-0.01,31.77,14.350703,133.29537207972433,116.40716547257335,9.978682277735874,0.033166247903554,3.450689376206298,0.1570343519891922
16309196,2182.875,1,184921.0,226624,0.57,-0.2,10.01,-0.04,-0.01,-0.0,31.77,14.390707,138.89306510150132,57.22925489002705,10.02821020920483,0.04123105625617661,3.5962407243963925,0.07985486121649749
16349173,2182.875,1,184839.0,226639,0.57,-0.21,9.97,-0.03,-0.01,-0.01,31.77,14.430684,146.13429128423286,-69.14829183435833,9.988488374123484,0.033166247903554,3.7845272612510708,-0.0849660086870646
16389196,2182.875,1,184775.0,226228,0.59,-0.2,9.95,-0.03,-0.01,-0.01,31.77,14.470707,153.12533607625429,-262.2898457977837,9.969483436969037,0.033166247903554,3.966308575584924,-0.3368601130108591
16429195,2165.0,1,184285.0,224918,0.59,-0.2,10.0,-0.03,-0.01,-0.01,31.77,14.510706,145.69854159569144,-470.86781439419195,10.019386208745523,0.033166247903554,3.7731968873999366,-0.6088863005562801
16469196,2139.0,1,184074.0,224723,0.595,-0.22,9.98,-0.04,-0.01,-0.01,31.77,14.550707,131.0111873140824,-615.4620915895563,10.000141249002436,0.042426406871192854,3.391295949153216,-0.7974653256135703
16509196,2112.0,1,184056.0,224897,0.58,-0.19,9.98,-0.04,-0.01,-0.0,31.77,14.590707,115.42852424137978,-642.7908502274984,9.998644908186309,0.04123105625617661,2.9861151702501476,-0.8331073355183326
16549196,2069.0,1,184132.0,225074,0.59,-0.2,9.95,-0.04,-0.01,-0.01,31.77,14.630707,87.9419613481262,-566.277230791974,9.969483436969037,0.042426406871192854,2.2714089027466,-0.733318712921184
16589193,2032.0,1,184259.0,225276,0.595,-0.2,9.96,-0.04,-0.01,-0.01,31.77,14.670704,64.16119286510215,-454.292960243646,9.97976076867577,0.042426406871192854,1.6530607903662138,-0.5872694710606454
16629175,1991.0,1,184334.0,225223,0.59,-0.22,9.99,-0.04,-0.01,-0.01,31.77,14.710686,40.222132042620395,-374.1231076430374,10.009825173298482,0.042426406871192854,1.0305967567792518,-0.48271241018898503
16669196,1942.0,1,184189.0,225286,0.595,-0.19,9.95,-0.03,-0.01,-0.01,31.77,14.750707,7.846213170846147,-341.2126415430927,9.969584996377732,0.033166247903554,0.18875733787093715,-0.43979076950106755
16709196,1901.0,1,184231.0,225496,0.58,-0.21,9.96,-0.03,-0.01,-0.01,31.77,14.790707,-16.78056640397082,-318.6589252668471,9.979083124215371,0.033166247903554,-0.45158877520637597,-0.4103763423930943
16749196,1855.0,1,184181.0,225470,0.57,-0.22,10.0,-0.03,-0.01,-0.0,31.77,14.830707,-42.6168890759487,-265.50705938872414,10.018647613325863,0.03162277660168379,-1.1233854569020278,-0.3410559844806607
16789196,1811.0,1,184200.0,225304,0.59,-0.2,9.97,-0.03,-0.01,-0.01,31.77,14.870707,-71.72973116538842,-187.16244791225523,9.98944442899604,0.033166247903554,-1.8803782750644846,-0.23887939258993857
16829193,1773.0,1,184372.0,225510,0.595,-0.21,9.930000000000001,-0.03,-0.01,-0.0,31.77,14.910704,-87.16505624731802,-138.4316694226524,9.950026381874574,0.03162277660168379,-2.2817279679981715,-0.17532499143313612
16869196,1749.0,1,184426.0,225079,0.595,-0.22,10.01,-0.03,-0.01,-0.01,31.77,14.950707,-97.72670711755343,-173.09938769941436,10.03008100665194,0.033166247903554,-2.5563522672041765,-0.22053843030775688
16909196,1711.0,1,183946.0,224187,0.59,-0.21,9.96,-0.03,-0.01,-0.01,31.77,14.990707,-112.60960739446196,-285.1919067136243,9.979669333199373,0.033166247903554,-2.9433377971100483,-0.36672884919518683
16949196,1685.0,1,183884.0,224338,0.595,-0.18,9.930000000000001,-0.03,-0.01,-0.01,31.77,15.030707,-125.92795460106109,-397.11329501568207,9.949438426363573,0.033166247903554,-3.2896417805623073,-0.5126960803916447
16989192,1659.875,1,183932.0,224541,0.59,-0.2,9.97,-0.03,-0.01,-0.01,31.77,15.070703,-129.72989252241098,-407.51722601904993,9.98944442899604,0.033166247903554,-3.38849986156723,-0.5262648273948721
17029196,1659.875,1,183963.0,224646,0.595,-0.19,9.96,-0.04,-0.01,-0.01,31.77,15.110707,-116.90390158927528,-259.15811195218333,9.97956537129749,0.042426406871192854,-3.0549981377447257,-0.3327757237335139
17069193,1659.875,1,184199.0,225042,0.57,-0.21,9.99,-0.03,-0.01,-0.01,31.77,15.150704,-99.23779439105061,26.508956463455476,10.008451428667673,0.033166247903554,-2.595643594726919,0.039789624617094885
17109196,1659.875,1,184685.0,225638,0.595,-0.19,9.930000000000001,-0.03,-0.01,-0.01,31.77,15.190707,-86.30966531198953,369.34831233858523,9.949624364768754,0.033166247903554,-2.2594860723846955,0.4869187415934761
17149196,1659.875,1,184933.0,225762,0.595,-0.2,9.94,-0.04,-0.01,-0.0,31.77,15.230707,-72.68205440801283,681.8268466118813,9.959800449808219,0.04123105625617661,-1.9051406068567958,0.8944514495786743
17189196,1659.875,1,184939.0,225823,0.59,-0.22,9.930000000000001,-0.03,-0.01,-0.0,31.77,15.270707,-60.90861099566916,907.4458549667916,9.949944723464549,0.03162277660168379,-1.5990072489109872,1.1887024632095626
17228879,1659.875,1,185015.0,225942,0.595,-0.2,9.95,-0.03,-0.01,-0.01,32.03,15.31039,-50.73611152394349,1022.1275475932413,9.969780589361031,0.033166247903554,-1.3345016737012427,1.3382696674371244
17269196,1659.875,1,184998.0,226081,0.595,-0.21,9.98,-0.04,-0.01,-0.01,32.03,15.350707,-41.40315727242268,1016.1738259473888,9.999926249728045,0.042426406871192854,-1.0918259734403346,1.330504857894072
17309193,1659.875,1,185011.0,226147,0.595,-0.18,9.930000000000001,-0.04,-0.01,-0.01,32.03,15.390704,-34.405939029332174,892.6952554772936,9.949438426363573,0.042426406871192854,-0.9098841368837384,1.169464816155373
17349195,1659.875,1,184941.0,225567,0.59,-0.21,9.96,-0.04,-0.01,-0.0,32.03,15.430706,-27.972696785319783,689.1452273637253,9.979669333199373,0.04123105625617661,-0.7426068177798366,0.9039960396824452
17389173,1659.875,1,184296.0,224233,0.58,-0.2,10.01,-0.04,-0.01,-0.0,32.03,15.470684,-24.228491707918202,486.0774350990434,10.028783575289676,0.04123105625617661,-0.6452499075677444,0.6391561924312998
17429191,1659.875,1,184132.0,224389,0.59,-0.2,9.98,-0.03,-0.01,-0.0,32.03,15.510702,-21.02459275544513,369.7971201032925,9.999424983467799,0.03162277660168379,-0.5619420501730832,0.4875040741000475
17469192,1659.875,1,184239.0,224560,0.595,-0.2,9.94,-0.03,-0.01,-0.01,32.03,15.550703,-19.903138796804548,369.8922610043882,9.959800449808219,0.033166247903554,-0.5327819774470088,0.4876281563162991
17509196,1669.0,1,184299.0,224785,0.57,-0.21,9.97,-0.04,-0.01,-0.0,32.03,15.590707,-11.822494678347267,435.03990266982544,9.988488374123484,0.04123105625617661,-0.3226688752975725,0.5725933360477948
17549192,1690.0,1,184420.0,224981,0.58,-0.22,9.94,-0.04,-0.01,-0.01,32.03,15.630703,8.950563379892941,482.18259381142497,9.959337327352658,0.042426406871192854,0.21747267848991003,0.6340765628151181
17589196,1705.0,1,184364.0,225021,0.56,-0.19,9.96,-0.04,-0.01,-0.0,32.03,15.670707,18.175942667373157,477.8492271365107,9.977539776918958,0.04123105625617661,0.4573512119560875,0.6284250109098725
17629212,1712.0,1,184286.0,224836,0.57,-0.21,9.97,-0.04,-0.01,-0.01,32.03,15.710723,23.324157566096375,467.5559505653675,9.988488374123484,0.042426406871192854,0.5912152192116374,0.615000578781009
17669196,1727.0,1,184130.0,224467,0.58,-0.22,9.95,-0.03,-0.01,-0.01,32.03,15.750707,30.096947700468736,511.15860107895367,9.969317930530654,0.033166247903554,0.7673214707033511,0.6718669049126871
17709196,1728.0,1,184039.0,224295,0.595,-0.2,9.95,-0.03,-0.01,-0.01,32.03,15.790707,24.73231453146502,577.5537411935297,9.969780589361031,0.033166247903554,0.6278301503940577,0.7584590649497811
17749196,1734.0,1,184065.0,224251,0.59,-0.2,9.930000000000001,-0.04,-0.01,-0.01,32.03,15.830707,23.859390393152037,512.2450209356759,9.949522601612603,0.042426406871192854,0.6051323560161164,0.6732838074440836
17789192,1743.0,1,184032.0,224157,0.57,-0.22,9.97,-0.03,-0.01,-0.0,32.03,15.870703,20.081760266833708,143.73273649323326,9.988703619589481,0.03162277660168379,0.5069063268805273,0.1926722046218204
17829196,1747.0,1,183834.0,221442,0.57,-0.21,9.97,-0.03,-0.01,-0.01,32.03,15.910707,18.907070825232232,-540.4185901645805,9.988488374123484,0.033166247903554,0.4763620238498678,-0.6995940224741884
17869196,1777.0,1,181834.0,216877,0.57,-0.19,9.930000000000001,-0.04,-0.01,-0.01,32.03,15.950707,33.06284248206334,-1315.4440616054276,9.948160634006673,0.042426406871192854,0.8444407379392703,-1.710377786768059
17909196,1792.0,1,181259.0,217091,0.57,-0.2,9.96,-0.04,-0.01,-0.01,32.03,15.990707,40.00128396623266,-1844.0432615534955,9.978301458665198,0.042426406871192854,1.024854259800877,-2.3997738244659197
17949173,1803.0,1,181643.0,218138,0.57,-0.22,10.01,-0.03,-0.01,-0.0,32.03,16.030684,37.98532012770306,-1915.7853578750282,10.028629018963658,0.03162277660168379,0.9724351197267553,-2.493339454048904
17989196,1810.0,1,182204.0,219867,0.57,-0.19,9.96,-0.03,-0.01,-0.01,32.03,16.070707,30.97758056922237,-1587.7582030652854,9.978106032709816,0.033166247903554,0.7902197076750727,-2.0655283245478446
18029195,1827.0,1,182719.0,220978,0.595,-0.22,9.97,-0.03,-0.01,-0.0,32.03,16.110706,37.88681823302502,-1104.0356971183728,9.990161410107447,0.03162277660168379,0.9698738710991704,-1.4346602131737758
18069196,1837.0,1,182927.0,221230,0.59,-0.22,9.98,-0.04,-0.01,-0.01,32.03,16.150707,33.48677169002631,-687.4787638164082,9.999844998798732,0.042426406871192854,0.8554637553709376,-0.8913890555137574
18109196,1833.0,1,182963.0,221316,0.57,-0.21,9.97,-0.04,-0.01,-0.0,32.03,16.190707,13.878378374091849,-407.66371078144533,9.988488374123484,0.04123105625617661,0.34560584214262546,-0.526455871979859
18149196,1853.0,1,183034.0,221625,0.57,-0.23,9.96,-0.04,-0.01,-0.01,32.03,16.230707,29.432983312358854,-228.34804314258275,9.97894784032866,0.042426406871192854,0.7500570527612386,-0.2925934091166476
18189196,1859.0,1,183066.0,221911,0.56,-0.21,9.95,-0.03,-0.01,-0.0,32.03,16.270707,7.605635211617113,-144.87439109581624,9.967958667651065,0.03162277660168379,0.18250182400578213,-0.1837275520005862
18229882,1829.0,1,183311.0,222380,0.58,-0.2,9.95,-0.03,-0.01,-0.0,32.13,16.311393,-15.736897223934196,-235.31548567632888,9.96889662901567,0.03162277660168379,-0.42445126415891266,-0.3016803076138909
18268193,1913.0,1,183457.0,222644,0.58,-0.21,10.0,-0.04,-0.01,-0.0,32.13,16.349704,35.7166819684655,-553.301416910199,10.01900693681764,0.04123105625617661,0.9134459359062217,-0.7163957310534864
18308196,1920.0,1,182874.0,218227,0.56,-0.23,9.97,-0.03,-0.01,-0.01,32.13,16.389707,47.087278035866944,-979.4499337103134,9.98836322927836,0.033166247903554,1.209104447528191,-1.2721761767705473
18348196,1918.0,1,181365.0,218055,0.58,-0.2,9.97,-0.03,-0.01,-0.0,32.13,16.429707,24.347341730685137,-1220.6707265177176,9.988858793676084,0.03162277660168379,0.6178200783961758,-1.5867749479909707
18388196,1925.0,1,182223.0,221325,0.58,-0.2,10.0,-0.03,-0.01,-0.01,32.13,16.469707,20.110991448749385,-1006.6103612581956,10.018802323631304,0.033166247903554,0.5076663967736894,-1.3075986502353754
18428192,1923.0,1,183258.0,223843,0.595,-0.19,9.96,-0.03,-0.01,-0.01,32.13,16.509703,15.997230002982224,-316.48366026912174,9.97956537129749,0.033166247903554,0.4007002730090523,-0.40753937428848486
18468195,1951.0,1,184063.0,225881,0.595,-0.23,9.96,-0.03,-0.01,-0.01,32.13,16.549706,19.540017489322153,582.7090457906543,9.980407055826932,0.033166247903554,0.4928199181881796,0.7651825835679182
18508196,1938.0,1,184910.0,227211,0.58,-0.21,9.96,-0.03,-0.01,-0.0,32.13,16.589707,13.321107409136168,1329.2738897858533,9.979083124215371,0.03162277660168379,0.33111566914797536,1.738848161165039
18548196,1963.0,1,185225.0,226604,0.59,-0.22,10.0,-0.03,-0.01,-0.01,32.13,16.629707,14.875921858828168,1716.5906810346276,10.019805387331632,0.033166247903554,0.37154399175475344,2.2439844936585183
18588193,1966.0,1,184769.0,226311,0.595,-0.21,9.930000000000001,-0.03,-0.01,-0.01,32.13,16.669704,19.647384098776286,1784.2588231806342,9.950026381874574,0.033166247903554,0.4956116673419564,2.3322368956266173
18628196,1970.0,1,184737.0,226311,0.59,-0.2,9.96,-0.04,-0.01,-0.0,32.13,16.709707,11.283424728447425,1695.5447534566724,9.979463913457476,0.04123105625617661,0.2781317952191938,2.216536515902699
18668173,1973.0,1,184693.0,226254,0.5549999999999999,-0.22,10.01,-0.04,-0.01,-0.0,32.13,16.749684,7.156857111348612,1543.9490257896719,10.02778764234664,0.04123105625617661,0.17083268508048718,2.0188262393910783
18708196,1968.0,1,184566.0,226117,0.57,-0.22,9.95,-0.03,-0.01,-0.01,32.13,16.789707,-1.3805433370443232,1283.2224894413248,9.968741144196693,0.033166247903554,-0.0511570061133748,1.6787881895815124
18748196,1973.0,1,184465.0,225832,0.59,-0.21,9.96,-0.04,-0.01,-0.0,32.13,16.829707,-5.868157771595075,837.9367263990475,9.979669333199373,0.04123105625617661,-0.16784406425770287,1.0980490573339168
18788196,1969.0,1,183672.0,222249,0.59,-0.22,9.98,-0.04,-0.01,-0.0,32.13,16.869707,-12.692088218012383,262.34399967365977,9.999844998798732,0.04123105625617661,-0.3452800673696012,0.3473643321750926
18828193,1968.0,1,182123.0,220345,0.57,-0.2,9.98,-0.04,-0.01,-0.01,32.13,16.909704,-18.934459856294467,-235.76494969942246,9.99826484946263,0.042426406871192854,-0.50759436440605,-0.30226649600887695
18868202,1975.0,1,182381.0,221858,0.59,-0.19,9.98,-0.03,-0.01,-0.01,32.13,16.949713,-17.528024178914464,-445.76617401314,9.999229970352717,0.033166247903554,-0.4710241901951885,-0.5761488854786297
18908196,1963.0,1,182855.0,222723,0.57,-0.22,9.96,-0.04,-0.01,-0.01,32.13,16.989707,-31.08489849571018,-329.3963664831854,9.978722363108416,0.042426406871192854,-0.8235303612868795,-0.42438005149875413
18948196,1969.0,1,183067.0,223287,0.58,-0.21,9.96,-0.04,-0.01,-0.01,32.13,17.029707,-30.103139059801492,-41.42098531663582,9.979083124215371,0.042426406871192854,-0.7980026288908837,-0.0488042149287125
18988196,1993.0,1,183188.0,223536,0.59,-0.22,9.95,-0.03,-0.01,-0.01,32.13,17.069707,-8.957652760221592,220.71908335124127,9.969904713687086,0.033166247903554,-0.24817718704091318,0.29307735560570025
19028196,2001.0,1,183220.0,223543,0.58,-0.2,9.98,-0.04,-0.01,-0.0,32.13,17.109707,-1.0207134437808076,381.59963464165463,9.998839932712196,0.04123105625617661,-0.041800700599683646,0.5028968457092697
19068221,2010.0,1,183161.0,223440,0.56,-0.22,9.97,-0.03,-0.01,-0.0,32.13,17.149732,0.7193991883475038,504.81411596417735,9.988137964605816,0.03162277660168379,0.0034457497904249986,0.6635924638999319
19108196,2000.0,1,183118.0,223373,0.59,-0.21,9.96,-0.04,-0.01,-0.0,32.13,17.189707,-3.5659944340147143,654.282191198828,9.979669333199373,0.04123105625617661,-0.10798315794593495,0.8585278683409852
19148193,2009.0,1,183112.0,223402,0.58,-0.21,9.97,-0.04,-0.01,-0.0,32.13,17.229704,-5.449794542028287,749.530129925087,9.98906402021731,0.04123105625617661,-0.15696577352977054,0.9827496824550108
19188196,2014.0,1,183117.0,223510,0.58,-0.21,9.97,-0.03,-0.01,-0.01,32.13,17.269707,8.550845379162322,580.5658713062069,9.98906402021731,0.033166247903554,0.20707920144930558,0.7623874677262402
19228196,2010.0,1,183108.0,223147,0.57,-0.19,9.99,-0.04,-0.01,-0.01,32.13,17.309707,-6.756325239265127,0.5798289499795162,10.008051758459287,0.042426406871192854,-0.19093821605113584,0.005973005578494242
19268912,1957.0,1,181926.0,216909,0.56,-0.18,9.97,-0.04,-0.01,-0.01,32.13,17.350423,-51.33156338408518,-873.2507647153831,9.987336982399263,0.042426406871192854,-1.3499846272481324,-1.133671831097865
19309195,1965.0,1,179813.0,214667,0.59,-0.2,9.98,-0.04,-0.01,-0.01,32.13,17.390706,-51.61530874056698,-1664.0113082312928,9.999424983467799,0.042426406871192854,-1.3573625808118481,-2.1649771859323645
19349196,1983.0,1,180032.0,216081,0.57,-0.22,9.95,-0.03,-0.01,-0.01,32.13,17.430707,-28.489722509715214,-1981.4200314916338,9.968741144196693,0.033166247903554,-0.756050533064321,-2.578939818051206
19389196,1983.0,1,180663.0,217790,0.58,-0.22,9.96,-0.04,-0.01,-0.01,32.13,17.470707,-32.643880895895684,-1706.245950954192,9.979298572545067,0.042426406871192854,-0.864067059042341,-2.2200593641679958
19429196,1984.0,1,181279.0,219518,0.59,-0.21,9.96,-0.03,-0.01,-0.0,32.13,17.510707,-29.512467296147843,-1057.6848407916664,9.979669333199373,0.03162277660168379,-0.782643967527507,-1.3742096928198413
19469196,2000.0,1,181880.0,220721,0.57,-0.22,9.96,-0.04,-0.01,-0.01,32.13,17.550707,-15.048642599503884,-392.0366814024936,9.978722363108416,0.042426406871192854,-0.406555250909494,-0.5060751901023689
19509196,2001.0,1,182119.0,221172,0.595,-0.21,9.96,-0.03,-0.01,-0.0,32.13,17.590707,-13.137417990368167,71.8574709239886,9.979966182307434,0.03162277660168379,-0.3568595427898156,0.09893289647154926
19549193,1999.0,1,182190.0,221293,0.59,-0.21,9.98,-0.03,-0.01,-0.01,32.13,17.630704,-15.559220031841754,356.6856063243616,9.999629993154747,0.033166247903554,-0.4198312975492618,0.47040411320660697
19589195,1994.0,1,182218.0,221468,0.57,-0.2,9.98,-0.03,-0.01,-0.01,32.13,17.670706,-20.011747259747015,592.8381409098602,9.99826484946263,0.033166247903554,-0.5356060173049702,0.7783928911910311
19629193,1997.0,1,182412.0,221940,0.57,-0.21,9.96,-0.04,-0.01,-0.01,32.13,17.710704,-16.64628449286228,801.8111195104484,9.978506902337644,0.042426406871192854,-0.44809717373352737,1.0509342485130229
19669196,2009.0,1,182553.0,222399,0.56,-0.2,9.97,-0.04,-0.01,-0.0,32.13,17.750707,-4.395401524337621,822.3961121784645,9.98771745695682,0.04123105625617661,-0.1295494209984593,1.0777810776091772
19709192,2010.0,1,182677.0,222580,0.57,-0.21,9.97,-0.04,-0.01,-0.01,32.13,17.790703,-2.1911550921117096,464.6758871369081,9.988488374123484,0.042426406871192854,-0.07223455240785563,0.6112444166148661
19749196,2013.0,1,182043.0,217567,0.58,-0.19,9.97,-0.04,-0.01,-0.01,32.13,17.830707,0.7113172321778447,-251.56452772441506,9.988663574272588,0.042426406871192854,0.003235602572288748,-0.32287221483856526
19789196,2017.0,1,179813.0,214405,0.58,-0.21,9.96,-0.03,-0.01,-0.01,32.13,17.870707,6.9647130261239525,-1019.4918485936979,9.979083124215371,0.033166247903554,0.16583654996868294,-1.3243986119637
19829195,2013.0,1,179802.0,215366,0.57,-0.22,9.94,-0.03,-0.01,-0.01,32.13,17.910706,2.31987080757358,-1433.2924383573766,9.958759962967276,0.033166247903554,0.04506125121432924,-1.8640749622270838
19869195,2015.0,1,180358.0,216956,0.58,-0.19,9.96,-0.04,-0.01,-0.01,32.13,17.950706,7.734348916504474,-1284.938340358218,9.978682277735874,0.042426406871192854,0.18584864084693684,-1.6705924004923933
19909196,2031.0,1,181010.0,218960,0.56,-0.22,9.98,-0.04,-0.01,-0.0,32.13,17.990707,22.985485223566958,-700.4934505431575,9.99811982324677,0.04123105625617661,0.5824090528395119,-0.9083627351223934
19949192,2025.0,1,181729.0,220557,0.59,-0.21,9.98,-0.03,-0.01,-0.0,32.13,18.030703,20.46114150025487,-4.051640015009933,9.999629993154747,0.03162277660168379,0.5167710068098568,-6.73296197013361e-05
19989196,2019.0,1,182078.0,221198,0.59,-0.2,9.96,-0.03,-0.01,-0.01,32.13,18.070707,15.488565199881345,544.5900385584225,9.979463913457476,0.033166247903554,0.3874739586005714,0.7154679934787572
20029193,2021.0,1,182210.0,221401,0.57,-0.2,9.95,-0.03,-0.01,-0.01,32.13,18.110704,18.717930101817913,894.1032067562595,9.968319818304385,0.033166247903554,0.4714439822238794,1.1713010581192014
20069195,2006.0,1,182275.0,221562,0.57,-0.19,9.96,-0.03,-0.01,-0.0,32.13,18.150706,8.952172839007615,1120.9746377580234,9.978106032709816,0.03162277660168379,0.21751452768440607,1.4671854741660386
20109193,2001.0,1,182350.0,221737,0.57,-0.21,9.98,-0.03,-0.01,-0.0,32.13,18.190704,0.8006941593309512,1240.8712498546233,9.998469882937089,0.03162277660168379,0.005559583575465096,1.6235539463864164
20149196,2009.0,1,182411.0,221976,0.57,-0.2,9.96,-0.04,-0.01,-0.0,32.13,18.230707,19.721100928960972,1127.8094529874138,9.978301458665198,0.04123105625617661,0.49752845412821634,1.4760994008954051
20187193,2047.0,1,182467.0,222114,0.58,-0.21,9.96,-0.03,-0.01,-0.01,32.13,18.268704,49.67217431194572,642.3728682077507,9.979083124215371,0.033166247903554,1.2763169824869915,0.842995797761765
20227195,2046.0,1,181940.0,217011,0.59,-0.2,9.98,-0.03,-0.01,-0.01,32.13,18.308706,64.37720295042935,-154.11770537398786,9.999424983467799,0.033166247903554,1.658677489785013,-0.19578262934310509
20267193,2034.0,1,179471.0,213248,0.59,-0.21,9.97,-0.04,-0.01,-0.01,32.13,18.348704,41.81097684640886,-937.4445217255525,9.989649643506024,0.042426406871192854,1.0719099374693255,-1.217392959945767
20307882,1980.0,1,179513.0,214963,0.56,-0.23,10.01,-0.03,-0.01,-0.0,32.13,18.389393,4.324667667794436,-1316.123206773393,10.028289983840715,0.03162277660168379,0.0971900272506725,-1.7112635239917682
20348193,1989.0,1,180334.0,216743,0.58,-0.2,9.98,-0.04,-0.01,-0.0,32.13,18.429704,5.0209992431679495,-1125.1215896610072,9.998839932712196,0.04123105625617661,0.115296057572209,-1.4621603130067744
20388196,1990.0,1,180926.0,218418,0.57,-0.22,9.96,-0.04,-0.01,-0.01,32.13,18.469707,18.284732965526068,-542.1674914668268,9.978722363108416,0.042426406871192854,0.4601799798975514,-0.7018749294982849
20428195,1984.0,1,181529.0,219643,0.59,-0.2,9.99,-0.03,-0.01,-0.0,32.13,18.509706,10.30044211745521,80.035325685973,10.009405576756293,0.03162277660168379,0.2525722577953432,0.10959840763829813
20468196,1977.0,1,181811.0,219995,0.58,-0.21,9.97,-0.03,-0.01,-0.01,32.13,18.549707,8.441452993048058,499.44073534813407,9.98906402021731,0.033166247903554,0.20423477800223203,0.6565845317916225
20508196,1972.0,1,181862.0,220072,0.59,-0.21,9.96,-0.04,-0.01,-0.0,32.13,18.589707,8.818934080444354,724.9415764879034,9.979669333199373,0.04123105625617661,0.2140500502890557,0.9506814324198578
20548196,1970.0,1,181833.0,220253,0.58,-0.2,9.98,-0.04,-0.01,-0.01,32.13,18.629707,4.934417419159884,903.219235570495,9.998839932712196,0.042426406871192854,0.11304475490803917,1.1831901304914088
20588196,1965.0,1,181963.0,220788,0.57,-0.22,9.98,-0.03,-0.01,-0.0,32.13,18.669707,11.135317351086385,1086.4579295923766,9.998684913527379,0.03162277660168379,0.2742807036413003,1.4221689818101892
20628196,1968.0,1,182209.0,221410,0.56,-0.2,9.96,-0.03,-0.01,-0.01,32.13,18.709707,7.4831882616619545,1123.4656164009039,9.977735213965142,0.033166247903554,0.17931795547665713,1.470434194191647
20668193,1951.0,1,182429.0,221816,0.58,-0.23,9.94,-0.04,-0.01,-0.01,32.13,18.749704,4.030095773005268,796.3143423720013,9.959563243435928,0.042426406871192854,0.08953056177825842,1.043765383369591
20708199,1969.0,1,181948.0,217178,0.57,-0.2,9.98,-0.04,-0.01,-0.01,32.13,18.78971,14.43268565601241,78.98180551013901,9.99826484946263,0.042426406871192854,0.36001895337992457,0.10822441268157844
20748195,1949.0,1,179565.0,213556,0.59,-0.2,9.98,-0.04,-0.01,-0.0,32.13,18.829706,6.191707659973688,-746.1648349109015,9.999424983467799,0.04123105625617661,0.14573684590066105,-0.9679270920536791
20788196,1950.0,1,179399.0,214359,0.59,-0.2,9.95,-0.03,-0.01,-0.01,32.13,18.869707,1.6266008316049678,-1257.4829882733256,9.969483436969037,0.033166247903554,0.02703482867393898,-1.634785288141894
20828193,1947.0,1,179954.0,215830,0.59,-0.22,9.97,-0.03,-0.01,-0.01,32.13,18.909704,6.955065005230683,-1210.943276093616,9.989864863950864,0.033166247903554,0.1655856818980477,-1.57408846307019
20868195,1937.0,1,180490.0,217474,0.58,-0.21,9.98,-0.03,-0.01,-0.01,32.13,18.949706,-6.922020353528871,-714.1360110132158,9.999044954394394,0.033166247903554,-0.1952466243857436,-0.9261552840574575
20908200,1936.0,1,181128.0,219018,0.58,-0.19,9.99,-0.03,-0.01,-0.0,32.13,18.989711,-1.82750579847286,-105.08782053622303,10.008626279365215,0.03162277660168379,-0.0627789347540123,-0.1318381354065682
20948196,1945.0,1,181487.0,219519,0.56,-0.21,9.98,-0.04,-0.01,-0.0,32.13,19.029707,3.6435599740378026,336.79353353407,9.997904780502763,0.04123105625617661,0.07947984866402089,0.4444609862314399
20988196,1920.0,1,181510.0,219570,0.595,-0.21,9.97,-0.03,-0.01,-0.01,32.13,19.069707,-17.301178661196378,579.4662139954913,9.989946196051308,0.033166247903554,-0.4651257476035177,0.7609533009834467
21028196,1922.0,1,181556.0,219688,0.57,-0.22,9.95,-0.04,-0.01,-0.01,32.13,19.109707,-17.685648939043343,770.9496713008099,9.968741144196693,0.042426406871192854,-0.4751227529880469,1.010684925178003
21068196,1920.0,1,181643.0,220132,0.57,-0.21,9.98,-0.04,-0.01,-0.01,32.13,19.149707,-18.839929850275436,1002.7143063326065,9.998469882937089,0.042426406871192854,-0.5051363929226262,1.3129510297901716
21108196,1909.0,1,181858.0,220764,0.56,-0.23,9.94,-0.03,-0.01,-0.01,32.13,19.189707,-30.911858189891245,1145.8717466770556,9.958418549147249,0.033166247903554,-0.8190309631053091,1.4996561404867579
21148193,1904.0,1,182088.0,221342,0.58,-0.21,9.97,-0.04,-0.01,-0.0,32.13,19.229704,-36.53218968077627,936.5284620877147,9.98906402021731,0.04123105625617661,-0.9651709573120424,1.2266318322230947
21188196,1891.0,1,182157.0,219013,0.5549999999999999,-0.2,9.97,-0.03,-0.01,-0.01,32.13,19.269707,-52.76723785594285,249.00200190795408,9.987438360260354,0.033166247903554,-1.3873150692941756,0.3299637753911344
21228196,1888.0,1,179647.0,212748,0.57,-0.21,9.99,-0.03,-0.01,-0.01,32.13,19.309707,-53.62932179230273,-704.3819247063492,10.008451428667673,0.033166247903554,-1.4097309964809743,-0.913434060771502
21268196,1900.0,1,178748.0,212882,0.58,-0.22,9.97,-0.03,-0.01,-0.0,32.13,19.349707,-49.95944429246475,-1464.4802254619601,9.989279253279488,0.03162277660168379,-1.314306753723135,-1.9047498948727946
21308882,1894.0,1,179210.0,214344,0.58,-0.22,9.96,-0.03,-0.01,-0.01,32.13,19.390393,-50.43802027398352,-1652.7279898341171,9.979298572545067,0.033166247903554,-1.32675069787128,-2.1502615469456607
21347196,1927.0,1,179741.0,215936,0.56,-0.22,9.96,-0.03,-0.01,-0.01,32.13,19.428707,-28.322032955290478,-1246.0687262812216,9.978156142294026,0.033166247903554,-0.7516902652488187,-1.619898873271469
21387196,1925.0,1,180460.0,217852,0.59,-0.21,9.95,-0.03,-0.01,-0.01,32.13,19.468707,-25.582245235419734,-559.6854377453421,9.969689062352947,0.033166247903554,-0.6804502392540992,-0.7247217343254563
21427202,1925.0,1,180976.0,218736,0.595,-0.22,9.96,-0.04,-0.01,-0.0,32.13,19.508713,-34.31706588835348,28.1395781266137,9.980181611574011,0.04123105625617661,-0.9075732553407504,0.04191627201587267
21467192,1929.0,1,181197.0,219010,0.57,-0.2,9.97,-0.03,-0.01,-0.01,32.13,19.548703,-29.069719523384595,354.5389849836485,9.988283135754614,0.033166247903554,-0.7711316293226165,0.4676045019948029
21507196,1931.0,1,181252.0,219190,0.57,-0.22,9.96,-0.04,-0.01,-0.01,32.13,19.588707,-32.95905910159682,522.7129354946292,9.978722363108416,0.042426406871192854,-0.8722623303052466,0.6869360014326691
21547195,1939.0,1,181306.0,219526,0.58,-0.2,9.97,-0.03,-0.01,-0.0,32.13,19.628706,-25.329771747849755,708.7685354574924,9.988858793676084,0.03162277660168379,-0.6738854175757572,0.9295886452855117
21587196,1952.0,1,181460.0,220098,0.5549999999999999,-0.22,9.95,-0.03,-0.01,-0.01,32.13,19.668707,-17.565228671996678,920.7533576863785,9.967894712525808,0.033166247903554,-0.4719915823165103,1.2060580317526821
21627196,1952.0,1,181717.0,220820,0.56,-0.23,9.96,-0.03,-0.01,-0.01,32.13,19.708707,-17.50915508516545,944.0486282812822,9.978381632308919,0.033166247903554,-0.4705335555670283,1.236439589739913
21667196,1970.0,1,181950.0,221098,0.57,-0.21,9.96,-0.03,-0.01,-0.01,32.13,19.748707,-4.133350316665355,539.3296814643227,9.978506902337644,0.033166247903554,-0.12273555921233505,0.7086074659980033
21707195,1971.0,1,181179.0,215064,0.57,-0.19,9.94,-0.04,-0.01,-0.0,32.13,19.788706,-3.41618959201001,-281.69976479988844,9.958142397053779,0.04123105625617661,-0.10408792885167013,-0.36217441778733633
21747195,1979.0,1,178817.0,212216,0.58,-0.21,9.98,-0.04,-0.01,-0.0,32.13,19.828706,2.144578578871255,-1174.0773648005722,9.999044954394394,0.04123105625617661,0.04050329847994182,-1.5260081535009697
21787192,2000.0,1,178833.0,213352,0.57,-0.21,9.96,-0.03,-0.01,-0.0,32.13,19.868703,22.30765063897334,-1677.8518147109721,9.978506902337644,0.03162277660168379,0.5647839817158091,-2.1830278949152007
21827196,2003.0,1,179467.0,215214,0.56,-0.22,9.96,-0.03,-0.01,-0.01,32.13,19.908707,24.164978588660034,-1556.5071835004946,9.978156142294026,0.033166247903554,0.6130782676040025,-2.0247709244910497
21867196,2002.0,1,180168.0,217127,0.5549999999999999,-0.2,9.96,-0.03,-0.01,-0.01,32.13,19.948707,24.37027472819593,-954.9912477187751,9.977455838038074,0.033166247903554,0.618416382747406,-1.2402772991114073
21907196,2012.0,1,180883.0,218682,0.57,-0.21,9.96,-0.03,-0.01,-0.01,32.13,19.988707,32.06129241047559,-249.75283139893608,9.978506902337644,0.033166247903554,0.8183984089597499,-0.32050941090617246
21947195,2022.0,1,181221.0,219383,0.57,-0.22,9.95,-0.04,-0.01,-0.01,32.13,20.028706,46.98908852111655,255.33903654908352,9.968741144196693,0.042426406871192854,1.2065513214109758,0.33822849953899153
21987196,2043.0,1,181430.0,219801,0.59,-0.24,9.97,-0.03,-0.01,-0.01,32.13,20.068707,65.12812709160089,518.1264491971606,9.990325320028372,0.033166247903554,1.67820303731161,0.6809543323708525
22027196,2043.0,1,181592.0,220212,0.56,-0.22,9.99,-0.03,-0.01,-0.0,32.13,20.108707,71.2551383697615,693.3131533643236,10.008101718108184,0.03162277660168379,1.837517731497732,0.9094318248113532
22067196,2043.0,1,181713.0,220721,0.57,-0.22,9.96,-0.03,-0.01,-0.0,32.13,20.148707,71.70234805244505,904.6770629524896,9.978722363108416,0.03162277660168379,1.849146088391371,1.1850914205820733
22107196,2032.0,1,181971.0,221203,0.57,-0.21,9.97,-0.03,-0.01,-0.01,32.13,20.188707,64.56878690317478,1077.252152472473,9.988488374123484,0.033166247903554,1.6636590603186598,1.4101628602136855
22147196,2029.0,1,182177.0,221611,0.56,-0.24,9.97,-0.03,-0.01,-0.01,32.13,20.228707,66.81251979151732,989.6095749381154,9.98859850029022,0.033166247903554,1.7220006566881296,1.2958599144435263
22187195,2029.0,1,182308.0,221361,0.56,-0.2,9.96,-0.03,-0.01,-0.0,32.13,20.268706,69.79232854944988,504.21299843497576,9.977735213965142,0.03162277660168379,1.7994817154704585,0.6628084898741237
22227196,2013.0,1,180869.0,215341,0.57,-0.22,9.97,-0.03,-0.01,-0.0,32.13,20.308707,59.47181131618787,-240.3571961948802,9.988703619589481,0.03162277660168379,1.5311273788756434,-0.3082556774877961
22267196,2016.0,1,179551.0,214812,0.595,-0.21,9.95,-0.03,-0.01,-0.0,32.13,20.348707,70.17919649914603,-873.773646299461,9.969986208616337,0.03162277660168379,1.8095410651759087,-1.1343537702538153
22307196,1998.0,1,180045.0,216599,0.595,-0.19,9.96,-0.03,-0.01,-0.01,32.13,20.388707,52.981998312246816,-1057.883044264601,9.97956537129749,0.033166247903554,1.3623791055154575,-1.3744681886497867
22347908,1933.0,1,180668.0,218170,0.58,-0.22,9.98,-0.04,-0.01,-0.01,32.13,20.429419,2.7852139061479635,-739.4427760403989,9.999259972617974,0.042426406871192854,0.057161113622817714,-0.959160221519347
22388196,1933.0,1,181222.0,219534,0.59,-0.22,9.96,-0.03,-0.01,-0.0,32.13,20.469707,-0.5391388132706331,-168.4061078243041,9.979884768873838,0.03162277660168379,-0.029278785508553607,-0.2144174816759277
22428193,1919.0,1,181692.0,220402,0.595,-0.21,9.98,-0.04,-0.01,-0.01,32.13,20.509704,3.049091386437505,321.42061928552243,9.999926249728045,0.042426406871192854,0.06402246219333209,0.4244117198461354
22468196,1903.0,1,181843.0,220659,0.59,-0.21,9.94,-0.03,-0.01,-0.01,32.13,20.549707,-15.115474711145536,565.0585741318762,9.959708831085374,0.033166247903554,-0.40829302107909604,0.742162939901686
22508196,1886.0,1,181883.0,220796,0.57,-0.2,9.96,-0.04,-0.01,-0.0,32.13,20.589707,-17.197059659661598,640.2815575637203,9.978301458665198,0.04123105625617661,-0.46241844282874056,0.8402683224425979
22548199,1884.0,1,181915.0,220966,0.57,-0.23,10.0,-0.03,-0.01,-0.01,32.13,20.62971,-17.097220761137795,722.1348295471875,10.01887219201842,0.033166247903554,-0.4598224293950956,0.9470208891955392
22588196,1867.0,1,182019.0,221256,0.58,-0.21,9.99,-0.03,-0.01,-0.0,32.13,20.669707,-23.344818374018928,865.7057564621499,10.009025926632422,0.03162277660168379,-0.6222726123483926,1.134265266700288
22628196,1862.0,1,182114.0,221617,0.58,-0.21,9.99,-0.03,-0.01,-0.01,32.13,20.709707,-22.962355927558185,920.636980899547,10.009025926632422,0.033166247903554,-0.6123278146437177,1.2059062538163372
22668196,1854.0,1,182281.0,222040,0.595,-0.21,9.98,-0.03,-0.01,-0.01,32.13,20.749707,-22.916251544264163,664.859213252834,9.999926249728045,0.033166247903554,-0.6111290073636808,0.8723223596973684
22708196,1837.0,1,182301.0,219516,0.58,-0.22,9.96,-0.04,-0.01,-0.0,32.13,20.789707,-33.615138166728244,45.277129998675484,9.979298572545067,0.04123105625617661,-0.8893217138901758,0.06426696864500428
22748193,1821.0,1,180047.0,214668,0.58,-0.2,9.930000000000001,-0.04,-0.01,-0.0,32.13,20.829704,-42.7762459464474,-702.8175499489445,9.948934616329531,0.04123105625617661,-1.1275290580702602,-0.9113938122063597
22788196,1815.0,1,179721.0,215634,0.58,-0.21,10.0,-0.03,-0.01,-0.01,32.13,20.869707,-43.09527786556555,-1192.903763936418,10.01900693681764,0.033166247903554,-1.1358245336818504,-1.550561435022481
22828193,1807.0,1,180336.0,217504,0.57,-0.22,9.95,-0.04,-0.01,-0.01,32.13,20.909704,-44.86285588219341,-1175.9228594258834,9.968741144196693,0.042426406871192854,-1.1817851396583614,-1.5284150369817
22868196,1805.0,1,180894.0,218903,0.56,-0.22,9.98,-0.03,-0.01,-0.01,32.13,20.949707,-42.8313600964904,-722.7942040612648,9.99811982324677,0.033166247903554,-1.1289621375213663,-0.9374472496554656
22908196,1802.0,1,181441.0,220191,0.58,-0.2,9.95,-0.04,-0.01,-0.0,32.13,20.989707,-39.23892507404101,-142.29006008855976,9.96889662901567,0.04123105625617661,-1.0355515559177273,-0.180357082358034
22948195,1803.0,1,181775.0,220797,0.57,-0.2,9.96,-0.03,-0.01,-0.01,32.13,21.029706,-37.774060581906134,277.6004715651747,9.978301458665198,0.033166247903554,-0.9974621142644325,0.367261735107773
22988193,1798.0,1,181926.0,221026,0.57,-0.23,9.96,-0.03,-0.01,-0.0,32.13,21.069704,-33.86491732540498,470.436170427103,9.97894784032866,0.03162277660168379,-0.8958164775640233,0.6187569449665314
23028196,1805.0,1,181911.0,221098,0.57,-0.19,9.98,-0.04,-0.01,-0.0,32.13,21.109707,-31.813120431813164,572.6559661314325,9.998069813719047,0.04123105625617661,-0.842465605532864,0.7520714148707099
23068196,1792.0,1,182050.0,221428,0.58,-0.21,9.98,-0.04,-0.01,-0.01,32.13,21.149707,-33.33925534501811,724.516733212175,9.999044954394394,0.042426406871192854,-0.882148202144144,0.9501273542620429
23108196,1791.0,1,182116.0,221726,0.58,-0.21,9.98,-0.04,-0.01,-0.0,32.13,21.189707,-42.61610096742733,882.494927355732,9.999044954394394,0.04123105625617661,-1.1233649644853556,1.1561616068601008
23148195,1785.0,1,182241.0,222058,0.57,-0.2,9.95,-0.03,-0.01,-0.01,32.13,21.229706,-39.72227423387985,823.3982675952218,9.968319818304385,0.033166247903554,-1.048119612363016,1.079088082942401
23188196,1790.0,1,182369.0,222144,0.58,-0.18,9.98,-0.03,-0.01,-0.0,32.13,21.269707,-38.52953051935196,353.07048206804336,9.998459881401736,0.03162277660168379,-1.0171058616947657,0.46568928893457623
23228193,1776.0,1,181493.0,216422,0.58,-0.2,9.95,-0.04,-0.01,-0.01,32.13,21.309704,-55.04774843018267,-461.29784434654897,9.96889662901567,0.042426406871192854,-1.4466129599343096,-0.5964052006371345
23268196,1776.0,1,179383.0,214169,0.58,-0.22,9.99,-0.03,-0.01,-0.01,32.13,21.349707,-46.82973599869955,-1263.0754350801506,10.009240730445041,0.033166247903554,-1.2329280036153563,-1.6420789251168268
23308196,1779.0,1,179555.0,215587,0.57,-0.22,9.97,-0.03,-0.01,-0.01,32.13,21.389707,-60.937536501510266,-1638.9164759072,9.988703619589481,0.033166247903554,-1.5997593706075282,-2.1322486498834614
23348882,1751.0,1,180242.0,217341,0.56,-0.22,9.98,-0.03,-0.01,-0.01,31.95,21.430393,-71.38934283339583,-1421.7447504133204,9.99811982324677,0.033166247903554,-1.8715274894931868,-1.8490145339971775
23387195,1844.0,1,180875.0,218955,0.57,-0.21,9.98,-0.03,-0.01,-0.0,31.95,21.468706,-1.029309914773394,-799.3558831582055,9.998469882937089,0.03162277660168379,-0.042024226244584184,-1.0372985513867423
23427196,1867.0,1,181485.0,220220,0.58,-0.23,9.98,-0.03,-0.01,-0.01,31.95,21.508707,36.32081673102541,-144.18705271519812,9.999484986738068,0.033166247903554,0.9291546624900141,-0.18283112923603728
23467196,1871.0,1,181737.0,220801,0.57,-0.22,9.97,-0.03,-0.01,-0.0,31.95,21.548707,24.91450403518914,272.66723259146994,9.988703619589481,0.03162277660168379,0.6325674462389649,0.3608278331990625
23507196,1872.0,1,181866.0,220974,0.5549999999999999,-0.23,9.95,-0.04,-0.01,-0.01,31.95,21.588707,28.60923306938269,441.0139565565835,9.968120434665703,0.042426406871192854,0.7286378791890806,0.580384662782548
23547195,1872.0,1,181980.0,221267,0.58,-0.19,9.96,-0.03,-0.01,-0.01,31.95,21.628706,23.05830779456046,535.1515345382461,9.978682277735874,0.033166247903554,0.5843025870768375,0.7031583507968459
23587195,1884.0,1,182068.0,221572,0.57,-0.22,9.96,-0.03,-0.01,-0.01,31.95,21.668706,29.8120812902542,694.1399888024241,9.978722363108416,0.033166247903554,0.7599143674735931,0.9105101788363132
23627196,1895.0,1,182173.0,221886,0.59,-0.2,9.97,-0.03,-0.01,-0.01,31.95,21.708707,38.09511610271587,858.8964635552592,9.98944442899604,0.033166247903554,0.9752900373020473,1.1253846260372
23667195,1899.0,1,182313.0,222143,0.57,-0.19,9.97,-0.03,-0.01,-0.01,31.95,21.748706,36.6785749365595,810.7806041517995,9.988087905099755,0.033166247903554,0.9384570999296837,1.062632198817425
23707196,1911.0,1,182387.0,222156,0.58,-0.2,9.96,-0.03,-0.01,-0.0,31.95,21.788707,43.68466344198055,384.8551118849848,9.978877692406096,0.03162277660168379,1.1206295812601157,0.5071426204145434
23747196,1913.0,1,181523.0,217124,0.57,-0.2,9.97,-0.03,-0.01,-0.0,31.95,21.828707,41.77804219549202,-328.5153080425149,9.988283135754614,0.03162277660168379,1.0710535698863823,-0.42323098014556604
23787193,1919.0,1,179772.0,215293,0.57,-0.2,9.97,-0.03,-0.01,-0.01,31.95,21.868704,42.48009296756658,-989.1066556369007,9.988283135754614,0.033166247903554,1.089308310897691,-1.2847704179914825
23827196,1936.0,1,180036.0,216952,0.58,-0.21,9.98,-0.04,-0.01,-0.01,31.95,21.908707,53.407961024877594,-1239.2306003789965,9.999044954394394,0.042426406871192854,1.3734549981842623,-1.6109806287816244
23867196,1952.0,1,180757.0,218664,0.57,-0.21,9.97,-0.03,-0.01,-0.01,31.95,21.948707,67.57007022325642,-969.3330871638105,9.988488374123484,0.033166247903554,1.7416985011809691,-1.2589818436655378
23907196,1967.0,1,181307.0,220092,0.59,-0.2,9.95,-0.03,-0.01,-0.01,31.95,21.988707,72.35626294151184,-385.3529752651597,9.969483436969037,0.033166247903554,1.866149199018369,-0.4973583389821486
23947193,1961.0,1,181752.0,221057,0.58,-0.21,9.930000000000001,-0.03,-0.01,-0.01,31.95,22.028704,67.56714410981323,171.3147062544884,9.949140666409336,0.033166247903554,1.7416224163090481,0.2286444510179171
23987203,1981.0,1,181956.0,221341,0.58,-0.2,9.97,-0.04,-0.01,-0.01,31.95,22.068714,75.81811930120162,483.7503455011392,9.988858793676084,0.042426406871192854,1.9561644711015358,0.6361212155559647
24027196,1975.0,1,182100.0,221489,0.59,-0.21,9.95,-0.04,-0.01,-0.01,31.95,22.108707,70.22594138561242,582.3299690200765,9.969689062352947,0.042426406871192854,1.8107565268347934,0.7646881938230128
24067196,1972.0,1,182091.0,221534,0.56,-0.2,9.96,-0.03,-0.01,-0.01,31.95,22.148707,57.74414209505559,648.1760667951867,9.977735213965142,0.033166247903554,1.486204482356658,0.8505642959973758
24107195,1981.0,1,182135.0,221808,0.59,-0.21,9.94,-0.03,-0.01,-0.0,31.95,22.188706,63.101853552895804,798.1304984140038,9.959708831085374,0.03162277660168379,1.625515824166289,1.0461340036386353
24147196,1979.0,1,182224.0,222035,0.595,-0.21,9.97,-0.03,-0.01,-0.01,31.95,22.228707,56.361987617600576,942.4723717277911,9.989946196051308,0.033166247903554,1.4502656684885318,1.2343838450046225
24187213,1993.0,1,182362.0,222341,0.59,-0.21,9.98,-0.04,-0.01,-0.01,31.95,22.268724,59.91546045570854,846.2278222196808,9.999629993154747,0.042426406871192854,1.542663154440576,1.1088622568383417
24227196,1982.0,1,182409.0,222203,0.58,-0.2,9.96,-0.03,-0.01,-0.0,31.95,22.308707,52.22379299695534,354.70110137970124,9.978877692406096,0.03162277660168379,1.3426642327247849,0.46781593326654075
24267196,1973.0,1,181279.0,216509,0.57,-0.21,10.0,-0.04,-0.01,-0.01,31.95,22.348707,21.849884026361526,-411.6832924675392,10.018433011204896,0.042426406871192854,0.5528811232770106,-0.5316981873066099
24307195,1979.0,1,179613.0,215149,0.58,-0.23,9.96,-0.03,-0.01,-0.01,31.95,22.388706,42.31871844589271,-1085.9630434105602,9.979524036746444,0.033166247903554,1.0851122467152172,-1.4110899621062833
24347196,1984.0,1,179937.0,216841,0.58,-0.22,9.96,-0.03,-0.01,-0.01,31.95,22.428707,14.67530381901333,-1309.2878104930624,9.979298572545067,0.033166247903554,0.36632751667248215,-1.7023488394591062
24387903,1870.0,1,180599.0,218504,0.59,-0.22,9.97,-0.03,-0.01,-0.0,31.95,22.469414,-78.34172001459604,-998.2755724152844,9.989864863950864,0.03162277660168379,-2.0523033676831814,-1.2967284665424832
24428193,1902.0,1,181182.0,219962,0.58,-0.21,9.97,-0.03,-0.01,-0.0,31.95,22.509704,-80.80278888757302,-390.313433636762,9.98906402021731,0.03162277660168379,-2.1162961395370337,-0.5038277402731149
24468196,1904.0,1,181679.0,220907,0.58,-0.2,9.98,-0.03,-0.01,-0.01,31.95,22.549707,-63.87658387488747,164.66254527635752,9.998839932712196,0.033166247903554,-1.6761805508911531,0.2199687409129788
24508196,1903.0,1,181863.0,221220,0.57,-0.22,9.94,-0.04,-0.01,-0.01,31.95,22.589707,-89.05152594882722,473.09756279861807,9.958759962967276,0.042426406871192854,-2.3307799984160997,0.6222279175973301
24548196,1904.0,1,181900.0,221233,0.57,-0.23,9.96,-0.04,-0.01,-0.0,31.95,22.629707,-87.64795128857098,597.9163955043316,9.97894784032866,0.04123105625617661,-2.2942842164411004,0.7850159216386623
24588196,1916.0,1,181902.0,221387,0.57,-0.21,9.96,-0.04,-0.01,-0.01,31.95,22.669707,-86.39671522899792,722.4788083695322,9.978506902337644,0.042426406871192854,-2.261749546414285,0.9474695043981346
24628195,1921.0,1,182018.0,221638,0.5549999999999999,-0.21,9.98,-0.04,-0.01,-0.01,31.95,22.709706,-93.45691214015845,916.7054946474194,9.997625968198651,0.042426406871192854,-2.445328955808325,1.2007788320481116
24668196,1923.0,1,182148.0,221949,0.58,-0.22,9.97,-0.03,-0.01,-0.01,31.95,22.749707,-93.95535940773058,1025.2323998334828,9.989279253279488,0.033166247903554,-2.458289593612961,1.3423189978793006
24708196,1936.0,1,182221.0,222187,0.57,-0.21,9.98,-0.04,-0.01,-0.01,31.95,22.789707,-98.907932651814,792.6549906470273,9.998469882937089,0.042426406871192854,-2.587066521872899,1.0389928778871995
24748196,1936.0,1,182235.0,220617,0.57,-0.22,9.98,-0.03,-0.01,-0.0,31.95,22.829707,-98.74951090766527,127.67456753627867,9.998684913527379,0.03162277660168379,-2.582947235882444,0.17172923298528578
24788196,1955.0,1,180086.0,214438,0.59,-0.21,9.98,-0.03,-0.01,-0.01,31.95,22.869707,-99.08662867017532,-737.5691612999825,9.999629993154747,0.033166247903554,-2.591712980027626,-0.9567166639461568
24828196,1954.0,1,179168.0,214596,0.57,-0.21,9.97,-0.03,-0.01,-0.01,31.95,22.909707,-99.59637483079376,-1365.373971316899,9.988488374123484,0.033166247903554,-2.6049674119202106,-1.7754960879707133
24868196,1987.0,1,179753.0,216495,0.5549999999999999,-0.21,9.97,-0.04,-0.01,-0.01,31.95,22.949707,-85.75227110230587,-1428.447140064822,9.98764361598871,0.042426406871192854,-2.244992694777673,-1.8577557520491652
24908195,1997.0,1,180421.0,218062,0.58,-0.2,9.94,-0.03,-0.01,-0.0,31.95,22.989706,-74.9892186041732,-950.2075331043167,9.9589156036187,0.03162277660168379,-1.9651315456132865,-1.2340384060124223
24948196,2017.0,1,181013.0,219650,0.57,-0.21,9.96,-0.04,-0.01,-0.01,31.95,23.029707,-73.50126680338893,-261.5771218209113,9.978506902337644,0.042426406871192854,-1.9264417872068351,-0.33593058249761515
24988196,2039.0,1,181460.0,220390,0.56,-0.22,9.98,-0.03,-0.01,-0.0,31.95,23.069707,-50.351152002420484,274.20437585165496,9.99811982324677,0.03162277660168379,-1.3244919469909164,0.36283256660208246
25028196,2091.0,1,181609.0,220646,0.59,-0.2,10.01,-0.04,-0.01,-0.0,31.95,23.109707,-14.941113807166312,523.0239084872285,10.02936687931995,0.04123105625617661,-0.4037592846724927,0.6873415706218583
25068193,2118.0,1,181639.0,220733,0.58,-0.22,9.95,-0.04,-0.01,-0.0,31.95,23.149704,12.434568538207271,616.8956843532587,9.969317930530654,0.04123105625617661,0.3080638641660612,0.8097686010450235
25108195,2163.0,1,181675.0,220919,0.58,-0.2,9.96,-0.04,-0.01,-0.01,31.95,23.189706,45.237961308101504,758.9363319440212,9.978877692406096,0.042426406871192854,1.1610184696245105,0.9950171970526037
25148193,2182.875,1,181818.0,221299,0.58,-0.21,9.96,-0.03,-0.01,-0.01,31.95,23.229704,63.2337152753821,980.1750143009324,9.979083124215371,0.033166247903554,1.6289444958365438,1.2835554146990447
25188196,2182.875,1,181928.0,221715,0.57,-0.23,9.96,-0.03,-0.01,-0.0,31.95,23.269707,56.89363647237374,1068.8370968146519,9.97894784032866,0.03162277660168379,1.4640896147597742,1.3991879930022353
25228193,2182.875,1,182046.0,222029,0.59,-0.22,9.95,-0.04,-0.01,-0.01,31.95,23.309704,53.39803749411376,749.3902165150286,9.969904713687086,0.042426406871192854,1.3731969662993657,0.9825672081899637
25268196,2182.875,1,181913.0,218457,0.57,-0.24,9.96,-0.04,-0.01,-0.0,31.95,23.349707,51.75513778396394,-32.410983090953664,9.979183333319416,0.04123105625617661,1.3304782486377975,-0.03705342182375807
25308196,2182.875,1,179328.0,213398,0.57,-0.22,9.96,-0.04,-0.01,-0.01,31.95,23.389707,49.284708803933825,-979.953976282741,9.978722363108416,0.042426406871192854,1.2662420950558855,-1.2728335461958071
25348195,2182.875,1,178822.0,213982,0.56,-0.21,9.96,-0.03,-0.01,-0.0,31.95,23.429706,50.2279753871158,-1617.233389589081,9.977940669296446,0.03162277660168379,1.2907689353721872,-2.1039696933616954
25388880,2182.875,1,179467.0,215783,0.58,-0.2,9.97,-0.03,-0.01,-0.0,31.91,23.470391,50.89852906340621,-1632.8387644902919,9.988858793676084,0.03162277660168379,1.308204688143587,-2.1243221335938056
25427196,2182.875,1,180117.0,217466,0.57,-0.19,9.95,-0.03,-0.01,-0.0,31.91,23.508707,53.59306608917081,-1098.6135156575856,9.968124196658065,0.03162277660168379,1.3782681045050051,-1.4275886352843035
25467193,2182.875,1,180795.0,219135,0.56,-0.2,9.94,-0.03,-0.01,-0.01,31.91,23.548704,57.717217126497616,-380.27196015110684,9.957770834880666,0.033166247903554,1.485504378678528,-0.49073170828074925
25507196,2182.875,1,181193.0,219968,0.57,-0.23,9.98,-0.04,-0.01,-0.01,31.91,23.588707,62.65285827420722,162.68446819182685,9.998909940588524,0.042426406871192854,1.613841038162507,0.21738894415114043
25547196,2182.875,1,181414.0,220287,0.57,-0.22,9.96,-0.03,-0.01,-0.01,31.91,23.628707,69.55466604892754,422.4902388139582,9.978722363108416,0.033166247903554,1.7933020094325107,0.5562261365939839
25587196,2182.875,1,181473.0,220493,0.57,-0.21,9.96,-0.03,-0.01,-0.01,31.91,23.668707,77.31830269974336,544.9462693583835,9.978506902337644,0.033166247903554,1.9951722758062016,0.715932587640124
25627196,2182.875,1,181609.0,220879,0.57,-0.2,9.98,-0.03,-0.01,-0.01,31.91,23.708707,86.44661796369226,717.3925019093025,9.99826484946263,0.033166247903554,2.2325269482048333,0.940835972753471
25667196,2182.875,1,181791.0,221331,0.57,-0.23,9.96,-0.04,-0.01,-0.01,31.91,23.748707,96.99603148304344,944.0294284803331,9.97894784032866,0.042426406871192854,2.506833051519683,1.2364145494698933
25707195,2182.875,1,181962.0,221673,0.57,-0.2,9.98,-0.03,-0.01,-0.01,31.91,23.788706,108.15786140532428,1010.8190832433934,9.99826484946263,0.033166247903554,2.7970632208298216,1.3235212332435073
25747196,2182.875,1,182102.0,221913,0.58,-0.2,9.95,-0.03,-0.01,-0.01,31.91,23.828707,121.01693270704888,679.2838674653948,9.96889662901567,0.033166247903554,3.1314251011896728,0.8911349107952098
25787193,2182.875,1,181720.0,217660,0.58,-0.19,9.99,-0.03,-0.01,-0.0,31.91,23.868704,133.94395324320314,-55.85650628777137,10.008626279365215,0.03162277660168379,3.4675537991726495,-0.06763093839061507
25827196,2160.0,1,179429.0,214215,0.57,-0.22,9.97,-0.03,-0.01,-0.01,31.91,23.908707,125.83007922622117,-885.7275328975599,9.988703619589481,0.033166247903554,3.25657665240489,-1.1499439604331203
25867196,2103.0,1,179333.0,215354,0.57,-0.22,9.96,-0.03,-0.01,-0.0,31.91,23.948707,82.88020602470546,-1380.3910281903095,9.978722363108416,0.03162277660168379,2.1397930194414454,-1.7950812472131594
25907195,2038.0,1,179976.0,217050,0.59,-0.21,9.97,-0.03,-0.01,-0.01,31.91,23.988706,34.22730477757909,-1301.250969625152,9.989649643506024,0.033166247903554,0.8747191144721524,-1.6918672378023312
25947196,1990.0,1,180522.0,218638,0.57,-0.21,9.97,-0.03,-0.01,-0.0,31.91,24.028707,0.7128606405300881,-761.9826999418254,9.988488374123484,0.03162277660168379,0.0032757343132761396,-0.9885566606913726
25987196,1944.0,1,181160.0,220081,0.57,-0.2,9.96,-0.03,-0.01,-0.01,31.91,24.068707,-27.93062801864169,-108.84788816989936,9.978301458665198,0.033166247903554,-0.741512944699825,-0.13674199399808157
26027193,1905.0,1,181549.0,220765,0.59,-0.21,9.97,-0.03,-0.01,-0.01,31.91,24.108704,-52.57303228560988,356.9656799381512,9.989649643506024,0.033166247903554,-1.3822653313971487,0.47076938360359066
26067196,1869.0,1,181723.0,220952,0.58,-0.22,9.98,-0.04,-0.01,-0.0,31.91,24.148707,-70.71533005170531,573.2152612510935,9.999259972617974,0.04123105625617661,-1.8540017929802208,0.752800844350429
26107193,1843.0,1,181759.0,221085,0.57,-0.2,9.96,-0.03,-0.01,-0.0,31.91,24.188704,-83.4870013589906,682.2353158090954,9.978301458665198,0.03162277660168379,-2.1860910965887284,0.8949841727574243
