timestamp_us,ecg,leads,ir,red,accX,accY,accZ,gyroX,gyroY,gyroZ,temp,time_sec,ecg_filtered,ppg_filtered,accel_magnitude,gyro_magnitude,ecg_norm,ppg_norm
1948963,1535.0,1,208061.0,248572,0.6,-0.21,9.904999999999998,-0.04,-0.01,-0.01,32.77,0.030472,-8.046919523857598,29.126921726992922,9.925377826561563,0.042426406871192854,-0.1116518509705622,0.0247513915816809
1990201,1577.0,1,208276.0,249560,0.63,-0.24,9.94,-0.04,-0.01,-0.01,32.77,0.07171,0.6920587702451989,336.54756214260334,9.962835941638303,0.042426406871192854,0.0007993829998940475,0.3700787379872889
2028193,1729.0,1,208988.0,251115,0.61,-0.23,9.92,-0.03,-0.01,-0.01,32.77,0.109702,107.09985148536829,600.0826050175688,9.941398291990922,0.033166247903554,1.3700312533848744,0.6661091441365528
2068196,1793.0,1,209592.0,252127,0.63,-0.24,9.96,-0.04,-0.01,-0.01,32.77,0.149705,149.09382564272386,806.1908491163816,9.982790191123923,0.042426406871192854,1.910400396595214,0.8976317019932379
2108194,1851.0,1,209884.0,252612,0.64,-0.24,9.96,-0.04,-0.01,-0.01,32.77,0.189703,155.51810896860485,988.2879993770241,9.983426265566347,0.042426406871192854,1.9930666492232407,1.1021824621585852
2148196,1890.0,1,210110.0,253256,0.6,-0.22,9.96,-0.04,-0.01,-0.01,32.77,0.229705,178.77046921187085,1204.6674974344637,9.980480950335009,0.042426406871192854,2.2922728623620605,1.3452427777565705
2188207,1921.0,1,210476.0,253912,0.62,-0.23,9.97,-0.04,-0.01,-0.01,32.77,0.269716,156.91907301452594,1470.7953315293798,9.991906724944943,0.042426406871192854,2.0110939437661717,1.6441856809670559
2228196,1921.0,1,210816.0,254594,0.65,-0.22,9.904999999999998,-0.04,-0.01,-0.01,32.77,0.309705,147.5849988756473,1696.691914371438,9.928742367490454,0.042426406871192854,1.8909851484854998,1.8979365918020639
2268194,1979.0,1,211122.0,255222,0.62,-0.25,9.97,-0.03,-0.01,-0.01,32.77,0.349703,150.58508514760535,1707.9116782029898,9.992387102189346,0.033166247903554,1.9295895930722504,1.910539816055352
2308196,1921.0,1,211341.0,255476,0.63,-0.22,9.94,-0.03,-0.01,-0.01,32.77,0.389705,92.40733657482404,1370.0203521961275,9.962374215015213,0.033166247903554,1.1809712310096097,1.530984575959323
2348194,1921.0,1,210784.0,251664,0.62,-0.23,9.96,-0.04,-0.01,-0.01,32.77,0.429703,35.6727955539983,727.968268655142,9.98192867135405,0.042426406871192854,0.45092374355394643,0.8097638343602767
2388196,1930.0,1,209533.0,249970,0.62,-0.22,9.98,-0.04,-0.01,-0.01,32.77,0.469705,51.22255135108735,25.453668671409844,10.001659862242867,0.042426406871192854,0.6510145514807604,0.020625205621473706
2428194,1983.0,1,209351.0,250179,0.61,-0.24,9.97,-0.04,-0.01,-0.01,32.77,0.509703,53.0145800645553,-441.93374505123353,9.991526409913552,0.042426406871192854,0.674073979409074,-0.5043937231857045
2468197,1951.0,1,209647.0,250948,0.63,-0.22,9.98,-0.04,-0.01,-0.01,32.77,0.549706,24.836458311515965,-529.7648880657681,10.002284738998386,0.042426406871192854,0.31148415992899875,-0.603054943551312
2508194,2019.0,1,210001.0,252142,0.61,-0.23,10.0,-0.04,-0.01,-0.01,32.77,0.589703,58.68664157418278,-329.6764951953322,10.021227469726451,0.042426406871192854,0.7470608085838709,-0.3782945186719101
2548197,2043.0,1,210486.0,253179,0.6,-0.22,9.98,-0.03,-0.01,-0.01,32.77,0.629706,74.07400668021475,-64.99062602868801,10.000439990320427,0.033166247903554,0.9450620091240861,-0.08097138283168609
2588193,2003.0,1,210600.0,253412,0.62,-0.22,9.97,-0.03,-0.01,-0.01,32.77,0.669702,23.116231168535617,103.22750549134881,9.991681540161297,0.033166247903554,0.28934865868074067,0.1079889969807754
2628196,2021.0,1,210625.0,253521,0.63,-0.23,9.97,-0.04,-0.01,-0.01,32.77,0.709705,19.802154570946954,185.9629391644094,9.992532211606825,0.042426406871192854,0.24670385624165675,0.2009261781843847
2668193,2043.0,1,210831.0,253958,0.62,-0.23,9.95,-0.04,-0.01,-0.01,32.77,0.749702,48.47463166542894,302.2908739305585,9.971950661731134,0.042426406871192854,0.6156549305840567,0.33159800611152185
2708196,2035.0,1,210976.0,254563,0.62,-0.24,9.97,-0.04,-0.01,-0.01,32.77,0.789705,16.239279639075253,510.3908544049466,9.99214191252306,0.042426406871192854,0.20085757203223803,0.5653578927187654
2748194,1967.0,1,211320.0,255135,0.6,-0.24,9.96,-0.03,-0.01,-0.01,32.77,0.829703,-39.64143021666592,696.2332606851717,9.980941839325586,0.033166247903554,-0.5182030054111888,0.7741157201815574
2788197,1984.0,1,211470.0,255560,0.6,-0.2,10.0,-0.03,-0.01,-0.01,32.77,0.869706,-38.62015382570868,634.39782299046,10.019980039900279,0.033166247903554,-0.5050614473796814,0.7046556228241524
2828193,1999.0,1,211454.0,254486,0.61,-0.22,9.98,-0.03,-0.01,-0.01,32.77,0.909702,-15.37366051985887,183.25752176699513,10.001044945404455,0.033166247903554,-0.20593072868996956,0.19788716750017823
2868196,2017.0,1,210085.0,250357,0.62,-0.24,9.93,-0.03,-0.01,-0.01,32.77,0.949705,-0.333332535553894,-552.7697085648426,9.952230905681398,0.033166247903554,-0.012395124842915923,-0.6288963887019784
2908194,2049.375,1,209300.0,249500,0.62,-0.24,9.97,-0.03,-0.01,-0.01,32.77,0.989703,34.49534011686256,-1248.1331779224631,9.99214191252306,0.033166247903554,0.43577250820410157,-1.4100021119092059
2948196,2040.0,1,209267.0,249701,0.62,-0.22,9.94,-0.04,-0.01,-0.01,32.77,1.029705,33.187125972838146,-1565.6031734543708,9.961746834767483,0.042426406871192854,0.4189386988224692,-1.7666179558298374
2988881,1995.0,1,209476.0,250585,0.62,-0.24,9.94,-0.04,-0.01,-0.01,32.75,1.07039,-13.048785707208413,-1385.7456196440971,9.96220859046828,0.042426406871192854,-0.1760147553678024,-1.5645829470407795
3028196,1968.0,1,210014.0,252139,0.64,-0.22,9.97,-0.04,-0.01,-0.01,32.75,1.109705,-24.183429970033536,-874.2920655940109,9.992942509591456,0.042426406871192854,-0.3192928875519373,-0.9900642732423723
3068194,1982.0,1,210609.0,253366,0.62,-0.23,9.98,-0.03,-0.01,-0.01,32.75,1.149703,-14.10531288749389,-341.4473852995377,10.001884822372231,0.033166247903554,-0.18960991273609587,-0.3915168261884841
3108196,1943.0,1,211048.0,253920,0.61,-0.24,9.97,-0.04,-0.01,-0.01,32.75,1.189705,-30.963831442194948,-11.847585669544713,9.991526409913552,0.042426406871192854,-0.40654158948247904,-0.021275504629302344
3148194,1936.0,1,210998.0,253760,0.6,-0.23,9.99,-0.04,-0.01,-0.01,32.75,1.229703,-44.76602547990351,113.50112622048573,10.01064433490672,0.042426406871192854,-0.5841451603813066,0.11952941332879348
3188197,1930.0,1,211004.0,253898,0.63,-0.24,9.97,-0.03,-0.01,-0.01,32.75,1.269706,-23.948405038941015,200.93304538934046,9.992767384463626,0.033166247903554,-0.31626863887826684,0.21774218328760944
3228195,1949.0,1,210993.0,254268,0.64,-0.24,9.99,-0.04,-0.01,-0.01,32.75,1.309704,-13.582877860683851,389.8016636667874,10.013356080755344,0.042426406871192854,-0.18288733471186375,0.4298993718253398
3268197,1904.0,1,211399.0,255335,0.64,-0.24,9.97,-0.04,-0.01,-0.01,32.75,1.349706,-30.553581546265054,633.4507883340009,9.993402823863352,0.042426406871192854,-0.40126258483445293,0.7035918134311753
3308194,1921.0,1,211857.0,256222,0.61,-0.23,9.95,-0.04,-0.01,-0.01,32.75,1.389703,-21.122533529816348,722.8088642616459,9.97133391277215,0.042426406871192854,-0.2799059512105949,0.8039682461856156
3348197,1904.0,1,211932.0,254103,0.63,-0.23,9.96,-0.04,-0.01,-0.01,32.75,1.429706,-13.396180734804831,478.83221660273915,9.982554783220577,0.042426406871192854,-0.18048495751429125,0.5299078961483379
3388194,1877.0,1,210569.0,251036,0.63,-0.24,9.98,-0.04,-0.01,-0.01,32.75,1.469703,-43.75548298294986,-60.025042894330895,10.002744623352132,0.042426406871192854,-0.5711417237165528,-0.07539351517509098
3428197,1857.0,1,210037.0,250579,0.6,-0.24,9.96,-0.03,-0.01,-0.01,32.75,1.509706,-46.33031534027253,-632.0767842324786,9.980941839325586,0.033166247903554,-0.604274095271175,-0.7179824759421468
3468194,1872.0,1,209987.0,250920,0.63,-0.23,9.98,-0.03,-0.01,-0.01,32.75,1.549703,-27.698715126289972,-938.3098411239208,10.002509685074042,0.033166247903554,-0.3645267970863983,-1.0619758030493707
3508197,1856.0,1,210138.0,251448,0.61,-0.24,9.96,-0.03,-0.01,-0.01,32.75,1.589706,-37.24041098678897,-855.6807990426494,9.981547976140776,0.033166247903554,-0.4873072226205787,-0.9691581321233496
3548195,1840.0,1,210601.0,252784,0.62,-0.23,9.96,-0.03,-0.01,-0.01,32.75,1.629704,-40.14098948381371,-499.8259776332486,9.98192867135405,0.033166247903554,-0.524631223235011,-0.5694243959083173
3588197,1858.0,1,211083.0,253711,0.63,-0.2,9.95,-0.03,-0.01,-0.01,32.75,1.669706,-28.654131402434743,-103.19761460703587,9.97193060545449,0.033166247903554,-0.3768208817713824,-0.12388950948080445
3628209,1846.0,1,211300.0,254041,0.63,-0.23,9.96,-0.03,-0.01,-0.01,32.75,1.709718,-18.808035219226365,170.37039384155932,9.982554783220577,0.033166247903554,-0.2501235004149438,0.18341098371738504
3668196,1877.0,1,211376.0,254233,0.62,-0.23,9.98,-0.04,-0.01,-0.01,32.75,1.749705,-4.182139396660703,317.8714656518644,10.001884822372231,0.042426406871192854,-0.0619207176845278,0.34909977303020967
3708194,1857.0,1,211538.0,254716,0.61,-0.23,9.97,-0.03,-0.01,-0.01,32.75,1.789703,0.29771792195737945,434.55938169709606,9.991291207846961,0.033166247903554,-0.00427490755245186,0.4801759699668356
3748197,1871.0,1,211683.0,255284,0.63,-0.23,9.97,-0.04,-0.01,-0.01,32.75,1.829706,-4.145198895595868,571.0745546316839,9.992532211606825,0.042426406871192854,-0.06144537551197306,0.6335242368557171
3788194,1874.0,1,211844.0,255770,0.61,-0.25,9.97,-0.03,-0.01,-0.01,32.75,1.869703,17.902031701667294,649.7815943203329,9.991771614683755,0.033166247903554,0.2222534966967463,0.7219363002824833
3828196,1919.0,1,212068.0,256182,0.62,-0.22,9.96,-0.03,-0.01,-0.01,32.75,1.909705,49.076240894928596,523.2501669208204,9.981703261467954,0.033166247903554,0.623396304683922,0.5798028312944696
3868194,1899.0,1,211965.0,253417,0.62,-0.23,9.95,-0.03,-0.01,-0.01,32.75,1.949703,39.59225903410674,126.29207789827393,9.971950661731134,0.033166247903554,0.5013585300938966,0.13389756178792558
3908196,1891.0,1,210764.0,251291,0.62,-0.21,9.97,-0.04,-0.01,-0.01,32.75,1.989705,21.38449393618533,-420.6100831803013,9.991466358848434,0.042426406871192854,0.26706504815595156,-0.48044073304299856
3948173,1828.0,1,210536.0,251377,0.62,-0.22,9.97,-0.03,-0.01,-0.01,32.75,2.029682,-33.365267935642976,-863.4142894506059,9.991681540161297,0.033166247903554,-0.4374427415281531,-0.9778452056959711
3988196,1740.0,1,210658.0,252070,0.62,-0.22,9.96,-0.04,-0.01,-0.01,32.75,2.069705,-136.87192011106362,-988.5612257277869,9.981703261467954,0.042426406871192854,-1.7693433790582118,-1.11842346796543
4028882,1718.0,1,210939.0,253150,0.62,-0.22,9.97,-0.03,-0.01,-0.01,32.69,2.110391,-142.74131283381996,-772.0518031741617,9.991681540161297,0.033166247903554,-1.8448694225061695,-0.875217207445073
4069196,1792.0,1,211490.0,254576,0.62,-0.22,9.98,-0.03,-0.01,-0.01,32.69,2.150705,-95.65078075176339,-379.66418798546874,10.001659862242867,0.033166247903554,-1.2389189025779952,-0.43444597708023125
4109195,1787.0,1,211974.0,255453,0.62,-0.23,9.95,-0.03,-0.01,-0.01,32.69,2.190704,-75.47461223010464,-25.729339288469763,9.971950661731134,0.033166247903554,-0.9792964420682295,-0.036868957086492696
4149197,1872.0,1,212221.0,255575,0.64,-0.24,9.98,-0.04,-0.01,-0.01,32.69,2.230706,-22.457557812272327,185.86016887193367,10.003379428972991,0.042426406871192854,-0.29708474750580993,0.2008107357328239
4189194,1837.0,1,212258.0,255826,0.61,-0.24,9.95,-0.03,-0.01,-0.01,32.69,2.270703,-32.82158219795759,307.8504827995567,9.971569585576786,0.033166247903554,-0.43044671407078816,0.3378431462400073
4229196,1808.0,1,212482.0,256404,0.63,-0.25,9.93,-0.03,-0.01,-0.01,32.69,2.310705,-87.47527067810448,452.29184682964484,9.953105043151107,0.033166247903554,-1.1337182526643514,0.5000949484751573
4269194,1795.0,1,212774.0,257166,0.61,-0.2,9.97,-0.04,-0.01,-0.01,32.69,2.350703,-83.93815237915663,642.049225344049,9.990645624783216,0.042426406871192854,-1.0882033990933593,0.7132504864204107
4309197,1787.0,1,212848.0,257650,0.62,-0.22,9.97,-0.03,-0.01,-0.01,32.69,2.390706,-106.67286063857176,750.3848914838172,9.991681540161297,0.033166247903554,-1.3807485813436406,0.8349445537366218
4349194,1759.0,1,213092.0,258265,0.62,-0.23,9.91,-0.04,-0.01,-0.01,32.69,2.430703,-126.41660865837851,596.5283397555384,9.932039065569567,0.042426406871192854,-1.6348067507668618,0.6621166178387113
4389196,1805.0,1,213043.0,255572,0.61,-0.23,9.94,-0.03,-0.01,-0.01,32.69,2.470705,-84.09075145241255,126.59596641963125,9.961355329471989,0.033166247903554,-1.090167010114336,0.13423892148498945
4429195,1861.0,1,211745.0,253127,0.62,-0.23,9.98,-0.03,-0.01,-0.01,32.69,2.510704,-27.907345456796534,-482.5553751507406,10.001884822372231,0.033166247903554,-0.3672114058952975,-0.5500242303304702
4469196,1906.0,1,211336.0,253126,0.62,-0.23,10.01,-0.03,-0.01,-0.01,32.69,2.550705,26.232105006978074,-910.3448160012093,10.031819376364389,0.033166247903554,0.3294430319858627,-1.0305625319536613
4509193,1946.0,1,211550.0,254114,0.6,-0.23,10.0,-0.03,-0.01,-0.01,32.69,2.590702,57.725519094145504,-917.9183283620829,10.020623733081688,0.033166247903554,0.7346932977331035,-1.039069901279985
4549197,1974.0,1,212125.0,255753,0.61,-0.23,9.97,-0.04,-0.01,-0.01,32.69,2.630706,106.71779540600154,-524.9162051294603,9.991291207846961,0.042426406871192854,1.365115040513663,-0.5976083905492309
4589194,2038.0,1,212881.0,257302,0.62,-0.25,9.98,-0.04,-0.01,-0.01,32.69,2.670703,158.86323467161503,15.30989949175859,10.00236472040487,0.042426406871192854,2.036110984662731,0.009230652254385982
4629196,2001.0,1,213275.0,257654,0.61,-0.22,9.96,-0.04,-0.01,-0.01,32.69,2.710705,146.16403515313382,418.70476789429983,9.981087115139314,0.042426406871192854,1.8727005025410508,0.46236639249213024
4669195,2022.0,1,213267.0,257641,0.62,-0.24,9.93,-0.04,-0.01,-0.01,32.69,2.750704,162.5692496158238,576.4417629618206,9.952230905681398,0.042426406871192854,2.083799162795689,0.6395532523692703
4709197,2049.375,1,213277.0,257662,0.6,-0.22,9.98,-0.03,-0.01,-0.01,32.69,2.790706,208.11209752986653,595.3588119523992,10.000439990320427,0.033166247903554,2.669834426199295,0.6608028806340147
4749194,2049.375,1,213280.0,257852,0.62,-0.24,9.96,-0.03,-0.01,-0.01,32.69,2.830703,216.82573178305285,653.8698750736925,9.982164094022899,0.033166247903554,2.7819595386737426,0.7265286892060446
4789197,2049.375,1,213449.0,258315,0.61,-0.23,9.98,-0.04,-0.01,-0.01,32.69,2.870706,226.42867903310693,810.9971803149302,10.00126991936524,0.042426406871192854,2.905528133500267,0.903030681048442
4829194,2027.0,1,213733.0,258920,0.6,-0.23,9.97,-0.04,-0.01,-0.01,32.69,2.910703,225.79221446052978,939.6402657778314,9.990685662155526,0.042426406871192854,2.897338248578242,1.047536187498092
4869197,2043.0,1,213961.0,259172,0.59,-0.23,9.97,-0.03,-0.01,-0.01,32.69,2.950706,242.1193679566536,841.7813773552574,9.990090089683877,0.033166247903554,3.107432437632715,0.9376107439251301
4909195,1979.0,1,213502.0,255428,0.64,-0.23,9.99,-0.03,-0.01,-0.01,32.69,2.990704,215.3221528791113,439.8556629101229,10.013121391454316,0.033166247903554,2.762611818902626,0.4861253126480551
4949196,1895.0,1,212237.0,253597,0.62,-0.23,9.94,-0.03,-0.01,-0.01,32.69,3.030705,116.62710918608526,-131.63082786329443,9.961972696208315,0.033166247903554,1.4926258918820452,-0.15582869895843438
4989194,1827.0,1,211914.0,253585,0.62,-0.23,9.96,-0.03,-0.01,-0.01,32.69,3.070703,105.42383003707609,-617.7238451986227,9.98192867135405,0.033166247903554,1.3484645812089529,-0.7018597382398827
5029884,1823.0,1,211955.0,254065,0.61,-0.22,9.92,-0.03,-0.01,-0.01,32.63,3.111393,71.52023765183857,-829.9866461311983,9.941171963103747,0.033166247903554,0.9122006758135063,-0.9402957446432643
5068197,1675.0,1,212068.0,254727,0.62,-0.25,9.98,-0.03,-0.01,-0.01,32.63,3.149706,-10.303090148856704,-759.2042700906572,10.00236472040487,0.033166247903554,-0.14068375404786496,-0.8607855007724602
5108197,1722.0,1,212290.0,255444,0.61,-0.22,9.97,-0.03,-0.01,-0.01,32.63,3.189706,10.042209557756,-528.793193491479,9.991066009190412,0.033166247903554,0.1211150490286046,-0.6019634335329789
5148194,1642.0,1,212442.0,255779,0.6,-0.23,9.96,-0.04,-0.01,-0.01,32.63,3.229703,-20.116147824558276,-258.2298110406347,9.980706387826466,0.042426406871192854,-0.2669560032192071,-0.2980380537342732
5188196,1574.0,1,212597.0,256133,0.61,-0.22,9.96,-0.04,-0.01,-0.01,32.63,3.269705,-88.82316621573199,23.84162789261178,9.981087115139314,0.042426406871192854,-1.1510626734156615,0.018814391085119307
5228194,1522.0,1,212870.0,256742,0.62,-0.23,9.98,-0.04,-0.01,-0.01,32.63,3.309703,-122.6012303289877,343.2479817621939,10.001884822372231,0.042426406871192854,-1.5857113088553445,0.3776053572927108
5268229,1428.375,1,213080.0,257285,0.61,-0.23,9.96,-0.04,-0.01,-0.01,32.63,3.349738,-190.63224321145708,673.1347993206238,9.981312538939957,0.042426406871192854,-2.461119290135736,0.7481690877163849
5308194,1428.375,1,213338.0,257787,0.62,-0.22,9.95,-0.03,-0.01,-0.01,32.63,3.389703,-193.00995818956153,878.3655215654032,9.971725026293093,0.033166247903554,-2.491715198984521,0.9787059203047322
5348197,1428.375,1,213368.0,257979,0.62,-0.23,9.98,-0.03,-0.01,-0.01,32.63,3.429706,-161.684187050839,788.2288947586014,10.001884822372231,0.033166247903554,-2.0886221255067468,0.8774549369385389
5388194,1428.375,1,213307.0,256802,0.62,-0.23,9.97,-0.03,-0.01,-0.01,32.63,3.469703,-164.07493323369386,350.27738610615273,9.991906724944943,0.033166247903554,-2.1193857170073236,0.38550152700216694
5428197,1428.375,1,211981.0,252710,0.62,-0.24,9.95,-0.04,-0.01,-0.01,32.63,3.509706,-144.522264146494,-275.96554882896925,9.97218631996013,0.042426406871192854,-1.8677863088985576,-0.3179607084353733
5468226,1428.375,1,211303.0,252082,0.61,-0.24,9.97,-0.04,-0.01,-0.01,32.63,3.549735,-137.87149022582653,-793.4952790291247,9.991526409913552,0.042426406871192854,-1.7822056255431278,-0.8993047853145878
5508196,1428.375,1,211352.0,252524,0.63,-0.23,9.98,-0.03,-0.01,-0.01,32.63,3.589705,-132.89914288152212,-970.2234838443494,10.002509685074042,0.033166247903554,-1.7182225630180643,-1.0978245786549485
5548195,1428.375,1,211607.0,253325,0.62,-0.23,9.96,-0.03,-0.01,-0.01,32.63,3.629704,-120.53058281867693,-801.6845605996845,9.98192867135405,0.033166247903554,-1.5590666760600635,-0.9085038516814605
5588196,1428.375,1,211934.0,254351,0.59,-0.21,10.025000000000002,-0.03,-0.01,-0.01,32.63,3.669705,-124.47687117357702,-491.4703305450498,10.04454205028781,0.033166247903554,-1.6098466391378088,-0.5600384502132965
5628195,1428.375,1,212182.0,254999,0.62,-0.22,9.95,-0.03,-0.01,-0.01,32.63,3.709704,-114.06212960008585,-265.82300222641334,9.971725026293093,0.033166247903554,-1.4758320550516115,-0.3065675283960606
5668197,1428.375,1,212248.0,255001,0.61,-0.25,9.98,-0.03,-0.01,-0.01,32.63,3.749706,-118.47815858875367,-183.58658556992438,10.001749846901792,0.033166247903554,-1.532656536394025,-0.21419089583326784
5708195,1428.375,1,212173.0,254968,0.64,-0.22,9.97,-0.04,-0.01,-0.01,32.63,3.789704,-119.63341392545226,-106.81934812810871,9.992942509591456,0.042426406871192854,-1.5475221057764752,-0.1279578232561238
5748197,1454.0,1,212248.0,255463,0.62,-0.22,9.96,-0.04,-0.01,-0.01,32.63,3.829706,-88.66203668587085,139.07027482456886,9.981703261467954,0.042426406871192854,-1.148989294371547,0.14825138276247088
5788194,1477.0,1,212671.0,256600,0.61,-0.21,9.96,-0.04,-0.01,-0.01,32.63,3.869703,-87.25855661514854,552.6935102194456,9.980871705417318,0.042426406871192854,-1.1309296241796472,0.612876705569397
5828197,1457.0,1,213153.0,257575,0.61,-0.23,9.96,-0.04,-0.01,-0.01,32.63,3.909706,-86.51127645682487,888.0072754387393,9.981312538939957,0.042426406871192854,-1.1213137888843656,0.9895365570351541
5868195,1518.0,1,213409.0,257976,0.61,-0.22,9.98,-0.04,-0.01,-0.01,32.63,3.949704,-66.38032862840242,817.7642837902287,10.001044945404455,0.042426406871192854,-0.8622732182230795,0.9106322067066336
5908197,1535.0,1,213103.0,254822,0.61,-0.26999999999999996,9.98,-0.03,-0.01,-0.01,32.63,3.989706,-21.006699229643704,214.91742826990824,10.00226974241347,0.033166247903554,-0.27841542113349105,0.2334509197756272
5948194,1664.0,1,211324.0,251689,0.62,-0.24,9.98,-0.03,-0.01,-0.01,32.63,4.029703,62.71694835675527,-687.4460030982698,10.002119775327628,0.033166247903554,0.7989219021496498,-0.7801790330686476
5988196,1664.0,1,210718.0,251129,0.62,-0.25,9.97,-0.03,-0.01,-0.01,32.63,4.069705,82.17082583143487,-1416.3420722057858,9.992387102189346,0.033166247903554,1.04925008170515,-1.5989521154813529
6028194,1680.0,1,210761.0,251836,0.62,-0.22,9.97,-0.04,-0.01,-0.01,32.63,4.109703,64.10585302425939,-1582.7286289669476,9.991681540161297,0.042426406871192854,0.8167940192864506,-1.7858550769943444
6068884,1689.0,1,211325.0,253317,0.62,-0.23,9.96,-0.04,-0.01,-0.01,32.75,4.150393,75.46631249761026,-1152.212725694223,9.98192867135405,0.042426406871192854,0.9629778915031537,-1.3022541246913573
6108195,1706.0,1,212126.0,255358,0.62,-0.23,9.94,-0.04,-0.01,-0.01,32.75,4.189704,70.77901289549379,-447.8541191751107,9.961972696208315,0.042426406871192854,0.9026627600875149,-0.5110441129681309
6148197,1712.0,1,212865.0,256355,0.62,-0.24,9.95,-0.04,-0.01,-0.01,32.75,4.229706,69.50476584712965,107.86608763501117,9.97218631996013,0.042426406871192854,0.886266031757333,0.1131995425726062
6188195,1753.0,1,212960.0,256237,0.63,-0.24,9.92,-0.03,-0.01,-0.01,32.75,4.269704,91.1718726998267,299.63214521103254,9.94288187599551,0.033166247903554,1.1650735559503724,0.328611441083601
6228197,1793.0,1,212719.0,255999,0.61,-0.23,9.96,-0.03,-0.01,-0.01,32.75,4.309706,124.89356043409771,236.50221069777083,9.981312538939957,0.033166247903554,1.5989967526522233,0.2576972281187468
6268195,1823.0,1,212672.0,256282,0.61,-0.22,9.99,-0.03,-0.01,-0.01,32.75,4.349704,133.29072460686868,203.5329898276611,10.011023923655362,0.033166247903554,1.707049598339895,0.22066271559953712
6308197,1831.0,1,212923.0,257049,0.59,-0.23,9.96,-0.03,-0.01,-0.01,32.75,4.389706,135.17356122447362,385.8052059389985,9.980110219832245,0.033166247903554,1.731277522233162,0.4254101282264267
6348195,1858.0,1,213411.0,258181,0.6,-0.23,9.98,-0.04,-0.01,-0.01,32.75,4.429704,146.25902110252318,698.9719612772406,10.00066497789022,0.042426406871192854,1.873922760665424,0.7771921180668134
6388197,1808.0,1,213940.0,258956,0.62,-0.21,9.98,-0.04,-0.01,-0.01,32.75,4.469706,80.90046345214441,863.670295431191,10.001444895613833,0.042426406871192854,1.0329033404348054,0.9621986895641507
6428194,1754.0,1,213740.0,255920,0.6,-0.23,9.98,-0.04,-0.01,-0.01,32.75,4.509703,24.936560317562982,653.6558995663657,10.00066497789022,0.042426406871192854,0.3127722503354598,0.7262883293068491
6468196,1792.0,1,212699.0,254188,0.58,-0.23,10.0,-0.03,-0.01,-0.01,32.75,4.549705,37.373960953181054,104.2084223632363,10.019446092474373,0.033166247903554,0.47281396251181196,0.10909086645822963
6510194,1802.0,1,212295.0,253736,0.61,-0.24,9.99,-0.03,-0.01,-0.01,32.75,4.591703,53.10595363766504,-491.4033895915462,10.01148340656868,0.033166247903554,0.6752497542768767,-0.5599632550611167
6550196,1856.0,1,212104.0,253849,0.63,-0.23,9.97,-0.03,-0.01,-0.01,32.75,4.631705,84.57727704086358,-786.5184007816054,9.992532211606825,0.033166247903554,1.0802157620035628,-0.8914676184667351
6590194,1847.0,1,212277.0,254878,0.61,-0.22,9.96,-0.04,-0.01,-0.01,32.75,4.671703,74.86329450583244,-616.6414844482318,9.981087115139314,0.042426406871192854,0.955218389762823,-0.7006439162791946
6630196,1846.0,1,213021.0,256585,0.63,-0.24,9.94,-0.04,-0.01,-0.01,32.75,4.711705,64.75867817968094,-89.76979404461835,9.962835941638303,0.042426406871192854,0.8251944285589679,-0.10880596259676496
6670194,1867.0,1,213671.0,257555,0.63,-0.23,9.96,-0.04,-0.01,-0.01,32.75,4.751703,77.10677931060879,514.335579241597,9.982554783220577,0.042426406871192854,0.9840870545198133,0.5697890244680818
6710197,1805.0,1,214008.0,257898,0.66,-0.23,10.0,-0.04,-0.01,-0.01,32.75,4.791706,11.757964982062958,936.3400341008274,10.024395243604474,0.042426406871192854,0.14319300919301187,1.0438290185649886
6750194,1778.0,1,214123.0,257857,0.58,-0.23,9.98,-0.03,-0.01,-0.01,32.75,4.831703,-17.44552216079986,1072.117694075171,9.999484986738068,0.033166247903554,-0.23259098464884861,1.196348832968843
6790197,1845.0,1,213909.0,257549,0.62,-0.22,9.98,-0.03,-0.01,-0.01,32.75,4.871706,36.428694632269945,971.1281035279069,10.001659862242867,0.033166247903554,0.4606504851990353,1.082906653968995
6830194,1853.0,1,213634.0,257408,0.62,-0.21,9.95,-0.03,-0.01,-0.01,32.75,4.911703,59.74114102736551,738.8078046050347,9.971509414326398,0.033166247903554,0.7606298736096518,0.8219399464807384
6870197,1877.0,1,213623.0,257777,0.63,-0.23,9.98,-0.03,-0.01,-0.01,32.75,4.951706,57.88774254205983,449.4930792004162,10.002509685074042,0.033166247903554,0.7367807530720438,0.4969510769468799
6910194,1850.0,1,213760.0,256359,0.61,-0.23,9.97,-0.04,-0.01,-0.01,32.75,4.991703,57.30023426743278,137.63394419958618,9.991291207846961,0.042426406871192854,0.7292208269312216,0.14663794443700315
6950197,1829.0,1,212719.0,253663,0.62,-0.22,9.94,-0.04,-0.01,-0.01,32.75,5.031706,11.165678593032123,-160.86897013057447,9.961746834767483,0.042426406871192854,0.13557159933605314,-0.18867206975272918
6990194,1714.0,1,212483.0,253566,0.6,-0.22,9.94,-0.04,-0.01,-0.01,32.75,5.071703,-83.45719605496305,-392.67795309892665,9.960522074670584,0.042426406871192854,-1.0820145598124609,-0.44906441313351875
7030197,1669.0,1,212570.0,253841,0.66,-0.22,9.904999999999998,-0.03,-0.01,-0.01,32.75,5.111706,-137.59951081102454,-521.3595624226879,9.92940204644771,0.033166247903554,-1.7787058547713333,-0.5936131936542464
7070881,1690.0,1,212583.0,254127,0.62,-0.23,9.93,-0.03,-0.01,-0.01,32.59,5.15239,-111.59731137124919,-559.7025367588186,9.951994774918242,0.033166247903554,-1.4441153208960182,-0.6366840738752155
7110197,1746.0,1,212579.0,254670,0.62,-0.24,9.96,-0.03,-0.01,-0.01,32.59,5.191706,-49.62963494128795,-545.2432072643395,9.982164094022899,0.033166247903554,-0.6467290079521532,-0.6204418271660083
7150194,1741.0,1,212721.0,254974,0.63,-0.22,9.96,-0.03,-0.01,-0.01,32.59,5.231703,-53.54785721076898,-477.7821379039953,9.982329387472646,0.033166247903554,-0.697147822869109,-0.5446624258987491
7190197,1716.0,1,212776.0,255135,0.62,-0.23,9.97,-0.04,-0.01,-0.01,32.59,5.271706,-78.12438424740581,-295.0735744959536,9.991906724944943,0.042426406871192854,-1.0133931205422997,-0.33942486188228965
7230194,1703.0,1,212978.0,255763,0.62,-0.23,9.96,-0.04,-0.01,-0.01,32.59,5.311703,-70.47782694846507,64.4851402931597,9.98192867135405,0.042426406871192854,-0.9149989175870256,0.06446947874257103
7270197,1600.0,1,213447.0,256699,0.62,-0.21,9.96,-0.03,-0.01,-0.01,32.59,5.351706,-197.5537823887905,552.7691488299419,9.981487865042967,0.033166247903554,-2.550184120745423,0.6129616708489344
7310194,1446.0,1,213811.0,257473,0.62,-0.23,9.98,-0.03,-0.01,-0.01,32.59,5.391703,-305.7548262726455,964.0894379714488,10.001884822372231,0.033166247903554,-3.9424911493418557,1.075000081087089
7350196,1535.0,1,214005.0,257865,0.59,-0.23,9.97,-0.03,-0.01,-0.01,32.59,5.431705,-253.26297187177204,1028.5378662889996,9.990090089683877,0.033166247903554,-3.2670376120834974,1.1473953656093763
7390195,1565.0,1,214012.0,257383,0.63,-0.23,9.97,-0.03,-0.01,-0.01,32.59,5.471704,-181.36147530280198,608.5836876734309,9.992532211606825,0.033166247903554,-2.341825105381269,0.6756584584283805
7430197,1678.0,1,212838.0,253095,0.61,-0.25,9.95,-0.03,-0.01,-0.01,32.59,5.511706,-79.99948271800788,-153.49008918078152,9.971815281080971,0.033166247903554,-1.0375214716766203,-0.1803833309927357
7470195,1718.0,1,211662.0,251477,0.62,-0.22,9.97,-0.03,-0.01,-0.01,32.59,5.551704,-34.92436465441824,-884.3070927998916,9.991681540161297,0.033166247903554,-0.45750485222407716,-1.0013142100212145
7510197,1710.0,1,211462.0,251557,0.6,-0.24,9.92,-0.04,-0.01,-0.01,32.59,5.591706,-14.890236072003633,-1220.064208508651,9.941026103979407,0.042426406871192854,-0.1997101301413392,-1.3784720796026317
7550194,1722.0,1,211782.0,252415,0.62,-0.23,9.98,-0.04,-0.01,-0.01,32.59,5.631703,-23.347791339771295,-1059.408379462905,10.001884822372231,0.042426406871192854,-0.30854007504183156,-1.1980064769874101
7590197,1616.0,1,212308.0,253725,0.62,-0.23,9.99,-0.04,-0.01,-0.01,32.59,5.671706,-98.83535318552904,-619.7558545812826,10.011862963504845,0.042426406871192854,-1.2798972741671435,-0.7041423058873789
7630194,1697.0,1,212751.0,254603,0.62,-0.23,9.96,-0.03,-0.01,-0.01,32.59,5.711703,-11.143806471448212,-247.02389804481462,9.98192867135405,0.033166247903554,-0.15150190517639173,-0.28545038820320445
7670197,1788.0,1,212789.0,254486,0.62,-0.22,9.96,-0.03,-0.01,-0.01,32.59,5.751706,60.91263114287024,-135.9102966573843,9.981703261467954,0.033166247903554,0.7757043485241388,-0.1606358504909104
7710194,1729.0,1,212554.0,254100,0.62,-0.24,9.98,-0.03,-0.01,-0.01,32.59,5.791703,69.44823775461033,-191.65377274986324,10.002119775327628,0.033166247903554,0.8855386408033947,-0.2232528128796945
7750196,1926.0,1,212435.0,254283,0.62,-0.23,10.0,-0.04,-0.01,-0.01,32.59,5.831705,193.46924197242555,-145.10328224882716,10.021841148212237,0.042426406871192854,2.481413409362973,-0.17096238326875557
7790194,1872.0,1,212773.0,255229,0.61,-0.22,9.96,-0.04,-0.01,-0.01,32.59,5.871703,241.5901259169425,177.96752081310575,9.981087115139314,0.042426406871192854,3.100622268476589,0.19194487946961505
7830196,1939.0,1,213315.0,256504,0.62,-0.23,9.96,-0.04,-0.01,-0.01,32.59,5.911705,229.37290939878756,663.1531070507576,9.98192867135405,0.042426406871192854,2.9434138366765175,0.736956596259955
7870194,1809.0,1,213838.0,257578,0.61,-0.24,9.97,-0.04,-0.01,-0.01,32.59,5.951703,181.00731571290294,961.8535818317648,9.991526409913552,0.042426406871192854,2.321056106899159,1.0724885312229748
7910197,1773.0,1,214028.0,255495,0.62,-0.23,9.95,-0.04,-0.01,-0.01,32.59,5.991706,105.97771148110004,762.31153871954,9.971950661731134,0.042426406871192854,1.3555918047535933,0.8483418241211342
7950194,1787.0,1,212586.0,252406,0.62,-0.23,9.95,-0.03,-0.01,-0.01,32.59,6.031703,152.9788665047332,59.825854928543805,9.971950661731134,0.033166247903554,1.960392240522027,0.0592356771053938
7990197,1840.0,1,211767.0,251223,0.64,-0.24,9.94,-0.03,-0.01,-0.01,32.59,6.071706,212.68459640412766,-798.9785963044187,9.963473289972729,0.033166247903554,2.7286723273171134,-0.9054642266638002
8030194,1843.0,1,211341.0,250962,0.63,-0.23,9.95,-0.03,-0.01,-0.01,32.59,6.111703,212.97375740200133,-1340.0499019590052,9.9725774000506,0.033166247903554,2.7323931868881877,-1.5132526885748574
8070196,1784.0,1,211412.0,251639,0.61,-0.23,9.98,-0.04,-0.01,-0.01,32.59,6.151705,180.6533976674668,-1280.3557927701108,10.00126991936524,0.042426406871192854,2.316501968006222,-1.4461979576551023
8110882,1733.0,1,212051.0,253438,0.61,-0.24,9.96,-0.04,-0.01,-0.01,32.69,6.192391,121.10824991827596,-701.1122728176015,9.981547976140776,0.042426406871192854,1.5502882166952519,-0.7955304312410668
8150196,1679.0,1,212945.0,255247,0.62,-0.23,9.96,-0.04,-0.01,-0.01,32.69,6.231705,84.31947930812294,39.68081130161311,9.98192867135405,0.042426406871192854,1.076898477970367,0.036606635511087324
8190194,1597.0,1,213530.0,255892,0.62,-0.21,9.97,-0.03,-0.01,-0.01,32.69,6.271703,11.73951611943058,571.0614092684297,9.991466358848434,0.033166247903554,0.14295561332148732,0.633509470594727
8230196,1533.0,1,213565.0,255703,0.63,-0.23,9.98,-0.03,-0.01,-0.01,32.69,6.311705,-61.999194389647094,743.8419306606919,10.002509685074042,0.033166247903554,-0.8058977547812365,0.8275948087890116
8270194,1519.0,1,213317.0,255344,0.62,-0.23,9.96,-0.03,-0.01,-0.01,32.69,6.351703,-40.51607028305171,670.1918404258693,9.98192867135405,0.033166247903554,-0.5294576797489722,0.7448632453229386
8310196,1535.0,1,213182.0,255446,0.61,-0.23,9.98,-0.03,-0.01,-0.01,32.69,6.391705,-60.17216239516886,564.7915862250296,10.00126991936524,0.033166247903554,-0.7823879123982632,0.6264665428619536
8350194,1455.0,1,213215.0,256008,0.6,-0.22,9.98,-0.03,-0.01,-0.01,32.69,6.431703,-90.68140712879963,540.231353899366,10.000439990320427,0.033166247903554,-1.1749741052394314,0.598877894797658
8390197,1535.0,1,213630.0,256999,0.61,-0.23,9.97,-0.04,-0.01,-0.01,32.69,6.471706,-52.42293457709455,531.0584389209693,9.991291207846961,0.042426406871192854,-0.6826725679799479,0.5885739074531141
8430197,1445.0,1,213613.0,254518,0.6,-0.24,9.98,-0.04,-0.01,-0.01,32.69,6.511706,-103.13270817406355,393.0940411854908,10.000899959503645,0.042426406871192854,-1.335194684803339,0.43359771813794346
8470197,1428.375,1,212664.0,252697,0.61,-0.23,9.98,-0.04,-0.01,-0.01,32.69,6.551706,-147.22878886022448,66.38460441528107,10.00126991936524,0.042426406871192854,-1.902613268479852,0.06660315754825581
8510194,1428.375,1,212335.0,252255,0.62,-0.23,9.98,-0.03,-0.01,-0.01,32.69,6.591703,-129.04959758720761,-351.68621745226807,10.001884822372231,0.033166247903554,-1.668687468181755,-0.40301816433160526
8550197,1428.375,1,212223.0,252277,0.64,-0.23,9.96,-0.03,-0.01,-0.01,32.69,6.631706,-145.07356589251387,-674.3490514746599,9.983190872661908,0.033166247903554,-1.8748803374615803,-0.7654671531373931
8590194,1428.375,1,212163.0,252561,0.62,-0.24,9.95,-0.03,-0.01,-0.01,32.69,6.671703,-134.1474512533365,-755.924189917494,9.97218631996013,0.033166247903554,-1.734285518212827,-0.8571009681377458
8630196,1445.0,1,212340.0,253409,0.62,-0.21,9.94,-0.03,-0.01,-0.01,32.69,6.711705,-140.648488130829,-572.9976654271757,9.961531006828217,0.033166247903554,-1.8179394185154285,-0.6516185672031779
8670194,1439.0,1,212705.0,254318,0.62,-0.22,9.96,-0.04,-0.01,-0.01,32.69,6.751703,-129.07406597097537,-211.56832741181555,9.981703261467954,0.042426406871192854,-1.6690023219158354,-0.24562294491430403
8710196,1487.0,1,213078.0,254975,0.6,-0.23,9.95,-0.04,-0.01,-0.01,32.69,6.791705,-113.26640189193644,203.2047214013106,9.97072715502736,0.042426406871192854,-1.4655928074331264,0.2202939698171228
8750248,1435.0,1,213465.0,255659,0.63,-0.22,9.99,-0.04,-0.01,-0.01,32.69,6.831757,-153.09723681364966,569.408823668594,10.01226248157728,0.042426406871192854,-1.9781271548456507,0.631653111831282
8790197,1498.0,1,213718.0,256101,0.61,-0.23,9.93,-0.03,-0.01,-0.01,32.69,6.871706,-108.86907916582449,824.577374374809,9.951376789168421,0.033166247903554,-1.4090090341273493,0.9182853899451221
8830195,1564.0,1,213704.0,256088,0.61,-0.24,9.95,-0.03,-0.01,-0.01,32.69,6.911704,-59.278208770357494,925.2957821878741,9.971569585576786,0.033166247903554,-0.7708847154753189,1.0314229478438453
8870197,1585.0,1,213534.0,255902,0.61,-0.21,9.96,-0.03,-0.01,-0.01,32.69,6.951706,-29.200072446205482,831.6306619823255,9.980871705417318,0.033166247903554,-0.38384593000712025,0.9262083878597915
8910195,1680.0,1,213398.0,256040,0.64,-0.22,9.97,-0.03,-0.01,-0.01,32.69,6.991704,23.802334880596327,529.5527981443539,9.992942509591456,0.033166247903554,0.2981772890373353,0.5868826126417906
8950232,1665.0,1,213419.0,254274,0.58,-0.23,9.96,-0.04,-0.01,-0.01,32.69,7.031741,25.49934054463065,77.69481864187895,9.979524036746444,0.042426406871192854,0.32001398144613646,0.07930798524255032
8990194,1702.0,1,212175.0,251635,0.62,-0.24,9.96,-0.03,-0.01,-0.01,32.69,7.071703,28.319958990491692,-380.64894505015246,9.982164094022899,0.033166247903554,0.3563090738611096,-0.43555216026800175
9030197,1655.0,1,211847.0,251362,0.62,-0.23,9.97,-0.03,-0.01,-0.01,32.69,7.111706,-28.46677013602409,-684.3228544317951,9.991906724944943,0.033166247903554,-0.37440995856078657,-0.7766707824841526
9070195,1611.0,1,211951.0,251813,0.62,-0.25,9.98,-0.03,-0.01,-0.01,32.69,7.151704,-73.65223486807929,-762.1952737200481,10.00236472040487,0.033166247903554,-0.9558464944630427,-0.8641453120884172
9110197,1708.0,1,212136.0,252340,0.61,-0.23,10.025000000000002,-0.03,-0.01,-0.01,32.69,7.191706,-18.906688557880667,-681.0039861931125,10.046174645107461,0.033166247903554,-0.2513929496907782,-0.7729426789957704
9150882,1712.0,1,212276.0,252990,0.62,-0.22,9.96,-0.03,-0.01,-0.01,32.71,7.232391,4.159538534750196,-573.9890878518105,9.981703261467954,0.033166247903554,0.045418143358790894,-0.6527322376275297
9190197,1799.0,1,212297.0,252884,0.63,-0.23,9.96,-0.03,-0.01,-0.01,32.71,7.271706,44.965919300258875,-507.7953955412613,9.982554783220577,0.033166247903554,0.5705055982671398,-0.5783764881778889
9230194,1839.0,1,212110.0,252791,0.62,-0.22,9.98,-0.04,-0.01,-0.01,32.71,7.311703,92.12532240094858,-413.78076761197514,10.001659862242867,0.042426406871192854,1.1773423351842411,-0.47276932418838086
9270196,1872.0,1,212349.0,253551,0.61,-0.23,9.98,-0.04,-0.01,-0.01,32.71,7.351705,102.27383109213568,-156.3964919526847,10.00126991936524,0.042426406871192854,1.3079310936039752,-0.1836481096863535
9310194,1867.0,1,212876.0,254785,0.6,-0.2,9.96,-0.04,-0.01,-0.01,32.71,7.391703,80.10008525131104,313.9729811993426,9.980060120059399,0.042426406871192854,1.0226042513081621,0.3447205833662598
9350197,1785.0,1,213383.0,255787,0.62,-0.23,9.98,-0.04,-0.01,-0.01,32.71,7.431706,-4.162274390460248,857.7191520447956,10.001884822372231,0.042426406871192854,-0.061665099191736794,0.9555137364948808
9390195,1818.0,1,213660.0,256219,0.59,-0.24,10.0,-0.03,-0.01,-0.01,32.71,7.471704,4.230341917482112,1193.6710142379784,10.02026446756771,0.033166247903554,0.04632922558025142,1.332890365905166
9430197,1911.0,1,213613.0,256115,0.61,-0.24,9.97,-0.03,-0.01,-0.01,32.71,7.511706,93.04016370154092,1081.1740135340074,9.991526409913552,0.033166247903554,1.1891143100852621,1.206521847905945
9470194,1944.0,1,213343.0,254658,0.63,-0.23,9.96,-0.03,-0.01,-0.01,32.71,7.551703,116.29577912510636,508.1058487319499,9.982554783220577,0.033166247903554,1.4883624101620223,0.5627911329055305
9510197,1991.0,1,211975.0,250985,0.63,-0.21,9.99,-0.04,-0.01,-0.01,32.71,7.591706,142.53539758063175,-264.9264978299933,10.012047742594918,0.042426406871192854,1.8260079992612597,-0.3055604799303553
9550194,1994.0,1,211211.0,250203,0.62,-0.23,9.99,-0.04,-0.01,-0.01,32.71,7.631703,155.66716009213502,-857.3548937812834,10.011862963504845,0.042426406871192854,1.9949846060142493,-0.9710386522242203
9590196,1971.0,1,211331.0,250597,0.64,-0.21,9.94,-0.04,-0.01,-0.01,32.71,7.671705,101.7292885478744,-1016.8609611617477,9.962795792346643,0.042426406871192854,1.3009240409496718,-1.150212721049343
9630194,1958.0,1,211614.0,251393,0.61,-0.24,9.96,-0.04,-0.01,-0.01,32.71,7.711703,102.79445508043361,-774.9248951650004,9.981547976140776,0.042426406871192854,1.3146303675864073,-0.8784445679496709
9670196,1980.0,1,212005.0,252434,0.58,-0.22,10.025000000000002,-0.04,-0.01,-0.01,32.71,7.751705,107.17647539063877,-389.75857198806176,10.044173684280855,0.042426406871192854,1.3710172327990944,-0.4457850557982445
9710195,1927.0,1,212244.0,252870,0.6,-0.26,9.96,-0.03,-0.01,-0.01,32.71,7.791704,45.680797948053716,-127.52018139452306,9.981442781482045,0.033166247903554,0.5797044981131216,-0.1512111865000864
9750197,1921.0,1,212218.0,252726,0.61,-0.25,9.96,-0.03,-0.01,-0.01,32.71,7.831706,58.76836455570648,-58.8202699328094,9.98179342603322,0.033166247903554,0.7481124017801015,-0.07404018688437834
9790195,1984.0,1,212166.0,252867,0.62,-0.23,9.93,-0.04,-0.01,-0.01,32.71,7.871704,77.35583476252074,-28.49730383301373,9.951994774918242,0.042426406871192854,0.9872918448227562,-0.03997822733529555
9830196,1915.0,1,212346.0,253573,0.61,-0.22,9.93,-0.04,-0.01,-0.01,32.71,7.911705,61.089275886558816,182.63746789352427,9.951150687232106,0.042426406871192854,0.7779773738977778,0.19719065747253425
9870195,1951.0,1,212756.0,254601,0.62,-0.24,9.97,-0.04,-0.01,-0.01,32.71,7.951704,37.695561150329006,634.4152129665364,9.99214191252306,0.042426406871192854,0.47695224250260143,0.7046751570827643
9910196,1790.0,1,213239.0,255464,0.62,-0.22,9.96,-0.03,-0.01,-0.01,32.71,7.991705,-73.23750608669918,1123.7012247801663,9.981703261467954,0.033166247903554,-0.9505098565106715,1.2542929051446932
9950195,1794.0,1,213510.0,256052,0.62,-0.22,10.0,-0.03,-0.01,-0.01,32.71,8.031704,-101.37443974057541,1298.1341693635432,10.02161663605229,0.033166247903554,-1.3125696766681814,1.4502344196677868
9990197,1872.0,1,213553.0,255622,0.63,-0.23,9.97,-0.03,-0.01,-0.01,32.71,8.071706,-14.429003737386939,919.6504442437134,9.992532211606825,0.033166247903554,-0.19377509478260377,1.025081507759717
10030194,1872.0,1,212419.0,251260,0.64,-0.23,9.92,-0.03,-0.01,-0.01,32.71,8.111703,4.1941284590000505,79.80237916315794,9.943284165707023,0.033166247903554,0.04586323883035942,0.08167541991192893
10070196,1895.0,1,211099.0,249475,0.62,-0.23,9.96,-0.03,-0.01,-0.01,32.71,8.151705,-9.089780466050646,-816.8931509673234,9.98192867135405,0.033166247903554,-0.12507115421889928,-0.9255877473728052
10110193,1829.0,1,210756.0,249319,0.62,-0.23,9.95,-0.04,-0.01,-0.01,32.71,8.191702,-23.138137413789007,-1313.5163131914214,9.971950661731134,0.042426406871192854,-0.30584229483343256,-1.4834473580435699
10150196,1790.0,1,211064.0,250201,0.62,-0.24,9.95,-0.03,-0.01,-0.01,32.71,8.231705,-110.25644955737586,-1215.227014817482,9.97218631996013,0.033166247903554,-1.426861408541565,-1.3730384325346827
10190884,1666.0,1,211599.0,251644,0.6,-0.23,9.96,-0.04,-0.01,-0.01,32.69,8.272393,-192.500151348184,-712.5776385121701,9.980706387826466,0.042426406871192854,-2.4851551176489064,-0.8084095414580079
10229197,1714.0,1,212284.0,252988,0.64,-0.21,9.93,-0.03,-0.01,-0.01,32.69,8.310706,-161.45912820057112,-216.60161001806506,9.952818696228722,0.033166247903554,-2.0857261181501805,-0.25127685977108083
10269197,1787.0,1,212474.0,253080,0.6,-0.24,9.98,-0.03,-0.01,-0.01,32.69,8.350706,-91.33594714326874,-35.99110571588077,10.000899959503645,0.033166247903554,-1.1833965809377358,-0.048396057430247164
10309196,1851.0,1,212250.0,252648,0.63,-0.24,9.96,-0.03,-0.01,-0.01,32.69,8.390705,3.232311000222031,-148.09594053092997,9.982790191123923,0.033166247903554,0.03348678514733527,-0.17432405326547465
10349195,1977.0,1,212135.0,252786,0.63,-0.22,9.96,-0.03,-0.01,-0.01,32.69,8.430704,87.0616282439932,-240.9740670526653,9.982329387472646,0.033166247903554,1.1121838421390216,-0.27865457878749017
10389199,1922.0,1,212380.0,253648,0.62,-0.22,9.94,-0.04,-0.01,-0.01,32.69,8.470708,81.97504244110137,5.315087752852894,9.961746834767483,0.042426406871192854,1.04673078447234,-0.001996576375916046
10429197,1920.0,1,212949.0,255190,0.62,-0.24,9.93,-0.04,-0.01,-0.01,32.69,8.510706,43.04770830729391,617.2307058077198,9.952230905681398,0.042426406871192854,0.5458224847594468,0.6853717028696068
10469196,1828.0,1,213745.0,256913,0.61,-0.23,9.93,-0.04,-0.01,-0.01,32.69,8.550705,-31.339383865755014,1251.0606730830184,9.951376789168421,0.042426406871192854,-0.41137411475358804,1.39735649470279
10509197,1741.0,1,214340.0,257805,0.6,-0.23,9.97,-0.03,-0.01,-0.01,32.69,8.590706,-104.12310899051172,1423.1628623509205,9.990685662155526,0.033166247903554,-1.347938942791724,1.5906798585801574
10549196,1795.0,1,214187.0,254567,0.62,-0.22,9.92,-0.03,-0.01,-0.01,32.69,8.630705,-94.07624545306881,886.8676159913424,9.94179058318973,0.033166247903554,-1.2186581316606753,0.9882563711236174
10589207,1823.0,1,212275.0,251070,0.61,-0.23,9.93,-0.03,-0.01,-0.01,32.69,8.670716,4.146078099313348,-140.63952681100284,9.951376789168421,0.033166247903554,0.04524493746174975,-0.16594822150569521
10629196,1959.0,1,211412.0,250178,0.62,-0.22,9.98,-0.03,-0.01,-0.01,32.69,8.710705,55.96758451124182,-1098.5974608446854,10.001659862242867,0.033166247903554,0.7120725855132027,-1.242027794044547
10669194,1821.0,1,211349.0,250605,0.61,-0.23,9.96,-0.04,-0.01,-0.01,32.69,8.750703,1.4383280654320607,-1470.627483011333,9.981312538939957,0.042426406871192854,0.01040221073258851,-1.6599312248758111
10709196,1867.0,1,211789.0,251997,0.62,-0.24,9.96,-0.04,-0.01,-0.01,32.69,8.790705,-22.55810873169296,-1139.4040773579704,9.982164094022899,0.042426406871192854,-0.29837861442997254,-1.28786609747555
10749194,1778.0,1,212669.0,254023,0.62,-0.23,9.95,-0.04,-0.01,-0.01,32.69,8.830703,-66.8971682013838,-436.35151901052456,9.971950661731134,0.042426406871192854,-0.8689237951887803,-0.4981231770601477
10789196,1765.0,1,213436.0,255321,0.59,-0.23,9.95,-0.03,-0.01,-0.01,32.69,8.870705,-98.15922899665863,137.25556972993812,9.97013039032088,0.033166247903554,-1.2711970581010321,0.14621291425238525
10829195,1792.0,1,213547.0,255143,0.58,-0.25,10.025000000000002,-0.03,-0.01,-0.01,32.69,8.910704,-78.81232426542132,288.7282727405158,10.044875559209284,0.033166247903554,-1.0222453800765414,0.31636305938516285
10869196,1761.0,1,213247.0,254646,0.6,-0.23,9.99,-0.03,-0.01,-0.01,32.69,8.950705,-87.02334626467693,120.1948105016307,10.01064433490672,0.033166247903554,-1.1279029895705415,0.12704846679039491
10909194,1856.0,1,213121.0,254687,0.6,-0.21,9.98,-0.03,-0.01,-0.01,32.69,8.990703,-22.23389882223943,-8.542871790980197,10.000224997468807,0.033166247903554,-0.29420675324019224,-0.017563300813801738
10949197,1836.0,1,213309.0,255553,0.62,-0.22,9.96,-0.04,-0.01,-0.01,32.69,9.030706,-14.169217813727633,182.07869602483865,9.981703261467954,0.042426406871192854,-0.1904322271497413,0.19656298586792617
10989197,1778.0,1,213872.0,256969,0.61,-0.24,9.95,-0.04,-0.01,-0.01,32.69,9.070706,-93.99467096707313,630.1052227055163,9.971569585576786,0.042426406871192854,-1.217608449271956,0.6998337206136322
11029196,1719.0,1,214457.0,258158,0.6,-0.22,9.99,-0.04,-0.01,-0.01,32.69,9.110705,-135.85297118167497,963.4338875316857,10.010419571626356,0.042426406871192854,-1.756231770285828,1.0742636975655
11069194,1669.0,1,214850.0,257816,0.62,-0.23,9.94,-0.03,-0.01,-0.01,32.69,9.150703,-197.65776639762606,805.5560495067087,9.961972696208315,0.033166247903554,-2.5515221639025554,0.8969186279966082
11109197,1715.0,1,213668.0,253469,0.62,-0.23,9.95,-0.04,-0.01,-0.01,32.69,9.190706,-136.16379642977995,108.89537504232885,9.971950661731134,0.042426406871192854,-1.760231400622725,0.11435574694644782
11149197,1855.0,1,212525.0,251920,0.64,-0.24,9.96,-0.03,-0.01,-0.01,32.69,9.230706,-7.785606420054621,-765.005166471699,9.983426265566347,0.033166247903554,-0.10828933192241166,-0.8673016805297168
11189196,1872.0,1,212147.0,251845,0.62,-0.22,9.95,-0.03,-0.01,-0.01,32.69,9.270705,27.2004970783684,-1296.1651039961828,9.971725026293093,0.033166247903554,0.3419040863254225,-1.4639566464888096
11229884,1913.0,1,212345.0,252792,0.61,-0.23,9.97,-0.03,-0.01,-0.01,32.71,9.311393,62.83802747392306,-1189.2865800594527,9.991291207846961,0.033166247903554,0.8004799213682992,-1.3438993952615588
11270197,1889.0,1,213100.0,254990,0.62,-0.25,9.93,-0.04,-0.01,-0.01,32.71,9.351706,46.896302401538094,-580.1238597894419,9.952477078597067,0.042426406871192854,0.5953453397642722,-0.6596234616883533
11310197,1859.0,1,214098.0,256787,0.61,-0.22,9.94,-0.04,-0.01,-0.01,32.71,9.391706,31.158139662535316,95.76809970135155,9.961129454032811,0.042426406871192854,0.392830153106469,0.09960980421174107
11350197,1915.0,1,214464.0,256937,0.6,-0.23,10.02,-0.03,-0.01,-0.01,32.71,9.431706,78.64285806905205,455.9454591596029,10.040582652416143,0.033166247903554,1.0038529752086558,0.5041990718970378
11390195,1937.0,1,214218.0,256383,0.61,-0.25,9.96,-0.03,-0.01,-0.01,32.71,9.471704,131.55270193028576,453.87969563128553,9.98179342603322,0.033166247903554,1.6846851081131287,0.5018785880265635
11430196,2042.0,1,213980.0,256307,0.6,-0.24,9.98,-0.03,-0.01,-0.01,32.71,9.511705,223.11547369866665,364.4648340105097,10.000899959503645,0.033166247903554,2.8628945422820893,0.4014383675814328
11470195,2030.0,1,214077.0,256987,0.6,-0.24,9.96,-0.04,-0.01,-0.01,32.71,9.551704,243.96919014487594,495.01357452097113,9.980941839325586,0.042426406871192854,3.1312355391728466,0.5480845071383743
11510196,2017.0,1,214536.0,258200,0.62,-0.25,9.95,-0.03,-0.01,-0.01,32.71,9.591705,223.34189480426124,874.8089898694323,9.972432000269542,0.033166247903554,2.865808078837987,0.9747108481088097
11550195,1987.0,1,215082.0,259205,0.63,-0.23,9.98,-0.04,-0.01,-0.01,32.71,9.631704,225.67905903712713,1195.7660656384546,10.002509685074042,0.042426406871192854,2.895882189693113,1.3352437490083036
11590197,1946.0,1,215386.0,259349,0.61,-0.22,9.95,-0.03,-0.01,-0.01,32.71,9.671706,176.05590149967335,1065.5864373460413,9.971108263377747,0.033166247903554,2.257342407260809,1.1890122352963024
11630194,1932.0,1,214512.0,254550,0.58,-0.24,9.98,-0.04,-0.01,-0.01,32.71,9.711703,204.29056431966188,364.5564052567443,9.999719996079891,0.042426406871192854,2.620659784646908,0.40154123008092696
11670197,1968.0,1,212813.0,252296,0.63,-0.22,9.95,-0.03,-0.01,-0.01,32.71,9.751706,222.36737302450814,-602.4113621374103,9.972351778793204,0.033166247903554,2.853268148771074,-0.6846591392974676
11710195,1854.0,1,212378.0,252108,0.65,-0.22,9.96,-0.03,-0.01,-0.01,32.71,9.791704,159.07346527764122,-1300.3454553901356,9.983611570969696,0.033166247903554,2.038816185462,-1.4686524588843763
11750196,1873.0,1,212409.0,252808,0.63,-0.24,9.94,-0.03,-0.01,-0.01,32.71,9.831705,161.60297085443366,-1352.7413131597798,9.962835941638303,0.033166247903554,2.07136530206038,-1.5275090226524288
11790194,1741.0,1,213038.0,254563,0.62,-0.23,9.96,-0.04,-0.01,-0.01,32.71,9.871703,70.37693412012231,-808.3020406804752,9.98192867135405,0.042426406871192854,0.897488899606094,-0.915937304533234
11830196,1610.0,1,213909.0,256508,0.59,-0.23,9.97,-0.04,-0.01,-0.01,32.71,9.911705,-59.324244468298104,-76.50138590983144,9.990090089683877,0.042426406871192854,-0.7714770926235269,-0.09390148459548928
11870194,1588.0,1,214498.0,257140,0.61,-0.25,10.0,-0.03,-0.01,-0.01,32.71,9.951703,-60.19845524826007,404.66675880508234,10.021706441519827,0.033166247903554,-0.7827262429988444,0.44659741738023295
11910197,1555.0,1,214430.0,256712,0.62,-0.24,9.98,-0.03,-0.01,-0.01,32.71,9.991706,-77.01363352307965,495.8212279668797,10.002119775327628,0.033166247903554,-0.9991002266386333,0.5489917488281773
11950194,1520.0,1,214148.0,256398,0.62,-0.22,9.95,-0.03,-0.01,-0.01,32.71,10.031703,-99.62515751089394,418.19370791939804,9.971725026293093,0.033166247903554,-1.2900603010100435,0.46179231592801806
11990196,1488.0,1,214129.0,256777,0.61,-0.21,9.96,-0.04,-0.01,-0.01,32.71,10.071705,-116.77558384094367,508.54373110691216,9.980871705417318,0.042426406871192854,-1.510748182250684,0.5632830086572012
12030194,1428.375,1,214417.0,257811,0.61,-0.23,9.96,-0.04,-0.01,-0.01,32.71,10.111703,-160.34318031279744,877.6851701278277,9.981312538939957,0.042426406871192854,-2.0713663483002476,0.9779416776818441
12070196,1428.375,1,215029.0,259197,0.63,-0.24,9.98,-0.04,-0.01,-0.01,32.71,10.151705,-153.94063663809064,1269.3620181006904,10.002744623352132,0.042426406871192854,-1.988979836680649,1.4179144992078292
12110194,1428.375,1,215565.0,260024,0.58,-0.23,10.025000000000002,-0.04,-0.01,-0.01,32.71,10.191703,-135.8587905777015,1255.7309641069548,10.044397692246163,0.042426406871192854,-1.7563066529828808,1.4026026590594107
12150197,1428.375,1,215050.0,255446,0.61,-0.22,10.0,-0.03,-0.01,-0.01,32.71,10.231706,-132.25240668015988,616.3392068779405,10.02100294381755,0.033166247903554,-1.7099005050555645,0.6843702770729266
12190195,1428.375,1,212958.0,252309,0.6,-0.24,9.96,-0.03,-0.01,-0.01,32.71,10.271704,-120.39083737925543,-427.29122376777775,9.980941839325586,0.033166247903554,-1.5572684627477253,-0.487945696102463
12230884,1428.375,1,212211.0,251682,0.62,-0.23,9.96,-0.03,-0.01,-0.01,32.69,10.312393,-114.33741602504648,-1339.0452756145637,9.98192867135405,0.033166247903554,-1.4793743796964762,-1.5121241861126085
12269195,1428.375,1,212126.0,252178,0.6,-0.26,9.97,-0.04,-0.01,-0.01,32.69,10.350704,-110.6805485708219,-1660.894816860864,9.99142132031274,0.042426406871192854,-1.4323186205614005,-1.8736595985370614
12309196,1428.375,1,212551.0,253496,0.63,-0.22,9.96,-0.04,-0.01,-0.01,32.69,10.390705,-105.2511107412553,-1341.4794708563727,9.982329387472646,0.042426406871192854,-1.3624538190762376,-1.514858531413401
12349197,1428.375,1,213397.0,255445,0.62,-0.22,9.96,-0.03,-0.01,-0.01,32.69,10.430706,-104.21190879929689,-732.887032895621,9.981703261467954,0.033166247903554,-1.3490815990311809,-0.8312231991878873
12389197,1428.375,1,213950.0,256200,0.61,-0.23,9.98,-0.04,-0.01,-0.01,32.69,10.470706,-106.03035245772882,-276.23704036848096,10.00126991936524,0.042426406871192854,-1.3724809286112087,-0.3182656764192549
12429209,1428.375,1,213932.0,255977,0.62,-0.25,9.96,-0.03,-0.01,-0.01,32.69,10.510718,-103.14255163777038,-150.8296091120024,9.98240952876609,0.033166247903554,-1.3353213483105735,-0.17739479866428032
12469196,1428.375,1,213698.0,255827,0.64,-0.24,9.97,-0.03,-0.01,-0.01,32.69,10.550705,-112.42690929563018,-176.1066496812935,9.993402823863352,0.033166247903554,-1.454790402942958,-0.20578864148816953
12509194,1445.0,1,213825.0,256404,0.62,-0.23,9.96,-0.03,-0.01,-0.01,32.69,10.590703,-95.97650975268651,-34.06408046438875,9.98192867135405,0.033166247903554,-1.2431103110997999,-0.046231419051852365
12549196,1489.0,1,214261.0,257743,0.59,-0.22,9.98,-0.04,-0.01,-0.01,32.69,10.630705,-58.82511857057264,390.7976619299929,9.999844998798732,0.042426406871192854,-0.7650544513012896,0.43101818231507255
12589197,1488.0,1,214946.0,259256,0.62,-0.24,9.97,-0.04,-0.01,-0.01,32.69,10.670706,-74.43187176593369,856.5490121183776,9.99214191252306,0.042426406871192854,-0.9658786891043531,0.9541993116886386
12629197,1488.0,1,215503.0,260116,0.6,-0.23,9.97,-0.03,-0.01,-0.01,32.69,10.710706,-68.77891927355404,941.7018190072483,9.990685662155526,0.033166247903554,-0.8931377505242188,1.049851941915967
12669195,1560.0,1,215348.0,256657,0.64,-0.24,9.904999999999998,-0.03,-0.01,-0.01,32.69,10.750704,-29.056966276274135,415.7044189190701,9.92855603801479,0.033166247903554,-0.38200447156015,0.4589960834962667
12709196,1584.0,1,213357.0,253261,0.59,-0.24,9.96,-0.03,-0.01,-0.01,32.69,10.790705,8.993996531994387,-518.042510908527,9.980345685395873,0.033166247903554,0.10762687635625211,-0.5898871309028082
12749195,1664.0,1,212702.0,252786,0.61,-0.24,9.98,-0.03,-0.01,-0.01,32.69,10.830704,51.88498441878373,-1330.3826261340237,10.001504886765792,0.033166247903554,0.6595385932369415,-1.5023933828916127
12789197,1622.0,1,212801.0,253571,0.62,-0.23,9.97,-0.04,-0.01,-0.01,32.69,10.870706,16.64729772751204,-1547.412164774223,9.991906724944943,0.042426406871192854,0.20610785827656314,-1.746183892757611
12829197,1650.0,1,213460.0,255457,0.62,-0.24,9.95,-0.03,-0.01,-0.01,32.69,10.910706,18.371973706546324,-1089.6451118234731,9.97218631996013,0.033166247903554,0.22830060616020134,-1.231971569688848
12869197,1749.0,1,214464.0,257799,0.61,-0.23,9.97,-0.04,-0.01,-0.01,32.69,10.950706,108.38378115073405,-298.6727320420181,9.991291207846961,0.042426406871192854,1.3865525754825714,-0.34346781593702674
12909197,1762.0,1,215197.0,258842,0.63,-0.24,9.92,-0.04,-0.01,-0.01,32.69,10.990706,107.81994163697588,349.31960942079434,9.94288187599551,0.042426406871192854,1.379297213705761,0.38442565102729154
12949197,1766.0,1,215340.0,258868,0.62,-0.23,9.97,-0.03,-0.01,-0.01,32.69,11.030706,93.22004672719954,595.8878366994988,9.991906724944943,0.033166247903554,1.191429004952888,0.6613971371284774
12989195,1774.0,1,215195.0,258673,0.64,-0.22,9.94,-0.03,-0.01,-0.01,32.69,11.070704,92.19012477899055,542.4072515186156,9.96301159288696,0.033166247903554,1.1781761978086578,0.601322092916203
13029197,1738.0,1,215205.0,258953,0.62,-0.23,9.96,-0.03,-0.01,-0.01,32.69,11.110706,37.626758603961825,493.52634396338004,9.98192867135405,0.033166247903554,0.4760669065996024,0.5464138926303441
13069195,1777.0,1,215423.0,259767,0.61,-0.23,9.95,-0.04,-0.01,-0.01,32.69,11.150704,64.93021518679724,652.9728957694517,9.97133391277215,0.042426406871192854,0.827401728711532,0.7255211072736948
13109197,1830.0,1,215807.0,260621,0.62,-0.24,9.99,-0.04,-0.01,-0.01,32.69,11.190706,107.20900839571794,928.8001071777228,10.012097682304143,0.042426406871192854,1.3714358602910963,1.0353593759511164
13149197,1828.0,1,216152.0,261290,0.63,-0.23,9.97,-0.04,-0.01,-0.01,32.69,11.230706,83.57441549208066,1006.4640633023847,9.992532211606825,0.042426406871192854,1.067311162075873,1.1225997377031218
13189197,1851.0,1,216278.0,259603,0.61,-0.23,9.95,-0.04,-0.01,-0.01,32.69,11.270706,112.37610810680538,627.1136433529639,9.97133391277215,0.042426406871192854,1.4379249530666522,0.6964732625845874
13229197,1904.0,1,214734.0,255664,0.61,-0.23,9.99,-0.03,-0.01,-0.01,32.69,11.310706,128.00918745233628,-161.50345904712364,10.011248673367374,0.033166247903554,1.6390879499297182,-0.18938479474601355
13269884,1825.0,1,213915.0,254820,0.6,-0.22,9.98,-0.03,-0.01,-0.01,32.71,11.351393,72.06790765019774,-993.4509779049002,10.000439990320427,0.033166247903554,0.9192479718533243,-1.1239161542782967
13310195,1825.0,1,213818.0,255137,0.59,-0.21,9.96,-0.03,-0.01,-0.01,32.71,11.391704,28.144208369440136,-1425.5660211114543,9.979669333199373,0.033166247903554,0.3540475538592052,-1.6093134295254234
13350196,1835.0,1,214032.0,256206,0.61,-0.23,9.96,-0.03,-0.01,-0.01,32.71,11.431705,59.59804234285781,-1238.6965278005011,9.981312538939957,0.033166247903554,0.7587885114834524,-1.3994018693842742
13390195,1894.0,1,214757.0,258392,0.62,-0.22,9.97,-0.04,-0.01,-0.01,32.71,11.471704,94.96657769172796,-570.0193358702437,9.991681540161297,0.042426406871192854,1.2139029779413968,-0.6482729927445916
13430196,1853.0,1,215719.0,260141,0.6,-0.21,9.98,-0.04,-0.01,-0.01,32.71,11.511705,45.66975812505807,207.00731675728872,10.000224997468807,0.042426406871192854,0.5795624401199677,0.2245654467158728
13470194,1814.0,1,216205.0,260725,0.63,-0.23,9.97,-0.04,-0.01,-0.01,32.71,11.551703,25.13649777335588,746.7896508908892,9.992532211606825,0.042426406871192854,0.31534500116103364,0.830905999617526
13510176,1870.0,1,216390.0,260871,0.63,-0.23,9.95,-0.03,-0.01,-0.01,32.71,11.591685,35.29680077115845,939.4048374365475,9.9725774000506,0.033166247903554,0.4460855261017614,1.0472717295090177
13550195,1867.0,1,216367.0,260735,0.59,-0.22,10.0,-0.03,-0.01,-0.01,32.71,11.631704,82.37514270628074,920.335628249553,10.019805387331632,0.033166247903554,1.0518791859235357,1.0258511788339046
13590197,1967.0,1,216165.0,260594,0.63,-0.23,9.95,-0.03,-0.01,-0.01,32.71,11.671706,125.74843712075692,896.5097390034396,9.9725774000506,0.033166247903554,1.609997116204136,0.9990874225097003
13630194,1826.0,1,216181.0,261027,0.61,-0.22,9.96,-0.04,-0.01,-0.01,32.71,11.711703,30.917986530306898,942.2125846427361,9.981087115139314,0.042426406871192854,0.389739915878259,1.0504256878469487
13670197,1861.0,1,216525.0,261955,0.62,-0.22,9.95,-0.04,-0.01,-0.01,32.71,11.751706,29.59161086806452,936.7351046622541,9.971725026293093,0.042426406871192854,0.3726724081092802,1.044272803564057
13710194,1805.0,1,216841.0,260056,0.62,-0.23,9.96,-0.04,-0.01,-0.01,32.71,11.791703,0.44947772618320625,692.5014206035293,9.98192867135405,0.042426406871192854,-0.0023220960591649143,0.7699237230831797
13750196,1669.0,1,215415.0,256407,0.62,-0.24,9.99,-0.03,-0.01,-0.01,32.71,11.831705,-159.30945029338295,153.8558236749333,10.012097682304143,0.033166247903554,-2.0580645397405553,0.16486007352163426
13790195,1693.0,1,214710.0,255825,0.6,-0.22,9.97,-0.03,-0.01,-0.01,32.71,11.871704,-101.38417148630089,-515.0222962872243,9.990460449849147,0.033166247903554,-1.312694902613216,-0.5864945067142051
13830197,1787.0,1,214503.0,255775,0.58,-0.25,9.96,-0.03,-0.01,-0.01,32.71,11.911706,-52.1833553149125,-1027.330609599625,9.980005010018782,0.033166247903554,-0.679589715184183,-1.16197333643276
13870248,1681.0,1,214369.0,256080,0.62,-0.23,9.98,-0.03,-0.01,-0.01,32.71,11.951757,-94.8761559164621,-1163.315494847336,10.001884822372231,0.033166247903554,-1.228951202045706,-1.3147259281597747
13910197,1766.0,1,214641.0,257260,0.63,-0.24,10.0,-0.03,-0.01,-0.01,32.71,11.991706,-73.96927059383911,-896.4211298319567,10.022699237231455,0.033166247903554,-0.959926039848625,-1.01492197642521
13950194,1685.0,1,215165.0,258506,0.62,-0.22,9.96,-0.04,-0.01,-0.01,32.71,12.031703,-94.04615092363524,-377.67471757908453,9.981703261467954,0.042426406871192854,-1.218270881932312,-0.43221119370569805
13990196,1712.0,1,215725.0,259459,0.61,-0.22,9.98,-0.04,-0.01,-0.01,32.71,12.071705,-97.39718984130778,179.5980551550807,10.001044945404455,0.042426406871192854,-1.261391307306247,0.1937764679302213
14030195,1683.0,1,216099.0,260101,0.6,-0.26,9.98,-0.03,-0.01,-0.01,32.71,12.111704,-126.68342772481304,613.4383090918622,10.001399902013718,0.033166247903554,-1.6382401193206726,0.6811116821610624
14070232,1663.0,1,216315.0,260402,0.6,-0.22,9.96,-0.03,-0.01,-0.01,32.71,12.151741,-99.83269944798982,851.8588932386687,9.980480950335009,0.033166247903554,-1.292730904613991,0.9489308745893367
14110194,1782.0,1,216211.0,260185,0.61,-0.23,9.95,-0.03,-0.01,-0.01,32.71,12.191703,-55.85404978161217,878.7030180640986,9.97133391277215,0.033166247903554,-0.7268233972483037,0.9790850320330733
14150196,1611.0,1,215959.0,260056,0.6,-0.24,9.97,-0.03,-0.01,-0.01,32.71,12.231705,-126.14023652641768,689.7679809757656,9.990920878477619,0.033166247903554,-1.6312504554851797,0.7668532348689224
14190194,1765.0,1,215936.0,260244,0.62,-0.23,9.96,-0.04,-0.01,-0.01,32.71,12.271703,-68.56306817710143,298.5028803174584,9.98192867135405,0.042426406871192854,-0.8903602265010327,0.3273429314332413
14230196,1723.0,1,215781.0,257135,0.61,-0.22,9.92,-0.04,-0.01,-0.01,32.71,12.311705,-24.843125180112636,-217.03032619750775,9.941171963103747,0.042426406871192854,-0.3277816991636854,-0.25175843908341305
14270884,1712.0,1,214373.0,254911,0.61,-0.24,9.94,-0.04,-0.01,-0.01,32.71,12.352393,-88.78882799895428,-699.623037918304,9.96159123835143,0.042426406871192854,-1.1506208168600038,-0.7938575652446465
14309196,1702.0,1,214174.0,255133,0.61,-0.24,9.97,-0.03,-0.01,-0.01,32.71,12.390705,-73.93337001761182,-984.8128128437584,9.991526409913552,0.033166247903554,-0.9594640791981753,-1.1142128545442744
14349197,1702.0,1,214457.0,255964,0.61,-0.22,9.96,-0.03,-0.01,-0.01,32.71,12.430706,-64.64830799842625,-1012.1913030508234,9.981087115139314,0.033166247903554,-0.8399859610005114,-1.1449672676474931
14389196,1773.0,1,214740.0,256797,0.61,-0.23,9.97,-0.03,-0.01,-0.01,32.71,12.470705,-22.807167597066616,-862.838871633395,9.991291207846961,0.033166247903554,-0.30158344865658326,-0.977198835603113
14429195,1777.0,1,214946.0,257581,0.63,-0.23,9.99,-0.03,-0.01,-0.01,32.71,12.510704,27.52845099348821,-671.6100876991619,10.012487203487453,0.033166247903554,0.3461241245495192,-0.7623904596167007
14469197,1808.0,1,215072.0,257824,0.62,-0.22,9.96,-0.03,-0.01,-0.01,32.71,12.550706,9.182326143691123,-493.8163813081586,9.981703261467954,0.033166247903554,0.1100502600191645,-0.5626737823219732
14509197,1826.0,1,215101.0,258069,0.62,-0.24,9.95,-0.04,-0.01,-0.01,32.71,12.590706,76.27682061390158,-260.199946206737,9.97218631996013,0.042426406871192854,0.9734073301346162,-0.30025111772389584
14549197,1929.0,1,215534.0,259203,0.6,-0.22,9.98,-0.04,-0.01,-0.01,32.71,12.630706,139.17099011614863,127.46587574628322,10.000439990320427,0.042426406871192854,1.782715550392741,0.13521609555820746
14589195,1841.0,1,216168.0,260458,0.62,-0.24,9.98,-0.04,-0.01,-0.01,32.71,12.670704,81.77367796589513,643.6000044357834,10.002119775327628,0.042426406871192854,1.0441396710775355,0.7149924853567408
14629197,1845.0,1,216565.0,260972,0.62,-0.23,9.98,-0.03,-0.01,-0.01,32.71,12.710706,65.93377780964623,1075.2022372761644,10.001884822372231,0.033166247903554,0.8403153499047726,1.1998137178153272
14669195,1838.0,1,216622.0,261146,0.64,-0.22,9.91,-0.03,-0.01,-0.01,32.71,12.750704,72.23386687283535,1129.0229137684005,9.933081092994257,0.033166247903554,0.9213834983126326,1.260270788523696
14709197,1842.0,1,216579.0,260982,0.6,-0.24,10.0,-0.03,-0.01,-0.01,32.71,12.790706,63.03710828406057,650.6536542400617,10.020858246677276,0.033166247903554,0.8030416490676239,0.722915890129084
14749195,1834.0,1,215701.0,256493,0.61,-0.23,9.97,-0.03,-0.01,-0.01,32.71,12.830704,74.93710259336798,-211.36330234880626,9.991291207846961,0.033166247903554,0.9561681358591112,-0.24539263909989964
14789197,1846.0,1,214247.0,254577,0.62,-0.22,9.95,-0.04,-0.01,-0.01,32.71,12.870706,52.52206957333706,-1047.8252130752041,9.971725026293093,0.042426406871192854,0.667736463670162,-1.1849950405847285
14829197,1814.0,1,214054.0,254966,0.63,-0.23,9.98,-0.04,-0.01,-0.01,32.71,12.910706,70.19398390259266,-1439.5361906500389,10.002509685074042,0.042426406871192854,0.8951347367939201,-1.6250062000858965
14869197,1853.0,1,214463.0,256207,0.64,-0.25,9.93,-0.04,-0.01,-0.01,32.71,12.950706,44.240869964045615,-1239.8304681065003,9.953743014564923,0.042426406871192854,0.5611758242589286,-1.4006756309518895
14909197,1680.0,1,215091.0,257980,0.62,-0.23,9.97,-0.03,-0.01,-0.01,32.71,12.990706,-59.33545465492033,-664.6073255200602,9.991906724944943,0.033166247903554,-0.7716213428180331,-0.7545242172019121
14949197,1793.0,1,215907.0,259646,0.62,-0.22,9.96,-0.03,-0.01,-0.01,32.71,13.030706,-12.650194520590473,-110.63771817385634,9.981703261467954,0.033166247903554,-0.17088577240475025,-0.13224701995322927
14989194,1890.0,1,216215.0,259729,0.62,-0.24,9.96,-0.03,-0.01,-0.01,32.71,13.070703,132.07732992111144,154.41460883004262,9.982164094022899,0.033166247903554,1.6914359047118113,0.16548776005095733
15029197,1951.0,1,216007.0,259264,0.64,-0.23,9.94,-0.03,-0.01,-0.01,32.71,13.110706,167.69808564676276,177.868989160237,9.96323742565638,0.033166247903554,2.1497958870237857,0.1918341983059296
15069195,1854.0,1,215848.0,259467,0.62,-0.21,9.98,-0.04,-0.01,-0.01,32.71,13.150704,66.2021996432244,231.8929081015932,10.001444895613833,0.042426406871192854,0.8437693425106184,0.25251957240842554
15109197,1806.0,1,216219.0,260676,0.62,-0.23,9.97,-0.04,-0.01,-0.01,32.71,13.190706,42.60521405627642,526.5048852477263,9.991906724944943,0.042426406871192854,0.5401285669034741,0.5834588748236503
15149194,1872.0,1,216916.0,261787,0.6,-0.23,9.96,-0.04,-0.01,-0.01,32.71,13.230703,68.6110176050667,975.3892446459822,9.980706387826466,0.042426406871192854,0.8747654776540318,1.087693217919208
15189197,1725.0,1,217206.0,262143,0.62,-0.22,9.96,-0.03,-0.01,-0.01,32.71,13.270706,-42.97477191742843,1226.106996023545,9.981703261467954,0.033166247903554,-0.5610957069240041,1.3693258879407957
15229197,1722.0,1,217361.0,261901,0.61,-0.23,9.95,-0.03,-0.01,-0.01,32.71,13.310706,-71.34387337225928,944.7385287807734,9.97133391277215,0.033166247903554,-0.9261430108384162,1.0532630952024793
15269197,1798.0,1,216223.0,257089,0.61,-0.24,10.0,-0.03,-0.01,-0.01,32.71,13.350706,4.1005173497081495,123.80497954206652,10.021461969193917,0.033166247903554,0.04465867184335579,0.13110379011912113
15309881,1820.0,1,214797.0,255284,0.61,-0.23,9.95,-0.03,-0.01,-0.01,32.81,13.39139,45.31809740776067,-849.2472317627122,9.97133391277215,0.033166247903554,0.575037348024738,-0.9619312695623352
15350197,1861.0,1,214439.0,255269,0.62,-0.23,9.96,-0.03,-0.01,-0.01,32.81,13.431706,45.04508913007419,-1434.5508362886035,9.98192867135405,0.033166247903554,0.5715243380735964,-1.619406123297953
15390194,1775.0,1,214621.0,256272,0.6,-0.23,9.96,-0.03,-0.01,-0.01,32.81,13.471703,2.5249851022533125,-1309.5974485545414,9.980706387826466,0.033166247903554,0.024385072410559382,-1.4790452752031107
15430197,1797.0,1,215354.0,258644,0.61,-0.23,9.98,-0.04,-0.01,-0.01,32.81,13.511706,-20.34497665299961,-580.1025775906963,10.00126991936524,0.042426406871192854,-0.2699005218185503,-0.6595995552739742
15470194,1623.0,1,216598.0,260859,0.63,-0.21,9.97,-0.04,-0.01,-0.01,32.81,13.551703,-167.1060043487615,322.15509624381644,9.99209187307643,0.042426406871192854,-2.158388867681307,0.3539115995337939
15510225,1529.0,1,217105.0,261260,0.65,-0.23,9.99,-0.04,-0.01,-0.01,32.81,13.591734,-278.8726244396461,960.1517656940578,10.013765525515364,0.042426406871192854,-3.5965769398966194,1.0705768715175297
15550195,1683.0,1,217117.0,261136,0.61,-0.23,10.01,-0.03,-0.01,-0.01,32.81,13.631704,-125.98796189794874,1174.8460532024071,10.031206308316063,0.033166247903554,-1.6292910193477446,1.3117441805618064
15590197,1787.0,1,216958.0,260773,0.58,-0.24,9.99,-0.03,-0.01,-0.01,32.81,13.671706,-19.60202157174339,1120.9575809231703,10.009700295213639,0.033166247903554,-0.26034034065546613,1.2512109544619494
15630194,1795.0,1,216690.0,260619,0.63,-0.22,9.95,-0.03,-0.01,-0.01,32.81,13.711703,-21.04806850052291,1054.808648492328,9.972351778793204,0.033166247903554,-0.27894775173350683,1.1769054840386737
15670197,1783.0,1,216780.0,260928,0.62,-0.23,9.93,-0.03,-0.01,-0.01,32.81,13.751706,-32.91196589117184,1073.956240776658,9.951994774918242,0.033166247903554,-0.43160975138369784,1.1984140828909333
15710207,1747.0,1,216938.0,261678,0.63,-0.24,9.99,-0.03,-0.01,-0.01,32.81,13.791716,-70.42281282023268,1036.2571336126136,10.012721907653283,0.033166247903554,-0.9142910079896628,1.156066462310806
15750197,1757.0,1,217186.0,260110,0.62,-0.25,10.0,-0.04,-0.01,-0.01,32.81,13.831706,-67.44758679216434,719.5775582369607,10.022320090677606,0.042426406871192854,-0.8760064595061089,0.8003385018281111
15790195,1745.0,1,215623.0,256016,0.61,-0.23,9.96,-0.03,-0.01,-0.01,32.81,13.871704,-77.55742869652279,66.2060669339555,9.981312538939957,0.033166247903554,-1.0060976622910511,0.06640260538436484
15830197,1743.0,1,214690.0,254972,0.61,-0.22,10.025000000000002,-0.03,-0.01,-0.01,32.81,13.911706,-83.99904979291371,-716.295188621499,10.045950676765242,0.033166247903554,-1.0889870135036632,-0.812585486549557
15870195,1739.0,1,214259.0,254587,0.63,-0.23,10.0,-0.03,-0.01,-0.01,32.81,13.951704,-90.70460977665519,-1286.7008191352677,10.022464766712826,0.033166247903554,-1.1752726717645936,-1.453325361705107
15910217,1689.0,1,214131.0,254871,0.62,-0.23,9.95,-0.03,-0.01,-0.01,32.81,13.991726,-139.36427959872188,-1410.4931851331667,9.971950661731134,0.033166247903554,-1.8014145080223694,-1.59238202750846
15950195,1719.0,1,214496.0,256209,0.62,-0.25,9.98,-0.04,-0.01,-0.01,32.81,14.031704,-113.661563748703,-1103.1031242111646,10.00236472040487,0.042426406871192854,-1.4706776625404383,-1.2470890312212042
15990197,1784.0,1,215093.0,257279,0.62,-0.23,9.97,-0.04,-0.01,-0.01,32.81,14.071706,-46.84204484644008,-576.939822414632,9.991906724944943,0.042426406871192854,-0.6108589170307698,-0.656046814472952
16030197,1815.0,1,215387.0,257754,0.6,-0.22,9.99,-0.03,-0.01,-0.01,32.81,14.111706,-17.5501551212141,-66.96118886100798,10.010419571626356,0.033166247903554,-0.23393737837092743,-0.08318492722119293
16070196,1811.0,1,215560.0,258130,0.63,-0.23,9.95,-0.04,-0.01,-0.01,32.81,14.151705,-17.89920566222802,307.0692979513011,9.9725774000506,0.042426406871192854,-0.23842888329680165,0.3369656368758486
16110197,1853.0,1,215730.0,258494,0.63,-0.24,9.96,-0.03,-0.01,-0.01,32.81,14.191706,18.26692813979938,544.3253939365048,9.982790191123923,0.033166247903554,0.2269489031113688,0.6034767531573053
16149197,1965.0,1,215737.0,258701,0.61,-0.23,9.98,-0.03,-0.01,-0.01,32.81,14.230706,146.0296881472162,667.9326579203183,10.00126991936524,0.033166247903554,1.870971755073413,0.7423254928199409
16189197,2002.0,1,215730.0,258874,0.63,-0.23,9.97,-0.03,-0.01,-0.01,32.81,14.270706,164.67170255162134,648.651228076977,9.992532211606825,0.033166247903554,2.1108530607501885,0.7206665534796763
16229197,1911.0,1,215820.0,259153,0.62,-0.22,9.95,-0.03,-0.01,-0.01,32.81,14.310706,103.84730502743264,428.78632676376395,9.971725026293093,0.033166247903554,1.3281782071325547,0.4736910646654668
16269197,2007.0,1,215354.0,255633,0.64,-0.23,9.96,-0.04,-0.01,-0.01,32.81,14.350706,175.4703335705685,14.709931111457163,9.983190872661908,0.042426406871192854,2.2498074490557065,0.008556704374970131
16309884,2000.0,1,214145.0,253918,0.61,-0.21,9.97,-0.04,-0.01,-0.01,32.83,14.391393,199.3137086083864,-471.1218501420793,9.990850814620345,0.042426406871192854,2.5566187094558295,-0.5371808869363334
16350197,1955.0,1,213864.0,253864,0.62,-0.22,9.96,-0.03,-0.01,-0.01,32.83,14.431706,140.51788707962004,-847.601586278045,9.981703261467954,0.033166247903554,1.8000471217133411,-0.9600827066695632
16390196,1951.0,1,213954.0,254213,0.6,-0.26,10.025000000000002,-0.03,-0.01,-0.01,32.83,14.471705,153.67090356120326,-993.061849032511,10.046304046762671,0.033166247903554,1.9692972198381855,-1.1234790436121738
16430194,1931.0,1,214041.0,254702,0.62,-0.23,9.98,-0.03,-0.01,-0.01,32.83,14.511703,138.3409339730356,-910.2624346516641,10.001884822372231,0.033166247903554,1.7720345720888118,-1.0304699925171639
16470196,1894.0,1,214181.0,255377,0.62,-0.23,9.94,-0.03,-0.01,-0.01,32.83,14.551705,104.22968880295814,-683.6029788055497,9.961972696208315,0.033166247903554,1.3330986367252387,-0.7758621421162927
16510194,1904.0,1,214390.0,255832,0.62,-0.21,9.97,-0.04,-0.01,-0.01,32.83,14.591703,130.30417941897662,-385.30383172884325,9.991466358848434,0.042426406871192854,1.6686193974188535,-0.4407810208363681
16550196,1883.0,1,214589.0,256358,0.62,-0.23,9.97,-0.04,-0.01,-0.01,32.83,14.631705,110.43383822867311,-29.97052587138979,9.991906724944943,0.042426406871192854,1.4129322551620234,-0.04163310599435657
16590197,1831.0,1,215034.0,257337,0.6,-0.23,9.95,-0.04,-0.01,-0.01,32.83,14.671706,68.18208098670296,382.601763427023,9.97072715502736,0.042426406871192854,0.8692460164073244,0.4218116831105495
16630196,1793.0,1,215402.0,258116,0.63,-0.22,9.93,-0.04,-0.01,-0.01,32.83,14.711705,49.146097344857196,788.9502241295972,9.952396696273718,0.042426406871192854,0.6242952019841439,0.87826521030611
16670194,1776.0,1,215560.0,258468,0.62,-0.24,9.99,-0.03,-0.01,-0.01,32.83,14.751703,16.116946586245298,1038.9417128321459,10.012097682304143,0.033166247903554,0.1992834174476701,1.1590820653517837
16710197,1732.0,1,215563.0,258638,0.63,-0.23,9.96,-0.03,-0.01,-0.01,32.83,14.791706,21.446238632622705,973.6603018215383,9.982554783220577,0.033166247903554,0.26785956521181836,1.0857510866529239
16750194,1763.0,1,215597.0,258232,0.64,-0.23,9.92,-0.03,-0.01,-0.01,32.83,14.831703,9.051466877215528,556.428730091137,9.943284165707023,0.033166247903554,0.1083663920089213,0.6170724992050777
16790196,1664.0,1,214541.0,254184,0.64,-0.22,9.95,-0.03,-0.01,-0.01,32.83,14.871705,-25.532000049297682,-56.432218547756186,9.972988518994693,0.033166247903554,-0.33664598815538244,-0.07135767523920779
16830197,1680.0,1,213621.0,253228,0.6,-0.23,9.95,-0.04,-0.01,-0.01,32.83,14.911706,-49.75857033156963,-589.4151851454209,9.97072715502736,0.042426406871192854,-0.6483881199503397,-0.6700604600806331
16870197,1599.0,1,213625.0,253662,0.6,-0.22,9.96,-0.03,-0.01,-0.01,32.83,14.951706,-93.81008642623122,-829.2893746441471,9.980480950335009,0.033166247903554,-1.2152332563499701,-0.939512495632976
16910195,1597.0,1,213902.0,254383,0.62,-0.22,9.98,-0.03,-0.01,-0.01,32.83,14.991704,-89.93633059465661,-766.8211188715583,10.001659862242867,0.033166247903554,-1.1653866256912382,-0.8693415501448295
16950196,1579.0,1,214148.0,255235,0.63,-0.24,9.95,-0.03,-0.01,-0.01,32.83,15.031705,-131.33287408413267,-571.4863989607658,9.97281304346973,0.033166247903554,-1.6980681636056385,-0.6499209530226481
16990195,1468.0,1,214331.0,255668,0.62,-0.24,9.94,-0.03,-0.01,-0.01,32.83,15.071704,-179.89352875279593,-419.3798814981163,9.96220859046828,0.033166247903554,-2.3229358948356555,-0.4790588405263532
17030196,1591.0,1,214332.0,255677,0.64,-0.22,9.96,-0.03,-0.01,-0.01,32.83,15.111705,-124.70752092033472,-330.2060634633808,9.982965491275626,0.033166247903554,-1.6128145889100813,-0.3788893857065328
17070195,1515.0,1,214372.0,255957,0.64,-0.24,9.96,-0.04,-0.01,-0.01,32.83,15.151704,-123.44147496792928,-163.4667507965994,9.983426265566347,0.042426406871192854,-1.5965233904633056,-0.1915901714869829
17110197,1535.0,1,214743.0,257072,0.63,-0.25,9.95,-0.04,-0.01,-0.01,32.83,15.191706,-158.4654971932192,217.40011179223197,9.973058708340185,0.042426406871192854,-2.047204738476299,0.23623973223652742
17149198,1535.0,1,215295.0,258360,0.6,-0.22,9.92,-0.04,-0.01,-0.01,32.83,15.230707,-126.30059246481792,757.1014168185767,9.940563364316935,0.042426406871192854,-1.6333138801259943,0.842489264683105
17189197,1580.0,1,215828.0,259365,0.63,-0.23,9.95,-0.04,-0.01,-0.01,32.83,15.270706,-76.13978215739824,1175.2866284837803,9.9725774000506,0.042426406871192854,-0.987855701126543,1.3122390812704994
17229197,1601.0,1,215967.0,259635,0.62,-0.23,9.96,-0.03,-0.01,-0.01,32.83,15.310706,-91.99790152484802,1147.4349419418143,9.98192867135405,0.033166247903554,-1.1919144630671572,1.280953124044416
17269197,1535.0,1,215911.0,258301,0.63,-0.22,9.95,-0.03,-0.01,-0.01,32.83,15.350706,-98.36516277847055,573.8147986741678,9.972351778793204,0.033166247903554,-1.2738469683195506,0.6366023685075654
17309884,1661.0,1,214306.0,253751,0.62,-0.24,9.97,-0.03,-0.01,-0.01,32.67,15.391393,-44.06301984950497,-289.4797964746058,9.99214191252306,0.033166247903554,-0.5750990398891844,-0.3331413393514584
17350196,1616.0,1,213361.0,252865,0.6,-0.23,9.96,-0.03,-0.01,-0.01,32.67,15.431705,-29.557852834045338,-974.3139576283262,9.980706387826466,0.033166247903554,-0.3884497686652584,-1.102419431022222
17390194,1675.0,1,213593.0,253916,0.62,-0.25,9.95,-0.04,-0.01,-0.01,32.67,15.471703,-14.678028803074126,-1127.8357143711328,9.972432000269542,0.042426406871192854,-0.19697949408234744,-1.2748712898168946
17430197,1657.0,1,214165.0,255268,0.62,-0.23,9.96,-0.04,-0.01,-0.01,32.67,15.511706,-27.944285694120296,-761.034742550933,9.98192867135405,0.042426406871192854,-0.3676867446740906,-0.8628416808536707
17470197,1619.0,1,214829.0,256819,0.61,-0.2,9.96,-0.03,-0.01,-0.01,32.67,15.551706,-47.740000649123786,-211.3457632946917,9.980666310422366,0.033166247903554,-0.6224136130907032,-0.24537293738108318
17510196,1712.0,1,215194.0,257422,0.62,-0.23,9.93,-0.03,-0.01,-0.01,32.67,15.591705,-11.230307824283468,147.20441575707486,9.951994774918242,0.033166247903554,-0.15261498539459098,0.1573885093383379
17550194,1665.0,1,215208.0,257184,0.62,-0.24,9.96,-0.03,-0.01,-0.01,32.67,15.631703,1.8349710447076157,202.66777438858412,9.982164094022899,0.033166247903554,0.015506124595763233,0.21969081419681513
17590197,1791.0,1,215033.0,257048,0.62,-0.24,9.99,-0.03,-0.01,-0.01,32.67,15.671706,51.61746414989631,167.32226518034662,10.012097682304143,0.033166247903554,0.6560962017655266,0.17998700352966435
17630195,1777.0,1,215155.0,257616,0.6,-0.23,9.96,-0.04,-0.01,-0.01,32.67,15.711704,90.109646185321,355.4495354472608,9.980706387826466,0.042426406871192854,1.1514050608137145,0.3913114316486595
17670197,1807.0,1,215616.0,258921,0.6,-0.23,9.95,-0.04,-0.01,-0.01,32.67,15.751706,71.01439926596441,862.3234252432159,9.97072715502736,0.042426406871192854,0.9056916596829184,0.9606857426542181
17710194,1799.0,1,216322.0,260332,0.61,-0.22,9.97,-0.03,-0.01,-0.01,32.67,15.791703,74.37526710794475,1417.7977998701504,9.991066009190412,0.033166247903554,0.9489385614743268,1.5846532535113502
17750197,1783.0,1,216730.0,260995,0.63,-0.24,9.99,-0.03,-0.01,-0.01,32.67,15.831706,54.28675236021377,1557.487992560582,10.012721907653283,0.033166247903554,0.6904440102817173,1.7415680380731786
17790195,1822.0,1,216740.0,258870,0.59,-0.24,9.99,-0.03,-0.01,-0.01,32.67,15.871704,62.35357106809157,995.8634580968713,10.01028471123574,0.033166247903554,0.7942460438133673,1.1106920178409667
17830196,1831.0,1,214663.0,254089,0.62,-0.23,9.95,-0.03,-0.01,-0.01,32.67,15.911705,101.94016850108729,-99.16596207237063,9.971950661731134,0.033166247903554,1.3036375974044834,-0.11936073135600715
17870195,1875.0,1,213514.0,252848,0.61,-0.23,9.97,-0.03,-0.01,-0.01,32.67,15.951704,92.18157084292045,-1172.8864934276232,9.991291207846961,0.033166247903554,1.1780661276569746,-1.3254770850688038
17910196,1842.0,1,213283.0,253045,0.61,-0.24,9.96,-0.04,-0.01,-0.01,32.67,15.991705,100.34824587708052,-1659.3925837340591,9.981547976140776,0.042426406871192854,1.2831530902423762,-1.8719721315580689
17950194,1884.0,1,213620.0,254353,0.62,-0.23,9.96,-0.04,-0.01,-0.01,32.67,16.031703,94.35857474926864,-1373.3603183266493,9.98192867135405,0.042426406871192854,1.206079330961594,-1.5506704679287526
17990196,1805.0,1,214577.0,256692,0.63,-0.21,9.96,-0.04,-0.01,-0.01,32.67,16.071705,36.8566688236496,-611.7503119048184,9.982114004558355,0.042426406871192854,0.46615756214882315,-0.6951496344608189
18030194,1775.0,1,215443.0,257988,0.62,-0.24,9.96,-0.03,-0.01,-0.01,32.67,16.111703,-4.8277680108160315,100.171045785164,9.982164094022899,0.033166247903554,-0.07022852346056402,0.10455565848305601
18070196,1795.0,1,215606.0,257787,0.63,-0.23,9.96,-0.03,-0.01,-0.01,32.67,16.151705,-8.079589791891046,402.7428190843425,9.982554783220577,0.033166247903554,-0.1120722447318084,0.4444362449960065
18110194,1794.0,1,215336.0,257340,0.61,-0.23,9.97,-0.03,-0.01,-0.01,32.67,16.191703,30.11457246001954,325.18286345745753,9.991291207846961,0.033166247903554,0.379401761856981,0.3573127075921437
18150196,1851.0,1,215068.0,257181,0.64,-0.24,9.99,-0.03,-0.01,-0.01,32.67,16.231705,21.664075485237728,180.7036731968331,10.013356080755344,0.033166247903554,0.2706626415047678,0.1950184149380096
18189197,1776.0,1,215064.0,257640,0.62,-0.24,9.95,-0.04,-0.01,-0.01,32.67,16.270706,14.499946762977492,244.92886736545043,9.97218631996013,0.042426406871192854,0.17847622244877892,0.26716293927654955
18229197,1882.0,1,215440.0,258699,0.62,-0.23,9.95,-0.04,-0.01,-0.01,32.67,16.310706,53.87438038748758,498.5057920296192,9.971950661731134,0.042426406871192854,0.6851376992202534,0.5520073348434441
18269197,1786.0,1,216045.0,259915,0.6,-0.24,9.97,-0.04,-0.01,-0.01,32.67,16.350706,1.71170739768057,650.5493794595458,9.990920878477619,0.042426406871192854,0.013919995331516886,0.7227987576775873
18309884,1744.0,1,216026.0,256906,0.62,-0.2,9.96,-0.04,-0.01,-0.01,32.75,16.391393,-54.98456746748271,414.79856528622076,9.981282482727359,0.042426406871192854,-0.715635091722322,0.4579785329803324
18350194,1787.0,1,214538.0,254301,0.61,-0.22,9.99,-0.03,-0.01,-0.01,32.75,16.431703,-32.815300968613386,-208.7859899350279,10.011023923655362,0.033166247903554,-0.4303658886050602,-0.24249752946931313
18390197,1794.0,1,213952.0,253840,0.63,-0.23,9.96,-0.03,-0.01,-0.01,32.75,16.471706,28.74972541721373,-895.4390813409935,9.982554783220577,0.033166247903554,0.36183921289768084,-1.0138188357936393
18430194,1883.0,1,213889.0,253928,0.62,-0.23,9.96,-0.03,-0.01,-0.01,32.75,16.511703,43.088377673615184,-1231.7884257875357,9.98192867135405,0.033166247903554,0.546345809142883,-1.391641959270199
18470197,1744.0,1,213910.0,254697,0.62,-0.23,9.96,-0.03,-0.01,-0.01,32.75,16.551706,-9.332341269041798,-1024.7609220233894,9.98192867135405,0.033166247903554,-0.1281923728203491,-1.1590867918253673
18510194,1840.0,1,214630.0,256730,0.61,-0.23,9.99,-0.04,-0.01,-0.01,32.75,16.591703,12.087727139328047,-432.87200850551636,10.011248673367374,0.042426406871192854,0.14743631547588046,-0.4942146232042307
18550197,1760.0,1,215450.0,258157,0.63,-0.25,9.96,-0.04,-0.01,-0.01,32.75,16.631706,-7.0803688409493,173.7108920098416,9.983035610474403,0.042426406871192854,-0.09921449120948225,0.1871633842281841
18590194,1742.0,1,215829.0,258339,0.62,-0.23,9.92,-0.03,-0.01,-0.01,32.75,16.671703,-52.54910382983996,500.84497947178727,9.942016897994089,0.033166247903554,-0.6842960859339775,0.5546349573448388
18630196,1807.0,1,215649.0,257935,0.62,-0.22,9.97,-0.03,-0.01,-0.01,32.75,16.711705,20.270637143506928,531.8666359953895,9.991681540161297,0.033166247903554,0.2527321860538012,0.5894817598039029
18670195,1809.0,1,215366.0,257681,0.62,-0.22,9.95,-0.03,-0.01,-0.01,32.75,16.751704,45.155007882742275,484.33530156787424,9.971725026293093,0.033166247903554,0.5729387481977594,0.5360895426555
18710197,1802.0,1,215425.0,258243,0.62,-0.24,9.96,-0.03,-0.01,-0.01,32.75,16.791706,9.441163578288233,568.8947360235381,9.982164094022899,0.033166247903554,0.11338092270519427,0.6310756342681392
18750197,1731.0,1,215769.0,259170,0.62,-0.24,9.96,-0.04,-0.01,-0.01,32.75,16.831706,-17.880418028483284,767.4301704536937,9.982164094022899,0.042426406871192854,-0.23818712819375873,0.8540916121366467
18790197,1728.0,1,216218.0,260265,0.62,-0.25,9.95,-0.03,-0.01,-0.01,32.75,16.871706,-53.04368101399349,832.7357150599059,9.972432000269542,0.033166247903554,-0.6906601954190907,0.927449700240126
18830197,1680.0,1,216242.0,257263,0.61,-0.23,9.96,-0.04,-0.01,-0.01,32.75,16.911706,-67.5535839482956,515.0624414449616,9.981312538939957,0.042426406871192854,-0.8773704073960312,0.5706055128975869
18870196,1679.0,1,214622.0,254466,0.61,-0.25,9.96,-0.03,-0.01,-0.01,32.75,16.951705,-79.85417538276502,-185.57064206509742,9.98179342603322,0.033166247903554,-1.0356516891227439,-0.2164195977306767
18910197,1716.0,1,214051.0,253936,0.61,-0.24,9.94,-0.03,-0.01,-0.01,32.75,16.991706,-37.0808780244012,-967.4527519255007,9.96159123835143,0.033166247903554,-0.48525438785251734,-1.0947121997989167
18950196,1751.0,1,213815.0,253822,0.63,-0.23,9.94,-0.03,-0.01,-0.01,32.75,17.031705,17.262135867457918,-1423.265797653117,9.962600062232749,0.033166247903554,0.2140194590612533,-1.606729575487732
18990194,1744.0,1,213871.0,254438,0.65,-0.21,9.97,-0.04,-0.01,-0.01,32.75,17.071703,-14.072844538678883,-1321.5877096526222,9.993372804013669,0.042426406871192854,-0.18919211722655738,-1.4925140033994766
19030196,1708.0,1,214439.0,256416,0.63,-0.23,9.94,-0.04,-0.01,-0.01,32.75,17.111705,-7.217313583779001,-754.314126698722,9.962600062232749,0.042426406871192854,-0.10097666577940406,-0.8552923750057684
19070194,1723.0,1,215357.0,258194,0.62,-0.24,9.96,-0.04,-0.01,-0.01,32.75,17.151703,-29.3996870699417,-50.87291005180173,9.982164094022899,0.042426406871192854,-0.38641452670140813,-0.06511287252146347
19110196,1585.0,1,215946.0,258811,0.62,-0.23,9.97,-0.03,-0.01,-0.01,32.75,17.191705,-128.4403047951208,460.5028780728856,9.991906724944943,0.033166247903554,-1.6608472237030951,0.5093184463725284
19150197,1637.0,1,216061.0,258916,0.61,-0.22,9.99,-0.03,-0.01,-0.01,32.75,17.231706,-93.39937582729159,659.2314830546904,10.011023923655362,0.033166247903554,-1.2099483234778203,0.7325514138156937
19190198,1710.0,1,215897.0,258770,0.61,-0.24,9.98,-0.03,-0.01,-0.01,32.75,17.271707,-17.285494931807982,657.0659972330426,10.001504886765792,0.033166247903554,-0.23053178976777733,0.7301189113283602
19230194,1705.0,1,215851.0,258955,0.64,-0.23,9.96,-0.03,-0.01,-0.01,32.75,17.311703,3.193218536071036,639.7902723659325,9.983190872661908,0.033166247903554,0.03298375199119484,0.71071299174688
19270196,1755.0,1,215931.0,259345,0.62,-0.23,9.96,-0.04,-0.01,-0.01,32.75,17.351705,13.917311339330007,673.1068296175108,9.98192867135405,0.042426406871192854,0.17097899907333333,0.7481376691904763
19310882,1673.0,1,216189.0,260251,0.61,-0.22,9.96,-0.04,-0.01,-0.01,32.71,17.392391,-10.918454304748327,644.967340302475,9.981087115139314,0.042426406871192854,-0.1486021234890498,0.7165284214794796
19349196,1744.0,1,216519.0,258548,0.62,-0.22,9.98,-0.04,-0.01,-0.01,32.71,17.430705,2.6990821066419146,390.59419027406625,10.001659862242867,0.042426406871192854,0.026625314040095112,0.43078962145164157
19389195,1655.0,1,215123.0,255459,0.59,-0.23,9.97,-0.04,-0.01,-0.01,32.71,17.470704,-28.031419329160386,-122.06298748191057,9.990090089683877,0.042426406871192854,-0.3688079609594316,-0.1450810896721194
19429196,1649.0,1,214576.0,254936,0.61,-0.25,9.95,-0.03,-0.01,-0.01,32.71,17.510705,-80.17292188962003,-721.5229095852492,9.971815281080971,0.033166247903554,-1.039753248459927,-0.8184578151144841
19469194,1739.0,1,214461.0,255054,0.62,-0.24,9.97,-0.03,-0.01,-0.01,32.71,17.550703,46.586552743277835,-1138.210299706855,9.99214191252306,0.033166247903554,0.5913595498788804,-1.2865251202792867
19509196,1838.0,1,214489.0,255399,0.62,-0.24,9.98,-0.03,-0.01,-0.01,32.71,17.590705,124.91649312217888,-1186.487249129583,10.002119775327628,0.033166247903554,1.5992918453948988,-1.340754890974481
19549197,1754.0,1,214786.0,256628,0.63,-0.23,9.95,-0.03,-0.01,-0.01,32.71,17.630706,50.00805872058198,-871.9947940907998,9.9725774000506,0.033166247903554,0.6353867297432336,-0.9874837351525922
19589196,1753.0,1,215383.0,257949,0.63,-0.25,9.95,-0.04,-0.01,-0.01,32.71,17.670705,53.32360236304273,-357.3717341796044,9.973058708340185,0.042426406871192854,0.6780504097902718,-0.4094047374704206
19629197,1738.0,1,215884.0,258971,0.62,-0.24,9.99,-0.04,-0.01,-0.01,32.71,17.710706,26.988610349411513,162.06433193290238,10.012097682304143,0.042426406871192854,0.3391775749036875,0.1740807373353612
19669196,1648.0,1,216358.0,259758,0.62,-0.24,9.99,-0.04,-0.01,-0.01,32.71,17.750705,-47.55588278083216,567.442694792404,10.012097682304143,0.042426406871192854,-0.6200444252075642,0.6294445481298071
19709197,1710.0,1,216572.0,260145,0.63,-0.23,9.95,-0.03,-0.01,-0.01,32.71,17.790706,2.559193155927525,837.1950456159318,9.9725774000506,0.033166247903554,0.02482525405627747,0.9324588915084024
19749197,1734.0,1,216696.0,260336,0.6,-0.21,9.97,-0.04,-0.01,-0.01,32.71,17.830706,31.04568337748681,985.7154642557358,9.990245242235048,0.042426406871192854,0.3913830905785793,1.099292718887708
19789195,1714.0,1,216611.0,260401,0.62,-0.24,9.94,-0.03,-0.01,-0.01,32.71,17.870704,17.906631288712457,992.6357329524209,9.96220859046828,0.033166247903554,0.22231268316243785,1.1070662959065096
19829196,1772.0,1,216628.0,260831,0.62,-0.22,9.97,-0.03,-0.01,-0.01,32.71,17.910705,58.572278706016675,799.7197809178375,9.991681540161297,0.033166247903554,0.7455892125673941,0.890362714437972
19869197,1744.0,1,216885.0,259500,0.62,-0.23,9.97,-0.04,-0.01,-0.01,32.71,17.950706,56.177924924184104,384.4812678365578,9.991906724944943,0.042426406871192854,0.7147791992835077,0.4239229410580472
19909197,1711.0,1,215428.0,255850,0.6,-0.23,9.97,-0.04,-0.01,-0.01,32.71,17.990706,-5.8425593742106425,-165.8547313559367,9.990685662155526,0.042426406871192854,-0.08328663359608089,-0.19427260357322568
19949195,1617.0,1,214931.0,255507,0.62,-0.23,9.92,-0.04,-0.01,-0.01,32.71,18.030704,-71.42370200544092,-669.5805370808068,9.942016897994089,0.042426406871192854,-0.927170227980437,-0.760110653913073
19989196,1664.0,1,214951.0,256021,0.62,-0.23,9.904999999999998,-0.03,-0.01,-0.01,32.71,18.070705,-48.44596118933968,-956.6621985955246,9.927050166086598,0.033166247903554,-0.6314977567068166,-1.0825911101328123
20029194,1729.0,1,215059.0,256499,0.62,-0.24,9.95,-0.03,-0.01,-0.01,32.71,18.110703,34.706530382967514,-969.7969515002751,9.97218631996013,0.033166247903554,0.4384900576963663,-1.0973454524572535
20069196,1748.0,1,215290.0,257454,0.64,-0.21,9.93,-0.03,-0.01,-0.01,32.71,18.150705,42.500700756438576,-769.9652367114005,9.952818696228722,0.033166247903554,0.538783712947146,-0.8728733555205238
20109197,1757.0,1,215515.0,257986,0.63,-0.21,9.97,-0.04,-0.01,-0.01,32.71,18.190706,55.99639758433676,-456.01393767184726,9.99209187307643,0.042426406871192854,0.7124433457456882,-0.5202100832973188
20149196,1776.0,1,215853.0,258628,0.62,-0.23,9.96,-0.04,-0.01,-0.01,32.71,18.230705,77.94897903691488,-86.99895305747573,9.98192867135405,0.042426406871192854,0.9949242937582503,-0.10569346122370078
20189193,1706.0,1,216192.0,259720,0.62,-0.24,9.96,-0.04,-0.01,-0.01,32.71,18.270702,-2.778241437596717,321.76906084475667,9.982164094022899,0.042426406871192854,-0.043855670198154756,0.35347796378378143
20229196,1616.0,1,216745.0,260668,0.62,-0.23,9.94,-0.04,-0.01,-0.01,32.71,18.310705,-73.37967233796755,739.384274971826,9.961972696208315,0.042426406871192854,-0.9523392202928049,0.8225874989085012
20269197,1694.0,1,217051.0,261086,0.59,-0.23,10.0,-0.03,-0.01,-0.01,32.71,18.350706,-23.230744006368486,1068.1289895574953,10.020029940075029,0.033166247903554,-0.30703393592223,1.191868298594759
20309196,1734.0,1,217084.0,261150,0.61,-0.22,9.98,-0.03,-0.01,-0.01,32.71,18.390705,51.48593116506631,1163.4983702125558,10.001044945404455,0.033166247903554,0.6544036644969616,1.298997263993551
20349884,1741.0,1,216907.0,261113,0.61,-0.24,9.99,-0.03,-0.01,-0.01,32.75,18.431393,19.69574364081412,925.3655046498583,10.01148340656868,0.033166247903554,0.2453345839996767,1.0315012674802537
20390197,1659.0,1,216923.0,259531,0.62,-0.23,9.95,-0.04,-0.01,-0.01,32.75,18.471706,-24.770565624434088,393.09508593321016,9.971950661731134,0.042426406871192854,-0.3268480188983497,0.43359889170897337
20430197,1739.0,1,215480.0,256010,0.62,-0.26,9.99,-0.04,-0.01,-0.01,32.75,18.511706,22.93868433566601,-241.61093560301788,10.012597065696792,0.042426406871192854,0.28706402542364623,-0.27936997683690257
20470197,1715.0,1,214992.0,255828,0.6,-0.23,9.99,-0.04,-0.01,-0.01,32.75,18.551706,19.67903366631325,-734.644181496187,10.01064433490672,0.042426406871192854,0.2451195637548609,-0.8331970141622281
20510194,1680.0,1,215158.0,256462,0.6,-0.23,9.94,-0.03,-0.01,-0.01,32.75,18.591703,-24.052734725755055,-934.2768636915971,9.960747963883033,0.033166247903554,-0.3176111301429387,-1.0574455366595303
20550196,1734.0,1,215400.0,256967,0.61,-0.23,9.97,-0.03,-0.01,-0.01,32.75,18.631705,23.29035926485465,-853.9093787100719,9.991291207846961,0.033166247903554,0.29158930039433956,-0.9671682856316146
20590195,1753.0,1,215472.0,257659,0.61,-0.22,9.97,-0.03,-0.01,-0.01,32.75,18.671704,58.08341905592001,-618.075904770024,9.991066009190412,0.033166247903554,0.7392986750421056,-0.7022552087502697
20630210,1749.0,1,215716.0,258309,0.63,-0.22,9.96,-0.04,-0.01,-0.01,32.75,18.711719,29.161189376098136,-342.0621167797135,9.982329387472646,0.042426406871192854,0.3671338398384691,-0.39220735754159725
20670197,1732.0,1,215930.0,258863,0.62,-0.23,9.94,-0.04,-0.01,-0.01,32.75,18.751706,33.9611485215766,-55.411533331225876,9.961972696208315,0.042426406871192854,0.4288986492648833,-0.07021113375499473
20710196,1718.0,1,216360.0,259795,0.63,-0.24,9.97,-0.04,-0.01,-0.01,32.75,18.791705,1.998499960968982,274.6069899154451,9.992767384463626,0.042426406871192854,0.017610378411778687,0.30050054241417445
20750197,1621.0,1,216808.0,260816,0.61,-0.23,9.97,-0.04,-0.01,-0.01,32.75,18.831706,-95.80754735610938,654.9648184697695,9.991291207846961,0.042426406871192854,-1.2409361404644836,0.7277586453238917
20790197,1597.0,1,217101.0,261144,0.62,-0.23,9.96,-0.03,-0.01,-0.01,32.75,18.871706,-103.77688309257843,997.6036895466734,9.98192867135405,0.033166247903554,-1.3434837847463723,1.112646829684047
20830207,1699.0,1,217091.0,261229,0.6,-0.23,9.95,-0.03,-0.01,-0.01,32.75,18.911716,-45.17703800821614,1133.673150776979,9.97072715502736,0.033166247903554,-0.5894339784136459,1.2654944260912924
20870197,1659.0,1,217005.0,261352,0.62,-0.23,9.91,-0.03,-0.01,-0.01,32.75,18.951706,-27.7093673471793,915.6032422186391,9.932039065569567,0.033166247903554,-0.36466386750163654,1.0205352628042812
20910194,1746.0,1,217020.0,260564,0.63,-0.23,9.97,-0.03,-0.01,-0.01,32.75,18.991703,-17.974147562363427,343.34328016434944,9.992532211606825,0.033166247903554,-0.2393932190420917,0.3777124065275591
20950197,1712.0,1,215802.0,255962,0.62,-0.23,9.96,-0.04,-0.01,-0.01,32.75,19.031706,21.49210522713604,-386.997357324682,9.98192867135405,0.042426406871192854,0.26844976637463935,-0.4426833677291803
20990197,1744.0,1,214830.0,255193,0.61,-0.2,9.98,-0.03,-0.01,-0.01,32.75,19.071706,-18.5861034133247,-977.6240327912132,10.00062498046997,0.033166247903554,-0.2472677311715558,-1.106137657198765
21030204,1602.0,1,214863.0,255938,0.62,-0.23,9.97,-0.03,-0.01,-0.01,32.75,19.111713,-116.75000939829634,-1218.1222071159395,9.991906724944943,0.033166247903554,-1.5104190959963175,-1.3762906184399903
21070195,1660.0,1,215273.0,256820,0.63,-0.22,9.94,-0.03,-0.01,-0.01,32.75,19.151704,-82.75221803247712,-1119.7767346988833,9.962374215015213,0.033166247903554,-1.0729430590165276,-1.2658185923103373
21110196,1712.0,1,215563.0,257701,0.64,-0.24,9.99,-0.03,-0.01,-0.01,32.75,19.191705,-46.12178412207323,-874.9479153376799,10.013356080755344,0.033166247903554,-0.601590761817458,-0.990800992973734
21150194,1695.0,1,215758.0,258268,0.62,-0.23,9.96,-0.03,-0.01,-0.01,32.75,19.231703,-30.451099652816314,-673.9200740479347,9.98192867135405,0.033166247903554,-0.3999438705648779,-0.7649852803645089
21190197,1837.0,1,215799.0,258181,0.63,-0.23,9.95,-0.03,-0.01,-0.01,32.75,19.271706,52.5980299530755,-541.8365970553448,9.9725774000506,0.033166247903554,0.668713904985037,-0.6166151626254621
21230197,1754.0,1,215831.0,258774,0.63,-0.23,9.95,-0.04,-0.01,-0.01,32.75,19.311706,23.578996693485042,-339.3270554320738,9.9725774000506,0.042426406871192854,0.2953034227925437,-0.38913504764021883
21270197,1776.0,1,216453.0,260162,0.6,-0.23,9.94,-0.04,-0.01,-0.01,32.75,19.351706,-11.05333418993742,75.56340467169642,9.960747963883033,0.042426406871192854,-0.1503377279289352,0.07691375585892823
21310194,1742.0,1,217089.0,261554,0.59,-0.23,10.0,-0.04,-0.01,-0.01,32.75,19.391703,-13.710377747494885,665.776326353729,10.020029940075029,0.042426406871192854,-0.1845279749698524,0.7399032733591583
21350884,1695.0,1,217540.0,262140,0.6,-0.24,9.96,-0.03,-0.01,-0.01,32.71,19.432393,-82.12499067340498,1174.3257743601375,9.980941839325586,0.033166247903554,-1.0648720365086348,1.3111597483917705
21389194,1794.0,1,217691.0,262143,0.62,-0.25,9.92,-0.03,-0.01,-0.01,32.71,19.470703,8.880788343503253,1275.8144363928293,9.942499685692729,0.033166247903554,0.10617013850167033,1.4251625372176095
21429197,1906.0,1,217635.0,262143,0.63,-0.23,9.96,-0.03,-0.01,-0.01,32.71,19.510706,136.59680179812025,821.131063217811,9.982554783220577,0.033166247903554,1.7495914661928793,0.914414129104844
21469196,1872.0,1,216926.0,257660,0.62,-0.23,9.99,-0.03,-0.01,-0.01,32.71,19.550705,64.99112298960573,-10.96942637833068,10.011862963504845,0.033166247903554,0.8281854768058446,-0.020289063324169423
21509197,1792.0,1,215177.0,255592,0.61,-0.21,9.98,-0.03,-0.01,-0.01,32.71,19.590706,21.046201470577667,-794.051942720767,10.000829965557859,0.033166247903554,0.26271197575775596,-0.8999300887919837
21549196,1856.0,1,215172.0,256459,0.62,-0.22,9.97,-0.03,-0.01,-0.01,32.71,19.630705,39.646614495875696,-1132.2956675052033,9.991681540161297,0.033166247903554,0.5020579641173314,-1.2798811804306145
21589196,1773.0,1,215825.0,258131,0.6,-0.21,9.96,-0.04,-0.01,-0.01,32.71,19.670705,-11.409634589965105,-929.3178360393283,9.980265527529816,0.042426406871192854,-0.15492252243223747,-1.0518750328130908
21629194,1804.0,1,216366.0,259494,0.63,-0.22,9.95,-0.03,-0.01,-0.01,32.71,19.710703,-8.261769369494354,-429.504828292639,9.972351778793204,0.033166247903554,-0.11441649112037455,-0.49043225060162854
21669197,1849.0,1,216736.0,260401,0.62,-0.24,10.01,-0.03,-0.01,-0.01,32.71,19.750706,42.21910510758837,0.575165355355383,10.032053628245814,0.033166247903554,0.5351602026089539,-0.007320958048803899
21709194,1840.0,1,216916.0,260453,0.59,-0.23,9.97,-0.03,-0.01,-0.01,32.71,19.790703,38.9089542548556,165.53300631668833,9.990090089683877,0.033166247903554,0.49256591578376013,0.1779771189149407
21749197,1893.0,1,216751.0,260199,0.6,-0.22,9.97,-0.04,-0.01,-0.01,32.71,19.830706,64.64497396273522,169.85204579074014,9.990460449849147,0.042426406871192854,0.823731307920275,0.18282872041632006
21789194,1899.0,1,216891.0,260790,0.62,-0.22,9.97,-0.04,-0.01,-0.01,32.71,19.870703,105.51354146494006,285.82231302465664,9.991681540161297,0.042426406871192854,1.3496189679604753,0.3130987783789084
21829197,1894.0,1,217328.0,261781,0.63,-0.22,9.94,-0.04,-0.01,-0.01,32.71,19.910706,55.362250593974025,674.9939453304735,9.962374215015213,0.042426406871192854,0.7042832829574488,0.75025747695822
21869195,1772.0,1,217757.0,262143,0.62,-0.22,9.95,-0.04,-0.01,-0.01,32.71,19.950704,-26.109305713800342,1192.5857391400834,9.971725026293093,0.042426406871192854,-0.3440746293725447,1.3316712702414217
21909197,1783.0,1,218007.0,262143,0.64,-0.22,9.904999999999998,-0.03,-0.01,-0.01,32.71,19.990706,-48.42189716408235,1446.5736348004311,9.928092717133536,0.033166247903554,-0.6311881061683425,1.6169773118557915
21949197,1822.0,1,218038.0,262143,0.62,-0.23,9.98,-0.03,-0.01,-0.01,32.71,20.030706,4.628941815101753,1092.9672647001935,10.001884822372231,0.033166247903554,0.05145832063454095,1.21976927373008
21989196,1847.0,1,217632.0,259273,0.63,-0.23,9.97,-0.03,-0.01,-0.01,32.71,20.070705,37.57298627693202,152.28583382972806,9.992532211606825,0.033166247903554,0.4753749762246242,0.1630964950371333
22029194,1831.0,1,215341.0,255288,0.63,-0.21,9.95,-0.03,-0.01,-0.01,32.71,20.110703,-11.266833278046393,-921.6092567988354,9.972136180377802,0.033166247903554,-0.15308498683054184,-1.0432159420959615
22069196,1797.0,1,214753.0,255259,0.61,-0.22,9.96,-0.04,-0.01,-0.01,32.71,20.150705,8.825509860072296,-1521.9854110288413,9.981087115139314,0.042426406871192854,0.10545882724025876,-1.7176218762751432
22109194,1861.0,1,215139.0,257116,0.62,-0.23,9.96,-0.04,-0.01,-0.01,32.71,20.190703,7.956970781499903,-1328.7500793555766,9.98192867135405,0.042426406871192854,0.09428265906017108,-1.5005595338497202
22149197,1714.0,1,216254.0,259599,0.61,-0.23,9.96,-0.04,-0.01,-0.01,32.71,20.230706,-73.56549924946923,-551.3885839949363,9.981312538939957,0.042426406871192854,-0.9547303997648244,-0.6273449636508284
22189196,1805.0,1,217332.0,261286,0.61,-0.22,9.97,-0.04,-0.01,-0.01,32.71,20.270705,-31.1401599470729,238.85346892852016,9.991066009190412,0.042426406871192854,-0.4088105455652595,0.26033840980531575
22229197,1843.0,1,217390.0,261232,0.62,-0.22,9.96,-0.03,-0.01,-0.01,32.71,20.310706,33.1743674347087,558.1209837228372,9.981703261467954,0.033166247903554,0.41877452478426574,0.6189734172933694
22269197,1856.0,1,217019.0,260099,0.61,-0.22,9.98,-0.03,-0.01,-0.01,32.71,20.350706,52.30856177815428,372.216046441358,10.001044945404455,0.033166247903554,0.6649890927278612,0.4101453484027345
22309197,1855.0,1,216521.0,259443,0.58,-0.24,9.96,-0.03,-0.01,-0.01,32.71,20.390706,23.68295272937192,79.38409198561067,9.979759516140659,0.033166247903554,0.2966411059999782,0.08120555555648876
22349197,1739.0,1,216496.0,260136,0.6,-0.23,9.99,-0.04,-0.01,-0.01,32.71,20.430706,-45.90366905379581,137.56603714719586,10.01064433490672,0.042426406871192854,-0.5987841055070862,0.14656166406047255
22389884,1792.0,1,217158.0,261636,0.62,-0.23,9.99,-0.04,-0.01,-0.01,32.75,20.471393,-34.703404872262574,648.4685992433556,10.011862963504845,0.042426406871192854,-0.45466159076661194,0.7204614054765808
22430195,1712.0,1,217796.0,262143,0.62,-0.22,9.97,-0.04,-0.01,-0.01,32.75,20.511704,-82.10627952664119,1242.1102433672218,9.991681540161297,0.042426406871192854,-1.064631265623094,1.387302426313734
22470197,1648.0,1,218228.0,262143,0.62,-0.23,9.97,-0.03,-0.01,-0.01,32.75,20.551706,-149.4733467482586,1362.3038351273824,9.991906724944943,0.033166247903554,-1.9314957414341427,1.5223165686347633
22510195,1732.0,1,217982.0,260001,0.62,-0.23,9.95,-0.03,-0.01,-0.01,32.75,20.591704,-83.49796689088176,727.8982616391728,9.971950661731134,0.033166247903554,-1.082539189884166,0.8096851950827652
22550197,1761.0,1,215725.0,255501,0.61,-0.24,9.96,-0.03,-0.01,-0.01,32.75,20.631706,-8.214923503860566,-406.4294382449459,9.981547976140776,0.033166247903554,-0.11381368891402413,-0.46451153427733977
22590197,1831.0,1,214665.0,254928,0.62,-0.24,9.95,-0.03,-0.01,-0.01,32.75,20.671706,9.256220285951873,-1410.556946338431,9.97218631996013,0.033166247903554,0.11100111344856564,-1.5924536508314346
22630196,1792.0,1,214734.0,255573,0.62,-0.24,9.97,-0.04,-0.01,-0.01,32.75,20.711705,27.57838207040778,-1735.0205334940613,9.99214191252306,0.042426406871192854,0.3467666265702495,-1.9569254358300614
22670194,1845.0,1,215323.0,257089,0.63,-0.25,9.96,-0.03,-0.01,-0.01,32.75,20.751703,44.1023167114765,-1294.961755300563,9.983035610474403,0.033166247903554,0.5593929517425235,-1.4626049180840504
22710197,1730.0,1,216194.0,259327,0.62,-0.23,9.98,-0.04,-0.01,-0.01,32.75,20.791706,-52.777586652038806,-486.3517009337236,10.001884822372231,0.042426406871192854,-0.6872361522017529,-0.5542886645823681
22750195,1616.0,1,216823.0,260330,0.62,-0.22,9.94,-0.03,-0.01,-0.01,32.75,20.831704,-149.30085013102325,151.33988714003686,9.961746834767483,0.033166247903554,-1.9292760932314537,0.1620339077633881
22790196,1728.0,1,216930.0,260072,0.61,-0.23,9.99,-0.03,-0.01,-0.01,32.75,20.871705,-75.79431736696483,339.9269446678407,10.011248673367374,0.033166247903554,-0.98341033684365,0.3738748175164709
22830197,1792.0,1,216700.0,259664,0.61,-0.21,10.0,-0.03,-0.01,-0.01,32.75,20.911706,53.089428478193554,222.1124191186248,10.020788392137616,0.033166247903554,0.6750371121908584,0.24153309374364995
22870197,1932.0,1,216557.0,259556,0.63,-0.23,9.95,-0.03,-0.01,-0.01,32.75,20.951706,125.95725693323865,173.36606271169143,9.9725774000506,0.033166247903554,1.6126841632250555,0.18677603552468744
22910197,1856.0,1,216682.0,260513,0.62,-0.23,9.95,-0.04,-0.01,-0.01,32.75,20.991706,119.39289430334297,435.73969374144747,9.971950661731134,0.042426406871192854,1.5282154011891722,0.4815018211707606
22950196,1830.0,1,217270.0,261941,0.61,-0.24,9.99,-0.04,-0.01,-0.01,32.75,21.031705,45.847990117778245,877.6710311293915,10.01148340656868,0.042426406871192854,0.5818558898620184,0.9779257952648267
22990195,1726.0,1,217873.0,262143,0.61,-0.25,9.98,-0.04,-0.01,-0.01,32.75,21.071704,-28.33652548256284,1082.4770105198427,10.001749846901792,0.042426406871192854,-0.3727339992544618,1.2079855117994451
23030197,1712.0,1,217919.0,260355,0.6,-0.22,9.94,-0.04,-0.01,-0.01,32.75,21.111706,-38.74898774426537,701.1981682203516,9.960522074670584,0.042426406871192854,-0.5067192536622219,0.7796928289337707
23070195,1774.0,1,216125.0,256356,0.6,-0.23,9.92,-0.03,-0.01,-0.01,32.75,21.151704,6.687089311102662e-05,-221.0860221951453,9.940789707060501,0.033166247903554,-0.00810501524448803,-0.2563142253663334
23110197,1789.0,1,215077.0,255351,0.63,-0.23,9.94,-0.03,-0.01,-0.01,32.75,21.191706,62.495271123575826,-1225.6311362837803,9.962600062232749,0.033166247903554,0.796069408691575,-1.3847254410998238
23150197,1873.0,1,214792.0,255429,0.62,-0.23,9.97,-0.03,-0.01,-0.01,32.75,21.231706,96.13508824945119,-1753.7625399740339,9.991906724944943,0.033166247903554,1.2289391125673579,-1.9779784378513174
23190197,1794.0,1,215018.0,256584,0.61,-0.21,9.96,-0.04,-0.01,-0.01,32.75,21.271706,69.01531276081798,-1542.7567073994462,9.980871705417318,0.042426406871192854,0.8799678580264819,-1.7409543911230994
23230194,1819.0,1,215970.0,259040,0.6,-0.22,9.97,-0.04,-0.01,-0.01,32.75,21.311703,60.89291904902207,-792.8850757653474,9.990460449849147,0.042426406871192854,0.7754506976735739,-0.8986193405325998
23270197,1732.0,1,216969.0,260804,0.6,-0.23,9.98,-0.04,-0.01,-0.01,32.75,21.351706,-9.924575656003123,9.94256517542295,10.00066497789022,0.042426406871192854,-0.13581311352621384,0.003201495219821986
23310195,1634.0,1,217356.0,261166,0.58,-0.21,10.025000000000002,-0.04,-0.01,-0.01,32.75,21.391704,-96.37378405296352,459.48795501264317,10.043959627557253,0.042426406871192854,-1.2482223486615645,0.5081783775511066
23350197,1771.0,1,217278.0,260770,0.6,-0.24,10.0,-0.03,-0.01,-0.01,32.75,21.431706,10.351588966616855,493.869269625557,10.020858246677276,0.033166247903554,0.12509607462686365,0.5467991029687712
23390881,1822.0,1,217059.0,260469,0.62,-0.21,9.95,-0.03,-0.01,-0.01,32.83,21.47239,111.3007020894281,367.4213598479262,9.971509414326398,0.033166247903554,1.424086867010879,0.40475944979840556
23429196,1825.0,1,217010.0,260889,0.62,-0.22,9.96,-0.03,-0.01,-0.01,32.83,21.510705,56.93936940299051,376.56103630466384,9.981703261467954,0.033166247903554,0.7245772979124462,0.41502610012332875
23469194,1738.0,1,217262.0,261885,0.62,-0.23,9.96,-0.04,-0.01,-0.01,32.83,21.550703,30.483273062261198,579.6852655825537,9.98192867135405,0.042426406871192854,0.38414611941142224,0.643196697232189
23509197,1789.0,1,217807.0,262143,0.6,-0.24,9.96,-0.04,-0.01,-0.01,32.83,21.590706,28.1514728192514,747.3314600474466,9.980941839325586,0.042426406871192854,0.35414103118777857,0.8315146169115348
23549195,1687.0,1,218274.0,261612,0.62,-0.23,9.98,-0.04,-0.01,-0.01,32.83,21.630704,-33.67661804780902,579.8126866085537,10.001884822372231,0.042426406871192854,-0.4414491256993483,0.643339829992323
23589196,1680.0,1,216676.0,257954,0.6,-0.22,9.98,-0.03,-0.01,-0.01,32.83,21.670705,-62.71715907532409,-1.566815928604924,10.000439990320427,0.033166247903554,-0.815136365078057,-0.009727057755838826
23629195,1730.0,1,215999.0,257382,0.59,-0.24,9.99,-0.03,-0.01,-0.01,32.83,21.710704,-13.60330826324818,-745.1663934214299,10.01028471123574,0.033166247903554,-0.18315022859963348,-0.8450166744086879
23669197,1745.0,1,215893.0,257276,0.61,-0.22,9.98,-0.03,-0.01,-0.01,32.83,21.750706,21.507036120069827,-1233.260208007203,10.001044945404455,0.033166247903554,0.2686418937925342,-1.3932952205727502
23709195,1759.0,1,215887.0,257912,0.62,-0.21,9.96,-0.03,-0.01,-0.01,32.83,21.790704,-5.372894152359255,-1178.6727894339353,9.981487865042967,0.033166247903554,-0.07724308571522201,-1.3319768641424397
23749196,1718.0,1,216375.0,259903,0.63,-0.22,9.95,-0.04,-0.01,-0.01,32.83,21.830705,2.085489785186801,-618.4910386556865,9.972351778793204,0.042426406871192854,0.018729744171362726,-0.7027215309950776
23789197,1776.0,1,217333.0,261971,0.62,-0.25,9.94,-0.04,-0.01,-0.01,32.83,21.870706,4.139069610515428,130.64815974471543,9.962454516834693,0.042426406871192854,0.04515475378271188,0.13879077319599376
23829194,1643.0,1,218065.0,262143,0.62,-0.23,9.97,-0.04,-0.01,-0.01,32.83,21.910703,-83.87247277703734,705.544616292329,9.991906724944943,0.042426406871192854,-1.0873582485441255,0.784575218668424
23869197,1680.0,1,218196.0,262143,0.6,-0.23,9.94,-0.03,-0.01,-0.01,32.83,21.950706,-85.38810823338757,935.9675974727162,9.960747963883033,0.033166247903554,-1.1068611093569245,1.043410658391397
23909196,1733.0,1,217994.0,262143,0.59,-0.24,10.01,-0.03,-0.01,-0.01,32.83,21.990705,-16.81716196480414,913.9570545277508,10.030244264224077,0.033166247903554,-0.22450538504673961,1.0186860908481903
23949194,1740.0,1,217839.0,262143,0.61,-0.23,9.99,-0.03,-0.01,-0.01,32.83,22.030703,-16.61591222204694,853.2213767774844,10.011248673367374,0.033166247903554,-0.22191574800363636,0.9504613600646921
23989197,1765.0,1,217798.0,262143,0.61,-0.23,9.97,-0.04,-0.01,-0.01,32.83,22.070706,-5.72694808576757,869.109715147588,9.991291207846961,0.042426406871192854,-0.08179897318443861,0.9683088205368474
24029193,1764.0,1,218089.0,262143,0.61,-0.24,9.96,-0.04,-0.01,-0.01,32.83,22.110702,7.0770617509932805,873.4747714805236,9.981547976140776,0.042426406871192854,0.08296018486098597,0.97321211303642
24069196,1750.0,1,218537.0,262037,0.62,-0.25,9.96,-0.04,-0.01,-0.01,32.83,22.150705,-32.640327744195915,673.2486882544699,9.98240952876609,0.042426406871192854,-0.42811437197058,0.7482970198007658
24109216,1648.0,1,217166.0,258508,0.6,-0.24,9.99,-0.04,-0.01,-0.01,32.83,22.190725,-118.81431857031781,174.59095503704552,10.01087908227844,0.042426406871192854,-1.5369821684606344,0.18815196401073597
24149196,1642.0,1,216346.0,257580,0.58,-0.23,10.025000000000002,-0.03,-0.01,-0.01,32.83,22.230705,-146.50876333846122,-498.72785693133784,10.044397692246163,0.033166247903554,-1.8933481398014642,-0.568190870704833
24189197,1731.0,1,215967.0,257598,0.61,-0.25,9.96,-0.03,-0.01,-0.01,32.83,22.270706,-49.92159824766753,-1073.5466479300223,9.98179342603322,0.033166247903554,-0.6504859270073972,-1.213888074026305
24229196,1767.0,1,215962.0,257650,0.61,-0.22,10.0,-0.03,-0.01,-0.01,32.83,22.310705,-24.662351093749944,-1308.3486109713695,10.02100294381755,0.033166247903554,-0.3254555383245991,-1.4776424488733453
24269194,1743.0,1,215934.0,258706,0.62,-0.22,9.96,-0.03,-0.01,-0.01,32.83,22.350703,-54.204815286147706,-1131.8260231337847,9.981703261467954,0.033166247903554,-0.7056014136387584,-1.2793536262484457
24309218,1793.0,1,216530.0,259649,0.62,-0.23,9.99,-0.04,-0.01,-0.01,32.83,22.390727,1.5053709404579738,-650.7483891702153,10.011862963504845,0.042426406871192854,0.011264903575146373,-0.7389563955123014
24349197,1821.0,1,216930.0,260722,0.62,-0.22,9.94,-0.04,-0.01,-0.01,32.83,22.430706,6.4410300564184935,-57.28448312311792,9.961746834767483,0.042426406871192854,0.07477587011706223,-0.07231502886337332
24389197,1754.0,1,217488.0,261621,0.63,-0.21,9.97,-0.04,-0.01,-0.01,32.83,22.470706,-36.77470699565987,474.9023270617696,9.99209187307643,0.042426406871192854,-0.48131464697786613,0.5254934289706771
24429881,1807.0,1,217810.0,262140,0.61,-0.22,10.025000000000002,-0.03,-0.01,-0.01,32.77,22.51139,-18.657553066632325,839.7937231772922,10.045950676765242,0.033166247903554,-0.24818712945941118,0.935378000730266
24470196,1840.0,1,217867.0,261978,0.62,-0.22,9.96,-0.03,-0.01,-0.01,32.77,22.551705,42.37431912162617,989.0083293379441,9.981703261467954,0.033166247903554,0.5371574621077946,1.102991612883158
24510197,1906.0,1,217634.0,261835,0.63,-0.22,9.97,-0.03,-0.01,-0.01,32.77,22.591706,83.51711173510554,904.7265471570057,9.99230704091903,0.033166247903554,1.0665737900437964,1.0083174096431564
24550197,1894.0,1,217502.0,262079,0.62,-0.22,9.96,-0.04,-0.01,-0.01,32.77,22.631706,79.45681823418334,598.4484407631899,9.981703261467954,0.042426406871192854,1.0143268340387637,0.6642734781747858
24590195,1906.0,1,217490.0,259614,0.64,-0.24,9.97,-0.03,-0.01,-0.01,32.77,22.671704,97.78913061736178,136.41684192854072,9.993402823863352,0.033166247903554,1.2502229628129269,0.1452707665630772
24630196,1894.0,1,216008.0,256973,0.61,-0.23,9.96,-0.04,-0.01,-0.01,32.77,22.711705,63.18650450314245,-352.1723440990277,9.981312538939957,0.042426406871192854,0.8049640464716333,-0.4035642331470095
24670195,1772.0,1,215838.0,256910,0.62,-0.24,9.97,-0.03,-0.01,-0.01,32.77,22.751704,-25.077400074386105,-720.867381767617,9.99214191252306,0.033166247903554,-0.33079629652996184,-0.8177214570044629
24710197,1813.0,1,215902.0,257628,0.64,-0.25,9.93,-0.03,-0.01,-0.01,32.77,22.791706,-18.453209922912627,-880.2097503260037,9.953743014564923,0.033166247903554,-0.2455576872189849,-0.9967116420156641
24750197,1825.0,1,216008.0,257885,0.64,-0.23,9.93,-0.03,-0.01,-0.01,32.77,22.831706,26.09657932386335,-832.4711616203103,9.95326077222937,0.033166247903554,0.3276991175615388,-0.9430866149628329
24790197,1872.0,1,215964.0,258558,0.62,-0.22,9.96,-0.03,-0.01,-0.01,32.77,22.871706,57.63219612051281,-635.8152185608283,9.981703261467954,0.033166247903554,0.7334924384118404,-0.7221818803951962
24830197,1883.0,1,216231.0,259025,0.61,-0.23,9.97,-0.04,-0.01,-0.01,32.77,22.911706,76.50578601824688,-340.5809885924762,9.991291207846961,0.042426406871192854,0.9763536061623926,-0.3905435978607452
24870197,1874.0,1,216575.0,259792,0.6,-0.23,9.99,-0.04,-0.01,-0.01,32.77,22.951706,80.30841244971839,36.22270955944663,10.01064433490672,0.042426406871192854,1.0252849594804576,0.03272213023971543
24910194,1847.0,1,217118.0,260768,0.6,-0.23,9.95,-0.04,-0.01,-0.01,32.77,22.991703,43.97696097856721,476.6978483277559,9.97072715502736,0.042426406871192854,0.5577799019812679,0.5275103481774019
24950197,1778.0,1,217380.0,261317,0.61,-0.22,9.97,-0.04,-0.01,-0.01,32.77,23.031706,-6.062255856107317,905.3935649572827,9.991066009190412,0.042426406871192854,-0.08611363918607308,1.0090666745157544
24990195,1830.0,1,217511.0,261667,0.62,-0.24,9.95,-0.03,-0.01,-0.01,32.77,23.071704,48.866717568161015,1171.690813810288,9.97218631996013,0.033166247903554,0.6207002049972448,1.3081998822834544
25030197,1842.0,1,217503.0,261740,0.61,-0.24,9.99,-0.03,-0.01,-0.01,32.77,23.111706,57.74649083228296,1110.7045160519735,10.01148340656868,0.033166247903554,0.7349631574069344,1.2396936286255702
25070195,1781.0,1,217373.0,261839,0.63,-0.22,9.94,-0.03,-0.01,-0.01,32.77,23.151704,30.14353530423383,662.7478971673378,9.962374215015213,0.033166247903554,0.3797744493110039,0.7365014217030693
25110197,1881.0,1,216931.0,257812,0.63,-0.23,9.96,-0.04,-0.01,-0.01,32.77,23.191706,99.89612174055694,-35.91496961641783,9.982554783220577,0.042426406871192854,1.2773352571560745,-0.048310533318536034
25150194,1783.0,1,215362.0,255600,0.61,-0.23,9.96,-0.04,-0.01,-0.01,32.77,23.231703,58.33990248195147,-691.4531640205842,9.981312538939957,0.042426406871192854,0.7425990468681428,-0.7846802996265869
25190196,1751.0,1,215097.0,255995,0.61,-0.24,9.98,-0.03,-0.01,-0.01,32.77,23.271705,-18.35273740156764,-1030.596289081792,10.001504886765792,0.033166247903554,-0.24426482910386738,-1.1656416926897224
25230197,1681.0,1,215529.0,256856,0.61,-0.24,9.99,-0.03,-0.01,-0.01,32.77,23.311706,-20.8748513451861,-990.1113266681521,10.01148340656868,0.033166247903554,-0.2767188318063775,-1.1201647051304864
25270197,1712.0,1,215906.0,257929,0.63,-0.22,9.94,-0.03,-0.01,-0.01,32.77,23.351706,-43.10119887726546,-746.797622749224,9.962374215015213,0.033166247903554,-0.5627225409957173,-0.8468490435508007
25310197,1683.0,1,216188.0,258563,0.61,-0.24,10.0,-0.03,-0.01,-0.01,32.77,23.391706,4.219611476158541,-546.3266564817749,10.021461969193917,0.033166247903554,0.0461911486418183,-0.6216588718078917
25350197,1761.0,1,216162.0,258596,0.62,-0.24,9.92,-0.03,-0.01,-0.01,32.77,23.431706,23.03777070123064,-478.21128811843096,9.942253265734081,0.033166247903554,0.288339046793697,-0.5451444927650471
25390197,1645.0,1,216102.0,258398,0.61,-0.25,9.98,-0.04,-0.01,-0.01,32.77,23.471706,-18.869035521948778,-403.6034057408308,10.001749846901792,0.042426406871192854,-0.2509084387776281,-0.4613370359606922
25430884,1681.0,1,216197.0,259479,0.62,-0.23,9.97,-0.04,-0.01,-0.01,32.75,23.512393,-26.008955969804155,-109.06895481102798,9.991906724944943,0.042426406871192854,-0.3427833511291137,-0.13048481918332824
25471194,1580.0,1,216971.0,261159,0.64,-0.22,9.97,-0.04,-0.01,-0.01,32.75,23.552703,-87.81029219140443,446.4697590172759,9.992942509591456,0.042426406871192854,-1.138029235173903,0.4935549642630767
25511197,1511.0,1,217672.0,262143,0.63,-0.22,9.97,-0.04,-0.01,-0.01,32.75,23.592706,-149.33037403885552,1018.5615228019358,9.99230704091903,0.042426406871192854,-1.9296560003276424,1.13618888247096
25551199,1575.0,1,218077.0,262143,0.64,-0.23,9.91,-0.03,-0.01,-0.01,32.75,23.632708,-108.05549407588288,1220.6365886274864,9.933307606230667,0.033166247903554,-1.3985400016815728,1.3631809483320412
25591196,1626.0,1,217832.0,262143,0.6,-0.23,9.98,-0.03,-0.01,-0.01,32.75,23.672705,8.725035571659223,826.9036433046057,10.00066497789022,0.033166247903554,0.10416594638690112,0.9208985010084082
25631194,1714.0,1,217128.0,257988,0.62,-0.23,9.94,-0.03,-0.01,-0.01,32.75,23.712703,29.176428731532376,-13.802205395219511,9.961972696208315,0.033166247903554,0.36732993648338824,-0.023471140036823473
25671197,1578.0,1,215368.0,255842,0.61,-0.21,9.94,-0.04,-0.01,-0.01,32.75,23.752706,-25.710721436543025,-847.7772327172814,9.960913612716455,0.042426406871192854,-0.3389457353176122,-0.9602800113095025
25711197,1658.0,1,215349.0,256791,0.62,-0.22,9.98,-0.04,-0.01,-0.01,32.75,23.792706,2.289334067715201,-1233.582203493532,10.001659862242867,0.042426406871192854,0.021352767176650363,-1.3936569199261126
25751196,1585.0,1,216097.0,258244,0.62,-0.24,9.99,-0.04,-0.01,-0.01,32.75,23.832705,-39.062815147229784,-1053.6793337117438,10.012097682304143,0.042426406871192854,-0.5107575150618305,-1.1915710074496129
25791197,1524.0,1,216590.0,259569,0.61,-0.21,9.99,-0.03,-0.01,-0.01,32.75,23.872706,-84.5990911760141,-565.5902450322579,10.010809158105053,0.033166247903554,-1.0967082129038852,-0.6432977699228473
25831197,1613.0,1,217019.0,260479,0.59,-0.23,9.97,-0.03,-0.01,-0.01,32.75,23.912706,-38.45889640288708,-160.7688112051821,9.990090089683877,0.033166247903554,-0.5029864226373243,-0.18855956066460217
25871195,1554.0,1,217038.0,260617,0.61,-0.23,9.99,-0.03,-0.01,-0.01,32.75,23.952704,-24.527730704310656,-43.35321380454887,10.011248673367374,0.033166247903554,-0.3237232730184538,-0.05666595514034875
25911196,1651.0,1,217049.0,260225,0.62,-0.22,9.98,-0.03,-0.01,-0.01,32.75,23.992705,-1.6236878606600333,-92.22010366851875,10.001659862242867,0.033166247903554,-0.02899913090463733,-0.11155840927422195
25951200,1627.0,1,216963.0,260877,0.62,-0.23,9.99,-0.04,-0.01,-0.01,32.75,24.032709,38.520938409422534,-5.160532810838061,10.011862963504845,0.042426406871192854,0.4875730139649649,-0.013763900282081862
25991196,1668.0,1,217603.0,262004,0.62,-0.24,9.98,-0.04,-0.01,-0.01,32.75,24.072705,47.3836400565185,403.84625118672074,10.002119775327628,0.042426406871192854,0.601616292594055,0.44567573652571607
26031195,1600.0,1,218187.0,262143,0.61,-0.22,9.99,-0.04,-0.01,-0.01,32.75,24.112704,-27.70645387834976,999.1011440022728,10.011023923655362,0.042426406871192854,-0.36462637763108297,1.1143289287546112
26071197,1488.0,1,218544.0,262143,0.61,-0.23,9.96,-0.04,-0.01,-0.01,32.75,24.152706,-92.25083544520156,1383.1382964154234,9.981312538939957,0.042426406871192854,-1.195169160641579,1.5457200369921997
26111197,1598.0,1,218795.0,262143,0.62,-0.23,9.98,-0.04,-0.01,-0.01,32.75,24.192706,-64.79211472032617,1193.5467399977017,10.001884822372231,0.042426406871192854,-0.8418364339947978,1.3327507679472563
26151196,1535.0,1,218407.0,260876,0.59,-0.22,9.96,-0.03,-0.01,-0.01,32.75,24.232705,-29.383414166854145,415.5146102870281,9.979884768873838,0.033166247903554,-0.38620513059457584,0.45878287038494364
