timestamp_us,ecg,leads,ir,red,accX,accY,accZ,gyroX,gyroY,gyroZ,temp,time_sec,ecg_filtered,ppg_filtered,accel_magnitude,gyro_magnitude,ecg_norm,ppg_norm
1948958,1860.0,1,181220.0,218542,0.61,-0.22,9.919999999999998,-0.03,-0.01,-0.01,32.60000000000001,0.030472,-31.913089723568625,19.565646421699483,9.941171963103745,0.033166247903554,-0.4306429115094729,0.021799244831375443
1989197,1888.0,1,180520.0,218218,0.62,-0.23,9.95,-0.03,-0.01,-0.01,32.60000000000001,0.070711,-10.670308102205752,-339.6738681128046,9.971950661731134,0.033166247903554,-0.1433194667137154,-0.485070135878511
2029188,1904.0,1,180729.0,218370,0.63,-0.22,9.96,-0.03,-0.01,-0.01,32.60000000000001,0.110702,-5.059544822056952,-493.1028706419334,9.982329387472646,0.033166247903554,-0.06742997811846102,-0.7015509525716469
2069191,1906.0,1,180722.0,219186,0.6,-0.22,9.96,-0.03,-0.01,-0.01,32.60000000000001,0.150705,-5.261987174570502,-371.8030484406329,9.980480950335009,0.033166247903554,-0.07016815220194615,-0.5304028375346325
2109188,1904.0,1,181113.0,220103,0.63,-0.23,9.98,-0.03,-0.01,-0.01,32.60000000000001,0.190702,-19.612668201718,-71.8975844291191,10.002509685074042,0.033166247903554,-0.2642711271032436,-0.10725089944117798
2149191,1893.0,1,181460.0,220762,0.62,-0.21,9.98,-0.03,-0.01,-0.01,32.60000000000001,0.230705,-30.03355375203712,240.36173391384756,10.001444895613833,0.033166247903554,-0.4052208759406995,0.33333172275304307
2189188,1914.0,1,181624.0,220855,0.65,-0.23,9.95,-0.03,-0.01,-0.01,32.60000000000001,0.270702,-20.05518609824397,456.81465115939415,9.973860837208427,0.033166247903554,-0.27025649044594957,0.6387361999282866
2229191,1917.0,1,181589.0,220800,0.62,-0.23,9.96,-0.03,-0.01,-0.01,32.60000000000001,0.310705,-16.965485152417575,579.7299529843413,9.98192867135405,0.033166247903554,-0.22846612913795647,0.8121636776836485
2269188,1925.0,1,181548.0,220684,0.62,-0.24,9.97,-0.03,-0.01,-0.01,32.60000000000001,0.350702,-15.076651963840018,664.0598712322613,9.99214191252306,0.033166247903554,-0.2029183422209698,0.9311490668411465
2309191,1933.0,1,181563.0,220863,0.62,-0.23,9.96,-0.03,-0.01,-0.01,32.60000000000001,0.390705,-9.426046204362375,718.1750927993048,9.98192867135405,0.033166247903554,-0.12648995629042228,1.0075029971102263
2349188,1931.0,1,181737.0,221222,0.63,-0.22,9.97,-0.03,-0.01,-0.01,32.60000000000001,0.430702,-11.85481392872459,670.0244615439491,9.99230704091903,0.033166247903554,-0.1593407345741249,0.9395648119781781
2389191,1935.0,1,181799.0,220976,0.62,-0.23,9.95,-0.03,-0.01,-0.01,32.60000000000001,0.470705,-11.309811303498007,439.5537614374626,9.971950661731134,0.033166247903554,-0.15196919376115736,0.6143819289478408
2429188,1924.0,1,180966.0,218055,0.63,-0.22,9.99,-0.03,-0.01,-0.01,32.60000000000001,0.510702,-19.102061173039385,46.16020317195574,10.01226248157728,0.033166247903554,-0.2573648107350836,0.05932286337796939
2469191,1920.0,1,180269.0,217023,0.62,-0.23,9.95,-0.03,-0.01,-0.01,32.60000000000001,0.550705,-24.937672419841917,-364.03019755312596,9.971950661731134,0.033166247903554,-0.33629552497986887,-0.5194357251867436
2509188,1931.0,1,180217.0,217049,0.63,-0.22,9.99,-0.03,-0.01,-0.01,32.60000000000001,0.590702,-9.327032255820622,-609.8209138901693,10.01226248157728,0.033166247903554,-0.12515072354374485,-0.8662344016503557
2549191,1936.0,1,180251.0,217573,0.63,-0.23,9.94,-0.03,-0.01,-0.01,32.60000000000001,0.630705,-2.491817513165039,-604.6531414461477,9.962600062232749,0.033166247903554,-0.03269967448699,-0.8589429275436028
2589188,1936.0,1,180452.0,218227,0.62,-0.23,9.98,-0.03,-0.01,-0.01,32.60000000000001,0.670702,1.7393717536780688,-406.7956310706614,10.001884822372231,0.033166247903554,0.024530112901569544,-0.5797756597591166
2629191,1939.0,1,180758.0,218684,0.65,-0.24,9.96,-0.03,-0.01,-0.01,32.60000000000001,0.710705,12.002402757656567,-151.89435106665115,9.984072315443234,0.033166247903554,0.16334476884772323,-0.22012242365782883
2669188,1946.0,1,180853.0,218778,0.64,-0.21,9.95,-0.03,-0.01,-0.01,32.60000000000001,0.750702,21.3755277136421,61.2493565818354,9.972772934344789,0.033166247903554,0.29012282451188837,0.08061292066527144
2709191,1954.0,1,180923.0,218891,0.63,-0.22,9.96,-0.03,-0.01,-0.01,32.60000000000001,0.790705,41.95945684957328,225.74566924374645,9.982329387472646,0.033166247903554,0.5685348296901475,0.3127091705336707
2749188,1954.0,1,180900.0,219046,0.64,-0.23,9.95,-0.03,-0.01,-0.01,32.60000000000001,0.830702,45.0139431780648,380.0195388369788,9.973214125847294,0.033166247903554,0.6098488887256714,0.5303820533226515
2789192,1951.0,1,180984.0,219388,0.61,-0.23,9.97,-0.03,-0.01,-0.01,32.60000000000001,0.870706,53.23852371855546,516.7999706590459,9.991291207846961,0.033166247903554,0.7210920797076593,0.7233725512101634
2829188,1956.0,1,181140.0,219847,0.62,-0.23,9.99,-0.03,-0.01,-0.01,32.60000000000001,0.910702,71.52002292197015,549.6263534910848,10.011862963504845,0.033166247903554,0.968362113396355,0.7696889714919949
2869191,1963.0,1,181302.0,219902,0.62,-0.22,9.95,-0.03,-0.01,-0.01,32.60000000000001,0.950705,76.97810794661886,383.1411902541231,9.971725026293093,0.033166247903554,1.0421865220459785,0.5347865507584371
2909189,1965.0,1,180634.0,217240,0.63,-0.21,9.95,-0.03,-0.01,-0.01,32.60000000000001,0.990703,110.48806604817626,24.47412724607048,9.972136180377802,0.033166247903554,1.495432088860936,0.028724871147564886
2949191,1963.0,1,179818.0,215931,0.63,-0.24,10.000000000000004,-0.03,-0.01,-0.01,32.60000000000001,1.030705,92.33299297638739,-380.61938605515155,10.022699237231459,0.033166247903554,1.2498720568235493,-0.542842258606089
2989875,1919.0,1,179629.0,215980,0.63,-0.22,9.98,-0.03,-0.01,-0.01,32.60000000000001,1.071389,89.01700065457185,-637.0450197254406,10.002284738998386,0.033166247903554,1.2050209467475423,-0.9046462831578368
3028194,2062.0,1,179781.0,216269,0.62,-0.24,9.97,-0.03,-0.01,-0.01,32.60000000000001,1.109708,218.88218190895523,-640.609940769383,9.99214191252306,0.033166247903554,2.961538144076852,-0.9096762123519125
3068188,2126.0,1,180008.0,216862,0.63,-0.22,9.96,-0.03,-0.01,-0.01,32.60000000000001,1.149702,308.6833997199576,-442.6544491740021,9.982329387472646,0.033166247903554,4.176162278910656,-0.6303706978594786
3108191,2135.0,1,180198.0,217447,0.63,-0.23,9.93,-0.03,-0.01,-0.01,32.60000000000001,1.189705,328.62396715336035,-186.56230782432007,9.952622769903419,0.033166247903554,4.4458723681197645,-0.26903721465738356
3148191,2053.0,1,180342.0,217704,0.64,-0.24500000000000002,9.95,-0.03,-0.01,-0.01,32.60000000000001,1.229705,244.2943115563378,16.72136742456707,9.973571326260217,0.033166247903554,3.3052549303257663,0.017786106310935277
3188191,1786.0,1,180391.0,217843,0.62,-0.23,9.95,-0.03,-0.01,-0.01,32.60000000000001,1.269705,11.131691590960372,158.92756024222268,9.971950661731134,0.033166247903554,0.15156779272960066,0.21843208753044474
3228210,1651.0,1,180409.0,217900,0.63,-0.23,9.92,-0.03,-0.01,-0.01,32.60000000000001,1.309724,-142.0198047885387,294.40747658967354,9.942645523199547,0.033166247903554,-1.9199130660261978,0.4095876217055807
3268191,1564.75,1,180420.0,218250,0.6,-0.23,9.94,-0.03,-0.01,-0.01,32.60000000000001,1.349705,-192.22719050883924,438.6958585753489,9.960747963883033,0.033166247903554,-2.599002992970547,0.6131714699787258
3308188,1564.75,1,180629.0,218755,0.62,-0.21,9.96,-0.03,-0.01,-0.01,32.60000000000001,1.389702,-206.94212152672506,512.2015085265224,9.981487865042967,0.033166247903554,-2.7980327031728613,0.7168843461017964
3348191,1564.75,1,180700.0,219005,0.61,-0.24,9.98,-0.03,-0.01,-0.01,32.60000000000001,1.429705,-182.78328016025682,394.5835627618744,10.001504886765792,0.033166247903554,-2.4712675154769497,0.5509311785964158
3388188,1564.75,1,180403.0,216631,0.63,-0.22,9.96,-0.03,-0.01,-0.01,32.60000000000001,1.469702,-190.1863123269616,47.54857512448842,9.982329387472646,0.033166247903554,-2.5713986914210794,0.06128178828267283
3428215,1564.75,1,179451.0,214576,0.61,-0.23,9.96,-0.03,-0.01,-0.01,32.60000000000001,1.509729,-174.97167884572352,-412.5490344581268,9.981312538939957,0.033166247903554,-2.365610156705929,-0.587893430477512
3468188,1604.0,1,179030.0,214069,0.63,-0.22,9.96,-0.03,-0.01,-0.01,32.60000000000001,1.549702,-143.72509659665351,-774.0728971422179,9.982329387472646,0.033166247903554,-1.9429783276959216,-1.0979859146742388
3508192,1564.75,1,179115.0,214311,0.62,-0.21,9.93,-0.03,-0.01,-0.01,32.60000000000001,1.589706,-169.97818933258992,-879.0806341250635,9.951552642678427,0.033166247903554,-2.2980697265476593,-1.2461466944904842
3548188,1564.75,1,179243.0,214986,0.62,-0.22,9.97,-0.03,-0.01,-0.01,32.60000000000001,1.629702,-182.6647915045287,-730.4733076710994,9.991681540161297,0.033166247903554,-2.4696648737259848,-1.0364690268589687
3588191,1608.0,1,179669.0,215793,0.64,-0.21,9.95,-0.03,-0.01,-0.01,32.60000000000001,1.669705,-129.32945001991106,-463.72795235301953,9.972772934344789,0.033166247903554,-1.7482671623590664,-0.6601043799116251
3628188,1703.0,1,179817.0,216271,0.64,-0.21,9.94,-0.03,-0.01,-0.01,32.60000000000001,1.709702,-48.28809548482948,-216.17983436234837,9.962795792346643,0.033166247903554,-0.6521262910281101,-0.3108260956883068
3668191,1742.0,1,179989.0,216673,0.63,-0.21,9.96,-0.03,-0.01,-0.01,32.60000000000001,1.749705,-6.897931649702355,-18.662724412309256,9.982114004558355,0.033166247903554,-0.09229544280200434,-0.03213911625145249
3708188,1758.0,1,179971.0,216880,0.62,-0.21,9.96,-0.03,-0.01,-0.01,32.60000000000001,1.789702,-2.3154176510702804,191.93222602924675,9.981487865042967,0.033166247903554,-0.03031374325905739,0.2650000563400086
3748191,1770.0,1,180180.0,217569,0.64,-0.22,9.95,-0.03,-0.01,-0.01,32.60000000000001,1.829705,2.6640510023712896,457.9307413251832,9.972988518994693,0.033166247903554,0.037037044988020275,0.6403109485521481
3788189,1770.0,1,180489.0,218715,0.63,-0.22,9.96,-0.03,-0.01,-0.01,32.60000000000001,1.869703,-6.352561412326335,703.9800047003341,9.982329387472646,0.033166247903554,-0.08491892977819326,0.987474422238192
3828191,1789.0,1,180849.0,219585,0.63,-0.22,9.96,-0.03,-0.01,-0.01,32.60000000000001,1.909705,-1.992912809947952,766.9618637663435,9.982329387472646,0.033166247903554,-0.025951640236664655,1.076338744254971
3868188,1820.0,1,180941.0,217500,0.64,-0.23,9.95,-0.03,-0.01,-0.01,32.60000000000001,1.949702,21.053380305292244,539.5942504964863,9.973214125847294,0.033166247903554,0.28576555601716247,0.7555341649455075
3908191,1849.0,1,179741.0,215291,0.64,-0.23,9.96,-0.03,-0.01,-0.01,32.60000000000001,1.989705,29.212488359923114,93.245123527297,9.983190872661908,0.033166247903554,0.3961231859407219,0.12575738256556807
3948191,1873.0,1,179229.0,214849,0.63,-0.21,9.96,-0.03,-0.01,-0.01,32.60000000000001,2.029705,46.358264671795496,-347.5641331320525,9.982114004558355,0.033166247903554,0.6280317750056511,-0.4962029138222885
3988191,1914.0,1,179273.0,214918,0.6,-0.24,9.98,-0.03,-0.01,-0.01,32.60000000000001,2.069705,61.45063759000922,-565.8567244680643,10.000899959503645,0.033166247903554,0.8321666502915911,-0.8042030811407791
4028875,1915.0,1,179465.0,215496,0.61,-0.23,9.96,-0.03,-0.01,-0.01,32.60000000000001,2.110389,55.62410178874411,-502.7703837401337,9.981312538939957,0.033166247903554,0.753358687780611,-0.7151913406103598
4069191,1936.0,1,179762.0,216341,0.61,-0.205,9.94,-0.03,-0.01,-0.01,32.60000000000001,2.150705,49.48451488409424,-267.37300928758765,9.960809455059362,0.033166247903554,0.6703164906470255,-0.383057161094773
4109188,1939.0,1,179981.0,216803,0.63,-0.22,9.98,-0.03,-0.01,-0.01,32.60000000000001,2.190702,42.08368968059169,-14.890223831442592,10.002284738998386,0.033166247903554,0.5702151654202405,-0.026816302485741555
4149191,1959.0,1,180068.0,216919,0.62,-0.21,9.98,-0.03,-0.01,-0.01,32.60000000000001,2.230705,38.741440304928126,180.24742786266958,10.001444895613833,0.033166247903554,0.5250089103685768,0.2485133777570931
4189188,1967.0,1,180116.0,217095,0.63,-0.22,9.99,-0.03,-0.01,-0.01,32.60000000000001,2.270702,30.63458954390906,342.73832490081446,10.01226248157728,0.033166247903554,0.41535809680663477,0.47778008428697233
4229191,1968.0,1,180252.0,217451,0.62,-0.23,9.95,-0.03,-0.01,-0.01,32.60000000000001,2.310705,13.370006162348544,507.7204551242773,9.971950661731134,0.033166247903554,0.1818425592197402,0.7105617989681187
4269188,1968.0,1,180421.0,217933,0.64,-0.23,9.96,-0.03,-0.01,-0.01,32.60000000000001,2.350702,-5.529628183815495,630.324574875979,9.983190872661908,0.033166247903554,-0.07378818361381881,0.8835502140414193
4309191,1945.0,1,180617.0,218577,0.64,-0.23,9.95,-0.03,-0.01,-0.01,32.60000000000001,2.390705,-44.85807772034062,596.4891353559512,9.973214125847294,0.033166247903554,-0.605732907272167,0.8358100641367349
4349188,1924.0,1,180669.0,217111,0.63,-0.22,9.96,-0.03,-0.01,-0.01,32.60000000000001,2.430702,-82.39230803100169,333.3738065472531,9.982329387472646,0.033166247903554,-1.1134095638815371,0.4645672070101879
4389191,1921.0,1,179575.0,214750,0.63,-0.23,9.96,-0.03,-0.01,-0.01,32.60000000000001,2.470705,-102.23404136263586,-89.74801453209632,9.982554783220577,0.033166247903554,-1.381782852897073,-0.13243698305846935
4429189,1915.0,1,179213.0,214289,0.62,-0.24,9.96,-0.03,-0.01,-0.01,32.60000000000001,2.510703,-120.54544097188183,-479.71857115951553,9.982164094022899,0.033166247903554,-1.6294573104393566,-0.6826663607731096
4469191,1927.0,1,179172.0,214466,0.61,-0.23,9.96,-0.03,-0.01,-0.01,32.60000000000001,2.550705,-124.00407259497257,-652.349331194709,9.981312538939957,0.033166247903554,-1.6762377165998479,-0.9262399179412235
4509188,1949.0,1,179353.0,215200,0.62,-0.23,9.95,-0.03,-0.01,-0.01,32.60000000000001,2.590702,-112.08170837925205,-561.8303378738558,9.971950661731134,0.033166247903554,-1.5149794210701537,-0.7985220466305596
4549192,1970.0,1,179683.0,216126,0.62,-0.21,9.97,-0.03,-0.01,-0.01,32.60000000000001,2.630706,-101.65849775227099,-313.06715057588536,9.991466358848434,0.033166247903554,-1.3739982239483897,-0.4475293590568515
4589188,1990.0,1,179948.0,216628,0.62,-0.21,9.97,-0.03,-0.01,-0.01,32.60000000000001,2.670702,-90.65980954442213,-56.5289769180308,9.991466358848434,0.033166247903554,-1.2252332909729657,-0.08556654608819947
4629191,2035.0,1,180017.0,216826,0.62,-0.22,9.95,-0.03,-0.01,-0.01,32.60000000000001,2.710705,-51.153551619279334,129.7068784645079,9.971725026293093,0.033166247903554,-0.6908835847825825,0.17720313504234533
4669188,2096.0,1,180050.0,217073,0.63,-0.21,9.97,-0.03,-0.01,-0.01,32.60000000000001,2.750702,4.719519888401276,265.463546350992,9.99209187307643,0.033166247903554,0.06483869599264722,0.3687491521001398
4709191,2145.0,1,180113.0,217337,0.63,-0.21,9.98,-0.03,-0.01,-0.01,32.60000000000001,2.790705,50.09472836035442,391.6992981858108,10.002069785799337,0.033166247903554,0.6785700537248264,0.5468616223802318
4749188,2193.0,1,180186.0,217746,0.63,-0.23,9.97,-0.03,-0.01,-0.01,32.60000000000001,2.830702,100.06452356590756,480.92430556917174,9.992532211606825,0.033166247903554,1.3544464031648356,0.6727537428359714
4789191,2226.0,1,180380.0,218176,0.61,-0.24,9.96,-0.03,-0.01,-0.01,32.60000000000001,2.870705,131.07894199522693,435.58671175392965,9.981547976140776,0.033166247903554,1.7739380545071213,0.608784615915773
4829188,2252.0,1,180486.0,217012,0.65,-0.23,9.95,-0.03,-0.01,-0.01,32.60000000000001,2.910702,162.46462668844669,185.56511527694582,9.973860837208427,0.033166247903554,2.198451341140947,0.2560163745529093
4869236,2285.0,1,179432.0,214697,0.61,-0.24,9.95,-0.03,-0.01,-0.01,32.60000000000001,2.95075,202.94187181307524,-211.36147266924425,9.971569585576786,0.033166247903554,2.7459343267662732,-0.3040276230576315
4909188,2289.0,1,178975.0,214067,0.63,-0.23,9.98,-0.03,-0.01,-0.01,32.60000000000001,2.990702,205.38831278212993,-576.1910774513552,10.002509685074042,0.033166247903554,2.7790241480169597,-0.8187843476349886
4949191,2270.0,1,179026.0,214264,0.63,-0.23,9.99,-0.03,-0.01,-0.01,32.60000000000001,3.030705,212.0795817293423,-729.8462916738459,10.012487203487453,0.033166247903554,2.869528229743927,-1.0355843379609926
4989188,2265.0,1,179197.0,215062,0.62,-0.23,9.94,-0.03,-0.01,-0.01,32.60000000000001,3.070702,194.2613706203103,-620.6078971843824,9.961972696208315,0.033166247903554,2.6285244908175436,-0.881454307370222
5029878,2197.0,1,179476.0,216113,0.63,-0.21,9.95,-0.03,-0.01,-0.01,32.60000000000001,3.111392,165.8667108376298,-343.8297537231359,9.972136180377802,0.033166247903554,2.244466903257601,-0.4909338871652794
5068209,2255.0,1,179863.0,216759,0.62,-0.24,9.99,-0.03,-0.01,-0.01,32.60000000000001,3.149723,210.91812470092816,-45.73798896383789,10.012097682304143,0.033166247903554,2.853818712961502,-0.070340989989013
5108191,2222.0,1,179969.0,216894,0.64,-0.22,9.96,-0.03,-0.01,-0.01,32.60000000000001,3.189705,214.00107798500673,191.1101218346013,9.982965491275626,0.033166247903554,2.8955178074357883,0.2638401075393905
5148191,2158.0,1,179975.0,217151,0.63,-0.23,9.94,-0.03,-0.01,-0.01,32.60000000000001,3.229705,153.270703562867,376.3461592404171,9.962600062232749,0.033166247903554,2.0740971152813557,0.5251990944167132
5188191,2101.0,1,180093.0,217421,0.62,-0.21,9.96,-0.03,-0.01,-0.01,32.60000000000001,3.269705,115.44373817306825,540.3165889353088,9.981487865042967,0.033166247903554,1.5624610124539906,0.7565533491452839
5228188,2037.0,1,180175.0,217852,0.62,-0.22,9.95,-0.03,-0.01,-0.01,32.60000000000001,3.309702,75.01261319544842,648.4684513007908,9.971725026293093,0.033166247903554,1.0156018339999298,0.9091503360631791
5268191,1995.0,1,180413.0,218418,0.63,-0.23,9.96,-0.03,-0.01,-0.01,32.60000000000001,3.349705,37.56521109651415,601.7619683806421,9.982554783220577,0.033166247903554,0.5090995895435195,0.8432497735831604
5308188,1925.0,1,180407.0,217042,0.62,-0.23,9.98,-0.03,-0.01,-0.01,32.60000000000001,3.389702,0.8374730643339061,334.07311864791916,10.001884822372231,0.033166247903554,0.012331303776754081,0.46555390217329334
5348191,1871.0,1,179373.0,214592,0.62,-0.22,9.95,-0.03,-0.01,-0.01,32.60000000000001,3.429705,-51.029726674581674,-90.34113691878052,9.971725026293093,0.033166247903554,-0.6892087659996037,-0.1332738497300362
5388188,1807.0,1,178841.0,213938,0.62,-0.24,9.95,-0.03,-0.01,-0.01,32.60000000000001,3.469702,-86.72815367961311,-488.1546485566303,9.97218631996013,0.033166247903554,-1.172054901863494,-0.6945692532804582
5428191,1763.0,1,178871.0,214022,0.62,-0.23,9.96,-0.03,-0.01,-0.01,32.60000000000001,3.509705,-120.17203031810844,-680.2986900404119,9.98192867135405,0.033166247903554,-1.6244066707784135,-0.9656750959664381
5468191,1714.0,1,178984.0,214590,0.62,-0.21,9.95,-0.03,-0.01,-0.01,32.60000000000001,3.549705,-154.98064784252128,-616.4145973855635,9.971509414326398,0.033166247903554,-2.095217512501439,-0.8755377664938311
5508192,1691.0,1,179274.0,215329,0.63,-0.24,9.99,-0.03,-0.01,-0.01,32.60000000000001,3.589706,-156.42657152858746,-389.14088909690145,10.012721907653283,0.033166247903554,-2.1147746393315012,-0.5548656825189234
5548205,1677.0,1,179504.0,215876,0.62,-0.24,9.97,-0.03,-0.01,-0.01,32.60000000000001,3.629719,-169.38554282811123,-136.32860380959661,9.99214191252306,0.033166247903554,-2.290053769021563,-0.19815991576753367
5588191,1616.0,1,179592.0,216022,0.64,-0.205,9.96,-0.03,-0.01,-0.01,32.60000000000001,3.669705,-205.45792242451137,68.31922053008034,9.982646192267861,0.033166247903554,-2.777957874630541,0.09058815283257213
5628188,1616.0,1,179641.0,216201,0.62,-0.22,9.96,-0.03,-0.01,-0.01,32.60000000000001,3.709702,-207.7171285386082,236.66788358523763,9.981703261467954,0.033166247903554,-2.808515213814085,0.32811988064563014
5668191,1612.0,1,179732.0,216510,0.63,-0.23,9.97,-0.03,-0.01,-0.01,32.60000000000001,3.749705,-195.83485669163755,393.42149916279527,9.992532211606825,0.033166247903554,-2.647799195548478,0.549291563707241
5708191,1618.0,1,179830.0,216906,0.64,-0.23,9.96,-0.03,-0.01,-0.01,32.60000000000001,3.789705,-185.94507461517364,496.5201871430963,9.983190872661908,0.033166247903554,-2.5140329918027633,0.6947587687731741
5748191,1626.0,1,179976.0,217236,0.62,-0.24,9.97,-0.03,-0.01,-0.01,32.60000000000001,3.829705,-176.82252476966073,444.51547687390166,9.99214191252306,0.033166247903554,-2.390644139360867,0.6213826666973765
5788188,1629.0,1,180004.0,215994,0.62,-0.24,9.97,-0.03,-0.01,-0.01,32.60000000000001,3.869702,-165.05526224133175,176.06010244365635,9.99214191252306,0.033166247903554,-2.2314837023842236,0.2426052664383363
5828191,1667.0,1,179067.0,213595,0.63,-0.24,9.97,-0.03,-0.01,-0.01,32.60000000000001,3.909705,-133.8635554372962,-235.02164799278674,9.992767384463626,0.033166247903554,-1.8095941020607902,-0.3374109729635324
5868188,1696.0,1,178532.0,212924,0.62,-0.22,9.97,-0.03,-0.01,-0.01,32.60000000000001,3.949702,-102.33946548643684,-595.2649418286363,9.991681540161297,0.033166247903554,-1.3832087877371981,-0.8456966371618921
5908191,1730.0,1,178576.0,213244,0.61,-0.23,9.95,-0.03,-0.01,-0.01,32.60000000000001,3.989705,-71.2511489538777,-720.9574020776492,9.97133391277215,0.033166247903554,-0.9627176129819631,-1.023042549592692
5948188,1771.0,1,178809.0,214109,0.62,-0.23,9.98,-0.03,-0.01,-0.01,32.60000000000001,4.029702,-42.82858085757649,-569.8838601057604,10.001884822372231,0.033166247903554,-0.5782825460056766,-0.8098851725147159
5988191,1795.0,1,179177.0,215193,0.62,-0.23,9.98,-0.03,-0.01,-0.01,32.60000000000001,4.069705,-14.132711876821773,-257.9197177608314,10.001884822372231,0.033166247903554,-0.19015089385582068,-0.36971902921346866
6028189,1833.0,1,179513.0,215882,0.62,-0.23,9.97,-0.03,-0.01,-0.01,32.60000000000001,4.109703,-0.25982445037930285,48.29667836631306,9.991906724944943,0.033166247903554,-0.002510410811892868,0.06233732535904946
6068878,1813.0,1,179631.0,215982,0.62,-0.23,9.94,-0.03,-0.01,-0.01,32.60000000000001,4.150392,-16.467096679648517,258.9834467655326,9.961972696208315,0.033166247903554,-0.22172507726467006,0.3596060485969624
6109188,1854.0,1,179574.0,215994,0.63,-0.23,9.97,-0.03,-0.01,-0.01,32.60000000000001,4.190702,1.4183704418294345,395.465911143178,9.992532211606825,0.033166247903554,0.020188346161777133,0.5521761289972125
6149191,1888.0,1,179607.0,216240,0.63,-0.22,9.97,-0.03,-0.01,-0.01,32.60000000000001,4.230705,27.396215321535607,512.6599362969283,9.99230704091903,0.033166247903554,0.37155682568805387,0.7175311652591682
6189188,1890.0,1,179767.0,216700,0.62,-0.23,9.95,-0.03,-0.01,-0.01,32.60000000000001,4.270702,15.666045074730642,599.7577409472347,9.971950661731134,0.033166247903554,0.21289808770228572,0.8404219067231092
6229191,1917.0,1,179961.0,217262,0.64,-0.22,9.98,-0.03,-0.01,-0.01,32.60000000000001,4.310705,21.579969976290958,568.0000807687471,10.00291957380444,0.033166247903554,0.2928880487755053,0.7956134018226303
6269188,1946.0,1,179990.0,215997,0.63,-0.22,9.96,-0.03,-0.01,-0.01,32.60000000000001,4.350702,43.17781607694402,343.41983694688247,9.982329387472646,0.033166247903554,0.5850139884202272,0.4787416644438335
6309191,1985.0,1,179051.0,213858,0.62,-0.23,9.96,-0.03,-0.01,-0.01,32.60000000000001,4.390705,56.87706835306009,-30.41123334430341,9.98192867135405,0.033166247903554,0.7703059348921253,-0.048715687607587335
6349189,2017.0,1,178595.0,213201,0.64,-0.23,9.96,-0.03,-0.01,-0.01,32.60000000000001,4.430703,78.70602406142,-391.39559047742307,9.983190872661908,0.033166247903554,1.0655577932510398,-0.5580469558649572
6389192,2064.0,1,178555.0,213408,0.6,-0.24500000000000002,9.97,-0.03,-0.01,-0.01,32.60000000000001,4.470706,106.32465589652351,-569.5654359387128,9.99104223792493,0.033166247903554,1.4391190613020832,-0.809435891592589
6429187,2096.0,1,178706.0,214131,0.62,-0.205,9.99,-0.03,-0.01,-0.01,32.60000000000001,4.510701,119.33704780765301,-505.79749768642114,10.011319843057658,0.033166247903554,1.615120742041402,-0.7194624502996187
6469191,2108.0,1,179089.0,215030,0.62,-0.24500000000000002,9.97,-0.03,-0.01,-0.01,32.60000000000001,4.550705,121.93717573474902,-270.9345215621089,9.992263257140497,0.033166247903554,1.6502892866434695,-0.38808228068195544
6509195,2143.0,1,179319.0,215422,0.62,-0.22,9.96,-0.03,-0.01,-0.01,32.60000000000001,4.590709,130.44694691695906,18.0612196771701,9.981703261467954,0.033166247903554,1.765389880062807,0.019676572292662394
6549191,2147.0,1,179431.0,215699,0.61,-0.22,9.94,-0.03,-0.01,-0.01,32.60000000000001,4.630705,131.83949757038698,290.08755315767695,9.961129454032811,0.033166247903554,1.7842250993823483,0.40349242107731037
6589188,2158.0,1,179541.0,216014,0.62,-0.23,9.99,-0.03,-0.01,-0.01,32.60000000000001,4.670702,115.70522042243037,530.7289270323085,10.011862963504845,0.033166247903554,1.5659977423408202,0.7430256272366108
6629191,2142.0,1,179732.0,216396,0.62,-0.22,9.97,-0.03,-0.01,-0.01,32.60000000000001,4.710705,97.38301014373698,717.6432715892336,9.991681540161297,0.033166247903554,1.3181770629504967,1.0067526233999553
6669188,2158.0,1,179838.0,216609,0.64,-0.23,9.96,-0.03,-0.01,-0.01,32.60000000000001,4.750702,92.84688690477702,769.5445681866324,9.983190872661908,0.033166247903554,1.256822830803923,1.0799828138439327
6709224,2160.0,1,179907.0,216890,0.62,-0.22,9.96,-0.03,-0.01,-0.01,32.60000000000001,4.790738,88.12255557324193,584.2047220287806,9.981703261467954,0.033166247903554,1.192922952872301,0.8184773578958984
6749191,2145.0,1,179554.0,214625,0.62,-0.22,9.97,-0.03,-0.01,-0.01,32.60000000000001,4.830705,62.596865178420764,142.7790326878055,9.991681540161297,0.033166247903554,0.8476701782707676,0.19564730515067175
6789191,2119.0,1,178486.0,212197,0.62,-0.21,9.95,-0.03,-0.01,-0.01,32.60000000000001,4.870705,25.09312256729496,-424.7875357292467,9.971509414326398,0.033166247903554,0.3404058890721496,-0.6051613570533172
6829188,2097.0,1,177975.0,211332,0.63,-0.21,9.95,-0.03,-0.01,-0.01,32.60000000000001,4.910702,1.6620057004555262,-894.2917920280385,9.972136180377802,0.033166247903554,0.023483683045142544,-1.2676088941489816
6869191,2109.0,1,177941.0,211707,0.61,-0.22,9.96,-0.03,-0.01,-0.01,32.60000000000001,4.950705,-0.1231947960903491,-1088.348913543669,9.981087115139314,0.033166247903554,-0.0006623993964727324,-1.541413999170421
6909208,2095.0,1,178149.0,212516,0.62,-0.21,9.97,-0.03,-0.01,-0.01,32.60000000000001,4.990722,-8.921149493440106,-983.2095551951905,9.991466358848434,0.033166247903554,-0.11966087595461798,-1.3930675080462953
6949191,2102.0,1,178501.0,213502,0.61,-0.23,9.95,-0.03,-0.01,-0.01,32.60000000000001,5.030705,-15.792179391260827,-692.8522892958804,9.97133391277215,0.033166247903554,-0.21259634997705593,-0.9833876103833015
6989189,2100.0,1,178792.0,214104,0.64,-0.23,9.97,-0.03,-0.01,-0.01,32.60000000000001,5.070703,-7.540186400109304,-358.7288956647787,9.993167665960579,0.033166247903554,-0.10098238647127344,-0.5119558475664195
7029191,2097.0,1,178929.0,214432,0.62,-0.22,9.99,-0.03,-0.01,-0.01,32.60000000000001,5.110705,-23.27872823382254,-54.782674584716375,10.011638227582937,0.033166247903554,-0.31385714724069214,-0.08310259892646736
7069875,2075.0,1,179090.0,214882,0.62,-0.205,9.96,-0.03,-0.01,-0.01,32.59,5.151389,-31.95442014252031,212.23858765195027,9.981383922082149,0.033166247903554,-0.4312019342664601,0.2936513391854044
7108191,2109.0,1,179273.0,215510,0.63,-0.23,9.94,-0.03,-0.01,-0.01,32.59,5.189705,-6.876850147219443,430.1988689167217,9.962600062232749,0.033166247903554,-0.09201030077009789,0.6011826332502623
7148188,2103.0,1,179498.0,216099,0.62,-0.22,9.96,-0.03,-0.01,-0.01,32.59,5.229702,-0.7164251778884115,532.1603846520889,9.981703261467954,0.033166247903554,-0.008686254270747255,0.7450453439100136
7188191,2101.0,1,179692.0,216441,0.62,-0.23,9.98,-0.03,-0.01,-0.01,32.59,5.269705,-3.91122553228849,436.5865052777219,10.001884822372231,0.033166247903554,-0.05189815841882771,0.6101952756671064
7228188,2096.0,1,179254.0,214164,0.62,-0.24500000000000002,9.96,-0.03,-0.01,-0.01,32.59,5.309702,-1.5205217778520024,142.30482633667688,9.982285559930652,0.033166247903554,-0.019562221889684372,0.1949782231878016
7268191,2074.0,1,178491.0,212788,0.62,-0.23,9.96,-0.03,-0.01,-0.01,32.59,5.349705,-16.194712332644457,-225.33700791225792,9.98192867135405,0.033166247903554,-0.21804088889967058,-0.3237464195906202
7308188,2059.0,1,178256.0,212637,0.61,-0.22,9.96,-0.03,-0.01,-0.01,32.59,5.389702,-27.671755331898385,-479.75315803377975,9.981087115139314,0.033166247903554,-0.3732759042282849,-0.6827151611606775
7348191,2055.0,1,178385.0,213187,0.64,-0.21,9.95,-0.03,-0.01,-0.01,32.59,5.429705,-19.699382273631596,-500.2737807853393,9.972772934344789,0.033166247903554,-0.26544399543558217,-0.711668755977055
7388188,2059.0,1,178641.0,213965,0.61,-0.23,9.94,-0.03,-0.01,-0.01,32.59,5.469702,-11.870807832225864,-307.2377447824061,9.961355329471989,0.033166247903554,-0.15955706327964128,-0.439304352661672
7428192,2035.0,1,178937.0,214670,0.62,-0.22,9.97,-0.03,-0.01,-0.01,32.59,5.509706,-24.364215870810686,-22.188307054318745,9.991681540161297,0.033166247903554,-0.3285391249920894,-0.03711354088486859
7468188,2012.0,1,179166.0,215024,0.6,-0.23,9.94,-0.03,-0.01,-0.01,32.59,5.549702,-39.91925836602992,239.85435818849862,9.960747963883033,0.033166247903554,-0.5389319291612097,0.3326158404258217
7508191,2004.0,1,179200.0,215057,0.62,-0.24500000000000002,9.96,-0.03,-0.01,-0.01,32.59,5.589705,-39.632465450043085,442.1348596068665,9.982285559930652,0.033166247903554,-0.5350528548463144,0.6180237321953829
7548191,1985.0,1,179242.0,215247,0.61,-0.23,9.96,-0.03,-0.01,-0.01,32.59,5.629705,-47.22278369341629,603.7307420889733,9.981312538939957,0.033166247903554,-0.6377172056669652,0.846027616971555
7588191,1973.0,1,179342.0,215535,0.62,-0.22,9.96,-0.03,-0.01,-0.01,32.59,5.669705,-54.044379475610185,722.4492732135257,9.981703261467954,0.033166247903554,-0.7299840487800665,1.0135336565782018
7628188,1973.0,1,179486.0,215966,0.65,-0.24500000000000002,9.98,-0.03,-0.01,-0.01,32.59,5.709702,-40.54257478229117,736.2660816425949,10.00414539078676,0.033166247903554,-0.5473627186458514,1.0330284973417638
7668191,1968.0,1,179643.0,215604,0.61,-0.24,9.96,-0.03,-0.01,-0.01,32.59,5.749705,-41.636344243762444,573.372719265432,9.981547976140776,0.033166247903554,-0.5621567138525001,0.8031939319074721
7708188,1942.0,1,178946.0,213128,0.62,-0.21,9.97,-0.03,-0.01,-0.01,32.59,5.789702,-55.11957775490177,242.70920053940634,9.991466358848434,0.033166247903554,-0.7445268557886295,0.33664388332167067
7748191,1941.0,1,178319.0,212110,0.61,-0.23,9.97,-0.03,-0.01,-0.01,32.59,5.829705,-50.757272534074794,-133.97693351173237,9.991291207846961,0.033166247903554,-0.6855236336287761,-0.19484182402293024
7788188,1941.0,1,178132.0,212031,0.63,-0.24,9.93,-0.03,-0.01,-0.01,32.59,5.869702,-42.23053032712632,-392.5138640935808,9.952858885767446,0.033166247903554,-0.5701934952573477,-0.5596247852304728
7828171,1936.0,1,178190.0,212483,0.61,-0.23,9.97,-0.03,-0.01,-0.01,32.59,5.909685,-39.06491562506568,-438.5246568110069,9.991291207846961,0.033166247903554,-0.5273763474231178,-0.6245437628681979
7868188,1931.0,1,178349.0,213113,0.65,-0.24500000000000002,9.98,-0.03,-0.01,-0.01,32.59,5.949702,-39.19453389527971,-299.4412657034729,10.00414539078676,0.033166247903554,-0.5291295249763299,-0.4283039020915917
7908191,1926.0,1,178633.0,213635,0.65,-0.22,9.97,-0.03,-0.01,-0.01,32.59,5.989705,-36.58950546210681,-77.152462437363,9.99358794427707,0.033166247903554,-0.49389469760996396,-0.11466527523777136
7948188,1920.0,1,178734.0,213784,0.63,-0.23,9.97,-0.03,-0.01,-0.01,32.59,6.029702,-35.74807076502232,141.56940822191305,9.992532211606825,0.033166247903554,-0.4825137061726722,0.1939405842051407
7988191,1923.0,1,178816.0,213788,0.62,-0.22,9.96,-0.03,-0.01,-0.01,32.59,6.069705,-33.008207602258686,327.5082258221904,9.981703261467954,0.033166247903554,-0.445455144999941,0.4562911595562522
8028188,1921.0,1,178804.0,213886,0.63,-0.22,9.99,-0.03,-0.01,-0.01,32.59,6.109702,-19.421568316826168,472.9027554454027,10.01226248157728,0.033166247903554,-0.2616863678091982,0.661435728032292
8068191,1922.0,1,178872.0,214132,0.63,-0.22,9.97,-0.03,-0.01,-0.01,32.59,6.149705,-30.760290030866518,532.138331283284,9.99230704091903,0.033166247903554,-0.41505049123370447,0.7450142276854992
8108875,1909.0,1,179011.0,214444,0.62,-0.23,9.96,-0.03,-0.01,-0.01,32.59,6.190389,-19.71145426494836,422.06410960634395,9.98192867135405,0.033166247903554,-0.26560727754206437,0.5897048858225663
8147198,1987.0,1,178921.0,213187,0.62,-0.23,9.96,-0.03,-0.01,-0.01,32.59,6.228712,39.35294622827243,100.37842145495082,9.98192867135405,0.033166247903554,0.5332799546950694,0.13582211697457122
8187188,1970.0,1,178021.0,210683,0.63,-0.21,9.94,-0.03,-0.01,-0.01,32.59,6.268702,45.31808078964511,-354.03476200067684,9.962158400667999,0.033166247903554,0.6139625621517226,-0.5053326546073271
8227191,1968.0,1,177411.0,209674,0.62,-0.23,9.96,-0.03,-0.01,-0.01,32.59,6.308705,29.175530158172293,-755.2758734523576,9.98192867135405,0.033166247903554,0.3956233004723413,-1.0714642338140072
8267188,1971.0,1,177424.0,209943,0.65,-0.21,9.95,-0.03,-0.01,-0.01,32.59,6.348702,44.08709531184773,-927.8843192659593,9.973419674314322,0.033166247903554,0.5973126245739337,-1.3150063067070858
8307191,1976.0,1,177582.0,210600,0.61,-0.23,9.97,-0.03,-0.01,-0.01,32.59,6.388705,46.3616197685422,-828.7151992569761,9.991291207846961,0.033166247903554,0.628077155030361,-1.1750835298109217
8347217,1984.0,1,177946.0,211417,0.65,-0.24,9.97,-0.03,-0.01,-0.01,32.59,6.428731,53.188118149563586,-563.7595624793429,9.994048228820992,0.033166247903554,0.7204103092136731,-0.8012440881696163
8387191,1984.0,1,178193.0,211982,0.63,-0.24,9.96,-0.03,-0.01,-0.01,32.59,6.468705,60.3781763284068,-288.69733938842853,9.982790191123923,0.033166247903554,0.8176608633571848,-0.41314474766294895
8427188,1984.0,1,178349.0,212269,0.64,-0.24500000000000002,9.98,-0.03,-0.01,-0.01,32.59,6.508702,50.23916067768321,-87.77591569604748,10.003500637276932,0.033166247903554,0.680523601602615,-0.12965444807753324
8467191,1971.0,1,178374.0,212377,0.63,-0.21,9.95,-0.03,-0.01,-0.01,32.59,6.548705,49.43743984308998,61.35009826178141,9.972136180377802,0.033166247903554,0.6696797678681384,0.0807550622473078
8507191,1973.0,1,178451.0,212652,0.64,-0.21,9.98,-0.03,-0.01,-0.01,32.59,6.588705,37.657603098518216,214.75617368503882,10.00270463424768,0.033166247903554,0.5103492558424325,0.29720352991567245
8547214,1943.0,1,178583.0,213117,0.64,-0.23,9.96,-0.03,-0.01,-0.01,32.59,6.628728,19.989522570931108,362.12202794057436,9.983190872661908,0.033166247903554,0.2713761377922982,0.5051295410090663
8587188,1968.0,1,178816.0,213729,0.65,-0.21,9.95,-0.03,-0.01,-0.01,32.59,6.668702,32.16362166522613,406.4687483237629,9.973419674314322,0.033166247903554,0.4360393232171335,0.5677005939909963
8627191,1962.0,1,179055.0,213157,0.64,-0.22,9.95,-0.03,-0.01,-0.01,32.59,6.708705,35.16928249012178,253.1657360457859,9.972988518994693,0.033166247903554,0.4766929832457334,0.3513975433786867
8667188,1955.0,1,178261.0,211007,0.63,-0.24,9.95,-0.03,-0.01,-0.01,32.59,6.748702,18.496746283376762,-75.74083151708221,9.97281304346973,0.033166247903554,0.25118529683302365,-0.11267353306742355
8707191,1951.0,1,177726.0,210110,0.63,-0.21,9.97,-0.03,-0.01,-0.01,32.59,6.788705,19.903957726408475,-421.845787138734,9.99209187307643,0.033166247903554,0.2702188135623615,-0.6010106937049117
8747188,1963.0,1,177616.0,210333,0.62,-0.23,9.96,-0.03,-0.01,-0.01,32.59,6.828702,24.273524794581945,-597.8855924730395,9.98192867135405,0.033166247903554,0.3293202572749459,-0.849394247016718
8787191,1954.0,1,177888.0,211216,0.65,-0.22,9.94,-0.03,-0.01,-0.01,32.59,6.868705,19.103549048803863,-527.906559317201,9.963658966464077,0.033166247903554,0.2593927276667885,-0.7506572546668141
8827191,1965.0,1,178173.0,212235,0.64,-0.22,9.98,-0.03,-0.01,-0.01,32.59,6.908705,22.9110940253768,-291.7317969930797,10.00291957380444,0.033166247903554,0.31089243040739084,-0.4174262188949011
8867191,1969.0,1,178489.0,212836,0.65,-0.21,9.96,-0.03,-0.01,-0.01,32.59,6.948705,29.595907778583246,-38.9311987593403,9.983396215717375,0.033166247903554,0.4013092011309467,-0.06073694200435168
8907188,1971.0,1,178570.0,213141,0.62,-0.23,9.99,-0.03,-0.01,-0.01,32.59,6.988702,26.38677118089967,139.90260493547078,10.011862963504845,0.033166247903554,0.3579033892885226,0.19158880630938518
8947191,1985.0,1,178575.0,213270,0.64,-0.23,9.95,-0.03,-0.01,-0.01,32.59,7.028705,38.58489842194578,264.2442469255737,9.973214125847294,0.033166247903554,0.5228915721651811,0.367028780260025
8987188,1994.0,1,178641.0,213620,0.62,-0.23,9.95,-0.03,-0.01,-0.01,32.59,7.068702,48.97519469592062,398.09784220060334,9.971950661731134,0.033166247903554,0.6634275796946623,0.5558896549629653
9027191,1984.0,1,178775.0,214094,0.63,-0.21,9.95,-0.03,-0.01,-0.01,32.59,7.108705,28.377747260727435,542.8769930668943,9.972136180377802,0.033166247903554,0.38483273008571733,0.7601659541178339
9067188,1974.0,1,178993.0,214596,0.65,-0.22,9.98,-0.03,-0.01,-0.01,32.59,7.148702,28.67869341571092,604.0425479398396,10.003564364765191,0.033166247903554,0.38890323683427497,0.8464675597733236
9107191,1971.0,1,179258.0,214533,0.63,-0.24,9.96,-0.03,-0.01,-0.01,32.59,7.188705,7.856440986635102,474.18666740077254,9.982790191123923,0.033166247903554,0.10726774281251507,0.6632472649912693
9147878,1883.0,1,178569.0,211929,0.62,-0.22,9.94,-0.03,-0.01,-0.01,32.41,7.229392,-66.85805200612158,155.2466482192364,9.961746834767483,0.033166247903554,-0.9032979112287031,0.21323850073931394
9188191,1872.0,1,177885.0,210759,0.65,-0.24,9.96,-0.03,-0.01,-0.01,32.41,7.269705,-93.35730904803125,-206.19299186289118,9.984072315443234,0.033166247903554,-1.2617188540939641,-0.2967351494862825
9228188,1872.0,1,177798.0,210887,0.62,-0.22,9.95,-0.03,-0.01,-0.01,32.41,7.309702,-87.46158506506355,-416.9831196249532,9.971725026293093,0.033166247903554,-1.1819750731454424,-0.5941497077287394
9268191,1869.0,1,177988.0,211455,0.64,-0.23,9.97,-0.03,-0.01,-0.01,32.41,7.349705,-95.33131448852727,-383.3457242857643,9.993167665960579,0.033166247903554,-1.288418655151962,-0.5466889884747311
9308191,1872.0,1,178253.0,212316,0.63,-0.21,9.97,-0.03,-0.01,-0.01,32.41,7.389705,-97.16081317138432,-171.42031972479893,9.99209187307643,0.033166247903554,-1.3131639014750311,-0.24767261020771467
9348191,1865.0,1,178484.0,212870,0.63,-0.23,9.96,-0.03,-0.01,-0.01,32.41,7.429705,-100.53463908618743,67.24044524519653,9.982554783220577,0.033166247903554,-1.3587972512528947,0.08906605368019263
9388191,1875.0,1,178600.0,213034,0.62,-0.23,9.96,-0.03,-0.01,-0.01,32.41,7.469705,-99.1183712790131,229.26492730614052,9.98192867135405,0.033166247903554,-1.3396412408789318,0.31767467149465317
9428191,1872.0,1,178598.0,213147,0.63,-0.21,10.0,-0.03,-0.01,-0.01,32.41,7.509705,-98.8218193982017,328.91406832672703,10.022025743331534,0.033166247903554,-1.3356301697549078,0.4582747345551592
9468188,1881.0,1,178618.0,213377,0.63,-0.21,9.95,-0.03,-0.01,-0.01,32.41,7.549702,-93.93804572947334,445.87982888260865,9.972136180377802,0.033166247903554,-1.2695737229527297,0.6233077006364177
9508191,1897.0,1,178751.0,213787,0.62,-0.23,9.98,-0.03,-0.01,-0.01,32.41,7.589705,-79.61621114230061,607.0194370214931,10.001884822372231,0.033166247903554,-1.0758609162813457,0.8506678046356265
9548188,1904.0,1,178875.0,214214,0.62,-0.23,9.94,-0.03,-0.01,-0.01,32.41,7.629702,-71.779135757214,719.3677383103076,9.961972696208315,0.033166247903554,-0.9698590029301007,1.0091857615810327
9588191,1925.0,1,179020.0,214529,0.6,-0.24,9.98,-0.03,-0.01,-0.01,32.41,7.669705,-53.534040158108944,628.554242733511,10.000899959503645,0.033166247903554,-0.7230813533923913,0.88105236199453
9628188,1954.0,1,178780.0,212622,0.63,-0.22,9.98,-0.03,-0.01,-0.01,32.41,7.709702,-24.780808098359806,261.532801324297,10.002284738998386,0.033166247903554,-0.334173825570764,0.36320306316281614
9668191,1967.0,1,177747.0,210227,0.63,-0.21,9.97,-0.03,-0.01,-0.01,32.41,7.749705,-9.236167298515724,-274.63398840648466,9.99209187307643,0.033166247903554,-0.12392171158997099,-0.39330204741834934
9708191,1981.0,1,177195.0,209325,0.63,-0.24500000000000002,9.97,-0.03,-0.01,-0.01,32.41,7.789705,-0.31935276310012334,-738.3691421128146,9.992888721485896,0.033166247903554,-0.0033155727807295987,-1.0476096629853868
9748191,2006.0,1,177173.0,209716,0.62,-0.24500000000000002,9.94,-0.03,-0.01,-0.01,32.41,7.829705,32.388119463977745,-916.5229313725818,9.962330299683904,0.033166247903554,0.4390758126014385,-1.298975944198153
9788188,2033.0,1,177390.0,210474,0.63,-0.23,9.97,-0.03,-0.01,-0.01,32.41,7.869702,54.54793166715252,-769.3116482266734,9.992532211606825,0.033166247903554,0.7388027359267818,-1.0912680253786948
9828191,2037.0,1,177735.0,211391,0.62,-0.22,9.92,-0.03,-0.01,-0.01,32.41,7.909705,62.734827442681706,-438.17537344078573,9.94179058318973,0.033166247903554,0.8495362141659638,-0.6240509411200512
9868188,2064.0,1,178038.0,212018,0.62,-0.22,9.98,-0.03,-0.01,-0.01,32.41,7.949702,95.17240393890701,-119.31145551282559,10.001659862242867,0.033166247903554,1.2882770714531557,-0.17414955201395452
9908192,2064.0,1,178183.0,212306,0.64,-0.22,9.94,-0.03,-0.01,-0.01,32.41,7.989706,88.23190806205328,83.35131733208911,9.96301159288696,0.033166247903554,1.1944020215904332,0.11179770603742546
9948188,2063.0,1,178196.0,212505,0.64,-0.23,9.95,-0.03,-0.01,-0.01,32.41,8.029702,104.78769555026751,204.9740284962793,9.973214125847294,0.033166247903554,1.418330600116913,0.2834014016050784
9987191,2145.0,1,178252.0,212782,0.62,-0.24,9.97,-0.03,-0.01,-0.01,32.41,8.068705,174.2928897859285,338.2625297783464,9.99214191252306,0.033166247903554,2.3584368533820212,0.4714649563288205
10027191,2112.0,1,178395.0,213186,0.62,-0.21,10.0,-0.03,-0.01,-0.01,32.41,8.108705,158.90930567801817,505.98741472506697,10.021402097511107,0.033166247903554,2.1503631435461577,0.7081165637466225
10067191,2097.0,1,178541.0,213790,0.64,-0.24500000000000002,9.96,-0.03,-0.01,-0.01,32.41,8.148705,140.29401116283339,608.6944841476139,9.983547716117753,0.033166247903554,1.898578295340986,0.8530312141858729
10107191,2091.0,1,178746.0,213904,0.62,-0.23,9.98,-0.03,-0.01,-0.01,32.41,8.188705,139.60400864615002,502.61547749540864,10.001884822372231,0.033166247903554,1.8892455298140913,0.7033589252735715
10147877,2014.0,1,178287.0,211432,0.64,-0.22,9.98,-0.03,-0.01,-0.01,32.35,8.229391,73.75836600465952,143.61397767860507,10.00291957380444,0.033166247903554,0.9986372655217386,0.19682537168648082
10188222,2000.0,1,177435.0,209655,0.63,-0.23,9.98,-0.03,-0.01,-0.01,32.35,8.269736,53.66764349436905,-335.44187188693155,10.002509685074042,0.033166247903554,0.7268962241184247,-0.4790989962366083
10228191,1989.0,1,177089.0,209427,0.63,-0.23,9.97,-0.03,-0.01,-0.01,32.35,8.309705,61.82016284292961,-694.9344135010482,9.992532211606825,0.033166247903554,0.8371647371947364,-0.9863253857775311
10268188,1973.0,1,177182.0,210041,0.63,-0.22,9.97,-0.03,-0.01,-0.01,32.35,8.349702,36.68469451847692,-756.2122436964138,9.99230704091903,0.033166247903554,0.4971899883947224,-1.072785406420353
10308191,1946.0,1,177420.0,210939,0.62,-0.22,9.96,-0.03,-0.01,-0.01,32.35,8.389705,28.720997773197148,-528.0168640381924,9.981703261467954,0.033166247903554,0.38947543278956315,-0.7508128892319335
10348191,1924.0,1,177808.0,211961,0.62,-0.23,9.95,-0.03,-0.01,-0.01,32.35,8.429705,-0.08062802340149598,-188.8467704707791,9.971950661731134,0.033166247903554,-8.665409245380512e-05,-0.27226047969370887
10388191,1882.0,1,178074.0,212416,0.63,-0.23,9.96,-0.03,-0.01,-0.01,32.35,8.469705,-27.30173759734164,55.60895517717509,9.982554783220577,0.033166247903554,-0.36827115616735057,0.07265459021646234
10428191,1886.0,1,178069.0,212310,0.63,-0.205,9.919999999999998,-0.03,-0.01,-0.01,32.35,8.509705,-25.282453332594542,122.35479214883554,9.942098621518495,0.033166247903554,-0.34095892741546546,0.16682970092115945
10468171,1839.0,1,178013.0,212192,0.64,-0.22,9.98,-0.03,-0.01,-0.01,32.35,8.549685,-64.32442422614763,91.10229466185889,10.00291957380444,0.033166247903554,-0.8690288275207456,0.12273395586541991
10508191,1815.0,1,177993.0,212116,0.64,-0.22,9.97,-0.03,-0.01,-0.01,32.35,8.589705,-84.57117431864296,107.73133138275823,9.992942509591456,0.033166247903554,-1.142880250850557,0.14619671317218785
10548191,1837.0,1,178061.0,212566,0.64,-0.22,9.99,-0.03,-0.01,-0.01,32.35,8.629705,-61.173654717626604,233.08912573824324,10.012896683777377,0.033166247903554,-0.8264124712882223,0.32307042839935596
10588191,1808.0,1,178183.0,213251,0.62,-0.23,9.96,-0.03,-0.01,-0.01,32.35,8.669705,-83.69504036105747,364.9107820098502,9.98192867135405,0.033166247903554,-1.1310299277015938,0.5090643365726268
10628191,1794.0,1,178411.0,213904,0.62,-0.22,9.97,-0.03,-0.01,-0.01,32.35,8.709705,-98.86275196686059,306.7815127423295,9.991681540161297,0.033166247903554,-1.336183811309062,0.4270467813687531
10668168,1808.0,1,178297.0,212299,0.61,-0.23,9.95,-0.03,-0.01,-0.01,32.35,8.749682,-80.4162469169936,-61.64057264675322,9.97133391277215,0.033166247903554,-1.0866819584048246,-0.09277875759787732
10708171,1802.0,1,177059.0,209434,0.61,-0.23,9.94,-0.03,-0.01,-0.01,32.35,8.789685,-86.72979630352827,-651.8647333576884,9.961355329471989,0.033166247903554,-1.1720771194981816,-0.92555617410012
10748191,1808.0,1,176545.0,208874,0.62,-0.205,9.96,-0.03,-0.01,-0.01,32.35,8.829705,-80.83870077604124,-1189.1359330520559,9.981383922082149,0.033166247903554,-1.0923959416398055,-1.6836195531112437
10788191,1813.0,1,176670.0,209477,0.63,-0.22,9.97,-0.03,-0.01,-0.01,32.35,8.869705,-73.91224490332624,-1381.1224200746626,9.99230704091903,0.033166247903554,-0.9987107926302758,-1.9545030941602022
10828191,1812.0,1,176940.0,210546,0.62,-0.22,9.93,-0.03,-0.01,-0.01,32.35,8.909705,-80.83316858338276,-1104.7309293296344,9.951768687022422,0.033166247903554,-1.0923211148736955,-1.5645282220224686
10868191,1825.0,1,177503.0,212475,0.62,-0.22,9.94,-0.03,-0.01,-0.01,32.35,8.949705,-63.031413538383646,-478.3812403770207,9.961746834767483,0.033166247903554,-0.8515399556965176,-0.6807794524623527
10908191,1840.0,1,178230.0,214211,0.62,-0.21,9.95,-0.03,-0.01,-0.01,32.35,8.989705,-58.77010439720845,216.92879669700298,9.971509414326398,0.033166247903554,-0.7939027759897501,0.30026899469901425
10948191,1840.0,1,178638.0,214929,0.62,-0.23,9.99,-0.03,-0.01,-0.01,32.35,9.029705,-55.239938968481255,703.437588583331,10.011862963504845,0.033166247903554,-0.7461548251912183,0.9867090996325519
10988191,1851.0,1,178848.0,215142,0.62,-0.24,9.96,-0.03,-0.01,-0.01,32.35,9.069705,-51.37929518221751,855.6678061195856,9.982164094022899,0.033166247903554,-0.6939369239968141,1.2014984893463094
11028191,1854.0,1,178832.0,214693,0.63,-0.23,9.95,-0.03,-0.01,-0.01,32.35,9.109705,-57.51750526785655,751.754030343462,9.9725774000506,0.033166247903554,-0.7769604986925238,1.054881235275249
11068191,1882.0,1,178604.0,214116,0.62,-0.23,9.93,-0.03,-0.01,-0.01,32.35,9.149705,-21.068559875888695,602.5656300554124,9.951994774918242,0.033166247903554,-0.2839630779281539,0.8443837008904582
11108191,1904.0,1,178575.0,214045,0.62,-0.23,9.96,-0.03,-0.01,-0.01,32.35,9.189705,-28.407269663033343,599.4563837401503,9.98192867135405,0.033166247903554,-0.383224248804111,0.8399967064465604
11148877,1866.0,1,178597.0,214219,0.63,-0.23,10.000000000000004,-0.03,-0.01,-0.01,32.17,9.230391,-42.259916572894355,772.65665096933,10.02246476671283,0.033166247903554,-0.5705909647372955,1.0843738104046197
11187191,1979.0,1,178790.0,214914,0.63,-0.22,9.96,-0.03,-0.01,-0.01,32.17,9.268705,31.054048017958333,959.3820575924198,9.982329387472646,0.033166247903554,0.4210315653693115,1.3478342243863246
11227191,1983.0,1,179076.0,215599,0.62,-0.24,9.97,-0.03,-0.01,-0.01,32.17,9.308705,58.22778219843648,919.9163683990157,9.99214191252306,0.033166247903554,0.7885752821887422,1.2921500676290416
11267191,2018.0,1,178985.0,213003,0.63,-0.21,9.98,-0.03,-0.01,-0.01,32.17,9.348705,62.98460808288442,530.4761816423159,10.002069785799337,0.033166247903554,0.8529146716234448,0.7426690158558475
11307191,2045.0,1,177611.0,209801,0.62,-0.24,9.97,-0.03,-0.01,-0.01,32.17,9.388705,96.5976880964326,-96.02708915204886,9.99214191252306,0.033166247903554,1.3075550342572944,-0.1412964501696265
11347191,2057.0,1,176963.0,209130,0.63,-0.23,9.97,-0.03,-0.01,-0.01,32.17,9.428705,96.09632665334082,-669.1559726690386,9.992532211606825,0.033166247903554,1.300773770885833,-0.9499532668665083
11387191,2064.0,1,177085.0,209686,0.63,-0.23,9.96,-0.03,-0.01,-0.01,32.17,9.468705,94.9014358030951,-920.219930842396,9.982554783220577,0.033166247903554,1.2846120383327724,-1.3041922295897468
11427191,2059.0,1,177322.0,210417,0.62,-0.23,9.95,-0.03,-0.01,-0.01,32.17,9.508705,86.83874215096364,-781.1683072948883,9.971950661731134,0.033166247903554,1.1755584804816857,-1.107997191286242
11467191,2060.0,1,177611.0,211258,0.63,-0.23,9.98,-0.03,-0.01,-0.01,32.17,9.548705,77.04361403088336,-407.33537729449307,10.002509685074042,0.033166247903554,1.0430725375462757,-0.5805372152761052
11507191,2059.0,1,177874.0,211773,0.63,-0.23,10.0,-0.03,-0.01,-0.01,32.17,9.588705,72.0580579780875,-44.74138633158235,10.022464766712826,0.033166247903554,0.9756394129751,-0.06893483242953692
11547188,2032.0,1,178050.0,212099,0.62,-0.22,9.95,-0.03,-0.01,-0.01,32.17,9.628702,38.69695898062432,144.10379130740523,9.971725026293093,0.033166247903554,0.5244072694179777,0.1975164747546244
11587191,2017.0,1,178182.0,212333,0.64,-0.22,9.96,-0.03,-0.01,-0.01,32.17,9.668705,17.16617451893989,173.2908199323665,9.982965491275626,0.033166247903554,0.2331883852364037,0.238697944290529
11627191,2007.0,1,178240.0,212574,0.62,-0.23,9.95,-0.03,-0.01,-0.01,32.17,9.708705,3.8503080078395175,193.76606696737227,9.971950661731134,0.033166247903554,0.053081998765705615,0.26758751619066723
11667191,1986.0,1,178294.0,212859,0.62,-0.24,9.96,-0.03,-0.01,-0.01,32.17,9.748705,-22.71212463022649,355.5628807584711,9.982164094022899,0.033166247903554,-0.30619343812195843,0.49587490521409905
11707191,1965.0,1,178529.0,213518,0.64,-0.24,9.96,-0.03,-0.01,-0.01,32.17,9.788705,-46.64869980659047,666.4906514472061,9.983426265566347,0.033166247903554,-0.6299523204977532,0.934578778808627
11747191,1937.0,1,178780.0,214295,0.62,-0.21,9.96,-0.03,-0.01,-0.01,32.17,9.828705,-77.5210966386035,951.3110279944408,9.981487865042967,0.033166247903554,-1.0475230306327716,1.3364463964651123
11787191,1927.0,1,179119.0,215084,0.64,-0.23,9.97,-0.03,-0.01,-0.01,32.17,9.868705,-89.97335772793446,958.6321464000445,9.993167665960579,0.033166247903554,-1.2159485511439223,1.3467761363801676
11827229,1943.0,1,179134.0,213336,0.65,-0.23,9.96,-0.03,-0.01,-0.01,32.17,9.908743,-74.88483740267792,554.1767543941173,9.983836937770969,0.033166247903554,-1.0118657848660955,0.7761093645567457
11867191,1951.0,1,177785.0,209869,0.62,-0.23,9.96,-0.03,-0.01,-0.01,32.17,9.948705,-67.57076586807992,-147.6085639500343,9.98192867135405,0.033166247903554,-0.9129378635485829,-0.21407538770058213
11907191,1963.0,1,176954.0,208675,0.62,-0.23,9.97,-0.03,-0.01,-0.01,32.17,9.988705,-55.666118324579045,-833.6900003887577,9.991906724944943,0.033166247903554,-0.7519191983734814,-1.1821027308364223
11947188,1983.0,1,176956.0,209104,0.62,-0.21,9.96,-0.03,-0.01,-0.01,32.17,10.028702,-33.41389546604415,-1197.9343242258785,9.981487865042967,0.033166247903554,-0.45094235644956815,-1.696033652632833
11987191,2000.0,1,177244.0,210037,0.62,-0.23,9.97,-0.03,-0.01,-0.01,32.17,10.068705,-16.84247017810003,-1138.7376056932296,9.991906724944943,0.033166247903554,-0.22680226576957188,-1.6125099787363768
12027191,2022.0,1,177609.0,211282,0.63,-0.24,9.96,-0.03,-0.01,-0.01,32.17,10.108705,11.174770615490667,-794.9907819814662,9.982790191123923,0.033166247903554,0.15215046659722814,-1.1275000268619506
12067191,2060.0,1,178035.0,212262,0.62,-0.21,9.99,-0.03,-0.01,-0.01,32.17,10.148705,47.98153275159056,-409.67791840402737,10.011423475210705,0.033166247903554,0.6499876085130987,-0.5838424261825828
12107191,2083.0,1,178268.0,212765,0.63,-0.22,9.95,-0.03,-0.01,-0.01,32.17,10.188705,80.06153542130924,-145.49044420531402,9.972351778793204,0.033166247903554,1.0838920302791835,-0.21108682436097592
12147191,2101.0,1,178525.0,213387,0.63,-0.21,9.96,-0.03,-0.01,-0.01,32.17,10.228705,97.26466051983512,6.286913733949091,9.982114004558355,0.033166247903554,1.3165763017019996,0.003063602615697882
12187877,2090.0,1,178839.0,214371,0.63,-0.22,9.96,-0.03,-0.01,-0.01,32.27,10.269391,96.61577530718472,171.38844552900218,9.982329387472646,0.033166247903554,1.3077996764041033,0.23601378707313306
12228191,2108.0,1,179224.0,215381,0.63,-0.23,9.99,-0.03,-0.01,-0.01,32.27,10.309705,114.81698055256635,449.20909361493517,10.012487203487453,0.033166247903554,1.5539836782806966,0.6280051303033078
12268191,2108.0,1,179527.0,216247,0.62,-0.23,9.96,-0.03,-0.01,-0.01,32.27,10.349705,126.79782408317601,792.8971233949032,9.98192867135405,0.033166247903554,1.7160329473515559,1.1129321268162193
12308191,2101.0,1,179827.0,217082,0.61,-0.21,9.94,-0.03,-0.01,-0.01,32.27,10.389705,118.44085346487938,1006.1236210605457,9.960913612716455,0.033166247903554,1.6029990881844876,1.4137842838033694
12348191,2098.0,1,180125.0,217666,0.6,-0.23,9.99,-0.03,-0.01,-0.01,32.27,10.429705,131.585088220922,871.2275766933906,10.01064433490672,0.033166247903554,1.780784035402148,1.2234525644289238
12388191,2082.0,1,179960.0,214932,0.63,-0.23,9.97,-0.03,-0.01,-0.01,32.27,10.469705,110.6604807834434,325.3075226267961,9.992532211606825,0.033166247903554,1.4977641184676747,0.4531860750077967
12428191,2022.0,1,178622.0,212323,0.62,-0.22,9.97,-0.03,-0.01,-0.01,32.27,10.509705,69.17708724328315,-452.2784885859306,9.991681540161297,0.033166247903554,0.9366722734246327,-0.6439497466536312
12468191,2009.0,1,178176.0,211729,0.61,-0.22,9.97,-0.03,-0.01,-0.01,32.27,10.549705,52.62847085429523,-1126.0155780517387,9.991066009190412,0.033166247903554,0.7128406890192338,-1.5945598201064934
12508191,1962.0,1,178223.0,212176,0.62,-0.23,9.98,-0.03,-0.01,-0.01,32.27,10.589705,18.008502738544326,-1412.6733516209488,10.001884822372231,0.033166247903554,0.24458146218928425,-1.9990199150739831
12548192,1939.0,1,178579.0,213406,0.61,-0.22,10.0,-0.03,-0.01,-0.01,32.27,10.629706,0.6927317118867384,-1255.8418943525921,10.02100294381755,0.033166247903554,0.010373575983342395,-1.7777384011947357
12588188,1874.0,1,179124.0,215099,0.6,-0.24,9.98,-0.03,-0.01,-0.01,32.27,10.669702,-63.41772143052794,-837.0721831534116,10.000899959503645,0.033166247903554,-0.8567650395062134,-1.186874825258132
12628191,1737.0,1,179694.0,216391,0.61,-0.22,9.97,-0.03,-0.01,-0.01,32.27,10.709705,-186.21160537150314,-425.38874129399807,9.991066009190412,0.033166247903554,-2.517638006269211,-0.6060096286937009
12668188,1776.0,1,180070.0,216977,0.61,-0.23,9.96,-0.03,-0.01,-0.01,32.27,10.749702,-152.44830542088414,-185.12759366747233,9.981312538939957,0.033166247903554,-2.060965814161919,-0.26701290316949106
12708191,1883.0,1,180284.0,217449,0.61,-0.22,9.95,-0.03,-0.01,-0.01,32.27,10.789705,-31.591973205939755,-81.10088907616661,9.971108263377747,0.033166247903554,-0.42629958653111144,-0.12023631206478104
12748191,1885.0,1,180567.0,218225,0.61,-0.21,9.96,-0.03,-0.01,-0.01,32.27,10.829705,-33.01906710582764,57.89340086226369,9.980871705417318,0.033166247903554,-0.44560202736355126,0.07587783132112377
12788191,1841.0,1,181022.0,219399,0.61,-0.23,9.98,-0.03,-0.01,-0.01,32.27,10.869705,-68.69495565525104,369.18757572128516,10.00126991936524,0.033166247903554,-0.9281433148878454,0.5150986832751268
12828191,1856.0,1,181496.0,220526,0.61,-0.24,9.96,-0.03,-0.01,-0.01,32.27,10.909705,-54.796088490221415,807.295943129259,9.981547976140776,0.033166247903554,-0.7401514377506766,1.1332481570590593
12868191,1817.0,1,181918.0,221433,0.62,-0.23,9.96,-0.03,-0.01,-0.01,32.27,10.949705,-87.99163942671197,1134.3188755327487,9.98192867135405,0.033166247903554,-1.1891444282625088,1.5946615164442983
12908191,1751.0,1,182348.0,222187,0.61,-0.22,9.96,-0.03,-0.01,-0.01,32.27,10.989705,-158.04029563479068,1074.5683924407754,9.981087115139314,0.033166247903554,-2.1366013839362656,1.5103565078452619
12948191,1728.0,1,182241.0,219489,0.59,-0.24,9.96,-0.03,-0.01,-0.01,32.27,11.029705,-172.67888911596214,531.7103802507942,9.980345685395873,0.033166247903554,-2.334598575685632,0.7444104097143796
12988191,1719.0,1,180697.0,216039,0.62,-0.23,10.0,-0.03,-0.01,-0.01,32.27,11.069705,-191.31697363791073,-301.0821023433257,10.021841148212237,0.033166247903554,-2.586691674635316,-0.4306190423193196
13028191,1712.0,1,180098.0,215211,0.62,-0.22,9.97,-0.03,-0.01,-0.01,32.27,11.109705,-188.58555175196534,-1041.0966747235232,9.991681540161297,0.033166247903554,-2.5497472876219356,-1.4747434018143428
13067191,1808.0,1,180192.0,215814,0.61,-0.21,9.96,-0.03,-0.01,-0.01,32.27,11.148705,-102.33375531419046,-1360.7163225054308,9.980871705417318,0.033166247903554,-1.3831315536729663,-1.9257110887734212
13107191,1835.0,1,180572.0,216989,0.62,-0.21,9.96,-0.03,-0.01,-0.01,32.27,11.188705,-71.68562700960469,-1188.1314808929867,9.981487865042967,0.033166247903554,-0.9685942318676037,-1.6822023202534389
13147191,1825.0,1,181064.0,218447,0.61,-0.24500000000000002,9.98,-0.03,-0.01,-0.01,32.27,11.228705,-84.4070856761126,-716.8720428507617,10.001626117787048,0.033166247903554,-1.140660837458091,-1.0172783075827527
13187878,1850.0,1,181582.0,219413,0.61,-0.23,9.97,-0.03,-0.01,-0.01,32.33,11.269392,-65.00031615379633,-237.43811756782992,9.991291207846961,0.033166247903554,-0.8781707374844753,-0.3408204933182003
13228191,1871.0,1,181868.0,219925,0.62,-0.23,9.96,-0.03,-0.01,-0.01,32.33,11.309705,-40.48746356099399,67.22708929086222,9.98192867135405,0.033166247903554,-0.5466173009207979,0.08904720908201141
13268194,1973.0,1,182064.0,220438,0.61,-0.23,10.0,-0.03,-0.01,-0.01,32.33,11.349708,51.146450459402935,217.77081278776387,10.021227469726451,0.033166247903554,0.6927953290137534,0.3014570382109446
13308188,2043.0,1,182365.0,221224,0.61,-0.22,9.97,-0.03,-0.01,-0.01,32.33,11.389702,126.86828290326632,376.4873805940556,9.991066009190412,0.033166247903554,1.716985952059952,0.5253983508380301
13348191,2080.0,1,182675.0,221940,0.61,-0.22,9.99,-0.03,-0.01,-0.01,32.33,11.429705,151.05397837415535,686.2763501375207,10.011023923655362,0.033166247903554,2.0441143602571437,0.9624954317276893
13388191,2127.0,1,182977.0,222540,0.62,-0.22,9.95,-0.03,-0.01,-0.01,32.33,11.469705,207.03860678092082,1126.8620206624632,9.971725026293093,0.033166247903554,2.801345525937708,1.5841402590179188
13428191,2095.0,1,183273.0,223201,0.61,-0.24,9.95,-0.03,-0.01,-0.01,32.33,11.509705,158.81449319447418,1491.8823734064633,9.971569585576786,0.033166247903554,2.1490807385453876,2.0991661196379514
13468191,2019.0,1,183545.0,223898,0.63,-0.23,9.97,-0.03,-0.01,-0.01,32.33,11.549705,93.88391985228324,1516.4338231780864,9.992532211606825,0.033166247903554,1.2708494250680442,2.1338070141882004
13508191,2058.0,1,183635.0,221702,0.58,-0.22,10.0,-0.03,-0.01,-0.01,32.33,11.589705,119.67393127358221,1078.5898790451563,10.019221526645671,0.033166247903554,1.6196773259978163,1.5160306287095462
13548191,2025.0,1,181968.0,217768,0.61,-0.24,9.98,-0.03,-0.01,-0.01,32.33,11.629705,90.94673204181446,324.58737994789254,10.001504886765792,0.033166247903554,1.2311219103405329,0.45216998891784743
13588191,2032.0,1,181177.0,216549,0.62,-0.24500000000000002,9.96,-0.03,-0.01,-0.01,32.33,11.669705,94.80935350166936,-395.9987774798979,9.982285559930652,0.033166247903554,1.2833665609502927,-0.564541827533681
13628191,2021.0,1,181068.0,216737,0.62,-0.23,9.98,-0.03,-0.01,-0.01,32.33,11.709705,83.47436484554095,-751.0922192738473,10.001884822372231,0.033166247903554,1.1300529297390003,-1.065561302436
13668199,1963.0,1,181239.0,217434,0.62,-0.23,9.98,-0.03,-0.01,-0.01,32.33,11.749713,17.942288317630492,-634.4589145036722,10.001884822372231,0.033166247903554,0.2436858659415223,-0.9009974152043576
13708191,1926.0,1,181583.0,218608,0.59,-0.23,9.96,-0.03,-0.01,-0.01,32.33,11.789705,1.0073516166812666,-204.4563090702989,9.980110219832245,0.033166247903554,0.014629029739735974,-0.2942847750259133
13748191,1930.0,1,181928.0,219360,0.62,-0.23,9.96,-0.03,-0.01,-0.01,32.33,11.829705,-32.77229690303451,259.90410615445614,9.98192867135405,0.033166247903554,-0.44226428817273994,0.36090505395530414
13788191,1911.0,1,182147.0,219606,0.61,-0.23,9.99,-0.03,-0.01,-0.01,32.33,11.869705,2.1749379195014353,560.0809679680382,10.011248673367374,0.033166247903554,0.030421449235554822,0.7844399210704689
13828191,1869.0,1,182199.0,219636,0.62,-0.23,9.98,-0.03,-0.01,-0.01,32.33,11.909705,-96.9110802418193,685.8950798906948,10.001884822372231,0.033166247903554,-1.309786089337218,0.9619574780614781
13868191,1790.0,1,182183.0,219702,0.59,-0.23,9.97,-0.03,-0.01,-0.01,32.33,11.949705,-127.51136065399399,764.630456166928,9.990090089683877,0.033166247903554,-1.7236762350091148,1.0730492421866105
13908191,2215.0,1,182161.0,219616,0.61,-0.22,9.96,-0.03,-0.01,-0.01,32.33,11.989705,280.3708972943262,905.1789520169596,9.981087115139314,0.033166247903554,3.7932159269348014,1.2713562940807281
13948191,2229.0,1,182139.0,219712,0.59,-0.23,9.95,-0.03,-0.01,-0.01,32.33,12.029705,277.29303667270045,1066.0228907715502,9.97013039032088,0.033166247903554,3.7515857142738858,1.4982992230430927
13988191,1874.0,1,182190.0,219905,0.6,-0.22,9.96,-0.03,-0.01,-0.01,32.33,12.069705,-18.531406761326178,1059.7653186430975,9.980480950335009,0.033166247903554,-0.24964631160988213,1.489470094895522
14028189,2062.0,1,182174.0,219485,0.63,-0.23,9.96,-0.03,-0.01,-0.01,32.33,12.109703,90.19702293596573,703.295531530506,9.982554783220577,0.033166247903554,1.2209815715314867,0.9865086640805659
14068191,1970.0,1,181244.0,215378,0.62,-0.21,9.94,-0.03,-0.01,-0.01,32.33,12.149705,88.66909140057383,-2.8310769933441304,9.961531006828217,0.033166247903554,1.2003152313136227,-0.009801436240760393
14107191,1983.0,1,179803.0,212194,0.6,-0.22,9.96,-0.03,-0.01,-0.01,32.33,12.188705,30.42042347985684,-824.489989275583,9.980480950335009,0.033166247903554,0.4124613513436983,-1.1691219652279914
14147191,1956.0,1,179172.0,211603,0.61,-0.22,9.96,-0.03,-0.01,-0.01,32.33,12.228705,53.54762710361407,-1433.2325075710212,9.981087115139314,0.033166247903554,0.7252729186851571,-2.028027878348386
14187878,1855.0,1,179327.0,212146,0.62,-0.23,9.96,-0.03,-0.01,-0.01,32.39,12.269392,-61.53495457907992,-1628.123746027108,9.98192867135405,0.033166247903554,-0.8312993040320378,-2.303009881567109
14228191,1842.0,1,179430.0,212575,0.62,-0.23,9.97,-0.03,-0.01,-0.01,32.39,12.309705,-81.19447201195354,-1458.3387567974173,9.991906724944943,0.033166247903554,-1.0972079958652639,-2.063451567788065
14268191,1822.0,1,179598.0,213208,0.62,-0.22,9.94,-0.03,-0.01,-0.01,32.39,12.349705,-72.89659890590059,-1154.2412891396618,9.961746834767483,0.033166247903554,-0.9849734717899631,-1.6343849176260974
14308191,1832.0,1,179809.0,213556,0.62,-0.23,9.99,-0.03,-0.01,-0.01,32.39,12.389705,-94.40306139087444,-936.7252769565746,10.011862963504845,0.033166247903554,-1.2758633842644749,-1.3274804655014798
14348191,1812.0,1,179815.0,213664,0.61,-0.23,9.95,-0.03,-0.01,-0.01,32.39,12.429705,-78.24628317033087,-861.6975702100636,9.97133391277215,0.033166247903554,-1.057331684514797,-1.221620041700483
14388192,1829.0,1,179865.0,213892,0.61,-0.23,9.96,-0.03,-0.01,-0.01,32.39,12.469706,-93.49184664097174,-813.205808368603,9.981312538939957,0.033166247903554,-1.2635385689197909,-1.1532005379998351
14428191,1801.0,1,179985.0,214317,0.6,-0.22,9.96,-0.03,-0.01,-0.01,32.39,12.509705,-87.72893011080649,-639.0461292462533,9.980480950335009,0.033166247903554,-1.1855911014444243,-0.9074697507957475
14468191,1757.0,1,180206.0,215029,0.62,-0.23,9.96,-0.03,-0.01,-0.01,32.39,12.549705,-166.6709743131841,-316.89586265935725,9.98192867135405,0.033166247903554,-2.2533373356116093,-0.4529314845028245
14508191,1589.0,1,180542.0,215974,0.62,-0.24,9.97,-0.03,-0.01,-0.01,32.39,12.589705,-296.60591289722066,-13.936218491724775,9.99214191252306,0.033166247903554,-4.0107980495016475,-0.025470247622140934
14548191,1665.0,1,180928.0,217078,0.62,-0.22,9.97,-0.03,-0.01,-0.01,32.39,12.629705,-263.5578966589717,22.25533808528066,9.991681540161297,0.033166247903554,-3.5638005687343135,0.0255942681867168
14588188,1717.0,1,180836.0,214764,0.64,-0.22,9.94,-0.03,-0.01,-0.01,32.39,12.669702,-170.07727783788553,-329.00367099439796,9.96301159288696,0.033166247903554,-2.299409967726459,-0.47001500973942995
14628191,1803.0,1,179636.0,212112,0.62,-0.24,9.96,-0.03,-0.01,-0.01,32.39,12.709705,-127.61733239252834,-920.320948287517,9.982164094022899,0.033166247903554,-1.7251095767206384,-1.3043347602629543
14668191,1861.0,1,179277.0,212160,0.62,-0.21,9.96,-0.03,-0.01,-0.01,32.39,12.749705,-37.041266372183905,-1389.9552665384747,9.981487865042967,0.033166247903554,-0.5000050791607907,-1.9669658084103852
14708191,2032.0,1,179703.0,213566,0.62,-0.22,9.96,-0.03,-0.01,-0.01,32.39,12.789705,103.65397694497929,-1387.0807267187697,9.981703261467954,0.033166247903554,1.402996264863338,-1.96290997334968
14748191,2095.0,1,180197.0,215244,0.62,-0.22,9.95,-0.03,-0.01,-0.01,32.39,12.829705,178.46131828937288,-804.9361737909052,9.971725026293093,0.033166247903554,2.4148177576506975,-1.1415324881681617
14788191,2111.0,1,181042.0,218835,0.63,-0.23,9.99,-0.03,-0.01,-0.01,32.39,12.869705,184.48100214919194,149.2717525041567,10.012487203487453,0.033166247903554,2.4962381824337334,0.20480821518224526
14828191,2092.0,1,182532.0,222278,0.61,-0.205,9.98,-0.03,-0.01,-0.01,32.39,12.909705,156.38683700409533,1096.0666603617037,10.000726223629963,0.033166247903554,2.1162449945344464,1.5406895121683972
14868191,2042.0,1,183402.0,223706,0.62,-0.23,9.96,-0.03,-0.01,-0.01,32.39,12.949705,110.03161654754578,1731.528069009919,9.98192867135405,0.033166247903554,1.4892582908511423,2.4372944724660384
14908188,2025.0,1,183476.0,223652,0.61,-0.24,9.96,-0.03,-0.01,-0.01,32.39,12.989702,75.41839758698306,1996.7087267506297,9.981547976140776,0.033166247903554,1.0210903510547222,2.8114514076780317
14948191,1986.0,1,183397.0,223716,0.62,-0.23,9.96,-0.03,-0.01,-0.01,32.39,13.029705,39.607243367087364,2041.3051023225808,9.98192867135405,0.033166247903554,0.5367195009479261,2.8743747119179646
14988191,1983.0,1,183511.0,224238,0.63,-0.24,9.95,-0.03,-0.01,-0.01,32.39,13.069705,22.841867057737048,2022.3926151111525,9.97281304346973,0.033166247903554,0.3099560873629839,2.8476901176773732
15028191,1968.0,1,183677.0,224815,0.63,-0.23,9.96,-0.03,-0.01,-0.01,32.39,13.109705,4.200907466815942,1926.734036523779,9.982554783220577,0.033166247903554,0.05782410109920276,2.71272054298847
15068188,1965.0,1,183802.0,225354,0.62,-0.24,9.99,-0.03,-0.01,-0.01,32.39,13.149702,-9.008070604569804,1588.650052644181,10.012097682304143,0.033166247903554,-0.12083654463682784,2.235700581086356
15108229,1998.0,1,183828.0,222620,0.61,-0.23,9.97,-0.03,-0.01,-0.01,32.39,13.189743,20.16839331373211,890.9786709472233,9.991291207846961,0.033166247903554,0.2737954894059812,1.2513203921809883
15148191,1975.0,1,181870.0,218280,0.61,-0.21,9.97,-0.03,-0.01,-0.01,32.39,13.229705,-17.948988120168867,-47.80485577861739,9.990850814620345,0.033166247903554,-0.24176869307228468,-0.07325723795180908
15188878,1937.0,1,181205.0,217816,0.61,-0.23,9.96,-0.03,-0.01,-0.01,32.41,13.270392,-53.28784572876238,-894.2591870571389,9.981312538939957,0.033166247903554,-0.7197514019392237,-1.2675628901301048
15227191,2015.0,1,181337.0,218543,0.63,-0.23,9.95,-0.03,-0.01,-0.01,32.41,13.308705,4.231154144797164,-1324.3733642828201,9.9725774000506,0.033166247903554,0.05823320852524968,-1.87443295264931
15267191,2023.0,1,181658.0,219378,0.61,-0.22,9.94,-0.03,-0.01,-0.01,32.41,13.348705,15.915057205454875,-1252.9639222711119,9.961129454032811,0.033166247903554,0.21626615053279877,-1.7736777233805747
15307191,2026.0,1,182130.0,221077,0.62,-0.21,9.96,-0.03,-0.01,-0.01,32.41,13.388705,2.956501803853866,-871.3959111066982,9.981487865042967,0.033166247903554,0.0409926461523589,-1.235303926254665
15347191,2038.0,1,182799.0,222519,0.6,-0.23,9.97,-0.03,-0.01,-0.01,32.41,13.428705,10.574592719362625,-476.2352135322647,9.990685662155526,0.033166247903554,0.14403264174361483,-0.6777515135698349
15387191,2045.0,1,183080.0,223055,0.61,-0.22,9.94,-0.03,-0.01,-0.01,32.41,13.468705,11.35093531449621,-244.7860224679964,9.961129454032811,0.033166247903554,0.1545332170802806,-0.35118802766666574
15427191,2079.0,1,183286.0,223713,0.62,-0.23,9.96,-0.03,-0.01,-0.01,32.41,13.508705,34.28337788724987,-139.30889746706572,9.98192867135405,0.033166247903554,0.46471050530124447,-0.20236496431975767
15467191,2090.0,1,183569.0,224356,0.59,-0.23,9.94,-0.03,-0.01,-0.01,32.41,13.548705,42.60189975657375,-3.7070992715178983,9.960150601271046,0.033166247903554,0.577224318308641,-0.011037460819519125
15507191,2097.0,1,183874.0,225332,0.62,-0.24500000000000002,9.98,-0.03,-0.01,-0.01,32.41,13.588705,40.625394474527525,241.08260791396145,10.002240998896198,0.033166247903554,0.550490705149269,0.3343488407014432
15547191,2111.0,1,184213.0,226186,0.62,-0.22,9.98,-0.03,-0.01,-0.01,32.41,13.628705,48.49275005851257,476.82481052905666,10.001659862242867,0.033166247903554,0.6569021793203572,0.6669695558851041
15587191,2108.0,1,184573.0,227126,0.6,-0.24500000000000002,9.97,-0.03,-0.01,-0.01,32.41,13.668705,41.830051064156045,459.3860023440559,9.99104223792493,0.033166247903554,0.5667845261420854,0.6423642506571882
15627222,2109.0,1,184976.0,226244,0.62,-0.23,9.99,-0.03,-0.01,-0.01,32.41,13.708736,35.34103310437709,37.981930630517304,10.011862963504845,0.033166247903554,0.47901603015235866,0.04778372090995053
15667191,2099.0,1,183626.0,221693,0.62,-0.23,9.95,-0.03,-0.01,-0.01,32.41,13.748705,21.18409669430621,-664.2407613216402,9.971950661731134,0.033166247903554,0.2875335863934191,-0.9430181441115899
15707189,2081.0,1,182754.0,220901,0.6,-0.24500000000000002,9.95,-0.03,-0.01,-0.01,32.41,13.788703,2.1905231452179885,-1285.0287921149838,9.9710844445326,0.033166247903554,0.030632250288854555,-1.8189196860899566
15747191,2096.0,1,183052.0,222152,0.63,-0.23,9.97,-0.03,-0.01,-0.01,32.41,13.828705,5.778617024397414,-1468.0271777380594,9.992532211606825,0.033166247903554,0.07916372380264493,-2.0771214557696345
15787191,2096.0,1,183788.0,224165,0.62,-0.23,9.97,-0.03,-0.01,-0.01,32.41,13.868705,15.273831373259004,-1116.8253248179947,9.991906724944943,0.033166247903554,0.20759312370032107,-1.5815928223885756
15827191,2101.0,1,184670.0,226117,0.6,-0.205,9.95,-0.03,-0.01,-0.01,32.41,13.908705,2.0754124298286896,-443.78125927392045,9.970181793728736,0.033166247903554,0.029075297538123625,-0.6319605717859684
15867187,2075.0,1,185388.0,227391,0.62,-0.24,9.95,-0.03,-0.01,-0.01,32.41,13.948701,-8.571366956574359,215.68213589319222,9.97218631996013,0.033166247903554,-0.1149298230627219,0.2985100172925292
15907191,2094.0,1,185865.0,228153,0.61,-0.23,9.96,-0.03,-0.01,-0.01,32.41,13.988705,-6.348781065103635,652.9265205353154,9.981312538939957,0.033166247903554,-0.08486779794405258,0.9154404536606079
15947191,2055.0,1,186173.0,228547,0.61,-0.24,9.96,-0.03,-0.01,-0.01,32.41,14.028705,-33.70683003184282,893.3755080563451,9.981547976140776,0.033166247903554,-0.45490450086385614,1.2547022120866778
15987191,2033.0,1,186413.0,229083,0.62,-0.24500000000000002,9.94,-0.03,-0.01,-0.01,32.41,14.068705,-62.082072981898,1091.65758811531,9.962330299683904,0.033166247903554,-0.8386994622133352,1.5344685269242473
16027191,2019.0,1,186724.0,229637,0.62,-0.23,9.96,-0.03,-0.01,-0.01,32.41,14.108705,-74.20029157228817,1325.3804340048064,9.98192867135405,0.033166247903554,-1.0026068248290372,1.8642400285567124
16067191,1990.0,1,186980.0,230187,0.62,-0.23,9.98,-0.03,-0.01,-0.01,32.41,14.148705,-96.8893870720744,1478.1981814108997,10.001884822372231,0.033166247903554,-1.3094926740787671,2.0798583941743587
16107191,1995.0,1,187214.0,230819,0.61,-0.22,9.97,-0.03,-0.01,-0.01,32.41,14.188705,-98.18119098717767,1324.5505874281728,9.991066009190412,0.033166247903554,-1.3269652234606641,1.863069155633873
16147191,1983.0,1,187310.0,228809,0.62,-0.22,9.97,-0.03,-0.01,-0.01,32.41,14.228705,-95.22278011236695,750.832117687749,9.991681540161297,0.033166247903554,-1.2869506519783203,1.0535804616187783
16187191,1973.0,1,185611.0,224447,0.62,-0.22,9.96,-0.03,-0.01,-0.01,32.41,14.268705,-114.55947678791983,-86.22034933813954,9.981703261467954,0.033166247903554,-1.5484929678021213,-0.1274596200461358
16227878,1945.0,1,184797.0,223894,0.61,-0.21,9.97,-0.03,-0.01,-0.01,32.21,14.309392,-123.84667709347373,-824.1422462578404,9.990850814620345,0.033166247903554,-1.6741088326103555,-1.1686313168418365
16268191,1959.0,1,184943.0,224765,0.61,-0.22,10.0,-0.03,-0.01,-0.01,32.21,14.349705,-117.83775568789669,-1144.5228745897896,10.02100294381755,0.033166247903554,-1.5928339775310612,-1.620672710129217
16308191,1968.0,1,185384.0,226128,0.62,-0.24500000000000002,9.97,-0.03,-0.01,-0.01,32.21,14.389705,-90.46815464162297,-995.0141782703649,9.992263257140497,0.033166247903554,-1.2226410246744284,-1.4097232537133064
16348191,2000.0,1,185881.0,227524,0.61,-0.22,9.96,-0.03,-0.01,-0.01,32.21,14.429705,-60.92537412667093,-595.1638388695314,9.981087115139314,0.033166247903554,-0.8230543030435528,-0.8455539858326367
16388191,2012.0,1,186288.0,228263,0.62,-0.23,9.94,-0.03,-0.01,-0.01,32.21,14.469705,-35.12906534029079,-235.3578983892483,9.961972696208315,0.033166247903554,-0.474141225856711,-0.3378854058232883
16428191,2064.0,1,186479.0,228489,0.63,-0.23,9.95,-0.03,-0.01,-0.01,32.21,14.509705,23.16041577990471,-53.36672603385491,9.9725774000506,0.033166247903554,0.31426468111590633,-0.08110476479059232
16468191,2096.0,1,186563.0,228632,0.64,-0.22,9.96,-0.03,-0.01,-0.01,32.21,14.549705,63.43146325192226,25.663598850640525,9.982965491275626,0.033166247903554,0.8589586996034541,0.030403157391664867
16508191,2097.0,1,186670.0,229044,0.62,-0.22,9.95,-0.03,-0.01,-0.01,32.21,14.589705,76.49448927413401,152.64690031669676,9.971725026293093,0.033166247903554,1.0356452420280096,0.20957038363067798
16548191,2123.0,1,186870.0,229634,0.61,-0.22,9.95,-0.03,-0.01,-0.01,32.21,14.629705,111.99604462866863,357.05610867856996,9.971108263377747,0.033166247903554,1.5158285514404672,0.4979817767593964
16588191,2149.0,1,187192.0,230321,0.64,-0.24,9.94,-0.03,-0.01,-0.01,32.21,14.669705,146.0036441273903,474.75845259669154,9.963473289972729,0.033166247903554,1.9758050654098416,0.6640540259304998
16628191,2148.0,1,187486.0,230907,0.63,-0.24,9.96,-0.03,-0.01,-0.01,32.21,14.709705,165.2369932861599,279.2516726520758,9.982790191123923,0.033166247903554,2.2359495339525033,0.38820352378426815
16668191,2151.0,1,187115.0,227139,0.64,-0.23,9.98,-0.03,-0.01,-0.01,32.21,14.749705,165.5376599201091,-290.66004222328314,10.003144505604226,0.033166247903554,2.2400162599840203,-0.4159140253458603
16708191,2122.0,1,185520.0,224165,0.61,-0.21,9.96,-0.03,-0.01,-0.01,32.21,14.789705,167.5864177371375,-1016.6085651981978,9.980871705417318,0.033166247903554,2.2677271390973686,-1.4401918772529616
16748204,2134.0,1,185148.0,224215,0.61,-0.23,9.96,-0.03,-0.01,-0.01,32.21,14.829718,172.71222198000936,-1521.3083079048918,9.981312538939957,0.033166247903554,2.3370572183055245,-2.1522985238774672
16788191,2091.0,1,185565.0,225529,0.62,-0.23,9.96,-0.03,-0.01,-0.01,32.21,14.869705,158.3569843552432,-1532.3728067990555,9.98192867135405,0.033166247903554,2.142892612241808,-2.167909990532568
16828191,2079.0,1,186219.0,227077,0.6,-0.24,9.97,-0.03,-0.01,-0.01,32.21,14.909705,150.65643088615334,-1065.1519130962374,9.990920878477619,0.033166247903554,2.038737253070401,-1.5086841663558093
16868191,2027.0,1,186896.0,228824,0.62,-0.22,9.96,-0.03,-0.01,-0.01,32.21,14.949705,110.45425806203795,-380.01805792061225,9.981703261467954,0.033166247903554,1.4949748122569577,-0.5419938140257308
16908191,1953.0,1,187459.0,229829,0.61,-0.22,9.99,-0.03,-0.01,-0.01,32.21,14.989705,59.71194010556452,227.46028226148061,10.011023923655362,0.033166247903554,0.8086495535387828,0.31512840562138694
16948214,1951.0,1,187801.0,230312,0.63,-0.22,9.98,-0.03,-0.01,-0.01,32.21,15.029728,52.4829405400681,616.8738965716577,10.002284738998386,0.033166247903554,0.7108722899672049,0.8645719649724839
16988191,1893.0,1,187986.0,230610,0.63,-0.205,9.96,-0.03,-0.01,-0.01,32.21,15.069705,27.694912499193453,831.5888377035471,9.982010068117544,0.033166247903554,0.37559691344892954,1.167524242874606
17028191,1867.0,1,188170.0,231083,0.62,-0.22,9.98,-0.03,-0.01,-0.01,32.21,15.109705,-6.645419853122226,973.8471622952723,10.001659862242867,0.033166247903554,-0.08888004454869812,1.3682437794769975
17068191,1813.0,1,188172.5,231585,0.62,-0.23,9.95,-0.03,-0.01,-0.01,32.21,15.149705,-33.905946299052694,1057.2880621171842,9.971950661731134,0.033166247903554,-0.45759768732264267,1.4859748071269248
17108191,1767.0,1,188172.5,232145,0.63,-0.22,9.96,-0.03,-0.01,-0.01,32.21,15.189705,-78.21336383360814,974.1991392361831,9.982329387472646,0.033166247903554,-1.0568864275142706,1.3687404017216156
17148206,1720.0,1,188172.5,231547,0.6,-0.23,9.93,-0.03,-0.01,-0.01,32.21,15.22972,-113.53093099999775,608.692128050789,9.950768814518806,0.033166247903554,-1.534581168293777,0.8530278898485153
17188191,1691.0,1,187570.0,226487,0.63,-0.21,9.96,-0.03,-0.01,-0.01,32.21,15.269705,-129.43504507925147,-7.678818038246663,9.982114004558355,0.033166247903554,-1.7496954092216424,-0.016641361699560774
17228878,1676.0,1,186180.0,224458,0.61,-0.22,9.98,-0.03,-0.01,-0.01,32.27,15.310392,-144.07759828470228,-651.3115466760181,10.001044945404455,0.033166247903554,-1.9477461590050114,-0.9247756547546396
17267191,1644.0,1,185941.0,224729,0.62,-0.24,9.93,-0.03,-0.01,-0.01,32.27,15.348705,-159.85895828526043,-1034.3967996687054,9.952230905681398,0.033166247903554,-2.1612000653598344,-1.4652902058755009
17307191,1638.0,1,186200.0,225617,0.62,-0.23,9.96,-0.03,-0.01,-0.01,32.27,15.388705,-167.7429658775569,-1004.8413334683939,9.98192867135405,0.033166247903554,-2.267836769563227,-1.4235888889450523
17347191,1622.0,1,186552.0,226956,0.62,-0.24,9.96,-0.03,-0.01,-0.01,32.27,15.428705,-172.76578752328524,-643.4964166254383,9.982164094022899,0.033166247903554,-2.335773937283015,-0.9137488885759872
17387191,1635.0,1,187049.0,228132,0.62,-0.23,9.97,-0.03,-0.01,-0.01,32.27,15.468705,-159.13396715537624,-176.11365564426097,9.991906724944943,0.033166247903554,-2.151394054424091,-0.2542946775881467
17427191,1643.0,1,187342.0,228610,0.64,-0.21,9.95,-0.03,-0.01,-0.01,32.27,15.508705,-146.28428419355728,214.57457246500763,9.972772934344789,0.033166247903554,-1.97759312576368,0.2969472994782924
17467191,1635.0,1,187491.0,228887,0.61,-0.24,9.97,-0.03,-0.01,-0.01,32.27,15.548705,-154.16744234178054,507.80705115033305,9.991526409913552,0.033166247903554,-2.084218340643234,0.7106839817245331
17507191,1671.0,1,187550.0,229167,0.62,-0.24500000000000002,9.96,-0.03,-0.01,-0.01,32.27,15.588705,-114.50841825753729,796.1596928506492,9.982285559930652,0.033166247903554,-1.5478023655496853,1.1175354527106431
17547191,1728.0,1,187730.0,229804,0.62,-0.23,9.95,-0.03,-0.01,-0.01,32.27,15.628705,-62.45238003396972,1125.5408258878595,9.971950661731134,0.033166247903554,-0.8437081234955474,1.5822761178249092
17587191,1728.0,1,188016.0,230500,0.63,-0.22,9.96,-0.03,-0.01,-0.01,32.27,15.668705,-57.7722739984605,1384.351773317243,9.982329387472646,0.033166247903554,-0.7804064235534071,1.9474457033991899
17627191,1753.0,1,188172.5,230938,0.61,-0.23,9.96,-0.03,-0.01,-0.01,32.27,15.708705,-41.50624913163997,1362.6477247291,9.981312538939957,0.033166247903554,-0.5603970866797324,1.9168223526215773
17667191,1775.0,1,188139.0,228407,0.63,-0.22,9.97,-0.03,-0.01,-0.01,32.27,15.748705,-17.444846397896274,943.5243269342571,9.99230704091903,0.033166247903554,-0.2349498244848038,1.325459742201139
17707191,1795.0,1,186408.0,224400,0.62,-0.24,9.97,-0.03,-0.01,-0.01,32.27,15.788705,-5.013338723539458,250.3964244754283,9.99214191252306,0.033166247903554,-0.0668050083930618,0.3474901802299564
17747191,1830.0,1,185594.0,223383,0.62,-0.24,9.98,-0.03,-0.01,-0.01,32.27,15.828705,25.794882084585062,-402.87307656565486,10.002119775327628,0.033166247903554,0.34989767623637047,-0.5742411272472082
17787191,1872.0,1,185420.0,223538,0.63,-0.22,9.95,-0.03,-0.01,-0.01,32.27,15.868705,63.31953840264274,-731.5192994817993,9.972351778793204,0.033166247903554,0.8574448379149783,-1.0379448701330698
17827191,1909.0,1,185557.0,224107,0.63,-0.23,9.95,-0.03,-0.01,-0.01,32.27,15.908705,91.01372840277483,-678.067131022332,9.9725774000506,0.033166247903554,1.2320280828730679,-0.9625264753616658
17867191,1936.0,1,185746.0,224764,0.63,-0.23,9.95,-0.03,-0.01,-0.01,32.27,15.948705,113.90712829480056,-418.9372929857467,9.9725774000506,0.033166247903554,1.541677291592921,-0.5969069507410195
17907191,1963.0,1,185814.0,224752,0.61,-0.23,9.93,-0.03,-0.01,-0.01,32.27,15.988705,131.00805329977322,-188.8766661909048,9.951376789168421,0.033166247903554,1.7729792354344651,-0.27230266109228257
17947191,1984.0,1,185636.0,224567,0.61,-0.22,9.98,-0.03,-0.01,-0.01,32.27,16.028705,144.18902575102226,-89.94526780058557,10.001044945404455,0.033166247903554,1.951261085615622,-0.13271529777051236
17987191,2001.0,1,185577.0,224426,0.61,-0.22,9.97,-0.03,-0.01,-0.01,32.27,16.068705,154.35812012599382,-48.67246142972193,9.991066009190412,0.033166247903554,2.088805183104797,-0.07448138708152159
18027191,2017.0,1,185446.0,224167,0.62,-0.23,9.96,-0.03,-0.01,-0.01,32.27,16.108705,157.7149721062328,56.69600522201844,9.98192867135405,0.033166247903554,2.134208948573147,0.07418836465033656
18067191,2027.0,1,185383.0,224296,0.61,-0.23,9.95,-0.03,-0.01,-0.01,32.27,16.148705,162.86846340684846,226.5632928529178,9.97133391277215,0.033166247903554,2.203913514557517,0.3138627974473789
18107191,2037.0,1,185464.0,224895,0.61,-0.23,9.96,-0.03,-0.01,-0.01,32.27,16.188705,159.93757140764743,292.25897980527316,9.981312538939957,0.033166247903554,2.1642711550706646,0.4065561978490561
18147191,2029.0,1,185623.0,225032,0.62,-0.22,9.96,-0.03,-0.01,-0.01,32.27,16.228705,142.564194583073,48.78913013829966,9.981703261467954,0.033166247903554,1.9292841102501548,0.06303215071816892
18187191,2007.0,1,184706.0,220715,0.64,-0.22,9.97,-0.03,-0.01,-0.01,32.27,16.268705,115.35183403440045,-540.0068899150748,9.992942509591456,0.033166247903554,1.5612179448471353,-0.7677302291820942
18227191,1978.0,1,183278.0,218110,0.6,-0.22,9.95,-0.03,-0.01,-0.01,32.27,16.308705,65.85152906046432,-1254.2052966238318,9.970501491900995,0.033166247903554,0.8916917784034291,-1.7754292418631883
18267877,1922.0,1,182719.0,217530,0.63,-0.23,9.97,-0.03,-0.01,-0.01,32.31,16.349391,15.881120208171657,-1745.336582306518,9.992532211606825,0.033166247903554,0.2158071289630608,-2.4683914594071146
18308191,1916.0,1,182777.0,218387,0.64,-0.22,9.96,-0.03,-0.01,-0.01,32.31,16.389705,-19.571019835784362,-1779.4966828768656,9.982965491275626,0.033166247903554,-0.2637078038914598,-2.5165896901711093
18348191,1889.0,1,183262.0,219945,0.63,-0.23,9.98,-0.03,-0.01,-0.01,32.31,16.429705,-37.482254391058966,-1388.0330764097512,10.002509685074042,0.033166247903554,-0.5059697498407085,-1.9642536921739093
18388191,1898.0,1,183711.0,221113,0.63,-0.23,9.96,-0.03,-0.01,-0.01,32.31,16.469705,-53.07412245248475,-805.2641937295729,9.982554783220577,0.033166247903554,-0.7168606454899191,-1.1419953082546113
18428191,1872.0,1,184110.0,221901,0.63,-0.22,9.94,-0.03,-0.01,-0.01,32.31,16.509705,-83.31901754443395,-265.79020531095716,9.962374215015213,0.033166247903554,-1.1259439567153167,-0.3808239021158452
18468191,1856.0,1,184332.0,222193,0.63,-0.24,9.96,-0.03,-0.01,-0.01,32.31,16.549705,-103.78218340671631,152.58662189478065,9.982790191123923,0.033166247903554,-1.4027225543479889,0.2094853337262253
18508191,1843.0,1,184470.0,222366,0.65,-0.21,9.97,-0.03,-0.01,-0.01,32.31,16.589705,-143.87213070019595,513.5263072441093,9.993372804013669,0.033166247903554,-1.9449670665477952,0.7187535722820473
18548191,1837.0,1,184548.0,222933,0.61,-0.23,9.99,-0.03,-0.01,-0.01,32.31,16.629705,-133.49435920790137,873.0408422311418,10.011248673367374,0.033166247903554,-1.8046004654304229,1.2260109933962202
18586197,1975.0,1,184920.0,224212,0.63,-0.22,9.98,-0.03,-0.01,-0.01,32.31,16.667711,-36.31217378219934,1157.7582739657328,10.002284738998386,0.033166247903554,-0.49014359311516115,1.6277333609582119
18626191,1968.0,1,185324.0,225216,0.61,-0.23,9.98,-0.03,-0.01,-0.01,32.31,16.707705,-22.648888315117084,1202.8508406592716,10.00126991936524,0.033166247903554,-0.30533812283334516,1.6913567665966192
18666191,1966.0,1,185250.0,222710,0.64,-0.21,9.95,-0.03,-0.01,-0.01,32.31,16.747705,-59.682469995558336,922.0385972879891,9.972772934344789,0.033166247903554,-0.806243157362753,1.2951444287701663
18706191,1966.0,1,183731.0,219732,0.65,-0.23,9.95,-0.03,-0.01,-0.01,32.31,16.787705,-51.6570689181461,438.8165674010721,9.973860837208427,0.033166247903554,-0.6976940076077723,0.6133417842266443
18746168,1981.0,1,183270.0,219938,0.63,-0.23,9.95,-0.03,-0.01,-0.01,32.31,16.827682,-55.45122391816107,32.74781226771114,9.9725774000506,0.033166247903554,-0.7490126015718056,0.04039863595749053
18786171,1987.0,1,183635.0,220600,0.62,-0.24,9.96,-0.03,-0.01,-0.01,32.31,16.867685,-56.394906867463945,-64.47317013484549,9.982164094022899,0.033166247903554,-0.7617765719699218,-0.09677541408053107
18826171,2000.0,1,183757.0,221058,0.6,-0.22,9.97,-0.03,-0.01,-0.01,32.31,16.907685,-50.31796790132325,162.29394425856393,9.990460449849147,0.033166247903554,-0.6795817319208579,0.2231818906911732
18866191,2011.0,1,184090.0,222431,0.62,-0.23,9.97,-0.03,-0.01,-0.01,32.31,16.947705,-52.70997588019006,527.6050305787276,9.991906724944943,0.033166247903554,-0.7119353089955186,0.7386179621642421
18906191,2034.0,1,184531.0,223358,0.62,-0.24,9.97,-0.03,-0.01,-0.01,32.31,16.987705,-34.03018302163889,819.668127722953,9.99214191252306,0.033166247903554,-0.45927807568890555,1.1507047042631164
18946191,2074.0,1,184598.0,223351,0.61,-0.23,9.97,-0.03,-0.01,-0.01,32.31,17.027705,-5.960995553258869,968.4508453739385,9.991291207846961,0.033166247903554,-0.07962272829681417,1.3606298402933446
18986191,2096.0,1,184454.0,223130,0.61,-0.22,9.99,-0.03,-0.01,-0.01,32.31,17.067705,9.571300932012798,1059.44277280907,10.011023923655362,0.033166247903554,0.13046242021543483,1.4890149985029217
19026194,2113.0,1,184514.0,223749,0.62,-0.22,9.96,-0.03,-0.01,-0.01,32.31,17.107708,17.585440185225433,1189.0396281662806,9.981703261467954,0.033166247903554,0.2388592459395333,1.6718698214251058
19066191,2128.0,1,184647.0,224150,0.61,-0.21,9.94,-0.03,-0.01,-0.01,32.31,17.147705,26.01647374370683,1305.731568464117,9.960913612716455,0.033166247903554,0.3528948580542566,1.836516440517779
19106191,2154.0,1,184893.0,225043,0.62,-0.21,9.96,-0.03,-0.01,-0.01,32.31,17.187705,41.56594884260397,1203.6676611432367,9.981487865042967,0.033166247903554,0.5632123593031512,1.692509260339951
19146191,2152.0,1,185083.0,224094,0.6,-0.22,9.99,-0.03,-0.01,-0.01,32.31,17.227705,38.9412605253428,698.2654672927052,10.010419571626356,0.033166247903554,0.5277116182856818,0.9794114895159897
19186191,2160.0,1,183403.0,218898,0.61,-0.21,9.98,-0.03,-0.01,-0.01,32.31,17.267705,29.52720292798562,-168.69902508963253,10.000829965557859,0.033166247903554,0.4003799200838716,-0.24383299660551044
19226191,2191.0,1,182262.0,217244,0.61,-0.22,10.0,-0.03,-0.01,-0.01,32.31,17.307705,69.33578065345012,-1094.865855236341,10.02100294381755,0.033166247903554,0.9388187125345514,-1.5506090850845289
19266191,2212.0,1,182116.0,217325,0.62,-0.24,9.95,-0.03,-0.01,-0.01,32.31,17.347705,66.6870754308093,-1703.9884253471712,9.97218631996013,0.033166247903554,0.9029931261126519,-2.410051232723988
19306881,2119.0,1,182199.0,217935,0.62,-0.21,9.98,-0.03,-0.01,-0.01,32.11,17.388395,-13.211975490948314,-1798.4879449271614,10.001444895613833,0.033166247903554,-0.17769729174036544,-2.5433854318556115
19347191,2119.0,1,182598.0,219301,0.61,-0.22,9.96,-0.03,-0.01,-0.01,32.11,17.428705,-34.032991021125646,-1467.772382868986,9.981087115139314,0.033166247903554,-0.4593160558414063,-2.0767619526741505
19387191,2128.0,1,183237.0,221164,0.63,-0.22,9.97,-0.03,-0.01,-0.01,32.11,17.468705,-17.62030442263655,-979.4912317706534,9.99230704091903,0.033166247903554,-0.23732301670529612,-1.3878211355977732
19427191,2142.0,1,183906.0,222441,0.62,-0.21,9.94,-0.03,-0.01,-0.01,32.11,17.508705,-13.53889451620165,-566.0400850501886,9.961531006828217,0.033166247903554,-0.18211909968337972,-0.8044617939520031
19467191,2163.0,1,184071.0,222560,0.62,-0.23,9.98,-0.03,-0.01,-0.01,32.11,17.548705,5.924654376758362,-290.341619423523,10.001884822372231,0.033166247903554,0.0811389808992486,-0.41546474635290914
19507191,2167.0,1,184106.0,222967,0.62,-0.22,9.95,-0.03,-0.01,-0.01,32.11,17.588705,8.93056963091004,-88.70847558812112,9.971725026293093,0.033166247903554,0.12179608226107888,-0.1309702444636372
19547191,2174.0,1,184384.0,223791,0.63,-0.22,9.98,-0.03,-0.01,-0.01,32.11,17.628705,11.71657325867871,76.17284017849576,10.002284738998386,0.033166247903554,0.1594787254201538,0.10166922595082727
19587191,2189.0,1,184712.0,224822,0.63,-0.21,9.98,-0.03,-0.01,-0.01,32.11,17.668705,26.788163033067377,121.45299582502501,10.002069785799337,0.033166247903554,0.36333249418323155,0.1655573104248952
19627191,2186.0,1,185199.0,226249,0.63,-0.23,9.97,-0.03,-0.01,-0.01,32.11,17.708705,23.855002472177972,-81.48875910125368,9.992532211606825,0.033166247903554,0.32365945081652525,-0.12078357769525201
19667191,2187.0,1,185038.0,222424,0.6,-0.23,9.98,-0.03,-0.01,-0.01,32.11,17.748705,21.91349413920448,-535.5641414826393,10.00066497789022,0.033166247903554,0.2973991958144865,-0.7614617284869066
19707188,2193.0,1,183265.0,220131,0.63,-0.23,9.98,-0.03,-0.01,-0.01,32.11,17.788702,32.7763057188323,-1041.5484571316501,10.002509685074042,0.033166247903554,0.4443263025775257,-1.4753808446906356
19747191,2197.0,1,183481.0,221112,0.64,-0.22,9.97,-0.03,-0.01,-0.01,32.11,17.828705,33.442847291476646,-1325.3225255720395,9.992942509591456,0.033166247903554,0.453341742465076,-1.8757721727946322
19787168,2192.0,1,184041.0,222634,0.6,-0.22,9.98,-0.03,-0.01,-0.01,32.11,17.868682,33.43466514443076,-1259.9027030215914,10.000439990320427,0.033166247903554,0.45323107321671896,-1.7834680035685284
19827191,2205.0,1,184590.0,224016,0.61,-0.21,9.98,-0.03,-0.01,-0.01,32.11,17.908705,47.60479053603572,-961.1386249896958,10.000829965557859,0.033166247903554,0.6448919071542737,-1.3619265052547558
19867191,2197.0,1,185103.0,224775,0.6,-0.22,9.98,-0.03,-0.01,-0.01,32.11,17.948705,41.118569531280265,-660.7030532382993,10.000439990320427,0.033166247903554,0.5571612419329753,-0.9380266110736419
19907191,2169.0,1,184902.0,224362,0.62,-0.23,9.98,-0.03,-0.01,-0.01,32.11,17.988705,19.418039746258962,-483.9747370543951,10.001884822372231,0.033166247903554,0.2636464338037545,-0.68867160263558
19947191,2153.0,1,185092.0,225768,0.65,-0.22,9.919999999999998,-0.03,-0.01,-0.01,32.11,18.028705,4.0232125961641065,-346.6001757772429,9.943706552387795,0.033166247903554,0.055420653976869336,-0.49484281715225426
19987191,2135.0,1,185650.0,226502,0.62,-0.22,9.96,-0.03,-0.01,-0.01,32.11,18.068705,-8.033179047306326,-61.366026408989775,9.981703261467954,0.033166247903554,-0.10765045603845191,-0.09239138628742528
20027171,2128.0,1,186024.0,227085,0.61,-0.22,9.98,-0.03,-0.01,-0.01,32.11,18.108685,-9.305452448837453,447.3021356953241,10.001044945404455,0.033166247903554,-0.12485884159575193,0.6253145059687172
20067191,2115.0,1,186402.0,228473,0.62,-0.23,9.95,-0.03,-0.01,-0.01,32.11,18.148705,-21.070032911016163,1016.8348283130786,9.971950661731134,0.033166247903554,-0.2839830017561475,1.4288972732354523
20107191,2097.0,1,187196.0,229978,0.62,-0.22,9.97,-0.03,-0.01,-0.01,32.11,18.188705,-28.609181200340174,1332.0107980960383,9.991681540161297,0.033166247903554,-0.38595524324151853,1.8735951479264694
20147191,2082.0,1,187657.0,228614,0.62,-0.22,9.97,-0.03,-0.01,-0.01,32.11,18.228705,-41.177361540399076,1170.4654307713738,9.991681540161297,0.033166247903554,-0.5559486525080569,1.6456625375662046
20187191,2064.0,1,186156.0,224502,0.62,-0.24,9.97,-0.03,-0.01,-0.01,32.11,18.268705,-55.167825551890736,607.8008670123602,9.99214191252306,0.033166247903554,-0.7451794409105674,0.8517703641245296
20227216,2071.0,1,185208.0,223520,0.62,-0.24,9.96,-0.03,-0.01,-0.01,32.11,18.30873,-31.726074710297098,-5.050136307603193,9.982164094022899,0.033166247903554,-0.4281134029545452,-0.012932420374937439
20267191,2055.0,1,185240.0,224129,0.63,-0.22,9.95,-0.03,-0.01,-0.01,32.11,18.348705,-60.574185059859566,-287.87337462017985,9.972351778793204,0.033166247903554,-0.8183042258526555,-0.4119821736839975
20307878,2008.0,1,185556.0,225196,0.61,-0.24,9.97,-0.03,-0.01,-0.01,32.11,18.389392,-74.15909261083031,-93.20901475783639,9.991526409913552,0.033166247903554,-1.002049580126386,-0.13732028506195523
20346191,2106.0,1,186113.0,226965,0.62,-0.22,9.96,-0.03,-0.01,-0.01,32.11,18.427705,0.37532135068957123,433.1579154353513,9.981703261467954,0.033166247903554,0.006080379356902441,0.6053577031290116
20386191,2077.0,1,186658.0,227815,0.61,-0.24,10.0,-0.03,-0.01,-0.01,32.11,18.467705,6.907166807276477,1018.2589917814743,10.021461969193917,0.033166247903554,0.09442814712629405,1.4309066982180876
20426210,2080.0,1,186859.0,228135,0.61,-0.23,9.97,-0.03,-0.01,-0.01,32.11,18.507724,-5.66784267871334,1480.11800837286,9.991291207846961,0.033166247903554,-0.07565763110438745,2.0825671760981397
20466191,2082.0,1,186772.0,227997,0.6,-0.22,10.0,-0.03,-0.01,-0.01,32.11,18.547705,17.226738531502527,1801.896715338847,10.020399193644932,0.033166247903554,0.23400755576831983,2.536581189942968
20506188,2063.0,1,186817.0,227946,0.62,-0.22,9.97,-0.03,-0.01,-0.01,32.11,18.587702,0.13607861698607543,2023.9170305882412,9.991681540161297,0.033166247903554,0.0028444544382508342,2.849840993339862
20546191,2047.0,1,186796.0,228117,0.63,-0.23,9.97,-0.03,-0.01,-0.01,32.11,18.627705,-10.531970995181428,2095.2610148890453,9.992532211606825,0.033166247903554,-0.1414483608085765,2.950503864980757
20586191,2041.0,1,186784.0,227512,0.62,-0.24,9.96,-0.03,-0.01,-0.01,32.11,18.667705,-3.950636888423765,1860.1511291843642,9.982164094022899,0.033166247903554,-0.052431224512086975,2.6187753180242175
20626191,2047.0,1,186268.0,225356,0.62,-0.22,9.94,-0.03,-0.01,-0.01,32.11,18.707705,2.2744355282023965,1210.6395434745948,9.961746834767483,0.033166247903554,0.03176722382338709,1.702346245239167
20666191,2036.0,1,184557.0,220096,0.62,-0.23,9.96,-0.03,-0.01,-0.01,32.11,18.747705,4.256510051226231,255.28196771355442,9.98192867135405,0.033166247903554,0.05857616485323791,0.35438344273408035
20706191,2032.0,1,183051.0,217568,0.63,-0.24,9.94,-0.03,-0.01,-0.01,32.11,18.787705,1.9616447583719843,-681.195806274202,9.962835941638303,0.033166247903554,0.0275365103937668,-0.9669408830846375
20746191,2031.0,1,182545.0,216897,0.63,-0.23,9.97,-0.03,-0.01,-0.01,32.11,18.827705,12.293727274545073,-1255.3154790238966,9.992532211606825,0.033166247903554,0.1672851362269975,-1.7769956549186257
20786191,2026.0,1,182523.0,217090,0.63,-0.22,9.95,-0.03,-0.01,-0.01,32.11,18.867705,8.50506473603379,-1335.0483996484447,9.972351778793204,0.033166247903554,0.11604083163748105,-1.8894949053185244
20826188,2016.0,1,182573.0,217526,0.62,-0.24,9.93,-0.03,-0.01,-0.01,32.11,18.907702,11.774787613898058,-1066.2290259682775,9.952230905681398,0.033166247903554,0.16026611519689402,-1.510203919924993
20866191,2039.0,1,182669.0,217583,0.62,-0.22,9.97,-0.03,-0.01,-0.01,32.11,18.947705,32.47018933077773,-730.4207784623325,9.991681540161297,0.033166247903554,0.4401858648188556,-1.0363949107151715
20906191,2021.0,1,182618.0,217191,0.62,-0.24,9.97,-0.03,-0.01,-0.01,32.11,18.987705,30.173543985179197,-527.7355173914707,9.99214191252306,0.033166247903554,0.4091221339038843,-0.7504159228771231
20946191,2019.0,1,182410.0,216526,0.61,-0.23,9.98,-0.03,-0.01,-0.01,32.11,19.027705,24.69021098504367,-464.2096414298884,10.00126991936524,0.033166247903554,0.33495622876758147,-0.6607840196344534
20986191,2009.0,1,182126.0,215935,0.63,-0.23,10.0,-0.03,-0.01,-0.01,32.11,19.067705,28.152581252596267,-418.21652242102914,10.022464766712826,0.033166247903554,0.3817872027032725,-0.5958899787349035
21026195,2006.0,1,181949.0,215890,0.64,-0.23,9.95,-0.03,-0.01,-0.01,32.11,19.107709,26.01331211283862,-306.4273779746562,9.973214125847294,0.033166247903554,0.3528520947905551,-0.43816096473976074
21066191,1989.0,1,182020.0,216108,0.61,-0.22,9.97,-0.03,-0.01,-0.01,32.11,19.147705,15.08088406199401,-191.4293329894013,9.991066009190412,0.033166247903554,0.20498337667543118,-0.27590434906636074
21106191,1969.0,1,182062.0,216273,0.63,-0.22,9.96,-0.03,-0.01,-0.01,32.11,19.187705,4.04587333480115,-230.49501030973283,9.982329387472646,0.033166247903554,0.05572715627976284,-0.3310241086396547
21146191,1982.0,1,181709.0,213694,0.63,-0.22,9.98,-0.03,-0.01,-0.01,32.11,19.227705,13.602804017263459,-512.366556706298,10.002284738998386,0.033166247903554,0.18499131265549318,-0.728731071212789
21186191,1963.0,1,180564.0,210982,0.63,-0.23,9.96,-0.03,-0.01,-0.01,32.11,19.267705,12.0981339601845,-938.5077280192655,9.982554783220577,0.033166247903554,0.1646396001638398,-1.329995416751936
21226191,1951.0,1,179993.0,210634,0.63,-0.21,9.95,-0.03,-0.01,-0.01,32.11,19.307705,-11.740956936260961,-1269.668760348169,9.972136180377802,0.033166247903554,-0.15780073930082059,-1.7972474326926153
21266191,1931.0,1,179980.0,211212,0.62,-0.205,9.96,-0.03,-0.01,-0.01,32.11,19.347705,-8.505454575525183,-1303.1734661216585,9.981383922082149,0.033166247903554,-0.11403831211489507,-1.8445209334607067
21306191,1936.0,1,180307.0,212281,0.62,-0.24,9.95,-0.03,-0.01,-0.01,32.11,19.387705,-19.093662800380255,-1021.6469317902356,9.97218631996013,0.033166247903554,-0.2572512168844236,-1.4473007660332082
21346878,1865.0,1,180657.0,213373,0.65,-0.23,9.95,-0.03,-0.01,-0.01,32.13,19.428392,-67.60909040507447,-583.7005227822008,9.973860837208427,0.033166247903554,-0.9134562296545735,-0.8293798076284489
21387191,1863.0,1,180931.0,213995,0.66,-0.22,9.98,-0.03,-0.01,-0.01,32.13,19.468705,-81.28074650467099,-176.81413808310776,10.004219109955558,0.033166247903554,-1.098374918582233,-0.25528302404117126
21427191,1857.0,1,181027.0,214191,0.63,-0.22,9.93,-0.03,-0.01,-0.01,32.13,19.508705,-72.99221170765124,126.36103421448622,9.952396696273718,0.033166247903554,-0.9862667016529459,0.17248231248707122
21467191,1867.0,1,181119.0,214462,0.64,-0.23,9.96,-0.03,-0.01,-0.01,32.13,19.548705,-65.18228280470086,381.86386886799795,9.983190872661908,0.033166247903554,-0.8806319634156056,0.5329843127702478
21507191,1892.0,1,181307.0,214804,0.64,-0.22,9.96,-0.03,-0.01,-0.01,32.13,19.588705,-36.474649535961774,657.8819661690916,9.982965491275626,0.033166247903554,-0.4923411910615555,0.9224323450253102
21547191,1904.0,1,181380.0,215447,0.63,-0.22,9.97,-0.03,-0.01,-0.01,32.13,19.628705,-18.26871287927317,908.2523152339679,9.99230704091903,0.033166247903554,-0.24609319354542228,1.2756926592284212
21587191,1920.0,1,181633.0,216300,0.63,-0.24,9.95,-0.03,-0.01,-0.01,32.13,19.668705,-5.208725712165667,968.3204111533425,9.97281304346973,0.033166247903554,-0.06944775375668666,1.360445803989035
21627192,1940.0,1,181875.0,215538,0.63,-0.23,9.96,-0.03,-0.01,-0.01,32.13,19.708706,23.88789491919277,694.298460795744,9.982554783220577,0.033166247903554,0.3241043441149881,0.9738142374180618
21667191,1953.0,1,180778.0,212001,0.64,-0.22,9.97,-0.03,-0.01,-0.01,32.13,19.748705,33.14392609664526,124.66478045015292,9.992942509591456,0.033166247903554,0.4492986247156074,0.1700889814077535
21707191,1947.0,1,179736.0,210195,0.63,-0.24,9.95,-0.03,-0.01,-0.01,32.13,19.788705,33.97582336635187,-496.70592832164607,9.97281304346973,0.033166247903554,0.4605506157923275,-0.7066346906931184
21747191,1969.0,1,179585.0,210240,0.62,-0.22,9.97,-0.03,-0.01,-0.01,32.13,19.828705,55.235657194439675,-876.7408954616227,9.991681540161297,0.033166247903554,0.748104703583193,-1.2428454376983467
21787191,1971.0,1,179840.0,211335,0.62,-0.23,9.97,-0.03,-0.01,-0.01,32.13,19.868705,59.842178581986786,-878.9202923830601,9.991906724944943,0.033166247903554,0.8104111198137457,-1.2459204601365699
21827191,1969.0,1,180209.0,212607,0.65,-0.23,9.94,-0.03,-0.01,-0.01,32.13,19.908705,60.001293585438845,-600.0545062126607,9.963884784560687,0.033166247903554,0.8125632612670363,-0.8524544781982445
21867237,1986.0,1,180577.0,213425,0.63,-0.21,9.96,-0.03,-0.01,-0.01,32.13,19.948751,77.32670031386715,-261.41277815748094,9.982114004558355,0.033166247903554,1.0469014770632894,-0.3746475665496974
21907191,1968.0,1,180818.0,213888,0.65,-0.23,9.94,-0.03,-0.01,-0.01,32.13,19.988705,61.42220555374879,-23.05319439684254,9.963884784560687,0.033166247903554,0.8317820871610879,-0.038333854614155595
21947192,1943.0,1,180894.0,214213,0.65,-0.23,9.96,-0.03,-0.01,-0.01,32.13,20.028706,37.16955911871597,115.35317977989901,9.983836937770969,0.033166247903554,0.5037481204549844,0.15695076839333846
21987191,1940.0,1,181083.0,214372,0.63,-0.23,9.95,-0.03,-0.01,-0.01,32.13,20.068705,34.83886724814953,254.38860127280742,9.9725774000506,0.033166247903554,0.4722238865319105,0.35312294639042174
22027191,1931.0,1,181211.0,215140,0.64,-0.22,9.96,-0.03,-0.01,-0.01,32.13,20.108705,26.671661165574758,446.68415180347137,9.982965491275626,0.033166247903554,0.3617567251295472,0.6244425609296032
22067221,1927.0,1,181496.0,216253,0.65,-0.22,9.94,-0.03,-0.01,-0.01,32.13,20.148735,23.109038610728902,607.0748800042022,9.963658966464077,0.033166247903554,0.3135697690514429,0.8507460319719119
22107191,1915.0,1,182008.0,217117,0.66,-0.21,9.97,-0.03,-0.01,-0.01,32.13,20.188705,11.524336762504843,572.8497604264049,9.994028216890325,0.033166247903554,0.1568785926653833,0.8024560625691899
22147191,1902.0,1,181755.0,214756,0.65,-0.22,9.96,-0.03,-0.01,-0.01,32.13,20.228705,-3.1008833236269253,264.7452007187849,9.983611570969696,0.033166247903554,-0.04093771458401952,0.3677356015551663
22187191,1883.0,1,180742.0,212846,0.61,-0.24500000000000002,9.96,-0.03,-0.01,-0.01,32.13,20.268705,-17.364432566827222,-204.02526027820707,9.981669449546004,0.033166247903554,-0.23386217130624132,-0.2936765862675401
22227191,1872.0,1,180461.0,212544,0.61,-0.205,9.97,-0.03,-0.01,-0.01,32.13,20.308705,-38.764592162452395,-583.7065717988372,9.990746969070932,0.033166247903554,-0.5233142630233864,-0.8293883424949999
22267188,1856.0,1,180665.0,213273,0.6,-0.22,9.99,-0.03,-0.01,-0.01,32.13,20.348702,-39.558256094018844,-667.0913692631606,10.010419571626356,0.033166247903554,-0.5340491215222606,-0.9470402124629442
22307191,1840.0,1,180993.0,214597,0.63,-0.24,9.96,-0.03,-0.01,-0.01,32.13,20.388705,-77.12101409507449,-432.85392766569964,9.982790191123923,0.033166247903554,-1.0421116350510462,-0.6165426414609945
22347878,1798.0,1,181550.0,216006,0.62,-0.24,9.96,-0.03,-0.01,-0.01,32.05,20.429392,-97.28223836330145,-32.16707067310127,9.982164094022899,0.033166247903554,-1.3148062619270884,-0.051193088181486594
22386192,1889.0,1,181968.0,217073,0.62,-0.22,9.97,-0.03,-0.01,-0.01,32.05,20.467706,-28.55925639615682,354.1193978943804,9.991681540161297,0.033166247903554,-0.38527997542704884,0.4938382215092592
22426191,1895.0,1,182207.0,217737,0.63,-0.23,9.95,-0.03,-0.01,-0.01,32.05,20.507705,-8.635340856894791,648.8374560488082,9.9725774000506,0.033166247903554,-0.11579511470600659,0.90967098371061
22466191,1891.0,1,182414.0,217830,0.62,-0.21,9.94,-0.03,-0.01,-0.01,32.05,20.547705,-21.444427548558124,885.2031650457708,9.961531006828217,0.033166247903554,-0.2890469504841914,1.2431714358966306
22506191,1900.0,1,182327.0,218324,0.63,-0.21,9.96,-0.03,-0.01,-0.01,32.05,20.587705,-15.23219445782213,1096.2563268805418,9.982114004558355,0.033166247903554,-0.2050221629907564,1.5409571223478324
22546191,1879.0,1,182703.0,218933,0.64,-0.22,9.97,-0.03,-0.01,-0.01,32.05,20.627705,-31.056731375156584,1212.372349145476,9.992942509591456,0.033166247903554,-0.4190600672741441,1.704791149270474
22586191,1904.0,1,182874.0,219478,0.62,-0.24,9.94,-0.03,-0.01,-0.01,32.05,20.667705,-17.627706430092015,1089.136361820426,9.96220859046828,0.033166247903554,-0.23742313402130566,1.5309111999626703
22626191,1904.0,1,182816.0,217284,0.66,-0.23,9.93,-0.03,-0.01,-0.01,32.05,20.707705,-11.602691582839267,657.4075816555547,9.954566791176802,0.033166247903554,-0.15593060391322744,0.921763011683998
22666191,1891.0,1,181456.0,213964,0.64,-0.23,9.94,-0.03,-0.01,-0.01,32.05,20.747705,-30.817809672028353,48.11966184250682,9.96323742565638,0.033166247903554,-0.4158284845180404,0.06208756370375565
22706191,1904.0,1,180732.0,212921,0.62,-0.22,9.95,-0.03,-0.01,-0.01,32.05,20.787705,-21.723586601485785,-453.39416013085076,9.971725026293093,0.033166247903554,-0.2928227714742464,-0.6455239046239261
22746192,1904.0,1,180751.0,213842,0.64,-0.23,9.95,-0.03,-0.01,-0.01,32.05,20.827706,-17.064844186614113,-607.098487239358,9.973214125847294,0.033166247903554,-0.22981002940891812,-0.8623931908294556
22786191,1918.0,1,181297.0,214896,0.62,-0.22,9.96,-0.03,-0.01,-0.01,32.05,20.867705,-16.764173856946595,-395.8322489533311,9.981703261467954,0.033166247903554,-0.22574325339023188,-0.5643068639294103
22826171,1914.0,1,181630.0,215828,0.62,-0.24,9.99,-0.03,-0.01,-0.01,32.05,20.907685,-9.116164688133669,-19.32837974087377,10.012097682304143,0.033166247903554,-0.12229859254586328,-0.03307832335564015
22866191,1933.0,1,181816.0,216299,0.63,-0.23,9.94,-0.03,-0.01,-0.01,32.05,20.947705,-7.71256357745203,282.54832269954505,9.962600062232749,0.033166247903554,-0.10331390808087626,0.3928549357263625
22906191,1926.0,1,181760.0,216065,0.62,-0.23,9.98,-0.03,-0.01,-0.01,32.05,20.987705,-1.8679744333205235,411.35898904587856,10.001884822372231,0.033166247903554,-0.02426176150987485,0.5746004844152245
22946191,1952.0,1,181745.0,215706,0.65,-0.22,9.96,-0.03,-0.01,-0.01,32.05,21.027705,7.711672849934555,440.9408458974546,9.983611570969696,0.033166247903554,0.10530965274338619,0.6163390372635547
22986191,1951.0,1,181540.0,215795,0.64,-0.22,9.96,-0.03,-0.01,-0.01,32.05,21.067705,16.978263373366964,489.17517203743205,9.982965491275626,0.033166247903554,0.2306467558667719,0.6843953117833802
23026194,1965.0,1,181710.0,215921,0.64,-0.22,9.95,-0.03,-0.01,-0.01,32.05,21.107708,18.656295505914898,564.2004055233349,9.972988518994693,0.033166247903554,0.2533433114024547,0.7902522459346529
23066191,1963.0,1,181681.0,216427,0.65,-0.24,9.93,-0.03,-0.01,-0.01,32.05,21.147705,22.450013494508685,535.0300491446994,9.954144865331225,0.033166247903554,0.30465599448206665,0.7490943001226937
23106191,1983.0,1,181838.0,215854,0.64,-0.21,9.93,-0.03,-0.01,-0.01,32.05,21.187705,35.11822680171734,257.8868450962954,9.952818696228722,0.033166247903554,0.4760024194330343,0.35805879728834195
23146192,1981.0,1,180898.0,211962,0.64,-0.22,9.96,-0.03,-0.01,-0.01,32.05,21.227706,35.293285643499146,-260.5733284329499,9.982965491275626,0.033166247903554,0.4783702124254605,-0.37346314405496855
23186191,1998.0,1,179738.0,209938,0.64,-0.23,9.95,-0.03,-0.01,-0.01,32.05,21.267705,46.87297470678671,-824.5799306418088,9.973214125847294,0.033166247903554,0.6349935873972964,-1.169248868095729
23226191,2006.0,1,179637.0,210020,0.63,-0.21,9.96,-0.03,-0.01,-0.01,32.05,21.307705,58.97462554360424,-1182.0076821941789,9.982114004558355,0.033166247903554,0.79867685958483,-1.6735619398707886
23266191,2011.0,1,179749.0,210708,0.63,-0.24,9.97,-0.03,-0.01,-0.01,32.05,21.347705,53.256548878693316,-1210.4126895504673,9.992767384463626,0.033166247903554,0.721335882576611,-1.7136400156537321
23306192,2018.0,1,179906.0,211555,0.64,-0.24,9.98,-0.03,-0.01,-0.01,32.05,21.387706,73.22347735016443,-989.0201681711936,10.003379428972991,0.033166247903554,0.9914025232205165,-1.4012659986953762
23346191,2021.0,1,180315.0,212201,0.66,-0.22,9.95,-0.03,-0.01,-0.01,32.05,21.427705,55.94549170880913,-702.3277368763125,9.974291954820652,0.033166247903554,0.7577057107177037,-0.9967570033724498
23386878,1934.0,1,180302.0,212489,0.62,-0.22,9.96,-0.03,-0.01,-0.01,32.03,21.468392,-9.984067556465876,-476.39490509190927,9.981703261467954,0.033166247903554,-0.134037584468962,-0.6779768305482484
23427191,1945.0,1,180403.0,212721,0.62,-0.23,9.92,-0.03,-0.01,-0.01,32.03,21.508705,-22.540445897889768,-299.1088714799928,9.942016897994089,0.033166247903554,-0.3038713634684418,-0.4278349101032654
23467191,1945.0,1,180578.0,213086,0.63,-0.24500000000000002,9.98,-0.03,-0.01,-0.01,32.03,21.548705,-4.268344698211767,-87.23218861476778,10.002865839348242,0.033166247903554,-0.05672844433827976,-0.12888727576543232
23507208,1964.0,1,180646.0,213809,0.66,-0.22,9.98,-0.03,-0.01,-0.01,32.03,21.588722,0.23666450110163634,175.13690415572228,10.004219109955558,0.033166247903554,0.004204948710472028,0.24130267881769574
23547191,1952.0,1,181037.0,214548,0.63,-0.23,9.99,-0.03,-0.01,-0.01,32.03,21.628705,-7.1129880069362805,368.4982499694634,10.012487203487453,0.033166247903554,-0.09520423010147638,0.5141260783617001
23587191,1940.0,1,181293.0,215362,0.64,-0.22,9.96,-0.03,-0.01,-0.01,32.03,21.668705,-18.43094116579578,319.03480468255,9.982965491275626,0.033166247903554,-0.2482874443247135,0.4443355768550873
23627192,1949.0,1,181064.0,212960,0.62,-0.22,9.96,-0.03,-0.01,-0.01,32.03,21.708706,-19.076093314557088,-34.560825548515176,9.981703261467954,0.033166247903554,-0.25701357732855085,-0.05457055920619978
23667191,1949.0,1,179886.0,210325,0.63,-0.24,9.96,-0.03,-0.01,-0.01,32.03,21.748705,-8.031359319069015,-545.7565876696638,9.982790191123923,0.033166247903554,-0.10762584294422274,-0.7758427714337836
23707228,1982.0,1,179537.0,210306,0.63,-0.23,9.94,-0.03,-0.01,-0.01,32.03,21.788742,8.894685136381224,-939.8402981319828,9.962600062232749,0.033166247903554,0.12131071943211652,-1.3318756079905327
23747191,1959.0,1,179808.0,211179,0.64,-0.24,9.92,-0.03,-0.01,-0.01,32.03,21.828705,-1.6178523334724748,-1009.7890648036171,9.943520503322755,0.033166247903554,-0.0208786855724177,-1.4305698958118862
23787191,1968.0,1,180121.0,212379,0.64,-0.205,9.98,-0.03,-0.01,-0.01,32.03,21.868705,-8.021441286955895,-757.6979539562318,10.002600911762901,0.033166247903554,-0.10749169463901817,-1.0748816709147644
23827191,1971.0,1,180574.0,213824,0.64,-0.21,9.97,-0.03,-0.01,-0.01,32.03,21.908705,4.293905710822119,-362.67985080483453,9.99272735543205,0.033166247903554,0.059081967244234326,-0.5175304519849998
23867191,1968.0,1,181091.0,214783,0.63,-0.21,9.97,-0.03,-0.01,-0.01,32.03,21.948705,-11.458851958326811,-15.67540815764671,9.99209187307643,0.033166247903554,-0.153985072619365,-0.027924159158139897
23907210,1975.0,1,181258.0,215223,0.65,-0.23,9.98,-0.03,-0.01,-0.01,32.03,21.988724,0.1431167481533574,224.94010612024343,10.003789282067071,0.033166247903554,0.0029396500735472115,0.31157256037523146
23947191,1997.0,1,181381.0,215549,0.62,-0.22,9.96,-0.03,-0.01,-0.01,32.03,22.028705,14.779015404401198,431.4257395088298,9.981703261467954,0.033166247903554,0.20090039243535346,0.6029136876361887
23987191,1983.0,1,181613.0,216158,0.63,-0.24,9.99,-0.03,-0.01,-0.01,32.03,22.068705,-4.696479534974128,670.6175588800975,10.012721907653283,0.033166247903554,-0.0625192667610797,0.9404016433046645
24027191,1986.0,1,181814.0,217259,0.63,-0.205,9.98,-0.03,-0.01,-0.01,32.03,22.108705,3.052544934596733,873.7891649090072,10.001966056731046,0.033166247903554,0.04229169651524821,1.2270668400861153
24067191,1999.0,1,182221.0,218345,0.63,-0.24,9.97,-0.03,-0.01,-0.01,32.03,22.148705,-4.819419455780598,856.0507719841813,9.992767384463626,0.033166247903554,-0.0641821149783541,1.2020388354462428
24107191,1996.0,1,182583.0,216937,0.62,-0.23,9.98,-0.03,-0.01,-0.01,32.03,22.188705,9.070657236010856,490.9513360829428,10.001884822372231,0.033166247903554,0.12369086487421256,0.6869013923601613
24146191,2076.0,1,181202.0,213429,0.64,-0.23,9.96,-0.03,-0.01,-0.01,32.03,22.227705,60.65712645595079,-118.40603227853113,9.983190872661908,0.033166247903554,0.8214338584856359,-0.17287204412442891
24186191,2064.0,1,180443.0,212762,0.62,-0.22,9.98,-0.03,-0.01,-0.01,32.03,22.267705,62.277280341849995,-654.3172487940476,10.001659862242867,0.033166247903554,0.843347570347535,-0.9290165534017112
24226191,2079.0,1,180677.0,213989,0.63,-0.23,9.94,-0.03,-0.01,-0.01,32.03,22.307705,60.94650158704981,-802.2957875786651,9.962600062232749,0.033166247903554,0.8253478590618119,-1.1378070323925986
24266192,2078.0,1,181215.0,215818,0.63,-0.22,9.94,-0.03,-0.01,-0.01,32.03,22.347706,52.631406600720844,-487.02480688909816,9.962374215015213,0.033166247903554,0.7128803970382254,-0.692975101960372
24306191,2064.0,1,182025.0,217968,0.66,-0.22,9.96,-0.03,-0.01,-0.01,32.03,22.387705,44.68656714512174,85.22481476170508,9.984267624618242,0.033166247903554,0.6054208994347504,0.11444111925754827
24346192,2076.0,1,182781.0,219449,0.63,-0.22,9.96,-0.03,-0.01,-0.01,32.03,22.427706,29.6474728887279,610.3411967114666,9.982329387472646,0.033166247903554,0.40200665522816037,0.8553546450549097
24386878,1968.0,1,182990.0,219661,0.64,-0.23,9.96,-0.03,-0.01,-0.01,31.99,22.468392,-61.58620057529018,922.9723879078098,9.983190872661908,0.033166247903554,-0.8319924418906087,1.296461961652913
24427234,1953.0,1,182987.0,219815,0.64,-0.23,9.98,-0.03,-0.01,-0.01,31.99,22.508748,-104.37847957720294,1074.2997297682564,10.003144505604226,0.033166247903554,-1.4107878761536057,1.5099774379575408
24467191,1955.0,1,183029.0,220370,0.64,-0.23,9.99,-0.03,-0.01,-0.01,31.99,22.548705,-93.99851063594087,1196.4272511671002,10.013121391454316,0.033166247903554,-1.2703915530055525,1.68229339607055
24507191,1936.0,1,183272.0,221269,0.65,-0.24,9.98,-0.03,-0.01,-0.01,31.99,22.588705,-126.9409157243965,1302.7877742320795,10.004024190294624,0.033166247903554,-1.7159605692757065,1.8323628908692566
24547191,1920.0,1,183681.0,222084,0.65,-0.23,9.94,-0.03,-0.01,-0.01,31.99,22.628705,-148.53307025502744,1234.716356875587,9.963884784560687,0.033166247903554,-2.00800952646426,1.7363174510900654
24587191,1910.0,1,183890.0,221668,0.65,-0.23,10.000000000000004,-0.03,-0.01,-0.01,31.99,22.668705,-160.5838468914287,818.9887768261465,10.023741816307924,0.033166247903554,-2.171004689590778,1.149746173382138
24627191,1914.0,1,182503.0,216478,0.64,-0.23,10.0,-0.03,-0.01,-0.01,31.99,22.708705,-167.96371786479384,83.29192663625193,10.023098323372869,0.033166247903554,-2.2708225942329414,0.11171390867104185
24667191,1920.0,1,181315.0,215035,0.65,-0.22,9.99,-0.03,-0.01,-0.01,31.99,22.748705,-161.12914831741068,-694.7221636120848,10.01354083229304,0.033166247903554,-2.178380271892468,-0.9860259115676464
24707191,1936.0,1,181273.0,215033,0.63,-0.23,9.98,-0.03,-0.01,-0.01,31.99,22.788705,-154.13838304842548,-1170.707548963991,10.002509685074042,0.033166247903554,-2.0838252934228216,-1.657618004694987
24747191,1964.0,1,181470.0,216375,0.66,-0.21,10.000000000000004,-0.03,-0.01,-0.01,31.99,22.828705,-126.44324845555536,-1185.4215065162791,10.023956304773085,0.033166247903554,-1.7092292721888065,-1.6783786789821236
24787191,2001.0,1,181997.0,218041,0.66,-0.24,9.99,-0.03,-0.01,-0.01,31.99,22.868705,-94.44078422898541,-857.6649916642994,10.014654262629339,0.033166247903554,-1.2763736119731954,-1.2159302706495336
24827191,2029.0,1,182490.0,219139,0.64,-0.22,9.96,-0.03,-0.01,-0.01,31.99,22.908705,-66.86953592775703,-449.04210276120193,9.982965491275626,0.033166247903554,-0.9034532392823861,-0.6393833645816476
24867191,2067.0,1,182739.0,219660,0.64,-0.21,9.97,-0.03,-0.01,-0.01,31.99,22.948705,-30.239910487122316,-140.84875203217607,9.99272735543205,0.033166247903554,-0.4080119947799507,-0.20453762378015178
24907191,2103.0,1,182883.0,220093,0.64,-0.23,9.96,-0.03,-0.01,-0.01,31.99,22.988705,5.096546828453839,72.77055054971963,9.983190872661908,0.033166247903554,0.06993824844898677,0.09686876172748583
24947191,2131.0,1,182975.0,220481,0.67,-0.21,10.0,-0.03,-0.01,-0.01,31.99,23.028705,37.82543849708305,294.26828183747705,10.024619693534513,0.033166247903554,0.5126193467247782,0.4093912247197555
24987191,2182.0,1,183216.0,221129,0.64,-0.23,9.95,-0.03,-0.01,-0.01,31.99,23.068705,84.74940861300206,541.1820799178311,9.973214125847294,0.033166247903554,1.1472987864286848,0.7577745145810781
25027191,2209.0,1,183583.0,222207,0.63,-0.22,9.96,-0.03,-0.01,-0.01,31.99,23.108705,126.26867918370044,665.2526269280964,9.982329387472646,0.033166247903554,1.7088758933450066,0.9328319867773609
25067191,2227.0,1,183979.0,222738,0.64,-0.22,9.99,-0.03,-0.01,-0.01,31.99,23.148705,135.0744226349821,468.5412663501646,10.012896683777377,0.033166247903554,1.82797971823513,0.655281880286615
25107191,2244.0,1,183331.0,218249,0.63,-0.22,9.95,-0.03,-0.01,-0.01,31.99,23.188705,175.11037392696676,-83.31474473435698,9.972351778793204,0.033166247903554,2.369493896835916,-0.12335995409481239
25146195,2315.0,1,181804.0,216350,0.65,-0.22,9.95,-0.03,-0.01,-0.01,31.99,23.227709,237.2247892633507,-762.880347705062,9.973635244984647,0.033166247903554,3.2096347081492724,-1.082193774967316
25186191,2304.0,1,181622.0,216365,0.66,-0.23,9.97,-0.03,-0.01,-0.01,31.99,23.267705,248.78431643599387,-1214.0523678809554,9.994468470108854,0.033166247903554,3.36598537948103,-1.7187754237219348
25226191,2304.0,1,181897.0,217292,0.63,-0.23,9.98,-0.03,-0.01,-0.01,31.99,23.307705,250.4692826970503,-1210.681085659382,10.002509685074042,0.033166247903554,3.388775723943475,-1.714018709433248
25266191,2285.0,1,182416.0,219019,0.62,-0.23,10.000000000000004,-0.03,-0.01,-0.01,31.99,23.347705,244.57307974767718,-810.9297120038249,10.021841148212241,0.033166247903554,3.309025464640094,-1.149989077377676
25306191,2254.0,1,183082.0,220787,0.62,-0.22,9.97,-0.03,-0.01,-0.01,31.99,23.387705,229.7649853644929,-277.6416288224369,9.991681540161297,0.033166247903554,3.1087356549120475,-0.3975456809089667
25346210,2229.0,1,183489.0,221577,0.63,-0.24,9.95,-0.03,-0.01,-0.01,31.99,23.427724,209.9029082533227,148.32428899803082,9.97281304346973,0.033166247903554,2.8400872020822496,0.20347139052581087
25386877,2140.0,1,183616.0,221730,0.64,-0.24,9.96,-0.03,-0.01,-0.01,32.05,23.468391,143.91748414586854,412.19588020905076,9.983426265566347,0.033166247903554,1.94758829592222,0.575781296905043
25427191,2095.0,1,183570.0,221994,0.65,-0.22,9.98,-0.03,-0.01,-0.01,32.05,23.508705,105.70084411646508,610.7895679558239,10.003564364765191,0.033166247903554,1.430681571676416,0.8559872749460005
25467191,2061.0,1,183844.0,222636,0.64,-0.23,9.96,-0.03,-0.01,-0.01,32.05,23.548705,91.46146978648639,814.166178691707,9.983190872661908,0.033166247903554,1.238084097524946,1.1429417233399886
25507191,1981.0,1,184079.0,223382,0.64,-0.23,9.96,-0.03,-0.01,-0.01,32.05,23.588705,25.509758739270925,932.2197243642688,9.983190872661908,0.033166247903554,0.346041184029862,1.3095095010055227
25547191,1917.0,1,184267.0,223973,0.64,-0.23,9.96,-0.03,-0.01,-0.01,32.05,23.628705,-24.40872591910858,770.6135324123977,9.983190872661908,0.033166247903554,-0.3291411544547524,1.0814910700718612
25587191,1874.0,1,184175.0,220665,0.63,-0.24500000000000002,9.96,-0.03,-0.01,-0.01,32.05,23.668705,-48.663988101915365,233.63853202345683,9.982911649413712,0.033166247903554,-0.6572105009747866,0.32384561379037613
25627191,1826.0,1,182334.0,217137,0.64,-0.23,9.94,-0.03,-0.01,-0.01,32.05,23.708705,-85.03893134499329,-524.0284539053523,9.96323742565638,0.033166247903554,-1.1492069910361848,-0.7451854376508644
25667191,1787.0,1,181794.0,216647,0.64,-0.24,9.94,-0.03,-0.01,-0.01,32.05,23.748705,-105.46468276608718,-1159.6591276021652,9.963473289972729,0.033166247903554,-1.425479532243715,-1.6420292226514888
25707191,1757.0,1,181879.0,217301,0.65,-0.23,9.96,-0.03,-0.01,-0.01,32.05,23.788705,-123.4267420945643,-1378.7842721666416,9.983836937770969,0.033166247903554,-1.6684289187164225,-1.951204081846141
25747191,1712.0,1,182253.0,218484,0.65,-0.23,9.98,-0.03,-0.01,-0.01,32.05,23.828705,-153.44133179408732,-1136.6243884603157,10.003789282067071,0.033166247903554,-2.0743971888004853,-1.6095283326010943
25787191,1678.0,1,182820.0,220375,0.63,-0.23,9.95,-0.03,-0.01,-0.01,32.05,23.868705,-173.36670870354018,-632.5616205182386,9.9725774000506,0.033166247903554,-2.3439018155731133,-0.8983204262081235
25827191,1668.0,1,183363.0,221467,0.63,-0.23,9.96,-0.03,-0.01,-0.01,32.05,23.908705,-174.4445495631856,-121.92304639914116,9.982554783220577,0.033166247903554,-2.358480365324974,-0.17783437899332963
25867191,1654.0,1,183679.0,222088,0.64,-0.21,9.98,-0.03,-0.01,-0.01,32.05,23.948705,-171.59848118576997,272.71233595947433,10.00270463424768,0.033166247903554,-2.3199853045133065,0.37897683962084217
25907191,1654.0,1,183695.0,222498,0.63,-0.22,9.98,-0.03,-0.01,-0.01,32.05,23.988705,-169.21248068807807,587.4091564654301,10.002284738998386,0.033166247903554,-2.2877129828136002,0.822998658122391
