timestamp_us,ecg,leads,ir,red,accX,accY,accZ,gyroX,gyroY,gyroZ,temp,time_sec,ecg_filtered,ppg_filtered,accel_magnitude,gyro_magnitude,ecg_norm,ppg_norm
1949959,1565.0,1,193551,234268,0.6,-0.21,9.945,-0.03,-0.01,-0.01,31.95,0.030472,-4.3686762673472925,-89.25012465214469,9.965296031729313,0.033166247903554,-0.04436701107845906,-0.17558758739177127
1990198,1645.0,1,193654,234469,0.62,-0.22,9.96,-0.03,-0.01,-0.01,31.95,0.070711,17.310565113981962,315.7313976381002,9.981703261467954,0.033166247903554,0.19104893718030863,0.598803982642422
2030195,1677.0,1,193671,234746,0.63,-0.23,9.985,-0.03,-0.01,-0.01,31.95,0.110708,6.120274163408521,432.6116260707196,10.007498438670874,0.033166247903554,0.06953301745400556,0.8222982869999014
2070192,1765.0,1,193864,234128,0.63,-0.23,9.96,-0.03,-0.01,-0.01,31.95,0.150705,26.160075494996676,148.97854334135883,9.982554783220577,0.033166247903554,0.28714620559149,0.2799449791099363
2110192,1827.0,1,192750,229791,0.61,-0.24,9.98,-0.03,-0.01,-0.01,31.95,0.190705,50.14934997125934,-397.42797552626394,10.001504886765792,0.033166247903554,0.5476469168263844,-0.7648745465561333
2150192,1905.0,1,191708,228529,0.62,-0.22,9.985,-0.03,-0.01,-0.01,31.95,0.230705,66.21060568236032,-903.7385878304474,10.006649039513677,0.033166247903554,0.7220568824219403,-1.733024075378858
2190192,1951.0,1,191722,228800,0.6,-0.23,9.98,-0.03,-0.01,-0.01,31.95,0.270705,67.86621560786462,-1099.551554075525,10.00066497789022,0.033166247903554,0.7400352320193063,-2.1074508134335947
2230192,2000.0,1,191880,229582,0.63,-0.21,9.985,-0.03,-0.01,-0.01,31.95,0.310705,69.4199481013111,-918.6071339087497,10.007058758696283,0.033166247903554,0.7569072895720295,-1.761455191634701
2270189,2083.0,1,192081,230665,0.63,-0.23,9.96,-0.03,-0.01,-0.01,31.95,0.350702,102.7049871100377,-516.338882135495,9.982554783220577,0.033166247903554,1.1183511649936977,-0.9922518430376175
2310192,2128.0,1,192482,231377,0.61,-0.24500000000000002,9.97,-0.03,-0.01,-0.01,31.95,0.390705,109.83820296851438,-127.68392640158913,9.991647762006025,0.033166247903554,1.1958111067840964,-0.24907936526553953
2350189,2170.0,1,192561,231358,0.61,-0.24,9.97,-0.03,-0.01,-0.01,31.95,0.430702,106.87999946853584,112.09061731186443,9.991526409913552,0.033166247903554,1.1636878295051405,0.20940917097789843
2390193,2224.0,1,192472,231213,0.64,-0.23,9.985,-0.03,-0.01,-0.01,31.95,0.470706,124.7637762942776,237.67011393389268,10.008132942762101,0.033166247903554,1.3578886415089244,0.4495379131567576
2430188,2265.0,1,192285,231174,0.62,-0.22,9.96,-0.03,-0.01,-0.01,31.95,0.510701,131.70546894055025,366.32282932355525,9.981703261467954,0.033166247903554,1.433268823319649,0.6955431572882695
2470192,2298.0,1,192391,231324,0.62,-0.23,9.945,-0.03,-0.01,-0.01,31.95,0.550705,130.16000043256318,540.756949699547,9.966961673448935,0.033166247903554,1.41648650479142,1.0290900104424425
2510189,2325.0,1,192490,231788,0.64,-0.21,9.95,-0.03,-0.01,-0.01,31.95,0.590702,131.5826656112475,653.7250830816679,9.972772934344789,0.033166247903554,1.4319352959277711,1.2451037428193874
2550192,2362.0,1,192643,232211,0.62,-0.22,9.95,-0.03,-0.01,-0.01,31.95,0.630705,140.73208086818465,535.4703354510334,9.971725026293093,0.033166247903554,1.5312892461347238,1.0189811306967202
2590189,2363.0,1,192183,229133,0.64,-0.23,9.97,-0.03,-0.01,-0.01,31.95,0.670702,121.04544629544438,131.78986911397922,9.993167665960579,0.033166247903554,1.317511113198906,0.2470773945681233
2630192,2351.0,1,190898,226869,0.62,-0.23,9.97,-0.03,-0.01,-0.01,31.95,0.710705,89.24049533663074,-397.02727141056386,9.991906724944943,0.033166247903554,0.9721395866960892,-0.7641083340940897
2670193,2365.0,1,190463,226795,0.63,-0.21,9.98,-0.03,-0.01,-0.01,31.95,0.750706,89.7027579696763,-763.8598440678641,10.002069785799337,0.033166247903554,0.9771593193605697,-1.4655528105563476
2710192,2358.0,1,190673,227399,0.63,-0.22,9.98,-0.03,-0.01,-0.01,31.95,0.790705,66.2649308338084,-762.91599533916,10.002284738998386,0.033166247903554,0.7226468019130101,-1.4637480158714875
2750190,2325.0,1,191003,228449,0.62,-0.205,9.98,-0.03,-0.01,-0.01,31.95,0.830703,31.7855327334522,-417.33976634610707,10.001341160064484,0.033166247903554,0.34823332238150356,-0.8029491798578466
2790193,2334.0,1,191443,229533,0.62,-0.22,9.97,-0.03,-0.01,-0.01,31.95,0.870706,24.05800679880559,57.22424694276013,9.991681540161297,0.033166247903554,0.2643197382481685,0.10449560738632893
2830190,2302.0,1,191705,229933,0.63,-0.23,9.96,-0.03,-0.01,-0.01,31.95,0.910703,2.6555680909354678,429.74324976555096,9.982554783220577,0.033166247903554,0.03190960383254869,0.8168134776736712
2870192,2290.0,1,191829,229839,0.62,-0.23,9.96,-0.03,-0.01,-0.01,31.95,0.950705,-24.214134853924175,613.1421513167838,9.98192867135405,0.033166247903554,-0.25986982179086243,1.1675024733385648
2910192,2251.0,1,191605,229787,0.63,-0.23,9.985,-0.03,-0.01,-0.01,31.95,0.990705,-45.61524513411533,677.7892714599676,10.007498438670874,0.033166247903554,-0.4922655307449896,1.2911184461927294
2950192,2243.0,1,191599,229902,0.61,-0.22,9.97,-0.03,-0.01,-0.01,31.95,1.030705,-62.31593047368231,726.4313706209132,9.991066009190412,0.033166247903554,-0.673619094120665,1.3841301750389838
2990876,2222.0,1,191576,230432,0.64,-0.22,9.95,-0.03,-0.01,-0.01,31.95,1.071389,-63.54144567743952,758.9435315191184,9.972988518994693,0.033166247903554,-0.6869270239842307,1.4462987974017625
3029193,2214.0,1,191683,230835,0.63,-0.23,9.97,-0.03,-0.01,-0.01,31.95,1.109706,-72.0068080227834,660.1576068302388,9.992532211606825,0.033166247903554,-0.7788528099851891,1.257403790823474
3069189,2186.0,1,191700,229877,0.64,-0.205,9.95,-0.03,-0.01,-0.01,31.95,1.149702,-80.39934008977484,325.97424571770154,9.972668900550143,0.033166247903554,-0.8699877284120148,0.6183900001997847
3109192,2177.0,1,190573,226322,0.61,-0.23,9.98,-0.03,-0.01,-0.01,31.95,1.189705,-81.84950225715522,-195.0080390460474,10.00126991936524,0.033166247903554,-0.8857351107008092,-0.37781418999795363
3149189,2145.0,1,189812,225416,0.62,-0.23,9.96,-0.03,-0.01,-0.01,31.95,1.229702,-95.02174944759433,-691.0422571799396,9.98192867135405,0.033166247903554,-1.0287731907005428,-1.326313555596395
3189192,2131.0,1,189805,225826,0.63,-0.22,9.945,-0.03,-0.01,-0.01,31.95,1.269705,-95.563629949689,-931.3787392058504,9.967362991283101,0.033166247903554,-1.034657497720318,-1.785876610720559
3229190,2115.0,1,189884,226772,0.63,-0.24,9.95,-0.03,-0.01,-0.01,31.95,1.309703,-91.80342796008648,-836.8468661229145,9.97281304346973,0.033166247903554,-0.9938252794034377,-1.6051160535450568
3269192,2096.0,1,190395,227915,0.62,-0.23,9.98,-0.03,-0.01,-0.01,31.95,1.349705,-96.16800950834052,-522.9375552239505,10.001884822372231,0.033166247903554,-1.041220485068699,-1.004869596025985
3309189,2087.0,1,190703,228622,0.63,-0.23,9.95,-0.03,-0.01,-0.01,31.95,1.389702,-80.78215734742723,-184.22400216796476,9.9725774000506,0.033166247903554,-0.8741447598382931,-0.3571933300582254
3349192,2076.0,1,190913,228943,0.64,-0.22,9.95,-0.03,-0.01,-0.01,31.95,1.429705,-80.73503971926907,65.40908684561786,9.972988518994693,0.033166247903554,-0.873633107197066,0.12014637334475693
3389189,2043.0,1,190839,229173,0.64,-0.23,9.96,-0.03,-0.01,-0.01,31.95,1.469702,-83.48954235610226,250.35201346923574,9.983190872661908,0.033166247903554,-0.9035443867859279,0.47378780000752563
3429192,2078.0,1,191038,229606,0.62,-0.23,9.96,-0.03,-0.01,-0.01,31.95,1.509705,-41.09665995142842,445.9063403682701,9.98192867135405,0.033166247903554,-0.44319799204013516,0.8477199769076638
3469192,2063.0,1,191230,230185,0.63,-0.23,9.95,-0.03,-0.01,-0.01,31.95,1.549705,-23.938708857789273,642.6863903847244,9.9725774000506,0.033166247903554,-0.2568789573544779,1.2239959388870771
3509192,2037.0,1,191514,230719,0.63,-0.24,9.96,-0.03,-0.01,-0.01,31.95,1.589705,-42.10177706090956,706.6441223870736,9.982790191123923,0.033166247903554,-0.4541126081596548,1.346293687735058
3549190,2021.0,1,191433,231040,0.62,-0.24,9.95,-0.03,-0.01,-0.01,31.95,1.629703,-29.681893170463244,488.23727908948405,9.97218631996013,0.033166247903554,-0.3192444782327791,0.9286637244444923
3589192,2015.0,1,191113,227878,0.62,-0.23,9.96,-0.03,-0.01,-0.01,31.95,1.669705,-23.735778249147838,-13.606126803591266,9.98192867135405,0.033166247903554,-0.2546753238959199,-0.030943767776657333
3629190,1987.0,1,189792,225976,0.62,-0.21,9.98,-0.03,-0.01,-0.01,31.95,1.709703,-30.435276901302338,-593.3290250769027,10.001444895613833,0.033166247903554,-0.3274255092143779,-1.139469714441697
3669192,1998.0,1,189651,226163,0.64,-0.21,9.95,-0.03,-0.01,-0.01,31.95,1.749705,-2.791249378526623,-959.6234032509169,9.972772934344789,0.033166247903554,-0.027237654921171493,-1.8398850741468773
3709189,1998.0,1,189814,226988,0.63,-0.22,9.945,-0.03,-0.01,-0.01,31.95,1.789702,12.066557966371825,-942.08420498292,9.967362991283101,0.033166247903554,0.13410400568498426,-1.8063472297358898
3749192,1984.0,1,190277,228282,0.62,-0.22,9.96,-0.03,-0.01,-0.01,31.95,1.829705,15.493966908928137,-605.8137177721089,9.981703261467954,0.033166247903554,0.17132240793855064,-1.1633425092372733
3789189,2005.0,1,190789,229461,0.62,-0.23,9.97,-0.03,-0.01,-0.01,31.95,1.869702,50.26892693881381,-178.3951468609685,9.991906724944943,0.033166247903554,0.5489454089973784,-0.34604759583519096
3829193,2010.0,1,191205,229899,0.65,-0.23,9.95,-0.03,-0.01,-0.01,31.95,1.909706,66.48435701121998,138.1216188975908,9.973860837208427,0.033166247903554,0.7250295615640295,0.25918474610422754
3869189,1998.0,1,191029,230069,0.64,-0.22,9.96,-0.03,-0.01,-0.01,31.95,1.949702,72.87134713849206,302.28170431814283,9.982965491275626,0.033166247903554,0.7943862014428623,0.573085947242635
3909193,2025.0,1,191150,230291,0.62,-0.23,9.96,-0.03,-0.01,-0.01,31.95,1.989706,101.32669331365683,406.2980491794878,9.98192867135405,0.033166247903554,1.1033842048797877,0.77198238121047
3949190,2015.0,1,191294,230589,0.62,-0.22,9.96,-0.03,-0.01,-0.01,31.95,2.029703,113.9771497652974,530.4904044123241,9.981703261467954,0.033166247903554,1.2407561335873138,1.0094586799095353
3989192,2000.0,1,191475,231058,0.64,-0.21,9.97,-0.03,-0.01,-0.01,31.95,2.069705,93.97192425916445,628.7566412594871,9.99272735543205,0.033166247903554,1.0235184060387492,1.1973599574865628
4029876,1936.0,1,191582,231570,0.62,-0.22,9.985,-0.03,-0.01,-0.01,31.83,2.110389,51.69376371656976,560.0553400011147,10.006649039513677,0.033166247903554,0.5644177816348391,1.0659917206247977
4070193,1899.0,1,191765,229644,0.62,-0.22,9.97,-0.03,-0.01,-0.01,31.83,2.150706,7.876914678555886,237.440056350431,9.991681540161297,0.033166247903554,0.08860846319258846,0.44909800505367264
4110189,1831.0,1,190370,226499,0.63,-0.22,9.98,-0.03,-0.01,-0.01,31.83,2.190702,-41.74154063036612,-252.85619008428134,10.002284738998386,0.033166247903554,-0.45020078304538785,-0.4884294107930585
4150192,1811.0,1,190019,226296,0.65,-0.205,9.96,-0.03,-0.01,-0.01,31.83,2.230705,-71.160294737824,-686.6352337667679,9.983292292625714,0.033166247903554,-0.7696604805956567,-1.3178865988285806
4190189,1795.0,1,189983,226817,0.65,-0.205,9.96,-0.03,-0.01,-0.01,31.83,2.270702,-68.64769545155748,-865.3592610934015,9.983292292625714,0.033166247903554,-0.7423760413864435,-1.6596364627275928
4230192,1792.0,1,190346,227672,0.61,-0.23,9.96,-0.03,-0.01,-0.01,31.83,2.310705,-87.70477055024534,-755.0143444120695,9.981312538939957,0.033166247903554,-0.949317757034294,-1.4486387540150754
4270190,1793.0,1,190655,228663,0.63,-0.21,9.96,-0.03,-0.01,-0.01,31.83,2.350703,-65.93529715245874,-475.70994575824375,9.982114004558355,0.033166247903554,-0.7129219748715642,-0.9145626051383878
4310192,1872.0,1,190999,229173,0.62,-0.22,9.98,-0.03,-0.01,-0.01,31.83,2.390705,-7.283295521245685,-168.53594438082288,10.001659862242867,0.033166247903554,-0.07601700488593062,-0.3271951720388945
4350189,1855.0,1,190965,229437,0.63,-0.22,9.96,-0.03,-0.01,-0.01,31.83,2.430702,-8.286833382611142,119.74054543738619,9.982329387472646,0.033166247903554,-0.08691447187250095,0.2240370972552999
4390192,1872.0,1,191287,230233,0.63,-0.24500000000000002,9.97,-0.03,-0.01,-0.01,31.83,2.470705,-5.371366341323021,425.2011834912028,9.992888721485896,0.033166247903554,-0.055255271900073503,0.8081282966473848
4430190,1888.0,1,191634,231214,0.62,-0.23,9.98,-0.03,-0.01,-0.01,31.83,2.510703,11.569891634827417,754.1455169009421,10.001884822372231,0.033166247903554,0.12871068156666765,1.4371242008616425
4470193,1883.0,1,191860,231889,0.62,-0.22,9.98,-0.03,-0.01,-0.01,31.83,2.550706,5.683613004145076,997.661839261539,10.001659862242867,0.033166247903554,0.06479129245230378,1.9027676359876153
4510189,1921.0,1,191922,232308,0.62,-0.23,9.96,-0.03,-0.01,-0.01,31.83,2.590702,29.073719329917804,977.8027739225076,9.98192867135405,0.033166247903554,0.3187856072763202,1.8647938225150036
4550193,1947.0,1,192030,231651,0.64,-0.21,9.96,-0.03,-0.01,-0.01,31.83,2.630706,61.54057462574586,602.1109740619366,9.982750122085598,0.033166247903554,0.6713447855246005,1.146409040173028
4590189,1966.0,1,190905,227284,0.64,-0.22,9.98,-0.03,-0.01,-0.01,31.83,2.670702,61.84117227034604,-12.93513278622348,10.00291957380444,0.033166247903554,0.6746089901295111,-0.029660716373090854
4630193,1969.0,1,189859,226056,0.64,-0.23,9.97,-0.03,-0.01,-0.01,31.83,2.710706,64.93372675541534,-580.4726785823187,9.993167665960579,0.033166247903554,0.7081911913624148,-1.1148862561877442
4670169,1985.0,1,189922,226359,0.63,-0.24500000000000002,9.95,-0.03,-0.01,-0.01,31.83,2.750682,71.65514638789627,-833.1604383444214,9.97293462326912,0.033166247903554,0.7811794176842243,-1.5980669946668618
4710193,1984.0,1,190188,226965,0.64,-0.22,9.96,-0.03,-0.01,-0.01,31.83,2.790706,54.95594969989258,-706.7810503863182,9.982965491275626,0.033166247903554,0.5998420196490806,-1.356408728118355
4750190,1984.0,1,190563,228068,0.61,-0.21,9.97,-0.03,-0.01,-0.01,31.83,2.830703,58.58521309611265,-358.5962594909758,9.990850814620345,0.033166247903554,0.6392523693413814,-0.6906218908358625
4790193,2018.0,1,191017,228833,0.63,-0.23,9.95,-0.03,-0.01,-0.01,31.83,2.870706,65.79018711008956,-13.485287714504427,9.9725774000506,0.033166247903554,0.717491536471138,-0.03071270347675974
4830190,1987.0,1,190871,229054,0.62,-0.22,9.96,-0.03,-0.01,-0.01,31.83,2.910703,39.49869581988199,214.91508592334182,9.981703261467954,0.033166247903554,0.4319909396397444,0.4060265406684257
4870192,1991.0,1,190963,229193,0.62,-0.23,9.95,-0.03,-0.01,-0.01,31.83,2.950705,23.094795897081294,370.7685198341216,9.971950661731134,0.033166247903554,0.2538601836994611,0.7040440519337695
4910193,1984.0,1,191086,229482,0.63,-0.23,9.96,-0.03,-0.01,-0.01,31.83,2.990706,3.6388456751656424,545.9456901323074,9.982554783220577,0.033166247903554,0.042587063473387095,1.0390117392845437
4950193,1943.0,1,191190,229823,0.63,-0.22,9.96,-0.03,-0.01,-0.01,31.83,3.030706,-36.25339059408163,734.5031069383675,9.982329387472646,0.033166247903554,-0.39060469191597197,1.3995646682583947
4990190,1918.0,1,191446,230440,0.61,-0.23,9.945,-0.03,-0.01,-0.01,31.83,3.070703,-97.90551294068887,800.1417316794472,9.966344615755569,0.033166247903554,-1.0600881202840817,1.525076561691648
5030879,1885.0,1,191548,230322,0.62,-0.22,9.96,-0.03,-0.01,-0.01,32.09,3.111392,-110.33397553436683,593.8210513364977,9.981703261467954,0.033166247903554,-1.1950494067712163,1.130557338499059
5069192,2029.0,1,190619,226455,0.66,-0.22,9.97,-0.03,-0.01,-0.01,32.09,3.149705,-15.88284198737295,111.89171395643965,9.994243343045035,0.033166247903554,-0.16939990285311748,0.20902883490522675
5109239,2054.0,1,189696,225103,0.63,-0.23,9.98,-0.03,-0.01,-0.01,32.09,3.189752,33.05517491991244,-459.5299544857992,10.002509685074042,0.033166247903554,0.36202042932023104,-0.8836237890320371
5149188,2084.0,1,189369,225171,0.61,-0.23,9.96,-0.03,-0.01,-0.01,32.09,3.229701,17.972931389765336,-863.7366011631955,9.981312538939957,0.033166247903554,0.19824160514158073,-1.6565336688917711
5189192,2078.0,1,189490,225467,0.62,-0.21,9.95,-0.03,-0.01,-0.01,32.09,3.269705,25.95724676156559,-952.2479500499553,9.971509414326398,0.033166247903554,0.284943678400851,-1.8257819892660985
5229189,2093.0,1,189552,226054,0.62,-0.23,9.97,-0.03,-0.01,-0.01,32.09,3.309702,8.808174697697579,-768.5520477688167,9.991906724944943,0.033166247903554,0.09872106153611396,-1.474525079143695
5269192,2071.0,1,189953,226748,0.62,-0.23,9.97,-0.03,-0.01,-0.01,32.09,3.349705,-11.89364676582068,-477.47440435381634,9.991906724944943,0.033166247903554,-0.12608103576951796,-0.9179365414462931
5309238,2077.0,1,190019,226952,0.61,-0.22,9.96,-0.03,-0.01,-0.01,32.09,3.389751,-24.586261657549976,-219.8447389142022,9.981087115139314,0.033166247903554,-0.26391076505115196,-0.4253060629520588
5349192,2075.0,1,190123,227002,0.63,-0.22,9.95,-0.03,-0.01,-0.01,32.09,3.429705,-37.12386467375605,-25.277545849318614,9.972351778793204,0.033166247903554,-0.4000572127536115,-0.05326144900871659
5389192,2093.0,1,190148,227211,0.63,-0.21,9.96,-0.03,-0.01,-0.01,32.09,3.469705,-23.969608648216965,151.77373420834718,9.982114004558355,0.033166247903554,-0.25721449969826105,0.2852898457887697
5429192,2096.0,1,190319,227579,0.64,-0.21,9.98,-0.03,-0.01,-0.01,32.09,3.509705,-42.783521459128515,325.4566809226801,10.00270463424768,0.033166247903554,-0.4615157041053939,0.6174003308145137
5469188,2057.0,1,190261,228155,0.62,-0.23,9.98,-0.03,-0.01,-0.01,32.09,3.549701,-74.40421130748163,418.0341884714404,10.001884822372231,0.033166247903554,-0.8048863301484908,0.7944238182445321
5509192,2087.0,1,190643,228748,0.64,-0.24,9.945,-0.03,-0.01,-0.01,32.09,3.589705,-71.40848370009259,316.41744413070546,9.968461516201986,0.033166247903554,-0.7723555767418778,0.6001158168651802
5549189,2083.0,1,190257,225853,0.65,-0.23,9.95,-0.03,-0.01,-0.01,32.09,3.629702,-65.11411539277283,-1.0157818399496035,9.973860837208427,0.033166247903554,-0.7040047217606802,-0.006868948390999114
5589192,2109.0,1,189248,224152,0.64,-0.22,9.945,-0.03,-0.01,-0.01,32.09,3.669705,-58.32008646983072,-395.83343125343674,9.968000050160514,0.033166247903554,-0.6302280275831165,-0.7618255145016813
5629192,2112.0,1,189000,224171,0.62,-0.23,9.97,-0.03,-0.01,-0.01,32.09,3.709705,-54.21455253716303,-644.676382694715,9.991906724944943,0.033166247903554,-0.5856458327144393,-1.2376543443425825
5669192,2128.0,1,189213,224693,0.62,-0.24,9.985,-0.03,-0.01,-0.01,32.09,3.749705,-39.983778869500775,-605.064106056431,10.007108723302649,0.033166247903554,-0.43111316164441504,-1.16190912780758
5709189,2139.0,1,189449,225466,0.61,-0.23,9.985,-0.03,-0.01,-0.01,32.09,3.789702,-39.82732479369557,-323.1732788006091,10.006259291063769,0.033166247903554,-0.4294142191414568,-0.6228873001884295
5750192,2090.0,1,190021,226239,0.61,-0.23,9.97,-0.03,-0.01,-0.01,32.09,3.830705,-76.65889166262714,15.372441749591507,9.991291207846961,0.033166247903554,-0.8293700150012331,0.024468042303802864
5790189,2105.0,1,190046,226542,0.63,-0.22,9.945,-0.03,-0.01,-0.01,32.09,3.870702,-73.98720274552487,244.5464976085401,9.967362991283101,0.033166247903554,-0.8003580136673789,0.4626866946612909
5830193,2121.0,1,190026,226376,0.62,-0.21,9.96,-0.03,-0.01,-0.01,32.09,3.910706,-45.26199156185097,341.00928251036953,9.981487865042967,0.033166247903554,-0.48842953283216445,0.6471394742043088
5870189,2116.0,1,189971,226337,0.63,-0.23,9.96,-0.03,-0.01,-0.01,32.09,3.950702,-49.63126917867109,403.98399331760635,9.982554783220577,0.033166247903554,-0.5358757333369188,0.7675575241407074
5910191,2129.0,1,190015,226589,0.62,-0.22,9.95,-0.03,-0.01,-0.01,32.09,3.990704,-34.6014734860722,519.5496304808585,9.971725026293093,0.033166247903554,-0.3726664428053808,0.9885381128321447
5950189,2151.0,1,190090,227012,0.63,-0.22,9.985,-0.03,-0.01,-0.01,32.09,4.030702,8.041402189182165,644.5909972151813,10.007273604733708,0.033166247903554,0.09039464115932114,1.2276378617713473
5990193,2151.0,1,190396,227659,0.64,-0.21,9.96,-0.03,-0.01,-0.01,32.09,4.070706,-1.633968172586921,628.8888598739242,9.982750122085598,0.033166247903554,-0.014670681395382905,1.1976127813187283
6030875,2096.0,1,190422,226244,0.6,-0.21,9.98,-0.03,-0.01,-0.01,31.97,4.111388,-20.222900804520087,363.385699845434,10.000224997468807,0.033166247903554,-0.21652881497535856,0.6899268805379294
6069192,2167.0,1,189376,223696,0.6,-0.22,9.95,-0.03,-0.01,-0.01,31.97,4.149705,38.12997852823145,-85.7546087126408,9.970501491900995,0.033166247903554,0.4171279712616356,-0.16890358348669443
6109189,2174.0,1,188621,223398,0.62,-0.23,9.985,-0.03,-0.01,-0.01,31.97,4.189702,86.23869468429339,-495.8066762966437,10.006873887483541,0.033166247903554,0.9395428857957344,-0.9529908737324103
6149192,2165.0,1,188801,223971,0.61,-0.22,9.95,-0.03,-0.01,-0.01,31.97,4.229705,72.41306828809442,-653.384124299009,9.971108263377747,0.033166247903554,0.7894097288700622,-1.2543049847329568
6189189,2124.0,1,189098,224620,0.64,-0.22,9.95,-0.03,-0.01,-0.01,31.97,4.269702,68.36678906012254,-516.3602679182848,9.972988518994693,0.033166247903554,0.7454709837535877,-0.9922927361870562
6229192,2128.0,1,189469,225549,0.63,-0.23,9.97,-0.03,-0.01,-0.01,31.97,4.309705,80.20359758055926,-225.72901908637988,9.992532211606825,0.033166247903554,0.8740074695642002,-0.4365577786730245
6269189,2096.0,1,189574,225910,0.61,-0.23,9.98,-0.03,-0.01,-0.01,31.97,4.349702,79.14740833409083,31.28906324025785,10.00126991936524,0.033166247903554,0.8625382585976108,0.05490325188100285
6309192,2081.0,1,189676,225904,0.63,-0.21,9.985,-0.03,-0.01,-0.01,31.97,4.389705,82.70177682761366,171.2631111863695,10.007058758696283,0.033166247903554,0.9011353208584887,0.3225567540458394
6349193,2078.0,1,189688,225851,0.62,-0.23,9.97,-0.03,-0.01,-0.01,31.97,4.429706,107.40568025515813,245.44655959978888,9.991906724944943,0.033166247903554,1.1693962230179635,0.46440776187094923
6389192,2075.0,1,189708,226029,0.63,-0.22,9.985,-0.03,-0.01,-0.01,31.97,4.469705,128.94035972024093,339.86231860838717,10.007273604733708,0.033166247903554,1.4032423663192306,0.6449462897552858
6429189,2060.0,1,189744,226466,0.62,-0.22,9.98,-0.03,-0.01,-0.01,31.97,4.509702,141.73563146380351,452.6228678966349,10.001659862242867,0.033166247903554,1.542186851403178,0.8605630870536636
6469192,2047.0,1,190032,227248,0.61,-0.21,9.96,-0.03,-0.01,-0.01,31.97,4.549705,154.79730515451664,473.40139113803934,9.980871705417318,0.033166247903554,1.6840242083318222,0.9002950559220386
6509192,2009.0,1,190273,226875,0.62,-0.23,9.97,-0.03,-0.01,-0.01,31.97,4.589705,147.0854499684978,291.22716418377036,9.991906724944943,0.033166247903554,1.6002807936284613,0.551947840392102
6549192,1985.0,1,189464,224022,0.62,-0.23,9.97,-0.03,-0.01,-0.01,31.97,4.629705,146.6066019657292,-72.25935282242861,9.991906724944943,0.033166247903554,1.5950809596185556,-0.14309842492604088
6589189,1965.0,1,188721,223366,0.64,-0.24500000000000002,9.97,-0.03,-0.01,-0.01,31.97,4.669702,161.38713987826617,-442.2986903467613,9.993524153170393,0.033166247903554,1.7555835476588946,-0.8506747655436515
6629192,1929.0,1,188820,223896,0.64,-0.21,9.96,-0.03,-0.01,-0.01,31.97,4.709705,142.98086226851862,-616.2770628402675,9.982750122085598,0.033166247903554,1.5557088739470804,-1.1833501534609367
6669189,1869.0,1,189036,224751,0.63,-0.23,9.96,-0.03,-0.01,-0.01,31.97,4.749702,121.88091003249107,-521.7235720879031,9.982554783220577,0.033166247903554,1.3265834550042814,-1.0025482597304367
6709192,1840.0,1,189541,225884,0.62,-0.23,9.96,-0.03,-0.01,-0.01,31.97,4.789705,105.45240898873567,-260.36614407720583,9.98192867135405,0.033166247903554,1.1481855542817656,-0.5027896834064282
6749198,1766.0,1,189645,226572,0.62,-0.22,9.97,-0.03,-0.01,-0.01,31.97,4.829711,68.3303474385862,-4.488096374390671,9.991681540161297,0.033166247903554,0.7450752623932705,-0.013508587376926097
6789192,1722.0,1,189860,226830,0.64,-0.21,9.96,-0.03,-0.01,-0.01,31.97,4.869705,38.09531130121628,149.23031243424978,9.982750122085598,0.033166247903554,0.41675151813868144,0.2804264032056021
6829189,1658.0,1,189836,226871,0.61,-0.21,9.95,-0.03,-0.01,-0.01,31.97,4.909702,0.2523890532235914,233.28267618344978,9.970892638074085,0.033166247903554,0.005813364483243298,0.4411484074114615
6869193,1599.0,1,189915,226993,0.62,-0.22,9.97,-0.03,-0.01,-0.01,31.97,4.949706,-39.18580352621095,331.1210535712556,9.991681540161297,0.033166247903554,-0.4224479081503755,0.6282315470235471
6909189,1558.0,1,189966,227540,0.63,-0.22,9.98,-0.03,-0.01,-0.01,31.97,4.989702,-67.47965474552743,453.47991495061365,10.002284738998386,0.033166247903554,-0.7296922299200643,0.8622019025975691
6949225,1491.0,1,190263,228198,0.62,-0.22,9.985,-0.03,-0.01,-0.01,31.97,5.029738,-112.67282249103336,498.2406909665317,10.006649039513677,0.033166247903554,-1.2204470608888542,0.9477919004298001
6989193,1442.0,1,190582,228417,0.62,-0.24,9.98,-0.03,-0.01,-0.01,31.97,5.069706,-157.11980922907705,343.42256320305734,10.002119775327628,0.033166247903554,-1.703099075603396,0.6517540655416498
7029192,1392.0,1,189992,225305,0.61,-0.22,9.96,-0.03,-0.01,-0.01,31.97,5.109705,-191.28365474166202,-11.539740552256848,9.981087115139314,0.033166247903554,-2.0740859540666725,-0.026992495915120172
7069876,1374.125,1,189138,224061,0.62,-0.24,9.98,-0.03,-0.01,-0.01,31.81,5.150389,-206.86299405949762,-401.73101142084954,10.002119775327628,0.033166247903554,-2.2432627658490274,-0.7731026620105798
7110193,1374.125,1,189154,224483,0.65,-0.24,9.96,-0.03,-0.01,-0.01,31.81,5.190706,-201.23826022734372,-609.5397932753657,9.984072315443234,0.033166247903554,-2.1821835045636173,-1.1704673811146746
7150220,1374.125,1,189444,225432,0.61,-0.22,9.98,-0.03,-0.01,-0.01,31.81,5.230733,-201.1851314976142,-537.8974554513238,10.001044945404455,0.033166247903554,-2.1816065770748247,-1.0334753965057606
7190192,1374.125,1,189837,226665,0.64,-0.22,9.96,-0.03,-0.01,-0.01,31.81,5.270705,-203.74114994080298,-282.74839410479785,9.982965491275626,0.033166247903554,-2.209362507044238,-0.5455882428116713
7230190,1374.125,1,190202,227300,0.62,-0.21,9.985,-0.03,-0.01,-0.01,31.81,5.310703,-209.33248586566197,-38.85131380354654,10.006434180066343,0.033166247903554,-2.2700790988119564,-0.07921673560527641
7270192,1374.125,1,190299,227329,0.62,-0.22,9.96,-0.03,-0.01,-0.01,31.81,5.350705,-217.5848649051443,70.01674950423897,9.981703261467954,0.033166247903554,-2.359692088620892,0.1289569854937238
7310190,1374.125,1,190232,227204,0.64,-0.23,9.98,-0.03,-0.01,-0.01,31.81,5.390703,-228.86836418645936,79.24951399407267,10.003144505604226,0.033166247903554,-2.4822201621943334,0.14661155637045165
7350192,1399.0,1,190250,227405,0.62,-0.24,9.945,-0.03,-0.01,-0.01,31.81,5.430705,-219.96740342212334,113.01656316968152,9.967197449634476,0.033166247903554,-2.385564191540541,0.21117973241622431
7390189,1458.0,1,190218,227955,0.63,-0.23,9.96,-0.03,-0.01,-0.01,31.81,5.470702,-173.55046284029154,227.43606222793065,9.982554783220577,0.033166247903554,-1.8815203511618048,0.42996871571887746
7430193,1505.0,1,190665,228843,0.62,-0.21,9.96,-0.03,-0.01,-0.01,31.81,5.510706,-153.3610753294953,323.7802887099206,9.981487865042967,0.033166247903554,-1.6622827993482459,0.6141947919783456
7470192,1535.0,1,190946,229520,0.62,-0.22,9.96,-0.03,-0.01,-0.01,31.81,5.550705,-135.27659000254837,227.68657503797996,9.981703261467954,0.033166247903554,-1.4659024838598291,0.430447737594223
7510193,1627.0,1,190759,226736,0.62,-0.24,9.96,-0.03,-0.01,-0.01,31.81,5.590706,-77.70961934773146,-129.6617804004588,9.982164094022899,0.033166247903554,-0.8407799186043917,-0.2528613488356082
7550189,1682.0,1,189544,224790,0.63,-0.23,9.97,-0.03,-0.01,-0.01,31.81,5.630702,-39.04588784872437,-604.0129562152322,9.992532211606825,0.033166247903554,-0.4209285569280519,-1.1598991556704221
7590192,1745.0,1,189375,225031,0.62,-0.24,9.96,-0.03,-0.01,-0.01,31.81,5.670705,-9.509631821029787,-922.2408123692292,9.982164094022899,0.033166247903554,-0.10019290024765543,-1.7684033851031267
7630190,1814.0,1,189707,226167,0.62,-0.24,9.985,-0.03,-0.01,-0.01,31.81,5.710703,33.22107127997073,-893.2094540586979,10.007108723302649,0.033166247903554,0.36382190605222753,-1.7128906322862087
7670193,1891.0,1,190224,227511,0.62,-0.23,9.97,-0.03,-0.01,-0.01,31.81,5.750706,81.5804208704175,-555.0915274180016,9.991906724944943,0.033166247903554,0.8889584613754672,-1.0663533024167713
7710190,1951.0,1,190715,228864,0.63,-0.24,9.945,-0.03,-0.01,-0.01,31.81,5.790703,108.65096129560754,-129.28468298734268,9.967824486817571,0.033166247903554,1.182918791074175,-0.25214027628852653
7750192,1979.0,1,191063,229371,0.63,-0.21,9.97,-0.03,-0.01,-0.01,31.81,5.830705,107.42190017772722,169.46497630114553,9.99209187307643,0.033166247903554,1.1695723559547726,0.3191184231090914
7790189,2042.0,1,191155,229496,0.63,-0.23,9.98,-0.03,-0.01,-0.01,31.81,5.870702,140.2766215476881,294.1586709777981,10.002509685074042,0.033166247903554,1.5263433909757729,0.5575533656416369
7830192,2105.0,1,191172,229448,0.63,-0.22,9.95,-0.03,-0.01,-0.01,31.81,5.910705,167.69269710730953,361.7597739147035,9.972351778793204,0.033166247903554,1.8240559036913155,0.6868178415695902
7870189,2131.0,1,191162,229822,0.63,-0.205,9.96,-0.03,-0.01,-0.01,31.81,5.950702,169.719722243987,499.6634266567606,9.982010068117544,0.033166247903554,1.8460674693315349,0.9505124060930447
7910192,2192.0,1,191498,230781,0.65,-0.22,9.96,-0.03,-0.01,-0.01,31.81,5.990705,193.12925923585948,690.9755915018911,9.983611570969696,0.033166247903554,2.100272782714251,1.3163328683779474
7950189,2225.0,1,191935,231748,0.63,-0.24,9.95,-0.03,-0.01,-0.01,31.81,6.030702,201.18903324600302,769.0501844144376,9.97281304346973,0.033166247903554,2.1877942650380473,1.465624387268521
7990192,2253.0,1,192177,230279,0.63,-0.23,9.96,-0.03,-0.01,-0.01,31.81,6.070705,200.15989101932647,574.3395413604435,9.982554783220577,0.033166247903554,2.176618758989443,1.0933054732493124
8030189,2269.0,1,191049,227033,0.62,-0.21,9.96,-0.03,-0.01,-0.01,31.81,6.110702,183.26900555038398,128.18332898516164,9.981487865042967,0.033166247903554,1.9931998030555924,0.24018109407285093
8070879,2266.0,1,190461,226427,0.63,-0.22,9.96,-0.03,-0.01,-0.01,31.71,6.151392,163.34307093142684,-346.6295009488955,9.982329387472646,0.033166247903554,1.7768230991500804,-0.6677394716992675
8109190,2335.0,1,190431,226732,0.61,-0.22,9.97,-0.03,-0.01,-0.01,31.71,6.189703,194.84031029981705,-584.9204142781639,9.991066009190412,0.033166247903554,2.118853170360456,-1.123391061565344
8149193,2352.0,1,190775,227695,0.62,-0.23,9.985,-0.03,-0.01,-0.01,31.71,6.229706,200.36094028149566,-473.44240836324565,10.006873887483541,0.033166247903554,2.1788019628141413,-0.9102266990617512
8189192,2357.0,1,191295,228986,0.62,-0.24,9.96,-0.03,-0.01,-0.01,31.71,6.269705,172.24202982428548,-111.53265626119781,9.982164094022899,0.033166247903554,1.8734573313830563,-0.21819546870815507
8229193,2360.0,1,191688,229730,0.61,-0.22,9.985,-0.03,-0.01,-0.01,31.71,6.309706,162.0381541941411,294.99373845507546,10.006034429283162,0.033166247903554,1.7626529441292766,0.559150152604055
8269189,2356.0,1,191833,229885,0.63,-0.23,9.95,-0.03,-0.01,-0.01,31.71,6.349702,133.9948528326638,591.0799940682256,9.9725774000506,0.033166247903554,1.4581293555869095,1.1253159842033693
8309192,2351.0,1,191909,229818,0.62,-0.23,9.98,-0.03,-0.01,-0.01,31.71,6.389705,112.38275492506865,742.6376506948651,10.001884822372231,0.033166247903554,1.2234425216112697,1.4151192596764974
8349190,2355.0,1,192083,229519,0.61,-0.21,9.96,-0.03,-0.01,-0.01,31.71,6.429703,101.45161530171916,784.9352178878188,9.980871705417318,0.033166247903554,1.1047407388913235,1.495999195338607
8389192,2342.0,1,191947,229518,0.66,-0.22,9.96,-0.03,-0.01,-0.01,31.71,6.469705,68.48781975101276,730.7053233044799,9.984267624618242,0.033166247903554,0.7467852619777728,1.3923026785896693
8429192,2318.0,1,191937,229700,0.63,-0.22,9.95,-0.03,-0.01,-0.01,31.71,6.509705,38.711940214421766,542.904608458569,9.972351778793204,0.033166247903554,0.42344752183053863,1.0331966887641877
8469192,2317.0,1,192121,228187,0.63,-0.24,9.985,-0.03,-0.01,-0.01,31.71,6.549705,13.776638360296424,197.19427743527064,10.007733259834616,0.033166247903554,0.15267385277756745,0.37214142751623175
8509192,2282.0,1,190964,225463,0.62,-0.22,9.95,-0.03,-0.01,-0.01,31.71,6.589705,-18.59353046153928,-241.04728215537182,9.971725026293093,0.033166247903554,-0.19883540229497348,-0.4658488281043906
8549193,2270.0,1,190623,224996,0.64,-0.23,9.96,-0.03,-0.01,-0.01,31.71,6.629706,-56.66273372217184,-620.1056196045992,9.983190872661908,0.033166247903554,-0.6122307525942688,-1.1906709864385239
8589189,2251.0,1,190656,225550,0.64,-0.23,9.97,-0.03,-0.01,-0.01,31.71,6.669702,-68.9797354985669,-797.1443537528124,9.993167665960579,0.033166247903554,-0.7459816805853284,-1.5291982913846622
8629192,2258.0,1,190813,226095,0.62,-0.23,9.96,-0.03,-0.01,-0.01,31.71,6.709705,-85.76625416909387,-738.1994871862931,9.98192867135405,0.033166247903554,-0.9282673123228404,-1.4164859693316358
8669190,2192.0,1,190994,226882,0.63,-0.22,9.96,-0.03,-0.01,-0.01,31.71,6.749703,-144.6883010003207,-529.209639026879,9.982329387472646,0.033166247903554,-1.568104716415173,-1.0168628563507236
8709192,2246.0,1,191394,227652,0.61,-0.23,9.95,-0.03,-0.01,-0.01,31.71,6.789705,-113.19906922581885,-292.7306545721201,9.97133391277215,0.033166247903554,-1.2261616000606124,-0.5646759738075556
8749190,2256.0,1,191576,227982,0.62,-0.22,9.97,-0.03,-0.01,-0.01,31.71,6.829703,-89.82334734643831,-93.49633694009779,9.991681540161297,0.033166247903554,-0.9723234866473387,-0.18370704672357221
8789192,2169.0,1,191597,228201,0.62,-0.24500000000000002,9.985,-0.03,-0.01,-0.01,31.71,6.869705,-208.8665947043113,79.01068723588716,10.007229886437104,0.033166247903554,-2.265019963780174,0.14615488015670353
8829189,2065.0,1,191666,228486,0.65,-0.22,9.945,-0.03,-0.01,-0.01,31.71,6.909702,-282.71195696836645,241.5632737931619,9.968647099782396,0.033166247903554,-3.06691038402692,0.4569822779237331
8869192,2000.0,1,191841,228894,0.63,-0.23,9.98,-0.03,-0.01,-0.01,31.71,6.949705,-393.96775621172986,342.179820335149,10.002509685074042,0.033166247903554,-4.275042579128554,0.6493777358879265
8909190,1877.0,1,192094,229383,0.61,-0.23,9.98,-0.03,-0.01,-0.01,31.71,6.989703,-476.7292443070753,272.95762567316405,10.00126991936524,0.033166247903554,-5.173753648236906,0.5170134647914071
8949192,2111.0,1,192208,228443,0.62,-0.23,9.96,-0.03,-0.01,-0.01,31.71,7.029705,-284.5760316746308,-23.22558520919682,9.98192867135405,0.033166247903554,-3.0871524629300287,-0.04933776129880312
8989192,2202.0,1,191071,225366,0.62,-0.23,9.97,-0.03,-0.01,-0.01,31.71,7.069705,-168.86388737095186,-455.68504097023725,9.991906724944943,0.033166247903554,-1.8306285976730932,-0.8762716792441051
9029192,2150.0,1,190759,225083,0.62,-0.22,9.95,-0.03,-0.01,-0.01,31.71,7.109705,-234.05598008610403,-812.1251591650829,9.971725026293093,0.033166247903554,-2.538552738354903,-1.5578440660313153
9069190,2176.0,1,190712,225828,0.62,-0.22,9.97,-0.03,-0.01,-0.01,31.71,7.149703,-212.61784718866383,-904.7500273322228,9.991681540161297,0.033166247903554,-2.3057549989794435,-1.7349581147872364
9109879,2224.0,1,191286,226809,0.63,-0.22,9.945,-0.03,-0.01,-0.01,31.91,7.190392,-149.37137170133533,-707.3544537493026,9.967362991283101,0.033166247903554,-1.6189584114522921,-1.3575051700696157
9150190,2330.0,1,191614,228001,0.63,-0.24500000000000002,9.95,-0.03,-0.01,-0.01,31.91,7.230703,-63.181316511801455,-357.91487546945865,9.97293462326912,0.033166247903554,-0.6830163636648462,-0.6893189720280243
9190193,2416.0,1,192039,228791,0.63,-0.205,9.96,-0.03,-0.01,-0.01,31.91,7.270706,45.76946892703695,-30.88224667926796,9.982010068117544,0.033166247903554,0.5000855731820344,-0.06397856284327282
9230189,2489.125,1,192133,229371,0.64,-0.23,9.96,-0.03,-0.01,-0.01,31.91,7.310702,105.65962415023932,196.30977183685812,9.983190872661908,0.033166247903554,1.1504357139105517,0.3704501066994568
9270192,2489.125,1,192299,229700,0.63,-0.22,9.97,-0.03,-0.01,-0.01,31.91,7.350705,120.99448033221007,362.3765189773957,9.99230704091903,0.033166247903554,1.316957671297841,0.6879971600103628
9310192,2489.125,1,192343,230171,0.62,-0.23,9.97,-0.03,-0.01,-0.01,31.91,7.390705,122.03467422489754,522.679338805249,9.991906724944943,0.033166247903554,1.328253187931135,0.9945226321488974
9350193,2489.125,1,192541,231012,0.63,-0.23,9.98,-0.03,-0.01,-0.01,31.91,7.430706,131.35517148240638,641.8889172970759,10.002509685074042,0.033166247903554,1.4294649259954284,1.2224710386078945
9390193,2489.125,1,192819,231689,0.63,-0.23,9.985,-0.03,-0.01,-0.01,31.91,7.470706,140.32902984003536,597.7918792814046,10.007498438670874,0.033166247903554,1.5269124951996031,1.138150217475864
9430192,2489.125,1,192900,231158,0.63,-0.22,9.96,-0.03,-0.01,-0.01,31.91,7.510705,152.5878753984452,305.03247850540157,9.982329387472646,0.033166247903554,1.6600319019596697,0.5783458818925772
9470193,2489.125,1,191991,227269,0.62,-0.23,9.98,-0.03,-0.01,-0.01,31.91,7.550706,163.68915838289414,-161.32491773321718,10.001884822372231,0.033166247903554,1.7805812798047689,-0.31340649788996455
9510193,2489.125,1,191170,226785,0.64,-0.23,9.98,-0.03,-0.01,-0.01,31.91,7.590706,180.28679478615254,-577.9722622780799,10.003144505604226,0.033166247903554,1.9608158297135325,-1.1101050471670748
9550190,2489.125,1,191366,227563,0.62,-0.23,9.98,-0.03,-0.01,-0.01,31.91,7.630703,198.77034430170932,-728.455142733398,10.001884822372231,0.033166247903554,2.1615296028504543,-1.3978531730569868
9590192,2489.125,1,191827,228665,0.63,-0.23,9.98,-0.03,-0.01,-0.01,31.91,7.670705,210.48045685745385,-562.4408677957277,10.002509685074042,0.033166247903554,2.28869029095007,-1.0804064552659132
9630192,2489.125,1,192218,229659,0.63,-0.23,9.96,-0.03,-0.01,-0.01,31.91,7.710705,246.87392585529892,-213.83053846083732,9.982554783220577,0.033166247903554,2.6838887604838066,-0.41380591819176593
9670192,2489.125,1,192501,230285,0.62,-0.21,9.95,-0.03,-0.01,-0.01,31.91,7.750705,246.96777933139404,128.46301814643755,9.971509414326398,0.033166247903554,2.684907919996064,0.24071590595142048
9710189,2389.0,1,192729,230391,0.62,-0.23,9.95,-0.03,-0.01,-0.01,31.91,7.790702,200.32700756203215,367.20758602064626,9.971950661731134,0.033166247903554,2.178433485744811,0.6972349582471971
9750192,2343.0,1,192823,230442,0.64,-0.23,9.945,-0.03,-0.01,-0.01,31.91,7.830705,152.84693615718953,529.3733177627054,9.968225769915126,0.033166247903554,1.6628450554784528,1.007322625702493
9790192,2233.0,1,192831,230680,0.64,-0.23,9.945,-0.03,-0.01,-0.01,31.91,7.870705,94.93395491339939,672.2348799924305,9.968225769915126,0.033166247903554,1.0339651442219298,1.2804975321697734
9830192,2160.0,1,192987,231312,0.63,-0.22,9.96,-0.03,-0.01,-0.01,31.91,7.910705,40.505435192832266,772.1961519153264,9.982329387472646,0.033166247903554,0.4429231719980519,1.4716399968166125
9870189,2046.0,1,193220,231707,0.62,-0.23,9.98,-0.03,-0.01,-0.01,31.91,7.950702,-42.660045715638454,719.4570608078823,10.001884822372231,0.033166247903554,-0.4601748749347891,1.3707941425813173
9910193,1937.0,1,193387,231245,0.64,-0.21,9.95,-0.03,-0.01,-0.01,31.91,7.990706,-102.73785792204657,434.10690520967773,9.972772934344789,0.033166247903554,-1.1125627920721621,0.8251575077206613
9950189,1922.0,1,192320,227507,0.64,-0.23,9.96,-0.03,-0.01,-0.01,31.91,8.030702,-107.24602134819904,-12.398984860638647,9.983190872661908,0.033166247903554,-1.1615171604103085,-0.02863551297241161
9990193,1847.0,1,191643,226838,0.61,-0.23,9.97,-0.03,-0.01,-0.01,31.91,8.070706,-117.50213050214919,-407.00026477169007,9.991291207846961,0.033166247903554,-1.2728887540677318,-0.7831783448520822
10030189,1831.0,1,191745,227618,0.62,-0.24,9.97,-0.03,-0.01,-0.01,31.91,8.110702,-122.132450616623,-546.4273727229113,9.99214191252306,0.033166247903554,-1.3231696278915401,-1.0497860073969714
10070193,1735.0,1,192140,228846,0.62,-0.23,9.97,-0.03,-0.01,-0.01,31.91,8.150706,-161.72493854790213,-392.90138958434306,9.991906724944943,0.033166247903554,-1.7531064013384714,-0.7562189664826637
10110879,1712.0,1,192538,229929,0.62,-0.24,9.98,-0.03,-0.01,-0.01,31.91,8.191392,-156.08524607907196,-87.93958688574197,10.002119775327628,0.033166247903554,-1.6918647034817875,-0.17308162269300073
10149192,1762.0,1,192710,230404,0.61,-0.23,9.96,-0.03,-0.01,-0.01,31.91,8.229705,-65.39920541794488,182.11385415545485,9.981312538939957,0.033166247903554,-0.7071005283636177,0.3433051670508292
10189192,1763.0,1,192819,230575,0.64,-0.24,9.97,-0.03,-0.01,-0.01,31.91,8.269705,-24.75753490772209,335.5978026928858,9.993402823863352,0.033166247903554,-0.2657706296973085,0.6367918308640129
10229241,1755.0,1,192789,230527,0.65,-0.22,9.96,-0.03,-0.01,-0.01,31.91,8.309754,4.342386657417324,423.48628785224156,9.983611570969696,0.033166247903554,0.05022684959700695,0.8048491328998886
10269192,1721.0,1,192743,230597,0.62,-0.24,9.98,-0.03,-0.01,-0.01,31.91,8.349705,5.113988150104048,523.3977886461503,10.002119775327628,0.033166247903554,0.05860570815038627,0.9958964269263479
10309192,1661.0,1,192901,230967,0.61,-0.24500000000000002,9.945,-0.03,-0.01,-0.01,31.91,8.389705,-12.385710214769606,616.12713607405,9.966702062367471,0.033166247903554,-0.13142437695937875,1.1732102572879046
10349192,1693.0,1,193129,231399,0.64,-0.21,9.95,-0.03,-0.01,-0.01,31.91,8.429705,46.456824302186426,576.7229039138517,9.972772934344789,0.033166247903554,0.5075495990021875,1.0978628561621353
10389192,1680.0,1,193249,230793,0.64,-0.22,9.96,-0.03,-0.01,-0.01,31.91,8.469705,74.5701333188534,298.4195153235667,9.982965491275626,0.033166247903554,0.8128334041149575,0.5657008038850694
10429241,1662.0,1,192150,227202,0.66,-0.22,9.96,-0.03,-0.01,-0.01,31.91,8.509754,83.91413494800351,-171.29986757726743,9.984267624618242,0.033166247903554,0.9143003773067552,-0.33248024976650165
10469192,1665.0,1,191458,226531,0.65,-0.23,9.97,-0.03,-0.01,-0.01,31.91,8.549705,117.04268846378453,-626.9335842952445,9.993813086104822,0.033166247903554,1.274044969065193,-1.2037271828472513
10509192,1616.0,1,191420,227081,0.65,-0.22,9.95,-0.03,-0.01,-0.01,31.91,8.589705,98.89695750318555,-851.024934793971,9.973635244984647,0.033166247903554,1.0769995842291316,-1.6322268629374006
10549192,1584.0,1,191751,227990,0.62,-0.205,9.985,-0.03,-0.01,-0.01,31.91,8.629705,86.35861617376757,-776.7457575292211,10.006330496240867,0.033166247903554,0.9408451191471967,-1.4901928057349754
10589189,1535.0,1,192029,228908,0.63,-0.23,9.98,-0.03,-0.01,-0.01,31.91,8.669702,65.79648091511241,-518.2921166426153,10.002509685074042,0.033166247903554,0.7175598812093854,-0.9959867500725358
10629192,1441.0,1,192287,229350,0.63,-0.23,9.96,-0.03,-0.01,-0.01,31.91,8.709705,-14.24081655885662,-252.52177113391474,9.982554783220577,0.033166247903554,-0.15156906797657535,-0.48778994651686375
10669192,1374.125,1,192373,229375,0.64,-0.22,9.97,-0.03,-0.01,-0.01,31.91,8.749705,-60.62889651190325,-73.43271891040865,9.992942509591456,0.033166247903554,-0.6552995093680821,-0.1453420947161024
10709192,1374.125,1,192406,229340,0.64,-0.23,9.96,-0.03,-0.01,-0.01,31.91,8.789705,-50.32250450123776,46.944657815278084,9.983190872661908,0.033166247903554,-0.5433818916968758,0.08483933487611768
10749192,1374.125,1,192387,229561,0.63,-0.24,9.945,-0.03,-0.01,-0.01,31.91,8.829705,-38.85956287873591,169.74434178242578,9.967824486817571,0.033166247903554,-0.4189052449162258,0.31965261605804013
10789192,1374.125,1,192585,230039,0.62,-0.22,9.96,-0.03,-0.01,-0.01,31.91,8.869705,-33.46527291850567,275.06954328316175,9.981703261467954,0.033166247903554,-0.36032838496834846,0.5210518001320918
10829192,1374.125,1,192769,230562,0.63,-0.23,9.97,-0.03,-0.01,-0.01,31.91,8.909705,-30.12539017394613,247.55448834021993,9.992532211606825,0.033166247903554,-0.3240604340030195,0.468438469834096
10869192,1374.125,1,192867,230071,0.62,-0.205,9.96,-0.03,-0.01,-0.01,31.91,8.949705,-31.165302361567804,-13.231816828569583,9.981383922082149,0.033166247903554,-0.3353528915871508,-0.030228025271672725
10909189,1374.125,1,191978,226480,0.63,-0.24,9.96,-0.03,-0.01,-0.01,31.91,8.989702,-35.079855807602414,-463.40075118425176,9.982790191123923,0.033166247903554,-0.3778612199598183,-0.891025391741332
10949192,1374.125,1,191264,225618,0.65,-0.21,9.945,-0.03,-0.01,-0.01,31.91,9.029705,-43.152899472158715,-903.1895313871524,9.968431421241759,0.033166247903554,-0.46552679811343123,-1.7319741887599425
10989192,1374.125,1,191209,226141,0.63,-0.22,9.97,-0.03,-0.01,-0.01,31.91,9.069705,-54.085306960140905,-1110.1947680480464,9.99230704091903,0.033166247903554,-0.5842423486377724,-2.1278023967151745
11029192,1374.125,1,191557,227035,0.62,-0.22,9.96,-0.03,-0.01,-0.01,31.91,9.109705,-68.60281505981935,-1000.5465115258796,9.981703261467954,0.033166247903554,-0.7418886830055199,-1.9181368173091629
11069192,1374.125,1,191937,228250,0.64,-0.21,9.95,-0.03,-0.01,-0.01,31.91,9.149705,-86.8157123036387,-672.7176475887175,9.972772934344789,0.033166247903554,-0.939663429814042,-1.2912738749923005
11109192,1374.125,1,192400,229099,0.62,-0.24500000000000002,9.945,-0.03,-0.01,-0.01,31.91,9.189705,-106.62571185340474,-302.99033377248577,9.967319097932,0.033166247903554,-1.154781189101982,-0.5842941752481741
11149879,1374.125,1,192521,229494,0.63,-0.23,9.985,-0.03,-0.01,-0.01,31.85,9.230392,-131.77557550989584,1.0468481637721376,10.007498438670874,0.033166247903554,-1.4278847953181395,-0.00292485909539673
11190192,1374.125,1,192818,229999,0.64,-0.23,9.945,-0.03,-0.01,-0.01,31.85,9.270705,-156.54350961048792,253.97111411522997,9.968225769915126,0.033166247903554,-1.6968410097050122,0.4807081182865276
11230193,1374.125,1,192922,230566,0.62,-0.22,9.985,-0.03,-0.01,-0.01,31.85,9.310706,-186.56825442285663,514.989679938667,10.006649039513677,0.033166247903554,-2.0228811901201214,0.9798187341314167
11270208,1374.125,1,193213,231338,0.62,-0.23,9.97,-0.03,-0.01,-0.01,31.85,9.350721,-217.11140693170256,767.9104321085306,9.991906724944943,0.033166247903554,-2.354550785204507,1.4634449925824868
11310192,1424.0,1,193530,232018,0.64,-0.24,9.96,-0.03,-0.01,-0.01,31.85,9.390705,-199.31601161182962,888.4964048836767,9.983426265566347,0.033166247903554,-2.1613097123192038,1.6940252922795214
11350192,1530.0,1,193687,232320,0.64,-0.23,9.95,-0.03,-0.01,-0.01,31.85,9.430705,-129.58755757520805,746.5171945970318,9.973214125847294,0.033166247903554,-1.4041250009673405,1.4225375884842555
11390192,1649.0,1,193356,229299,0.62,-0.24,9.95,-0.03,-0.01,-0.01,31.85,9.470705,-43.586756849784784,353.5438895302958,9.97218631996013,0.033166247903554,-0.4702380767124539,0.6711077134341612
11430192,1738.0,1,192201,227371,0.63,-0.23,9.95,-0.03,-0.01,-0.01,31.85,9.510705,5.792212903145708,-93.23110467993695,9.9725774000506,0.033166247903554,0.06597058409606298,-0.18319987882808866
11470192,1731.0,1,192129,227944,0.61,-0.22,9.96,-0.03,-0.01,-0.01,31.85,9.550705,-35.35246438303734,-333.8143944329536,9.981087115139314,0.033166247903554,-0.3808214898862723,-0.6432348710969631
11510193,1738.0,1,192600,229175,0.61,-0.22,9.945,-0.03,-0.01,-0.01,31.85,9.590706,-68.98240986297564,-236.7175399990665,9.966118853395237,0.033166247903554,-0.7460107216399576,-0.4575696458658945
11550193,1821.0,1,192956,230481,0.63,-0.23,9.96,-0.03,-0.01,-0.01,31.85,9.630706,-19.945177303593596,110.9461879103757,9.982554783220577,0.033166247903554,-0.21351300182146,0.20722083291249652
11590192,1902.0,1,193436,231535,0.62,-0.21,9.945,-0.03,-0.01,-0.01,31.85,9.670705,20.079150803157624,490.4211979324297,9.966520205166896,0.033166247903554,0.22111314532710585,0.9328397380365492
11630192,1974.0,1,193605,231723,0.63,-0.23,9.95,-0.03,-0.01,-0.01,31.85,9.710705,59.769183468352814,729.1935273581546,9.9725774000506,0.033166247903554,0.6521091618364938,1.3894118750047908
11669222,2082.0,1,193686,231783,0.64,-0.23,9.95,-0.03,-0.01,-0.01,31.85,9.749735,129.32150042744388,811.0079754206394,9.973214125847294,0.033166247903554,1.4073811920017323,1.5458546147334984
11709192,2160.0,1,193564,231638,0.64,-0.23,9.97,-0.03,-0.01,-0.01,31.85,9.789705,174.03216051996714,832.4360498133191,9.993167665960579,0.033166247903554,1.892896448638975,1.5868286327032965
11749192,2206.0,1,193579,231884,0.63,-0.23,9.97,-0.03,-0.01,-0.01,31.85,9.829705,190.4584273188868,862.6101298523788,9.992532211606825,0.033166247903554,2.071270087586948,1.6445264582328238
11789192,2235.0,1,193792,232268,0.63,-0.24500000000000002,9.97,-0.03,-0.01,-0.01,31.85,9.869705,181.69175404434935,847.9625304573925,9.992888721485896,0.033166247903554,1.976072351388603,1.6165178285339459
11829192,2282.0,1,193806,232416,0.62,-0.23,9.98,-0.03,-0.01,-0.01,31.85,9.909705,210.81066946359476,658.8150761785688,10.001884822372231,0.033166247903554,2.2922760858786977,1.2548366504431268
11869205,2391.0,1,193699,231095,0.62,-0.24,9.97,-0.03,-0.01,-0.01,31.85,9.949718,280.37601891155094,236.62663494647305,9.99214191252306,0.033166247903554,3.0476896364814086,0.44754260895918374
11909192,2398.0,1,192508,227697,0.63,-0.23,9.98,-0.03,-0.01,-0.01,31.85,9.989705,276.96400866886984,-304.3858659863332,10.002509685074042,0.033166247903554,3.010638449467034,-0.5869626633708004
11949192,2405.0,1,192023,227443,0.64,-0.22,9.96,-0.03,-0.01,-0.01,31.85,10.029705,249.30529987926246,-731.8712950237536,9.982965491275626,0.033166247903554,2.710291170575336,-1.4043854205547095
11989192,2382.0,1,192317,228307,0.63,-0.23,9.985,-0.03,-0.01,-0.01,31.85,10.069705,219.96245628339258,-866.147602137127,10.007498438670874,0.033166247903554,2.3916557890033787,-1.6611439010302604
12029192,2352.0,1,192503,229113,0.63,-0.24,9.945,-0.03,-0.01,-0.01,31.85,10.109705,160.99205472384514,-711.8752315234807,9.967824486817571,0.033166247903554,1.7512932985383192,-1.3661496439669025
12069223,2330.0,1,192950,230204,0.64,-0.22,9.96,-0.03,-0.01,-0.01,31.85,10.149736,139.37327901139588,-433.94183345960244,9.982965491275626,0.033166247903554,1.5165339499513806,-0.8346950746955342
12109192,2302.0,1,193157,230551,0.62,-0.22,9.945,-0.03,-0.01,-0.01,31.85,10.189705,85.45262764970954,-209.3971132617961,9.966735925065938,0.033166247903554,0.9310069452115363,-0.4053284768480245
12149879,2219.0,1,193248,230495,0.62,-0.21,9.95,-0.03,-0.01,-0.01,31.89,10.230392,9.832078937959876,-95.67338927624814,9.971509414326398,0.033166247903554,0.10983968803266263,-0.18786993042034944
12190192,2221.0,1,193258,230612,0.63,-0.23,9.97,-0.03,-0.01,-0.01,31.89,10.270705,-7.12993866662761,-28.55661722783205,9.992532211606825,0.033166247903554,-0.07435169526015245,-0.059531575158426046
12230193,2173.0,1,193356,230915,0.62,-0.23,9.96,-0.03,-0.01,-0.01,31.89,10.310706,-48.336397937635425,62.18579621741753,9.98192867135405,0.033166247903554,-0.5218146628538922,0.11398290920413957
12270202,2151.0,1,193489,231429,0.63,-0.24,9.97,-0.03,-0.01,-0.01,31.89,10.350715,-74.90582552813419,140.32734372902058,9.992767384463626,0.033166247903554,-0.8103333836379503,0.2634024563484252
12310192,2146.0,1,193719,232000,0.62,-0.23,9.95,-0.03,-0.01,-0.01,31.89,10.390705,-78.42785775709875,71.83732106742187,9.971950661731134,0.033166247903554,-0.848579304811821,0.13243821906507275
12350192,2101.0,1,193829,231664,0.64,-0.23,9.97,-0.03,-0.01,-0.01,31.89,10.430705,-115.4316919409353,-242.29432635772415,9.993167665960579,0.033166247903554,-1.250405759915572,-0.46823338262011377
12390192,2099.0,1,192946,228112,0.62,-0.23,9.985,-0.03,-0.01,-0.01,31.89,10.470705,-115.20481279885335,-733.1232695586268,10.006873887483541,0.033166247903554,-1.24794206815469,-1.4067794026806604
12430192,2075.0,1,192182,227400,0.64,-0.22,9.96,-0.03,-0.01,-0.01,31.89,10.510705,-128.11656523818584,-1169.4684531204064,9.982965491275626,0.033166247903554,-1.3881514228420606,-2.2411434740693172
12470192,2035.0,1,192419,228339,0.62,-0.22,9.98,-0.03,-0.01,-0.01,31.89,10.550705,-158.70819609924723,-1315.4046341043215,10.001659862242867,0.033166247903554,-1.7203474467371263,-2.52019755949481
12510192,2032.0,1,192828,229834,0.63,-0.23,9.96,-0.03,-0.01,-0.01,31.89,10.590705,-150.67746388265948,-1104.8102478668775,9.982554783220577,0.033166247903554,-1.6331413306777125,-2.117506304653009
12550192,2006.0,1,193455,231466,0.64,-0.23,9.97,-0.03,-0.01,-0.01,31.89,10.630705,-163.36441026684298,-679.5892518666819,9.993167665960579,0.033166247903554,-1.7709095053571522,-1.3044135175008613
12590192,2003.0,1,193799,232316,0.64,-0.23,9.96,-0.03,-0.01,-0.01,31.89,10.670705,-150.9877630417462,-265.5244255475342,9.983190872661908,0.033166247903554,-1.6365108845055145,-0.5126531696808044
12630192,2027.0,1,194105,232840,0.62,-0.21,9.96,-0.03,-0.01,-0.01,31.89,10.710705,-114.70002912963086,-1.552241104861659,9.981487865042967,0.033166247903554,-1.2424605974673486,-0.007894747123902545
12670192,2030.0,1,194330,233178,0.64,-0.22,9.95,-0.03,-0.01,-0.01,31.89,10.750705,-92.59980111328566,134.75729993439268,9.972988518994693,0.033166247903554,-1.0024731346364937,0.2527516124904435
12709192,2064.0,1,194352,233793,0.62,-0.23,9.97,-0.03,-0.01,-0.01,31.89,10.789705,-43.57163228120588,257.67400664824976,9.991906724944943,0.033166247903554,-0.47007383827848936,0.48778866049521136
12749192,2064.0,1,194615,234507,0.62,-0.22,9.97,-0.03,-0.01,-0.01,31.89,10.829705,-28.831899761829362,435.45238199282585,9.991681540161297,0.033166247903554,-0.3100143580091268,0.8277302815910699
12789192,2035.0,1,194992,235321,0.61,-0.24,9.97,-0.03,-0.01,-0.01,31.89,10.869705,-34.33393988962628,611.5775858500282,9.991526409913552,0.033166247903554,-0.3697612823253357,1.164510765713559
12829192,2051.0,1,195298,236009,0.62,-0.23,9.98,-0.03,-0.01,-0.01,31.89,10.909705,-10.76624562754578,655.1563583779614,10.001884822372231,0.033166247903554,-0.1138385313678844,1.247840577620096
12869192,2030.0,1,195223,234302,0.62,-0.23,9.95,-0.03,-0.01,-0.01,31.89,10.949705,-4.652911327960662,492.3774122211426,9.971950661731134,0.033166247903554,-0.04745353357921004,0.9365803429061067
12909192,2027.0,1,194577,232989,0.62,-0.23,9.95,-0.03,-0.01,-0.01,31.89,10.989705,1.8988533440955009,194.97998988733613,9.971950661731134,0.033166247903554,0.02369240118439028,0.36790734394359104
12949192,2022.0,1,194434,232910,0.62,-0.23,9.96,-0.03,-0.01,-0.01,31.89,11.029705,14.212303853981302,-59.371490312346246,9.98192867135405,0.033166247903554,0.1574047657977887,-0.1184547028442843
12989192,2000.0,1,194531,233454,0.61,-0.23,9.985,-0.03,-0.01,-0.01,31.89,11.069705,15.247780890272615,-119.90022047484041,10.006259291063769,0.033166247903554,0.16864906185552056,-0.23419563373326613
13029192,2027.0,1,194784,234225,0.62,-0.24500000000000002,9.97,-0.03,-0.01,-0.01,31.89,11.109705,41.261171577248355,31.064254121344558,9.992263257140497,0.033166247903554,0.45112975056053745,0.05447337970913497
13069192,2037.0,1,195226,235242,0.62,-0.21,9.96,-0.03,-0.01,-0.01,31.89,11.149705,88.8477900653159,287.44860109285787,9.981487865042967,0.033166247903554,0.9678751808431972,0.5447226035766112
13109192,2042.0,1,195504,235695,0.62,-0.22,9.985,-0.03,-0.01,-0.01,31.89,11.189705,79.57755032316909,522.8240652519669,10.006649039513677,0.033166247903554,0.8672091916096849,0.9947993730225686
13149879,1955.0,1,195547,235789,0.64,-0.23,9.95,-0.03,-0.01,-0.01,31.83,11.230392,32.830299346049614,684.2378024633982,9.973214125847294,0.033166247903554,0.3595784944051678,1.3034491027123667
13190192,1981.0,1,195654,235935,0.62,-0.21,9.97,-0.03,-0.01,-0.01,31.83,11.270705,45.843640613006016,792.3317853386882,9.991466358848434,0.033166247903554,0.5008910071674412,1.5101426541530993
13230192,1967.0,1,195697,235984,0.64,-0.22,9.98,-0.03,-0.01,-0.01,31.83,11.310705,59.548958867223604,860.9160721223517,10.00291957380444,0.033166247903554,0.6497177320630613,1.6412871400094504
13270193,1948.0,1,195754,236263,0.63,-0.22,9.985,-0.03,-0.01,-0.01,31.83,11.350706,39.90102755589473,831.3684734844542,10.007273604733708,0.033166247903554,0.4363598797461822,1.5847872504082088
13310192,1948.0,1,195750,236366,0.65,-0.22,9.96,-0.03,-0.01,-0.01,31.83,11.390705,49.51014178035225,605.1574636885754,9.983611570969696,0.033166247903554,0.5407057236476065,1.1522344315926762
13350192,1936.0,1,195663,234636,0.63,-0.22,9.96,-0.03,-0.01,-0.01,31.83,11.430705,47.69230578003504,157.54377170707016,9.982329387472646,0.033166247903554,0.5209657531262136,0.29632311064619676
13390193,1890.0,1,194634,231706,0.62,-0.24,9.96,-0.03,-0.01,-0.01,31.83,11.470706,-0.1941024597497791,-379.92219289854944,9.982164094022899,0.033166247903554,0.0009648911871877224,-0.731400598369338
13430192,1829.0,1,194030,231336,0.64,-0.22,9.96,-0.03,-0.01,-0.01,31.83,11.510705,-50.036723962298545,-769.3230576801341,9.982965491275626,0.033166247903554,-0.540278586770984,-1.4759993774582465
13470192,1811.0,1,194209,232359,0.62,-0.22,9.96,-0.03,-0.01,-0.01,31.83,11.550705,-71.38388348038012,-827.272007954832,9.981703261467954,0.033166247903554,-0.7720884417462791,-1.5868073430446252
13510192,1799.0,1,194705,233530,0.65,-0.23,9.985,-0.03,-0.01,-0.01,31.83,11.590705,-79.54054312843064,-559.3999929190144,10.008777397864336,0.033166247903554,-0.8606620099765574,-1.07459180017563
13550192,1807.0,1,195193,234650,0.64,-0.21,9.985,-0.03,-0.01,-0.01,31.83,11.630705,-71.0476842017877,-147.03518233438635,10.007693290663937,0.033166247903554,-0.7684376372471,-0.2860821632677468
13590192,1838.0,1,195480,235321,0.62,-0.205,9.98,-0.03,-0.01,-0.01,31.83,11.670705,-45.70119401779567,199.0095668775579,10.001341160064484,0.033166247903554,-0.49319885389949886,0.37561256079986793
13630189,1853.0,1,195621,235403,0.6,-0.24,9.985,-0.03,-0.01,-0.01,31.83,11.710702,-26.109078626935734,383.8333846696143,10.005889515680252,0.033166247903554,-0.28044710940779705,0.729026231700951
13670192,1936.0,1,195569,235395,0.61,-0.21,9.97,-0.03,-0.01,-0.01,31.83,11.750705,42.408325711855326,450.39139253687415,9.990850814620345,0.033166247903554,0.4635867537207148,0.8562961375455345
13709192,1987.0,1,195526,235436,0.63,-0.23,9.985,-0.03,-0.01,-0.01,31.83,11.789705,102.06180246095002,476.40207896180635,10.007498438670874,0.033166247903554,1.1113667912599903,0.9060328667285378
13749192,1974.0,1,195636,235613,0.62,-0.24500000000000002,9.97,-0.03,-0.01,-0.01,31.83,11.829705,66.02485535381385,459.37750753439724,9.992263257140497,0.033166247903554,0.7200398104697914,0.8734790738486196
13789192,1967.0,1,195569,235887,0.63,-0.23,9.96,-0.03,-0.01,-0.01,31.83,11.869705,70.5046496913289,308.93476142190457,9.982554783220577,0.033166247903554,0.768686117479345,0.5858076914520332
13829192,2011.0,1,195683,235159,0.63,-0.22,9.945,-0.03,-0.01,-0.01,31.83,11.909705,88.19488169144972,-42.30138839507127,9.967362991283101,0.033166247903554,0.9607852167039459,-0.08581384814650277
13869192,1945.0,1,194769,231654,0.61,-0.23,9.95,-0.03,-0.01,-0.01,31.83,11.949705,27.056542613589784,-521.6666177132719,9.97133391277215,0.033166247903554,0.2968809861169819,-1.0024393535577758
13909192,1936.0,1,193969,230791,0.62,-0.23,9.97,-0.03,-0.01,-0.01,31.83,11.989705,2.254284832424229,-923.1292853806979,9.991906724944943,0.033166247903554,0.027552049194859648,-1.770102292269047
13949192,1936.0,1,194072,231781,0.62,-0.21,9.96,-0.03,-0.01,-0.01,31.83,12.029705,-12.916937671764384,-1049.8783572916502,9.981487865042967,0.033166247903554,-0.13719300203853965,-2.0124674556039657
13989192,1904.0,1,194550,232936,0.62,-0.22,9.96,-0.03,-0.01,-0.01,31.83,12.069705,-40.178227093710085,-865.4678812364962,9.981703261467954,0.033166247903554,-0.43322468447329465,-1.65984416238429
14029192,1970.0,1,194957,234035,0.62,-0.23,9.98,-0.03,-0.01,-0.01,31.83,12.109705,-11.02347393107544,-512.4528048359075,10.001884822372231,0.033166247903554,-0.11663178616537842,-0.9848210212947304
14069192,1969.0,1,195249,234708,0.62,-0.24500000000000002,9.98,-0.03,-0.01,-0.01,31.83,12.149705,7.132805872320975,-185.7646124595948,10.002240998896198,0.033166247903554,0.0805281490733704,-0.360139231431205
14109192,1987.0,1,195332,234900,0.62,-0.21,9.96,-0.03,-0.01,-0.01,31.83,12.189705,-19.595507666695426,16.63608948975486,9.981487865042967,0.033166247903554,-0.20971592203902,0.026884345526580367
14149879,1936.0,1,195448,234994,0.61,-0.23,9.96,-0.03,-0.01,-0.01,31.89,12.230392,-53.043489607330756,132.9441291410914,9.981312538939957,0.033166247903554,-0.5729292027711709,0.2492845304136508
14190192,1975.0,1,195478,235257,0.62,-0.22,9.98,-0.03,-0.01,-0.01,31.89,12.270705,-50.55322061529009,245.41661501996313,10.001659862242867,0.033166247903554,-0.5458872493250714,0.46435050288773894
14230193,1991.0,1,195638,235585,0.62,-0.24,9.96,-0.03,-0.01,-0.01,31.89,12.310706,-29.88756059449134,357.5793067084699,9.982164094022899,0.033166247903554,-0.32147783090420656,0.6788240976945511
14270192,1998.0,1,195749,235998,0.6,-0.22,9.96,-0.03,-0.01,-0.01,31.89,12.350705,-44.021604036580015,365.9119445655584,9.980480950335009,0.033166247903554,-0.47496010369791936,0.6947574777564012
14310192,2013.0,1,195904,236229,0.61,-0.23,9.985,-0.03,-0.01,-0.01,31.89,12.390705,-38.69699731915149,160.3770538157186,10.006259291063769,0.033166247903554,-0.4171399375103707,0.3017408140714251
14350192,2035.0,1,195471,233357,0.63,-0.22,9.98,-0.03,-0.01,-0.01,31.89,12.430705,-23.29002765923572,-239.26831210007583,10.002284738998386,0.033166247903554,-0.2498348963198221,-0.46244714348832766
14390192,2032.0,1,194467,231637,0.62,-0.22,9.95,-0.03,-0.01,-0.01,31.89,12.470705,-46.55343842375968,-650.7248929046204,9.971725026293093,0.033166247903554,-0.5024534178138541,-1.2492200950250534
14430193,2032.0,1,194328,232405,0.62,-0.23,9.97,-0.03,-0.01,-0.01,31.89,12.510706,-42.557838267789414,-848.6984760424657,9.991906724944943,0.033166247903554,-0.4590649992324404,-1.627778289493828
14470192,2067.0,1,194862,233673,0.62,-0.23,9.945,-0.03,-0.01,-0.01,31.89,12.550705,-32.20034724360453,-735.8881701720861,9.966961673448935,0.033166247903554,-0.3465924948605805,-1.4120663493910606
14510192,2046.0,1,195248,234693,0.64,-0.22,9.96,-0.03,-0.01,-0.01,31.89,12.590705,-45.27174888038775,-408.7609170069647,9.982965491275626,0.033166247903554,-0.48853548803398145,-0.7865450027703201
14550192,2087.0,1,195595,235567,0.65,-0.24500000000000002,9.97,-0.03,-0.01,-0.01,31.89,12.630705,-24.777514237268157,-62.00912160779837,9.99416955029281,0.033166247903554,-0.2659875862193533,-0.12349828959487344
14590192,2099.0,1,195751,235848,0.62,-0.23,9.96,-0.03,-0.01,-0.01,31.89,12.670705,-7.956281817694333,172.00101395838817,9.98192867135405,0.033166247903554,-0.08332499617385734,0.32396774604104106
14630192,2112.0,1,195805,235914,0.64,-0.22,9.96,-0.03,-0.01,-0.01,31.89,12.710705,-5.983578980143359,301.1872205439148,9.982965491275626,0.033166247903554,-0.06190331905120751,0.5709931134671374
14670193,2128.0,1,195801,236097,0.62,-0.21,9.96,-0.03,-0.01,-0.01,31.89,12.750706,11.25025412891858,410.6843130626245,9.981487865042967,0.033166247903554,0.12523972217150167,0.780369642327564
14710192,2145.0,1,196007,236484,0.63,-0.21,9.96,-0.03,-0.01,-0.01,31.89,12.790705,23.709559407534904,535.0251896763749,9.982114004558355,0.033166247903554,0.26053593089110255,1.0181299384413738
14750192,2153.0,1,196132,236964,0.64,-0.23,9.96,-0.03,-0.01,-0.01,31.89,12.830705,35.750934894843965,598.0963627590701,9.983190872661908,0.033166247903554,0.39129381945477204,1.1387324401831753
14790192,2142.0,1,196282,237366,0.63,-0.23,9.96,-0.03,-0.01,-0.01,31.89,12.870705,20.624599562986347,484.460471297328,9.982554783220577,0.033166247903554,0.22703620023308774,0.9214418440501839
14830192,2114.0,1,196091,235204,0.62,-0.23,9.98,-0.03,-0.01,-0.01,31.89,12.910705,3.8050150098311635,174.78072126291963,10.001884822372231,0.033166247903554,0.04439150445006732,0.3292830055907074
14870192,2144.0,1,195005,233145,0.63,-0.22,9.985,-0.03,-0.01,-0.01,31.89,12.950705,29.716205671823882,-192.47333936571678,10.007273604733708,0.033166247903554,0.32576239805800267,-0.37296742549888184
14910192,2128.0,1,194886,233513,0.62,-0.24,9.985,-0.03,-0.01,-0.01,31.89,12.990705,29.378439539147525,-406.39667469009635,10.007108723302649,0.033166247903554,0.3220945790132743,-0.782024180908258
14950192,2112.0,1,195210,234548,0.63,-0.21,9.98,-0.03,-0.01,-0.01,31.89,13.030705,13.757812827655924,-345.72680245487993,10.002069785799337,0.033166247903554,0.1524694253928594,-0.6660133630607918
14990192,2112.0,1,195534,235492,0.61,-0.24,9.98,-0.03,-0.01,-0.01,31.89,13.070705,30.056961457149324,-69.46803156627776,10.001504886765792,0.033166247903554,0.3294626818878666,-0.13776095758235476
15030192,2116.0,1,195806,236194,0.63,-0.23,9.97,-0.03,-0.01,-0.01,31.89,13.110705,40.43340297766028,243.08027240350148,9.992532211606825,0.033166247903554,0.4421409706312413,0.45988302986164153
15070192,2096.0,1,195898,236229,0.63,-0.22,9.98,-0.03,-0.01,-0.01,31.89,13.150705,38.35110157864418,440.8568185557616,10.002284738998386,0.033166247903554,0.4195291573400201,0.8380644570651858
15110192,2081.0,1,195902,236123,0.63,-0.23,9.985,-0.03,-0.01,-0.01,31.89,13.190705,32.247644498115,503.4945140753146,10.007498438670874,0.033166247903554,0.35325141675879657,0.9578380780995469
15150876,2055.0,1,195747,236095,0.64,-0.21,9.96,-0.03,-0.01,-0.01,31.89,13.231389,29.687923391705983,516.7515683821696,9.982750122085598,0.033166247903554,0.32545527938739227,0.9831877558839974
15189192,2058.0,1,195716,236221,0.62,-0.22,9.945,-0.03,-0.01,-0.01,31.89,13.269705,39.9239581125813,558.1907064133626,9.966735925065938,0.033166247903554,0.43660888378887536,1.0624262331838101
15229192,2014.0,1,195757,236505,0.63,-0.21,9.96,-0.03,-0.01,-0.01,31.89,13.309705,27.0197661215997,607.1417021151599,9.982114004558355,0.033166247903554,0.29648162838193987,1.1560286232431873
15269193,1984.0,1,195881,236853,0.61,-0.23,9.96,-0.03,-0.01,-0.01,31.89,13.349706,1.5001673420030013,565.402001208048,9.981312538939957,0.033166247903554,0.01936305028187507,1.076215420074252
15309192,1958.0,1,195902,235699,0.62,-0.23,9.97,-0.03,-0.01,-0.01,31.89,13.389705,12.045391482462707,367.3097236419086,9.991906724944943,0.033166247903554,0.1338741577953316,0.6974302622512948
15349245,1956.0,1,194913,233171,0.63,-0.22,9.985,-0.03,-0.01,-0.01,31.89,13.429758,15.374968864768807,66.95747026125964,10.007273604733708,0.033166247903554,0.1700302023251737,0.12310713821489933
15389192,1907.0,1,194434,233000,0.61,-0.23,9.985,-0.03,-0.01,-0.01,31.89,13.469705,1.255525476494181,-190.8645849509863,10.006259291063769,0.033166247903554,0.01670647223380033,-0.3698912213057194
15429192,1911.0,1,194605,233419,0.62,-0.23,9.985,-0.03,-0.01,-0.01,31.89,13.509705,18.603162578326163,-291.23861130495266,10.006873887483541,0.033166247903554,0.20508531661042737,-0.5618229406081974
15469192,1906.0,1,194716,233690,0.62,-0.23,9.97,-0.03,-0.01,-0.01,31.89,13.549705,38.67003133594575,-241.1864016987554,9.991906724944943,0.033166247903554,0.42299243125825553,-0.46611484765267513
15509192,1888.0,1,194732,233634,0.62,-0.24500000000000002,9.945,-0.03,-0.01,-0.01,31.89,13.589705,46.0788281660523,-145.4200629794065,9.967319097932,0.033166247903554,0.5034449203715596,-0.2829937882573949
15549223,1879.0,1,194598,233256,0.64,-0.23,9.96,-0.03,-0.01,-0.01,31.89,13.629736,51.31804390010458,-99.29180587131903,9.983190872661908,0.033166247903554,0.5603378216714366,-0.19478894068098676
15589192,1872.0,1,194399,232630,0.63,-0.22,9.97,-0.03,-0.01,-0.01,31.89,13.669705,76.02770613594507,-109.61876287532941,9.99230704091903,0.033166247903554,0.8286612590133932,-0.21453578839588025
15629192,1895.0,1,194255,232500,0.63,-0.22,9.95,-0.03,-0.01,-0.01,31.89,13.709705,110.72288038627174,-114.54392816491874,9.972351778793204,0.033166247903554,1.2054178623684422,-0.22395351802392374
15669192,1856.0,1,194295,232751,0.63,-0.22,9.95,-0.03,-0.01,-0.01,31.89,13.749705,98.54714122133684,-70.85261309442488,9.972351778793204,0.033166247903554,1.0732009120219623,-0.14040850618496423
15709192,1839.0,1,194304,232911,0.63,-0.23,9.945,-0.03,-0.01,-0.01,31.89,13.789705,97.99082581740129,-15.528379618290554,9.967588725464148,0.033166247903554,1.0671598556932458,-0.034619432697761535
15749192,1824.0,1,194249,232848,0.63,-0.22,9.96,-0.03,-0.01,-0.01,31.89,13.829705,101.47037793873263,-39.198522007556086,9.982329387472646,0.033166247903554,1.1049444832893245,-0.07988065504710962
15789192,1776.0,1,194165,232047,0.63,-0.21,9.96,-0.03,-0.01,-0.01,31.89,13.869705,70.18404542283044,-196.2330833171439,9.982114004558355,0.033166247903554,0.7652046599616767,-0.3801566770109189
15829192,1758.0,1,193546,230294,0.62,-0.23,9.96,-0.03,-0.01,-0.01,31.89,13.909705,70.06159400129894,-437.7895298249104,9.98192867135405,0.033166247903554,0.7638749539535922,-0.8420525057518831
15869192,1729.0,1,193175,229902,0.6,-0.22,9.98,-0.03,-0.01,-0.01,31.89,13.949705,48.374584143586134,-634.2877664813155,10.000439990320427,0.033166247903554,0.5283746474277526,-1.2177895940337733
15909192,1680.0,1,193218,230242,0.64,-0.23,9.98,-0.03,-0.01,-0.01,31.89,13.989705,20.869940949776876,-670.9460309923248,10.003144505604226,0.033166247903554,0.22970037441716024,-1.287886251404388
15949192,1633.0,1,193335,230674,0.62,-0.24500000000000002,9.985,-0.03,-0.01,-0.01,31.89,14.029705,-26.116192058657447,-532.5503214452941,10.007229886437104,0.033166247903554,-0.28052435451267344,-1.0232507929863315
15989192,1461.0,1,193507,231284,0.61,-0.22,9.97,-0.03,-0.01,-0.01,31.89,14.069705,-183.4378114256652,-305.7440192147306,9.991066009190412,0.033166247903554,-1.9888875556708772,-0.5895596766985637
16029192,1374.125,1,193635,231538,0.61,-0.23,9.97,-0.03,-0.01,-0.01,31.89,14.109705,-264.20475881224877,-103.46900088892076,9.991291207846961,0.033166247903554,-2.865939809139201,-0.2027764275908248
16069192,1409.0,1,193635,231515,0.62,-0.23,9.96,-0.03,-0.01,-0.01,31.89,14.149705,-233.7554022351797,18.340251612839644,9.98192867135405,0.033166247903554,-2.5352887486904923,0.030142985018637557
16109192,1383.0,1,193611,231472,0.63,-0.23,9.96,-0.03,-0.01,-0.01,31.89,14.189705,-242.439757736229,83.0977763293105,9.982554783220577,0.033166247903554,-2.6295925921384686,0.15397006965479973
16149192,1420.0,1,193563,231480,0.62,-0.23,9.97,-0.03,-0.01,-0.01,31.89,14.229705,-225.4869719183736,145.08144508473592,9.991906724944943,0.033166247903554,-2.4455014572717597,0.2724930834766317
16189879,1465.0,1,193584,231579,0.61,-0.23,9.97,-0.03,-0.01,-0.01,31.91,14.270392,-163.13162338328132,221.77991180898337,9.991291207846961,0.033166247903554,-1.7683816611410226,0.41915322177113384
16230193,1514.0,1,193686,231822,0.61,-0.22,9.985,-0.03,-0.01,-0.01,31.91,14.310706,-134.78916086910343,271.7435523292349,10.006034429283162,0.033166247903554,-1.4606094669299232,0.5146919560034873
16270193,1498.0,1,193774,231590,0.63,-0.22,9.985,-0.03,-0.01,-0.01,31.91,14.350706,-147.17756711251624,237.5312364818408,10.007273604733708,0.033166247903554,-1.5951357795397165,0.44927235652709063
16310192,1516.0,1,193400,230339,0.63,-0.23,9.96,-0.03,-0.01,-0.01,31.91,14.390705,-140.9370249447941,110.2791266083927,9.982554783220577,0.033166247903554,-1.527369425255365,0.20594530151039603
16350192,1559.0,1,193060,229958,0.62,-0.23,9.96,-0.03,-0.01,-0.01,31.91,14.430705,-110.1505620933924,-49.06546579589693,9.98192867135405,0.033166247903554,-1.193057711196131,-0.09874788150347194
16390192,1579.0,1,193002,230095,0.62,-0.23,9.95,-0.03,-0.01,-0.01,31.91,14.470705,-96.64472523420127,-153.69424910026956,9.971950661731134,0.033166247903554,-1.0463971645788053,-0.29881539894386505
16430192,1622.0,1,193047,230365,0.63,-0.23,9.95,-0.03,-0.01,-0.01,31.91,14.510705,-72.55096750278605,-157.3915453625628,9.9725774000506,0.033166247903554,-0.784761864538138,-0.3058852401584645
16470192,1682.0,1,193118,230698,0.65,-0.23,9.95,-0.03,-0.01,-0.01,31.91,14.550705,-23.04060748751165,-81.63756300070446,9.973860837208427,0.033166247903554,-0.24712643040957785,-0.16103111198542927
16510192,1781.0,1,193200,230983,0.62,-0.22,9.98,-0.03,-0.01,-0.01,31.91,14.590705,59.03236615680636,15.823543938189387,10.001659862242867,0.033166247903554,0.6441080264166644,0.025330624206549066
16550192,1867.0,1,193225,231086,0.61,-0.24,9.97,-0.03,-0.01,-0.01,31.91,14.630705,127.18090894219134,93.87576822289847,9.991526409913552,0.033166247903554,1.3841364037975947,0.1745793705855954
16590192,1877.0,1,193185,231134,0.62,-0.23,9.97,-0.03,-0.01,-0.01,31.91,14.670705,123.05860675368079,150.938803725478,9.991906724944943,0.033166247903554,1.339372121614124,0.2836933207822903
16630192,1911.0,1,193205,231201,0.63,-0.22,9.96,-0.03,-0.01,-0.01,31.91,14.710705,134.96666154614738,202.16421728924092,9.982329387472646,0.033166247903554,1.468682274196317,0.3816447735077392
16670192,1927.0,1,193260,231420,0.63,-0.23,9.97,-0.03,-0.01,-0.01,31.91,14.750705,138.30785326781321,242.2601906042458,9.992532211606825,0.033166247903554,1.5049644394084136,0.4583148979911042
16710192,1883.0,1,193297,231640,0.63,-0.24,9.985,-0.03,-0.01,-0.01,31.91,14.790705,68.728233032038,238.12387014166444,10.007733259834616,0.033166247903554,0.7493959216189955,0.4504055699825851
16750192,1872.0,1,193380,231591,0.62,-0.23,9.96,-0.03,-0.01,-0.01,31.91,14.830705,50.120364632351425,162.347427909909,9.98192867135405,0.033166247903554,0.5473321636057997,0.3055084948281319
16789193,1949.0,1,193041,230622,0.63,-0.21,9.96,-0.03,-0.01,-0.01,31.91,14.869706,94.70824382534788,32.671619995376346,9.982114004558355,0.033166247903554,1.0315141364172042,0.05754692878310674
16829192,1953.0,1,192808,230455,0.62,-0.21,9.97,-0.03,-0.01,-0.01,31.91,14.909705,100.060615495392,-88.07868140326815,9.991466358848434,0.033166247903554,1.0896358035905758,-0.1733475943877119
16869192,1971.0,1,192834,230707,0.62,-0.22,9.945,-0.03,-0.01,-0.01,31.91,14.949705,79.6984531802345,-137.92751391398082,9.966735925065938,0.033166247903554,0.8685220816800799,-0.2686667967405452
16909192,1973.0,1,192934,231035,0.65,-0.22,9.96,-0.03,-0.01,-0.01,31.91,14.989705,88.04994397302308,-105.11255908853703,9.983611570969696,0.033166247903554,0.9592113308920901,-0.20591918236997062
16949192,2018.0,1,193047,231460,0.63,-0.22,9.96,-0.03,-0.01,-0.01,31.91,15.029705,98.33668952780707,-33.188370099548344,9.982329387472646,0.033166247903554,1.0709156067327448,-0.06838825177432399
16989223,2006.0,1,193059,231645,0.62,-0.21,9.98,-0.03,-0.01,-0.01,31.91,15.069736,86.54115114672835,21.938392807782822,10.001444895613833,0.033166247903554,0.9428272753949222,0.03702322536491143
17029192,2019.0,1,193051,231705,0.65,-0.24,9.96,-0.03,-0.01,-0.01,31.91,15.109705,80.91055853021372,40.89637674249166,9.984072315443234,0.033166247903554,0.8816843932820272,0.07327402234166976
17069192,2017.0,1,193040,231714,0.62,-0.22,9.945,-0.03,-0.01,-0.01,31.91,15.149705,64.293704389178,50.510804527751056,9.966735925065938,0.033166247903554,0.7012411570136878,0.09165839648669907
17109192,1999.0,1,193076,231809,0.62,-0.22,9.95,-0.03,-0.01,-0.01,31.91,15.189705,47.74598021223767,87.75753826895745,9.971725026293093,0.033166247903554,0.5215486064249971,0.1628803042354348
17149192,2011.0,1,193087,231962,0.65,-0.24,9.97,-0.03,-0.01,-0.01,31.91,15.229705,33.8448702015888,153.7314053312476,9.994048228820992,0.033166247903554,0.3705957692180294,0.2890332363659501
17189911,1958.0,1,193223,232254,0.63,-0.22,9.96,-0.03,-0.01,-0.01,31.89,15.270424,-7.084155004856501,202.5114125419423,9.982329387472646,0.033166247903554,-0.07385452822552148,0.3823086681845317
17230192,1968.0,1,193318,232345,0.62,-0.21,9.95,-0.03,-0.01,-0.01,31.89,15.310705,-20.42259171194259,178.59085132463417,9.971509414326398,0.033166247903554,-0.21869726835906456,0.3365686036689599
17270192,1966.0,1,193119,231263,0.62,-0.24,9.96,-0.03,-0.01,-0.01,31.89,15.350705,-13.938836960101414,70.86883908811518,9.982164094022899,0.033166247903554,-0.14828985666353628,0.13058632153586247
17310192,1973.0,1,192842,230987,0.62,-0.21,9.985,-0.03,-0.01,-0.01,31.89,15.390705,-16.403196978697565,-67.64658898998302,10.006434180066343,0.033166247903554,-0.17505046329290147,-0.13427805849005217
17350192,1987.0,1,192802,231180,0.63,-0.23,9.96,-0.03,-0.01,-0.01,31.89,15.430705,-3.8297423454752106,-156.13264972422155,9.982554783220577,0.033166247903554,-0.038514701118222174,-0.30347802373937666
17390198,1979.0,1,192858,231458,0.62,-0.22,9.98,-0.03,-0.01,-0.01,31.89,15.470711,-6.899967447141676,-148.01045312894306,10.001659862242867,0.033166247903554,-0.07185442647868427,-0.2879470421331682
17430192,1984.0,1,192956,231796,0.64,-0.24,9.945,-0.03,-0.01,-0.01,31.89,15.510705,-9.79955892171279,-64.5437063226079,9.968461516201986,0.033166247903554,-0.10334123289143447,-0.12834483426087756
17470192,1984.0,1,193063,232064,0.64,-0.23,9.97,-0.03,-0.01,-0.01,31.89,15.550705,3.0558031884777535,27.582870050111893,9.993167665960579,0.033166247903554,0.03625577643873148,0.047816398270654085
17510192,1985.0,1,193095,232071,0.62,-0.23,9.97,-0.03,-0.01,-0.01,31.89,15.590705,-3.704555413443275,72.60509906112338,9.991906724944943,0.033166247903554,-0.03715529006709171,0.1339063374192581
17550193,1973.0,1,193071,232028,0.65,-0.24500000000000002,9.95,-0.03,-0.01,-0.01,31.89,15.630706,-2.09201743493562,66.67247346033484,9.974218014461082,0.033166247903554,-0.019644660860269347,0.12256217725254533
17590192,1978.0,1,193037,232019,0.63,-0.21,9.97,-0.03,-0.01,-0.01,31.89,15.670705,0.9816261826295767,50.14435872011474,9.99209187307643,0.033166247903554,0.013732186332446106,0.09095769156884714
17630192,1959.0,1,192937,232127,0.62,-0.24,9.945,-0.03,-0.01,-0.01,31.89,15.710705,-9.317237790319133,60.93827387367909,9.967197449634476,0.033166247903554,-0.0981036840069948,0.11159744040310134
17670192,1965.0,1,193050,232344,0.62,-0.205,9.95,-0.03,-0.01,-0.01,31.89,15.750705,3.648373928224244,93.09218669984729,9.971405367349178,0.033166247903554,0.04269053124191206,0.1730810332726883
17710192,1954.0,1,193138,232580,0.64,-0.24,9.96,-0.03,-0.01,-0.01,31.89,15.790705,-5.099249548399705,100.67494482081128,9.983426265566347,0.033166247903554,-0.052300342264097036,0.18758051940547643
17750192,1933.0,1,193198,232038,0.62,-0.24,9.95,-0.03,-0.01,-0.01,31.89,15.830705,-12.92099925615795,44.9230637953037,9.97218631996013,0.033166247903554,-0.137237106983202,0.08097371316022685
17790192,1954.0,1,192819,231305,0.64,-0.21,9.945,-0.03,-0.01,-0.01,31.89,15.870705,8.046825957756194,-61.16026069048173,9.9677843576193,0.033166247903554,0.0904535381289859,-0.1218751272965442
17830192,1904.0,1,192705,231301,0.62,-0.23,9.985,-0.03,-0.01,-0.01,31.89,15.910705,-28.328625774644234,-156.61071624272793,10.006873887483541,0.033166247903554,-0.3045492810332694,-0.30439216589518003
17870192,1890.0,1,192758,231595,0.62,-0.24,9.98,-0.03,-0.01,-0.01,31.89,15.950705,-42.332389929824096,-183.1297103881804,10.002119775327628,0.033166247903554,-0.4566168446438219,-0.35510086340782004
17910192,1882.0,1,192898,231871,0.62,-0.21,9.97,-0.03,-0.01,-0.01,31.89,15.990705,-35.18221200630873,-134.46634571557678,9.991466358848434,0.033166247903554,-0.3789727109550412,-0.2620484713903985
17950192,1883.0,1,192889,232102,0.6,-0.24,9.97,-0.03,-0.01,-0.01,31.89,16.030705,-40.13140958838447,-59.25958043812014,9.990920878477619,0.033166247903554,-0.43271629088066504,-0.11824071267822885
17990192,1947.0,1,192946,232138,0.62,-0.23,9.96,-0.03,-0.01,-0.01,31.89,16.070705,45.439224721510286,-17.45300670203811,9.98192867135405,0.033166247903554,0.4964994351141231,-0.038299637613494544
18030192,1968.0,1,192948,232064,0.63,-0.21,9.96,-0.03,-0.01,-0.01,31.89,16.110705,55.136298009769746,-30.68726518393465,9.982114004558355,0.033166247903554,0.6018004308148498,-0.06360572601495311
18070192,1931.0,1,192886,232036,0.62,-0.23,9.98,-0.03,-0.01,-0.01,31.89,16.150705,32.9366971592661,-68.74215572047508,10.001884822372231,0.033166247903554,0.36073387349110714,-0.1363729630568214
18110192,1936.0,1,192832,232110,0.64,-0.23,9.97,-0.03,-0.01,-0.01,31.89,16.190705,46.291599962001534,-82.3139101275974,9.993167665960579,0.033166247903554,0.5057554197670435,-0.16232439941869486
18150192,1834.0,1,192865,232197,0.64,-0.22,9.96,-0.03,-0.01,-0.01,31.89,16.230705,-79.7393463073032,-54.24280823346021,9.982965491275626,0.033166247903554,-0.8628208234722845,-0.10864781549590699
18190878,1771.0,1,192837,232528,0.64,-0.21,9.95,-0.03,-0.01,-0.01,31.85,16.271391,-88.7842480492694,-24.156608623631126,9.972772934344789,0.033166247903554,-0.9610398562806085,-0.05111803186414922
18229192,1843.0,1,192975,232837,0.62,-0.24,9.98,-0.03,-0.01,-0.01,31.85,16.309705,-87.2254569560865,-59.990808920516976,10.002119775327628,0.033166247903554,-0.944112867144586,-0.11963894232913913
18269192,1631.0,1,192911,232242,0.63,-0.23,9.985,-0.03,-0.01,-0.01,31.85,16.349705,-219.19416937237207,-194.65712430891904,10.007498438670874,0.033166247903554,-2.377167604969715,-0.37714318305251027
18309192,1818.0,1,192508,231306,0.62,-0.22,9.96,-0.03,-0.01,-0.01,31.85,16.389705,-104.91889502397785,-382.23182654143193,9.981703261467954,0.033166247903554,-1.1362467812167685,-0.7358169994258625
18349192,1895.0,1,192342,231312,0.62,-0.22,9.95,-0.03,-0.01,-0.01,31.85,16.429705,21.489209225862272,-518.2381432146107,9.971725026293093,0.033166247903554,0.2364250390803237,-0.9958835439622514
18389192,1887.0,1,192426,231680,0.63,-0.24,9.95,-0.03,-0.01,-0.01,31.85,16.469705,-10.15552216190322,-513.6623862544934,9.97281304346973,0.033166247903554,-0.1072066552215195,-0.9871339407793671
18429192,1915.0,1,192621,232255,0.62,-0.24,9.98,-0.03,-0.01,-0.01,31.85,16.509705,6.809956861630501,-361.5279335862382,10.002119775327628,0.033166247903554,0.07702231578985157,-0.6962277359929947
18469192,1894.0,1,192839,232984,0.63,-0.23,9.98,-0.03,-0.01,-0.01,31.85,16.549705,12.140783861031952,-138.70528003832726,10.002509685074042,0.033166247903554,0.13491002832523302,-0.2701540140504757
18509192,1904.0,1,193089,233510,0.63,-0.21,9.97,-0.03,-0.01,-0.01,31.85,16.589705,-23.526070547229995,58.634557253269975,9.99209187307643,0.033166247903554,-0.25239809764820287,0.10719235367098637
18549192,1802.0,1,193280,233776,0.64,-0.22,9.95,-0.03,-0.01,-0.01,31.85,16.629705,-89.3491448904026,190.84279866771908,9.972988518994693,0.033166247903554,-0.9671740988578551,0.35999635090377824
18589192,1852.0,1,193228,234010,0.62,-0.22,9.96,-0.03,-0.01,-0.01,31.85,16.669705,-79.52955267951072,297.1320824828848,9.981703261467954,0.033166247903554,-0.8605426641512693,0.5632390196210093
18629192,1872.0,1,193409,234469,0.63,-0.22,9.98,-0.03,-0.01,-0.01,31.85,16.709705,-38.90446039455421,444.44697417465767,10.002284738998386,0.033166247903554,-0.4193927892483781,0.8449294276709102
18669192,1925.0,1,193593,235125,0.6,-0.23,9.95,-0.03,-0.01,-0.01,31.85,16.749705,-15.632104585746102,646.766051727588,9.97072715502736,0.033166247903554,-0.16667713307858284,1.2317969252991035
18709192,1967.0,1,193856,235661,0.62,-0.21,9.97,-0.03,-0.01,-0.01,31.85,16.789705,46.73719178092735,828.4977142440799,9.991466358848434,0.033166247903554,0.5105941232411934,1.5792978845162253
18749192,1889.0,1,193958,235991,0.61,-0.23,9.985,-0.03,-0.01,-0.01,31.85,16.829705,-75.10724366421479,871.6965774569135,10.006259291063769,0.033166247903554,-0.8125205930825928,1.6619012470545866
18789192,1767.0,1,194085,235372,0.62,-0.24,9.945,-0.03,-0.01,-0.01,31.85,16.869705,-154.66681538591178,713.0236945108774,9.967197449634476,0.033166247903554,-1.676461894831978,1.3584924834854433
18829192,1984.0,1,193292,233317,0.63,-0.23,9.96,-0.03,-0.01,-0.01,31.85,16.909705,-2.8090499128936113,406.5006543788338,9.982554783220577,0.033166247903554,-0.02743095179922214,0.7723697958202314
18869193,1937.0,1,193075,233134,0.63,-0.24,9.95,-0.03,-0.01,-0.01,31.85,16.949706,4.019747035915894,92.61150972936133,9.97281304346973,0.033166247903554,0.04672329008098886,0.1721618995014761
18909192,1973.0,1,192997,233230,0.62,-0.22,9.96,-0.03,-0.01,-0.01,31.85,16.989705,-20.003724713708365,-102.77922070974067,9.981703261467954,0.033166247903554,-0.21414877102702518,-0.20145745394256312
18949192,2046.0,1,193047,233485,0.62,-0.23,9.97,-0.03,-0.01,-0.01,31.85,17.029705,87.35704383986472,-152.81532188258882,9.991906724944943,0.033166247903554,0.9516870942720492,-0.2971347449125491
18989192,2112.0,1,193097,233642,0.61,-0.23,9.98,-0.03,-0.01,-0.01,31.85,17.069705,124.74804084531489,-128.87750862971592,10.00126991936524,0.033166247903554,1.3577177694948313,-0.25136169165509165
19029192,2112.0,1,193091,233680,0.63,-0.23,9.97,-0.03,-0.01,-0.01,31.85,17.109705,126.7639968118075,-124.70457357696436,9.992532211606825,0.033166247903554,1.3796091344716754,-0.24338235050175616
19069192,2165.0,1,193022,233553,0.61,-0.22,9.98,-0.03,-0.01,-0.01,31.85,17.149705,181.2286109904609,-176.44880676186298,10.001044945404455,0.033166247903554,1.971043058190894,-0.34232587204729276
19109192,2221.0,1,192962,233429,0.62,-0.21,9.97,-0.03,-0.01,-0.01,31.85,17.189705,221.47641402876454,-243.63059074616606,9.991466358848434,0.033166247903554,2.4080959306107963,-0.47078854087003685
19149192,2224.0,1,193017,233550,0.61,-0.21,9.96,-0.03,-0.01,-0.01,31.85,17.229705,234.38622222639657,-259.138575708689,9.980871705417318,0.033166247903554,2.5482841726819316,-0.5004423699022363
19189192,2240.0,1,193046,233663,0.63,-0.23,9.95,-0.03,-0.01,-0.01,31.85,17.269705,240.4403037030501,-200.7138215501169,9.9725774000506,0.033166247903554,2.6140257411525734,-0.3887245886912385
19229879,2192.0,1,193140,233821,0.63,-0.23,9.96,-0.03,-0.01,-0.01,31.91,17.310392,191.97948486027906,-122.04996733103977,9.982554783220577,0.033166247903554,2.08778732622849,-0.23830630484174992
19270192,2165.0,1,193311,234028,0.61,-0.23,9.98,-0.03,-0.01,-0.01,31.91,17.350705,171.10758378366515,-114.87180115521097,10.00126991936524,0.033166247903554,1.8611383260404133,-0.2245804653431208
19310189,2203.0,1,193297,233722,0.64,-0.22,9.96,-0.03,-0.01,-0.01,31.91,17.390702,198.91069485423915,-229.63569454982158,9.982965491275626,0.033166247903554,2.163053676402258,-0.4440279875078376
19350192,2102.0,1,192993,232509,0.63,-0.205,9.96,-0.03,-0.01,-0.01,31.91,17.430705,110.33510964124903,-420.79632962973756,9.982010068117544,0.033166247903554,1.2012070407792168,-0.8095586998502546
19390189,1943.0,1,192755,232516,0.64,-0.22,9.96,-0.03,-0.01,-0.01,31.91,17.470702,-53.93946404411228,-568.24023920583,9.982965491275626,0.033166247903554,-0.5826586332406426,-1.0914958114076037
19430192,1775.0,1,192872,233000,0.64,-0.22,9.945,-0.03,-0.01,-0.01,31.91,17.510705,-216.96885161538157,-563.748935410174,9.968000050160514,0.033166247903554,-2.3530027700142733,-1.0829076966260955
19470192,1616.0,1,193166,233738,0.64,-0.24500000000000002,9.97,-0.03,-0.01,-0.01,31.91,17.550705,-368.57013648323385,-392.9188194034296,9.993524153170393,0.033166247903554,-3.999248577542836,-0.7562522951760112
19510192,1535.0,1,193476,234560,0.62,-0.22,9.96,-0.03,-0.01,-0.01,31.91,17.590705,-451.9397659396766,-144.76148616888014,9.981703261467954,0.033166247903554,-4.904563483597319,-0.2817344806045235
19550192,1557.0,1,193671,235015,0.62,-0.21,9.98,-0.03,-0.01,-0.01,31.91,17.630705,-417.0097816846234,57.2850773981302,10.001444895613833,0.033166247903554,-4.525257066853922,0.10461192526565717
19590192,1795.0,1,193814,235099,0.62,-0.24,9.985,-0.03,-0.01,-0.01,31.91,17.670705,-178.93731523359523,145.02889403732445,10.007108723302649,0.033166247903554,-1.9400164462046767,0.2723925971930063
19630192,2030.0,1,193788,235116,0.63,-0.21,9.945,-0.03,-0.01,-0.01,31.91,17.710705,65.99555655427294,145.37669051732573,9.967147284955711,0.033166247903554,0.7197216533647781,0.27305764151571377
19670192,2034.0,1,193834,235215,0.62,-0.24500000000000002,9.945,-0.03,-0.01,-0.01,31.91,17.750705,75.98917269231112,143.20740964152606,9.967319097932,0.033166247903554,0.8282428224540505,0.26890961813490455
19710192,1986.0,1,193937,235458,0.64,-0.22,9.97,-0.03,-0.01,-0.01,31.91,17.790705,36.069333131676714,200.54082453844543,9.992942509591456,0.033166247903554,0.3947513215660985,0.37854057839789496
19750192,1996.0,1,194023,235768,0.64,-0.23,9.97,-0.03,-0.01,-0.01,31.91,17.830705,53.529715095593396,297.6835571720962,9.993167665960579,0.033166247903554,0.5843544679444475,0.5642935303255902
19790192,1984.0,1,194113,236161,0.66,-0.23,9.96,-0.03,-0.01,-0.01,31.91,17.870705,51.532520462852986,345.1474402829964,9.984492976611282,0.033166247903554,0.5626668332134264,0.6550523154531426
19830192,1981.0,1,194298,236467,0.63,-0.23,9.95,-0.03,-0.01,-0.01,31.91,17.910705,55.70908452911887,260.5848607919847,9.9725774000506,0.033166247903554,0.608020347795826,0.4933546944657487
19870192,1962.0,1,194057,234641,0.63,-0.23,9.97,-0.03,-0.01,-0.01,31.91,17.950705,47.04046185144796,50.016410018176444,9.992532211606825,0.033166247903554,0.5138873478505932,0.09071303251473153
19910192,1931.0,1,193552,234145,0.63,-0.22,9.97,-0.03,-0.01,-0.01,31.91,17.990705,25.736696081922506,-178.22422137891766,9.99230704091903,0.033166247903554,0.28254870772480106,-0.3457207580781109
19950189,1934.0,1,193582,234552,0.61,-0.23,9.945,-0.03,-0.01,-0.01,31.91,18.030702,36.23599342767193,-286.52310867925553,9.966344615755569,0.033166247903554,0.39656109391600136,-0.5528061206279591
19990192,1911.0,1,193802,235185,0.62,-0.23,9.95,-0.03,-0.01,-0.01,31.91,18.070705,26.626524694921923,-211.05871329442593,9.971950661731134,0.033166247903554,0.2922114003915957,-0.40850573059224565
20030192,1875.0,1,194022,235937,0.63,-0.22,9.97,-0.03,-0.01,-0.01,31.91,18.110705,-4.1172396344042586,-8.467340418928831,9.99230704091903,0.033166247903554,-0.04163664831667654,-0.021117559326492362
20070192,1872.0,1,194310,236388,0.62,-0.23,9.96,-0.03,-0.01,-0.01,31.91,18.150705,6.621795694492701,191.82548206137167,9.98192867135405,0.033166247903554,0.07497906442288396,0.3618754038831677
20110192,1872.0,1,194330,236432,0.62,-0.22,9.96,-0.03,-0.01,-0.01,31.91,18.190705,14.622951345482221,287.42535807121004,9.981703261467954,0.033166247903554,0.16186400710200843,0.5446781590796761
20150192,1863.0,1,194391,236376,0.64,-0.23,9.97,-0.03,-0.01,-0.01,31.91,18.230705,12.903756985161051,273.19288983465714,9.993167665960579,0.033166247903554,0.14319519100013622,0.5174633287317694
20190192,1871.0,1,194294,236394,0.63,-0.23,9.96,-0.03,-0.01,-0.01,31.91,18.270705,38.19042040668306,228.87058475134205,9.982554783220577,0.033166247903554,0.41778431259203297,0.4327117597542491
20230879,1863.0,1,194324,236474,0.64,-0.22,9.97,-0.03,-0.01,-0.01,31.85,18.311392,25.967738564537875,238.44918413881257,9.992942509591456,0.033166247903554,0.2850576094052722,0.45102762408416724
20269189,1825.0,1,194367,236657,0.63,-0.23,9.97,-0.03,-0.01,-0.01,31.85,18.349702,15.263544599152318,308.77731757235847,9.992532211606825,0.033166247903554,0.1688202407454418,0.5855066328033502
20309192,1866.0,1,194497,237012,0.63,-0.24,9.945,-0.03,-0.01,-0.01,31.85,18.389705,44.77493896259405,356.04600039104326,9.967824486817571,0.033166247903554,0.48928592339111865,0.6758921627268011
20349192,1817.0,1,194494,237242,0.63,-0.21,9.96,-0.03,-0.01,-0.01,31.85,18.429705,23.7497696339135,275.84633403000475,9.982114004558355,0.033166247903554,0.26097257571672683,0.5225371523591119
20389192,1797.0,1,194463,235538,0.62,-0.23,9.98,-0.03,-0.01,-0.01,31.85,18.469705,-3.4330116647243196,42.029141383235,10.001884822372231,0.033166247903554,-0.03420658314631043,0.07544005545760973
20429189,1787.0,1,193717,234456,0.63,-0.24,9.95,-0.03,-0.01,-0.01,31.85,18.509702,4.328284959527038,-251.7508625130416,9.97281304346973,0.033166247903554,0.050073718566150886,-0.486315841886374
20469246,1767.0,1,193599,234581,0.63,-0.24,9.985,-0.03,-0.01,-0.01,31.85,18.549759,-11.79810742461452,-451.234365235846,10.007733259834616,0.033166247903554,-0.12504356936511524,-0.8677612520271364
20509192,1744.0,1,193677,235081,0.64,-0.22,9.95,-0.03,-0.01,-0.01,31.85,18.589705,-28.50592732457227,-456.8292349546098,9.972988518994693,0.033166247903554,-0.30647460728292336,-0.8784595671530919
20549192,1743.0,1,193902,235635,0.64,-0.22,9.97,-0.03,-0.01,-0.01,31.85,18.629705,-18.93134610303695,-297.1192289233279,9.992942509591456,0.033166247903554,-0.20250375895842707,-0.5730676529212708
20589192,1744.0,1,194130,236140,0.63,-0.23,9.95,-0.03,-0.01,-0.01,31.85,18.669705,-14.839351568021836,-98.54048135576737,9.9725774000506,0.033166247903554,-0.15806858907467292,-0.19335228409499505
20629192,1729.0,1,194218,236234,0.64,-0.22,9.95,-0.03,-0.01,-0.01,31.85,18.709705,-22.526319844333603,19.42377419236317,9.972988518994693,0.033166247903554,-0.24154175560168553,0.03221485917916622
20669238,1723.0,1,194126,236069,0.63,-0.21,9.96,-0.03,-0.01,-0.01,31.85,18.749751,-19.383534909349972,32.67132081809513,9.982114004558355,0.033166247903554,-0.20741409944302816,0.05754635670672358
20709192,1725.0,1,194069,236002,0.65,-0.23,9.96,-0.03,-0.01,-0.01,31.85,18.789705,-19.713422850565067,13.313859421541611,9.983836937770969,0.033166247903554,-0.21099636881926045,0.020531692832725764
20749192,1697.0,1,194099,236111,0.62,-0.23,9.96,-0.03,-0.01,-0.01,31.85,18.829705,-30.203890942264515,48.78581931235116,9.98192867135405,0.033166247903554,-0.32491287770654453,0.08835993980234216
20789192,1710.0,1,194187,236279,0.63,-0.24,9.98,-0.03,-0.01,-0.01,31.85,18.869705,-26.790498195690848,152.18074658856398,10.002744623352132,0.033166247903554,-0.2878466780144145,0.2860681206946395
20829192,1693.0,1,194214,236554,0.64,-0.23,9.96,-0.03,-0.01,-0.01,31.85,18.909705,-23.9942365799344,241.58113307611913,9.983190872661908,0.033166247903554,-0.25748193561988447,0.45701642782294505
20869192,1673.0,1,194340,236848,0.61,-0.23,9.985,-0.03,-0.01,-0.01,31.85,18.949705,-52.31883786579277,207.97506871045823,10.006259291063769,0.033166247903554,-0.5650601738743178,0.39275608132707934
20909189,1645.0,1,194223,235289,0.6,-0.23,9.97,-0.03,-0.01,-0.01,31.85,18.989702,-66.50506647437308,15.985268134540801,9.990685662155526,0.033166247903554,-0.7191091279572223,0.025639867585399653
20949192,1696.0,1,193509,234099,0.63,-0.205,9.95,-0.03,-0.01,-0.01,31.85,19.029705,-16.370956123151046,-250.60994848042503,9.972032139940183,0.033166247903554,-0.1747003582570447,-0.4841342257869639
20989192,1689.0,1,193332,234171,0.64,-0.24,9.985,-0.03,-0.01,-0.01,31.85,19.069705,-17.393022775650625,-443.18568828293655,10.0083677490388,0.033166247903554,-0.18579903029771275,-0.8523708521219412
21029192,1637.0,1,193426,234518,0.63,-0.23,9.945,-0.03,-0.01,-0.01,31.85,19.109705,-65.1096496939888,-459.1950419221443,9.967588725464148,0.033166247903554,-0.703956228517979,-0.8829833808856945
21069192,1680.0,1,193584,234972,0.63,-0.23,9.98,-0.03,-0.01,-0.01,31.85,19.149705,-18.314447111442615,-314.8582421094102,10.002509685074042,0.033166247903554,-0.19580482247206402,-0.6069875764633192
21109192,1683.0,1,193744,235367,0.62,-0.21,9.97,-0.03,-0.01,-0.01,31.85,19.189705,-11.380152476498633,-120.54124685958136,9.991466358848434,0.033166247903554,-0.1205049760301619,-0.2354213820728586
21149192,1648.0,1,193779,235402,0.63,-0.21,9.97,-0.03,-0.01,-0.01,31.85,19.229705,-41.86012219984493,13.594189923686077,9.99209187307643,0.033166247903554,-0.45148846613972854,0.021067731060979904
21189192,1719.0,1,193770,235290,0.62,-0.22,9.95,-0.03,-0.01,-0.01,31.85,19.269705,34.350912077578094,59.102406071650584,9.971725026293093,0.033166247903554,0.37609090283452506,0.10808695789627433
21229192,1718.0,1,193721,235203,0.63,-0.23,9.96,-0.03,-0.01,-0.01,31.85,19.309705,34.313925056511216,74.37318332347412,9.982554783220577,0.033166247903554,0.37568925895388516,0.13728720660097166
21269879,1642.0,1,193733,235358,0.61,-0.24,9.97,-0.03,-0.01,-0.01,31.81,19.350392,-31.183852200440263,136.46157337628566,9.991526409913552,0.033166247903554,-0.3355543251996742,0.2560104648424509
21310192,1676.0,1,193786,235534,0.63,-0.21,9.97,-0.03,-0.01,-0.01,31.81,19.390705,0.30875237623606777,260.19496941099,9.99209187307643,0.033166247903554,0.006425416579559954,0.49260915773863134
21350192,1682.0,1,193856,235724,0.63,-0.22,9.96,-0.03,-0.01,-0.01,31.81,19.430705,16.97252357442538,373.05531601443437,9.982329387472646,0.033166247903554,0.18737812747872457,0.7084167839893112
21390192,1664.0,1,193903,235955,0.63,-0.23,9.98,-0.03,-0.01,-0.01,31.81,19.470705,1.763127236061082,369.6514785140759,10.002509685074042,0.033166247903554,0.022218544702774057,0.7019080844043589
21430192,1680.0,1,193890,234733,0.62,-0.22,9.96,-0.03,-0.01,-0.01,31.81,19.510705,19.940291019950802,203.98588753774865,9.981703261467954,0.033166247903554,0.21960526011269083,0.3851281079469224
21470192,1680.0,1,193160,233255,0.61,-0.23,9.985,-0.03,-0.01,-0.01,31.81,19.550705,32.82639564157806,-58.67613603083907,10.006259291063769,0.033166247903554,0.35953610388634255,-0.11712507059158014
21510192,1679.0,1,192902,233079,0.61,-0.21,9.97,-0.03,-0.01,-0.01,31.81,19.590705,26.673070510081892,-279.5467436594412,9.990850814620345,0.033166247903554,0.292716843687356,-0.5394661582754204
21550192,1664.0,1,192949,233325,0.63,-0.24,9.97,-0.03,-0.01,-0.01,31.81,19.630705,27.22424348782071,-345.8286286884727,9.992767384463626,0.033166247903554,0.29870205815711787,-0.6662080716402268
21590192,1680.0,1,193016,233667,0.62,-0.23,9.95,-0.03,-0.01,-0.01,31.81,19.670705,42.132121272897464,-248.79448353354007,9.971950661731134,0.033166247903554,0.460587436135435,-0.48066275690954513
21630192,1680.0,1,193153,234032,0.62,-0.22,9.96,-0.03,-0.01,-0.01,31.81,19.710705,47.50941659818896,-78.0610002142883,9.981703261467954,0.033166247903554,0.518979750506784,-0.15419213312082394
21670192,1671.0,1,193204,234102,0.62,-0.22,9.97,-0.03,-0.01,-0.01,31.81,19.750705,51.65398385674757,55.840286295241576,9.991681540161297,0.033166247903554,0.5639858101808146,0.10184924601004536
21710192,1683.0,1,193161,233979,0.63,-0.24,9.96,-0.03,-0.01,-0.01,31.81,19.790705,53.19983803575363,102.44478963216068,9.982790191123923,0.033166247903554,0.5807723167296049,0.1909647550477028
21750192,1667.0,1,193099,233885,0.62,-0.22,9.96,-0.03,-0.01,-0.01,31.81,19.830705,63.31266726297863,93.98191511632763,9.981703261467954,0.033166247903554,0.6905880266167828,0.17478234098037293
21790192,1730.0,1,193090,233854,0.62,-0.22,9.96,-0.03,-0.01,-0.01,31.81,19.870705,106.59187503280548,100.10882587560079,9.981703261467954,0.033166247903554,1.16055907208873,0.1864980064643219
21830192,1709.0,1,193044,233852,0.63,-0.22,9.95,-0.03,-0.01,-0.01,31.81,19.910705,113.52714292317806,157.2202658415232,9.972351778793204,0.033166247903554,1.2358694871591922,0.29570451399092357
21870192,1691.0,1,193052,234010,0.62,-0.22,9.97,-0.03,-0.01,-0.01,31.81,19.950705,77.87758479121352,230.74143882191444,9.991681540161297,0.033166247903554,0.848749182300632,0.4362891417859584
21910192,1648.0,1,193101,234187,0.61,-0.22,9.95,-0.03,-0.01,-0.01,31.81,19.990705,54.23822040078133,241.67703084295835,9.971108263377747,0.033166247903554,0.5920481618949577,0.4571998001946163
21950192,1646.0,1,193154,233566,0.65,-0.24,9.96,-0.03,-0.01,-0.01,31.81,20.030705,42.86116438641325,137.39489960899147,9.984072315443234,0.033166247903554,0.4685041511565452,0.25779513877673754
21990192,1652.0,1,192627,232162,0.65,-0.22,9.985,-0.03,-0.01,-0.01,31.81,20.070705,55.984930244559976,-52.77948188597441,10.00855259265794,0.033166247903554,0.6110157699847968,-0.10584969379076463
22030192,1663.0,1,192361,231924,0.63,-0.23,9.96,-0.03,-0.01,-0.01,31.81,20.110705,66.27153581830166,-228.6147341454165,9.982554783220577,0.033166247903554,0.7227185257644292,-0.4420757425608611
22070192,1643.0,1,192362,232158,0.63,-0.22,9.95,-0.03,-0.01,-0.01,31.81,20.150705,40.74933402721299,-291.70821291142283,9.972351778793204,0.033166247903554,0.4455716814345673,-0.5627208964538578
22110192,1601.0,1,192450,232477,0.62,-0.24500000000000002,9.97,-0.03,-0.01,-0.01,31.81,20.190705,6.3838002810246355,-218.86799624425143,9.992263257140497,0.033166247903554,0.07239466052436586,-0.423438369617743
22150192,1599.0,1,192552,232886,0.63,-0.23,9.96,-0.03,-0.01,-0.01,31.81,20.230705,-14.775057206604137,-74.33710575139389,9.982554783220577,0.033166247903554,-0.157370413442297,-0.14707143175288426
22190192,1557.0,1,192653,233002,0.65,-0.23,9.96,-0.03,-0.01,-0.01,31.81,20.270705,-40.83801698065767,46.447575936804284,9.983836937770969,0.033166247903554,-0.4403893753015024,0.08388883221088499
22230192,1535.0,1,192642,232898,0.63,-0.24,9.98,-0.03,-0.01,-0.01,31.81,20.310705,-95.08135371947748,92.00892142577887,10.002744623352132,0.033166247903554,-1.0294204364200232,0.17100965112269442
22270878,1503.0,1,192607,232921,0.61,-0.23,9.98,-0.03,-0.01,-0.01,31.95,20.351391,-106.45880508558798,87.77940489945571,10.00126991936524,0.033166247903554,-1.1529687403024484,0.16292211684512412
22309228,1602.0,1,192559,232937,0.63,-0.24,9.95,-0.03,-0.01,-0.01,31.95,20.389741,-47.06972241750054,102.78742422125677,9.97281304346973,0.033166247903554,-0.5080597710906807,0.19161992898230018
22349191,1600.0,1,192599,233122,0.62,-0.23,9.95,-0.03,-0.01,-0.01,31.95,20.429704,-32.1736126014453,179.2404901532094,9.971950661731134,0.033166247903554,-0.34630218206666996,0.3378108204238641
22389192,1603.0,1,192693,233368,0.65,-0.21,9.96,-0.03,-0.01,-0.01,31.95,20.469705,-67.4977409631169,284.0449247066457,9.983396215717375,0.033166247903554,-0.7298886290462767,0.5382142120685213
22429192,1596.0,1,192716,233585,0.65,-0.22,9.985,-0.03,-0.01,-0.01,31.95,20.509705,-69.12547164024079,325.8151512466297,10.00855259265794,0.033166247903554,-0.7475642365144893,0.6180857852900763
22469192,1631.0,1,192834,233507,0.62,-0.21,9.96,-0.03,-0.01,-0.01,31.95,20.549705,-66.25503213526403,228.88387730913905,9.981487865042967,0.033166247903554,-0.7163939927731422,0.43273717732057154
22509213,1618.0,1,192451,231819,0.62,-0.22,9.97,-0.03,-0.01,-0.01,31.95,20.589726,-86.80027070430943,4.996801700180674,9.991681540161297,0.033166247903554,-0.939495748727569,0.004628104564089224
22549192,1661.0,1,191965,231280,0.62,-0.22,9.96,-0.03,-0.01,-0.01,31.95,20.629705,-71.82280885424207,-241.55287768925734,9.981703261467954,0.033166247903554,-0.7768547539656512,-0.4668156102851521
22589191,1707.0,1,191929,231465,0.64,-0.23,9.97,-0.03,-0.01,-0.01,31.95,20.669704,-40.969118500318686,-385.92788237855785,9.993167665960579,0.033166247903554,-0.44181301315055294,-0.7428844687426347
22629192,1721.0,1,192027,231823,0.63,-0.22,9.96,-0.03,-0.01,-0.01,31.95,20.709705,-57.491612373278336,-373.659242163367,9.982329387472646,0.033166247903554,-0.6212315866275914,-0.7194248019788331
22669192,1726.0,1,192134,232268,0.63,-0.23,9.985,-0.03,-0.01,-0.01,31.95,20.749705,-68.02156632193312,-254.22970809832137,10.007498438670874,0.033166247903554,-0.735576874377311,-0.4910558041290992
22709192,1776.0,1,192268,232400,0.63,-0.22,9.985,-0.03,-0.01,-0.01,31.95,20.789705,-55.74949910410995,-132.11030847236694,10.007273604733708,0.033166247903554,-0.6023138929674865,-0.257543338984578
22749192,1776.0,1,192294,232365,0.63,-0.22,9.96,-0.03,-0.01,-0.01,31.95,20.829705,-69.12587535005908,-80.26903178978777,9.982329387472646,0.033166247903554,-0.747568620419259,-0.15841425424073682
22789192,1814.0,1,192270,232380,0.63,-0.23,9.98,-0.03,-0.01,-0.01,31.95,20.869705,-74.13442075023887,-88.32588334630171,10.002509685074042,0.033166247903554,-0.8019566612201645,-0.17382028533839697
22829192,1856.0,1,192233,232403,0.63,-0.22,9.985,-0.03,-0.01,-0.01,31.95,20.909705,-46.7892131509185,-84.70260352523862,10.007273604733708,0.033166247903554,-0.5050137071705356,-0.16689197578630005
22869191,1923.0,1,192318,232606,0.63,-0.205,9.945,-0.03,-0.01,-0.01,31.95,20.949704,-22.03909960457855,-11.039834889180096,9.967043192441778,0.033166247903554,-0.23625100705863075,-0.026036593707262044
22909192,1959.0,1,192405,233005,0.62,-0.22,9.95,-0.03,-0.01,-0.01,31.95,20.989705,-6.2009431113436415,114.62960306640016,9.971725026293093,0.033166247903554,-0.0642636868410153,0.21426413115887244
22949192,2005.0,1,192556,233362,0.63,-0.22,9.95,-0.03,-0.01,-0.01,31.95,21.029705,2.2660903835652686,201.39666889049158,9.972351778793204,0.033166247903554,0.027680246255250274,0.3801770941770295
22989192,2021.0,1,192689,233617,0.64,-0.21,9.97,-0.03,-0.01,-0.01,31.95,21.069705,-6.808450523905962,157.7191997696864,9.99272735543205,0.033166247903554,-0.07086063970882917,0.29665855808110486
23029192,2067.0,1,192436,232035,0.63,-0.21,9.97,-0.03,-0.01,-0.01,31.95,21.109705,4.145024708385888,-25.327855478986606,9.99209187307643,0.033166247903554,0.04808368648699846,-0.05335764933135382
23069192,2117.0,1,191952,231267,0.63,-0.23,9.97,-0.03,-0.01,-0.01,31.95,21.149705,31.17481464406739,-252.8650930620941,9.992532211606825,0.033166247903554,0.341601504616186,-0.4884464347573308
23109192,2163.0,1,191909,231459,0.63,-0.23,9.97,-0.03,-0.01,-0.01,31.95,21.189705,37.87859149382311,-390.5193648297287,9.992532211606825,0.033166247903554,0.4143981470927804,-0.7516641416621276
23149192,2191.0,1,192054,231948,0.64,-0.22,9.96,-0.03,-0.01,-0.01,31.95,21.229705,52.79860479726268,-362.54829672026665,9.982965491275626,0.033166247903554,0.576415305261776,-0.6981788388603473
23189192,2241.0,1,192189,232476,0.62,-0.23,9.95,-0.03,-0.01,-0.01,31.95,21.269705,56.867080814275,-201.96537662711614,9.971950661731134,0.033166247903554,0.6205950864019906,-0.39111776874444376
23229192,2246.0,1,192405,232977,0.61,-0.22,9.985,-0.03,-0.01,-0.01,31.95,21.309705,57.39315447111913,-14.260078484253654,10.006034429283162,0.033166247903554,0.6263077461118722,-0.03219423141719772
23269192,2288.0,1,192550,233024,0.63,-0.22,9.985,-0.03,-0.01,-0.01,31.95,21.349705,55.71100807428727,109.87092806663632,10.007273604733708,0.033166247903554,0.608041235667402,0.20516475846771903
23309879,2245.0,1,192515,233048,0.63,-0.23,9.98,-0.03,-0.01,-0.01,32.05,21.390392,6.018989969661775,158.85658375386876,10.002509685074042,0.033166247903554,0.06843316741335562,0.2988334241447755
23350192,2266.0,1,192550,233106,0.62,-0.24,9.985,-0.03,-0.01,-0.01,32.05,21.430705,-2.045904150506243,191.6007181034008,10.007108723302649,0.033166247903554,-0.01914391443698272,0.3614456180664819
23390192,2299.0,1,192575,233306,0.63,-0.22,9.985,-0.03,-0.01,-0.01,32.05,21.470705,15.779620850940917,267.69124408201725,10.007273604733708,0.033166247903554,0.17442433814219277,0.5069432732288288
23430192,2295.0,1,192666,233513,0.63,-0.22,9.97,-0.03,-0.01,-0.01,32.05,21.510705,-2.2455958873034323,378.73036034809354,9.99230704091903,0.033166247903554,-0.02131237682690921,0.7192684062230938
23470192,2331.0,1,192788,233769,0.64,-0.21,9.95,-0.03,-0.01,-0.01,32.05,21.550705,18.532430005048443,442.89858022035673,9.972772934344789,0.033166247903554,0.20431722811885783,0.8419686426491105
23510192,2358.0,1,192865,233859,0.63,-0.22,9.95,-0.03,-0.01,-0.01,32.05,21.590705,34.77829287961729,372.22913990442794,9.972351778793204,0.033166247903554,0.38073185198075765,0.7068369987898914
23550192,2353.0,1,192567,232196,0.62,-0.23,9.97,-0.03,-0.01,-0.01,32.05,21.630705,27.415402817538798,156.99962073395437,9.991906724944943,0.033166247903554,0.30077786671898255,0.2952826040966047
23590192,2370.0,1,192014,231190,0.63,-0.23,9.98,-0.03,-0.01,-0.01,32.05,21.670705,29.318376473204882,-109.07217238278616,10.002509685074042,0.033166247903554,0.32144235122654036,-0.21349061708215553
23630192,2346.0,1,191891,231253,0.63,-0.24500000000000002,9.96,-0.03,-0.01,-0.01,32.05,21.710705,17.488792746991486,-290.461135537325,9.982911649413712,0.033166247903554,0.19298431981168557,-0.5603362785082775
23670192,2369.0,1,191952,231513,0.64,-0.22,9.96,-0.03,-0.01,-0.01,32.05,21.750705,26.427658979146802,-307.9892506951776,9.982965491275626,0.033166247903554,0.2900519078045683,-0.593852930181836
23710192,2365.0,1,192068,231910,0.61,-0.21,9.98,-0.03,-0.01,-0.01,32.05,21.790705,40.190425914444894,-190.35855325887434,10.000829965557859,0.033166247903554,0.4395024707531393,-0.36892360511837935
23750192,2366.0,1,192187,232225,0.63,-0.24,9.98,-0.03,-0.01,-0.01,32.05,21.830705,37.94077209459757,-39.37967315000782,10.002744623352132,0.033166247903554,0.41507336929438504,-0.08022704595606607
23790192,2349.0,1,192216,232241,0.62,-0.22,9.96,-0.03,-0.01,-0.01,32.05,21.870705,36.78912554422895,55.695272689128345,9.981703261467954,0.033166247903554,0.4025675827705328,0.10157195604017392
23830192,2311.0,1,192175,232120,0.62,-0.24,9.97,-0.03,-0.01,-0.01,32.05,21.910705,10.003365447839476,81.49104737487663,9.99214191252306,0.033166247903554,0.11169969666663487,0.15089773847631271
23870192,2271.0,1,192143,232124,0.62,-0.22,9.96,-0.03,-0.01,-0.01,32.05,21.950705,-16.57721592135511,93.6691830984068,9.981703261467954,0.033166247903554,-0.17694014354877957,0.1741843457015066
23910192,2261.0,1,192121,232179,0.61,-0.22,9.97,-0.03,-0.01,-0.01,32.05,21.990705,-3.2302840433697764,152.06321567466338,9.991066009190412,0.033166247903554,-0.03200515393668289,0.2858433821721797
23950218,2272.0,1,192192,232303,0.62,-0.23,9.96,-0.03,-0.01,-0.01,32.05,22.030731,20.972209272721372,255.35699605176112,9.98192867135405,0.033166247903554,0.2308109111651641,0.48335815348478345
23990192,2240.0,1,192213,232411,0.62,-0.23,9.98,-0.03,-0.01,-0.01,32.05,22.070705,21.894238958683104,331.62166187333025,10.001884822372231,0.033166247903554,0.24082327686677732,0.6291887927932391
24030192,2223.0,1,192293,232447,0.65,-0.22,9.945,-0.03,-0.01,-0.01,32.05,22.110705,18.03124622727782,295.15298959662834,9.968647099782396,0.033166247903554,0.1988748488298207,0.5594546670936037
24070192,2183.0,1,192043,230961,0.63,-0.21,9.97,-0.03,-0.01,-0.01,32.05,22.150705,20.114227592459724,123.48371866732903,9.99209187307643,0.033166247903554,0.22149404590707442,0.23119466281052034
24110193,2160.0,1,191511,230057,0.62,-0.22,9.95,-0.03,-0.01,-0.01,32.05,22.190706,8.832679082784551,-112.65074223811828,9.971725026293093,0.033166247903554,0.09898715585880165,-0.22033343379407846
24150220,2112.0,1,191301,229978,0.64,-0.23,9.96,-0.03,-0.01,-0.01,32.05,22.230733,10.856119992312754,-296.0002836831599,9.983190872661908,0.033166247903554,0.12095980020014889,-0.5709280447820754
24190192,2097.0,1,191294,230149,0.64,-0.24,9.96,-0.03,-0.01,-0.01,32.05,22.270705,7.436834235801555,-348.18736989781956,9.983426265566347,0.033166247903554,0.08382960802331238,-0.6707183744759729
24230192,2009.0,1,191306,230380,0.63,-0.21,9.97,-0.03,-0.01,-0.01,32.05,22.310705,-27.93603129988111,-281.15299355323265,9.99209187307643,0.033166247903554,-0.30028607832558096,-0.5425375734108225
24270192,1997.0,1,191391,230521,0.64,-0.23,9.98,-0.03,-0.01,-0.01,32.05,22.350705,-23.891094478030038,-173.98702512875968,10.003144505604226,0.033166247903554,-0.2563619104631864,-0.33761853889994503
24310879,1984.0,1,191370,230471,0.64,-0.24,9.96,-0.03,-0.01,-0.01,31.81,22.391392,11.816097145222335,-100.92381908046438,9.983426265566347,0.033166247903554,0.13138423931145438,-0.19790961953122047
24349192,1984.0,1,191276,230384,0.62,-0.24,9.96,-0.03,-0.01,-0.01,31.81,22.429705,34.7234835244348,-75.11610418000548,9.982164094022899,0.033166247903554,0.38013667449752475,-0.14856100543213563
24389192,1975.0,1,191228,230381,0.63,-0.205,9.985,-0.03,-0.01,-0.01,31.81,22.469705,68.67387236510991,-53.58603213054897,10.006955081342175,0.033166247903554,0.7488056164635818,-0.10739195109345688
24429192,1969.0,1,191199,230414,0.62,-0.24,9.96,-0.03,-0.01,-0.01,31.81,22.509705,89.16462154177732,6.554835982812314,9.982164094022899,0.033166247903554,0.9713156694266043,0.00760732348615528
24469192,1923.0,1,191223,230556,0.63,-0.21,9.96,-0.03,-0.01,-0.01,31.81,22.549705,83.12082171432382,94.0051378038248,9.982114004558355,0.033166247903554,0.9056857498902361,0.17482674659505293
24509192,1893.0,1,191239,230693,0.63,-0.21,9.97,-0.03,-0.01,-0.01,31.81,22.589705,77.4716570445299,142.00254709713258,9.99209187307643,0.033166247903554,0.8443411929374817,0.26660572191724063
24549192,1841.0,1,191263,230658,0.62,-0.23,9.98,-0.03,-0.01,-0.01,31.81,22.629705,65.44030335890417,84.48053650210572,10.001884822372231,0.033166247903554,0.7136921316111238,0.15661413552510434
24589192,1822.0,1,190969,229258,0.64,-0.21,9.97,-0.03,-0.01,-0.01,31.81,22.669705,64.34140608798046,-78.23496606920493,9.99272735543205,0.033166247903554,0.7017591521067637,-0.15452478457306645
24629192,1787.0,1,190501,228507,0.62,-0.23,9.945,-0.03,-0.01,-0.01,31.81,22.709705,70.13976328895761,-265.0814593442738,9.966961673448935,0.033166247903554,0.7647237980923325,-0.5118061451260174
24669192,1744.0,1,190412,228630,0.64,-0.23,9.945,-0.03,-0.01,-0.01,31.81,22.749705,37.21952873086371,-369.1515368083118,9.968225769915126,0.033166247903554,0.4072413521397174,-0.7108053247063588
24709192,1680.0,1,190455,228849,0.64,-0.24,9.96,-0.03,-0.01,-0.01,31.81,22.789705,12.445479866740468,-336.52318628551905,9.983426265566347,0.033166247903554,0.13821873723496014,-0.6484145285878563
24749192,1675.0,1,190552,229194,0.64,-0.22,9.945,-0.03,-0.01,-0.01,31.81,22.829705,11.932180436178893,-200.98194739201884,9.968000050160514,0.033166247903554,0.13264479347646643,-0.3892372895930055
24790192,1602.0,1,190688,229394,0.64,-0.22,9.97,-0.03,-0.01,-0.01,31.81,22.870705,-28.24680095541228,-47.07665578406672,9.992942509591456,0.033166247903554,-0.3036607412974103,-0.09494494822678498
24830192,1559.0,1,190690,229448,0.63,-0.23,9.945,-0.03,-0.01,-0.01,31.81,22.910705,-69.57248064762601,62.23284355867369,9.967588725464148,0.033166247903554,-0.7524183293078115,0.11407287149243178
24870192,1511.0,1,190688,229449,0.64,-0.24,9.96,-0.03,-0.01,-0.01,31.81,22.950705,-93.11341461560862,129.01767982774814,9.983426265566347,0.033166247903554,-1.008050488915689,0.24177651071135833
24910192,1487.0,1,190680,229559,0.63,-0.24,9.95,-0.03,-0.01,-0.01,31.81,22.990705,-120.44183261276613,199.71990582835392,9.97281304346973,0.033166247903554,-1.3048111238497855,0.3769708462155891
24950192,1456.0,1,190688,229624,0.63,-0.23,9.95,-0.03,-0.01,-0.01,31.81,23.030705,-131.46536343580698,302.8871118652421,9.9725774000506,0.033166247903554,-1.4245161871506118,0.5742435864807351
24990192,1445.0,1,190771,229922,0.64,-0.23,9.95,-0.03,-0.01,-0.01,31.81,23.070705,-155.99333340172217,404.91057576086735,9.973214125847294,0.033166247903554,-1.690866619198546,0.7693293028355604
25030192,1410.0,1,190867,230220,0.64,-0.24,9.96,-0.03,-0.01,-0.01,31.81,23.110705,-172.59426551618103,428.6471934804656,9.983426265566347,0.033166247903554,-1.8711369573973051,0.8147176369976494
25070192,1450.0,1,190855,229732,0.65,-0.22,9.96,-0.03,-0.01,-0.01,31.81,23.150705,-155.3375365688299,323.08131765045306,9.983611570969696,0.033166247903554,-1.6837452891406874,0.6128582438487209
25110192,1442.0,1,190381,228197,0.64,-0.22,9.96,-0.03,-0.01,-0.01,31.81,23.190705,-152.09071909230275,121.11853615188221,9.982965491275626,0.033166247903554,-1.6484879384975022,0.22667204313346354
25150192,1456.0,1,190049,227925,0.62,-0.22,9.98,-0.03,-0.01,-0.01,31.81,23.230705,-160.57867821839994,-72.54284853647303,10.001659862242867,0.033166247903554,-1.7406591040518806,-0.14364051556231314
25190192,1474.0,1,190039,228142,0.62,-0.23,9.97,-0.03,-0.01,-0.01,31.81,23.270705,-148.17717612966098,-158.37924126009727,9.991906724944943,0.033166247903554,-1.6059905830136891,-0.3077738778732981
25230192,1522.0,1,190110,228480,0.63,-0.23,9.96,-0.03,-0.01,-0.01,31.81,23.310705,-114.28825130020769,-116.24541611344327,9.982554783220577,0.033166247903554,-1.2379890817680457,-0.22720704405247139
25270192,1535.0,1,190265,228894,0.62,-0.23,9.945,-0.03,-0.01,-0.01,31.81,23.350705,-125.6228768090614,-11.010220923477753,9.966961673448935,0.033166247903554,-1.3610723375605138,-0.02597996691287032
25310879,1535.0,1,190296,229049,0.64,-0.22,9.96,-0.03,-0.01,-0.01,31.83,23.391392,-134.40645299599944,71.63729093616355,9.982965491275626,0.033166247903554,-1.4564536233158352,0.13205572841087382
25349192,1658.0,1,190257,228966,0.67,-0.21,9.98,-0.03,-0.01,-0.01,31.83,23.429705,-44.72621909305367,97.66076175500037,10.004668910063941,0.033166247903554,-0.48261155324633437,0.1818169034668931
25389192,1721.0,1,190203,229019,0.63,-0.23,9.96,-0.03,-0.01,-0.01,31.83,23.469705,4.539686575351124,100.77941396986071,9.982554783220577,0.033166247903554,0.05236933910827574,0.1877802816758512
25429192,1745.0,1,190208,229081,0.63,-0.22,9.98,-0.03,-0.01,-0.01,31.83,23.509705,-3.178590677609166,132.13717627210127,10.002284738998386,0.033166247903554,-0.03144381313581418,0.24774150322656596
25469192,1809.0,1,190289,229276,0.65,-0.23,9.97,-0.03,-0.01,-0.01,31.83,23.549705,37.94104956572331,193.8678257591163,9.993813086104822,0.033166247903554,0.4150763823669844,0.365780702410621
25509192,1852.0,1,190305,229404,0.62,-0.23,9.96,-0.03,-0.01,-0.01,31.83,23.589705,51.95179554010984,221.09152215079678,9.98192867135405,0.033166247903554,0.5672197618956402,0.4178369070287137
25549192,1890.0,1,190343,229408,0.63,-0.23,9.95,-0.03,-0.01,-0.01,31.83,23.629705,62.63909039187193,133.97498289438914,9.9725774000506,0.033166247903554,0.6832736222496022,0.2512556930780051
25589240,1963.0,1,190208,228185,0.62,-0.22,9.96,-0.03,-0.01,-0.01,31.83,23.669753,105.77223330834248,-82.76319521813991,9.981703261467954,0.033166247903554,1.1516585422960646,-0.16318350672979046
25629192,1986.0,1,189636,227138,0.62,-0.22,9.96,-0.03,-0.01,-0.01,31.83,23.709705,101.87919218364323,-345.89668772724264,9.981703261467954,0.033166247903554,1.1093838172786683,-0.6663382117651145
25669192,2010.0,1,189473,227226,0.64,-0.22,9.985,-0.03,-0.01,-0.01,31.83,23.749705,94.20899654048083,-523.2988313246783,10.007908123079467,0.033166247903554,1.026092785599836,-1.0055604156102373
25709192,2044.0,1,189594,227730,0.64,-0.24,9.98,-0.03,-0.01,-0.01,31.83,23.789705,103.71240289705322,-530.5506765243773,10.003379428972991,0.033166247903554,1.1292907425656031,-1.0194271415736385
25749192,2081.0,1,189752,228114,0.63,-0.23,9.97,-0.03,-0.01,-0.01,31.83,23.829705,107.76004237631732,-392.67169018213326,9.992532211606825,0.033166247903554,1.1732442587177514,-0.7557797432813007
25789218,2122.0,1,189957,228686,0.64,-0.23,9.97,-0.03,-0.01,-0.01,31.83,23.869731,127.8997938243231,-218.4011205253633,9.993167665960579,0.033166247903554,1.3919428100845643,-0.4225456261194322
25829192,2145.0,1,190095,228875,0.64,-0.21,9.98,-0.03,-0.01,-0.01,31.83,23.909705,118.63347617252236,-110.88171384068562,10.00270463424768,0.033166247903554,1.2913194110229929,-0.21695075927012536
25869192,2149.0,1,190058,228817,0.65,-0.23,9.98,-0.03,-0.01,-0.01,31.83,23.949705,102.62834788679048,-91.57897945828158,10.003789282067071,0.033166247903554,1.1175189358996438,-0.18004074248760676
25909192,2174.0,1,190010,228758,0.64,-0.21,9.98,-0.03,-0.01,-0.01,31.83,23.989705,103.77753910776102,-99.87727636789765,10.00270463424768,0.033166247903554,1.1299980598808188,-0.19590845698506465
25949192,2174.0,1,190025,228970,0.63,-0.22,9.97,-0.03,-0.01,-0.01,31.83,24.029705,76.16704695295614,-64.74167396180175,9.99230704091903,0.033166247903554,0.8301743677975438,-0.12872338108954354
25989192,2162.0,1,190083,229254,0.65,-0.23,9.96,-0.03,-0.01,-0.01,31.83,24.069705,57.85065432266597,17.32299803589314,9.983836937770969,0.033166247903554,0.6312757594978433,0.028197828138097385
26029192,2197.0,1,190259,229670,0.64,-0.22,9.97,-0.03,-0.01,-0.01,31.83,24.109705,54.2324139247502,70.4831008728484,9.992942509591456,0.033166247903554,0.5919851090861962,0.1298487263476836
26069192,2214.0,1,190369,229683,0.63,-0.22,9.98,-0.03,-0.01,-0.01,31.83,24.149705,78.86755557173048,9.163444896118088,10.002284738998386,0.033166247903554,0.8594993236890934,0.012595414647836187
26109192,2277.0,1,190076,228006,0.64,-0.23,9.96,-0.03,-0.01,-0.01,31.83,24.189705,105.60975240137886,-171.3203396759681,9.983190872661908,0.033166247903554,1.1498941541371814,-0.3325193958010295
26149192,2233.0,1,189624,227432,0.63,-0.22,9.95,-0.03,-0.01,-0.01,31.83,24.229705,63.38417292198364,-368.6391834687719,9.972351778793204,0.033166247903554,0.6913645100842822,-0.7098256204848555
26189192,2222.0,1,189632,227873,0.64,-0.22,9.97,-0.03,-0.01,-0.01,31.83,24.269705,40.5683364458875,-442.4707557752217,9.992942509591456,0.033166247903554,0.4436062197982123,-0.8510037830665758
26229192,2253.0,1,189853,228378,0.63,-0.23,9.97,-0.03,-0.01,-0.01,31.83,24.309705,50.14426604198637,-321.7222600086889,9.992532211606825,0.033166247903554,0.5475917101884019,-0.6201127125626295
26269191,2233.0,1,190145,229106,0.65,-0.23,9.96,-0.03,-0.01,-0.01,31.83,24.349704,49.629534368651704,-57.4614482896432,9.983836937770969,0.033166247903554,0.5420022136352032,-0.11480238697459326
26309192,2250.0,1,190401,229680,0.62,-0.22,9.98,-0.03,-0.01,-0.01,31.83,24.389705,28.29728282455297,221.08678381075146,10.001659862242867,0.033166247903554,0.3103542450825026,0.4178278465398146
26349879,2155.0,1,190596,229776,0.63,-0.22,9.97,-0.03,-0.01,-0.01,31.77,24.430392,-34.93048689107325,405.72061788891347,9.99230704091903,0.033166247903554,-0.37623921554985856,0.770878237196279
26390192,2167.0,1,190597,229586,0.64,-0.205,9.98,-0.03,-0.01,-0.01,31.77,24.470705,-52.2244305514538,479.60332869229734,10.002600911762901,0.033166247903554,-0.5640350002053345,0.9121541850317708
26430192,2178.0,1,190557,229518,0.62,-0.21,9.96,-0.03,-0.01,-0.01,31.77,24.510705,-24.26109906377119,504.94570570159397,9.981487865042967,0.033166247903554,-0.26037980845510433,0.9606129962131924
26470192,2192.0,1,190564,229602,0.6,-0.23,9.96,-0.03,-0.01,-0.01,31.77,24.550705,-10.768518728827411,545.7823493556862,9.980706387826466,0.033166247903554,-0.11386321508648371,1.0386994047371723
