timestamp_us,ecg,leads,ir,red,accX,accY,accZ,gyroX,gyroY,gyroZ,temp,time_sec,ecg_filtered,ppg_filtered,accel_magnitude,gyro_magnitude,ecg_norm,ppg_norm
2449958,1607.0,1,189977,232613,0.7,-0.13,9.86,-0.02,0.01,-0.03,27.17,0.030471,-21.705183886461736,29.22416160675188,9.885671449122714,0.03741657386773942,-0.1397083675975885,0.042470934536004715
2490177,1349.25,1,189804,231629,0.76,-0.13,9.92,-0.01,0.0,-0.055,27.17,0.07069,-266.7600625169077,-121.53189880628781,9.9499195976651,0.05590169943749474,-1.7975653468403243,-0.15509555247903892
2530200,1349.25,1,189774,231819,0.31,-0.64,10.99,-0.01,0.02,-0.03,27.17,0.110713,-269.12109058156597,-248.29612042359872,11.012983247058902,0.03741657386773942,-1.8135382867673215,-0.32122062815103725
2570172,1349.25,1,189259,231280,0.69,-0.54,9.88,-0.03,-0.03,0.0,27.17,0.150685,-246.8164287886815,-333.8421813854171,9.918775125992122,0.042426406871192854,-1.6626417225787473,-0.43332912114227073
2610169,1349.25,1,189553,231254,0.21,-0.77,10.79,-0.02,0.05,-0.03,27.17,0.190682,-253.57459899475091,-377.9650284047977,10.819477806252943,0.061644140029689765,-1.7083624187169326,-0.49115230820909866
2650172,1349.25,1,189191,231241,0.74,-0.36,10.82,-0.02,-0.02,0.02,27.17,0.230685,-236.2682273455989,-401.51105259966005,10.851248776062597,0.034641016151377546,-1.5912805259414642,-0.522009477536852
2690169,1349.25,1,189407,231594,0.28,-0.2,11.28,-0.03,0.05,-0.02,27.17,0.270682,-236.4701042834839,-432.3025406943327,11.28524700660114,0.061644140029689765,-1.5926462734519455,-0.5623618594985648
2730174,1349.25,1,189249,231291,0.43,-0.5,10.43,-0.05,-0.02,-0.0,27.17,0.310687,-230.72959070526744,-478.16752277111186,10.450827718415416,0.05385164807134505,-1.5538102765794415,-0.6224681222988191
2770188,1349.25,1,189172,230755,0.34,-0.17,10.89,-0.03,0.01,-0.02,27.17,0.350701,-224.88302717900785,-511.6142481756284,10.896632507339136,0.03741657386773942,-1.514256825528942,-0.6663002045529107
2810172,1349.25,1,189053,231041,0.71,-0.61,10.89,-0.02,-0.02,0.02,27.17,0.390685,-226.31395187382756,-486.67528060084084,10.930155534117528,0.034641016151377546,-1.5239373856766756,-0.6336175767365985
2850169,1349.25,1,189266,231021,0.57,-0.18,10.18,-0.06,-0.01,-0.03,27.17,0.430682,-221.60927954616153,-379.4999236966674,10.197534015633387,0.06782329983125268,-1.4921091115486034,-0.49316379530898574
2890192,1349.25,1,189361,231917,0.43,-0.58,10.77,-0.04,0.01,-0.03,27.17,0.470705,-223.33479335338995,-218.28154902824545,10.794174354715603,0.05099019513592785,-1.5037826400418164,-0.28188639897580164
2930169,1349.25,1,189665,231623,0.52,-0.01,9.4,-0.04,-0.03,-0.04,27.17,0.510682,-225.33970352061363,-73.81278986307856,9.414377302827841,0.06403124237432849,-1.5173463541456234,-0.0925594481820169
2970192,1349.25,1,189600,231486,0.29,-0.85,10.55,-0.05,-0.02,-0.02,27.17,0.550705,-223.62643545472707,-15.787081472239525,10.588158480113528,0.057445626465380296,-1.5057556711271183,-0.016516499514290687
3010189,1349.25,1,189426,231398,0.36,-0.41,9.67,-0.03,-0.02,-0.03,27.17,0.590702,-233.99924549558258,-68.78299321660049,9.685380735933926,0.04690415759823429,-1.5759303014658383,-0.0859678773282672
3050192,1349.25,1,189652,231105,0.65,-0.31,10.45,-0.05,-0.01,-0.055,27.17,0.630705,-227.82394222814472,-199.65294798855854,10.474784007319673,0.075,-1.5341528446036088,-0.2574735345421447
3090192,1461.0,1,189101,230427,0.75,-0.65,9.65,-0.07,0.01,0.04,27.17,0.670705,-134.65245223987503,-341.20938004606234,9.700902019915468,0.08124038404635961,-0.903824626668238,-0.44298386772119974
3130163,1569.0,1,189331,230090,1.01,-0.39,9.62,-0.05,0.01,-0.055,27.17,0.710676,-15.339398233923474,-431.2490379185798,9.680733443288272,0.075,-0.09664225019806882,-0.560981239429986
3168169,1601.0,1,189209,231217,0.84,-0.17,9.36,-0.06,0.02,-0.02,27.17,0.748682,-9.713258082554605,-439.276177769319,9.3991542172687,0.066332495807108,-0.05858001790025478,-0.5715008418708033
3208172,1535.0,1,189627,230408,0.83,0.35,9.84,-0.04,0.01,-0.055,27.17,0.788685,-59.222508469046964,-367.68615719216785,9.881143658504312,0.0687386354243376,-0.3935223653003315,-0.4776818018135648
3248160,1606.0,1,189288,231538,0.8,-1.14,9.34,-0.05,0.03,0.01,27.17,0.828673,-19.653628032182937,-236.62408104273337,9.443262148219755,0.05916079783099616,-0.1258290838619174,-0.30592436868086503
3288163,1659.0,1,189888,231138,1.02,0.17,9.05,-0.05,0.03,-0.055,27.17,0.868676,51.117871210198906,-71.03557388524705,9.108885771596876,0.08015609770940699,0.3529576458950212,-0.08891989430326111
3328159,1681.0,1,189913,232289,0.73,-0.42,10.02,-0.05,0.06,-0.03,27.17,0.908672,44.57537441807378,102.66099229031141,10.055331918937336,0.08366600265340755,0.30869603384666483,0.13871022744349232
3368172,1662.0,1,190270,232427,1.07,-0.13,10.07,-0.04,-0.02,-0.055,27.17,0.948685,35.45013727310023,256.71663322993044,10.127521908147127,0.07088723439378912,0.24696154330075867,0.3406008293994112
3408189,1685.0,1,190375,232868,0.77,-0.06,10.67,-0.04,0.07,-0.055,27.17,0.988702,44.3165483826236,365.2143101405333,10.697915684842538,0.09759610647971567,0.30694501157900417,0.4827875170708208
3448172,1711.0,1,190432,232804,0.86,-0.32,9.63,-0.04,-0.01,-0.055,27.17,1.028685,63.25738693080083,408.75403685986424,9.67361876445418,0.0687386354243376,0.4350844779520035,0.5398465223934964
3488876,1842.0,1,190460,232973,1.09,0.32,10.92,-0.02,0.04,-0.05,26.91,1.069389,199.55804298891763,378.49837461975915,10.978929820342236,0.0670820393249937,1.3571921918819974,0.5001963425949917
3529163,1990.0,1,190444,232877,0.75,-0.36,10.29,-0.04,0.02,-0.04,26.91,1.109676,327.86810363501417,282.68302826482136,10.323574962192117,0.06,2.2252415477570175,0.3746299054672848
3569169,2027.0,1,190402,233167,1.18,0.62,10.25,-0.01,-0.0,-0.055,26.91,1.149682,376.00968095756065,156.9041474279683,10.336309786379276,0.05590169943749474,2.550931247966159,0.2097961232661716
3609172,2087.25,1,190564,233418,0.65,-0.86,9.74,-0.07,0.02,-0.055,26.91,1.189685,425.37722808894864,66.85129281723182,9.799474475705317,0.0912414379544733,2.884914937730978,0.09178145717331312
3649169,2087.25,1,190394,232846,1.01,0.81,9.33,-0.03,0.01,-0.055,26.91,1.229682,420.95472098794767,84.37341040062412,9.41940019321825,0.0634428877022476,2.854995581282654,0.11474427012113618
3689163,2087.25,1,190653,233915,0.43,-0.9,11.61,-0.11,0.08,-0.055,26.91,1.269676,430.4728727633131,235.0546958443806,11.652767911530718,0.1467140075112121,2.9193882366685435,0.31221276420669186
3729172,2087.25,1,190653,233916,1.01,0.6,9.25,0.065,-0.05,-0.055,26.91,1.309685,417.8536260901601,452.90211579517955,9.324301582424283,0.0987420882906575,2.8340159058388354,0.597702775998268
3769163,2087.25,1,191408,235346,0.2,-1.1,11.64,-0.1,0.02,-0.055,26.91,1.349676,416.8733248828541,595.5647409113528,11.693570883181922,0.11586630226256468,2.8273839252499355,0.7846627800957788
3809169,2087.25,1,191085,234444,1.27,0.82,9.23,-0.0,-0.13,-0.055,26.91,1.389682,444.8097270744985,534.7028130853114,9.352978135332084,0.14115594213493105,3.016380608797682,0.7049029532562464
3849172,2087.25,1,191396,234360,0.09,-0.35,12.05,-0.135,0.01,-0.03,26.91,1.429685,379.13493863968483,261.20956905163223,12.055417869157418,0.1386542462386205,2.5720743906336225,0.3464888417568958
3889169,2087.25,1,190193,232523,1.48,0.6,9.27,0.03,-0.12,0.05,26.91,1.469682,486.0318592231892,-89.90764533669547,9.406556224251252,0.13341664064126332,3.2952585477471596,-0.11365182779332637
3929142,2087.25,1,190524,233045,-0.71,-1.66,11.91,-0.135,0.05,0.065,26.91,1.509655,348.93640932904736,-332.2073498580789,12.046069898518772,0.15795568998931314,2.367773856564245,-0.4311866671617625
3969172,1349.25,1,190113,232733,2.105,0.9825000000000002,8.49,0.065,-0.13,-0.055,26.91,1.549685,-238.90392069702528,-367.24926536419713,8.802069713993408,0.15540270267920053,-1.6091116445963003,-0.4771092531317986
4009164,1349.25,1,190949,234449,0.3,-0.97,11.02,-0.135,0.08,-0.055,26.91,1.589677,-378.46829566872316,-249.8595046438755,11.066675200799923,0.16628289148315892,-2.5532992257356577,-0.32326945011818464
4049169,1349.25,1,190821,233358,1.7,0.72,7.5900000000000025,-0.01,-0.1,-0.055,26.91,1.629682,-269.74595500723154,-124.2607685099057,7.811305908745351,0.11456439237389601,-1.8177656494501613,-0.15867174835062417
4089172,1349.25,1,190985,234102,0.66,0.12,11.86,-0.135,0.03,-0.02,26.91,1.669685,-340.10825254624535,-96.18444910930833,11.87895618309959,0.1397318861248212,-2.2937840282824493,-0.1218776070266144
4129159,1349.25,1,190542,233126,1.4,-0.51,8.64,-0.04,-0.1,0.0,26.91,1.709672,-313.5503081558949,-159.94174896540596,8.767536712212845,0.1077032961426901,-2.1141129533462872,-0.2054318317763375
4169172,1349.25,1,190687,233837,1.23,0.1,10.64,-0.09,-0.02,-0.02,26.91,1.749685,-315.27548206399376,-236.08676918834482,10.711325781620127,0.09433981132056603,-2.125784182337661,-0.305220219108289
4209169,1349.25,1,190539,233821,1.32,-0.43,9.28,-0.06,-0.09,-0.02,26.91,1.789682,-338.38365549878176,-264.61368491853256,9.383267021672143,0.10999999999999999,-2.2821167018962214,-0.34260486892432984
4249193,1349.25,1,190981,234683,1.14,-0.48,9.71,-0.08,-0.0,-0.04,26.91,1.829706,-322.19535315286777,-253.7040859585903,9.788467704395822,0.08944271909999159,-2.1725988250179658,-0.32830779101347496
4289189,1349.25,1,190900,233757,1.21,-0.4,8.73,-0.02,-0.09,-0.055,26.91,1.869702,-345.866320572536,-243.6004695963688,8.822527982386909,0.10735455276791944,-2.3327387853462183,-0.31506695687809877
4329193,1349.25,1,190667,234319,1.13,-0.73,9.28,-0.03,-0.01,-0.01,26.91,1.909706,-347.84180701925334,-239.37593474569096,9.377003785858252,0.033166247903554,-2.3461034406895167,-0.30953068518570814
4369212,1349.25,1,190907,232581,0.53,-1.34,8.54,-0.07,0.04,-0.055,26.91,1.949725,-355.933543756179,-194.73170614862457,8.660721678936461,0.09759610647971567,-2.4008460448705886,-0.25102422524470497
4409172,1349.25,1,190438,234355,0.96,-0.38,10.05,0.065,-0.0,0.065,26.91,1.989685,-374.7102531367022,-65.56662289382801,10.102895624522706,0.09192388155425119,-2.527875136752726,-0.0817528097292028
4449162,1349.25,1,191302,234496,0.48,-1.14,8.42,-0.06,0.09,-0.055,26.91,2.029675,-380.26024307903765,130.4473087482473,8.510370144711686,0.12134661099511597,-2.5654221940161865,0.17512431862259464
4487859,1349.25,1,191359,235848,0.86,-1.03,9.43,0.06,-0.06,0.02,26.49,2.068372,-398.9257459439262,321.36901715558315,9.524988188969054,0.08717797887081347,-2.6916989462627594,0.4253280657993501
4528159,1349.25,1,191705,234875,0.77,0.13,9.33,-0.1,0.04,-0.055,26.49,2.108672,-415.1526351611687,451.9186838710316,9.362622495860869,0.12093386622447826,-2.8014778728874905,0.5964139840920585
4568164,1514.0,1,191319,235814,0.87,-0.6,10.48,-0.01,0.05,0.065,26.49,2.148677,-262.63197496889967,536.623778186696,10.533152424606795,0.08261355820929153,-1.7696378116260147,0.7074203865568994
4608160,1881.0,1,191276,234180,1.26,-0.26,9.0,-0.0,-0.01,-0.055,26.49,2.188673,80.43043800784548,629.3032462568856,9.091490526860818,0.05590169943749474,0.5512644240199421,0.8288772412590173
4648193,2087.25,1,191335,236532,0.48,-1.22,10.97,-0.08,0.07,0.065,26.49,2.228706,273.1407356256097,741.2727456725893,11.048063178675257,0.12459935794377112,1.8549973415732994,0.9756137677494652
4688160,2087.25,1,192013,235382,1.03,0.11,8.66,-0.07,-0.03,-0.055,26.49,2.268673,252.06912178638257,807.7956113976114,8.721731479471263,0.09394147114027968,1.7124426523440668,1.0627922788584574
4728172,2087.25,1,191851,236480,0.37,-0.67,12.149999999999999,-0.06,-0.0,0.065,26.49,2.308685,230.99915466033988,751.1986186670966,12.174083127693846,0.08845903006477067,1.5698991035375873,0.9886216684116975
4768169,2087.25,1,191277,234271,0.87,-0.57,8.71,-0.02,-0.05,-0.02,26.49,2.348682,215.4658694976007,572.9336267860537,8.771881212146003,0.057445626465380296,1.464812580218662,0.7550046044793434
4808193,2087.25,1,191011,234599,0.11,-0.97,11.89,-0.06,0.0,0.065,26.49,2.388706,190.91624138429958,365.27233005981094,11.93000838222673,0.08845903006477067,1.2987282625633214,0.4828635524328299
4848160,2087.25,1,190570,234090,0.92,-0.16,9.27,0.04,-0.02,-0.01,26.49,2.428673,176.0623170728877,221.7431836570163,9.316914725379856,0.0458257569495584,1.1982377837512093,0.294767968339049
4888172,2087.25,1,191134,235058,0.25,-0.56,11.23,-0.09,0.04,-0.04,26.49,2.468685,154.76268033970373,141.94737359251818,11.246732858923965,0.1063014581273465,1.054140463139626,0.19019520469843748
4928170,2087.25,1,190842,234309,1.41,0.2,9.22,0.05,-0.11,-0.055,26.49,2.508683,137.8670229596803,34.519878774687214,9.329335453289264,0.13275918047351754,0.9398371541709964,0.04941099541467001
4968164,2087.25,1,190759,233354,0.28,-0.83,9.71,-0.04,0.01,-0.0,26.49,2.548677,121.74688777890628,-186.0075622147752,9.749430752613202,0.04123105625617661,0.8307804450569334,-0.23959119585602284
5008170,2087.25,1,189876,232057,1.23,0.55,9.9,0.03,-0.01,0.065,26.49,2.588683,105.06662746982272,-511.56844061668323,9.991266186024673,0.07228416147400481,0.7179343506492293,-0.6662401735433795
5048141,2087.25,1,189569,231442,0.43,-1.02,9.33,-0.08,-0.0,0.065,26.49,2.628654,92.46844054325983,-846.9875612276896,9.39543506177335,0.10307764064044152,0.6327044942238695,-1.105808421448191
5088169,2087.25,1,189635,231969,0.53,0.21,11.42,-0.07,-0.02,0.065,26.49,2.668682,79.47518430130451,-1090.5369506503555,11.434220568101702,0.09759610647971569,0.5448018959805608,-1.4249809784323944
5128164,2087.25,1,189592,231566,0.67,-0.29,10.3,-0.03,0.02,0.03,26.49,2.708677,69.24933204678403,-1200.5096312642563,10.325841370077308,0.04690415759823429,0.47562147148296186,-1.5691006650107555
5168160,2087.25,1,189409,231579,0.97,0.26,10.42,-0.04,-0.01,0.065,26.49,2.748673,61.38787036120965,-1193.8282287708992,10.468280661121003,0.07697402159170326,0.42243673508710544,-1.5603446573562072
5208175,2087.25,1,189494,231498,1.07,-0.28,9.93,-0.04,0.0,-0.01,26.49,2.788688,54.459206420929306,-1101.6420035591484,9.991406307422395,0.04123105625617661,0.3755626065881427,-1.4395341996116646
5248169,2087.25,1,189585,231627,0.56,-0.2,9.45,-0.07,0.0,-0.0,26.49,2.828682,51.03309100946998,-938.3006597476873,9.468690511364281,0.07,0.35238408682831107,-1.225474642783689
5288173,2087.25,1,189877,232377,1.05,0.34,10.69,-0.01,-0.01,-0.05,26.49,2.868686,49.28553218800082,-706.9353917298358,10.746822786293631,0.051961524227066326,0.3405614183509413,-0.9222694310373408
5328170,2087.25,1,190214,233061,0.65,-0.18,8.81,-0.03,0.01,-0.04,26.49,2.908683,49.2106694354077,-421.4436196986964,8.83577953550223,0.05099019513592785,0.34005495327844215,-0.5481311952851067
5368172,2087.25,1,190608,234103,0.75,-0.57,9.38,-0.08,-0.02,-0.055,26.49,2.948685,53.391258680200465,-116.9094984815598,9.427184097067375,0.09912113800799505,0.3683376754815728,-0.149037876315098
5407190,2087.25,1,190783,234548,1.24,-0.34,9.45,-0.06,-0.05,-0.05,26.49,2.987703,57.19052766788111,157.58334820055623,9.53706978059823,0.09273618495495704,0.3940406716530773,0.21068621889649294
5447192,2087.25,1,190876,234884,1.06,0.09,9.8,-0.03,-0.01,-0.03,26.49,3.027705,65.37611927269903,352.81674883148474,9.85757069464886,0.04358898943540673,0.4494182272729478,0.4665404578901041
5487170,2087.25,1,190981,235122,1.03,-0.45,10.06,-0.06,0.01,-0.02,26.49,3.067683,75.73698528376745,434.35227537179117,10.122598480627394,0.06403124237432849,0.519512053290393,0.5733931277022218
5527859,2087.25,1,191180,235506,1.32,0.07,9.88,-0.03,-0.03,-0.04,26.35,3.108372,84.23332733460018,402.1607630269924,9.96803390844955,0.05830951894845301,0.576991912682413,0.53120600774009
5568169,2083.0,1,191201,235598,1.34,-0.57,9.92,-0.04,-0.03,-0.055,26.35,3.148682,99.22798081698373,307.47223304152993,10.026310388173709,0.07433034373659253,0.6784344592092442,0.40711626847128407
5608193,2067.0,1,190927,233719,1.18,0.26,9.33,-0.04,-0.07,-0.055,26.35,3.188706,90.4315756382281,239.86085413737848,9.407916878884507,0.09759610647971567,0.6189245984003146,0.31851125600452923
5648169,2009.0,1,190676,234952,1.13,-0.37,10.51,-0.03,-0.01,-0.01,26.35,3.228682,58.48172014864092,270.3611414624015,10.577045901384752,0.033166247903554,0.402775908746649,0.3584820180637443
5688192,1978.0,1,191060,234206,1.07,0.15,8.72,-0.01,-0.06,-0.055,26.35,3.268705,36.62700820710214,387.28509071545886,8.786683105700353,0.08200609733428363,0.2549233668013033,0.5117113730798012
5728173,1927.0,1,191402,236739,0.24,-1.35,11.48,-0.06,0.04,0.05,26.35,3.308686,12.100235464219937,491.55697354912564,11.561595910599886,0.08774964387392122,0.08899367139047346,0.6483601388372136
5768164,1899.0,1,191495,234970,1.6,0.63,8.09,0.01,-0.1,-0.055,26.35,3.348677,0.004008258087023983,472.98762219031175,8.27073152750106,0.11456439237389601,0.007159696860893156,0.6240249213736007
5808219,1865.0,1,191075,235359,0.55,-0.79,11.73,-0.06,0.01,0.065,26.35,3.388732,-12.186786945397985,304.10537455072705,11.76943074239362,0.08902246907382427,-0.07531405360499738,0.40270398545936237
5848164,1801.0,1,190590,233940,1.32,-0.54,8.87,-0.02,-0.06,0.065,26.35,3.428677,-52.73902585987123,62.58687819269175,8.983924532185252,0.09069178573608527,-0.349659998823513,0.08619292286008107
5886169,1781.0,1,190700,234502,0.2,-0.75,11.4,-0.05,0.02,0.065,26.35,3.466682,-55.82478848903133,-135.81246084270614,11.42639488202644,0.08440971508067066,-0.3705359476706865,-0.17381029247957777
5926163,1774.0,1,190466,234661,1.6,-0.38,9.63,0.02,-0.07,-0.01,26.35,3.506676,-35.26851101354292,-222.55918239646476,9.76940632791983,0.07348469228349536,-0.231467636643988,-0.2874922565113593
5966169,1722.0,1,191112,234657,0.54,-0.37,10.51,-0.08,0.0,-0.04,26.35,3.546682,-72.96085919695629,-200.632264705616,10.530365615684955,0.08944271909999159,-0.486465712377688,-0.25875693345117734
6006223,1649.0,1,190622,234711,1.06,0.02,9.33,0.065,-0.04,0.03,26.35,3.586736,-118.7312744899152,-104.54100951957763,9.390042598412426,0.08200609733428363,-0.7961139138758597,-0.13282891657438695
6046141,1642.0,1,190921,234347,0.85,-0.29,9.32,-0.09,0.0,-0.0,26.35,3.626654,-111.38857184865057,39.72178882140467,9.363172539262534,0.09,-0.7464387109647507,0.056228121644172735
6086172,1644.0,1,190993,235588,0.5,-0.92,9.69,-0.02,0.04,0.065,26.35,3.666685,-87.08996650902218,206.41210208755393,9.746409595333041,0.0788986691902975,-0.5820526245774754,0.2746765178227567
6126159,1635.0,1,191081,234970,1.18,-0.5,8.56,-0.05,-0.05,-0.055,26.35,3.706672,-78.83079547640392,337.57946102203897,8.655402936894388,0.08958236433584459,-0.5261772858953406,0.4465719245130607
6166193,1634.0,1,191327,236202,0.64,0.23,10.25,-0.09,0.04,-0.02,26.35,3.746706,-66.40161099835427,349.88944137148354,10.27253620095836,0.1004987562112089,-0.44209077291346843,0.46270420845707405
6206160,1645.0,1,191461,235780,0.68,-0.3,10.12,-0.05,0.04,-0.03,26.35,3.786673,-34.19594341778948,202.07102249388714,10.147255786664688,0.07071067811865475,-0.22421145107336324,0.26898751372684404
6246172,1667.0,1,190813,233675,1.26,0.9825000000000002,9.93,-0.07,-0.04,-0.02,26.35,3.826685,-7.572037185357645,-34.54057891815817,10.057723711158506,0.08306623862918075,-0.044094127929985336,-0.04109304124325768
6286173,1664.0,1,190630,235243,0.46,-0.68,10.4,-0.08,0.06,0.05,26.35,3.866686,10.194543487470538,-185.57931701476747,10.432353521617259,0.11180339887498948,0.07610119293177955,-0.23902997861862105
6326163,1664.0,1,190701,234241,1.07,0.61,8.99,-0.03,-0.06,-0.055,26.35,3.906676,12.8012902964305,-80.97219705733075,9.07397928143987,0.08674675786448736,0.0937364810537932,-0.1019418831209727
6366170,1611.0,1,191423,236960,-0.29,-0.8,11.83,-0.12,0.11,0.04,26.35,3.946683,-30.248418846785412,316.718630837445,11.860564910660875,0.1676305461424021,-0.19750546914251346,0.419233713866697
6406172,1535.0,1,191803,237380,1.48,0.66,8.48,0.03,-0.07,-0.055,26.35,3.986685,-94.39022408580901,865.0591818065496,8.633446588703727,0.09394147114027968,-0.6314406761093825,1.1378364423145486
6446163,1477.0,1,192653,238200,0.51,-0.4,11.93,-0.07,0.08,-0.055,26.35,4.026676,-164.56624348291408,1311.883164991369,11.947593900028574,0.11968709203585824,-1.1061988371513956,1.7234012576196993
6486173,1357.0,1,191717,237649,1.64,-0.56,8.43,-0.04,-0.08,0.04,26.35,4.066686,-254.54452214263435,1432.7606080896062,8.60628258889981,0.09797958971132713,-1.7149241891621259,1.881811683886144
6526173,1349.25,1,192487,238472,0.81,0.07,10.69,-0.135,0.0,-0.055,26.35,4.106686,-301.64266906040626,1151.9348322558133,10.72087216601336,0.14577379737113252,-2.033554824117895,1.513788256882624
6566850,1349.25,1,192162,236791,1.26,-0.16,10.92,-0.03,-0.04,-0.01,26.47,4.147363,-253.30956362853692,583.1240476693162,10.993616329488672,0.05099019513592785,-1.7065693887879647,0.7683591963252362
6607192,1571.0,1,190465,235119,1.17,0.5,10.1,-0.135,-0.13,0.065,26.47,4.187705,-91.74404716779588,-34.02805317250057,10.179828092851077,0.19836834424877373,-0.6135386335287292,-0.04042137397630396
6647164,1809.0,1,190279,235750,0.71,-1.12,9.65,-0.12,0.01,0.065,26.47,4.227677,200.63007413642308,-473.0054953417359,9.740687860721131,0.13683932183404007,1.364444748247291,-0.61570326241655
6687164,2035.0,1,190740,235987,1.03,-1.08,8.99,-0.05,0.05,-0.0,26.47,4.267677,364.574214690044,-647.0401617560284,9.11303462080552,0.07071067811865477,2.4735674849247897,-0.8437764660284214
6727173,1808.0,1,190872,235347,0.92,-0.59,10.82,-0.05,-0.01,-0.02,26.47,4.307686,176.33421083010103,-631.9465001456944,10.87505862053166,0.05477225575051661,1.200077212394817,-0.823996155423478
6767190,1603.0,1,190167,234550,1.39,-0.21,8.94,0.0,-0.07,0.02,26.47,4.347703,-70.47496124837625,-578.4311423148733,9.049850827499865,0.07280109889280519,-0.46964799674284163,-0.7538640412051775
6807164,1518.0,1,190617,235295,0.43,-0.87,10.48,-0.12,0.04,-0.02,26.47,4.387677,-147.5927192950072,-596.7960839634566,10.524837290903836,0.12806248474865697,-0.9913687399318144,-0.777931378835294
6847172,1571.0,1,190600,234579,1.2,-0.43,9.25,0.02,0.01,-0.02,26.47,4.427685,-109.36774021211835,-698.4065531880844,9.337419343694487,0.03,-0.7327672841756852,-0.9110923502327898
6887164,1681.0,1,190611,234815,0.19,-0.85,10.24,-0.03,0.04,0.02,26.47,4.467677,-16.82546069664266,-814.9227306852587,10.276974262884966,0.05385164807134504,-0.10669583100894098,-1.0637873185509383
6927160,1725.0,1,190194,233699,1.2,-0.06,8.72,0.03,-0.06,-0.0,26.47,4.507673,26.612726347060686,-864.8678959785035,8.802386040159794,0.0670820393249937,0.18717426845011065,-1.129240679585561
6967173,1759.0,1,190627,234530,0.35,-0.59,9.82,-0.11,0.07,-0.02,26.47,4.547686,35.981383215722246,-819.4542981098602,9.843932141172044,0.1319090595827292,0.2505555537468779,-1.0697259577956721
7007173,1777.0,1,190626,234861,0.96,-0.17,10.71,-0.06,0.01,-0.03,26.47,4.587686,52.37552849149933,-723.4455249715587,10.754282867769474,0.06782329983125268,0.3614660090541308,-0.9439060340089276
7047172,1810.0,1,191017,235812,0.71,-0.05,10.81,-0.05,0.02,-0.03,26.47,4.627685,65.03259851039144,-655.8272623221893,10.833406666418464,0.061644140029689765,0.4470942241904983,-0.8552920003634785
7087169,1849.0,1,190919,235356,1.13,0.18,9.88,-0.02,-0.04,0.0,26.47,4.667682,97.74986384119084,-662.551410730003,9.946039412751189,0.044721359549995794,0.6684346315863431,-0.864104026728852
7127164,1861.0,1,190797,235581,0.95,-0.34,9.9,-0.06,-0.02,0.0,26.47,4.707677,93.79860840697283,-718.9409677628686,9.951286349010363,0.06324555320336758,0.6417034094413322,-0.9380027917721583
7167169,1857.0,1,190902,235468,0.66,-0.02,8.85,-0.05,0.01,0.01,26.47,4.747682,82.11505057943792,-751.3454994918555,8.87459858247121,0.05196152422706632,0.5626612455186331,-0.9804690745837628
7207163,1881.0,1,190778,236356,1.07,-0.62,9.52,-0.09,-0.0,0.01,26.47,4.787676,93.11380912514483,-690.8500148435047,9.599984374987285,0.09055385138137416,0.6370705726045229,-0.9011894731567849
7247169,1826.0,1,191658,237524,0.72,-1.06,11.24,-0.1,0.01,-0.055,26.47,4.827682,29.875858873035163,-505.8959511082089,11.312806901914309,0.11456439237389601,0.20925016860200685,-0.6588063508383519
7287172,1801.0,1,191726,238099,1.4,0.47,8.77,-0.01,-0.04,-0.055,26.47,4.867685,-3.747873741097726,-194.16568744638155,8.89346951419973,0.0687386354243376,-0.018222714590803747,-0.2502824552204646
7325169,1898.0,1,192275,238061,0.86,-0.27,12.11,-0.13,0.01,-0.055,26.47,4.905682,84.07138179324089,232.9362419283754,12.143500319100749,0.14150971698084905,0.5758963109645439,0.30943652093699037
7365172,1948.0,1,192318,239439,1.29,-0.21,9.87,0.0,-0.06,-0.01,26.47,4.945685,129.876411150643,735.0980344053589,9.956158897888281,0.0608276253029822,0.8857786851861393,0.9675217811981014
7405172,1929.0,1,193312,240337,1.39,0.22,9.3,-0.01,-0.04,-0.055,26.47,4.985685,102.46164663714451,1212.661046008549,9.405875823122482,0.0687386354243376,0.7003110097943758,1.5933702298260803
7445223,1942.0,1,193883,241265,0.57,-0.43,9.81,-0.05,-0.0,-0.055,26.47,5.025736,114.20406537499747,1517.257545153951,9.835949369532155,0.07433034373659253,0.7797513823612803,1.9925452953482403
7485189,1971.0,1,193828,239668,1.33,0.0,8.37,-0.03,-0.03,-0.055,26.47,5.065702,136.7758783163263,1524.6733116695193,8.475010324477486,0.06946221994724902,0.9324552902699078,2.0022636903168443
7525175,1942.0,1,193441,238901,0.78,-0.52,11.37,-0.11,0.01,0.065,26.47,5.105688,109.52471204283805,1216.0315579035166,11.408580104465235,0.12816005617976295,0.7480943975119306,1.5977873006403929
7565163,1920.0,1,192768,238142,0.81,-0.35,9.95,0.02,-0.04,0.065,26.47,5.145676,82.16281615269581,692.7011448971477,9.989049003784093,0.0788986691902975,0.5629843914581699,0.911960469118486
7605851,1899.0,1,192638,237734,0.64,-0.44,10.94,-0.01,0.01,0.065,26.53,5.186364,67.09023236115311,111.73661816161437,10.967533906945535,0.06652067347825036,0.4610146270785212,0.15060387547292226
7646172,1845.0,1,191702,237132,1.1,-0.69,8.91,-0.0,-0.01,0.065,26.53,5.226685,7.9537851343108565,-399.2708871329482,9.004121278614589,0.06576473218982953,0.06094190740625279,-0.5190737307391571
7686172,1776.0,1,192165,236995,0.41,-0.84,10.17,-0.09,0.02,-0.01,26.53,5.266685,-51.830799716631844,-782.0655912731711,10.212864436581933,0.09273618495495703,-0.34351562390343315,-1.0207278913595907
7726170,1763.0,1,191082,236007,1.46,-0.24,9.1,0.02,-0.06,0.01,26.53,5.306683,-67.37352326917924,-1030.276500383343,9.219501071099238,0.06403124237432849,-0.44866600026827147,-1.346009390606472
7766164,1757.0,1,191679,236375,0.42,-0.55,11.44,-0.135,0.02,-0.0,26.53,5.346677,-65.42272693638441,-1153.0101327745342,11.460911831089183,0.13647344063956182,-0.43546837966394025,-1.506852361188808
7806173,1774.0,1,190907,235630,1.23,0.32,8.73,0.05,-0.06,0.01,26.53,5.386686,-44.05033989075743,-1157.1822347139007,8.822029245020673,0.07874007874011811,-0.2908788851609422,-1.5123199193179537
7846161,1778.0,1,191630,237534,0.35,-0.94,11.12,-0.08,0.06,0.02,26.53,5.426674,-36.94703422384449,-1048.4820753117374,11.16514666271787,0.1019803902718557,-0.24282326210458494,-1.3698678774416782
7886162,1747.0,1,191691,237591,1.53,0.37,8.41,0.06,-0.08,-0.055,26.53,5.466675,-56.993568397502074,-828.3854671435146,8.556044646914835,0.11412712210513327,-0.3784430333785332,-1.0814302944975087
7926164,1730.0,1,192479,239048,0.81,-0.67,10.35,-0.06,0.05,-0.03,26.53,5.506677,-72.39093308225375,-485.1121490724067,10.40324468615441,0.08366600265340755,-0.48261002098238553,-0.6315690859232336
7966170,1697.0,1,192209,238293,1.84,0.43,8.89,-0.09,-0.11,-0.055,26.53,5.546683,-95.16015870720739,-6.4798523999247815,9.088597251501467,0.1523975065412817,-0.6366494746151689,-0.004319334460868661
8006173,1674.0,1,192977,240645,0.96,-0.18,10.52,-0.07,0.01,-0.02,26.53,5.586686,-110.55087397999013,572.6085319712828,10.565244909608106,0.07348469228349536,-0.7407714772993078,0.7545785662801153
8046170,1681.0,1,193488,240891,1.81,0.48,9.24,-0.01,-0.07,-0.055,26.53,5.626683,-100.93705733105182,1131.6537345833144,9.427836443214318,0.08958236433584459,-0.6757316253376656,1.4872097882692454
8086173,1683.0,1,194162,242326,0.79,-0.51,10.07,-0.01,0.02,-0.04,26.53,5.666686,-83.08782801832746,1500.1192329216474,10.113807393855195,0.045825756949558406,-0.5549771659464311,1.9700854610183542
8126169,1697.0,1,194451,240402,1.16,-0.02,9.11,-0.03,-0.02,-0.055,26.53,5.706682,-72.22095914316841,1567.6063603746527,9.183577734194882,0.06576473218982952,-0.48146010516443943,2.0585276414063043
8166193,1702.0,1,193512,239809,0.71,-0.58,11.03,-0.01,0.02,0.065,26.53,5.746706,-50.52787514580469,1377.4240054496786,11.06803505596183,0.0687386354243376,-0.33470101631331,1.809292820253301
8206162,1735.0,1,193664,239599,0.86,-1.24,10.12,-0.0,-0.01,0.02,26.53,5.786675,-16.91303358522232,1105.2819167128798,10.23189132076763,0.022360679774997897,-0.10728828330099746,1.4526494037740052
8246172,1725.0,1,192741,238850,1.57,0.43,8.42,0.06,-0.09,0.05,26.53,5.826685,-19.667171631010124,928.1066720732597,8.575908115179406,0.11916375287812984,-0.1259207096641263,1.2204604584435326
8286141,1710.0,1,193648,240187,-0.4,-1.78,10.34,-0.13,0.06,0.065,26.53,5.866654,-23.855699174584068,898.0929192151896,10.499714281826911,0.15724185193516388,-0.15425713642564504,1.1811273019650435
8326172,1725.0,1,193021,239591,1.29,0.34,8.69,0.05,-0.07,-0.02,26.53,5.906685,-12.583433013808632,934.4051791922241,8.791803000522703,0.08831760866327848,-0.07799746254783849,1.2287146800086473
8366162,1710.0,1,193982,240294,0.05,-0.89,11.94,-0.1,0.09,0.02,26.53,5.946675,-11.949114955867406,927.8507795928641,11.973228470216377,0.13601470508735444,-0.07370614370001652,1.2201251102109851
8406164,1735.0,1,192659,238511,1.17,-0.14,8.71,0.04,-0.06,0.06,26.53,5.986677,8.129279063085447,843.1155342718712,8.78934582321119,0.09380831519646858,0.06212916732231607,1.1090791947196934
8446162,1721.0,1,192925,238403,0.07,-0.07,11.67,-0.09,0.06,0.01,26.53,6.026675,2.5634120858286877,716.6348238651573,11.670419872481023,0.10862780491200215,0.024474697983237342,0.9433256617488878
8485164,1680.0,1,192127,238814,0.86,-0.68,10.04,-0.02,-0.04,0.065,26.53,6.065677,-34.8718464037585,573.2917049196878,10.099683163347253,0.0788986691902975,-0.22878410226415868,0.7554738674644942
8525174,1683.0,1,193254,239417,0.19,-0.54,10.7,-0.08,0.04,-0.055,26.53,6.105687,-35.65550107849773,380.7365806382677,10.715302142263651,0.105,-0.2340857203306648,0.5031295215271099
8565173,1695.0,1,192524,239287,1.27,-0.57,10.98,0.01,-0.05,0.01,26.53,6.145686,-13.069077606179574,108.27546347615487,11.067890494579354,0.05196152422706632,-0.08128296855936268,0.14606801687892343
8605850,1725.0,1,192156,237467,1.4,0.13,9.66,-0.04,-0.04,-0.02,26.55,6.186363,7.750928763570241,-186.28865608435547,9.761787746104707,0.060000000000000005,0.059569533789797076,-0.23995957062107232
8646172,1731.0,1,191398,237339,0.77,-0.72,9.73,-0.08,-0.01,0.065,26.55,6.226685,21.141959802590954,-373.31697957076705,9.786940277737472,0.10356157588603991,0.15016317710499846,-0.4850610195597544
8684172,1744.0,1,191356,237214,1.34,-0.31,8.45,-0.12,-0.07,-0.01,26.55,6.264685,30.085383164055756,-386.364524491967,8.561203186468592,0.1392838827718412,0.21066765235148652,-0.5021598851522218
8724192,1785.0,1,192232,238708,0.54,-0.14,10.29,-0.135,0.01,-0.03,26.55,6.304705,67.33255899205845,-335.693974552506,10.305110382717887,0.1386542462386205,0.4626540267858359,-0.43575590431568245
8764172,1827.0,1,192162,237367,0.57,-0.69,10.44,-0.06,-0.0,-0.02,26.55,6.344685,113.6113385183266,-459.9953825177386,10.478291845525204,0.06324555320336758,0.7757414382964722,-0.5986534517537863
8804192,1803.0,1,191314,235601,0.97,-0.33,10.43,-0.04,-0.01,0.05,26.55,6.384705,77.70340964301379,-940.705417228297,10.480205150663798,0.06480740698407861,0.5328154013663386,-1.228626088146917
8844172,1739.0,1,190502,233869,1.08,-0.48,9.59,-0.06,-0.01,0.065,26.55,6.424685,17.618786933829952,-1746.6460310295565,9.662551422890333,0.08902246907382427,0.1263280395954023,-2.284814843512472
8884172,1767.0,1,189538,232098,1.11,-0.64,8.89,-0.06,0.04,0.065,26.55,6.464685,38.572269792755044,-2642.969041623865,8.981859495672376,0.097082439194738,0.26808354346969293,-3.459450131465038
8924163,1790.0,1,188961,231120,0.9,-0.47,8.72,-0.06,0.0,0.065,26.55,6.504676,51.70396593411207,-3337.944012760483,8.77891223330089,0.08845903006477067,0.3569227219382617,-4.370217919072778
8964164,1781.0,1,188896,232144,0.34,-0.63,8.83,-0.07,0.1,0.065,26.55,6.544677,50.87243632059157,-3629.099112890085,8.858972852424824,0.13829316685939333,0.351297218047352,-4.751777971461513
9004163,1857.0,1,189613,232528,0.71,-0.88,9.27,-0.08,0.04,-0.055,26.55,6.584676,100.12501401404533,-3445.9106980440733,9.33870440692926,0.105,0.6845031110747869,-4.51170873985767
9044172,1877.0,1,189718,234763,0.74,-0.4,9.48,-0.04,0.06,-0.03,26.55,6.624685,138.68138560790584,-2809.1528453326205,9.517247501247407,0.07810249675906654,0.9453465192876621,-3.677234744618119
9084170,1885.0,1,191006,235712,0.5,-0.68,8.47,-0.06,-0.04,-0.055,26.55,6.664683,115.60612238594936,-1798.9778948700944,8.511950422787953,0.09069178573608527,0.7892366454741527,-2.3533959835979714
9124192,1801.0,1,191605,239092,0.87,-0.91,9.36,-0.135,0.01,-0.03,26.55,6.704705,44.541550982011614,-574.0504680409766,9.444289279771136,0.1386542462386205,0.308467209920159,-0.7481231481048953
9164170,1781.0,1,193780,241297,0.58,-0.58,8.51,-0.12,-0.02,-0.055,26.55,6.744683,5.410652229453567,616.4306708056929,8.549438578058794,0.13351029922818689,0.043736983109203154,0.812007673934424
9204192,1778.0,1,195001,244780,0.14,-0.56,12.149999999999999,-0.06,0.11,-0.055,26.55,6.784705,-1.8238129708623987,1504.1263581692683,12.163704205545281,0.13683932183404007,-0.0052059666923373665,1.975336816459938
9244172,1727.0,1,195001,243933,1.19,0.18,7.91,-0.135,-0.11,-0.055,26.55,6.824685,-54.19299527307032,1935.916766593693,8.001037432733332,0.18261982367749677,-0.35949646220163123,2.54120006524397
9284189,1679.0,1,195001,246602,-0.41,-0.62,12.149999999999999,-0.03,0.11,-0.03,26.55,6.864702,-122.2629728819109,1957.0877067636452,12.172715391398913,0.11789826122551596,-0.820006728662788,2.568944676404036
9324193,1649.0,1,195001,247920,1.36,-1.02,9.31,-0.1,-0.06,-0.055,26.55,6.904706,-141.157134124094,1760.8924981222124,9.463936812975877,0.12893796958227627,-0.9478304114939656,2.311829983739125
9364192,1706.0,1,195001,250828,0.24,-0.84,12.149999999999999,-0.03,0.05,-0.055,26.55,6.944705,-112.28066774161837,1546.7739238276333,12.181366918371682,0.08015609770940699,-0.7524739607446206,2.0312266407481414
9404172,1685.0,1,195001,249166,0.91,-0.9,9.96,-0.02,-0.05,-0.055,26.55,6.984685,-115.59682315276072,1407.2119956779156,10.041897231101302,0.07697402159170326,-0.7749085738539017,1.8483301138022787
9444193,1710.0,1,195001,246786,1.03,-0.95,10.7,-0.09,-0.08,0.065,26.55,7.024706,-122.91355079134723,1322.0114162213072,10.791357653233442,0.13683932183404007,-0.8244080494352126,1.7366743758586765
9484170,1749.0,1,195001,242754,0.58,-1.36,8.19,-0.07,-0.08,0.065,26.55,7.064683,-59.941511481262914,1237.5595151457765,8.322385475330977,0.12459935794377112,-0.39838659884899863,1.6259997842600262
9525176,1806.0,1,195001,243751,0.64,-1.19,9.25,-0.01,0.11,0.065,26.55,7.105689,-39.221725126791824,1144.7098818284514,9.348165595452404,0.12816005617976295,-0.2582121097380092,1.5043199272454544
9565164,1751.0,1,195001,245789,0.04,-0.54,10.89,-0.07,-0.07,-0.055,26.55,7.145677,-65.15730220123012,1084.8063599909651,10.903453581320004,0.11324751652906125,-0.4336727155576044,1.425816095712341
9605193,1787.0,1,195001,245273,1.46,0.35,8.16,0.065,-0.13,-0.055,26.55,7.185706,-63.44769826756628,1083.836609129803,8.296969326205804,0.15540270267920053,-0.4221068213015685,1.4245452328999626
9645850,1731.0,1,195001,245037,0.59,-0.91,9.25,-0.135,-0.13,-0.055,26.17,7.226363,-94.5771528344453,1082.414307625443,9.313361369559328,0.1953202498462461,-0.6327052954153917,1.4226813004588867
9684193,1726.0,1,195001,243417,0.28,0.31,10.59,-0.13,-0.13,-0.02,26.17,7.264706,-119.53179709959156,941.884545485943,10.598235702228932,0.1849324200890693,-0.8015296477021386,1.238516422769106
9724173,1742.0,1,195001,241056,0.64,0.01,9.45,-0.135,-0.1,0.065,26.17,7.304686,-93.40548775617874,546.9834519607007,9.47165244294785,0.18013883534651823,-0.6247786908189229,0.7209967850681394
9764164,1743.0,1,194318,240612,0.08,-0.71,12.149999999999999,-0.135,-0.01,0.065,26.17,7.344677,-91.02813095522973,-68.1894322949533,12.170990099412618,0.15016657417681206,-0.6086952829446107,-0.08519001310312126
9804172,1709.0,1,193538,238383,0.78,0.41,8.6,-0.0,-0.02,0.065,26.17,7.384685,-129.59971057193377,-688.9461614439372,8.64502747248382,0.06800735254367722,-0.8696415772006145,-0.8986944648173943
9844164,1667.0,1,192907,238829,-0.05,-1.23,11.68,-0.135,-0.0,0.065,26.17,7.424677,-155.21929849316524,-1037.9562716129585,11.744692418279842,0.14983324063771697,-1.0429644380957395,-1.3560737649258683
9884192,1706.0,1,193349,239707,0.28,-0.67,9.42,0.01,0.05,-0.0,26.17,7.464705,-122.72383281551099,-964.5861020407449,9.447946866912408,0.050990195135927854,-0.8231245603160172,-1.2599218317009901
9924163,1757.0,1,193688,240885,0.5,-0.75,9.91,-0.02,0.03,-0.0,26.17,7.504676,-56.735718653286455,-551.6033417293135,9.950909506170781,0.03605551275463989,-0.3766986159630021,-0.7187060893357299
9964170,1799.0,1,195001,241706,-0.41,-1.52,10.4,-0.13,0.06,-0.05,26.17,7.544683,-5.0312406399371685,-49.92527004370995,10.51848373103272,0.15165750888103102,-0.02690500968348237,-0.061254747321004735
10004193,1894.0,1,194068,241858,0.95,0.47,8.55,0.065,-0.01,-0.055,26.17,7.584706,87.16120245281164,298.6680666394528,8.615445432477651,0.08573214099741124,0.596799713393037,0.39557836928243123
10044163,1983.0,1,195001,242360,0.34,-0.89,10.88,-0.135,0.0,-0.05,26.17,7.624676,213.23669204001442,402.9096571707343,10.921634493060095,0.1439618004888797,1.4497316423214688,0.5321874368429722
10084172,2087.25,1,194367,242122,0.72,-0.67,9.25,0.06,-0.04,-0.01,26.17,7.664685,294.9709726181727,330.1927183706202,9.302139538837288,0.07280109889280519,2.0026843044238607,0.43689156544738456
10124170,2087.25,1,194666,239780,1.03,0.22,9.51,-0.13,-0.11,-0.05,26.17,7.704683,347.5280811707897,206.9038427379595,9.56814506578992,0.17748239349298847,2.3582461675858406,0.2753209461300297
10164173,2087.25,1,194105,241759,0.31,-0.86,10.16,-0.11,-0.01,0.065,26.17,7.744686,332.80116927404293,111.73832799820298,10.201044064212251,0.12816005617976295,2.2586149592329816,0.1506061162213688
10204173,2087.25,1,194557,239415,0.66,0.28,8.8,-0.07,-0.07,-0.055,26.17,7.784686,357.5889807830565,42.64365885019359,8.829156245078009,0.11324751652906125,2.4263106465828517,0.06005724529943934
10244173,2087.25,1,194129,241246,0.04,-1.0,12.149999999999999,-0.06,0.05,0.065,26.17,7.824686,401.7468434634563,-38.56564886980626,12.191148428265484,0.10161200716450788,2.725049530061859,-0.04636791329920153
10284161,2087.25,1,194045,238655,0.4,-0.87,7.88,-0.02,-0.07,-0.02,26.17,7.864674,350.4061132664091,-143.98551043463698,7.937965734367968,0.07549834435270751,2.377716767897384,-0.1845211102845371
10324194,2087.25,1,193832,239717,-0.38,-0.91,12.149999999999999,-0.04,0.06,0.065,26.17,7.904707,481.08358366778094,-242.54287992805598,12.18995488096654,0.097082439194738,3.261782237417827,-0.3136809809186613
10364173,2087.25,1,193365,239036,0.42,-1.41,8.73,0.06,-0.03,0.04,26.17,7.944686,358.3033966380322,-295.3427194403985,8.85310115157395,0.07810249675906654,2.4311438468760778,-0.38287540520138386
10404164,1349.25,1,194013,240393,0.22,-0.07,10.51,0.01,0.05,0.02,26.17,7.984677,-207.4364355895417,-294.7245082593755,10.512535374494584,0.05477225575051661,-1.3962263101103416,-0.3820652367017991
10444141,1349.25,1,193888,239023,0.38,-0.31,9.95,0.01,-0.01,0.0,26.17,8.024654,-327.4385991382499,-261.67437702727267,9.9620780964616,0.01414213562373095,-2.2080706834005976,-0.3387528928728146
10484164,1349.25,1,193517,240821,0.65,-1.05,9.78,-0.03,0.05,0.065,26.17,8.064677,-199.92724560286675,-213.0039035348042,9.857656922413154,0.0873212459828649,-1.3454247790514857,-0.2749700211068575
10523170,1349.25,1,193955,238799,0.74,-0.49,8.06,-0.04,0.0,-0.01,26.17,8.103683,-246.99865365257764,-148.5380237281365,8.108717531151274,0.04123105625617661,-1.6638745189388533,-0.190487199183529
10563172,1349.25,1,193207,240690,0.41,-1.64,10.64,-0.07,0.1,0.065,26.17,8.143685,-202.06233293589324,-79.29579156463488,10.773453485303587,0.13829316685939333,-1.359869173940227,-0.09974494627414066
10603160,1349.25,1,194076,238956,0.36,-0.28,9.04,-0.08,0.11,-0.055,26.17,8.183673,-180.7022656769839,-57.70672129100048,9.051497113737593,0.1467140075112121,-1.2153630258472525,-0.07145237375535168
10643172,1349.25,1,193551,239579,-0.33,-1.18,10.2,-0.03,0.08,0.03,26.17,8.223685,-182.54467618726912,-158.01219545966504,10.273329547911914,0.09055385138137417,-1.227827389503986,-0.20290314333361523
10683859,1349.25,1,193363,239060,0.7,0.2,10.41,0.02,-0.03,-0.01,25.73,8.264372,-146.57221103664475,-409.370598357655,10.435425242892595,0.03741657386773942,-0.984464748679094,-0.5323094471744689
10724163,1349.25,1,193357,238003,0.51,-0.37,10.76,-0.03,0.06,-0.02,25.73,8.304676,-145.20380702035894,-744.4410721001806,10.778432167991781,0.06999999999999999,-0.975207156414447,-0.9714207918090182
10764170,1349.25,1,191733,236742,0.62,-0.33,9.33,0.03,-0.12,0.01,25.73,8.344683,-130.0715365370233,-1020.8993149842549,9.35639887991101,0.12409673645990855,-0.8728335967742841,-1.3337205474759817
10804164,1349.25,1,193038,237818,0.45,-1.54,9.97,-0.135,-0.0,-0.055,25.73,8.384677,-113.99902135785008,-1103.6570909582429,10.098267178085555,0.14577379737113252,-0.7640990487714246,-1.4421749806016735
10844193,1349.25,1,192651,237649,0.37,-0.52,9.4,-0.04,-0.1,-0.0,25.73,8.424706,-111.41933575717061,-938.5207630834495,9.421639984631128,0.1077032961426901,-0.7466468364292742,-1.225763089183175
10884192,1349.25,1,193294,237636,0.13,-0.01,11.55,-0.135,0.09,-0.01,25.73,8.464705,-104.38139010375306,-567.3742535142082,11.550735907291795,0.16255768207008858,-0.6990333900606137,-0.7393739393036128
10924188,1349.25,1,193286,239679,-0.24,-0.91,10.21,0.065,0.11,0.01,25.73,8.504701,-87.31991422504964,-98.68028902131614,10.253282401260584,0.12816005617976295,-0.5836082778581104,-0.12514841632088983
10964164,1362.0,1,193754,239077,0.36,0.9825000000000002,10.3,-0.07,-0.13,0.06,25.73,8.544677,-99.05508409521616,328.7474481971003,10.353014355732345,0.15937377450509227,-0.6629996100388258,0.43499753246331985
11004163,1349.25,1,194304,241785,-0.29,-2.2775000000000003,12.149999999999999,-0.135,-0.13,0.065,25.73,8.584676,-71.47033335014982,582.3732214743494,12.36501541648857,0.19836834424877373,-0.4763819356674258,0.7673752352606392
11044196,1498.0,1,194137,239600,0.52,0.77,7.68,-0.07,-0.13,0.0,25.73,8.624709,28.100838995798377,588.2933690130914,7.736000258531536,0.147648230602334,0.19724171927743997,0.775133614914734
11084162,1519.0,1,194316,240203,-0.23,-1.85,12.149999999999999,-0.06,0.05,0.065,25.73,8.664675,91.07774776468884,385.62075293465494,12.292188576490355,0.10161200716450788,0.6232961129591436,0.5095302510230231
11124176,1637.0,1,193373,238924,0.37,-0.58,9.5,-0.13,-0.1,0.065,25.73,8.704689,164.91789213377444,132.39555819871873,9.524877951973977,0.1764227876437735,1.1228429874173718,0.1776775081839566
11164173,1685.0,1,193727,239773,-0.09,-1.16,11.06,-0.02,-0.03,0.065,25.73,8.744686,227.06800117021857,29.2301099594895,11.121029628591051,0.07433034373659253,1.5433038760257105,0.04247872987869726
11204193,1689.0,1,193735,240663,0.13,-0.27,9.48,-0.1,0.01,0.05,25.73,8.784706,213.39095017382263,192.2237273137601,9.484735104366385,0.11224972160321825,1.450775236822293,0.2560825896394964
11244162,1685.0,1,194367,240757,0.09,-0.75,9.89,-0.04,-0.03,-0.055,25.73,8.824675,187.82735597585528,556.3708270646075,9.918805371616081,0.07433034373659253,1.2778311873404566,0.73329898185207
11284193,1613.0,1,194215,240871,0.28,-0.7,8.71,-0.135,0.09,0.03,25.73,8.864706,119.24828228599422,879.6949145887625,8.742568272538684,0.165,0.8138767597357147,1.1570166351555564
11324162,1501.0,1,194436,240398,0.17,-0.88,9.2,-0.04,0.03,-0.055,25.73,8.904675,-33.25003250961989,861.9144897629282,9.243554511117463,0.07433034373659253,-0.2178121293801368,1.1337153094187946
11364173,1349.25,1,194099,238796,0.11,-0.98,9.75,-0.1,0.07,0.03,25.73,8.944686,-181.18912447248707,327.47258343944003,9.79974489463884,0.12569805089976538,-1.2186567462438493,0.43332681653388955
11404163,1349.25,1,192927,235061,0.51,-2.2775000000000003,9.06,0.01,-0.05,-0.055,25.73,8.984676,-220.3183920073307,-625.0482931915911,9.355784641065656,0.075,-1.4833759374627467,-0.8149560245598101
11444174,1349.25,1,192089,235472,0.65,-2.2775000000000003,10.93,0.04,-0.07,-0.05,25.73,9.024687,-228.34122237743364,-1612.6527156551322,11.183666941124454,0.09486832980505139,-1.5376523729970657,-2.109216008351255
11484173,1349.25,1,191501,232768,0.2,-1.67,7.5900000000000025,-0.02,-0.06,-0.055,25.73,9.064686,-262.1306963962782,-2141.6461752057103,7.774123744834529,0.08381527307120105,-1.7662465378639503,-2.802464287531563
11522194,1349.25,1,191277,235830,0.47,-1.08,10.86,-0.02,-0.01,0.065,25.73,9.102707,-275.2462659826701,-1892.1887539023437,10.92368527558351,0.0687386354243376,-1.8549766161919727,-2.4755492285169605
11563173,1349.25,1,192377,236213,0.18,-0.98,8.41,-0.03,0.02,-0.0,25.73,9.143686,-314.41801659756044,-938.2762692529019,8.468819280159424,0.03605551275463989,-2.119983215974816,-1.2254426789319002
11603173,1377.0,1,193863,240659,0.22,-0.75,11.35,-0.05,0.11,-0.0,25.73,9.183686,-292.32493065262776,266.3029135642109,11.376880064411331,0.12083045973594572,-1.9705180148267434,0.35316369237152806
11643174,1584.0,1,194772,240857,0.51,-0.7,10.79,0.02,0.01,-0.055,25.73,9.223687,-135.55990581992413,1160.1216195055872,10.824703229188318,0.05937171043518959,-0.9099637750068922,1.524517077949226
11683851,1753.0,1,195001,241633,0.29,-0.98,11.06,-0.03,0.02,0.05,25.53,9.264364,34.651276985324486,1431.209960831898,11.107119338514375,0.061644140029689765,0.24155705549406567,1.879779553765036
11722163,1917.0,1,194361,239163,0.18,-0.96,9.43,0.03,-0.03,-0.03,25.53,9.302676,147.47532180158245,1199.8797353976536,9.480448301636374,0.05196152422706632,1.0048396768007104,1.5766202654802073
11762172,1968.0,1,194042,240496,0.55,-0.86,10.95,0.03,-0.04,0.02,25.53,9.342685,193.88484851285395,886.9479724580517,10.997481529877646,0.05385164807134504,1.3188116254174251,1.1665217997202597
11802164,2042.0,1,193539,238328,0.97,-0.09,7.97,-0.02,-0.06,-0.055,25.53,9.382677,229.76706566574578,869.8316581373948,8.029315039279503,0.08381527307120105,1.5615637161739415,1.1440907937513283
11842194,2087.25,1,194198,241496,0.4,-1.4,11.34,-0.01,0.01,-0.0,25.53,9.422707,257.2529392355566,1198.1060696429706,11.433092320103079,0.01414213562373095,1.7475124619526878,1.5742958686278916
11882173,2087.25,1,194857,241349,0.65,0.6,8.25,-0.03,-0.03,-0.055,25.53,9.462686,233.96089644416267,1589.525839899982,8.297288713790788,0.06946221994724902,1.5899360206333297,2.0872532167175235
11922173,2087.25,1,195001,242335,-0.01,-0.88,12.149999999999999,-0.02,-0.0,-0.01,25.53,9.502686,209.79172183105234,1691.547280557892,12.181830732693669,0.022360679774997897,1.4264255651842577,2.220952768004376
11962206,2087.25,1,193858,238548,0.89,0.79,9.17,-0.01,-0.06,-0.055,25.53,9.542719,191.9096952264675,1372.2036074470534,9.246896776757055,0.08200609733428363,1.3054492239863231,1.8024514654754349
12002172,2087.25,1,192992,239121,0.06,-1.65,12.1,-0.04,-0.0,0.065,25.53,9.582685,172.15673071234224,796.5642940106338,12.21212921647982,0.07632168761236874,1.1718155242065218,1.048073587519504
12042173,2087.25,1,192591,236748,1.03,0.02,8.85,0.04,-0.09,0.01,25.53,9.622686,153.9072712694801,253.50279190685842,8.909758694824456,0.09899494936611665,1.0483534088067212,0.3363890760656912
12082142,2087.25,1,192446,237230,0.2,-1.62,10.72,-0.03,-0.01,0.065,25.53,9.662655,139.45542182041018,-84.39941240043795,10.843560300934376,0.07228416147400481,0.9505830660736664,-0.10643326405601855
12122173,2087.25,1,191803,234309,0.95,0.32,7.69,0.02,-0.09,-0.055,25.53,9.702686,126.57679252320098,-257.7330785579444,7.755062862414463,0.10735455276791944,0.8634559475164536,-0.33358780371666674
12162164,2087.25,1,191850,234882,0.2,-1.16,10.55,-0.06,0.02,0.065,25.53,9.742677,109.64031909942773,-421.42782146366505,10.615465133473899,0.09069178573608527,0.7488765078975228,-0.5481104916279029
12202164,2087.25,1,191080,232582,0.85,-0.7,8.2,-0.04,-0.06,0.065,25.53,9.782677,108.67568267500813,-669.532099946209,8.273602601043876,0.097082439194738,0.742350503446628,-0.8732522509634933
12242173,2087.25,1,190772,232049,0.19,-0.34,10.89,-0.03,0.01,0.065,25.53,9.822686,90.22736298757376,-945.824076075723,10.896962879628434,0.07228416147400481,0.6175430492141524,-1.235334113309844
12282164,2087.25,1,190241,232422,0.86,-1.41,9.34,-0.04,-0.03,0.065,25.53,9.862677,89.59020800088747,-1108.9769634794086,9.484898523442409,0.08200609733428363,0.6132325378403709,-1.4491466971780749
12322173,2087.25,1,190318,231463,0.74,-0.52,9.25,-0.0,-0.04,0.01,25.53,9.902686,93.02805984691638,-1084.8711590220162,9.294111038716936,0.04123105625617661,0.6364904574883883,-1.417555933329044
12362174,2087.25,1,190111,232479,0.23,-2.2775000000000003,10.46,-0.04,-0.02,0.065,25.53,9.942687,61.2844802786254,-966.1405988974283,10.70754436133701,0.0788986691902975,0.4217372755580615,-1.2619590067386597
12402173,2005.0,1,189752,230712,0.88,-0.78,7.74,-0.01,-0.04,0.065,25.53,9.982686,35.87104652208361,-958.5752369558872,7.828818557100426,0.07697402159170326,0.24980909867266066,-1.2520445662996318
12442170,1863.0,1,190021,232335,0.36,-1.31,11.4,-0.07,0.0,0.065,25.53,10.022683,-190.66984503325014,-1195.8654351117389,11.480666356967264,0.09552486587271401,-1.2827961701873904,-1.5630144253176528
12482164,1349.25,1,189444,230545,0.71,-0.41,8.14,-0.0,-0.03,0.04,25.53,10.062677,-592.4336850138277,-1566.1934693301184,8.181185733131842,0.05,-4.000828105897684,-2.048330959613237
12522170,1349.25,1,188607,230756,0.04,-0.56,11.07,-0.08,-0.11,0.065,25.53,10.102683,-707.1427598641891,-1720.211399866592,11.084227532850452,0.15074813431681336,-4.776863422500933,-2.2501721419182776
12563173,1588.0,1,188468,231090,0.77,-0.54,9.14,-0.03,0.02,0.065,25.53,10.143686,-347.9599657856567,-1306.2823124224954,9.188258812201582,0.07433034373659253,-2.34690281402432,-1.707716233640911
12603164,2087.25,1,189594,233885,0.58,-0.41,11.27,-0.09,0.11,-0.01,25.53,10.183677,67.71715209136816,-274.18646259649563,11.292360249301295,0.14247806848775008,0.46525589440594856,-0.3551500366053474
12643173,2087.25,1,191236,236453,0.29,-1.04,10.09,0.01,0.06,-0.055,25.53,10.223686,132.9049942160222,1010.9838532095533,10.147600701643714,0.08200609733428363,0.9062678001150736,1.3290713725649705
12683163,2087.25,1,192364,236993,0.61,-0.59,10.33,-0.02,0.02,-0.055,25.53,10.263676,129.67156905830774,1968.6639958607377,10.364801011114492,0.06184658438426491,0.8843928776710281,2.5841154547018834
12723859,2087.25,1,191529,234116,0.76,-0.4,9.33,-0.02,-0.04,-0.055,26.05,10.304372,116.1823935995431,2174.765817106599,9.369445020917729,0.07088723439378912,0.7931352630357881,2.85421280720225
12762214,1852.0,1,190853,233111,0.41,-0.96,9.93,-0.04,-0.01,0.0,26.05,10.342727,-51.726314240184976,1620.6554927840757,9.984718323518194,0.04123105625617661,-0.3428087537634668,2.1280487651383164
12802172,1904.0,1,189978,231215,0.99,-0.1,9.0,-0.04,-0.09,0.02,26.05,10.382685,-54.36804625156868,682.1186042447152,9.054838485583273,0.1004987562112089,-0.36068072544931146,0.8980920025728177
12842170,1924.0,1,189166,230350,0.01,-1.0,11.77,-0.1,0.02,0.065,26.05,10.422683,48.78984086187541,-144.42905870678854,11.812408729806126,0.12093386622447826,0.3372079436959584,-0.18510238226597844
12882164,2007.0,1,188390,229274,0.93,-0.39,8.05,-0.04,-0.03,0.065,26.05,10.462677,90.13488593800682,-534.8114339634577,8.112921791808423,0.08200609733428363,0.6169174190577517,-0.6967002195982781
12922173,1978.0,1,188363,230866,0.36,-0.92,11.92,-0.09,0.03,0.065,26.05,10.502686,118.7031066502575,-477.8907722065962,11.960869533608331,0.115,0.8101885114638563,-0.6221054394543551
12962164,1931.0,1,188450,231037,1.09,-0.56,9.17,0.01,-0.07,-0.03,26.05,10.542677,62.89346773853547,-207.2949112774517,9.25151879423049,0.07681145747868609,0.4326224744360998,-0.2674883613872349
13002173,1849.0,1,189231,231488,0.14,-1.76,10.62,-0.07,0.05,-0.04,26.05,10.582686,11.869277714708993,1.1259515771763595,10.76576053978538,0.09486832980505139,0.08743118498303352,0.005648105445453986
13042172,1825.0,1,188303,230026,0.96,-0.07,9.9,0.04,-0.1,0.04,26.05,10.622685,-0.8576316592035164,15.621569113992642,9.946682864151244,0.11489125293076059,0.0013304893035587717,0.024644676634805282
13082159,1796.0,1,188267,229483,0.57,-1.14,9.89,-0.05,-0.0,0.02,26.05,10.662672,-9.45309559659431,-107.18472135290563,9.971790210388505,0.05385164807134505,-0.05681995421371682,-0.13629351267858136
13122172,1789.0,1,187733,228690,0.93,-0.3,9.77,0.01,-0.05,0.065,26.05,10.702685,1.1076113986161698,-226.4040688938843,9.818747374283543,0.08261355820929153,0.014625845582623326,-0.2925309973499402
13162160,1744.0,1,188229,230091,0.04,-1.13,10.76,-0.04,0.05,0.01,26.05,10.742673,-27.514994932833496,-255.2914055887121,10.819246739029477,0.06480740698407861,-0.17901317901427619,-0.3303879804415748
13202164,1723.0,1,188226,229478,0.48,-0.73,9.37,0.03,-0.06,-0.01,26.05,10.782677,-25.914577788485463,-211.55097958277278,9.410642911087423,0.06782329983125268,-0.168185960444764,-0.2730659578120459
13242172,1754.0,1,187895,228853,0.54,-1.42,11.29,-0.01,-0.03,0.065,26.05,10.822685,14.570115577610572,-162.5380013296653,11.391755790921783,0.07228416147400481,0.10570302240099756,-0.20883423203544413
13282172,1701.0,1,187733,228166,0.65,-0.97,8.8,0.03,-0.04,0.065,26.05,10.862685,-8.31712859815076,-147.89148440284376,8.877127913914501,0.08200609733428363,-0.049134855973338096,-0.18963990652501034
13322160,1674.0,1,187733,228726,0.63,-1.56,9.78,-0.0,-0.04,0.03,26.05,10.902673,-34.24007726625191,-156.92861548310992,9.923653561063082,0.05,-0.2245100274947069,-0.20148310695974536
13362173,1637.0,1,187733,228547,1.23,-1.49,9.59,0.01,-0.05,0.0,26.05,10.942686,-35.005079673428895,-158.9127412888393,9.78269390301056,0.050990195135927854,-0.22968545834906853,-0.20408331264407978
13402163,1628.0,1,187773,228524,0.76,-1.3,8.6,-0.01,-0.06,-0.055,26.05,10.982676,-48.48179980266442,-133.22791567907274,8.730841883804791,0.08200609733428363,-0.32085880959357754,-0.1704232345589092
13442193,1600.0,1,187953,228392,0.73,-1.06,9.62,-0.05,-0.01,-0.03,26.05,11.022706,-39.5264363247578,-69.03761002495959,9.705714811388184,0.05916079783099616,-0.2602735565005653,-0.0863015537869427
13482193,1606.0,1,187733,227897,0.91,-0.26,9.98,-0.03,-0.02,-0.01,26.05,11.062706,-36.652470783874506,45.62165898599319,10.024774311674054,0.03741657386773942,-0.2408304674395155,0.06395992770934238
13522193,1581.0,1,187956,229377,0.46,-1.41,9.98,-0.06,0.04,0.03,26.05,11.102706,-33.3942617940813,213.26981440287437,10.089603560100864,0.07810249675906654,-0.21878787622995213,0.28366358028237293
13562163,1614.0,1,187733,229841,1.12,-0.41,9.03,0.05,-0.05,0.0,26.05,11.142676,7.721576167727869,400.1150335213983,9.108424671698174,0.07071067811865477,0.05937095620526527,0.5285250701333635
13602164,1600.0,1,188740,231424,0.67,-1.86,10.5,-0.09,0.06,-0.02,26.05,11.182677,4.124039229874008,533.2259432156717,10.684498116430177,0.10999999999999999,0.03503272734062448,0.702967508730012
13642173,1563.0,1,188104,229981,0.91,-1.02,7.89,0.04,-0.08,-0.04,26.05,11.222686,-8.809103657007702,543.8353147866326,8.007533952472508,0.09797958971132713,-0.05246318915934798,0.7168711373136275
13682173,1600.0,1,188221,228844,0.18,-1.42,11.22,-0.11,0.06,-0.0,26.05,11.262686,21.79390210495857,423.6002415874274,11.310932764365635,0.12529964086141668,0.15457372833370372,0.5593025396540607
13722172,1555.0,1,187733,227223,0.51,-0.71,8.86,-0.01,-0.02,0.065,26.05,11.302685,8.811750650978052,237.4724091667702,8.903021958863182,0.0687386354243376,0.06674625673284314,0.31538118825813827
13762859,1535.0,1,187733,226265,0.78,0.07,10.71,-0.06,-0.01,0.03,26.31,11.343372,-22.04072194787862,77.68237040795114,10.738593948930186,0.06782329983125268,-0.14197836573037592,0.10597563248091284
13801163,1527.0,1,187733,227137,0.16,-1.41,10.01,-0.06,0.05,0.065,26.31,11.381676,-4.017321467112673,0.7722626763305047,10.110084074823511,0.10161200716450788,-0.020045595227220773,0.005184594569374582
13841164,1574.0,1,187733,225597,0.41,-0.3,9.52,-0.03,0.02,-0.01,26.31,11.421677,38.83458297835185,0.6183060486928084,9.533546034923207,0.03741657386773942,0.26985815717222145,0.0049828337247907716
13881173,1588.0,1,187733,224876,0.75,-0.41,10.74,-0.03,0.01,0.065,26.31,11.461686,66.66659081233854,30.90822760646118,10.773959346498389,0.07228416147400481,0.4581485870211894,0.04467791051131526
13921164,1614.0,1,187733,222992,0.67,-1.22,8.66,-0.135,0.04,0.065,26.31,11.501677,94.92071724712085,47.84650619536466,8.771140176738712,0.15508062419270824,0.64929475380675,0.06687559986273015
13961164,1648.0,1,187733,222017,0.76,-0.49,10.04,-0.02,-0.01,0.065,26.31,11.541677,135.98501947655447,36.442840787057534,10.080639860643767,0.0687386354243376,0.9271049342417432,0.051931045676042606
14001172,1648.0,1,187733,222344,0.58,-1.54,9.39,-0.13,0.03,0.065,26.31,11.581685,136.10042950996882,7.500602337007664,9.533105475132436,0.1484082207965583,0.9278857117167314,0.014002113590248381
14041164,1635.0,1,187733,219953,0.27,-0.1,9.7,-0.08,0.04,-0.03,26.31,11.621677,131.64825438310015,-21.79897462911993,9.704272255043136,0.09433981132056604,0.8977656437215901,-0.02439511220860269
14081173,1666.0,1,187733,220511,-0.05,-1.49,12.149999999999999,-0.04,-0.01,0.065,26.31,11.661686,155.0315698281817,-43.54204275259095,12.241123314467508,0.07697402159170326,1.0559595671607724,-0.05288949959385032
14121193,1663.0,1,187733,219548,0.51,-0.87,8.1,0.01,-0.03,-0.05,26.31,11.701706,163.58337830186008,-60.84012833429879,8.162536370516213,0.05916079783099616,1.1138146706480834,-0.07555871760804032
14161172,1674.0,1,187733,221429,0.08,-2.2775000000000003,12.149999999999999,-0.02,-0.03,0.065,26.31,11.741685,161.17309306761592,-79.59676385429366,12.361873088250016,0.07433034373659253,1.0975084937627686,-0.1001393717970274
14201180,1585.0,1,187733,220546,1.08,-0.84,7.5900000000000025,0.04,-0.13,0.06,26.31,11.781693,83.14113453324505,-100.798056104117,7.712334276987742,0.14866068747318506,0.5696029577327102,-0.12792375949262524
14241164,1449.0,1,187733,223139,0.18,-1.38,11.86,-0.06,0.01,0.065,26.31,11.821677,-68.66328830448002,-120.56065307744366,11.941373455344237,0.08902246907382427,-0.4573915803395877,-0.1538227306359211
14281164,1349.25,1,187733,222697,0.58,-1.28,8.44,0.03,-0.09,-0.055,26.31,11.861677,-160.03713268551132,-136.75446096428666,8.556190741211886,0.10965856099730655,-1.0755582802802095,-0.17504478782443164
14321173,1349.25,1,187733,224729,0.49,-0.99,10.83,-0.08,0.0,0.01,26.31,11.901686,-176.70128624674186,-154.49453426227205,10.886188497357558,0.0806225774829855,-1.1882954085473891,-0.19829323270465618
14361163,1349.25,1,187733,222862,0.51,-1.08,8.66,-0.02,-0.05,-0.0,26.31,11.941676,-173.17781696845606,-183.1612887950367,8.741973461410186,0.05385164807134505,-1.1644582657539067,-0.2358611418928099
14401193,1349.25,1,187733,224693,0.42,-1.01,10.81,-0.01,-0.01,0.065,26.31,11.981706,-185.27243202621727,-225.24220516760903,10.865201332695129,0.06652067347825036,-1.2462813337002574,-0.2910083697742294
14441173,1349.25,1,187733,224525,0.88,-0.57,8.09,-0.02,-0.07,0.0,26.31,12.021686,-195.15611623263152,-267.01393623004526,8.157658977917622,0.07280109889280519,-1.3131469065621857,-0.34575040893293435
14481173,1349.25,1,187733,226804,-0.16,-1.17,10.46,-0.01,0.05,0.06,26.31,12.061686,-191.12728630476443,-284.0580770402286,10.526447643911027,0.07874007874011811,-1.2858908737444548,-0.3680868311957067
14521176,1361.0,1,187733,225380,0.65,-0.92,8.14,0.01,-0.04,-0.055,26.31,12.101689,-213.2633272391962,-264.3897044810794,8.217572634300229,0.0687386354243376,-1.43564667604086,-0.34231134156585097
14561173,1349.25,1,187733,225608,0.21,-1.24,10.93,0.01,0.02,0.065,26.31,12.141686,-197.89769429784155,-232.4519250026601,11.002117977916797,0.0687386354243376,-1.3316943615443062,-0.30045673965250275
14601142,1456.0,1,187733,225409,1.05,-0.55,8.4,0.05,-0.05,0.03,26.31,12.181655,-147.4755365189358,-244.919871867557,8.483218728760917,0.07681145747868609,-0.9905759694134604,-0.3167960394168978
14641164,1455.0,1,187733,227244,0.7,-0.99,8.77,-0.0,0.04,0.04,26.31,12.221677,-108.50829755639201,-342.96334467637763,8.853417419279404,0.0565685424949238,-0.7269529416373204,-0.44528244616249507
14681163,1611.0,1,187733,227205,0.72,-0.36,9.74,0.05,-0.01,-0.055,26.31,12.261676,-11.940310663142588,-486.15805301226413,9.773208275689207,0.075,-0.07364658047800392,-0.6329397476836078
14721173,1706.0,1,187733,227899,0.45,-0.69,9.69,0.02,0.07,-0.055,26.31,12.301686,113.00565092076255,-530.5843936784808,9.724952442043097,0.0912414379544733,0.7716438116078127,-0.6911606645231063
14761162,1825.0,1,187733,229020,0.71,0.36,10.55,0.05,0.01,-0.055,26.31,12.341675,192.3580892458923,-302.6083199946268,10.579990548199937,0.075,1.308482720641067,-0.3923970070104298
14801830,1815.0,1,188199,230605,0.79,-0.89,11.34,0.06,-0.01,-0.055,25.93,12.382343,186.1856019538881,255.02839411676388,11.402271703480846,0.08200609733428363,1.266724314550453,0.33838838454037284
14840172,1752.0,1,188731,232579,1.01,0.09,8.98,0.05,-0.02,-0.055,25.93,12.420685,111.45685804100755,975.7749494979556,9.037068108629038,0.07697402159170326,0.7611658439809146,1.2829299478096867
14880164,1712.0,1,189991,234283,0.41,-1.16,12.149999999999999,0.01,0.01,-0.055,25.93,12.460677,51.22318723427244,1519.0620180110004,12.212133310769252,0.05678908345800274,0.35367013489549404,1.9949100650450904
14920164,1648.0,1,189987,234799,1.06,0.48,9.49,0.065,-0.07,-0.055,25.93,12.500677,-4.824215156345915,1580.8830015778076,9.561072115615486,0.11022703842524302,-0.02550443098547386,2.075926738694201
14960164,1616.0,1,189684,232261,0.74,-0.16,11.76,-0.06,-0.03,-0.01,25.93,12.540677,-68.52792414883169,1113.8645626055916,11.784345548226256,0.06782329983125268,-0.45647580828299744,1.4638969993510682
15000193,1571.0,1,187762,230464,1.2,0.51,9.62,0.04,-0.08,0.065,25.93,12.580706,-97.35526106253502,368.366152938365,9.70796065092973,0.1105667219374799,-0.6514998860016735,0.4869180210617397
15040142,1639.0,1,187733,229576,0.48,-0.14,11.68,-0.07,-0.01,0.065,25.93,12.620655,-63.183977412978784,-288.27408006250675,11.690697156286275,0.09604686356149274,-0.4203226843694935,-0.3736119218890706
15080173,1683.0,1,187733,229229,1.12,0.01,9.64,0.03,-0.09,0.065,25.93,12.660686,0.2199848738893402,-619.4653589269465,9.704849303312237,0.115,0.008620832186425953,-0.8076395643997357
15120141,1771.0,1,187733,228727,0.77,-0.49,9.72,-0.04,-0.03,0.04,25.93,12.700654,55.4045522835406,-631.5291777580919,9.762755758493602,0.06403124237432849,0.3819581056081474,-0.8234492525802659
15160173,1822.0,1,187733,227803,1.53,-0.14,8.39,-0.01,-0.12,0.065,25.93,12.740686,126.47154158675183,-491.47641088630735,8.529513467953493,0.13683932183404007,0.8627438988498886,-0.6399094793082254
15200175,1821.0,1,187733,226763,0.96,-0.68,9.13,-0.09,-0.08,0.065,25.93,12.780688,99.0334978863929,-363.725166962408,9.205482062336552,0.13683932183404007,0.6771187339903644,-0.4724909065178764
15240173,1740.0,1,187733,225683,1.05,-0.18,8.64,-0.04,-0.09,0.065,25.93,12.820686,30.42174308000691,-313.7713316899998,8.705429340359958,0.11800423721205947,0.2129432105338562,-0.40702618343703745
15280174,1861.0,1,187733,225107,0.8,-0.25,9.15,-0.1,-0.02,0.065,25.93,12.860687,141.51066510253332,-326.1899728764341,9.188307787617914,0.12093386622447826,0.9644872961724598,-0.4233008678907309
15320173,1886.0,1,187733,224276,1.4,-0.34,8.87,-0.05,-0.07,0.065,25.93,12.900686,163.32049276750593,-372.7073213081599,8.986239480450095,0.10781929326423913,1.1120361848643818,-0.48426205969775626
15360176,1671.0,1,187733,224962,0.89,-0.36,9.15,-0.07,0.11,-0.01,25.93,12.940689,-43.577657892391684,-442.74609110881767,9.20022825803795,0.1307669683062202,-0.2876810743100315,-0.5760481787198372
15400173,1568.0,1,187733,226941,0.95,-0.99,9.26,-0.01,0.03,-0.055,25.93,12.980686,-158.905885727882,-513.0629995543417,9.361100362671046,0.0634428877022476,-1.0679051142855789,-0.668198799671849
15440176,1585.0,1,187733,227996,1.82,-0.37,9.97,-0.01,0.08,-0.055,25.93,13.020689,-128.81412471651655,-510.65222461899117,10.141508763492737,0.09759610647971567,-0.8643268942182697,-0.6650394684074462
15480173,1678.0,1,187733,227994,0.97,-0.23,9.24,-0.03,0.05,-0.055,25.93,13.060686,-43.58615953043841,-337.2973706477499,9.293621468512692,0.08015609770940699,-0.28773858999814805,-0.43785716202275626
15520176,1747.0,1,187733,230134,1.07,-0.48,10.53,-0.02,-0.0,0.02,25.93,13.100689,33.63900110262316,41.907327569654036,10.595102642258826,0.0282842712474619,0.23470875830269938,0.05909227988460348
15560173,1792.0,1,188536,231385,1.02,0.02,8.66,0.0,0.01,-0.055,25.93,13.140686,76.6487787377921,527.8813121167666,8.719885320346823,0.05590169943749474,0.525680561951925,0.695963345927475
15600142,1844.0,1,189309,233282,1.19,-0.01,10.08,-0.09,0.06,-0.055,25.93,13.180655,137.26279853335913,923.8583125117265,10.15000492610718,0.12134661099511597,0.9357494261983731,1.2148929643617072
15640173,1906.0,1,189713,231853,0.62,0.25,9.63,-0.06,0.04,-0.055,25.93,13.220686,193.7836922592706,1069.3004226990486,9.653175643279264,0.09069178573608527,1.3181272782951214,1.4054954959948482
15680164,1966.0,1,188442,231698,0.92,-0.18,10.76,-0.04,-0.01,0.02,25.93,13.260677,267.74581348771693,952.8587207756186,10.800759232572496,0.045825756949558406,1.8184993564331438,1.2528981282470038
15720174,1983.0,1,188655,231109,0.92,-0.56,10.77,-0.135,0.06,0.01,25.93,13.300687,278.4419493305849,697.3182740814275,10.82371932378145,0.14807092894960847,1.8908613659435471,0.9180112374294486
15760164,1929.0,1,188270,232142,0.57,-0.27,10.57,0.03,-0.06,0.03,25.93,13.340677,229.15179801922616,441.0896303376477,10.588800687518866,0.07348469228349534,1.5574012780801338,0.5822224613205902
15800164,1936.0,1,188961,231392,0.55,-1.12,10.71,-0.135,0.09,0.0,25.93,13.380677,250.0071409007417,240.661626029723,10.782439427142636,0.16224980739587952,1.6984928406878783,0.31956067112745995
15840851,1957.0,1,187960,230932,1.24,-0.99,10.26,-0.0,-0.13,0.02,25.69,13.421364,244.4144293131677,74.43010228049036,10.381969947943405,0.13152946437965907,1.6606567609078313,0.10171352064930222
15881175,1956.0,1,187898,229628,0.72,-0.96,9.39,-0.12,-0.01,0.01,25.69,13.461688,288.4591867351273,-89.32677273231575,9.466366779287606,0.12083045973594571,1.9586304592856807,-0.11289059166433654
15921175,1958.0,1,187733,229958,0.48,-1.59,11.33,-0.12,0.04,0.065,25.69,13.501688,237.26169389175408,-245.41367454827616,11.451087284620618,0.1422146265332789,1.612266733313441,-0.31744317002405886
15961164,1529.0,1,187819,229182,0.59,-0.37,9.55,-0.12,0.0,0.0,25.69,13.541677,-139.08783272697107,-359.86525467312185,9.575359001102779,0.12,-0.9338310747635572,-0.46743247431229124
16001164,1349.25,1,187733,229295,0.38,-1.25,11.35,-0.04,-0.04,0.02,25.69,13.581677,-365.0937229926738,-405.6117449794608,11.424946389370936,0.060000000000000005,-2.462816927324387,-0.5273834531208977
16041222,1349.25,1,187733,225496,0.45,-1.18,9.36,-0.1,0.05,-0.01,25.69,13.621735,-338.69374932228953,-388.68910130889253,9.444813391486354,0.11224972160321825,-2.2842145634543978,-0.5052062533994306
16079177,1349.25,1,187733,225695,0.85,-0.5,9.03,0.06,-0.13,0.065,25.69,13.65969,-357.0689834934533,-350.9192700023475,9.083688678064654,0.15724185193516388,-2.4085275760585003,-0.4557087216521796
16119164,1349.25,1,187733,224719,0.71,-1.46,9.06,-0.135,0.1,0.01,25.69,13.699677,-360.44765952804465,-350.00198376805616,9.204308773612498,0.16830032679706836,-2.431385156678205,-0.4545066139664277
16159164,1349.25,1,187733,226313,0.99,-1.55,7.92,0.06,-0.11,0.03,25.69,13.739677,-364.46721837227517,-422.0777810342542,8.130744123387478,0.12884098726725127,-2.458578468317733,-0.5489622665330794
16199164,1349.25,1,187733,226561,-0.03,-1.8,8.86,-0.135,0.11,-0.055,25.69,13.779677,-375.66761167045513,-542.4650686347661,9.041045293548748,0.18261982367749677,-2.534351904469778,-0.7067303418418821
16239197,1349.25,1,187733,227882,1.0,-0.82,9.71,0.0,0.0,-0.055,25.69,13.81971,-386.42954443406904,-616.3620916648365,9.795738869528934,0.055,-2.6071590464536953,-0.8035727188642123
16279164,1349.25,1,187733,227467,0.68,-1.5,7.93,-0.09,0.05,-0.01,25.69,13.859677,-393.11932058748573,-527.3082719882027,8.099216011442094,0.10344080432788601,-2.6524170398774407,-0.6868672924914369
16319176,1468.0,1,187733,228957,0.73,-0.0,10.4,-0.02,-0.01,0.0,25.69,13.899689,-292.19691094427884,-228.81434351176455,10.425588712394136,0.022360679774997897,-1.9696519297761088,-0.29568967294607523
16359173,1616.0,1,188333,231042,0.32,-1.07,9.37,-0.04,0.08,0.0,25.69,13.939686,-155.42122226825074,190.45226683612134,9.4363234365933,0.08944271909999159,-1.0443305024714884,0.2537610828125456
16399164,1734.0,1,189067,232281,0.61,-0.6,9.22,-0.06,0.06,-0.0,25.69,13.979677,-48.342074189408635,541.4873779977313,9.259616622733363,0.08485281374238571,-0.31991353119549104,0.7137941557193508
16439174,1842.0,1,189541,232466,0.32,-0.55,11.77,-0.01,-0.0,-0.05,25.69,14.019687,32.63153974303732,663.2674050636798,11.787187959814673,0.050990195135927854,0.2278930325532621,0.873387422285869
16479198,1886.0,1,188680,231619,0.98,-1.2,8.65,0.02,-0.07,0.01,25.69,14.059711,78.2912972847392,538.2327700768946,8.787656115256219,0.07348469228349536,0.5367926069428692,0.7095289775781247
16519164,1975.0,1,188507,231123,0.74,-0.77,10.44,-0.04,-0.01,-0.0,25.69,14.099677,128.04018695664038,285.517796828146,10.494479501147257,0.04123105625617661,0.8733561734920449,0.3783448822650487
16559201,2016.0,1,188196,231356,0.64,-1.51,9.47,-0.01,-0.02,0.01,25.69,14.139714,174.31353181022166,41.31913594909581,9.610962490822654,0.024494897427831782,1.186406818095227,0.05832145215239164
16599176,2087.25,1,188595,231951,0.82,-0.39,10.68,-0.03,0.0,-0.0,25.69,14.179689,207.48934771284,-147.8662115087161,10.718530682887463,0.03,1.4108494337395847,-0.18960678628496277
16639176,2087.25,1,188580,231026,0.12,-1.55,9.08,-0.05,0.01,0.0,25.69,14.219689,205.46302845491914,-315.11405145712985,9.212127875795037,0.050990195135927854,1.3971408818319768,-0.4087858236578733
16679164,2087.25,1,188022,230841,0.76,-0.5,12.149999999999999,0.01,-0.05,0.0,25.69,14.259677,176.9059057720033,-477.55478851854406,12.18401001312786,0.050990195135927854,1.2039448703444462,-0.6216651313383103
16719164,2087.25,1,187970,227433,0.24,-1.01,9.01,-0.05,0.03,-0.01,25.69,14.299677,166.04991434759847,-578.1426032862163,9.069608591334028,0.05916079783099616,1.1305013982122705,-0.7534859095260774
16759174,2087.25,1,187733,229512,0.04,-1.5,10.91,0.01,-0.03,0.01,25.69,14.339687,145.98845931681495,-533.8807854466993,11.012706297727185,0.033166247903554,0.9947806836424337,-0.6954806005819814
16799164,2087.25,1,188456,230264,0.66,-1.74,11.29,-0.06,0.03,-0.03,25.69,14.379677,130.5631263461755,-332.2579402653465,11.442346787263528,0.07348469228349534,0.8904244836539285,-0.43125296611527153
16839176,2087.25,1,188587,232534,0.82,-1.48,10.14,0.065,-0.11,-0.055,25.69,14.419689,117.48311122314819,-64.2230069902315,10.28019455068823,0.13910427743243556,0.801934940081066,-0.07999199511754593
16879863,2087.25,1,189460,231495,0.53,-1.7,9.53,-0.07,-0.03,-0.055,25.85,14.460376,97.74378695253804,143.79333930636656,9.694936822898848,0.09394147114027968,0.6683935199287363,0.19261435096848487
16920198,2087.25,1,188593,231778,0.34,-1.58,10.28,0.065,-0.13,0.0,25.85,14.500711,95.36808597282165,225.54482705656292,10.40626734232789,0.14534441853748634,0.6523213140953802,0.2997500389057285
16960164,2087.25,1,188786,230959,0.94,-0.69,9.93,-0.07,-0.02,-0.01,25.85,14.540677,68.73867175821404,203.44410934774936,9.998229843327268,0.07348469228349536,0.4721667280876892,0.27078695014977033
17000195,2061.0,1,188710,232175,0.1,-1.11,8.8,-0.07,0.05,-0.01,25.85,14.580708,51.77947519532176,140.01527716223535,8.870293118042943,0.08660254037844388,0.3574335608017586,0.18766318374180424
17040176,2079.0,1,189319,231894,0.77,-0.09,10.3,-0.06,0.01,-0.03,25.85,14.620689,41.887053784237196,85.19436667924388,10.329133555143917,0.06782329983125268,0.2905088785851311,0.11582013697196443
17080174,2025.0,1,188888,232390,0.58,-0.97,9.42,-0.01,-0.0,-0.01,25.85,14.660687,-1.4863938758334332,73.6052988087425,9.487555006428158,0.01414213562373095,-0.0029232429010386503,0.10063261203478564
17120198,2017.0,1,189147,231786,0.48,-0.49,7.99,-0.05,0.0,-0.01,25.85,14.700711,-24.12237875924722,143.0823781445888,8.019389004157363,0.050990195135927854,-0.15606128989986373,0.1916826332070116
17160174,1975.0,1,188647,231749,0.94,-0.55,9.9,-0.03,-0.03,-0.0,25.85,14.740687,-66.56162672286433,317.15088827773934,9.959723891755234,0.042426406871192854,-0.4431733189421384,0.4198001891628217
17200198,1935.0,1,189336,234088,0.39,-1.12,9.82,-0.05,0.08,-0.0,25.85,14.780711,-101.36352919792415,556.7945840918796,9.891354811146954,0.09433981132056604,-0.6786168131980191,0.7338543173191598
17240174,1951.0,1,189966,233583,0.65,-0.63,9.85,-0.03,0.0,-0.0,25.85,14.820687,-93.3627122194228,749.8695121032499,9.891506457562468,0.03,-0.6244893037128671,0.986879868354251
17280175,1922.0,1,189509,234570,0.45,-1.17,11.49,0.02,-0.08,0.02,25.85,14.860688,-110.03654315436029,777.8500971727775,11.558178922304327,0.08485281374238571,-0.7372919018112556,1.0235485494120242
17320164,1930.0,1,189697,233181,0.87,-1.14,10.24,-0.01,-0.03,0.0,25.85,14.900677,-99.21268897143659,609.7623009810582,10.33992746589646,0.03162277660168379,-0.6640658460814012,0.8032687456501435
17360175,1959.0,1,188751,232945,1.02,-1.04,10.33,-0.01,-0.02,0.065,25.85,14.940688,-68.64120486727981,333.5823803210395,10.432204944305878,0.0687386354243376,-0.4572421804145887,0.4413337324944546
17400174,1983.0,1,189097,231747,0.64,-1.27,10.13,-0.07,0.02,0.01,25.85,14.980687,-20.03490244143253,93.47242663371931,10.229340154672736,0.07348469228349536,-0.1284084997213924,0.12666857132362358
17440164,2066.0,1,188626,233636,0.68,-0.79,11.77,0.04,-0.06,0.01,25.85,15.020677,52.67950576053839,-11.381067599452628,11.816065334958164,0.07280109889280519,0.3635224906056266,-0.01074239875707322
17480198,2027.0,1,189159,232082,0.75,-1.6,8.32,-0.07,-0.02,-0.055,25.85,15.060711,50.51133268534532,15.222391049564655,8.505580521046168,0.0912414379544733,0.3488542624723858,0.0241215520077327
17520195,2032.0,1,188684,233129,0.33,-0.74,11.53,-0.0,-0.05,-0.0,25.85,15.100708,48.54722335442576,84.6344566254261,11.558434150004922,0.05,0.3355665761367414,0.11508637235862743
17560195,2043.0,1,189060,231748,0.5,-1.55,9.67,-0.03,0.01,-0.055,25.85,15.140708,91.71432920768827,88.55198974982775,9.80619192143413,0.0634428877022476,0.6276027441677576,0.12022031692465403
17600174,2044.0,1,188381,233099,0.31,-1.3,10.64,0.06,-0.07,0.01,25.85,15.180687,100.6929732082803,-37.60681291178903,10.72360480435567,0.09273618495495704,0.6883454957657177,-0.04511135451589186
17640164,2027.0,1,188861,231354,0.87,-0.93,8.18,-0.08,-0.03,-0.02,25.85,15.220677,105.53305587071965,-281.4913183828014,8.278538518361799,0.08774964387392122,0.721089854363604,-0.36472308257045083
17680222,2017.0,1,188002,231746,1.08,-0.03,9.86,0.02,-0.03,0.065,25.85,15.260735,115.67712316017982,-556.2265667831643,9.91901708840145,0.07433034373659253,0.789716983306019,-0.7247648463108508
17720164,1984.0,1,188232,230772,0.94,-0.84,7.5900000000000025,-0.11,0.03,-0.01,25.85,15.300677,100.60220306719549,-737.5519831206481,7.693978164772762,0.11445523142259596,0.6877314132681753,-0.9623926100915383
17758175,1946.0,1,187958,231668,0.29,-1.29,9.81,-0.0,0.03,0.065,25.85,15.338688,85.39282902775878,-729.1315900183819,9.8987019351024,0.07158910531638177,0.5848362289645045,-0.9513576475172806
17798164,1906.0,1,188149,230942,1.14,-0.04,8.31,-0.02,-0.01,-0.01,25.85,15.378677,65.55083322381246,-529.0890897259869,8.38792584611953,0.024494897427831782,0.4506002104468526,-0.6892010620493847
17838196,1843.0,1,188260,232946,0.23,-1.37,9.5,-0.04,0.06,0.065,25.85,15.418709,25.08219122576068,-251.41283160329706,9.601031194616544,0.097082439194738,0.17681981908348585,-0.32530509200029456
17878164,1827.0,1,189182,232371,0.6,-0.68,9.07,-0.04,0.03,-0.01,25.85,15.458677,26.10962756809314,-70.1831231146592,9.115223529897664,0.05099019513592785,0.1837706805410625,-0.08780275378077143
17918863,1791.0,1,188499,232531,0.97,0.62,9.67,0.065,-0.08,0.065,25.81,15.499376,22.867492997533468,-109.81402190995088,9.738285270005187,0.12186057606953941,0.16183683676090155,-0.13973922274117462
17959144,1766.0,1,188434,231811,0.76,-1.11,8.11,-0.07,0.04,0.065,25.81,15.539657,-4.8008792810050025,-356.97974925431083,8.220815044750733,0.10356157588603991,-0.025346558006095178,-0.463651006639977
17999164,1755.0,1,188061,231502,1.12,-0.81,9.71,-0.01,-0.04,0.065,25.81,15.579677,41.9257284160502,-661.9100701538091,9.807884583333962,0.07697402159170326,0.29077052205303167,-0.8632635470541267
18039173,1762.0,1,188149,230730,0.71,-1.68,9.73,-0.04,0.04,0.03,25.81,15.619686,16.5156620140685,-828.5937037400048,9.899464631988945,0.06403124237432849,0.11886512615567008,-1.081703189482452
18079164,1585.0,1,187785,231182,1.08,-1.09,8.6,0.02,-0.02,0.01,25.81,15.659677,-80.60656906921844,-728.4604735851766,8.735817076839464,0.030000000000000002,-0.5381908342925636,-0.9504781464496408
18119164,1623.0,1,188935,231721,0.44,-0.89,10.37,-0.1,0.11,-0.01,25.81,15.699677,-90.21469399283245,-363.26952250195126,10.417418106229585,0.1489966442575134,-0.603192180321961,-0.47189378242791497
18159176,1507.0,1,188852,233095,0.45,-0.97,10.03,0.02,0.01,-0.0,25.81,15.739689,-130.19324492128166,153.2378809413959,10.086837958448623,0.022360679774997897,-0.8736569841534816,0.20499146474545557
18199164,1509.0,1,189815,233344,0.29,-0.91,10.72,-0.02,0.03,-0.055,25.81,15.779677,-162.91941037767506,669.0722606071184,10.762462543488828,0.06576473218982952,-1.0950576031044466,0.88099471126785
18239176,1493.0,1,189841,235355,0.69,-1.2,10.47,-0.01,-0.01,0.0,25.81,15.819689,-131.0536790139296,1069.1020042105365,10.561107896428291,0.01414213562373095,-0.879478034008302,1.4052354676840344
18279174,1503.0,1,190748,235710,0.58,-0.45,10.96,0.02,-0.03,-0.055,25.81,15.859687,-130.36908966726585,1310.2234192535345,10.98455734201429,0.06576473218982952,-0.8748466174349014,1.7212261534556361
18319176,1506.0,1,190139,235894,0.94,-0.79,10.08,0.04,-0.08,-0.0,25.81,15.899689,-108.20416208769957,1408.6862306515168,10.154511312712199,0.08944271909999159,-0.7248953898259671,1.850262105285547
18359174,1535.0,1,190966,236678,0.74,-0.94,11.08,-0.08,0.01,-0.01,25.81,15.939687,-73.56671557901181,1399.3568495877266,11.144397695703434,0.08124038404635961,-0.49056448093525756,1.8380359099488701
18399174,1562.0,1,190423,234841,0.76,-0.74,9.67,-0.01,-0.08,-0.01,25.81,15.979687,-40.401826460642525,1297.7526517398553,9.728005962169226,0.08124038404635961,-0.26619578769403324,1.704883157218479
18439194,1626.0,1,190368,236156,0.33,-0.63,12.149999999999999,-0.04,-0.02,-0.0,25.81,16.019707,27.579002449705683,1090.2705241762515,12.170797015807961,0.044721359549995794,0.19371136573051734,1.4329769071556935
18479195,1645.0,1,190168,234454,0.5,-0.46,8.93,-0.01,-0.09,-0.0,25.81,16.059708,53.471975690347335,759.8006280731056,8.955808171237257,0.09055385138137416,0.368883746057125,0.999894639958973
18519194,1663.0,1,190171,235179,-0.06,-1.54,12.149999999999999,-0.07,0.0,0.065,25.81,16.099707,64.74338220536391,328.08020995271266,12.24735481644914,0.09552486587271401,0.4451376042183502,0.4341231137793573
18559174,1696.0,1,189484,232766,0.88,-0.38,8.33,0.01,-0.13,0.03,25.81,16.139687,109.76448465866522,-125.2502357655703,8.384968694038161,0.13379088160259653,0.7497165186743492,-0.1599684495856026
18599164,1680.0,1,189051,232352,0.14,-1.31,11.37,-0.13,-0.01,0.065,25.81,16.179677,77.37420258510146,-498.3157330640659,11.446073562580313,0.14568802284333465,0.5305882340411006,-0.6488724414108551
18639177,1570.0,1,188876,231902,1.0,-0.94,8.3,-0.09,-0.07,0.065,25.81,16.21969,-20.56493210513906,-738.3570616653413,8.412704678044987,0.13124404748406687,-0.1319942817392509,-0.9634476691015075
18679174,1501.0,1,189148,232737,0.65,-0.54,10.74,-0.1,-0.01,0.03,25.81,16.259687,-105.88917444973788,-880.6952055770627,10.7731935840771,0.10488088481701516,-0.7092339247945233,-1.1499824391388396
18719175,1429.0,1,189128,232165,1.13,-0.62,8.44,-0.07,-0.06,0.01,25.81,16.299688,-176.26333085105352,-1006.1473862556875,8.537851017674178,0.09273618495495704,-1.1853325317689438,-1.314388079330991
18759174,1416.0,1,189323,231902,0.48,-1.14,9.39,-0.135,0.04,-0.0,25.81,16.339687,-195.5601970376286,-1151.925823463889,9.471119258039147,0.14080127840328724,-1.315880613340383,-1.5054313690193726
18799175,1390.0,1,188842,230069,1.24,-0.34,10.24,-0.07,-0.07,0.01,25.81,16.379688,-234.00742601118998,-1269.6239346366065,10.32040696871979,0.099498743710662,-1.5759856446810778,-1.659675266670923
18839174,1349.25,1,188436,231322,0.78,-1.3,8.59,-0.08,-0.01,0.01,25.81,16.419687,-273.2665665975277,-1278.6885381747377,8.722757591495936,0.08124038404635961,-1.8415834592762503,-1.6715544698837566
18879175,1406.0,1,189397,233007,1.08,-0.77,10.03,-0.13,0.09,-0.01,25.81,16.459688,-233.22433151611975,-1154.148541902461,10.117321779996917,0.1584297951775486,-1.5706878163688467,-1.508344251409169
18919861,1419.0,1,189967,233795,0.13,-1.08,10.01,-0.1,0.06,-0.055,25.97,16.500374,-221.31172517019183,-943.2925230933369,10.068932416100527,0.12893796958227627,-1.4900960824603333,-1.2320165018781566
18958176,1483.0,1,190125,234560,1.03,-0.55,11.56,-0.03,-0.05,-0.05,25.97,16.538689,-170.7741915578126,-693.7243579918905,11.61882093846015,0.07681145747868609,-1.1481971442255743,-0.9049563126241105
18998194,1584.0,1,190334,234557,0.47,-0.93,10.92,-0.02,0.01,-0.055,25.97,16.578707,-69.83872849448193,-394.9473231344159,10.969603456825594,0.05937171043518959,-0.4653437245024298,-0.513407680908494
19038176,1648.0,1,190530,236123,0.45,-0.94,11.78,0.02,-0.04,0.0,25.97,16.618689,-29.72886810934178,-31.113544547894033,11.826009470654078,0.044721359549995794,-0.1939905796575317,-0.036601897473926774
19078164,1670.0,1,190849,236721,0.47,-1.72,9.49,-0.01,-0.01,-0.055,25.97,16.658677,16.12763305143913,296.8994604933462,9.656055095120367,0.05678908345800274,0.11624001406878304,0.39326060306963584
19118248,1791.0,1,191535,238362,0.23,-2.2775000000000003,12.149999999999999,-0.02,-0.02,-0.055,25.97,16.698761,81.22532008537604,336.89891245426463,12.363753728136126,0.06184658438426491,0.5566419982485145,0.4456800625911591
19158194,1871.0,1,191136,235189,0.79,0.7,7.5900000000000025,0.06,-0.13,-0.055,25.97,16.738707,222.0285042997082,-159.43669035883389,7.6630411717542035,0.15337861650177967,1.5092104308948062,-0.20476995022833358
19198164,2017.0,1,189950,234642,0.37,-2.2775000000000003,11.77,-0.06,-0.03,0.065,25.97,16.778677,284.78248529213147,-1177.9931207504076,11.99403210976192,0.09340770846134702,1.9337566629265615,-1.539592677936336
19238173,1830.0,1,189194,231218,0.63,-1.7,7.5900000000000025,-0.08,-0.0,0.065,25.97,16.818686,173.74821824661817,-2306.654898273647,7.803524844581456,0.10307764064044152,1.182582331751113,-3.0187089522836987
19278174,1995.0,1,188395,230883,0.25,-1.32,9.28,0.065,-0.07,0.065,25.97,16.858687,262.69899331538716,-2893.1355476393405,9.376742504729455,0.11554220008291344,1.7843563673506957,-3.787294449145485
19318211,2087.25,1,188426,230890,0.51,-0.9,7.5900000000000025,-0.08,0.09,0.01,25.97,16.898724,410.5678727202671,-2440.7216756442863,7.660169710913723,0.12083045973594571,2.7847259788607497,-3.1944040597173635
19358164,2087.25,1,189618,236663,-0.06,-1.65,11.04,0.02,0.09,0.01,25.97,16.938677,367.64357180033926,-965.79739971549,11.16278191133375,0.09273618495495703,2.4943324463715073,-1.261509242685817
19398164,2087.25,1,193036,243096,0.69,-1.1,10.34,0.065,0.01,-0.055,25.97,16.978677,393.9297377164573,978.7431722285769,10.421213940803634,0.08573214099741124,2.672164872581995,1.2868198168866605
19438164,2087.25,1,195001,246277,0.44,-2.17,11.42,0.065,-0.05,-0.055,25.97,17.018677,375.2364532920652,2665.1444244262934,11.632665214816424,0.0987420882906575,2.5457001712010303,3.496856150959339
19478174,1871.0,1,195001,243695,0.24,-1.71,8.84,0.05,-0.04,-0.055,25.97,17.058687,177.6032083991894,3655.179489017972,9.007069445718736,0.08440971508067066,1.2086622954109683,4.794301502059609
19518176,1810.0,1,195001,244692,1.19,-0.57,12.149999999999999,0.065,-0.01,-0.0,25.97,17.098689,93.53941458693029,3983.1503409192046,12.221436085828866,0.06576473218982953,0.6399498990197661,5.224108760725895
19558174,1792.0,1,195001,244751,0.88,-0.08,9.36,0.065,-0.03,-0.055,25.97,17.138687,114.05113145624686,3937.243411098001,9.401616882217652,0.09027735042633894,0.778716746503465,5.163947525220189
19598174,1859.0,1,195001,247286,0.76,-1.43,11.54,-0.02,0.01,-0.01,25.97,17.178687,130.91660714159786,3698.9529310733587,11.653072556197356,0.024494897427831782,0.8928158688285244,4.851666792368636
19638174,1903.0,1,195001,244921,1.31,-0.27,7.84,0.02,-0.13,-0.055,25.97,17.218687,244.23767057891158,3209.5697287932117,7.9532760545576435,0.14256577429383255,1.6594609442692632,4.2103279313386865
19678176,1984.0,1,194894,240236,1.21,-0.13,7.5900000000000025,0.04,-0.13,0.065,25.97,17.258689,250.50697125454042,2368.5002021925707,7.686943475790624,0.15074813431681336,1.7018743168907342,3.108102579663725
19718164,1840.0,1,192940,236511,0.01,-1.27,8.45,-0.135,0.03,0.065,25.97,17.298677,186.88734306443996,1311.1389846929023,8.544910766064207,0.15280706789936127,1.2714717670568134,1.722426006031995
19758164,2000.0,1,190898,234450,1.25,-0.79,9.22,0.065,-0.13,0.065,25.97,17.338677,278.6326056776476,432.14464738190327,9.337826299519605,0.15921683328090658,1.8921512033766203,0.5705000214124761
19798164,1795.0,1,191280,236960,0.22,-1.88,8.32,0.02,0.03,-0.0,25.97,17.378677,128.25049466446703,96.26669471862343,8.53259632233941,0.03605551275463989,0.8747789572503504,0.13033047206446444
19838164,1472.0,1,192374,237439,0.52,-1.43,7.67,-0.03,0.04,-0.055,25.97,17.418677,-227.57042577377692,317.35614013633875,7.819475685747734,0.07433034373659253,-1.5324377429676999,0.4200691726354973
19878177,1349.25,1,192463,239145,-0.13,-1.26,11.22,0.065,-0.13,-0.0,25.97,17.45869,-336.4649845951787,723.4470289081695,11.29127539297488,0.14534441853748634,-2.2691364177811466,0.9522530867259448
19918198,1349.25,1,192626,237473,0.5,-1.62,8.71,-0.03,-0.04,-0.055,25.97,17.498711,-338.09905643469034,838.3275087428248,8.87347169939703,0.07433034373659253,-2.2801913187031713,1.1028044659895824
19958883,1349.25,1,191618,237334,1.39,0.35,10.58,0.065,-0.05,0.065,26.09,17.539396,-347.98566084671995,420.4996558472898,10.67665678009741,0.10464224768228175,-2.347076647479723,0.5552392082649968
19997145,1349.25,1,191163,235324,2.105,-2.19,10.4,-0.11,-0.13,0.065,26.09,17.577658,-341.906639727583,-414.632841061397,10.834533907833784,0.18227726133558186,-2.3059505632097443,-0.5392056396190741
20037175,1349.25,1,190006,233600,-0.03,-0.5,7.5900000000000025,-0.07,0.03,0.065,26.09,17.617688,-355.5913225062335,-1344.8009745640697,7.606510369413825,0.10012492197250393,-2.3985308333112916,-1.7581951115246952
20077175,1349.25,1,189611,232864,1.8,0.38,12.149999999999999,-0.1,0.02,0.065,26.09,17.657688,-354.76340785273646,-2101.113621449018,12.288486481255532,0.12093386622447826,-2.3929297855207383,-2.7493461957379846
20117144,1349.25,1,188758,231516,0.74,-1.03,7.5900000000000025,-0.03,-0.0,0.065,26.09,17.697657,-367.165291716317,-2626.6904193544265,7.695232290191118,0.07158910531638177,-2.476831603080555,-3.438116924651286
20157177,1349.25,1,188680,231052,1.32,-0.07,9.87,-0.13,0.08,0.0,26.09,17.73769,-372.672418145853,-3034.081435630244,9.958122312966434,0.15264337522473748,-2.5140886780582257,-3.972004661612473
20197164,1349.25,1,188447,230054,0.43,-0.77,9.01,-0.06,0.01,-0.0,26.09,17.777677,-381.8376480394272,-3425.8570232731718,9.05306025606811,0.0608276253029822,-2.576093729458734,-4.485428309967327
20237175,1349.25,1,187923,229931,0.95,-0.39,9.08,-0.13,0.04,0.065,26.09,17.817688,-399.2076364818039,-3742.6504680291996,9.137888158650224,0.15074813431681336,-2.6936060056047926,-4.900587526906039
20277164,1349.25,1,187779,227874,0.6,0.04,8.84,-0.135,0.02,0.03,26.09,17.857677,-394.48566188737954,-3774.231832491028,8.86042888352477,0.1397318861248212,-2.661660677354549,-4.941975045356511
20317144,1349.25,1,188237,230323,0.1,-1.81,12.149999999999999,-0.1,0.07,0.065,26.09,17.897657,-434.8245973472768,-3330.8518899452424,12.2844861512397,0.13829316685939333,-2.9345635718456444,-4.360923660611477
20357165,1349.25,1,188982,230263,1.35,0.14,9.01,-0.05,-0.05,-0.03,26.09,17.937678,-407.45904820347454,-2430.279208336672,9.11165188097087,0.07681145747868609,-2.7494288506255873,-3.180719159912458
20397177,1606.0,1,191102,234231,0.55,-2.11,12.149999999999999,-0.08,0.04,0.065,26.09,17.97769,-212.9826027177901,-1334.7655746590262,12.344111956718473,0.1105667219374799,-1.433747505089199,-1.7450436753595522
20437165,1823.0,1,191362,233680,0.51,-0.47,8.68,-0.06,-0.07,-0.055,26.09,18.017678,43.95829803014651,-398.6273529357713,8.707663291606996,0.10735455276791944,0.304521359169023,-0.5182303763143867
20477197,2087.25,1,192144,235279,-0.05,-2.02,12.149999999999999,-0.05,0.03,0.065,26.09,18.05771,245.02271431388994,150.86047362645112,12.316874603567253,0.0873212459828649,1.6647719596725001,0.20187586189585444
20517177,2087.25,1,192065,235177,1.16,-0.5,8.76,-0.07,-0.09,-0.01,26.09,18.09769,274.11794852061786,328.57352314499155,8.85060449912886,0.11445523142259598,1.8616084289642116,0.4347696029097424
20558198,2087.25,1,192373,235445,-0.07,-1.45,12.149999999999999,-0.135,0.07,0.05,26.09,18.138711,233.16531306280754,332.96389286281527,12.236416959224623,0.16007810593582122,1.584553701910599,0.4405232019323701
20598177,2087.25,1,192276,235982,1.03,-0.56,8.36,-0.02,-0.13,-0.01,26.09,18.17869,238.26633095114886,386.45467389627004,8.441806678667783,0.1319090595827292,1.619063351972216,0.5106231081485217
20638198,2087.25,1,192863,236296,0.38,-1.66,9.45,-0.135,0.05,-0.0,26.09,18.218711,223.78893051458672,604.7494293730339,9.60221328652931,0.1439618004888797,1.5211201504771676,0.7966993551344893
20678177,2087.25,1,193235,236926,1.16,-0.3,9.34,-0.07,0.0,0.065,26.09,18.25869,212.80989181999004,969.6485251050514,9.416538642197565,0.09552486587271401,1.4468442330706748,1.274901241421677
20718164,2087.25,1,193656,237200,0.48,-1.35,8.61,-0.135,0.03,0.0,26.09,18.298677,212.17728957741164,1382.104630320739,8.728401915585692,0.13829316685939333,1.4425645221389662,1.8154267999439155
20758170,2087.25,1,193863,237600,0.73,-0.2,8.54,-0.04,0.02,0.065,26.09,18.338683,201.21736146549694,1721.9806889833424,8.57347654105381,0.0788986691902975,1.3684178925599746,2.2608358849685426
20798164,2087.25,1,194078,236578,0.86,-0.98,8.02,-0.12,0.05,0.02,26.09,18.378677,202.34238163121722,1872.5612307737936,8.125293840840465,0.13152946437965904,1.3760289327643236,2.4581723540488145
20838164,2087.25,1,193732,236419,1.15,-1.01,9.49,-0.01,0.01,0.065,26.09,18.418677,200.0150821774524,1734.9550577101486,9.612632313783775,0.06652067347825036,1.3602841752480679,2.2778388528331184
20878164,2087.25,1,193746,236389,0.69,-1.53,8.26,-0.1,0.07,-0.055,26.09,18.458677,200.5369187643245,1279.1755432191037,8.428795880788666,0.13388427838995887,1.3638145290708734,1.6805377739596798
20918177,2087.25,1,193581,236760,0.11,-2.18,10.07,-0.02,0.04,0.01,26.09,18.49869,206.10743103728495,621.7671970510858,10.303853648028975,0.0458257569495584,1.4015004249865053,0.8190012152904215
20956206,2087.25,1,192169,236320,0.96,-0.12,10.35,0.02,0.0,-0.055,26.09,18.536719,209.44600206516137,44.774073110526246,10.395119046937365,0.058523499553598125,1.424086685297647,0.06284916265352448
20996851,2087.25,1,191655,237794,-0.03,-2.22,10.65,0.02,0.05,-0.055,26.77,18.577364,219.32286419433564,-117.9427305595566,10.878961347481662,0.07697402159170326,1.4909061051165164,-0.15039193154419989
21037177,2087.25,1,192676,240134,0.4,-0.66,10.13,0.02,-0.01,-0.055,26.77,18.61769,228.36760284426023,317.0827330571858,10.159355294505652,0.05937171043518959,1.5520960033956566,0.41971087144345703
21077175,2087.25,1,194108,241530,-0.04,-2.21,12.149999999999999,0.03,0.02,-0.055,26.77,18.657688,240.44506879628725,1240.1183607723349,12.3494210390609,0.06576473218982952,1.6338030533921173,1.6293531628231692
21117177,2087.25,1,194344,242473,0.4,-1.2,10.75,0.065,-0.03,-0.055,26.77,18.69769,255.4245175472749,2277.292625078555,10.824162785176505,0.09027735042633894,1.7351427361432787,2.988574644599622
21157177,2087.25,1,195001,244182,0.06,-1.4,12.149999999999999,0.02,-0.01,-0.055,26.77,18.73769,269.7286775221092,2969.8081508111222,12.230539644676353,0.05937171043518959,1.8319139229852508,3.896119318077474
21197177,2087.25,1,195001,244362,0.12,-1.66,10.62,0.065,-0.08,-0.04,26.77,18.77769,288.04918230920737,2991.498087679767,10.749623249212037,0.1105667219374799,1.9558566777440498,3.9245440767171975
21237177,2087.25,1,195001,241431,0.12,-1.41,11.22,-0.0,-0.1,-0.0,26.77,18.81769,307.19785418301535,2297.3405401953937,11.308885886770634,0.1,2.0854021880666407,3.0148475264377246
21277198,2087.25,1,193054,238149,0.78,-0.34,9.57,0.05,-0.13,0.065,26.77,18.857711,322.97016138868366,1137.8792793281395,9.607752078400026,0.15370426148939398,2.192105754736335,1.4953683923188619
21317164,1941.0,1,191603,236294,0.45,-0.98,10.02,-0.04,-0.09,0.065,26.77,18.897677,205.5555125940644,-73.3005195146904,10.077861876410093,0.11800423721205947,1.3977665599511315,-0.09188811561431955
21357177,1618.0,1,190856,235582,0.62,-1.62,9.96,-0.03,-0.11,0.065,26.77,18.93769,-110.48125265746822,-973.6701503112982,10.109915924477315,0.13124404748406687,-0.740300471800082,-1.2718265173220602
21397177,1349.25,1,190493,235347,0.44,-1.02,8.8,0.01,-0.08,0.065,26.77,18.97769,-339.7589063547003,-1417.0307118731723,8.869836526114785,0.10356157588603991,-2.29142061472765,-1.8528525032015644
21437164,1349.25,1,190303,235334,0.93,-0.87,10.2,0.01,-0.09,0.02,26.77,19.017677,-339.58443218697676,-1487.723302975046,10.279192575295006,0.09273618495495703,-2.2902402537477973,-1.9454954579439665
21477164,1349.25,1,190341,235037,1.01,-1.3,8.76,-0.01,-0.08,0.01,26.77,19.057677,-300.05597816361006,-1378.2810972822647,8.913343929188416,0.08124038404635961,-2.0228204670144745,-1.8020709611067542
21517177,1349.25,1,190204,234239,1.13,-1.44,8.48,-0.03,-0.08,0.065,26.77,19.09769,-293.76171264347505,-1243.1239061220244,8.675304029254537,0.10735455276791944,-1.9802382010335586,-1.6249468615568583
21557177,1349.25,1,190144,233825,0.79,-0.91,8.96,-0.03,0.0,0.0,26.77,19.13769,-270.51040188661597,-1133.9559079270975,9.040674753578962,0.03,-1.8229373220213447,-1.481881714863951
21596164,1349.25,1,190158,234737,1.09,-0.26,9.16,0.04,-0.01,-0.01,26.77,19.176677,-247.90143882980755,-1032.8334895636995,9.22828803191578,0.042426406871192854,-1.6699820843755917,-1.3493603362886186
21636176,1349.25,1,190374,234646,0.81,-1.04,8.6,0.01,0.0,-0.055,26.77,19.216689,-244.73177134555584,-918.4138397867607,8.70044251748151,0.05590169943749474,-1.6485384983918578,-1.1994128768631922
21676164,1349.25,1,190372,235283,0.6,-0.58,9.46,0.02,-0.0,-0.01,26.77,19.256677,-215.8330380163958,-796.1863122731794,9.496736281481128,0.022360679774997897,-1.4530314062303789,-1.0392331589717039
21716175,1349.25,1,190322,234268,0.73,-0.23,8.87,0.01,-0.01,-0.01,26.77,19.296688,-212.20508006938766,-680.5805678376389,8.902960181872094,0.017320508075688773,-1.4284873717003954,-0.8877313172260892
21756177,1349.25,1,190261,235217,0.74,-1.66,10.24,0.03,0.03,0.065,26.77,19.33669,-208.56369741548755,-567.8801994453215,10.400038461467343,0.07762087348130012,-1.4038525157016064,-0.7400369836943707
21796144,1349.25,1,190321,234309,1.14,-1.02,7.82,-0.0,-0.04,0.0,26.77,19.376657,-171.88136795666742,-436.91775173578395,7.968211844573411,0.04,-1.1556874669253412,-0.5684101140748278
21836177,1349.25,1,190432,234928,1.01,-0.59,10.21,0.02,0.0,0.065,26.77,19.41669,-219.8601194080362,-275.40092933196587,10.276784516569373,0.06800735254367722,-1.4802756097672438,-0.3567416006583354
21876144,1378.0,1,190571,235028,0.68,-1.41,8.49,-0.0,0.01,0.0,26.77,19.456657,-113.3310154689127,-101.52317936680481,8.633110679239552,0.01,-0.7595798233989717,-0.1288740367502666
21916164,1641.0,1,190576,235176,1.23,-0.75,9.8,0.02,-0.03,0.0,26.77,19.496677,65.03857645294136,41.87158949076172,9.905321801940612,0.03605551275463989,0.4471346664532,0.059045444973422616
21956164,1412.0,1,190659,235826,0.64,-1.29,9.53,-0.02,0.03,-0.01,26.77,19.536677,-82.70796821082695,114.99591986382671,9.638184476342005,0.03741657386773942,-0.552407320218331,0.15487520483549655
21996177,1349.25,1,190658,235097,0.62,-1.29,8.92,-0.01,-0.01,-0.04,26.77,19.57669,-216.55667652069263,105.51930892952028,9.0340965237261,0.042426406871192854,-1.4579270000316615,0.14245606409933195
22036886,1349.25,1,190218,235327,0.73,-0.55,10.18,0.0,-0.04,0.01,26.59,19.617399,-179.2696613856028,29.13855257731478,10.220949075306068,0.04123105625617661,-1.2056711028125722,0.04235874352254684
22077164,1394.0,1,190481,234899,0.46,-0.76,10.18,-0.07,0.06,-0.01,26.59,19.657677,-161.34076802179902,-91.20722651244746,10.218688761284394,0.09273618495495704,-1.084377696374803,-0.11535493469848662
22117177,1456.0,1,189896,234427,1.32,0.9825000000000002,10.03,0.04,-0.06,0.03,26.59,19.69769,-110.47047456445152,-244.59807317115695,10.164084132375134,0.07810249675906654,-0.7402275553299813,-0.31637432079544014
22157146,1517.0,1,190100,234662,0.6,-1.12,11.39,-0.135,0.09,0.05,26.59,19.737659,-51.360698920021086,-429.17578780234334,11.46065006882245,0.16977926846349645,-0.3403352755220242,-0.5582642359407324
22197164,1609.0,1,189772,232905,1.12,0.04,8.59,-0.04,-0.04,0.065,26.59,19.777677,17.487083751654325,-630.3796640994286,8.66279977836265,0.08616843969807043,0.1254370349315547,-0.8219428098230349
22237164,1665.0,1,189563,232514,0.56,-0.55,12.149999999999999,-0.11,0.04,0.05,26.59,19.817677,58.59506310714534,-805.7298039500813,12.17532751099534,0.12727922061357855,0.4035427019476444,-1.0517399472182063
22277164,1701.0,1,189296,232303,1.13,-0.93,8.53,-0.03,-0.02,0.065,26.59,19.857677,89.5553260416219,-896.4877237948507,8.654634596561543,0.07433034373659253,0.612996552742089,-1.1706786044330315
22317177,1807.0,1,189618,232364,1.11,-0.51,10.25,-0.11,-0.0,0.02,26.59,19.89769,155.98760532103816,-857.7985148176024,10.322533603723457,0.11180339887498948,1.062427384178307,-1.119976224163318
22357177,1783.0,1,189953,233243,0.27,-2.07,11.39,-0.07,0.01,0.065,26.59,19.93769,140.62973324900574,-679.7838623995585,11.579719340294911,0.09604686356149274,0.9585275738858842,-0.88668723120954
22397175,1792.0,1,190148,233177,0.85,-0.7,9.14,-0.04,-0.07,0.01,26.59,19.977688,104.54636330883889,-386.1878087130838,9.206090375398235,0.08124038404635961,0.7144146346772097,-0.5019282983388066
22435175,1808.0,1,190459,233545,0.91,-0.85,9.94,-0.09,0.01,0.0,26.59,20.015688,120.89842347767264,-23.489237539520573,10.017694345506854,0.09055385138137416,0.8250403738071797,-0.026610209262908538
22475164,1904.0,1,191008,233876,1.03,-0.38,9.11,-0.09,-0.02,0.0,26.59,20.055677,186.4738319879524,345.2175246691377,9.175914123399368,0.09219544457292887,1.2686742621551341,0.4565816408602523
22515175,2013.0,1,191367,233528,0.81,-0.39,9.67,-0.1,0.0,0.0,26.59,20.095688,278.2213280603621,648.5465787574313,9.711699130430267,0.1,1.889368808379901,0.8540957140035227
22555164,2032.0,1,191686,233905,0.33,-0.84,9.15,-0.11,0.04,0.065,26.59,20.135677,282.357473138958,831.9156686855171,9.194400469851201,0.13388427838995884,1.9173508547853169,1.0944017211052046
22595190,2000.0,1,191866,233449,0.46,-1.22,10.17,-0.12,0.05,-0.04,26.59,20.175703,223.80507039035564,892.5318775246958,10.253238512782193,0.13601470508735444,1.5212293407362523,1.1738395321206676
22635177,1941.0,1,191986,234192,1.28,-0.09,10.58,-0.01,-0.03,0.01,26.59,20.21569,156.0038062070399,892.6980401102959,10.657527855933571,0.033166247903554,1.0625369871867352,1.174057288927395
22675177,1933.0,1,191991,234005,1.06,-1.21,8.31,-0.05,-0.01,-0.0,26.59,20.25569,121.55946702776693,925.2634073363799,8.464266063871102,0.050990195135927854,0.8295124972320714,1.2167343473725742
22715198,1969.0,1,192046,234645,0.83,-0.67,7.5900000000000025,-0.06,-0.01,0.05,26.59,20.295711,150.63190609394877,1044.2403971108042,7.664587399201606,0.07874007874011811,1.0261947517492869,1.3726542211140125
22755175,2007.0,1,192564,235518,0.36,-1.34,9.6,-0.13,0.07,0.01,26.59,20.335688,164.49123381183475,1213.2544564010561,9.699752574163941,0.14798648586948743,1.1199565381422836,1.5941478967821194
22795164,2014.0,1,192950,235978,1.03,-0.61,9.52,-0.02,-0.02,0.02,26.59,20.375677,165.87014134352606,1320.4706790092507,9.594967430898345,0.034641016151377546,1.1292851892914502,1.7346552328964275
22835176,1981.0,1,192755,235836,0.86,-0.79,10.13,-0.06,0.05,0.0,26.59,20.415689,115.08502421579064,1254.134939332168,10.19708781956888,0.07810249675906655,0.7857112872233951,1.647721951304704
22875164,1925.0,1,192607,234265,0.7,-1.24,9.51,-0.0,0.02,0.01,26.59,20.455677,47.72941598271096,978.4902666017298,9.616012687179651,0.022360679774997897,0.3300339066120585,1.2864883829389595
22915164,1931.0,1,192052,234002,0.8,-0.85,10.23,0.01,-0.02,0.01,26.59,20.495677,52.017612197397,552.6512978687778,10.296378003939054,0.024494897427831782,0.3590446166318355,0.7284245223142137
22955164,1858.0,1,192014,234816,0.24,-2.16,8.94,0.01,0.02,0.02,26.59,20.535677,-44.70734822653871,89.11137148785846,9.200369557794948,0.03,-0.29532370936106866,0.12095338917780464
22995144,1829.0,1,191673,235220,1.11,-0.63,9.84,0.04,-0.04,-0.055,26.59,20.575657,-59.96150613790146,-306.90974657188866,9.922429138068964,0.0788986691902975,-0.39852186765589215,-0.39803404565215633
23035177,2087.25,1,191459,235397,0.21,-0.84,11.36,0.02,0.03,-0.055,26.59,20.61569,173.3038947785532,-580.0044782370016,11.392949574188416,0.06576473218982952,1.1795763733850129,-0.755925904921819
23075851,2081.0,1,191284,235582,1.06,-0.36,10.6,0.05,-0.01,-0.055,26.47,20.656364,177.24399610143885,-740.8644209445558,10.658949291557775,0.075,1.2062321352028391,-0.9667335745776905
23116176,1837.0,1,191279,235051,0.16,-1.71,9.69,-0.03,0.0,-0.055,26.47,20.696689,-72.26687999704636,-860.1084227892378,9.841026369236086,0.06264982043070834,-0.48177077112024413,-1.1230033688235972
23156177,1712.0,1,191022,235102,0.16,-0.71,11.92,-0.01,-0.02,-0.01,26.47,20.73669,-205.2458142656859,-1034.320873870126,11.94219829009718,0.024494897427831782,-1.3814062140121566,-1.3513095600309801
23196198,1611.0,1,191044,234473,0.29,-1.3,11.72,-0.06,-0.02,-0.01,26.47,20.776711,-289.44594157034055,-1320.4095959599256,11.795444035728371,0.06403124237432849,-1.951040940263248,-1.7262301014874746
23236199,1535.0,1,190849,234516,0.38,-0.97,11.5,0.02,-0.08,0.0,26.47,20.816712,-381.6570006954696,-1664.6566939920297,11.547090542643199,0.08246211251235322,-2.5748716054119263,-2.177367453027363
23276164,1535.0,1,190652,233685,0.76,-0.59,11.41,-0.05,-0.09,-0.0,26.47,20.856677,-362.829374947703,-1885.8978376329278,11.450493439149248,0.10295630140987,-2.4474980516881644,-2.467304954793907
23316196,1589.0,1,190414,233003,0.65,-0.5,10.5,-0.03,-0.09,0.065,26.47,20.896709,-308.2815251166398,-1758.053162813011,10.531975123403967,0.115,-2.0784683304660487,-2.2997639403991923
23356177,1562.0,1,191030,233419,0.81,-0.82,7.66,-0.11,-0.11,0.065,26.47,20.93669,-338.7814898746945,-1161.0557278372007,7.746231341755809,0.16859715300087366,-2.28480815003378,-1.5173961492668568
23396177,1468.0,1,192538,233927,0.31,-1.58,9.0,-0.135,-0.08,0.065,26.47,20.97669,-397.88154838366665,-192.11210734303708,9.14289341510662,0.1698528775146303,-2.6846346910124277,-0.24759122937050423
23436177,1461.0,1,193332,236284,1.17,-0.4,9.08,-0.01,-0.1,0.065,26.47,21.01669,-437.9496679021287,860.7902104786563,9.163803795367947,0.11968709203585824,-2.9557054485507406,1.1322419364213256
23476174,1454.0,1,194301,237231,-0.1,-2.2775000000000003,10.62,-0.11,0.04,-0.055,26.47,21.056687,-381.56939234133415,1675.3444168667584,10.86192461076765,0.12932517156377563,-2.5742789131865966,2.1997188431441055
23516198,1712.0,1,194524,237943,2.105,0.52,8.17,0.065,-0.13,-0.055,26.47,21.096711,-169.19439935178718,2067.3102582559522,8.452829407955658,0.15540270267920053,-1.1375094584747338,2.7133918198787823
23556164,1898.0,1,194665,236274,0.62,-1.46,11.28,-0.13,0.07,-0.01,26.47,21.136677,84.33284199477218,2055.7742660569857,11.390978886820921,0.14798648586948743,0.5776651540184973,2.698273850844977
23596176,2087.25,1,193934,234820,1.79,-0.63,7.5900000000000025,0.06,-0.13,-0.055,26.47,21.176689,238.84615534996493,1788.5380973506171,7.823624479740834,0.15337861650177967,1.62298600771237,2.3480596643636877
23636175,2016.0,1,193929,235391,0.74,-1.18,9.47,-0.05,0.03,-0.055,26.47,21.216688,223.50941722684897,1403.882346063282,9.571880692946397,0.08015609770940699,1.5192291738214205,1.8439665931879043
23676176,2071.0,1,193444,235753,1.26,-1.44,7.87,0.04,-0.02,-0.055,26.47,21.256689,256.1692382796534,945.950946691156,8.09926539878772,0.07088723439378912,1.7401809564417712,1.2438454596164907
23716177,2087.25,1,192757,235336,1.28,-0.5,10.14,0.03,-0.02,-0.055,26.47,21.29669,328.6663102832236,395.1629548590261,10.23269270524626,0.06576473218982952,2.2306416135300706,0.5220353490431033
23756177,2012.0,1,192064,235834,0.86,-0.6,9.05,0.06,0.02,-0.055,26.47,21.33669,222.76894102736725,-228.48885831770187,9.110548830888291,0.08381527307120105,1.5142196688397827,-0.2952631231530507
23796164,1954.0,1,192024,235402,0.62,-0.56,9.04,-0.01,0.06,-0.055,26.47,21.376677,238.1745061539411,-796.7981245790702,9.078524109126988,0.08200609733428363,1.6184421344646551,-1.0400349417169963
23836177,2042.0,1,190833,232041,0.83,-0.09,7.5900000000000025,0.065,-0.07,-0.01,26.47,21.41669,284.65384214388746,-1121.6336506046603,7.635777629030329,0.09604686356149274,1.9328863601505464,-1.465733341892281
23876175,1933.0,1,190784,234167,-0.16,-1.33,10.3,-0.04,0.11,0.065,26.47,21.456688,246.10890563149846,-1100.0547771428971,10.386746362552616,0.13388427838995884,1.6721203130974722,-1.4374541323407564
23916177,2087.25,1,191249,233980,0.71,-1.29,7.5900000000000025,0.03,0.04,-0.055,26.47,21.49669,385.4783448153546,-831.0146535742748,7.73151343528549,0.07433034373659253,2.614989105326428,-1.0848758549970985
23956164,2087.25,1,191819,235605,-0.69,-0.69,12.149999999999999,0.065,-0.01,0.05,26.47,21.536677,409.5989533991018,-572.2858536660921,12.18912219973202,0.08261355820929153,2.778170999552056,-0.7458106131260227
23996177,2087.25,1,191709,234837,0.47,-0.55,9.06,0.01,0.08,0.01,26.47,21.57669,450.29373351372004,-536.3044241483419,9.088839309834892,0.08124038404635961,3.053481271311674,-0.6986567898692667
24036144,2087.25,1,191132,235143,1.63,-1.2,9.17,0.065,-0.13,0.01,26.47,21.616657,424.74348731893053,-686.0232606201675,9.390729471132687,0.14568802284333465,2.8806275243790096,-0.8948639903007255
24076851,1520.0,1,191362,232838,-0.45,-0.59,7.86,-0.08,0.11,0.01,26.59,21.657364,-71.69573030976545,-724.0718911114305,7.894947751568721,0.13638181696985854,-0.4779068019532442,-0.9447268896183181
24115177,1349.25,1,191602,234891,0.65,0.83,12.149999999999999,0.065,-0.07,0.065,26.59,21.69569,-279.6044129994146,-324.4099996745548,12.19565086414005,0.11554220008291344,-1.8844605607216864,-0.4209682051008388
24155146,1349.25,1,192120,235425,0.22,-2.21,9.58,0.01,0.05,0.02,26.59,21.735659,-210.1765889109404,549.3350150534437,9.834068334112795,0.05477225575051661,-1.414764126347523,0.7240785189497133
24195144,1349.25,1,192460,238995,-0.14,-1.02,12.149999999999999,0.065,0.02,-0.05,26.59,21.775657,-254.4767681239058,1499.627372692212,12.193543373441535,0.08440971508067066,-1.7144658164357853,1.9694408760022313
24235216,1349.25,1,194040,241281,1.08,-1.55,11.17,-0.02,-0.06,-0.055,26.59,21.815729,-163.23709245880676,1896.542482496336,11.328627454374162,0.08381527307120105,-1.0972068011058411,2.4895998909854087
24275198,1349.25,1,194115,240222,0.7,-2.04,12.149999999999999,0.05,-0.11,0.0,26.59,21.855711,-253.3003377606699,1335.62241613964,12.339939221892463,0.12083045973594572,-1.7065069735056475,1.7545116517284463
24315164,1349.25,1,191737,231613,-0.16,-1.85,7.7,-0.05,-0.06,0.04,26.59,21.895677,-114.5132000924011,4.599308606201572,7.920738601923435,0.08774964387392122,-0.7675775953256401,0.010199955264913487
24355196,1811.0,1,189171,229068,1.34,-1.44,12.149999999999999,0.05,-0.13,0.065,26.59,21.935709,219.5852231336801,-1382.6629842692407,12.308196456020678,0.15370426148939398,1.4926810283544858,-1.8078134434729154
24395164,1418.0,1,188773,226648,0.47,-2.25,7.5900000000000025,-0.03,-0.09,0.065,26.59,21.975677,-38.83015357084652,-2078.4521986925256,7.930416130317503,0.115,-0.2555630311294749,-2.719648300525702
24435195,1349.25,1,190066,229394,0.58,-2.2775000000000003,10.13,-0.09,-0.01,0.065,26.59,22.015708,-192.90198189522002,-1818.9434738232208,10.399053141993265,0.11146748404803976,-1.2978971291885877,-2.37956096352769
24475177,1392.0,1,191329,231178,0.35,-0.96,9.23,0.065,0.02,-0.055,26.59,22.05569,-100.80556178153928,-938.6675568607418,9.286387887655781,0.08746427842267951,-0.6748420253602357,-1.225955463080555
24515164,1349.25,1,191457,234276,1.22,0.03,9.85,0.065,-0.06,-0.055,26.59,22.095677,-135.89987821945954,-32.60566822891554,9.925311078248379,0.1041633332799983,-0.9122637725358932,-0.038557332187753215
24555164,1505.0,1,191578,235332,0.51,-0.04,8.17,0.03,0.03,-0.055,26.59,22.135677,-19.818950605342735,493.5486804483585,8.186000244319565,0.06946221994724902,-0.1269475320367553,0.6509702795782688
24595164,1414.0,1,191894,235594,0.87,-1.37,10.12,-0.06,0.07,-0.055,26.59,22.175677,-52.13885819240418,617.0493386211912,10.249302415286612,0.10735455276791944,-0.3455997158298144,0.8128184408555175
24635177,1349.25,1,191697,235984,0.75,-0.0,9.1,-0.02,-0.12,-0.04,26.59,22.21569,-176.4648924418875,559.808072972153,9.130854286429063,0.12806248474865697,-1.1866961458784808,0.7378035078863804
24674195,1349.25,1,192000,236047,0.56,0.16,11.35,-0.13,0.04,0.0,26.59,22.254708,-138.4158822482823,523.2603067656961,11.364932907852998,0.13601470508735444,-0.9292851632639553,0.6899074978827104
24714145,1349.25,1,192178,236241,-0.08,0.18,12.149999999999999,-0.05,0.09,0.065,26.59,22.294658,-163.62300692673742,538.8402506304595,12.151596602916014,0.12175795661885921,-1.0998176081121136,0.710325083542747
24754164,1349.25,1,192005,235671,1.14,0.37,12.149999999999999,-0.01,-0.03,-0.055,26.59,22.334677,-172.7605206625741,510.7744929080771,12.208972110706124,0.0634428877022476,-1.1616351528373834,0.6735447833449659
24794177,1349.25,1,191526,236018,0.49,-1.09,9.61,0.06,-0.13,0.065,26.59,22.37469,-162.31298826769245,352.37764539426126,9.684022924384266,0.15724185193516388,-1.0909550072572611,0.4659650108845855
24834164,1349.25,1,191541,234261,0.97,0.15,9.78,-0.135,-0.07,-0.0,26.59,22.414677,-201.36722881573976,75.30006951653117,9.829130175147746,0.1520690632574555,-1.3551666223185772,0.10285361657759767
24874177,1349.25,1,191042,234025,-0.08,-1.56,12.149999999999999,-0.09,-0.06,0.065,26.59,22.45469,-179.63870242258332,-224.53594891354862,12.249999999999998,0.12619429464123963,-1.2081677568771818,-0.2900828178152247
24914198,1399.0,1,190976,233003,1.31,0.97,8.3,-0.05,-0.12,0.065,26.59,22.494711,-172.8458083141864,-439.7426555945767,8.458545974338616,0.14534441853748634,-1.1622121449350675,-0.5721121631334715
24954164,1349.25,1,191128,232711,-0.19,-1.25,10.45,-0.11,-0.02,0.065,26.59,22.534677,-210.69841284360982,-509.0290755736465,10.526210144206697,0.12932517156377563,-1.4182943945615116,-0.6629123243714985
24994198,1439.0,1,191054,232855,1.28,-0.25,9.69,-0.06,-0.06,0.0,26.59,22.574711,-150.6129027327288,-427.2490885373915,9.777371835007605,0.08485281374238571,-1.011801029298193,-0.5557392879932462
25034177,1561.0,1,191331,233517,0.8,-0.6,10.13,-0.05,-0.02,0.0,26.59,22.61469,-37.12831579067139,-228.662696305678,10.179238674871517,0.05385164807134505,-0.24404967682626552,-0.29549093860869546
25074175,1623.0,1,191427,234089,1.66,-0.81,9.3,-0.05,-0.06,0.065,26.59,22.654688,16.253085977755394,24.596226661461184,9.481650700168194,0.10161200716450788,0.11708873420291059,0.03640600522722479
25114864,1697.0,1,191712,233971,1.19,-0.39,9.33,-0.05,-0.02,-0.0,26.53,22.695377,57.7498020209883,247.23238049311172,9.41366559847969,0.05385164807134505,0.39782430124164986,0.32817167404710007
25155196,1711.0,1,192117,235028,0.08,-1.86,10.75,-0.03,0.06,0.065,26.53,22.735709,88.200673777658,352.43144388776267,10.910018331790281,0.09340770846134702,0.6038319944896237,0.4660355140493581
25195164,1851.0,1,192119,234175,1.56,-0.47,7.64,0.02,-0.04,-0.055,26.53,22.775677,169.3409116120361,297.1221281734709,7.811792367952441,0.07088723439378912,1.1527658102248328,0.3935524100538028
25235177,1953.0,1,191733,233885,0.68,-0.96,7.94,-0.03,0.02,0.02,26.53,22.81569,315.2634132365084,117.42132717572656,8.026680509401132,0.0412310562561766,2.1399676937323853,0.1580537118943823
25275164,2037.0,1,191570,233419,1.0,-0.18,8.28,-0.04,0.02,0.0,26.53,22.855677,317.5453197016342,-86.96982359908286,8.342110044826788,0.044721359549995794,2.1554053564319835,-0.10980179935276924
25315164,1947.0,1,191472,234082,0.66,-1.07,9.43,-0.04,0.04,0.065,26.53,22.895677,288.0269707892249,-216.23733819470155,9.513432608685468,0.08616843969807043,1.9557064113072895,-0.2792074515955448
25355164,2054.0,1,191597,234739,1.28,-0.46,8.7,-0.03,-0.01,0.04,26.53,22.935677,313.253114895111,-229.18429030515978,8.805679985100525,0.05099019513592785,2.1263675272950877,-0.2961744898625781
25395176,1922.0,1,191904,235428,0.72,-0.12,10.7,-0.04,0.04,0.01,26.53,22.975689,227.67645803916827,-148.2605785782861,10.724868297559647,0.05744562646538029,1.5474202375215276,-0.1901236060818976
25435164,1899.0,1,191841,236039,1.38,-0.4,10.07,-0.06,0.02,0.065,26.53,23.015677,155.99119270566365,-15.71139708038599,10.171986040100528,0.09069178573608527,1.0624516537242628,-0.016417314782483518
25475164,1884.0,1,191961,236575,0.56,-0.19,11.61,-0.1,0.06,0.03,26.53,23.055677,149.01812848260002,149.51120824982112,11.625050537524556,0.12041594578792296,1.0152771463097525,0.20010764362468528
25515164,1932.0,1,192380,237225,0.2,-0.77,10.2,-0.08,0.03,0.065,26.53,23.095677,189.07020857239948,353.0739590445218,10.230977470408192,0.10735455276791944,1.2862393931385465,0.4668775330171332
25555164,2001.0,1,192638,237493,0.49,-0.38,12.149999999999999,-0.135,0.1,-0.02,26.53,23.135677,241.2812735072999,589.1782165025345,12.165812755422467,0.16918924315688633,1.639460185476064,0.7762932114812295
25595177,1985.0,1,192736,236697,0.56,0.18,11.93,-0.03,-0.05,-0.02,26.53,23.17569,227.07814166150223,805.0026426812042,11.944492454683873,0.061644140029689765,1.5433724789620877,1.0591320809458051
25635175,2083.0,1,192942,235992,0.14,-1.22,12.149999999999999,-0.135,0.01,-0.01,26.53,23.215688,321.9419659083469,901.678413052934,12.21189993408069,0.13573871960498227,2.185149757522043,1.1858261075705792
25675176,2087.25,1,192921,234472,1.24,0.12,9.62,-0.05,-0.12,-0.0,26.53,23.255689,304.1942581519566,780.2852049019064,9.700329891297512,0.13,2.0650821166167432,1.0267397689107898
25713177,1744.0,1,192740,233981,0.22,-1.86,12.149999999999999,-0.135,-0.01,0.065,26.53,23.29369,-10.942250951270497,406.9773800689015,12.293514550363536,0.15016657417681206,-0.06689445920510563,0.5375182057748461
25753177,1579.0,1,191727,231082,0.98,-0.5,7.5900000000000025,-0.09,-0.05,-0.02,26.53,23.33369,-220.36636356693492,-148.55479164572384,7.669322003932293,0.10488088481701516,-1.4837004769509605,-0.1905091736140309
25793196,1522.0,1,191364,232308,-0.09,-1.49,10.39,-0.11,-0.01,0.065,26.53,23.373709,-235.80758519949035,-732.1841561447834,10.49668042763997,0.12816005617976295,-1.5881641676745837,-0.9553580489891812
25833198,1629.0,1,191253,230070,0.34,-0.94,7.5900000000000025,-0.12,0.03,-0.055,26.53,23.413711,-171.53120656502543,-1171.1420958959216,7.655540477327517,0.13536986370680884,-1.1533185383398774,-1.5306143794238571
25873212,1619.0,1,190641,230458,0.98,-0.37,8.54,-0.03,-0.02,0.065,26.53,23.453725,-149.15973527039762,-1346.010488904818,8.604004881449104,0.07433034373659253,-1.001969991316422,-1.7597801854423953
25913177,1535.0,1,191108,230523,0.8,-1.59,7.5900000000000025,-0.09,0.02,-0.04,26.53,23.49369,-260.29156274569965,-1233.356720758754,7.795909183668063,0.1004987562112089,-1.7538043429751478,-1.6121469217404474
25953175,1505.0,1,191105,231219,0.93,-0.82,7.62,0.02,-0.03,0.01,26.53,23.533688,-273.7334725096199,-904.9142455142312,7.720213727611432,0.03741657386773942,-1.84474219347219,-1.1817215985872485
25993164,1614.0,1,191816,232136,0.71,-1.52,9.31,-0.05,0.03,0.05,26.53,23.573677,-174.45714469672274,-486.1079908024615,9.459947145729727,0.07681145747868609,-1.1731132348567423,-0.6328741409352235
26033164,1663.0,1,192065,232977,0.74,-1.12,9.05,0.03,0.01,0.065,26.53,23.613677,-128.75853481025987,-91.47540594063408,9.149016340569078,0.07228416147400481,-0.8639508147271037,-0.11570638503070789
26073168,1663.0,1,192485,233299,0.6,-1.3,8.9,0.0,0.06,0.065,26.53,23.653681,-113.00908254155557,229.5615339702914,9.01443287178955,0.08845903006477067,-0.7574018673694901,0.3050139511633198
26113143,1792.0,1,192757,234251,0.72,-1.44,9.75,0.0,0.07,0.065,26.53,23.693656,-20.079558981099144,500.1076874920954,9.882029143855021,0.09552486587271401,-0.12871061227825675,0.6595658874522587
26153833,1941.0,1,192907,234922,0.39,-1.49,9.57,0.03,0.08,0.01,26.53,23.734346,182.043239805391,764.8546678619697,9.693147063776554,0.08602325267042626,1.2387002081265477,1.0065179815585374
26194144,2087.25,1,192962,235741,0.47,-1.24,9.89,0.06,0.06,-0.055,26.53,23.774657,254.10026715083853,1014.8066595881645,9.978506902337644,0.10111874208078342,1.726183854058308,1.334081177309746
26234164,1879.0,1,193245,236887,0.15,-1.44,10.19,0.04,0.05,-0.055,26.53,23.814677,128.36416157670877,1153.6424390974141,10.292336955230333,0.08440971508067066,0.8755479420786554,1.5160260832358308
26274164,1805.0,1,193398,236855,0.47,-1.52,12.149999999999999,0.05,-0.02,-0.055,26.53,23.854677,-34.83091654125945,1051.1533232639902,12.25372596396704,0.07697402159170326,-0.2285072016018143,1.3817136415534792
26314177,1535.0,1,192832,235328,0.03,-0.83,10.77,0.06,-0.03,-0.055,26.53,23.89469,-229.0406338547253,655.9040246158993,10.801976670961663,0.08674675786448736,-1.5423840649571308,0.8637376794918644
26354177,1440.0,1,192173,233505,0.36,-0.92,12.149999999999999,0.03,-0.08,-0.01,26.53,23.93469,-386.38829366896147,73.79560511003541,12.190098440947882,0.08602325267042626,-2.6068799748056835,0.10088200928820455
26394177,1349.25,1,191301,231951,0.94,0.28,8.77,0.05,-0.12,0.065,26.53,23.97469,-445.90557406906174,-466.34269821494854,8.82467563143258,0.14534441853748634,-3.0095291252666043,-0.6069716371775593
26434144,1349.25,1,191414,231206,-0.19,-0.73,11.41,-0.07,-0.02,0.065,26.53,24.014657,-456.2500377751759,-746.0075864030769,11.434907083138016,0.09759610647971569,-3.079511985626495,-0.9734737157633461
26474198,1349.25,1,191037,232779,1.18,-0.6,10.93,-0.01,-0.07,0.065,26.53,24.054711,-475.5547860560031,-688.9984225400759,11.009872842135826,0.09604686356149274,-3.210113391518756,-0.8987629532160922
26514177,1373.0,1,191822,233987,-0.25,-1.73,10.6,-0.07,0.03,-0.02,26.53,24.09469,-423.4249980623258,-393.97162171629367,10.743155960889705,0.07874007874011811,-2.857442457829274,-0.5121290198647797
26554198,1635.0,1,191936,235418,1.23,-0.3,9.89,0.02,-0.08,-0.055,26.53,24.134711,-201.76038055946827,-54.0076540155462,9.970707096289612,0.09912113800799505,-1.3578263912890398,-0.0666047296550645
26594177,1809.0,1,192109,234320,0.61,0.13,10.09,-0.08,-0.05,-0.055,26.53,24.17469,2.9454080786126777,162.86388256156823,10.109258133018466,0.10920164833920779,0.027058995534133004,0.21760638263922452
26634177,1963.0,1,191720,234561,0.89,-0.42,10.73,-0.06,-0.06,0.065,26.53,24.21469,130.66841293016506,184.10960138571474,10.775035962817016,0.10688779163215975,0.8911367734849379,0.24544899155787034
26674177,2064.0,1,191720,232752,1.04,-0.92,7.89,-0.11,-0.07,0.01,26.53,24.25469,240.6380600381085,29.012618971636098,8.011248342174895,0.1307669683062202,1.635108686966826,0.042193706972753035
26714177,2087.25,1,191738,233082,0.1,-1.21,10.97,-0.08,-0.02,0.065,26.53,24.29469,261.9104970755641,-226.99163040001807,11.036983283488293,0.105,1.7790219948966435,-0.293300999314399
26754177,2087.25,1,191473,230845,1.0,0.17,7.61,-0.04,-0.05,-0.03,26.53,24.33469,253.88907075197284,-477.7397476126606,7.677304214371084,0.07071067811865475,1.7247550580849031,-0.6219075210529657
