timestamp_us,ecg,leads,ir,red,accX,accY,accZ,gyroX,gyroY,gyroZ,temp,time_sec,ecg_filtered,ppg_filtered,accel_magnitude,gyro_magnitude,ecg_norm,ppg_norm
1950965,1759.75,1,196358.0,238157,0.67,-1.41,12.41,-0.03,-0.06,0.04,28.35,0.030472,-0.1659706579181074,-89.31336624538837,12.50780156542308,0.07810249675906654,0.006663668002771224,-0.10058013069001875
1991183,1759.75,1,196405.0,237263,-0.15,-1.33,9.65,-0.135,0.01,0.04,28.35,0.07069,-19.38883016441975,-382.08570074154477,9.742376506787243,0.14115594213493105,-0.18589816239179577,-0.43980195847777465
2031176,1759.75,1,195868.0,235857,0.18,-1.3,10.03,-0.07,-0.03,0.01,28.35,0.110683,-38.887381351279735,-567.1758180329431,10.11549801047877,0.07681145747868609,-0.3812216888064788,-0.6542573577595758
2071197,1759.75,1,195750.0,235329,0.39,-1.39,9.57,-0.08,-0.01,0.01,28.35,0.150704,-58.500113919195655,-573.325942662219,9.678279805833267,0.08124038404635961,-0.5776890084078974,-0.6613832240797517
2111176,1759.75,1,195699.0,236579,0.27,-1.53,10.12,-0.06,-0.03,0.0,28.35,0.190683,-77.77655545558783,-412.6055267121789,10.238564352486142,0.0670820393249937,-0.7707875879655368,-0.47516387601461985
2151178,1759.75,1,196299.0,236070,-0.22,-0.9,9.1,-0.07,0.02,0.03,28.35,0.230685,-98.40339768065186,-204.01703745944488,9.147043238117988,0.07874007874011811,-0.9774135841017966,-0.2334819947618403
2191204,1759.75,1,195908.0,237735,0.48,-1.17,9.79,-0.03,-0.07,0.02,28.35,0.270711,-117.32800343338002,-119.54675608856384,9.871342360591086,0.07874007874011811,-1.166987706620267,-0.13561016787051744
2231179,1759.75,1,196900.0,237542,-0.03,-1.49,10.51,-0.06,0.04,0.045,28.35,0.310686,-138.25243188316665,-262.9119063928343,10.615135420709432,0.08499999999999999,-1.3765947237702534,-0.3017207684878016
2271176,1759.75,1,195191.0,234980,0.1,-1.54,7.69,-0.02,-0.11,0.02,28.35,0.350683,-158.37407818066552,-575.4034832756836,7.843322000275139,0.11357816691600546,-1.5781600028739131,-0.6637903747602134
2311179,1759.75,1,195644.0,235376,0.19,-0.86,10.9,-0.03,0.01,0.045,28.35,0.390686,-177.2365456485748,-866.3093433980268,10.935524678770562,0.055,-1.7671116653542058,-1.0008496046040976
2351166,1759.75,1,194853.0,233705,-0.27,-0.78,7.45,-0.02,-0.01,0.045,28.35,0.430673,-200.5548139608407,-961.3172479947249,7.495585367401268,0.05024937810560445,-2.0006985792221896,-1.110930890484611
2391198,1759.75,1,195437.0,235784,0.28,-1.78,11.41,0.01,-0.02,0.01,28.35,0.470705,-216.08677301084808,-844.8082951493669,11.551402512249323,0.024494897427831782,-2.1562874219368386,-0.9759373296829885
2431169,1759.75,1,195787.0,236340,0.26,-1.03,9.2,-0.05,0.03,0.01,28.35,0.510676,-241.4381132189133,-664.6804471139001,9.261128440962256,0.05916079783099616,-2.4102402988108182,-0.7672314833767748
2471169,1759.75,1,195695.0,236161,0.15,-1.57,9.72,0.01,-0.06,0.045,28.35,0.550676,-256.61953514820044,-589.4101186851393,9.847121406786858,0.07566372975210778,-2.562317693628535,-0.6800192184893488
2511166,1840.0,1,195515.0,234984,-0.08,-1.08,9.05,-0.01,0.03,0.01,28.35,0.590673,-198.30099415125096,-643.6270088940076,9.114565266648762,0.033166247903554,-1.9781213103321293,-0.742837833592689
2551178,1950.0,1,195468.0,235694,-0.44,-1.88,10.03,0.01,-0.0,0.0,28.35,0.630685,-108.41534935020192,-670.8910640040848,10.214151947176035,0.01,-1.0777066616565918,-0.7744274392952315
2591176,2031.0,1,195495.0,235396,0.64,-0.63,8.97,0.0,-0.03,-0.0,28.35,0.670683,-41.073167760747815,-461.4173777155597,9.014843315332774,0.03,-0.40311744431134444,-0.5317199209823448
2631178,2128.0,1,196069.0,238290,-0.47,-2.27,11.45,0.0,-0.0,0.0,28.35,0.710685,29.458077258960206,59.85004317193138,11.682307135151001,0.0,0.3034176909222571,0.07224864587001804
2671176,2239.0,1,196910.0,239216,0.31,-1.63,10.33,0.01,0.01,-0.075,28.35,0.750683,134.23198744030597,741.5190315536138,10.462404121424482,0.07632168761236874,1.3529730869491625,0.8620671257581872
2711170,2357.0,1,197423.0,240757,0.15,-1.02,11.59,0.05,-0.12,-0.075,28.35,0.790677,223.6192112477882,1289.9668601820915,11.635763833973257,0.15008331019803633,2.248394885378053,1.4975283799567822
2751178,2349.0,1,197636.0,240948,0.0,-0.73,11.33,-0.0,-0.01,-0.075,28.35,0.830685,212.6760916786492,1468.5941441333998,11.35349285462408,0.07566372975210778,2.1387739866898374,1.7044955917290434
2791252,2320.0,1,197149.0,240371,-0.59,-1.46,10.28,-0.04,-0.06,0.0,28.35,0.870759,156.77642675227682,1260.4423405898804,10.399908653444989,0.07211102550927978,1.5788082962042704,1.463319678107063
2831195,2295.0,1,197053.0,239609,0.25,-1.27,11.82,-0.02,-0.06,-0.0,28.35,0.910702,131.96904419009437,871.2085621498563,11.890660200342115,0.06324555320336758,1.3303044254946899,1.0123324153030606
2871199,2316.0,1,196214.0,238987,-0.02,-0.83,9.93,-0.05,-0.08,0.0,28.35,0.950706,125.49305033915209,571.8853887726957,9.964647510072798,0.09433981132056604,1.2654322232534143,0.6655204320363672
2911195,2299.0,1,196422.0,239852,0.36,-1.0,10.44,-0.06,-0.01,-0.01,28.35,0.990702,117.08961066668951,501.4640890360569,10.493960167639287,0.06164414002968976,1.1812521498157238,0.5839265134956602
2951199,2301.0,1,196596.0,239419,0.49,-0.91,9.56,-0.07,-0.04,0.01,28.35,1.030706,86.71220119416546,580.4003482051587,9.615705902324592,0.08124038404635961,0.8769514515405252,0.6753863235906001
2989862,2266.0,1,196450.0,240221,0.74,-1.14,9.88,-0.04,-0.05,-0.01,28.35,1.069369,70.62625422324122,600.4609693239458,9.973043667807739,0.06480740698407861,0.7158131260326346,0.6986296418986078
3030198,2285.0,1,196585.0,238885,0.72,-0.5,9.0,-0.1,-0.03,-0.01,28.35,1.109705,56.1567123769378,417.25400158399015,9.042588125088967,0.10488088481701516,0.5708668727474466,0.4863561613214458
3070195,2221.0,1,195905.0,238138,0.51,-1.52,8.88,-0.03,-0.07,-0.01,28.35,1.149702,12.482911738092325,86.47975196456305,9.023574679693187,0.07681145747868609,0.13337176498478234,0.10310326369324266
3110199,2224.0,1,195570.0,236485,1.4,-0.79,7.83,-0.06,-0.05,-0.02,28.35,1.189706,-6.099486108472663,-174.0168134571849,7.9933097024949555,0.0806225774829855,-0.05277434617231985,-0.1987221161086804
3150195,2207.0,1,195476.0,237573,-0.05,-2.28,9.31,-0.05,0.01,0.045,28.35,1.229702,-14.346927193161328,-172.98563679458036,9.585249083878834,0.06800735254367722,-0.1353917294394583,-0.19752733917436804
3190178,2230.0,1,195748.0,237414,1.02,-1.03,8.41,-0.01,0.0,-0.01,28.35,1.269685,8.21701005729075,69.3027247962628,8.53401429574617,0.01414213562373095,0.09063879720438649,0.08320103296499314
3229176,2305.0,1,196099.0,238685,-0.1,-1.61,10.47,0.02,0.03,-0.0,28.35,1.308683,77.89233674811415,304.03293956184206,10.593535764795435,0.03605551275463989,0.7885999114905564,0.35517212827638306
3269178,2309.0,1,196157.0,238498,0.21,-1.47,8.46,-0.02,0.02,-0.01,28.35,1.348685,97.30560913333962,237.39112935364878,8.589330590913358,0.030000000000000002,0.9830691715495474,0.2779573302839012
3309178,2290.0,1,195944.0,237775,-0.46,-1.39,9.78,0.01,-0.02,-0.01,28.35,1.388685,69.93221082312833,-225.46169593699486,9.888988825961933,0.024494897427831782,0.7088606605342624,-0.2583289334507628
3349198,2243.0,1,194804.0,231613,0.27,-1.14,9.28,0.01,0.01,-0.01,28.35,1.428705,39.962595944122484,-883.0229686312867,9.353657038827112,0.017320508075688773,0.4086449774632958,-1.0202149128404208
3389165,2204.0,1,193503.0,231688,-0.07,-1.12,10.93,0.01,0.01,-0.0,28.35,1.468672,2.241010565882081,-1379.811086667405,10.987456484555468,0.01414213562373095,0.030775206144302895,-1.595820438251374
3429178,2186.0,1,194200.0,234315,0.05,-0.77,10.01,-0.0,0.05,-0.01,28.35,1.508685,-6.377140855271451,-1469.7617749351978,10.039696210543424,0.050990195135927854,-0.05555570688731812,-1.7000421603532208
3469176,2198.0,1,195051.0,236504,-0.28,-1.0,10.93,-0.03,0.03,-0.01,28.35,1.548683,19.03008147255552,-1170.755248362092,10.97922128386162,0.04358898943540673,0.19895695992134899,-1.3535970611632604
3509198,2193.0,1,195149.0,237204,0.67,-1.32,10.34,-0.06,-0.0,-0.01,28.35,1.588705,18.932255291664077,-691.9201228199958,10.445424835783367,0.0608276253029822,0.19797700225966006,-0.7987928417860982
3549196,2179.0,1,195473.0,237069,0.02,-0.71,11.06,-0.03,-0.01,-0.01,28.35,1.628703,20.743747205144007,-236.78957080794822,11.082783946283532,0.033166247903554,0.2161233242720886,-0.27145402064620694
3589198,2182.0,1,195250.0,237750,0.71,-1.07,10.74,-0.04,-0.05,-0.0,28.35,1.668705,36.085948479932775,119.95770162093821,10.816496660194558,0.06403124237432849,0.36981129971382554,0.14189262298351107
3629195,2142.0,1,196266.0,239098,-0.28,-1.15,11.82,-0.08,0.08,-0.01,28.35,1.708702,1.7436183135359866,398.48922102418805,11.87911191966807,0.11357816691600547,0.02579266114346962,0.46461427382211384
3669199,2099.0,1,195962.0,239216,0.62,-1.52,10.33,-0.06,-0.09,-0.0,28.35,1.748706,-14.799088997994852,608.8545995757136,10.459622364120035,0.10816653826391967,-0.13992118587874638,0.7083549549159025
3709196,2090.0,1,197029.0,240274,-0.7,-1.77,12.71,-0.09,0.06,0.01,28.35,1.788703,-27.75991178451984,705.6050406587648,12.8517314008658,0.10862780491200215,-0.26975409436713943,0.8204552376148987
3749178,1995.0,1,195838.0,238324,0.74,-0.94,8.2,-0.09,-0.15,-0.01,28.35,1.828685,-93.69221083699647,638.4905919999645,8.286808794704992,0.1752141546793523,-0.930220045511024,0.7426928152050566
3789195,2016.0,1,196296.0,239166,-1.09,-1.73,11.3,-0.09,0.04,0.0,28.35,1.868702,-67.89107552771674,429.9266054951836,11.483509916397512,0.09848857801796104,-0.6717614202616228,0.5010393241584786
3829179,2122.0,1,195752.0,237604,0.66,-1.2,7.32,-0.12,-0.1,-0.0,28.35,1.908686,46.89812126260256,193.77894129452343,7.447012823944914,0.1562049935181331,0.4781204605267121,0.22742589543128855
3869196,2089.0,1,196041.0,238464,-0.98,-1.89,10.75,-0.08,0.06,0.01,28.35,1.948703,46.191255164957745,71.46864209635274,10.958786429162675,0.1004987562112089,0.47103954576684964,0.08571058164430415
3909178,2010.0,1,195493.0,236590,0.56,-1.18,6.180000000000001,-0.08,-0.03,0.0,28.35,1.988685,-54.78439465714406,129.6171708384123,6.316518028154436,0.08544003745317531,-0.5404674024292966,0.15308460534431076
3949176,1949.0,1,196202.0,238944,-0.32,-2.04,11.47,-0.06,0.04,0.01,28.35,2.028683,-60.487575208382445,293.9436787459514,11.654394021140696,0.07280109889280519,-0.5975980746711509,0.3434821661736327
3989178,1975.0,1,195968.0,237466,0.52,-1.04,6.6,-0.08,0.06,0.01,28.35,2.068685,-68.15264242560008,378.19107222200415,6.70164158993899,0.1004987562112089,-0.674381623598697,0.4410957431206583
4029852,1870.0,1,196038.0,237903,0.69,-1.12,10.86,0.02,-0.02,-0.075,28.35,2.109359,-127.87040934572543,208.00271382714234,10.939382980771812,0.08015609770940699,-1.272594522222135,0.24390632595029854
4070178,1921.0,1,195978.0,236415,0.22,-0.79,7.82,-0.06,0.02,-0.06,28.35,2.149685,-83.91041574885871,-236.08985940042427,7.862881151333778,0.08717797887081347,-0.8322325236192206,-0.27064329724574393
4110176,1935.0,1,194904.0,232686,1.01,-1.25,8.96,-0.02,-0.12,-0.01,28.35,2.189683,-69.35835777136376,-768.1634085893844,9.102977534850892,0.12206555615733702,-0.6864596785746774,-0.8871324275592744
4150198,1893.0,1,194691.0,230694,0.63,-1.1,8.72,-0.03,0.03,-0.01,28.35,2.229705,-72.64230209684095,-1098.3088587786679,8.811657051883035,0.04358898943540673,-0.71935605021043,-1.2696567642311554
4190176,1929.0,1,194491.0,233130,0.06,-1.55,8.4,0.01,0.03,0.045,28.35,2.269683,-78.70097937448718,-1026.082665553099,8.542019667502528,0.055,-0.7800478523826788,-1.1859715986833472
4229147,1806.0,1,195785.0,235584,0.26,-1.39,9.91,-0.0,0.11,-0.0,28.35,2.308654,-140.564908791074,-578.7104738229219,10.010384607995839,0.11,-1.3997595804858318,-0.6676220324878521
4269176,1943.0,1,195922.0,237874,-0.37,-1.15,9.48,0.04,-0.02,-0.0,28.35,2.348683,-53.66216989293994,16.648020996068603,9.556662597371533,0.044721359549995794,-0.5292257006088069,0.022192451346570916
4309198,1961.0,1,196672.0,238970,0.09,-0.99,10.74,0.03,0.01,0.02,28.35,2.388705,16.64411976696834,499.66875966540834,10.785907472252857,0.03741657386773942,0.1750559813430155,0.5818463479921794
4349147,2017.0,1,196785.0,239969,-0.67,-1.65,10.6,0.0,0.01,0.01,28.35,2.428654,27.671763129352396,744.0289799984249,10.748553391038257,0.01414213562373095,0.2855235832146803,0.8649752874892713
4389169,2001.0,1,196956.0,240438,-0.37,-1.81,11.81,0.03,-0.02,-0.075,28.35,2.468676,67.78769801582038,798.1992553305091,11.953622881787764,0.08321658488546618,0.6873783565440502,0.9277398920805457
4429199,2039.0,1,196631.0,239343,-0.67,-0.81,11.13,0.02,-0.01,-0.07,28.35,2.508706,31.325583193213948,786.8073592364948,11.179530401586645,0.07348469228349534,0.3221251241660463,0.914540626440812
4469199,1995.0,1,196927.0,241189,-0.82,-1.48,13.38,-0.01,0.05,0.01,28.35,2.548706,89.80597071941352,772.7014022235883,13.48655626911481,0.05196152422706632,0.9079427784239789,0.8981967033414917
4509178,2079.0,1,197270.0,240319,-0.32,-2.06,12.65,-0.03,-0.03,-0.075,28.35,2.588685,40.326077519860696,701.7787014976175,12.820627909739835,0.08616843969807042,0.41228609430728974,0.8160218345537318
4549216,1775.0,1,196657.0,239410,-0.7,-1.75,12.42,0.02,-0.1,-0.02,28.35,2.628723,-115.46821353358506,470.5311197824162,12.56220124022856,0.10392304845413264,-1.1483575674813569,0.5480859058536146
4589198,2000.0,1,196353.0,238431,-0.97,-1.06,9.85,-0.11,0.02,-0.02,28.35,2.668705,-43.245582769022185,46.315366017052476,9.954245325488015,0.11357816691600546,-0.4248792540061223,0.05656663844641197
4629225,1907.0,1,196025.0,237574,0.37,-2.03,11.1,-0.07,-0.08,0.045,28.35,2.708732,-14.06249102087433,-469.0444569415321,11.290163860635504,0.11543396380615195,-0.13254243691107645,-0.5405570666100863
4669176,1926.0,1,195303.0,234821,-0.06,-1.49,7.57,-0.09,-0.07,-0.01,28.35,2.748683,-80.17524598325907,-885.1003896999861,7.715477950198549,0.11445523142259598,-0.7948160754235167,-1.0226219250098654
4709213,1923.0,1,195146.0,238158,0.35,-1.64,9.12,-0.08,-0.04,-0.02,28.35,2.78872,-64.05745811316504,-1039.4252127603434,9.272890595709624,0.0916515138991168,-0.6333587889502469,-1.2014309939802934
4749196,1955.0,1,196359.0,237514,0.0,-1.71,8.44,-0.135,0.1,0.045,28.35,2.828703,-2.625610403285382,-897.670768711732,8.611486515114565,0.17392527130926086,-0.017975368209242643,-1.0371866445612794
4789169,2082.0,1,195216.0,237651,0.01,-1.36,6.65,-0.02,-0.16,-0.0,28.35,2.868676,38.21350938235197,-572.346371448534,6.787650550816535,0.161245154965971,0.3911237907876531,-0.6602482400037244
4829198,2031.0,1,196506.0,239313,0.25,-2.06,10.97,-0.05,0.03,0.03,28.35,2.908705,88.89057777360443,-255.9947698905132,11.164542086444927,0.06557438524302,0.8987729802929748,-0.2937062008155765
4869169,2210.0,1,196468.0,239039,-1.12,-0.99,6.180000000000001,-0.02,0.03,-0.02,28.35,2.948676,154.39852504220983,-110.37616609219202,6.358215158360088,0.0412310562561766,1.5549880573041213,-0.12498462736029482
4909195,2093.0,1,196551.0,238516,0.3,-1.41,12.12,0.06,-0.04,0.0,28.35,2.988702,118.38098672437842,-170.83880796887652,12.205429119863012,0.07211102550927978,1.1941882968708581,-0.19503990743169342
4949169,2149.0,1,196341.0,236462,-1.12,-1.89,8.12,-0.07,0.06,-0.0,28.35,3.028676,119.66954054547477,-323.34274827942477,8.411949833421499,0.09219544457292887,1.2070961726355594,-0.37173920337441907
4989196,2087.0,1,196123.0,235210,-0.24,-1.58,9.09,0.01,-0.01,0.045,28.35,3.068703,61.07654633926706,-378.8197463979255,9.229414932702939,0.04716990566028302,0.6201504994993903,-0.43601784751038936
5029864,1935.0,1,196137.0,235447,-0.2,-1.19,7.76,-0.05,0.09,0.045,28.35,3.109371,-70.56617977220056,-203.2547692539248,7.853260469384675,0.11236102527122116,-0.6985588366210282,-0.23259878967900346
5068176,2071.0,1,197380.0,239610,-0.29,-1.58,10.49,0.02,0.08,-0.0,28.35,3.147683,16.955017896053473,187.42409829138697,10.612285333517942,0.08246211251235322,0.1781703521671185,0.2200628313544248
5108179,2075.0,1,197169.0,238628,0.57,-0.43,8.49,-0.04,-0.0,-0.01,28.35,3.187686,62.04970555756909,634.7891754670874,8.519970657226468,0.04123105625617661,0.6298989617548733,0.7384041542431278
5148195,2093.0,1,197589.0,240853,-0.3,-1.53,11.92,-0.0,0.05,-0.01,28.35,3.227702,43.6278793888457,935.2424080194597,12.02153484377099,0.050990195135927854,0.4453613509451958,1.0865254850599693
5188198,2181.0,1,197615.0,239567,0.32,-1.03,9.59,-0.06,0.09,-0.0,28.35,3.267705,141.19720322077205,956.0015970068971,9.650461128878765,0.10816653826391967,1.4227459893275018,1.1105782018025836
5228176,2189.0,1,197422.0,240607,-0.66,-1.92,11.13,-0.0,-0.06,-0.01,28.35,3.307683,152.29933578020194,702.4582991496726,11.31365988528911,0.0608276253029822,1.5339597744672135,0.8168092530715612
5268213,2142.0,1,197466.0,237504,0.29,-1.02,9.66,-0.06,0.08,-0.02,28.35,3.34772,85.12441905105885,308.1075091069803,9.718029635682328,0.1019803902718557,0.8610461053228615,0.35989314445753545
5308176,2073.0,1,195992.0,238121,-0.72,-1.37,10.78,-0.01,-0.09,-0.02,28.35,3.387683,33.785678139625404,-43.502650753672945,10.890532585691114,0.09273618495495703,0.3467687202795792,-0.047501363298598484
5348215,2043.0,1,196759.0,237374,0.42,-1.53,11.04,-0.05,-0.0,-0.03,28.35,3.427722,-8.834654845683582,-220.52408399300515,11.153425482783303,0.05830951894845301,-0.08017344869903767,-0.2526079497675561
5388195,1994.0,1,196461.0,238849,-0.56,-1.62,10.93,-0.01,-0.11,-0.01,28.35,3.467702,-62.45426700306443,-204.58019870174334,11.063584410126765,0.11090536506409417,-0.617299085942541,-0.2341345037712058
5428216,1921.0,1,196952.0,239415,-0.44,-1.41,9.63,-0.1,0.02,-0.01,28.35,3.507723,-114.18044776078456,-75.65236927859101,9.74261771804683,0.10246950765959599,-1.135457585860721,-0.08475176231479296
5468196,1934.0,1,196439.0,238242,-0.89,-1.23,8.08,-0.04,-0.05,-0.03,28.35,3.547703,-138.0504272744122,55.327731543661045,8.221398907728538,0.07071067811865475,-1.3745711758586254,0.06700885154652869
5508213,1898.0,1,196885.0,239690,0.24,-1.19,11.19,-0.05,0.04,-0.02,28.35,3.58772,-126.01948186357684,108.60028709322411,11.255656355806176,0.0670820393249937,-1.2540531608929535,0.1287333095474768
5548178,2000.0,1,196663.0,238415,0.54,-0.7,9.45,-0.09,-0.01,-0.03,28.35,3.627685,-72.94522392154535,60.71241162900292,9.491264404703937,0.09539392014169455,-0.7223905197185598,0.07324783250675321
5588198,1959.0,1,196725.0,238614,-0.64,-1.82,11.09,-0.05,0.05,-0.02,28.35,3.667705,-65.57353068572186,-57.433356941787345,11.256558088510005,0.07348469228349536,-0.6485457963506703,-0.06364223133395723
5628195,2001.0,1,196359.0,236303,0.64,-1.09,8.44,-0.08,-0.05,-0.03,28.35,3.707702,-60.100170981191575,-171.3776371894404,8.53412561426184,0.09899494936611666,-0.5937173166046813,-0.19566422404746822
5668199,2000.0,1,196759.0,238391,-0.66,-2.04,10.93,-0.07,0.02,-0.02,28.35,3.747706,-28.940954597687817,-184.21507690355676,11.13831674895269,0.07549834435270751,-0.28158499630974865,-0.21053837454202204
5708196,1983.0,1,196571.0,236638,0.33,-1.22,6.99,-0.08,-0.04,-0.02,28.35,3.787703,-64.63623987500185,-20.969645738117837,7.103337243859396,0.0916515138991168,-0.6391566399630264,-0.021393407572243398
5748199,1961.0,1,196947.0,238083,-1.35,-1.86,10.37,-0.02,0.06,-0.01,28.35,3.827706,-66.58725273438127,308.5818279397699,10.621628876966094,0.06403124237432849,-0.6587005900812889,0.36044271585638343
5788198,2011.0,1,197161.0,238887,-0.21,-1.35,8.7,-0.06,-0.0,-0.02,28.35,3.867705,-27.64755441301903,669.2967661370918,8.806622508090147,0.06324555320336758,-0.2686285728958307,0.7783865111819263
5828213,1988.0,1,197467.0,239586,-0.4,-1.51,10.13,-0.01,0.0,-0.01,28.35,3.90772,-31.572980494762817,838.1528836940273,10.249731703805715,0.01414213562373095,-0.3079508824160921,0.9740323222158913
5868196,2023.0,1,197400.0,238637,-0.24,-1.15,9.52,-0.02,-0.0,-0.02,28.35,3.947703,-9.327779578824675,633.1440501716893,9.592210381345897,0.0282842712474619,-0.08511324452880818,0.7364980232878064
5908213,2035.0,1,197321.0,237969,-0.69,-1.89,10.41,-0.03,-0.02,-0.02,28.35,3.98772,26.49430185255729,60.144129949880615,10.602655327794071,0.0412310562561766,0.2737285587230482,0.07258939068293158
5948211,2074.0,1,195994.0,230021,0.08,-0.67,9.31,-0.04,0.0,-0.03,28.35,4.027718,47.90166085615179,-647.1610074682984,9.334420174815358,0.05,0.48817325318962995,-0.7469325150721849
5988178,2065.0,1,194755.0,231584,-0.26,-1.59,11.6,-0.02,0.01,0.01,28.35,4.067685,68.1524865590319,-1156.2888409120865,11.711349196399192,0.024494897427831782,0.6910325657195383,-1.3368355007338624
6028176,2071.0,1,195736.0,232633,0.17,-1.31,9.93,-0.06,0.03,-0.02,28.35,4.107683,52.69266993507433,-1247.048140675147,10.017479722964255,0.06999999999999999,0.5361663978808388,-1.4419941237552134
6068917,2037.0,1,196228.0,235453,-1.07,-1.47,11.19,-0.02,0.03,-0.02,28.35,4.148424,49.412847283939485,-932.1130240875518,11.336749975191301,0.0412310562561766,0.503311314439248,-1.0770933005020635
6109199,2069.0,1,196846.0,235045,-0.8,-1.85,9.86,-0.04,0.03,-0.02,28.35,4.188706,63.07180797644842,-401.16931470713706,10.06390083416962,0.05385164807134504,0.6401377044644868,-0.4619132635686221
6149198,2017.0,1,196688.0,235735,-1.0,-2.24,9.83,-0.01,-0.04,0.02,28.35,4.228705,32.67577035627068,128.76061898213067,10.131460901567948,0.045825756949558406,0.33565040178697025,0.15209215813517507
6189196,1984.0,1,197070.0,238519,-0.4,-2.04,8.9,-0.01,-0.04,0.045,28.35,4.268703,-3.7566231395488794,516.1471105516962,9.139562352760663,0.06103277807866851,-0.029305102093049307,0.6009390546722496
6229198,1984.0,1,198021.0,240179,-0.62,-1.34,10.09,0.0,-0.03,-0.02,28.35,4.308705,-1.971189064239256,705.613682542975,10.197455564992671,0.03605551275463989,-0.011419810184518818,0.8204652505683506
6269226,2000.0,1,197949.0,240665,-1.02,-2.1,8.82,-0.02,-0.03,-0.01,28.35,4.348733,30.896702530480518,703.6114040968444,9.123749229346453,0.03741657386773942,0.3178288827349079,0.8181453026968916
6309213,2011.0,1,197790.0,239481,-0.88,-1.45,8.66,0.02,-0.04,-0.05,28.35,4.38872,25.689171781191135,568.5072427556627,8.824539648049637,0.0670820393249937,0.2656633007838983,0.6616063297411351
6349196,1968.0,1,197488.0,239275,-0.82,-2.01,11.65,0.04,-0.01,-0.01,28.35,4.428703,9.469509306392327,398.64459465451876,11.850527414423377,0.042426406871192854,0.1031855022298925,0.46479429809579226
6389199,2030.0,1,197778.0,240043,-1.5525,-1.85,9.4,-0.0,0.04,-0.0,28.35,4.468706,53.45276524856861,287.02665714970675,9.705295268563447,0.04,0.5437805275472022,0.3354677316377893
6429195,2003.0,1,197606.0,239312,-1.21,-2.34,10.3,0.02,0.0,-0.02,28.35,4.508702,44.90944741641546,258.02129134941833,10.631542691444173,0.0282842712474619,0.45819924767333453,0.3018605493903305
6469194,1981.0,1,197797.0,240674,-0.99,-2.27,12.09,0.01,-0.0,0.01,28.35,4.548701,17.139926916451287,239.37179596927814,12.341033182031397,0.01414213562373095,0.180022647836877,0.2802522375221423
6509176,2047.0,1,197688.0,239033,-1.36,-1.56,8.53,-0.07,-0.01,-0.02,28.35,4.588683,87.60654680188601,106.68279633736223,8.777476858414381,0.07348469228349536,0.8859104114273081,0.12651160126998884
6549215,2087.0,1,197664.0,240559,-1.35,-1.95,12.0,0.02,0.01,-0.01,28.35,4.628722,128.2448927166042,-218.20691223958275,12.232129822725067,0.024494897427831782,1.292998351226221,-0.24992314951535047
6589178,2035.0,1,197804.0,237403,-0.29,-1.22,8.15,-0.11,0.04,-0.0,28.35,4.668685,83.16563834077985,-686.2434161288638,8.245908076130851,0.11704699910719625,0.8414243420370549,-0.7922155030396122
6629198,2017.0,1,196171.0,237156,-0.45,-1.84,9.9,-0.03,-0.07,-0.01,28.35,4.708705,47.492719637938315,-1131.6789985075463,10.079588285242608,0.07681145747868609,0.484076751861285,-1.308321209120881
6669212,1913.0,1,196961.0,235029,0.37,-2.535,10.21,-0.08,-0.01,0.03,28.35,4.748719,-18.83729297472884,-1379.2601577440553,10.526501080606035,0.08602325267042626,-0.18037322939513956,-1.5951821022669257
6709178,1871.0,1,196634.0,238523,-1.23,-2.02,8.57,0.0,-0.18,-0.01,28.35,4.788685,-123.90410948990151,-1361.14516766186,8.890343075494894,0.18027756377319948,-1.232862766399187,-1.574193097084402
6749199,1759.75,1,197987.0,237423,-0.11,-1.01,8.92,-0.03,0.01,0.045,28.35,4.828706,-146.5514168293158,-1140.0585519565677,8.977672304110905,0.055,-1.4597284391837655,-1.318030211994783
6787178,1897.0,1,197304.0,236303,0.02,-0.91,6.83,-0.09,-0.195,-0.02,28.35,4.866685,-125.93948991177265,-826.040029918885,6.890384604650164,0.2156965461012299,-1.2532518546850484,-0.9541914046561379
6827195,1759.75,1,198834.0,237004,-1.22,-1.09,8.44,-0.05,0.03,0.045,28.35,4.906702,-131.4030590557341,-477.6817135690226,8.597098347698484,0.07365459931328118,-1.307982259102386,-0.5505646582949069
6867178,1893.0,1,197868.0,234253,-0.54,-0.56,6.180000000000001,-0.07,-0.09,0.04,28.35,4.946685,-143.41928385801688,-82.57338656671811,6.228771949590064,0.12083045973594572,-1.4283528127953762,-0.09277082647490047
6907195,1766.0,1,200104.0,239721,-1.13,-1.56,11.23,-0.03,0.15,-0.01,28.35,4.986702,-134.8674144574806,379.58012398349575,11.394007196767959,0.1532970971675589,-1.3426858689930987,0.44270517345920407
6947199,1945.0,1,199485.0,236608,-0.43,-0.7,6.7,-0.02,0.03,-0.04,28.35,5.026706,-81.80838981421236,869.1235803817783,6.750177775436733,0.053851648071345036,-0.8111758248811661,1.0099166428992619
6987194,1904.0,1,200956.0,241802,-0.7,-2.3,13.14,-0.0,0.13,-0.04,28.35,5.066701,-30.718143904957298,1284.5476213190268,13.358128611448537,0.13601470508735444,-0.2993876976117957,1.4912493573315369
7027201,2023.0,1,200989.0,240569,-0.91,-0.65,7.82,-0.09,0.05,-0.05,28.35,5.106708,19.229069707926453,1523.2029327947048,7.899556949601668,0.11445523142259598,0.20095029180920115,1.7677682815302935
7067195,1996.0,1,201023.0,242484,-0.54,-1.78,12.45,0.02,0.05,-0.05,28.35,5.146702,21.313297275609987,1541.8086196089448,12.588188908655605,0.07348469228349536,0.22182869833639934,1.7893258344296639
7107864,1946.0,1,201045.0,241971,-1.24,-2.2,9.73,-0.12,0.08,-0.05,28.35,5.187371,-42.57953225710509,1362.6431107851054,10.052387776046048,0.15264337522473748,-0.4182072026567061,1.5817350062718756
7148198,1959.0,1,200610.0,242307,-1.41,-1.97,10.87,-0.02,-0.06,-0.05,28.35,5.227705,-40.586078819206456,1032.2088808262608,11.136691609270681,0.0806225774829855,-0.3982381110302354,1.198876073773421
7188215,2013.0,1,200616.0,241202,-1.43,-1.57,9.92,-0.09,0.04,-0.03,28.35,5.267722,16.87994880298746,587.1926823375859,10.144762195340018,0.10295630140987,0.17741835988615934,0.6832562885014322
7228198,2058.0,1,200380.0,240671,-1.18,-2.08,10.58,-0.07,-0.05,0.02,28.35,5.307705,56.0224363275519,66.1508228588252,10.846898174132548,0.08831760866327848,0.5695217845289559,0.07954906927086415
7268198,2070.0,1,199884.0,236904,-1.5525,-1.7,9.35,-0.1,0.11,-0.03,28.35,5.347705,46.13646843307501,-456.8799753951095,9.629265613223057,0.15165750888103102,0.4704907286999035,-0.5264626417684451
7308199,1996.0,1,198637.0,239262,-1.1,-1.72,10.24,-0.04,-0.02,-0.04,28.35,5.387706,5.148148082277798,-873.4885169851746,10.441551608836686,0.06,0.05989697760481507,-1.0091677825850496
7348216,2053.0,1,199896.0,239327,-0.86,-1.17,10.54,-0.1,0.08,-0.075,28.35,5.427723,-4.242475449949901,-1093.0608831133395,10.639553562062648,0.1484082207965583,-0.034172047625299955,-1.263576176389951
7388198,1972.0,1,198857.0,238902,-0.67,-1.71,9.72,-0.07,-0.05,-0.05,28.35,5.467705,-9.152952838364364,-1098.186914495435,9.891986655874542,0.099498743710662,-0.08336194643845034,-1.2695154730032199
7428213,2078.0,1,199875.0,240666,-0.52,-1.76,10.77,-0.1,0.08,-0.05,28.35,5.50772,-3.565798807052781,-948.1279144229583,10.925241416096945,0.1374772708486752,-0.027393550758200196,-1.0956490167747306
7468198,2033.0,1,199928.0,241223,-1.5525,-1.85,9.09,-0.06,0.03,-0.05,28.35,5.547705,49.23755089164493,-729.936660904986,9.40536316417394,0.08366600265340755,0.5015553116889607,-0.8428408545792009
7508199,2161.0,1,200025.0,241060,-0.44,-1.45,9.64,-0.03,-0.01,-0.07,28.35,5.587706,72.31061976956603,-505.7101664000344,9.758365641848025,0.07681145747868609,0.7326859805912475,-0.5830399364517763
7548211,2057.0,1,200114.0,241399,-0.8,-1.14,9.95,-0.04,0.02,-0.05,28.35,5.627718,54.97369028274976,-296.9981167738239,10.046994575493708,0.0670820393249937,0.5590161436830734,-0.341214891481684
7588198,2143.0,1,200700.0,242556,-1.24,-2.33,9.96,-0.03,0.03,-0.02,28.35,5.667705,64.20689976878747,-101.29403966722502,10.303790564641734,0.0469041575982343,0.6515082996209842,-0.11446158551831631
7628198,2112.0,1,201108.0,242918,-1.2,-1.68,9.86,-0.0,-0.07,-0.04,28.35,5.707705,81.35129419823285,90.95548033462975,10.073827475195314,0.0806225774829855,0.8232494482895172,0.10828908413966012
7668213,2176.0,1,201061.0,243096,-1.47,-2.17,9.54,-0.04,-0.06,-0.03,28.35,5.74772,115.27746934982522,289.4068948664629,9.893502918582477,0.07810249675906654,1.1630993225118054,0.33822560351880876
7708229,2189.0,1,200988.0,242255,-1.37,-1.6,8.75,-0.01,-0.07,-0.03,28.35,5.787736,131.38919300834482,490.29274965373327,8.999966666604937,0.07681145747868609,1.324495861743996,0.5709827967656256
7748213,2145.0,1,201305.0,242952,-1.34,-2.26,10.47,0.03,-0.04,-0.02,28.35,5.82772,98.47409759191437,655.4284498026063,10.794632925671907,0.05385164807134504,0.9947743123118767,0.7623179313981875
7788198,2177.0,1,201613.25,243047,-1.19,-1.25,9.11,0.02,-0.05,-0.02,28.35,5.867705,104.02903691830035,716.3746558213302,9.272038610791048,0.057445626465380296,1.0504200024891295,0.8329334949827039
7828198,2112.0,1,201613.25,243695,-0.81,-1.58,10.51,0.02,-0.07,-0.03,28.35,5.907705,70.18067758567489,622.5955987338718,10.658921146157335,0.07874007874011811,0.7113496354223116,0.7242760181477894
7868198,2062.0,1,201251.0,239252,-0.68,-1.49,9.22,-0.0,-0.06,-0.03,28.35,5.947705,-13.581882884335872,394.617522040426,9.364341941642243,0.0670820393249937,-0.1277280240271314,0.4601283144223776
7908250,2037.0,1,200218.0,240780,-0.86,-1.67,10.58,0.02,-0.04,-0.03,28.35,5.987757,-7.9369354005654085,121.6255017677723,10.745459506228666,0.053851648071345036,-0.07118069195156819,0.143825026245477
7948198,2064.0,1,200708.0,241908,-0.38,-1.15,9.77,0.03,-0.1,-0.02,28.35,6.027705,-3.9793675255585508,-100.21368381493313,9.844785421734695,0.1063014581273465,-0.03153640730888512,-0.11320982692061156
7988199,2013.0,1,200476.0,242412,-0.41,-1.32,9.9,0.01,-0.08,-0.03,28.35,6.067706,-41.63606972166826,-224.69090928965056,9.996024209654557,0.08602325267042626,-0.40875622203277917,-0.25743585844148464
8028196,1968.0,1,200630.0,242016,-0.99,-1.57,10.81,0.02,0.0,-0.03,28.35,6.107703,-83.00397572771558,-254.88288365038736,10.96818581170104,0.03605551275463989,-0.8231524099371134,-0.2924179094088197
8068178,1916.0,1,200041.0,241183,-0.36,-1.54,10.1,0.05,-0.195,-0.02,28.35,6.147685,-153.60451471578992,-205.50973991026478,10.223071945359672,0.2022992832414391,-1.5303816860907695,-0.2352115203831112
8108903,1859.0,1,200355.0,241587,-0.59,-1.65,10.54,-0.02,-0.1,-0.03,27.99,6.18841,-170.70867023581692,-85.0324362475474,10.684671263075902,0.1063014581273465,-1.7017197481088453,-0.09562001415100843
8147215,1898.0,1,200426.0,241866,-0.73,-1.36,9.54,0.01,-0.13,-0.02,27.99,6.226722,-183.21771033151603,88.02549445806042,9.66406229284559,0.1319090595827292,-1.8270269978701072,0.10489424437055207
8187198,1819.0,1,200635.0,240855,-0.47,-1.54,9.35,0.01,-0.12,-0.03,27.99,6.266705,-197.4191234889474,273.74056944747207,9.487623516982532,0.12409673645990855,-1.969287316157277,0.3200737533704895
8227199,1998.0,1,200746.0,242866,-0.5,-1.45,10.39,0.02,-0.07,-0.02,27.99,6.306706,-79.97313789319615,436.12607541805505,10.502599678174924,0.07549834435270751,-0.7927914909049177,0.5082223645989998
8267199,2070.0,1,201147.0,243465,0.11,-1.24,9.33,-0.01,-0.07,-0.03,27.99,6.346706,50.525754976570994,580.5835525200193,9.412682933149295,0.07681145747868609,0.514459684029154,0.6755985939974082
8307199,2160.0,1,200860.0,243213,0.04,-0.88,9.0,0.01,-0.14,-0.02,27.99,6.386706,101.17142915475534,745.6912847041016,9.043008348995372,0.14177446878757827,1.0217943871735808,0.866901323436521
8347176,2141.0,1,200770.0,242958,0.26,-1.06,8.68,-0.03,-0.03,-0.03,27.99,6.426683,107.25303525608689,930.5670002374184,8.748348415558219,0.05196152422706632,1.0827158750622625,1.0811083052700599
8387199,2097.0,1,200978.0,242822,-0.0,-0.43,9.42,-0.01,-0.01,-0.03,27.99,6.466706,62.33102170183742,1023.1498692109691,9.42980911789841,0.033166247903554,0.6327169999162369,1.188379813997448
8427211,2073.0,1,200609.0,241732,1.04,-0.56,8.47,-0.0,-0.09,0.01,27.99,6.506718,25.815452546666673,831.641723465906,8.551964686550104,0.09055385138137416,0.26692829756210257,0.9664881405656568
8467178,2035.0,1,201142.0,242388,0.15,-1.47,10.62,-0.06,0.12,0.01,27.99,6.546685,17.860367031263987,241.24797785984455,10.722303856914333,0.1345362404707371,0.1872395380789913,0.2824260831188429
8507169,2073.0,1,199399.0,232999,0.91,-0.89,8.15,-0.04,-0.05,-0.05,27.99,6.586676,21.06134372571812,-625.5540641696836,8.248799912714576,0.08124038404635961,0.219304795130158,-0.7218975444309997
8547198,2093.0,1,197833.0,232971,-0.41,-1.83,10.84,-0.05,0.04,0.0,27.99,6.626705,82.30807453503215,-1416.947533377643,11.001027224764059,0.06403124237432849,0.8328338377960466,-1.6388487296788035
8587176,2194.0,1,197866.0,231960,0.2,-1.41,7.16,-0.08,0.0,-0.01,27.99,6.666683,145.67509929561527,-1764.8115512895902,7.300253420258779,0.0806225774829855,1.4676025760489944,-2.041902755192381
8627178,2133.0,1,198869.0,235715,-0.61,-1.52,11.32,-0.04,0.07,0.02,27.99,6.706685,121.44603338434062,-1538.920387058889,11.437871305448406,0.08306623862918075,1.2248918971800344,-1.780173060877809
8667178,2128.0,1,198638.0,236236,0.37,-1.23,8.37,-0.03,-0.04,-0.02,27.99,6.746685,84.02134423446873,-929.4368100243507,8.467980869132854,0.05385164807134504,0.849996234949887,-1.0739924944520907
8707198,2047.0,1,200076.0,240157,-1.12,-1.85,11.1,-0.07,0.15,-0.03,27.99,6.786705,36.58260060021281,-300.06396042126346,11.308709033307029,0.16822603841260722,0.374786430563537,-0.3447671433964208
8747198,2030.0,1,199524.0,236744,-0.53,-0.95,8.44,0.01,0.03,-0.02,27.99,6.826705,-18.19884712688909,56.3595716793778,8.509817859390411,0.03741657386773942,-0.17397770322348688,0.06820439721659678
8787178,1985.0,1,200022.0,240662,-0.66,-1.77,12.2,-0.05,0.12,-0.02,27.99,6.866685,-16.661426523303458,78.05004776069099,12.345383752642118,0.13152946437965904,-0.15857684543681688,0.09333615344811412
8827199,2011.0,1,199823.0,237420,0.15,-0.91,8.07,-0.06,0.04,-0.06,27.99,6.906706,-49.55136524289715,-76.74692605963442,8.122530393910509,0.09380831519646858,-0.48804639179998976,-0.08601997487497905
8867178,1918.0,1,199582.0,240287,-0.41,-1.64,11.66,-0.07,0.1,-0.02,27.99,6.946685,-74.91946302528036,-171.01648500877505,11.781905618362421,0.12369316876852983,-0.7421671349158546,-0.19524577363942106
8907198,1982.0,1,200209.0,239598,0.02,-0.85,9.27,-0.08,0.1,-0.075,27.99,6.986705,-86.00765970436088,-53.33358917708018,9.308909710594468,0.1484082207965583,-0.8532413196684685,-0.05889201913565423
8947178,1862.0,1,200072.0,241178,0.0,-1.64,12.05,-0.08,0.0,-0.02,27.99,7.026685,-136.1215687294654,249.2189574376477,12.161089589341904,0.08246211251235322,-1.3552491529378663,0.29166169025465566
8987176,1975.0,1,200487.0,240911,-0.04,-1.43,9.33,-0.08,0.09,-0.04,27.99,7.066683,-85.55970253595648,550.342335790604,9.43903596772467,0.1268857754044952,-0.8487539824823883,0.6405594881640918
9027203,1968.0,1,200693.0,242353,-1.26,-2.0,11.22,-0.05,0.06,-0.02,27.99,7.10671,-50.912877679029386,620.9611563655809,11.466298443700131,0.0806225774829855,-0.501685118479437,0.7223822650083763
9067199,1937.0,1,200609.0,241213,-0.68,-1.62,9.84,-0.07,0.03,-0.07,27.99,7.146706,-107.75237766031888,342.5918685162207,9.995619040359632,0.10344080432788601,-1.0710654519000267,0.3998485844038122
9107198,1904.0,1,200127.0,239513,-1.23,-1.5,9.93,-0.02,-0.01,-0.01,27.99,7.186705,-138.52475680776195,-192.43916807181995,10.117697366495996,0.024494897427831782,-1.3793226938687912,-0.220067250427076
9147898,1856.0,1,199806.0,236925,-1.12,-2.14,10.72,-0.06,0.06,0.0,28.25,7.227405,-177.323123574573,-713.036880179023,10.98873969115658,0.08485281374238571,-1.7679789454743327,-0.8232598565421452
9186178,1936.0,1,198608.0,237807,-1.52,-1.8,8.25,-0.02,-0.1,0.0,28.25,7.265685,-123.61011741304205,-935.6040088865803,8.579796034871691,0.10198039027185571,-1.229917749169965,-1.08113814390007
9226196,2014.0,1,199992.0,239705,-1.39,-1.89,10.09,-0.01,0.04,0.045,28.25,7.305703,-14.667212568886995,-757.6462417993448,10.359165024267158,0.06103277807866851,-0.13860013546133482,-0.8749466705006178
9266178,2094.0,1,200137.0,241268,-1.27,-1.53,10.19,-0.01,-0.05,-0.02,28.25,7.345685,22.192929911934332,-329.1786555415725,10.382191483497113,0.05477225575051661,0.2306402734544573,-0.3785010004946028
9306212,2128.0,1,200797.0,242160,-0.87,-1.83,10.65,-0.03,-0.02,0.0,28.25,7.385719,101.02574846072062,60.87029818318031,10.841046997407584,0.03605551275463989,1.0203350548048982,0.07343076838962388
9346211,2202.0,1,200778.0,241511,-0.79,-1.28,9.95,-0.02,-0.05,-0.03,28.25,7.425718,122.26792992009324,195.1340729196223,10.06305122713782,0.061644140029689765,1.233125110415867,0.22899602406912628
9386212,2081.0,1,200780.0,241685,-0.41,-1.72,10.58,-0.03,-0.02,-0.03,28.25,7.465719,50.57419311041014,71.10126520763785,10.726737621476532,0.04690415759823429,0.5149449050603855,0.08528491895356081
9426216,2135.0,1,200724.0,239254,-0.56,-1.1,8.85,-0.04,-0.07,-0.03,28.25,7.505723,57.01894330180919,-123.85449157111267,8.93566449683514,0.08602325267042626,0.5795041290859159,-0.14060134269081306
9466211,2111.0,1,199983.0,238550,-0.4,-1.9,9.77,-0.03,-0.07,-0.03,28.25,7.545718,68.41345297158546,-169.7593167040636,9.961069219717329,0.0818535277187245,0.693646753793681,-0.19378915059170393
9506213,2126.0,1,201393.0,241761,-1.02,-1.57,9.84,-0.03,0.01,-0.03,28.25,7.58572,59.92516157746351,27.350740272938054,10.01653133574692,0.04358898943540673,0.6086166922036382,0.03459319953081087
9546230,2149.0,1,201579.0,241392,-0.17,-1.53,9.43,0.0,-0.17,-0.03,28.25,7.625737,90.89934010202651,387.75305070370376,9.55482600574181,0.1726267650163207,0.9188954262099196,0.4521747674533755
9586198,2160.0,1,201613.25,243595,-1.52,-1.59,10.45,-0.04,-0.0,-0.03,28.25,7.665705,107.60603314549418,727.6922260658358,10.678998080344428,0.05,1.0862519733043943,0.8460466426818009
9626212,2162.0,1,201613.25,242003,-0.5,-1.6,8.56,-0.01,-0.1,0.045,28.25,7.705719,95.09340378393505,867.8632247413043,8.722591358077025,0.1101135777277262,0.9609087686632902,1.0084563268323083
9666199,2112.0,1,201613.25,243075,-1.32,-1.89,9.8,-0.01,-0.01,-0.01,28.25,7.745706,67.37872034630229,713.461266829299,10.067497206356704,0.017320508075688773,0.6832814900707624,0.8295578852597623
9706212,2098.0,1,201613.25,241393,-0.33,-1.04,8.18,0.02,-0.14,0.045,28.25,7.785719,33.367879007953654,296.2051416417397,8.252448121618214,0.1484082207965583,0.34258348626146856,0.34610241913675405
9746207,2032.0,1,201613.25,237134,-0.63,-1.3,10.06,-0.04,0.04,-0.03,28.25,7.825714,-10.44670979707416,-220.3594290698181,10.16319339577871,0.06403124237432849,-0.09632194377758738,-0.25241717168705924
9786195,1994.0,1,199543.0,235614,0.07,-0.71,9.33,0.03,-0.17,-0.03,28.25,7.865702,-61.1519374674822,-598.0573568031164,9.357237840303089,0.17521415467935234,-0.604253214225911,-0.6900383752677521
9826179,1936.0,1,200666.0,237743,0.1,-1.35,10.27,-0.01,0.02,-0.07,28.25,7.905686,-103.67377929080799,-647.5947523792491,10.358831980488919,0.07348469228349534,-1.03020876420423,-0.7474350753353995
9866176,1943.0,1,200708.0,239920,0.09,-0.63,9.89,0.01,-0.08,-0.02,28.25,7.945683,-102.0632780553909,-346.068133086709,9.910454076378135,0.08306623862918075,-1.0140758332196522,-0.39807006071028617
9906178,1978.0,1,201613.25,241913,0.27,-1.28,10.37,-0.01,-0.02,-0.075,28.25,7.985685,-53.60217781068536,147.58912130447135,10.452186374151582,0.07826237921249264,-0.5286247398014818,0.17390787710767336
9946198,2003.0,1,201613.25,243409,-0.17,-1.18,10.78,-0.02,-0.05,-0.03,28.25,8.025705,-33.32385341235082,593.5435441017725,10.845722659186892,0.061644140029689765,-0.32548996361704396,0.6906147396999794
9986215,2007.0,1,201613.25,243316,-0.34,-1.42,10.71,-0.02,-0.05,-0.02,28.25,8.065722,-13.335472407345009,807.2441043002135,10.809074891034848,0.057445626465380296,-0.12525964764110462,0.9382197422509777
10026230,2034.0,1,201613.25,243022,-0.31,-1.15,10.57,-0.01,-0.06,-0.02,28.25,8.105737,9.065453874473123,744.2936138188984,10.636893343453247,0.06403124237432849,0.09913794346139017,0.8652819065160655
10066216,2021.0,1,201613.25,240246,-0.27,-1.33,10.77,-0.04,-0.1,-0.02,28.25,8.145723,9.962188743408362,510.4108919234874,10.855169275511091,0.10954451150103323,0.10812083737904057,0.5942927621835832
10106212,2085.0,1,201135.0,240022,-1.02,-2.01,9.74,-0.06,-0.05,0.02,28.25,8.185719,76.06304521625967,313.80606296339545,9.997404663211348,0.0806225774829855,0.7702752847314606,0.36649579650881897
10146199,2128.0,1,201391.0,241185,0.15,-1.2,10.59,-0.03,-0.08,0.03,28.25,8.225706,125.40186242671652,369.5519297848855,10.658827327619113,0.09055385138137417,1.2645187633531056,0.43108596643502467
10186865,2079.0,1,201613.25,242233,-0.73,-1.25,9.76,-0.05,-0.02,0.01,27.87,8.266372,84.22135543767479,762.9379701492962,9.866762386923078,0.05477225575051661,0.8519998142496135,0.8868842640038656
10227199,2016.0,1,201613.25,242102,0.18,-1.43,10.41,-0.06,-0.03,0.04,27.87,8.306706,28.355689137293002,1324.4302605707173,10.509300642764009,0.07810249675906654,0.29237469940262045,1.5374595356506082
10267178,2003.0,1,201613.25,242681,-0.74,-1.33,9.96,-0.08,0.07,0.01,27.87,8.346685,12.858463163517127,1628.0193482566046,10.07561908767893,0.10677078252031312,0.1371337895609194,1.8892142374685015
10307178,2029.0,1,201613.25,242064,1.01,-1.1,9.94,-0.03,-0.11,0.045,27.87,8.386685,65.02339700224435,1205.0226286447141,10.051552118951578,0.12257650672131262,0.659687426234971,1.3991074088232758
10347179,2029.0,1,201435.0,236749,-0.09,-1.36,10.34,-0.09,0.04,-0.02,27.87,8.426686,35.786366342899186,-90.19851073980146,10.429443896967852,0.1004987562112089,0.3668102849771162,-0.10160570687284971
10387199,1882.0,1,198419.0,230220,0.06,-1.03,7.01,-0.04,-0.03,0.045,27.87,8.466706,-57.42165254460484,-1826.6644082942946,7.0855204466573944,0.06726812023536854,-0.5668856991379727,-2.1135688135415722
10427176,1934.0,1,196733.0,226866,-0.01,-1.26,7.64,-0.13,0.04,0.045,27.87,8.506683,-62.15659934532611,-3139.409665256599,7.743209928705278,0.14326548781894405,-0.6143172491869862,-3.6345863176469897
10467178,1841.0,1,195751.0,225911,-0.19,-1.28,8.08,-0.04,0.11,0.045,27.87,8.546685,-80.25999020224977,-3268.5839072282606,8.18296401067486,0.12539936203984453,-0.795664986685584,-3.7842545659810893
10507178,2039.0,1,197500.0,230887,0.08,-1.8,8.84,-0.01,0.06,-0.075,27.87,8.586685,41.67786715286838,-2113.8851454700753,9.021751492919764,0.09656603957913983,0.42582742440712834,-2.446358261052003
10547178,2214.0,1,200367.0,240600,-0.86,-2.535,10.33,0.02,0.05,-0.075,27.87,8.626685,304.8293343528774,-337.0365120648674,10.671210100077685,0.09233092656309695,3.0619039237391226,-0.3876055371541656
10587179,2311.0,1,201216.0,242210,0.54,0.04,6.89,0.065,-0.05,-0.075,27.87,8.666686,312.6667506015905,1101.0471624792738,6.911244461021473,0.11113055385446434,3.140413950715383,1.2786358221263172
10627170,2115.0,1,201130.0,242662,-0.43,-1.46,12.79,-0.0,0.06,-0.075,27.87,8.706677,208.48015780400556,1599.4043686666928,12.88024068098108,0.09604686356149274,2.096741909888638,1.8560593777536856
10667199,2108.0,1,199962.0,240482,-0.33,-0.39,7.13,0.05,-0.02,-0.01,27.87,8.746706,116.09014696975217,1253.6041235053526,7.1482795132815005,0.05477225575051661,1.1712401867760895,1.455396550731606
10707199,1829.0,1,199958.0,240365,0.04,-1.25,12.86,-0.02,0.08,-0.02,27.87,8.786706,-94.78444471658001,656.1751463887591,12.920669487298248,0.08485281374238571,-0.9411613185823082,0.7631830943624188
10747178,1759.75,1,199653.0,240895,-0.59,-1.55,8.66,-0.01,0.09,-0.01,27.87,8.826685,-211.86121242102112,387.6986640618893,8.817380563409975,0.09110433579144298,-2.113958564393817,0.45211175215490035
10787199,1759.75,1,199996.0,242116,0.39,-0.47,10.71,-0.01,-0.01,-0.03,27.87,8.866706,-199.71849909378574,609.7762672814152,10.727399498480516,0.033166247903554,-1.992320932726265,0.7094228488625048
10827198,1797.0,1,199905.0,242444,0.35,-0.42,10.88,-0.1,-0.02,-0.05,27.87,8.906705,-152.67357839117597,1015.2214330775759,10.893727553046295,0.11357816691600547,-1.5210561847215365,1.1791934999924152
10867198,1874.0,1,199930.0,242352,-0.78,-1.39,10.73,-0.11,0.03,-0.03,27.87,8.946705,-119.66831519586367,1103.4937992675468,10.847737091209392,0.11789826122551596,-1.1904313944090357,1.2814706275551808
10907198,1779.0,1,199396.0,240405,-0.14,-0.87,11.16,-0.05,-0.03,-0.05,27.87,8.986705,-168.74844020304613,557.354666525625,11.194735369806649,0.07681145747868609,-1.6820834664735829,0.648684353011994
10945215,1815.0,1,198914.0,235301,-1.2,-1.85,11.38,-0.09,-0.0,-0.03,27.87,9.024722,-194.24012262436236,-526.8680452706012,11.591673735919244,0.09486832980505137,-1.937442198363883,-0.6075545968104376
10985218,1759.75,1,196346.0,228304,0.14,-1.25,8.94,-0.11,-0.05,-0.02,27.87,9.064725,-212.81930765582888,-1693.7388622077628,9.02805073091639,0.1224744871391589,-2.123556125674671,-1.9595541018005938
11025226,1759.75,1,196022.0,227832,-0.84,-2.19,10.35,-0.11,-0.04,0.045,27.87,9.104733,-250.17789283028293,-2422.8319544583555,10.612454946900835,0.12539936203984453,-2.497789602213948,-2.80432070792922
11065198,1759.75,1,195853.0,227670,-0.22,-1.17,8.08,-0.09,-0.03,0.045,27.87,9.144705,-250.28061298830838,-2451.6021246824553,8.167233313674833,0.105,-2.498818584485868,-2.8376553798885067
11105199,1759.75,1,197186.0,232818,-1.47,-2.02,10.42,-0.08,0.1,0.01,27.87,9.184706,-253.47753159918207,-1895.5997417171532,10.715302142263651,0.1284523257866513,-2.530843190352861,-2.1934410113129346
11145178,1791.0,1,197334.0,232763,0.22,-0.9,7.6,-0.05,-0.06,-0.03,27.87,9.224685,-250.67737445854326,-1102.2191151453055,7.656265408147761,0.08366600265340755,-2.5027930771940223,-1.2741873982956486
11186199,1828.0,1,198169.0,235637,-0.54,-1.45,10.82,-0.08,0.04,-0.03,27.87,9.265706,-202.97891227905305,-389.7104419885257,10.930073192801592,0.09433981132056604,-2.024981585038961,-0.448636395196875
11226885,1983.0,1,198034.0,234272,0.02,-1.34,8.34,-0.04,0.02,-0.03,28.11,9.306392,-78.05318924876673,113.59118139318113,8.446987628734874,0.053851648071345036,-0.7735587214457302,0.1345160290439774
11265178,2130.0,1,198668.0,237339,-0.14,-1.85,11.3,-0.05,0.05,-0.02,28.11,9.344685,69.77400036787957,445.0585869155368,11.451292503468768,0.07348469228349536,0.7072758133454269,0.5185720545112161
11305198,2227.0,1,199135.0,239306,-0.63,-1.51,9.04,-0.03,0.04,-0.02,28.11,9.384705,152.25888666546075,685.5852687723162,9.186871066908472,0.05385164807134504,1.5335545821195418,0.7972592494321281
11345198,2288.0,1,199304.0,238898,-0.22,-1.19,9.56,-0.04,-0.03,-0.07,28.11,9.424705,198.69125277907528,874.754734493881,9.636290780170553,0.08602325267042626,1.9986831653755437,1.0164412019691937
11385231,2343.0,1,199371.0,240175,-0.99,-2.31,10.89,-0.02,0.02,-0.02,28.11,9.464738,250.9352358033783,1012.1145302693701,11.176238186438226,0.034641016151377546,2.522028664252018,1.1755936747180353
11425199,2365.75,1,199265.0,239414,-0.63,-1.11,8.44,-0.02,-0.07,-0.03,28.11,9.504706,256.1628704069772,1093.269420981722,8.535959231392802,0.07874007874011811,2.574395633253821,1.2696241110594206
11465212,2293.0,1,199293.0,240122,-1.53,-1.85,10.04,-0.01,0.02,-0.02,28.11,9.544719,178.01485785972636,1118.291108198653,10.323032500191017,0.03,1.7915607832822804,1.298615588299468
11505198,2261.0,1,199112.0,240082,-0.68,-1.55,8.93,-0.02,-0.02,-0.02,28.11,9.584705,138.73364905329316,1071.679927039058,9.08899334359972,0.034641016151377546,1.3980677410364268,1.2446093581837887
11545212,2306.0,1,199572.0,240973,-0.68,-1.69,11.16,0.0,-0.03,-0.03,28.11,9.624719,169.92417194250277,918.8704313186943,11.30770091574764,0.042426406871192854,1.7105136690981924,1.0675560292523028
11585198,2315.0,1,198883.0,238218,-0.64,-1.35,9.98,-0.0,-0.04,-0.06,28.11,9.664705,179.57800425277628,641.913770854103,10.091209045500941,0.07211102550927978,1.8072193449296021,0.7466590949757993
11625212,2320.0,1,198498.0,239067,-1.07,-1.62,10.47,0.01,0.01,-0.07,28.11,9.704719,173.7770136010282,282.30693751955346,10.648483460098909,0.07141428428542851,1.7491088761086355,0.3299992097491292
11665178,2322.0,1,198169.0,236957,-0.56,-0.87,9.74,-0.0,-0.05,-0.075,28.11,9.744685,168.20232685663177,-56.78922426478867,9.794799640625632,0.09013878188659974,1.6932653694225346,-0.06289590445028723
11705211,2309.0,1,197941.0,238070,-0.37,-1.83,11.55,-0.01,-0.02,-0.03,28.11,9.784718,164.5640760098682,-257.2074957642995,11.699927350201795,0.03741657386773942,1.6568197905402449,-0.2951113304642479
11745215,2323.0,1,198359.0,238440,-0.29,-0.87,10.28,-0.02,0.0,-0.03,28.11,9.824722,150.39287992862023,-247.6442625375174,10.320823610545816,0.03605551275463989,1.5148621668390225,-0.2840308523161591
11785195,2251.0,1,198420.0,238714,-0.25,-1.53,10.77,-0.03,-0.07,-0.03,28.11,9.864702,112.11703230470165,-47.00958629459748,10.881006387278706,0.0818535277187245,1.1314401647236545,-0.05156468808703366
11825215,2253.0,1,198378.0,238316,-0.05,-1.47,9.81,-0.06,-0.04,-0.03,28.11,9.904722,71.43446206543396,222.82747760242626,9.919652211645326,0.07810249675906654,0.723909215034338,0.26108309735879903
11865212,2181.0,1,198487.0,238514,-0.65,-1.61,10.26,-0.06,-0.06,-0.03,28.11,9.944719,41.577694154593075,365.84113740029403,10.405873341531695,0.09,0.42482395788865956,0.42678644210528127
11905215,2192.0,1,198586.0,238921,-0.53,-1.44,10.04,-0.02,-0.06,-0.02,28.11,9.984722,18.33029044269081,202.33669087836307,10.156579148512554,0.066332495807108,0.19194691848818599,0.2373413659643081
11945212,2129.0,1,198421.0,237134,-0.24,-1.29,9.65,-0.07,-0.05,-0.02,28.11,10.024719,-20.42760463350031,-292.8920233182116,9.738798693884169,0.08831760866327848,-0.19630391461953492,-0.3364573499964983
11985215,2055.0,1,197940.0,235066,-1.22,-1.91,9.69,-0.06,-0.02,-0.01,28.11,10.064722,-96.23091338744841,-898.0226726522964,9.951512447864394,0.06403124237432849,-0.9556510803566481,-1.0375943794592144
12025239,1989.0,1,196947.0,232033,-0.39,-1.34,8.41,-0.06,-0.08,0.045,28.11,10.104746,-173.67482925127496,-1220.5163057036343,8.52501026392344,0.10965856099730655,-1.7314327577193438,-1.4112529078234266
12065199,1973.0,1,197246.0,233284,-0.46,-1.85,9.79,-0.05,0.0,0.045,28.11,10.144706,-152.3959113451071,-958.2213617656547,9.97387587650859,0.06726812023536856,-1.5182747008006252,-1.1073438296133866
12105178,2083.0,1,197995.0,234384,-0.17,-1.2,7.63,-0.02,-0.02,-0.02,28.11,10.184685,-84.53175651667752,-175.1828698856153,7.725658547981524,0.034641016151377546,-0.8384567024678194,-0.20007317201919375
12145213,2064.0,1,199033.0,240449,-0.22,-1.55,9.61,-0.04,0.03,-0.03,28.11,10.22472,-44.08065643279129,656.3582370510729,9.736683213497294,0.05830951894845301,-0.4332444669524734,0.7633952330852521
12185198,2160.0,1,200172.0,240629,0.26,-0.89,8.69,-0.04,0.03,-0.05,28.11,10.264705,2.287410694433911,945.1966983207233,8.739324916719827,0.07071067811865477,0.031240011793091087,1.0980590630400597
12226178,2053.0,1,199034.0,235244,-0.02,-1.47,10.17,-0.03,-0.02,-0.03,28.11,10.305685,-47.84834746213984,417.7500073373014,10.27570922126546,0.04690415759823429,-0.47098669155371764,0.486930860356862
12266899,2028.0,1,197415.0,231491,-0.39,-1.74,9.27,-0.03,0.01,-0.03,27.99,10.346406,-111.50686544553078,-639.2811236415646,9.439947033749712,0.04358898943540673,-1.1086754151768181,-0.7378024563900354
12305198,2009.0,1,196829.0,230247,-0.66,-1.77,9.51,-0.03,0.0,-0.02,27.99,10.384705,-86.23450889935332,-1540.5197223258465,9.695803215824876,0.03605551275463989,-0.8555137441325033,-1.782026137034873
12345195,2003.0,1,196840.0,230642,-0.66,-1.79,9.17,0.0,0.02,-0.01,27.99,10.424702,-119.42581124462032,-1661.760094402678,9.36635468045066,0.022360679774997897,-1.1880021510015426,-1.9225017755146772
12385178,1987.0,1,197420.0,233314,-0.15,-1.09,10.27,0.01,-0.03,-0.02,27.99,10.464685,-100.69056019881656,-864.8196655871402,10.328770497982807,0.03741657386773942,-1.0003248580857051,-0.9991235834938944
12425198,2110.0,1,199051.0,239164,-1.23,-1.83,10.18,-0.01,0.05,-0.01,27.99,10.504705,4.644921242351802,408.89783260969347,10.41605491536983,0.05196152422706632,0.0548559855834642,0.4766742529620292
12465199,2128.0,1,199817.0,240851,-1.0,-1.59,9.76,0.0,0.01,-0.06,27.99,10.544706,42.952552607354725,1430.6205866998182,9.939099556800906,0.0608276253029822,0.43859637609250074,1.660497378638346
12505179,2101.0,1,200284.0,242178,-0.94,-2.42,12.99,0.01,0.02,-0.075,27.99,10.584686,18.655512518193397,1659.8047306242788,13.246890201100031,0.07826237921249264,0.19520477708733547,1.9260424969495442
12545178,2021.0,1,199409.0,238769,-1.02,-1.34,9.38,-0.01,-0.06,-0.02,27.99,10.624685,-69.41872567805609,1089.5673474829448,9.529973767015312,0.06403124237432849,-0.6870644041414347,1.2653346889013433
12585212,1968.0,1,198719.0,238056,-1.02,-1.6,12.03,-0.03,-0.03,-0.02,27.99,10.664719,-89.14555918906841,237.00893004037562,12.178723249996281,0.0469041575982343,-0.8846747111555717,0.2775144935320924
12625213,1987.0,1,198182.0,234194,-0.36,-1.15,9.41,-0.07,-0.0,-0.02,27.99,10.70472,-109.37411029694408,-218.9285783205342,9.486843521424817,0.07280109889280519,-1.0873108915971506,-0.25075931078534913
12665212,1839.0,1,197903.0,236654,-0.24,-1.95,11.62,-0.03,-0.04,0.045,27.99,10.744719,-198.82328013254923,81.1730667776264,11.784926813519037,0.06726812023536854,-1.9833532241644185,0.09695465183172645
12705198,2061.0,1,199196.0,240064,-0.15,-0.96,9.4,-0.07,0.02,-0.03,27.99,10.784705,-39.47965084680451,902.9662451564071,9.450084655705473,0.07874007874011811,-0.3871546509709551,1.0491285808093604
12745196,2108.0,1,200040.0,242327,-0.3,-1.55,10.17,-0.08,0.01,-0.03,27.99,10.824703,88.66330277194503,1559.238333505054,10.291812279671642,0.08602325267042626,0.8964962903807554,1.809520841638357
12785198,2149.0,1,199944.0,240580,-0.23,-1.11,9.66,-0.07,-0.02,-0.075,27.99,10.864705,35.55649536708137,1393.7470505687518,9.726283976935898,0.10452272480183436,0.3645075903211472,1.617773709597334
12825217,2112.0,1,198703.0,236575,-1.08,-2.04,11.07,-0.04,0.01,-0.02,27.99,10.904724,119.5029933642733,275.35415744272086,11.308090024402883,0.045825756949558406,1.2054278136669905,0.32194334350777704
12865198,2123.0,1,196806.0,228711,-0.03,-1.41,8.54,-0.07,-0.05,-0.03,27.99,10.944705,-11.785419230556801,-1263.3863578011553,8.65566866278972,0.091104335791443,-0.10973224513211283,-1.4609244638975485
12905212,1759.75,1,195486.0,227522,-0.93,-1.88,10.04,-0.03,-0.07,0.045,27.99,10.984719,-211.41841265706555,-2362.47320516414,10.256748997611279,0.08845903006477067,-2.1095228906577255,-2.7343858034109942
12945198,2033.0,1,195740.0,226620,-0.42,-1.5,7.48,-0.04,0.02,-0.01,27.99,11.024705,-107.11906137964613,-2413.8438935906224,7.640471189658397,0.0458257569495584,-1.0647213103229747,-2.7939066555186085
12985199,1955.0,1,196261.0,230695,-0.57,-1.72,10.94,0.0,-0.05,0.03,27.99,11.064706,-24.6619470663919,-1466.7497366547175,11.089044142756398,0.05830951894845301,-0.23872074282967762,-1.6965522502405401
13025232,2249.0,1,198301.0,236346,-0.11,-1.08,8.41,-0.0,0.04,-0.02,27.99,11.104739,133.5043620895226,-167.36907975422875,8.479775940436163,0.044721359549995794,1.345684219788637,-0.19101969305957686
13065196,2288.0,1,199228.0,238218,-0.23,-1.23,10.52,0.0,-0.05,-0.075,27.99,11.144703,273.8828886080528,713.6446300801592,10.594158767924897,0.09013878188659974,2.751902998288147,0.8297703398183972
13105198,2247.0,1,199208.0,236169,-0.24,-1.64,10.64,-0.03,0.02,-0.03,27.99,11.184705,167.29698539434685,804.6899779655712,10.768323917862055,0.04690415759823429,1.6841962603729306,0.9352603936324367
13145199,2160.0,1,197767.0,232690,0.06,-1.04,9.84,-0.02,-0.04,-0.02,27.99,11.224706,111.83417751319993,318.5379173081718,9.894988630614995,0.048989794855663564,1.1286067134169422,0.3719783783327568
13185199,2094.0,1,197344.0,231153,0.14,-1.26,9.84,-0.02,-0.01,-0.02,27.99,11.264706,39.06277101862566,-206.37995059751364,9.921330555928474,0.03,0.3996311294127642,-0.2362197934509781
13225198,2047.0,1,197442.0,234139,-0.18,-1.42,10.56,-0.03,-0.0,-0.02,27.99,11.304705,-22.594450169425954,-353.83196415754395,10.656566051031637,0.03605551275463989,-0.2180099330419769,-0.4070656544060374
13266215,2115.0,1,198667.0,235932,-0.13,-1.6,9.76,-0.04,-0.01,-0.03,27.99,11.345722,73.65313230906591,-92.5531632656744,9.89113239219858,0.05099019513592785,0.7461343789341848,-0.10433393437086887
13304898,2123.0,1,198883.0,233903,-0.71,-1.28,10.44,-0.01,-0.02,-0.02,27.85,11.384405,38.34863568740562,305.51763760926156,10.542110794333361,0.03,0.39247739630231565,0.3568923795638734
13345216,1969.0,1,197431.0,232239,-0.49,-1.89,9.34,-0.02,-0.06,-0.02,27.85,11.424723,-62.39612398440915,538.8731418323472,9.541897086009678,0.066332495807108,-0.6167166478254056,0.6272706610470499
13385212,2071.0,1,198588.0,234968,-0.88,-1.51,9.09,-0.04,-0.02,-0.02,27.85,11.464719,-25.691721062440045,485.36189824230166,9.256489615399566,0.048989794855663564,-0.24903633430058705,0.5652696462003094
13425213,2039.0,1,198129.0,233636,-0.09,-1.18,8.15,-0.01,-0.13,-0.01,27.85,11.50472,13.021063586867644,231.70251016552658,8.23547205690117,0.1307669683062202,0.13876261253248182,0.2713661890754799
13465212,2176.0,1,198585.0,233243,-1.05,-1.72,9.53,-0.03,0.1,-0.01,27.85,11.544719,74.8518987304253,-22.985924865104266,9.740728925496285,0.10488088481701516,0.7581428242039656,-0.023729577388164367
13505199,2165.0,1,197342.0,231458,0.02,-0.8,8.93,0.01,-0.08,-0.01,27.85,11.584706,134.2283230308553,-99.823570862629,8.965784962846254,0.08124038404635961,1.3529363793307723,-0.11275782099951924
13545176,2163.0,1,198216.0,234752,-0.93,-1.42,11.5,0.0,0.08,-0.01,27.85,11.624683,71.48977405692158,46.5962579651657,11.624598917812175,0.0806225774829855,0.7244632938029011,0.05689209501734723
13585178,2128.0,1,197562.0,232507,0.5,-1.25,9.74,-0.05,-0.09,-0.02,27.85,11.664685,75.76216324803134,285.975635552092,9.83260392774976,0.10488088481701516,0.7672612491497527,0.33424996129073503
13625199,2124.0,1,199048.0,237965,-1.36,-2.33,13.2,-0.05,0.12,-0.01,27.85,11.704706,61.752994713104094,390.3305811495913,13.47288016720998,0.13038404810405296,0.6269267097187612,0.4551612333383344
13665199,2021.0,1,198086.0,232529,0.4,-0.09,8.62,-0.02,-0.09,-0.06,27.85,11.744706,-70.50110670022835,209.20850232380974,8.629745071553387,0.11,-0.6979069778357041,0.24530341757942697
13705195,1991.0,1,198226.0,234479,-0.81,-1.76,13.29,-0.03,0.07,-0.02,27.85,11.784702,-29.56244441565984,-184.94719830534066,13.430480259469501,0.07874007874011811,-0.2878106682437188,-0.21138664991101502
13745198,2061.0,1,197092.0,229802,0.28,-1.21,7.94,-0.09,-0.05,-0.03,27.85,11.824705,-69.47919862808061,-519.5862610417176,8.03654776629866,0.10723805294763608,-0.6876701819624784,-0.5991175286020328
13785199,1759.75,1,197404.0,232018,-0.57,-2.03,12.48,-0.07,-0.01,0.01,27.85,11.864706,-233.52345847891988,-519.9202002522588,12.65686375055053,0.07141428428542851,-2.3309565479641403,-0.5995044485941993
13825199,2022.0,1,197594.0,233070,-0.58,-1.32,7.14,-0.06,-0.05,-0.01,27.85,11.904706,-118.71983203331507,-124.19192299470028,7.284119713458861,0.07874007874011811,-1.1809301204795761,-0.14099230894949116
13865212,1997.0,1,198930.0,238964,-0.9,-1.99,10.3,-0.08,0.05,-0.02,27.85,11.944719,-4.013498745630827,471.47765297370466,10.529012299356479,0.09643650760992956,-0.031878311186843256,0.549182610293818
13905199,2110.0,1,199666.0,240035,-1.07,-2.23,9.53,-0.05,0.01,-0.06,27.85,11.984706,-6.692300344549835,974.8455668822762,9.845745273974947,0.07874007874011811,-0.05871276518559765,1.1324118423168221
13945198,2061.0,1,199045.0,239469,0.08,-1.27,9.26,-0.02,-0.1,-0.03,27.85,12.024705,28.103401815806404,1207.6472383999783,9.347026265074897,0.1063014581273465,0.28984745269437856,1.4021484233369677
13985199,2069.0,1,199527.0,239600,-1.2,-1.53,10.49,-0.03,0.11,-0.02,27.85,12.064706,-11.876290245179081,1166.7155193528417,10.668692515955271,0.11575836902790225,-0.11064253056074842,1.3547227245476348
14025223,1971.0,1,198257.0,237124,-0.4,-1.74,7.72,-0.01,-0.12,-0.01,27.85,12.10473,-92.27085918518895,903.3879416174293,7.923761732914487,0.12083045973594571,-0.915981889340043,1.0496171810882282
14065216,1923.0,1,198836.0,238774,-0.26,-1.42,10.71,-0.03,0.06,-0.02,27.85,12.144723,-131.26731133073818,387.9455779320298,10.80685430641128,0.06999999999999999,-1.3066224286157577,0.4523978398908859
14105198,2036.0,1,198139.0,233853,-0.14,-1.48,8.54,-0.04,-0.06,-0.01,27.85,12.184705,-44.23129531743468,-456.049973415785,8.66842546256239,0.07280109889280519,-0.43475346717929797,-0.5255009566796596
14145215,2059.0,1,197168.0,230940,-0.17,-1.45,10.04,0.0,0.03,-0.02,27.85,12.224722,19.35216734532443,-1556.5119742121167,10.145590175046495,0.03605551275463989,0.20218340212593544,-1.8005556231785644
14185179,1987.0,1,195563.0,227384,0.12,-1.28,8.38,-0.03,-0.06,-0.02,27.85,12.264686,-99.79453404228643,-2552.550107327324,8.478042226835157,0.06999999999999999,-0.9913490635778957,-2.9546191607840293
14225198,1933.0,1,195617.0,227284,-0.72,-1.94,9.69,-0.01,0.03,0.0,27.85,12.304705,-99.48539979533746,-2917.6652429001238,9.908486261785903,0.03162277660168379,-0.988252362152699,-3.377661262269221
14264179,2045.0,1,195512.0,227645,-0.24,-1.33,7.98,-0.01,-0.04,0.02,27.85,12.343686,-41.29843905488799,-2318.572647023871,8.093633300316984,0.045825756949558406,-0.4053740624133658,-2.6835202474189197
14304198,2015.0,1,197253.0,234532,-0.72,-1.98,10.27,0.01,0.02,0.0,27.85,12.383705,-14.909128249943278,-934.3031000715755,10.483878099253158,0.022360679774997897,-0.14102348596907743,-1.0796308407364341
14344856,2320.0,1,199511.0,239251,-1.01,-1.04,9.07,0.01,0.04,-0.02,27.81,12.424363,235.49368148791254,560.3919892896972,9.185129285970884,0.045825756949558406,2.3673454360820614,0.6522035590919778
14385178,2347.0,1,200013.0,241516,-0.83,-2.02,11.49,0.03,0.0,-0.01,27.81,12.464685,326.99034728362227,1395.998848763517,11.69570006455364,0.03162277660168379,3.2838982223448303,1.6203827645162419
14425178,2273.0,1,199999.0,240251,-0.82,-1.5,11.5,0.0,0.01,-0.075,27.81,12.504685,174.13668316985215,1222.859712072972,11.626366586341582,0.07566372975210778,1.7527118068009468,1.4197744163578137
14465210,2097.0,1,198991.0,235899,-1.29,-1.87,11.82,-0.01,-0.07,-0.02,27.81,12.544717,111.27017154195948,351.128937373748,12.036336651988428,0.07348469228349536,1.122956876453883,0.4097400931311792
14505212,2093.0,1,197431.0,230008,-0.44,-0.45,8.2,-0.03,-0.02,-0.02,27.81,12.584719,-43.96272631265725,-475.3688342052564,8.224116973876283,0.0412310562561766,-0.4320631213891882,-0.5478848314370189
14545213,1764.0,1,197894.0,235431,0.21,-2.535,13.579999999999998,-0.1,0.0,0.045,27.81,12.62472,-172.4398123640471,-606.0034753949258,13.816176207619819,0.10965856099730655,-1.7190611793757389,-0.6992451771234351
14585169,1968.0,1,198759.0,234788,-0.09,-0.99,6.28,-0.03,-0.0,-0.03,27.81,12.664676,-203.766870183821,80.33167473113772,6.358191566790041,0.042426406871192854,-2.032874823626314,0.09597976959639791
14625213,1759.75,1,200140.0,241638,0.53,-1.16,13.579999999999998,-0.07,-0.0,-0.03,27.81,12.70472,-149.83638090933843,1135.626086953254,13.639754396615796,0.07615773105863909,-1.4926350260427923,1.318700830260316
14665204,2205.0,1,200518.0,240772,0.42,-0.54,8.02,-0.12,0.02,-0.075,27.81,12.744711,35.772962288973055,1892.7085028468418,8.049124175958525,0.14291605927956452,0.3666760120736572,2.195897377356758
14705178,1945.0,1,200376.0,241968,-0.01,-1.24,12.21,-0.03,-0.02,-0.03,27.81,12.784685,22.884594213349544,1921.3369465076614,12.272807339806164,0.04690415759823429,0.23756890672330294,2.229067837270789
14745212,2176.0,1,200159.0,239154,0.35,-1.49,9.06,-0.13,-0.05,-0.075,27.81,12.824719,37.541121698684876,1271.7371786698804,9.188373087766953,0.15819292019556375,0.38438825786353703,1.4764064870934999
14785198,2012.0,1,198767.0,237561,-1.18,-1.44,9.9,-0.03,-0.03,-0.02,27.81,12.864705,71.18048168662362,375.5465546635103,10.073529669386,0.0469041575982343,0.7213650084030881,0.43803166235171226
14825212,2043.0,1,198299.0,232094,1.5,-0.17,9.12,-0.08,-0.04,-0.075,27.81,12.904719,-82.74069608560485,-283.1035265327957,9.244095412748615,0.11672617529928753,-0.8205150494667149,-0.3251158693318115
14865198,1879.0,1,197776.0,237514,-1.49,-1.78,10.78,0.0,-0.03,-0.01,27.81,12.944705,-45.85326486736454,-477.7997325194804,11.02709843975286,0.03162277660168379,-0.4510012801164475,-0.5507014014204374
14905199,2193.0,1,198734.0,234131,1.15,-0.3,8.48,-0.07,0.02,-0.075,27.81,12.984706,42.384730166668966,-323.12185096221634,8.562879188684143,0.10452272480183436,0.43290830827508897,-0.3714832598207844
14945178,1984.0,1,198508.0,239287,-1.5525,-2.4,12.58,0.02,0.05,0.03,27.81,13.024685,98.55285064851286,-104.68642805360857,12.900645574931513,0.061644140029689765,0.9955632080910215,-0.11839218979134433
14985166,2273.0,1,199074.0,233523,1.13,-0.22,8.11,-0.02,-0.02,-0.05,27.81,13.064673,97.72939382668638,-23.115530036804973,8.191300263083999,0.05744562646538029,0.9873143649463182,-0.023879744934939988
15025226,1895.0,1,197768.0,234502,-1.5525,-2.535,13.29,0.01,-0.02,0.045,27.81,13.104733,20.76344552050366,-68.92400684644001,13.618391287152825,0.05024937810560445,0.2163206489032165,-0.07695591846847934
15065178,2291.0,1,198518.0,232983,0.5,-0.99,8.93,-0.01,0.06,-0.03,27.81,13.144685,136.773208313022,-106.65525781834882,8.998611003927216,0.06782329983125268,1.378429348673469,-0.12067338221530573
15105179,2047.0,1,198203.0,235517,0.64,-0.9,13.37,0.03,-0.14,-0.02,27.81,13.184686,132.0333475765344,-49.310875668217435,13.415532043120765,0.14456832294800961,1.330948574081911,-0.054231086156821734
15145178,2174.0,1,198718.0,235590,0.21,-1.53,8.85,-0.07,-0.03,-0.02,27.81,13.224685,79.32147460677636,61.709840470116745,8.983735303313427,0.07874007874011811,0.8029160647068398,0.07440350739370293
15185199,2112.0,1,199277.0,237343,-0.61,-1.41,11.59,0.0,-0.01,-0.03,27.81,13.264706,137.95025746396735,133.71713891982122,11.691377164389147,0.03162277660168379,1.3902202447622505,0.15783504964035558
15225199,2086.0,1,198366.0,232661,-0.26,-1.55,8.29,-0.06,-0.1,-0.02,27.81,13.304706,41.4686950111515,145.57795596852674,8.437665553931371,0.11832159566199232,0.42373207691406,0.1715776324060468
15265216,2026.0,1,197998.0,235962,-0.16,-1.9,12.07,-0.04,-0.03,0.045,27.81,13.344723,18.64238676828143,165.29607653125547,12.219676755135547,0.06726812023536854,0.19507329204852034,0.19442411108491248
15305199,2009.0,1,198961.0,233471,-0.52,-1.22,8.26,-0.06,0.02,-0.02,27.81,13.384706,-22.266924288598982,242.92120477991372,8.365787470405879,0.066332495807108,-0.2147289964522722,0.2843647741331641
15345885,1867.0,1,198086.0,235475,-0.31,-2.24,12.26,-0.0,-0.06,0.045,27.63,13.425392,-143.3798175331229,308.7635288041601,12.466807931463451,0.075,-1.4279574653831995,0.3606532442843346
15384201,1968.0,1,199449.0,233477,-0.13,-1.2,9.06,-0.05,0.08,-0.02,27.63,13.463708,-72.77903934919489,204.33247136188737,9.140049234003065,0.09643650760992956,-0.7207257931244587,0.23965378494559383
15424199,1950.0,1,197822.0,232614,-0.98,-1.66,10.17,0.0,-0.03,0.01,27.63,13.503706,-57.048649605132546,-172.20475372280947,10.351082069039931,0.03162277660168379,-0.5631492036003007,-0.19662256590284122
15464179,1920.0,1,197426.0,229178,0.58,-0.89,9.48,-0.03,0.01,-0.075,27.63,13.543686,-129.5042066464912,-746.9578805502498,9.539334358329201,0.08139410298049853,-1.2889608177060488,-0.8625625583022658
15504178,1926.0,1,196686.0,229651,-0.38,-1.95,11.42,-0.03,0.01,0.045,27.63,13.583685,-88.49995257541374,-1291.8969189732013,11.59151845100546,0.055,-0.8782074531912646,-1.4939583387979212
15544178,1958.0,1,196936.0,228044,1.0,-1.19,8.9,-0.04,0.02,-0.06,27.63,13.623685,-90.33740867419647,-1568.2286214169958,9.03471637628985,0.07483314773547883,-0.8966138671554091,-1.8141311629822938
15584178,1913.0,1,196468.0,229251,-0.43,-1.88,10.59,-0.06,0.01,0.04,27.63,13.663685,-121.77214723808508,-1475.0092163862723,10.764172053623074,0.07280109889280519,-1.2115061855323788,-1.7061221292249589
15624178,1983.0,1,197166.0,230063,1.07,-1.02,9.12,-0.04,0.02,-0.075,27.63,13.703685,-57.005915209558374,-1100.2321223570607,9.23903133450688,0.0873212459828649,-0.5627211188281166,-1.2718851612123891
15664178,2023.0,1,197473.0,230067,-0.16,-1.62,10.09,-0.06,0.01,-0.02,27.63,13.743685,-37.6715107152945,-653.245469559764,10.22047454866945,0.06403124237432849,-0.36904190488259725,-0.7539823012322204
15704199,1975.0,1,197454.0,231408,0.36,-1.37,9.8,-0.01,-0.0,-0.02,27.63,13.783706,-59.227997767774504,-330.3475142457565,9.90184326274659,0.022360679774997897,-0.5849804650275318,-0.37985530327304423
15744198,2027.0,1,198436.0,231218,-0.64,-0.9,9.98,-0.05,0.05,-0.05,27.63,13.823705,-53.35933024593174,-195.78497306234394,10.040916292848975,0.08660254037844388,-0.5261920543022196,-0.22394388066353654
15784195,1952.0,1,197339.0,231405,-0.79,-1.9,8.9,-0.01,-0.01,-0.01,27.63,13.863702,-88.56657001693388,-148.53670599439164,9.134774217242592,0.017320508075688773,-0.8788747824442814,-0.16919948843065216
15824213,2027.0,1,198425.0,231718,-0.52,-1.38,10.26,-0.03,0.07,-0.02,27.63,13.90372,-60.729061622824524,1.268389370003025,10.365442585823338,0.07874007874011811,-0.600017125071257,0.004372780099713971
15864198,2079.0,1,198202.0,234185,-0.67,-1.75,10.23,0.0,-0.01,-0.01,27.63,13.943705,20.98405886841493,387.6820108195181,10.40020672871458,0.01414213562373095,0.2185306067957402,0.4520924568095069
15904198,2111.0,1,198886.0,233985,-0.08,-0.67,9.25,-0.04,0.02,-0.075,27.63,13.983705,22.9075905083359,967.4597840276551,9.274578157522853,0.0873212459828649,0.237799268322386,1.1238542756877905
15944196,2110.0,1,199323.0,238072,-1.35,-2.12,11.39,-0.02,0.07,-0.01,27.63,14.023703,32.96537748245234,1511.4353101865229,11.664004458161013,0.07348469228349536,0.33855149349468355,1.7541336788731343
15984199,2157.0,1,199979.0,237077,0.14,-0.68,10.2,-0.03,0.0,-0.05,27.63,14.063706,67.26973184243451,1733.4128831084083,10.223600148675612,0.05830951894845301,0.6821897156763417,2.0113288750792173
16024203,2112.0,1,199581.0,237798,-0.11,-1.63,12.17,-0.03,-0.01,-0.01,27.63,14.10371,21.77513106265897,1482.5022161474321,12.279165281076724,0.033166247903554,0.226455042265206,1.720610234588735
16064215,2055.0,1,198886.0,232503,-0.48,-1.61,9.81,-0.08,0.05,-0.02,27.63,14.143722,-40.574373546067946,861.3482499547978,9.952818696228723,0.09643650760992956,-0.39812085538364145,1.0009077254288554
16104212,2065.0,1,197813.0,232601,-0.7,-2.17,11.68,-0.05,-0.04,-0.01,27.63,14.183719,-31.411550825454853,172.09865167045857,11.900474780444686,0.06480740698407861,-0.3063337872804065,0.2023059417789063
16144216,2091.0,1,197606.0,231711,0.01,-1.34,10.05,-0.07,-0.04,-0.02,27.63,14.223723,-11.978324985546502,-277.62459227793187,10.138944718263337,0.08306623862918075,-0.11166464677412133,-0.31876768040384346
16184198,2108.0,1,197787.0,233100,-0.94,-1.34,10.81,-0.04,-0.03,-0.01,27.63,14.263705,9.332026018980612,-364.0054164059254,10.933220019738009,0.05099019513592785,0.10180828603249441,-0.41885316524631705
16224215,2153.0,1,197926.0,232892,-0.4,-1.72,9.7,-0.06,-0.03,-0.02,27.63,14.303722,45.748643396875664,-196.39512620801966,9.85943203232316,0.06999999999999999,0.4666057552484705,-0.22465083702832683
16264212,2133.0,1,197965.0,233631,-0.83,-1.49,9.75,-0.04,-0.01,-0.01,27.63,14.343719,33.36110640534797,-8.979096362058634,9.898055364565305,0.042426406871192854,0.34251564282985814,-0.007500509930374381
16304233,2133.0,1,197915.0,233227,-0.34,-1.29,9.41,-0.03,-0.04,-0.02,27.63,14.38374,26.13258278850137,10.742685132069925,9.504093854755434,0.05385164807134504,0.27010509754966455,0.015350210501193097
16344212,2131.0,1,197994.0,234042,-0.45,-1.32,10.34,-0.05,-0.03,-0.02,27.63,14.423719,33.09907032579558,-159.79693007261355,10.433623531640386,0.061644140029689765,0.33989073954265686,-0.18224619176649717
16384902,2112.0,1,197803.0,232981,-0.22,-0.91,9.73,-0.02,-0.01,-0.02,27.63,14.464409,8.439454949891894,-374.6106233418024,9.77493733995262,0.03,0.0928671022943088,-0.4311409303695029
16423212,2125.0,1,197457.0,233025,-0.1,-1.64,9.58,-0.03,-0.01,-0.02,27.63,14.502719,32.82456184530651,-419.7360862685587,9.719876542425835,0.03741657386773942,0.3371408960324378,-0.48342572715580534
16463216,2175.0,1,198117.0,237045,0.06,-1.58,10.38,-0.03,-0.04,-0.02,27.63,14.542723,79.15647955975318,-156.4873918838836,10.499733329947004,0.05385164807134504,0.8012632539868699,-0.17841158220392905
16503198,2170.0,1,198913.0,236358,-0.34,-1.51,8.36,-0.04,-0.02,-0.06,27.63,14.582705,83.46782191273098,373.06497257006595,8.502076217018994,0.07483314773547883,0.8444514162197693,0.4351563674062652
16543216,2151.0,1,198353.0,237929,0.55,-1.28,9.59,-0.01,-0.08,-0.02,27.63,14.622723,72.46078910981166,941.4558451644965,9.690665611814287,0.08306623862918075,0.7341902772343697,1.0937247086779078
16583198,2162.0,1,199909.0,239532,-0.47,-1.39,10.67,-0.04,0.05,-0.02,27.63,14.662705,76.8935964611311,1247.8816772877594,10.77041781919346,0.0670820393249937,0.7785951950910424,1.4487662157011814
16623199,2135.0,1,199547.0,239656,-0.91,-1.97,10.06,0.04,-0.09,-0.0,27.63,14.702706,82.86949699942629,1097.6713373011726,10.291384746476055,0.09848857801796104,0.8384577949046026,1.2747244088803282
16663196,2128.0,1,199313.0,236046,-0.06,-1.55,9.23,-0.04,-0.07,-0.02,27.63,14.742703,45.646056082995564,537.5541466320733,9.359433743555217,0.08306623862918075,0.465578103720906,0.6257424020213117
16703214,2061.0,1,197864.0,233806,-1.5525,-2.535,9.52,-0.03,-0.02,0.045,27.63,14.782721,32.14611736360089,-167.74742278496205,9.97330844053266,0.057662812973353975,0.330344690131118,-0.19145806171430982
16743198,2069.0,1,197614.0,230311,0.42,-1.05,9.26,0.03,-0.07,-0.01,27.63,14.822705,5.164630844740603,-724.8387490469242,9.328799494039949,0.07681145747868609,0.06006209096418406,-0.8369341387640996
16783179,2036.0,1,196810.0,232434,-1.23,-1.13,9.72,0.05,-0.07,0.01,27.63,14.862686,12.61270357091792,-1020.2842604369497,9.862464195118784,0.08660254037844388,0.13467193330212915,-1.179253253573523
16823179,2153.0,1,198638.0,235547,-0.0,-0.98,10.66,0.03,0.07,-0.01,27.63,14.902686,130.05079568462372,-1162.920345527503,10.704952125068099,0.07681145747868609,1.3110886868976233,-1.344519119886252
16863178,2099.0,1,197155.0,230026,0.04,-0.96,8.95,0.03,-0.19,-0.01,27.63,14.942685,65.82216354741692,-1322.5872880276322,9.001427664542996,0.19261360284258222,0.6676889385981214,-1.529517856755932
16903178,1968.0,1,196909.0,231069,-0.08,-2.13,11.8,0.01,-0.05,0.045,27.63,14.982685,-7.499104177362239,-1525.9197205882333,11.990967433864542,0.06800735254367722,-0.06679478975447942,-1.7651097870537151
16943178,2121.0,1,197352.0,230176,0.28,-0.96,8.96,-0.0,0.01,-0.01,27.63,15.022685,83.675070402585,-1607.4994624594733,9.01563087088197,0.01414213562373095,0.8465274938469975,-1.8596324788771759
16983176,1984.0,1,197195.0,233307,0.43,-1.12,10.65,0.03,-0.12,0.045,27.63,15.062683,40.999890507547335,-1358.266042864751,10.717359749490544,0.13162446581088183,0.4190359049797699,-1.5708571877069497
17023178,2062.0,1,198459.0,232548,0.96,-0.98,9.77,-0.02,-0.04,-0.01,27.63,15.102685,35.57461704660779,-732.7286324954442,9.865845123454958,0.0458257569495584,0.3646891212623816,-0.8460757835477342
17063198,1952.0,1,198508.0,238334,-0.28,-1.86,11.09,-0.0,-0.05,0.045,27.63,15.142705,29.522544237244855,66.24353518323994,11.248382105885273,0.06726812023536856,0.30406347826384905,0.07965649077365247
17103199,1952.0,1,200087.0,239389,0.33,-1.42,9.56,0.06,-0.1,-0.075,27.63,15.182706,-65.3348907040651,702.2208348292878,9.670517049258535,0.13865424623862047,-0.6461552596223751,0.8165341140939185
17143178,1853.0,1,200327.0,242961,-0.63,-2.0,11.41,-0.02,-0.06,-0.02,27.63,15.222685,-43.06060594940927,938.2782227501327,11.601077536160163,0.066332495807108,-0.4230262791688885,1.0900429438510677
17183213,1904.0,1,200225.0,239573,0.2,-1.05,8.24,-0.01,-0.06,-0.075,27.63,15.26272,-118.39939833039827,804.79694079028,8.309037248682905,0.09656603957913983,-1.177720228614482,0.9353843265339711
17223198,1759.75,1,198872.0,241102,-0.29,-1.33,11.56,0.03,-0.17,0.04,27.63,15.302705,-107.87830365133773,558.5388896187824,11.639871133307276,0.17720045146669353,-1.0723268947835185,0.6500564578007222
17263179,2077.0,1,200009.0,240507,0.58,-1.22,9.43,0.02,-0.03,-0.06,27.63,15.342686,51.496463544739164,462.9335952349068,9.52626369569938,0.06999999999999999,0.5241835973003783,0.5392830038714183
17303178,1759.75,1,199580.0,242880,-0.05,-0.57,10.13,0.02,-0.19,0.01,27.63,15.382685,-101.82504693719206,580.0914955356913,10.146147051960169,0.19131126469708992,-1.0116893922137344,0.6750284702188525
17343178,1759.75,1,200822.0,244090,0.1,-2.2,11.69,-0.0,-0.0,-0.075,27.63,15.422685,-247.3892057727645,750.1611421385466,11.895633652731576,0.075,-2.469854388724417,0.8720803415000704
17383195,1767.0,1,199846.0,243875,1.12,0.04,8.49,0.03,-0.195,-0.075,27.63,15.462702,-120.31360566700029,754.70626411193,8.563649922784093,0.21106870919205434,-1.1968954854677156,0.8773465651204913
17423857,1911.0,1,200166.0,244059,0.62,-1.61,12.19,-0.05,-0.0,-0.075,27.29,15.503364,-61.39080399919024,501.7132045722289,12.311482445262227,0.09013878188659974,-0.6066460203820475,0.5842151522007346
17464199,1872.0,1,199127.0,242278,1.41,0.14500000000000013,8.53,-0.03,-0.17,-0.07,27.29,15.543706,-58.01362231377365,78.96668902197885,8.646966230996856,0.1862793601019716,-0.5728156588430229,0.09439822348493936
17504178,1935.0,1,199144.0,242474,0.37,-1.51,11.26,-0.08,-0.01,0.0,27.29,15.583685,-6.7065535227525945,-335.84965603040354,11.366820135816349,0.0806225774829855,-0.05885554405170417,-0.3862303816975388
17544178,1941.0,1,198867.0,241347,1.22,-0.91,9.28,-0.05,-0.14,0.01,27.29,15.623685,-28.200225508653933,-599.6270806987827,9.403983198623868,0.1489966442575134,-0.27416486460860284,-0.6918571420919004
17584178,1895.0,1,199357.0,242560,-0.11,-1.4,10.83,-0.08,-0.05,0.01,27.29,15.663685,-37.3862510499273,-659.9044169271853,10.920668477707764,0.09486832980505139,-0.3661843631478584,-0.7616977170381792
17624199,1959.0,1,198990.0,240781,1.02,-0.64,6.91,-0.06,-0.18,0.01,27.29,15.703706,-33.89849742034412,-536.9013129838702,7.014135727229692,0.19,-0.3312463653619058,-0.6191796822825202
17664178,1766.0,1,198936.0,241274,0.28,-1.66,9.45,-0.07,-0.03,0.045,27.29,15.743685,-182.16993766449286,-293.936108079458,9.59877596363203,0.08845903006477067,-1.816531107675876,-0.3376670829505523
17704178,1824.0,1,199155.0,240483,0.48,-0.57,6.62,-0.01,-0.07,0.03,27.29,15.783685,-181.18248722603985,-27.817065500884766,6.661809063610275,0.07681145747868609,-1.806639485475333,-0.029327197667380595
17742183,2034.0,1,199961.0,243859,0.64,-1.33,11.53,0.03,-0.03,0.045,27.29,15.82169,57.32656169832344,155.8312587281731,11.624087060926549,0.06184658438426491,0.5825856457289413,0.1834576623582421
17782169,2160.0,1,200346.0,242940,0.37,-1.52,8.63,0.05,0.02,-0.075,27.29,15.861676,139.7337834160997,208.40932352318444,8.770644218072013,0.09233092656309695,1.4080864223609921,0.24437744588902158
17822170,2096.0,1,199502.0,241678,0.47,-1.35,9.02,0.05,-0.16,-0.01,27.29,15.901677,91.51934207563154,189.9738287559885,9.132568094462806,0.16792855623746664,0.9251061939078913,0.22301708668068962
17862178,2112.0,1,199309.0,239709,0.8,-0.84,7.59,-0.03,-0.01,0.03,27.29,15.941685,68.595168296542,225.65676247910412,7.678131283066212,0.04358898943540673,0.6954670571451435,0.2643612595145594
17902179,2118.0,1,199486.0,239888,0.8,-0.8,9.61,0.01,-0.06,0.045,27.29,15.981686,86.22781676954892,383.84706093246285,9.676368120322831,0.07566372975210778,0.8720992103124586,0.4476490768965787
17942176,2182.0,1,200546.0,241929,1.11,-1.0,8.79,0.05,-0.0,-0.07,27.29,16.021683,114.31327821241908,599.8433755986957,8.916064154098487,0.08602325267042628,1.1534406965302573,0.6979140644767514
17982179,2123.0,1,200517.0,242402,0.19,-0.9,10.82,0.0,0.05,-0.01,27.29,16.061686,59.31234313286276,732.5408136505913,10.859028501666252,0.050990195135927854,0.602477884324823,0.8516644779377183
18022177,2139.0,1,199668.0,241802,1.09,-0.3,9.43,0.04,-0.06,-0.075,27.29,16.101684,49.88398965142604,694.5369891613542,9.497525993646976,0.10404326023342406,0.508030905540091,0.8076311958028131
18062179,2145.0,1,199655.0,243074,0.23,-1.13,11.25,-0.01,-0.04,0.0,27.29,16.141686,47.75203472966392,519.5878856658734,11.308947784829497,0.04123105625617661,0.48667439810089513,0.6049257224195506
18102178,1990.0,1,199698.0,242041,0.31,-1.08,11.0,0.01,-0.03,0.0,27.29,16.181685,-121.54736072039229,311.1442576996598,11.057237448838656,0.03162277660168379,-1.2092544235986091,0.3634116852715555
18142169,1870.0,1,199384.0,241969,-0.12,-1.24,11.47,-0.01,-0.06,0.01,27.29,16.221676,-256.30598373715014,140.75651160964364,11.537456392116939,0.06164414002968976,-2.559176743989163,0.16599124675655585
18182199,1903.0,1,199119.0,241407,0.58,-1.03,11.02,-0.04,-0.07,0.0,27.29,16.261706,-232.87352185195923,-2.8990561003707263,11.083217041996425,0.0806225774829855,-2.3244459148044023,-0.00045584714096729383
18222179,2023.0,1,198877.0,241065,0.18,-0.79,11.37,-0.06,-0.07,0.045,27.29,16.301686,-128.71342249062593,-177.92769464095426,11.398833273629366,0.10259142264341595,-1.2810392676136215,-0.2032534741200242
18262179,2153.0,1,198711.0,240796,0.85,-0.91,10.1,-0.09,-0.05,0.045,27.29,16.341686,-3.50207905148845,-406.1697907586035,10.176472866371727,0.11236102527122116,-0.02675524859719174,-0.4677070849995525
18302178,2225.0,1,198653.0,239821,0.94,-0.23,9.5,-0.07,-0.02,0.01,27.29,16.381685,48.07731976199216,-616.9556627227004,9.549162266921638,0.07348469228349536,0.4899328873596808,-0.7119349724553447
18342176,2215.0,1,197909.0,239124,1.2,-0.55,9.17,-0.05,-0.01,-0.01,27.29,16.421683,44.221548778088994,-673.419430027563,9.264523733036686,0.05196152422706632,0.45130833631452905,-0.7773569406269633
18382198,2240.0,1,198721.0,240868,0.62,-1.14,10.55,-0.09,0.07,-0.03,27.29,16.461705,40.860757107792296,-476.54790492994204,10.62951080718205,0.11789826122551596,0.417642159053635,-0.5492509664135604
18422178,2261.0,1,198357.0,241244,1.61,-0.65,7.32,-0.03,-0.14,-0.075,27.29,16.501685,77.97642360558567,-72.36281071216698,7.523097766213065,0.16163229875244614,0.7894422377418285,-0.08094030222093672
18462885,2365.75,1,199306.0,243292,-0.1,-2.26,10.28,-0.09,0.15,-0.075,27.61,16.542392,153.91199900799938,334.103251956475,10.52596788898769,0.19032866310674282,1.5501143628545269,0.39001321512364495
18503198,2365.75,1,199251.0,243254,1.35,-0.4,7.92,0.0,-0.09,-0.075,27.61,16.582705,168.6095068107463,495.13051060551254,8.044184234588364,0.11715374513859982,1.69734422757773,0.5765880877002592
18543179,2365.75,1,199259.0,243150,-0.23,-1.18,9.41,-0.03,0.01,-0.075,27.61,16.622686,152.06517523872867,298.02521412547384,9.486485123585027,0.08139410298049853,1.5316141097934939,0.34821125334645153
18583198,2365.75,1,198454.0,241418,0.89,-0.81,8.13,-0.01,-0.08,-0.03,27.61,16.662705,155.53124594702354,-132.78446622537174,8.21858260285799,0.08602325267042626,1.5663349024851592,-0.1509480932795572
18623198,2365.75,1,198353.0,240668,-0.34,-1.46,10.52,-0.01,0.07,-0.01,27.61,16.702705,156.0142276901776,-507.46234721337817,10.626269335942883,0.07141428428542851,1.5711730925826026,-0.5850701077080188
18663198,2365.75,1,197328.0,238727,0.77,-0.56,8.19,0.01,-0.06,-0.01,27.61,16.742705,148.71593314747142,-581.5795817948774,8.245156153766889,0.06164414002968976,1.4980636285391888,-0.6709463358310696
18703178,2323.0,1,198434.0,242393,0.05,-1.24,10.77,-0.03,0.09,-0.01,27.61,16.782685,119.61992750350986,-346.1959650312253,10.84126376397143,0.09539392014169455,1.2065991821556064,-0.3982181737003441
18743179,2365.75,1,198664.0,242559,0.41,-0.52,9.33,-0.02,0.04,-0.075,27.61,16.822686,147.85683285254603,-36.24149918673304,9.353469944357549,0.0873212459828649,1.4894577327707994,-0.039088201205874806
18783178,2363.0,1,198851.0,242993,0.81,-1.1,12.49,0.02,-0.04,-0.07,27.61,16.862685,170.56997913672478,59.84637311397831,12.56448168449459,0.08306623862918075,1.7169829363453109,0.07224439354279912
18823178,2291.0,1,198376.0,240203,0.07,0.01,9.46,-0.05,0.0,-0.03,27.61,16.902685,74.49908440622028,-164.60597847732896,9.460264266921936,0.05830951894845301,0.7546085647960267,-0.1878182147944748
18863169,2215.0,1,197579.0,238893,0.28,-1.29,11.08,-0.05,-0.03,0.045,27.61,16.942676,38.70619830706435,-547.2460343734894,11.158355613619777,0.07365459931328118,0.3960592209782372,-0.6311656347933021
18903179,2238.0,1,198055.0,237748,0.44,-1.27,9.59,-0.09,0.03,0.045,27.61,16.982686,26.589852916946487,-781.7141822097094,9.683728620732822,0.105,0.27468572577973455,-0.902833085216479
18943170,2065.0,1,197374.0,236858,0.62,-1.14,10.18,-0.01,-0.09,0.045,27.61,17.022677,-95.70514492230103,-646.3019217638071,10.262377892087194,0.1011187420807834,-0.9503842813157314,-0.7459371320097608
18983178,2075.0,1,198582.0,240367,0.15,-1.12,8.85,-0.05,0.04,-0.01,27.61,17.062685,-123.12601363448941,-159.30840903419087,8.921849584026845,0.06480740698407861,-1.2250683192676401,-0.18168016492570396
19023193,2095.0,1,199285.0,242748,-0.53,-1.44,9.67,-0.03,-0.02,-0.01,27.61,17.1027,-54.56833321111073,440.67650818337347,9.790985650076298,0.03741657386773942,-0.5383030424644432,0.5134947415895821
19063212,2108.0,1,199285.0,242339,0.35,-1.08,8.7,0.0,-0.07,-0.075,27.61,17.142719,-70.20647095722818,852.471092703583,8.773762020934917,0.10259142264341595,-0.6949555127868862,0.9906221719338549
19103179,2019.0,1,199089.0,242058,-0.0,-1.11,9.93,-0.01,-0.05,-0.02,27.61,17.182686,-121.02476660274557,884.9411554115655,9.991846676165522,0.05477225575051661,-1.2040194230611787,1.0282437390096522
19143211,2015.0,1,199024.0,241198,-0.35,-1.24,8.79,0.0,0.03,-0.02,27.61,17.222718,-142.59022808325557,543.5190002115329,8.883929310839882,0.03605551275463989,-1.4200478830614192,0.6326536033040177
19183178,1973.0,1,199176.0,241822,0.1,-1.04,10.64,0.02,-0.04,-0.02,27.61,17.262685,-155.46489100716545,7.685559586623066,10.691173929929304,0.048989794855663564,-1.5490176993107987,0.01180805984994453
19223176,1971.0,1,198068.0,235033,1.16,-0.97,8.12,-0.02,-0.06,-0.03,27.61,17.302683,-168.97778600493277,-472.5548143829409,8.259594421035453,0.06999999999999999,-1.6843809002861572,-0.5446243561971038
19263198,1950.0,1,197263.0,237732,0.28,-0.93,10.99,-0.01,0.06,-0.02,27.61,17.342705,-164.56679250191738,-714.4982297200403,11.032832818456011,0.06403124237432849,-1.640194499063597,-0.8249530549899896
19303179,1997.0,1,198026.0,237138,1.23,-0.63,9.43,0.01,-0.07,-0.075,27.61,17.382686,-128.69476015918,-701.7125748701789,9.530724001879396,0.10307764064044152,-1.2808523207807925,-0.8101389052340116
19343178,1986.0,1,198268.0,241479,0.25,-0.95,10.91,0.0,-0.02,-0.02,27.61,17.422685,-114.48362842225865,-566.2463724766596,10.954136205105359,0.0282842712474619,-1.138494648223578,-0.6531804519755158
19383176,1992.0,1,198637.0,238845,0.71,-0.71,8.74,-0.06,-0.02,-0.075,27.61,17.462683,-120.82832399307928,-455.2705774087058,8.797488277912054,0.09810708435174292,-1.2020515915597294,-0.5245979064015419
19423199,2004.0,1,198060.0,239854,-0.6,-1.78,11.57,0.02,-0.04,0.045,27.61,17.502706,-85.99918736937539,-397.23786388316853,11.721488813286477,0.0634428877022476,-0.853156449447575,-0.45735807246199184
19463865,2020.0,1,198185.0,236330,0.95,-0.51,8.29,-0.07,-0.1,0.045,27.63,17.543372,-77.93402282209966,-294.41499435398805,8.359826553224654,0.1300961183125769,-0.7723649913852869,-0.33822194643390746
19502178,1998.0,1,198601.0,241047,-0.68,-2.535,12.22,-0.02,0.04,0.045,27.63,17.581685,-88.75989117854401,-43.86872816078705,12.498680930402216,0.0634428877022476,-0.8808113453537205,-0.04792552033982562
19542178,2032.0,1,199006.0,240492,0.82,-0.57,7.31,0.02,-0.1,-0.075,27.63,17.621685,-47.974056339909524,340.04147950692794,7.3778994300546,0.12658988901172163,-0.47224595954097986,0.3968935660521262
19582195,2057.0,1,199773.0,244462,-0.99,-1.85,12.13,-0.02,0.05,-0.01,27.63,17.661702,-31.239261802370986,722.5755213064334,12.310138098331798,0.05477225575051661,-0.3046079103560759,0.8401181523969458
19622198,2067.0,1,199809.0,244791,1.14,-0.05,8.54,-0.01,-0.05,-0.075,27.63,17.701705,0.7159400597080391,958.3667363514285,8.615898095961905,0.09069178573608527,0.015498063425223266,1.113318579894678
19662198,2135.0,1,199850.0,244673,-0.42,-2.2,11.73,0.02,0.04,-0.075,27.63,17.741705,51.40564311602711,997.2097576979058,11.94191358200184,0.0873212459828649,0.5232738186077702,1.1583242008001735
19702179,2131.0,1,199056.0,243796,1.45,-0.06,9.63,-0.01,-0.11,-0.05,27.63,17.781686,63.15155529857466,886.4885706725119,9.73873708444786,0.12124355652982141,0.6409365601348671,1.0300366578456077
19742199,2153.0,1,199563.0,244126,0.21,-1.26,11.32,-0.06,0.07,-0.03,27.63,17.821706,87.43545769924873,689.2592120197414,11.391843573364234,0.09695359714832658,0.8841965545085049,0.8015160783627879
19782200,2147.0,1,199088.0,242713,1.7075,-0.28,8.59,0.0,-0.16,-0.02,27.63,17.861707,62.99699197214102,424.20403999999064,8.762537089793115,0.161245154965971,0.6393882474585003,0.49440885092658937
19822178,2089.0,1,199478.0,243181,0.24,-1.27,12.16,-0.11,0.12,-0.02,27.63,17.901685,45.92098260199669,94.24598809655687,12.228495410311115,0.16401219466856726,0.46833213486309677,0.1121016440226547
19862179,2193.0,1,197976.0,236761,1.44,-0.66,7.49,-0.02,-0.04,-0.03,27.63,17.941686,94.4007753466063,-244.26784064181274,7.6556711005632945,0.053851648071345036,0.9539704773216591,-0.2801187476809495
19902199,2138.0,1,198171.0,241415,0.64,-1.5,13.01,-0.08,0.07,-0.02,27.63,17.981706,104.20935106681463,-471.21378435954665,13.11181528240846,0.10816653826391968,1.052226269786261,-0.5430705664360702
19942176,2197.0,1,198227.0,237933,1.0,-0.51,8.07,-0.06,-0.01,-0.03,27.63,18.021683,100.08697114928307,-480.9744551193888,8.14769906169834,0.06782329983125268,1.010931007641043,-0.5543798063657454
19982199,2159.0,1,198197.0,240361,0.03,-1.37,11.88,-0.06,0.06,-0.02,27.63,18.061706,115.18588288525201,-276.9147350200162,11.95877083984805,0.08717797887081347,1.1621818701810729,-0.31794520147354105
20022184,2234.0,1,198698.0,239539,-0.76,-1.55,8.81,-0.04,0.07,-0.01,27.63,18.101691,151.83590815639215,11.847088417307452,8.977538638179176,0.08124038404635961,1.5293174645410532,0.016629831752558277
20062198,2214.0,1,198658.0,242243,-0.03,-2.43,10.59,-0.02,-0.03,0.045,27.63,18.141705,153.334983809529,215.20097619328448,10.865261156548424,0.057662812973353975,1.5443342080994364,0.25224662122082253
20102199,2182.0,1,199167.0,240996,-0.01,-1.75,10.14,-0.04,0.02,-0.075,27.63,18.181706,110.82029955094539,245.3396612494127,10.28990767694249,0.0873212459828649,1.1184503578475529,0.28716692832379287
20142198,2155.0,1,197902.0,239431,-0.05,-0.24,7.95,0.0,-0.12,0.03,27.63,18.221705,87.5501257388281,163.65369182558948,7.953778976059116,0.12369316876852982,0.885345222716879,0.1925211555247655
20182176,2112.0,1,198956.0,241333,1.23,-0.64,11.18,-0.07,0.08,-0.02,27.63,18.261683,37.14860397143907,138.70072915318303,11.265651334920674,0.10816653826391968,0.38045627615211663,0.16360930625109554
20222178,2053.0,1,198523.0,241674,0.95,-0.56,9.38,-0.04,-0.04,-0.02,27.63,18.301685,-8.999777813468006,321.1005053764908,9.44460163267885,0.060000000000000005,-0.08182754084417337,0.3749475311726187
20262196,2067.0,1,199137.0,242992,0.86,-0.53,10.56,-0.04,0.07,-0.05,27.63,18.341703,-18.196885679104913,714.1042344337774,10.608209085420592,0.09486832980505139,-0.1739580547432274,0.8303028622275308
20302178,2064.0,1,199018.0,242883,1.01,-0.72,10.16,-0.09,0.01,-0.04,27.63,18.381685,4.439129213888239,1120.8070283878253,10.23543355212665,0.09899494936611665,0.052794497818433636,1.3015306692158664
20342178,2093.0,1,199320.0,243156,0.57,-1.0,11.51,-0.05,0.05,-0.03,27.63,18.421685,8.94767372553819,1217.0021088270264,11.56741111917442,0.07681145747868609,0.09795810020990178,1.4129874810998608
20382178,2053.0,1,198578.0,240955,0.74,-0.91,9.94,-0.07,-0.07,-0.02,27.63,18.461685,-21.920048213263602,741.191028872675,10.008960985037357,0.10099504938362078,-0.2112542224747548,0.8616870841496151
20422198,2063.0,1,198488.0,239586,-0.4,-1.64,11.37,-0.06,0.05,-0.01,27.63,18.501705,-2.0938361099161558,-290.1630739847758,11.494629180621704,0.07874007874011811,-0.012648406772869368,-0.3332954420162877
20462199,2046.0,1,196213.0,230762,0.41,-0.57,7.47,-0.07,-0.12,-0.01,27.63,18.541706,-56.776921165642406,-1498.210618686644,7.5029260958642,0.1392838827718412,-0.5604272086931027,-1.7330045261191724
20502884,1913.0,1,195266.0,230727,0.21,-2.535,11.14,-0.08,0.02,0.045,27.55,18.582391,-131.40793196747592,-2302.6030137916823,11.42671978303485,0.09394147114027968,-1.308031072693519,-2.6650169684685845
20541170,2021.0,1,195633.0,229389,0.67,-0.44,6.82,-0.04,-0.01,-0.02,27.55,18.620677,-99.72693704107733,-2272.9099691690944,6.866942551092153,0.045825756949558406,-0.9906719217469624,-2.6306130044233074
20581195,1943.0,1,195857.0,234174,-0.1,-1.67,10.13,0.02,-0.04,0.045,27.55,18.660702,-100.59124023776681,-1438.7588955337103,10.267219682075572,0.0634428877022476,-0.9993299367272055,-1.6641205510408013
20621177,2064.0,1,197382.0,238294,0.52,-1.3,7.81,0.03,0.01,-0.075,27.55,18.700684,-50.827756548766544,-312.1233012904939,7.934513217583041,0.08139410298049853,-0.5008324315707529,-0.35873974657498253
20661170,2106.0,1,198357.0,241061,-0.39,-1.64,10.86,0.06,-0.02,-0.075,27.55,18.740677,41.30840372360647,433.65278947289335,10.990054594950836,0.09810708435174292,0.42212638533026964,0.5053566820186993
20701198,2112.0,1,198162.0,239848,0.58,-0.33,7.85,0.03,-0.04,-0.075,27.55,18.780705,17.236893734742967,421.6610411022971,7.878312001945594,0.09013878188659974,0.18099399697520202,0.4914623951570495
20741176,2066.0,1,197284.0,236201,0.81,-0.82,9.88,0.02,-0.07,-0.03,27.55,18.820683,-23.731611883861582,-167.0018153438705,9.94700457424244,0.07874007874011811,-0.22940126330229985,-0.190594160692328
20781178,2046.0,1,196366.0,233680,0.67,-0.44,8.68,0.03,-0.02,0.0,27.55,18.860685,-35.19057416580785,-734.3677790081971,8.716931799664374,0.03605551275463989,-0.34418953144146847,-0.8479749871628054
20821165,1996.0,1,196235.0,232438,0.96,-0.28,9.43,0.03,-0.06,0.01,27.55,18.900672,-104.17517215524614,-713.693438420693,9.48287403691518,0.06782329983125268,-1.0352313846780639,-0.8240205803556562
20861170,1968.0,1,197168.0,239296,0.14,-1.7,11.31,0.02,0.05,0.045,27.55,18.940677,-118.24147814866039,12.346571155711779,11.437906276937227,0.07017834423809101,-1.1761382891927532,0.01720855941055758
20901146,2082.0,1,198760.0,242112,0.67,-0.86,10.11,0.02,-0.02,-0.075,27.55,18.980653,-10.215630617970074,1036.2288940701305,10.168608557713291,0.08015609770940699,-0.09400714614410799,1.2035338780794982
20941178,2067.0,1,198957.0,243181,0.29,-0.88,13.04,0.05,-0.07,-0.075,27.55,19.020685,-36.9684724595269,1731.976878565182,13.072876500602305,0.11412712210513329,-0.3619993348985517,2.009665042713693
20981178,1902.0,1,198844.0,241893,-0.19,-0.47,11.62,-0.04,-0.02,-0.04,27.55,19.060685,-177.78519651838423,1689.7128413127052,11.63105326271013,0.06,-1.772607685116632,1.9606956481459041
21021218,1901.0,1,197996.0,238460,-0.17,-1.22,13.47,0.0,-0.1,-0.02,27.55,19.100725,-214.25734801557715,954.1795898379456,13.526204197778474,0.10198039027185571,-2.137961458229941,1.1084671259621774
21061198,1924.0,1,196456.0,232395,0.19,-0.71,12.28,-0.07,-0.08,0.01,27.55,19.140705,-157.07203980217858,-68.26611804638031,12.301975451121661,0.10677078252031312,-1.5651170477755512,-0.07619365299820734
21101178,2096.0,1,195677.0,233774,-0.18,-1.25,12.62,-0.06,-0.08,0.045,27.55,19.180685,-11.642973024226913,-904.7965564421493,12.683031971890632,0.10965856099730655,-0.10830531371151081,-1.0454429668073675
21141198,2220.0,1,196680.0,233655,0.54,-0.91,11.06,-0.12,-0.05,-0.02,27.55,19.220705,121.65624366742297,-1267.7514046464175,11.11050403897141,0.13152946437965904,1.2269976440833195,-1.4659820427558012
21181198,2265.0,1,195557.0,231159,0.39,-0.17,9.06,-0.1,-0.13,0.045,27.55,19.260705,176.27828969739957,-1120.8322621269408,9.069983461947436,0.1700735135169495,1.774164997612127,-1.2957535949475913
21221178,2302.0,1,196209.0,232169,0.95,-1.29,10.48,-0.135,-0.02,0.045,27.55,19.300685,185.7697745275748,-605.1962527806647,10.60174513936267,0.14370107863199916,1.8692443842893607,-0.6983098854364235
21261178,2197.0,1,196427.0,233676,0.88,-0.76,8.35,-0.12,-0.08,-0.075,27.55,19.340685,120.88091654053316,54.0210301427662,8.430569375789513,0.16255768207008858,1.2192309322339214,0.06549483678025238
21301198,2161.0,1,197618.0,238444,0.26,-1.27,9.08,-0.08,0.03,-0.075,27.55,19.380705,41.68560862232435,612.4953686385296,9.17207173979794,0.11368817000902072,0.42590497330290433,0.7125733464458501
21341178,2091.0,1,197740.0,237128,1.58,-0.54,7.45,-0.08,-0.11,-0.075,27.55,19.420685,12.111025793216125,873.4826409863001,7.6348215434285045,0.15532224567009068,0.12964645875658287,1.0149672857759129
21381198,2190.0,1,197766.0,238043,0.13,-1.45,9.04,-0.09,0.06,-0.02,27.55,19.460705,84.06859341425121,766.7982546107647,9.156473120148389,0.10999999999999999,0.8504695458295966,0.8913569979220262
21421178,2310.0,1,196865.0,232951,1.33,-0.33,6.75,-0.05,-0.09,-0.02,27.55,19.500685,218.05791283257898,387.35674048306805,6.887691921101001,0.10488088481701516,2.1926854940754272,0.45171558104272513
21461198,2307.0,1,196590.0,232734,0.23,-1.84,10.79,-0.07,0.14,0.045,27.55,19.540705,221.5184939567785,-56.396777784541236,10.948177930596488,0.1628649747490233,2.227351295762183,-0.06244119477777834
21501170,2210.0,1,196282.0,231263,0.24,-0.38,6.99,0.0,0.01,-0.03,27.55,19.580677,105.52932028777727,-359.2686030865085,7.004434309778342,0.03162277660168379,1.0654488441471195,-0.41336483768672283
21541852,2119.0,1,196413.0,232835,1.22,-1.57,10.86,-0.02,0.04,0.045,27.41,19.621359,50.9550667833024,-420.0397561693533,11.04051176350082,0.0634428877022476,0.5187602443743117,-0.48377757549205247
21582169,2106.0,1,196737.0,231571,-0.03,-0.79,7.03,0.02,0.1,0.01,27.41,19.661676,-3.193599870271475,-267.59600332681663,7.074312687463002,0.10246950765959599,-0.023665109185120034,-0.30714801599810687
21622165,1908.0,1,196007.0,232827,0.74,-0.97,9.68,0.0,0.04,0.045,27.41,19.701672,-149.71385804359167,-19.17738683929255,9.756582393440851,0.06020797289396147,-1.4914076734064479,-0.01931679968313164
21662146,1937.0,1,197437.0,233898,-0.17,-0.64,8.1,0.03,0.15,-0.01,27.41,19.741653,-169.3024491606825,187.8717682975899,8.12702282511868,0.1532970971675589,-1.687633159998699,0.22058152598454162
21702178,2029.0,1,196349.0,234423,0.83,-0.22,8.42,0.04,-0.07,0.04,27.41,19.781685,-22.48912597829946,260.64224256767375,8.463669416984574,0.09000000000000001,-0.21695486529717622,0.3048973249255914
21740169,2165.0,1,197500.0,237668,0.62,-1.41,11.48,-0.01,0.165,-0.075,27.41,19.819676,64.1277156519329,196.20875008219315,11.582870973985681,0.18152134860671348,0.6507150857666908,0.23024120303043907
21780178,2119.0,1,196257.0,235961,0.92,0.14500000000000013,8.25,0.0,-0.04,-0.075,27.41,19.859685,73.1432373748615,88.67437668353365,8.302404772112716,0.08499999999999999,0.7410265903761865,0.10564607433741974
21820170,2161.0,1,197219.0,238429,0.29,-1.09,12.11,-0.06,0.15,-0.03,27.41,19.899677,67.09823194947077,79.08080726726469,12.162413411819218,0.16431676725154984,0.6804717437330728,0.09453044704293506
21860178,2090.0,1,196480.0,236255,1.5,0.07,11.08,-0.09,-0.02,-0.04,27.41,19.939685,45.71465419618123,258.7704004343539,11.181292411881554,0.1004987562112089,0.46626527402624884,0.3027285076058551
21900178,2079.0,1,197917.0,239693,-0.58,-1.27,13.41,-0.02,0.165,-0.02,27.41,19.979685,-0.9829686960189656,579.0964177757091,13.482484934165512,0.16740669042783207,-0.0015204753392877991,0.6738755194213908
21940199,2047.0,1,196430.0,235868,0.82,0.14500000000000013,8.95,-0.08,-0.06,-0.06,27.41,20.019706,-5.667634362288012,839.3936952281989,8.988655349939723,0.11661903789690602,-0.048448342401846464,0.9754699934264796
21980178,2083.0,1,198240.0,240987,-0.9,-1.95,13.579999999999998,-0.09,0.165,-0.0,27.41,20.059685,25.645594070300298,794.5407016809086,13.748778127528277,0.18794946129212503,0.26522676823936686,0.9235008943685082
22020198,2047.0,1,197020.0,235297,-0.6,-0.07,9.01,-0.135,0.05,0.03,27.41,20.099705,-20.087504993746453,342.10849924922263,9.030227018187306,0.14705441169852743,-0.1928970224698324,0.39928852668343473
22060178,2012.0,1,196663.0,236229,-1.03,-2.31,13.579999999999998,-0.05,0.0,-0.01,27.41,20.139685,-25.616595639573543,-340.23748510029134,13.813522360354,0.050990195135927854,-0.24828377774512522,-0.39131435727080843
22100198,1984.0,1,195675.0,231925,-0.17,-0.72,7.36,-0.135,-0.01,0.045,27.41,20.179705,-87.37028163044523,-845.410045729794,7.3970872645927335,0.14265342617687105,-0.8668911604808527,-0.9766345503821919
22140198,1759.75,1,195645.0,234120,-0.97,-2.535,11.32,-0.1,-0.04,0.045,27.41,20.219705,-277.5365629517085,-790.5336222885558,11.640855853415589,0.11672617529928753,-2.771850576022814,-0.9130517644805545
22180198,1759.75,1,196888.0,237745,-0.06,-1.1,8.08,-0.07,0.0,-0.01,27.41,20.259705,-296.2849915672425,-113.41987861390467,8.154753215150045,0.07071067811865477,-2.9596598730739645,-0.12851123695833866
22220199,1759.75,1,197521.0,239532,-0.06,-1.4,9.06,-0.08,-0.03,-0.02,27.41,20.299706,-294.52089408405027,814.4374709533274,9.167725999395925,0.08774964387392122,-2.941988316964269,0.9465543650841636
22261211,1759.75,1,198037.0,240771,0.44,-0.96,9.2,-0.04,-0.02,-0.075,27.41,20.340718,-276.12839365733646,1370.9301057589678,9.26041035807809,0.0873212459828649,-2.7577444719471953,1.5913367659010405
22301198,2064.0,1,198017.0,240267,0.25,-0.94,9.63,-0.03,-0.05,-0.075,27.41,20.380705,-2.0460441408431045,1068.1722022345305,9.678997882012373,0.095,-0.012169658590802355,1.2405451189119463
22341198,2206.0,1,197272.0,234622,0.26,-0.81,9.45,-0.03,-0.02,0.02,27.41,20.420705,172.99312204608034,-105.6060616042702,9.488213741268689,0.0412310562561766,1.741256371511151,-0.11945772685613307
22381178,2154.0,1,194771.0,228844,-0.15,-1.58,9.07,-0.03,-0.06,-0.01,27.41,20.460685,95.22887141695087,-1626.0493724290275,9.207811900772084,0.06782329983125268,0.9622657933746201,-1.8811254057139943
22421211,2064.0,1,194011.0,226883,0.31,-0.86,9.5,0.01,-0.09,0.045,27.41,20.500718,15.505453993777742,-2722.117702671772,9.54388285762142,0.1011187420807834,0.16364958442173194,-3.151089328381348
22461169,2007.0,1,193888.0,226493,0.33,-0.62,8.6,-0.0,-0.09,0.045,27.41,20.540676,-36.21392548501002,-2842.06356746467,8.628632568373739,0.10062305898749054,-0.3544407848044562,-3.290065080856909
22501176,1957.0,1,195075.0,230181,-0.91,-2.44,9.84,0.03,0.02,0.045,27.41,20.580683,-106.44327998058834,-1987.127878242942,10.1787671159134,0.057662812973353975,-1.0579517814136492,-2.2994904501020117
22541856,2046.0,1,196016.0,232816,-0.23,-0.88,9.11,0.03,-0.04,-0.01,27.63,20.621363,6.215086596881686,-688.8752644419817,9.155293550727906,0.05099019513592785,0.07058485852186054,-0.7952649045371013
22580198,2333.0,1,197382.0,238820,-0.75,-1.36,10.63,0.06,-0.03,-0.0,27.63,20.659705,271.5855675411507,349.39160586188774,10.742858092705125,0.0670820393249937,2.728889962714691,0.40772712707705827
22620198,2365.75,1,197780.0,237338,0.6,-0.54,9.54,0.02,-0.09,-0.02,27.63,20.699705,310.7864730340788,702.8619808923906,9.574090035089496,0.09433981132056603,3.1215785797380615,0.8172769805255401
22660176,2273.0,1,197596.0,237268,-1.5525,-1.81,10.98,0.05,0.03,-0.01,27.63,20.739683,225.12143865281294,466.1423174842192,11.235958181214453,0.05916079783099616,2.2634432010920915,0.5430008026455003
22700178,2245.0,1,196617.0,234034,1.21,-0.43,10.07,0.03,-0.18,-0.02,27.63,20.779685,173.54772483492087,126.24511748201718,10.151546680186227,0.18357559750685817,1.7468120136425906,0.14917756233451707
22740178,2139.0,1,196771.0,235159,-0.33,-1.02,11.87,-0.0,-0.04,-0.02,27.63,20.819685,93.0255094184197,165.83731795309632,11.9183136391018,0.044721359549995794,0.9401939772998322,0.19505122260727425
22780215,2156.0,1,197353.0,239426,0.49,-0.92,9.74,0.01,-0.09,-0.02,27.63,20.859722,88.82962045886352,694.4718116199116,9.79561636651824,0.09273618495495703,0.8981623504281268,0.8075556775856396
22820176,2153.0,1,198789.0,241735,0.45,-1.33,13.01,-0.01,-0.05,-0.075,27.63,20.899683,84.49455274186242,1385.1951544821407,13.085545460545386,0.09069178573608527,0.8547365232670955,1.6078650212421188
22860203,2070.0,1,198631.0,242700,0.17,-0.79,10.45,0.01,-0.09,-0.06,27.63,20.93971,27.987477025816634,1750.1318060970805,10.481197450673276,0.10862780491200215,0.28868619519567057,2.0307003215808828
22900178,2083.0,1,198438.0,240587,1.22,-0.06,11.34,-0.03,-0.07,-0.075,27.63,20.979685,-19.43601859045077,1518.3570492699903,11.405595118186511,0.10688779163215975,-0.18637086468080216,1.7621535793442786
22940199,1942.0,1,197720.0,239900,-0.14,-0.76,11.78,-0.04,-0.1,-0.02,27.63,21.019706,-75.34091935982465,814.1516801241684,11.80532083426791,0.10954451150103323,-0.7463890043616457,0.9462232324052541
22980212,2036.0,1,196065.0,231235,1.54,-0.18,9.22,-0.07,-0.12,-0.03,27.63,21.059719,-87.49431894746871,21.406811048986757,9.349459877447467,0.14212670403551897,-0.8681336838835334,0.02770624233569281
23020198,1936.0,1,195961.0,237801,-0.59,-1.34,11.98,-0.08,0.06,-0.02,27.63,21.099705,-77.89773304507285,-513.8870397524788,12.069138328812045,0.1019803902718557,-0.7720014645184059,-0.5925141032270582
23060220,1971.0,1,196689.0,235598,1.24,-1.03,7.93,-0.08,-0.1,-0.03,27.63,21.139727,-147.2386038670441,-680.5504975697943,8.092181411708465,0.13152946437965907,-1.4666122222007318,-0.7856193803479725
23100198,1808.0,1,196166.0,237182,0.24,-0.82,9.38,-0.09,-0.07,-0.01,27.63,21.179705,-227.1276774015212,-569.2971240177001,9.418832199375887,0.11445523142259598,-2.26688786397619,-0.6567152173612514
23140198,1909.0,1,196570.0,236335,0.75,-1.44,7.74,-0.09,-0.01,-0.02,27.63,21.219705,-184.05142551444754,-314.20831080171183,7.908457498147158,0.09273618495495703,-1.835378602458318,-0.3611555511234806
23180198,1937.0,1,195797.0,235530,0.62,-0.59,7.55,-0.05,-0.11,-0.02,27.63,21.259705,-129.01522371925137,-4.16392580843805,7.598355085148364,0.1224744871391589,-1.2840625117350173,-0.001921393450260379
23220198,1991.0,1,196759.0,238048,-0.02,-1.56,9.05,-0.07,0.11,-0.02,27.63,21.299705,-76.89991601574704,271.42140594778215,9.183490621762513,0.1319090595827292,-0.7620059967004748,0.317386645373563
23260199,2159.0,1,196747.0,236837,0.74,-0.78,7.99,-0.01,-0.02,-0.02,27.63,21.339706,72.93834565622062,361.4192107457481,8.062015876937977,0.03,0.7389741213165842,0.4216629592301664
23301198,2203.0,1,196708.0,237093,0.31,-1.11,9.95,-0.02,0.07,-0.03,27.63,21.380705,144.49747889530738,115.72542703996332,10.016521352245997,0.07874007874011811,1.4558059575637698,0.13698888123643418
23341178,2185.0,1,195933.0,233907,1.19,-0.09,8.8,0.02,-0.02,-0.075,27.63,21.420685,97.25678455949982,-445.7977055263841,8.88055178465843,0.08015609770940699,0.9825800794192301,-0.5136221257839829
23381176,2117.0,1,195391.0,232169,0.27,-1.29,10.34,-0.01,0.08,-0.04,27.63,21.460683,53.99042908374545,-1030.1123856014183,10.423655788637689,0.09000000000000001,0.5491664864990219,-1.1906406498169397
23421178,2090.0,1,194850.0,229770,0.83,-0.25,8.78,0.02,-0.01,-0.02,27.63,21.500685,9.915919457955802,-1188.6574317901222,8.822686665636494,0.03,0.10765734242945826,-1.3743394970710077
23461178,2001.0,1,195063.0,231355,0.69,-1.49,10.05,-0.03,0.08,0.045,27.63,21.540685,-68.00121143318142,-626.6083765044408,10.183255864408004,0.09656603957913983,-0.6728646885626407,-0.7231191276037098
23501169,1980.0,1,196335.0,234664,0.68,-0.61,9.34,0.01,0.06,-0.02,27.63,21.580676,-94.40670662207086,519.5938123003932,9.38456711841308,0.06403124237432849,-0.9373773894086159,0.6049325893381681
23541166,2115.0,1,197654.0,240551,0.43,-0.99,11.2,-0.01,0.04,-0.02,27.63,21.620673,45.546751810538105,1685.0881295774207,11.251888730342118,0.045825756949558406,0.46458333952029673,1.9553372075318531
23581864,2192.0,1,198512.0,241659,0.17,-1.07,10.68,-0.0,0.09,-0.075,27.43,21.661371,119.92680937271007,2213.036935102949,10.734812527473407,0.11715374513859982,1.2096733207575199,2.567047187222859
23620178,2093.0,1,197741.0,238751,0.17,-0.62,10.79,-0.04,-0.04,-0.05,27.43,21.699685,25.469996016132185,1801.579562185942,10.809135025523549,0.0754983443527075,0.26346774364092457,2.090310468441502
23660198,2093.0,1,196550.0,233515,-0.38,-0.88,11.07,-0.06,0.04,-0.02,27.43,21.739705,24.62221804883077,718.657788327116,11.111422051204787,0.07483314773547883,0.2549752674254827,0.8355788555254858
23700199,2102.0,1,194463.0,228354,1.06,0.14500000000000013,8.76,-0.08,-0.12,0.045,27.43,21.779706,35.79573346901465,-393.2037097979422,8.825090651092486,0.15107944929738126,0.3669041186208423,-0.452683883813932
23740170,2037.0,1,194259.0,228700,0.29,-1.69,10.52,-0.12,0.06,0.045,27.43,21.819677,-27.066231235019544,-971.1733300110768,10.658827327619113,0.14150971698084905,-0.26280526366504187,-1.122350679045462
23780169,2083.0,1,194970.0,231062,0.16,-0.11,9.85,-0.08,0.08,-0.01,27.43,21.859676,21.307589782183964,-885.8821888638059,9.851913519717883,0.11357816691600547,0.22177152446064435,-1.023527759715082
23820178,2148.0,1,195342.0,232456,-0.3,-1.33,10.67,-0.03,0.05,-0.06,27.43,21.899685,84.04134741781021,-438.32035275833067,10.756756016569309,0.08366600265340755,0.8501966135458316,-0.5049584613111835
23860199,2099.0,1,195476.0,234008,-0.13,-1.81,10.39,-0.09,0.04,-0.04,27.43,21.939706,48.336328569886625,-59.34015271362588,10.547279270029785,0.1063014581273465,0.49252746545143683,-0.06585154782574319
23900198,2099.0,1,194939.0,231834,-0.45,-1.13,9.84,-0.05,-0.01,-0.075,27.43,21.979705,29.743899435538697,1.9746982326450027,9.914887795633392,0.09069178573608527,0.3062808675204473,0.005191147667744031
23940212,2047.0,1,194702.0,230127,-0.49,-1.47,10.99,0.0,-0.01,-0.02,27.43,22.019719,12.871737172561799,-228.37190368948845,11.09869812185195,0.022360679774997897,0.13726675976118807,-0.2617008572178834
23980198,2052.0,1,194126.0,230044,0.44,-0.96,9.96,-0.06,-0.05,-0.02,27.43,22.059705,-25.845479455703895,-565.1255564744877,10.015827474552465,0.0806225774829855,-0.2505765836914438,-0.6518818140645094
24020195,2003.0,1,195397.0,232488,-0.41,-1.29,10.44,-0.05,0.1,-0.02,27.43,22.099702,-12.579230843893946,-818.7850527098611,10.527383340602734,0.11357816691600547,-0.11768412228134571,-0.9457853965077283
24060199,2067.0,1,193884.0,228763,1.27,-0.55,9.01,-0.04,-0.16,-0.06,27.43,22.139706,-18.178651810819517,-866.8252325893802,9.115673315778709,0.17549928774784243,-0.17377539996956992,-1.0014473416639464
24100198,1905.0,1,194082.0,232491,-0.66,-1.71,10.02,-0.06,0.06,0.045,27.43,22.179705,-96.23196051429586,-660.381351539609,10.186270171166676,0.09604686356149274,-0.9556615697774512,-0.762250319220486
24140178,1932.0,1,195082.0,229128,1.56,-0.47,9.2,-0.03,0.03,-0.03,27.43,22.219685,-152.67056962479165,-237.05608305906892,9.34315257287389,0.05196152422706632,-1.5210260448996231,-0.2717628161241286
24180178,1854.0,1,194697.0,233371,-0.07,-2.09,12.09,0.0,-0.08,0.045,27.43,22.259685,-143.40093638606072,257.60581440558906,12.26951914298193,0.0917877987534291,-1.4281690200156498,0.30137915537975235
24220178,1972.0,1,195919.0,232080,1.26,-0.37,8.2,-0.05,0.03,-0.07,27.43,22.299685,-100.3661578119491,599.7451985869113,8.304486739106759,0.091104335791443,-0.9970752105825105,0.6978003112922453
24260178,1965.0,1,195418.0,234033,-0.15,-2.09,10.98,-0.03,-0.06,-0.01,27.43,22.339685,-40.42846562807414,595.3885479976236,11.17814832608693,0.06782329983125268,-0.39665924683635717,0.6927524607893141
24299215,2096.0,1,195486.0,229975,0.69,-1.17,7.8,-0.05,-0.01,-0.02,27.43,22.378722,45.41750651358541,208.3260454603501,7.9173859322379885,0.05477225575051661,0.463288646036079,0.2442809554308712
24339198,2140.0,1,194263.0,229528,0.93,-0.94,11.35,0.01,-0.06,0.04,27.43,22.418705,119.5880996820693,-395.2591445887311,11.42676682180922,0.07280109889280519,1.2062803521942267,-0.45506542149518137
24379170,2151.0,1,194223.0,226927,-0.22,-1.19,9.6,-0.04,0.11,-0.03,27.43,22.458677,124.22310174301663,-937.3045818580317,9.675975403027852,0.12083045973594572,1.2527107222667297,-1.0831085195254
24419198,2115.0,1,192915.0,227820,0.27,-1.23,9.72,0.04,-0.14,-0.01,27.43,22.498705,80.78506887957138,-1195.5578756461675,9.80123461610832,0.14594519519326427,0.8175773793790452,-1.382334723742349
24459178,2064.0,1,194809.0,230079,-0.42,-1.49,10.99,-0.04,0.1,-0.02,27.43,22.538685,54.65542281311445,-1121.059820522213,11.098495393520691,0.10954451150103323,0.5558279517032436,-1.2960172563857717
24499236,2115.0,1,193569.0,228304,-0.27,-0.96,7.41,0.01,-0.14,-0.01,27.43,22.578743,74.9097298670038,-820.9177627753492,7.476804130107998,0.1407124727947029,0.7587221380937429,-0.9482564694928217
24539198,2117.0,1,195352.0,232889,-0.06,-1.62,12.76,-0.02,0.09,-0.02,27.43,22.618705,113.82508284942064,-441.3404078433343,12.862565840453453,0.09433981132056603,1.1485502798543552,-0.5084576601262548
24579198,2105.0,1,194339.0,229602,-0.04,-0.31,6.94,-0.03,-0.05,-0.02,27.43,22.658705,68.42068836594837,-64.9928796410771,6.9470353389053665,0.061644140029689765,0.6937192331655287,-0.07240110232383133
24619900,1958.0,1,195542.0,234697,-0.61,-1.75,12.67,-0.03,0.09,-0.02,27.47,22.699407,-48.465404099162235,299.17354780615807,12.80482330998753,0.09695359714832658,-0.47716795482737157,0.34954177472492237
24660198,1995.0,1,195659.0,233378,0.66,-0.46,9.19,-0.09,0.05,-0.075,27.47,22.739705,-34.43519853639309,657.5468653673611,9.225144985310529,0.12737739202856996,-0.33662268043335714,0.7647724420032513
24700181,2032.0,1,196457.0,237482,-0.16,-1.82,13.0,-0.01,0.02,-0.075,27.47,22.779688,20.7425602409245,985.938809658319,13.12775685332418,0.07826237921249264,0.21611143405343283,1.1452650721039144
24740198,2001.0,1,196442.0,235162,0.59,-0.26,9.01,-0.07,0.01,-0.075,27.47,22.819705,-26.088240257765257,1240.8046309403906,9.033039355610049,0.10307764064044152,-0.25300840005972025,1.4405663678520852
24780178,2017.0,1,196751.0,238769,-0.07,-1.41,12.76,-0.03,0.03,-0.02,27.47,22.859685,4.7888308974116205,1398.7632429176697,12.837858076797701,0.0469041575982343,0.056297576860786736,1.6235857407787064
24820198,2035.0,1,197032.0,236227,0.7,-0.66,9.14,-0.09,0.02,-0.07,27.47,22.899705,4.889420390227715,1468.471023172693,9.190495090037317,0.11575836902790225,0.05730521554474929,1.7043529371390809
24860178,1895.0,1,196427.0,238364,0.33,-1.27,11.49,-0.04,-0.06,-0.02,27.47,22.939685,-118.82127340790015,1458.18089659294,11.564683307380276,0.07483314773547883,-1.181946292748912,1.6924302411215135
24900198,1925.0,1,197226.0,237177,0.86,-0.71,8.92,-0.1,0.03,-0.075,27.47,22.979705,-106.88274972383422,1338.5541702306402,8.989443809268737,0.1285496013218244,-1.0623540972155117,1.5538242596556733
24940178,1984.0,1,196263.0,236901,0.1,-1.45,9.82,-0.04,-0.12,-0.02,27.47,23.019685,-37.41621763135406,1052.3378338392524,9.926978392240008,0.12806248474865697,-0.36648454844382083,1.2221985651019538
24980198,1964.0,1,197069.0,237407,-0.03,-1.73,9.83,-0.1,0.08,-0.02,27.47,23.059705,-67.0161268852171,573.3676642357698,9.981117171940223,0.12961481396815722,-0.6629967662805653,0.667237876386887
25020198,1942.0,1,195598.0,230297,-0.4,-1.51,8.54,-0.05,-0.05,-0.02,27.47,23.099705,-90.35437515239752,-43.95076552710734,8.681687623958835,0.07348469228349536,-0.8967838260575506,-0.04802057326003392
25060212,1953.0,1,194365.0,229778,-0.27,-1.37,9.46,-0.02,-0.01,-0.02,27.47,23.139719,-79.18423415143594,-680.7476772020037,9.562499673202609,0.03,-0.7848887775512106,-0.7858478433117144
25100215,2033.0,1,194769.0,231091,-0.29,-0.94,8.65,-0.06,0.04,-0.02,27.47,23.179722,-9.062674370120202,-1214.9777226067363,8.70575671610458,0.07483314773547883,-0.08245759674560502,-1.4048356065278058
25140198,2127.0,1,195357.0,233051,-0.17,-1.65,10.94,0.01,0.02,-0.07,27.47,23.219705,88.92937126096155,-1554.8917985358132,11.065035020278968,0.07348469228349534,0.899161587665897,-1.798678400198467
25180178,2113.0,1,194502.0,228241,-0.29,-1.52,7.71,-0.07,-0.03,-0.01,27.47,23.259685,63.53189260510226,-1626.546150647407,7.86375228501,0.07681145747868609,0.6447465264870388,-1.8817009997691292
25220212,2053.0,1,194268.0,231065,0.1,-1.76,11.32,0.0,0.01,0.045,27.47,23.299719,5.078442143325945,-1382.0452568617657,11.4564392373896,0.046097722286464436,0.05919870983724381,-1.5984090684176233
25260147,2112.0,1,195363.0,231200,-0.17,-0.75,7.95,-0.03,0.11,-0.06,27.47,23.339654,55.72225466169137,-866.3955798053565,7.987108362855734,0.12884098726725127,0.5665147641109247,-1.0009495227598433
25300198,2169.0,1,196075.0,235899,-0.23,-1.9,12.75,0.06,-0.0,-0.05,27.47,23.379705,111.10241445935841,-264.5984025916482,12.892842975852922,0.07810249675906655,1.121276397497233,-0.3036748340046248
25339198,2187.0,1,197026.0,236649,0.08,-0.94,10.0,-0.05,0.04,-0.075,27.47,23.418705,119.30425084492222,175.76557881376021,10.044401425669925,0.0986154146165801,1.2034369431989145,0.2065546414726666
25379176,2150.0,1,196906.0,237540,-0.18,-1.18,11.82,0.04,-0.08,-0.07,27.47,23.458683,88.85676457800767,324.21299943762,11.88011784453336,0.11357816691600547,0.8984342621728428,0.37855383477439786
25419199,2154.0,1,197090.0,235084,-0.17,-1.33,10.88,-0.04,0.02,-0.07,27.47,23.498706,65.17128798050766,291.51878798023813,10.962308151114893,0.08306623862918075,0.6611688997620284,0.3406725568601485
25459198,2117.0,1,196738.0,238648,0.44,-1.33,11.07,-0.02,-0.07,-0.01,27.47,23.538705,60.8999295017754,357.56242665857144,11.15828839921249,0.07348469228349536,0.6183812694067293,0.4171942810345769
25499198,2078.0,1,198040.0,237999,0.71,-0.03,10.68,-0.07,0.07,-0.075,27.47,23.578705,-35.660025807639435,725.1503478880586,10.703616211355861,0.12419742348374221,-0.3488921859764116,0.8431014854388417
25539176,1973.0,1,197595.0,240465,-0.5,-1.19,11.78,-0.0,-0.1,-0.02,27.47,23.618683,-82.5273871185235,1285.4269946654858,11.850506318297121,0.10198039027185571,-0.8183782620066149,1.4922682467508772
25579215,2075.0,1,198453.0,240244,1.46,-0.74,10.86,-0.09,-0.03,-0.03,27.47,23.658722,-48.6053367195781,1606.984703051536,10.982659058716154,0.09949874371066199,-0.47856970681489835,1.8648423622856567
25619885,1993.0,1,198350.0,241713,-0.67,-1.84,12.03,-0.06,-0.06,-0.02,27.41,23.699392,-83.89260053211883,1217.8293305173952,12.18833048452494,0.08717797887081347,-0.8320540626184966,1.413945944795809
25660216,2000.0,1,198300.0,238055,1.07,-0.43,10.1,-0.06,-0.09,-0.04,27.41,23.739723,-107.30784238489296,13.90728472941228,10.165618525205439,0.11532562594670795,-1.066612392963503,0.01901688638938554
25700198,1943.0,1,195743.0,230593,-0.69,-2.1,9.79,-0.07,-0.08,-0.01,27.41,23.779705,-175.49790233786743,-1533.7077228909372,10.03644359322564,0.10677078252031312,-1.749695092226787,-1.7741333868432407
25740215,1759.75,1,193670.0,227265,0.24,-0.36,7.29,-0.1,-0.0,0.045,27.41,23.819722,-319.7805120461074,-2608.608597672756,7.302828219258618,0.10965856099730655,-3.1950223813393457,-3.019571553197491
25780178,1759.75,1,194558.0,228851,0.61,-1.56,9.91,-0.05,-0.08,0.045,27.41,23.859685,-393.9907860372853,-2603.4894370285956,10.0505621733314,0.10452272480183436,-3.9384115836060687,-3.0136402173920107
25818178,1829.0,1,195771.0,235465,0.77,-1.46,7.63,0.0,-0.14,-0.075,27.41,23.897685,-241.52647494541756,-1570.0499959122374,7.806497293921263,0.15882380174268593,-2.4111254478588426,-1.816241505772794
25858178,2251.0,1,198373.0,239794,-1.21,-2.4,9.15,0.01,0.12,-0.075,27.41,23.937685,95.54449710476356,-184.35348732619406,9.536592682924024,0.14186260959111108,0.9654275217399656,-0.2106987443277557
25898179,2365.75,1,198135.0,240340,0.35,-0.98,8.71,0.065,-0.06,-0.07,27.41,23.977686,270.4198376833263,747.5101185858604,8.771943912269391,0.11280514172678478,2.717212455781223,0.8690087225351221
25938178,2365.75,1,198491.0,239453,-0.01,-1.46,10.66,0.04,-0.03,-0.0,27.41,24.017685,241.5859748874994,839.696548647167,10.759521364819161,0.05,2.428373982221536,0.9758208957428166
25978199,2365.75,1,197644.0,237191,0.28,-1.18,8.69,0.04,-0.08,-0.01,27.41,24.057706,229.80812679048128,319.22248668100826,8.7742179138656,0.09,2.3103913279289277,0.3727715573546092
26018178,2307.0,1,197636.0,235675,-0.54,-1.3,9.99,0.03,0.03,-0.02,27.41,24.097685,216.22264160763476,-228.95242965421434,10.088691689213226,0.0469041575982343,2.174300966725258,-0.26237348593183435
26058178,2220.0,1,196749.0,236532,0.25,-0.19,7.69,0.06,-0.05,0.045,27.41,24.137685,65.47784881510913,-313.84554445939614,7.696408253204868,0.09013878188659974,0.664239822452702,-0.3607352304606284
26098169,2115.0,1,198683.0,240763,0.22,-1.05,10.19,-0.01,0.08,-0.02,27.41,24.177676,24.497871940452086,157.14817143419413,10.246316411276785,0.08306623862918075,0.2537296507562384,0.18498350849374584
