timestamp_us,ecg,leads,ir,red,accX,accY,accZ,gyroX,gyroY,gyroZ,temp,time_sec,ecg_filtered,ppg_filtered,accel_magnitude,gyro_magnitude,ecg_norm,ppg_norm
1949956,1507.0,1,197059,233317,0.67,-0.305,9.915000000000003,-0.03,-0.01,-0.0,32.42,0.030472,3.109795615709027,270.5683253526035,9.942290983470564,0.03162277660168379,0.02556009487975679,0.1448027466170562
1990196,1531.0,1,201225,241952,0.71,-0.32,9.97,-0.03,-0.01,-0.01,32.42,0.070712,19.518278446611006,3358.327022147787,10.000369993155253,0.033166247903554,0.1332649189554952,1.9605299562363392
2030171,1520.0,1,203100,245466,0.69,-0.33,10.03,-0.03,-0.01,-0.01,32.42,0.110687,8.750594404462742,5386.846377638481,10.059120239861931,0.033166247903554,0.06258614094692755,3.1533815196783577
2070189,1535.0,1,203100,243702,0.69,-0.34,10.02,-0.03,-0.01,-0.0,32.42,0.150705,9.105286255327137,5946.073674278949,10.049482573744779,0.03162277660168379,0.0649143283724281,3.482229826356541
2110186,1535.0,1,203100,241054,0.71,-0.31,9.95,-0.03,-0.01,-0.0,32.42,0.190702,13.009095897403512,5437.138710890514,9.980115229795695,0.03162277660168379,0.09053882608242719,3.182955449148862
2150189,1526.0,1,202120,240141,0.7,-0.31,9.97,-0.03,-0.01,-0.0,32.42,0.230705,-12.532678386762253,4671.279501709611,9.999349978873628,0.03162277660168379,-0.07711666859118191,2.7325992065154656
2190186,1501.0,1,202262,240893,0.72,-0.32,9.98,-0.03,-0.01,-0.01,32.42,0.270702,-36.800059357494554,4262.946885363279,10.011053890575159,0.033166247903554,-0.23640708106668848,2.4924830851214606
2230189,1497.0,1,203100,243010,0.7,-0.33,9.99,-0.03,-0.01,-0.01,32.42,0.310705,-52.984852749839035,4283.441857060144,10.01993013947702,0.033166247903554,-0.34264361390089526,2.504534958802198
2270166,1458.0,1,203100,243309,0.68,-0.32,10.03,-0.03,-0.01,-0.01,32.42,0.350682,-100.36616235824185,4374.20888862498,10.058116125796122,0.033166247903554,-0.6536532098789163,2.557909650652213
2310189,1401.0,1,203100,240979,0.6699999999999999,-0.32,10.01,-0.03,-0.01,-0.01,32.42,0.390705,-161.71268810254068,4140.197108360916,10.037499688667491,0.033166247903554,-1.056330095428868,2.4203012432213082
2350186,1392.0,1,202176,236347,0.68,-0.32,9.97,-0.03,-0.01,-0.0,32.42,0.430702,-189.1108596301595,3469.9325660260547,9.998284852913525,0.03162277660168379,-1.2361709298795494,2.0261585375676643
2390189,1392.0,1,200549,235047,0.7,-0.32,9.95,-0.03,-0.01,-0.0,32.42,0.470705,-188.68913954036753,2568.8167881878653,9.97972444509366,0.03162277660168379,-1.233402770961486,1.4962659528471505
2430186,1396.0,1,200834,236516,0.7,-0.32,9.98,-0.03,-0.01,-0.0,32.42,0.510702,-206.5050608427927,1774.2013251054966,10.009635357993817,0.03162277660168379,-1.3503459819456927,1.0289998679032766
2470189,1395.0,1,201267,236755,0.68,-0.33,10.0,-0.03,-0.01,-0.0,32.42,0.550705,-211.798665618969,1365.6132989499065,10.028524318163665,0.03162277660168379,-1.3850930561889496,0.7887335551938833
2510186,1450.0,1,201086,235975,0.69,-0.305,9.96,-0.03,-0.01,-0.0,32.42,0.590702,-171.57534905137334,1480.9114301830384,9.988529671578295,0.03162277660168379,-1.121068327071597,0.8565335274894966
2550189,1493.0,1,200940,236186,0.71,-0.34,9.96,-0.03,-0.01,-0.0,32.42,0.630705,-146.07889005417564,2073.76209169951,9.991061004718167,0.03162277660168379,-0.9537102806789252,1.2051537349148738
2590186,1535.0,1,201169,237392,0.72,-0.32,9.98,-0.03,-0.01,-0.0,32.42,0.670702,-107.63671376750443,2846.887530573646,10.011053890575159,0.03162277660168379,-0.7013769067336604,1.6597828149882685
2630189,1632.0,1,202042,239395,0.7,-0.31,9.98,-0.03,-0.01,-0.01,32.42,0.710705,-38.58561639288376,3259.7374933029614,10.009320656268336,0.033166247903554,-0.248127427692009,1.9025553190689684
2670166,1680.0,1,202702,239464,0.7,-0.33,10.02,-0.03,-0.01,-0.0,32.42,0.750682,8.281839278424629,2765.2094769847777,10.04984079475889,0.03162277660168379,0.05950924536158718,1.611752810414408
2710189,1744.0,1,201433,233431,0.68,-0.31,10.01,-0.03,-0.01,-0.0,32.42,0.790705,47.51130732042526,1212.0875975695087,10.037858337314788,0.03162277660168379,0.3170103804507611,0.6984542229191166
2750186,1786.0,1,198089,226243,0.69,-0.31,9.99,-0.03,-0.01,-0.0,32.42,0.830702,77.81011629318357,-926.8334089769286,10.018597706266082,0.03162277660168379,0.5158909182643812,-0.5593179841006741
2790189,1840.0,1,195155,221788,0.71,-0.31,9.96,-0.03,-0.01,-0.0,32.42,0.870705,119.42644834111654,-2798.398436653794,9.990085084722754,0.03162277660168379,0.789059362177958,-1.6598740440194206
2830186,1889.0,1,194437,223064,0.73,-0.32,9.95,-0.03,-0.01,-0.0,32.42,0.910702,145.72673479285484,-3764.4819672428384,9.981873571629727,0.03162277660168379,0.9616937095833902,-2.227970299428315
2870189,1878.0,1,195579,226177,0.7,-0.34,9.96,-0.03,-0.01,-0.01,32.42,0.950705,127.29853363079201,-3848.9738599713,9.990355349035388,0.033166247903554,0.8407315106618467,-2.2776549554147207
2910166,1895.0,1,196303,225832,0.69,-0.32,10.03,-0.03,-0.01,-0.01,32.42,0.990682,125.33776108080534,-3633.5525681992253,10.058797144788237,0.033166247903554,0.8278610542811307,-2.150978508382812
2950189,1881.0,1,195253,223001,0.69,-0.33,9.99,-0.03,-0.01,-0.0,32.42,1.030705,93.40916517331854,-3709.8808992196505,10.01923649785751,0.03162277660168379,0.6182826404423558,-2.195862659350457
2990873,1843.0,1,194021,220700,0.71,-0.32,9.99,-0.03,-0.01,-0.0,32.42,1.071389,52.64952454152755,-4194.569758071265,10.020309376461388,0.03162277660168379,0.3507374951124235,-2.4808793447959947
3029194,1893.0,1,193302,220500,0.71,-0.32,9.96,-0.03,-0.01,-0.0,32.42,1.10971,70.81495413147437,-4705.507645849537,9.990400392376674,0.03162277660168379,0.46997486875679023,-2.7813315226903703
3069186,1895.0,1,193927,223432,0.7,-0.31,9.95,-0.03,-0.01,-0.0,32.42,1.149702,80.95754492351861,-4741.947290120198,9.979408800124384,0.03162277660168379,0.5365505520900482,-2.8027595098189497
3109189,1904.0,1,195231,225860,0.67,-0.31,9.98,-0.03,-0.01,-0.01,32.42,1.189705,58.06223206780888,-4088.923076548413,10.00726735927446,0.033166247903554,0.3862663564885432,-2.418754815944008
3149185,1852.0,1,195706,226479,0.71,-0.32,9.97,-0.03,-0.01,-0.0,32.42,1.229701,8.563086259452408,-2938.8944384625634,10.000369993155253,0.03162277660168379,0.061355342708039065,-1.7424913850673711
3189189,1835.0,1,196301,228956,0.69,-0.32,9.98,-0.03,-0.01,-0.01,32.42,1.269705,-24.754703485520395,-1716.1110677405752,10.008941002923336,0.033166247903554,-0.15734170076977508,-1.0234452238520184
3229186,1870.0,1,197791,232036,0.72,-0.31,9.98,-0.03,-0.01,-0.0,32.42,1.309702,-2.099648664087539,-787.6246081123772,10.010739233443253,0.03162277660168379,-0.008634552210415904,-0.47745756935693595
3269189,1910.0,1,198722,232514,0.67,-0.305,10.01,-0.03,-0.01,-0.0,32.42,1.349705,38.88122346045436,-249.02406183931848,10.037032679034178,0.03162277660168379,0.2603627504732648,-0.16073862755658455
3309186,1957.0,1,198911,232559,0.67,-0.32,10.02,-0.03,-0.01,-0.0,32.42,1.389702,65.30782690902738,107.83877410273718,10.04747231894669,0.03162277660168379,0.43382623912606666,0.0491111777388949
3349189,1936.0,1,199179,233662,0.71,-0.31,9.99,-0.03,-0.01,-0.0,32.42,1.429705,50.494464116631335,623.1778178634834,10.019995009978798,0.03162277660168379,0.33659173853467944,0.35215141365718655
3389186,1937.0,1,199958,236092,0.7,-0.31,9.97,-0.03,-0.01,-0.0,32.42,1.469702,37.758843137940744,1479.5093537193338,9.999349978873628,0.03162277660168379,0.2529954773116818,0.8557090497258173
3429189,1965.0,1,201231,238892,0.68,-0.33,10.01,-0.03,-0.01,-0.01,32.42,1.509705,62.71289224303527,2486.1789520569605,10.038495903271565,0.033166247903554,0.4167931602869701,1.4476715572544252
3470228,1941.0,1,202360,240544,0.7,-0.32,9.99,-0.03,-0.01,-0.01,32.42,1.550744,43.21778159160863,3124.348515805569,10.01960578066822,0.033166247903554,0.28882779720693097,1.8229411152195234
3510189,1910.0,1,202221,238904,0.69,-0.32,9.98,-0.03,-0.01,-0.0,32.42,1.590705,-6.516377679930208,2867.11267431739,10.008941002923336,0.03162277660168379,-0.03762583839719581,1.671676018900897
3550186,1861.0,1,200951,235434,0.68,-0.32,10.0,-0.03,-0.01,-0.0,32.42,1.630702,-32.87666772153737,1569.252328057148,10.028200237330724,0.03162277660168379,-0.21065404769451274,0.9084815544382031
3590189,1829.0,1,198912,231275,0.68,-0.33,9.99,-0.03,-0.01,-0.0,32.42,1.670705,-91.8694304319925,-356.02002482585,10.018552789699717,0.03162277660168379,-0.5978808982784847,-0.22365658857332574
3630186,1777.0,1,197372,228995,0.72,-0.33,9.98,-0.03,-0.01,-0.01,32.42,1.710702,-118.89985012321125,-2114.0332177343053,10.011378526456784,0.033166247903554,-0.7753078199225291,-1.2574395692662925
3670208,1822.0,1,196958,228946,0.71,-0.33,9.99,-0.03,-0.01,-0.0,32.42,1.750724,-86.73008477671544,-2952.3377228855993,10.020633712495433,0.03162277660168379,-0.5641463766063431,-1.7503965809425837
3708186,1850.0,1,197337,231001,0.69,-0.34,9.96,-0.03,-0.01,-0.0,32.42,1.788702,-57.88615554750981,-2561.891975399142,9.989659653862088,0.03162277660168379,-0.3748156288888304,-1.5207986630977992
3748189,1908.0,1,198888,235624,0.68,-0.32,9.98,-0.03,-0.01,-0.0,32.42,1.828705,25.00419889557626,-1213.9540852998978,10.008256591434895,0.03162277660168379,0.1692743479160165,-0.7281565740413333
3788186,2002.0,1,201139,239058,0.71,-0.31,9.95,-0.03,-0.01,-0.0,32.42,1.868702,80.95118712899779,432.38800561825195,9.980115229795695,0.03162277660168379,0.5365088197039749,0.23995927449444174
3828189,1943.0,1,202588,241560,0.71,-0.34,9.98,-0.03,-0.01,-0.01,32.42,1.908705,83.56929810937984,1713.404664317315,10.010998951153676,0.033166247903554,0.5536940272249136,0.9932489682744714
3868185,2032.0,1,203100,245254,0.69,-0.32,9.95,-0.03,-0.01,-0.01,32.42,1.948701,112.97097663054663,2289.2545851140244,9.979028008779212,0.033166247903554,0.7466858257530418,1.3318720513971647
3908189,1963.0,1,203100,247468,0.68,-0.33,9.95,-0.03,-0.01,-0.01,32.42,1.988705,110.38948208909449,2230.1115766945522,9.978667245679654,0.033166247903554,0.7297409675169133,1.2970935663564014
3948186,1995.0,1,203100,248078,0.67,-0.31,10.0,-0.03,-0.01,-0.01,32.42,2.028702,98.57315649234835,1853.395012256519,10.027212972705826,0.033166247903554,0.6521789355646131,1.0755689643613107
3988189,1931.0,1,203100,247229,0.69,-0.32,9.98,-0.03,-0.01,-0.0,32.42,2.068705,71.48300402240606,1470.3047624212704,10.008941002923336,0.03162277660168379,0.4743599296254958,0.850296377132371
4028879,1889.0,1,203100,245829,0.7,-0.305,9.97,-0.03,-0.01,-0.0,32.42,2.109395,22.38407809489041,1223.551243294216,9.999196217696701,0.03162277660168379,0.15207594799060795,0.705195311037625
4069189,1849.0,1,203100,245068,0.7,-0.33,9.99,-0.03,-0.01,-0.01,32.42,2.149705,-14.241088381075185,1087.162292365781,10.01993013947702,0.033166247903554,-0.08833062418859852,0.6249930822983061
4109186,1773.0,1,203100,245213,0.7,-0.34,9.97,-0.03,-0.01,-0.0,32.42,2.189702,-74.55602280524663,969.1824342726669,10.000324994718921,0.03162277660168379,-0.4842361730587731,0.5556161459628892
4149189,1717.0,1,203100,245155,0.7,-0.34,9.99,-0.03,-0.01,-0.0,32.42,2.229705,-135.80332495216015,810.7031308760595,10.02026446756771,0.03162277660168379,-0.8862617576803768,0.46242389501484915
4189186,1679.0,1,203100,244741,0.7,-0.31,9.99,-0.03,-0.01,-0.0,32.42,2.269702,-163.3571636149208,617.3232759801688,10.019291392109524,0.03162277660168379,-1.0671243868684273,0.3487087058418306
4229189,1703.0,1,203100,244346,0.69,-0.33,9.99,-0.03,-0.01,-0.01,32.42,2.309705,-133.47056062348807,429.71205813885814,10.01923649785751,0.033166247903554,-0.8709495576300098,0.2383857089645671
4269186,1718.0,1,203100,244107,0.71,-0.34500000000000003,9.96,-0.03,-0.01,-0.0,32.42,2.349702,-117.50093778355831,278.971100611892,9.991232406465182,0.03162277660168379,-0.7661253983060744,0.14974391889533087
4309203,1705.0,1,203100,244196,0.72,-0.33,9.95,-0.03,-0.01,-0.0,32.42,2.389719,-129.8360176318191,165.4562760572477,9.981472837211951,0.03162277660168379,-0.8470925187101052,0.08299260317465862
4349186,1727.0,1,203100,243468,0.71,-0.32,9.98,-0.03,-0.01,-0.0,32.42,2.429702,-81.89631037375344,69.11451756584866,10.010339654577162,0.03162277660168379,-0.5324176161195815,0.026339746040140683
4389189,1860.0,1,203100,242093,0.72,-0.33,9.99,-0.03,-0.01,-0.01,32.42,2.469705,0.8971981937248736,-25.95477382456037,10.02134721482097,0.033166247903554,0.011036667056409651,-0.029564848886902632
4429187,1783.0,1,203100,240645,0.71,-0.34,9.96,-0.03,-0.01,-0.0,32.42,2.509703,18.991578992044357,-116.03060110454275,9.991061004718167,0.03162277660168379,0.1298076784123261,-0.08253308461432018
4469189,1835.0,1,203086,239922,0.72,-0.33,9.97,-0.03,-0.01,-0.01,32.42,2.549705,-59.28231173004989,-183.4227264407804,10.001409900609014,0.033166247903554,-0.3839799591667972,-0.12216238460271772
4509187,1744.0,1,202945,240471,0.72,-0.31,10.0,-0.03,-0.01,-0.0,32.42,2.589703,15.98259943287765,-216.4990966225163,10.030677943190081,0.03162277660168379,0.1100568204318916,-0.14161263030901344
4549189,2063.0,1,203100,241748,0.72,-0.34,9.98,-0.03,-0.01,-0.01,32.42,2.629705,155.84508327068392,-223.6405833466632,10.011713140117429,0.033166247903554,1.0281102670416575,-0.14581211382941514
4589189,1818.0,1,203100,242621,0.7,-0.32,9.96,-0.03,-0.01,-0.0,32.42,2.669705,86.70246178289122,-224.2857175359679,9.98969469002932,0.03162277660168379,0.5742600262714864,-0.14619147886936856
4629189,1918.0,1,203100,243358,0.7,-0.32,9.98,-0.03,-0.01,-0.0,32.42,2.709705,38.72308512049487,-222.76337543250224,10.009635357993817,0.03162277660168379,0.25932473481633345,-0.14529628003712802
4669185,1787.0,1,203100,243944,0.71,-0.33,9.97,-0.03,-0.01,-0.0,32.42,2.749701,13.903955499869543,-193.4492483297778,10.000694975850429,0.03162277660168379,0.09641265957753718,-0.12805838568291597
4709189,1793.0,1,203100,244191,0.7,-0.32,9.95,-0.03,-0.01,-0.0,32.42,2.789705,-37.576765026917705,-102.66781777926093,9.97972444509366,0.03162277660168379,-0.24150535543769264,-0.07467522664596792
4749186,1776.0,1,203100,243376,0.7,-0.32,9.97,-0.03,-0.01,-0.0,32.42,2.829702,-42.71970852949391,41.236538722733165,9.999664994388562,0.03162277660168379,-0.2752634932792509,0.009946365045967378
4789189,1727.0,1,203100,242525,0.7,-0.31,9.98,-0.03,-0.01,-0.0,32.42,2.869705,-71.89792639623876,155.38910029279197,10.009320656268336,0.03162277660168379,-0.4667885022985382,0.07707269596866022
4829185,1775.0,1,203100,241812,0.72,-0.33,9.99,-0.03,-0.01,-0.0,32.42,2.909701,-61.60785818732676,113.96523655937723,10.02134721482097,0.03162277660168379,-0.3992447813104539,0.05271378586781963
4869189,1755.0,1,203100,239731,0.71,-0.34,9.97,-0.03,-0.01,-0.0,32.42,2.949705,-44.55138307799567,-159.73627268349395,10.001029946960463,0.03162277660168379,-0.28728655397556674,-0.10823379017235227
4909186,1840.0,1,202089,237452,0.69,-0.34,9.99,-0.03,-0.01,-0.0,32.42,2.989702,11.514403820451443,-609.4551283010833,10.019570849093288,0.03162277660168379,0.08072770893926637,-0.37268669695915063
4949189,1869.0,1,201498,236541,0.72,-0.32,9.98,-0.03,-0.01,-0.0,32.42,3.029705,54.18076732515604,-1051.6799385182003,10.011053890575159,0.03162277660168379,0.3607885300757142,-0.6327328014404829
4989186,1794.0,1,201227,236348,0.72,-0.32,10.0,-0.03,-0.01,-0.0,32.42,3.069702,-24.372118496241956,-1283.1080637071832,10.030991974874668,0.03162277660168379,-0.15483042356097373,-0.7688219150143365
5029876,1814.0,1,201171,236844,0.72,-0.33,9.98,-0.03,-0.01,-0.01,32.42,3.110392,-7.222759652271705,-1209.4195448213807,10.011378526456784,0.033166247903554,-0.042262509980142644,-0.7254900805298716
5068190,1872.0,1,201451,237915,0.7,-0.32,9.98,-0.03,-0.01,-0.01,32.42,3.148706,52.22778093695183,-891.7757051603415,10.009635357993817,0.033166247903554,0.347969181843975,-0.538702633946331
5108189,1856.0,1,201916,238682,0.69,-0.34,9.99,-0.03,-0.01,-0.01,32.42,3.188705,40.00662555784235,-479.19610941361407,10.019570849093288,0.033166247903554,0.2677498584809207,-0.29608911660490494
5148186,1849.0,1,201992,238727,0.7,-0.33,9.97,-0.03,-0.01,-0.0,32.42,3.228702,24.45528971800022,-93.58351983579624,9.999989999995,0.03162277660168379,0.16567132336989304,-0.06933329141853022
5188189,1787.0,1,202034,239230,0.71,-0.32,9.99,-0.03,-0.01,-0.0,32.42,3.268705,-23.929352770329157,230.8614842293518,10.020309376461388,0.03162277660168379,-0.15192412167385508,0.12145351537358241
5228187,1797.0,1,202164,239832,0.74,-0.32,9.98,-0.03,-0.01,-0.0,32.42,3.308703,-24.265552654838583,510.0596755249366,10.012512172277246,0.03162277660168379,-0.15413092834748468,0.2856333631505636
5268190,1815.0,1,202529,240201,0.69,-0.32,9.98,-0.03,-0.01,-0.0,32.42,3.348706,3.564773989640308,724.7491288749652,10.008941002923336,0.03162277660168379,0.02854656024816041,0.41187945954097527
5308227,1803.0,1,202242,239449,0.69,-0.33,9.98,-0.03,-0.01,-0.0,32.42,3.388743,-6.994226923032124,780.2848540611521,10.00926570733338,0.03162277660168379,-0.04076242751353324,0.44453671589690713
5348189,1831.0,1,201886,238677,0.71,-0.34,10.0,-0.03,-0.01,-0.0,32.42,3.428705,18.448752842667542,560.9164116754708,10.030937144654033,0.03162277660168379,0.1262445826937973,0.3155391843913219
5388186,1806.0,1,201498,237946,0.72,-0.33,9.98,-0.03,-0.01,-0.0,32.42,3.468702,9.274741289018019,42.70813444480844,10.011378526456784,0.03162277660168379,0.06602662649166997,0.010811722950036993
5428189,1774.0,1,200805,235120,0.72,-0.33,9.97,-0.03,-0.01,-0.0,32.42,3.508705,-35.05197467367469,-628.532931427986,10.001409900609014,0.03162277660168379,-0.2249327019128931,-0.38390521810629546
5468186,1808.0,1,199575,232755,0.71,-0.34,9.98,-0.03,-0.01,-0.01,32.42,3.548702,23.5038971035221,-1175.0181558041836,10.010998951153676,0.033166247903554,0.1594264087592416,-0.7052606700671776
5508189,1873.0,1,199399,233370,0.71,-0.33,9.96,-0.03,-0.01,-0.0,32.42,3.588705,72.96318220588775,-1337.4287587123988,9.99072569936739,0.03162277660168379,0.4840757779763501,-0.8007646843987354
5548186,1793.0,1,199909,234845,0.72,-0.33,9.96,-0.03,-0.01,-0.0,32.42,3.628702,20.161850508624482,-1037.3296547753591,9.991441337464781,0.03162277660168379,0.1374893080372621,-0.6242942532195103
5588189,1824.0,1,200391,236077,0.7,-0.34500000000000003,10.0,-0.03,-0.01,-0.01,32.42,3.668705,36.23627738333016,-428.63243766961904,10.030405026717515,0.033166247903554,0.2430013981250772,-0.2663556291082557
5628185,1838.0,1,200907,237089,0.73,-0.32,9.98,-0.03,-0.01,-0.01,32.42,3.708701,78.85322174895313,200.06238606085017,10.011778063860586,0.033166247903554,0.5227378334096694,0.10334239787132207
5668190,1809.0,1,201092,237282,0.7,-0.33,9.99,-0.03,-0.01,-0.0,32.42,3.748706,33.46548476967777,595.7846303434097,10.01993013947702,0.03162277660168379,0.22481399261786242,0.3360431096015538
5708186,1776.0,1,200914,237086,0.7,-0.32,9.99,-0.03,-0.01,-0.01,32.42,3.788702,33.101493960266005,666.6447443242014,10.01960578066822,0.033166247903554,0.2224247670875746,0.37771172741329784
5748189,1825.0,1,200928,237017,0.7,-0.31,9.97,-0.03,-0.01,-0.0,32.42,3.828705,63.33762279356536,496.8244587981481,9.999349978873628,0.03162277660168379,0.4208938742123833,0.27785051951029444
5788186,1787.0,1,200574,236327,0.73,-0.33,9.95,-0.03,-0.01,-0.0,32.42,3.868702,56.56784323632734,266.1335319772855,9.982199156498531,0.03162277660168379,0.3764572298402009,0.14219490844337965
5828189,1778.0,1,200280,235828,0.72,-0.31,9.98,-0.03,-0.01,-0.0,32.42,3.908705,38.25794086608849,135.50488383605057,10.010739233443253,0.03162277660168379,0.25627154089176596,0.06537997111294597
5868186,1745.0,1,200001,235760,0.74,-0.34,9.96,-0.03,-0.01,-0.01,32.42,3.948702,17.14238508996326,162.76989360899722,9.993237713574116,0.033166247903554,0.11766962116729654,0.08141290146033921
5908189,1777.0,1,200256,236608,0.72,-0.305,9.97,-0.03,-0.01,-0.01,32.42,3.988705,66.77140625001708,291.301458926936,10.000616231012968,0.033166247903554,0.44343313313733435,0.1569946691305154
5948186,1847.0,1,200555,236273,0.73,-0.33,9.96,-0.03,-0.01,-0.01,32.42,4.028702,117.092036625479,413.5138892860216,9.992166932152406,0.033166247903554,0.7737363487254545,0.22886052943462867
5988190,1773.0,1,200260,235083,0.71,-0.34500000000000003,9.97,-0.03,-0.01,-0.01,32.42,4.068706,87.22448208674037,459.21300623954846,10.001201177858588,0.033166247903554,0.5776865529997315,0.2557334616343551
6028190,1764.0,1,199955,234547,0.71,-0.32,10.01,-0.03,-0.01,-0.0,32.42,4.108706,40.99798479351567,435.1360663602156,10.040249000896342,0.03162277660168379,0.27425711287941795,0.24157524554426787
6068876,1673.0,1,199942,234620,0.69,-0.31,9.98,-0.03,-0.01,-0.01,32.35,4.149392,-7.374787787125549,384.1531675372198,10.008626279365215,0.033166247903554,-0.0432604184210229,0.21159523554081108
6109186,1674.0,1,199754,234371,0.71,-0.34,10.0,-0.03,-0.01,-0.01,32.35,4.189702,-25.84882541551328,311.11365908060134,10.030937144654033,0.033166247903554,-0.16452348663027888,0.16864504548238865
6149189,1699.0,1,199520,234080,0.72,-0.32,9.96,-0.03,-0.01,-0.01,32.35,4.229705,3.2211958873496243,158.07456884729876,9.991116053774974,0.033166247903554,0.02629132315861043,0.07865186027643332
6189186,1692.0,1,199163,233469,0.72,-0.33,10.0,-0.03,-0.01,-0.0,32.35,4.269702,24.279581754424427,-134.32734204990408,10.031315965515192,0.03162277660168379,0.164517981193126,-0.09329230955515806
6229189,1712.0,1,198771,232493,0.71,-0.32,9.96,-0.03,-0.01,-0.01,32.35,4.309705,-8.038296197170537,-528.1133443827308,9.990400392376674,0.033166247903554,-0.04761566913573751,-0.3248544325750139
6269186,1599.0,1,198241,231561,0.7,-0.33,9.99,-0.03,-0.01,-0.0,32.35,4.349702,-44.34496059834568,-849.2498073821572,10.01993013947702,0.03162277660168379,-0.285931602571156,-0.5136956831799125
6309189,1712.0,1,197984,231576,0.72,-0.34,9.98,-0.03,-0.01,-0.0,32.35,4.389705,-25.128335055074242,-872.2240119055538,10.011713140117429,0.03162277660168379,-0.15979420798099342,-0.5272054462050434
6349186,1680.0,1,198085,232729,0.73,-0.34,9.97,-0.03,-0.01,-0.01,32.35,4.429702,39.27509610665497,-490.8576794645786,10.002469695030323,0.033166247903554,0.26294811954757,-0.30294659224585924
6389189,1842.0,1,198715,234102,0.72,-0.33,9.96,-0.03,-0.01,-0.0,32.35,4.469705,102.82272003945228,152.71008222450905,9.991441337464781,0.03162277660168379,0.6800729522726978,0.07549732480811851
6429186,1712.0,1,199224,235074,0.72,-0.31,9.99,-0.03,-0.01,-0.0,32.35,4.509702,50.96267991972007,705.3288171573432,10.020708557781731,0.03162277660168379,0.33966509401920847,0.4004595294662666
6469189,1669.0,1,199519,234749,0.71,-0.34,9.99,-0.03,-0.01,-0.01,32.35,4.549705,-62.91986170421356,813.4711068958592,10.020968017112917,0.033166247903554,-0.40785673583600673,0.4640515770548805
6509187,1602.0,1,198728,231558,0.71,-0.34500000000000003,9.97,-0.03,-0.01,-0.0,32.35,4.589703,-91.21137697992616,367.14042551260775,10.001201177858588,0.03162277660168379,-0.5935614537559383,0.2015910539846606
6548189,1627.0,1,197418,228785,0.71,-0.33,9.96,-0.03,-0.01,-0.01,32.35,4.628705,-101.11313260451365,-409.2698416548834,9.99072569936739,0.033166247903554,-0.6585563017609397,-0.25496963820510926
6588186,1607.0,1,196563,228004,0.72,-0.32,9.96,-0.03,-0.01,-0.01,32.35,4.668702,-117.18615295072632,-1094.4318784792006,9.991116053774974,0.033166247903554,-0.7640591594349199,-0.6578726741681565
6628189,1646.0,1,196459,228248,0.72,-0.305,9.98,-0.03,-0.01,-0.0,32.35,4.708705,-90.98138593937016,-1331.1229587617263,10.010585647203664,0.03162277660168379,-0.592051798974484,-0.7970566185577305
6668186,1582.0,1,196727,229492,0.72,-0.31,9.99,-0.03,-0.01,-0.0,32.35,4.748702,-164.95227879044464,-1017.8042213098079,10.020708557781731,0.03162277660168379,-1.0775946784322994,-0.6128125072981695
6708189,1392.0,1,197225,230861,0.72,-0.33,9.97,-0.03,-0.01,-0.0,32.35,4.788705,-367.4575936550359,-313.3675030416431,10.001409900609014,0.03162277660168379,-2.4068339223443993,-0.1985751777613847
6748202,1268.875,1,197727,231835,0.7,-0.31,9.98,-0.03,-0.01,-0.0,32.35,4.828718,-494.24336713692605,507.7432618339323,10.009320656268336,0.03162277660168379,-3.2390522065635965,0.2842712180542332
6788189,1268.875,1,198184,233416,0.72,-0.31,9.97,-0.03,-0.01,-0.0,32.35,4.868705,-518.1868504854874,1219.7575135410602,10.000769970357283,0.03162277660168379,-3.3962165640726574,0.7029644442455092
6828186,1268.875,1,198824,234324,0.71,-0.33,9.99,-0.03,-0.01,-0.01,32.35,4.908702,-513.1565742358359,1721.8588488827927,10.020633712495433,0.033166247903554,-3.363197970939797,0.998220371307556
6868189,1268.875,1,198945,233894,0.73,-0.34,9.97,-0.03,-0.01,-0.0,32.35,4.948705,-538.1253125529325,2005.8094013566504,10.002469695030323,0.03162277660168379,-3.527092073493349,1.1651947999921335
6908185,1344.0,1,198431,232799,0.73,-0.33,9.99,-0.03,-0.01,-0.0,32.35,4.988701,-466.6821728911181,2070.476695687006,10.022070644332937,0.03162277660168379,-3.058141295533389,1.203221788956639
6948202,1786.0,1,197969,232174,0.71,-0.31,9.96,-0.03,-0.01,-0.0,32.35,5.028718,-29.811286173235306,1870.113471370597,9.990085084722754,0.03162277660168379,-0.19053296862904867,1.0854000956436372
6988186,2231.875,1,198071,232379,0.71,-0.32,9.96,-0.03,-0.01,-0.01,32.35,5.068702,390.05030265816254,1355.83169476517,9.990400392376674,0.033166247903554,2.5654268009165615,0.7829815756462633
7028189,2231.875,1,197533,228428,0.71,-0.34,10.0,-0.03,-0.01,-0.0,32.35,5.108705,408.0183238047909,581.4340479534046,10.030937144654033,0.03162277660168379,2.6833683910398194,0.3276043857639495
7068186,2231.875,1,195351,224154,0.72,-0.32,9.98,-0.03,-0.01,-0.01,32.35,5.148702,370.9256046125029,-243.28963736039108,10.011053890575159,0.033166247903554,2.439892815859141,-0.15736655364138444
7108876,2231.875,1,194694,223875,0.72,-0.31,9.99,-0.03,-0.01,-0.0,32.21,5.189392,392.5862030560891,-844.451686909014,10.020708557781731,0.03162277660168379,2.58207238046508,-0.5108741939530634
7147186,2231.875,1,194778,224640,0.73,-0.32,9.98,-0.03,-0.01,-0.0,32.21,5.227702,367.4639628299979,-1065.0354063036873,10.011778063860586,0.03162277660168379,2.417170695658255,-0.6405863575750578
7187189,2231.875,1,195110,225495,0.72,-0.33,9.97,-0.03,-0.01,-0.0,32.21,5.267705,374.8180858054426,-966.3869281902525,10.001409900609014,0.03162277660168379,2.465442953944677,-0.5825770558495036
7227186,2231.875,1,195236,225357,0.71,-0.32,9.98,-0.03,-0.01,-0.0,32.21,5.307702,372.5680842204053,-751.8904559986494,10.010339654577162,0.03162277660168379,2.4506740062373247,-0.45644444019858776
7267189,2231.875,1,194936,224865,0.73,-0.32,10.0,-0.03,-0.01,-0.0,32.21,5.347705,363.7518085307328,-593.3658848811851,10.03171470886209,0.03162277660168379,2.392804218277947,-0.3632255699967302
7307186,2231.875,1,194851,224703,0.72,-0.32,10.0,-0.03,-0.01,-0.0,32.21,5.387702,379.62385893524885,-524.6135409334618,10.030991974874668,0.03162277660168379,2.4969879148547065,-0.322796406357566
7347189,2231.875,1,194917,225387,0.74,-0.32,9.97,-0.03,-0.01,-0.01,32.21,5.427705,364.728923813745,-477.25565761978487,10.002544676231144,0.033166247903554,2.399217975768088,-0.2949480523356448
7387186,2231.875,1,195277,226152,0.72,-0.31,9.99,-0.03,-0.01,-0.0,32.21,5.467702,384.8811900508657,-389.98033516577027,10.020708557781731,0.03162277660168379,2.531496889800825,-0.2436266269041411
7427189,2215.0,1,195317,226225,0.71,-0.32,10.0,-0.03,-0.01,-0.0,32.21,5.507705,362.6710664523824,-274.3655305372077,10.03027915862764,0.03162277660168379,2.385710257390792,-0.1756404378224678
7467186,2063.0,1,195248,226380,0.73,-0.32,9.98,-0.03,-0.01,-0.0,32.21,5.547702,219.58368135732286,-190.42528473754726,10.011778063860586,0.03162277660168379,1.4464886487910613,-0.12628017257934349
7507189,2006.0,1,195421,226957,0.72,-0.34,9.99,-0.03,-0.01,-0.01,32.21,5.587705,176.82488523524677,-178.60281773746982,10.021681495637347,0.033166247903554,1.165821102529844,-0.11932808301381273
7547186,1967.0,1,195645,226502,0.71,-0.33,9.98,-0.03,-0.01,-0.01,32.21,5.627702,133.82981458597231,-224.94301176203226,10.010664313620751,0.033166247903554,0.8836026568559429,-0.14657799450358228
7588189,1758.0,1,194986,224963,0.71,-0.34500000000000003,9.99,-0.03,-0.01,-0.0,32.21,5.668705,-52.49842661524261,-293.15231350452126,10.021138907329846,0.03162277660168379,-0.339450726307785,-0.18668782732552974
7628186,1648.0,1,195110,225789,0.71,-0.33,9.97,-0.03,-0.01,-0.01,32.21,5.708702,-159.49556725263093,-386.1935430760622,10.000694975850429,0.033166247903554,-1.0417769759506637,-0.24139983973920157
7668190,1602.0,1,195493,226385,0.73,-0.31,9.96,-0.03,-0.01,-0.0,32.21,5.748706,-199.43547080161633,-561.9180710052068,9.991526409913554,0.03162277660168379,-1.30394138991123,-0.3447329813767315
7708186,1535.0,1,195250,225405,0.7,-0.32,9.96,-0.03,-0.01,-0.0,32.21,5.788702,-237.75373176573262,-866.6460798158682,9.98969469002932,0.03162277660168379,-1.5554613871321745,-0.5239253961547714
7748189,1520.0,1,194754,224616,0.69,-0.31,9.96,-0.03,-0.01,-0.0,32.21,5.828705,-271.11066079345056,-1242.3149036891373,9.988683596951102,0.03162277660168379,-1.7744153397713023,-0.7448338842501461
7788186,1424.0,1,194573,224663,0.7,-0.33,9.96,-0.03,-0.01,-0.0,32.21,5.868702,-322.04191414794116,-1508.9662715085406,9.99002001999996,0.03162277660168379,-2.1087266675786114,-0.9016356915074332
7828189,1443.0,1,194614,225643,0.71,-0.32,9.98,-0.03,-0.01,-0.01,32.21,5.908705,-325.1540847165228,-1462.0961152614295,10.010339654577162,0.033166247903554,-2.1291548684694033,-0.874074140760182
7868186,1408.0,1,195350,228099,0.72,-0.33,9.98,-0.03,-0.01,-0.0,32.21,5.948702,-326.55387946160494,-1013.3159907697543,10.011378526456784,0.03162277660168379,-2.1383430821705067,-0.6101732459067021
7908189,1479.0,1,196562,230521,0.72,-0.32,10.0,-0.03,-0.01,-0.01,32.21,5.988705,-258.4391111548051,-259.4844871639345,10.030991974874668,0.033166247903554,-1.6912396410389978,-0.16688978143587221
7948186,1614.0,1,197395,232255,0.74,-0.33,9.97,-0.03,-0.01,-0.0,32.21,6.028702,-114.94620189926043,568.7105270443602,10.002869588273157,0.03162277660168379,-0.7493561831498701,0.32012243999510104
7988189,1646.0,1,198119,233874,0.75,-0.305,9.97,-0.03,-0.01,-0.01,32.21,6.068705,-67.84991195048116,1225.0513397794502,10.00282085213966,0.033166247903554,-0.44021744827547693,0.7060774285450977
8028186,1666.0,1,198489,234306,0.71,-0.33,10.0,-0.03,-0.01,-0.0,32.21,6.108702,-53.04478010486074,1541.108146526946,10.030603172292283,0.03162277660168379,-0.3430369753893676,0.8919316354792212
8068189,1617.0,1,198585,234647,0.74,-0.32,9.98,-0.03,-0.01,-0.0,32.21,6.148705,-86.67381064387992,1452.80021107281,10.012512172277246,0.03162277660168379,-0.5637769947665029,0.840002991768882
8108872,1527.0,1,198534,232944,0.72,-0.32,9.99,-0.03,-0.01,-0.01,31.85,6.189388,-180.05146918329388,988.146277339911,10.021022901879828,0.033166247903554,-1.176705343428407,0.5667676539780341
8147190,1535.0,1,197932,231163,0.72,-0.33,9.99,-0.03,-0.01,-0.01,31.85,6.227706,-166.61173010897545,258.5599255175147,10.02134721482097,0.033166247903554,-1.0884872706461275,0.13774132101174935
8187186,1585.0,1,197242,229995,0.71,-0.32,9.99,-0.03,-0.01,-0.0,31.85,6.267702,-115.26197199824685,-544.7947574213445,10.020309376461388,0.03162277660168379,-0.7514288892806075,-0.3346637792641013
8227189,1599.0,1,196756,229050,0.71,-0.32,9.97,-0.03,-0.01,-0.0,31.85,6.307705,-104.14043298270164,-1182.3994571325632,10.000369993155253,0.03162277660168379,-0.6784274170869159,-0.7096011742905965
8267186,1643.0,1,196523,229432,0.7,-0.33,9.98,-0.03,-0.01,-0.0,31.85,6.347702,-57.108612114176786,-1441.4416652908951,10.00996003988028,0.03162277660168379,-0.36971185545886637,-0.861928487393504
8307189,1693.0,1,196977,231199,0.72,-0.31,9.98,-0.03,-0.01,-0.0,31.85,6.387705,-16.612381234132524,-1222.0681111804781,10.010739233443253,0.03162277660168379,-0.10389572439942386,-0.7329279499866803
8347186,1660.0,1,197876,233408,0.72,-0.31,9.96,-0.03,-0.01,-0.0,31.85,6.427702,-43.319859067215866,-577.8944923374444,9.990800768707182,0.03162277660168379,-0.27920286468551947,-0.3541277643807902
8387194,1680.0,1,198890,235674,0.72,-0.32,9.98,-0.03,-0.01,-0.0,31.85,6.46771,-43.445743443679454,317.3082939236762,10.011053890575159,0.03162277660168379,-0.28002916622482815,0.17228774173643885
8427186,1737.0,1,199954,237631,0.71,-0.33,9.98,-0.03,-0.01,-0.01,31.85,6.507702,29.45930173114654,1248.5291187196947,10.010664313620751,0.033166247903554,0.19851751878619278,0.7198833137288958
8467189,1811.0,1,200762,239133,0.7,-0.32,9.97,-0.03,-0.01,-0.0,31.85,6.547705,67.41313099881529,2026.34844717206,9.999664994388562,0.03162277660168379,0.44764539650663204,1.1772725910401722
8507185,1770.0,1,201199,239930,0.69,-0.34,10.0,-0.03,-0.01,-0.0,31.85,6.587701,55.586432678549066,2509.2659859031905,10.029541365386555,0.03162277660168379,0.37001527828618447,1.4612476684924924
8547189,1824.0,1,201417,240371,0.72,-0.32,10.0,-0.03,-0.01,-0.01,31.85,6.627705,59.45722363499768,2601.7469813583148,10.030991974874668,0.033166247903554,0.39542304226379654,1.515630240548668
8588214,1796.0,1,201403,239933,0.72,-0.33,10.01,-0.03,-0.01,-0.0,31.85,6.66873,67.73127670259365,2271.4359815665903,10.041284778353814,0.03162277660168379,0.449733696041027,1.321393990617326
8628190,1846.0,1,200683,236824,0.73,-0.34,9.97,-0.03,-0.01,-0.0,31.85,6.708706,65.77971684503665,1594.169531607827,10.002469695030323,0.03162277660168379,0.43692371151670545,0.9231338796090618
8668187,1811.0,1,199820,235284,0.75,-0.32,9.97,-0.03,-0.01,-0.0,31.85,6.748703,59.867364393026754,777.1982359489778,10.003289458972985,0.03162277660168379,0.39811519477082896,0.44272165939725394
8708189,1825.0,1,199423,234160,0.72,-0.305,9.99,-0.03,-0.01,-0.0,31.85,6.788705,36.14181282706655,97.36722634116583,10.020555124343161,0.03162277660168379,0.24238133541004034,0.04295348341606869
8748186,1791.0,1,198662,232982,0.71,-0.33,9.99,-0.03,-0.01,-0.01,31.85,6.828702,11.564281915457599,-247.58502678281812,10.020633712495433,0.033166247903554,0.08105510736502171,-0.15989241664301942
8788189,1820.0,1,198296,233225,0.72,-0.32,9.99,-0.03,-0.01,-0.0,31.85,6.868705,25.44645842965446,-282.4823453685455,10.021022901879828,0.03162277660168379,0.17217732717403803,-0.18041345378385043
8828186,1859.0,1,198794,234675,0.73,-0.33,9.99,-0.03,-0.01,-0.0,31.85,6.908702,54.316950570561026,-261.17058365078066,10.022070644332937,0.03162277660168379,0.36168243310377385,-0.16788127447980328
8868189,1920.0,1,199035,233842,0.71,-0.34,10.02,-0.03,-0.01,-0.0,31.85,6.948705,115.4502029395028,-484.45468507379456,10.05087558374891,0.03162277660168379,0.7629593981607955,-0.2991813721363821
8908186,2010.0,1,198050,231324,0.7,-0.34,9.98,-0.03,-0.01,-0.0,31.85,6.988702,191.2462181792321,-1044.0578073141949,10.01029470095661,0.03162277660168379,1.2604823301202688,-0.6282506794933356
8948189,2000.0,1,196825,229431,0.73,-0.32,9.97,-0.03,-0.01,-0.0,31.85,7.028705,178.01493489841914,-1709.1170842652812,10.001809836224643,0.03162277660168379,1.1736325553578886,-1.0193324782178146
8988186,1958.0,1,196421,229561,0.72,-0.32,9.99,-0.03,-0.01,-0.0,31.85,7.068702,136.23629139662822,-2078.2497954166347,10.021022901879828,0.03162277660168379,0.8993987035840357,-1.2363974672319178
9028189,1978.0,1,196669,230629,0.72,-0.31,9.98,-0.03,-0.01,-0.0,31.85,7.108705,137.63823052143763,-1891.0721457698075,10.010739233443253,0.03162277660168379,0.9086009929339154,-1.1263294260183745
9068186,1982.0,1,197172,232011,0.71,-0.32,10.0,-0.03,-0.01,-0.01,31.85,7.148702,159.2765353876417,-1244.2663339520457,10.03027915862764,0.033166247903554,1.0506342231191337,-0.745981404304001
9108189,2025.0,1,197936,233571,0.73,-0.33,9.94,-0.03,-0.01,-0.0,31.85,7.188705,175.95365353543878,-531.7848542193962,9.972231445368683,0.03162277660168379,1.1601023619293842,-0.32701342910467707
9148873,2004.0,1,198351,232739,0.71,-0.32,10.02,-0.03,-0.01,-0.0,31.83,7.229389,174.73947518306505,-156.27742991970777,10.050218903088629,0.03162277660168379,1.1521325290577735,-0.10619985049742892
9187189,2030.0,1,197833,230808,0.7,-0.33,10.01,-0.03,-0.01,-0.01,31.83,7.267705,184.94801625248016,-242.59921626026357,10.039870517093336,0.033166247903554,1.2191411081739736,-0.15696055806313605
9227186,1988.0,1,197113,229390,0.71,-0.33,10.0,-0.03,-0.01,-0.0,31.83,7.307702,149.6534120825771,-576.6993623655318,10.030603172292283,0.03162277660168379,0.9874683098953243,-0.3534249795384106
9267189,1913.0,1,196530,229017,0.71,-0.32,9.96,-0.03,-0.01,-0.0,31.83,7.347705,76.52700167613418,-803.7525234888991,9.990400392376674,0.03162277660168379,0.507468589672365,-0.4869414369965873
9307186,1855.0,1,196669,229899,0.73,-0.32,9.97,-0.03,-0.01,-0.01,31.83,7.387702,14.857173665432489,-705.8580114248551,10.001809836224643,0.033166247903554,0.10266955705463998,-0.42937549785387646
9347189,1770.0,1,197125,231431,0.74,-0.34,9.95,-0.03,-0.01,-0.01,31.83,7.427705,-62.07286506409098,-325.5558712537517,9.983271007039725,0.033166247903554,-0.4022970734920063,-0.20574243206352757
9387186,1732.0,1,197682,232173,0.72,-0.32,9.94,-0.03,-0.01,-0.01,31.83,7.467702,-99.55811396454484,145.30051859934676,9.971178465958776,0.033166247903554,-0.6483492027391511,0.07114020120918695
9427189,1691.0,1,197596,231676,0.71,-0.32,9.95,-0.03,-0.01,-0.01,31.83,7.507705,-138.3213930621972,573.3174574328108,9.980430852423154,0.033166247903554,-0.9027902865880894,0.3228315017063719
9467187,1645.0,1,197313,231575,0.72,-0.32,9.96,-0.03,-0.01,-0.0,31.83,7.547703,-176.54349461527767,973.5320127123323,9.991116053774974,0.03162277660168379,-1.1536790961144996,0.5581738743020469
9507189,1649.0,1,197584,232731,0.74,-0.33,9.95,-0.03,-0.01,-0.0,31.83,7.587705,-169.261334220309,1404.4363345801473,9.982935440039666,0.03162277660168379,-1.105879198201068,0.8115630730014153
9547186,1631.0,1,198140,233663,0.69,-0.305,9.97,-0.03,-0.01,-0.0,31.83,7.627702,-187.7877095448425,1800.3772264803351,9.998501137670587,0.03162277660168379,-1.2274858095894223,1.044392358388992
9587189,1630.0,1,198143,233230,0.7,-0.34,9.99,-0.03,-0.01,-0.0,31.83,7.667705,-167.3469965655989,1940.5787174648467,10.02026446756771,0.03162277660168379,-1.0933135391790278,1.1268365151406154
9627186,1629.0,1,197700,232052,0.71,-0.31,9.97,-0.03,-0.01,-0.0,31.83,7.707702,-189.8773521836447,1613.0826939148362,10.000054999848752,0.03162277660168379,-1.2412021656421275,0.9342555852839339
9667189,1488.0,1,196900,228355,0.73,-0.34,9.97,-0.03,-0.01,-0.0,31.83,7.747705,-289.124088867079,829.2990430150087,10.002469695030323,0.03162277660168379,-1.892654979698114,0.47335904473798807
9707186,1569.0,1,195015,224479,0.72,-0.33,9.98,-0.03,-0.01,-0.0,31.83,7.787702,-242.74223240354112,-118.72899469027963,10.011378526456784,0.03162277660168379,-1.588205766312985,-0.08411984936409479
9747190,1616.0,1,194179,223596,0.73,-0.33,9.98,-0.03,-0.01,-0.0,31.83,7.827706,-148.67679677506325,-830.0158900692401,10.012102676261366,0.03162277660168379,-0.9707628680035386,-0.5023853605666596
9787187,1683.0,1,194113,224262,0.73,-0.33,9.98,-0.03,-0.01,-0.0,31.83,7.867703,-114.77160138831363,-1059.4878141733536,10.012102676261366,0.03162277660168379,-0.7482101102613002,-0.6373241486500626
9827189,1664.0,1,194446,225038,0.7,-0.32,9.97,-0.03,-0.01,-0.0,31.83,7.907705,-90.78289077028802,-857.7127539935672,9.999664994388562,0.03162277660168379,-0.5907488822157443,-0.5186722386509866
9867186,1699.0,1,194471,224829,0.69,-0.33,10.0,-0.03,-0.01,-0.0,31.83,7.947702,-86.1398505005983,-484.50851774345176,10.02920734654539,0.03162277660168379,-0.5602720952649296,-0.2992130279270902
9907189,1708.0,1,194373,225037,0.73,-0.31,9.98,-0.03,-0.01,-0.01,31.83,7.987705,-34.22314677505905,-191.1039153220633,10.011463429489218,0.033166247903554,-0.21949229868186784,-0.1266792348567373
9947187,1770.0,1,194587,225240,0.74,-0.31,9.99,-0.03,-0.01,-0.0,31.83,8.027703,-4.50111734724802,-56.020506044653224,10.022165434675282,0.03162277660168379,-0.02439772572918155,-0.04724471750027922
9987189,1722.0,1,194465,224837,0.74,-0.305,9.98,-0.03,-0.01,-0.01,31.83,8.067705,-10.393107750131225,12.79997274916773,10.012043997106685,0.033166247903554,-0.06307258655198383,-0.006775487811228712
10027192,1803.0,1,194380,224885,0.72,-0.31,9.99,-0.03,-0.01,-0.0,31.83,8.107708,44.97227540064473,141.63472045973415,10.020708557781731,0.03162277660168379,0.30034424568005397,0.0689845633887916
10067189,1795.0,1,194408,225052,0.73,-0.31,9.99,-0.03,-0.01,-0.0,31.83,8.147705,62.30813587764945,349.2084344934975,10.021432033397224,0.03162277660168379,0.4141363507832106,0.19104631677775352
10107190,1771.0,1,194616,226064,0.72,-0.32,9.98,-0.03,-0.01,-0.0,31.83,8.187706,37.76922292839559,519.837629721145,10.011053890575159,0.03162277660168379,0.2530636099669921,0.2913831963570554
10147189,1803.0,1,195136,226514,0.71,-0.33,9.98,-0.03,-0.01,-0.01,31.83,8.227705,62.91917753324879,509.99215374146064,10.010664313620751,0.033166247903554,0.4181472111837427,0.28559365760633615
10187873,1827.0,1,194518,223109,0.72,-0.32,9.97,-0.03,-0.01,-0.0,31.85,8.268389,118.11412268132835,284.6255720165189,10.001084941145136,0.03162277660168379,0.780445293115377,0.15306897716366366
10226215,1882.0,1,193350,221597,0.73,-0.31,9.96,-0.03,-0.01,-0.01,31.85,8.306731,138.36122401623453,-53.672077332142415,9.991526409913554,0.033166247903554,0.9133467020873755,-0.0458637462742625
10266189,1843.0,1,193417,222200,0.75,-0.32,9.94,-0.03,-0.01,-0.0,31.85,8.346705,147.12886147903367,-373.0894365626869,9.973389594315465,0.03162277660168379,0.9708972300808723,-0.23369409421615264
10306190,1951.0,1,193399,221762,0.73,-0.33,10.0,-0.03,-0.01,-0.0,31.85,8.386706,214.34219318163966,-639.3703377924433,10.032038676161491,0.03162277660168379,1.4120836664611995,-0.39027805210983013
10346186,1931.0,1,193087,221430,0.71,-0.305,9.99,-0.03,-0.01,-0.0,31.85,8.426702,234.6825477279539,-916.5752290967746,10.0198415656137,0.03162277660168379,1.5455971869143574,-0.5532857587364004
10386189,1920.0,1,192942,221026,0.72,-0.305,9.99,-0.03,-0.01,-0.0,31.85,8.466705,196.98346561989607,-1235.1674894049554,10.020555124343161,0.03162277660168379,1.2981414624510137,-0.7406309150842977
10426186,1899.0,1,192616,220065,0.73,-0.32,9.98,-0.03,-0.01,-0.0,31.85,8.506702,195.29780391760164,-1473.2354106593443,10.011778063860586,0.03162277660168379,1.28707682600852,-0.8806244977459702
10466189,1883.0,1,192253,220008,0.74,-0.33,9.96,-0.03,-0.01,-0.0,31.85,8.546705,172.18963695222462,-1398.2307920818566,9.992902481261389,0.03162277660168379,1.1353954619623896,-0.836518743322993
10506186,1873.0,1,192735,222303,0.74,-0.34,9.97,-0.03,-0.01,-0.0,31.85,8.586702,160.24529599414078,-860.284439216427,10.003204486563293,0.03162277660168379,1.0569931407454474,-0.5201844937499905
10546189,1865.0,1,194034,225655,0.74,-0.31,9.96,-0.03,-0.01,-0.01,31.85,8.626705,161.63919041735224,33.75274534665624,9.992262006172577,0.033166247903554,1.0661426248982058,0.005545591346191194
10586189,1838.0,1,195455,228451,0.7,-0.31,9.96,-0.03,-0.01,-0.0,31.85,8.666705,114.58562788064538,938.3061757097256,9.989379360100408,0.03162277660168379,0.7572843515660463,0.5374596550226609
10626189,1807.0,1,195888,227987,0.71,-0.33,9.97,-0.03,-0.01,-0.0,31.85,8.706705,105.63797420433808,1479.4784668377365,10.000694975850429,0.03162277660168379,0.6985522021632768,0.8556908869881025
10666189,1835.0,1,195422,227311,0.71,-0.33,9.97,-0.03,-0.01,-0.01,31.85,8.746705,100.1540746129499,1479.5691595082667,10.000694975850429,0.033166247903554,0.6625560380555798,0.8557442179526514
10706189,1760.0,1,195035,225423,0.73,-0.305,9.98,-0.03,-0.01,-0.0,31.85,8.786705,52.01336555854882,1015.2671128407576,10.011309854359718,0.03162277660168379,0.34656176527487353,0.5827158040124286
10746186,1765.0,1,194403,224452,0.72,-0.32,9.99,-0.03,-0.01,-0.0,31.85,8.826702,20.23389186285446,298.4762358462584,10.021022901879828,0.03162277660168379,0.13796218547897807,0.16121372863438255
10786189,1697.0,1,194153,223489,0.71,-0.34,9.96,-0.03,-0.01,-0.0,31.85,8.866705,-27.238265425821368,-475.4301584728853,9.991061004718167,0.03162277660168379,-0.17364373214086265,-0.2938745848799131
10826186,1712.0,1,193485,222079,0.71,-0.305,10.0,-0.03,-0.01,-0.0,31.85,8.906702,-44.27481981366071,-1177.4732467451674,10.029811812790907,0.03162277660168379,-0.28547120041497365,-0.7067043630047964
10866190,1673.0,1,192925,220983,0.72,-0.32,9.94,-0.03,-0.01,-0.01,31.85,8.946706,-71.30271968706914,-1696.4370763364166,9.971178465958776,0.033166247903554,-0.46288158204512625,-1.0118761198441748
10906189,1563.0,1,192592,220892,0.73,-0.31,9.98,-0.03,-0.01,-0.0,31.85,8.986705,-213.51053070505827,-1898.21539224908,10.011463429489218,0.03162277660168379,-1.3963296909125091,-1.1305299443460837
10946189,1452.0,1,192853,222472,0.72,-0.32,9.95,-0.03,-0.01,-0.0,31.85,9.026705,-310.83645017042363,-1669.0863437147846,9.981147228650622,0.03162277660168379,-2.0351743142731227,-0.9957927809888223
10986189,1498.0,1,193746,225055,0.72,-0.31,9.95,-0.03,-0.01,-0.01,31.85,9.066705,-308.5785034255714,-1009.1177381199549,9.980831628677041,0.033166247903554,-2.020353214758139,-0.6077045032627225
11026196,1489.0,1,194949,227895,0.72,-0.33,9.96,-0.03,-0.01,-0.0,31.85,9.106712,-293.4905519229364,-78.9793247240221,9.991441337464781,0.03162277660168379,-1.9213163215242235,-0.060745433025787374
11066189,1573.0,1,195966,229543,0.73,-0.33,9.97,-0.03,-0.01,-0.0,31.85,9.146705,-267.1441419720025,854.8025416298525,10.002134772137397,0.03162277660168379,-1.7483792207553137,0.4883561351594392
11106190,1509.0,1,196301,230145,0.72,-0.305,9.98,-0.03,-0.01,-0.0,31.85,9.186706,-299.8719487619881,1542.0939837069186,10.010585647203664,0.03162277660168379,-1.9632036325566082,0.892511347680757
11146186,1509.0,1,196664,231547,0.73,-0.31,9.97,-0.03,-0.01,-0.0,31.85,9.226702,-362.5281759655323,1860.8551686271176,10.001494888265455,0.03162277660168379,-2.374477361989902,1.0799558385442478
11186189,1499.0,1,197325,232156,0.7,-0.32,9.97,-0.03,-0.01,-0.0,31.85,9.266705,-344.74427875070586,1863.1145369210433,9.999664994388562,0.03162277660168379,-2.2577443562243342,1.0812844386359874
11226873,1597.0,1,197108,230367,0.71,-0.33,9.98,-0.03,-0.01,-0.01,31.89,9.307389,-301.5340074581586,1738.6982447847552,10.010664313620751,0.033166247903554,-1.974113339524608,1.0081226183207308
11267189,1637.0,1,196683,230015,0.7,-0.31,9.98,-0.03,-0.01,-0.0,31.89,9.347705,-248.8659301625096,1703.4958824991409,10.009320656268336,0.03162277660168379,-1.6284015477645502,0.9874222031259793
11307186,1780.0,1,197022,230896,0.7,-0.33,9.98,-0.03,-0.01,-0.01,31.89,9.387702,-140.58997714421233,1853.03580078626,10.00996003988028,0.033166247903554,-0.9176812092877982,1.0753577334638855
11347189,1919.0,1,197255,231198,0.71,-0.33,9.96,-0.03,-0.01,-0.0,31.89,9.427705,-12.613596442192897,2070.9666960310665,9.99072569936739,0.03162277660168379,-0.07764781245222767,1.203509929010574
11387189,2070.0,1,197367,231629,0.72,-0.32,9.99,-0.03,-0.01,-0.01,31.89,9.467705,129.84287730470032,2081.591698448968,10.021022901879828,0.033166247903554,0.8574325116386353,1.2097578608883073
11427189,2224.0,1,197357,230771,0.73,-0.34,9.97,-0.03,-0.01,-0.01,31.89,9.507705,250.69569175757206,1640.6311382452345,10.002469695030323,0.033166247903554,1.6507070181146792,0.9504551866340339
11467189,2231.875,1,196373,227304,0.71,-0.32,9.99,-0.03,-0.01,-0.0,31.89,9.547705,268.9674182470263,732.019528912907,10.020309376461388,0.03162277660168379,1.7706421216454238,0.41615474931261753
11507189,2231.875,1,194636,224277,0.71,-0.33,10.01,-0.03,-0.01,-0.0,31.89,9.587705,229.88819307368425,-393.1452454176173,10.040572692829826,0.03162277660168379,1.5141271765595716,-0.2454877223538102
11547186,2213.0,1,193671,222940,0.73,-0.33,9.97,-0.03,-0.01,-0.0,31.89,9.627702,220.07110728133995,-1379.7586172130432,10.002134772137397,0.03162277660168379,1.4496880989740695,-0.8256563561277235
11587189,2231.875,1,193429,222598,0.71,-0.32,10.01,-0.03,-0.01,-0.0,31.89,9.667705,218.7655286089008,-2000.9686310581353,10.040249000896342,0.03162277660168379,1.4411183169484412,-1.1909530116588742
11627189,2231.0,1,193271,222283,0.72,-0.32,10.0,-0.03,-0.01,-0.0,31.89,9.707705,202.99602681751864,-2263.955784118519,10.030991974874668,0.03162277660168379,1.337607746610751,-1.345600112187703
11667189,2193.0,1,193180,222501,0.71,-0.31,9.98,-0.03,-0.01,-0.0,31.89,9.747705,182.89864632131142,-2315.534055918129,10.010024974993819,0.03162277660168379,1.2056891010519657,-1.3759302256220505
11707190,2208.0,1,193357,222184,0.73,-0.34,9.99,-0.03,-0.01,-0.0,31.89,9.787706,150.18121194971454,-2260.6451455847373,10.022404901020513,0.03162277660168379,0.9909327735159448,-1.343653322604294
11747189,2151.0,1,192983,221276,0.74,-0.32,9.96,-0.03,-0.01,-0.0,31.89,9.827705,146.80145810629875,-2074.9314340212372,9.992577245135513,0.03162277660168379,0.9687481634654136,-1.2344461362929986
11787190,2192.0,1,193243,222768,0.72,-0.33,9.98,-0.03,-0.01,-0.0,31.89,9.867706,124.37310657545196,-1683.2057929400282,10.011378526456784,0.03162277660168379,0.8215290889883198,-1.004095589161534
11827189,2059.0,1,194127,224843,0.73,-0.33,9.97,-0.03,-0.01,-0.01,31.89,9.907705,52.4018146887182,-1103.4422788669672,10.002134772137397,0.033166247903554,0.3491115345410773,-0.6631711546389953
11867238,2063.0,1,194917,226302,0.71,-0.33,9.97,-0.03,-0.01,-0.01,31.89,9.947754,12.709944834992433,-492.47602973477206,10.000694975850429,0.033166247903554,0.08857520684467685,-0.3038982477697623
11907189,2032.0,1,195416,227269,0.73,-0.32,9.97,-0.03,-0.01,-0.01,31.89,9.987705,17.10514253706493,-36.68654684992963,10.001809836224643,0.033166247903554,0.11742516208784455,-0.03587556620747756
11947189,2134.0,1,195387,226625,0.7,-0.31,9.98,-0.03,-0.01,-0.0,31.89,10.027705,116.8057801091027,204.3729569052878,10.009320656268336,0.03162277660168379,0.7718573689285668,0.10587718816415179
11987190,2225.0,1,195046,226552,0.73,-0.32,9.95,-0.03,-0.01,-0.0,31.89,10.067706,215.1221669178077,343.6540172263873,9.981873571629727,0.03162277660168379,1.4172033923312517,0.1877800943958236
12027192,2231.875,1,195339,227977,0.75,-0.31,9.96,-0.03,-0.01,-0.0,31.89,10.107708,241.44659473990387,556.9159163774414,9.993007555285846,0.03162277660168379,1.5899962030190078,0.313186731082025
12067196,2231.875,1,196057,229634,0.71,-0.31,9.99,-0.03,-0.01,-0.01,31.89,10.147712,257.53235167198505,923.6941522977711,10.019995009978798,0.033166247903554,1.6955826632877207,0.5288671932722602
12107186,2169.0,1,196594,230190,0.72,-0.32,10.01,-0.03,-0.01,-0.01,31.89,10.187702,191.64301798919237,1357.4295643004828,10.040961109375935,0.033166247903554,1.2630869130159263,0.7839211876683103
12147189,2003.0,1,196394,229679,0.71,-0.31,9.98,-0.03,-0.01,-0.01,31.89,10.227705,85.92315418784801,1661.8949051058846,10.010024974993819,0.033166247903554,0.5691446729332155,0.9629591430176581
12187189,1819.0,1,196233,229485,0.73,-0.31,9.97,-0.03,-0.01,-0.0,31.89,10.267705,-138.11709181763115,1642.7217052260435,10.001494888265455,0.03162277660168379,-0.9014492589116609,0.9516845247149294
12227876,1535.0,1,195928,227750,0.72,-0.32,9.98,-0.03,-0.01,-0.0,31.95,10.308392,-333.7809520207462,1193.489131909333,10.011053890575159,0.03162277660168379,-2.185781385064603,0.6875175716220445
12266189,1662.0,1,194942,224690,0.74,-0.31,10.0,-0.03,-0.01,-0.0,31.95,10.346705,-241.45461812502646,336.2883017576872,10.03213337231917,0.03162277660168379,-1.5797539020684948,0.18344875528933396
12306189,1650.0,1,193889,222218,0.73,-0.305,9.98,-0.03,-0.01,-0.0,31.95,10.386705,-196.26853486090505,-767.1526984305158,10.011309854359718,0.03162277660168379,-1.2831537106438293,-0.4654192570753432
12346187,1615.0,1,192893,219881,0.73,-0.33,9.97,-0.03,-0.01,-0.0,31.95,10.426703,-205.7051810833725,-1835.5657281390966,10.002134772137397,0.03162277660168379,-1.3450955934936997,-1.0936894036924139
12386189,1657.0,1,191917,217759,0.74,-0.33,9.97,-0.03,-0.01,-0.01,31.95,10.466705,-173.6433403988454,-2542.63493137308,10.002869588273157,0.033166247903554,-1.1346425646513298,-1.5094747410402727
12426189,1520.0,1,191524,218176,0.73,-0.31,9.97,-0.03,-0.01,-0.0,31.95,10.506705,-221.12069024779115,-2643.5066201861987,10.001494888265455,0.03162277660168379,-1.4462825660920904,-1.568791380727282
12466189,1603.0,1,192168,220536,0.72,-0.34,9.97,-0.03,-0.01,-0.0,31.95,10.546705,-191.0329989860157,-2091.203940291951,10.001744847775312,0.03162277660168379,-1.2487877990505163,-1.2440150292363175
12506189,1513.0,1,193248,223616,0.71,-0.31,9.97,-0.03,-0.01,-0.01,31.95,10.586705,-171.84211542939485,-1054.914544227421,10.000054999848752,0.033166247903554,-1.1228193741434214,-0.6346348806426945
12546189,1583.0,1,194669,227187,0.74,-0.32,9.97,-0.03,-0.01,-0.0,31.95,10.626705,-152.71264102928203,188.04978704100725,10.002544676231144,0.03162277660168379,-0.9972540372284644,0.09627850297525614
12586187,1605.0,1,195832,229497,0.72,-0.33,9.98,-0.03,-0.01,-0.0,31.95,10.666703,-36.97366815894977,1405.8522973762233,10.011378526456784,0.03162277660168379,-0.2375466444017897,0.8123957164911129
12626189,1755.0,1,196518,230957,0.71,-0.31,9.98,-0.03,-0.01,-0.01,31.95,10.706705,79.12858612501245,2480.56917710514,10.010024974993819,0.033166247903554,0.5245453175010285,1.4443727823111523
12666189,1854.0,1,197025,232369,0.74,-0.32,9.97,-0.03,-0.01,-0.0,31.95,10.746705,256.34563309929234,3338.50153104118,10.002544676231144,0.03162277660168379,1.6877930756447628,1.9488717642656732
12706189,1920.0,1,197729,233855,0.74,-0.32,10.0,-0.03,-0.01,-0.0,31.95,10.786705,295.8534114460146,3833.669406261437,10.032447358446493,0.03162277660168379,1.9471210318189462,2.2400505358775744
12746186,1725.0,1,198123,233227,0.73,-0.33,9.96,-0.03,-0.01,-0.0,31.95,10.826702,169.51458973978933,3737.7906631154838,9.992166932152406,0.03162277660168379,1.1178365266007952,2.18366995052455
12786189,1680.0,1,197053,229222,0.72,-0.33,10.0,-0.03,-0.01,-0.0,31.95,10.866705,106.53987792878837,2888.9366128154425,10.031315965515192,0.03162277660168379,0.7044722730788054,1.684509378901826
12826186,1514.0,1,195368,224834,0.71,-0.32,10.02,-0.03,-0.01,-0.0,31.95,10.906702,-11.56560786332812,1379.6900030826032,10.050218903088629,0.03162277660168379,-0.0707688446230119,0.7970112275204243
12866189,1427.0,1,193340,220244,0.73,-0.33,9.97,-0.03,-0.01,-0.0,31.95,10.946705,-94.95862571875568,-396.94314069080576,10.002134772137397,0.03162277660168379,-0.6181582900596321,-0.24772103864046502
12906189,1419.0,1,191878,216920,0.74,-0.31,9.97,-0.03,-0.01,-0.0,31.95,10.986705,-85.76796826658807,-1911.331485024537,10.002229751410432,0.03162277660168379,-0.5578310706434739,-1.138242738276842
12946189,1326.0,1,191085,215831,0.74,-0.31,9.96,-0.03,-0.01,-0.0,31.95,11.026705,-154.29261027666854,-2760.7934382555295,9.992262006172577,0.03162277660168379,-1.007624911342088,-1.637760781451239
12986186,1338.0,1,191161,216314,0.73,-0.31,9.95,-0.03,-0.01,-0.0,31.95,11.066702,-146.37925103418124,-2847.3509886088646,9.98155799462188,0.03162277660168379,-0.9556818417820512,-1.688660127808085
13026197,1426.0,1,191584,218051,0.73,-0.32,9.97,-0.03,-0.01,-0.01,31.95,11.106713,-28.643368154191506,-2363.18914258702,10.001809836224643,0.033166247903554,-0.18286678729636036,-1.4039533472575847
13066189,1457.0,1,192306,220198,0.71,-0.32,10.0,-0.03,-0.01,-0.01,31.95,11.146705,-9.465650372086982,-1625.962615044002,10.03027915862764,0.033166247903554,-0.05698478216632328,-0.9704342814373358
13106189,1344.0,1,193034,221775,0.71,-0.305,9.97,-0.03,-0.01,-0.01,31.95,11.186705,-94.92078130872503,-899.3936621734658,9.999901249512417,0.033166247903554,-0.6179098804067343,-0.5431823013001292
13146186,1360.0,1,193536,222996,0.72,-0.32,9.96,-0.03,-0.01,-0.0,31.95,11.226702,-100.66759480081618,-313.98939957615823,9.991116053774974,0.03162277660168379,-0.655631804032487,-0.1989408781188832
13186189,1434.0,1,193885,223699,0.74,-0.32,10.0,-0.03,-0.01,-0.0,31.95,11.266705,8.023991035424046,96.11209354847921,10.032447358446493,0.03162277660168379,0.057816736679534374,0.04221541448414991
13226186,1535.0,1,194178,224274,0.74,-0.31,9.95,-0.03,-0.01,-0.0,31.95,11.306702,64.73669415995175,315.6420743607531,9.982294325454443,0.03162277660168379,0.430077339675885,0.17130793712905823
13266875,1517.0,1,194397,224775,0.73,-0.33,9.97,-0.03,-0.01,-0.01,32.09,11.347391,97.77037092073815,319.7461882945204,10.002134772137397,0.033166247903554,0.6469094734423759,0.1737213223941223
13305189,1657.0,1,194506,223490,0.73,-0.31,9.97,-0.03,-0.01,-0.01,32.09,11.385705,170.55064741165816,115.54924643098178,10.001494888265455,0.033166247903554,1.1246371802889472,0.053645247846102806
13345189,1634.0,1,193699,221404,0.74,-0.32,9.99,-0.03,-0.01,-0.0,32.09,11.425705,203.5101346892291,-209.41999877713408,10.022479733080033,0.03162277660168379,1.3409823363549196,-0.13744983397691704
13385186,1661.0,1,193398,221168,0.74,-0.33,9.96,-0.03,-0.01,-0.0,32.09,11.465702,162.76613470923044,-507.16619746599883,9.992902481261389,0.03162277660168379,1.0735398558275218,-0.31253666154579485
13425189,1584.0,1,193454,221326,0.74,-0.33,9.98,-0.03,-0.01,-0.0,32.09,11.505705,118.94505797302736,-656.4781444567012,10.012836760878507,0.03162277660168379,0.7858995292158785,-0.4003381355254934
13465186,1637.0,1,193599,221815,0.76,-0.32,9.98,-0.03,-0.01,-0.0,32.09,11.545702,129.28035040674948,-636.0230744717829,10.014010185734785,0.03162277660168379,0.8537401007554326,-0.38830972566793825
13505227,1588.0,1,193914,222707,0.73,-0.31,10.0,-0.03,-0.01,-0.0,32.09,11.585743,76.92219367165652,-510.1804736607584,10.031400699802596,0.03162277660168379,0.5100626189188541,-0.314309178067184
13545185,1584.0,1,194102,222736,0.74,-0.305,9.99,-0.03,-0.01,-0.0,32.09,11.625701,51.97675655439555,-343.337517133237,10.02201202354098,0.03162277660168379,0.34632146479173015,-0.21619876023732776
13585189,1655.0,1,194157,223383,0.73,-0.32,9.97,-0.03,-0.01,-0.0,32.09,11.665705,106.51988661486276,-130.66027326166048,10.001809836224643,0.03162277660168379,0.7043410506512604,-0.09113592454188928
13625186,1637.0,1,194567,225188,0.74,-0.31,9.97,-0.03,-0.01,-0.0,32.09,11.705702,52.552896871325956,184.46906733696005,10.002229751410432,0.03162277660168379,0.35010323377777347,0.09417289472179821
13665189,1582.0,1,195228,226885,0.74,-0.32,10.0,-0.03,-0.01,-0.0,32.09,11.745705,9.22166330714785,621.382232887442,10.032447358446493,0.03162277660168379,0.06567822409770485,0.3510955369458471
13705212,1639.0,1,195696,227903,0.74,-0.34,9.96,-0.03,-0.01,-0.0,32.09,11.785728,-15.154358045897126,1084.9588054996125,9.993237713574116,0.03162277660168379,-0.09432530082001189,0.6236973427500397
13745189,1535.0,1,195929,228693,0.76,-0.31,9.97,-0.03,-0.01,-0.0,32.09,11.825705,-67.89790472331897,1378.0454353273112,10.003729304614355,0.03162277660168379,-0.4405324714990542,0.7960441550531212
13785186,1567.0,1,196082,228997,0.73,-0.32,9.99,-0.03,-0.01,-0.0,32.09,11.865702,-148.94392372984794,1312.904113886405,10.021746354802639,0.03162277660168379,-0.9725162818911888,0.7577384189431161
13825189,1268.875,1,196018,227887,0.75,-0.32,10.0,-0.03,-0.01,-0.0,32.09,11.905705,-387.3452108377856,852.3471750284567,10.033189921455689,0.03162277660168379,-2.5373756873587547,0.4869122801223303
13865186,1268.875,1,195158,224064,0.74,-0.33,9.98,-0.03,-0.01,-0.0,32.09,11.945702,-491.94098374171443,173.50303941513505,10.012836760878507,0.03162277660168379,-3.223939426113892,0.0877244260316222
13905189,1268.875,1,194163,223083,0.73,-0.31,9.98,-0.03,-0.01,-0.01,32.09,11.985705,-456.64701779845797,-413.32876629514794,10.011463429489218,0.033166247903554,-2.992270817137167,-0.25735645033481735
13945189,1335.0,1,194336,224448,0.74,-0.31,9.97,-0.03,-0.01,-0.01,32.09,12.025705,-466.30411839039687,-650.6594854872021,10.002229751410432,0.033166247903554,-3.055659756325234,-0.3969165283172033
13985189,1565.0,1,194855,225698,0.73,-0.32,9.98,-0.03,-0.01,-0.01,32.09,12.065705,-228.7034423171112,-491.5224208326105,10.011778063860586,0.033166247903554,-1.4960555393799055,-0.30333748710125963
14025212,1858.0,1,195160,226762,0.73,-0.33,9.96,-0.03,-0.01,-0.0,32.09,12.105728,13.195191412640709,-111.81542595722102,9.992166932152406,0.03162277660168379,0.09176035185884808,-0.08005439085620793
14065189,1905.0,1,195423,227600,0.74,-0.32,9.97,-0.03,-0.01,-0.0,32.09,12.145705,46.886584551715856,223.15560902243084,10.002544676231144,0.03162277660168379,0.312909717605002,0.11692214855995828
14105190,2031.0,1,195616,228091,0.74,-0.34,9.97,-0.03,-0.01,-0.01,32.09,12.185706,146.19408335123796,332.1846000647061,10.003204486563293,0.033166247903554,0.9647613724978374,0.1810356124385535
14145190,2091.0,1,195644,228052,0.73,-0.34,9.99,-0.03,-0.01,-0.0,32.09,12.225706,170.45224740088074,215.15933287477753,10.022404901020513,0.03162277660168379,1.1239912853601441,0.11222001422802579
14185189,2085.0,1,195532,227436,0.72,-0.31,9.99,-0.03,-0.01,-0.0,32.09,12.265705,163.28612287312072,24.1738574702909,10.020708557781731,0.03162277660168379,1.0769530436457029,-8.718279936001895e-05
14225189,2231.0,1,195367,227158,0.75,-0.33,10.01,-0.03,-0.01,-0.0,32.09,12.305705,260.63150141744785,-59.78879420590777,10.04348047242588,0.03162277660168379,1.7159253958583889,-0.04946062360562925
14265190,2231.875,1,195419,227666,0.73,-0.31,9.96,-0.03,-0.01,-0.01,32.09,12.345706,266.9802206831205,39.4720630136243,9.991526409913554,0.033166247903554,1.7575982122096818,0.008908781843929438
14305876,2231.875,1,195763,228912,0.74,-0.31,9.98,-0.03,-0.01,-0.01,32.05,12.386392,233.07964693355197,239.6105355334303,10.012197560975313,0.033166247903554,1.5350757907651176,0.1265983119950472
14346189,2231.875,1,196173,229943,0.74,-0.32,9.94,-0.03,-0.01,-0.0,32.05,12.426705,220.76759758882613,365.84014209680385,9.972642578574648,0.03162277660168379,1.4542598419445396,0.20082643465713923
14386189,2231.875,1,196098,228725,0.73,-0.31,9.98,-0.03,-0.01,-0.0,32.05,12.466705,216.31498129229553,289.146286563204,10.011463429489218,0.03162277660168379,1.4250329926473317,0.1557273404670712
14426190,2194.0,1,195514,227400,0.73,-0.33,10.0,-0.03,-0.01,-0.0,32.05,12.506706,151.8490882351128,28.02839026913159,10.032038676161491,0.03162277660168379,1.0018806669775269,0.002179438646962557
14466190,2060.0,1,195286,227099,0.73,-0.31,9.96,-0.03,-0.01,-0.0,32.05,12.546706,24.312863460981813,-267.1598489500658,9.991526409913554,0.03162277660168379,0.16473644138756596,-0.17140320512186663
14506189,2093.0,1,195272,227203,0.72,-0.32,9.94,-0.03,-0.01,-0.01,32.05,12.586705,44.73052348349839,-428.7750617539604,9.971178465958776,0.033166247903554,0.2987573928323804,-0.26643949784804893
14546189,2068.0,1,195300,227465,0.72,-0.31,9.98,-0.03,-0.01,-0.0,32.05,12.626705,11.919351540596326,-387.3301333674075,10.010739233443253,0.03162277660168379,0.08338577449033222,-0.24206820087776032
14586189,1902.0,1,195533,228320,0.76,-0.32,9.98,-0.03,-0.01,-0.01,32.05,12.666705,-139.5907967354329,-200.61097730231444,10.014010185734785,0.033166247903554,-0.9111226169269712,-0.1322697724654551
14626189,1909.0,1,195764,228696,0.75,-0.33,9.96,-0.03,-0.01,-0.0,32.05,12.706705,-149.70810229729327,10.775404782357553,9.993647982593744,0.03162277660168379,-0.9775323287138812,-0.007966015798042013
14666189,1865.0,1,195775,228822,0.74,-0.32,9.97,-0.03,-0.01,-0.0,32.05,12.746705,-172.06884598882138,156.71990922131556,10.002544676231144,0.03162277660168379,-1.1243076272175958,0.07785526553435605
14706189,1809.0,1,195851,229107,0.74,-0.34,9.98,-0.03,-0.01,-0.0,32.05,12.786705,-228.5020893408459,225.04469766439553,10.013171325808823,0.03162277660168379,-1.494733864054449,0.11803300921502116
14746189,1840.0,1,195886,229273,0.74,-0.33,9.98,-0.03,-0.01,-0.0,32.05,12.826705,-190.01471576116887,255.42728474435472,10.012836760878507,0.03162277660168379,-1.2421038163373272,0.13589920132289768
14786189,1904.0,1,195828,229039,0.75,-0.33,9.96,-0.03,-0.01,-0.0,32.05,12.866705,-102.56006034362775,272.38127808544783,9.993647982593744,0.03162277660168379,-0.6680538951214968,0.14586883627302438
14826189,2002.0,1,195728,228426,0.73,-0.33,9.98,-0.03,-0.01,-0.0,32.05,12.906705,-2.851006887913758,239.293711580603,10.012102676261366,0.03162277660168379,-0.01356644665483443,0.1264120066751384
14866189,2043.0,1,195498,227607,0.73,-0.32,9.96,-0.03,-0.01,-0.0,32.05,12.946705,63.47733073478352,77.90693968275104,9.991841672084282,0.03162277660168379,0.4218109132455441,0.03151004645664923
14906189,2064.0,1,195366,227154,0.77,-0.32,9.97,-0.03,-0.01,-0.0,32.05,12.986705,105.59402285697062,-254.3520327336691,10.00480884375109,0.03162277660168379,0.6982637067438717,-0.1638716902971973
14946189,2063.0,1,194911,224679,0.71,-0.32,9.97,-0.03,-0.01,-0.0,32.05,13.026705,110.80393060124662,-690.4932404771566,10.000369993155253,0.03162277660168379,0.7324613960019729,-0.42034039005602297
14986189,2053.0,1,194052,223511,0.74,-0.33,9.99,-0.03,-0.01,-0.0,32.05,13.066705,147.05770031090876,-1057.049417679659,10.02280399888175,0.03162277660168379,0.9704301301562233,-0.6358902727238003
15026196,2090.0,1,194006,223730,0.74,-0.31,9.99,-0.03,-0.01,-0.0,32.05,13.106712,180.84570946303919,-1173.5547301957076,10.022165434675282,0.03162277660168379,1.1922136807198438,-0.7044001165209043
15066189,1970.0,1,194254,224238,0.73,-0.31,9.99,-0.03,-0.01,-0.0,32.05,13.146705,106.01758453292543,-981.5603797735045,10.021432033397224,0.03162277660168379,0.7010439537821915,-0.591499660110046
15106190,1954.0,1,194514,225420,0.74,-0.34,9.98,-0.03,-0.01,-0.01,32.05,13.186706,108.16243611231464,-598.0949850350112,10.013171325808823,0.033166247903554,0.7151226997824996,-0.3660064724795664
15146202,1924.0,1,194918,226205,0.76,-0.33,10.0,-0.03,-0.01,-0.0,32.05,13.226718,93.0995712570445,-242.54371118171315,10.034266291064833,0.03162277660168379,0.6162504746028417,-0.15692791882824356
15186189,1782.0,1,195005,225751,0.72,-0.305,9.99,-0.03,-0.01,-0.0,32.05,13.266705,4.896265792652627,-87.12590248352949,10.020555124343161,0.03162277660168379,0.037286435340795426,-0.06553595079473401
15226186,1872.0,1,194657,224559,0.74,-0.305,9.98,-0.03,-0.01,-0.0,32.05,13.306702,78.75779836960133,-141.56044864630758,10.012043997106685,0.03162277660168379,0.5221114770065994,-0.0975456692722881
15266189,1823.0,1,194534,224769,0.75,-0.34,9.96,-0.03,-0.01,-0.01,32.05,13.346705,104.85198462623543,-255.24940215747546,9.993983189899811,0.033166247903554,0.6933929884743989,-0.16439937987396921
15306876,1779.0,1,194561,225096,0.75,-0.33,9.97,-0.03,-0.01,-0.01,32.03,13.387392,30.822002686268114,-232.6162410900212,10.003614346824852,0.033166247903554,0.20746224988362247,-0.15109016421779567
15345216,1705.0,1,194699,225542,0.71,-0.33,9.96,-0.03,-0.01,-0.0,32.03,13.425732,35.55002360568969,21.411694492150062,9.99072569936739,0.03162277660168379,0.23849684745127092,-0.0017114465353892695
15385189,1712.0,1,194895,225983,0.74,-0.33,10.01,-0.03,-0.01,-0.0,32.03,13.465705,8.063257926828957,426.21643867335433,10.042738670303036,0.03162277660168379,0.05807448346053488,0.23633014309908099
15425189,1637.0,1,195153,227022,0.74,-0.32,9.96,-0.03,-0.01,-0.01,32.03,13.505705,8.0852596500701,774.6431033436027,9.992577245135513,0.033166247903554,0.05821890215880645,0.44121913790793543
15465190,1743.0,1,195507,227784,0.74,-0.33,9.97,-0.03,-0.01,-0.0,32.03,13.545706,79.74650943615569,880.3541695320193,10.002869588273157,0.03162277660168379,0.5286013488967918,0.503381527551722
15505189,1728.0,1,195412,225882,0.74,-0.33,9.96,-0.03,-0.01,-0.0,32.03,13.585705,125.55337545332316,723.5898039416768,9.992902481261389,0.03162277660168379,0.8292763410141916,0.41119772951189404
15545208,1782.0,1,194530,224157,0.74,-0.31,9.96,-0.03,-0.01,-0.0,32.03,13.625724,158.45227339455622,479.14154932345673,9.992262006172577,0.03162277660168379,1.0452237903647783,0.26745225234267017
15585189,1727.0,1,194335,224370,0.74,-0.31,9.97,-0.03,-0.01,-0.0,32.03,13.665705,132.85418815712222,388.0879734632216,10.002229751410432,0.03162277660168379,0.8771986721630348,0.2139090608380495
15625189,1670.0,1,194650,225760,0.74,-0.31,9.96,-0.03,-0.01,-0.01,32.03,13.705705,80.5862796663951,566.7720625391406,9.992262006172577,0.033166247903554,0.5341135772876847,0.31898254433205536
15665189,1664.0,1,195123,227010,0.72,-0.33,9.98,-0.03,-0.01,-0.0,32.03,13.745705,66.39933454798052,913.7771331281201,10.011378526456784,0.03162277660168379,0.44099086485303335,0.5230355842273757
15705187,1615.0,1,195381,227500,0.73,-0.32,9.99,-0.03,-0.01,-0.01,32.03,13.785703,41.9175359611896,1198.1608380677415,10.021746354802639,0.033166247903554,0.28029302112051624,0.6902647241103436
15745190,1589.0,1,195341,226728,0.73,-0.34,10.0,-0.03,-0.01,-0.01,32.03,13.825706,-13.981203220568384,1253.3462074820911,10.032372600736078,0.033166247903554,-0.08662474523679409,0.7227159570782976
15785189,1483.0,1,194921,225401,0.75,-0.31,9.97,-0.03,-0.01,-0.0,32.03,13.865705,-99.69943045174142,1109.789837035816,10.002974557600355,0.03162277660168379,-0.6492768002232916,0.6382989952852571
15825190,1405.0,1,194770,225818,0.76,-0.31,9.95,-0.03,-0.01,-0.01,32.03,13.905706,-203.6129784696903,955.8917104382778,9.983796872933663,0.033166247903554,-1.3313624338372163,0.5478006618945638
15865190,1315.0,1,194886,226492,0.73,-0.33,9.95,-0.03,-0.01,-0.01,32.03,13.945706,-299.0349187623019,961.8314132734929,9.982199156498531,0.033166247903554,-1.9577093909627095,0.5512934477998053
15905189,1268.875,1,195026,226350,0.72,-0.32,10.0,-0.03,-0.01,-0.0,32.03,13.985705,-355.02272435884214,1109.1373336726924,10.030991974874668,0.03162277660168379,-2.3252117867847932,0.6379152968725472
15945186,1268.875,1,194825,225446,0.74,-0.31,10.0,-0.03,-0.01,-0.0,32.03,14.025702,-384.1059064848073,1163.1826267363977,10.03213337231917,0.03162277660168379,-2.5161129838497964,0.6696961187578421
15985189,1268.875,1,194586,225159,0.74,-0.34,9.96,-0.03,-0.01,-0.0,32.03,14.065705,-392.9489074542257,824.4938117149184,9.993237713574116,0.03162277660168379,-2.57415819580072,0.4705333740568095
16025209,1268.875,1,194286,223081,0.71,-0.33,10.0,-0.03,-0.01,-0.0,32.03,14.105725,-417.98557946838645,-32.026018138777836,10.030603172292283,0.03162277660168379,-2.738498213248812,-0.03313498651100281
16065189,1268.875,1,192789,218035,0.71,-0.32,9.99,-0.03,-0.01,-0.0,32.03,14.145705,-456.6366953569555,-1200.1224564713234,10.020309376461388,0.03162277660168379,-2.992203060918782,-0.7200230159224739
16105186,1268.875,1,191456,215779,0.75,-0.32,10.0,-0.03,-0.01,-0.01,32.03,14.185702,-448.6162737018219,-2208.447182042821,10.033189921455689,0.033166247903554,-2.9395572366654545,-1.3129588053195909
16145189,1268.875,1,191134,216215,0.74,-0.32,9.98,-0.03,-0.01,-0.0,32.03,14.225705,-530.6053707981221,-2601.3684823946123,10.012512172277246,0.03162277660168379,-3.47773138535975,-1.5440124485424962
16185186,1268.875,1,191685,218880,0.75,-0.31,9.97,-0.03,-0.01,-0.0,32.03,14.265702,-492.7268245920341,-2248.839793795772,10.002974557600355,0.03162277660168379,-3.229097663557747,-1.3367112974762942
16225189,1759.0,1,192660,221764,0.73,-0.32,9.97,-0.03,-0.01,-0.01,32.03,14.305705,-101.8067571059888,-1450.8806711859781,10.001809836224643,0.033166247903554,-0.6631092336606097,-0.867479005266953
16265189,2019.0,1,193506,223123,0.72,-0.32,10.0,-0.03,-0.01,-0.0,32.03,14.345705,189.2738046768142,-744.3230374341416,10.030991974874668,0.03162277660168379,1.247535462852172,-0.4519944915000654
16305189,2173.0,1,193711,222714,0.73,-0.31,9.98,-0.03,-0.01,-0.0,32.03,14.385705,269.0276834217487,-543.8837670182093,10.011463429489218,0.03162277660168379,1.771037700572998,-0.33412807999965055
16345873,2231.875,1,193400,221122,0.74,-0.33,9.97,-0.03,-0.01,-0.0,31.99,14.426389,323.2434708969411,-874.8693940394506,10.002869588273157,0.03162277660168379,2.126908618824264,-0.5287610380734568
16384189,2231.875,1,192790,219565,0.73,-0.305,9.97,-0.03,-0.01,-0.0,31.99,14.464705,288.59526455791774,-1386.2367972076765,10.001341160064484,0.03162277660168379,1.899478757895479,-0.8294657884182959
16424189,2231.875,1,192702,220172,0.76,-0.34,9.95,-0.03,-0.01,-0.01,31.99,14.504705,255.82906950649735,-1627.3838296493766,9.98477340754411,0.033166247903554,1.684402366615825,-0.9712700132036702
16464189,2231.875,1,192896,221371,0.73,-0.34,9.99,-0.03,-0.01,-0.01,31.99,14.544705,242.93001429139588,-1381.937751389668,10.022404901020513,0.033166247903554,1.5997333276191603,-0.8269377753079256
16504189,2231.875,1,193564,223951,0.71,-0.32,9.99,-0.03,-0.01,-0.0,31.99,14.584705,208.5304878112927,-812.0585368837367,10.020309376461388,0.03162277660168379,1.3739357943548034,-0.4918257093784033
16544191,2231.875,1,194615,226969,0.74,-0.31,9.96,-0.03,-0.01,-0.01,31.99,14.624707,196.64231159467582,-307.570703752496,9.992262006172577,0.033166247903554,1.2959021369358066,-0.1951664249307537
16585188,2231.875,1,195124,226059,0.71,-0.31,9.96,-0.03,-0.01,-0.0,31.99,14.665704,176.83912657284776,-160.60441699283473,9.990085084722754,0.03162277660168379,1.1659145822730186,-0.1087442941978068
16625190,2231.875,1,194232,223393,0.73,-0.32,9.96,-0.03,-0.01,-0.01,31.99,14.705706,161.3086176511641,-328.92496223236736,9.991841672084282,0.033166247903554,1.063972754472436,-0.20772359405261195
16665190,2231.875,1,193839,224254,0.75,-0.31,9.97,-0.03,-0.01,-0.0,31.99,14.745706,155.8158625611995,-480.9352876511938,10.002974557600355,0.03162277660168379,1.027918463118844,-0.2971118238687947
16705190,2231.875,1,194690,226886,0.73,-0.32,9.97,-0.03,-0.01,-0.01,31.99,14.785706,143.71038432054308,-275.0044397920924,10.001809836224643,0.033166247903554,0.9484584412692244,-0.1760161423487884
16745187,2231.875,1,195540,229373,0.72,-0.32,9.97,-0.03,-0.01,-0.01,31.99,14.825703,145.39475288430205,370.30980659725174,10.001084941145136,0.033166247903554,0.959514589586405,0.20345477846514337
16785190,2231.875,1,196566,231868,0.71,-0.34,10.01,-0.03,-0.01,-0.01,31.99,14.865706,144.98525763913688,1228.1916920238557,10.040906333593595,0.033166247903554,0.9568266742078237,0.7079240828914604
16825190,2231.875,1,197141,232814,0.71,-0.32,9.98,-0.03,-0.01,-0.01,31.99,14.905706,148.29466650722694,1941.8207119845326,10.010339654577162,0.033166247903554,0.9785495418004966,1.1275668582357323
16865190,2231.875,1,197285,233078,0.74,-0.32,9.96,-0.03,-0.01,-0.0,31.99,14.945706,162.9331395823307,2258.7283427911016,9.992577245135513,0.03162277660168379,1.074636071160921,1.3139213841864492
16905190,2231.875,1,197250,233105,0.7,-0.31,9.97,-0.03,-0.01,-0.0,31.99,14.985706,168.51387915428904,2150.5405159985,9.999349978873628,0.03162277660168379,1.1112678902026114,1.2503025589651675
16945190,2231.875,1,197179,232751,0.72,-0.34,9.99,-0.03,-0.01,-0.0,31.99,15.025706,192.55284815239577,1772.4930697947093,10.021681495637347,0.03162277660168379,1.269059012854558,1.0279953445731367
16985190,2231.875,1,196756,231421,0.72,-0.32,9.96,-0.03,-0.01,-0.0,31.99,15.065706,210.40986224870272,1331.6900426910856,9.991116053774974,0.03162277660168379,1.3862719557927443,0.7687853061639448
17025217,2231.875,1,196113,230042,0.74,-0.31,9.99,-0.03,-0.01,-0.0,31.99,15.105733,228.77941200510256,962.861974563014,10.022165434675282,0.03162277660168379,1.5068491685218512,0.5518994595896857
17065190,2213.0,1,195831,229814,0.73,-0.32,9.98,-0.03,-0.01,-0.0,31.99,15.145706,254.745840599294,677.9248877890358,10.011778063860586,0.03162277660168379,1.677292082253375,0.38434490876868255
17105190,2103.0,1,195881,229829,0.72,-0.31,9.99,-0.03,-0.01,-0.0,31.99,15.185706,144.03344901286243,405.8585435950636,10.020708557781731,0.03162277660168379,0.9505790289073336,0.22435887602351817
17145190,1911.0,1,195581,227905,0.74,-0.31,9.98,-0.03,-0.01,-0.01,31.99,15.225706,27.59393416276794,86.90271828778594,10.012197560975313,0.033166247903554,0.18627329804626952,0.03679992872686224
17185195,1973.0,1,194876,226312,0.74,-0.32,9.98,-0.03,-0.01,-0.01,31.99,15.265711,73.4894903496258,-254.4969600716311,10.012512172277246,0.033166247903554,0.48753044996614425,-0.1639569134434323
17225190,1857.0,1,194579,225868,0.71,-0.32,10.0,-0.03,-0.01,-0.01,31.99,15.305706,48.106708082163216,-520.6986989877048,10.03027915862764,0.033166247903554,0.32091857445982425,-0.3204943206895222
17265190,1755.0,1,194469,225866,0.74,-0.31,9.96,-0.03,-0.01,-0.0,31.99,15.345706,-67.41186295705097,-625.2944355441624,9.992262006172577,0.03162277660168379,-0.4373421068889412,-0.38200085132381284
17305190,1658.0,1,194527,226203,0.75,-0.33,10.0,-0.03,-0.01,-0.0,31.99,15.385706,-80.021196763129,-570.6162648694958,10.03351384112266,0.03162277660168379,-0.5201094226299323,-0.3498478717631873
17345877,1664.0,1,194640,226499,0.73,-0.33,9.96,-0.03,-0.01,-0.01,31.81,15.426393,-71.468043628731,-443.89183059456724,9.992166932152406,0.033166247903554,-0.46396676379140345,-0.27532877035949976
17384189,1525.0,1,194674,226448,0.74,-0.32,9.97,-0.03,-0.01,-0.0,31.81,15.464705,-142.42303596714916,-334.6269088678691,10.002544676231144,0.03162277660168379,-0.9297133563229326,-0.21107656968008673
17424189,1456.0,1,194587,226419,0.72,-0.32,9.98,-0.03,-0.01,-0.0,31.81,15.504705,-193.1322259316458,-249.60709148460708,10.011053890575159,0.03162277660168379,-1.2625670662261705,-0.16108147260858424
17464189,1413.0,1,194658,226766,0.72,-0.31,9.96,-0.03,-0.01,-0.0,31.81,15.544705,-182.24705065229827,-106.82611354548958,9.990800768707182,0.03162277660168379,-1.1911170790105485,-0.07712047302361477
17504190,1357.0,1,194833,227118,0.73,-0.32,9.96,-0.03,-0.01,-0.0,31.81,15.584706,-212.78131650210614,176.31369650209194,9.991841672084282,0.03162277660168379,-1.3915431492040597,0.08937720626830123
17544189,1268.875,1,195008,227570,0.72,-0.31,9.96,-0.03,-0.01,-0.0,31.81,15.624705,-255.7399442421436,568.2027054395894,9.990800768707182,0.03162277660168379,-1.6735223846372196,0.31982382031786655
17584189,1268.875,1,195153,228212,0.72,-0.33,9.96,-0.03,-0.01,-0.0,31.81,15.664705,-229.98236454044914,885.1324447254798,9.991441337464781,0.03162277660168379,-1.5044503492164218,0.5061913469501161
17625190,1268.875,1,195282,228197,0.73,-0.31,9.98,-0.03,-0.01,-0.0,31.81,15.705706,-192.44534080205645,889.1785491903678,10.011463429489218,0.03162277660168379,-1.2580583713757647,0.5085706202973127
17665190,1268.875,1,195061,226589,0.72,-0.33,9.99,-0.03,-0.01,-0.0,31.81,15.745706,-168.07924564171404,474.3014479787264,10.02134721482097,0.03162277660168379,-1.0981200017103518,0.2646060766625358
17705190,1268.875,1,193990,223118,0.73,-0.32,9.97,-0.03,-0.01,-0.0,31.81,15.785706,-140.06449563310775,-201.79559709753732,10.001809836224643,0.03162277660168379,-0.9142319632915759,-0.1329663768981371
17745190,1268.875,1,193027,221614,0.74,-0.32,9.96,-0.03,-0.01,-0.0,31.81,15.825706,-118.03917325031506,-773.8250993519198,9.992577245135513,0.03162277660168379,-0.7696583609118055,-0.4693428991394257
17785190,1268.875,1,192904,222021,0.74,-0.33,9.99,-0.03,-0.01,-0.0,31.81,15.865706,-99.31846369269381,-909.6500579548124,10.02280399888175,0.03162277660168379,-0.646776145032633,-0.5492134775420241
17825190,1268.875,1,193198,223121,0.73,-0.32,9.98,-0.03,-0.01,-0.0,31.81,15.905706,-82.95214169242509,-565.9329385267293,10.011778063860586,0.03162277660168379,-0.5393480634743497,-0.34709388613571135
17865187,1268.875,1,193552,224351,0.74,-0.31,9.98,-0.03,-0.01,-0.0,31.81,15.945703,-70.99055675006639,-46.096092265346286,10.012197560975313,0.03162277660168379,-0.46083255322513517,-0.041408760125335606
17905190,1268.875,1,194095,225483,0.73,-0.32,9.98,-0.03,-0.01,-0.0,31.81,15.985706,-63.44658114186316,214.526236613434,10.011778063860586,0.03162277660168379,-0.4113141075475755,0.1118477279774121
17945167,1268.875,1,194070,224073,0.7,-0.32,10.01,-0.03,-0.01,-0.0,31.81,16.025683,-57.305594075776895,-8.011326376245497,10.039546802520519,0.03162277660168379,-0.37100483956585995,-0.01901337483548322
17985190,1268.875,1,193023,220790,0.73,-0.33,9.98,-0.03,-0.01,-0.01,31.81,16.065706,-57.737059506552185,-524.7966389563085,10.012102676261366,0.033166247903554,-0.3738369666305814,-0.32290407541294114
18025213,1268.875,1,192298,220189,0.72,-0.31,9.98,-0.03,-0.01,-0.0,31.81,16.105729,-60.53379184225569,-858.2407835719218,10.010739233443253,0.03162277660168379,-0.39219463975052316,-0.518982741435384
18065190,1268.875,1,192632,222443,0.73,-0.32,9.99,-0.03,-0.01,-0.0,31.81,16.145706,-63.982576681421094,-620.0137072474242,10.021746354802639,0.03162277660168379,-0.41483236733358975,-0.3788955691445591
18105187,1268.875,1,193701,225338,0.72,-0.31,9.99,-0.03,-0.01,-0.0,31.81,16.185703,-80.32251636763932,151.30852812447134,10.020708557781731,0.03162277660168379,-0.5220872761175952,0.07467315421543805
18145189,1268.875,1,194544,226937,0.71,-0.31,9.96,-0.03,-0.01,-0.0,31.81,16.225705,-82.60253983293693,974.1985411427119,9.990085084722754,0.03162277660168379,-0.537053286610409,0.5585658200225079
18185190,1296.0,1,194996,227568,0.72,-0.33,9.97,-0.03,-0.01,-0.0,31.81,16.265706,-85.73499358213269,1259.9478819876365,10.001409900609014,0.03162277660168379,-0.5576146257335564,0.7265980091444807
18225190,1297.0,1,194619,224608,0.72,-0.34500000000000003,9.98,-0.03,-0.01,-0.0,31.81,16.305706,-87.09237033289378,748.2464113022602,10.01188418830342,0.03162277660168379,-0.566524408901924,0.4256968135653135
18265190,1420.0,1,193146,220248,0.73,-0.34,10.0,-0.03,-0.01,-0.0,31.81,16.345706,-2.945538078500609,-292.4738497368629,10.032372600736078,0.03162277660168379,-0.014186946755712264,-0.1862888631432066
18305190,1533.0,1,192170,218743,0.73,-0.31,9.93,-0.03,-0.01,-0.0,31.81,16.385706,103.26911094185557,-1254.8211741734813,9.96162135397647,0.03162277660168379,0.6830030497172837,-0.7521880779676963
18345876,1625.0,1,191959,219362,0.74,-0.31,9.97,-0.03,-0.01,-0.0,31.85,16.426392,153.63904446576555,-1625.9889655034792,10.002229751410432,0.03162277660168379,1.0136298897979727,-0.9704497765750577
18384189,1682.0,1,192492,221742,0.74,-0.305,9.97,-0.03,-0.01,-0.01,31.85,16.464705,197.09093961721808,-1332.7036554988608,10.002076034504038,0.033166247903554,1.2988469187746468,-0.7979861322787186
18424186,1714.0,1,193440,224292,0.74,-0.32,9.98,-0.03,-0.01,-0.01,31.85,16.504702,188.47991020247045,-741.5869258219309,10.012512172277246,0.033166247903554,1.2423243616446393,-0.450385547022635
18464190,1671.0,1,194126,225046,0.7,-0.32,10.0,-0.03,-0.01,-0.0,31.85,16.544706,123.55743804035893,-334.4906684662204,10.029576262235608,0.03162277660168379,0.8161750634527681,-0.21099645480434218
18504186,1689.0,1,194004,224269,0.71,-0.31,9.99,-0.03,-0.01,-0.0,31.85,16.584702,107.0842834226698,-330.1372000118481,10.019995009978798,0.03162277660168379,0.7080457355706538,-0.20843643897893865
18544190,1721.0,1,193711,223627,0.72,-0.32,9.99,-0.03,-0.01,-0.0,31.85,16.624706,105.1464277667848,-551.2744360562427,10.021022901879828,0.03162277660168379,0.6953257050442363,-0.33847409281586455
18584187,1686.0,1,193645,224626,0.73,-0.32,9.97,-0.03,-0.01,-0.0,31.85,16.664703,47.932131967801965,-624.1397452396321,10.001809836224643,0.03162277660168379,0.3197726617097622,-0.3813218466442065
18625235,1686.0,1,194408,227014,0.72,-0.305,9.99,-0.03,-0.01,-0.01,31.85,16.705751,-0.2776764317233951,-323.9258379747246,10.020555124343161,0.033166247903554,0.003324822753129912,-0.20478390645711073
18665189,1710.0,1,195228,229085,0.71,-0.34,9.97,-0.03,-0.01,-0.0,31.85,16.745705,15.621208200164107,227.58318310077374,10.001029946960463,0.03162277660168379,0.10768465845061312,0.1195257414945345
18705189,1810.0,1,196089,231138,0.72,-0.34,9.98,-0.03,-0.01,-0.0,31.85,16.785705,57.2787730278152,666.4453683544792,10.011713140117429,0.03162277660168379,0.3811237531812984,0.37759448626568337
18745189,1857.0,1,196498,230367,0.73,-0.33,10.01,-0.03,-0.01,-0.01,31.85,16.825705,104.31128764565071,688.7255610666632,10.042006771557167,0.033166247903554,0.6898438685604915,0.3906961422289755
18785189,1973.0,1,195623,228105,0.7,-0.32,9.99,-0.03,-0.01,-0.0,31.85,16.865705,163.50280128415292,290.23951524227056,10.01960578066822,0.03162277660168379,1.0783753146979225,0.1563702032208795
18825207,2047.0,1,195159,227961,0.71,-0.32,9.96,-0.03,-0.01,-0.0,31.85,16.905723,233.66189358554445,-243.44499698104465,9.990400392376674,0.03162277660168379,1.5388976415643538,-0.1574579113924903
18865190,2119.0,1,195459,229249,0.72,-0.33,9.98,-0.03,-0.01,-0.0,31.85,16.945706,264.1525570911784,-559.3839396673087,10.011378526456784,0.03162277660168379,1.739037507185697,-0.34324280948352426
18905189,2063.0,1,195974,230783,0.75,-0.33,10.01,-0.03,-0.01,-0.01,31.85,16.985705,191.26190553548668,-468.3556038062533,10.04348047242588,0.033166247903554,1.2605853014895918,-0.28971446012098184
18945189,2009.0,1,196665,232659,0.73,-0.31,9.99,-0.03,-0.01,-0.0,31.85,17.025705,115.92396706949603,-14.709101598648473,10.021432033397224,0.03162277660168379,0.76606917270852,-0.022951938016554756
18985190,1993.0,1,197314,234060,0.71,-0.31,9.97,-0.03,-0.01,-0.0,31.85,17.065706,73.74818779654545,615.1799258593704,10.000054999848752,0.03162277660168379,0.4892285327990586,0.3474483291361918
19025212,1904.0,1,198037,235582,0.75,-0.33,9.95,-0.03,-0.01,-0.0,31.85,17.105728,-25.884349268038672,1221.839604530106,9.983681685630806,0.03162277660168379,-0.1647566642083749,0.7041887980998558
19065187,1831.0,1,198625,236643,0.74,-0.32,10.0,-0.03,-0.01,-0.0,31.85,17.145703,-119.99396297796143,1655.322012842775,10.032447358446493,0.03162277660168379,-0.7824895462133926,0.9590940160760965
19105190,1776.0,1,199011,237532,0.71,-0.33,9.99,-0.03,-0.01,-0.0,31.85,17.185706,-188.1619261963273,1811.427842663124,10.020633712495433,0.03162277660168379,-1.229942157262132,1.0508905684035812
19145189,1733.0,1,199372,237767,0.72,-0.33,9.98,-0.03,-0.01,-0.0,31.85,17.225705,-237.8482044628862,1626.00856332281,10.011378526456784,0.03162277660168379,-1.5560815032837862,0.9418565201679983
19185189,1760.0,1,198911,236436,0.7,-0.34,9.98,-0.03,-0.01,-0.0,31.85,17.265705,-228.70172513038378,1104.709024964827,10.01029470095661,0.03162277660168379,-1.4960442678140764,0.6353112719460494
19225187,1729.0,1,197985,234883,0.72,-0.34,9.97,-0.03,-0.01,-0.0,31.85,17.305703,-256.2158409406141,358.4330646576682,10.001744847775312,0.03162277660168379,-1.6766461573050047,0.1964707730363154
19265190,1695.0,1,197690,234464,0.76,-0.32,9.97,-0.03,-0.01,-0.01,31.85,17.345706,-303.8982452881262,-409.1789709984811,10.004044182229505,0.033166247903554,-1.989632130760462,-0.25491620257765657
19305189,1733.0,1,197233,232258,0.73,-0.33,10.02,-0.03,-0.01,-0.0,31.85,17.385705,-262.82338041707754,-976.19842331211,10.051974930330855,0.03162277660168379,-1.7200178623078415,-0.5883466124791372
19345189,1774.0,1,196982,232474,0.72,-0.34,9.99,-0.03,-0.01,-0.0,31.85,17.425705,-221.80515938517226,-1199.8704722866091,10.021681495637347,0.03162277660168379,-1.4507754024369637,-0.7198748390131013
19385876,1807.0,1,197472,233577,0.73,-0.31,10.0,-0.03,-0.01,-0.01,31.95,17.466392,-193.46886215577325,-1081.6912558833803,10.031400699802596,0.033166247903554,-1.2647767370208942,-0.6503806719146347
19424190,1903.0,1,197844,234284,0.74,-0.32,9.97,-0.03,-0.01,-0.01,31.95,17.504706,-80.76426776316119,-766.3288691822077,10.002544676231144,0.033166247903554,-0.5249869199682923,-0.46493481210113397
19464190,2031.0,1,197996,234981,0.73,-0.33,9.99,-0.03,-0.01,-0.0,31.95,17.544706,36.14114385025184,-475.20808180222673,10.022070644332937,0.03162277660168379,0.24237694426486975,-0.2937439948004632
19504190,2112.0,1,198312,235498,0.75,-0.34,9.96,-0.03,-0.01,-0.0,31.95,17.584706,142.958797347558,-402.22000354815646,9.993983189899811,0.03162277660168379,0.9435250453217012,-0.2508240477847565
19544190,2231.875,1,198213,235236,0.73,-0.33,9.99,-0.03,-0.01,-0.0,31.95,17.624706,256.7214450132274,-612.6649948704724,10.022070644332937,0.03162277660168379,1.6902598945757439,-0.3745742285448721
19584190,2231.875,1,198011,234804,0.75,-0.32,9.98,-0.03,-0.01,-0.0,31.95,17.664706,277.3162464874523,-992.8039215372723,10.013256213639997,0.03162277660168379,1.8254435975734826,-0.5981113181823406
19624190,2231.875,1,197687,234103,0.73,-0.32,9.99,-0.03,-0.01,-0.0,31.95,17.704706,287.0471187388972,-1290.6315996327749,10.021746354802639,0.03162277660168379,1.8893167718788821,-0.7732460589433371
19664190,2231.875,1,197463,234338,0.75,-0.32,9.93,-0.03,-0.01,-0.0,31.95,17.744706,296.97616875275514,-1248.1910061816407,9.963423106543253,0.03162277660168379,1.95449077949449,-0.7482892705772007
19704190,2144.0,1,197953,235861,0.74,-0.33,9.95,-0.03,-0.01,-0.0,31.95,17.784706,230.2955220453212,-756.5054414343753,9.982935440039666,0.03162277660168379,1.5168008725790774,-0.4591582386039947
19744190,2097.0,1,198981,238695,0.74,-0.31,9.96,-0.03,-0.01,-0.01,31.95,17.824706,192.52720405646798,76.35918799273414,9.992262006172577,0.033166247903554,1.268890685723467,0.03059990575808533
19784190,2079.0,1,200428,240961,0.72,-0.33,9.98,-0.03,-0.01,-0.01,31.95,17.864706,193.90988588057675,1002.9975943663806,10.011378526456784,0.033166247903554,1.2779665706881569,0.5755008300683909
19824190,2059.0,1,200798,239837,0.76,-0.32,9.97,-0.03,-0.01,-0.0,31.95,17.904706,189.79158706172032,1798.0980970701535,10.004044182229505,0.03162277660168379,1.2509341719985658,1.043052137960302
19864188,1996.0,1,200906,240368,0.74,-0.31,9.97,-0.03,-0.01,-0.0,31.95,17.944704,145.21489567214454,2364.9746392218567,10.002229751410432,0.03162277660168379,0.9583340118575673,1.3763985108967798
19904189,1927.0,1,201572,241012,0.72,-0.33,10.0,-0.03,-0.01,-0.01,31.95,17.984705,85.33072334285895,2706.230128467819,10.031315965515192,0.033166247903554,0.5652559733749346,1.577070564026758
19944187,1852.0,1,201559,241290,0.73,-0.33,9.98,-0.03,-0.01,-0.0,31.95,18.024703,47.47003477993459,2815.7754837817656,10.012102676261366,0.03162277660168379,0.31673946864504954,1.6414876710168183
19984190,1783.0,1,201516,240912,0.75,-0.32,9.98,-0.03,-0.01,-0.0,31.95,18.064706,-40.184969790400864,2622.057693900962,10.013256213639997,0.03162277660168379,-0.25862553882694594,1.527573762381743
20024198,1668.0,1,200856,239465,0.74,-0.32,9.99,-0.03,-0.01,-0.0,31.95,18.104714,-89.8010256730177,2049.629350826476,10.022479733080033,0.03162277660168379,-0.5843039470771679,1.1909627055797969
20064190,1682.0,1,199902,237438,0.73,-0.32,9.99,-0.03,-0.01,-0.0,31.95,18.144706,-113.99770083825693,1141.4432025220908,10.021746354802639,0.03162277660168379,-0.7431302486156522,0.6569124565797249
20104190,1557.0,1,198814,235279,0.71,-0.33,9.97,-0.03,-0.01,-0.0,31.95,18.184706,-178.22667198127533,117.96216808919739,10.000694975850429,0.03162277660168379,-1.164727425442768,0.055064143537028744
20144190,1522.0,1,197837,233686,0.74,-0.31,9.96,-0.03,-0.01,-0.0,31.95,18.224706,-218.37965862905438,-705.6425557557712,9.992262006172577,0.03162277660168379,-1.4282905109262043,-0.4292488011915924
20184190,1479.0,1,197402,233280,0.74,-0.33,9.98,-0.03,-0.01,-0.0,31.95,18.264706,-269.89467208377596,-1106.8148001516936,10.012836760878507,0.03162277660168379,-1.7664336237648148,-0.6651543337870465
20224190,1424.0,1,197246,232938,0.73,-0.34,9.98,-0.03,-0.01,-0.0,31.95,18.304706,-236.7141183696587,-1113.137111941082,10.01243726572107,0.03162277660168379,-1.5486373937694213,-0.6688721092581686
20264196,1657.0,1,197220,233528,0.72,-0.32,9.96,-0.03,-0.01,-0.01,31.95,18.344712,-123.35673945943155,-995.144592498185,9.991116053774974,0.033166247903554,-0.8045627173331907,-0.599487727536124
20304190,1450.0,1,197670,234340,0.75,-0.32,9.96,-0.03,-0.01,-0.01,31.95,18.384706,-139.06853616921558,-1070.8067826780812,9.993322770730465,0.033166247903554,-0.9076945131232365,-0.6439801607018426
20344187,1519.0,1,197640,231861,0.72,-0.33,9.98,-0.03,-0.01,-0.01,31.95,18.424703,-273.5289127666185,-1455.1911280898835,10.011378526456784,0.033166247903554,-1.7902886783380063,-0.8700137285581335
20384190,1268.875,1,196063,228356,0.74,-0.32,9.96,-0.03,-0.01,-0.0,31.95,18.464706,-292.33804784648834,-1964.3384692660886,9.992577245135513,0.03162277660168379,-1.9137513168812204,-1.169412992509189
20424874,1535.0,1,195407,228340,0.74,-0.32,9.97,-0.03,-0.01,-0.0,31.81,18.50539,-224.45744127737495,-2275.466051453132,10.002544676231144,0.03162277660168379,-1.468184906870912,-1.3523686157016404
20463227,1361.0,1,196001,229911,0.74,-0.33,10.0,-0.03,-0.01,-0.0,31.81,18.543743,-226.55404393248864,-2213.1679549831974,10.032771302087973,0.03162277660168379,-1.4819469482767436,-1.3157348110635538
20503190,1676.0,1,196772,231317,0.71,-0.33,10.0,-0.03,-0.01,-0.0,31.81,18.583706,-12.722666798923587,-1895.3898424167023,10.030603172292283,0.03162277660168379,-0.07836374723453632,-1.12886840657174
20543190,1823.0,1,197064,231472,0.71,-0.34,9.99,-0.03,-0.01,-0.0,31.81,18.623706,179.97299427403598,-1597.6702606411086,10.020968017112917,0.03162277660168379,1.1864852025376444,-0.9537972308262099
20583190,1535.0,1,196826,231267,0.73,-0.32,9.97,-0.03,-0.01,-0.0,31.81,18.663706,-80.27950674554324,-1468.530525726202,10.001809836224643,0.03162277660168379,-0.5218049621566299,-0.8778578347939394
20623190,1535.0,1,196818,231605,0.75,-0.32,9.97,-0.03,-0.01,-0.01,31.81,18.703706,-154.0086406198811,-1372.1243737407144,10.003289458972985,0.033166247903554,-1.005760942427818,-0.8211671116760917
20663190,1600.0,1,197193,232942,0.74,-0.32,10.0,-0.03,-0.01,-0.0,31.81,18.743706,28.00206086874307,-1009.6063465702672,10.032447358446493,0.03162277660168379,0.18895223037174189,-0.6079918248267433
20703190,1630.0,1,198034,234810,0.72,-0.33,9.99,-0.03,-0.01,-0.01,31.81,18.783706,-68.15955572843754,-213.80112106253347,10.02134721482097,0.033166247903554,-0.4422499414056846,-0.1400261113753179
20743190,1523.0,1,199135,237440,0.73,-0.31,9.97,-0.03,-0.01,-0.0,31.81,18.823706,-55.145293819807975,839.5263131812991,10.001494888265455,0.03162277660168379,-0.35682468888296376,0.4793730939382494
20783190,1698.0,1,200318,239151,0.71,-0.32,10.0,-0.03,-0.01,-0.0,31.81,18.863706,41.992449503408395,1690.9977394645466,10.03027915862764,0.03162277660168379,0.2807847515241566,0.9800727886781534
20823190,1778.0,1,200517,239081,0.73,-0.34500000000000003,9.98,-0.03,-0.01,-0.0,31.81,18.903706,142.82770485513007,1896.8118813485225,10.012608301536618,0.03162277660168379,0.9426645578543279,1.1010998423566187
20863190,1936.0,1,200124,236857,0.74,-0.32,9.96,-0.03,-0.01,-0.01,31.81,18.943706,356.359432933693,1345.797001421631,9.992577245135513,0.033166247903554,2.3442808708492935,0.7770807694197404
20903190,1643.0,1,198707,233300,0.72,-0.31,9.97,-0.03,-0.01,-0.0,31.81,18.983706,-53.61094185422578,354.6595601674657,10.000769970357283,0.03162277660168379,-0.3467532453359671,0.19425179951821225
20943190,1330.0,1,197566,232150,0.74,-0.31,9.97,-0.03,-0.01,-0.0,31.81,19.023706,-209.46995884442381,-527.230641082917,10.002229751410432,0.03162277660168379,-1.3698074898108068,-0.3243353672733256
20983190,2016.0,1,197934,233815,0.75,-0.32,9.98,-0.03,-0.01,-0.01,31.81,19.063706,334.0044744214765,-849.842006934395,10.013256213639997,0.033166247903554,2.1975435461013753,-0.5140439205087034
21023190,1809.0,1,198657,235050,0.74,-0.33,9.96,-0.03,-0.01,-0.0,31.81,19.103706,213.24796302255092,-490.92167670390995,9.992902481261389,0.03162277660168379,1.4049011701879264,-0.3029842252153381
21063190,1791.0,1,199179,236230,0.73,-0.33,9.97,-0.03,-0.01,-0.01,31.81,19.143706,215.41789837740174,345.97567981326375,10.002134772137397,0.033166247903554,1.419144565391399,0.189145326055578
21103203,2101.0,1,199726,238090,0.75,-0.32,9.97,-0.03,-0.01,-0.0,31.81,19.183719,392.9537314590246,1303.221453424087,10.003289458972985,0.03162277660168379,2.5844848266606815,0.7520446223128344
21143190,1505.0,1,201036,240650,0.75,-0.34,9.97,-0.03,-0.01,-0.0,31.81,19.223706,46.0603717570989,2062.146212840987,10.003949220182998,0.03162277660168379,0.30748647984375366,1.1983231275461852
21183190,1965.0,1,201613,240621,0.72,-0.32,9.99,-0.03,-0.01,-0.0,31.81,19.263706,178.9699523315406,2453.865953053736,10.021022901879828,0.03162277660168379,1.1799012631771086,1.4286702047279305
21223189,1619.0,1,201329,240208,0.73,-0.33,9.93,-0.03,-0.01,-0.01,31.81,19.303705,222.54288049087205,2467.3966000215905,9.96226379895654,0.033166247903554,1.4659127494448858,1.4366267733188587
21263189,1776.0,1,201032,239285,0.73,-0.32,9.98,-0.03,-0.01,-0.0,31.81,19.343705,-35.371585995043645,2187.2685546738303,10.011778063860586,0.03162277660168379,-0.22703062172031294,1.2719001336875586
21303190,1456.0,1,200534,238771,0.73,-0.33,9.98,-0.03,-0.01,-0.0,31.81,19.383706,89.11712522293749,1717.973307806322,10.012102676261366,0.03162277660168379,0.5901098098067753,0.9959355157377333
21343189,1970.0,1,200470,238637,0.72,-0.32,10.01,-0.03,-0.01,-0.0,31.81,19.423705,147.02009671871608,1147.8346693196693,10.040961109375935,0.03162277660168379,0.9701833012249036,0.660670897997374
21383190,1687.0,1,200167,236869,0.72,-0.31,9.96,-0.03,-0.01,-0.0,31.81,19.463706,342.2860234356635,554.797285116105,9.990800768707182,0.03162277660168379,2.2519034030631526,0.3119408900671972
21423190,2157.0,1,198778,233147,0.75,-0.33,9.97,-0.03,-0.01,-0.0,31.81,19.503706,338.07303926683943,2.376769178961536,10.003614346824852,0.03162277660168379,2.224249492374804,-0.012904753790939956
21463877,1297.0,1,197931,232267,0.74,-0.33,9.99,-0.03,-0.01,-0.0,31.83,19.544393,-63.99049077643035,-504.5415818790027,10.02280399888175,0.03162277660168379,-0.4148843152327023,-0.3109932812482845
21504190,1710.0,1,197991,232583,0.73,-0.33,9.99,-0.03,-0.01,-0.01,31.83,19.584706,-51.66453309243418,-1045.432586281896,10.022070644332937,0.033166247903554,-0.3339770724607131,-0.6290591052234479
21544167,1507.0,1,197903,231939,0.72,-0.33,9.98,-0.03,-0.01,-0.01,31.83,19.624683,67.28802693038789,-1706.43982484738,10.011378526456784,0.033166247903554,0.4468242168875294,-1.0177581412149463
21584190,1917.0,1,197106,229786,0.72,-0.33,9.98,-0.03,-0.01,-0.0,31.83,19.664706,254.7134632098339,-2430.548184843129,10.011378526456784,0.03162277660168379,1.6770795579711626,-1.4435631930545556
21624190,1936.0,1,195727,227502,0.74,-0.33,9.96,-0.03,-0.01,-0.0,31.83,19.704706,398.1448485678027,-2959.676236013309,9.992902481261389,0.03162277660168379,2.6185591747109798,-1.754711923970509
21664190,1571.0,1,195314,228592,0.77,-0.32,9.94,-0.03,-0.01,-0.01,31.83,19.744706,-14.675842656208266,-2983.4939012278687,9.974913533459826,0.033166247903554,-0.0911843391360401,-1.7687176760535863
21703190,1290.0,1,196234,231465,0.74,-0.31,9.98,-0.03,-0.01,-0.0,31.83,19.783706,-305.57464354233275,-2390.348213546426,10.012197560975313,0.03162277660168379,-2.000635962187835,-1.4199239812906643
21743190,1268.875,1,197754,234785,0.74,-0.33,9.99,-0.03,-0.01,-0.01,31.83,19.823706,-301.8127784748311,-1376.1267220317875,10.02280399888175,0.033166247903554,-1.975943184710025,-0.8235206546203695
21783170,1268.875,1,199156,236207,0.71,-0.34,9.99,-0.03,-0.01,-0.01,31.83,19.863686,-338.560882213991,-294.21101394604784,10.020968017112917,0.033166247903554,-2.217156713659163,-0.1873103860768049
21823170,1268.875,1,199276,236466,0.73,-0.32,9.99,-0.03,-0.01,-0.0,31.83,19.903686,-327.4455144123223,599.9418425725192,10.021746354802639,0.03162277660168379,-2.144195749141394,0.3384877188154768
21863187,1268.875,1,199330,236223,0.71,-0.34,9.99,-0.03,-0.01,-0.01,31.83,19.943703,-341.6160161687394,1248.0328777153998,10.020968017112917,0.033166247903554,-2.2372105278060923,0.7195915039139118
21903228,1268.875,1,199314,237317,0.74,-0.34,9.93,-0.03,-0.01,-0.0,31.83,19.983744,-356.90733511437026,1654.3791281238832,9.963337794133048,0.03162277660168379,-2.33758231926895,0.9585395616618306
21943187,1268.875,1,200246,237888,0.74,-0.32,9.94,-0.03,-0.01,-0.01,31.83,20.023703,-362.32128022485136,1709.5794642111664,9.972642578574648,0.033166247903554,-2.3731193041132714,0.9909995956398218
21983170,1268.875,1,200189,235640,0.7,-0.33,10.01,-0.03,-0.01,-0.01,31.83,20.063686,-378.6420040405383,1209.2525847239326,10.039870517093336,0.033166247903554,-2.4802480804585643,0.6967871205096325
22023186,1268.875,1,198410,231200,0.69,-0.33,9.99,-0.03,-0.01,-0.0,31.83,20.103702,-397.83135134543664,73.66809022368518,10.01923649785751,0.03162277660168379,-2.6062064214521605,0.02901743124410227
22063190,1268.875,1,195924,226020,0.73,-0.34,9.97,-0.03,-0.01,-0.0,31.83,20.143706,-402.76930427973775,-1460.8542835723822,10.002469695030323,0.03162277660168379,-2.6386190069156723,-0.8733438934160773
22103222,1417.0,1,194170,224917,0.74,-0.32,9.95,-0.03,-0.01,-0.0,31.83,20.183738,-286.4818607887682,-2878.5809252340955,9.982609879184901,0.03162277660168379,-1.8753114682183996,-1.7070245957776748
22143190,1520.0,1,194450,226421,0.74,-0.32,9.97,-0.03,-0.01,-0.01,31.83,20.223706,-186.0992496410359,-3613.8167542533547,10.002544676231144,0.033166247903554,-1.2164028058301752,-2.1393730502157946
22183190,1576.0,1,195068,227267,0.72,-0.32,9.98,-0.03,-0.01,-0.01,31.83,20.263706,-161.38153893626847,-3287.0000671221146,10.011053890575159,0.033166247903554,-1.054156441529008,-1.9471915976956442
22223190,1679.0,1,195244,229169,0.72,-0.31,9.99,-0.03,-0.01,-0.0,31.83,20.303706,-67.53152827414375,-1830.8509500983862,10.020708557781731,0.03162277660168379,-0.4381275866958355,-1.0909169231923286
22263190,1808.0,1,197057,234608,0.76,-0.32,9.95,-0.03,-0.01,-0.01,31.83,20.343706,35.35904208320101,481.67580142597006,9.984112379175226,0.033166247903554,0.23724325005940108,0.2689424952503638
22303207,1861.0,1,200017,241234,0.72,-0.33,10.02,-0.03,-0.01,-0.01,31.83,20.383723,75.46391372170807,3089.4000322141756,10.051253653151928,0.033166247903554,0.5004905099627124,1.8023899909824874
22343167,1911.0,1,203100,247706,0.71,-0.32,10.02,-0.03,-0.01,-0.0,31.83,20.423683,100.32730606559471,5308.700864350109,10.050218903088629,0.03162277660168379,0.6636931244836045,3.1074287919167514
22383190,1953.0,1,203100,250860,0.72,-0.32,9.99,-0.03,-0.01,-0.0,31.83,20.463706,131.9390987721543,6598.095760239375,10.021022901879828,0.03162277660168379,0.8711920509392901,3.8656452285963097
22423187,2000.0,1,203100,248631,0.72,-0.33,9.97,-0.03,-0.01,-0.0,31.83,20.503703,152.6845477970287,6786.059828821054,10.001409900609014,0.03162277660168379,1.0073646002616623,3.9761757160041276
22463190,2047.0,1,203100,242740,0.68,-0.34,10.01,-0.03,-0.01,-0.0,31.83,20.543706,192.34957835246186,6103.349810438686,10.03882961305749,0.03162277660168379,1.2677247555519535,3.5747145662247894
22503877,2163.0,1,201782,235614,0.73,-0.32,9.99,-0.03,-0.01,-0.0,31.77,20.584393,285.39725097930267,4984.270742220325,10.021746354802639,0.03162277660168379,1.8784870858788636,2.916650736305552
22544190,2231.875,1,198966,232382,0.77,-0.32,9.97,-0.03,-0.01,-0.0,31.77,20.624706,345.5118085017476,3761.7085840148384,10.00480884375109,0.03162277660168379,2.2730773663496557,2.1977346570119947
22584190,2231.875,1,198381,232392,0.77,-0.31,9.96,-0.03,-0.01,-0.0,31.77,20.664706,331.8044324689824,2467.060547414422,9.994528503136104,0.03162277660168379,2.1831025320298996,1.4364291607711772
22624169,2231.875,1,198016,229575,0.74,-0.33,10.0,-0.03,-0.01,-0.0,31.77,20.704685,318.9386279956145,894.5284693368071,10.032771302087973,0.03162277660168379,2.0986517499754345,0.5117165900873946
22664186,2231.875,1,195118,222655,0.73,-0.32,10.01,-0.03,-0.01,-0.0,31.77,20.744702,315.63222883268605,-1110.5494868444769,10.041683125850964,0.03162277660168379,2.0769486380035764,-0.6673504808676224
22704190,2199.0,1,192056,216682,0.75,-0.31,9.98,-0.03,-0.01,-0.0,31.77,20.784706,268.4521522713706,-3388.7592302952567,10.012941625716191,0.03162277660168379,1.7672599301392296,-2.007030108261037
22744187,2128.0,1,190016,212348,0.74,-0.34,9.99,-0.03,-0.01,-0.0,31.77,20.824703,200.66908408354314,-5471.6368058996695,10.023138231113048,0.03162277660168379,1.3223337593457523,-3.2318465073715275
22784190,2122.0,1,188882,210282,0.74,-0.33,9.97,-0.03,-0.01,-0.0,31.77,20.864706,184.2708400912998,-6851.640526822463,10.002869588273157,0.03162277660168379,1.2146961427216614,-4.043344604051192
22822189,2112.0,1,188657,210041,0.76,-0.33,9.96,-0.03,-0.01,-0.0,31.77,20.902705,179.23941885652565,-7283.04385926484,9.994403433922407,0.03162277660168379,1.181670033938361,-4.297027241185066
22862189,2067.0,1,188671,210357,0.73,-0.31,9.99,-0.03,-0.01,-0.0,31.77,20.942705,131.6320727367954,-6884.216852483333,10.021432033397224,0.03162277660168379,0.8691767405985483,-4.062500803320666
22902189,2031.0,1,189480,214367,0.74,-0.305,9.95,-0.03,-0.01,-0.01,31.77,20.982705,99.36820939477758,-6000.95969712265,9.982140301558578,0.033166247903554,0.6573976406618192,-3.54310981213218
22942189,2021.0,1,190906,216251,0.76,-0.33,9.95,-0.03,-0.01,-0.0,31.77,21.022705,96.57007633926699,-4965.266839894882,9.984437891038231,0.03162277660168379,0.639030773256095,-2.9340804525424473
22982189,2010.0,1,191468,217578,0.76,-0.305,9.94,-0.03,-0.01,-0.01,31.77,21.062705,85.3076833490359,-3924.3105912564565,9.973676603940996,0.033166247903554,0.5651047394974951,-2.3219560055648545
23022200,1968.0,1,192220,221072,0.73,-0.32,9.99,-0.03,-0.01,-0.01,31.77,21.102716,62.67787506572918,-2831.9468818787122,10.021746354802639,0.033166247903554,0.416563308510895,-1.6796018889765185
23062169,1955.0,1,193842,225199,0.72,-0.31,9.96,-0.03,-0.01,-0.01,31.77,21.142685,42.00371664794956,-1567.783724484555,9.990800768707182,0.033166247903554,0.2808587087469631,-0.9362227367580537
23102190,1904.0,1,195522,229473,0.71,-0.33,10.01,-0.03,-0.01,-0.01,31.77,21.182706,23.63740603383421,-72.35052370749406,10.040572692829826,0.033166247903554,0.160302757657552,-0.0568474294721566
23142169,1872.0,1,197329,232745,0.71,-0.305,9.98,-0.03,-0.01,-0.01,31.77,21.222685,-23.294821522957648,1583.9315591041677,10.009871377795022,0.033166247903554,-0.1477590762474736,0.9171135370008385
23182190,1771.0,1,198384,234845,0.72,-0.33,9.98,-0.03,-0.01,-0.0,31.77,21.262706,-83.83507677928847,3196.1095325820866,10.011378526456784,0.03162277660168379,-0.5451436247813234,1.865139500373877
23222189,1746.0,1,199267,236457,0.7,-0.33,9.96,-0.03,-0.01,-0.01,31.77,21.302705,-122.93168922658059,4453.033298055373,9.99002001999996,0.033166247903554,-0.8017726994488835,2.604261596849785
23262189,1699.0,1,199981,238070,0.72,-0.33,9.99,-0.03,-0.01,-0.01,31.77,21.342705,-134.6330011654186,5014.83258189993,10.02134721482097,0.033166247903554,-0.8785797849555578,2.93462233620417
23302189,1693.0,1,200438,237658,0.74,-0.33,10.0,-0.03,-0.01,-0.0,31.77,21.382705,-141.44772763247204,4673.567582354334,10.032771302087973,0.03162277660168379,-0.9233114595913122,2.733944690632712
23342190,1615.0,1,199269,233849,0.71,-0.32,10.0,-0.03,-0.01,-0.0,31.77,21.422706,-201.37373879441643,3537.349107911374,10.03027915862764,0.03162277660168379,-1.3166641270056683,2.065802195476122
23382190,1533.0,1,197117,229309,0.73,-0.32,10.0,-0.03,-0.01,-0.0,31.77,21.462706,-265.43142612927613,2067.476027281662,10.03171470886209,0.03162277660168379,-1.737137001688895,1.2014572743667251
23422190,1505.0,1,195287,226280,0.72,-0.33,9.99,-0.03,-0.01,-0.0,31.77,21.502706,-292.7025989552147,852.6907606908755,10.02134721482097,0.03162277660168379,-1.9161442202005963,0.48711432241168934
23462190,1450.0,1,194797,227163,0.75,-0.34,9.94,-0.03,-0.01,-0.0,31.77,21.542706,-319.00673121409966,238.1782707343704,9.974051333334915,0.03162277660168379,-2.088803811376975,0.12575608226714388
23502190,1474.0,1,195503,227457,0.71,-0.33,10.0,-0.03,-0.01,-0.01,31.77,21.582706,-300.59108358486145,106.16621226087238,10.030603172292283,0.033166247903554,-1.9679240134950848,0.048127643614548694
23542858,1509.0,1,195400,226243,0.71,-0.31,10.01,-0.03,-0.01,-0.01,31.63,21.623374,-238.89738559526873,4.775605810977759,10.039935258755406,0.033166247903554,-1.5629682990010616,-0.011494140666052933
23583190,1593.0,1,194593,223477,0.72,-0.305,9.96,-0.03,-0.01,-0.01,31.63,21.663706,-158.3934812330245,-484.52374014468836,9.990646875953528,0.033166247903554,-1.0345429140278577,-0.29922197931573
23623190,1645.0,1,192686,218906,0.75,-0.31,9.94,-0.03,-0.01,-0.0,31.63,21.703706,-85.27575467864436,-1448.8094023965994,9.97307374884995,0.03162277660168379,-0.5546001943678609,-0.8662610153044557
23663190,1673.0,1,191300,217500,0.72,-0.32,9.99,-0.03,-0.01,-0.01,31.63,21.743706,-61.56660894919661,-2615.3942758053076,10.021022901879828,0.033166247903554,-0.39897402246078745,-1.552260183301929
23703190,1670.0,1,191247,217094,0.72,-0.32,9.99,-0.03,-0.01,-0.0,31.63,21.783706,-43.30881057170628,-3523.0541628252868,10.021022901879828,0.03162277660168379,-0.27913034266886355,-2.086000969346085
23743190,1694.0,1,190764,217044,0.69,-0.34,9.97,-0.03,-0.01,-0.0,31.63,21.823706,-30.147876176440228,-3693.609495970508,9.999629993154747,0.03162277660168379,-0.19274233603092475,-2.186294415028509
23783190,1694.0,1,191865,221642,0.72,-0.32,9.95,-0.03,-0.01,-0.0,31.63,21.863706,-7.13604252653244,-2726.633166085068,9.981147228650622,0.03162277660168379,-0.041693301183183575,-1.6176731574629122
23823190,1744.0,1,194101,227444,0.71,-0.31,9.99,-0.03,-0.01,-0.0,31.63,21.903706,29.579933049800427,-418.96321374268626,10.019995009978798,0.03162277660168379,0.19930933940041634,-0.2606697337051415
23863190,1715.0,1,196303,233364,0.72,-0.31,9.96,-0.03,-0.01,-0.0,31.63,21.943706,16.25869216713223,3002.702683367515,9.990800768707182,0.03162277660168379,0.11186908544614853,1.75140843744784
23903190,1717.0,1,199459,240645,0.76,-0.34,10.0,-0.03,-0.01,-0.01,31.63,21.983706,13.863535301291664,6668.244680008316,10.034600141510372,0.033166247903554,0.09614734252039049,3.9068956353985214
23943167,1740.0,1,202811,245510,0.74,-0.33,9.98,-0.03,-0.01,-0.01,31.63,22.023683,36.31330798486186,9179.410574957225,10.012836760878507,0.033166247903554,0.2435070248470551,5.383562917741257
23983170,1760.0,1,203100,243472,0.69,-0.305,10.0,-0.03,-0.01,-0.01,31.63,22.063686,64.7099342216805,9226.271448926176,10.028415876897009,0.033166247903554,0.42990168818674457,5.411119010132892
24023187,1825.0,1,200606,232124,0.71,-0.31,10.0,-0.03,-0.01,-0.0,31.63,22.103703,116.17525690371859,6440.182734413109,10.02996510462524,0.03162277660168379,0.7677186321781057,3.7727859718015155
24063190,1812.0,1,195278,219526,0.75,-0.32,9.96,-0.03,-0.01,-0.0,31.63,22.143706,116.66118166314538,1860.8500733592941,9.993322770730465,0.03162277660168379,0.7709082287585733,1.0799528423203406
24103190,1834.0,1,189189,207988,0.71,-0.31,9.97,-0.03,-0.01,-0.0,31.63,22.183706,122.3097083018141,-2470.0840436947196,10.000054999848752,0.03162277660168379,0.8079850002172477,-1.4668118797952028
24143190,1860.0,1,188056,204200,0.75,-0.33,9.95,-0.03,-0.01,-0.0,31.63,22.223706,159.0413434087607,-4654.038169733641,9.983681685630806,0.03162277660168379,1.0490904295234396,-2.7510653855257403
24183190,1847.0,1,188056,211144,0.73,-0.305,9.95,-0.03,-0.01,-0.01,31.63,22.263706,132.06632541359272,-4069.7989202392837,9.981403959363632,0.033166247903554,0.8720271630684912,-2.4075090372477845
24223169,1823.0,1,190731,220635,0.73,-0.31,9.96,-0.03,-0.01,-0.01,31.63,22.303685,114.53360660933951,-1689.3481689056468,9.991526409913554,0.033166247903554,0.7569428853907798,-1.00770755507845
24263170,1822.0,1,194044,225323,0.69,-0.32,9.98,-0.03,-0.01,-0.01,31.63,22.343686,103.27947737180465,650.7108559453735,10.008941002923336,0.033166247903554,0.6830710946746062,0.3683419555090027
24303190,1780.0,1,194391,222830,0.69,-0.305,9.99,-0.03,-0.01,-0.0,31.63,22.383706,61.791139263108164,1480.771932299952,10.018444240499619,0.03162277660168379,0.410742799411596,0.8564514970826946
24343187,1797.0,1,192017,216455,0.72,-0.31,9.96,-0.03,-0.01,-0.0,31.63,22.423703,76.11694151995101,543.7155724010788,9.990800768707182,0.03162277660168379,0.5047769662336031,0.30542439403182337
24383190,1813.0,1,189699,212209,0.73,-0.31,10.0,-0.03,-0.01,-0.0,31.63,22.463706,83.47065924405439,-1291.4518504256864,10.031400699802596,0.03162277660168379,0.5530465644615129,-0.7737283996407974
24423187,1789.0,1,188636,210957,0.73,-0.31,9.97,-0.03,-0.01,-0.0,31.63,22.503703,65.63578804312243,-2849.105500772296,10.001494888265455,0.03162277660168379,0.4359789668715511,-1.6896918520416067
24463190,1809.0,1,188908,212274,0.73,-0.32,9.96,-0.03,-0.01,-0.0,31.63,22.543706,71.4040343698502,-3486.16511851737,9.991841672084282,0.03162277660168379,0.4738415750266273,-2.064308716788832
24503190,1776.0,1,189275,211633,0.73,-0.305,9.98,-0.03,-0.01,-0.01,31.63,22.583706,46.17064787479922,-3356.6468135244468,10.011309854359718,0.033166247903554,0.30821032920746816,-1.9881467062134897
24543877,1774.0,1,188334,209222,0.72,-0.33,9.99,-0.03,-0.01,-0.01,31.63,22.624393,33.70603667179449,-3064.267972619532,10.02134721482097,0.033166247903554,0.2263929686003202,-1.8162161024720098
24582187,1776.0,1,188056,207971,0.73,-0.33,9.98,-0.03,-0.01,-0.0,31.63,22.662703,37.684802894901104,-3110.385382775686,10.012102676261366,0.03162277660168379,0.2525094792195187,-1.8433350080214017
24622190,1759.0,1,188056,205848,0.72,-0.31,9.99,-0.03,-0.01,-0.0,31.63,22.702706,17.18968003511445,-3553.8062827416456,10.020708557781731,0.03162277660168379,0.11798006386938399,-2.1040844617328323
24662190,1758.0,1,188056,204092,0.73,-0.31,9.97,-0.03,-0.01,-0.0,31.63,22.742706,14.501036309960833,-4021.7128270541925,10.001494888265455,0.03162277660168379,0.1003318813771767,-2.379232466319143
24702190,1735.0,1,188056,204696,0.7,-0.305,9.98,-0.03,-0.01,-0.01,31.63,22.782706,-10.731627484048708,-3971.82757189895,10.00916704826131,0.033166247903554,-0.06529462065248476,-2.349897915261709
24742187,1696.0,1,188056,209827,0.73,-0.33,9.97,-0.03,-0.01,-0.01,31.63,22.822703,-48.55522764178464,-3029.7934256709755,10.002134772137397,0.033166247903554,-0.31356767812419023,-1.795943672181793
24782189,1691.0,1,190589,217725,0.69,-0.32,10.0,-0.03,-0.01,-0.01,31.63,22.862705,-59.11538226998029,-1233.9106062728056,10.028883287784339,0.033166247903554,-0.3828842388424297,-0.7398918168818621
24822190,1655.0,1,193398,223633,0.72,-0.31,9.98,-0.03,-0.01,-0.0,31.63,22.902706,-90.00728587018861,939.0219677056142,10.010739233443253,0.03162277660168379,-0.585657833263908,0.5378805697154805
24862190,1651.0,1,194886,226800,0.71,-0.33,9.95,-0.03,-0.01,-0.01,31.63,22.942706,-100.90592475954286,2786.69449075888,9.98075648435528,0.033166247903554,-0.6571961952404476,1.6243868689466283
24902189,1666.0,1,195446,228370,0.72,-0.34,9.97,-0.03,-0.01,-0.0,31.63,22.982705,-80.80443005504574,3713.2695585970746,10.001744847775312,0.03162277660168379,-0.5252505441330906,2.1692505476320227
24942190,1659.0,1,195598,228353,0.74,-0.32,9.97,-0.03,-0.01,-0.0,31.63,23.022706,-92.10653604473322,3501.161654974702,10.002544676231144,0.03162277660168379,-0.5994372529135101,2.0445225070690807
24982190,1657.0,1,195237,226490,0.74,-0.31,9.96,-0.03,-0.01,-0.0,31.63,23.062706,-92.41223569738298,2401.1097006061227,9.992262006172577,0.03162277660168379,-0.6014438569151092,1.397647390948441
25022201,1689.0,1,193998,220384,0.74,-0.305,9.98,-0.03,-0.01,-0.0,31.63,23.102717,-59.91281538310324,1011.4168969020664,10.012043997106685,0.03162277660168379,-0.3881185675763042,0.580451721054765
25062190,1703.0,1,191984,217849,0.74,-0.32,9.97,-0.03,-0.01,-0.0,31.63,23.142706,-49.3564689324184,-9.699311486742582,10.002544676231144,0.03162277660168379,-0.3188270036291299,-0.020005978466635772
25102190,1694.0,1,192417,220461,0.77,-0.305,9.97,-0.03,-0.01,-0.01,31.63,23.182706,-52.17215455036677,-275.1893462121751,10.004340308086286,0.033166247903554,-0.3373090855655892,-0.1761248748150028
25142190,1722.0,1,193467,223083,0.73,-0.34,9.97,-0.03,-0.01,-0.01,31.63,23.222706,-33.187909902199195,142.91731381728616,10.002469695030323,0.033166247903554,-0.21269703269553905,0.06973878024537473
25182190,1731.0,1,194121,224730,0.74,-0.33,9.98,-0.03,-0.01,-0.0,31.63,23.262706,-13.167649837354928,801.4844187721008,10.012836760878507,0.03162277660168379,-0.08128460349924074,0.45700291881545324
25222190,1747.0,1,194454,225118,0.72,-0.34500000000000003,9.98,-0.03,-0.01,-0.0,31.63,23.302706,-9.882694763198502,1199.846664121636,10.01188418830342,0.03162277660168379,-0.05972224992853751,0.6912560581287429
25262190,1753.0,1,194600,225667,0.77,-0.33,9.98,-0.03,-0.01,-0.01,31.63,23.342706,8.575830653746056,1104.9394893718295,10.01509860161147,0.033166247903554,0.06143899655705697,0.635446794354286
25302190,1783.0,1,194615,225164,0.75,-0.31,10.01,-0.03,-0.01,-0.0,31.63,23.382706,26.234777627399183,671.609714708937,10.042843222912524,0.03162277660168379,0.17735183242133123,0.38063133114783676
25342190,1760.0,1,194123,223269,0.75,-0.33,10.01,-0.03,-0.01,-0.0,31.63,23.422706,12.758810875510806,289.58968933960034,10.04348047242588,0.03162277660168379,0.08889596217297553,0.15598807926338945
25382207,1781.0,1,193756,223544,0.76,-0.32,9.98,-0.03,-0.01,-0.01,31.63,23.462723,24.91927372212548,274.2094510461761,10.014010185734785,0.033166247903554,0.1687169014439459,0.14694387603961298
25422190,1793.0,1,194492,226207,0.77,-0.32,9.98,-0.03,-0.01,-0.01,31.63,23.502706,42.296312792047495,629.4703404786469,10.014774086318672,0.033166247903554,0.28277930168356036,0.3558516718870009
25462190,1781.0,1,195669,229065,0.76,-0.34,9.96,-0.03,-0.01,-0.01,31.63,23.542706,23.55674985458272,1069.1341852301116,9.994738615891864,0.033166247903554,0.15977333274444896,0.6143918249208622
25502190,1788.0,1,196255,229471,0.74,-0.33,10.01,-0.03,-0.01,-0.01,31.63,23.582706,34.79768711198322,1280.5068604628614,10.042738670303036,0.033166247903554,0.23355853167061819,0.7386875214040325
25542170,1806.0,1,195710,227058,0.74,-0.32,9.96,-0.03,-0.01,-0.01,31.63,23.622686,44.862123173863154,1198.3021350157487,9.992577245135513,0.033166247903554,0.29962120953287785,0.6903478124402054
25582890,1791.0,1,195122,226420,0.75,-0.34,9.98,-0.03,-0.01,-0.01,31.97,23.663406,34.68460995504131,1034.9285194871886,10.013915318195975,0.033166247903554,0.23281629636337353,0.5942775076728757
25623189,1822.0,1,195257,227627,0.75,-0.32,9.97,-0.03,-0.01,-0.0,31.97,23.703705,56.98787239528715,1042.713381234582,10.003289458972985,0.03162277660168379,0.37921428953540004,0.5988553217723185
25663189,1806.0,1,195892,229713,0.75,-0.32,9.94,-0.03,-0.01,-0.0,31.97,23.743705,44.25030661988623,1249.3635376803147,9.973389594315465,0.03162277660168379,0.295605262720988,0.7203739858829706
25703189,1779.0,1,196758,231598,0.74,-0.34,9.96,-0.03,-0.01,-0.01,31.97,23.783705,10.067941747618738,1432.6305944971127,9.993237713574116,0.033166247903554,0.07123317219920443,0.8281424400806647
25743189,1776.0,1,196774,230174,0.76,-0.33,10.0,-0.03,-0.01,-0.0,31.97,23.823705,7.618288406095012,1350.0108636089237,10.034266291064833,0.03162277660168379,0.055153715925619476,0.779558691104163
25783187,1762.0,1,195558,227050,0.74,-0.33,9.97,-0.03,-0.01,-0.0,31.97,23.863703,-12.25572596739588,975.2598356974839,10.002869588273157,0.03162277660168379,-0.07529876062780651,0.559189904217468
25823190,1777.0,1,194796,225700,0.78,-0.33,9.94,-0.03,-0.01,-0.0,31.97,23.903706,1.1981267293474998,495.4268329050447,9.97601623896032,0.03162277660168379,0.013011953578790883,0.27702865886243677
25863190,1792.0,1,194750,225713,0.78,-0.31,9.98,-0.03,-0.01,-0.0,31.97,23.943706,11.967847732919324,84.85847124748537,10.015233397180518,0.03162277660168379,0.08370410214538236,0.0355978286475685
25903190,1744.0,1,194698,225798,0.76,-0.33,9.96,-0.03,-0.01,-0.0,31.97,23.983706,-41.187314478998495,-290.1828454129661,9.994403433922407,0.03162277660168379,-0.2652049014323261,-0.18494165978415772
25943186,1759.0,1,194401,224800,0.74,-0.33,10.0,-0.03,-0.01,-0.0,31.97,24.023702,-27.270592036020943,-822.5984349651851,10.032771302087973,0.03162277660168379,-0.17385592310942394,-0.49802359645842775
25983190,1787.0,1,193465,221826,0.73,-0.34,9.99,-0.03,-0.01,-0.0,31.97,24.063706,-6.854314448259351,-1620.6124980105556,10.022404901020513,0.03162277660168379,-0.039844045927819365,-0.9672881958697171
26023187,1759.0,1,192015,217463,0.76,-0.34,9.99,-0.03,-0.01,-0.0,31.97,24.103703,-38.39316080217591,-2521.5609254573715,10.024634656684501,0.03162277660168379,-0.2468641545574238,-1.4970823717801538
26063194,1783.0,1,191003,216796,0.76,-0.33,9.96,-0.03,-0.01,-0.0,31.97,24.14371,-14.390253587382416,-3157.756341283232,9.994403433922407,0.03162277660168379,-0.089309740446275,-1.8711910507870395
26103189,1813.0,1,191490,217999,0.74,-0.34,9.98,-0.03,-0.01,-0.0,31.97,24.183705,-1.289852181476868,-3223.6515430805985,10.013171325808823,0.03162277660168379,-0.0033190706637323086,-1.909940099088973
26143189,1805.0,1,191971,219051,0.73,-0.33,9.99,-0.03,-0.01,-0.0,31.97,24.223705,5.456554767546608,-2710.419985878888,10.022070644332937,0.03162277660168379,0.04096415655941311,-1.6081391506490454
26183189,1854.0,1,192568,220212,0.78,-0.34,9.97,-0.03,-0.01,-0.01,31.97,24.263705,25.613224939061723,-1915.098545033597,10.006243051215577,0.033166247903554,0.1732719778947986,-1.140457922178945
26223189,1839.0,1,192940,221352,0.77,-0.33,10.0,-0.03,-0.01,-0.0,31.97,24.303705,29.139445770431678,-1228.282215488501,10.035028649685062,0.03162277660168379,0.19641799317292336,-0.736582095074896
26263187,1904.0,1,193424,222901,0.75,-0.34,9.96,-0.03,-0.01,-0.0,31.97,24.343703,71.65092768554021,-869.2030322590163,9.993983189899811,0.03162277660168379,0.47546217587107525,-0.5254289877824284
26301189,1872.0,1,193721,222015,0.73,-0.33,9.99,-0.03,-0.01,-0.0,31.97,24.381705,42.806489108735434,-759.129351924364,10.022070644332937,0.03162277660168379,0.2861280848101148,-0.46070120427589867
26341189,1823.0,1,193202,220479,0.76,-0.32,9.99,-0.03,-0.01,-0.0,31.97,24.421705,-8.516462191949795,-620.6240383623007,10.023976256955121,0.03162277660168379,-0.050754337401258655,-0.37925446856675443
