timestamp_us,ecg,leads,ir,red,accX,accY,accZ,gyroX,gyroY,gyroZ,temp,time_sec,ecg_filtered,ppg_filtered,accel_magnitude,gyro_magnitude,ecg_norm,ppg_norm
1949964,1339,1,192397.0,243057,-0.25,-2.07,10.37,-0.0,-0.01,0.04,26.83,0.030471,-59.50192553074733,-204.19377473588057,10.577537520614143,0.04123105625617661,-0.29059691840931284,-0.20143643523266008
1990205,1339,1,192676.0,241055,0.93,-0.3,9.34,-0.04,0.0,-0.14,26.83,0.070712,-127.63125805282613,-34.495200287241495,9.39097971459847,0.14560219778561037,-0.6304318134169132,-0.033490424988078166
2030175,1339,1,192209.0,243015,0.39,-0.49,10.46,0.04,-0.08,0.01,26.83,0.110682,-195.88783172904573,8.159390049248456,10.47873083918086,0.09,-0.9709013981045288,0.008723649519652838
2070169,1339,1,192550.0,240995,0.91,-0.88,9.09,-0.07,0.03,-0.04,26.83,0.150676,-260.33082476846624,-124.27731202212374,9.177723029161427,0.08602325267042626,-1.2923485187911996,-0.12234531081253393
2110175,1339,1,191178.0,240069,0.85,-0.25,9.88,0.06,-0.1,0.03,26.83,0.190682,-325.9597573838472,-377.0459731049886,9.91964717114475,0.12041594578792296,-1.619711206772637,-0.3725035003062261
2150169,1339,1,191149.0,239369,0.51,-0.47,8.86,-0.06,0.02,-0.04,26.83,0.230676,-385.2186942504014,-636.7366765433309,8.887103015043765,0.07483314773547883,-1.91529981512692,-0.629512244674192
2190175,1423,1,191776.0,240216,0.43,0.31,10.47,-0.01,0.0,-0.04,26.83,0.270682,-362.79042828052206,-791.7704294249609,10.483410704536956,0.04123105625617661,-1.8034257202411903,-0.7829448844845792
2230169,1650,1,191022.0,239379,0.98,-0.28,10.13,0.01,-0.04,-0.03,26.83,0.310676,-187.35720286013648,-772.0553046785182,10.181144336468273,0.05099019513592785,-0.9283498970300821,-0.7634333679418082
2270178,2005,1,190750.0,238336,0.71,-0.05,10.16,0.0,-0.02,-0.04,26.83,0.350685,110.43379061667622,-575.8161224428793,10.184900588616465,0.044721359549995794,0.5570568617930088,-0.5692208483775386
2310178,2271,1,190468.0,241156,0.85,-1.13,10.24,-0.0,-0.04,0.1,26.83,0.390685,334.80722593210686,-289.66482299443106,10.337165955908805,0.1077032961426901,1.6762506071332195,-0.2860247801441267
2350178,2257,1,192319.0,240924,0.68,-0.82,10.64,-0.04,-0.01,-0.07,26.83,0.430685,269.99065327144933,-63.94046160094444,10.693194097181628,0.08124038404635961,1.3529400395777726,-0.06263158998791889
2390198,2127,1,190880.0,240147,0.48,-0.84,9.39,0.06,-0.08,-0.02,26.83,0.470705,106.51514676617695,-18.676483653883103,9.439708681945646,0.1019803902718557,0.5375103335619413,-0.017835076353630915
2430175,2204,1,191452.0,239809,0.43,-1.25,9.61,-0.07,0.01,-0.04,26.83,0.510682,145.12504207151048,-144.7320095514781,9.700489678361603,0.08124038404635961,0.7300997694424457,-0.1425887621908158
2468178,2319,1,190352.0,237837,0.8,0.43,9.48,0.065,-0.09,-0.03,26.83,0.548685,230.27975219945654,-305.56789123077,9.523408003440785,0.11499999999999999,1.1548586934544347,-0.30176360923929285
2508165,2319,1,189987.0,238924,1.22,0.0,9.48,-0.01,-0.06,0.13,26.83,0.588672,208.40975452250163,-354.55695069893255,9.558179743026388,0.14352700094407325,1.0457692882124874,-0.3502467335674975
2548169,2319,1,190881.0,240166,0.94,-0.4,9.82,-0.05,0.02,-0.03,26.83,0.628676,183.19358610806947,-255.85953490675385,9.872993467029136,0.061644140029689765,0.9199888992319342,-0.25256861660273866
2588175,2319,1,191100.0,239359,0.45,-0.74,8.97,0.01,-0.02,-0.03,26.83,0.668682,173.5381655337087,-89.80509806487918,9.01171459823268,0.03741657386773942,0.8718268416324596,-0.08822910908705005
2628178,2319,1,190510.0,238672,1.01,-0.55,10.41,-0.02,-0.03,-0.03,26.83,0.708685,160.095007907642,49.00815220391356,10.473332802885622,0.04690415759823429,0.8047712300286839,0.049150545559267116
2668198,2319,1,190248.0,239333,1.02,-0.08,9.96,-0.01,-0.02,-0.03,26.83,0.748705,155.87498742604168,141.79486793431067,10.012412296744477,0.03741657386773942,0.783721409573892,0.14097900529293905
2708198,2319,1,190863.0,239629,0.92,-0.67,10.1,-0.04,0.04,-0.04,26.83,0.788705,157.51959026887656,237.1408349253891,10.163921487300065,0.06928203230275509,0.7919248281857341,0.23534028558707443
2748175,2319,1,190469.0,239794,0.95,-0.19,10.27,-0.01,-0.01,-0.03,26.83,0.828682,159.1421746212927,377.5556999635745,10.315594990110846,0.033166247903554,0.8000184166979305,0.3743050143057121
2788198,2319,1,190864.0,240312,0.93,-0.39,10.37,-0.04,0.01,-0.03,26.83,0.868705,169.7865769825005,554.0236330926788,10.41892028955016,0.05099019513592785,0.8531135994177587,0.5489504725921676
2828175,2319,1,191185.0,240627,0.45,0.4,10.3,-0.06,0.06,-0.04,26.83,0.908682,184.3371655916949,730.145163225626,10.317582081088574,0.0938083151964686,0.925693170789633,0.7232531053638515
2868169,2319,1,190975.0,239349,1.12,0.18,10.95,-0.07,0.01,-0.04,26.83,0.948676,195.3389059158297,892.7497225564404,11.008601182711635,0.08124038404635961,0.9805707856076206,0.884178364022721
2908169,2319,1,190694.0,240928,0.78,-0.01,10.48,-0.08,0.03,-0.04,26.83,0.988676,224.93305787211895,1060.7107996559766,10.508991388330282,0.09433981132056604,1.1281889281990702,1.050404820944357
2948178,2319,1,191648.0,239561,0.87,0.03,10.7,-0.12,0.05,-0.04,26.83,1.028685,238.8490883768021,1236.5254557927285,10.735352812087733,0.13601470508735444,1.1976032698697299,1.224403748964977
2988852,2319,1,190913.0,240762,1.15,0.02,12.44,-0.06,-0.04,-0.03,26.67,1.069359,269.20760214005276,1353.9857159086466,12.493058072385638,0.07810249675906654,1.3490341140509448,1.3406509367380823
3029178,2319,1,191546.0,239920,0.74,-0.34,10.77,-0.08,-0.0,-0.03,26.67,1.109685,304.1941398612042,1286.8786832069827,10.800745344650988,0.08544003745317531,1.5235499346674735,1.2742369527773143
3069195,2319,1,190342.0,238394,1.11,0.37,9.81,-0.05,-0.02,-0.03,26.67,1.149702,311.76064272879665,930.6198030256742,9.8795293410162,0.061644140029689765,1.5612922933901234,0.9216573407502129
3109177,2319,1,190749.0,239116,1.09,-0.06,10.81,-0.135,0.02,-0.03,26.67,1.189684,382.14616960500456,301.9100340418819,10.864980441767948,0.1397318861248212,1.9123812773938802,0.2994405799690058
3149175,2130,1,189444.0,235467,1.33,0.16,8.06,-0.05,-0.03,-0.03,26.67,1.229682,173.02106461980796,-428.5121377448873,8.17056301609626,0.06557438524302,0.8692474983704829,-0.4234381474707361
3189178,1510,1,188761.0,236100,1.33,-0.64,10.21,-0.1,-0.01,0.03,26.67,1.269685,-356.92113401550216,-1020.6226518303705,10.31613299642846,0.10488088481701516,-1.7741491821263429,-1.0094336326279936
3229178,1339,1,188077.0,233512,1.43,0.33,6.34,-0.08,0.03,-0.05,26.67,1.309685,-549.4328809186593,-1323.6267542653932,6.507641661923311,0.09899494936611665,-2.734414120511915,-1.3093084563089934
3269169,1339,1,188339.0,236119,1.52,-0.28,10.48,-0.135,0.08,-0.04,26.67,1.349676,-475.46734334979465,-1377.05660243504,10.593356408617622,0.1619413474070165,-2.365467739219394,-1.3621865070364132
3309175,1339,1,189232.0,236671,0.38,-0.39,7.86,-0.1,0.09,-0.17500000000000002,26.67,1.389682,-471.42147306546946,-1347.4212445062294,7.878838746922036,0.22073740054644117,-2.3452865947344916,-1.3328572086466952
3349178,1339,1,188958.0,236203,1.46,0.28,10.43,-0.05,0.01,-0.1,26.67,1.429685,-430.48830682698735,-1347.0902524988107,10.535411714783622,0.11224972160321825,-2.1411084861866763,-1.3325296349634783
3389165,1339,1,188776.0,235901,0.94,-1.14,10.41,-0.06,0.05,-0.04,26.67,1.469672,-402.78481320287653,-1319.78435679468,10.514337829839786,0.08774964387392122,-2.002921107878773,-1.305505741247439
3429178,1339,1,187817.0,235484,1.42,-0.32,8.31,0.05,-0.07,-0.03,26.67,1.509685,-384.5647383426341,-1123.4818265068495,8.436521795147572,0.091104335791443,-1.9120378275361318,-1.111230527858799
3469175,1339,1,189596.0,238606,0.01,-2.09,9.78,-0.135,0.125,-0.03,26.67,1.549682,-350.67757776753086,-723.180648890081,10.000829965557857,0.1864135188230725,-1.7430057934645538,-0.7150634657878593
3509178,1339,1,190329.0,239399,0.41,-0.46,10.55,0.0,0.0,-0.08,26.67,1.589685,-342.0521030090344,-267.14251393576177,10.567979939420779,0.08,-1.6999811930401414,-0.26373507052111667
3549165,1339,1,190608.0,240268,0.65,-1.13,10.27,-0.06,0.03,-0.05,26.67,1.629672,-312.92587871099005,58.25619785316249,10.352405517559674,0.08366600265340755,-1.554697113336498,0.05830308189846427
3587178,1339,1,191334.0,239118,-0.27,-1.33,11.24,-0.05,0.08,-0.14,26.67,1.667685,-307.6793801716364,242.68793016161757,11.321634157664697,0.16881943016134132,-1.5285271331785246,0.24083009312610745
3627195,1339,1,190031.0,238496,0.2,-0.04,10.91,0.065,-0.09,-0.04,26.67,1.707702,-292.06769932217964,487.15660783224973,10.911906341240288,0.11800423721205947,-1.4506547436222643,0.4827740173927067
3667178,1339,1,191328.0,241461,1.09,-1.25,12.21,-0.08,-0.02,-0.04,26.67,1.747685,-278.25316963551694,996.5773556153412,12.322122382122327,0.09165151389911681,-1.3817466966496188,0.9869337158695832
3707198,1339,1,192612.0,244308,-0.08,-1.45,10.32,-0.04,-0.02,-0.17500000000000002,26.67,1.787705,-293.5846189950985,1729.2545341222865,10.42167452955618,0.18062391868188446,-1.458221267741876,1.7120441614186777
3747215,1375,1,194267.5,244810,0.47,-0.6,14.055000000000001,-0.04,-0.02,-0.17500000000000002,26.67,1.827722,-217.72236941753505,2355.750950234976,14.075650073797659,0.18062391868188446,-1.079813925913349,2.332070427758945
3787195,1617,1,192826.0,242498,0.43,-0.2,9.69,0.03,-0.13,-0.05,26.67,1.867702,-32.60750298120667,2471.7975621186333,9.701597806547126,0.1424780684877501,-0.15644525531395986,2.4469185667700386
3827178,1891,1,193217.0,243679,0.64,-0.79,11.7,-0.135,-0.01,-0.04,26.67,1.907685,302.7418437202428,1878.4613478665703,11.7440921317912,0.14115594213493105,1.516305758212,1.8597100398803919
3867198,2201,1,192040.0,240251,0.67,-0.38,8.21,-0.06,-0.09,-0.04,26.67,1.947705,539.6215716260249,715.9184057552565,8.246053601572088,0.11532562594670795,2.6978819528151488,0.7091732749137198
3907198,2125,1,190588.0,239029,0.68,-0.45,8.97,-0.1,-0.02,0.01,26.67,1.987705,503.16295803996394,-614.1807924157479,9.006986177406958,0.10246950765959599,2.516023292800735,-0.6071893067292231
3947175,2211,1,190904.0,238052,0.38,-1.01,9.97,-0.135,0.05,-0.04,26.67,2.027682,553.2991568463294,-1658.4067079765068,10.028230152923298,0.14941552797483934,2.7661069091625983,-1.6406309657544949
3987178,2291,1,188863.0,236203,0.24,-0.96,6.53,0.06,-0.09,-0.03,26.67,2.067685,604.3450205893821,-2127.6631686426363,6.604551460924504,0.11224972160321824,3.020728011461977,-2.1050411743047297
4027866,2178,1,190247.0,238552,0.21,-2.37,11.55,-0.135,0.1,-0.06,26.59,2.108373,520.1326353738782,-2014.5445457268984,11.79251881490973,0.17839562774911275,2.6006694841194995,-1.9930907854179367
4068177,2158,1,190376.0,240435,1.05,-1.02,7.03,-0.0,-0.06,-0.17500000000000002,26.59,2.148684,406.5644556547967,-1553.8501281613142,7.180793827983087,0.18500000000000003,2.03418176139697,-1.5371541953583152
4108194,1840,1,191910.0,241872,0.36,-1.58,9.35,-0.03,0.0,-0.17500000000000002,26.59,2.188701,150.66457959178467,-1047.3343419989644,9.489388810666364,0.17755280904564705,0.7577314529171513,-1.0358694574737852
4148236,1758,1,192035.0,241549,0.07,-1.75,9.37,-0.02,-0.01,-0.06,26.59,2.228743,-37.19644606503287,-669.5536639768482,9.532276747975795,0.06403124237432849,-0.179335293031305,-0.6619903142491013
4188195,1679,1,191821.0,242307,0.64,-1.51,10.99,0.01,-0.06,-0.03,26.59,2.268702,-75.4655860573801,-399.20388286265205,11.111696540132835,0.06782329983125268,-0.37022501247947165,-0.39443257396668496
4228177,1647,1,192619.0,243325,0.23,-0.82,8.18,-0.01,0.05,0.02,26.59,2.308684,-178.97786432958048,-118.3287469415397,8.22421424818201,0.05477225575051661,-0.886553045008351,-0.1164581796141119
4268165,1581,1,193381.0,244210,0.87,-1.79,12.09,-0.0,-0.04,-0.01,26.59,2.348672,-251.28430520956718,229.56101295687947,12.252718065800748,0.04123105625617661,-1.2472237111543956,0.22783874432715823
4308198,1627,1,194148.0,245034,-0.42,-2.6625000000000005,9.21,-0.01,0.04,-0.06,26.59,2.388705,-236.02796959485914,574.0346271921194,9.596322537826666,0.07280109889280519,-1.171123813798953,0.5687548028933987
4348246,1692,1,194146.0,243639,0.74,-0.3,9.33,0.03,-0.04,-0.09,26.59,2.428753,-210.7270701828128,787.6295191059547,9.364107004941795,0.10295630140987,-1.044920779408381,0.7801437908215707
4388178,1781,1,194267.5,247288,-0.49,-2.12,12.33,-0.0,0.05,-0.09,26.59,2.468685,-135.04478521276454,800.8778950409761,12.520519158565271,0.10295630140987,-0.667411116321682,0.7932553439842085
4428195,1911,1,194267.5,248118,0.21,-0.81,8.94,-0.0,-0.02,-0.17500000000000002,26.59,2.508702,-48.41022936029965,651.4899098970211,8.979075676259779,0.1761391495380854,-0.23527059619239182,0.6454101651727766
4468198,1932,1,194267.5,249464,0.23,-1.54,13.51,0.04,-0.01,-0.17500000000000002,26.59,2.548705,-48.419705609467954,441.6025766396941,13.599433811743781,0.17979154596365204,-0.23531786452780568,0.43769044604153734
4508178,1983,1,194267.5,248909,0.03,-0.2,9.18,-0.02,-0.01,-0.09,26.59,2.588685,-25.930767477201215,260.335902201898,9.182227398621752,0.09273618495495704,-0.12314113174483644,0.258295805508801
4548198,2067,1,194267.5,248970,-0.09,-2.49,12.82,-0.02,-0.01,-0.04,26.59,2.628705,24.79593333615498,138.78124860910705,13.059885144977349,0.045825756949558406,0.12988795876331263,0.1379965091599671
4588211,2063,1,194267.5,247961,0.9,0.03,10.15,-0.0,-0.09,-0.05,26.59,2.668718,1.108329502701759,58.20033040855788,10.189867516312468,0.10295630140987,0.011732179692462779,0.05824779142561033
4628178,2098,1,194267.5,248853,-0.35,-2.06,12.2,-0.03,-0.0,-0.02,26.59,2.708685,7.177072626613175,-13.448659749351721,12.377645171841046,0.03605551275463989,0.042003585649275525,-0.012661242867522102
4668211,2160,1,194267.5,248269,0.46,-0.97,9.89,-0.01,-0.09,-0.05,26.59,2.748718,40.65272518820446,-92.22929568998815,9.94809529508036,0.10344080432788601,0.2089829828111746,-0.0906282707800946
4706198,2161,1,194267.5,248536,-0.26,-2.11,10.83,-0.01,-0.01,-0.04,26.59,2.786705,32.016085290543934,-172.93513704309882,11.03669334538203,0.042426406871192854,0.1659026897246578,-0.17050062152155263
4746212,2149,1,194267.5,247511,0.85,-0.74,9.8,-0.01,-0.09,-0.06,26.59,2.826719,-21.894577786480205,-241.20851108493878,9.864588181976986,0.10862780491200215,-0.10300827488274368,-0.2380689014173475
4786198,2074,1,194267.5,247291,-0.14,-1.5,10.13,-0.04,-0.01,-0.04,26.59,2.866705,-91.69151280468385,-287.11939063601994,10.241411035594657,0.05744562646538029,-0.4511613127255369,-0.28350563577104304
4826211,2155,1,194267.5,246575,0.33,-1.04,9.97,-0.03,-0.01,-0.05,26.59,2.906718,-52.74344265091783,-309.94018099880884,10.029526409556935,0.05916079783099616,-0.25688503198897833,-0.30609074412867626
4866198,2223,1,194267.5,246984,0.51,-0.74,9.96,-0.02,-0.04,-0.05,26.59,2.946705,20.202281935495385,-314.4610756414543,10.000464989189254,0.0670820393249937,0.10697443556185213,-0.31056494917391786
4906195,2276,1,194267.5,247450,0.26,-1.62,11.06,-0.02,0.01,-0.05,26.59,2.986702,44.88839704433962,-305.12186521532,11.181037518942507,0.05477225575051661,0.2301108736509955,-0.30132218956323786
4946178,2319,1,194267.5,246495,0.91,-0.7,7.2,0.06,-0.13,-0.06,26.59,3.026685,84.18615543987828,-283.1102864546146,7.290960156248284,0.15524174696260024,0.42613142902711093,-0.2795379356644892
4986175,2319,1,194267.5,247917,0.3,-1.47,11.82,-0.1,0.05,-0.06,26.59,3.066682,73.83875545070137,-247.10461266072735,11.914835290510734,0.12688577540449522,0.37451771935537725,-0.2439041109284927
5026181,2319,1,194267.5,244187,0.43,-0.15,7.51,0.02,-0.01,-0.06,26.59,3.106688,60.11528640233197,-195.26397724597493,7.52379558467666,0.06403124237432849,0.3060638905778636,-0.19259886034085896
5066862,2319,1,194267.5,245275,0.84,-1.26,12.44,-0.04,-0.0,-0.01,26.41,3.147369,69.01733114210889,-126.27734947848641,12.531831470299942,0.04123105625617661,0.35046804555053507,-0.1243246928564149
5107198,2319,1,194267.5,244432,0.28,-0.62,8.55,-0.03,0.02,-0.04,26.41,3.187705,44.13252715104884,-39.35770411878629,8.577021627581454,0.053851648071345036,0.22634053044760902,-0.038302711248939504
5147175,2319,1,194267.5,247108,0.67,-1.4,11.54,0.03,-0.01,-0.04,26.41,3.227682,70.72409526235458,65.57228484505147,11.64390398448905,0.05099019513592785,0.35898152989178367,0.06554361190811335
5187178,2297,1,194267.5,247408,0.52,-0.12,10.2,0.01,-0.04,-0.16,26.41,3.267685,20.471767919027904,186.93405322775024,10.213951243275053,0.16522711641858306,0.10831865452789168,0.18565201507133605
5227175,2143,1,194267.5,247489,0.68,-1.21,11.25,0.04,-0.06,-0.04,26.41,3.307682,-106.59632329419584,321.0032120457713,11.335298849170233,0.0824621125123532,-0.5255077729109497,0.3183365729321839
5267177,2141,1,194267.5,247084,0.54,-1.59,10.3,-0.0,-0.01,-0.04,26.41,3.347684,-115.64298215018587,463.7405719421691,10.435981027196245,0.04123105625617661,-0.5706332753734704,0.459599810913599
5307195,2149,1,194267.5,245261,0.73,-0.42,8.9,0.02,-0.04,-0.01,26.41,3.387702,-107.18079206134708,614.8727544824199,8.93975950459519,0.0458257569495584,-0.5284231527446756,0.6091711739003465
5347178,2160,1,194267.5,246561,0.19,-1.0,11.94,-0.04,-0.0,0.185,26.41,3.427685,-63.98526611316499,780.7374738698455,11.983309225752292,0.189274932307477,-0.31296020188365875,0.7733229232710301
5387236,2230,1,194267.5,246060,-0.19,-1.23,9.5,-0.01,0.01,-0.04,26.41,3.467743,-22.331917121843205,970.9159691869137,9.581179468103079,0.042426406871192854,-0.10518976061897359,0.9615373477386109
5427198,2167,1,194267.5,247571,0.65,0.09,13.05,0.03,-0.04,-0.03,26.41,3.507705,-33.03882988536161,1186.9789162315167,13.066487668841999,0.05830951894845301,-0.15859675053285027,1.175368901926534
5467165,2277,1,194267.5,245909,-0.24,-1.86,9.13,-0.0,-0.0,-0.03,26.41,3.547672,54.45149492919135,1408.5065257769636,9.320627661268313,0.03,0.27781241783672195,1.3946086822432375
5507213,2269,1,194267.5,243363,1.41,0.78,10.06,0.05,-0.12,-0.0,26.41,3.58772,76.60879826649158,1585.8591433844356,10.188233409183361,0.13,0.3883349281055959,1.5701296884177638
5547165,2241,1,194267.5,244465,-0.6850000000000002,-2.6625000000000005,13.22,-0.1,0.01,0.185,26.41,3.627672,66.02641066692775,1645.5519142150956,13.502834193235138,0.210535032714273,0.33554908028208963,1.6292059813920912
5586178,2319,1,193523.0,239724,1.42,1.35,6.89,0.065,-0.15500000000000003,-0.02,26.41,3.666685,133.87325858726484,1505.7492536723146,7.163169689460107,0.1692631087981076,0.6739749181124007,1.49084713461908
5626169,2250,1,193363.0,241580,-0.31,-2.66,13.98,-0.12,-0.02,0.185,26.41,3.706676,117.85554439983196,1096.7580963909234,14.234187718306936,0.22141589825484528,0.5940771997928509,1.0860798387599555
5666199,2319,1,191753.0,236664,1.45,0.71,6.0,-0.01,-0.09,-0.03,26.41,3.746706,156.4415035669398,387.46336002073787,6.21342095789429,0.09539392014169455,0.7865472401836346,0.3841103528765662
5706175,2319,1,191145.0,237388,0.14,-2.36,13.37,-0.09,-0.08,0.185,26.41,3.786682,215.25128819128295,-579.306703876301,13.577411388037117,0.22073740054644114,1.079895439019378,-0.5726753807864388
5746178,2319,1,189657.0,232086,1.13,0.32,6.69,-0.05,-0.0,-0.02,26.41,3.826685,191.944523943856,-1655.3505206167729,6.792304469029639,0.05385164807134505,0.963639320138066,-1.637606341208915
5786221,2319,1,188704.0,232244,0.17,-1.07,12.56,-0.0,-0.14,0.185,26.41,3.866728,233.79684797217104,-2597.010907253019,12.60664110697215,0.2320021551624036,1.172402265780859,-2.5695417181250777
5826178,2319,1,187561.0,229442,1.15,0.48,6.33,0.0,-0.01,0.01,26.41,3.906685,233.46185434983693,-3150.81235362013,6.4514959505528635,0.01414213562373095,1.1707312891506794,-3.1176237729521508
5866146,2319,1,187154.0,229640,0.78,-0.23,10.52,-0.05,-0.05,0.16,26.41,3.946653,242.88069013286187,-3192.1972665176663,10.551383795502844,0.17492855684535902,1.217713241724203,-3.158581282630963
5906178,2319,1,187192.0,230061,1.04,-0.59,9.7,-0.05,0.03,-0.01,26.41,3.986685,281.5336611539913,-2819.115041981676,9.773418030556147,0.05916079783099616,1.4105175429323566,-2.7893520695537677
5946175,2319,1,188057.0,232134,0.65,-0.34,10.05,-0.03,-0.0,-0.03,26.41,4.026682,240.70219786961064,-2296.4191836831246,10.076735582518776,0.042426406871192854,1.206846737354489,-2.272054359435537
5986238,2319,1,188524.0,232508,0.86,-0.62,10.73,-0.01,-0.01,-0.05,26.41,4.066745,330.06421985412237,-1857.5442231574366,10.78224930151404,0.051961524227066326,1.6525920901205962,-1.8377118856933907
6026198,2225,1,187955.0,230962,1.01,-0.58,9.65,-0.01,-0.02,-0.03,26.41,4.106705,146.09527839565519,-1515.8568475207078,9.720030864148528,0.03741657386773942,0.7349393906032934,-1.499553290810801
6066885,1466,1,188378.0,233371,0.36,-0.53,11.37,0.0,0.01,0.05,26.53,4.147392,-493.4951939700458,-1063.9341476325599,11.388037583359127,0.050990195135927854,-2.455392188732536,-1.0522978284018019
6105146,1339,1,188620.0,234315,1.03,-0.61,9.46,0.03,-0.05,-0.07,26.53,4.185653,-721.4739281630967,-286.3240310883101,9.535439161360111,0.091104335791443,-3.592569470975153,-0.28271849030926294
6145178,1339,1,189627.0,236803,0.31,-1.33,9.84,-0.03,0.03,-0.17500000000000002,26.53,4.225685,-619.9470887504792,790.198993683702,9.934314269238717,0.18006943105369108,-3.086144976047669,0.782686729117662
6185178,1339,1,191002.0,237801,0.11,-1.05,10.53,-0.02,0.03,-0.17500000000000002,26.53,4.265685,-684.5147377564897,1838.8249046704416,10.58279263710671,0.1786756838520564,-3.408213891279361,1.8204829425597213
6225177,1339,1,191144.0,237971,0.78,0.42,11.12,0.02,-0.06,-0.06,26.53,4.305684,-640.2011177449817,2441.584828917397,11.155231956351244,0.08717797887081347,-3.1871737923008894,2.4170178559584263
6265165,1339,1,191202.0,238815,0.79,-0.54,10.89,-0.02,-0.04,-0.03,26.53,4.345672,-637.4389840992366,2406.7230549208243,10.93196231241217,0.053851648071345036,-3.173396035162368,2.3825161173799168
6305198,1339,1,190152.0,235561,0.97,0.0,8.95,0.01,-0.07,-0.03,26.53,4.385705,-673.4474832078768,1930.4760341465621,9.002410788227785,0.07681145747868609,-3.3530094859473194,1.911187543820722
6345164,1339,1,189922.0,234472,0.01,-0.91,10.18,-0.11,0.02,0.04,26.53,4.425671,-586.3224082559092,1454.8267119923726,10.220596851456376,0.11874342087037917,-2.918422214903147,1.4404504961414355
6385169,1339,1,188412.0,234437,1.42,-0.05,9.61,-0.0,-0.08,0.185,26.53,4.465676,-705.8342418914033,1321.2936711050393,9.714473737676169,0.20155644370746376,-3.5145573879950307,1.3082965194464704
6425175,1440,1,189649.0,235051,1.19,-0.18,9.2,-0.13,0.01,-0.02,26.53,4.505682,-450.82011362160006,1502.9647078696453,9.2783888687638,0.1319090595827292,-2.2425252647104177,1.4880913462489003
6465178,2319,1,189525.0,235377,0.85,-0.05,9.81,-0.08,0.02,-0.03,26.53,4.545685,272.48170681873574,1650.394255811064,9.846882755471398,0.08774964387392122,1.3653656261696572,1.6339983136431229
6505175,2319,1,190466.0,234328,0.57,-1.17,11.66,-0.135,0.07,-0.15,26.53,4.585682,422.7497427593084,1421.3666545874125,11.732408107460293,0.21360009363293828,2.1149153476543594,1.4073359979084612
6545178,2319,1,187757.0,230754,1.31,0.57,7.82,0.065,-0.1,-0.1,26.53,4.625685,312.5400890028548,798.9926255704543,7.949427652353345,0.1556438241627338,1.565180237582484,0.7913895446583227
6585165,2319,1,187441.0,229842,1.06,-1.2,10.13,-0.135,0.04,0.01,26.53,4.665672,391.50363495988285,102.32214319133567,10.25575448224069,0.14115594213493105,1.959057109061272,0.10191393562099753
6625169,2319,1,186719.0,229674,0.86,-0.4,8.32,-0.02,-0.05,0.185,26.53,4.705676,364.79021397712603,-314.84915911728,8.373887985876095,0.19267848867997692,1.8258082971486203,-0.3109490247126697
6665175,2319,1,187682.0,231610,0.99,-0.78,10.84,-0.11,0.03,-0.01,26.53,4.745682,374.1067106377284,-383.61668596124724,10.913024328755068,0.11445523142259596,1.8722797734905972,-0.3790063540411902
6705178,2319,1,186991.0,229658,0.87,-0.32,8.12,-0.03,-0.0,-0.03,26.53,4.785685,399.0917673117637,-360.76299117511877,8.172741278175884,0.042426406871192854,1.9969073574879614,-0.35638868108107147
6745195,2319,1,187314.0,230750,0.57,-0.79,11.04,-0.12,0.08,-0.04,26.53,4.825702,387.6051735048228,-568.8932116690535,11.082896733255254,0.14966629547095767,1.9396112523322022,-0.562369434053518
6785178,2319,1,186480.0,226954,0.82,-0.36,9.57,-0.03,-0.01,-0.15,26.53,4.865685,418.0126291351353,-1084.319260490292,9.61181044340763,0.1532970971675589,2.0912862227016347,-1.07247241374505
6825198,2319,1,185261.0,228493,0.66,-1.22,10.69,-0.05,-0.02,0.185,26.53,4.905705,418.9728257226648,-1648.5378044099866,10.779615020955061,0.19267848867997692,2.0960757648038415,-1.6308639834161296
6865178,2319,1,186226.0,226712,1.69,-0.82,9.47,-0.1,0.03,-0.09,26.53,4.945685,440.5470821174507,-1873.131030793816,9.654501540732179,0.13784048752090222,2.203689987420996,-1.8531377203739998
6905175,2319,1,185124.0,228808,-0.18,0.39,10.19,0.065,-0.12,-0.02,26.53,4.985682,452.76469945270736,-1562.5200354525648,10.199048975272154,0.1379311422413372,2.264632500002114,-1.545734564070821
6945178,2256,1,187282.0,229405,0.94,-0.71,10.75,-0.1,0.09,-0.11,26.53,5.025685,412.8919514951541,-887.9571980396767,10.814351575568459,0.17378147196982768,2.065743847872308,-0.8781382830128003
6985178,2165,1,186643.0,232654,0.31,0.27,9.8,0.065,-0.15500000000000003,-0.05,26.53,5.065685,332.73263791571355,-265.97673979667934,9.808618659118114,0.17535677916750184,1.6659023859686195,-0.262581335929407
7025170,2000,1,189104.0,232143,0.55,-0.93,11.28,-0.03,0.06,-0.17500000000000002,26.53,5.105677,201.65138817084082,-30.972652326403818,11.331628303116899,0.18741664813991313,1.0120579830445517,-0.03000425618648385
7065178,1890,1,187324.0,231573,0.82,0.14,10.47,0.065,-0.1,-0.03,26.53,5.145685,95.63307054964578,-170.1877862733233,10.502994811005099,0.12298373876248844,0.48322961347252724,-0.16778164405208762
7105855,1765,1,187033.0,229456,0.94,-0.01,8.06,-0.1,0.05,-0.04,26.59,5.186362,16.124193960186847,-355.6227481720482,8.114634927093148,0.11874342087037919,0.08663258649894504,-0.35130152400354037
7144175,1747,1,187457.0,231507,0.65,0.46,11.58,-0.06,0.03,-0.04,26.59,5.224682,-5.145603431878442,-254.74496690686976,11.607346811394926,0.07810249675906654,-0.01946296876314385,-0.2514655593181681
7184169,1721,1,187963.0,231654,0.47,-0.24,10.02,-0.08,0.07,-0.04,26.59,5.264676,24.15634524109677,161.2262771825747,10.033887581590696,0.11357816691600547,0.1266976390421884,0.16020973641297756
7224175,1629,1,189287.0,235657,0.68,-0.05,13.41,-0.08,0.02,-0.05,26.59,5.304682,-77.29794512707346,601.4442702337104,13.42732289028606,0.09643650760992956,-0.37936497509195827,0.5958813724949402
7264178,1453,1,189897.0,233646,0.68,-0.81,10.59,-0.04,-0.01,-0.17500000000000002,26.59,5.344685,-193.95831281690883,743.9556129758196,10.642678234354358,0.17979154596365204,-0.9612767939487679,0.7369209275171265
7304198,1473,1,188540.0,232081,0.36,-0.64,10.81,-0.01,-0.08,-0.03,26.59,5.384705,-181.92187389729096,545.023271301983,10.834911167148533,0.08602325267042626,-0.9012380146874541,0.5400430621532977
7344198,1390,1,188041.0,233257,0.85,-1.64,9.3,-0.07,-0.07,0.1,26.59,5.424705,-214.7577331915662,272.8686606485079,9.481671793518272,0.1407124727947029,-1.0650260687115871,0.27069913173181687
7384175,1339,1,188946.0,235309,1.12,-0.62,9.72,-0.06,-0.04,-0.05,26.59,5.464682,-260.92645464566834,248.97776986645428,9.803937984299983,0.08774964387392122,-1.2953195711894714,0.24705497443072325
7425238,1339,1,189720.0,235924,0.53,-1.18,9.12,-0.12,0.01,-0.06,26.59,5.505745,-229.9713614258064,555.4536382070561,9.211281126965998,0.1345362404707371,-1.1409129380272698,0.5503657093103859
7465178,1339,1,189939.0,235424,0.92,-0.41,8.68,-0.09,-0.01,-0.17500000000000002,26.59,5.545685,-211.14219090417967,966.288836965763,8.738243530595836,0.19704060495238032,-1.0469914368115703,0.9569580022848186
7505198,1339,1,190131.0,235811,0.64,-1.72,10.04,-0.08,-0.02,-0.06,26.59,5.585705,-195.87874593813405,1130.240536366221,10.20635096398316,0.1019803902718557,-0.9708560774080501,1.119216488406985
7545195,1339,1,189431.0,236544,1.06,0.56,8.39,-0.04,-0.06,-0.07,26.59,5.625702,-173.6885112651765,832.7547828670968,8.475216811386009,0.1004987562112089,-0.860169302840947,0.8248030228424735
7585178,1339,1,190130.0,234742,0.93,-0.87,8.36,-0.13,0.05,-0.17500000000000002,26.59,5.665685,-163.98650933578068,145.91937719184716,8.456441331907884,0.22366269246345044,-0.811774893487659,0.14506091862822018
7625201,1339,1,188545.0,232187,1.24,-1.0,9.11,-0.07,0.02,-0.05,26.59,5.705708,-148.8615756338688,-618.119673658875,9.248226857079144,0.08831760866327848,-0.7363304400296653,-0.6110875091257943
7665178,1339,1,187995.0,233128,1.51,-1.49,10.36,-0.05,-0.08,-0.05,26.59,5.745685,-139.62382610265223,-1110.967022732753,10.574960992835859,0.10677078252031312,-0.6902517610549355,-1.098844970881186
7705198,1339,1,188463.0,233076,0.38,-1.15,7.16,-0.05,0.05,-0.05,26.59,5.785705,-134.16738676616853,-1176.3609311617379,7.261714673546463,0.08660254037844388,-0.6630345783762654,-1.1635635228821726
7745178,1339,1,188355.0,233645,1.31,-0.37,9.93,-0.02,-0.03,-0.05,26.59,5.825685,-127.46907656833238,-944.3681888193943,10.022868850783192,0.061644140029689765,-0.6296228384025573,-0.9339666885617512
7785195,1339,1,189797.0,235677,-0.12,-1.06,9.34,-0.04,0.09,-0.06,26.59,5.865702,-128.6369769826586,-717.5086319732209,9.400723376421626,0.11532562594670795,-0.6354484248275125,-0.7094500266984535
7825198,1339,1,188772.0,233763,1.28,0.2,8.25,-0.03,-0.0,-0.11,26.59,5.905705,-129.0430531975759,-734.0252207700274,8.35110172372484,0.11401754250991379,-0.6374739674646253,-0.7257960402126304
7865175,1339,1,188935.0,234093,0.31,-2.36,9.7,-0.06,0.03,-0.05,26.59,5.945682,-133.41717089344826,-992.2373473014966,9.987777530562042,0.08366600265340755,-0.6592924379075281,-0.9813414776956922
7905178,1339,1,188119.0,232659,1.1,-0.27,8.26,-0.02,-0.03,-0.05,26.59,5.985685,-143.14761756314593,-1261.604666766775,8.337295724633977,0.061644140029689765,-0.7078287320404868,-1.2479269027144704
7945195,1374,1,189052.0,235059,-0.43,-1.41,10.47,-0.06,0.07,-0.05,26.59,6.025702,-115.7607851703776,-1250.176576478006,10.573263450798908,0.10488088481701516,-0.5712208868400213,-1.2366168361747274
7985198,1453,1,189500.0,234178,0.16,-0.55,9.98,-0.01,0.03,-0.05,26.59,6.065705,-53.21705109818637,-795.6257859570679,9.996424360740194,0.05916079783099616,-0.25924743113475096,-0.7867604247726547
8025181,1516,1,189963.0,237570,-0.03,-2.11,12.81,-0.02,-0.01,-0.03,26.59,6.105688,-5.1714500319951835,31.752674236289884,12.982646109326096,0.03741657386773942,-0.019591893798981092,0.032073273761661136
8063215,1577,1,190693.0,236212,0.09,-0.9,8.54,-0.05,0.02,-0.05,26.59,6.143722,38.21683702251229,950.2025092808838,8.587764551965778,0.07348469228349536,0.19683256582639072,0.9410378063554172
8103175,1681,1,191135.0,240291,0.26,-1.19,11.96,0.0,-0.05,-0.04,26.59,6.183682,116.1833328570022,1601.6923017641998,12.021867575381124,0.06403124237432849,0.5857360666413719,1.5857993296512958
8143864,1792,1,192656.0,239686,0.21,-1.15,9.68,-0.07,0.02,-0.05,26.59,6.224371,210.4352256638207,1756.6358077616196,9.750333327635522,0.08831760866327848,1.055872510234045,1.7391426546033268
8184178,1879,1,192014.0,239558,-0.09,-1.71,10.89,-0.01,-0.05,-0.05,26.59,6.264685,264.0922039602197,1476.0025961125073,11.023806057800545,0.07141428428542851,1.323518073617079,1.461407686046732
8224213,1904,1,190699.0,236019,0.5,-1.78,8.79,-0.06,-0.05,-0.05,26.59,6.30472,265.62474377688113,1083.2049403463188,8.98234379212909,0.09273618495495704,1.3311625123398763,1.0726666531082252
8264195,1881,1,190058.0,235554,0.02,-1.0,10.26,-0.04,-0.04,-0.05,26.59,6.344702,216.10315313659333,914.8497858599611,10.308637155317864,0.0754983443527075,1.0841446136925101,0.9060501886390342
8304198,1875,1,190744.0,239317,0.4,-1.6,11.28,-0.04,-0.03,-0.05,26.59,6.384705,164.76703565137063,1040.3633559447578,11.39992982434541,0.07071067811865477,0.8280757010837626,1.0302675157190284
8344195,1849,1,192074.0,238235,0.51,-0.79,9.41,-0.03,-0.03,-0.13,26.59,6.424702,135.21209312295773,1217.6450495079482,9.45686523114293,0.13674794331177342,0.6806531384475596,1.2057183303182502
8384198,1840,1,191043.0,239949,0.51,-1.73,10.52,-0.02,-0.03,-0.05,26.59,6.464705,50.671450578924365,1139.3796593444822,10.67349052559658,0.061644140029689765,0.2589572356803321,1.1282612269754762
8424197,1782,1,191254.0,234965,0.41,-0.51,7.93,-0.04,-0.02,-0.06,26.59,6.504704,12.196252904158934,722.6061983880559,7.956952934383865,0.07483314773547883,0.06703968301733963,0.715791999282331
8464198,1900,1,188337.0,233221,0.96,-0.93,9.76,-0.0,-0.11,0.185,26.59,6.544705,39.17413482648215,146.81848978124015,9.851096385682155,0.21523243250030882,0.20160764855008653,0.1459507456208148
8504175,1867,1,189450.0,234500,0.14,-1.77,9.65,-0.08,0.03,0.0,26.59,6.584682,25.216555807446763,-377.49034492185643,9.811982470428696,0.08544003745317531,0.13198605936224272,-0.372943282867456
8544169,1965,1,188663.0,232888,0.6,-1.26,9.3,0.03,-0.08,-0.03,26.59,6.624676,47.70752465372479,-831.0785271142387,9.404126753718284,0.09055385138137417,0.24417292151911404,-0.821847027290832
8584175,1956,1,188393.0,234344,0.51,-1.99,9.45,-0.05,0.01,0.06,26.59,6.664682,31.93829776663406,-1335.3677924812507,9.670713520728446,0.07874007874011811,0.16551467895099808,-1.320928238802094
8624170,1936,1,188574.0,231553,0.84,-0.63,8.95,-0.01,-0.04,-0.04,26.59,6.704677,-31.942328586919327,-1879.5139656237147,9.011381692060324,0.05744562646538029,-0.15312730895992613,-1.8594547353625794
8664195,1915,1,186937.0,231545,0.52,-1.81,8.37,-0.01,-0.06,0.185,26.59,6.744702,-83.8728886841219,-2149.837652940248,8.579242390794189,0.19474342094150446,-0.4121613517872143,-2.126986651331363
8704178,1822,1,187705.0,230447,1.19,1.13,8.64,-0.04,0.02,-0.04,26.59,6.784685,-202.09424203869267,-1717.7686437717432,8.794464167872878,0.06,-1.001859499672153,-1.69937984039647
8744169,1807,1,186674.0,235220,0.09,-1.6,7.12,0.05,-0.06,0.185,26.59,6.824676,-251.15689009617984,-471.4214417661776,7.298116195293139,0.20081085628023201,-1.246588153750889,-0.46590430510442093
8784169,1871,1,191361.0,238940,1.32,-2.28,11.26,-0.135,0.125,-0.17500000000000002,26.59,6.864676,-208.50126453508804,1135.1706026526601,11.564099619079732,0.25391927851189244,-1.033818271859863,1.1240956393706214
8824178,2000,1,191766.0,242557,-0.47,-0.73,9.05,0.065,-0.09,-0.17500000000000002,26.59,6.904685,-112.31190016169988,2334.8077118020324,9.091551022790336,0.20724381776062706,-0.5540175555959136,2.3113434808895215
8864198,2077,1,193977.0,238396,0.39,-0.48,10.42,0.02,0.1,-0.17500000000000002,26.59,6.944705,-40.457580950515954,2634.418832205392,10.438337990312442,0.20254629100529095,-0.19560211072036152,2.6078603636043063
8904168,2007,1,189482.0,234433,-0.33,-0.5,9.78,0.065,-0.15500000000000003,0.185,26.59,6.984675,-162.56940112243103,2185.8884357535903,9.798331490616144,0.24994999499899975,-0.804706237402675,2.163962170574407
8944177,1959,1,189671.0,237193,0.2,-1.82,12.08,-0.0,-0.04,0.12,26.59,7.024684,-177.75293937226402,1565.164276825241,12.217970371546986,0.12649110640673517,-0.8804430153214033,1.5496485483583775
8984175,2172,1,189854.0,235529,0.65,0.28,8.11,0.02,-0.02,-0.04,26.59,7.064682,-44.516707561718015,1184.0414987508989,8.140823054212639,0.048989794855663564,-0.21584937888922806,1.1724618206626205
9024229,2152,1,190701.0,240734,0.19,-2.6625000000000005,14.055000000000001,0.03,-0.07,0.185,26.59,7.104736,-3.295272623583929,934.7429897814008,14.306223514610696,0.20006249023742556,-0.010233361592659456,0.9257379452418385
9064170,2319,1,191371.0,233317,0.43,-0.19,9.39,-0.05,-0.02,-0.17500000000000002,26.59,7.144677,85.68663118894571,398.78651082560816,9.40176047344326,0.18309833423600555,0.43361592945841243,0.39531656369627616
9104198,2319,1,186839.0,230906,0.03,-1.04,10.43,0.065,-0.15500000000000003,0.185,26.59,7.184705,136.43912404070366,-645.7444689552342,10.481765118528463,0.24994999499899975,0.6867736728439319,-0.6384270089944336
9144855,2319,1,187018.0,228507,1.26,1.39,9.71,-0.135,0.04,-0.02,26.73,7.225362,97.82822395884358,-1945.862065835854,9.889580375324325,0.14221462653327893,0.4941792250528044,-1.9251176247188422
9183169,2319,1,185773.0,229988,-0.32,-2.47,8.69,0.04,-0.15,0.185,26.73,7.263676,114.18099343221024,-2951.506976685431,9.039878317765123,0.24150569351466644,0.5757482275858046,-2.9203767248539
9223178,2319,1,186682.0,227454,0.87,0.06,8.86,-0.06,0.03,-0.17500000000000002,26.73,7.303685,120.05136563225018,-3222.5722737679916,8.90281416182546,0.18741664813991313,0.6050301425320518,-3.1886425916043413
9263215,2319,1,186216.0,232168,0.73,-1.26,10.5,0.01,-0.08,0.14,26.73,7.343722,115.45765122604524,-2703.1370474203436,10.600495271448406,0.16155494421403513,0.5821163050535818,-2.6745718392187223
9303169,2297,1,188241.0,230918,1.38,0.74,8.2,-0.08,-0.01,-0.17500000000000002,26.73,7.383676,117.7444588639562,-1707.5892353764546,8.34817345291771,0.19267848867997694,0.5935230957084029,-1.6893055599719378
9343177,2256,1,188063.0,234344,0.49,-1.05,9.85,0.04,-0.08,-0.04,26.73,7.423684,80.78842334019274,-709.2048813142242,9.917918128317051,0.09797958971132713,0.40918325283609375,-0.7012320331308859
9383175,2215,1,189071.0,235973,1.66,1.6775000000000004,9.09,-0.01,-0.05,-0.17500000000000002,26.73,7.463682,56.56864414055438,-99.10652129736897,9.391363386111731,0.18227726133558186,0.2883729378554058,-0.09743447175181257
9423178,2238,1,190706.0,235599,0.34,-0.66,9.56,-0.11,0.125,-0.13,26.73,7.503685,106.9179500631741,-27.240835632364526,9.588785115957078,0.2112463017427761,0.5395195506065877,-0.026310979877213998
9463178,2243,1,188205.0,235324,2.075,0.21,7.83,0.02,-0.09,-0.08,26.73,7.543685,118.574660545923,-369.654435840222,8.103000987288599,0.12206555615733702,0.5976642121847002,-0.3651882992373602
9503169,2128,1,190313.0,234414,1.9,0.25,10.26,-0.135,0.07,-0.12,26.73,7.583676,43.041076303601955,-827.3492416632694,10.437437424962125,0.19371370627810516,0.22089628095304856,-0.8181562560831869
9543169,2111,1,187404.0,231717,0.91,0.98,5.854999999999999,0.05,-0.0,0.13,26.73,7.623676,40.589672480487145,-1110.3941313211355,6.005790955402959,0.1392838827718412,0.20866847055171406,-1.0982779960129696
9583148,2107,1,189678.0,236672,1.75,0.13,14.055000000000001,-0.135,0.07,-0.03,26.73,7.663655,66.14339022433587,-1096.1058744957247,14.164124575843013,0.15500000000000003,0.33613258424636144,-1.0841373013431745
9623169,2033,1,188875.0,235660,1.32,1.19,5.854999999999999,0.065,0.01,-0.17500000000000002,26.73,7.703676,30.383044339140184,-847.5288658080641,6.118784601536484,0.1869491909583992,0.157756942808914,-0.8381274749008161
9663146,2013,1,190838.0,238871,2.04,-0.75,12.81,-0.135,0.125,-0.11,26.73,7.743653,20.977226996917324,-484.6409682372011,12.993082775076898,0.21435951110226018,0.11083992732341662,-0.4789873067462702
9703178,1982,1,190367.0,235399,1.26,0.53,7.64,-0.13,0.06,-0.17500000000000002,26.73,7.783685,48.17762364721909,-38.886378292089,7.761320763890641,0.22610838109190026,0.24651781521149746,-0.03783625304576233
9743170,1994,1,190497.0,238625,1.55,0.12,12.44,-0.05,0.02,-0.04,26.73,7.823677,61.95703205272027,556.4036820777229,12.536765930653726,0.0670820393249937,0.31525067425180586,0.5513059415907937
9783169,1912,1,191994.0,238689,0.9,1.06,11.42,-0.09,0.06,-0.05,26.73,7.863676,40.278444323612135,1330.3723715193164,11.504347004502256,0.11916375287812984,0.20711603808100473,1.3172814594657818
9823169,1907,1,193183.0,244156,0.54,-1.99,12.76,-0.05,0.05,-0.03,26.73,7.903676,44.30685664781194,2148.534503179171,12.92552900271397,0.07681145747868609,0.22721010077856765,2.1269940112177266
9863178,1936,1,194267.5,241971,0.62,-0.49,9.25,-0.03,0.05,-0.17500000000000002,26.73,7.943685,119.7895591168475,2746.056858386619,9.283695384920813,0.18445866745696718,0.6037242294050541,2.718345446638353
9903178,1961,1,193967.0,241143,0.3,-1.41,13.16,0.065,-0.15500000000000003,-0.01,26.73,7.983685,169.38308358259093,2899.743175469306,13.238719726620094,0.1683745824048274,0.8511009400811934,2.8704445663102924
9943178,1901,1,193160.0,241063,-0.05,-1.07,10.8,-0.07,0.01,0.185,26.73,8.023685,136.7108377689567,2579.598566071348,10.85299037132163,0.19805302320338358,0.6881290039897797,2.5536062544718496
9983178,1803,1,193969.0,241925,0.2,-1.77,10.64,0.065,-0.15500000000000003,-0.02,26.73,8.063685,76.32542605152258,1955.4907209349285,10.788072116926175,0.1692631087981076,0.3869214434381679,1.93594389111046
10023195,1744,1,192087.0,240920,0.81,-1.05,6.69,0.04,-0.12,-0.01,26.73,8.103702,29.784846707068933,1272.0578476278438,6.82016861961638,0.1268857754044952,0.1547730822313449,1.2595691795677009
10063178,1664,1,193299.0,239290,0.24,-2.21,9.27,-0.135,0.06,-0.04,26.73,8.143685,-9.380062308626464,694.7907288787331,9.53281700233462,0.15305227865013968,-0.04058480915879605,0.6882637943911081
10103178,1614,1,190300.0,237672,0.74,-0.62,6.8,-0.07,-0.07,0.185,26.73,8.183685,-52.39099368949979,226.75569558457659,6.86818753384035,0.20982135258357287,-0.25512698664543676,0.22506239890599689
10143178,1569,1,192107.0,239622,-0.23,-1.81,9.3,-0.135,0.07,-0.04,26.73,8.223685,-65.29298830546331,-252.63397219777653,9.47728864180046,0.15724185193516388,-0.31948323120843286,-0.2493763659340072
10183885,1557,1,190838.0,237578,0.95,-0.21,8.67,-0.06,-0.03,-0.05,26.83,8.264392,-66.83278399852654,-843.8202675181356,8.724419751479179,0.08366600265340755,-0.32716386285876814,-0.8344571772072907
10222198,1458,1,191127.0,236872,-0.1,-2.58,9.62,-0.12,0.05,-0.05,26.83,8.302705,-150.18241871184387,-1482.6962480010952,9.960461836682072,0.1392838827718412,-0.7429189174461982,-1.4667351578080225
10262198,1345,1,189036.0,233271,1.33,0.25,9.12,-0.03,-0.09,-0.08,26.83,8.342705,-247.29365531937825,-1936.4005928385557,9.219859001091068,0.12409673645990857,-1.2273180106838244,-1.9157538652052697
10302177,1339,1,189091.0,237693,-0.13,-2.23,10.07,-0.06,0.03,-0.01,26.83,8.382684,-252.1665850545726,-1974.5104443496791,10.314780656902018,0.06782329983125268,-1.251624597929524,-1.953470136736141
10342198,1339,1,190649.0,239065,0.99,-0.55,9.34,-0.04,0.03,-0.16,26.83,8.422705,-237.9000243000389,-1567.999285408136,9.408411130472562,0.1676305461424021,-1.1804617816115257,-1.5511572270022032
10382177,1339,1,191127.0,239659,0.13,-1.32,9.03,-0.04,0.04,-0.13,26.83,8.462684,-242.43162439742986,-919.7158344981655,9.12689432391983,0.14177446878757827,-1.2030657876439381,-0.9095689317459493
10422178,1339,1,191831.0,240610,0.32,-1.67,10.71,-0.02,0.05,-0.17,26.83,8.502685,-238.58924310580213,-300.31443657317124,10.844141275361551,0.1783255450012701,-1.183899663531445,-0.2965644097020477
10462178,1339,1,191478.0,237895,0.35,-0.02,10.02,-0.03,-0.01,-0.07,26.83,8.542685,-242.4639260420127,137.96725819947227,10.02613085891063,0.07681145747868609,-1.2032269109896252,0.13719092524672752
10501195,1339,1,191274.0,240893,-0.24,-1.96,11.27,-0.05,0.04,-0.03,26.83,8.581702,-250.95748065510713,401.92505145201767,11.441682568573556,0.07071067811865475,-1.2455934825283506,0.3984226910041136
10541198,1339,1,192447.0,240476,0.66,-1.15,10.03,-0.03,0.03,-0.16,26.83,8.621705,-255.8281413707064,566.5329321091364,10.117262475590914,0.16552945357246848,-1.269888751711663,0.5613305816625969
10581178,1339,1,192487.0,241639,0.16,-1.23,11.65,-0.01,-0.03,-0.05,26.83,8.661685,-270.25726336467505,691.7947488715783,11.715843973013639,0.05916079783099616,-1.3418624372939063,0.6852987554059017
10621198,1339,1,192649.0,240757,0.28,-1.45,10.24,-0.04,-0.0,-0.09,26.83,8.701705,-283.8771494381979,822.1647366440036,10.345941233159987,0.09848857801796104,-1.4097995853983758,0.8143223454575701
10661198,1373,1,191342.0,241058,1.14,-0.74,10.14,-0.01,-0.06,-0.01,26.83,8.741705,-259.68467388626794,1009.9140730841376,10.23067935183192,0.06164414002968976,-1.2891254633306202,1.000132698217673
10701223,1483,1,192895.0,243050,0.32,-2.57,11.55,-0.06,0.02,-0.08,26.83,8.78173,-180.5596190315805,1284.7292537200933,11.836798553663064,0.1019803902718557,-0.8944429717577104,1.2721097215510178
10741178,1609,1,192640.0,243166,0.33,0.23,9.1,0.01,-0.03,-0.02,26.83,8.821685,-51.16433899544397,1586.3579404774998,9.108885771596874,0.03741657386773942,-0.24900832888477328,1.5706233341774523
10781169,1836,1,193270.0,241771,0.58,-1.4,12.74,-0.03,0.01,-0.1,26.83,8.861676,124.76660892900235,1740.0167679484312,12.829809039888318,0.10488088481701517,0.6285501764347436,1.7226952481369535
10821178,1965,1,191125.0,240587,0.74,-0.31,8.29,-0.01,-0.09,0.02,26.83,8.901685,270.49420749525905,1521.5133369675636,8.328733397101866,0.09273618495495703,1.35545181079942,1.5064484141419179
10861177,2071,1,192214.0,241046,0.44,-0.38,11.85,-0.04,0.02,-0.08,26.83,8.941684,313.9107786054818,794.4090051642835,11.86425303169146,0.09165151389911681,1.5720173536961022,0.786853261650683
10901222,2071,1,190467.0,237493,1.04,0.68,7.63,-0.05,-0.03,-0.05,26.83,8.981729,330.42810843464014,-348.7648470396173,7.730517447105336,0.07681145747868609,1.6544071972554655,-0.34451444793300945
10941177,2094,1,189196.0,234297,1.0,-0.09,9.26,-0.08,0.01,-0.05,26.83,9.021684,302.1107745021959,-1548.7045016934092,9.314273992104805,0.09486832980505139,1.513157931372687,-1.532061710413752
10981175,2005,1,187954.0,233005,0.34,-0.07,8.65,-0.08,-0.0,0.12,26.83,9.061682,204.80627428185502,-2333.5641630221535,8.656962515801949,0.14422205101855956,1.0277948228257137,-2.308815723524046
11021185,1977,1,187115.0,231060,1.38,-0.45,8.17,-0.06,-0.03,0.04,26.83,9.101692,162.93416912444624,-2416.5251772404163,8.297939503274291,0.07810249675906654,0.818933207231523,-2.390919956803968
11061178,2005,1,187884.0,235024,0.84,-1.11,11.27,-0.07,0.01,-0.02,26.83,9.141685,141.3489225317828,-1916.9701867392423,11.355641769622709,0.07348469228349536,0.7112641645742542,-1.8965241268741484
11101178,1979,1,189490.0,235685,0.87,-1.13,7.66,-0.05,0.02,-0.17500000000000002,26.83,9.181685,143.6540602501262,-1282.751496259433,7.791623707546457,0.18309833423600555,0.722762387226552,-1.268855338054328
11141178,2101,1,189278.0,235206,0.83,-0.02,10.13,0.01,-0.04,-0.05,26.83,9.221685,189.57017590946532,-930.8557118873872,10.163965761453548,0.06480740698407861,0.9517958705531582,-0.9205937619085613
11181177,2017,1,189112.0,234898,0.77,-0.57,9.21,-0.07,-0.03,0.08,26.83,9.261684,146.25006124675178,-905.6050855775181,9.259692219507084,0.11045361017187261,0.7357114606060978,-0.8956039117657548
11221864,2022,1,188560.0,234517,1.04,-0.83,9.85,-0.02,0.01,0.185,26.83,9.302371,91.72821299152477,-876.8031581222897,9.939466786503187,0.18634645153584223,0.4637518524383406,-0.8670994365857143
11262170,2025,1,188221.0,234647,0.92,-1.45,9.14,-0.05,-0.04,0.01,26.83,9.342677,102.3688074301632,-497.97480779167245,9.299919354489049,0.06480740698407861,0.5168280409170886,-0.492183440901732
11302178,2031,1,189404.0,238050,-0.02,-0.82,9.4,-0.04,0.04,-0.03,26.83,9.382685,107.4155011179456,208.20240172398235,9.43571936844245,0.06403124237432849,0.5420013775113852,0.2067007144256999
11342198,2128,1,191295.0,240801,0.44,-0.32,11.68,-0.03,0.03,-0.17500000000000002,26.83,9.422705,149.1244622243365,817.9356516365658,11.69266436702944,0.18006943105369108,0.7500492167276727,0.810136936379786
11382178,2083,1,190963.0,235575,1.02,0.23,9.15,-0.04,-0.02,-0.16,26.83,9.462685,176.7945453435096,879.310712207964,9.209549391799797,0.1661324772583615,0.8880699406002931,0.8708781452259782
11422177,2114,1,188478.0,237102,0.29,-0.11,9.9,-0.01,-0.11,0.1,26.83,9.502684,92.57484473038056,349.0663036862256,9.90485739422835,0.1489966442575134,0.46797492343336206,0.3461098426338032
11462178,1939,1,189585.0,233938,1.41,-1.33,8.16,-0.12,0.08,-0.17,26.83,9.542685,42.962704250888976,-311.39400753172265,8.387049540809928,0.22293496809607954,0.22050535450009065,-0.30752955624942563
11502178,2096,1,187867.0,236343,1.47,1.6,10.36,0.065,-0.15500000000000003,0.185,26.83,9.582685,62.28856841553912,-469.57519583949374,10.585390876108448,0.24994999499899975,0.31690440577799145,-0.46407712630622355
11541146,1911,1,189932.0,237198,0.99,-1.0,8.52,-0.135,0.125,-0.11,26.83,9.621653,4.917522892027744,192.89495074256928,8.63542124044913,0.21435951110226018,0.030732759730521007,0.19155135134062037
11581178,1939,1,189959.0,240651,1.07,0.68,10.73,0.06,-0.12,-0.06,26.83,9.661685,-71.23439231973806,1418.4527985596833,10.80463789305315,0.14696938456699069,-0.34911945887490037,1.4044522347662294
11621169,1888,1,192659.0,241683,0.42,-1.34,10.99,-0.01,0.03,-0.17500000000000002,26.83,9.701676,-46.07040863881425,2514.225100873801,11.07935467434814,0.17783419243778742,-0.2235993717757294,2.4889079345745655
11661178,1975,1,190698.0,238829,1.87,1.6775000000000004,8.5,0.065,-0.15500000000000003,-0.05,26.83,9.741685,10.653566774603997,2783.518198629429,8.86345904542916,0.17535677916750184,0.059344633624376836,2.755419904409352
11701169,1933,1,192181.0,239606,-0.6850000000000002,-2.6625000000000005,13.07,-0.135,0.125,0.185,26.83,9.781676,-27.3814547015479,1958.7402048314893,13.356011053080183,0.260911862512995,-0.13037728278763372,1.9391598159204035
11741178,1899,1,188619.0,231693,0.82,1.6775000000000004,5.854999999999999,0.065,-0.15500000000000003,0.09,26.83,9.821685,-23.339189457547455,368.4774233887068,6.145521235013348,0.1906567596493762,-0.1102141205499502,0.3653204937486032
11781146,2019,1,188330.0,233236,-0.6850000000000002,-2.6625000000000005,14.055000000000001,-0.135,-0.01,0.185,26.83,9.861653,57.3806170684482,-1253.0888079698097,14.321353157086799,0.229237867726953,0.2924231277587105,-1.2394989915584493
11821199,1949,1,186515.0,228450,0.81,-0.03,5.854999999999999,-0.11,0.12,0.185,26.83,9.901706,45.43478266849246,-2192.6793048897534,5.9108396188697245,0.24642443060703215,0.2328362915340706,-2.169385855570902
11861169,1962,1,187069.0,232245,0.46,-2.1,14.055000000000001,-0.06,-0.15500000000000003,0.15,26.83,9.941676,29.44673245909024,-2160.6569760113484,14.218460711342843,0.22388613177238112,0.1530865396554995,-2.137694237704685
11901178,1876,1,187075.0,231635,1.59,-0.12,5.96,0.065,-0.04,-0.17500000000000002,26.83,9.981685,-26.128022205273208,-1421.9622561163885,6.169611008807605,0.19091883092036785,-0.12412505507598569,-1.4066283970034381
11941178,1775,1,189155.0,236055,0.62,-1.46,14.055000000000001,-0.05,-0.04,-0.08,26.83,10.021685,-118.45740970465027,-572.913458024212,14.144222318671325,0.10246950765959599,-0.5846718789685952,-0.5663481612628827
11981198,1808,1,189505.0,236037,-0.0,-1.29,8.24,0.065,-0.02,-0.1,26.83,10.061705,-86.42156395815289,-118.28439375587642,8.340365699416303,0.12093386622447826,-0.4248743604443606,-0.1164142844865424
12021209,1776,1,189184.0,234324,1.01,1.15,9.76,0.05,-0.08,-0.14,26.83,10.101716,-92.72731257516087,-155.68155472272272,9.879281350381717,0.16881943016134132,-0.456327969923226,-0.15342522579387297
12061170,1680,1,188039.0,234504,1.13,-1.34,8.22,-0.03,-0.01,-0.03,26.83,10.141677,-186.5749663437671,-399.38630317950424,8.404814096694823,0.04358898943540673,-0.9244480348721731,-0.3946131103353752
12101198,1637,1,188375.0,235493,1.3,0.2,8.03,-0.05,0.0,-0.04,26.83,10.181705,-225.9547606281569,-494.69352716631005,8.137008049645766,0.06403124237432849,-1.1208777922269744,-0.4889360477441115
12141169,1565,1,189544.0,237049,0.87,-0.69,9.58,-0.1,0.04,-0.14,26.83,10.221676,-262.0449063128881,-326.0778672741434,9.644138115974906,0.17663521732655696,-1.3008985030655105,-0.3220617682420313
12181178,1491,1,189461.0,237450,0.68,0.61,7.67,-0.04,0.07,-0.08,26.83,10.261685,-370.38604715762045,-53.9844015976774,7.7242086973359285,0.11357816691600547,-1.8413133120912932,-0.05277835132202526
12221855,1343,1,189658.0,235732,1.81,-0.47,9.73,-0.12,-0.04,-0.17,26.85,10.302362,-452.85020035591555,107.65346893423347,9.908072466428575,0.21189620100417092,-2.2526515097017197,0.1071902020289096
12260198,1387,1,189463.0,236407,0.3,-0.63,10.06,-0.05,0.04,-0.03,26.85,10.340705,-459.0015225185421,125.86704283720651,10.084170764123344,0.07071067811865475,-2.283334826914855,0.12521567501380473
12300178,1360,1,189424.0,235403,0.78,-0.48,10.42,-0.01,-0.04,-0.03,26.85,10.380685,-427.0773987818292,172.99741682117414,10.460172082714509,0.05099019513592785,-2.1240945872609633,0.1718593094559907
12340236,1513,1,189622.0,238617,0.07,-0.51,9.72,-0.03,0.05,-0.02,26.85,10.420743,-298.6516513433643,441.0858325781244,9.733622141833944,0.061644140029689765,-1.4834960553014778,0.43717903866089086
12380178,1707,1,190741.0,239481,1.13,-0.66,8.34,-0.04,0.0,-0.17500000000000002,26.85,10.460685,-89.59094383888181,935.0890785753542,8.442043591453434,0.17951323071016242,-0.44068349637942456,0.9260804597993336
12420178,1904,1,191211.0,239817,0.57,-1.02,9.37,-0.06,0.01,-0.08,26.85,10.500685,132.23761906751307,1432.118364829246,9.442573801670813,0.1004987562112089,0.6658162093171107,1.417976669724878
12460177,2069,1,190506.0,239397,1.36,-1.08,9.79,-0.05,-0.05,-0.07,26.85,10.540684,263.7210745581652,1635.4504884416574,9.942841646129137,0.099498743710662,1.3216668486496166,1.6192088782228822
12500198,2033,1,192327.0,241267,-0.02,-2.3,11.97,-0.03,0.01,-0.1,26.85,10.580705,286.9063405619853,1391.095741121361,12.188982730318392,0.10488088481701517,1.4373169239762473,1.3773777076894644
12540227,2109,1,189486.0,234206,1.44,0.48,6.16,-0.05,-0.07,-0.09,26.85,10.620734,311.18779278305,795.6864144935896,6.344257245730189,0.12449899597988733,1.5584348692240368,0.7881174785187576
12580178,2007,1,189545.0,237900,0.56,-2.12,11.91,-0.135,0.08,0.0,26.85,10.660685,266.08612337483686,120.58182392205259,12.110165151640171,0.15692354826475216,1.33346391294701,0.1199850392647817
12620169,2011,1,189675.0,234458,0.65,0.11,7.63,-0.08,0.04,-0.17500000000000002,26.85,10.700676,233.56252464524317,-374.30040228902095,7.6584267313855,0.1965324400703355,1.17123344113138,-0.36978628440807315
12660166,2029,1,189113.0,236033,-0.02,-1.02,12.02,-0.0,-0.04,-0.05,26.85,10.740673,284.17117171813817,-586.1811654666733,12.063216818079662,0.06403124237432849,1.423673669558987,-0.5794788462865693
12700212,1991,1,188838.0,233852,0.74,0.09,8.61,-0.1,0.01,-0.07,26.85,10.780719,232.99969096859152,-581.1335767273744,8.642210365409998,0.12247448713915891,1.1684259789659512,-0.5744833865847124
12740165,1917,1,189662.0,238146,-0.51,-2.19,12.09,-0.03,0.01,-0.05,26.85,10.820672,171.0516228566999,-498.89044004010145,12.29732897827817,0.05916079783099616,0.8594237556445063,-0.49308961694637204
12780198,1931,1,189108.0,234199,1.14,0.44,7.92,-0.05,-0.05,-0.08,26.85,10.860705,185.78192672326114,-443.5195431836493,8.013713246679094,0.10677078252031312,0.932899761978498,-0.4382905637373545
12820178,1925,1,188605.0,236967,0.05,-2.12,11.18,-0.08,0.02,0.01,26.85,10.900685,180.58412658641586,-428.9716490524653,11.379336536020014,0.08306623862918075,0.9069726935868788,-0.4238929131693917
12860169,1890,1,189894.0,236468,0.92,-0.25,9.82,-0.07,0.07,-0.11,26.85,10.940676,155.0206222862666,-386.43831151079445,9.866169469454698,0.14798648586948743,0.7794597637184959,-0.3817988392166862
12900178,1838,1,189643.0,237645,-0.05,-1.16,11.01,-0.02,-0.04,-0.05,26.85,10.980685,93.35127066729166,-207.15970404489107,11.07105234383796,0.0670820393249937,0.4718478019275973,-0.20437173386869278
12940213,1758,1,189708.0,238135,0.99,-0.91,10.09,-0.07,0.01,-0.06,26.85,11.02072,32.71975917587106,191.85600215770668,10.179209203076631,0.09273618495495704,0.1694126748087218,0.1905231325105928
12980178,1794,1,190411.0,238762,-0.51,-1.39,10.43,-0.05,0.04,-0.06,26.85,11.060685,48.63081184753962,784.2949023889523,10.534566910889122,0.08774964387392122,0.2487783564317523,0.7768436124014807
13020198,1799,1,190625.0,239959,0.64,-0.76,12.61,-0.04,-0.0,-0.05,26.85,11.100705,78.3426325977667,1379.103290917224,12.649082970713726,0.06403124237432849,0.3969834409578024,1.3655091096686178
13060195,1798,1,191548.0,241188,0.41,-0.83,11.75,-0.07,-0.02,-0.06,26.85,11.140702,56.99248454322628,1670.3618397167138,11.786411667679014,0.09433981132056604,0.29048708976927207,1.653759682069896
13100198,1809,1,191265.0,240580,0.95,-1.03,10.72,-0.07,-0.06,-0.06,26.85,11.180705,82.3242122163288,1408.568584794658,10.811188648802686,0.11,0.41684389814340544,1.3946701003456305
13140198,1856,1,190555.0,238345,0.38,-1.01,10.57,-0.1,-0.06,-0.05,26.85,11.220705,126.8739128355409,586.36886385706,10.62494235278479,0.12688577540449522,0.6390615872370667,0.5809616575709916
13180197,1776,1,188633.0,234085,0.62,-0.76,7.8,-0.11,-0.01,0.185,26.85,11.260704,33.8770684186816,-519.3449216673655,7.861424807247094,0.21546461426415242,0.1751854315709342,-0.5133328546522952
13220178,1661,1,187792.0,234886,0.6,-1.52,14.055000000000001,-0.11,-0.06,0.185,26.85,11.300685,-55.68385995958834,-1503.930380676932,14.149679324988254,0.22343902971504329,-0.2715520831749964,-1.4877499947063149
13260864,1661,1,187357.0,232997,0.35,-1.01,6.0,-0.1,-0.01,0.08,26.77,11.341371,-95.61197566543198,-2072.285038676652,6.094472905838535,0.1284523257866513,-0.4707169143341652,-2.0502349626862117
13299175,1535,1,188155.0,236965,0.05,-1.39,11.67,-0.01,-0.05,0.06,26.77,11.379682,-180.8344764868647,-2173.600416245997,11.75259545802543,0.07874007874011811,-0.8958139840809016,-2.150504004394307
13339177,1627,1,187495.0,231362,1.12,-0.46,5.854999999999999,-0.11,0.07,-0.09,26.77,11.419684,-134.4454761302343,-1958.0569633618638,5.978881584376796,0.1584297951775486,-0.664421711734858,-1.9371865792842486
13379177,1712,1,187050.0,234447,1.23,-1.34,12.31,-0.04,-0.03,-0.01,26.77,11.459684,-17.747059894072706,-1633.1458893904555,12.443657018738504,0.05099019513592785,-0.08232010349853591,-1.615631028596369
13419198,1707,1,188844.0,234305,0.58,-1.77,9.34,-0.02,0.05,-0.17500000000000002,26.77,11.499705,-53.56627806621733,-1338.8312616290632,9.523912011353318,0.18309833423600555,-0.26098940490172073,-1.3243559389278623
13459178,1610,1,187993.0,235031,0.75,-0.66,9.44,0.065,-0.13,-0.05,26.77,11.539685,-139.96506077998254,-1096.4444925900086,9.492718261910019,0.15370426148939398,-0.6919538685973207,-1.0844724223547468
13499178,1616,1,189268.0,235567,-0.37,-0.96,8.68,-0.02,0.12,-0.14,26.77,11.579685,-147.79617387374265,-829.045152290882,8.740760836448963,0.1854723699099141,-0.7310161255943074,-0.8198346521720422
13539197,1632,1,187965.0,236162,1.36,-0.16,7.51,0.065,-0.09,0.01,26.77,11.619704,-136.58780358798765,-436.88405856503505,7.633826039411692,0.11146748404803976,-0.6751078229842463,-0.4317236071712412
13579169,1600,1,190460.0,239233,1.15,-1.2,12.75,0.0,0.04,-0.17500000000000002,26.77,11.659676,-174.69029462993845,106.66153436934476,12.857876963169309,0.17951323071016242,-0.865166283318833,0.10620851168096165
13619169,1558,1,189303.0,237908,-0.03,0.77,5.854999999999999,0.03,0.06,-0.05,26.77,11.699676,-228.05292905005115,698.9801965346066,5.905491088808787,0.08366600265340755,-1.131343634456261,0.6924099952660343
13659169,1447,1,191377.0,239950,0.89,-2.5,14.055000000000001,0.01,-0.0,-0.17500000000000002,26.77,11.739676,-341.67990445760245,1139.1426314184614,14.30332566223674,0.17528548142958106,-1.6981246350648103,1.1280266469584013
13699178,1339,1,189582.0,237617,0.19,-0.03,6.48,0.06,-0.09,0.02,26.77,11.779685,-468.23549838471246,1238.6379947141097,6.482854309638618,0.10999999999999999,-2.329394682527939,1.2264944706135537
13739169,1339,1,190784.0,239695,0.53,-1.71,14.055000000000001,0.02,-0.0,-0.03,26.77,11.819676,-462.3940470297144,954.0890682045512,14.168557618896852,0.03605551275463989,-2.300257027212228,0.944884226791954
13779175,1339,1,190004.0,238107,0.13,-0.32,8.52,0.01,-0.04,-0.04,26.77,11.859682,-492.5185972509622,461.9144756748786,8.526998299519004,0.05744562646538029,-2.4505208413817163,0.4577925736789293
13819178,1339,1,189648.0,237664,0.55,-0.84,11.79,0.04,-0.08,-0.04,26.77,11.899685,-477.06360232179395,102.88148324499156,11.832675099063609,0.09797958971132713,-2.3734300144989664,0.10246749908307558
13859178,1751,1,189089.0,237598,0.68,-0.75,10.17,-0.01,-0.02,0.05,26.77,11.939685,-101.15051611115454,184.88688749239324,10.220264184452377,0.05477225575051661,-0.49834362431635254,0.18362599146636652
13899177,2154,1,189454.0,239133,0.6,-0.57,10.88,0.0,-0.06,-0.03,26.77,11.979684,317.34421299089564,750.9029002766046,10.911429787154386,0.0670820393249937,1.5891436159195647,0.7437964666192114
13939175,2319,1,190922.0,241700,0.54,-0.35,10.46,-0.02,-0.02,-0.05,26.77,12.019682,451.98923265943654,1503.002728011251,10.479775760959775,0.05744562646538029,2.260764405797791,1.488128973737006
13979204,2319,1,191828.0,242172,0.44,-0.58,10.0,-0.02,-0.04,-0.07,26.77,12.059711,458.9391643811637,1989.853826496109,10.026464980241043,0.08306623862918075,2.2954312552960996,1.9699521112582397
14019195,2319,1,191727.0,241393,1.01,-0.57,10.36,-0.03,-0.06,-0.05,26.77,12.099702,439.8572702000335,1933.5584978210377,10.424711027170009,0.08366600265340755,2.2002491470097896,1.914238173312066
14059197,2319,1,190317.0,237413,1.12,-0.2,8.53,-0.02,-0.06,-0.05,26.77,12.139704,436.66201507107337,1415.8489772784797,8.6055389139786,0.0806225774829855,2.1843109431396615,1.4018753044827024
14099198,2319,1,188953.0,237885,1.09,-0.64,10.9,-0.03,-0.05,-0.04,26.77,12.179705,429.74310101961726,759.5986762474363,10.973044244875712,0.07071067811865475,2.149798812414159,0.7524024368521782
14139198,2250,1,189694.0,236935,0.74,-0.74,7.37,-0.08,0.02,-0.07,26.77,12.219705,347.57506428671434,236.54396433892148,7.443930413430797,0.10816653826391968,1.7399376688742971,0.2347495791892436
14179181,2176,1,189829.0,238507,0.46,-0.66,10.5,-0.03,-0.03,-0.05,26.77,12.259688,278.29158936179647,-110.2508135840941,10.530773950664784,0.06557438524302,1.3943458135711364,-0.1084636712170174
14219198,2157,1,189323.0,234659,1.4,-0.11,8.3,-0.08,-0.01,-0.12,26.77,12.299705,239.7322368373443,-392.31891056015746,8.417962936482912,0.14456832294800961,1.2020084893729037,-0.38761870630394635
14259198,2096,1,187691.0,234572,0.27,-1.92,8.85,-0.06,0.01,-0.02,26.77,12.339705,187.85865170390375,-684.2767393447685,9.059900661707058,0.06403124237432849,0.9432586425022083,-0.6765613368673312
14299864,2069,1,188503.0,233865,0.91,-0.42,9.25,-0.08,0.0,-0.05,26.73,12.380371,146.35928530399914,-929.3464972688759,9.304138863968014,0.09433981132056604,0.7362562794771023,-0.9191001337233788
14338175,2022,1,187961.0,236025,0.39,-1.36,9.39,-0.02,-0.03,-0.04,26.73,12.418682,99.76358480038388,-1001.9736152671238,9.495988626783417,0.053851648071345036,0.5038329692484271,-0.9909771942290337
14378198,1995,1,189280.0,235862,0.85,-1.21,9.22,-0.08,0.01,-0.05,26.73,12.458705,74.80293285278127,-825.1933916018551,9.337826299519605,0.09486832980505139,0.3793271180985447,-0.8160226705909313
14418178,1990,1,188304.0,235577,0.24,-1.18,8.12,-0.03,0.0,-0.04,26.73,12.498685,55.31052388658545,-434.46357487629837,8.208800155930218,0.05,0.282097327210374,-0.42932812105884344
14458177,1922,1,189421.0,237597,0.56,-1.53,9.72,-0.06,0.04,-0.05,26.73,12.538684,4.431124477706421,34.89986013624728,9.855602467632306,0.08774964387392122,0.028306563143182025,0.035187957058873044
14498178,1902,1,189424.0,237520,0.44,-0.59,9.12,-0.03,0.0,-0.05,26.73,12.578685,-36.46525803941139,409.27112139614184,9.149650266540245,0.05830951894845301,-0.17568806507941856,0.40569289431667416
14538178,1826,1,190662.0,239282,0.12,-1.49,11.98,-0.06,0.05,-0.07,26.73,12.618685,-93.60361577649776,555.8140118215133,12.072899403208826,0.10488088481701516,-0.4606990446923005,0.5507223611617178
14578178,1761,1,189579.0,236000,0.35,-0.45,8.95,-0.01,-0.0,-0.06,26.73,12.658685,-172.43516494785297,439.8485379634365,8.96813804532468,0.0608276253029822,-0.8539175049972242,0.4359545222222049
14618198,1690,1,189111.0,237415,0.11,-1.6,12.5,-0.04,0.02,0.01,26.73,12.698705,-233.030172630151,121.38317247985844,12.602464044781085,0.0458257569495584,-1.1561705480169118,0.12077811188507925
14658166,1668,1,189030.0,236054,0.96,-0.17,8.93,-0.07,0.03,-0.06,26.73,12.738673,-258.3409579807994,-301.3027532394167,8.983061838816429,0.09695359714832658,-1.2824228943085771,-0.297542519515247
14698178,1666,1,189313.0,236484,-0.48,-1.49,13.45,-0.05,0.05,0.0,26.73,12.778685,-255.32752283874387,-740.9662630052359,13.540790228047992,0.07071067811865477,-1.2673916239701988,-0.7326653987451337
14738178,1658,1,188016.0,233967,0.8,-0.28,9.58,-0.07,-0.0,0.02,26.73,12.818685,-264.9162004785783,-1123.2900456373063,9.617421691908907,0.07280109889280519,-1.3152207621455776,-1.1110407276086458
14778177,1657,1,188184.0,235733,-0.04,-1.43,13.1,-0.06,0.01,0.03,26.73,12.858684,-255.57026862538814,-1370.4265240299726,13.177879192039969,0.06782329983125268,-1.2686024605638355,-1.355624900851107
14818178,1711,1,187849.0,235869,0.94,-1.05,8.89,-0.1,-0.01,-0.05,26.73,12.898685,-211.32304171148502,-1417.154126079547,9.001011054320509,0.11224972160321825,-1.0478935359931927,-1.401869922991218
14858198,1713,1,188828.0,236074,0.34,-0.84,10.36,-0.09,0.02,-0.06,26.73,12.938705,-188.11950007935303,-1261.8782172897177,10.39955768290171,0.11,-0.9321523002808858,-1.2481976281408789
14898178,1776,1,188075.0,233172,0.83,0.05,9.91,-0.08,-0.0,-0.07,26.73,12.978685,-143.1001094526199,-1003.9356193432529,9.944822773684809,0.1063014581273465,-0.7075917575516,-0.9929189356829032
14938178,1872,1,188383.0,236489,0.18,-1.71,12.25,-0.08,-0.01,-0.05,26.73,13.018685,-21.112759603145896,-814.5836483340095,12.370084882489692,0.09486832980505139,-0.09910849940553135,-0.8055224995827578
14978198,1975,1,189059.0,236190,0.87,-1.04,9.85,-0.05,-0.04,-0.12,26.73,13.058705,66.47995562009679,-828.6790560205038,9.942886904717362,0.13601470508735444,0.3378114010158423,-0.8194723367655917
15018198,1975,1,189258.0,236935,-0.48,-2.11,9.73,-0.03,-0.02,-0.02,26.73,13.098705,83.76113466752109,-1016.1375601142344,9.967717893279284,0.0412310562561766,0.4240113893290375,-1.0049948607540786
15058212,2013,1,188215.0,232887,1.42,-1.56,8.84,-0.04,-0.1,-0.05,26.73,13.138719,121.76521578932562,-1152.963369499949,9.08821214541122,0.11874342087037919,0.6135789726266332,-1.1404075998385272
15098198,1990,1,187959.0,236470,-0.21,-1.84,10.5,-0.02,-0.02,0.02,26.73,13.178705,98.79351904136381,-967.4414667968812,10.662068279653813,0.034641016151377546,0.4989941988809027,-0.9568016769650034
15138198,1895,1,189159.0,236569,1.14,-0.82,7.97,-0.03,-0.01,-0.11,26.73,13.218705,20.729163668559245,-373.05979871686003,8.092768376767001,0.11445523142259598,0.10960256638023573,-0.3685584931852149
15178198,1863,1,190106.0,240269,-0.3,-2.23,10.6,0.01,0.0,-0.04,26.73,13.258705,-22.197321804473717,423.1528883798893,10.836184752946952,0.04123105625617661,-0.1045183877483829,0.4194312971738588
15218175,1744,1,191057.0,240838,0.35,-1.56,8.94,0.02,-0.03,-0.13,26.73,13.298682,-118.79752300330674,1060.9837663475107,9.08183351532057,0.13490737563232041,-0.5863683929789467,1.0506749685688834
15258177,1658,1,191025.0,239211,0.51,-0.7,10.52,0.03,-0.06,-0.06,26.73,13.338684,-214.54866087708504,1305.4882303664665,10.555590935613221,0.09,-1.06398319825608,1.292654309599835
15298178,1612,1,190434.0,237575,-0.12,-1.67,10.08,0.01,-0.01,-0.03,26.73,13.378685,-239.93590810279682,1216.6514404978077,10.218106478208181,0.033166247903554,-1.1906169428724072,1.2047349828179053
15338885,1638,1,189675.0,239556,0.39,-0.76,10.48,0.06,-0.08,-0.02,26.71,13.419392,-223.1807398687001,1069.7855054149938,10.514756297698963,0.1019803902718557,-1.1070407411560073,1.059385807563262
15377178,1722,1,191409.0,240936,0.03,-1.97,10.37,0.0,0.01,-0.03,26.71,13.457685,-111.55358061971705,1117.9433139112925,10.555505672396752,0.03162277660168379,-0.5502349933368685,1.1070462656746758
15417169,1875,1,190494.0,240242,0.85,-0.17,10.54,0.06,-0.09,-0.03,26.71,13.497676,19.32125602161412,1407.3856541370708,10.575585090197137,0.11224972160321824,0.1025798035016336,1.393499386419581
15457178,1887,1,191156.0,240828,0.37,-1.42,10.4,-0.03,0.02,-0.03,26.71,13.537685,78.87616471397966,1772.9323934498366,10.50301385317567,0.04690415759823429,0.3996447444519715,1.7552709370938397
15497178,1967,1,190838.0,240690,0.36,0.07,10.3,0.01,-0.03,-0.03,26.71,13.577685,116.35511100952665,1977.8772830148891,10.306527058131659,0.04358898943540673,0.5865929106506513,1.9580992556834251
15537165,1973,1,191454.0,241113,0.72,-1.0,12.11,-0.01,-0.03,-0.03,26.71,13.617672,188.75169301905964,1878.5657814897015,12.172530550382694,0.04358898943540673,0.9477132084041288,1.8598133949639408
15577198,2114,1,190231.0,239949,0.86,0.74,8.66,-0.0,-0.06,-0.02,26.71,13.657705,276.6040709295338,1509.3025860683763,8.734002518891325,0.06324555320336758,1.3859283283555646,1.4943637699292487
15617246,2087,1,190496.0,238006,1.2,-0.94,10.43,-0.1,0.01,-0.04,26.71,13.697753,317.9876347969066,1044.5326207992857,10.540801677291912,0.10816653826391968,1.592353058516415,1.034393722437299
15657177,2144,1,188576.0,235588,1.22,0.5,8.97,-0.03,-0.03,-0.04,26.71,13.737684,330.6780523639391,670.7309403527249,9.066382961247557,0.05830951894845301,1.6556539387958085,0.6644524836396768
15697178,2079,1,189634.0,236590,1.06,0.2,11.76,-0.11,0.0,-0.04,26.71,13.777685,317.3635154695894,463.9755171029193,11.809369161813851,0.11704699910719625,1.5892398983221283,0.4598323296751884
15737169,2058,1,189023.0,237068,1.2,0.05,10.07,0.01,-0.07,-0.04,26.71,13.817676,274.1207233276782,367.47997919337905,10.141370716032425,0.08124038404635961,1.3735411796737471,0.3643333506709952
15777165,2000,1,188998.0,234575,0.85,-0.34,9.06,-0.06,-0.04,-0.04,26.71,13.857672,243.98644118561384,275.7982309216804,9.106135294404536,0.0824621125123532,1.223228821856956,0.27359844683042045
15817201,1963,1,188284.0,235827,1.09,-1.14,10.27,-0.07,-0.03,0.185,26.71,13.897708,206.24222658904134,133.58867221608298,10.390409039109096,0.20006249023742556,1.0349574748506758,0.13285755916623848
15857178,1911,1,188194.0,233317,1.08,-0.33,8.74,-0.05,-0.05,-0.04,26.71,13.937685,163.508160402734,-48.45599522106292,8.812655672383894,0.08124038404635961,0.821796324461227,-0.04730703963316886
15897198,1855,1,187809.0,234200,0.96,-1.14,11.7,-0.05,-0.06,0.14,26.71,13.977705,118.51321608500746,-263.72049800152024,11.794541110191613,0.16031219541881397,0.5973577219968319,-0.26034839550032446
15937178,1753,1,187232.0,231830,0.73,-1.08,8.09,0.01,-0.08,-0.03,26.71,14.017685,17.706088391145755,-577.0168680937572,8.194351713222956,0.08602325267042626,0.09452321022821483,-0.5704091933123071
15977178,1666,1,186779.0,232756,0.68,-1.11,9.81,-0.02,-0.05,0.185,26.71,14.057685,-58.56935532349801,-1100.49338691715,9.895989086493579,0.19267848867997692,-0.28594517903750727,-1.0884795016737965
16017178,1674,1,186198.0,229091,0.83,-0.35,6.4,-0.05,-0.03,-0.03,26.71,14.097685,-47.05595795153419,-1877.1192817148576,6.463079761228388,0.06557438524302,-0.22851537542370956,-1.8570847825825036
16057198,1636,1,184643.0,226903,0.95,-1.0,8.53,-0.1,0.04,0.185,26.71,14.137705,-84.54273185984232,-2767.225669706058,8.640798574205974,0.21406774628607647,-0.41550258641942994,-2.737998585435824
16097165,1584,1,183977.0,224516,1.07,-0.11,7.66,-0.13,0.06,0.08,26.71,14.177672,-124.03162249146416,-3451.6112767082404,7.735153521424122,0.16401219466856726,-0.6124765256168363,-3.4153161913042256
16137169,1680,1,183395.0,225946,0.94,-0.3,9.52,0.06,-0.06,0.185,26.71,14.217676,-43.204468029139534,-3579.5945574684533,9.57099785811281,0.2035313243704762,-0.20930381668760054,-3.5419777230909606
16177169,1687,1,184586.0,226711,0.52,-0.65,7.41,-0.06,0.1,-0.12,26.71,14.257676,-11.28828851897556,-2972.9520512402905,7.4566078078439935,0.1673320053068151,-0.050103203510224376,-2.9416003251262546
16217177,1737,1,185101.0,230891,1.48,-0.06,10.23,0.02,-0.02,-0.15,26.71,14.297684,3.5225188426236422,-1750.6102890316383,10.33667741588176,0.15264337522473748,0.023774361092008187,-1.7318823131437389
16257178,1778,1,186751.0,232517,0.77,-0.5,7.3,-0.05,0.125,-0.17500000000000002,26.71,14.337685,85.7745348461241,-294.3552778002589,7.35750637104719,0.2207940216581962,0.43405440036370596,-0.29066679421779074
16297178,1729,1,187466.0,234472,1.08,0.4,11.09,-0.0,0.0,-0.06,26.71,14.377685,-21.16396762974043,927.1195917299234,11.149641249834005,0.06,-0.09936392938990203,0.9181932779315103
16337165,1485,1,188434.0,235879,1.27,0.08,10.46,-0.06,0.1,-0.08,26.71,14.417672,-210.54692787139285,1586.9500869968672,10.53712009991345,0.1414213562373095,-1.0440222142643882,1.5712093652960464
16377856,1501,1,188104.0,234809,0.85,-0.41,9.43,-0.04,0.04,-0.1,26.67,14.458363,-264.07290535209034,1665.9554883719577,9.477103988033475,0.11489125293076058,-1.3110143344563356,1.649398837375166
16416175,1362,1,188491.0,235320,0.8,-0.96,11.03,-0.07,0.06,-0.03,26.67,14.496682,-354.77888954346406,1455.9425795226502,11.100563048782705,0.09695359714832658,-1.7634634848167479,1.441554839535483
16456178,1339,1,187471.0,232387,0.24,-0.09,9.36,-0.04,0.04,-0.04,26.67,14.536685,-433.991387927254,1369.6304392573536,9.363508957650438,0.06928203230275509,-2.158582152137042,1.356134089005757
16496175,1339,1,187619.0,232908,0.57,-0.52,12.73,-0.07,0.03,-0.03,26.67,14.576682,-415.81926714289085,1646.6431213460362,12.753360341494316,0.0818535277187245,-2.067938070796334,1.630285919067392
16536177,1339,1,187707.0,234565,0.43,-0.2,11.99,-0.04,-0.03,-0.03,26.67,14.616684,-440.34172719173836,2153.4461452980063,11.99937498372311,0.05830951894845301,-2.1902581835514012,2.1318549282895862
16576195,1339,1,189366.0,237532,0.3,-1.14,13.79,-0.07,-0.03,-0.03,26.67,14.656702,-460.85967087559874,2455.656680227985,13.840292626964214,0.0818535277187245,-2.2926034286822983,2.430944380044128
16616198,1339,1,188553.0,233943,0.33,-0.64,9.72,-0.06,-0.05,-0.03,26.67,14.696705,-453.5144428073864,2145.370562713789,9.746635316867048,0.08366600265340755,-2.2559648074458596,2.1238627463880793
16656195,1339,1,187136.0,231156,0.51,-1.29,11.66,-0.08,-0.1,0.185,26.67,14.736702,-503.5688022612088,1173.9549565593288,11.74222295819663,0.225,-2.505640202168829,1.1624794473648972
16696177,1435,1,185242.0,227514,0.64,-0.62,9.31,-0.1,-0.1,0.185,26.67,14.776684,-382.7411335344812,-89.56582691193356,9.352545108151043,0.23286262044390035,-1.9029415319234726,-0.08799230901000521
16736178,1971,1,184475.0,226785,0.5,-1.33,11.15,-0.1,-0.05,0.185,26.67,14.816685,94.57210456825301,-1119.9926589323793,11.240169037874832,0.21615966321217286,0.4779374250781025,-1.107777394707204
16776177,2319,1,184345.0,226581,1.0,-0.25,9.51,-0.07,-0.04,-0.03,26.67,14.856684,461.7209496910344,-1587.0297792539923,9.565699138066178,0.08602325267042626,2.309307036603765,-1.569991183178794
16816198,2319,1,184753.0,228126,0.39,-1.03,9.78,-0.07,-0.02,-0.03,26.67,14.896705,422.1251253805391,-1518.8625177783686,9.841818937574496,0.07874007874011811,2.1117997031371436,-1.502527919970327
16856198,2319,1,184570.0,226366,0.69,0.18,9.3,-0.04,-0.05,-0.06,26.67,14.936705,407.2441415811521,-1200.1466238829496,9.327298644302111,0.08774964387392122,2.037572092505033,-1.1871035685567468
16896175,2319,1,184341.0,226563,1.08,-0.82,9.8,-0.05,-0.03,-0.03,26.67,14.976682,417.85680656176135,-943.5596617223745,9.893371518344999,0.06557438524302,2.090508966475835,-0.9331665115386956
16936198,2319,1,184447.0,227485,1.52,0.2,9.36,-0.02,-0.01,-0.04,26.67,15.016705,342.3844957548803,-914.4521206807758,9.4847245611035,0.045825756949558406,1.714046672342459,-0.9043595790005176
16976178,2319,1,185226.0,228105,1.01,-1.33,10.11,-0.03,-0.02,-0.06,26.67,15.056685,420.7635346725035,-1081.9425293937481,10.247004440323035,0.06999999999999999,2.1050079730822713,-1.0701202283693882
17016198,2186,1,184171.0,226780,0.75,-0.76,7.49,0.03,-0.04,-0.03,26.67,15.096705,156.47284816575853,-1273.378365375403,7.565725345265978,0.05830951894845301,0.7867035897037943,-1.2595790082997163
17056178,1664,1,184253.0,226683,1.27,-1.25,8.73,-0.0,-0.05,0.0,26.67,15.136685,-250.41648451699322,-1287.4317817652604,8.910011223337488,0.05,-1.2428949478592215,-1.273487287851568
17096177,2091,1,184232.0,228183,0.88,-1.2,8.19,0.01,-0.01,0.03,26.67,15.176684,47.576574301810666,-1016.5004461787773,8.32409154202427,0.033166247903554,0.24351973004568336,-1.005353999108136
17136166,2319,1,185425.0,229037,0.92,-1.4,9.33,-0.01,0.01,-0.07,26.67,15.216673,358.3761712243064,-511.3355878889415,9.479203553041785,0.07141428428542851,1.793814507325825,-0.5054062373711902
17176177,2319,1,185699.0,229979,-0.03,-1.16,8.97,0.02,0.04,-0.03,26.67,15.256684,293.4359601450101,59.41835480187504,9.044744330272692,0.053851648071345036,1.4698872208409304,0.059453236656383954
17216178,2319,1,185882.0,230022,0.7,-1.0,10.1,0.03,-0.0,-0.02,26.67,15.296685,309.7427899356101,527.1273938312578,10.173494974687902,0.03605551275463989,1.5512270723358716,0.5223320045866718
17256182,2295,1,186447.0,231253,-0.06,-0.95,10.77,0.03,0.01,-0.02,26.67,15.336689,285.49595154087353,830.0132522228747,10.811984091738204,0.03741657386773942,1.4302817837926258,0.8220898053911407
17296178,2286,1,186726.0,231796,0.32,-1.37,10.88,0.02,-0.0,-0.02,26.67,15.376685,254.67753452080922,1033.0476770263347,10.970583393785402,0.0282842712474619,1.2765569031192399,1.0230273895684612
17336177,2251,1,186972.0,231285,0.0,-0.13,11.27,0.03,-0.02,-0.02,26.67,15.416684,242.7824933573659,1250.150226261575,11.270749753232923,0.0412310562561766,1.217223427870824,1.2378878094420644
17376175,2223,1,186523.0,233240,0.71,-0.87,11.68,0.03,-0.04,-0.02,26.67,15.456682,193.23228894763378,1525.1541056218468,11.73385699589014,0.05385164807134504,0.9700628013120737,1.51005158271123
17416864,2192,1,187388.0,232828,0.62,-0.79,11.18,0.0,-0.02,-0.04,26.61,15.497371,184.11435164438956,1765.396799952578,11.225012249436523,0.044721359549995794,0.9245817559028923,1.7478131675350705
17455217,2128,1,187275.0,235006,0.59,-0.6,11.23,0.0,-0.06,-0.02,26.61,15.535724,107.63496721663087,1797.9903589092114,11.261483028447008,0.06324555320336758,0.5430960930449664,1.7800701160935564
17495178,2077,1,187957.0,232576,0.51,0.07,10.77,-0.04,-0.02,-0.17,26.61,15.575685,78.0320847413509,1519.9689731008039,10.7822956739277,0.17578395831246946,0.39543440188354323,1.5049199997127989
17535178,1995,1,185936.0,230165,1.21,0.11,10.21,-0.01,-0.06,-0.03,26.61,15.615685,-9.791246636929674,1009.6229561934528,10.282037735779811,0.06782329983125268,-0.042635831499172105,0.9998445878404103
17575178,1611,1,186018.0,230281,1.39,-0.23,11.48,-0.08,-0.06,0.03,26.61,15.655685,-376.2949938470321,479.62080508271237,11.566131591850407,0.1044030650891055,-1.8707876398656182,0.4753160407427143
17615177,1339,1,185092.0,228717,0.91,-0.1,8.01,-0.05,-0.03,0.04,26.61,15.695684,-638.4968648770463,102.07322813713337,8.062146116264577,0.07071067811865475,-3.178672834299377,0.10166759124020992
17655178,1339,1,185909.0,230976,0.78,-0.69,11.12,-0.135,0.02,-0.03,26.61,15.735685,-636.7633599294514,-127.4174798866724,11.168657036546515,0.1397318861248212,-3.170025964440933,-0.1254530485531878
17695178,1339,1,184761.0,228193,1.56,-0.16,6.56,-0.04,-0.06,-0.17500000000000002,26.61,15.775685,-604.5629369779115,-352.14701283860757,6.744835060992966,0.18927493230747702,-3.0094075208448414,-0.3478616843713333
17735198,1339,1,185784.0,229420,0.92,-1.16,11.3,-0.135,0.04,-0.02,26.61,15.815705,-617.4883708502621,-683.4747934732908,11.396578433898483,0.14221462653327893,-3.0738806824087606,-0.6757676731021264
17775178,1339,1,183704.0,225060,1.81,0.47,6.0,-0.03,-0.08,-0.1,26.61,15.855685,-574.346433903508,-1071.9336570090582,6.284663873271187,0.13152946437965907,-2.858685038036736,-1.060214722742618
17815178,1631,1,184071.0,226630,0.23,-1.54,11.25,-0.135,0.1,0.14,26.61,15.895685,-293.63948473250827,-1351.5096737148308,11.357244384092471,0.2186892772862904,-1.4584949426983438,-1.3369034145502094
17855168,1971,1,183807.0,224904,1.36,-0.22,7.9,0.02,-0.03,-0.17500000000000002,26.61,15.935675,82.97352263721436,-1410.2268931246736,8.019226895405817,0.1786756838520564,0.42008271365121147,-1.3950142311235298
17895177,2159,1,183985.0,227286,0.31,-1.68,9.37,-0.05,0.01,-0.02,26.61,15.975684,272.6231562226318,-1309.24970455471,9.524463239469192,0.05477225575051661,1.3660711878057752,-1.2950798857635875
17935178,2159,1,184851.0,227154,0.97,-0.13,9.79,-0.06,0.07,-0.17500000000000002,26.61,16.015685,298.1778332372059,-1224.3057694284093,9.838795658006115,0.19780040444852484,1.4935400864242456,-1.211013210216737
17975177,2128,1,183959.0,226154,0.92,-0.78,9.43,-0.01,-0.01,-0.03,26.61,16.055684,278.04636507136877,-1264.861600771909,9.506823864992977,0.033166247903554,1.393122613990195,-1.251150200691895
18015198,2054,1,183962.0,226689,1.09,-0.24,9.86,-0.05,0.01,-0.03,26.61,16.095705,225.06716872352166,-1351.4336086626865,9.922968305905243,0.05916079783099616,1.128857884512286,-1.3368281350608668
18055178,1921,1,183974.0,226123,0.4,-0.56,8.07,-0.05,0.04,-0.02,26.61,16.135685,105.32291195200865,-1274.2374154980198,8.099290092347601,0.0670820393249937,0.5315633650845093,-1.260429186571174
18095175,1843,1,184013.0,228131,1.3,-0.29,9.16,-0.08,0.07,-0.02,26.61,16.175682,44.92502659516833,-879.1979793389654,9.256332967217634,0.10816653826391968,0.23029358496048935,-0.8694695252555604
18135177,1905,1,185395.0,229240,0.93,0.16,9.95,-0.09,0.06,-0.13,26.61,16.215684,126.99680414232404,-208.0031439801714,9.994648568108834,0.16911534525287764,0.6396745795091465,-0.2052064631672241
18175168,1975,1,185890.0,232531,0.94,-0.19,10.51,-0.05,0.07,-0.03,26.61,16.255675,200.24804396805305,531.1106857718498,10.553662871249962,0.091104335791443,1.005057983012857,0.5262741590286604
18215177,1930,1,186960.0,230520,0.54,0.13,9.7,-0.09,0.06,-0.17500000000000002,26.61,16.295684,193.8734951250166,1122.3914130637017,9.715889048357848,0.20573040611440985,0.9732611921652131,1.1114484270260403
18255166,1879,1,185959.0,233208,0.61,-1.44,11.41,-0.05,0.0,-0.01,26.61,16.335673,122.35816992996538,1478.567205096461,11.516674867339097,0.050990195135927854,0.6165366782237537,1.463945808998512
18295177,1729,1,187121.0,230941,0.93,-0.97,10.03,-0.09,0.03,-0.09,26.61,16.375684,30.15158790695214,1644.4481397863926,10.119619558066399,0.1307669683062202,0.15660241847380524,1.6281136062079569
18335175,1721,1,186490.0,233626,0.67,-0.7,11.86,-0.01,-0.06,-0.01,26.61,16.415682,-13.54803137638809,1701.21985796488,11.899516796912385,0.06164414002968976,-0.061374992742037185,1.6842990137388405
18375198,1671,1,187414.0,232487,0.47,-0.1,10.26,-0.07,0.01,-0.03,26.61,16.455705,-5.264859122191985,1686.654307672286,10.271246272969995,0.07681145747868609,-0.020057826271598495,1.6698838893537011
18415178,1664,1,187224.0,233825,-0.2,-1.63,11.84,-0.02,-0.04,-0.01,26.61,16.495685,-40.3512879764525,1591.5161417821116,11.953346811667434,0.0458257569495584,-0.19507191234113633,1.575728264091935
18455901,1524,1,186280.0,230463,0.51,-1.12,9.23,-0.05,-0.04,-0.02,26.61,16.536408,-143.8046331767451,1389.983804626589,9.311680836454824,0.0670820393249937,-0.7111059817037427,1.3762772547331033
18496198,1606,1,185805.0,231059,0.34,-1.16,11.17,-0.06,-0.03,-0.02,26.61,16.576705,-69.19791697277627,1047.357301938803,11.235216953846509,0.06999999999999999,-0.33896134694130625,1.0371892316461204
18536198,1819,1,185559.0,229451,0.93,-0.58,10.44,-0.06,-0.02,-0.03,26.61,16.616705,158.0730824206307,526.2128211316455,10.497375862566797,0.06999999999999999,0.7946856940318502,0.5214268771483445
18576198,1954,1,186020.0,230267,-0.13,-0.98,11.13,-0.06,-0.04,-0.02,26.61,16.656705,292.14409104910595,-152.30559697947896,11.173817610825765,0.07483314773547883,1.4634432681069465,-0.1500841332975203
18616215,1964,1,184505.0,227015,1.3,0.24,9.1,-0.06,-0.03,-0.03,26.61,16.696722,317.14278707088033,-823.3488709989634,9.195520648663674,0.07348469228349534,1.5881388863288552,-0.8141971992982225
18656175,1872,1,183876.0,225712,0.94,-0.61,9.38,-0.09,-0.01,0.0,26.61,16.736682,206.66236162213332,-1197.208743866164,9.44669783575192,0.09055385138137416,1.03705314406648,-1.1841960295335139
18694178,1811,1,183769.0,227639,1.11,-0.38,9.53,-0.08,0.02,0.04,26.61,16.774685,175.30805647667023,-1046.9488957906196,9.601947719082832,0.09165151389911681,0.8806552079250739,-1.0354879919661006
18734168,1941,1,185299.0,228821,0.73,-0.6,10.82,-0.05,-0.01,-0.04,26.61,16.814675,271.44526407049773,-439.5092700180289,10.861183176799846,0.06480740698407861,1.3601957617443055,-0.43432170671928505
18774198,1783,1,185284.0,231251,0.87,0.5,9.57,-0.03,-0.01,-0.02,26.61,16.854705,138.42794684255867,213.21555514051482,9.622463302086427,0.03741657386773942,0.6966940898366873,0.21166209443602785
18814175,1521,1,186438.0,229666,0.6,-1.31,9.58,-0.05,0.01,-0.07,26.61,16.894682,-143.31261263434178,382.79300070707626,9.687749996774276,0.08660254037844388,-0.7086517414641949,0.3794882267586153
18854177,1339,1,184896.0,229498,1.38,-1.04,9.75,-0.02,-0.06,-0.02,26.61,16.934684,-334.1200024526072,-203.9632137242502,9.901944253529203,0.066332495807108,-1.6604152020052285,-0.20120825534283435
18894201,1339,1,184666.0,226058,0.58,-0.91,8.44,-0.07,-0.02,-0.02,26.61,16.974708,-321.1809746952993,-1321.404295830651,8.50870730487305,0.07549834435270751,-1.5958742329889806,-1.3071089503422397
18934198,1477,1,183209.0,224564,0.4,-0.28,8.68,-0.01,0.01,0.185,26.61,17.014705,-227.8667582023674,-2330.6304836370705,8.693721872707913,0.18553975315279472,-1.1304149984615437,-2.305912341750438
18974165,1339,1,183375.0,223931,0.71,-1.66,10.16,-0.04,-0.04,0.03,26.61,17.054672,-332.60535085225087,-2574.071399186606,10.319171478369762,0.06403124237432849,-1.652859991224125,-2.5468391181224272
19014177,1339,1,182835.5,225730,0.65,-0.94,6.37,0.01,0.01,0.14,26.61,17.094684,-392.3169951940275,-1831.816843226757,6.471707657179826,0.1407124727947029,-1.950706742901059,-1.8122502056089074
19054146,1339,1,185780.0,232029,0.2,-1.69,12.22,-0.06,0.05,-0.07,26.61,17.134653,-358.0819524183939,-510.4650688440492,12.337929323837125,0.10488088481701516,-1.7799394428769786,-0.5045447086228987
19094181,1339,1,186685.0,233710,0.56,-0.06,7.71,0.04,0.03,-0.17500000000000002,26.61,17.174688,-419.0781788532162,611.9704094427104,7.73054331855142,0.18200274723201298,-2.084193799098949,0.6062988028662581
19134165,1339,1,187724.0,233234,0.69,-0.93,11.44,0.02,-0.04,-0.13,26.61,17.214672,-390.20474136454555,935.1529700008409,11.4984607665548,0.1374772708486752,-1.9401706414628306,0.9261436913853043
19174177,1364,1,186183.0,231925,0.88,-0.13,8.82,-0.01,0.02,-0.02,26.61,17.254684,-421.120172266109,471.06541556984075,8.864744779180054,0.03,-2.094379435613908,0.46684900712476246
19214178,1377,1,186344.0,229297,1.0,0.23,10.34,-0.03,0.05,-0.02,26.61,17.294685,-394.6923106940108,-187.33807025355486,10.390789190432072,0.061644140029689765,-1.9625550182864835,-0.18475480825455542
19254169,1885,1,184973.0,230326,0.78,-0.32,9.85,0.01,0.01,0.01,26.61,17.334676,81.04788346021904,-351.29885560778837,9.886015375266215,0.017320508075688773,0.41047746194373796,-0.34702228649519323
19294146,2319,1,186800.0,233087,0.27,-1.73,9.94,-0.06,0.06,-0.02,26.61,17.374653,493.49113845093484,211.1923102074327,10.093037203934205,0.08717797887081347,2.4677794355237683,0.20965974459094092
19334177,2319,1,187657.0,234406,0.36,-0.07,9.72,0.02,-0.0,-0.13,26.61,17.414684,498.88648623200964,1104.525126008184,9.726916263646974,0.13152946437965907,2.4946918883372002,1.0937666542792293
19374175,2319,1,188768.0,236761,0.96,-1.54,11.5,-0.06,-0.01,-0.02,26.61,17.454682,446.8192183524516,1653.5688768959496,11.642302177834074,0.06403124237432849,2.2349759354846164,1.6371401487880386
19414198,2319,1,188823.0,234814,0.13,-0.33,9.78,-0.03,-0.01,-0.11,26.61,17.494705,465.3614124285675,1475.1912715162143,9.786429379503026,0.11445523142259598,2.3274659738249355,1.4606047404156126
19454198,2319,1,187462.0,232517,0.21,-0.1,11.26,-0.02,-0.04,0.01,26.61,17.534705,428.2019266814789,788.2183320631232,11.262402052848229,0.0458257569495584,2.142111303965138,0.7807265228053722
19494864,2134,1,186363.0,231993,0.63,-0.28,9.58,-0.05,-0.03,0.01,26.59,17.575371,221.1399526386759,200.66208085546532,9.60477485420663,0.05916079783099616,1.1092685972484895,0.19923826631765953
19534178,1648,1,187235.0,232876,0.55,-1.03,11.31,-0.07,0.02,-0.01,26.59,17.614685,-235.32093100005858,166.55653949747878,11.370114335396984,0.07348469228349536,-1.1675970452583613,0.16548495037546215
19574178,1339,1,187597.0,236040,0.6,-1.08,10.97,-0.04,-0.06,-0.02,26.59,17.654685,-638.8190703278865,591.7652127099934,11.039352336074794,0.07483314773547883,-3.1802800224443906,0.5863022755619365
19614198,1563,1,189071.0,236916,0.56,-0.24,10.43,-0.04,-0.04,-0.17500000000000002,26.59,17.694705,-316.1643388830242,929.9104540984375,10.447779668427163,0.18391574157749524,-1.570850827629719,0.9209553176331199
19654197,2319,1,188396.0,234630,0.35,-0.61,9.28,-0.06,0.01,-0.03,26.59,17.734704,308.78933455587094,672.4536174284497,9.306610553794545,0.06782329983125268,1.546471155950472,0.6661573697458081
19694178,2319,1,187337.0,231644,1.04,-0.6,10.3,-0.06,-0.04,-0.02,26.59,17.774685,409.4017880613303,-201.62298836532315,10.369744452010378,0.07483314773547883,2.048334616338908,-0.19889219869131577
19734198,2319,1,185602.0,231654,0.79,-0.21,8.58,-0.04,-0.02,0.11,26.59,17.814705,326.2692316746074,-1196.182931513438,8.618851431600385,0.11874342087037917,1.6336623668751407,-1.183180811271017
19774178,2319,1,186714.0,231745,0.82,-1.47,8.73,-0.09,0.02,-0.02,26.59,17.854685,354.2914599151419,-1692.3917637286243,8.890792990504277,0.09433981132056603,1.7734396205113032,-1.674265040407463
19814177,2319,1,185872.0,233399,1.23,-0.63,8.25,0.01,-0.06,-0.02,26.59,17.894684,359.4955082144625,-1423.6712057359925,8.36494470991889,0.06403124237432849,1.7993978552678374,-1.4083196974239278
19854178,1943,1,187586.0,233828,1.04,-1.84,9.27,-0.05,0.01,-0.17500000000000002,26.59,17.934685,-49.10196942093889,-651.5399685018057,9.507896717991839,0.18227726133558186,-0.23872105434569466,-0.6441626554451086
19894178,1339,1,188180.0,236071,0.36,-0.78,9.72,0.01,0.02,-0.04,26.59,17.974685,-622.6219151124661,74.53004257006386,9.75788911599225,0.045825756949558406,-3.0994872370421502,0.07440885827533454
19934168,1339,1,189345.0,235840,0.58,-0.97,10.73,0.0,0.0,-0.14,26.59,18.014675,-620.507591964318,361.3655771350722,10.789355865852233,0.14,-3.0889408136667234,0.35828209517836473
19974169,1339,1,188396.0,234471,0.15,-0.64,10.11,0.04,-0.02,-0.01,26.59,18.054676,-658.6984019642547,255.87041783546942,10.13134739311608,0.0458257569495584,-3.279439816462292,0.25387643848943797
20014175,1339,1,188246.0,234786,-0.24,-2.09,10.2,-0.02,0.03,0.03,26.59,18.094682,-564.2330799245557,138.70275610339493,10.414686745169055,0.04690415759823429,-2.8082387697352202,0.13791882728661445
20054177,2175,1,187940.0,234413,1.03,-0.15,10.1,0.02,-0.02,-0.02,26.59,18.134684,164.71281253239843,330.39098796061836,10.153492010141141,0.034641016151377546,0.8278052315626215,0.32762739647086914
20094178,2319,1,189799.0,239774,0.23,-0.73,12.56,-0.02,0.03,-0.01,26.59,18.174685,439.01043972086444,769.8496388671806,12.583298454697799,0.03741657386773942,2.196025084681212,0.7625475325239952
20134177,2319,1,190292.0,237248,0.49,0.36,9.43,-0.01,0.03,-0.17,26.59,18.214684,351.04199425327096,1060.8966798595047,9.449582001337413,0.17291616465790585,1.7572310099003765,1.0505887814676993
20174169,2319,1,190144.0,237017,0.44,-0.42,13.0,-0.03,-0.02,-0.01,26.59,18.254676,431.1034724443414,837.9719809698516,13.014222988715078,0.03741657386773942,2.156584460580353,0.82996634026491
20214198,2319,1,188031.0,234606,1.46,-0.64,9.32,-0.06,-0.01,-0.0,26.59,18.294705,414.73651382552873,108.78895040097382,9.455347693236881,0.0608276253029822,2.0749446813851664,0.10831395679623926
20254198,2319,1,188514.0,235577,1.08,-1.38,12.21,-0.08,-0.04,-0.01,26.59,18.334705,436.0128605339335,-727.0843224510133,12.335108430816488,0.09,2.1810729051932136,-0.7189268241100253
20294198,2319,1,187289.0,233885,0.44,0.36,7.87,-0.04,0.0,-0.01,26.59,18.374705,460.0566851179638,-1176.1663592912334,7.890506954562552,0.04123105625617661,2.301005543612167,-1.1633709604551563
20334165,2319,1,188678.0,236554,0.49,-1.46,11.66,-0.12,0.03,-0.02,26.59,18.414672,470.72631893062544,-1000.5079848777026,11.761262687313808,0.12529964086141668,2.3542265829540736,-0.9895267001562564
20374177,2250,1,188688.0,236012,0.84,-0.0,9.48,-0.02,-0.01,-0.11,26.59,18.454684,420.5693224666333,-356.53746252631197,9.517142428271208,0.11224972160321824,2.104039226110184,-0.352206791633579
20414195,1986,1,189179.0,238427,0.44,-1.06,10.6,-0.03,-0.04,-0.02,26.59,18.494702,180.5426932071516,343.9887820657927,10.661951040968065,0.05385164807134504,0.9067660203732887,0.34108475918302616
20454198,1743,1,190343.0,239115,1.01,-0.77,10.05,-0.05,-0.02,-0.17500000000000002,26.59,18.534705,-50.1808115649457,724.6481537174288,10.129930898086128,0.18309833423600555,-0.24410241055697873,0.7178128662918511
20494884,1505,1,190342.0,239421,-0.25,-1.29,8.66,-0.01,0.02,-0.08,26.61,18.575391,-268.3744592553987,682.5928346494211,8.759120960461729,0.08306623862918075,-1.3324708505410425,0.6761918740708912
20534200,1339,1,189811.0,235084,1.44,-1.01,10.01,-0.04,-0.06,-0.04,26.61,18.614707,-409.8052047946887,417.00680391546405,10.163355745028312,0.0824621125123532,-2.037939417191323,0.41334868647556544
20574198,1339,1,188786.0,236965,-0.61,-0.54,10.32,-0.02,-0.01,0.01,26.61,18.654705,-403.6178993120576,233.77417632380286,10.352106065917216,0.024494897427831782,-2.0070766121229116,0.23200839619537453
20614198,1339,1,190059.0,237894,1.06,-0.56,10.01,-0.04,0.01,-0.04,26.61,18.694705,-378.8453177453369,282.19731408023745,10.081532621580907,0.05744562646538029,-1.8835088720006155,0.27993144337558723
20654175,1339,1,190298.0,239414,0.84,-0.22,9.6,-0.04,-0.02,-0.03,26.61,18.734682,-355.92294203549835,439.66144321150125,9.639190837409538,0.053851648071345036,-1.76917011578055,0.43576935969371977
20694198,1432,1,190508.0,237895,1.28,-0.7,10.19,-0.08,0.04,-0.02,26.61,18.774705,-280.93709696787874,430.79501558916326,10.293905964210087,0.0916515138991168,-1.3951343540570302,0.42699450021636626
20734199,1441,1,188724.0,235326,1.13,0.06,8.02,-0.07,-0.02,-0.02,26.61,18.814706,-194.15344428970036,65.00107475225609,8.099438252125884,0.07549834435270751,-0.9622501263023073,0.06497830099487725
20774177,1424,1,189419.0,237231,0.46,-1.22,11.39,-0.09,0.05,-0.02,26.61,18.854684,-292.0464037371356,-600.1740078587089,11.46438397821706,0.10488088481701516,-1.450548519436005,-0.5933271774193385
20814178,1392,1,188612.0,234985,0.85,-0.09,8.62,-0.03,-0.01,-0.01,26.61,18.894685,-202.99999539188514,-1273.2380090535935,8.662274528090181,0.033166247903554,-1.0063774742990905,-1.2594401015096204
20854198,1843,1,188597.0,235031,0.57,-0.73,10.93,-0.07,0.01,0.01,26.61,18.934705,147.26853619757546,-1598.2035166357214,10.969170433537807,0.07141428428542851,0.7407917001324262,-1.5810495236444067
20894169,1629,1,187558.0,234234,0.74,-0.72,7.98,-0.06,0.01,0.12,26.61,18.974676,31.722223201751305,-1382.0541447096584,8.046514773490447,0.1345362404707371,0.16443688067597537,-1.3671324371290954
20932169,1390,1,188803.0,237454,0.6,-1.4,10.68,-0.04,0.02,-0.01,26.61,19.012676,-260.5042406196801,-742.6401233879668,10.788067482176777,0.0458257569495584,-1.2932135317805875,-0.7343219723132942
20972175,1339,1,190169.0,238741,0.17,-0.22,9.78,-0.04,0.05,-0.04,26.61,19.052682,-282.79902690006134,-51.149584861447444,9.783951144604105,0.0754983443527075,-1.4044218186422692,-0.04997281119199616
21012177,1339,1,190690.0,239344,0.61,-1.15,10.77,-0.04,0.01,-0.04,26.61,19.092684,-278.1652051432118,327.93446845424995,10.848386976873567,0.05744562646538029,-1.3813079222935478,0.3251962467012084
21052177,1339,1,190226.0,237058,0.5,-0.47,9.35,-0.03,0.02,-0.02,26.61,19.132684,-290.12282345330857,308.3572865765778,9.375147998831805,0.0412310562561766,-1.4409535376624611,0.30582124842046154
21092178,1339,1,189501.0,238739,0.44,-0.34,10.92,-0.05,-0.0,-0.01,26.61,19.172685,-284.7686051916627,126.2263417310593,10.93414834360683,0.050990195135927854,-1.4142462423839621,0.12557126324372314
21132198,1435,1,189913.0,238681,0.79,0.01,8.5,-0.08,0.06,-0.03,26.61,19.212705,-176.37436152835187,106.83203965625711,8.536638682760328,0.1044030650891055,-0.8735665519905191,0.10637725607233663
21172169,1489,1,190064.0,239672,1.7,0.32,10.69,-0.06,-0.02,-0.02,26.61,19.252676,-166.4688432747307,361.09859755602446,10.82905813078866,0.066332495807108,-0.8241569859328403,0.35801787283434366
21212178,1458,1,190892.0,239778,0.67,-0.38,9.8,-0.09,0.04,-0.02,26.61,19.292685,-139.8177111239604,684.7209477668756,9.830223802131874,0.1004987562112089,-0.6912188760026484,0.6782980090728314
21252177,2007,1,190761.0,239550,0.54,0.19,10.16,-0.04,-0.0,-0.06,26.61,19.332684,328.9327768236462,745.4417672750144,10.176114189610885,0.07211102550927978,1.6469483562216276,0.7383917335387359
21292178,2283,1,190676.0,238027,0.78,-1.22,10.33,-0.07,-0.01,-0.03,26.61,19.372685,669.9524779844929,385.5933828223037,10.430997076022981,0.07681145747868609,3.347983579221395,0.3822596878916319
21332199,2319,1,189406.0,236689,0.38,-1.07,8.89,-0.04,-0.03,0.01,26.61,19.412706,638.1729926255045,-229.19739310919155,8.96222070694535,0.05099019513592785,3.1894648080758317,-0.22618182841654125
21372178,2319,1,188986.0,235206,0.34,-0.83,9.68,-0.04,-0.04,-0.0,26.61,19.452685,668.0346553449248,-742.3862349796884,9.721465938838648,0.0565685424949238,3.338417317066256,-0.7340707059408085
21412197,2319,1,188705.0,235041,0.21,-0.61,9.93,-0.03,-0.01,-0.01,26.61,19.492704,641.9630545976288,-897.3500578957484,9.950934629470742,0.033166247903554,3.208369958980572,-0.8874341379882419
21452198,2250,1,189173.0,237153,0.51,-1.2,11.3,-0.03,-0.03,-0.01,26.61,19.532705,554.6419289884753,-725.9665807366216,11.374976923053515,0.04358898943540673,2.77280477061306,-0.7178206258875243
21492198,2142,1,189906.0,237557,0.75,-0.52,9.7,-0.0,-0.03,-0.09,26.61,19.572705,464.5004836887865,-470.4179066552857,9.742838395457454,0.09486832980505137,2.3231715881754402,-0.4649111340152574
21532881,1999,1,189632.0,237703,0.43,-0.71,9.35,-0.03,-0.01,0.01,26.55,19.613388,261.6241271181909,-319.0728803044853,9.386772608303666,0.033166247903554,1.3112070967818117,-0.31512912536514354
21572218,1840,1,189678.0,237953,0.89,-1.14,9.34,-0.04,0.01,-0.02,26.55,19.652725,151.82202704531898,-208.790942017496,9.451312078224905,0.045825756949558406,0.7635048990861882,-0.2059861252102145
21612178,1742,1,189521.0,237763,1.28,0.03,9.18,-0.03,-0.02,-0.02,26.55,19.692685,-26.604558564573562,115.1773082879378,9.268856455895733,0.0412310562561766,-0.12650205889556163,0.11463633883519288
21652177,1339,1,190684.0,239902,0.64,-0.18,9.99,-0.02,0.01,-0.01,26.55,19.732684,-376.1912697128117,827.903226630449,10.012097682304143,0.024494897427831782,-1.8702702550776322,0.8200015711150825
21692175,1339,1,191550.0,240885,0.86,-0.44,10.23,-0.02,-0.01,-0.04,26.55,19.772682,-447.0465125711533,1784.3445437203513,10.275509719717071,0.045825756949558406,-2.223702222280587,1.7665652282360713
21732198,1339,1,192198.0,242151,0.4,-1.62,11.06,-0.02,-0.01,-0.03,26.55,19.812705,-412.43814430685245,2535.929125919175,11.185168751520917,0.03741657386773942,-2.0510727430225657,2.5103878110229223
21772198,1339,1,192288.0,241761,0.36,-1.16,9.66,-0.02,-0.03,-0.01,26.55,19.852705,-464.7972783911372,2623.0137805700965,9.736056696630316,0.03741657386773942,-2.312244549284654,2.596573097786048
21812198,1339,1,192641.0,241115,0.01,-2.16,11.6,-0.04,-0.01,-0.0,26.55,19.892705,-439.1467996558525,1930.8296534046767,11.799394052238444,0.04123105625617661,-2.1842977835494217,1.9115375110714132
21852195,1339,1,190424.0,236226,0.31,-0.91,9.79,0.0,-0.06,0.02,26.55,19.932702,-495.24343002439656,817.0330871671971,9.837087983748035,0.06324555320336758,-2.464112538602194,0.8092436931565504
21892169,1339,1,188636.0,235973,0.23,-1.66,11.1,-0.01,-0.08,0.185,26.55,19.972676,-454.31083821508105,-127.13343181844304,11.225796185571872,0.20180436070610563,-2.259937295355832,-0.1251719339950261
21932178,1583,1,188992.0,235278,0.55,-0.74,9.39,-0.05,0.01,-0.0,26.55,20.012685,-282.32439918507777,-516.6116582232388,9.435157656340461,0.050990195135927854,-1.4020543353025952,-0.5106278190214427
21972177,1678,1,189205.0,238459,0.17,-0.64,11.03,0.01,-0.05,-0.01,26.55,20.052684,-137.058266795132,-446.8610766635725,11.049859727616454,0.05196152422706632,-0.6774545334052391,-0.4415975874874075
22012178,2098,1,190211.0,236283,0.84,-0.39,9.5,-0.07,0.0,-0.17500000000000002,26.55,20.092685,218.1969319718328,-359.4774264976492,9.545035358761119,0.18848076824970766,1.0945885602908736,-0.35511639308929627
22052178,2319,1,188723.0,236016,0.82,-0.14,10.33,-0.04,-0.02,-0.02,26.55,20.132685,469.72781564925003,-621.4830001452293,10.363440548389324,0.048989794855663564,2.349245963810609,-0.6144161008147252
22092198,2319,1,188705.0,232991,0.97,-0.65,9.72,-0.1,0.02,-0.02,26.55,20.172705,435.36967702599503,-1198.897259694016,9.78988253249241,0.10392304845413264,2.1778646512473814,-1.1858671071924978
22132177,2319,1,186990.0,233805,0.84,-1.0,10.09,-0.02,-0.05,0.185,26.55,20.212684,438.7264786260919,-1705.7989781973886,10.174168270674512,0.19267848867997692,2.1946086626313264,-1.6875337916968494
22172180,2224,1,188120.0,233255,0.87,-1.22,8.83,-0.135,0.04,-0.02,26.55,20.252687,332.0063021577193,-1762.7729863556426,8.956238049538433,0.14221462653327893,1.6622793615396299,-1.743919400055139
22212177,1900,1,187860.0,235705,0.27,-1.01,8.97,-0.02,-0.05,-0.01,26.55,20.292684,0.5830430733018456,-1335.4493032778425,9.030719794124941,0.05477225575051661,0.009112006384201076,-1.3210089077948886
22252198,1477,1,189268.0,235617,0.59,-1.55,8.94,-0.08,0.03,-0.04,26.55,20.332705,-425.31738659967033,-764.6302229752506,9.092535399986078,0.09433981132056604,-2.11531549706597,-0.7560849688650603
22292178,1373,1,188935.0,237005,0.22,-0.52,9.73,-0.03,-0.0,-0.01,26.55,20.372685,-543.3027706815656,-477.49498954985467,9.74636855449249,0.03162277660168379,-2.703836610184294,-0.47191512824546683
22332195,1731,1,189587.0,235738,0.3,-0.61,9.12,-0.08,0.05,-0.01,26.55,20.412702,-172.97333372196337,-633.8421054177962,9.14529933900471,0.09486832980505139,-0.8566019365346521,-0.6266475672690801
22372201,1969,1,187947.0,233098,1.05,0.17,9.14,-0.03,-0.01,-0.01,26.55,20.452708,34.82113983983491,-1002.5709175488779,9.201684628371046,0.033166247903554,0.1798945399741809,-0.9915683278638124
22412178,1943,1,188087.0,236862,-0.2,-2.07,11.16,-0.06,0.03,0.13,26.55,20.492685,38.64301836892931,-1162.432061734545,11.352114340509436,0.14628738838327796,0.1989583945664109,-1.1497785040326312
22452178,2121,1,188820.0,235673,0.99,0.57,7.59,-0.05,0.05,-0.1,26.55,20.532685,183.97523593447391,-849.3742350815787,7.6754869552361304,0.12247448713915891,0.9238878349304863,-0.839953786099491
22492166,2127,1,189352.0,239763,1.16,-0.56,11.58,-0.06,0.03,-0.01,26.55,20.572673,206.56305698110592,-159.3884303344424,11.651420514254903,0.06782329983125268,1.0365578040857695,-0.15709381860017074
22532177,2021,1,190383.0,239512,0.62,0.47,7.02,-0.12,0.12,-0.17,26.55,20.612684,104.50670233736345,548.269591503521,7.062980957074711,0.24020824298928628,0.5274920422279811,0.5432558559413193
22572869,2010,1,190681.0,241151,1.2,-0.74,12.61,-0.04,-0.03,-0.02,26.61,20.653376,63.34754253471378,947.6208234201486,12.688565718787919,0.05385164807134504,0.32218665859455714,0.9384827828885197
22611198,1970,1,190530.0,239039,0.75,-0.79,9.14,-0.09,0.03,-0.03,26.61,20.691705,77.2154711880027,990.4090435111979,9.204683590433731,0.09949874371066199,0.3913610641464689,0.980829107087806
22651175,1819,1,190122.0,240645,0.26,-1.65,12.31,-0.03,0.01,-0.0,26.61,20.731682,-137.07037680043715,909.0632131776858,12.422809666094059,0.03162277660168379,-0.6775149391398774,0.9003233768603498
22691182,1424,1,191074.0,239360,-0.13,-1.76,10.61,-0.04,0.02,-0.05,26.61,20.771689,-467.06720859139324,992.9728340625726,10.755770544224156,0.0670820393249937,-2.323567153847507,0.98336642005938
22731197,1761,1,190290.0,241216,0.15,-1.34,10.42,0.0,-0.05,0.02,26.61,20.811704,-176.20558427453523,1326.9078277708036,10.506878699214148,0.05385164807134505,-0.8727246767187797,1.3138526958372656
22771169,2237,1,191804.0,240530,0.77,-1.07,11.54,-0.06,0.02,-0.17500000000000002,26.61,20.851676,330.8217042158967,1698.6945306784855,11.615050581034934,0.18607794065928396,1.6563704864298519,1.6817997668023843
22811177,2319,1,191032.0,241868,0.03,-1.17,11.05,0.03,-0.13,0.01,26.61,20.891684,406.6351324919169,1748.8337803441407,11.111809033636243,0.13379088160259653,2.0345343034612045,1.7314212027240654
22851169,2319,1,191733.0,238947,-0.02,-0.54,10.4,-0.06,0.02,-0.06,26.61,20.931676,408.30080667367054,1250.753605775108,10.414028999383476,0.08717797887081347,2.0428428277005937,1.2384849575459331
22891195,2319,1,189625.0,238782,0.56,-0.7,10.68,0.0,-0.12,0.04,26.61,20.971702,413.8081065222644,305.60964949441836,10.71755569148115,0.12649110640673517,2.070313706931881,0.30310198759550744
22931170,2287,1,188979.0,235137,1.15,-1.05,8.02,-0.11,-0.01,-0.02,26.61,21.011677,390.070431250612,-705.6250225418005,8.169785798905624,0.11224972160321824,1.9519081672760765,-0.6976891453958473
22971198,2256,1,187736.0,235433,0.51,0.19,8.59,-0.06,-0.02,0.09,26.61,21.051705,347.0497682991463,-1377.4706687677428,8.607223710349349,0.11,1.7373174478890814,-1.3625962970937544
23011169,2106,1,188510.0,235064,0.68,-0.92,8.63,-0.13,0.04,-0.01,26.61,21.091676,221.90113153669287,-1535.8307427833217,8.705498262592442,0.13638181696985857,1.1130654222182008,-1.5193209054139185
23051177,2071,1,188503.0,236719,0.68,-0.94,10.01,-0.04,-0.04,-0.01,26.61,21.131684,166.5554209283756,-1294.9412500777435,10.077008484664484,0.05744562646538029,0.8369963186848108,-1.2809192020337423
23091198,1985,1,189102.0,236287,0.47,-1.14,9.16,-0.06,-0.02,-0.02,26.61,21.171705,98.92715544183608,-898.3596490629532,9.24262408626468,0.066332495807108,0.4996607885925951,-0.8884333025897191
23131199,1895,1,188937.0,237256,-0.08,-1.68,9.06,0.0,-0.01,-0.01,26.61,21.211706,4.350669094979654,-510.15378014678663,9.214792455611793,0.01414213562373095,0.027905244863234303,-0.5042366347636494
23171198,1831,1,189567.0,238477,0.3,-1.69,9.98,-0.01,-0.03,-0.02,26.61,21.251705,-63.70816684450688,-139.42104924633065,10.126524576576113,0.03741657386773942,-0.31157800720502166,-0.13733265089633453
23211197,1663,1,189994.0,238989,0.35,-1.27,9.29,-0.01,0.01,-0.01,26.61,21.291704,-219.27555461223608,263.75697306038575,9.38293664051932,0.017320508075688773,-1.087561345534663,0.26168154521412135
23251177,1535,1,189753.0,239505,0.66,-0.26,10.02,-0.01,-0.0,-0.0,26.61,21.331684,-362.2891767868614,662.8941738542715,10.045078396906616,0.01,-1.8009254352330348,0.6566966514477451
23291195,1422,1,190810.0,240665,0.13,-1.02,10.36,-0.02,0.04,-0.02,26.61,21.371702,-464.5400234558449,900.5526494199314,10.410902938746474,0.048989794855663564,-2.31096133982569,0.8919007060589543
23331178,1339,1,190372.0,240948,0.98,-0.48,9.97,-0.01,-0.01,-0.01,26.61,21.411685,-555.8917177132159,826.3846466961935,10.029541365386555,0.017320508075688773,-2.766631346818045,0.8184986743345743
23371199,1339,1,190974.0,238917,0.59,-0.44,9.68,-0.04,0.04,-0.01,26.61,21.451706,-557.0018586546927,472.18973586874387,9.707940049258648,0.05744562646538029,-2.772168824088472,0.4679617159913589
23411177,1339,1,188994.0,237104,0.96,-0.41,9.92,-0.02,-0.04,0.04,26.61,21.491684,-558.6752288939551,82.31955366258431,9.97477318037859,0.06,-2.780515736916134,0.082117923092144
23451175,1339,1,188979.0,235041,0.62,-0.77,9.06,-0.06,0.02,-0.02,26.61,21.531682,-561.4569051889741,-76.08340281702331,9.11377528799125,0.066332495807108,-2.7943909744484636,-0.07464912482285158
23491178,1503,1,188832.0,238479,0.66,-0.37,11.44,-0.01,-0.04,-0.01,26.61,21.571685,-408.76728097742193,31.340634402378726,11.464994548624956,0.042426406871192854,-2.0327621650679086,0.031665489274419235
23531197,1535,1,190297.0,237317,0.34,-0.79,9.75,-0.06,0.01,-0.03,26.61,21.611704,-362.253794911111,145.68853892437372,9.787859827357561,0.06782329983125268,-1.8007489474327631,0.14483246434591465
23571181,1339,1,189570.0,236899,-0.34,-1.13,11.45,0.03,-0.03,0.01,26.61,21.651688,-593.6456128147413,-57.07489604529979,11.510647245050993,0.04358898943540673,-2.954950981004934,-0.05583692864860325
23610865,1450,1,188621.0,234210,0.23,-1.79,9.57,-0.04,-0.02,0.03,26.79,21.691372,-444.71626449922127,-649.1418267118365,9.738680608788853,0.053851648071345036,-2.2120787470526437,-0.6417892804952324
23651178,2103,1,187378.0,232374,0.18,-1.39,10.55,0.02,-0.06,0.15,26.79,21.731685,156.73054589826165,-1348.4296730841534,10.642697026599977,0.16278820596099705,0.7879890078728408,-1.3338552226655473
23691169,2319,1,186367.0,233337,0.78,-1.15,9.0,-0.01,-0.04,0.185,26.79,21.771676,414.8466743806864,-1727.5235867159229,9.106640434320441,0.18953891421024865,2.075494171587259,-1.7090340390422833
23731178,2319,1,188258.0,235901,0.35,-0.48,9.22,-0.06,-0.01,-0.0,26.79,21.811685,374.5083958268986,-1535.412186784162,9.239117923265187,0.0608276253029822,1.874283413318472,-1.5189066720572082
23771198,2319,1,188026.0,236002,1.45,-0.1,9.55,-0.02,-0.06,-0.01,26.79,21.851705,396.0845072647947,-855.7878636026887,9.659968944049458,0.06403124237432849,1.9819068890481588,-0.8463011777897924
23811201,2319,1,189156.0,236580,0.24,-1.34,10.3,-0.07,0.04,-0.01,26.79,21.891708,384.2428159832374,-12.585584121222809,10.389571694733139,0.08124038404635961,1.9228395275401577,-0.011807080664011914
23851178,2319,1,188071.0,236492,0.94,-0.8,9.25,-0.0,-0.05,-0.01,26.79,21.931685,380.5604765898429,649.544609704031,9.331993356191377,0.050990195135927854,1.9044717060040957,0.6434849550924788
23891198,2319,1,190077.0,239206,0.36,-1.4,12.49,-0.04,-0.01,-0.0,26.79,21.971705,393.7790088888013,943.0933649861084,12.573372658121606,0.04123105625617661,1.9704068674048818,0.9340020818395233
23931197,2319,1,189063.0,238100,0.89,-0.97,8.35,-0.01,-0.06,-0.04,26.79,22.011704,373.74984638486933,902.5709242487168,8.453135512932464,0.07280109889280519,1.8704997042984761,0.8938981371285604
23971198,2273,1,189924.0,237158,0.04,-1.34,10.93,-0.05,0.01,-0.0,26.79,22.051705,357.8053572137411,735.1712434694639,11.011907191762925,0.050990195135927854,1.7909672385772804,0.72822727869951
24011192,2243,1,187920.0,234830,-0.1,-0.14,8.37,0.01,-0.08,0.07,26.79,22.091699,298.7044123598236,671.9460455109671,8.371768033097906,0.10677078252031312,1.4961667077960314,0.6656550397838131
24051178,2117,1,188866.0,236455,-0.65,-1.82,11.7,-0.05,0.03,0.1,26.79,22.131685,213.7467121318269,782.1336278261746,11.85853700926046,0.11575836902790226,1.0723904858917293,0.7747046584294691
24091177,2121,1,188344.0,235667,0.32,0.12,9.42,0.05,-0.08,0.01,26.79,22.171684,187.15824426627736,889.3287144665284,9.426197536652836,0.09486832980505139,0.9397649507366069,0.8807926864377331
24131147,2112,1,189146.0,236621,0.26,-1.71,11.92,-0.05,-0.01,-0.02,26.79,22.211654,219.3921771378772,704.7649965826844,12.044837068221389,0.05477225575051661,1.1005505446590518,0.6981350527174236
24171198,2093,1,187744.0,233500,1.14,0.22,8.51,-0.03,-0.09,-0.03,26.79,22.251705,182.8275013650712,116.92168591252073,8.588835776751118,0.09949874371066199,0.9181628374521511,0.11636270137748572
24211182,1966,1,187234.0,232686,0.63,-0.78,8.7,-0.09,-0.0,0.0,26.79,22.291689,80.81198034118054,-605.4229090061558,8.757585283626987,0.09,0.4093007571570819,-0.5985218704728663
24251175,1933,1,186523.0,230794,0.88,-0.46,9.42,-0.05,0.03,-0.0,26.79,22.331682,56.67522366536652,-923.4217120825424,9.47219087645514,0.05830951894845301,0.28890456557409444,-0.9132365368320445
24291178,1872,1,186491.0,233104,0.93,-1.17,12.21,-0.02,-0.09,0.1,26.79,22.371685,-1.7215759897483105,-432.79502391165977,12.301134094058158,0.13601470508735444,-0.002383629171458513,-0.4276768020756918
24331178,1784,1,187173.0,235031,0.9,-0.62,7.7,-0.03,0.03,-0.04,26.79,22.411685,-60.99110630036868,739.4152771133707,7.777171722419404,0.05830951894845301,-0.29802507852415916,0.7324274820315283
24371178,1826,1,189035.0,239211,0.38,-1.1,9.5,-0.01,0.03,-0.17500000000000002,26.79,22.451685,-21.097539809121212,1911.323023535262,9.571018754552725,0.17783419243778742,-0.09903258178072943,1.8922323361721538
24411178,1783,1,190805.0,239779,0.58,-1.38,10.09,-0.04,0.02,-0.17500000000000002,26.79,22.491685,-41.44156105077658,2294.0258466664495,10.200436265180034,0.18062391868188446,-0.2005102870033637,2.270982790989167
24451178,1766,1,188612.0,233719,1.05,0.31,9.07,-0.01,-0.06,0.03,26.79,22.531685,-42.33683149814195,1588.8455626397454,9.13583603180355,0.06782329983125268,-0.20497597200600515,1.5730852653899126
24491166,1702,1,186755.0,230315,0.02,-1.28,11.97,-0.1,0.02,0.185,26.79,22.571673,-102.86474126855437,224.7370509814381,12.038259841023535,0.2112463017427761,-0.5068943249443907,0.2230646018808871
24531169,1508,1,184564.0,229086,0.16,-1.54,7.52,0.01,-0.06,0.185,26.79,22.611676,-267.35011271467806,-989.8726262349421,7.677734040718003,0.19474342094150446,-1.3273613230257924,-0.979001178316281
24571169,1569,1,185563.0,228353,1.0,-0.68,9.15,-0.12,0.08,-0.01,26.79,22.651676,-203.9228091325851,-1498.9129149835373,9.229566620378229,0.1445683229480096,-1.0109805475873943,-1.4827843469542195
24609177,1639,1,185186.0,232207,-0.3,-0.03,10.21,0.065,-0.11,0.02,26.79,22.689684,-117.20318025239263,-1357.5243919477853,10.21445054812054,0.12932517156377563,-0.5784156759728402,-1.3428560157034723
24650865,1558,1,186747.0,230377,0.4,-0.96,8.36,-0.06,0.12,-0.17500000000000002,26.65,22.731372,-176.51078671024507,-1035.3623281271935,8.424440634249848,0.22051077071199945,-0.8742470523807152,-1.0240210847288198
24689178,1584,1,185464.0,229955,0.26,-0.11,10.95,0.065,-0.12,0.02,26.65,22.769685,-155.5154025444409,-903.4800071240268,10.953638664845577,0.1379311422413372,-0.769520293589734,-0.8935007800872468
24729169,1555,1,185844.0,230587,0.62,-1.35,10.46,-0.05,-0.0,0.05,26.65,22.809676,-151.25890516968022,-907.5378101548143,10.5649656885387,0.07071067811865477,-0.7482885232948592,-0.8975166761051913
24769178,1525,1,185091.0,228782,0.73,0.0,8.1,-0.0,0.0,0.01,26.65,22.849685,-190.47618876402498,-712.4326130702,8.132828536247398,0.01,-0.9439076635300641,-0.7044264304457551
24809147,1535,1,186248.0,232445,-0.23,-2.6625000000000005,11.88,-0.13,0.06,0.01,26.65,22.889654,-157.94559919695925,-139.32318936825814,12.176871776035092,0.14352700094407325,-0.7816423208235801,-0.13723580166740793
24849178,1598,1,186623.0,233523,1.05,0.21,7.94,-0.03,0.0,-0.12,26.65,22.929685,-91.2981575093191,557.7294290395114,8.01187868105852,0.12369316876852982,-0.44919922311519694,0.5526179968838312
24889169,1666,1,188763.0,236898,0.34,-1.04,13.2,-0.03,-0.06,-0.11,26.65,22.969676,-20.81467841534526,868.0984767554136,13.24527085415772,0.12884098726725127,-0.09762164513278264,0.8597817042788645
24929198,1719,1,187544.0,232824,0.44,-1.12,8.83,-0.08,0.03,-0.05,26.65,23.009705,47.328197552001896,502.25246314512174,8.911616015067077,0.09899494936611665,0.24228080572969599,0.4977139700662258
24969178,1762,1,186310.0,231019,0.04,-0.48,11.03,-0.03,-0.05,0.01,26.65,23.049685,80.98352042861961,-293.62202828607326,11.04051176350082,0.05916079783099616,0.410156413677503,-0.28994111734736705
25009178,1730,1,184912.0,228627,1.14,-0.42,7.76,-0.06,-0.03,0.04,26.65,23.089685,63.39909847489206,-916.0219028188797,7.8545273568815075,0.07810249675906654,0.3224438240014224,-0.9059131491934572
25049178,1723,1,185286.0,231168,0.21,-1.04,11.44,-0.09,0.03,0.12,26.65,23.129685,45.659915204352565,-930.3691768026773,11.489094829445877,0.15297058540778355,0.23395927173737757,-0.9201122515211787
25089169,1697,1,186834.0,233587,0.73,-0.44,10.66,-0.03,0.0,-0.09,26.65,23.169676,28.042584276810462,-448.75869747245173,10.694021694386073,0.09486832980505137,0.14608252930583815,-0.44347561059304547
25129178,1706,1,187589.0,235825,0.74,-0.17,10.19,-0.01,-0.01,-0.03,26.65,23.209685,22.694505411474744,1.7167724878393564,10.21824838218371,0.033166247903554,0.11940585785738762,0.002347568173737835
25169198,1729,1,187823.0,232608,1.0,-0.74,9.77,-0.06,-0.02,-0.1,26.65,23.249705,57.085049088625404,-13.045532388120572,9.848883185417522,0.11832159566199232,0.2909488095807342,-0.012262278809284306
25209195,1750,1,185933.0,233464,0.66,-0.84,9.56,-0.0,-0.07,0.03,26.65,23.289702,47.94949809571523,-442.1649771057215,9.619501026560577,0.07615773105863909,0.24537990559204326,-0.4369499869579692
25249178,1684,1,186593.0,230091,0.74,-0.39,7.87,-0.08,0.06,-0.0,26.65,23.329685,7.355280642850929,-839.1460564247448,7.914328777603316,0.1,0.042892502364671854,-0.8298312390889152
25289178,1666,1,185404.0,232757,0.13,-1.26,10.42,0.04,-0.11,0.14,26.65,23.369685,-60.721320338278055,-822.4761306761626,10.496709008065338,0.1824828759089466,-0.2966793632396027,-0.8133334722122987
25329169,1525,1,187107.0,234115,1.07,-1.14,8.45,-0.04,0.02,-0.04,26.65,23.409676,-166.35595664026388,-442.1921475484433,8.593427721229753,0.06,-0.8235938978157014,-0.43697687679759534
25369178,1567,1,188223.0,237731,0.17,-1.09,10.85,0.01,-0.05,-0.01,26.65,23.449685,-181.13688489312358,-90.73518426529031,10.905938749140304,0.05196152422706632,-0.897322422886714,-0.08914958981029779
25409178,1601,1,189154.0,235257,0.75,-0.74,9.6,-0.05,0.01,-0.16,26.65,23.489685,-118.97599768617938,-58.93704022512629,9.65764464038722,0.16792855623746666,-0.5872586398501587,-0.05767984151052999
25449180,1700,1,186633.0,232499,0.87,-0.05,9.67,-0.0,-0.05,0.0,26.65,23.529687,-65.34004366171004,-210.1754503672984,9.709186371679143,0.05,-0.3197179473205343,-0.20735633503227754
25489178,1747,1,187466.0,234342,0.74,-0.48,10.4,-0.08,0.06,-0.0,26.65,23.569685,-9.578271459851566,-136.46348589897005,10.437336825071807,0.1,-0.041573493233666436,-0.1344056318223755
25529178,1808,1,187181.0,234664,1.23,0.82,8.72,-0.01,-0.01,-0.01,26.65,23.609685,23.11209787869627,351.34900511399627,8.844416317654886,0.017320508075688773,0.12148884453875872,0.3483689694333022
25569178,1807,1,189748.0,239977,0.57,-1.02,12.71,-0.07,0.04,-0.01,26.65,23.649685,15.696774928096692,933.136227476095,12.763596671784956,0.08124038404635961,0.084500584077704,0.9241477767948479
25609178,1844,1,190226.0,238742,0.88,0.84,7.7,-0.05,0.0,-0.17500000000000002,26.65,23.689685,31.22838572564633,1046.964542935448,7.795511529078769,0.18200274723201298,0.16197357741686058,1.03680052886641
25650866,1883,1,190224.0,236715,0.18,-1.52,11.31,-0.06,-0.03,0.0,26.59,23.731373,64.64212212623484,486.63871766829845,11.413102119932162,0.0670820393249937,0.3286441315108075,0.48226147574606576
25689178,1910,1,187347.0,233258,1.15,-1.83,8.66,-0.04,-0.07,0.01,26.59,23.769685,61.883266784970864,-285.56758957313536,8.925637232153232,0.08124038404635961,0.31488272683337626,-0.28196986095353777
25729177,1917,1,186911.0,234803,-0.01,-1.31,7.9,-0.04,-0.0,0.02,26.59,23.809684,76.75820520304597,-482.091854756105,8.007883615537878,0.044721359549995794,0.38908018259023236,-0.47646451926734334
25769195,1963,1,189003.0,238410,0.45,-0.55,11.06,-0.04,-0.01,-0.01,26.59,23.849702,80.85624944612978,293.9205298756925,11.082806503769703,0.042426406871192854,0.40952157521115035,0.2915335875095607
25809198,1919,1,190863.0,242294,0.39,-0.31,11.22,0.02,-0.02,-0.09,26.59,23.889705,54.23231330657075,1637.694852359819,11.231055159690028,0.09433981132056604,0.27671912129390425,1.6214300634438943
25849198,1984,1,192443.0,242877,0.26,-0.49,9.48,-0.02,0.03,-0.17500000000000002,26.59,23.929705,78.20615141163319,2638.4319048014554,9.496215035475977,0.1786756838520564,0.39630266121370084,2.611831991141665
25889178,1981,1,191775.0,241928,0.93,-1.02,10.83,-0.02,-0.05,-0.02,26.59,23.969685,86.32675027694876,2618.8746493801855,10.917609628485533,0.057445626465380296,0.43680889781742843,2.5924767135265863
25929198,2002,1,191064.0,240245,0.62,-0.93,9.79,-0.05,-0.02,-0.0,26.59,24.009705,82.59051596829954,1658.7137820090836,9.853598327514675,0.05385164807134505,0.4181722438682337,1.6422319198276316
25969198,2009,1,188727.0,234147,1.46,0.98,7.77,-0.05,-0.05,-0.0,26.59,24.049705,85.88469817370465,461.46136798523366,7.966486050951197,0.07071067811865477,0.4346039043948792,0.45734414546476043
26009178,1942,1,188218.0,237417,-0.13,-2.52,13.05,-0.12,0.05,0.185,26.59,24.089685,12.057727217937508,-277.2150448620013,13.291719226646341,0.22610838109190026,0.06634870513321524,-0.273703577255032
26049178,1914,1,188898.0,236383,1.04,0.31,8.42,-0.02,-0.01,-0.02,26.59,24.129685,-28.72269228951364,-415.21905909130277,8.489646635755813,0.03,-0.13706748975155594,-0.41028235325743445
26089178,1957,1,190347.0,240008,-0.16,-1.15,13.01,-0.03,-0.03,0.0,26.59,24.169685,16.851273717664895,-356.19874212240614,13.061707392220972,0.042426406871192854,0.09025932206052756,-0.35187156936898867
26129198,2002,1,188995.0,235194,0.57,-1.37,6.64,-0.08,0.02,-0.07,26.59,24.209705,48.77933975674583,-557.9747715125562,6.803778362057365,0.10816653826391968,0.24951922625334397,-0.5515637542277695
26169178,2017,1,188267.0,234503,0.89,-1.7,11.08,-0.04,-0.07,-0.0,26.59,24.249685,69.85404380019612,-1068.9957022813824,11.244932191880928,0.0806225774829855,0.35464163932852283,-1.0573071097800726
26209198,2019,1,187182.0,232764,0.45,-0.26,7.43,-0.06,-0.0,0.0,26.59,24.289705,61.545512173987106,-1529.2983946260101,7.448154133743474,0.06,0.3131979781573959,-1.512856020165981
26249175,1952,1,187069.0,234619,0.97,0.66,10.76,-0.05,0.02,0.0,26.59,24.329682,3.448219821357114,-1579.9940785777453,10.823774757449454,0.05385164807134505,0.023403751265717938,-1.5630281437915161
