timestamp_us,ecg,leads,ir,red,accX,accY,accZ,gyroX,gyroY,gyroZ,temp,time_sec,ecg_filtered,ppg_filtered,accel_magnitude,gyro_magnitude,ecg_norm,ppg_norm
1948967,1945.0,1,192884,237851,0.1,-0.27,9.83,-0.02,-0.13,0.0275,26.05,0.030469,17.00540457065923,364.78849833873227,9.834215779613542,0.1343735465037669,0.13874611920430452,0.39781323608081737
1989183,1698.0,1,194088,237137,0.5,-0.63,10.15,-0.07,0.11,-0.03,26.05,0.070685,-228.0435271079759,625.3386420298849,10.181817126623322,0.13379088160259653,-1.7806621127826971,0.6801475060041289
2029178,1712.0,1,193022,239462,1.01,-0.15,10.6,0.009999999999999998,-0.13,0.0275,26.05,0.11068,-183.5096287396073,873.8439342511441,10.64906568671637,0.1332525797123643,-1.431839000006108,0.9494298762128192
2069169,1620.0,1,195568,238353,-0.15,-0.67,9.66,-0.07,0.07,-0.02,26.05,0.150671,-294.26988290681214,1180.4873297400916,9.684368848820247,0.10099504938362078,-2.2993969288213543,1.281711171343485
2109195,1579.0,1,193472,238983,0.9,-1.05,9.54,0.009999999999999998,-0.06,0.0275,26.05,0.190697,-300.57824309458607,1638.4993420247638,9.639714726069439,0.06675514961409344,-2.3488087682927934,1.7780167395253332
2149169,1920.0,1,196311,240029,-0.27,-1.5349999999999997,8.540000000000001,-0.07,0.09,-0.0,26.05,0.230671,35.992731059674,2204.740924843869,8.681055523379632,0.1140175425099138,0.28746919470105536,2.391600756868867
2189194,1875.0,1,194958,242299,1.81,-1.5349999999999997,10.31,0.009999999999999998,-0.13,-0.02,26.05,0.270696,-7.8075888687108534,2614.4548170873036,10.579623102927627,0.1319090595827292,-0.05560797792036682,2.8355700865542395
2229177,1625.0,1,197756,242041,-0.02,0.0249999999999998,9.41,-0.07,0.09,-0.0325,26.05,0.310679,-220.70108947538066,2524.2741705568205,9.410054463179264,0.11855905701379377,-1.723150598089229,2.737849599285666
2269175,1797.0,1,196009,242164,-0.63,-1.5349999999999997,8.62,-0.02,-0.08,0.01,26.05,0.350677,-88.33528806317506,1816.5447116586854,8.778241566509775,0.08306623862918075,-0.6863617121971181,1.970948160466731
2309198,1824.0,1,195477,238309,0.81,0.0249999999999998,9.54,-0.03,-0.12,-0.03,26.05,0.3907,1.257714436299322,785.6830871889289,9.574357680805537,0.12727922061357855,0.015398321392598285,0.8538980601926522
2349175,1943.0,1,193550,238451,0.17,-1.43,10.44,0.009999999999999998,-0.08,0.0275,26.05,0.430677,71.39647082772059,-25.05184173391135,10.538851929883064,0.0851836251870041,0.5647780125294535,-0.024620949683950514
2389169,1935.0,1,194118,239043,1.18,-0.6,9.93,-0.06,-0.12,-0.02,26.05,0.470671,116.76690271491319,-250.07400539751728,10.017849070534053,0.13564659966250536,0.9201534873643661,-0.2684568094324532
2429195,1798.0,1,195406,242003,0.05,-0.84,11.26,0.009999999999999998,0.11,0.02,26.05,0.510697,-53.73718085508539,-19.081955888113015,11.291399381830402,0.11224972160321824,-0.415363216788595,-0.018151932480886052
2469147,1695.0,1,195424,241679,0.47,-0.17,8.540000000000001,0.009999999999999998,-0.13,-0.0,26.05,0.550649,-121.7914383206737,145.60413636760208,8.554612790769669,0.130384048104053,-0.9484155386510601,0.16030326606491047
2509175,1775.0,1,196203,241041,1.11,-1.5349999999999997,10.52,0.009999999999999998,-0.01,0.01,26.05,0.590677,-64.404567705741,-213.69525063092496,10.68918729370947,0.017320508075688773,-0.49891824392003303,-0.22903649278154434
2549170,1783.0,1,194460,237421,-0.29,-1.5349999999999997,8.540000000000001,-0.03,-0.13,0.0,26.05,0.630672,-29.854233826214802,-1077.669938440144,8.681700582259216,0.13341664064126335,-0.22829394528717417,-1.1652465414851938
2589195,1872.0,1,194011,236109,0.44,0.0249999999999998,9.57,-0.05,0.03,-0.02,26.05,0.670697,39.51789813786899,-1952.9174126311875,9.580142222326348,0.061644140029689765,0.31508096457357404,-2.11367187384989
2629169,1916.0,1,193241,236891,0.13,-0.87,9.12,0.009999999999999998,0.08,-0.0,26.05,0.710671,102.3829158106103,-2293.1923752318453,9.162325032435817,0.0806225774829855,0.8074872427748195,-2.482396610585858
2669164,1984.0,1,194561,237643,0.37,0.0249999999999998,8.98,-0.01,0.07,-0.02,26.05,0.750666,160.20476142872926,-1968.9439541936836,8.987654032059757,0.07348469228349536,1.2603915901140954,-2.131038365563694
2707168,2001.0,1,195973,243805,0.37,-0.83,11.26,0.009999999999999998,0.11,-0.02,26.05,0.78867,177.80335424746787,-1373.0476417606249,11.296610111002327,0.11224972160321824,1.3982370550842218,-1.4853202403025179
2747168,1906.0,1,196830,240008,0.0,0.0249999999999998,9.12,-0.03,0.01,-0.0325,26.05,0.82867,92.33541419980217,-1080.104057651584,9.120034265286506,0.045345892868042637,0.7287876248226831,-1.1678841730010792
2787169,1890.0,1,195896,242584,0.21,-0.69,11.26,0.009999999999999998,0.1,0.01,26.05,0.868671,52.630269500050495,-1374.290327326658,11.283075821778386,0.10099504938362078,0.4177869562342432,-1.486666824560963
2827146,1935.0,1,195255,239402,0.57,0.0249999999999998,10.65,0.009999999999999998,-0.07,-0.0,26.05,0.908648,126.44709332951834,-2055.296593262449,10.665271914020758,0.07071067811865477,0.9959760482937202,-2.224610792590757
2867169,1968.0,1,194323,240446,0.34,0.0249999999999998,11.26,-0.01,-0.03,0.0275,26.05,0.948671,119.52208081644116,-2647.4163551292254,11.26515978581751,0.04190763653560053,0.9417341222703708,-2.866236616723811
2907168,1809.0,1,195969,242265,0.62,-1.5349999999999997,11.06,-0.07,0.11,-0.01,26.05,0.98867,-6.190537983622187,-2771.685973108043,11.18321174797294,0.1307669683062202,-0.04294201459981887,-3.0008961926835447
2947177,1742.0,1,196983,243157,0.79,-0.13,11.26,0.009999999999999998,0.03,-0.01,26.05,1.028679,-109.44803860564834,-2353.594675564036,11.288427702740536,0.033166247903554,-0.8517327134641454,-2.54784903799343
2987851,1662.0,1,196920,243466,0.87,-1.09,10.56,-0.05,-0.13,-0.01,25.75,1.069353,-172.24536422996817,-1567.5006748161566,10.651694700844557,0.1396424004376894,-1.3436087764382108,-1.696031139726103
3028198,1657.0,1,197705,244745,0.33,-0.9,9.08,-0.07,-0.06,-0.01,25.75,1.1097,-192.88874594799177,-667.218514288293,9.130460010317114,0.09273618495495704,-1.5053033267233245,-0.7204780161825868
3068194,1699.0,1,198886,247052,0.75,-0.54,9.43,-0.01,-0.13,-0.0325,25.75,1.149696,-157.437635424956,135.19213127965776,9.475178098590021,0.1343735465037669,-1.2276234653794178,0.1490207320647483
3108198,1761.0,1,200390,248076,-0.13,0.0249999999999998,8.540000000000001,-0.07,0.06,-0.0325,25.75,1.1897,-94.42071714744465,726.4223620131866,8.541025992233019,0.09775607398008576,-0.7340273869646304,0.7896826529754833
3148175,1795.0,1,201278,248786,0.21,-1.25,8.88,-0.07,-0.0,-0.0325,25.75,1.229677,-73.91569131440974,1129.547234902362,8.970005574134278,0.07717674520216566,-0.5734165444221786,1.2265120673165737
3188198,1800.0,1,201305,247452,0.08,0.0249999999999998,8.94,-0.04,0.0,-0.0325,25.75,1.2697,-76.53942709891106,1491.8439080521448,8.940392888458538,0.05153882032022076,-0.593967623869181,1.6190997099879139
3228165,1815.0,1,201184,248093,0.18,-0.45,9.58,-0.04,0.01,0.0275,25.75,1.309667,-53.60829893679365,1960.690627086928,9.592252081758485,0.04956056900399752,-0.41435371630545126,2.127145855153484
3268213,1814.0,1,201636,249601,0.42,0.0249999999999998,9.78,-0.06,0.03,0.0275,25.75,1.349715,-92.7678675543009,2508.3714671150437,9.789046174168348,0.0725,-0.7210810211364498,2.7206172995738567
3308146,1838.0,1,203734,251231,-0.34,-1.17,10.78,-0.02,0.11,0.0275,25.75,1.389648,-30.435949684077848,2895.0151189545923,10.848635858945583,0.11513578939669454,-0.2328503830508939,3.139587527784515
3348177,2058.0,1,203232,250321,0.06,0.0249999999999998,9.73,-0.0,-0.05,0.0275,25.75,1.429679,130.04863541130305,2871.8539527506455,9.730217109602437,0.057063561052566644,1.024186044853472,3.1144898983680633
3388165,1967.0,1,203803,251198,-0.24,-0.47,11.26,-0.05,0.04,-0.02,25.75,1.469667,83.71535202751471,2457.9621022994434,11.272360001348432,0.0670820393249937,0.6612687901948852,2.6659932989462427
3428198,1936.0,1,201804,248431,-0.34,-0.27,8.58,-0.07,-0.08,0.0275,25.75,1.5097,4.217349373698041,1979.8493186326373,8.590977825602858,0.10980095627998875,0.03858041659132107,2.14790637024518
3468244,1904.0,1,200921,248022,0.25,0.0249999999999998,11.26,-0.04,0.02,-0.0,25.75,1.549746,-5.293702813178604,1769.1668578242602,11.262802715132677,0.044721359549995794,-0.0359173244814291,1.9196091299700457
3508169,1915.0,1,201523,250390,-0.31,-1.08,10.2,-0.04,0.06,0.0275,25.75,1.589671,-15.156758463394622,1799.83205001249,10.261700638783028,0.07717674520216565,-0.11317222242319014,1.9528381834100799
3548175,1978.0,1,203190,251218,0.13,-0.15,11.26,-0.02,0.02,0.0,25.75,1.629677,48.37636293914401,1678.2690845735538,11.261749420050155,0.0282842712474619,0.3844671485730728,1.8211115583133068
3588169,1964.0,1,202804,249488,-0.75,-0.86,11.26,-0.03,0.01,0.0275,25.75,1.669671,28.25347976137853,1062.545248462749,11.317672022107727,0.04190763653560053,0.22684953580433576,1.1539081659836183
3628175,1922.0,1,200039,244920,-0.51,-1.18,9.54,-0.07,-0.11,0.0275,25.75,1.709677,-16.223994877184943,96.65869551016918,9.626219403275618,0.1332525797123643,-0.12153162372346532,0.1072655854296678
3668198,1996.0,1,198509,244292,-0.67,-0.82,10.96,-0.02,0.02,0.0275,25.75,1.7497,50.66318485495491,-631.6270302459285,11.011035373660372,0.03944933459514875,0.40237926424820686,-0.6819107925371468
3708175,1994.0,1,198628,245177,-0.85,-0.47,8.540000000000001,-0.02,-0.02,0.01,25.75,1.789677,51.3644065101474,-623.7765168174124,8.595056718835544,0.030000000000000002,0.40787176163721445,-0.6734039118808438
3748198,1957.0,1,200663,247428,-0.28,-0.34,10.34,-0.03,0.07,-0.01,25.75,1.8297,6.827812007714939,21.79736914524407,10.349376792831537,0.07681145747868609,0.05902753070319766,0.026145238976181696
3788197,1936.0,1,201024,247955,-0.46,-1.33,9.05,0.0,0.02,-0.03,25.75,1.869699,-11.80126732583958,641.7845663840043,9.158766292465378,0.03605551275463989,-0.08688948261419181,0.6979684443461865
3826178,1898.0,1,201069,245887,-0.23,0.0249999999999998,9.02,-0.04,-0.01,-0.0325,25.75,1.90768,-51.39263082565291,564.6999122454276,9.022966529916864,0.0525,-0.3969989309458813,0.6144388817054387
3866195,1931.0,1,198458,241460,-0.21,-0.34,8.95,-0.05,-0.08,-0.01,25.75,1.947697,-19.705621291545057,-319.6303848018737,8.95891734530462,0.09486832980505139,-0.14880235024591368,-0.3438286719055602
3906212,2023.0,1,197628,240983,-0.41,-0.64,9.05,-0.05,0.01,0.0,25.75,1.987714,75.40652916297428,-1475.7456015434582,9.081861042759904,0.050990195135927854,0.5961878167947013,-1.5966045907432136
3946175,2044.0,1,196990,240178,0.32,0.0249999999999998,9.2,-0.01,-0.04,0.0275,25.75,2.027677,97.11653771812712,-2167.982402260084,9.205597481967153,0.04956056900399752,0.7662369937154823,-2.3467180582531304
3986169,2087.0,1,197204,241018,-0.25,-0.18,10.03,-0.04,0.1,0.0275,25.75,2.067671,139.00332774883432,-2045.8975134886682,10.034729692423209,0.11115867037707856,1.0943259555636682,-2.214425872758101
4026910,2150.0,1,196652,240638,-0.05,0.0249999999999998,8.540000000000001,-0.04,-0.08,0.0275,26.29,2.108412,213.70994949067935,-1411.418812505139,8.540182960569405,0.0935748363610645,1.6794846166235984,-1.5268995552273898
4067178,2132.0,1,198140,243896,-0.56,-0.09,11.26,-0.05,0.11,0.01,26.29,2.14868,184.97893266332485,-981.806451852024,11.274276029971947,0.12124355652982141,1.4544416024222462,-1.0613680821808589
4107213,2103.0,1,196476,239149,0.01,0.0249999999999998,9.08,-0.02,-0.13,-0.01,26.29,2.188715,175.05968071347547,-1326.9395017884515,9.080039922819722,0.1319090595827292,1.3767465326365003,-1.4353570821474548
4147177,2055.0,1,196364,243451,-0.01,-0.91,11.26,-0.05,0.08,0.0275,26.29,2.228679,121.65099542542094,-2387.0714979443405,11.296716337060074,0.09826622003516775,0.9584093887066759,-2.584124796940235
4187175,2006.0,1,194919,236255,-0.11,0.0249999999999998,8.62,0.009999999999999998,-0.04,-0.0325,26.29,2.268677,73.43476453451048,-3445.050799817988,8.620738077450213,0.0525,0.5807434676457832,-3.730559834575618
4227177,2097.0,1,192685,238102,-0.25,-1.21,11.26,-0.02,-0.11,0.0275,26.29,2.308679,191.459462498418,-3627.139953821018,11.327585797512196,0.11513578939669454,1.5052020045505352,-3.9278731333828474
4267198,2001.0,1,193565,237917,0.17,-0.44,9.67,-0.07,0.02,-0.0325,26.29,2.3487,62.18014418370894,-2590.6696154321417,9.681497818003162,0.07972609359550988,0.4925887844107356,-2.804745384763886
4307209,1702.0,1,196170,245309,-0.17,0.0249999999999998,11.26,0.009999999999999998,0.04,-0.0325,26.29,2.388711,-188.82888796613562,-837.0603061640595,11.261310980520873,0.0525,-1.4735034540297671,-0.9045199730680622
4347168,1626.0,1,199307,245278,0.04,-1.09,11.26,-0.01,0.08,-0.0325,26.29,2.42867,-286.54776890697434,664.3132771949269,11.312705246756853,0.08692669325356855,-2.238911502183916,0.7223807399181856
4387178,1562.0,1,197655,243890,0.0,-1.11,10.07,0.009999999999999998,-0.13,-0.01,26.29,2.46868,-358.2242933208484,1258.7921988182948,10.130992054088287,0.1307669683062202,-2.8003361534067555,1.3665629688878427
4427175,1669.0,1,196890,241487,0.0,-1.5349999999999997,9.13,-0.07,-0.12,-0.01,26.29,2.508677,-173.1255970327985,1110.9255116715572,9.258138311777374,0.1392838827718412,-1.3505034242795375,1.2063334154893255
4467198,1906.0,1,195638,240266,0.11,-0.38,8.540000000000001,-0.07,-0.13,0.0275,26.29,2.5487,-74.1591583391005,981.6687276317847,8.549157853262507,0.15018738295875592,-0.5753235619643797,1.0662697055350427
4507178,1584.0,1,197790,241371,-1.02,-0.66,8.83,-0.07,0.03,0.01,26.29,2.58868,-183.0904494205398,1498.0554330578082,8.913186859928384,0.07681145747868609,-1.4285556711207898,1.625830569363924
4547177,1954.0,1,197055,242010,-0.4,-0.28,8.540000000000001,-0.07,-0.11,0.0275,26.29,2.628679,-65.09605758230103,2578.347316193617,8.553946457629953,0.1332525797123643,-0.5043345146718092,2.7964437028219074
4587194,1705.0,1,200320,244840,-0.57,-1.5349999999999997,10.39,-0.07,0.11,-0.0325,26.29,2.668696,-31.45368804252764,3496.24536164865,10.518232978975128,0.1343735465037669,-0.24082207821330862,3.791085543567825
4627199,1867.0,1,197972,241619,0.17,0.0249999999999998,8.540000000000001,-0.04,-0.13,0.0275,26.29,2.708701,-140.20150922818408,3490.3087100428766,8.541728455061072,0.1387668908637792,-1.0926171126358069,3.7846525392594796
4667168,1631.0,1,197299,239988,0.24,-0.11,10.16,-0.07,0.07,0.01,26.29,2.74867,-124.80302402954527,2386.6519924558947,10.163429539284463,0.099498743710662,-0.9720045515120637,2.588721079804062
4706169,1945.0,1,194992,236556,-1.07,-0.04,8.540000000000001,-0.07,-0.07,0.0275,26.29,2.787671,-17.343622410065006,741.2176658142674,8.60686354022184,0.10274361294017259,-0.13030139182099607,0.8057149653656976
4746198,1883.0,1,193584,235420,0.12,0.0249999999999998,10.13,-0.05,0.11,0.0275,26.29,2.8277,88.83840730396699,-573.1767382156071,10.130741581937622,0.1239203373139373,0.7013964267578658,-0.61857357731478
4786146,1990.0,1,192982,235752,-0.46,0.0249999999999998,8.75,-0.03,0.06,0.0275,26.29,2.867648,71.41731516151889,-984.4913280005616,8.762118750621907,0.0725,0.5649412810881396,-1.0642774359677845
4826165,1870.0,1,193523,236676,0.38,0.0249999999999998,9.66,-0.03,-0.01,0.01,26.29,2.907667,45.63628800199426,-577.0287341871178,9.6675035557273,0.033166247903554,0.36300481305257465,-0.6227476317019968
4866169,1984.0,1,194391,237957,0.49,0.0249999999999998,11.14,-0.03,0.03,-0.03,26.29,2.947671,92.24378592069637,48.30766398030376,11.150799298705003,0.05196152422706632,0.7280699229661856,0.05487201161070575
4906201,1959.0,1,193807,237192,-0.39,-0.6,9.33,-0.03,0.07,-0.01,26.29,2.987703,116.37624239089168,265.1560261656811,9.357403486010423,0.07681145747868609,0.9170935407785922,0.2898506731241183
4946198,1996.0,1,194079,236956,0.22,-0.25,11.26,-0.06,0.03,-0.0,26.29,3.0277,119.32499007065626,-120.94632234880523,11.264923435159247,0.0670820393249937,0.9401903587562164,-0.12853299436957608
4986175,2002.0,1,192364,235721,-0.4,-0.14,11.26,-0.03,-0.07,0.0275,26.29,3.067677,143.94851137964366,-779.4029890626302,11.267972310935095,0.08097067370350824,1.133060367114218,-0.8420420319740629
5026897,1984.0,1,192085,235556,-0.23,0.01,11.25,-0.04,0.07,0.0275,26.35,3.108399,119.22826350147547,-1164.8960366802767,11.252355309000867,0.0851836251870041,0.9394327232429102,-1.259765456025033
5065165,1851.0,1,192294,237080,-0.19,-0.46,11.26,-0.01,-0.01,0.02,26.35,3.146667,-23.2631769168221,-966.9852187960322,11.27099374500758,0.024494897427831782,-0.17666781167083187,-1.0453076726376314
5105198,1749.0,1,193147,237691,-0.38,-0.41,10.27,-0.05,0.01,-0.01,26.35,3.1867,-109.18035498392558,-344.58636053465415,10.28520296348108,0.05196152422706632,-0.84963601325173,-0.37087117162910843
5145198,1753.0,1,194317,238830,-0.34,-0.8,11.26,-0.01,0.04,-0.0325,26.35,3.2267,-130.2986583616175,221.33080898290066,11.29350255678016,0.0525,-1.0150505085162889,0.24236130880352957
5185198,1722.0,1,193575,235443,-0.68,-0.16,10.41,-0.03,-0.07,-0.0325,26.35,3.2667,-143.88626192710709,314.8288233386274,10.433412672754779,0.08280247580839598,-1.1214788775686337,0.3436765230207758
5225211,1783.0,1,192936,235390,-0.32,-0.63,11.26,-0.06,-0.05,-0.0,26.35,3.306713,-95.97964857271917,-101.96296416345285,11.282149617869814,0.07810249675906655,-0.7462381147987728,-0.10796247194335422
5265212,1746.0,1,192816,234863,-0.81,-0.82,8.84,-0.07,-0.05,0.0,26.35,3.346714,-139.2967209300712,-672.0004003300767,8.914824731872187,0.08602325267042628,-1.085530127617317,-0.7256597070668712
5305194,1770.0,1,193181,235044,0.01,-0.54,9.9,-0.05,-0.01,-0.0,26.35,3.386696,-102.54046152060927,-904.0302277388051,9.91472137783004,0.050990195135927854,-0.7976273548760233,-0.9770891286507973
5345198,1958.0,1,192639,234235,0.13,-0.2,8.540000000000001,-0.07,-0.11,-0.0,26.35,3.4267,59.845205416053226,-512.9928122930115,8.543330732214457,0.130384048104053,0.47429978122625566,-0.5533577822061946
5385194,1904.0,1,193701,238457,0.2,-0.0,9.88,-0.04,0.01,-0.0,26.35,3.466696,23.22352893215668,380.64004653691256,9.882024084164136,0.04123105625617661,0.18745116356103408,0.4149901035516427
5425178,1903.0,1,195728,238867,-0.24,0.0249999999999998,8.540000000000001,-0.03,0.04,-0.0325,26.35,3.50668,8.008076517674358,1315.5538692633615,8.54340827773085,0.05963430220938282,0.0682722533829486,1.4280703799285825
5465175,1969.0,1,195763,239749,-0.11,-0.65,8.85,-0.03,-0.06,0.0275,26.35,3.546677,68.8598717608797,1778.728786704797,8.874519705313634,0.0725,0.5449094536388153,1.9299705144287127
5505198,1933.0,1,195974,238803,-0.21,-0.66,8.76,-0.03,-0.05,-0.0325,26.35,3.5867,43.698252446264924,1524.4458137980553,8.787337480716214,0.06675514961409344,0.34782465546499225,1.654427402103068
5545211,2029.0,1,194658,236406,-0.01,-0.26,8.84,0.009999999999999998,-0.08,0.01,26.35,3.626713,116.7522388867644,699.7624792341791,8.843828356543336,0.08124038404635961,0.9200386291918843,0.760793785619592
5585178,2098.0,1,193568,237192,-0.09,-0.8,10.57,-0.05,0.05,0.01,26.35,3.66668,203.07752852271292,-295.6222025956276,10.600613189811238,0.07141428428542851,1.596203468682788,-0.31781320901093546
5625175,2079.0,1,194006,238456,-0.42,-0.42,10.4,0.009999999999999998,0.01,0.01,26.35,3.706677,166.63425870451445,-1077.6030014891342,10.41694772954151,0.017320508075688773,1.3107522667109812,-1.1651740080567854
5665169,2003.0,1,193594,237582,0.52,-0.76,11.01,0.0,-0.08,0.01,26.35,3.746671,97.8582038805271,-1462.8581374396829,11.048443329265893,0.0806225774829855,0.7720462830184188,-1.5826396290765052
5705164,1975.0,1,193249,237853,-0.68,-0.51,9.5,-0.05,0.02,-0.0,26.35,3.786666,60.516328848108735,-1474.8057812861905,9.537950513606159,0.05385164807134505,0.479556526609076,-1.5955861938141782
5746198,1887.0,1,194373,239916,-0.29,-0.44,10.75,0.009999999999999998,0.09,0.01,26.35,3.8277,-16.81627645711947,-1239.141244538274,10.762908528831785,0.09110433579144298,-0.12617082019901443,-1.3402181714176593
5786166,1845.0,1,194706,237715,-0.38,-0.12,9.46,0.009999999999999998,0.01,0.01,26.35,3.867668,-84.77902729139092,-894.6081046474407,9.468389514590115,0.017320508075688773,-0.6585063930423027,-0.9668792388904552
5826175,1930.0,1,194210,240377,-0.31,-0.39,10.9,0.009999999999999998,0.05,0.0,26.35,3.907677,40.73728766083318,-574.1622662044613,10.911379381178165,0.050990195135927854,0.3246321438925094,-0.619641503516164
5866165,2002.0,1,195817,241794,-0.13,-0.39,10.67,0.009999999999999998,-0.02,-0.0325,26.35,3.947667,53.649332363468424,-410.80466605122393,10.677916463430494,0.03944933459514875,0.4257690259195001,-0.44262586989456315
5906198,1779.0,1,195929,241989,-0.68,0.0249999999999998,10.36,-0.03,-0.06,-0.01,26.35,3.9877,-101.20301013096936,-497.82848793248036,10.382322717003165,0.06782329983125268,-0.787151425886772,-0.5369255961150371
5946195,1881.0,1,196185,240980,-0.56,-0.72,10.85,-0.06,0.07,-0.01,26.35,4.027697,-68.27615296476226,-811.8150676330358,10.888273508688142,0.09273618495495704,-0.5292434225123248,-0.8771640258069269
5986198,1857.0,1,194809,238644,-0.16,0.0249999999999998,10.8,-0.01,-0.13,0.0,26.35,4.0677,-34.741226828071945,-1188.2962877375458,10.801214052133215,0.130384048104053,-0.2665725639009002,-1.285122159746938
6026866,1885.0,1,194175,240082,-0.45,-0.35,9.01,-0.07,-0.06,0.0,26.27,4.108368,-44.52644604735574,-1397.075521647959,9.028017501090702,0.09219544457292887,-0.3432177881531806,-1.5113570477657174
6065198,1953.0,1,196295,243394,0.53,-0.51,10.99,-0.05,0.03,-0.01,26.27,4.1467,38.7088280608587,-1239.5046905100276,11.014585784313454,0.05916079783099616,0.30874371692499225,-1.340612004449712
6105175,1968.0,1,198181,242157,-0.59,-1.24,9.96,-0.03,0.01,0.0,26.27,4.186677,60.5355376858174,-578.2664161713002,10.054218020313664,0.03162277660168379,0.47970698472767437,-0.6240887940381633
6145263,1922.0,1,197920,243375,-0.08,-0.48,10.66,-0.01,-0.13,0.02,26.27,4.226765,-6.472178576816836,643.5419096380251,10.671101161548417,0.1319090595827292,-0.04514803634958291,0.699872715891002
6185195,1792.0,1,198741,244744,0.03,-1.5349999999999997,8.540000000000001,-0.01,-0.13,-0.02,26.27,4.266697,-105.51935301532751,2272.8946101028187,8.676907571249103,0.1319090595827292,-0.8209602819693625,2.4654526484762567
6225198,1824.0,1,200203,248249,-0.4,-0.97,8.540000000000001,-0.07,-0.13,-0.0325,26.27,4.3067,-105.07548303744717,3783.2671730779557,8.604214083808005,0.15118283632740856,-0.8174835572040707,4.10210472948705
6265210,1904.0,1,203087,249749,-0.1,-0.58,8.75,-0.07,0.11,-0.0325,26.27,4.346712,7.460924536353264,4372.869213493673,8.769771946863841,0.1343735465037669,0.06398654599421784,4.741002330032564
6305198,1929.0,1,202471,249229,-0.71,0.0249999999999998,8.540000000000001,-0.06,-0.09,-0.02,26.27,4.3867,3.5262461481948493,3465.125063039973,8.569499693681074,0.10999999999999999,0.03316717438252328,3.7573633330827243
6345194,1837.0,1,200662,243661,-0.24,-0.48,9.71,-0.05,-0.02,0.01,26.27,4.426696,-56.58328217727391,1272.9844139297634,9.72481876437808,0.05477225575051661,-0.43765603100107175,1.3819417694339702
6385198,1950.0,1,195808,239262,-0.4,-0.01,9.11,-0.05,-0.11,0.0275,26.27,4.4667,22.534640848328394,-1157.3109372192332,9.1187828135119,0.1239203373139373,0.18205527201414984,-1.2515461801179437
6425195,1936.0,1,194540,238631,-0.09,-0.59,9.55,-0.06,0.1,0.0275,26.27,4.506697,52.99914587964182,-2621.4257813363515,9.568631041063293,0.11981756966321759,0.42067627452150547,-2.8380730180677407
6465178,1895.0,1,194822,241943,0.27,0.0249999999999998,10.04,-0.01,-0.01,0.01,26.27,4.54668,-40.7890690631306,-2643.4529395615455,10.043660936132799,0.017320508075688773,-0.31394383008929433,-2.8619418271495243
6505165,1868.0,1,198247,244947,-0.36,-0.27,10.07,-0.01,0.11,-0.0325,26.27,4.586667,-2.2500974257663935,-1785.5538281330041,10.080049603052556,0.11513578939669454,-0.012077509324918792,-1.9323153227782675
6545251,1973.0,1,198179,243797,-0.31,0.0249999999999998,9.9,0.009999999999999998,0.05,-0.01,26.27,4.626753,33.1869869873311,-1089.7768298767082,9.90488389634124,0.05196152422706632,0.26549248893697464,-1.1783656682158816
6585164,1855.0,1,197449,243023,-0.57,0.0249999999999998,11.21,-0.05,-0.07,0.02,26.27,4.666666,-13.963666395971163,-1165.5353946187927,11.224510011577344,0.08831760866327848,-0.10382702462924834,-1.260458269524321
6625177,2001.0,1,195795,242221,-0.76,0.0249999999999998,10.3,0.0,-0.13,0.0275,26.27,4.706679,73.0003641894257,-1740.7557004045111,10.328031032099004,0.13287682265918313,0.5773409161936219,-1.8837717046210352
6665165,1987.0,1,195593,241981,-0.22,-0.55,10.39,-0.04,-0.04,0.01,26.27,4.746667,103.29846587994761,-2019.2579785560974,10.406872729115122,0.05744562646538029,0.8146585221101112,-2.185559054495282
6705198,1936.0,1,196958,243424,-0.97,-1.42,8.540000000000001,-0.07,0.11,-0.0,26.27,4.7867,30.22185344358973,-1440.7337512361669,8.711423534646908,0.130384048104053,0.24226732450221705,-1.5586654629609977
6745224,1857.0,1,198430,245354,0.06,0.0249999999999998,11.19,-0.02,0.02,-0.01,26.27,4.826726,-43.5834651947734,-139.29727440027423,11.190188783036682,0.030000000000000002,-0.33583165021471245,-0.1484182363289538
6785169,1703.0,1,199886,248027,-0.07,0.0249999999999998,11.12,-0.01,0.02,-0.03,26.27,4.866671,-187.17695968193473,1246.7401191019073,11.120248423484071,0.03741657386773942,-1.4605643045887668,1.3535032365861124
6825175,1709.0,1,200951,248488,-0.54,0.0249999999999998,10.35,-0.01,0.04,-0.0325,26.27,4.906677,-196.95437529610282,2154.2113326487524,10.364107535142617,0.0525,-1.5371484051144688,2.3368464768680024
6865177,1818.0,1,199947,246500,-0.99,-0.1,9.47,-0.03,-0.05,0.0275,26.27,4.946679,-68.73072963592375,2507.0433056728316,9.522132114185352,0.06446898479113813,-0.532804010182386,2.7191780929558336
6905194,1897.0,1,199373,247172,-0.57,-0.18,9.8,-0.07,-0.01,0.02,26.27,4.986696,-5.8406554687241785,2631.8374420774708,9.818212668301701,0.07348469228349536,-0.04020147060020549,2.8544060413782253
6945198,1901.0,1,200667,248168,-0.79,-0.37,9.66,-0.02,0.05,0.02,26.27,5.0267,14.334196550895927,2836.75396956373,9.699309253756166,0.057445626465380296,0.11782320137168456,3.076455269075572
6985175,1883.0,1,201072,248914,-0.43,-0.28,10.16,-0.02,-0.01,0.0275,26.27,5.066677,-17.672081629831837,3093.100230710072,10.172949424822676,0.03544361719689456,-0.13287413239967882,3.3542341774384643
7025210,1799.0,1,200945,247409,-0.63,-0.12,9.1,-0.07,-0.02,-0.03,26.27,5.106712,-84.66737985219038,3094.955698807944,9.12257090956272,0.07874007874011811,-0.6576318860105284,3.356244777867837
7065897,1801.0,1,199491,246678,-0.65,-0.52,9.51,-0.01,-0.04,0.0275,26.21,5.147399,-99.38553084897408,2579.9012478400277,9.546360563062763,0.04956056900399752,-0.772915556048733,2.7981275558825303
7104198,1853.0,1,198549,244012,-0.61,-0.15,9.18,-0.03,-0.05,0.02,26.21,5.1857,-28.35468798948114,1580.7988640014764,9.201467274299246,0.061644140029689765,-0.21654837021548587,1.7154920289028686
7144195,1968.0,1,196833,243377,-0.72,-0.82,10.01,-0.03,-0.03,0.0275,26.21,5.225697,72.4142939734247,404.5685807800939,10.069304841944154,0.05055937104039171,0.572750371809654,0.44091925926107767
7184198,1994.0,1,196273,241982,-0.82,0.0249999999999998,10.2,-0.04,0.03,0.01,26.21,5.2657,108.12252923821961,-593.6835930828922,10.232938238844207,0.05099019513592785,0.8524442282467009,-0.6407949732248175
7224165,1990.0,1,195107,241800,-1.07,-0.0,9.74,-0.0,0.02,0.0275,26.21,5.305667,107.47484380195849,-1225.9181417670202,9.798596838323332,0.03400367627183861,0.8473710669413986,-1.3258895089415863
7264177,2029.0,1,195196,242093,-0.35,-0.21,11.26,-0.01,0.03,0.01,26.21,5.345679,132.1152053944908,-1524.5137787718702,11.267395439940856,0.033166247903554,1.0403729811136542,-1.6494501870580465
7304178,2011.0,1,194308,240736,-0.1,-0.45,9.69,-0.01,-0.13,0.01,26.21,5.38568,145.1613239313785,-1644.1630049732498,9.700958715508483,0.1307669683062202,1.142560030629217,-1.7791030686411733
7344198,2016.0,1,193976,241788,-0.49,0.0249999999999998,10.33,-0.06,0.01,0.02,26.21,5.4257,109.73306723954462,-1726.1431422756261,10.34164517859707,0.06403124237432849,0.8650591777447265,-1.8679374169381195
7384166,1990.0,1,194277,240285,-0.65,0.0249999999999998,9.78,-0.02,-0.05,-0.0325,26.21,5.465668,134.65611428593502,-1823.6183839752246,9.801608286398716,0.06289872812704562,1.060275297804277,-1.9735623872834687
7424198,2107.0,1,193315,240393,-0.88,0.0249999999999998,9.63,-0.07,-0.05,0.01,26.21,5.5057,201.90037885629454,-1908.2904553853682,9.670156410317261,0.08660254037844388,1.5869831438091937,-2.065313737429775
7464175,1977.0,1,194020,240817,-0.63,0.0249999999999998,11.26,-0.07,0.09,-0.0325,26.21,5.545677,120.25773416615715,-1922.0400512672215,11.277638272262504,0.11855905701379377,0.9474963146850084,-2.0802129121531068
7504177,1904.0,1,193343,240093,-0.45,-0.03,9.72,-0.03,-0.13,0.0,26.21,5.585679,10.972392481939892,-1830.5080907683807,9.730457337658905,0.13341664064126335,0.09149101391802184,-1.9810281299995318
7544194,1863.0,1,193572,238588,-0.55,0.0249999999999998,9.73,-0.07,0.07,-0.0325,26.21,5.625696,-2.3225299503736947,-1651.545434763213,9.745564375653162,0.10419332992087355,-0.012644855540397014,-1.7871027300325715
7584177,1815.0,1,193245,240657,-0.36,-0.37,10.6,-0.04,0.01,-0.0,26.21,5.665679,-63.555924026744734,-1443.648959703597,10.612563309587369,0.04123105625617661,-0.49227102594470495,-1.5618244067353744
7624195,1727.0,1,194410,240610,-0.53,-0.2,10.46,-0.03,-0.01,-0.0325,26.21,5.705697,-145.23320522562045,-1255.3808163894516,10.475328157150974,0.045345892868042637,-1.132029154354075,-1.357815504497254
7664215,1728.0,1,193871,240427,-0.67,0.0249999999999998,10.24,-0.05,-0.1,0.02,26.21,5.745717,-140.86513204776935,-1071.6424717456605,10.261925988819058,0.11357816691600547,-1.0978151075591915,-1.1587151292028377
7704175,1772.0,1,194133,239819,-1.04,-0.56,9.13,-0.07,0.03,-0.02,26.21,5.785677,-101.97811141820871,-817.3896285655453,9.206090375398235,0.07874007874011811,-0.7932226043292147,-0.8832046656957642
7744198,1776.0,1,193673,240646,0.06,-0.7,9.71,-0.02,-0.12,-0.01,26.21,5.8257,-88.47915535744015,-437.8106802342419,9.735383916415419,0.12206555615733702,-0.6874885894580574,-0.47188980807507347
7784194,1776.0,1,195059,242169,-0.68,-0.72,10.01,-0.07,0.06,-0.0325,26.21,5.865696,-96.78649564744265,16.845815740022175,10.05887170611098,0.09775607398008576,-0.7525579502151942,0.020779695147095403
7824198,1737.0,1,195338,242811,-0.93,-0.23,9.22,-0.04,-0.06,0.0275,26.21,5.9057,-125.28878400532264,402.6613526194464,9.269638612157435,0.07717674520216565,-0.9758093903656344,0.43885257120370363
7864195,1757.0,1,195798,242116,-1.07,0.0249999999999998,9.38,-0.06,0.08,-0.0325,26.21,5.945697,-115.04773019974012,595.0702899071267,9.440864632013321,0.10514870422406546,-0.8955937255022781,0.647348471709638
7904177,1855.0,1,195156,243160,-0.38,-0.17,11.26,0.0,-0.05,0.02,26.21,5.985679,-5.343855010903059,588.0142073228692,11.267692754064605,0.05385164807134505,-0.036310154356283646,0.6397024428235193
7944175,1958.0,1,194946,242139,-0.72,0.0249999999999998,8.99,-0.07,-0.09,0.0,26.21,6.025677,85.9334177134091,470.67011814811985,9.018820599169274,0.1140175425099138,0.6786423551699687,0.5125474266042984
7984178,1951.0,1,194779,241934,-0.6,-0.72,9.99,-0.07,0.07,-0.01,26.21,6.06568,90.57627030252326,314.04639328515526,10.033867649117164,0.099498743710662,0.7150086817578959,0.3428286754057886
8024231,1936.0,1,195164,242246,-1.07,-0.24,10.03,-0.03,0.11,-0.01,26.21,6.105733,65.72196765374171,110.65620682055119,10.089767093446705,0.11445523142259596,0.5203310197188293,0.12243340334207908
8064197,1859.0,1,195223,241851,-0.19,-0.04,10.78,0.0,-0.07,0.0,26.21,6.145699,-5.71793503610802,-148.98415940044325,10.781748466737664,0.07,-0.03924023152447114,-0.1589150242623955
8104862,1770.0,1,194753,239206,-1.07,-0.99,8.540000000000001,-0.07,0.01,-0.01,26.21,6.186364,-96.2696986259294,-351.9908657724193,8.663521224075117,0.07141428428542851,-0.7485100057880797,-0.3788947541565693
8143198,1712.0,1,194518,239262,-1.07,-1.45,8.87,-0.03,0.11,-0.02,26.21,6.2247,-159.65162161703907,-264.8132673443235,9.051204339755014,0.11575836902790225,-1.2449650766791673,-0.2844283944103251
8183232,1696.0,1,194817,240828,-0.21,0.0249999999999998,10.56,0.009999999999999998,-0.06,-0.0,26.21,6.264734,-166.85738180488732,284.15369239939713,10.562117448693705,0.0608276253029822,-1.3014060304410808,0.31043669986874717
8223178,1867.0,1,196364,243766,-1.07,-0.65,9.04,-0.04,0.06,-0.01,26.21,6.30468,-11.309424688833653,1194.8517637885443,9.12628073203975,0.07280109889280519,-0.08303699976578902,1.297276589740409
8263195,2093.0,1,197517,245387,-0.8,-0.32,9.58,-0.03,0.0,-0.0325,26.21,6.344697,231.16619370197984,2079.4770232108417,9.618669346640418,0.044229515032385334,1.8162150998345432,2.255863766997051
8303198,2188.5,1,198390,245733,-1.07,-0.96,10.72,-0.03,-0.02,-0.0325,26.21,6.3847,304.5222941648878,2495.6737434226607,10.815955806122732,0.048541219597369,2.3907954586651665,2.7068579421711356
8343211,2064.0,1,197295,244790,-1.07,-0.11,9.84,-0.02,-0.02,-0.01,26.21,6.424713,201.16810086523273,2247.4273440915917,9.89861606488503,0.030000000000000002,1.5812473897517543,2.4378561104189003
8383252,2010.0,1,196977,243712,-0.85,-1.18,11.26,-0.06,0.11,-0.01,26.21,6.464754,121.02613494169029,1503.696691758234,11.353523682099755,0.12569805089976535,0.9535150096612334,1.6319434835004105
8423198,1930.0,1,195794,242911,-1.07,-0.43,9.6,-0.01,-0.11,-0.01,26.21,6.5047,64.45523842653317,649.4319942504067,9.66901235907784,0.11090536506409417,0.5104090400972606,0.7062552598238678
8463215,1847.0,1,195838,242675,-1.05,-0.92,11.26,-0.06,0.06,-0.01,26.21,6.544717,-45.61020666348768,11.898959489759218,11.346210821238957,0.08544003745317531,-0.3517066194811007,0.015419241193597971
8503195,1786.0,1,195241,242871,-1.07,0.0249999999999998,9.59,-0.01,-0.11,0.0,26.21,6.584697,-85.03265060489252,-314.0446521718724,9.64954014448357,0.11045361017187261,-0.6604929623059355,-0.33777592627381103
8543177,1810.0,1,195603,243125,-0.48,-1.09,11.26,-0.06,-0.05,-0.01,26.21,6.624679,-83.10680914644006,-432.86804386676613,11.322813254664231,0.07874007874011811,-0.6454083180941288,-0.4665339268211302
8583211,1728.0,1,195285,242787,-1.07,0.0249999999999998,8.540000000000001,-0.07,0.06,-0.0,26.21,6.664713,-151.89088981174,-482.48804527495327,8.60680689919322,0.09219544457292887,-1.1841771662349405,-0.5203025667946337
8623177,1756.0,1,195636,241854,-0.67,-0.11,9.66,-0.07,0.11,-0.01,26.21,6.704679,-135.49036725816893,-504.23161831717425,9.683831886190507,0.1307669683062202,-1.0557158920617653,-0.5438640806492435
8663198,1747.0,1,194877,241916,-0.48,0.0249999999999998,9.16,-0.07,-0.13,0.0275,26.21,6.7447,-141.1726753886588,-457.3078017060186,9.172601866428087,0.15018738295875592,-1.1002240191841162,-0.49301704860680506
8703177,1578.0,1,195587,241836,-0.94,0.0249999999999998,8.540000000000001,-0.07,0.06,-0.02,26.21,6.784679,-314.4414868645727,-336.6911468289203,8.591613643547992,0.09433981132056604,-2.4573961595206444,-0.3623158533862631
8743175,1574.0,1,195592,242484,-0.43,-1.33,9.15,-0.02,-0.05,-0.0,26.21,6.824677,-318.1044464165058,-249.86032676971988,9.256149307352384,0.05385164807134505,-2.4860872240735645,-0.2682252655210865
8783212,1791.0,1,195880,242243,-0.48,-0.52,9.08,-0.07,-0.05,-0.02,26.21,6.864714,-104.8450636431545,-350.3299675817047,9.107535341682732,0.08831760866327848,-0.8156787385534234,-0.37709499127235385
8822211,2013.0,1,195774,242025,-1.07,-0.42,9.66,0.0,-0.01,-0.02,26.21,6.903713,118.32633961434816,-679.7326364993958,9.7281498754902,0.022360679774997897,0.9323681744537395,-0.7340384215162752
8862198,2188.5,1,194571,240541,-0.45,0.0249999999999998,10.01,-0.02,-0.13,-0.02,26.21,6.9437,290.85711890437426,-1081.6095540927636,10.020140967072269,0.13304134695650072,2.2837594895348365,-1.169515541276571
8902197,2188.5,1,194121,241820,-1.07,-1.37,10.28,-0.03,-0.06,-0.0325,26.21,6.983699,291.76995334792696,-1293.7493509455412,10.4259388066495,0.07454025757937786,2.290909498038828,-1.3993919628267557
8942215,2188.5,1,194821,242918,-0.43,-0.53,9.89,0.0,-0.13,-0.0325,26.21,7.023717,287.2712750626922,-1148.2953536972184,9.913521069730978,0.13400093283257397,2.255672453442916,-1.2417768199649977
8982198,2163.0,1,195454,243681,-0.49,0.0249999999999998,11.25,-0.03,0.03,-0.0325,26.21,7.0637,271.2862182052688,-696.8280670106348,11.260693806333604,0.053443895816079875,2.1304654202567606,-0.7525631700504256
9022184,1957.0,1,195895,244209,-0.22,-0.17,11.26,0.009999999999999998,-0.08,-0.0325,26.21,7.103686,46.08106441738856,-153.91477753352726,11.263431981416677,0.08692669325356855,0.36648863772078855,-0.1642578824591081
9062198,1853.0,1,195964,243730,-1.07,0.0249999999999998,9.66,-0.03,0.06,-0.0325,26.21,7.1437,-29.495509549675415,270.872064229,9.719111327688351,0.07454025757937786,-0.2254841459353196,0.2960446187907688
9102177,1955.0,1,196025,243902,-0.23,0.0249999999999998,11.26,0.009999999999999998,0.03,-0.0325,26.21,7.183679,41.113491932373734,496.5209059231837,11.262376525405283,0.045345892868042637,0.3275788597616917,0.5405595519864537
9142855,1879.0,1,196202,243348,-0.26,0.0249999999999998,10.24,0.009999999999999998,-0.01,-0.0325,26.35,7.224357,-9.774840637670787,567.5352235583522,10.243330757131686,0.03544361719689456,-0.07101697894667856,0.6175112482687393
9183177,1847.0,1,196096,243693,0.11,0.0249999999999998,11.1,0.009999999999999998,-0.05,0.0275,26.35,7.264679,-44.10039806527986,570.2665983413095,11.100573183399135,0.05793315113128234,-0.3398806587137006,0.6204709883568019
9223146,1872.0,1,196138,243034,0.09,0.0249999999999998,10.16,0.009999999999999998,-0.05,0.0275,26.35,7.304648,-47.819834408273344,565.4564187758223,10.160429370848458,0.05793315113128234,-0.36901409213121816,0.6152586383784742
9263147,1781.0,1,196003,243423,-0.92,0.0249999999999998,9.88,0.009999999999999998,-0.09,0.0275,26.35,7.344649,-68.61092821456278,583.31458598335,9.922773049908983,0.0946374661537385,-0.5318656350065025,0.6346098946444555
9303165,1727.0,1,196268,242305,-0.57,0.0249999999999998,9.22,0.009999999999999998,-0.06,0.0275,26.35,7.384667,-224.92967598067656,649.1090415275299,9.237636331876246,0.06675514961409344,-1.7562720799595446,0.7059053056079867
9343169,1480.5,1,195677,242672,-0.62,0.0249999999999998,9.95,0.009999999999999998,-0.05,0.0275,26.35,7.424671,-343.9487597266889,781.1660816975913,9.969329215147827,0.05793315113128234,-2.688519397018808,0.8490033960425218
9383165,1793.0,1,195986,242914,0.1,0.0249999999999998,9.44,0.009999999999999998,-0.1,0.0275,26.35,7.464667,-156.60892847673747,948.9080831396013,9.440562748056918,0.10419332992087355,-1.221132406930726,1.0307700028141655
9423147,1914.0,1,196016,242820,-0.09,0.0249999999999998,9.25,0.009999999999999998,-0.12,0.0275,26.35,7.504649,73.17433838692904,1043.924200652982,9.250471609599156,0.12351619327035625,0.5787036134498547,1.1337302460481395
9463165,2161.0,1,196066,242782,-0.43,0.0249999999999998,9.88,-0.02,-0.06,0.0275,26.35,7.544667,253.90398320210588,924.3911302335828,9.889384460116819,0.0689655711206686,1.9943146330370158,1.0042032318218224
9503178,2175.0,1,195520,241532,-0.37,0.0249999999999998,10.06,0.009999999999999998,-0.11,0.0275,26.35,7.58468,291.30819537317876,522.1277902494223,10.066832918053224,0.11382552437832211,2.2872926609775686,0.5683073815935987
9543165,1964.0,1,194517,240488,-0.06,0.0249999999999998,11.26,-0.0,-0.05,0.0275,26.35,7.624667,107.62184391494225,-75.80999534609855,11.260187609449497,0.057063561052566644,0.8485224828036563,-0.0796229007085463
9583177,1909.0,1,193953,239468,0.07,0.0249999999999998,9.16,0.009999999999999998,-0.12,0.0275,26.35,7.664679,-6.0333462831059625,-653.8915872683631,9.160301578004953,0.12351619327035625,-0.04171077052989346,-0.7060368489002026
9623146,1845.0,1,193609,238882,-0.15,0.0249999999999998,9.99,-0.02,-0.02,0.0275,26.35,7.704648,13.587100804118068,-996.5646423949343,9.991157340368531,0.03944933459514875,0.11197138346484925,-1.0773601783405171
9663177,1967.0,1,193392,238355,-0.32,0.0249999999999998,9.13,-0.02,0.01,0.0275,26.35,7.744679,52.38923744653455,-1024.0172886204798,9.135640371643358,0.03544361719689456,0.4158990112245586,-1.1071080906607649
9703165,1829.0,1,193474,239503,0.14,0.0249999999999998,9.98,-0.01,0.01,0.0275,26.35,7.784667,-7.324079854588667,-832.9783839970515,9.98101322511898,0.030923292192132454,-0.05182077029783729,-0.9000967687720322
9743147,1823.0,1,194006,239923,0.19,0.0249999999999998,9.41,-0.03,-0.01,0.0275,26.35,7.824649,-70.78396600159562,-613.1826550677538,9.411951179218898,0.04190763653560053,-0.5488865074840025,-0.6619243165124229
9781165,1835.0,1,193846,239802,-0.21,0.0249999999999998,9.34,0.009999999999999998,-0.07,0.0275,26.35,7.862667,-16.236101122706607,-504.48547736665967,9.342393965146192,0.0758699545274676,-0.12162644897797087,-0.5441391643946774
9821183,1837.0,1,193707,239264,-0.04,0.0249999999999998,9.02,-0.04,-0.01,0.0275,26.35,7.902685,-37.62653672857635,-504.7853347591098,9.020123336185598,0.04956056900399752,-0.2891724892991654,-0.5444640923213296
9861175,1765.0,1,193504,239244,0.21,0.0249999999999998,9.36,-0.03,-0.02,0.0275,26.35,7.942677,-94.55612335225258,-496.4404857471156,9.362388851142638,0.045345892868042637,-0.7350879905852629,-0.5354215455775657
9901169,1819.0,1,193733,239674,0.19,0.0249999999999998,9.49,-0.03,0.06,0.0275,26.35,7.982671,-46.61668308499214,-359.50304938076374,9.491934734288895,0.0725,-0.35959010265118835,-0.38703501784840555
9941146,1844.0,1,194188,241219,-0.14,0.0249999999999998,10.24,-0.03,0.04,0.0275,26.35,8.022648,-18.221838257131086,-71.79766654122989,10.240987501212956,0.05706356105256664,-0.13718024134208148,-0.07527510834978379
9981169,1825.0,1,194618,241485,0.12,0.0249999999999998,10.93,-0.05,0.01,0.0275,26.35,8.062671,-34.599191817019666,279.2648989135102,10.930687306843975,0.05793315113128234,-0.2654600384653613,0.3051391632023316
10021188,1866.0,1,194528,241974,-0.53,0.0249999999999998,9.63,-0.07,0.02,0.0275,26.35,8.10269,-4.112219919542397,562.2743913669356,9.644606005431223,0.0778219120813669,-0.02666305850090585,0.6118105674135664
10061169,1851.0,1,194946,242493,0.95,0.0249999999999998,11.26,-0.05,-0.08,0.0275,26.35,8.142671,4.9006938761811325,676.4152203979081,11.300032079600483,0.09826622003516775,0.043932886623996845,0.7354945047024309
10101169,1883.0,1,194351,241692,-1.07,0.0249999999999998,8.540000000000001,-0.07,-0.02,0.0275,26.35,8.182671,-7.782139966980705,584.5758513525441,8.60680689919322,0.0778219120813669,-0.05540864290943139,0.6359766121297972
10141178,1829.0,1,194847,242282,1.1,-0.0,11.26,-0.07,0.07,0.0275,26.35,8.22268,5.150891699491111,309.60559237290704,11.313602432470393,0.10274361294017259,0.04589262486238342,0.3380165871617668
10181851,1853.0,1,193819,239667,-1.07,0.0249999999999998,8.540000000000001,-0.07,-0.02,0.0275,26.05,8.263353,-64.62335217798979,-75.91870245976682,8.60680689919322,0.0778219120813669,-0.5006319290774773,-0.07974069662735947
10222177,1742.0,1,194385,239869,1.79,0.0249999999999998,11.26,-0.02,0.11,0.0275,26.05,8.303679,-65.51317601159079,-457.80518859371483,11.401417675008664,0.11513578939669454,-0.5076017011125247,-0.4935560211125105
10262146,1965.0,1,193004,238520,0.33,0.0249999999999998,8.540000000000001,-0.07,-0.13,0.0275,26.05,8.343648,33.92463824305782,-706.1414206365821,8.546410065050706,0.15018738295875592,0.2712703304598024,-0.7626551963270888
10302169,1826.0,1,193997,240279,1.06,0.0249999999999998,11.26,-0.07,0.11,0.0275,26.05,8.383671,10.187898912483352,-730.3680740640563,11.309811006378489,0.1332525797123643,0.08534626803057412,-0.7889073964265787
10342147,1922.0,1,193692,239292,1.01,0.0249999999999998,8.69,-0.07,-0.13,0.0275,26.05,8.423649,2.501722293835583,-536.1978331440272,8.748532734121762,0.15018738295875592,0.02514233009345234,-0.5785029328774326
10382168,1891.0,1,194293,240978,0.5,0.0249999999999998,11.26,-0.07,0.06,0.0275,26.05,8.46367,42.38999303107869,-235.91084658623444,11.271123502118146,0.09620940702446928,0.33757738005807036,-0.2531094945312132
10422145,1927.0,1,194707,240479,0.47,0.0249999999999998,8.540000000000001,-0.07,-0.02,0.0275,26.05,8.503647,32.279900542290065,9.922236753106887,8.552960013936696,0.0778219120813669,0.2583875030967634,0.013277248244420807
10462169,1936.0,1,194825,241927,-0.15,-0.9,11.26,-0.05,0.03,0.0275,26.05,8.543671,50.51600880300703,87.5457030138926,11.296906656248868,0.06446898479113813,0.4012264702991576,0.09739067211431494
10502175,1935.0,1,194892,240550,0.28,0.0249999999999998,8.68,-0.07,0.0,0.01,26.05,8.583677,55.89995255096118,-3.770410452461349,8.684550938304179,0.07071067811865477,0.44339758232804194,-0.0015602164268099727
10542147,1949.0,1,194413,241894,-0.64,-0.33,11.14,-0.02,-0.08,0.0275,26.05,8.623649,41.937269361613424,-162.27832970454818,11.163247735314307,0.08692669325356855,0.33403130649621304,-0.17332069609919476
10582198,1951.0,1,194774,241787,0.08,-0.45,9.36,-0.07,0.11,0.0275,26.05,8.6637,66.82657677268111,-259.43094568951545,9.371152543844326,0.1332525797123643,0.5289831522602626,-0.2785960665774763
10622168,1963.0,1,194873,243269,0.08,-0.18,11.06,0.009999999999999998,-0.11,0.0275,26.05,8.70367,52.78931350827521,-219.74154098842718,11.06175392964425,0.11382552437832211,0.4190327089765366,-0.23558830253933613
10662165,1904.0,1,195388,242794,0.01,0.0249999999999998,9.48,-0.07,0.03,0.02,26.05,8.743667,0.4013043176617987,-51.33484401774473,9.480038238319507,0.07874007874011811,0.00869027079874563,-0.05310142624816592
10702146,1902.0,1,195152,243380,0.12,0.0249999999999998,10.39,-0.01,-0.08,0.0275,26.05,8.783648,-6.308887624863931,175.33561928584083,10.390723025853399,0.0851836251870041,-0.04386901833779075,0.19252054449177852
10742168,1861.0,1,196033,243436,0.05,-1.5349999999999997,10.54,-0.07,0.07,0.0275,26.05,8.82367,-56.835214209831406,367.27312474917073,10.651306257919728,0.10274361294017259,-0.43962935287552185,0.40050559761125215
10782169,1811.0,1,195298,242337,0.02,0.0249999999999998,8.91,0.0,-0.13,0.0275,26.05,8.863671,-111.07322393766204,443.3599375608582,8.910057519455192,0.13287682265918313,-0.8644623919140906,0.4829538912166604
10822146,1783.0,1,196636,243853,-0.32,-1.5349999999999997,11.26,-0.07,0.11,0.0275,26.05,8.903648,-125.63912263268136,363.9833074106642,11.368650975379621,0.1332525797123643,-0.9785535069823811,0.39694072459567903
10862177,1787.0,1,195388,240643,0.24,0.0249999999999998,8.540000000000001,0.009999999999999998,-0.13,0.0275,26.05,8.943679,-173.11214187617182,155.27312111218254,8.54340827773085,0.1332525797123643,-1.3503980333349004,0.17078065713477175
10902146,1777.0,1,196116,242585,-0.12,-1.5349999999999997,11.26,-0.01,0.11,0.0275,26.05,8.983648,-102.83422831791171,-91.912934378882,11.364780024267958,0.11382552437832211,-0.7999283582110072,-0.09707217734694139
10942178,1931.0,1,194717,239259,0.21,0.0249999999999998,8.540000000000001,0.009999999999999998,-0.13,0.01,26.05,9.02368,-73.13134482489369,-263.7245455359352,8.542618158386809,0.1307669683062202,-0.5672729505758624,-0.2832486465408123
10982145,1733.0,1,196345,243368,-0.2,-1.5349999999999997,11.26,0.009999999999999998,0.11,0.0275,26.05,9.063647,-125.234618571156,-284.20335311206077,11.36590625511226,0.11382552437832211,-0.9753851257931819,-0.3054396501764081
11020170,2030.0,1,195265,240527,0.68,0.0249999999999998,8.540000000000001,-0.07,-0.07,0.02,26.05,9.101672,4.071921107382723,-149.65275307755,8.56706630066559,0.10099504938362078,0.037441312618832476,-0.15963951784749608
11060164,1936.0,1,196598,243549,-0.21,-1.2,11.26,0.009999999999999998,0.05,0.0275,26.05,9.141666,73.31656749342129,84.82446429881398,11.325709690787594,0.05793315113128234,0.5798176591874113,0.09444191555243221
11100169,2096.0,1,196021,242242,0.62,0.0249999999999998,8.540000000000001,-0.07,-0.13,0.01,26.05,9.181671,75.26505825200893,343.87774043439856,8.5625127737131,0.14798648586948743,0.5950797098169093,0.37515416753138153
11140168,2000.0,1,196849,243446,-0.5,0.0249999999999998,11.26,0.009999999999999998,0.11,0.0275,26.05,9.22167,117.11930440802809,560.7424179063908,11.271123502118146,0.11382552437832211,0.9229137634696215,0.6101505084230118
11180146,2064.0,1,196476,244176,0.95,-1.5349999999999997,9.84,-0.03,-0.13,0.0275,26.05,9.261648,57.30232472454695,687.7409528997704,10.004215361536355,0.13622132725825278,0.4543820199089412,0.7477671612128429
11220864,1968.0,1,196990,244034,-0.01,0.0249999999999998,9.7,-0.02,-0.04,-0.0325,25.97,9.302366,67.2128093816808,705.0186132326106,9.700037371062031,0.05528336096873995,0.5320084176392933,0.7664893754743622
11261198,2094.0,1,197036,244125,-0.19,-1.5349999999999997,10.26,-0.06,0.03,0.0275,25.97,9.3427,100.18580351991729,635.5947369735732,10.375930078792937,0.0725,0.7902778006096666,0.6912610944948833
11301178,1969.0,1,196569,242988,0.22,0.0249999999999998,9.77,-0.01,-0.06,-0.0325,25.97,9.38268,52.828050095502554,545.5978097109128,9.772508633917905,0.0689655711206686,0.41933612317179114,0.593739686929805
11341177,2015.0,1,196609,243373,-0.13,0.0249999999999998,10.47,0.009999999999999998,0.09,-0.0325,25.97,9.422679,39.85236729379099,504.96839155266633,10.470836881548678,0.09620940702446928,0.3177007795094104,0.5497133166096456
11381168,1954.0,1,196375,242939,0.46,0.0249999999999998,9.57,-0.01,-0.03,0.0,25.97,9.46267,17.161087562965793,525.9830113254585,9.581081619525012,0.03162277660168379,0.13996554593253635,0.5724849307304968
11421169,1979.0,1,196919,243172,-0.09,0.0249999999999998,10.87,-0.0,0.08,0.0275,25.97,9.502671,31.054216917360577,539.002879519491,10.87040132653804,0.08459462157844315,0.24878702361951932,0.5865933665539568
11461175,2027.0,1,196396,243608,0.51,-0.69,9.33,-0.01,-0.08,0.0275,25.97,9.542677,69.21718248910197,445.095020337645,9.369370309684637,0.0851836251870041,0.5477081810130954,0.48483404112600487
11501178,2006.0,1,196440,243120,0.58,0.0249999999999998,9.69,-0.01,-0.05,0.0275,25.97,9.58268,81.64147144716337,210.40570953873384,9.707374773851063,0.05793315113128234,0.6450245918186006,0.23052278155610378
11541166,2070.0,1,196046,242333,-0.02,-0.67,9.23,-0.05,0.02,0.0275,25.97,9.622668,105.42793387196022,-85.78456219749616,9.254307105342896,0.06046693311223913,0.8313381230601047,-0.09043142305244027
11581178,1985.0,1,195352,240212,0.79,0.0249999999999998,10.2,-0.03,-0.04,0.0275,25.97,9.66268,68.39286968547029,-306.39156525465705,10.230577940663958,0.05706356105256664,0.5412515408221564,-0.3294829786023145
11621165,1984.0,1,195180,240773,0.11,0.0249999999999998,9.75,-0.04,0.01,0.0275,25.97,9.702667,31.60164754859235,-376.293642422498,9.750652542266081,0.04956056900399752,0.25307491360471657,-0.40522944200361455
11661170,1962.0,1,195585,241008,-0.19,0.0249999999999998,8.94,-0.07,0.06,0.0275,25.97,9.742672,40.193851664665615,-355.2241272444303,8.942053735020831,0.09620940702446928,0.32037554290487474,-0.38239834277194723
11701165,1960.0,1,195815,241238,0.23,0.0249999999999998,11.26,-0.01,0.07,0.0275,25.97,9.782667,28.407559717722553,-385.57071234960733,11.262376525405283,0.0758699545274676,0.22805640634470098,-0.4152821509670096
11741146,1935.0,1,194875,241170,0.4,-0.52,9.84,-0.03,-0.05,0.0275,25.97,9.822648,7.684617906703721,-557.4018413159484,9.861845669041875,0.06446898479113813,0.06573868134755477,-0.6014797698188993
11781175,1899.0,1,194773,240587,0.34,0.0249999999999998,9.67,-0.04,-0.03,0.0275,25.97,9.862677,-15.394508895061586,-818.6419732708317,9.676007699459525,0.05706356105256664,-0.11503446329310135,-0.8845617166766244
11821169,1905.0,1,194361,240532,0.32,-1.37,10.2,-0.06,-0.01,0.0275,25.97,9.902671,-21.09114301675879,-1014.1894576341376,10.29656738918364,0.06675514961409344,-0.1596548023939592,-1.0964585725021885
11861189,1857.0,1,194247,240338,0.38,-0.38,9.32,-0.07,-0.04,0.0275,25.97,9.942691,-46.01258760278085,-1012.3124652078121,9.335480705352028,0.0851836251870041,-0.35485837077413157,-1.0944246481341928
11901177,1839.0,1,194567,241325,-0.05,-0.18,9.69,-0.04,0.02,0.0275,25.97,9.982679,-82.43639438943347,-800.7150694764042,9.691800658288427,0.0525,-0.6401571235893042,-0.865135976882043
11941175,1813.0,1,194906,241951,0.1,-0.56,10.07,-0.05,0.03,0.0275,25.97,10.022677,-79.7397905714052,-474.805233436625,10.086054729179294,0.06446898479113813,-0.6190352866921783,-0.5119774089551362
11981169,1840.0,1,195164,242581,0.06,-1.33,10.78,-0.07,0.04,0.0275,25.97,10.062671,-77.81094350209952,-147.05638879518838,10.861901306861519,0.0851836251870041,-0.603927100267091,-0.1568260762437776
12021172,1837.0,1,195143,242457,-0.06,-0.18,9.78,-0.05,-0.04,0.0275,25.97,10.102674,-46.1816501198104,125.30760674614508,9.781840317649843,0.06968679932383177,-0.3561825960408327,0.1383097803140695
12061198,1874.0,1,194848,242622,0.05,-0.19,10.14,-0.06,-0.04,0.0275,25.97,10.1427,-38.10760794542124,330.53579647018796,10.141903174453995,0.07717674520216565,-0.2929406022530102,0.360696727765168
12101178,1777.0,1,195309,243088,-0.29,-1.33,9.93,-0.07,0.06,0.0275,25.97,10.18268,-103.653647844385,444.75099156964507,10.022868850783192,0.09620940702446928,-0.8063466705610743,0.48446124873499
12141177,1767.0,1,195420,242705,-0.16,-0.29,10.02,-0.05,-0.04,0.02,25.97,10.222679,-131.61457412242206,414.54553969276316,10.025472557440871,0.0670820393249937,-1.0253577542022325,0.45173037366215946
12181198,1763.0,1,195210,241253,-0.32,-0.91,9.56,-0.07,-0.01,0.0275,25.97,10.2627,-124.97838039104253,213.21376912181455,9.608543073744324,0.0758699545274676,-0.973378074920158,0.23356561792172106
12219884,1789.0,1,194215,238851,-0.15,-0.38,9.33,-0.07,-0.04,0.0275,25.97,10.301386,-90.73311720845486,-94.70778279626445,9.338939982674693,0.0851836251870041,-0.7051433202980837,-0.10010069798519268
12260198,1843.0,1,194095,239010,-0.47,-0.92,9.92,-0.06,0.05,0.0275,25.97,10.3417,-55.11187969288473,-367.1384961182973,9.973650284624982,0.08280247580839598,-0.4261308959116991,-0.39530885047670467
12300177,1767.0,1,193907,239101,0.22,-0.11,10.12,-0.03,-0.07,0.0275,25.97,10.381679,-98.33486563706408,-479.76910907087773,10.122988689117458,0.08097067370350824,-0.7646859529119721,-0.5173563052525343
12340178,1808.0,1,194129,239239,-0.98,-0.54,8.540000000000001,-0.07,0.02,0.0275,25.97,10.42168,-92.91814874022802,-417.83560888962745,8.612990189243224,0.0778219120813669,-0.7222581368390375,-0.4502446571461497
12380177,1840.0,1,193784,239580,-0.25,-0.62,9.82,-0.07,0.02,0.0275,25.97,10.461679,-23.58938142708682,-280.5413881232562,9.842728280309275,0.0778219120813669,-0.17922289166250677,-0.30147151491863444
12420175,1881.0,1,194374,239687,-0.65,0.0249999999999998,10.6,-0.05,0.11,-0.0325,25.97,10.501677,-9.6499160353017,-192.9258299955619,10.61993997158176,0.125124937562422,-0.07003847514940682,-0.20653057845448766
12460177,1973.0,1,193669,238506,-0.26,-1.5349999999999997,8.540000000000001,-0.07,-0.05,0.0275,25.97,10.541679,95.91051265227048,-195.86871226102699,8.68075025559427,0.09031195934094222,0.7567904949140769,-0.20971950978309686
12500197,2066.0,1,194273,240529,-1.07,-1.5349999999999997,11.26,-0.07,0.11,0.01,25.97,10.581699,198.15850172457218,-201.452402297822,11.414408657481998,0.1307669683062202,1.5576739371927342,-0.21577004204411637
12540177,1950.0,1,193897,237514,-0.63,-0.17,8.540000000000001,-0.05,-0.07,0.0275,25.97,10.621679,50.287399570931875,-54.319701200628565,8.564893461100379,0.09031195934094222,0.39943583020557527,-0.056335841941115225
12580198,1741.0,1,193996,240915,0.06,-1.5349999999999997,11.26,-0.02,0.01,0.0275,25.97,10.6617,-104.36146991322646,338.4975686787943,11.36430486215501,0.03544361719689456,-0.8118908673727464,0.3693241693469203
12620169,1797.0,1,195141,240028,-0.68,0.0249999999999998,8.540000000000001,-0.07,0.11,-0.0325,25.97,10.701671,-113.57696032531484,906.1665372866373,8.56706630066559,0.1343735465037669,-0.8840735454917301,0.9844549136231396
12660177,1806.0,1,195045,242243,-0.94,-0.16,11.26,0.009999999999999998,-0.13,0.0275,25.97,10.741679,-42.328285655264764,1428.2820789954626,11.30030088095003,0.1332525797123643,-0.3260001364666173,1.550223591374136
12700178,1938.0,1,196325,242340,-1.07,-0.73,11.26,-0.07,0.1,-0.0325,25.97,10.78168,52.220139158506925,1665.2878886200233,11.334257805432166,0.12631805096659782,0.4145745057723953,1.807045028046427
12740198,2039.0,1,194822,242055,-0.87,-0.69,9.06,0.0,-0.13,0.0275,25.97,10.8217,148.38225290635293,1507.6037885697747,9.127792723325832,0.13287682265918313,1.167788777993515,1.6361772456092258
12780178,2112.0,1,195032,241548,-1.07,-0.3,10.3,-0.06,0.1,-0.01,25.97,10.86168,284.42583547720176,1029.747459230107,10.359773163539828,0.11704699910719625,2.2333848224518347,1.1183682129177202
12820197,2188.5,1,193860,241161,-0.82,-0.86,10.11,-0.02,-0.13,0.0275,25.97,10.901699,238.12066915567817,420.94303018060674,10.179592329754664,0.1343735465037669,1.8706878018518112,0.45866274675794133
12860198,1918.0,1,194190,238530,-1.05,-1.36,9.33,-0.06,0.1,0.0,25.97,10.9417,144.17316973488116,-134.99476759305963,9.486885684986406,0.11661903789690602,1.1348200609577033,-0.1437560047099418
12900178,2113.0,1,192797,237493,-1.07,-0.42,9.75,0.009999999999999998,-0.12,0.0275,25.97,10.98168,130.59468258392664,-536.0749999403432,9.81752514639,0.12351619327035625,1.0284630985464114,-0.5783698298117687
12940177,1728.0,1,193365,237994,-0.66,-1.43,11.26,-0.06,0.1,-0.02,25.97,11.021679,-36.076360238896704,-760.4359017868136,11.369613010124839,0.11832159566199232,-0.277030336730119,-0.8214891408386923
12980198,1891.0,1,192771,237989,-1.07,-1.03,8.540000000000001,0.009999999999999998,-0.13,-0.02,25.97,11.0617,-73.84636719336032,-820.6973957192988,8.668183200648219,0.1319090595827292,-0.5728735455700472,-0.8867889892781695
13020198,1837.0,1,193225,238882,-0.28,-0.64,11.26,-0.04,0.02,-0.02,25.97,11.1017,41.06502451394447,-730.1437546583348,11.2816488156652,0.048989794855663564,0.32719922635019705,-0.7886643220810928
13060198,2015.0,1,193007,238750,-1.07,-0.14,9.19,0.009999999999999998,-0.08,-0.01,25.97,11.1417,92.24587718900763,-509.88921885163194,9.253140007586614,0.08124038404635961,0.7280863033583972,-0.5499947029309463
13100215,1922.0,1,193571,239778,-0.54,-0.92,10.21,-0.02,0.03,-0.02,25.97,11.181717,90.41884442338305,-220.0164446176031,10.265578405525916,0.0412310562561766,0.7137756034241949,-0.2358861903637031
13140198,1926.0,1,193806,240199,-0.9,-0.05,9.7,0.009999999999999998,-0.02,-0.0325,25.97,11.2217,32.21524695287703,30.511361569286922,9.74179141636691,0.03944933459514875,0.2578810873744144,0.0355877925449708
13180198,1950.0,1,193981,239961,-0.79,-1.43,10.2,-0.02,-0.03,-0.02,25.97,11.2617,103.96013466573103,124.46659651481629,10.33000484026992,0.0412310562561766,0.819841211565567,0.1373984547385146
13220211,1921.0,1,193705,238636,-0.79,-0.25,9.97,0.009999999999999998,-0.07,-0.02,25.97,11.301713,36.115464560972235,9.17083348588548,10.004374043387223,0.07348469228349536,0.2884305361405739,0.012463021509161664
13260884,1626.0,1,193464,238773,-1.07,-0.91,9.96,-0.01,-0.02,-0.02,25.99,11.342386,-223.273187363937,-251.96661198501204,10.058558544841304,0.03,-1.7432972105512896,-0.2705076534333906
13299219,1712.0,1,193474,238307,-1.05,-0.01,8.95,0.009999999999999998,-0.01,-0.03,25.99,11.380721,-166.13727327604977,-494.9815190394504,9.01138724059731,0.033166247903554,-1.2957655967990869,-0.5338405973024447
13339198,1801.0,1,193225,238585,-0.83,-0.94,10.18,0.009999999999999998,-0.07,-0.02,25.99,11.4207,-56.59950791728067,-542.3001655275792,10.256943989317676,0.07348469228349536,-0.4377831232463867,-0.5851154702337037
13379198,1728.0,1,193188,238996,0.06,-0.45,9.14,-0.01,-0.1,-0.03,25.99,11.4607,-138.89108385233396,-317.3222081153938,9.15126767174909,0.10488088481701516,-1.0823528717897788,-0.3413275127413427
13419197,1712.0,1,193957,240228,-1.07,-0.72,10.01,0.009999999999999998,0.06,-0.02,25.99,11.500699,-155.33102325814775,86.88273292272831,10.0927399649451,0.06403124237432849,-1.2111228885073733,0.09667227229300554
13459178,1744.0,1,194300,239857,-1.07,0.0249999999999998,9.76,0.009999999999999998,0.03,-0.02,25.99,11.54068,-117.66108197569211,443.94595081891543,9.818509306406956,0.03741657386773942,-0.9160634695549409,0.4835888999832458
13499169,1794.0,1,194298,241083,-0.47,-0.74,11.26,-0.03,-0.05,-0.02,25.99,11.580671,-73.91423232405603,528.1565085708438,11.294073667193782,0.061644140029689765,-0.5734051165082672,0.5748401501491573
13539211,1816.0,1,194115,240599,-0.81,-0.04,9.56,0.009999999999999998,-0.12,-0.01,25.99,11.620713,-52.5170196300421,261.2784662761396,9.594336871300696,0.12083045973594571,-0.4058059929163816,0.2856489174659241
13579198,1792.0,1,193682,237885,-0.73,-0.8,9.4,-0.03,-0.07,-0.03,25.99,11.6607,-67.74139601879313,-232.72885714894122,9.46218262347541,0.0818535277187245,-0.5250548023980717,-0.24966146471263517
13619210,1860.0,1,192715,237707,-0.46,-0.93,10.56,-0.0,-0.07,-0.0325,25.99,11.700712,-21.85429846580235,-708.2646972238033,10.610848222456111,0.07717674520216566,-0.1656324120131717,-0.764955996229195
13659215,1895.0,1,192816,237804,-0.56,0.0249999999999998,9.63,0.009999999999999998,-0.01,0.01,25.99,11.740717,43.9363059590472,-957.2191836399879,9.64630110456853,0.017320508075688773,0.34968927029500896,-1.034725116946948
13699166,1920.0,1,192699,238193,-0.57,-0.52,9.29,-0.03,0.04,0.0275,25.99,11.780668,26.962365394619702,-930.0415610230209,9.321984767204889,0.05706356105256664,0.2167365533603089,-1.0052752224617307
13739177,1806.0,1,193352,238248,-0.36,-0.53,10.75,-0.07,0.02,-0.02,25.99,11.820679,-42.953235523063874,-734.5119591580373,10.769076097790377,0.07549834435270751,-0.3308952156355643,-0.7933977442578278
13779198,1820.0,1,192926,239129,-0.53,0.0249999999999998,10.82,0.009999999999999998,-0.09,0.01,25.99,11.8607,-76.81548421998271,-528.5824527877173,10.83300166158946,0.09110433579144298,-0.5961299116500494,-0.5702508443441954
13819169,1802.0,1,193355,239342,-0.74,0.0249999999999998,9.69,-0.01,0.01,-0.01,25.99,11.900671,-54.008098139989215,-403.1053991952878,9.71824701270759,0.017320508075688773,-0.41748524549229044,-0.4342828812631994
13859178,1857.0,1,193169,238996,-0.35,-0.45,10.25,0.0,-0.05,-0.01,25.99,11.94068,-35.59978144938497,-341.09144010765306,10.265841417049067,0.050990195135927854,-0.27329741185869433,-0.3670840472268012
13899198,1858.0,1,193186,239389,-0.51,-0.27,9.03,-0.03,-0.05,-0.01,25.99,11.9807,-11.889048460357213,-263.70899310742345,9.048419751536729,0.05916079783099616,-0.08757705072988253,-0.2832317938018838
13939211,1934.0,1,193566,239634,-0.72,-0.06,9.3,-0.01,0.01,-0.01,25.99,12.020713,49.17937604641014,-106.31637464622696,9.328022298429609,0.017320508075688773,0.39075695346192413,-0.11267986320216494
13979198,1936.0,1,193591,240137,-0.49,-0.44,9.83,-0.03,-0.02,-0.01,25.99,12.0607,52.5797948469923,138.36874943789746,9.85203532271378,0.03741657386773942,0.41739160064577796,0.15246294152134662
14019211,1921.0,1,193937,240379,-0.55,-0.04,9.78,-0.04,-0.01,-0.01,25.99,12.100713,39.586876105271884,429.1610280337743,9.795534696993318,0.042426406871192854,0.31562125208901803,0.4675678365469369
14059213,1978.0,1,194076,240778,-0.76,0.0249999999999998,10.12,-0.01,0.01,-0.01,25.99,12.140715,89.15787571153356,711.2863624917768,10.148528218416697,0.017320508075688773,0.703898744507805,0.7732811599120124
14099178,1965.0,1,194178,241339,-0.83,-0.09,9.85,-0.03,0.01,-0.01,25.99,12.18068,78.2902594958252,941.4277060475424,9.885317395005584,0.033166247903554,0.6187753698266139,1.02266420492391
14139198,1936.0,1,194502,241419,-0.31,0.0249999999999998,10.85,-0.03,-0.01,-0.01,25.99,12.2207,49.978558710233386,1089.8641466436952,10.854456458063664,0.033166247903554,0.397016755425947,1.1835111478271807
14179198,1979.0,1,194172,241674,-0.33,0.0249999999999998,10.01,-0.02,-0.08,0.0,25.99,12.2607,83.17457922769856,1132.0739643484847,10.015469285060984,0.08246211251235322,0.6570330493716483,1.2292500520413505
14219178,1975.0,1,194447,240994,-0.56,0.0249999999999998,10.07,-0.07,0.02,0.01,25.99,12.30068,92.72553842353405,1047.8592944177262,10.085589967870002,0.07348469228349536,0.7318433722662611,1.137994345884775
14259166,1989.0,1,193796,239833,-0.53,-0.08,10.87,-0.03,-0.02,0.0275,25.99,12.340668,87.73963530805347,833.5332695090771,10.88320724786586,0.045345892868042637,0.6927900149706926,0.9057489097054062
14299884,1951.0,1,193653,239307,-0.07,0.0249999999999998,10.83,-0.05,-0.05,0.0275,26.11,12.381386,68.65693546742695,517.976961162961,10.830255075481833,0.0758699545274676,0.5433199033822446,0.5638095091952182
14338178,1936.0,1,193147,238571,-0.53,0.0249999999999998,9.61,-0.04,-0.02,0.0275,26.11,12.41968,34.32151050189044,168.77285407934417,9.62463635676694,0.0525,0.27437893360870164,0.1854090783570651
14378177,1921.0,1,192938,238240,-0.67,-0.02,10.53,-0.07,0.03,0.0275,26.11,12.459679,36.41746892360169,-120.10730113764869,10.55131271453936,0.08097067370350824,0.2907960623061283,-0.1276238241125723
14418178,1936.0,1,192700,238144,-0.18,0.0249999999999998,10.63,-0.02,-0.03,0.0275,26.11,12.49968,35.921415001181884,-258.99513885448454,10.631553273158161,0.045345892868042637,0.28691059349106457,-0.2781238227212538
14458178,1899.0,1,192639,238155,-0.23,0.0249999999999998,8.94,-0.06,-0.03,0.0275,26.11,12.53968,12.667878693129323,-201.79168848785622,8.942993067200712,0.0725,0.10477134192714482,-0.21613769533880012
14498178,1893.0,1,192893,238506,-0.61,-0.06,9.44,-0.05,0.05,0.0275,26.11,12.57968,-5.100398034738754,26.18492671562514,9.459878434736886,0.0758699545274676,-0.034403215521727724,0.0308996322988291
14538178,1855.0,1,193312,238801,-0.35,-0.27,10.23,-0.05,0.02,0.01,26.11,12.61968,-32.522032606365805,333.3271837847025,10.239545888368292,0.05477225575051661,-0.24919015938135364,0.36372149792400105
14578178,1845.0,1,193441,239106,-0.39,-0.59,9.56,-0.05,-0.04,-0.0325,26.11,12.65968,-50.09568304741975,604.6469922539683,9.586125390375406,0.07180703308172535,-0.386840256819268,0.6577258648174054
14618212,1871.0,1,193644,239369,-0.59,-0.27,9.62,-0.03,0.0,-0.0325,26.11,12.699714,-18.690835634526522,760.4708066007099,9.641856667675578,0.044229515032385334,-0.14085378287024314,0.8265778264283052
14658198,1902.0,1,193751,239401,-0.35,-0.49,10.1,-0.03,0.03,-0.0325,26.11,12.7397,12.159189054539945,794.7523822632899,10.117934571838266,0.053443895816079875,0.1007869006437386,0.8637256226236828
14698198,1906.0,1,193728,239395,-0.12,-0.45,10.18,-0.03,-0.04,-0.02,26.11,12.7797,11.98785728842035,767.7000446428893,10.190647673234512,0.05385164807134504,0.09944490090500033,0.83441148798698
14738228,1881.0,1,193703,239571,-0.1,-0.56,9.66,-0.03,-0.07,0.02,26.11,12.81973,-1.7988104716566866,755.6015146484698,9.676734986554091,0.07874007874011811,-0.008542689202370864,0.8213014217834904
14778198,1856.0,1,193775,239716,-0.53,-0.41,9.34,-0.05,0.01,0.01,26.11,12.8597,-42.63655966908747,789.438832249685,9.364005553180753,0.05196152422706632,-0.3284147712735747,0.8579678163045644
14818175,1809.0,1,193913,240203,-0.18,-0.62,10.78,-0.05,-0.01,0.0,26.11,12.899677,-69.36030340825197,825.2891286422405,10.799314793078308,0.050990195135927854,-0.5377353072624101,0.8968154911326561
14858198,1838.0,1,194127,240762,-0.39,-0.52,10.49,-0.04,-0.02,-0.0325,26.11,12.9397,-60.212235101399756,770.6403833916252,10.5101189336753,0.05528336096873995,-0.4660807299717865,0.8375976631400269
14898211,1846.0,1,193882,239376,0.23,0.0249999999999998,9.75,-0.02,-0.04,-0.02,26.11,12.979713,-36.18150319666828,549.2018616602066,9.752744485528163,0.048989794855663564,-0.2778538957527998,0.5976450671435873
14938207,1867.0,1,193521,238620,-0.05,-0.77,10.47,-0.07,0.02,0.02,26.11,13.019709,-22.76339075072944,155.73817353579798,10.498395115445028,0.07549834435270751,-0.1727531091056743,0.17128459175034108
14978175,1847.0,1,193145,238371,0.04,-0.43,10.08,-0.05,-0.04,-0.0325,26.11,13.059677,-46.448117917664106,-338.1579371455588,10.089246750872931,0.07180703308172535,-0.3582697730028225,-0.3639052793881524
15018197,1842.0,1,192997,237794,-0.02,-0.32,9.87,-0.02,-0.01,0.02,26.11,13.099699,-37.4950605611013,-825.6836143817537,9.87520632695844,0.03,-0.288142668697896,-0.8921920966639437
15058195,1872.0,1,192645,238327,0.56,-0.61,10.44,-0.04,-0.11,0.01,26.11,13.139697,-30.002075734021037,-1219.723658305252,10.472788549378812,0.1174734012447073,-0.22945195472199226,-1.319177115922132
15098177,1827.0,1,192513,237674,-0.01,-0.06,8.540000000000001,-0.06,-0.13,-0.03,26.11,13.179679,-52.45187627945665,-1486.7701685170327,8.540216624887217,0.14628738838327796,-0.40529574101478627,-1.6085509018202646
15138231,1883.0,1,192456,238350,0.01,-0.2,10.28,-0.07,-0.01,0.0275,26.11,13.219733,-15.045049815316874,-1646.3141633703847,10.281950204119838,0.0758699545274676,-0.1122972359572799,-1.7814340815008876
15178178,1903.0,1,192915,238100,-0.51,0.0249999999999998,8.84,-0.03,0.02,0.02,26.11,13.25968,9.09826854980838,-1744.3905853705444,8.854734609235898,0.0412310562561766,0.07681146041637847,-1.8877104957443158
15218165,1882.0,1,193023,237984,0.12,-0.74,11.01,-0.05,0.04,0.0275,26.11,13.299667,-2.932803037376604,-1825.8504754408177,11.035492739338828,0.06968679932383177,-0.01742497508194909,-1.9759810998791039
15258169,1923.0,1,192533,237650,-0.28,0.0249999999999998,8.540000000000001,-0.03,-0.1,0.0275,26.11,13.339671,10.585987334965207,-1928.1212337416948,8.544625503788918,0.10796411440844593,0.0884643970913139,-2.0868025312946568
15298175,1914.0,1,192816,237857,-0.33,-0.3,9.5,-0.04,0.07,0.0275,26.11,13.379677,36.83746406081581,-2088.6450678912142,9.510462659618616,0.0851836251870041,0.29408578129507085,-2.2607474728626715
15338864,1968.0,1,193048,238155,-0.42,-0.42,10.69,-0.04,0.08,0.01,26.15,13.420366,47.640162159134306,-2326.9640753282324,10.706488686773081,0.09,0.37870066827109367,-2.5189919014412134
15377178,1917.0,1,193217,237721,-0.38,-0.94,10.13,-0.01,0.08,-0.0325,26.15,13.45868,32.03913744616464,-2586.203681075249,10.180613930407144,0.08692669325356855,0.25650166476440994,-2.7999060617133744
15417198,1936.0,1,193224,238119,-0.4,-0.31,10.73,0.0,-0.08,-0.0325,26.15,13.4987,21.69348214010007,-2692.5784027290642,10.74192720139175,0.08634958019585272,0.1754666819806363,-2.915174581434576
15457195,1889.0,1,193427,238723,-1.04,-0.21,8.93,-0.03,0.01,0.02,26.15,13.538697,-14.430779961441019,-2420.974754197912,8.9928082376975,0.03741657386773942,-0.10748581072022972,-2.6208626431251187
15497177,1880.0,1,194117,240918,-0.54,-0.71,10.62,-0.03,0.03,0.0275,26.15,13.578679,-25.34742738907406,-1668.522350192044,10.657396492577348,0.05055937104039171,-0.19299323486920605,-1.8054990546526435
15537178,1926.0,1,195649,243676,-0.69,-0.43,10.0,-0.02,-0.02,0.0275,26.15,13.61868,8.117835157814708,-603.206418561461,10.03299556463572,0.03944933459514875,0.0691319659145395,-0.6511139849168079
15577198,1893.0,1,197353,245003,-0.81,-0.42,10.54,-0.02,0.03,0.01,26.15,13.6587,-13.318574841605443,375.4483005290892,10.57941869858642,0.03741657386773942,-0.0987741805651956,0.4093642850509106
15617178,1914.0,1,197828,245718,-0.98,-0.54,10.84,-0.01,-0.0,0.02,26.15,13.69868,-6.469731837734626,885.3458313711678,10.897596065187955,0.022360679774997897,-0.04512887164193147,0.9618934261464714
15657197,1935.0,1,198014,245489,-0.67,-0.22,10.36,-0.02,-0.02,0.01,26.15,13.738699,18.111045656724116,845.8640799286599,10.38397322800863,0.030000000000000002,0.14740633489134566,0.9191106768802592
15697198,1910.0,1,197520,245446,-1.0,-0.03,9.79,-0.03,-0.04,0.02,26.15,13.7787,-7.915437583068378,563.4916954458687,9.840985722985273,0.05385164807134504,-0.05645273047133293,0.6131296480846854
15737198,1901.0,1,197841,245490,-0.84,-0.08,9.82,-0.07,0.04,0.01,26.15,13.8187,-25.03436934440517,532.5408940335233,9.856185874870665,0.08124038404635961,-0.19054112792096914,0.5795911061499158
15777175,1872.0,1,198330,246636,-0.75,0.0249999999999998,9.92,-0.06,0.01,0.0275,26.15,13.858677,-48.193009555685286,1092.0155204324276,9.948342826822968,0.06675514961409344,-0.3719370816133955,1.1858423940869942
15817169,1892.0,1,199685,248745,-0.74,0.0249999999999998,9.28,-0.06,0.0,0.0275,26.15,13.898671,-35.20330763185207,2194.2766758735747,9.309491124653377,0.06600189391222043,-0.2701919296028567,2.3802616109698502
15857165,1936.0,1,201600,250432,-1.07,-0.28,9.33,-0.06,0.04,0.01,26.15,13.938667,8.096283408989413,3451.1429663913887,9.395328626503705,0.07280109889280519,0.06896315634730076,3.7422122186241014
15897177,1920.0,1,202446,251484,-1.07,-0.38,9.5,-0.07,0.02,-0.03,26.15,13.978679,-3.9105518505194135,4403.81050513257,9.567617258231017,0.07874007874011811,-0.025083441935512,4.774530567098929
15937198,1917.0,1,202593,251932,-1.07,-0.18,9.49,-0.07,-0.01,-0.02,26.15,14.0187,-17.68899760690913,4793.95425630515,9.551827050360576,0.07348469228349536,-0.1330066311028229,5.19729353161689
15977215,1919.0,1,202292,251817,-1.07,-0.45,9.37,-0.07,0.02,-0.0,26.15,14.058717,-2.9674607819539194,4636.577656907632,9.441625919300128,0.07280109889280519,-0.017696440702256473,5.026758959405789
16017198,1950.0,1,201833,250990,-1.07,-0.53,9.94,-0.07,0.04,-0.0325,26.15,14.0987,13.823533479588656,4085.5341143941573,10.011463429489217,0.08692669325356855,0.11382330267339369,4.429643663027696
16057198,1966.0,1,201212,250306,-1.06,-0.8,10.22,-0.06,0.01,-0.0325,26.15,14.1387,43.00896862346177,3259.6217065868354,10.305920628454306,0.0689655711206686,0.3424256641916947,3.534678212710032
16097198,1992.0,1,200536,249078,-1.07,-0.54,9.85,-0.05,0.02,-0.0325,26.15,14.1787,59.336898829778974,2198.268900174984,9.922650855492195,0.06289872812704562,0.4703183402977659,2.384587617923984
16137199,1968.0,1,198970,247183,-1.07,-0.85,10.39,-0.04,0.02,-0.03,26.15,14.218701,43.12409842618028,957.4577439944702,10.479479948928764,0.053851648071345036,0.34332744772354357,1.0400344853485242
16177198,1959.0,1,197482,245473,-1.07,-1.24,10.76,-0.05,0.02,0.01,26.15,14.2587,31.884292666594106,-291.7911693264437,10.883937706547202,0.05477225575051661,0.2552888035511333,-0.3136618699796698
16217178,1947.0,1,196285,244628,-1.07,-0.85,10.42,-0.05,-0.04,-0.01,26.15,14.29868,22.77406750787717,-1293.4928306374316,10.509224519440052,0.06480740698407861,0.18393064236629547,-1.3991139953196776
16257212,1936.0,1,195737,243585,-1.07,-0.91,9.7,-0.06,0.0,-0.01,26.15,14.338714,13.447568709397745,-1855.7498330515089,9.801173399139513,0.0608276253029822,0.11087846275959269,-2.008380288697809
16297197,1946.0,1,195561,243945,-1.07,-0.64,10.28,-0.05,0.03,-0.02,26.15,14.378699,26.617510162745614,-1984.768178527271,10.355331959913212,0.061644140029689765,0.21403538683667364,-2.148185624671031
16337198,1939.0,1,195848,244378,-1.07,-0.96,10.79,-0.06,0.01,-0.03,26.15,14.4187,20.143316845545225,-1880.5777311876516,10.88533876367658,0.06782329983125268,0.16332461710025903,-2.035284002488531
16377913,1926.0,1,195524,244150,-0.9,-0.46,10.22,-0.03,-0.05,-0.0,26.37,14.459415,13.277424884611431,-1794.8168828121777,10.269858811103491,0.05830951894845301,0.10954576787421003,-1.9423528447041976
16416210,1948.0,1,195137,243803,-1.07,-0.73,9.57,-0.06,-0.05,0.0275,26.37,14.497712,35.251910489711726,-1864.349550813825,9.657261516599828,0.08280247580839598,0.2816665287164688,-2.017699013307104
16456197,1935.0,1,194931,243611,-1.02,-0.87,10.52,-0.05,-0.01,-0.02,26.37,14.537699,27.284794640136884,-2041.4304314272215,10.605078971888894,0.05477225575051661,0.21926206262835438,-2.2095853060455335
16496211,1908.0,1,194742,243159,-0.65,-0.83,10.47,-0.04,-0.05,-0.0325,26.37,14.577713,5.1265597628943045,-2154.552684402662,10.522941603943263,0.07180703308172535,0.04570203876562237,-2.3321655059772586
16536215,1901.0,1,194440,243168,-0.67,-0.83,9.87,-0.05,-0.07,-0.0325,26.37,14.617717,-2.8082394927981738,-2040.7475367569573,9.927471984347273,0.09195787078874762,-0.01644929936187345,-2.208845315787105
16576229,1886.0,1,194738,243520,-0.95,-1.0,9.89,-0.04,-0.02,-0.0325,26.37,14.657731,-6.486365704404986,-1655.7200850710992,9.985719803799824,0.05528336096873995,-0.0452591606433899,-1.7916264153016126
16616212,1887.0,1,195198,244451,-0.91,-1.29,10.11,-0.06,0.01,-0.0325,26.37,14.697714,-10.45316816469384,-1097.3724950581247,10.232511910572105,0.0689655711206686,-0.07633015223999821,-1.1865963932241135
16656197,1867.0,1,195606,244689,-0.52,-1.38,9.97,-0.03,-0.05,-0.0325,26.37,14.737699,-18.122080399622813,-541.429711766647,10.078477067493878,0.06675514961409344,-0.13639886249013092,-0.5841722394082924
16696215,1887.0,1,195688,244811,-0.66,-1.19,9.56,-0.01,-0.04,-0.0325,26.37,14.777717,-0.7461184376589002,-144.96821445219717,9.656360598072133,0.0525,-0.0002972104648740653,-0.15456331342104868
16736211,1884.0,1,195579,244477,-0.99,-0.98,9.37,-0.0,-0.04,-0.0325,26.37,14.817713,4.021723927190618,15.054332381341737,9.472982634841044,0.05153882032022076,0.03704813040733189,0.018838429105222255
16776215,1857.0,1,195194,243885,-0.68,-1.19,9.94,-0.0,-0.04,-0.0325,26.37,14.857717,-21.07262558584802,-55.79484362211168,10.034047039953519,0.05153882032022076,-0.15950975989537777,-0.057934318352227954
16817211,1863.0,1,194985,243225,-0.56,-0.96,9.88,-0.0,-0.06,-0.0325,26.37,14.898713,-10.79970825399522,-295.47567051316275,9.942313614043767,0.0682367203197809,-0.07904451583898292,-0.31765442564610225
16857215,1878.0,1,194626,242469,-0.43,-1.2,9.75,-0.01,-0.08,-0.0325,26.37,14.938717,6.490957823866064,-599.3975514623422,9.832975134718891,0.08692669325356855,0.05638903442806714,-0.6469866653289926
16897211,1873.0,1,194078,241139,-0.79,-1.06,9.63,-0.01,-0.03,-0.0325,26.37,14.978713,6.992002783106785,-822.754196093644,9.720318924809002,0.045345892868042637,0.06031359681148307,-0.8890177550114831
16937215,1882.0,1,193814,241076,-0.27,-0.96,9.95,-0.01,-0.04,-0.0325,26.37,15.018717,14.59489523822079,-809.423658826962,9.999849998874982,0.0525,0.11986519030463681,-0.874572675636146
16975212,1853.0,1,193995,241975,-0.33,-0.82,9.58,-0.0,-0.06,-0.0325,26.37,15.056714,-6.024714814472771,-467.2984730998478,9.620691243356685,0.0682367203197809,-0.04164316235125258,-0.5038430219647935
17015215,1814.0,1,194462,242416,-0.43,-0.39,9.43,-0.01,-0.04,-0.0325,26.37,15.096717,-49.6998026740019,149.48488317641974,9.447851607640755,0.0525,-0.38373942286575863,0.16450847509493702
17055211,1789.0,1,195031,243042,-0.46,-0.62,10.22,-0.02,0.01,-0.0325,26.37,15.136713,-65.87622164800669,825.0327364065647,10.24911703514015,0.03944933459514875,-0.5104453486173319,0.8965376624059166
17095197,1804.0,1,195375,243127,0.09,-0.83,10.37,-0.03,-0.05,-0.0325,26.37,15.176699,-55.65032827374425,1272.2715488865747,10.403552277948142,0.06675514961409344,-0.4303484316974044,1.3811693030339474
17135199,1819.0,1,195349,243240,-0.06,-0.89,10.45,-0.02,-0.07,-0.0325,26.37,15.216701,-34.804854883796565,1289.8940124249957,10.488002669717432,0.07972609359550988,-0.26707094686917743,1.4002651488733877
17175215,1840.0,1,194739,242464,0.19,-0.74,9.73,0.0,-0.02,0.0275,26.37,15.256717,-16.148162091314347,886.4451757453404,9.759948770357353,0.03400367627183861,-0.12093764409475422,0.9630846847152796
17215165,1851.0,1,193982,241314,0.22,-1.15,10.58,-0.03,-0.0,0.0275,26.37,15.296667,-3.29174898587208,283.1969229431373,10.644590175295619,0.04069705149024926,-0.02023651073591443,0.30939993664884946
17255177,1866.0,1,193252,240704,0.56,-0.95,10.43,-0.05,-0.08,0.0275,26.37,15.336679,10.384089410976967,-213.11824975396686,10.48813615472263,0.09826622003516775,0.08688298012830374,-0.22841124990494022
17295178,1823.0,1,193129,240831,0.29,-1.06,9.58,-0.05,-0.05,-0.02,26.37,15.37668,-30.60580381968876,-385.3658568451982,9.64282634915718,0.07348469228349536,-0.23418080887195472,-0.4150601678644185
17335198,1781.0,1,193382,241144,0.08,-0.85,10.15,-0.04,0.01,-0.0325,26.37,15.4167,-79.25746533022773,-214.64778989166234,10.18584311679696,0.0525,-0.6152573512730384,-0.2300686721269235
17375175,1834.0,1,193613,241337,0.17,-1.28,10.19,-0.06,0.0,-0.0325,26.37,15.456677,-17.087282286556984,138.56741261273993,10.271484800163995,0.0682367203197809,-0.12829354245034422,0.15267821456489666
17415864,1898.0,1,193780,241426,0.32,-1.22,9.49,-0.04,-0.02,-0.0325,26.23,15.497366,29.953489937094318,450.1403312743684,9.573447654842012,0.05528336096873995,0.24016529891898492,0.4903011813842133
17456198,1847.0,1,193805,241428,0.04,-1.17,9.45,-0.02,0.01,-0.0325,26.23,15.5377,-3.8538024798837793,559.057969039729,9.522237132102937,0.03944933459514875,-0.024638938021897858,0.6083252258334315
17496177,1877.0,1,193762,241306,0.03,-1.32,9.09,-0.05,0.0,-0.0325,26.23,15.577679,3.3989570393483044,433.94881396051693,9.18539057416722,0.05963430220938282,0.03217014998544181,0.4727559205948901
17536175,1891.0,1,193452,239776,0.42,-1.34,9.28,-0.06,-0.01,-0.0325,26.23,15.617677,34.33090144702539,161.24626725301255,9.38564861903534,0.0689655711206686,0.27445249058066923,0.17725320722023827
17576197,1936.0,1,193044,239264,0.38,-0.83,9.05,-0.04,-0.02,-0.0325,26.23,15.657699,60.32423383750797,-118.38207752405349,9.095922163255358,0.05528336096873995,0.4780518934644015,-0.12575435767322066
17616195,1941.0,1,193024,239615,-0.14,-1.06,9.8,-0.06,0.04,0.0275,26.23,15.697697,75.10575183338103,-282.97269357309904,9.858153985407208,0.07717674520216565,0.5938319016782321,-0.3041060974194049
17656178,1936.0,1,193013,239923,0.24,-1.17,9.69,-0.07,0.03,0.02,26.23,15.73768,57.479465064584815,-277.432934756877,9.763329350175583,0.07874007874011811,0.4557695167837758,-0.2981031693888479
17696169,1907.0,1,193125,240534,0.59,-1.26,9.71,-0.06,-0.0,-0.01,26.23,15.777671,33.35602414745201,-123.50637181869806,9.809169179905096,0.0608276253029822,0.2668165155892241,-0.13130708494504137
17736198,1885.0,1,193364,241517,0.43,-1.08,9.59,-0.06,0.01,-0.03,26.23,15.8177,0.6534921451338846,101.99930603960094,9.660196685368264,0.06782329983125268,0.010665596252078519,0.11305271474539447
17776178,1879.0,1,193621,242225,0.12,-1.15,10.02,-0.07,0.04,-0.0325,26.23,15.85768,-1.1201138697902315,305.7720688708107,10.086490965643106,0.08692669325356855,-0.0032266250362455668,0.33386254969371926
17815178,1901.0,1,193723,242641,0.29,-1.45,10.71,-0.06,0.03,-0.0325,26.23,15.89668,11.395213006375096,419.51740277921965,10.811600251581632,0.07454025757937786,0.09480286347269895,0.45711792522819233
17855178,1882.0,1,193801,242406,0.36,-1.28,10.17,-0.02,-0.02,-0.0325,26.23,15.93668,-7.1013666019200405,431.5719951511345,10.256554002197815,0.04308421984903522,-0.050076311966121854,0.47018038026403375
17895198,1886.0,1,193909,242292,-0.17,-1.1,10.43,-0.02,0.03,-0.0325,26.23,15.9767,-5.178388622837808,393.6782424568133,10.489223040816702,0.048541219597369,-0.03501409668651952,0.4291183994489796
17935198,1883.0,1,193886,242098,-0.04,-1.5349999999999997,10.5,-0.04,0.03,-0.0325,26.23,16.0167,-16.84408650428606,390.93082516168374,10.611683419703022,0.05963430220938282,-0.12638864948354891,0.4261412755633196
17975198,1854.0,1,193953,241943,0.25,-1.5349999999999997,9.95,-0.03,-0.03,-0.0325,26.23,16.0567,-38.655665762739616,480.4709946406975,10.070810543347541,0.053443895816079875,-0.29723340483313027,0.5231677366526418
18015215,1862.0,1,194038,242103,-0.05,-1.43,9.32,-0.01,-0.01,-0.0325,26.23,16.096717,-43.92293534191087,633.6734042784633,9.42919932974163,0.03544361719689457,-0.3384906366892342,0.6891791226484327
18055215,1823.0,1,194329,242338,-0.47,-1.19,9.41,-0.04,0.02,-0.0325,26.23,16.136717,-76.42295709511049,732.6135635027575,9.496583596220274,0.05528336096873995,-0.593055342870676,0.7963914896229817
18095198,1820.0,1,194471,242567,-0.23,-1.26,10.02,-0.05,0.0,-0.0325,26.23,16.1767,-84.35218205043486,644.1205508075553,10.101529587146691,0.05963430220938282,-0.6551630188693847,0.7004997362020733
18135198,1815.0,1,194344,241843,0.07,-0.97,9.68,-0.04,-0.05,-0.0325,26.23,16.2167,-94.51379827205193,328.434483235324,9.728730646903532,0.07180703308172535,-0.7347564686039176,0.3584197275315824
18175198,1792.0,1,193684,240195,-0.15,-1.15,10.06,-0.04,-0.01,-0.0325,26.23,16.2567,-108.45493275278362,-107.77641689373655,10.126628264136095,0.0525,-0.8439539586817216,-0.11426197694107135
18215246,1883.0,1,192961,239848,0.02,-0.88,10.05,-0.07,-0.01,0.0275,26.23,16.296748,-32.493882236808695,-470.9130204305288,10.088473620920066,0.0758699545274676,-0.24896966443493104,-0.5077597750598167
18255175,1927.0,1,193476,240753,0.26,-1.48,10.49,-0.06,-0.02,0.0275,26.23,16.336677,26.825542177070005,-610.4349986633893,10.597079786431733,0.0689655711206686,0.21566485062611274,-0.6589469335260373
18295178,1936.0,1,193787,241144,0.2,-1.23,9.85,-0.05,-0.04,0.02,26.23,16.37668,21.761740282864118,-511.1768090719295,9.928514491100872,0.0670820393249937,0.176001331286079,-0.5513899462405759
18335178,1955.0,1,193892,241245,0.17,-0.93,10.12,-0.05,-0.01,-0.0325,26.23,16.41668,52.141399287603946,-280.0049596383294,10.16406414777081,0.06046693311223913,0.413957755659014,-0.3008902366183722
18375198,1995.0,1,194088,241673,0.47,-1.3,10.61,-0.04,-0.03,-0.0325,26.23,16.4567,86.17588144963443,-58.32805142153969,10.699672892196284,0.05963430220938282,0.6805415141994786,-0.06067932307371195
18415909,1991.0,1,194290,241839,0.28,-1.43,9.46,-0.01,-0.06,-0.0325,26.27,16.497411,86.59108907326556,58.238755056182875,9.571567269783984,0.0689655711206686,0.6837937337677178,0.0656334232481289
18454198,2001.0,1,194461,242002,0.02,-0.94,9.74,0.0,-0.0,-0.0325,26.27,16.5357,97.90917361781287,46.52785434673335,9.785274651229775,0.0325,0.7724455164803171,0.0529433953129837
18494175,2007.0,1,194427,242077,-0.05,-1.24,9.72,-0.01,0.03,-0.0325,26.27,16.575677,104.85520487130583,-60.1483934529915,9.798902999826051,0.045345892868042637,0.8268520771466485,-0.06265186060978745
18534198,1971.0,1,194484,242298,0.07,-1.46,9.26,-0.01,-0.01,-0.0325,26.27,16.6157,72.25633557643123,-200.48501827816622,9.37465199354088,0.03544361719689457,0.5715131223941031,-0.21472177679637677
18574198,1931.0,1,194400,242606,0.16,-0.96,9.11,0.009999999999999998,-0.04,-0.0325,26.27,16.6557,34.99588602227341,-312.84251071968845,9.161839334980721,0.0525,0.27966115180245865,-0.33647327594923776
18614178,1911.0,1,194366,243066,-0.24,-0.74,9.22,-0.02,-0.01,-0.0325,26.27,16.69568,15.909420190572606,-363.2157736656791,9.25276174987771,0.03944933459514875,0.1301615421287912,-0.39105815629522467
18654211,1895.0,1,194466,243581,0.22,-0.94,10.13,-0.03,-0.01,-0.0325,26.27,16.735713,6.823221896533222,-366.911869215059,10.175897994771764,0.045345892868042637,0.05899157748712947,-0.39506327570800825
18694198,1907.0,1,194570,244209,0.23,-0.91,10.05,-0.03,-0.03,-0.0325,26.27,16.7757,16.874056550461997,-383.1271243424233,10.093735681104395,0.053443895816079875,0.13771730234925947,-0.41263425898649525
18734198,1917.0,1,194627,244653,0.25,-0.49,10.18,-0.02,-0.01,-0.0325,26.27,16.8157,35.714368907733245,-469.67455293147333,10.194851641882778,0.03944933459514875,0.28528885217824285,-0.5064177615332993
18774198,1933.0,1,194660,244870,0.69,-1.23,11.05,-0.03,-0.01,-0.0325,26.27,16.8557,50.435925104391096,-620.9571408361724,11.139636439309859,0.045345892868042637,0.400599194312609,-0.6703488129734861
18814198,1951.0,1,194830,244787,1.15,-1.51,10.68,-0.03,-0.08,-0.0325,26.27,16.8957,74.30488323761226,-744.903262052498,10.847349906774465,0.09141252649391111,0.5875588942224217,-0.8046578451915554
18855199,1966.0,1,194635,242610,0.76,-0.71,9.79,-0.03,-0.01,0.0275,26.27,16.936701,93.22838348342744,-720.7078954004434,9.845090146870163,0.04190763653560053,0.7357820343969702,-0.7784395476981864
18895175,1963.0,1,194410,242036,0.79,-1.5349999999999997,10.4,-0.05,-0.03,-0.0325,26.27,16.976677,88.88044891502753,-507.8749399331652,10.542311179243383,0.06675514961409344,0.7017257283949014,-0.5478120137955247
18935198,1938.0,1,195194,242902,0.73,-1.33,9.67,-0.01,-0.06,-0.0325,26.27,17.0167,75.22382899423658,-203.24105732153615,9.788294029094141,0.0689655711206686,0.5947567711441109,-0.21770824327905258
18975198,1907.0,1,196377,243475,0.78,-1.5349999999999997,9.58,-0.04,0.01,-0.0325,26.27,17.0567,35.1407225466051,37.7547524531133,9.733500141264702,0.0525,0.2807956208049973,0.043436790238782975
19015178,1829.0,1,196658,243045,0.76,-1.5349999999999997,9.44,-0.0,0.0,-0.0325,26.27,17.09668,-26.309337545081693,160.93539871763446,9.594134927131263,0.0325,-0.20052764140273158,0.17691634752891475
19055178,1783.0,1,195884,242648,0.38,-1.18,8.66,-0.03,0.01,-0.0325,26.27,17.13668,-85.69569877770256,277.1354828249061,8.748279830915333,0.045345892868042637,-0.6656864561619483,0.30283171048623697
19095178,1691.0,1,195440,243902,0.57,-1.5349999999999997,9.88,-0.05,0.01,-0.0325,26.27,17.17668,-160.03978946270396,524.9325229604419,10.014765349223117,0.06046693311223913,-1.2480055002927621,0.5713466129333995
19135178,1671.0,1,196659,246850,0.58,-1.5349999999999997,9.11,-0.01,-0.02,-0.0325,26.27,17.21668,-195.33797922189987,862.9666446748544,9.256604399022354,0.03944933459514875,-1.5244875707671255,0.9376431561298454
19175198,1665.0,1,198332,247994,0.24,-1.32,9.73,-0.05,0.03,-0.0325,26.27,17.2567,-182.88954955921645,1043.2811680178654,9.822061901657921,0.06675514961409344,-1.426982071738056,1.133033450617515
19215178,1728.0,1,197675,246406,0.75,-1.5349999999999997,10.04,-0.05,-0.02,-0.0325,26.27,17.29668,-139.0689480362928,834.0451571754572,10.184317601096303,0.06289872812704562,-1.0837460383566666,0.9063035953736724
19255198,1818.0,1,196021,245117,0.73,-1.11,9.8,-0.02,-0.04,-0.0325,26.27,17.3367,-27.973503491096803,265.0236503376068,9.889641045053153,0.05528336096873995,-0.21356264544985318,0.28970722959249945
19295198,1840.0,1,195310,245597,1.1,-1.5349999999999997,10.51,-0.07,0.01,-0.0325,26.27,17.3767,-28.41813231474381,-372.63084878656593,10.678310961945245,0.0778219120813669,-0.21704531406807825,-0.40126040881702585
19335177,1707.0,1,195731,246142,1.23,-1.5349999999999997,10.32,-0.06,-0.04,-0.0325,26.27,17.416679,-142.76850349657002,-770.1943399243179,10.505785310960814,0.07909646009778187,-1.1127237496917275,-0.8320634643378569
19375198,1746.0,1,196018,246220,0.81,-1.03,9.84,-0.06,0.0,-0.0325,26.27,17.4567,-120.671169541266,-832.7819421963064,9.926862545638475,0.0682367203197809,-0.9396407478266173,-0.8998839028276497
19415864,1798.0,1,196156,245952,1.13,-1.5349999999999997,10.19,-0.06,-0.01,-0.0325,26.27,17.497366,-61.441838226431116,-688.8994475380839,10.366736468146568,0.0689655711206686,-0.4757119099328453,-0.7439716530450239
19454198,1824.0,1,196095,245295,0.96,-1.35,9.13,-0.03,-0.05,-0.0325,26.27,17.5357,-42.34288249407596,-519.8326278026516,9.279062452640353,0.06675514961409344,-0.3261144699280336,-0.56076946231877
19494198,1877.0,1,195904,244334,0.58,-1.3,9.3,-0.07,0.05,-0.0325,26.27,17.5757,10.425632528751319,-406.0796262698107,9.408315470901261,0.09195787078874762,0.08720837718958563,-0.43750577808365543
19534175,1929.0,1,196064,244740,0.98,-1.5349999999999997,9.51,-0.04,0.01,-0.0325,26.27,17.615677,53.47523337615615,-315.24339565074916,9.682805636797632,0.0525,0.424405351215274,-0.3390748945266752
19574178,1962.0,1,196714,245247,0.21,-0.91,9.16,-0.05,0.01,-0.0325,26.27,17.65568,95.54198920705274,-186.95798613644527,9.207486084703035,0.06046693311223913,0.7539039410752755,-0.2000637739649178
19614178,1950.0,1,196764,245938,0.81,-1.5349999999999997,10.26,-0.07,0.05,-0.0325,26.27,17.69568,58.01620572418498,1.772900710021661,10.405764027691577,0.09195787078874762,0.4599736748407869,0.004446560955253425
19654183,1855.0,1,197037,246480,0.58,-1.5349999999999997,9.6,-0.04,-0.0,-0.0325,26.27,17.735685,-11.457390202737113,241.02314867976852,9.739231232494687,0.05153882032022076,-0.08419597737687667,0.26370008940304235
19694195,1931.0,1,197025,246872,0.55,-1.5349999999999997,9.9,-0.07,0.05,-0.0325,26.27,17.775697,26.08796499592814,519.1814635135245,10.033380536987522,0.09195787078874762,0.20988758931135593,0.5651147178086142
19734178,1916.0,1,197390,247365,0.77,-1.5349999999999997,10.1,-0.04,0.01,-0.0325,26.27,17.81568,41.171768180401976,825.7724834931947,10.244956076040541,0.0525,0.328035323331757,0.8973392584084087
19774178,1949.0,1,197647,247686,0.25,-1.4,10.03,-0.06,0.06,-0.0325,26.27,17.85568,38.621686806534605,1128.7699693156621,10.130320824139774,0.09086390922693124,0.30806116083405327,1.225669815960084
19814178,1955.0,1,198011,248327,0.63,-1.5349999999999997,10.1,-0.05,0.02,-0.0325,26.27,17.89568,66.53221576184876,1370.6862070724183,10.23538592335433,0.06289872812704562,0.5266774945963125,1.4878122327787444
19855178,1970.0,1,198278,248051,0.2,-1.36,9.79,-0.06,0.03,-0.0325,26.27,17.93668,55.18255569796395,1502.343422276821,9.886035605843222,0.07454025757937786,0.4377783885784023,1.6304770696054438
19893178,1954.0,1,198023,247891,0.52,-1.5349999999999997,10.4,-0.05,0.03,-0.0325,26.27,17.97468,54.589230250667505,1517.4123901371893,10.525522552348649,0.06675514961409344,0.4331310157456096,1.6468059266119404
19933178,1968.0,1,197714,247753,0.4,-1.5349999999999997,9.72,-0.05,0.01,-0.0325,26.27,18.01468,45.42478566230134,1438.0586078505514,9.848584923733968,0.06046693311223913,0.3613481670549357,1.56081751812306
19973178,1936.0,1,197474,247447,0.54,-1.5349999999999997,9.92,-0.06,0.02,-0.0325,26.27,18.05468,29.155126007454637,1257.1169631761259,10.052573053701227,0.07110731326663945,0.233911909899189,1.3647476698237904
20013178,1982.0,1,197168,247379,0.61,-1.5349999999999997,9.99,-0.05,-0.0,-0.0325,26.27,18.09468,52.031660711708504,906.3077799313542,10.125632079035856,0.05963430220938282,0.4130982002857367,0.9846079653099022
20053217,1971.0,1,196721,246177,0.66,-1.5349999999999997,10.1,-0.06,-0.02,-0.0325,26.27,18.134719,55.79901131788996,311.1309402159576,10.2372762490811,0.07110731326663945,0.4426069343852959,0.33966946657893293
20093198,1987.0,1,195832,245051,0.67,-1.5349999999999997,9.87,-0.06,-0.03,-0.0325,26.27,18.1747,54.01661991742907,-496.2472395833903,10.011095094943409,0.07454025757937786,0.4286458993249429,-0.5352121424516341
20133199,1973.0,1,194868,242848,0.66,-1.32,10.2,-0.05,-0.01,-0.0325,26.27,18.214701,47.754898266951514,-1316.214952632793,10.306211719152678,0.06046693311223913,0.37959936808725653,-1.4237358728354053
20173198,1946.0,1,193837,241058,0.65,-1.5349999999999997,9.76,-0.05,-0.01,-0.01,26.27,18.2547,12.838646691353718,-1860.5820412254482,9.901329456189204,0.05196152422706632,0.10610892581011273,-2.0136165090566966
20213198,1936.0,1,193673,241444,0.93,-1.13,10.06,-0.04,-0.01,-0.0325,26.27,18.2947,2.664081718397034,-1935.142913230163,10.165893959706644,0.0525,0.026414051679460347,-2.0944112807043753
20253198,1933.0,1,194335,243117,0.41,-1.5349999999999997,9.48,-0.04,0.03,-0.0325,26.27,18.3347,-0.9973098451054968,-1579.8487210445119,9.612217486095496,0.05963430220938282,-0.002264731204322506,-1.7094115837645238
20293177,1910.0,1,194976,243829,0.9,-1.5349999999999997,9.31,-0.04,-0.01,-0.0325,26.27,18.374679,-26.747743854259195,-1041.6848306852678,9.478519135392405,0.0525,-0.2039615705899597,-1.1262527839606238
20333198,1904.0,1,195081,243817,0.93,-1.45,9.96,-0.01,-0.01,-0.0325,26.27,18.4147,-32.65857210294658,-599.7022711029825,10.107868222330563,0.03544361719689457,-0.25025963979872673,-0.6473168620276114
20373198,1911.0,1,195026,243687,0.34,-1.5349999999999997,9.44,-0.0,-0.0,-0.0325,26.27,18.4547,-24.53320668043923,-389.5829410468012,9.570027429427775,0.0325,-0.18661564358528437,-0.4196298348482757
20413199,1920.0,1,194841,243389,1.03,-1.49,9.1,-0.01,-0.06,-0.0325,26.27,18.494701,-20.171916595758592,-361.8375692389964,9.278523589451071,0.0689655711206686,-0.15245472709699126,-0.3895647226893167
20453884,1920.0,1,194992,243937,0.94,-1.41,10.35,0.009999999999999998,0.0,-0.0325,26.37,18.535386,-11.533687989443978,-377.4616885794429,10.48781197390571,0.03400367627183861,-0.08479359924318866,-0.4064951463869853
20494169,1920.0,1,194785,243724,0.85,-1.14,9.88,-0.02,-0.02,-0.0325,26.37,18.575671,-22.2011389051004,-333.22061265789273,9.981808453381582,0.04308421984903522,-0.1683491281800788,-0.3585551541306816
20534198,1891.0,1,195074,244245,0.65,-1.5349999999999997,9.79,-0.01,-0.0,-0.0325,26.37,18.6157,-36.79047725094619,-211.63129879932734,9.93090252696098,0.03400367627183861,-0.2826238402893481,-0.22679997767057308
20574198,1919.0,1,195036,244507,0.93,-1.4,9.7,-0.01,-0.04,-0.0325,26.37,18.6557,-21.064157590484072,-42.14669011097587,9.844536555877072,0.0525,-0.15944343216279536,-0.043145067412741114
20614198,1923.0,1,195137,244677,1.15,-1.5349999999999997,9.49,0.0,-0.07,-0.0325,26.37,18.6957,-3.5204032280238815,157.2579717884755,9.681881273802112,0.07717674520216566,-0.02202750338239729,0.1729314575859211
20654178,1931.0,1,195127,244448,1.34,-1.26,10.19,-0.01,-0.06,-0.0325,26.37,18.73568,-2.4475694285726837,386.3713705784611,10.354675272552008,0.0689655711206686,-0.01362425913189377,0.42120061322951347
20694199,1923.0,1,195081,244661,1.2,-1.39,10.2,-0.02,-0.04,-0.0325,26.37,18.775701,-3.6453402322526154,615.1808887867263,10.36398089538957,0.05528336096873995,-0.023006104320396542,0.6691404813856054
20732198,1933.0,1,195471,244784,0.6,-1.19,10.04,-0.02,0.01,-0.0325,26.37,18.8137,7.565944536083353,750.0757663284755,10.128064968196046,0.03944933459514875,0.06480914191669082,0.8153136756414087
20772177,1939.0,1,195298,244605,0.46,-1.26,9.99,-0.01,0.02,-0.0325,26.37,18.853679,14.227785905619145,676.2743381932332,10.079647811307694,0.03944933459514875,0.1169897128634255,0.7353418435914503
20812178,1930.0,1,195142,243291,0.66,-1.02,9.29,-0.02,-0.03,-0.0325,26.37,18.89368,10.413739023601245,357.5223978547553,9.369103478988798,0.048541219597369,0.0871152182782782,0.389939630078263
20852198,1936.0,1,194175,241644,1.1,-1.15,9.86,-0.0,-0.03,-0.0325,26.37,18.9337,16.8074365837864,-101.02673537664472,9.987597308662378,0.044229515032385334,0.13719548447567848,-0.10694796676112724
20893198,1921.0,1,193488,241283,1.34,-1.17,9.25,-0.01,-0.05,-0.0325,26.37,18.9747,4.990320138654603,-502.0637414208088,9.419501048357073,0.06046693311223913,0.04463490717481243,-0.5415149514868184
20933198,1910.0,1,193482,241362,1.28,-1.16,8.66,-0.01,-0.05,-0.0325,26.37,19.0147,-2.320648067261363,-687.9914984320559,8.830605868228973,0.06046693311223913,-0.012630115211138267,-0.7429877919565349
20973198,1927.0,1,193664,241989,1.3,-1.22,9.44,-0.01,-0.02,-0.0325,26.37,19.0547,15.505292033990926,-642.2867251040215,9.606872540010093,0.03944933459514875,0.1269961053108994,-0.6934617252011197
21013198,1904.0,1,193702,241841,1.34,-1.18,8.69,-0.0,-0.05,-0.0325,26.37,19.0947,-3.6320523971652072,-475.5960315526922,8.871533125677884,0.05963430220938282,-0.022902023964373994,-0.5128343242712959
21053198,1872.0,1,193703,241945,1.06,-1.17,8.67,-0.02,-0.02,-0.0325,26.37,19.1347,-32.43359084045904,-320.8208812212209,8.81257056709335,0.04308421984903522,-0.24849741670188122,-0.34511870357716473
21093198,1874.0,1,193620,241765,1.13,-0.97,9.05,-0.02,-0.03,-0.0325,26.37,19.1747,-30.942536177984657,-236.2255512105375,9.171711944887935,0.048541219597369,-0.2368183509173824,-0.25345051103991795
21133198,1873.0,1,193555,241736,1.05,-1.13,8.540000000000001,-0.02,-0.03,-0.0325,26.37,19.2147,-24.15637541381283,-190.0779633815493,8.67819105574428,0.048541219597369,-0.18366401661724135,-0.20344460686408503
21173198,1879.0,1,193756,241749,0.92,-0.86,8.57,-0.03,0.0,-0.0325,26.37,19.2547,-22.42729432132502,-117.21837313363302,8.662037866460755,0.044229515032385334,-0.17012054813541758,-0.12449335806362011
21213175,1854.0,1,193784,242496,0.81,-0.95,9.54,-0.02,0.01,-0.0325,26.37,19.294677,-38.22850177797346,16.609647436718713,9.621340862894318,0.03944933459514875,-0.2938875340180566,0.02052378123913284
21253178,1838.0,1,193888,242918,0.92,-0.95,9.34,-0.02,-0.02,-0.0325,26.37,19.33468,-58.09813338087828,194.4361884080961,9.433159597928999,0.04308421984903522,-0.44952148926084,0.21321807764932713
21293199,1826.0,1,194091,243395,0.8,-1.06,9.56,-0.03,-0.0,-0.0325,26.37,19.374701,-63.17479911939575,373.73689466348264,9.651797760003056,0.044229515032385334,-0.4892857679410493,0.40750979163646345
21333198,1844.0,1,194132,243602,1.01,-0.76,10.52,-0.04,-0.03,-0.0325,26.37,19.4147,-46.73141749492968,523.5839286041438,10.595664207589818,0.05963430220938282,-0.36048878916827587,0.5698852650423024
21373198,1879.0,1,194149,243803,1.25,-0.72,10.15,-0.05,-0.06,-0.0325,26.37,19.4547,-6.901892576616002,639.5993833884046,10.251994927817707,0.08459462157844315,-0.048513880807522614,0.6956005621528734
21413198,1904.0,1,194228,243817,1.28,-0.89,9.5,-0.05,-0.03,-0.0325,26.37,19.4947,16.98237662460221,730.3862234506427,9.627071205719837,0.06675514961409344,0.1385657469458955,0.7939779256979115
21453198,1897.0,1,194414,243793,0.92,-0.8,9.44,-0.04,0.0,-0.0325,26.37,19.5347,15.309870711508347,795.144678625963,9.518403227432634,0.05153882032022076,0.1254654179803757,0.8641507181756553
21493874,1905.0,1,194289,243804,1.13,-0.67,10.69,-0.02,0.01,-0.0325,26.31,19.575376,20.389816363935722,815.5412712529097,10.77041781919346,0.03944933459514875,0.16525538742249016,0.8862526330188815
21532178,1905.0,1,194147,244036,1.26,-1.16,10.4,-0.03,-0.0,-0.0325,26.31,19.61368,27.43879309822128,768.0351071515839,10.540075901054983,0.044229515032385334,0.22046829481282326,0.8347745644659671
21572198,1890.0,1,194227,243975,1.31,-1.19,9.25,-0.05,-0.03,-0.03,26.31,19.6537,7.7706181635122125,645.3053270185936,9.417786364109137,0.06557438524302,0.0664123002845583,0.7017835694090989
21612198,1851.0,1,193994,243210,0.98,-1.05,9.55,-0.05,0.0,-0.03,26.31,19.6937,-23.39958820877532,469.56872146831313,9.65740130676985,0.05830951894845301,-0.17773628789277418,0.5113539441402941
21652178,1861.0,1,193663,242611,1.14,-0.69,10.75,-0.03,0.01,-0.03,26.31,19.73368,-18.599201025718507,285.7961476628673,10.832275845822982,0.04358898943540673,-0.14013603143473935,0.3122164778459308
21692196,1887.0,1,193638,242990,1.29,-0.96,10.07,-0.06,-0.01,-0.02,26.31,19.773698,15.41927779031486,136.928818421723,10.197578143853569,0.06403124237432849,0.12632237681818964,0.1509026204774502
21732198,1915.0,1,193589,242608,1.24,-1.0,9.36,-0.04,-0.03,-0.01,26.31,19.8137,37.054018225106326,39.54589680883737,9.494587932080043,0.05099019513592785,0.2957819969968205,0.04537768893427576
21772198,1909.0,1,193492,242585,1.37,-0.81,10.1,-0.04,-0.02,-0.02,26.31,19.8537,41.44200115833613,-18.964053075676393,10.224627132565764,0.048989794855663564,0.3301519920266502,-0.018024172027563647
21812198,1937.0,1,193631,242221,1.21,-0.51,9.18,-0.06,-0.0,-0.01,26.31,19.8937,58.58792978654244,-58.95263736451407,9.27343517796938,0.0608276253029822,0.46445184931882577,-0.06135612951763034
21852198,1933.0,1,193584,242424,0.87,-0.85,10.07,-0.04,0.03,-0.0,26.31,19.9337,70.83431972340124,-83.233403370101,10.143189833577996,0.05,0.5603748206858499,-0.08766696645001054
21892178,1919.0,1,193667,242611,1.34,-0.86,10.3,-0.02,-0.02,-0.0,26.31,19.97368,39.3400305857399,-73.65554245808853,10.422341387615358,0.0282842712474619,0.31368777162463407,-0.07728831791153389
21933198,1887.0,1,193715,242916,0.98,-1.06,8.83,-0.05,-0.01,0.01,26.31,20.0147,28.682934754238417,-15.503737277131181,8.947228621198857,0.05196152422706632,0.2302133515243904,-0.014274545484104801
21973178,1923.0,1,193865,243278,0.82,-0.78,9.99,-0.01,-0.01,0.0,26.31,20.05468,45.177414610171226,73.22150655742136,10.053899740896565,0.01414213562373095,0.3594105702224937,0.08186885550165643
22011178,1883.0,1,194201,244126,0.9,-0.53,10.68,-0.02,0.0,0.01,26.31,20.09268,23.271754145644366,140.75730652770568,10.730950563673286,0.022360679774997897,0.18782889984057433,0.15505120154902302
22051169,1887.0,1,194326,244215,0.85,-0.82,9.82,-0.03,0.0,0.01,26.31,20.132671,16.064659509597096,137.68793558587092,9.890768423130734,0.03162277660168379,0.1313774936729278,0.151725206054605
22091166,1901.0,1,194296,244160,0.83,-1.14,10.51,-0.02,-0.02,0.01,26.31,20.172668,35.24616648845174,59.33376759419873,10.604178421735462,0.030000000000000002,0.28162153736218115,0.0668199878037948
22131177,1879.0,1,194198,244251,1.2,-0.92,9.79,-0.02,-0.04,0.01,26.31,20.212679,16.395822864190304,-49.96466491392286,9.906083989145255,0.0458257569495584,0.1339714150770506,-0.051616688947846934
22171178,1855.0,1,194311,244308,1.04,-0.57,9.68,-0.03,-0.04,0.01,26.31,20.25268,-15.963303619791905,-141.94706471856878,9.752379196893443,0.05099019513592785,-0.11948969298734832,-0.15128957082283284
22211177,1856.0,1,194388,244211,1.0,-0.96,10.37,-0.04,0.03,0.02,26.31,20.292679,-2.8795446673027487,-220.02043903267477,10.46224163360797,0.05385164807134504,-0.01700781532025697,-0.23589051874459382
22251166,1883.0,1,194404,244058,1.0,-0.53,10.5,-0.03,-0.01,0.02,26.31,20.332668,12.403207857711608,-349.94633068783827,10.560819097020836,0.03741657386773942,0.10269824013156606,-0.37667927919171185
22291178,1850.0,1,194388,243890,0.83,-0.97,9.84,-0.03,0.02,0.0275,26.31,20.37268,-12.185600640879953,-605.8912483735886,9.922469450696232,0.045345892868042637,-0.08989987128906585,-0.6540232884932202
22331166,1856.0,1,194265,243341,1.04,-1.14,10.27,-0.04,-0.01,0.0275,26.31,20.412668,-9.656168207392227,-989.7498628428526,10.385282856042005,0.04956056900399752,-0.07008744688128156,-1.0699756273966268
22371178,1856.0,1,193888,242112,1.19,-1.22,9.18,-0.03,-0.03,0.0275,26.31,20.45268,-12.433766677558259,-1392.0786762400069,9.336857072912704,0.05055937104039171,-0.09184369504066092,-1.5059424251514766
22411178,1810.0,1,193692,242224,1.24,-0.72,9.17,-0.05,-0.06,0.0275,26.31,20.49268,-52.43254131183878,-1637.2901498428191,9.281427691901715,0.08280247580839598,-0.40514429495151755,-1.7716555865248749
22451178,1816.0,1,194132,243043,1.06,-0.89,9.54,-0.04,-0.0,0.0275,26.31,20.53268,-55.313675290300715,-1589.7851534415026,9.639880704656049,0.048541219597369,-0.4277115113757442,-1.7201787833012554
22491175,1808.0,1,194659,243527,0.79,-0.65,9.46,-0.05,0.02,0.0275,26.31,20.572677,-57.2999965515317,-1245.307893651134,9.515156330822947,0.06046693311223913,-0.44326987906198845,-1.3469004029086402
22531855,1806.0,1,195228,245045,0.74,-0.86,10.1,-0.03,0.03,0.0275,26.31,20.613357,-63.737891309166166,-739.0652363816089,10.163523011239754,0.05055937104039171,-0.4936963310763757,-0.7983317127541162
22572166,1827.0,1,196080,246295,0.86,-1.31,9.65,-0.03,0.01,0.0275,26.31,20.653668,-45.22533311332682,-262.91910917133174,9.776410384184985,0.04190763653560053,-0.34869199927691386,-0.28237586909863377
22612170,1817.0,1,196686,247072,1.11,-1.47,9.71,-0.03,-0.02,0.0275,26.31,20.693672,-50.4012631350365,50.3481958550879,9.883172567551375,0.045345892868042637,-0.38923379076240755,0.05708314866463626
22652178,1822.0,1,196817,246936,0.94,-1.07,9.16,-0.02,-0.04,0.0275,26.31,20.73368,-57.52790424127324,194.176232307606,9.270064724693135,0.0525,-0.4450550241463863,0.21293638708948243
22692177,1813.0,1,196912,247242,0.92,-1.4,9.24,-0.04,-0.01,0.0275,26.31,20.773679,-53.469159975034906,261.84105372478575,9.39063363144362,0.04956056900399752,-0.4132638749143445,0.28625854183354604
22732178,1842.0,1,197319,247284,0.75,-0.51,9.81,-0.03,-0.01,0.0275,26.31,20.81368,-44.44438770313232,355.01788693337994,9.851837392080729,0.04190763653560053,-0.3425750452514804,0.3872257215288989
22772178,1851.0,1,197940,248283,0.38,-1.01,10.65,-0.05,0.06,0.0275,26.31,20.85368,-15.725910313916776,505.611152271269,10.704531750618521,0.08280247580839598,-0.11763024939625,0.550409817389308
22812169,1894.0,1,198098,248474,0.69,-0.92,10.1,-0.03,-0.0,0.0275,26.31,20.893671,1.454373105615301,668.0811126707044,10.165259465453895,0.04069705149024926,0.016938700557653057,0.7264635973028502
22852178,1894.0,1,198267,249040,0.5,-1.5349999999999997,11.08,-0.03,0.04,0.0275,26.31,20.93368,24.48922123148524,771.2573033641154,11.196991783510427,0.05706356105256664,0.1973650211806207,0.8382661626755351
22892166,1931.0,1,198394,249264,1.04,-1.28,10.06,-0.02,-0.03,-0.01,26.31,20.973668,35.840800052171836,774.7698251267265,10.194292520817715,0.03741657386773942,0.28627915635036316,0.8420723600292854
22932198,1882.0,1,198651,249239,0.79,-1.5349999999999997,10.09,-0.03,-0.01,0.02,26.31,21.0137,4.864407003315275,689.3349161593043,10.236621757200956,0.03741657386773942,0.04364866044102726,0.7494943928573533
22972178,1901.0,1,198432,249058,0.9,-1.52,9.73,-0.04,-0.05,0.02,26.31,21.05368,7.813885100554822,559.3968281322136,9.889049499319944,0.0670820393249937,0.06675119959974225,0.6086924163217121
23012177,1911.0,1,198687,249110,0.8,-0.96,10.35,-0.02,-0.02,0.0275,26.31,21.093679,23.240645209992138,428.8076419183011,10.42516666533442,0.03944933459514875,0.18758523117093268,0.46718490445755206
23052178,1909.0,1,198433,248391,0.67,-0.97,9.59,-0.05,-0.04,0.02,26.31,21.13368,18.29748106995652,310.6137313892247,9.662189192931383,0.0670820393249937,0.14886663779673218,0.33910901485772177
23092178,1936.0,1,198364,247859,0.86,-0.89,9.78,-0.04,-0.04,0.02,26.31,21.17368,40.32489287451892,177.3989589107192,9.857996753904922,0.060000000000000005,0.3214019565896805,0.19475639621053406
23132175,1953.0,1,198213,248348,0.79,-0.79,10.02,-0.04,-0.04,0.0275,26.31,21.213677,60.49676733816461,-16.10983641194993,10.082093036666542,0.06289872812704562,0.4794033060952804,-0.014931319471276518
23172177,1967.0,1,198330,247949,0.85,-1.02,9.73,-0.06,-0.05,0.0275,26.31,21.253679,68.94524882982512,-282.5492702586103,9.820173114563715,0.08280247580839598,0.5455781912980011,-0.30364727244747786
23212178,1970.0,1,197943,247438,0.74,-1.07,9.74,-0.05,-0.03,0.0275,26.31,21.29368,71.77695244010012,-557.6624709339674,9.826499885513662,0.06446898479113813,0.5677582317612545,-0.6017621902078552
23252177,1952.0,1,197666,247083,0.85,-1.17,9.63,-0.05,-0.01,0.0275,26.31,21.333679,54.51616106223308,-711.4317230634471,9.737982337219554,0.05793315113128234,0.4325586826983896,-0.76838781137079
23290178,1942.0,1,197637,247252,0.6,-1.2,10.1,-0.03,0.0,0.0275,26.31,21.37168,38.131713951729445,-629.0496574742843,10.188719252192593,0.04069705149024926,0.30422332353143433,-0.6791179302900051
23330186,1920.0,1,197935,247778,0.84,-1.42,9.69,-0.03,-0.0,0.0275,26.31,21.411688,22.395737673635015,-306.74043005065585,9.829450645890644,0.04069705149024926,0.18096727748534594,-0.32986101135288176
23370178,1915.0,1,198582,248289,0.81,-1.1,9.98,-0.02,0.01,0.0275,26.31,21.45168,8.145542622109751,126.07860874044576,10.073058125514814,0.03544361719689456,0.06934899169257935,0.13914524439052892
23410169,1910.0,1,198929,248894,0.94,-1.37,9.97,-0.02,0.01,0.0275,26.31,21.491671,10.641501403797188,494.01281337560783,10.10749227058819,0.03544361719689456,0.08889922518861382,0.5378417623576008
23450169,1931.0,1,198988,248985,1.06,-1.37,9.63,-0.01,-0.02,0.0275,26.31,21.531671,23.48387304448862,707.5695697239762,9.784549044284056,0.03544361719689456,0.1894903751949563,0.769253612823813
23490178,1926.0,1,198830,249032,1.05,-1.5349999999999997,9.39,-0.03,-0.04,0.0275,26.31,21.57168,24.38280975859014,824.8466879893525,9.572399124566422,0.05706356105256664,0.19653152618983016,0.8963360588170648
23530178,1909.0,1,198876,249195,0.96,-1.31,9.15,-0.02,-0.06,0.0275,26.31,21.61168,1.8675008648448757,984.0292817104573,9.293018885163207,0.0689655711206686,0.020174629057710766,1.0688276212704741
23570864,1888.0,1,198977,249470,0.83,-1.14,9.78,-0.02,-0.05,0.0275,26.47,21.652366,-15.494093494084913,1261.8451899313295,9.881138598360009,0.06046693311223913,-0.11581448505379675,1.3698712150656025
23611178,1893.0,1,199335,250434,0.47,-1.17,9.66,-0.02,0.0,0.0275,26.47,21.69268,-13.060184222074119,1580.2618393649602,9.741940258490605,0.03400367627183861,-0.09675027016167237,1.714910104607861
23651169,1881.0,1,199541,250037,0.55,-0.56,9.93,-0.01,-0.02,0.0275,26.47,21.732671,-24.261191096607618,1742.9671863023063,9.960973847972898,0.03544361719689456,-0.18448501217522847,1.8912189513019824
23691175,1847.0,1,198816,249556,0.38,-0.73,10.2,-0.02,-0.02,0.0275,26.47,21.772677,-56.846286363017505,1573.2360928712894,10.233147120998504,0.03944933459514875,-0.43971607833816984,1.7072969481579912
23731177,1852.0,1,198304,248551,0.21,-0.91,10.33,-0.03,-0.0,0.0275,26.47,21.812679,-55.346627944848876,1043.7473126114849,10.372130928599002,0.04069705149024926,-0.4279696214436898,1.1335385687174468
23771178,1874.0,1,197427,246470,0.14,-0.77,10.53,-0.01,0.02,0.0275,26.47,21.85268,-26.76670361801577,301.8833130198478,10.559043517288863,0.03544361719689456,-0.20411007777332757,0.32964866200002035
23811170,1873.0,1,196061,245326,0.35,-0.86,10.7,-0.0,-0.03,0.0275,26.47,21.892672,-35.60161063122119,-419.7465927274649,10.740209495163489,0.04069705149024926,-0.27331173939177184,-0.45231541488609023
23851178,1858.0,1,195783,245044,0.47,-1.35,10.34,-0.0,-0.02,0.0275,26.47,21.93268,-41.14675632664203,-933.2278533256566,10.43834278034593,0.03400367627183861,-0.3167455067722236,-1.0087279149004393
23891177,1866.0,1,195259,244787,0.55,-1.02,9.92,-0.01,-0.05,0.02,26.47,21.972679,-40.23902240246801,-1171.7342317996197,9.987457133825407,0.05477225575051661,-0.30963544938663007,-1.2671753802694097
23931178,1840.0,1,195253,244574,0.4,-0.99,9.69,-0.03,-0.05,0.02,26.47,22.01268,-61.26381152878693,-1174.2039769781393,9.748651188754268,0.061644140029689765,-0.4743174704360846,-1.269851616375042
23971178,1855.0,1,194985,244246,0.55,-0.88,9.73,-0.04,-0.06,0.02,26.47,22.05268,-45.08523083253371,-1020.312478897348,9.78518267586252,0.07483314773547883,-0.3475946124438747,-1.1030935284979242
24011175,1866.0,1,194883,243952,0.6,-0.52,10.35,-0.02,-0.04,0.0275,26.47,22.092677,-38.446690137288506,-787.0656832393943,10.380409433158212,0.0525,-0.29559654996896984,-0.8503453901507014
24051178,1860.0,1,194807,244129,0.26,-0.66,9.74,-0.04,-0.01,0.0275,26.47,22.13268,-35.37238657085267,-551.8483469268293,9.765797458477214,0.04956056900399752,-0.2715162834988328,-0.59546195780904
24091178,1922.0,1,195142,244433,0.38,-0.89,9.43,-0.04,-0.01,0.0275,26.47,22.17268,19.178317996069797,-402.1802801476835,9.479525304570899,0.04956056900399752,0.15576601758769235,-0.4332804146853758
24131178,1921.0,1,194983,243905,0.24,-0.57,9.22,-0.04,-0.02,0.0275,26.47,22.21268,24.84911419594676,-406.897764592841,9.24071966894354,0.0525,0.20018397457857945,-0.43839231947202956
24171178,1910.0,1,194446,243548,0.4,-0.43,10.2,-0.04,-0.02,0.0275,26.47,22.25268,13.832983769379146,-561.76292247051,10.216892874059118,0.0525,0.11389732447750552,-0.6062054730804909
24211178,1936.0,1,193930,243184,0.62,-0.74,10.32,-0.02,-0.05,0.0275,26.47,22.29268,37.461669217657324,-770.015182375941,10.365056680983468,0.06046693311223913,0.2989750273255803,-0.8318693277509196
24251177,1923.0,1,193742,243075,0.57,-0.91,10.06,-0.03,-0.01,0.0275,26.47,22.332679,32.093575225563576,-894.0940821279086,10.117143865736022,0.04190763653560053,0.25692806255032824,-0.9663222398778265
24291178,1923.0,1,193695,243147,0.59,-1.0,10.32,-0.03,-0.0,0.0275,26.47,22.37268,26.757180924043354,-846.0007089721918,10.385109532402632,0.04069705149024926,0.21512939368325049,-0.9142078667836244
24331178,1911.0,1,193664,243305,0.39,-0.91,9.84,-0.03,-0.01,0.0275,26.47,22.41268,20.223516694732062,-645.966427669076,9.889681491332265,0.04190763653560053,0.1639528028657665,-0.69744908104181
24371177,1891.0,1,193808,243397,0.39,-1.03,9.76,-0.02,0.0,0.0275,26.47,22.452679,1.7622899673800385,-405.1876195667949,9.821944817601043,0.03400367627183861,0.019350537880061466,-0.43653919231365795
24411166,1893.0,1,193847,243240,0.61,-0.67,9.41,-0.04,-0.03,0.0275,26.47,22.492668,0.3992791947857905,-247.01275914006942,9.453523152772199,0.05706356105256664,0.00867440850751927,-0.2651396179125877
24451178,1886.0,1,193869,242926,0.23,-1.29,9.6,-0.05,0.03,0.0275,26.47,22.53268,3.66180713699499,-224.06477189932784,9.68901439775997,0.06446898479113813,0.034228990388236444,-0.24027299096685772
24491166,1900.0,1,193489,241352,0.18,-0.81,9.21,-0.04,0.01,0.0275,26.47,22.572668,8.042471324186158,-289.6454747212262,9.247302309322434,0.04956056900399752,0.06854165947382242,-0.31133677772963225
24531170,1888.0,1,193248,241572,0.41,-0.97,10.73,-0.03,0.03,0.0275,26.47,22.612672,9.808200109326142,-340.91143708900887,10.781553691374912,0.05055937104039171,0.0823721803515822,-0.3668889944813568
24569856,1904.0,1,193472,242074,0.57,-1.02,9.53,-0.04,-0.04,0.0275,26.41,22.651358,15.232593418359643,-296.7261149011987,9.601364486363384,0.06289872812704562,0.12486012388013529,-0.319009417427624
24610177,1901.0,1,193494,242698,0.66,-0.69,10.39,-0.06,-0.04,0.0275,26.41,22.691679,26.17685620719384,-149.19384218274922,10.433781673008115,0.07717674520216565,0.21058385238618718,-0.15914223824285686
24650178,1933.0,1,193652,242409,0.39,-0.51,9.22,-0.06,-0.05,0.02,26.41,22.73168,46.718613607588814,43.9071987292753,9.242326546925293,0.0806225774829855,0.3714824042946083,0.05010363141957938
24690177,1946.0,1,193674,242533,0.5,-1.36,10.26,-0.07,0.03,0.0275,26.41,22.771679,76.63281137156683,207.56994609975504,10.361814512912302,0.08097067370350824,0.6057929848310938,0.22744992506530737
24730169,1954.0,1,193784,242074,0.46,-0.58,9.94,-0.03,0.02,0.0275,26.41,22.811671,67.89814423643459,295.5266511456915,9.967527276110157,0.045345892868042637,0.5373764776135647,0.3227605311244656
24770169,1899.0,1,193708,241796,0.22,-1.41,10.15,-0.05,0.04,0.0275,26.41,22.851671,36.51175998349527,305.81585588674284,10.249829266870742,0.06968679932383177,0.29153462107201533,0.33390999766285173
24810169,1897.0,1,193773,241361,0.3,-0.52,9.89,-0.03,0.0,0.0275,26.41,22.891671,11.027327367347986,268.71364122000875,9.908203671705584,0.04069705149024926,0.09192130541349278,0.2937057339381411
24850169,1845.0,1,193573,241505,0.5,-1.39,10.11,-0.06,0.0,0.02,26.41,22.931671,-12.44626798798084,226.7087678497237,10.217347992507644,0.06324555320336758,-0.09194161474172372,0.24818890908358132
24890169,1872.0,1,193715,241690,0.48,-0.85,9.29,-0.03,-0.03,0.0275,26.41,22.971671,-11.510374737689657,221.87097532154786,9.341145540028803,0.05055937104039171,-0.08461099225516755,0.24294663747270076
24930178,1835.0,1,193790,242417,0.31,-0.95,10.01,-0.05,0.04,0.0275,26.41,23.01168,-20.155745125540687,290.5795056480002,10.059756458284664,0.06968679932383177,-0.15232805993363352,0.3173997637400855
24970166,1840.0,1,193989,242707,0.77,-1.34,9.73,-0.04,-0.02,0.02,26.41,23.051668,-40.04874761735829,454.13673564629573,9.851974421404067,0.048989794855663564,-0.30814507362217614,0.49463171789700033
25010177,1807.0,1,194119,243283,0.46,-1.12,9.57,-0.03,-0.02,0.0275,26.41,23.091679,-46.2678912424935,698.2493224739444,9.646289442060091,0.045345892868042637,-0.35685810162120724,0.7591541165596248
25050178,1813.0,1,194377,243579,0.1,-0.79,9.61,-0.03,-0.0,0.0275,26.41,23.13168,-65.1234073292753,954.610466826411,9.642935237779003,0.04069705149024926,-0.504548738537735,1.0369491524865848
25090178,1791.0,1,194649,243944,0.5,-1.5349999999999997,10.3,-0.02,0.02,0.02,26.41,23.17168,-59.83607351656656,1113.3937121924735,10.425748174591597,0.034641016151377546,-0.4631343484571224,1.2090079777913263
25130166,1840.0,1,194841,243785,0.52,-1.01,9.51,-0.01,-0.03,0.02,26.41,23.211668,-37.0112975351621,1079.5256985553478,9.577609305040585,0.03741657386773942,-0.28435347146305007,1.1723083207943021
25170178,1809.0,1,194691,242151,0.1,-1.28,9.84,0.009999999999999998,-0.01,0.02,26.41,23.25168,-41.232949335174865,840.994330414109,9.923406673113824,0.024494897427831782,-0.3174206354862496,0.9138337764171764
25210169,1845.0,1,193916,240924,0.13,-0.99,10.52,-0.02,-0.01,0.02,26.41,23.291671,-29.27741791478088,489.5911866081791,10.567279687790988,0.03,-0.22377588760308967,0.5330504513739648
25250178,1856.0,1,193792,240878,0.4,-1.17,10.71,-0.01,-0.01,0.01,26.41,23.33168,2.972555981836255,165.69364623051763,10.78114094147739,0.017320508075688773,0.028830254992592317,0.18207242350965466
25290178,1897.0,1,193811,241154,0.31,-0.91,10.22,-0.02,-0.04,0.02,26.41,23.37168,26.788374977329287,-32.72056683294642,10.265115683712484,0.048989794855663564,0.21537372905845867,-0.03293084301736249
25330178,1888.0,1,193843,241340,0.28,-1.09,10.31,-0.0,-0.03,0.02,26.41,23.41168,30.551389438457715,-103.39668296664826,10.371239077371614,0.03605551275463989,0.24484849919640073,-0.10951606138238106
25370178,1886.0,1,193682,241647,0.35,-1.04,10.34,-0.03,-0.03,0.01,26.41,23.45168,18.60168929389674,-119.96659685909997,10.398062319490107,0.04358898943540673,0.1512494262678721,-0.12747135580379937
25410178,1888.0,1,193781,241917,0.64,-1.34,10.22,-0.02,-0.07,0.01,26.41,23.49168,26.771502372408413,-167.1445127290981,10.327322983232392,0.07348469228349536,0.2152415700787874,-0.17859373188449865
25450178,1897.0,1,193584,241654,0.73,-0.82,9.74,-0.01,-0.11,0.02,26.41,23.53168,29.929658074672037,-284.28897612558717,9.801678427697983,0.11224972160321824,0.2399786297806885,-0.30553243197522095
25490178,1872.0,1,193506,241455,0.27,-1.37,10.27,-0.0,-0.01,0.0275,26.41,23.57168,7.730265654934349,-447.7190829057205,10.364492269281694,0.029261749776799063,0.06609622897335075,-0.4826266343716429
25530178,1869.0,1,193426,241379,0.29,-0.92,9.77,-0.01,-0.02,0.0275,26.41,23.61168,0.5061585086347296,-588.124966227396,9.817504774635966,0.03544361719689456,0.009511567981855642,-0.634771599632351
25570178,1865.0,1,193511,241679,0.55,-1.25,10.16,0.009999999999999998,-0.05,0.0275,26.41,23.65168,-2.279734453626916,-625.290054443594,10.25137064006565,0.05793315113128234,-0.012309648901522686,-0.6750439936502709
