timestamp_us,ecg,leads,ir,red,accX,accY,accZ,gyroX,gyroY,gyroZ,temp,time_sec,ecg_filtered,ppg_filtered,accel_magnitude,gyro_magnitude,ecg_norm,ppg_norm
1948961,1742,1,197592,244021,0.16,-0.84,9.56,-0.07,0.04,-0.0975,25.67,0.030471,-2.753256334027521,-22.32812075423426,9.598166491575357,0.12651580928879996,-0.03851562605613706,-0.045115452270777553
1989180,1742,1,197696,243878,0.08,-1.03,11.02,0.01,-0.06,-0.01,25.67,0.07069,-14.748354984487797,137.97214831676592,11.068319655665896,0.06164414002968976,-0.2612089403768975,0.13533210406837404
2029175,1742,1,197827,243915,0.82,-1.0,9.53,-0.11,-0.07,-0.02,25.67,0.110685,-27.08944582207097,382.02554420422996,9.617343708114003,0.1319090595827292,-0.4903257239099375,0.4100592717729944
2069200,1742,1,198854,244312,0.57,-1.82,10.04,-0.05,-0.07,-0.01,25.67,0.15071,-38.96878244026882,712.7703781657266,10.219535214480157,0.08660254037844388,-0.7108698745274017,0.7823736627969802
2109192,1742,1,198831,243993,1.04,-0.58,8.73,-0.12,0.09,-0.02,25.67,0.190702,-51.22638547584274,1042.6738642372934,8.810839914559793,0.15132745950421556,-0.9384366770326422,1.153740961394679
2149174,1742,1,199216,244434,-0.18,-1.8,9.71,0.0,0.03,-0.01,25.67,0.230684,-63.46628463938984,1256.8794536102241,9.87706940342124,0.03162277660168379,-1.1656748007956024,1.3948689107146701
2189172,1742,1,199103,243807,0.54,-1.64,10.34,-0.03,0.02,-0.01,25.67,0.270682,-75.13386857583212,1289.7451362540944,10.483167460266959,0.03741657386773942,-1.3822876868282066,1.4318653060100375
2229174,1742,1,199124,243529,-0.29,-2.19,10.65,0.01,-0.0,0.0,25.67,0.310684,-87.75152311252828,1157.9109879882385,10.87670446412883,0.01,-1.6165389747593337,1.2834616256263793
2269172,1742,1,199001,243640,0.52,-1.27,10.16,-0.04,-0.04,-0.01,25.67,0.350682,-99.22358428294505,939.01156318568,10.252263164784642,0.05744562646538029,-1.829521910421358,1.0370498976948916
2309195,1742,1,198840,243452,0.06,-1.91,9.84,-0.06,-0.03,-0.01,25.67,0.390705,-110.85913079673206,721.1739191688683,10.02383659084684,0.06782329983125268,-2.0455400101965666,0.7918334001224437
2349192,1742,1,198551,242952,0.7,-1.09,10.42,-0.01,-0.06,-0.0,25.67,0.430702,-123.97586931920517,555.1369336276231,10.500214283527741,0.0608276253029822,-2.2890569715628035,0.6049281099662155
2389195,1742,1,198283,243424,0.5,-1.49,10.16,-0.04,-0.03,-0.0,25.67,0.470705,-132.0412922293699,434.11262405479766,10.280841405254728,0.05,-2.4387944444758967,0.4686928993417304
2429191,1777,1,198486,244851,0.23,-1.37,9.93,-0.05,-0.06,-0.01,25.67,0.510701,-114.00279673129846,315.9223999712291,10.026699357216213,0.07874007874011811,-2.103903297276244,0.33564797532098234
2469195,1830,1,198437,244407,-0.29,-1.02,9.41,-0.05,0.09,-0.0,25.67,0.550705,-63.728324506753374,177.50355637866787,9.469561763883268,0.10295630140987,-1.1705396650412263,0.1798320043165548
2509191,1887,1,198041,244129,-0.06,-1.2,10.45,0.0,-0.07,0.02,25.67,0.590701,-27.43026444667541,58.319524638228664,10.51884499362929,0.07280109889280519,-0.4966531440760478,0.045668366246274995
2549175,1904,1,197969,244161,-0.17,-1.16,9.89,-0.02,-0.04,0.06,25.67,0.630685,-9.431358990240014,44.570805841677924,9.959246959484437,0.07483314773547883,-0.16249700021758828,0.030191644192035072
2587195,1955,1,198023,245247,0.13,-2.28,10.07,-0.04,-0.02,-0.01,25.67,0.668705,20.93105217927455,194.41953056968237,10.32570578701524,0.0458257569495584,0.4011920673874891,0.19887405723109317
2627195,1971,1,198526,246089,-0.13,-1.78,9.83,-0.04,0.04,-0.0,25.67,0.708705,37.31759716747006,465.9177452489303,9.990705680781513,0.0565685424949238,0.7054141600959538,0.5044954368659177
2667192,1997,1,198469,246752,0.05,-1.9,9.03,-0.07,0.0,-0.0,25.67,0.748702,47.26046757591338,716.98858719727,9.227859990268598,0.07,0.8900071200740773,0.7871220360609865
2707175,2022,1,198884,246816,0.16,-1.71,10.37,-0.01,0.01,0.01,25.67,0.788685,69.34415639740948,787.7653680256094,10.511260628487907,0.017320508075688773,1.2999987340987427,0.8667943736062766
2747166,2038,1,198091,245806,0.74,-1.63,9.51,-0.06,-0.0,0.02,25.67,0.828676,75.03755867047583,605.7665864653959,9.6770140022633,0.06324555320336758,1.405698792005465,0.661921134281285
2787195,2038,1,197998,245466,-0.02,-1.54,9.67,0.0,0.02,-0.0,25.67,0.868705,69.74774431151506,235.58532017301255,9.791879288471646,0.02,1.3074914886671702,0.24521375573404738
2827172,2038,1,197511,243785,0.53,-1.17,9.82,-0.04,0.07,-0.01,25.67,0.908682,63.75214357641135,-162.8587312355696,9.903645793342974,0.08124038404635961,1.1961810077822963,-0.20330860689969701
2867175,2038,1,196946,242528,0.42,-1.34,10.78,0.01,0.02,-0.01,25.67,0.948685,57.84492043794973,-438.3941854155585,10.871080903019717,0.024494897427831782,1.0865112887186834,-0.5134746451710079
2907165,2038,1,196632,242875,0.6,-1.03,10.38,-0.04,-0.05,-0.01,25.67,0.988675,55.223871279267556,-542.9254718001282,10.448219944086171,0.06480740698407861,1.0378505697739353,-0.6311439123431615
2947195,2038,1,196887,243305,0.19,-1.48,9.91,-0.02,-0.03,-0.01,25.67,1.028705,49.47995213644002,-547.9691496672358,10.021706441519827,0.03741657386773942,0.9312126480376566,-0.6368215032252973
2988879,2038,1,196847,243037,0.35,-1.08,10.1,-0.04,-0.02,-0.01,25.97,1.070389,49.38346380281165,-569.9180886876657,10.163606643313189,0.0458257569495584,0.9294213074713858,-0.6615290875196155
3027236,2038,1,196419,241969,0.24,-0.96,9.54,-0.06,-0.01,-0.04,25.97,1.108746,45.8481675253927,-665.256351147478,9.591183451482928,0.07280109889280519,0.8637872624279911,-0.7688499085400344
3067192,2038,1,196094,241986,0.11,-1.28,9.94,-0.03,-0.0,-0.01,25.97,1.148702,44.78022400302126,-786.6063999027598,10.022679282507246,0.03162277660168379,0.8439605073979142,-0.9054517987703543
3107195,2038,1,195971,241608,0.71,-1.4,9.16,-0.07,-0.0,-0.02,25.97,1.188705,48.14147084901439,-836.12040728116,9.293530007483701,0.07280109889280519,0.9063632622394252,-0.9611889580887438
3147191,2021,1,195907,241936,0.56,-1.36,9.86,-0.02,-0.07,-0.01,25.97,1.228701,24.362106141273028,-761.3734935284008,9.969092235504695,0.07348469228349536,0.46489081640790664,-0.8770475027515436
3187218,2000,1,196212,242442,0.72,-1.18,9.59,-0.04,-0.01,-0.05,25.97,1.268728,16.456094866776716,-601.8791705625684,9.68911244645246,0.06480740698407861,0.3181128777614975,-0.6975071875920945
3227192,2032,1,196237,242213,0.75,-0.96,9.69,-0.06,-0.05,-0.03,25.97,1.308702,36.28448651267493,-446.84957975124064,9.766278718119814,0.08366600265340755,0.6862340897621771,-0.5229927529982752
3267195,2019,1,196132,242028,0.56,-1.29,9.81,-0.0,-0.09,-0.01,25.97,1.348705,41.53452871137276,-351.3142150538329,9.910287584121866,0.09055385138137416,0.7837030086615652,-0.4154500570095285
3307192,2031,1,196013,241668,0.81,-1.53,9.21,-0.07,-0.02,-0.01,25.97,1.388702,43.46546260296351,-293.278804759808,9.371291266415746,0.07348469228349536,0.8195514898273394,-0.3501204850169922
3347195,1987,1,195976,241546,0.13,-1.2,9.52,-0.01,-0.04,-0.01,25.97,1.428705,13.681148174935633,-209.10852658739236,9.596212794639351,0.042426406871192854,0.2665949958434685,-0.2553712927628493
3387192,1940,1,196080,241913,0.35,-1.18,9.86,-0.04,-0.02,-0.01,25.97,1.468702,-33.55627218010071,-67.30283449579132,9.936523536931817,0.0458257569495584,-0.6103846777186446,-0.0957427983055012
3427195,1939,1,196282,242248,0.25,-1.4,10.34,-0.04,-0.01,-0.03,25.97,1.508705,-29.73807466768232,92.17198033441201,10.43734161556476,0.05099019513592785,-0.5394984696473916,0.08377555684462679
3467192,1947,1,196362,241925,0.22,-1.94,9.5,-0.02,-0.08,-0.01,25.97,1.548702,-10.843895319720875,187.7737027592134,9.698556593638045,0.08306623862918075,-0.18872124446742647,0.19139295071018808
3507195,1951,1,196084,240504,0.64,-1.55,10.5,0.0,-0.02,-0.01,25.97,1.588705,-10.127383618853132,163.8885491585366,10.63306634983531,0.022360679774997897,-0.17541894741547848,0.16450579933480003
3547172,1934,1,195776,240091,0.26,-1.53,9.74,-0.03,0.04,-0.01,25.97,1.628682,-9.105080882842318,34.77112037259993,9.862864695411776,0.05099019513592785,-0.1564395299754482,0.01916028843676689
3587175,1936,1,195798,240347,0.6,-1.41,10.89,-0.0,-0.03,-0.01,25.97,1.668685,-13.976998038162675,-127.2698146372843,10.997281482257332,0.03162277660168379,-0.24688842164611652,-0.1632467088745973
3627192,1917,1,195653,239642,0.21,-1.08,10.23,-0.01,-0.02,-0.01,25.97,1.708702,-13.282698810394173,-241.95825728368413,10.28899411993223,0.024494897427831782,-0.23399850713456063,-0.29234973119528634
3667195,1929,1,195302,239132,0.18,-2.04,9.4,-0.04,-0.03,-0.01,25.97,1.748705,-7.011382248972395,-268.7748878247711,9.620498947559842,0.05099019513592785,-0.11756926291453906,-0.32253680123847955
3707192,1893,1,195545,239919,-0.01,-1.08,10.0,-0.03,0.02,-0.01,25.97,1.788702,-26.483785981958473,-222.14849452366275,10.058155894596187,0.03741657386773942,-0.47908143146383425,-0.2700501848350683
3747195,1882,1,195573,239890,0.11,-1.75,9.42,-0.08,0.03,-0.04,25.97,1.828705,-38.52569653830781,-147.74616028805966,9.581805675341156,0.09433981132056604,-0.7026438256292783,-0.18629661737975195
3787172,1882,1,195567,240213,0.24,-1.93,10.08,-0.02,0.0,-0.0,25.97,1.868682,-28.56123132592156,-77.3901567918584,10.26590960412179,0.02,-0.5176499503604771,-0.10709794242896194
3827175,1872,1,195666,240264,0.72,-1.42,9.11,-0.04,-0.04,-0.01,25.97,1.908685,-32.22914468349209,3.9084201381187995,9.248075475470559,0.05744562646538029,-0.5857460791244891,-0.015581380255462296
3867192,1878,1,195729,241118,0.61,-1.04,9.58,-0.06,0.05,-0.01,25.97,1.948702,-26.69076040089655,150.00731991501883,9.655573519993517,0.07874007874011811,-0.48292398588344004,0.14887991230109263
3907175,1839,1,196224,241755,0.29,-1.81,9.4,-0.03,0.09,0.0,25.97,1.988685,-47.11596193240733,403.39666699336397,9.577066356666847,0.09486832980505137,-0.8621251877465919,0.4341164171906052
3947161,1812,1,196197,242149,0.63,0.15,10.87,0.0,0.0,-0.02,25.97,2.028671,-91.54537701724057,734.3878045333994,10.88927453965598,0.02,-1.6869732350108508,0.8067080683784228
3987144,1797,1,196523,242788,0.07,-0.95,10.35,-0.02,-0.01,-0.01,25.97,2.068654,-69.86494736813928,1019.2582634483969,10.393743310280469,0.024494897427831782,-1.2844682723466894,1.1273823784237544
4026958,1851,1,196685,243321,0.43,-1.04,9.21,-0.08,-0.03,-0.03,26.03,2.108468,-53.25074538642941,1093.4337160507885,9.27850203427256,0.09055385138137417,-0.9760196457937473,1.2108805487014582
4067195,1792,1,197030,243369,0.46,-2.06,10.19,-0.03,0.07,-0.01,26.03,2.148705,-60.81391308203816,864.0174000323372,10.406310585409221,0.07681145747868609,-1.1164325702705455,0.9526301174964783
4107175,1876,1,195993,240054,1.34,-1.43,8.33,-0.11,-0.09,-0.02,26.03,2.188685,-23.380350560881233,401.80209468241276,8.557417834837798,0.14352700094407325,-0.4214650383153197,0.43232143157651504
4147195,1859,1,195584,239688,0.9,-1.24,10.26,-0.01,-0.02,-0.0,26.03,2.228705,8.31288903872549,-77.79366547983976,10.37377462643179,0.022360679774997897,0.16693133704317462,-0.10755216597537162
4187191,1904,1,195162,239173,0.81,-0.19,9.23,-0.08,-0.06,-0.02,26.03,2.268701,18.034243194579446,-353.53176234665585,9.267421432092101,0.1019803902718557,0.34741176823745623,-0.41794631601380483
4227195,1872,1,195438,240049,1.0,-0.84,10.65,-0.02,-0.04,-0.03,26.03,2.308705,13.433677088949706,-352.95089071986837,10.729776325720868,0.053851648071345036,0.2620006062562975,-0.4172924377252155
4267192,1885,1,195790,241436,0.21,-1.22,9.73,-0.04,0.0,0.0,26.03,2.348702,14.365112629623736,-192.13130507237014,9.808435145322623,0.04,0.279293041581195,-0.2362602946742725
4307166,1904,1,196088,240859,0.35,-1.54,9.38,-0.06,-0.02,0.0,26.03,2.388676,37.19776498545559,-67.06282982594738,9.512018713185967,0.06324555320336758,0.7031894326007726,-0.09547262872665824
4347172,1902,1,195669,240169,0.37,-1.24,9.75,-0.01,-0.05,0.08,26.03,2.428682,38.85989782441407,-92.33047267537965,9.835496937115074,0.09486832980505139,0.7340475256882216,-0.12391602706313269
4387174,1895,1,195622,240118,0.67,-1.55,9.57,-0.04,0.0,0.01,26.03,2.468684,27.380331479938643,-220.79114762610917,9.717834120831657,0.04123105625617661,0.5209252537744183,-0.26852224023343085
4427162,1889,1,195747,241214,0.64,-1.69,9.89,-0.02,0.09,-0.0975,26.03,2.508672,22.09556506556864,-297.74357256913447,10.053745570681606,0.13418736900319642,0.4228116673403511,-0.35514640571870876
4467174,1872,1,195966,241017,0.57,-1.93,10.42,0.04,0.01,-0.05,26.03,2.548684,10.262515284660795,-191.78640016037258,10.612549175386656,0.06480740698407861,0.20312684848045778,-0.23587204050040234
4507163,1863,1,196072,242645,0.32,-0.97,10.4,0.02,-0.08,0.0,26.03,2.588673,-13.804561157799279,100.66936115022897,10.450038277441859,0.08246211251235322,-0.2436870690338324,0.0933409282091515
4547165,1855,1,196771,243116,0.06,-1.82,10.9,0.01,-0.03,-0.07,26.03,2.628675,-1.1467055218768822,443.9903938970971,11.05106329725787,0.07681145747868609,-0.008689433257897174,0.4798121534793141
4587172,1932,1,196717,244139,0.2,-1.94,9.96,-0.01,-0.06,-0.01,26.03,2.668682,47.05172824325708,643.3725478614797,10.149147747471215,0.06164414002968976,0.8861317993974481,0.7042535887246533
4627200,1898,1,196997,243208,0.11,-2.05,10.49,0.03,0.01,-0.0975,26.03,2.70871,41.52675952792544,561.9855101279819,10.688999017681684,0.10250000000000001,0.7835587709806702,0.6126374475802661
4667162,1913,1,196266,242778,0.57,-1.42,10.81,0.03,-0.14,-0.01,26.03,2.748672,24.797799837718923,204.56697171944163,10.917756179728508,0.14352700094407325,0.47297962635583285,0.21029687622685161
4707175,1899,1,196457,241416,-0.39,-1.64,10.36,-0.04,0.06,0.0,26.03,2.788685,37.15649186001757,-281.45066841773985,10.496251711920785,0.07211102550927978,0.7024231822043394,-0.33680573319940693
4747175,1919,1,195414,238895,0.35,-0.4,10.19,0.04,-0.07,-0.0975,26.03,2.828685,29.6942728596764,-688.9904339413761,10.203852213747512,0.12651580928879996,0.5638844065095217,-0.7955670018233469
4787175,1893,1,195546,240054,0.08,-1.43,10.6,-0.03,0.04,0.01,26.03,2.868685,24.90014286438947,-869.737074896218,10.696321797702236,0.05099019513592785,0.4748796614010642,-0.9990307256575552
4827172,1905,1,195607,240485,0.81,-0.62,9.37,-0.07,-0.07,-0.01,26.03,2.908682,13.955318529258308,-812.4409534057052,9.425359409592824,0.099498743710662,0.27168506693598693,-0.9345333597417508
4867195,1856,1,196127,241077,1.01,-1.21,10.29,-0.03,-0.05,0.0,26.03,2.948705,-17.482254363483772,-627.8537249840072,10.410009606143502,0.05830951894845301,-0.3119647641903783,-0.7267463454519665
4907172,1867,1,196018,240378,0.17,-1.19,7.95,-0.1,-0.07,0.04,26.03,2.988682,-26.17153396112401,-453.8658137121196,8.040366907050945,0.1284523257866513,-0.4732843605560169,-0.5308908200463325
4947174,1859,1,196253,241096,1.19,-0.27,10.48,-0.02,-0.05,0.02,26.03,3.028684,-19.460564734310857,-355.1300617996711,10.550800917465935,0.057445626465380296,-0.34869280670778696,-0.4197454972145991
4987175,1875,1,196277,241080,0.54,-1.09,8.98,-0.06,0.03,-0.08,26.03,3.068685,-19.74278499813767,-291.2795620947086,9.062014124906229,0.1044030650891055,-0.35393232726126406,-0.34786996818669064
5027864,1850,1,196515,240648,0.52,-1.44,9.77,0.01,-0.02,-0.0,25.61,3.109374,-33.21066417791581,-169.16722958600923,9.88923151716047,0.022360679774997897,-0.6039683410377137,-0.21040998681692097
5066172,1851,1,196613,242049,0.64,-1.58,9.86,0.02,-0.07,0.0,25.61,3.147682,-44.36098843366628,68.84400444763773,10.006278029317395,0.07280109889280519,-0.810978115331563,0.0575156118831956
5106166,1865,1,197080,243161,1.02,-1.42,9.63,-0.09,-0.02,-0.04,25.61,3.187676,-23.02906067339796,389.1293544065011,9.787425606358395,0.1004987562112089,-0.4149432153932535,0.41805592205390685
5146192,1899,1,197606,244601,0.57,-1.53,10.66,0.03,-0.03,-0.0,25.61,3.227702,5.127055907059924,682.0229699497781,10.784312680926865,0.042426406871192854,0.1077852008055815,0.7477617765631973
5186174,1919,1,197399,243897,1.34,-0.73,9.33,-0.07,-0.09,-0.01,25.61,3.267684,24.71929954135307,831.7356581760232,9.45396213235488,0.11445523142259598,0.4715222401614973,0.9162910553969439
5226192,1916,1,197537,244711,0.21,-1.61,9.75,0.0,-0.02,0.03,25.61,3.307702,27.132971284648445,787.0940805890724,9.884265273655902,0.03605551275463989,0.5163329229128384,0.8660387156262478
5266166,1899,1,197378,243367,0.86,-0.08,9.0,-0.05,-0.0,-0.01,25.61,3.347676,-3.1533204046561067,585.6020575064908,9.041349456801235,0.050990195135927854,-0.0459429592048741,0.6392222330476705
5306191,1873,1,197064,243105,0.14,-1.13,10.03,-0.01,0.03,0.01,25.61,3.387701,-8.956063859081636,321.7950390694563,10.094424203489766,0.033166247903554,-0.15367297541191333,0.3422587151574046
5346166,1927,1,196782,241689,1.06,-0.88,9.54,-0.06,0.02,-0.0975,25.61,3.427676,19.110026639534073,87.74068833965723,9.638962599782198,0.1162163929916946,0.36738407424589065,0.07878731935436667
5386172,1917,1,196604,242357,0.32,-1.48,9.99,0.02,0.05,0.01,25.61,3.467682,38.65224319715078,-72.45023007010212,10.104103126947983,0.05477225575051661,0.7301923429567708,-0.10153714262119257
5426144,1936,1,196605,242093,0.66,-0.6,9.93,-0.02,-0.04,0.02,25.61,3.507654,29.68111576825687,-165.2516430372442,9.969979939799277,0.048989794855663564,0.5636401403821294,-0.20600227104417856
5466172,1875,1,196733,242813,0.16,-1.06,9.35,-0.05,0.07,0.0,25.61,3.547682,-6.6673035144717865,-213.40978224112422,9.411253901579746,0.08602325267042628,-0.1111813176373826,-0.26021315033678827
5506170,1890,1,196625,241901,0.43,-1.35,9.49,-0.06,0.03,-0.0,25.61,3.58768,-6.920148856818939,-224.0434642271188,9.595181082189121,0.0670820393249937,-0.11587548222399016,-0.2721833231904002
5546172,1909,1,196064,242242,0.88,-1.4,8.99,-0.06,-0.0,0.02,25.61,3.627682,19.712022445362493,-194.39001976836528,9.140815062126572,0.06324555320336758,0.3785603425796224,-0.23880289519342154
5586175,1899,1,196592,243231,0.57,-1.36,11.19,-0.03,0.07,0.01,25.61,3.667685,13.791540215413967,-142.44431774487262,11.28674443761353,0.07681145747868609,0.26864446372073425,-0.1803284144780506
5626166,1887,1,196644,243549,0.11,-1.28,10.35,-0.12,0.02,0.04,25.61,3.707676,-7.840567021072523,-110.82909401501338,10.429429514599539,0.12806248474865697,-0.1329633759989026,-0.14473964161927363
5666166,1863,1,196814,243820,0.37,-1.34,10.77,-0.05,-0.1,0.01,25.61,3.747676,-14.190047809526138,-121.00718520053728,10.859346204997795,0.11224972160321825,-0.25084376716537904,-0.15619696289058962
5706175,1904,1,196528,242715,1.0,-0.69,8.86,-0.14,-0.1,0.02,25.61,3.787685,9.252409872096996,-127.18409762745041,8.9429133955328,0.17320508075688776,0.18437387873072256,-0.16315021855021505
5746175,1900,1,196344,242723,0.33,-2.15,10.01,-0.1,0.02,0.0825,25.61,3.827685,25.937345994598793,-40.969174023385506,10.243607762892914,0.13117259622344907,0.4941357100106618,-0.06609940026724931
5786166,1897,1,196649,242386,0.78,-1.38,10.31,-0.06,0.03,-0.01,25.61,3.867676,6.357224877443384,173.49326310569094,10.431150463875019,0.06782329983125268,0.13062372953904366,0.1753176786357195
5826175,1849,1,196873,243946,-0.17,-1.51,10.17,-0.05,0.01,-0.04,25.61,3.907685,-24.112981937271872,424.1422776100977,10.282893561639156,0.06480740698407861,-0.43506660293251037,0.45746943314153343
5866195,1857,1,197406,243353,-0.26,-1.01,10.45,-0.04,0.05,-0.02,25.61,3.947705,-28.7438461020149,526.5500350258694,10.501914111246577,0.0670820393249937,-0.5210402592622391,0.5727482762959627
5906195,1871,1,196772,242280,-0.11,-1.65,9.83,-0.05,-0.09,-0.01,25.61,3.987705,-1.6470377296577474,340.8401272485122,9.968124196658065,0.10344080432788601,-0.017978280382790875,0.36369747906024086
5946208,1885,1,196522,239160,0.21,-1.91,8.91,-0.08,0.05,-0.01,25.61,4.027718,4.71870197127932,-101.95006450980219,9.11483954877978,0.09486832980505139,0.10020396333310601,-0.13474465417375073
5986175,1883,1,195366,238439,0.14,-1.06,9.37,-0.04,0.02,-0.01,25.61,4.067685,8.446479115294656,-595.6039574908624,9.430805904057191,0.0458257569495584,0.16941148479172272,-0.6904432764030539
6026179,1898,1,195865,239056,-0.21,-1.97,9.76,-0.04,0.12,-0.0,25.61,4.107689,26.01945716643443,-886.317693907176,9.95904613906372,0.12649110640673517,0.4956601334048903,-1.0176952743851226
6066881,1888,1,195337,238986,0.6,-1.27,9.93,-0.04,-0.01,-0.02,25.73,4.148391,7.3688599242927175,-836.9080472871192,10.028848388523977,0.045825756949558406,0.14940509749863698,-0.9620755923731026
6105192,1845,1,195825,241210,0.11,-2.3,10.56,-0.02,0.03,-0.0,25.73,4.186702,-16.683028364305763,-511.14007555950565,10.808131198315461,0.03605551275463989,-0.2971268464845958,-0.5953635788968614
6145175,1851,1,196098,242274,0.55,-0.84,8.58,-0.05,-0.02,-0.05,25.73,4.226685,-36.335407800176554,-124.6235924334424,8.638547331583013,0.07348469228349536,-0.6619803285937479,-0.1602678970923028
6185191,1814,1,196541,243187,0.52,-1.64,11.55,0.02,0.01,-0.07,25.73,4.266701,-41.56276814741902,101.49768918324895,11.677435506137467,0.07348469228349534,-0.7590281507749916,0.09427336438204072
6225167,1867,1,196279,242627,-0.02,-0.87,9.12,-0.04,-0.05,-0.01,25.73,4.306677,-21.174782930628005,85.76858057203385,9.161424561715279,0.06480740698407861,-0.38051788316034063,0.07656734786231957
6265208,1832,1,196183,242417,0.1,-1.74,10.79,-0.01,-0.0,-0.01,25.73,4.346718,-26.50379784223325,-68.59156162921025,10.929853612926387,0.01414213562373095,-0.4794529588368203,-0.09719349869022983
6305195,1860,1,195817,241485,0.28,-1.42,9.29,-0.02,-0.08,-0.0,25.73,4.386705,-22.056788530788584,-160.92571244155,9.402068921253449,0.08246211251235322,-0.3968926338875215,-0.20113263726620875
6345192,1853,1,195926,242900,0.46,-1.44,10.86,-0.02,-0.05,0.0,25.73,4.426702,-14.56301055298028,-48.577030093537445,10.96470701842963,0.05385164807134505,-0.257767954442053,-0.07466344725728179
6385175,1861,1,196600,243537,-0.59,-1.49,10.69,0.01,0.0,-0.0,25.73,4.466685,-13.955950370140078,245.5387125064563,10.809454195286643,0.01,-0.24649766413029606,0.25641813695102
6425172,1894,1,196498,243874,0.55,-1.2,10.92,0.01,-0.12,-0.01,25.73,4.506682,17.77321076637487,551.7740932875506,10.999495442973737,0.12083045973594571,0.3425656074616261,0.6011426121299266
6465175,1879,1,196779,243591,-0.48,-1.56,9.93,-0.01,-0.01,-0.01,25.73,4.546685,7.650713507017005,680.4290627147527,10.063245003476762,0.017320508075688773,0.15463781048575725,0.7459675396148847
6505208,1879,1,196489,243698,0.65,-2.16,9.92,-0.03,-0.05,-0.02,25.73,4.586718,-4.480758804076935,560.3152329992616,10.173224660843777,0.061644140029689765,-0.07058732982139475,0.6107572422129672
6545195,1885,1,196681,242325,-0.01,-1.95,9.87,-0.0,0.05,-0.04,25.73,4.626705,16.039742718568707,289.4747938165114,10.060790227412555,0.06403124237432849,0.31038315060285904,0.30587631037433577
6585192,1893,1,195637,240334,0.45,-0.61,9.76,0.02,-0.09,-0.02,25.73,4.666702,0.3915030267045037,61.76503660569348,9.789392218110377,0.09433981132056603,0.01986796087299403,0.04954692626660129
6625175,1873,1,195958,241897,0.08,-1.54,10.69,0.0,0.01,-0.04,25.73,4.706685,7.123189124413943,21.796798932172024,10.800652758051246,0.04123105625617661,0.14484413086959327,0.004555293618904668
6665162,1920,1,195955,242810,1.05,-1.17,9.08,-0.03,-0.09,-0.03,25.73,4.746672,18.13036666844819,159.32346673937255,9.215085458095329,0.09949874371066199,0.34919633505125514,0.159366956014081
6705195,1877,1,196596,243326,0.97,-0.77,9.86,0.02,-0.02,-0.0975,25.73,4.786705,9.887520730724646,329.7384790743449,9.937474528269242,0.10151970252123477,0.19616493991248848,0.3512005238400459
6745172,1934,1,196438,242858,0.57,-0.73,9.25,-0.01,-0.06,-0.05,25.73,4.826682,29.678030852300974,382.19731436440736,9.296251932902852,0.07874007874011811,0.563582867809503,0.4102526308099793
6785195,1892,1,196231,241867,0.52,-0.64,10.77,0.02,-0.02,-0.03,25.73,4.866705,13.838012428636734,279.7694174467414,10.801523040756798,0.04123105625617661,0.2695072370490722,0.2949511169268996
6825172,1871,1,195719,241313,0.76,-1.43,9.29,0.01,-0.09,-0.01,25.73,4.906682,-26.797760020676026,106.56484553259651,9.430090137427108,0.09110433579144298,-0.48491047225209016,0.0999773846318333
6865175,1863,1,195771,242114,0.83,-0.96,9.89,-0.02,-0.03,-0.02,25.73,4.946685,-33.22416370513103,-30.28464800234028,9.971088205406671,0.0412310562561766,-0.6042189646086342,-0.054071993062550595
6905192,1871,1,196069,242586,0.16,-2.21,9.54,-0.01,-0.0,-0.01,25.73,4.986702,-17.714422713131054,-96.72214280641164,9.793942005137666,0.01414213562373095,-0.31627505298165476,-0.12885966282859335
6945195,1907,1,195950,242421,0.71,-0.87,9.86,-0.0,-0.1,-0.01,25.73,5.026705,-5.6066631496673915,-134.96031561294592,9.923739214630743,0.1004987562112089,-0.09149014835036655,-0.1719037879682534
6985191,1887,1,195762,241684,0.07,-1.42,9.45,0.02,-0.08,0.01,25.73,5.066701,2.064554617050681,-188.06332061194874,9.556348675095524,0.08306623862918075,0.0509287645012754,-0.2316810269078313
7025179,1946,1,195620,241821,0.63,-1.25,9.84,0.01,-0.02,-0.02,25.73,5.106689,24.325766533238006,-236.43159321314218,9.939064342280917,0.03,0.4642161585338652,-0.2861284501455647
7065172,1899,1,195849,241852,0.04,-1.81,10.39,-0.01,0.06,0.0,25.73,5.146682,10.881236256984133,-211.7908895137229,10.546553939557699,0.0608276253029822,0.2146136255367816,-0.2583907876026034
7104852,1910,1,195778,242890,0.63,-1.38,9.39,-0.01,-0.07,-0.03,25.63,5.186362,-14.939083998056994,-70.55884455205972,9.511750627513319,0.07681145747868609,-0.2647498930115158,-0.09940803892845426
7145195,1905,1,196360,243388,0.29,-1.19,9.96,-0.05,-0.0,-0.01,25.63,5.226705,10.704454444664242,145.49483216581532,10.035028649685064,0.050990195135927854,0.21133160770230244,0.14380027399435044
7185195,1955,1,196207,243439,1.27,-1.14,9.03,-0.05,-0.04,-0.02,25.63,5.266705,28.729041088257834,317.67129183002663,9.189853100022871,0.0670820393249937,0.5459645320233997,0.3376166760851818
7225192,1926,1,196568,243055,0.6,-0.16,11.0,-0.01,0.03,-0.01,25.63,5.306702,25.122771108811968,324.9491107978855,11.01751333105615,0.033166247903554,0.4790128347126448,0.3458092053668837
7265175,1936,1,196219,242507,0.81,-0.46,10.17,-0.02,-0.03,-0.01,25.63,5.346685,10.272556821017066,129.49467846175102,10.212570685189895,0.03741657386773942,0.20331327320919185,0.1257891461672946
7305195,1913,1,196007,241520,0.85,-0.74,10.43,-0.08,-0.0,-0.01,25.63,5.386705,3.7277244481605343,-191.7507129543997,10.490710176151088,0.0806225774829855,0.08180610972043628,-0.23583186795953448
7345195,1952,1,195471,240449,0.91,-1.66,10.05,-0.02,-0.04,0.0,25.63,5.426705,30.44310537049553,-495.3647958549773,10.22673946084479,0.044721359549995794,0.5777867510057922,-0.5776055882849559
7385172,1938,1,195510,240344,0.62,-0.4,9.97,-0.04,-0.04,-0.01,25.63,5.466682,18.498432532484433,-665.004269581577,9.997264625886423,0.05744562646538029,0.3560296100028888,-0.7685661441843749
7425195,1910,1,195479,240980,0.56,-0.62,10.94,-0.01,0.03,-0.03,25.63,5.506705,-6.071093703221223,-680.1816250194927,10.971854902431037,0.04358898943540673,-0.10011246837094924,-0.7856510606123666
7465175,1930,1,195843,241118,0.49,-0.92,9.9,-0.04,0.01,0.01,25.63,5.546685,3.0081773128901648,-611.9557791571501,9.954722497387861,0.042426406871192854,0.06844745873866895,-0.7088502714659775
7505166,1898,1,195551,240510,0.88,-1.71,9.69,-0.02,-0.09,0.0825,25.63,5.586676,-16.392068247927416,-558.0568283060285,9.878997924890964,0.12371843031658622,-0.2917250674297014,-0.6481770484783035
7545175,1892,1,195603,240447,0.86,-1.17,9.73,-0.04,0.03,0.0825,25.63,5.626685,-35.79207592067533,-573.4790338702768,9.837753808669946,0.09646890690787369,-0.6518931771206241,-0.6655375889412523
7585166,1894,1,195639,239916,0.73,-0.91,8.94,-0.07,-0.03,0.0825,25.63,5.666676,-23.809363615514357,-643.001368976067,9.01579724705475,0.1122775578644281,-0.42942981974873107,-0.7437978161606774
7625172,1909,1,195529,239632,0.83,-0.72,8.68,-0.06,0.03,0.04,25.63,5.706682,-14.508163196333337,-700.5116791401977,8.749268540855287,0.07810249675906654,-0.2567496935682275,-0.8085362909839954
7665166,1920,1,195662,239970,1.61,-1.06,9.93,-0.03,-0.02,0.02,25.63,5.746676,-2.526130489598689,-671.1163901798806,10.115364551018416,0.0412310562561766,-0.03429895318518762,-0.7754464646754501
7705172,1931,1,195709,240327,0.57,-0.74,8.92,-0.07,0.03,-0.0,25.63,5.786682,12.07209174090968,-511.1186548011645,8.968773606240712,0.07615773105863909,0.2367222852752538,-0.5953394658774636
7745175,1931,1,195946,241857,0.67,-1.3,9.6,-0.0,-0.02,0.01,25.63,5.826685,6.945319215945407,-231.2466175178993,9.710762071022026,0.022360679774997897,0.14154191213933975,-0.2802918024636443
7785172,1912,1,196389,243151,1.16,-1.21,10.71,-0.04,0.01,0.01,25.63,5.866682,-5.467581701988038,104.3641600090829,10.840378222183949,0.042426406871192854,-0.08890805132500727,0.09750010666286688
7825166,1919,1,196617,243701,0.36,-1.31,10.06,-0.06,-0.02,0.04,25.63,5.906676,-1.746110452490819,403.9882408593228,10.15132011119736,0.07483314773547883,-0.019817601062794805,0.43478234282582096
7865175,1920,1,196771,243507,0.97,-1.47,10.23,-0.03,-0.09,0.07,25.63,5.946685,0.9900942829606112,588.1204023342901,10.38049613457854,0.11789826122551596,0.03098102252121859,0.6420570952274366
7905226,1913,1,196693,243471,0.49,-1.12,10.74,-0.01,0.05,-0.01,25.63,5.986736,-1.5775881567435293,623.73778780693,10.80935243203773,0.05196152422706632,-0.016688924119777973,0.6821510402281202
7945175,1923,1,196700,243212,1.01,-0.91,10.38,-0.05,0.02,0.01,25.63,6.026685,2.5194177163613447,536.1344919033306,10.468648432343118,0.05477225575051661,0.05937346129781388,0.5835373525239622
7985166,1918,1,196530,242198,0.17,-1.07,10.54,-0.04,0.01,0.01,25.63,6.066676,8.760992302693433,392.60910353211483,10.595536796217546,0.042426406871192854,0.17525053506887342,0.4219730223184871
8025179,1938,1,196244,241538,0.34,-0.91,9.32,-0.05,-0.05,0.0825,25.63,6.106689,19.263494501558036,264.4899624207655,9.370490915635104,0.10865656906050365,0.3702332602202407,0.27775126855727444
8063175,1929,1,196049,240390,0.48,-0.57,9.61,-0.08,0.06,-0.0,25.63,6.144685,22.007550458879177,186.47859447995486,9.63884847894187,0.1,0.42117764455792384,0.18993506716737696
8103172,1921,1,195898,242027,0.98,-1.11,10.03,-0.03,0.02,-0.02,25.63,6.184682,7.923383863323452,141.61835790792486,10.138708004474731,0.0412310562561766,0.15970003357640067,0.13943658632806127
8143861,1907,1,196229,240874,0.4,-0.8,9.56,-0.09,0.08,-0.0,25.43,6.225371,-0.37865136940756955,90.32948639902025,9.601749840523862,0.12041594578792295,0.005569767918797672,0.0817014896572293
8184172,1911,1,195718,240143,0.46,-1.06,9.59,0.0,-0.13,0.02,25.43,6.265682,5.803151468360718,26.199916429010607,9.659363333056687,0.13152946437965907,0.12033715771156754,0.009511815508626328
8224166,1904,1,195630,239234,1.18,-0.9,8.98,-0.04,-0.01,0.04,25.43,6.305676,-4.284773087793813,8.961505281955858,9.101802019380559,0.05744562646538029,-0.06694878461301983,-0.00989319974607584
8264172,1866,1,195661,241695,0.76,-1.63,10.53,0.04,0.08,-0.07,25.43,6.345682,-31.52785315630847,136.60441703213732,10.682480985239335,0.11357816691600547,-0.5727263500631032,0.13379246992134386
8304166,1867,1,196209,242431,1.24,-1.0,10.35,-0.02,0.02,-0.0975,25.43,6.385676,-40.800801128739124,469.3107894752883,10.47187184795536,0.10151970252123477,-0.7448819594232079,0.5083149347541326
8344175,1842,1,196267,243631,-0.02,-1.64,10.13,-0.02,-0.07,0.03,25.43,6.425685,-49.536214160855316,959.2704335662647,10.26191502595885,0.07874007874011811,-0.9070580395680821,1.0598549976211369
8384195,1850,1,196811,244117,0.76,-1.0,9.96,-0.03,-0.06,0.0,25.43,6.465705,-55.31558314454744,1440.048583855232,10.038884400171167,0.0670820393249937,-1.0143541003313354,1.6010595936188883
8424172,1871,1,196882,244805,0.38,-1.26,10.55,-0.02,-0.03,0.01,25.43,6.505682,-16.60034045117597,1695.8850954237796,10.631768432391668,0.03741657386773942,-0.29559171568111264,1.889050834072952
8464175,1919,1,196920,244382,0.54,-1.0,10.09,-0.08,0.01,-0.01,25.43,6.545685,18.299331962760952,1584.3217837915797,10.153802243494798,0.08124038404635961,0.3523332364217368,1.763465723843242
8504172,1905,1,196517,242620,0.67,-0.98,9.45,-0.06,-0.01,-0.0,25.43,6.585682,18.901892607978553,1140.9160112205586,9.524274250566286,0.0608276253029822,0.363519991201583,1.2643306407219799
8544195,1925,1,195699,239308,0.87,-1.04,10.41,-0.03,-0.06,-0.01,25.43,6.625705,31.143663690230685,583.3766473181344,10.497933129907048,0.06782329983125268,0.5907928678075759,0.6367171229023886
8584195,1924,1,194862,238316,0.82,-0.04,10.07,-0.05,-0.08,-0.02,25.43,6.665705,37.16906663089836,186.83623021648393,10.103410315334125,0.09643650760992956,0.7026566373417975,0.19033765223532614
8624195,1920,1,195033,240068,0.55,-1.96,9.9,-0.06,0.02,-0.0,25.43,6.705705,34.28151018971216,102.87547253244003,10.107131145879132,0.06324555320336758,0.6490481149849314,0.09582431398410399
8664172,1933,1,195353,239447,0.71,-0.81,9.82,-0.07,-0.02,-0.01,25.43,6.745682,44.25534138124897,256.59373904986654,9.878896699530774,0.07348469228349536,0.8342158730203256,0.2688626109159344
8704195,1909,1,195372,239292,0.01,-1.68,9.58,0.01,-0.1,0.04,25.43,6.785705,31.89248560873886,405.64992617605833,9.72619658448255,0.10816653826391968,0.6046950156537896,0.4366528765220356
8744163,1913,1,195200,238561,0.57,-1.32,8.63,-0.07,-0.04,0.01,25.43,6.825673,21.034953434706306,316.6525980840177,8.748954223220053,0.08124038404635961,0.4031210315092888,0.336469948146479
8784174,1890,1,194812,238157,1.2,-1.12,9.97,0.04,0.05,-0.02,25.43,6.865684,22.62627429097214,-76.19637280626283,10.104221889883457,0.0670820393249937,0.4326644747068978,-0.10575411809076249
8824163,1907,1,194108,236407,0.67,0.23,7.9,-0.05,0.0,-0.01,25.43,6.905673,10.046605464936274,-642.0079098438479,7.931695909450892,0.050990195135927854,0.19911840513622514,-0.7426794944400048
8864166,1860,1,193654,236775,0.68,-1.56,9.61,0.06,0.13,-0.0,25.43,6.945676,2.288318526089872,-1160.2565980380625,9.75951330753742,0.14317821063276354,0.055083021834323224,-1.3260641007328149
8904163,1876,1,193327,236270,1.19,-0.97,7.52,-0.08,-0.02,-0.02,25.43,6.985673,-24.109277129995377,-1474.0070599610574,7.675115634308058,0.08485281374238571,-0.43499782185489155,-1.6792481875867695
8944195,1807,1,193460,237367,0.65,-0.81,9.63,0.06,0.09,-0.03,25.43,7.025705,-47.167771719732144,-1578.9682519426426,9.685840180387038,0.11224972160321824,-0.8630870550550508,-1.797401392901308
8984162,1857,1,193331,237346,0.68,-1.1,8.03,-0.05,-0.07,-0.0,25.43,7.065672,-37.41266347322392,-1597.270288279878,8.133467895061736,0.08602325267042628,-0.6819799670454545,-1.8180037147328558
9024210,1839,1,193470,237544,0.69,-1.63,9.81,0.03,0.05,0.01,25.43,7.10572,-23.50783572461366,-1670.9089991089281,9.968405088077029,0.05916079783099616,-0.42383184616455816,-1.9008976830217177
9064143,1859,1,193160,236367,0.46,-0.47,9.63,0.06,-0.09,0.05,25.43,7.145653,-18.87633756454046,-1857.2675633474369,9.652429745924081,0.11916375287812984,-0.33784641948383404,-2.11067866289529
9104166,1839,1,192839,236356,0.16,-1.71,9.74,0.01,-0.03,0.08,25.43,7.185676,-40.2741506961422,-2090.589591755176,9.890262888315963,0.08602325267042626,-0.735104505002775,-2.3733256946830075
9143850,1842,1,193243,236031,0.17,-1.64,10.06,-0.05,-0.0,0.07,25.91,7.22536,-17.47797217703372,-2217.127898951741,10.194218949973559,0.08602325267042628,-0.3118852638610446,-2.515767927932158
9184175,1907,1,193384,235636,0.16,-1.3,9.93,-0.03,0.03,0.0825,25.91,7.265685,15.223851274603035,-2071.0182131705724,10.016012180503775,0.09276987657639736,0.29523583292942795,-2.3512944937358906
9224163,1836,1,194041,235377,0.44,-1.31,10.59,-0.0,-0.01,0.0825,25.91,7.305673,-16.062170765459662,-1555.863950229052,10.679784642023453,0.08310385069297331,-0.2856004021895368,-1.7713932345288892
9264175,1881,1,194646,236731,0.05,-0.91,9.77,-0.07,0.04,0.03,25.91,7.345685,-9.971097504693672,-707.4629614030371,9.812415604732609,0.08602325267042626,-0.17251743957809632,-0.8163612429009349
9304162,1863,1,196074,239181,0.68,-0.86,11.37,-0.03,0.06,0.02,25.91,7.385672,5.422660255532853,291.5532000921546,11.42273609955163,0.06999999999999999,0.11327320169722399,0.30821594046786766
9344166,1869,1,197116,242931,0.83,-0.5,11.74,-0.03,-0.01,-0.03,25.91,7.425676,-13.76698729476921,1173.9580841808518,11.779919354562661,0.04358898943540673,-0.2429894967725422,1.301525595893415
9384192,1840,1,198086,244417,0.49,-1.08,11.79,-0.09,0.01,-0.01,25.91,7.465702,-23.8827977322693,1714.7671029246264,11.849497879657179,0.09110433579144298,-0.43079315049914124,1.9103060205554914
9422175,1878,1,198021,244193,0.95,-1.05,10.04,-0.15,-0.04,-0.01,25.91,7.503685,-3.378581446790799,1848.5831657951885,10.139358954095666,0.15556349186104046,-0.05012501135151469,2.0609407118374135
9462192,1887,1,198162,244091,0.68,-1.59,12.19,-0.01,-0.02,0.03,25.91,7.543702,27.770520364705416,1690.2992738977239,12.31205100704184,0.03741657386773942,0.5281692505510934,1.882762960382129
9502175,1901,1,197769,242364,0.57,-0.23,8.33,-0.15,-0.09,0.0,25.91,7.583685,9.119726753525415,1440.2819508837483,8.352646287255315,0.17492855684535902,0.18191056898312108,1.6013222913066087
9542174,1878,1,198092,243242,0.99,-1.53,11.01,0.06,-0.07,-0.04,25.91,7.623684,31.100672264661828,1249.0531084315446,11.159798385275606,0.1004987562112089,0.5899947165521099,1.386058913883449
9582175,1958,1,198291,241593,0.97,-0.47,7.3,-0.15,-0.06,0.02,25.91,7.663685,54.69083676896861,1145.8131820342364,7.379146292085555,0.16278820596099705,1.0279545926582105,1.2698433108592468
9622172,1838,1,198197,243133,1.13,-0.87,11.77,0.09,-0.16999999999999998,-0.07,25.91,7.703682,-3.72161505771073,1071.9018224716003,11.856082826971141,0.2046948949045872,-0.05649355353405408,1.1866424260692483
9662175,1895,1,198422,242224,0.85,-0.6,8.03,-0.15,0.06,0.0825,25.91,7.743685,-6.896386074872932,968.1160174059739,8.097122945836995,0.18140079933671735,-0.11543431764308572,1.069812335793549
9702162,1869,1,198200,242508,0.41,-1.3,9.81,-0.01,-0.01,0.03,25.91,7.783672,17.576344246111468,830.327860974893,9.904251612312764,0.033166247903554,0.33891070981102867,0.9147063196617061
9742178,1901,1,198280,242515,0.19,-0.74,7.18,-0.05,-0.07,0.0825,25.91,7.823688,12.658349323348403,693.3310203164132,7.220533221307136,0.11918997441060218,0.247606367839589,0.7604910755684008
9782172,1872,1,198499,243891,1.685,-1.02,10.99,0.09,-0.05,0.0825,25.91,7.863682,4.7228554095474236,574.2182494990467,11.165111956447191,0.13193274801958763,0.10028107340620367,0.6264076548271714
9822166,1877,1,198491,244094,1.3,-0.7,8.82,-0.14,0.06,0.01,25.91,7.903676,0.9887879403588488,436.7003243753929,8.942728889997728,0.15264337522473748,0.03095676980166186,0.47160583393688466
9862163,1904,1,198276,245051,-0.37,-1.62,10.62,0.09,0.09,-0.03,25.91,7.943673,28.321153255973606,209.52302737779635,10.749218576250088,0.1307669683062202,0.5383919479297291,0.21587583213137868
9902175,1904,1,198200,244605,0.93,-0.9,9.88,-0.03,-0.01,0.02,25.91,7.983685,29.443907677708776,-157.4147839836397,9.964401637830543,0.03741657386773942,0.5592362869910755,-0.1971804389050763
9942172,1883,1,197745,244475,0.0,-1.51,10.96,0.05,0.04,-0.01,25.91,8.023682,9.724417233258666,-642.6466257808336,11.063530178021843,0.06480740698407861,0.19313686490565118,-0.7433984871821373
9982166,1893,1,197411,243482,0.78,-0.39,9.28,-0.02,-0.04,0.03,25.91,8.063676,12.197947759880329,-1144.2610278452973,9.320885151100189,0.053851648071345036,0.23905884746690484,-1.3080581324941876
10022179,1889,1,196993,244128,0.54,-1.18,10.46,-0.01,0.05,-0.0,25.91,8.103689,21.04203095206209,-1520.0139254707938,10.540189751612635,0.050990195135927854,0.4032524281607921,-1.731037411049513
10062175,1904,1,197144,244443,0.82,-0.54,10.1,0.0,0.03,0.03,25.91,8.143685,18.891028175975478,-1653.7968865167968,10.147610556185136,0.042426406871192854,0.3633182891196344,-1.8816348401148049
10102144,1856,1,197251,245250,0.53,-0.89,11.53,-0.03,0.04,-0.07,25.91,8.183654,-12.051893089071447,-1510.9109781179245,11.576437275777035,0.08602325267042626,-0.21114815689123065,-1.7207903627143561
10142174,1856,1,197614,246028,0.67,-1.75,11.18,-0.07,0.01,0.03,25.91,8.223684,-26.783674676864777,-1152.6241323451657,11.335951658330234,0.07681145747868609,-0.48464897278567654,-1.3174723510675936
10182852,1850,1,198214,246258,-0.18,-1.49,10.87,-0.05,-0.01,0.04,25.67,8.264362,-23.775659614096817,-703.8842536761916,10.973121707153346,0.06480740698407861,-0.42880409285808513,-0.8123327464554594
10223195,1847,1,198586,246192,0.82,-1.78,10.84,-0.02,-0.12,0.06,25.67,8.304705,-30.542124422521866,-292.363825823734,11.015734201586383,0.13564659966250536,-0.5544259421094161,-0.3490905072504345
10263175,1839,1,198986,245605,0.73,-0.79,9.86,-0.11,0.0,0.02,25.67,8.344685,-40.31593661367198,8.280258404725544,9.918497870141424,0.11180339887498948,-0.7358802755685538,-0.01066006891586769
10303166,1815,1,198997,245427,-0.1,-1.13,9.95,-0.02,0.0,0.02,25.67,8.384676,-60.14099930551089,200.25339830409104,10.014459546076363,0.0282842712474619,-1.103939684341574,0.2054411527374245
10343172,1829,1,199158,245378,0.95,-0.66,10.32,-0.05,0.02,-0.06,25.67,8.424682,-51.96301403661773,339.14465951642313,10.384628062670323,0.0806225774829855,-0.9521124508134622,0.36178891701676824
10383175,1850,1,199375,246540,0.29,-1.74,11.54,0.0,0.01,-0.05,25.67,8.464685,-26.374214766433575,485.5230723535142,11.674043858063923,0.050990195135927854,-0.47704720249661703,0.5265648531417254
10423166,1856,1,199473,246592,0.6,-0.77,8.55,-0.12,-0.04,-0.04,25.67,8.504676,-24.733126838038825,662.0956044358779,8.605544724188006,0.132664991614216,-0.4465798157317742,0.7253298465851652
10463195,1861,1,199473,247893,0.54,-2.6799999999999997,10.93,-0.02,-0.1,-0.0975,25.67,8.544705,-16.611115156703537,839.0501383429097,11.266716469317936,0.14108951059522462,-0.29579175195881946,0.9245248536285692
10503195,1877,1,199473,246808,0.34,-0.94,7.74,-0.14,0.01,0.03,25.67,8.584705,-5.525014308478229,952.9586035355933,7.804280876544616,0.14352700094407325,-0.08997430829062962,1.0527498672825328
10543166,1861,1,199473,247139,-0.04,-1.99,10.84,0.09,-0.08,-0.07,25.67,8.624676,-15.039384936797761,950.7947663809613,11.021220440586424,0.1392838827718412,-0.266612015960943,1.0503140689577262
10583195,1872,1,199473,244601,0.34,-0.56,9.18,-0.06,0.04,0.01,25.67,8.664705,-15.404683090519782,836.7689623574901,9.203347217181365,0.07280109889280519,-0.273393907376608,0.9219569687801276
10623167,1863,1,198916,244521,-0.17,-1.61,10.77,0.01,0.1,-0.09,25.67,8.704677,-9.797706242226576,687.6614740080729,10.891000872279829,0.13490737563232041,-0.16929836851930374,0.7541089541732175
10663175,1872,1,198546,244865,0.72,-0.64,9.94,-0.06,-0.02,0.06,25.67,8.744685,-20.137704522083826,612.9952549305959,9.986570983075222,0.08717797887081347,-0.3612641500532485,0.6700583355953608
10703175,1872,1,198816,247073,-0.01,-1.65,11.49,-0.0,-0.04,-0.05,25.67,8.784685,-1.0947237388215834,677.5443130894206,11.60787232872588,0.06403124237432849,-0.007724372786931972,0.7427202211695807
10743208,1942,1,198924,247304,0.79,-1.24,8.58,-0.14,-0.05,-0.01,25.67,8.824718,51.53669425614644,840.6590506212507,8.705061745903931,0.1489966442575134,0.9693968041406957,0.9263359815241942
10783195,1979,1,198487,247762,0.07,-1.84,10.87,-0.0,-0.07,-0.0975,25.67,8.864705,95.96074434827997,959.8738235164581,11.024853740526448,0.12002603884157804,1.794145248388721,1.0605342244412974
10823194,1958,1,198442,245920,0.76,-1.03,8.97,-0.1,0.07,0.0825,25.67,8.904704,79.42328590957823,864.1220428613378,9.060871922723551,0.1473304109815757,1.4871213932731147,0.9527479123254641
10863166,1940,1,197829,244298,0.16,-1.18,9.72,0.05,-0.1,0.01,25.67,8.944676,37.673121226700346,461.87032049972106,9.79267072866233,0.11224972160321825,0.7120145919371479,0.4999393128513165
10903166,1957,1,197495,242394,0.72,-1.65,8.3,-0.03,-0.03,0.05,25.67,8.984676,94.53204999613409,-174.5857582232736,8.492991228065646,0.06557438524302,1.767621024645175,-0.2165095414665454
10941174,2038,1,196357,240636,-0.19,-0.45,7.36,-0.09,0.11,-0.0975,25.67,9.022684,118.20037391100341,-813.0977350438733,7.376191429186203,0.17235501153143185,2.207031958278248,-0.9352726887668529
10981195,1921,1,195653,240652,1.4,-0.39,8.9,-0.02,-0.03,-0.0,25.67,9.062705,64.6994511209535,-1181.5754246837823,9.017876690219268,0.03605551275463989,1.2137681125592177,-1.3500623771832072
11021194,1979,1,195344,241532,0.92,-0.9,7.17,-0.06,0.09,0.0,25.67,9.102704,56.155998951926804,-1144.566628094727,7.284593331133866,0.10816653826391967,1.055155854777708,-1.3084021420117373
11061163,1856,1,196127,243225,1.38,-0.23,10.72,0.09,-0.04,0.06,25.67,9.142673,-10.696140369204256,-805.2470223930528,10.810906529981656,0.11532562594670795,-0.1859781207469239,-0.9264352618456669
11101167,1871,1,196402,243476,-0.02,-0.43,9.26,0.02,-0.02,0.0825,25.67,9.182677,-43.03724313609286,-436.2990596341582,9.27,0.08721381771256205,-0.7864023084771664,-0.5111161941860667
11141172,1917,1,196229,244071,0.49,-1.3,11.99,0.06,-0.05,0.02,25.67,9.222682,34.46705430660586,-281.2770177826533,12.070219550612988,0.0806225774829855,0.6524928081506847,-0.3366102573406345
11181201,1973,1,195975,243468,0.1,-1.07,9.23,-0.02,0.06,-0.0,25.67,9.262711,63.773436823461175,-383.89166532048125,9.292351693731787,0.06324555320336758,1.1965763245609535,-0.4521219935349327
11221859,1930,1,195576,243830,0.89,-2.62,10.91,0.06,-0.09,0.02,25.49,9.303369,40.75310798355941,-579.7151654476031,11.255425358466024,0.10999999999999999,0.7691956522131863,-0.6725575066909819
11262167,1909,1,195407,242480,0.57,0.31,9.56,-0.04,-0.01,-0.06,25.49,9.343677,-7.450133701439249,-645.3654522824709,9.58199352953236,0.07280109889280519,-0.12571484120114548,-0.7464590285098207
11302175,1882,1,195537,243830,0.53,-1.54,11.15,-0.0,-0.04,-0.09,25.49,9.383685,-5.795348932847837,-474.5010093683147,11.268318419356103,0.09848857801796104,-0.09499316767901954,-0.554119543568259
11342195,1905,1,196060,244085,0.04,0.68,10.51,-0.04,-0.01,-0.0975,25.49,9.423705,-21.741491088295405,-142.43535852118742,10.532051082291616,0.10585957679870064,-0.3910390236328888,-0.1803183292172456
11382177,1742,1,196312,246065,0.16,-0.73,12.802500000000006,0.03,-0.1,0.02,25.49,9.463687,-148.7815795198891,174.01727581189314,12.824293596529992,0.1063014581273465,-2.749583890068691,0.17590755170875205
11422166,1742,1,196192,243934,0.93,0.34,9.53,-0.15,-0.03,-0.01,25.49,9.503676,-186.81406076092998,335.09049864763165,9.581304712824867,0.1532970971675589,-3.455670563151996,0.3572252102555824
11462174,1742,1,196071,245852,0.4,-2.01,12.802500000000006,0.02,-0.04,0.02,25.49,9.543684,-161.45452167530348,315.7529858134747,12.965496760633592,0.048989794855663564,-2.9848616124971112,0.33545726839982
11502166,1742,1,196184,243177,1.15,-0.12,8.36,-0.15,-0.03,-0.01,25.49,9.583676,-182.28789211554317,175.36227531075957,8.439579373404813,0.1532970971675589,-3.3716406167390742,0.17742159703290764
11542195,1742,1,195490,243791,0.68,-1.24,11.33,0.03,-0.04,-0.09,25.49,9.623705,-176.29703241214298,-27.247328923776635,11.417920125837279,0.10295630140987,-3.2604181548104525,-0.05065292952182541
11582174,1742,1,195822,242508,0.86,0.43,8.23,-0.13,0.03,0.01,25.49,9.663684,-180.10159479710225,-281.5896609973544,8.28597610423781,0.13379088160259653,-3.331051221843558,-0.33696219501625896
11622143,1761,1,195327,242786,0.68,-1.02,9.91,0.01,-0.0,-0.0975,25.49,9.703653,-166.6077518266076,-593.3380706075366,9.985534537519761,0.0980114789195633,-3.0805331809679175,-0.6878926022625383
11662174,1861,1,195131,240656,1.23,-0.41,7.62,-0.13,-0.01,-0.01,25.49,9.743684,-64.62012971581015,-914.0782179309412,7.72951486187846,0.1307669683062202,-1.1870963490269602,-1.048944870856879
11702195,1984,1,194703,241346,1.33,-0.97,10.8,0.09,0.05,-0.02,25.49,9.783705,52.661926737933044,-1117.6877715912497,10.924733406358254,0.10488088481701516,0.9902871492768583,-1.2781450251562756
11742166,2038,1,194894,241108,1.47,-0.87,8.17,-0.07,-0.03,0.01,25.49,9.823676,106.35032934822787,-1067.199191928881,8.34665801384003,0.07681145747868609,1.9870316251895384,-1.221310804752854
11782175,2038,1,195311,242874,0.17,-1.91,9.58,0.01,0.03,0.03,25.49,9.863685,104.93604174856182,-727.1980805102752,9.770025588502827,0.04358898943540673,1.9607748679797674,-0.8385767640451066
11822143,2038,1,195623,243694,1.14,-0.85,7.9,-0.06,-0.05,0.03,25.49,9.903653,101.62116078332866,-222.68566348236487,8.026960819637779,0.08366600265340755,1.8992329123662346,-0.27065486769992436
11862172,2038,1,196605,246320,0.37,-0.63,9.35,0.03,-0.07,0.0825,25.49,9.943682,103.11371194287833,221.45334585919434,9.378502012581754,0.1122775578644281,1.9269426606725277,0.22930560881729659
11902166,2038,1,196982,246665,1.17,-1.41,8.29,-0.03,0.0,0.0825,25.49,9.983676,99.55068159112969,427.73068375558165,8.490058892610817,0.08778524933039719,1.8607937225788904,0.46150884694824496
11942166,2038,1,196663,245933,0.71,-0.13,9.6,-0.01,0.05,-0.01,25.49,10.023676,101.3282810932171,384.36702055643156,9.627097174122634,0.05196152422706632,1.8937954957355947,0.4126950358202372
11982175,2038,1,196337,245172,0.96,-1.14,9.33,-0.02,0.03,0.01,25.49,10.063685,99.9704434100506,232.69092674167302,9.448285558766733,0.03741657386773942,1.8685867514988503,0.24195558140410925
12022169,2038,1,196452,245974,0.64,-0.83,10.78,0.01,0.01,0.02,25.49,10.103679,100.11388749695858,135.2278375879818,10.830830993049425,0.024494897427831782,1.871249842488271,0.13224287553672964
12062143,2038,1,196844,246918,0.57,-1.17,10.82,-0.0,-0.01,0.02,25.49,10.143653,102.8275811708241,145.75439998412227,10.897990640480474,0.022360679774997897,1.9216305401294034,0.14409246550961877
12102175,2038,1,197024,247531,0.65,-1.13,10.85,-0.04,-0.02,0.01,25.49,10.183685,99.5833253229833,194.523359187405,10.928032759833766,0.0458257569495584,1.8613997651843006,0.19899093551492075
12142174,2038,1,197043,247109,0.35,-1.1,11.39,-0.02,-0.0,0.02,25.49,10.223684,108.00777229469178,184.90481581969348,11.448344858537412,0.0282842712474619,2.017802648738515,0.18816348864721186
12182172,2038,1,196575,246177,0.67,-0.36,10.53,-0.05,-0.05,0.01,25.49,10.263682,100.01352189546894,97.3327728115911,10.557433400216171,0.07141428428542851,1.8693865190516883,0.08958498184857343
12222860,1978,1,196875,246226,0.46,-0.93,11.37,-0.03,0.04,0.01,25.53,10.30437,55.07862233455345,9.151276395984118,11.417241348066527,0.05099019513592785,1.0351539709511541,-0.009679577311200258
12261163,1968,1,196946,246094,0.79,0.02,10.33,-0.07,-0.04,-0.0,25.53,10.342673,31.332074218303212,31.123770033379895,10.36018339606013,0.0806225774829855,0.5942907769262964,0.015054522054468921
12301175,1925,1,197384,246456,0.76,-1.64,11.27,-0.06,0.0,0.0,25.53,10.382685,11.225184649117939,227.7837203537242,11.41403083927847,0.06,0.2209991509610877,0.2364316143746775
12341162,1898,1,197477,246105,0.91,-0.85,8.46,-0.09,-0.11,0.01,25.53,10.422672,-37.257166157248946,578.7808322351083,8.551151969179358,0.14247806848775008,-0.6790931035296534,0.631543684292929
12381175,1847,1,198093,247738,0.41,-1.81,10.81,-0.02,0.01,0.02,25.53,10.462685,-55.71271836438428,990.6233422211034,10.968149342528118,0.03,-1.0217270583132672,1.0951484864198637
12421165,1881,1,198518,247889,0.91,-0.6,8.74,-0.1,-0.04,0.01,25.53,10.502675,-52.076811460659115,1337.6628740877377,8.8077068525241,0.10816653826391968,-0.9542251408595728,1.4858055691642513
12461175,1840,1,198646,248244,0.17,-1.23,10.46,-0.02,-0.0,-0.02,25.53,10.542685,-52.31639005988006,1508.5374461523354,10.533441982562016,0.0282842712474619,-0.9586730035954736,1.678156456335239
12501195,1885,1,198486,247619,1.11,-0.46,8.63,-0.07,-0.02,-0.0,25.53,10.582705,-42.514776808167916,1442.7716369491034,8.71324279473492,0.07280109889280519,-0.7767025334626326,1.6041248927566785
12541195,1838,1,198425,247538,0.4,-1.21,10.8,0.02,-0.0,0.02,25.53,10.622705,-47.63222255895399,1150.7292449251493,10.874929884831442,0.0282842712474619,-0.8717097516863455,1.2753772475183418
12581162,1856,1,197900,246356,1.685,-0.8,8.23,-0.08,-0.1,-0.01,25.53,10.662672,-61.54582130531055,713.8126720602862,8.438727688461098,0.1284523257866513,-1.1300207092903853,0.7835469570612412
12621195,1827,1,197594,245920,0.76,-1.43,10.29,-0.03,0.02,-0.02,25.53,10.702705,-55.66772878722804,259.64301081940795,10.416650133320212,0.0412310562561766,-1.0208918106559728,0.2722951294177218
12661175,1861,1,196997,244255,0.91,-0.8,7.89,-0.1,0.03,-0.08,25.53,10.742685,-44.54534684341136,-89.74245418465935,7.982493344814012,0.13152946437965907,-0.8144007954182718,-0.12100273430874452
12701175,1835,1,196707,244951,0.99,-0.92,9.54,-0.0,-0.03,-0.02,25.53,10.782685,-45.74961889315474,-278.0137026419638,9.635252980591634,0.03605551275463989,-0.8367585385195274,-0.33293679349609684
12741192,1856,1,196776,245054,0.97,0.47,8.37,-0.05,-0.05,-0.02,25.53,10.822702,-39.05770082441537,-341.4792233120017,8.439117252414496,0.07348469228349536,-0.712520676262899,-0.40437895752408015
12781175,1854,1,196929,246183,0.75,-0.76,11.12,0.01,-0.0,0.02,25.53,10.862685,-23.62030922346698,-372.1341516302151,11.171145867814992,0.022360679774997897,-0.42591995706408264,-0.4388867405542098
12821167,1855,1,196703,244900,1.34,0.26,8.88,-0.04,-0.02,0.0,25.53,10.902677,-32.63693993751921,-438.59862911145837,8.984297412708464,0.044721359549995794,-0.5933169444695683,-0.5137047843064434
12861166,1837,1,196458,245707,0.93,-0.93,11.45,0.04,0.03,0.02,25.53,10.942676,-36.80164040601413,-532.4064478980983,11.52528958421436,0.05385164807134504,-0.6706361043621606,-0.6193028083375676
12901143,1857,1,196177,244478,0.99,-0.79,9.12,-0.05,-0.02,0.02,25.53,10.982653,-24.902082120693183,-588.506339940056,9.20752952751171,0.057445626465380296,-0.44971653123222205,-0.6824535970949948
12941175,1840,1,196147,246210,0.2,-1.19,10.65,0.01,0.01,0.03,25.53,11.022685,-31.57002636159645,-555.8398182280014,10.718143495960483,0.033166247903554,-0.5735093107652022,-0.6456813942084901
12981143,1840,1,196756,245816,0.74,-0.59,9.52,-0.03,0.04,0.01,25.53,11.062653,-36.34488760347376,-444.7896136828971,9.56692740643515,0.05099019513592785,-0.6621563245465016,-0.5206738807635098
13021177,1841,1,196551,246671,0.0,-1.15,11.37,0.06,-0.04,0.03,25.53,11.102687,-30.34452134767337,-309.9662331298387,11.428009450468615,0.07810249675906654,-0.5507573700584228,-0.3689052674032461
13061163,1855,1,196476,245483,1.09,0.55,9.16,-0.03,-0.01,0.02,25.53,11.142673,-17.148644167815256,-201.23127972705058,9.241006438694868,0.03741657386773942,-0.3057711710962716,-0.24650399668863404
13101166,1872,1,196293,246451,0.51,-1.32,10.86,0.04,-0.02,-0.01,25.53,11.182676,1.024270001437257,-143.07638723383744,10.951808069903343,0.0458257569495584,0.03161550700847751,-0.18103992541550087
13141175,1877,1,196507,245673,1.16,-0.49,9.7,-0.05,0.02,-0.06,25.53,11.222685,5.540659182040983,-154.04485041705786,9.781395605944992,0.0806225774829855,0.11546389414554153,-0.1933869563324074
13181174,1878,1,196155,245720,0.7,-0.77,10.83,0.03,-0.06,0.02,25.53,11.262684,8.873396403217185,-261.15413392289844,10.879880514049775,0.06999999999999999,0.17733735756348606,-0.3139582353569345
13221174,1894,1,196074,244919,0.97,-0.76,8.95,-0.06,-0.07,0.01,25.53,11.302684,20.127371525205778,-471.3509992440946,9.03443412727106,0.09273618495495704,0.38627144741383146,-0.5505736254443951
13261861,1904,1,195843,243987,0.44,-1.13,9.63,-0.01,0.01,-0.04,25.59,11.343371,36.51110720938087,-722.646537947791,9.706049659877083,0.042426406871192854,0.6904413843842341,-0.8334531623335578
13300175,1909,1,195482,241743,0.64,-0.29,9.21,-0.05,0.02,0.01,25.59,11.381685,32.5622155168472,-880.0903576231736,9.236763502439587,0.05477225575051661,0.6171287919221209,-1.0106852573623024
13340166,1877,1,195186,241673,0.81,-0.4,9.86,0.01,-0.01,0.02,25.59,11.421676,8.405805378138776,-812.7092992310033,9.90129789472067,0.024494897427831782,0.16865636225400965,-0.9348354325249688
13380162,1898,1,195491,242814,0.64,-0.52,9.32,-0.04,0.03,0.02,25.59,11.461672,20.725899108190003,-504.5438170511331,9.35640956777759,0.05385164807134504,0.39738332694489614,-0.5879382717796915
13420166,1901,1,196188,244505,0.74,-0.99,11.31,0.03,-0.0,0.02,25.59,11.501676,28.72296911472689,-97.27153317645954,11.377337122543219,0.03605551275463989,0.5458518036541318,-0.1294781031489118
13460162,1883,1,196470,245048,1.37,-0.78,10.31,-0.03,-0.06,0.02,25.59,11.541672,5.492816265361858,194.97791025735614,10.429832213415516,0.06999999999999999,0.11457567321526703,0.19950261668850447
13500175,1892,1,196323,244679,0.53,-1.44,9.83,-0.06,-0.05,0.02,25.59,11.581685,15.577492717180148,241.87036363000354,9.949040154708394,0.0806225774829855,0.30180131331634,0.2522887328371555
13540175,1904,1,196100,243526,0.8,-1.19,9.52,-0.02,-0.06,0.02,25.59,11.621685,25.806337371190757,92.16922831784191,9.627382821930372,0.066332495807108,0.4917034878671435,0.08377245894174766
13580174,1890,1,195588,242952,0.53,-0.5,9.86,-0.02,-0.04,-0.02,25.59,11.661684,9.241308533955799,-76.13833356602247,9.88688525269713,0.048989794855663564,0.18416777840123807,-0.10568878420745804
13620192,1872,1,195807,243619,1.12,-0.61,9.99,-0.04,0.02,0.02,25.59,11.701702,-6.096989616621237,-106.54870801356459,10.07107740015933,0.048989794855663564,-0.10059323530338221,-0.13992127669308851
13660166,1872,1,195859,243751,0.5,-0.66,9.17,-0.08,-0.04,0.01,25.59,11.741676,-14.227160542912268,15.789910906693127,9.207306880950584,0.09,-0.2515327783892211,-0.0022065681775997716
13700172,1892,1,196217,244498,1.66,-0.46,10.93,0.03,-0.08,0.02,25.59,11.781682,15.206466190247738,172.7917680678212,11.06490397608583,0.08774964387392122,0.2949130725947576,0.17452801642179291
13740167,1927,1,196015,244295,1.16,-0.36,9.6,-0.08,-0.11,0.01,25.59,11.821677,35.56968018932717,232.44810707277114,9.67652830306407,0.13638181696985854,0.6729634536563506,0.2416822430239658
13780175,1884,1,196086,244143,0.72,-1.58,10.01,-0.06,0.05,-0.0,25.59,11.861685,7.549464988877991,167.01982405386016,10.159473411550422,0.07810249675906655,0.1527580953844915,0.16803062749860684
13820174,1895,1,195755,243043,1.14,0.11,8.79,-0.01,-0.06,0.02,25.59,11.901684,1.142738142863497,68.6896877629888,8.864299182676541,0.06403124237432849,0.033814910600261865,0.057341899956143715
13860166,1888,1,195608,243511,0.53,-1.14,10.05,0.01,-0.01,0.05,25.59,11.941676,9.771067741605481,56.62560259841751,10.128326614006877,0.051961524227066326,0.1940029483469993,0.04376154416491237
13900167,1904,1,195837,244361,1.12,-0.7,9.31,-0.06,0.02,0.01,25.59,11.981677,10.122737968178615,165.23601146764742,9.403217534440007,0.06403124237432849,0.2005318324008623,0.1660226170067059
13940163,1910,1,196375,244693,0.57,-0.52,10.87,-0.01,0.04,0.01,25.59,12.021673,29.90395742767483,316.1857809941922,10.897348301307066,0.042426406871192854,0.5677772758197457,0.3359444593022959
13980166,1937,1,196080,244127,0.88,-0.46,10.09,-0.04,-0.05,0.02,25.59,12.061676,42.89676493764699,395.4033125637362,10.138742525579787,0.0670820393249937,0.8089934134307809,0.42511842060495875
14020172,1920,1,196228,243834,0.59,-1.21,10.53,0.0,-0.01,0.02,25.59,12.101682,40.3541204368036,357.43676638857954,10.615700636321655,0.022360679774997897,0.7617883051167661,0.38238006140164293
14060167,1932,1,195810,242874,0.87,-0.74,9.57,-0.06,-0.03,0.01,25.59,12.141677,35.91798976664477,258.65174551977015,9.637914712218613,0.06782329983125268,0.6794299460498535,0.2711792772607662
14100175,1877,1,195813,243384,0.53,-1.15,10.3,-0.03,0.06,0.01,25.59,12.181685,0.6118116572091806,194.60731503668052,10.377543061823449,0.06782329983125268,0.02395806971913276,0.19908544332785175
14140167,1867,1,195971,244228,0.57,-0.1,9.15,-0.07,0.01,0.0,25.59,12.221677,-32.44411801989044,207.83972692967498,9.1682822818672,0.07071067811865477,-0.5897371363194462,0.2139809666130085
14180162,1866,1,196198,243900,0.77,-0.34,9.83,-0.03,-0.05,0.04,25.59,12.261672,-5.661847893645898,252.74142762699785,9.865971822380196,0.07071067811865475,-0.09251467294117052,0.264526122982741
14220174,1911,1,195864,243740,1.09,-0.66,9.5,-0.04,-0.05,0.03,25.59,12.301684,8.740739998129712,243.28027846045177,9.585076942831497,0.07071067811865475,0.17487454376131087,0.25387585235526455
14260172,1841,1,196077,242968,0.48,-1.07,10.3,-0.03,0.09,0.03,25.59,12.341682,-27.010044369074606,133.90473086838088,10.366547159011047,0.09949874371066199,-0.4888516074191185,0.13075347457869288
14300852,1865,1,195458,241936,0.92,-0.94,9.94,-0.04,-0.06,0.02,25.61,12.382362,-37.37633933062922,-36.21297415302653,10.026644503521604,0.07483314773547883,-0.6813055962928669,-0.060745418960538373
14339172,1840,1,195672,243055,0.41,-1.7,10.17,-0.04,0.04,0.04,25.61,12.420682,-26.88450326098385,-164.7074556205014,10.319253848995091,0.06928203230275509,-0.4865208916610485,-0.20538968760866194
14379167,1875,1,195678,243446,0.63,-0.14,8.85,-0.05,-0.06,0.04,25.61,12.460677,-24.923430279147436,-149.97195165460775,8.873499873218007,0.08774964387392122,-0.45011286746082324,-0.1888021566114827
14419175,1852,1,195913,244277,0.71,-0.99,10.06,-0.03,-0.02,0.02,25.61,12.500685,-15.223902556705891,45.66529165181516,10.133498902156155,0.0412310562561766,-0.27003765184150685,0.031423690095836176
14459177,1893,1,196036,245156,0.96,-0.6,9.33,-0.05,-0.01,0.01,25.61,12.540687,-3.6873059883206425,363.99405485043445,9.398430720072367,0.05196152422706632,-0.05585659333919597,0.3897615005346524
14499172,1867,1,196458,245477,1.13,-0.34,10.02,-0.02,0.0,-0.08,25.61,12.580682,-0.8091524088976456,663.3887298220146,10.089246750872931,0.08246211251235322,-0.002422638487872348,0.7267854980155763
14539175,1876,1,196358,245989,0.85,-0.26,10.5,-0.02,-0.03,0.0,25.61,12.620685,-17.278176478776086,778.7531151657066,10.537556642789637,0.03605551275463989,-0.30817598496901016,0.8566494186719859
14579172,1839,1,196654,246239,0.63,-1.06,11.37,-0.03,0.01,-0.06,25.61,12.660682,-30.074420671834993,613.2028995658538,11.43666909550154,0.06782329983125268,-0.5457428540085346,0.6702920779791781
14619174,1871,1,196248,243856,0.37,-1.44,9.86,-0.06,0.02,0.03,25.61,12.700684,-18.12735441340217,212.43447854330466,9.971464285650327,0.06999999999999999,-0.32394127829593783,0.2191532080912659
14659167,1861,1,195316,241859,0.99,-0.72,10.41,-0.0,-0.11,0.03,25.61,12.740677,-10.413023569523919,-241.52435470822275,10.481726956947504,0.11401754250991379,-0.18072195568334756,-0.2918612937155177
14699175,1883,1,195068,242552,0.81,-0.78,9.87,-0.06,0.02,0.01,25.61,12.780685,-1.8997308113411282,-535.3337396419938,9.933851216924884,0.06403124237432849,-0.022669618195493183,-0.622598015793793
14739162,1872,1,195254,242439,0.62,-1.18,8.84,-0.11,0.02,0.01,25.61,12.820672,-1.3478573407095877,-561.8801519151384,8.93993288565412,0.11224972160321824,-0.0124238890154399,-0.6524809052737783
14779167,1861,1,195502,242961,0.82,-0.72,10.18,-0.03,-0.02,0.01,25.61,12.860677,-21.638863571943414,-384.393606256406,10.238320174716161,0.03741657386773942,-0.38913370693455085,-0.4526870207544072
14819175,1861,1,195735,243564,0.52,-1.18,9.84,-0.02,-0.05,0.03,25.61,12.900685,-12.305286204956806,-178.2981502060984,9.92413220387556,0.061644140029689765,-0.21585249109030036,-0.22068852423030538
14859174,1894,1,195517,242813,1.14,-0.06,9.33,-0.06,-0.06,0.01,25.61,12.940684,11.099309105881073,-102.98875540658744,9.399579777841135,0.08544003745317531,0.21866222629442242,-0.135913892598632
14899175,1871,1,195553,243137,-0.02,-1.99,9.77,-0.03,0.06,0.02,25.61,12.980685,-1.0587540563303661,-203.05825135849622,9.970626860935072,0.06999999999999999,-0.007056582713464988,-0.24856059065635408
14939175,1863,1,195328,242251,0.6,-1.28,9.2,-0.05,0.05,-0.04,25.61,13.020685,-21.043763076843433,-400.1101133237359,9.307975075170754,0.08124038404635961,-0.3780854525208487,-0.47037885190929174
14979172,1858,1,195196,242583,0.46,-1.47,10.16,0.02,-0.04,0.03,25.61,13.060682,-13.383108482156583,-563.013301148051,10.276093615766644,0.053851648071345036,-0.23586264875158458,-0.6537564740000922
15019167,1888,1,194902,242649,1.32,-0.34,8.85,-0.09,-0.07,-0.0,25.61,13.100677,3.1096095221143774,-598.1466625432071,8.954356481623902,0.1140175425099138,0.07033058413090154,-0.6933055605142776
15059195,1876,1,195387,243801,0.36,-1.86,10.39,-0.06,0.03,0.01,25.61,13.140705,4.644921651677405,-502.000026208353,10.56131147159291,0.06782329983125268,0.0988342052025078,-0.585074765410814
15099166,1904,1,195299,243440,0.4,-0.67,8.46,-0.08,-0.01,-0.01,25.61,13.180676,17.612535407165886,-352.56683180479524,8.495910781075802,0.08124038404635961,0.33958261171356247,-0.41686010849010663
15139192,1885,1,195391,243862,0.63,-2.04,10.42,-0.01,0.01,0.02,25.61,13.220702,14.635411091896048,-256.36729987643855,10.636489082399322,0.024494897427831782,0.28431122960726146,-0.30856976962764643
15179166,1869,1,195009,243300,0.47,0.1,8.68,-0.06,-0.03,0.04,25.61,13.260676,-20.83090778130329,-286.75570180681973,8.693290516254475,0.07810249675906654,-0.37413371751508945,-0.3427775279874311
15219162,1872,1,195321,243647,0.14,-1.04,10.99,-0.02,0.06,0.02,25.61,13.300672,3.8226160299018894,-440.01835230045685,11.039986413035118,0.066332495807108,0.08356780601447308,-0.5153029449434623
15259166,1936,1,194996,242157,0.37,-0.51,9.77,-0.03,-0.01,0.01,25.61,13.340676,42.18288131598592,-622.9622560365597,9.79029621615199,0.033166247903554,0.7957399076131433,-0.7212400938181355
15299175,1893,1,194977,241966,0.26,-1.67,11.76,0.01,0.04,0.02,25.61,13.380685,25.7801357454273,-685.610524985821,11.880829095648165,0.045825756949558406,0.49121704527489085,-0.7917622901081808
15339832,1937,1,194504,242405,0.96,-1.03,9.29,-0.07,-0.14,0.04,25.59,13.421342,41.05647932170626,-502.3482838406427,9.396094933534888,0.16155494421403513,0.7748278500575329,-0.5854667936905377
15380175,1926,1,195499,244684,0.26,-1.82,11.17,-0.04,-0.03,0.02,25.59,13.461685,57.5515043103701,-64.6222537506097,11.320287098832786,0.05385164807134504,1.0810639129337944,-0.09272530963975502
15420174,1937,1,195900,245434,0.24,-0.78,9.87,-0.11,-0.01,0.01,25.59,13.501684,40.0056391416255,485.079323187247,9.903681133800703,0.11090536506409417,0.7553186247195128,0.5260653315055828
15458175,1914,1,196331,245788,0.39,-1.12,11.7,-0.03,-0.06,-0.01,25.59,13.539685,44.09486761860791,920.6331006948791,11.759953231199518,0.06782329983125268,0.831236619984946,1.0163615441134832
15498195,1935,1,196107,245580,0.6,0.1,10.36,-0.05,-0.05,-0.0,25.59,13.579705,36.48651902303763,1067.1065411353702,10.377841779483825,0.07071067811865477,0.6899848958742624,1.181244451355318
15538172,1899,1,196429,244618,0.12,-1.04,11.46,-0.07,0.02,0.01,25.59,13.619682,27.456140580369382,913.8134572859523,11.50771914846726,0.07348469228349536,0.5223326769497124,1.0086847760370665
15578167,1923,1,195761,242964,1.03,-0.59,10.18,-0.02,-0.11,-0.0,25.59,13.659677,24.287350935765378,626.7802798082089,10.248970680024408,0.11180339887498948,0.46350295917035156,0.6855759268486724
15618195,1860,1,195516,243201,0.87,-1.08,10.7,-0.04,-0.07,0.01,25.59,13.699705,-15.931574466085593,443.9115010081691,10.789499525001148,0.08124038404635961,-0.28317583498978965,0.479723344963258
15658174,1857,1,195540,243145,0.28,-1.19,8.1,-0.09,-0.03,0.01,25.59,13.739684,-38.60503387768847,512.7067379837247,8.191733638247767,0.09539392014169455,-0.7041167518277962,0.5571650889600411
15698175,1839,1,195548,244217,0.29,-1.52,9.3,-0.06,-0.06,0.02,25.59,13.779685,-44.200377387172466,779.0957585993391,9.42785765696534,0.08717797887081347,-0.8079963135721536,0.857035127134317
15738174,1818,1,196241,245291,0.52,-1.19,10.06,-0.03,0.02,0.01,25.59,13.819684,-73.00170157724357,1014.9031998281963,10.143475735663786,0.03741657386773942,-1.342703240760911,1.1224799500465528
15778166,1815,1,195908,243988,1.24,-0.33,9.09,-0.04,-0.1,-0.01,25.59,13.859676,-75.22104600840866,976.5656041378325,9.180119824926035,0.10816653826391968,-1.3839061671725679,1.0793239060901918
15818195,1840,1,195629,243491,0.65,-1.24,10.38,-0.01,0.02,0.01,25.59,13.899705,-48.013047153190115,582.7570712044425,10.4739915982399,0.024494897427831782,-0.8787798970462627,0.6360196755660258
15858166,1840,1,194526,241314,0.66,-1.15,7.62,-0.06,-0.04,-0.04,25.59,13.939676,-54.79799740253916,-25.163470910887778,7.734500630292818,0.0824621125123532,-1.0047449351471398,-0.04830716249122233
15898195,1790,1,194189,241143,0.38,-1.54,10.07,0.01,0.14,-0.02,25.59,13.979705,-97.30611570691599,-586.9982036079557,10.194160092915945,0.14177446878757827,-1.7939234176748697,-0.6807559111376914
15938166,1809,1,193602,239203,0.36,0.13,7.96,-0.03,0.02,-0.08,25.59,14.019676,-88.50581986355033,-907.0982414282516,7.969196948250182,0.08774964387392122,-1.6305427648373785,-1.0410876182738709
15978166,1870,1,193560,240396,0.35,-0.66,9.22,0.0,-0.01,0.02,25.59,14.059676,-17.497344158366204,-970.2514198378715,9.250216213689278,0.022360679774997897,-0.31224491165166324,-1.112178183405854
16018162,1923,1,193981,241218,0.37,-1.44,8.7,0.02,0.02,0.02,25.59,14.099672,23.409375259278836,-903.8888217761832,8.826125990489825,0.034641016151377546,0.4472030254234709,-1.0374748237549416
16058144,1921,1,193918,240047,0.77,-0.27,9.42,0.02,0.02,0.01,25.59,14.139654,33.0006242099987,-833.5991588430778,9.455273660767308,0.030000000000000002,0.6252680067589403,-0.9583508273593792
16099155,1945,1,193533,240639,0.29,-2.24,9.92,0.04,0.02,0.05,25.59,14.180665,44.42083967428325,-769.7115524542866,10.173893060181044,0.0670820393249937,0.8372884082669464,-0.8864335279061336
16139144,1934,1,193776,240345,0.4,-0.75,9.77,0.01,0.01,0.02,25.59,14.220654,44.12084924270636,-626.3011001925458,9.806905730147506,0.024494897427831782,0.8317189781672774,-0.7249985795177328
16179143,1943,1,193532,241958,0.66,-1.0,10.15,0.03,-0.06,0.06,25.59,14.260653,43.60400160952841,-340.12974245228486,10.22047454866945,0.09,0.8221235162385985,-0.4028598676006908
16219166,1937,1,194824,244074,-0.11,-2.13,10.32,-0.02,0.05,-0.07,25.59,14.300676,43.597718066485484,42.48399742679065,10.53809280657558,0.08831760866327848,0.8220068600053584,0.027842555939116415
16259195,1941,1,194931,244061,0.4,-0.66,10.88,-0.01,-0.01,-0.01,25.59,14.340705,44.172464237182,403.2503651031338,10.907336980216575,0.017320508075688773,0.8326772290765341,0.4339517273948061
16299220,1966,1,195029,243578,0.42,-0.51,10.36,-0.0,-0.01,0.03,25.59,14.38073,69.19069078967179,668.4749889617715,10.381045226758237,0.03162277660168379,1.2971495899760268,0.732511021983788
16339862,1986,1,194899,244115,0.52,-1.02,10.98,-0.03,-0.05,0.01,25.59,14.421372,90.89549712413205,873.0597491235577,11.039528975459053,0.05916079783099616,1.7001071145584294,0.9628089512971477
16378175,1950,1,195345,244321,0.26,-1.17,11.33,-0.04,0.02,0.01,25.59,14.459685,52.024295846546686,1098.81837711656,11.39321728046999,0.0458257569495584,0.9784493027818918,1.2169419791448637
16418166,1895,1,195448,245301,0.45,-1.03,11.03,-0.04,-0.03,0.01,25.59,14.499676,-0.737629665865626,1348.9198059624696,11.08712316157803,0.05099019513592785,-0.001094793077071882,1.498477324866495
16458175,1906,1,195822,245046,0.62,-0.56,11.38,-0.06,-0.04,0.01,25.59,14.539685,9.482588302896195,1488.241419132926,11.410626626088508,0.07280109889280519,0.18864722396393233,1.6553095297500835
16498198,1917,1,195507,244265,0.24,-0.91,10.34,-0.06,-0.08,0.01,25.59,14.579708,19.13331929289698,1319.3424181668918,10.38274048601813,0.1004987562112089,0.3678165107208096,1.4651825126897076
16538174,1886,1,195084,242457,0.84,-0.49,10.16,-0.1,-0.02,0.0,25.59,14.619684,-8.499207420908634,740.4408056190849,10.206434245122045,0.10198039027185571,-0.14519127156351527,0.813521838940133
16578175,1885,1,194315,239007,0.56,-1.21,10.39,-0.04,-0.0,0.03,25.59,14.659685,-14.039139914785967,-145.3247557114336,10.475199282113921,0.05,-0.2480421079030296,-0.18357087935515087
16618174,1879,1,192889,235643,0.87,-0.83,8.05,-0.09,-0.06,0.03,25.59,14.699684,-15.059877479893993,-1067.7049801998887,8.139305867210055,0.11224972160321824,-0.26699246738314003,-1.2218801628584721
16658172,1870,1,192046,236031,1.19,-1.31,10.14,-0.0,-0.07,0.05,25.59,14.739682,-28.299744391823317,-1752.3862918801087,10.293289075897947,0.08602325267042628,-0.5127953515195015,-1.9926154228788928
16698174,1856,1,192368,235559,1.09,-0.99,7.54,-0.1,-0.07,0.01,25.59,14.779684,-39.13624766767695,-2076.5564863648383,7.682434509971432,0.12247448713915891,-0.7139789266170704,-2.3575288429982817
16738172,1843,1,192344,236129,0.47,-0.64,8.39,-0.06,-0.0,0.02,25.59,14.819682,-53.42280652698366,-2089.6245580555433,8.427490729748683,0.06324555320336758,-0.979214022661533,-2.372239371036186
16778175,1854,1,192672,235989,0.8,-0.43,8.48,-0.02,0.04,0.03,25.59,14.859685,-43.175019430761274,-1901.1752894185192,8.528499281819752,0.053851648071345036,-0.7889601748681498,-2.1601049172606297
16818162,1866,1,192588,236932,0.98,-0.94,10.2,0.02,-0.02,0.0825,25.59,14.899672,-27.577259051398293,-1564.9431678436786,10.28999514091236,0.08721381771256205,-0.499382151703822,-1.7816135706613576
16858166,1870,1,192992,238194,0.76,-0.86,9.63,-0.02,0.05,0.01,25.59,14.939676,-30.360866861817023,-1076.1177112012042,9.69814930798655,0.05477225575051661,-0.5510608303987667,-1.231350245224046
16898163,1873,1,193668,241231,0.58,-0.95,10.41,0.03,0.03,0.02,25.59,14.979673,-17.090585171759457,-463.8028829327444,10.469336177618905,0.0469041575982343,-0.30469328498340453,-0.5420768265853516
16938143,1895,1,194728,243483,0.4,-1.53,10.39,0.01,0.05,-0.03,25.59,15.019653,-8.322195609762657,147.2892261509047,10.509662221023092,0.05916079783099616,-0.1419049837182289,0.14582019580481
16978163,1888,1,195242,244483,0.32,-1.48,10.37,-0.0,-0.04,0.02,25.59,15.059673,-0.6135859444477536,593.8292564714237,10.479966603000221,0.044721359549995794,0.0012081231596501158,0.6484834648431117
17018174,1917,1,195363,244410,-0.02,-1.49,10.39,-0.03,0.04,0.02,25.59,15.099684,14.098952743150086,798.9705002595537,10.496313638606653,0.05385164807134504,0.2743516877011433,0.8794078192467
17058175,1890,1,195241,243629,0.46,-0.82,11.46,-0.0,0.0,0.03,25.59,15.139685,-1.528804844567914,830.9484023082528,11.498504250553633,0.03,-0.015783244409380996,0.9154048535310574
17098166,1890,1,194972,243427,0.57,-0.59,10.47,-0.05,-0.03,0.02,25.59,15.179676,-8.815403419425953,824.6904011278829,10.50209026813234,0.061644140029689765,-0.1510615638334402,0.9083603175043267
17137175,1904,1,195366,244086,-0.04,-1.31,11.75,-0.03,-0.02,0.02,25.59,15.218685,7.710331596958923,840.9437027323343,11.822867672438866,0.0412310562561766,0.15574464173654728,0.9266564100434318
17177195,1911,1,195441,243687,0.43,-0.72,10.23,-0.04,-0.03,0.01,25.59,15.258705,15.035930241348122,809.2636855020589,10.264316830651712,0.05099019513592785,0.2917470114577919,0.8909947001341776
17217175,1909,1,195341,243575,0.18,-1.11,11.08,-0.02,-0.03,0.05,25.59,15.298685,12.139514394110732,621.2148370916301,11.136916090193012,0.061644140029689765,0.23797401104585136,0.6793109932713784
17257175,1920,1,195186,242539,0.35,-0.95,9.23,-0.05,-0.01,0.04,25.59,15.338685,20.53048195154294,285.059504005443,9.285359443769531,0.06480740698407861,0.39375533725035505,0.3009060862970227
17297172,1920,1,194765,241597,0.62,-1.17,11.43,-0.01,-0.04,0.01,25.59,15.378682,29.4186829266538,-22.148541651240496,11.50644167412324,0.042426406871192854,0.558767980428617,-0.04491330282653397
17337174,1898,1,193781,239528,1.12,-0.77,8.03,-0.1,-0.07,-0.0,25.59,15.418684,-10.174542643599414,-81.39284989411806,8.144212669128919,0.12206555615733704,-0.17629447164640938,-0.11160371271409117
17377878,1863,1,194830,243733,1.1,-1.54,10.78,-0.0,-0.01,-0.0975,25.69,15.459388,-19.145277638758692,165.46064883553976,10.944861808172819,0.0980114789195633,-0.34283938854783014,0.1662754878492413
17418195,1943,1,195414,244094,0.06,0.01,7.022499999999996,-0.12,-0.05,-0.0975,25.69,15.499705,28.20491180260498,535.031839007613,7.02276343400516,0.1625,0.5362338836014188,0.5822961130570814
17458172,1904,1,195869,244849,0.04,-0.59,12.29,0.02,0.02,0.02,25.69,15.539682,25.14053494042948,739.7180225443582,12.30421878869195,0.034641016151377546,0.4793426266262601,0.8127082131093493
17498145,1920,1,195205,242958,0.93,-0.05,9.5,-0.01,-0.07,0.01,25.69,15.579655,5.930132425497065,626.1408379586267,9.545543462789324,0.07141428428542851,0.12269460478427088,0.6848561169578544
17538172,1880,1,194993,243004,0.37,-1.28,11.36,-0.02,0.03,0.01,25.69,15.619682,-2.000950924227852,294.5038419488787,11.437871305448404,0.03741657386773942,-0.024548805943048816,0.3115374327882708
17578167,1886,1,194213,241307,0.98,-0.96,8.36,-0.07,-0.03,-0.0,25.69,15.659677,-22.40111433358295,-6.260749821843664,8.47181208479036,0.07615773105863909,-0.40328516607628273,-0.027028659039878906
17618192,1856,1,194469,242944,0.5,-1.51,10.67,-0.01,-0.03,-0.01,25.69,15.699702,-30.540932409708997,-99.63586983011129,10.78790989951251,0.033166247903554,-0.5544038119634501,-0.1321396006871697
17658195,1874,1,194853,243892,0.12,-0.79,8.4,-0.09,0.02,-0.03,25.69,15.739705,-28.955153459073852,-12.673567562885731,8.437920359899113,0.09695359714832658,-0.5249632562341742,-0.034247469696440325
17698172,1872,1,195087,242920,0.24,-0.3,9.6,-0.02,-0.04,0.03,25.69,15.779682,-16.75298118800464,86.95507806020757,9.607684424459412,0.053851648071345036,-0.29842554577916147,0.07790296990203469
17738175,1878,1,194517,242332,0.64,-0.72,8.6,-0.02,-0.0,0.01,25.69,15.819685,-20.758782264432675,63.015459207198624,8.653785298931329,0.022360679774997897,-0.3727946813914975,0.05095450782676018
17778172,1846,1,194361,241706,1.09,0.02,10.96,0.01,0.02,-0.01,25.69,15.859682,-43.799034968014055,-80.02110410346215,11.014086435106636,0.024494897427831782,-0.800545247423859,-0.11005955949914717
17818143,1839,1,194048,241982,0.58,-1.4,10.07,-0.03,0.02,-0.02,25.69,15.899653,-54.43078238384019,-235.24048779509246,10.183383524153454,0.0412310562561766,-0.9979274564447621,-0.28478764102980336
17858172,1840,1,194285,242166,0.46,-0.93,10.0,-0.02,0.05,-0.08,25.69,15.939682,-51.49204464411327,-311.5269423106655,10.05368091795239,0.09643650760992956,-0.9433687348994269,-0.3706621338106975
17898175,1872,1,194113,242374,0.73,-1.2,8.27,-0.02,-0.09,0.02,25.69,15.979685,-14.898644285207064,-304.4411103828291,8.388432511500584,0.09433981132056603,-0.2639991152190893,-0.36268572139780453
17938197,1905,1,194355,243435,0.28,-1.7,10.21,-0.01,-0.02,0.0,25.69,16.019707,13.294658324450117,-265.9121004202172,10.35434691325339,0.022360679774997897,0.25941967296668234,-0.31931420532854105
17978175,1911,1,194383,242907,0.72,-0.39,8.81,-0.05,-0.03,-0.01,25.69,16.059685,28.29805178852984,-230.95675657552238,8.847971518941502,0.05916079783099616,0.5379630608900607,-0.27996551044284357
18018195,1951,1,193773,240949,0.36,-0.67,10.1,-0.03,0.03,0.0,25.69,16.099705,63.70683075657062,-193.0561637969681,10.1285981260982,0.042426406871192854,1.1953397590084762,-0.23730139396736682
18058167,1934,1,193591,241799,1.1,-0.3,10.3,0.02,-0.01,-0.0,25.69,16.139677,52.17795623178139,-147.0222070784616,10.362914647916387,0.022360679774997897,0.9813020630187914,-0.18548167434607563
18098172,1919,1,194414,243307,0.59,-0.61,11.27,0.01,-0.03,-0.09,25.69,16.179682,38.165517747014945,-125.98182908688884,11.301906918746058,0.09539392014169457,0.7211561101742372,-0.16179684327851362
18138175,1941,1,194480,242621,0.21,-0.36,10.77,0.01,-0.03,-0.02,25.69,16.219685,62.215444382680836,-163.99290077983343,10.778061050114719,0.03741657386773942,1.1676516353662758,-0.20458532417486297
18178175,1941,1,193788,241604,-0.09,-1.24,10.32,0.01,0.0,0.01,25.69,16.259685,61.73026569191211,-222.19457700316465,10.394618800129228,0.01414213562373095,1.1586441187268899,-0.2701020591760433
18218167,1935,1,193746,241509,0.35,-1.21,10.64,0.01,0.06,0.01,25.69,16.299677,66.72981310660072,-187.19363553319926,10.714298857134796,0.06164414002968976,1.251462511999385,-0.23070203574234888
18258144,1953,1,193568,242443,0.43,-1.12,10.36,-0.01,-0.08,-0.0,25.69,16.339654,68.29507242776276,22.533188297581884,10.42923295357813,0.0806225774829855,1.2805221134381495,0.0053842358425979595
18298195,1893,1,194540,244255,0.13,-1.97,11.47,-0.04,0.02,-0.01,25.69,16.379705,40.07701166507806,344.5831366335791,11.638672604726022,0.0458257569495584,0.7566436812498714,0.3679109273645021
18338175,1927,1,194640,243861,0.04,-0.82,9.05,-0.07,-0.1,0.04,25.69,16.419685,35.88062116109645,587.9531574829235,9.087161272916862,0.1284523257866513,0.6787361844674273,0.641868830261231
18378861,1891,1,194581,243165,0.51,-1.53,10.34,-0.03,-0.05,-0.0,25.81,16.460371,49.780128137003004,585.4877511604055,10.465017916850405,0.05830951894845301,0.936785523292197,0.639093560145593
18417195,1895,1,194184,243244,0.58,-0.95,10.14,0.0,-0.1,0.0,25.81,16.498705,4.444823349525828,348.3724312806113,10.200906822434956,0.1,0.09511930836050629,0.3721764782788498
18457166,1776,1,194046,241338,0.03,-1.13,9.19,-0.06,0.06,-0.06,25.81,16.538676,-63.47613239139604,72.89811786732228,9.259260229629579,0.10392304845413264,-1.1658576278482824,0.06207926523164893
18497175,1821,1,193213,241610,0.49,-0.95,9.24,0.03,-0.07,-0.04,25.81,16.578685,-59.81183920934785,-20.965462989364962,9.301623514204389,0.08602325267042626,-1.0978287089429788,-0.043581529307190225
18537175,1790,1,193962,242537,0.9,-1.27,10.15,-0.0,0.03,-0.05,25.81,16.618685,-55.89723551831972,114.15154870213617,10.268661061696408,0.05830951894845301,-1.0251526855428807,0.10851762012580846
18577172,1805,1,194036,243736,0.28,-0.67,9.05,-0.02,-0.1,-0.0,25.81,16.658682,-63.278849769101285,296.5911098648629,9.07908585706733,0.10198039027185571,-1.1621950051140355,0.31388703829453257
18617195,1841,1,194199,242779,0.67,-1.72,8.52,-0.04,-0.04,0.0,25.81,16.698705,-10.926133841049626,260.2879315343542,8.717665972036322,0.0565685424949238,-0.19024803215073038,0.27302110678331815
18657175,1879,1,193705,242252,0.16,-1.3,8.21,-0.03,0.02,0.01,25.81,16.738685,16.833271552377877,-114.7096449837748,8.313825834115121,0.03741657386773942,0.32511529838751035,-0.14910791837651585
18697166,1835,1,193210,237828,0.67,-1.14,9.62,0.03,0.03,0.02,25.81,16.778676,-15.801141312133757,-683.5715142946525,9.710453130518678,0.0469041575982343,-0.2807542966433976,-0.7894670070203664
18737143,1835,1,191749,237422,0.67,-0.96,10.3,0.04,-0.04,0.0,25.81,16.818653,-31.03482452808769,-1135.7411094630563,10.366315642502887,0.0565685424949238,-0.5635730965157228,-1.2984673909365207
18777166,1815,1,192712,238912,0.33,-1.34,10.56,0.0,0.06,-0.0975,25.81,16.858676,-28.12569260646415,-1227.6518307497581,10.649793425226614,0.11448253141855311,-0.5095640176159999,-1.4019298813844208
18817166,1842,1,192564,239748,0.89,-1.27,8.47,-0.01,-0.16,-0.02,25.81,16.898676,-34.18758981779291,-949.7916773420152,8.610801356435998,0.16155494421403513,-0.6221053163914607,-1.0891469648177534
18857195,1828,1,193840,241529,0.3,-1.75,11.33,0.01,0.08,0.01,25.81,16.938705,-7.042636994906413,-497.67483374963257,11.468277987562038,0.08124038404635961,-0.11814951849751693,-0.5802059625423238
18897143,1904,1,193377,240920,0.87,0.13,9.15,-0.01,-0.13,0.0,25.81,16.978653,18.319042296049226,-99.4668531366528,9.192186899753509,0.130384048104053,0.35269916583792915,-0.1319493411854742
18937166,1813,1,193780,242703,0.64,-1.13,11.63,-0.0,0.03,0.0,25.81,17.018676,-19.88580082591669,133.07569504195888,11.702281828771687,0.03,-0.3565874674661523,0.12982024165361775
18977162,1840,1,193655,242362,0.8,0.14,8.85,-0.1,-0.07,-0.03,25.81,17.058672,-50.32008242512164,219.8692176745448,8.887187406598333,0.12569805089976538,-0.9216108354097096,0.22752237999613115
19017175,1783,1,194192,243230,0.66,0.19,11.99,0.02,0.04,0.01,25.81,17.098685,-54.676307418072724,227.6187419305244,12.009654449650082,0.0458257569495584,-1.0024857168822336,0.2362459006919269
19057124,1839,1,193844,243155,1.685,0.68,9.55,-0.1,-0.14,-0.01,25.81,17.138634,-52.865834911666546,195.13499573959564,9.721323212402725,0.17233687939614087,-0.9688736445944633,0.19967944540857305
19097175,1807,1,194283,242385,0.86,0.21,10.86,-0.05,0.05,0.03,25.81,17.178685,-38.7364334178448,131.91238889655054,10.896022209962679,0.07681145747868609,-0.706556231481139,0.1285107257530532
19137144,1856,1,193694,241704,1.17,-0.16,10.12,0.0,0.03,-0.02,25.81,17.218654,-37.59045699114172,59.186983107337596,10.188665270780072,0.03605551275463989,-0.685280767557699,0.0466448509514072
19177167,1843,1,193914,241168,0.32,-1.07,10.17,-0.02,0.02,0.0825,25.81,17.258677,-12.089317488753645,25.731374449323752,10.23113874404995,0.08721381771256205,-0.2118429543117899,0.00898438498235969
19217166,1904,1,193680,241742,0.5,-1.15,9.2,-0.04,-0.02,0.08,25.81,17.298676,9.045304147005904,74.39603681692762,9.285068658873772,0.09165151389911681,0.1805288865652292,0.06376544963805608
19257175,1856,1,194287,242045,0.92,-0.98,9.34,-0.1,0.07,0.0825,25.81,17.338685,-11.198072421133052,198.68343783299545,9.436228059982442,0.1473304109815757,-0.195296669552986,0.2036738722942907
19297162,1907,1,194297,242510,-0.06,-1.85,8.02,-0.14,-0.04,0.0825,25.81,17.378672,12.787669020431764,340.0924934623099,8.230826203972478,0.16735067971179562,0.250007234459335,0.3628558791643789
19337195,1920,1,194520,241369,0.55,-1.2,8.33,-0.09,0.01,0.0825,25.81,17.418705,38.34069022129253,429.8813909871389,8.433943324447943,0.1225,0.7244082500699893,0.4639298651198586
19377167,1907,1,194288,241139,1.685,-0.26,10.93,0.09,0.02,0.05,25.81,17.458677,13.605107995248787,432.0969757726762,11.062175418967103,0.10488088481701516,0.26518328259879587,0.4664239149597583
19417832,1914,1,194286,240139,0.51,-0.47,9.68,-0.03,0.07,0.01,25.75,17.499342,19.56681373883011,350.85514244646953,9.70481323880063,0.07681145747868609,0.3758644907931357,0.37497122819144424
19456165,1945,1,194067,241528,0.34,-1.0,9.66,-0.02,0.07,-0.03,25.75,17.537675,48.935282246712376,210.43652499903786,9.717571713139039,0.07874007874011811,0.9211006559241514,0.21690414240453018
19496175,1958,1,194423,241356,0.68,-1.3,10.18,-0.0,-0.04,0.07,25.75,17.577685,55.35057693623562,43.020672188452764,10.285173795323052,0.0806225774829855,1.0402029058001443,0.028446682493937926
19536175,1953,1,193897,240342,0.62,-0.97,9.86,-0.03,-0.05,0.02,25.75,17.617685,50.23208044733351,-104.86288934782816,9.926978392240006,0.061644140029689765,0.945176180245949,-0.13802357645573998
19576188,1952,1,193899,241303,0.36,-1.35,10.14,-0.04,0.02,0.0,25.75,17.657698,45.163585825932266,-174.65041966678845,10.235804804703928,0.044721359549995794,0.8510777573193914,-0.21658232986259265
19616166,1949,1,193979,241447,0.89,-1.02,9.97,-0.06,0.04,-0.03,25.75,17.697676,37.3956162757473,-131.51405331462482,10.06148100430548,0.07810249675906654,0.7068626128606121,-0.16802438331198077
19656175,1936,1,193782,241297,0.17,-0.95,8.72,-0.08,0.01,0.01,25.75,17.737685,27.362218026897963,-10.679594614111426,8.773243413926233,0.08124038404635961,0.5205889710135202,-0.03200288490504906
19696163,1952,1,194183,242922,0.79,-0.65,10.83,0.0,-0.02,0.01,25.75,17.777673,31.18811139817228,83.51718490372635,10.878212169285908,0.022360679774997897,0.5916180554682956,0.0740329862604766
19736166,1937,1,194484,242580,0.38,-0.26,10.41,-0.08,0.04,0.0,25.75,17.817676,27.9167540551408,53.709855723750685,10.420177541673654,0.08944271909999159,0.5308841315318482,0.04047933259105587
19776166,1937,1,193989,241559,1.35,-1.0,10.4,-0.02,-0.06,-0.01,25.75,17.857676,7.823228680827791,-90.21630721842162,10.534823206869682,0.06403124237432849,0.15784061664401022,-0.12153614340719353
19816195,1909,1,193924,240861,0.1,-1.42,9.75,-0.05,0.06,0.0825,25.75,17.897705,-0.43235847261891824,-205.31243223431372,9.853369981889445,0.11360567767501764,0.004572676259510363,-0.25109808752360857
19856163,1909,1,193659,241321,0.72,-0.95,10.54,-0.02,0.01,0.02,25.75,17.937673,-25.651420308192208,-113.41342043523112,10.607190957081897,0.03,-0.4636282637976617,-0.14764877826647693
19896167,1869,1,194256,242965,0.83,-1.09,10.6,-0.03,-0.0,-0.0975,25.75,17.977677,-42.948516693176074,243.2665438908751,10.688171031565691,0.10201102881551583,-0.7847550701995327,0.2538603915607703
19936192,1923,1,194799,244566,0.38,-1.22,9.67,-0.1,0.02,-0.0975,25.75,18.017702,-12.301929930800117,722.8082124384396,9.754060692860179,0.14108951059522462,-0.21579018065522165,0.7936730990109405
19976175,1920,1,195281,244867,0.14,-0.94,9.61,-0.06,-0.03,-0.05,25.75,18.057685,3.003684323896442,1059.8965082155376,9.65687837761251,0.08366600265340755,0.06836404478440518,1.1731282277890782
20016195,1951,1,195028,244133,0.94,-1.06,9.58,-0.07,-0.05,-0.01,25.75,18.097705,18.015823381583328,1044.9648233353594,9.684193306620847,0.08660254037844388,0.34706979779396036,1.1563198589431032
20056195,1957,1,194671,243079,0.36,-0.96,9.28,-0.07,0.01,-0.0,25.75,18.137705,36.213791000935444,664.9121350966121,9.336466140890781,0.07071067811865477,0.6849216021974113,0.7285003719874568
20096172,1941,1,193991,241718,0.92,-0.76,9.08,-0.07,0.03,-0.05,25.75,18.177682,8.80266391817798,97.19051851180623,9.158078401062092,0.091104335791443,0.17602418357613253,0.08942484836331055
20136175,1895,1,193367,238803,0.68,-0.97,9.78,-0.03,0.02,-0.07,25.75,18.217685,-25.185922945199398,-429.1784124134949,9.851482121995653,0.07874007874011811,-0.4549861380767144,-0.5031005907315725
20176172,1876,1,192723,239279,0.52,-0.61,10.15,-0.03,-0.02,-0.03,25.75,18.257682,-57.486317904396216,-785.745419942637,10.18160105287965,0.04690415759823429,-1.0546545707375088,-0.9044826068235066
20215195,1872,1,193302,239641,0.37,-0.69,9.67,-0.05,0.01,-0.03,25.75,18.296705,-45.81212877074802,-986.0874863481267,9.701644190548322,0.05916079783099616,-0.8379190568466108,-1.1300046007934266
20255175,1938,1,192811,239155,1.26,-0.98,9.04,-0.08,-0.08,-0.02,25.75,18.336685,5.319378903467835,-1096.66887743093,9.179847493286584,0.11489125293076058,0.11135574630405758,-1.254484378108322
20295195,1920,1,192822,238389,0.3,-1.78,9.23,-0.05,0.05,0.01,25.75,18.376705,2.394029009134023,-1120.3224564892623,9.4048551291341,0.07141428428542851,0.05704557491650626,-1.281110849570204
20335163,1936,1,192266,238959,0.9,-0.39,9.14,-0.04,-0.05,0.01,25.75,18.416673,7.39941669121577,-978.1874113204633,9.192480622769896,0.06480740698407861,0.14997239485060673,-1.1211116074010923
20375175,1920,1,193091,240986,0.33,-1.28,9.71,-0.06,0.12,-0.06,25.75,18.456685,2.359092137621334,-608.6015747687953,9.799561214666706,0.14696938456699069,0.05639695934977554,-0.7050744949881937
20415175,1871,1,193575,242362,0.59,-0.56,9.43,-0.06,0.02,-0.0975,25.75,18.496685,-54.77343681194917,-74.59516223998841,9.465019809804943,0.1162163929916946,-1.004288958962238,-0.10395165989438432
20455861,1872,1,194306,243026,0.17,-0.73,11.56,-0.04,0.04,-0.08,25.91,18.537371,-41.65581260317309,439.04108944820797,11.58427382273054,0.09797958971132713,-0.7607555545117045,0.4742407973078222
20496175,1933,1,194229,244024,0.88,-1.2,11.1,0.0,-0.14,-0.0,25.91,18.577685,6.778438742821387,745.5659299626736,11.19930354977487,0.14,0.13844371622296198,0.8192911128727004
20536175,1936,1,194625,243119,0.06,-1.79,10.29,-0.08,0.05,-0.01,25.91,18.617685,28.451229015349554,785.283954364352,10.444702006280504,0.09486832980505139,0.5408068511174663,0.8640010842747274
20576175,1962,1,193812,242576,0.54,-1.08,10.04,-0.02,-0.07,-0.01,25.91,18.657685,36.652810589599724,650.2873862643072,10.112348886386386,0.07348469228349536,0.6930721585288203,0.7120375163468688
20616195,1917,1,194066,242396,0.06,-1.33,10.72,-0.04,0.05,-0.0,25.91,18.697705,12.18698331361472,489.1609553471947,10.802356224453996,0.06403124237432849,0.2388552885842535,0.5306599622782339
20656175,1927,1,193627,242619,0.43,-0.97,9.9,-0.07,-0.06,-0.02,25.91,18.737685,7.212327478572527,381.52334124204015,9.956696239215095,0.09433981132056604,0.14649901642736324,0.40949394959456875
20696195,1915,1,193903,242037,0.39,-1.91,9.2,-0.09,-0.01,-0.01,25.91,18.777705,9.585556677734779,293.0214821543252,9.404264989886236,0.09110433579144298,0.19055886882248851,0.3098687630842661
20736195,1901,1,193643,241916,0.51,-0.34,9.74,-0.02,-0.04,-0.01,25.91,18.817705,-12.403618548467094,142.399917993349,9.759267390537058,0.0458257569495584,-0.21767806636227974,0.14031637653904674
20776195,1887,1,193657,240142,0.47,-1.32,10.1,-0.04,0.0,0.01,25.91,18.857705,-16.470001469849663,-93.01426117605592,10.196729867952763,0.04123105625617661,-0.2931719256833344,-0.12468575729948801
20816163,1903,1,192529,237729,-0.06,-1.0,9.8,-0.03,-0.03,0.05,25.91,18.897673,-9.159994105240711,-339.53837333549075,9.851071007763574,0.06557438524302,-0.15745901367060414,-0.40219417244847194
20856195,1883,1,192739,238426,-0.41,-1.36,10.11,-0.03,0.08,-0.01,25.91,18.937705,-12.30111595262705,-489.7464218690873,10.209299682152542,0.08602325267042626,-0.2157750688581096,-0.5712810707889544
20896195,1885,1,192897,239955,0.34,-1.05,9.69,-0.04,0.0,-0.04,25.91,18.977705,-31.478997996655057,-493.65056033972917,9.752650921672528,0.0565685424949238,-0.5718193364784779,-0.575675899635592
20936175,1862,1,193406,239186,0.31,-1.38,9.23,-0.03,-0.01,0.01,25.91,19.017685,-21.958401080702238,-385.12053482379355,9.337740626082951,0.033166247903554,-0.39506603554216685,-0.4535053131027507
20976175,1936,1,192865,239858,0.97,-0.39,10.72,0.0,-0.07,-0.02,25.91,19.057685,14.92394534566431,-232.46539927992956,10.770858832980776,0.07280109889280519,0.2896679716515844,-0.2816637664156928
21016175,1874,1,193372,240273,-0.28,-2.16,9.47,-0.06,0.05,-0.01,25.91,19.097685,-1.4010477282179052,-84.11378632785416,9.717247552676632,0.07874007874011811,-0.013411387662129086,-0.11466662916000418
21056195,1883,1,192837,240944,0.78,-0.53,9.9,-0.01,-0.06,-0.09,25.91,19.137705,-38.13939927857036,34.237237892339586,9.944812718196356,0.10862780491200216,-0.6954720782688962,0.018559305110328463
21096195,1838,1,193753,241760,0.41,-1.57,10.05,-0.02,0.02,-0.0975,25.91,19.177705,-34.26701930741688,93.0837274327927,10.180152258193392,0.10151970252123477,-0.6235799533923402,0.0848018965810201
21136175,1907,1,193309,242116,0.83,-0.38,9.77,0.0,-0.16,-0.01,25.91,19.217685,-9.505166650438314,60.5935667647013,9.812553184569243,0.16031219541881397,-0.16386726593617737,0.04822822061902421
21176174,1885,1,193491,242008,0.49,-1.47,9.91,-0.04,0.03,-0.01,25.91,19.257684,12.164637326330324,-57.673608672802516,10.030408765349495,0.05099019513592785,0.2384404273050642,-0.08490332636159209
21215175,1933,1,192953,241513,0.85,-0.63,9.23,-0.04,-0.07,-0.01,25.91,19.296685,23.05696861274075,-192.6344106677758,9.290441324285947,0.08124038404635961,0.4406604694684835,-0.23682663293307665
21255195,1904,1,193187,241019,0.14,-1.37,10.14,-0.02,0.05,0.0,25.91,19.336705,29.874335236480107,-247.3773820314406,10.233088487841782,0.05385164807134505,0.5672273292018125,-0.2984499568773565
21295166,1929,1,192773,242084,0.3,-0.9,10.13,-0.01,-0.07,0.05,25.91,19.376676,24.81311240679252,-176.03230613777077,10.174325530471297,0.08660254037844388,0.4732639096999831,-0.2181378982859772
21335175,1889,1,193599,242344,-0.01,-1.19,10.57,-0.04,0.05,0.0,25.91,19.416685,15.134858793327414,-31.775148630736183,10.636780527960516,0.06403124237432849,0.2935836555541184,-0.05574982677845586
21375172,1936,1,193225,243007,0.01,-1.05,9.27,-0.02,-0.0,-0.04,25.91,19.456682,34.939762454620954,71.53234934310316,9.3292818587499,0.044721359549995794,0.6612688046852251,0.06054184053393297
21415195,1911,1,193857,242535,0.62,-1.95,10.32,-0.04,0.08,0.02,25.91,19.496705,40.15093452611649,59.56254993495553,10.520898250624802,0.0916515138991168,0.7580160857134302,0.047067620773806475
21455852,1919,1,193145,241447,0.05,-0.77,9.81,-0.02,-0.12,0.0825,25.75,19.537362,18.174218387459398,-30.31771012172759,9.840299792181131,0.146990645960891,0.35001045796344094,-0.054109210583677715
21494175,1893,1,193179,240082,0.1,-1.82,10.22,-0.05,0.08,0.01,25.75,19.575685,26.600191298198386,-76.95468599046775,10.38127159841221,0.09486832980505139,0.5064416711237769,-0.10660773962129735
21534166,1911,1,193138,242080,0.46,-0.53,10.62,0.03,-0.05,-0.04,25.75,19.615676,10.687719826969968,16.282204943653063,10.643162124105785,0.07071067811865475,0.2110209235148001,-0.0016524003244540572
21574174,1845,1,193981,241654,0.28,-0.97,10.28,-0.03,0.02,0.0,25.75,19.655684,-20.258545455852552,229.95506041059002,10.329457875416308,0.03605551275463989,-0.3635076053870269,0.23887585860154908
21614163,1905,1,193766,242854,0.66,-0.94,10.16,0.01,-0.12,-0.01,25.75,19.695673,10.351452068906976,434.99780744359924,10.224715154956641,0.12083045973594571,0.20477799182041292,0.46968933671733154
21654175,1905,1,193986,241713,0.51,-1.11,9.91,-0.05,-0.02,-0.01,25.75,19.735685,34.315259585497444,487.6168266501333,9.985003755632745,0.05477225575051661,0.6496746846383172,0.528921760267266
21694195,1902,1,193451,241891,0.72,-0.92,8.88,0.03,-0.11,-0.0975,25.75,19.775705,18.116338617661597,332.3754195068803,8.95651718024367,0.15002083188677498,0.34893589925042023,0.35416888727462104
21734174,1870,1,193676,241272,0.46,-2.09,9.63,-0.02,0.04,0.01,25.75,19.815684,-9.030432990745293,41.31450923722412,9.864917637770729,0.0458257569495584,-0.15505366504990153,0.02652608100618097
21774163,1853,1,193136,240503,0.15,-0.57,10.0,0.01,-0.04,0.0,25.75,19.855673,-21.460094808881806,-226.4289335906577,10.017354940302354,0.04123105625617661,-0.3858148006459656,-0.2748686094963255
21814166,1874,1,193055,240474,0.25,-1.47,9.15,-0.03,-0.0,0.0,25.75,19.895676,-9.165587943197679,-313.06778436326044,9.2707011601065,0.03,-0.15756286528122532,-0.37239663609635626
21854172,1851,1,193255,241670,0.53,-0.58,9.76,-0.02,0.03,-0.0,25.75,19.935682,-21.149523823056917,-149.31992371030398,9.791572907352526,0.03605551275463989,-0.3800489387568217,-0.18806817874671478
21894175,1831,1,193562,242639,0.63,-1.82,10.91,0.01,-0.01,0.01,25.75,19.975685,-49.45268331719816,205.76610291420022,11.078691258447453,0.017320508075688773,-0.9055072594566315,0.2116467198364615
21934166,1830,1,193950,244017,0.62,-0.32,10.3,0.0,-0.06,-0.0,25.75,20.015676,-45.981974169433165,595.3381504533618,10.32360402185206,0.06,-0.8410722976708432,0.6501820036752267
21974175,1872,1,194466,244157,0.36,-1.43,10.31,-0.05,0.01,-0.01,25.75,20.055685,-2.990383987106974,848.2872753860987,10.414921987225828,0.05196152422706632,-0.042917986096697495,0.9349229572417019
22014175,1894,1,194137,244076,0.63,-0.7,9.97,-0.01,-0.05,-0.04,25.75,20.095685,13.66657522680735,863.1505137364933,10.014379661267093,0.06480740698407861,0.26632444382779275,0.9516542768780223
22054195,1853,1,194006,243068,0.42,-0.57,9.86,-0.03,0.04,-0.0,25.75,20.135705,-18.973024480882774,640.2075441116101,9.885388206843471,0.05,-0.3396414468095074,0.7006907925061687
22094172,1866,1,193408,242703,0.87,-0.52,9.54,-0.03,-0.08,-0.04,25.75,20.175682,-16.320458127718286,251.7843765138697,9.59369063499548,0.09433981132056604,-0.29039559983022756,0.263448785211217
22134195,1866,1,193440,240743,0.47,-0.95,10.65,-0.05,0.04,-0.01,25.75,20.215705,-4.917434160726062,-210.59820895268268,10.702611830763555,0.06480740698407861,-0.07869436464354378,-0.25704820537251627
22174175,1877,1,192267,239183,0.63,-0.75,9.34,-0.02,-0.05,-0.02,25.75,20.255685,-8.455816862818114,-664.0193135870654,9.391219303157603,0.057445626465380296,-0.14438571026944164,-0.7674573943155116
22214195,1871,1,192600,238530,0.5,-1.31,9.85,-0.03,0.02,0.02,25.75,20.295705,4.123872338403052,-1024.6034636849758,9.949301483018795,0.0412310562561766,0.08916073757386354,-1.1733614462355901
22254163,1904,1,192120,238800,0.53,-0.85,9.9,-0.02,-0.07,0.05,25.75,20.335673,10.476463231122239,-1192.9002936266452,9.950547723618032,0.08831760866327848,0.20709886894298155,-1.3628106086019305
22294175,1885,1,192263,238163,0.56,-0.72,10.01,-0.06,0.03,-0.0,25.75,20.375685,25.692428712042226,-1078.2376565805623,10.051472528938234,0.0670820393249937,0.48958873270132025,-1.2337366352500552
22334172,1901,1,192278,239983,0.74,-1.08,10.46,-0.0,0.03,-0.04,25.75,20.415682,-1.711683489971859,-668.9851318038279,10.541612779835921,0.05,-0.019178452139659467,-0.7730473397824301
22374175,1814,1,193107,240573,0.42,-0.83,9.71,-0.05,0.03,-0.0,25.75,20.455685,-41.230930264844325,-94.1290071447701,9.754455392281008,0.05830951894845301,-0.7528674613099736,-0.12594060975331825
22414172,1903,1,193605,243261,0.63,-1.17,10.94,0.02,-0.06,0.01,25.75,20.495682,-2.0648982356263157,402.4467234495814,11.02040834089191,0.06403124237432849,-0.025736010744960066,0.4330470803009721
22454167,1871,1,194007,242692,0.56,-0.63,9.52,-0.07,-0.03,-0.01,25.75,20.535677,10.785143921406322,594.8964375715244,9.557243326399092,0.07681145747868609,0.21282963681653672,0.6496847742532612
22494882,1901,1,193616,242841,0.88,-1.66,10.01,-0.04,-0.03,-0.0,25.75,20.576392,1.6860727595284528,432.1976628705968,10.18479749430493,0.05,0.043902112889813355,0.4665372568828876
22535195,1898,1,193232,240021,0.42,-0.51,8.19,-0.07,0.02,0.02,25.75,20.616705,27.40854770841444,88.34280491667599,8.216605138376798,0.07549834435270751,0.5214490981895424,0.07946511275785875
22575163,1902,1,192868,241209,0.49,-1.02,11.63,0.02,0.0,0.01,25.75,20.656673,9.86160547658994,-155.18761441293125,11.684921908168665,0.022360679774997897,0.19568381391237002,-0.19467334825004284
22615143,1840,1,192714,240191,1.15,-1.03,7.97,-0.15,-0.01,-0.04,25.75,20.696653,-39.00108901678759,-118.84392000162178,8.118146340144405,0.15556349186104046,-0.7114696577229359,-0.15376180840756792
22655195,1840,1,193273,242606,-0.21,-0.84,10.85,0.0,0.05,0.0,25.75,20.736705,-48.841986858631365,137.0273302703179,10.884493557350291,0.05,-0.8941694603800918,0.1342685368725438
22695167,1884,1,193336,241995,0.55,-0.45,8.0,-0.08,-0.03,0.02,25.75,20.776677,0.9040268254878409,364.7964848032532,8.03150048247524,0.08774964387392122,0.029383149263291126,0.39066478363553947
22735172,1922,1,193707,243693,0.11,-0.92,11.14,-0.01,0.03,0.01,25.75,20.816682,33.23443059133686,340.55341067414537,11.17846590548095,0.033166247903554,0.6296087061968345,0.36337472660632253
22775167,1906,1,193324,240447,0.66,-1.12,7.68,-0.11,0.02,-0.02,25.75,20.856677,21.142351282595367,61.92152643656483,7.789249001026993,0.11357816691600546,0.40511491112581155,0.049723084471052933
22815175,1917,1,192463,240407,0.81,-2.04,11.77,0.04,0.05,-0.02,25.75,20.896685,26.837173921186295,-241.7948846091172,11.97291109129271,0.0670820393249937,0.5108413386286024,-0.29216582507916405
22855222,1867,1,192177,238336,0.37,-1.36,8.5,-0.02,0.02,-0.07,25.75,20.936732,-17.19693847305864,-305.7695699166088,8.616060584745211,0.07549834435270751,-0.3066677722173516,-0.36418114793673206
22895175,1845,1,192714,242069,0.34,-1.75,12.75,0.04,-0.02,-0.0975,25.75,20.976685,-49.83799702468573,-60.93100925351892,12.874028118658122,0.10726718976462468,-0.9126607468162652,-0.08857013227660691
22935175,1904,1,193903,242247,-0.4,-1.35,9.27,-0.09,0.03,-0.0975,25.75,21.016685,25.15173799238738,310.8164809729937,9.376321240230626,0.1360376786041279,0.4795506153092807,0.32990032055136287
22975195,1954,1,193604,243180,0.15,-1.18,11.91,0.05,-0.12,-0.01,25.75,21.056705,50.907070765641386,541.9432973385528,11.96925227405622,0.13038404810405296,0.9577076179188387,0.5900762357841716
23013174,1904,1,193478,240101,-0.02,-1.61,10.51,-0.08,0.1,0.08,25.75,21.094684,31.869740534225887,498.016213876988,10.632619620770791,0.150996688705415,0.604272745176875,0.5406281911010119
23053175,1939,1,192493,240749,-0.34,-2.05,10.99,-0.01,-0.08,0.0825,25.75,21.134685,30.98854122559864,247.731132732741,11.184730662827782,0.11535271995059329,0.587912963541579,0.25888611080155904
23093196,1875,1,192843,239400,0.23,-1.92,9.19,-0.12,0.06,-0.01,25.75,21.174706,2.6817336721485363,-47.55354576060585,9.391240599622607,0.1345362404707371,0.062386915310549705,-0.0735113266282945
23133175,1903,1,192729,241014,-0.28,-1.94,11.33,0.02,-0.05,0.0,25.75,21.214685,-0.3879447293579254,-278.8106900230911,11.498299874329248,0.05385164807134505,0.005397233353736705,-0.3338339499774367
23173175,1888,1,192739,238904,0.36,-0.88,8.68,-0.11,-0.08,0.02,25.75,21.254685,7.274616290763,-424.88435424288656,8.731918460453006,0.1374772708486752,0.14765543059585096,-0.4982668352540864
23213175,1922,1,192478,240189,0.13,-1.62,10.58,-0.02,-0.01,0.0825,25.75,21.294685,28.149141535628072,-485.74961059989096,10.704097346343596,0.0854766049863938,0.5351984885658669,-0.5667819215931671
23253175,1942,1,192487,238225,0.57,-1.27,7.93,-0.07,-0.06,-0.02,25.75,21.334685,53.60196791721018,-433.5072264902528,8.05125456062594,0.09433981132056604,1.0077393513730195,-0.5079734703999872
23293195,1894,1,192069,240122,1.03,-0.71,10.68,-0.0,-0.04,-0.04,25.75,21.374705,4.390965258725052,-256.0440465117294,10.753018180957381,0.0565685424949238,0.09411941356239613,-0.3082058882687553
23333196,1841,1,192804,240782,-0.23,-1.3,8.37,-0.07,0.1,-0.01,25.75,21.414706,-46.709973393194474,-32.67697348334424,8.473476264202313,0.12247448713915891,-0.8545878647108963,-0.05676499719483839
23373195,1850,1,193205,242367,0.62,-0.94,11.22,-0.02,-0.03,-0.01,25.75,21.454705,-43.351744994497565,80.20057021547048,11.276364662425564,0.03741657386773942,-0.7922411484274735,0.07029952393204325
23413195,1885,1,193170,241490,0.07,-1.38,8.95,-0.03,-0.04,-0.01,25.75,21.494705,3.263270245731764,-18.143661840558252,9.05603666070318,0.05099019513592785,0.07318335064999716,-0.04040507099724409
23453195,1937,1,192841,241259,0.31,-0.69,10.34,0.0,-0.0,-0.01,25.75,21.534705,39.05904064121308,-245.19954865154182,10.367632323727534,0.01,0.7377446836015034,-0.295998403216255
23493174,1877,1,192464,237971,0.4,-1.53,9.8,-0.03,0.03,-0.01,25.75,21.574684,-2.1365899756142754,-368.6538206570366,9.926776919020595,0.04358898943540673,-0.027066993644940498,-0.4349689853127425
23533859,1854,1,191800,240234,0.36,-1.52,11.05,0.01,0.01,-0.08,25.81,21.615369,-42.432599343494324,-208.2076478038554,11.159861110246847,0.08124038404635961,-0.7751768793180593,-0.25435718732192186
23574166,1851,1,193484,242005,0.64,-0.45,9.71,-0.04,-0.0,-0.0975,25.81,21.655676,-32.23802131699496,175.00229493054925,9.741468061847764,0.10538619454178996,-0.585910877013391,0.1770163726354974
23614195,1887,1,193784,244398,0.46,-1.01,11.96,0.06,-0.16,-0.01,25.81,21.695705,-2.9690550508607854,500.88673488947956,12.011382101989762,0.1711724276862369,-0.04252200673529244,0.5438594926148906
23654175,1909,1,193837,242148,1.16,-0.47,9.43,-0.07,-0.07,-0.02,25.81,21.735685,19.52585361100921,507.86912498259636,9.512696778516595,0.10099504938362078,0.3751040513098733,0.5517194621396553
23694195,1911,1,192947,241657,0.21,-1.2,10.14,0.01,-0.03,-0.0,25.81,21.775705,26.17090108423708,190.12961518655837,10.212918290087314,0.03162277660168379,0.4984717441278999,0.1940449652259912
23734175,1904,1,192832,239097,0.68,-0.88,8.85,-0.05,0.06,-0.01,25.81,21.815685,11.867068290102864,-188.63761298474506,8.919602009058476,0.07874007874011811,0.23291595127966822,-0.23232749903102787
23774175,1834,1,192182,241015,1.2,-1.28,10.82,0.07,-0.05,-0.0975,25.81,21.855685,-50.493916372203266,-316.4530529857208,10.961332035843089,0.13002403623945843,-0.924838125067355,-0.3762073811064224
23814175,1799,1,193219,241344,0.93,-0.25,8.82,-0.05,0.0,-0.09,25.81,21.895685,-91.84953401150963,-85.74786320469454,8.872417934249942,0.10295630140987,-1.6926200188432639,-0.11650608445851997
23854172,1831,1,193549,243684,0.57,-1.31,10.6,0.03,-0.09,-0.01,25.81,21.935682,-55.498068415387344,340.78209916890467,10.695840312944092,0.09539392014169455,-1.0177420049215573,0.36363215774028973
23894175,1885,1,194167,243696,0.43,-1.0,9.83,-0.04,0.0,-0.01,25.81,21.975685,-4.633719940570834,686.8678161698907,9.890085945025959,0.04123105625617661,-0.07342710825429571,0.7532155457073468
23934172,1905,1,193867,243823,0.33,-1.47,9.85,0.03,-0.06,0.0,25.81,22.015682,18.105308260483476,780.9814555701231,9.964552172576548,0.0670820393249937,0.3487311167080071,0.8591578273165817
23974167,1899,1,193510,242343,0.73,-0.29,8.64,-0.04,-0.01,0.0,25.81,22.055677,8.20570980393962,644.8164270773811,8.675632541780455,0.04123105625617661,0.1649415160574245,0.7058789414309729
24014172,1877,1,193451,243632,-0.0,-1.95,9.2,-0.02,0.04,0.0,25.81,22.095682,-8.562594443095703,406.35505625228427,9.404387274033326,0.044721359549995794,-0.1463680743949968,0.4374466306429339
24054175,1870,1,193431,242132,0.72,0.36,8.38,-0.06,0.03,-0.0975,25.81,22.135685,-22.285736414024175,157.2584544099326,8.418574701218729,0.11834800378544626,-0.40114313356327863,0.15704240328053184
24094166,1849,1,193336,243487,0.21,-1.29,10.03,0.01,0.03,0.0,25.81,22.175676,-36.57112558010541,-99.71685605684691,10.11479609285328,0.03162277660168379,-0.6663565138329309,-0.1322307656415161
24134144,1873,1,193147,241357,0.83,-0.01,9.32,-0.04,-0.02,-0.0,25.81,22.215654,-18.032639794138483,-385.684891835107,9.356890509138172,0.044721359549995794,-0.3221828673738526,-0.4541406011417825
24174192,1904,1,192436,240071,0.18,-1.74,9.68,0.01,-0.04,0.06,25.81,22.255702,15.353252674643988,-660.5427939922599,9.836788093681799,0.07280109889280519,0.2976382163939242,-0.7635439294842706
24214167,1903,1,192373,239507,0.59,-0.66,9.47,-0.05,0.04,-0.01,25.81,22.295677,15.946801534424083,-822.0659133642786,9.5112880305456,0.06480740698407861,0.3086576641406641,-0.9453680296674606
24254172,1889,1,192623,241296,0.03,-1.55,10.32,0.01,0.08,0.01,25.81,22.335682,-3.715801478152806,-791.4222543339721,10.435794171983272,0.08124038404635961,-0.05638562234169397,-0.9108729323020294
24294144,1877,1,192590,241120,1.07,-0.09,9.67,-0.03,-0.05,0.0,25.81,22.375654,-6.865978288526428,-593.7405199974764,9.729434721503608,0.05830951894845301,-0.11486978616902395,-0.6883456333733762
24334172,1922,1,193422,243290,0.32,-1.95,11.07,-0.04,0.02,0.0,25.81,22.415682,28.75599327058731,-349.3309265537131,11.24498999554913,0.044721359549995794,0.5464649089678526,-0.41321749953825154
24374165,1966,1,193094,241922,0.73,-0.65,8.49,-0.09,-0.11,-0.03,25.81,22.455675,79.94335318096064,-180.29546295328484,8.54608097317127,0.1452583904633395,1.4967766289413484,-0.2229368685815878
24414195,1940,1,193470,243445,0.15,-1.07,11.55,0.02,0.1,0.02,25.81,22.495705,53.57897228250159,-116.51886245968917,11.600426716289363,0.10392304845413264,1.007312429156088,-0.1511445267634315
24452143,1902,1,193338,241750,0.72,0.01,9.28,-0.04,-0.01,-0.0,25.81,22.533653,6.634510851651646,-83.97073668050058,9.307894498757493,0.04123105625617661,0.13577164323367003,-0.11450560036417165
24492172,1926,1,193426,243103,0.11,-1.58,11.59,0.03,0.03,0.03,25.81,22.573682,52.27139942253305,16.017853296825596,11.697717726120766,0.05196152422706632,0.9830368694139349,-0.0019499769221771651
24532144,1938,1,193492,243250,0.67,-1.13,9.63,-0.05,-0.02,-0.01,25.81,22.613654,31.503846661584404,207.90023025708624,9.719192353277098,0.05477225575051661,0.597479794025526,0.21404907428147982
24572882,1842,1,194314,244381,0.04,-1.39,11.96,0.03,-0.03,0.03,25.81,22.654392,-21.502945929261724,412.4756817643484,12.04056892343547,0.05196152422706632,-0.3866103470852103,0.4443365249850941
24613166,1968,1,193798,243871,0.77,-0.76,8.43,-0.08,-0.13,-0.01,25.81,22.694676,57.298303291520725,514.7305197609305,8.499141133079272,0.15297058540778355,1.076363145085187,0.5594432290927863
24653195,1931,1,194526,244687,-0.28,-2.24,11.33,-0.04,0.06,0.01,25.81,22.734705,69.32913627273095,468.18361112773516,11.552700982887076,0.07280109889280519,1.2997198800898142,0.5070460873619659
24693214,1910,1,193501,242430,1.12,-0.52,7.63,-0.09,-0.13,-0.02,25.81,22.774724,2.4182829212634154,339.3620767178939,7.729275515855286,0.15937377450509227,0.057495857505647924,0.3620336602286098
24733195,1855,1,193930,243984,0.49,-1.51,11.28,-0.05,0.07,0.0,25.81,22.814705,-8.297146059038893,249.87437935211213,11.39116324174138,0.08602325267042628,-0.14143992981284007,0.26129873067636644
24773166,1876,1,193485,243539,0.92,0.08,8.03,-0.12,-0.09,-0.04,25.81,22.854676,-29.17184275990605,269.0704133155684,8.082926450240654,0.15524174696260024,-0.5289861709251108,0.28290741193550284
24813172,1842,1,194466,244726,0.39,-1.6,11.93,-0.02,0.05,0.01,25.81,22.894682,-19.2774995178515,356.36337350677934,12.043130822174106,0.05477225575051661,-0.3452941352188603,0.3811717594840279
24853166,1919,1,193644,243805,0.75,-0.27,7.81,-0.13,-0.1,-0.03,25.81,22.934676,11.86054624615927,403.01000277252314,7.8505732274783595,0.16673332000533067,0.23279486719155287,0.4336811552027191
24893195,1857,1,194480,244117,0.39,-1.04,11.22,-0.06,0.09,0.03,25.81,22.974705,0.523076498541761,327.7337122326856,11.274843679625896,0.11224972160321824,0.02231066963045838,0.34894378852884717
24933166,1911,1,193234,241737,1.6,0.09,8.74,-0.06,-0.16999999999999998,-0.01,25.81,23.014676,1.2146820279827104,134.6527844271817,8.885701998154113,0.18055470085267789,0.03515057466515848,0.13159554700613607
24973175,1841,1,193588,243130,0.88,-0.72,12.18,-0.04,0.1,-0.01,25.81,23.054685,-12.604290297103276,-112.19716096674375,12.23295548916941,0.10816653826391968,-0.2214036094442134,-0.14627965362161627
25013175,1873,1,192923,241360,0.84,0.28,8.43,-0.09,-0.08,-0.0975,25.81,23.094685,-36.486886655524096,-357.6071259945255,8.476373045117823,0.15493950432346168,-0.6647925879448258,-0.42253389041847267
25053175,1826,1,193511,242154,-0.01,-1.35,10.47,-0.01,0.1,0.02,25.81,23.134685,-29.001084692592656,-590.4699413602264,10.556680349428035,0.10246950765959599,-0.5258159860800226,-0.6846639931220712
25093174,1867,1,192423,240545,1.36,-0.74,8.01,-0.07,-0.13,-0.0,25.81,23.174684,-38.01503624114252,-815.4727495272507,8.1582657470813,0.147648230602334,-0.6931632338157712,-0.9379462061743984
25133195,1834,1,192899,240879,0.89,-1.05,10.37,-0.04,0.09,0.01,25.81,23.214705,-27.72657238405726,-1004.0703691042776,10.460951199580274,0.09899494936611665,-0.5021542073484687,-1.1502476563296817
25173166,1884,1,191961,239687,-0.1,-1.77,7.022499999999996,-0.1,-0.02,-0.0975,25.81,23.254676,-11.64824487403893,-1085.5699427323634,7.242817562937779,0.14108951059522462,-0.2036542828144384,-1.2419904774060275
25213208,1810,1,192830,240234,0.9,-0.99,10.68,-0.0,0.13,0.02,25.81,23.294718,-63.526389219623965,-989.6354467237879,10.763479920546143,0.13152946437965907,-1.1667906639133834,-1.133998485416868
25253166,1807,1,192408,241768,0.45,-1.11,9.11,0.0,-0.04,0.02,25.81,23.334676,-76.85338304423327,-696.5667740857796,9.188400296025419,0.044721359549995794,-1.414211090474083,-0.8040955718187367
25293165,1856,1,193718,242640,0.91,-1.42,11.04,0.04,-0.01,0.0,25.81,23.374675,-29.248958164553038,-249.77917385907014,11.168083989655521,0.04123105625617661,-0.5304178461073208,-0.3011536171309718
25333166,1869,1,193423,243900,0.11,-1.13,8.65,-0.01,-0.12,-0.01,25.81,23.414676,-7.6902572930719675,269.5962516587329,8.724190506860795,0.12083045973594571,-0.1301728219168975,0.2834993401000865
25373195,1889,1,194660,243976,0.9,-1.36,11.04,0.05,0.09,-0.0975,25.81,23.454705,-0.7531928726815913,768.8300313763008,11.159802865642384,0.14179650912487232,-0.0013837296009222952,0.8454791553185672
25413167,1872,1,193611,244445,1.13,-1.06,8.97,-0.02,-0.16999999999999998,-0.04,25.81,23.494677,-7.0347181706189,1148.1215619982681,9.10282373772007,0.17578395831246946,-0.11800250268068224,1.2724418188095192
25453195,1887,1,194950,245658,0.06,-2.13,11.5,-0.01,0.1,-0.0975,25.81,23.534705,1.3261592566340776,1308.7439226935758,11.695747090288846,0.14002231964940448,0.037220189450587,1.453251948754195
25493174,1914,1,194782,244434,0.03,-0.23,8.34,-0.07,-0.01,-0.07,25.81,23.574684,25.594682652961012,1200.17750049409,8.343224796204403,0.099498743710662,0.48777404201032265,1.33104039103245
25533195,1904,1,194612,242403,-0.31,-1.72,11.03,0.01,0.04,0.02,25.81,23.614705,26.159375394190242,881.6535292380228,11.167604935705775,0.045825756949558406,0.49825776555288703,0.97248283787487
25573853,1933,1,193019,242164,0.45,-0.88,10.17,-0.0,-0.1,0.06,25.93,23.655363,33.934976054045414,516.9682736527458,10.217915638720061,0.11661903789690602,0.642614584303302,0.5619622343558882
25612172,1891,1,193738,241841,0.35,-1.53,11.69,-0.05,0.02,-0.01,25.93,23.693682,19.980248229417132,268.08268398723334,11.794892962634293,0.05477225575051661,0.38354005059020385,0.28179554016725505
25652175,1902,1,192643,242523,0.39,-1.22,9.26,-0.04,-0.12,-0.01,25.93,23.733685,-5.397848481645015,172.2689291778141,9.348160246807925,0.1268857754044952,-0.08761342904561052,0.17393946469566282
25692195,1897,1,194106,243129,0.04,-1.86,11.97,-0.03,0.07,0.02,25.93,23.773705,29.345028244022195,129.57446674035458,12.113715367301644,0.07874007874011811,0.5574005547934934,0.12587896260978693
25732166,1958,1,193171,242300,0.29,-1.08,8.96,-0.01,-0.16999999999999998,0.01,25.93,23.813676,47.10603773993278,20.546793049549617,9.02951272217942,0.1705872210923198,0.8871400747077425,0.003148181152805984
25772175,1897,1,192802,241086,0.49,-1.41,10.08,-0.07,-0.02,0.05,25.93,23.853685,26.675686964791716,-167.2280229544262,10.189926398164022,0.08831760866327848,0.5078432752873141,-0.20822705162951435
25812175,1931,1,192285,240907,0.34,-1.13,9.07,-0.07,0.02,-0.02,25.93,23.893685,24.0050235241401,-334.95664701987766,9.146441931155525,0.07549834435270751,0.45826144937951524,-0.397036593348583
25852175,1879,1,192609,240007,0.34,-0.85,9.78,-0.05,0.04,-0.01,25.93,23.933685,-0.9407074149150634,-385.6872104635412,9.822754196252697,0.06480740698407861,-0.004865004420759627,-0.4541432111862786
25892175,1868,1,192455,241924,0.29,-1.05,9.49,-0.03,-0.04,-0.02,25.93,23.973685,-29.309684179613416,-324.2566844305084,9.55231385581525,0.05385164807134504,-0.5315452463858311,-0.3849918094354828
25932195,1870,1,193223,241849,0.05,-1.41,9.32,-0.05,0.01,-0.01,25.93,24.013705,-21.650198478644842,-239.9070265415583,9.426186927915232,0.05196152422706632,-0.38934414354823893,-0.29004069218337797
25972175,1898,1,192705,241346,0.71,-0.67,9.69,-0.03,-0.06,-0.02,25.93,24.053685,9.132389557474529,-206.33182552589042,9.739050261704167,0.06999999999999999,0.18214565848610856,-0.25224560293003667
26012195,1936,1,192451,239818,0.44,-1.73,8.28,-0.04,0.0,-0.0,25.93,24.093705,38.27241964667916,-223.21345146795935,8.470236124217553,0.04,0.7231407823338527,-0.2712489905471137
26052175,1903,1,192035,239827,0.74,-0.32,9.96,-0.02,0.01,-0.01,25.93,24.133685,15.063330439923009,-262.81885162468484,9.992577245135513,0.024494897427831782,0.2922557059847397,-0.3158321825625305
26092175,1858,1,192390,240576,0.47,-1.52,9.85,-0.04,0.03,-0.05,25.93,24.173685,-36.78013096333928,-348.2848692506421,9.977665057517214,0.07071067811865477,-0.6702367738340811,-0.4120399688627024
26132240,1857,1,192635,239999,0.75,-1.11,9.65,-0.0,-0.04,-0.02,25.93,24.21375,-37.24250256748654,-543.7766662593315,9.742540736378782,0.044721359549995794,-0.6788208687194873,-0.632102088901584
26172195,1897,1,192061,237885,0.12,-1.6,9.9,-0.01,-0.02,0.0,25.93,24.253705,10.446483703875229,-845.5762366735219,10.029177433867645,0.022360679774997897,0.2065422882529053,-0.971833240327945
26212175,1926,1,191428,237269,-0.13,-1.39,9.71,-0.0,-0.02,0.07,25.93,24.293685,24.4848954182045,-1101.4318968846258,9.809847093609564,0.07280109889280519,0.467170443432222,-1.2598460361154868
26252195,1880,1,191398,237514,0.99,-0.8,10.34,-0.03,0.0,-0.01,25.93,24.333705,-0.5177403616527686,-1080.913192720393,10.418046841898917,0.03162277660168379,0.0029875308258639362,-1.236748445280865
26292174,1885,1,191658,239896,0.7,-1.24,9.62,-0.04,-0.01,-0.09,25.93,24.373684,-17.930082281051625,-663.7863543777739,9.724813622892729,0.09899494936611665,-0.32027885031127257,-0.767195155703643
26332226,1863,1,192730,240920,0.34,-1.01,10.15,-0.03,0.04,0.02,25.93,24.413736,-18.354036588712255,25.118749844730562,10.205792472904786,0.05385164807134504,-0.32814971429036005,0.008294762853259478
26372167,1919,1,193316,243618,-0.11,-0.12,10.98,0.01,-0.0,-0.01,25.93,24.453677,21.562533864573233,675.1855021110799,10.9812066732213,0.01414213562373095,0.412915751663035,0.7400649437993412
26412195,1942,1,194109,243215,0.35,-0.93,11.57,-0.02,0.02,-0.0,25.93,24.493705,55.583987584217596,1008.5446570868222,11.612592303185366,0.0282842712474619,1.0445362583061586,1.1153222359253692
26452174,1936,1,193221,241825,0.37,-1.41,10.91,0.03,-0.05,-0.05,25.93,24.533684,45.10608554716972,972.2430436660112,11.0069568909849,0.07681145747868609,0.8500102439937293,1.0744580660090197
26492175,1920,1,193185,240819,0.54,-2.05,11.78,-0.01,0.08,0.01,25.93,24.573685,31.274459496956858,739.3979370515871,11.969231387186062,0.08124038404635961,0.5932211389329652,0.812347897775352
26532167,1897,1,192636,241478,0.11,-1.47,11.61,0.03,-0.14,0.0,25.93,24.613677,7.333876808135497,530.7231192958301,11.703208961648082,0.14317821063276354,0.14875562338347242,0.5774458533073789
26572166,1874,1,193128,242138,-0.05,-1.48,10.1,-0.07,-0.07,-0.0,25.93,24.653676,-10.616724777003515,430.1354070118767,10.207982170830824,0.09899494936611666,-0.18450374175669773,0.4642158070661857
26612898,1903,1,193034,242862,0.0,-1.87,9.44,-0.04,-0.12,-0.01,25.85,24.694408,8.738912656762844,359.7832936342238,9.623434937692465,0.1268857754044952,0.1748406185125704,0.38502151116223066
26651195,1891,1,192973,240910,0.54,-0.8,9.17,-0.09,-0.02,-0.0,25.85,24.732705,13.979729284054294,214.56945366364164,9.220656158864184,0.09219544457292887,0.27213826136556174,0.22155651686636882
26691195,1890,1,192441,240549,1.26,-1.05,10.62,0.04,-0.04,0.0825,25.85,24.772705,-9.443724804338625,2.733642366909275,10.745906197245533,0.1000312451187128,-0.16272657599734133,-0.01690380958939199
