timestamp_us,ecg,leads,ir,red,accX,accY,accZ,gyroX,gyroY,gyroZ,temp,time_sec,ecg_filtered,ppg_filtered,accel_magnitude,gyro_magnitude,ecg_norm,ppg_norm
1949972,1796.0,1,200345,244579,1.07,-1.13,9.74,-0.07,-0.02,-0.0,26.79,0.030472,9.527353477131474,-171.47443037131924,9.863538918664032,0.07280109889280519,0.0748542570289409,-0.18763659494758886
1990211,1553.0,1,200419,244658,1.09,-0.71,10.05,-0.06,-0.01,-0.0,26.79,0.070711,-220.1553218904966,9.589565887618948,10.13383935140083,0.0608276253029822,-1.4149814391401414,0.012597737240711192
2030203,1364.0,1,200373,244450,0.83,-1.25,10.5,-0.03,-0.02,0.0,26.79,0.110703,-382.0349347201924,90.94467384675032,10.606667714225802,0.03605551275463989,-2.4650128587484783,0.10256640052486515
2070190,1359.75,1,200330,243541,0.83,-0.99,10.0,-0.05,0.01,-0.0,26.79,0.15069,-384.9668973913324,11.738101104681121,10.083104680603093,0.050990195135927854,-2.4840310221354556,0.014973750822982114
2110185,1359.75,1,199974,243122,0.99,-1.59,9.83,-0.04,-0.01,-0.0,26.79,0.190685,-356.3097279536575,-222.15239662449196,10.006852652057988,0.04123105625617661,-2.29814641455207,-0.24368014274851904
2150206,1359.75,1,199482,242295,1.26,-1.18,9.29,-0.07,-0.0,-0.0,26.79,0.230706,-355.1212775993657,-538.3900035458031,9.44902640487368,0.07,-2.290437536387382,-0.5933997299830739
2190203,1359.75,1,199096,241814,1.27,-1.6,8.74,-0.06,-0.03,-0.0,26.79,0.270703,-337.68792175380145,-828.5805091847786,8.975550122415896,0.0670820393249937,-2.1773561478970755,-0.9143144524268905
2230203,1359.75,1,198943,241553,1.29,-0.99,9.31,-0.04,-0.03,-0.01,26.79,0.310703,-331.31898979819044,-994.5747107314739,9.450941752016039,0.05099019513592785,-2.1360440978752195,-1.0978834599633176
2270203,1359.75,1,198801,241902,0.8,-1.15,9.46,-0.02,-0.02,0.0,26.79,0.350703,-326.61911870650243,-986.6783509852879,9.563163702457468,0.0282842712474619,-2.105558404043142,-1.0891510650467986
2310197,1359.75,1,198934,242249,0.85,-1.2,9.92,-0.01,-0.02,0.0,26.79,0.390697,-320.2996530570363,-817.9775718035849,10.028404658768014,0.022360679774997897,-2.06456721700555,-0.9025889181979789
2350183,1359.75,1,199042,242535,1.03,-1.45,9.75,-0.01,-0.01,0.0,26.79,0.430683,-322.2318594279262,-555.2464726129442,9.910898042054514,0.01414213562373095,-2.077100465406238,-0.6120408949658949
2390183,1359.75,1,199223,242798,0.98,-1.38,9.42,-0.06,0.0,-0.0,26.79,0.470683,-323.06233037434885,-295.1033335886343,9.570851581755932,0.06,-2.082487311665458,-0.3243548348316213
2430180,1359.75,1,199252,243256,1.12,-1.18,9.08,-0.03,-0.01,0.0,26.79,0.51068,-327.5797184373635,-131.99544029099428,9.22459755219706,0.03162277660168379,-2.1117893301087522,-0.14397772638435755
2470183,1359.75,1,199293,243690,1.16,-1.1,9.37,-0.03,-0.0,-0.0,26.79,0.550683,-336.6819410941638,-123.10207908510154,9.505393205964705,0.03,-2.170830858630112,-0.13414277145811906
2510216,1359.75,1,199106,243291,0.95,-0.84,9.4,-0.02,0.01,-0.0,26.79,0.590716,-346.14872188253895,-261.71039521399206,9.485151553876195,0.022360679774997897,-2.232237091920256,-0.28742638492770245
2548182,1359.75,1,198714,241750,0.52,-0.79,10.39,0.03,-0.01,0.01,26.79,0.628682,-357.9508282649529,-476.8050485131687,10.432957394717953,0.033166247903554,-2.308791404736239,-0.5252944048019653
2588172,1359.75,1,198266,241497,0.95,-1.36,10.61,-0.01,0.0,0.01,26.79,0.668672,-378.7464461141905,-666.3928526514569,10.738910559269966,0.01414213562373095,-2.443682091402508,-0.7349550117532623
2628172,1359.75,1,198303,241458,0.81,-1.02,9.62,-0.06,0.03,0.0,26.79,0.708672,-385.73024805873104,-746.0212305384999,9.707775234316047,0.0670820393249937,-2.488982492990472,-0.8230141256515758
2668172,1531.0,1,198363,241503,0.51,-1.51,10.58,-0.01,-0.0,0.01,26.79,0.748672,-250.7899828397621,-678.8560155042054,10.699373813452823,0.01414213562373095,-1.6136930369966225,-0.7487377247295365
2708235,1869.0,1,198444,242082,1.09,-0.5,10.21,-0.04,0.01,-0.04,26.79,0.788735,87.46124917639803,-471.6249492332111,10.280184823241264,0.05744562646538029,0.5803721397706099,-0.5195658572087262
2748182,2179.0,1,198548,242453,0.7,-0.99,9.99,-0.05,-0.0,-0.04,26.79,0.828682,350.1861892175819,-153.84808269963972,10.063309594760563,0.06403124237432849,2.2845363451062495,-0.16814403967497585
2788205,2181.75,1,198917,242738,0.55,-0.43,10.72,-0.02,-0.01,-0.02,26.79,0.868705,353.299318246815,232.9045132945012,10.742709155515662,0.03,2.304729643303896,0.25955638327509667
2828204,2181.75,1,199264,243111,0.5,-0.58,10.9,0.01,-0.03,0.01,26.79,0.908704,308.05087151372186,631.6601637874921,10.926865973370406,0.033166247903554,2.01122578616157,0.7005306964046387
2868172,2181.75,1,199488,243294,0.68,-1.29,9.97,-0.05,-0.02,0.0,26.79,0.948672,298.0233651856697,972.1920192983221,10.07608058721247,0.05385164807134505,1.9461824090449389,1.0771167106641562
2908222,2181.75,1,199584,243332,0.54,-1.2,10.24,-0.03,-0.01,0.0,26.79,0.988722,264.8966917593268,1195.4141913680676,10.324204569844595,0.03162277660168379,1.7313063828626987,1.3239727586776266
2948184,2181.75,1,199738,243467,0.72,-1.49,9.5,-0.04,-0.04,0.0,26.79,1.028684,242.7810839227214,1291.6000023090355,9.643054495334972,0.0565685424949238,1.5878535867616683,1.4303423408015716
2988869,2181.75,1,199786,243539,0.87,-1.35,8.75,-0.08,-0.0,-0.0,26.59,1.069369,220.5956810109112,1319.8674307095357,8.896173334642262,0.08,1.4439480652023926,1.4616026121166943
3029206,2181.75,1,199597,243896,0.18,-1.54,9.68,-0.02,-0.01,0.0,26.59,1.109706,194.45307429912432,1376.728456272838,9.803387169749035,0.022360679774997897,1.274374158037695,1.5244838569607952
3069183,2181.75,1,199325,243924,0.69,-0.87,10.6,-0.01,-0.07,-0.0,26.59,1.149683,176.51967765604593,1517.8760151085808,10.658001688872075,0.07071067811865477,1.1580492570426475,1.6805755580578243
3109216,2181.75,1,199785,245001,0.37,-1.72,10.13,-0.04,-0.02,0.0,26.59,1.189716,154.58145271480703,1689.4415701966902,10.28164383744156,0.044721359549995794,1.0157470543374139,1.8703057918943413
3148183,2181.75,1,199860,244683,0.66,-1.1,9.18,-0.05,-0.02,-0.0,26.59,1.228683,137.6628050106827,1738.2640202366738,9.269196297414355,0.05385164807134505,0.9060043180157954,1.924297368803824
3188206,2181.75,1,199622,244310,0.2,-1.28,11.11,0.04,-0.06,0.01,26.59,1.268706,122.57049027381706,1512.0417013709985,11.185280506093711,0.07280109889280519,0.8081080827128423,1.6741235303816475
3228172,2181.75,1,198667,243395,0.84,-0.66,8.77,-0.1,0.03,0.0,26.59,1.308672,108.26839358179154,976.373661255835,8.834823144806013,0.1044030650891055,0.7153375933943235,1.0817410882439802
3268172,2181.75,1,197970,243255,0.19,-0.96,10.71,0.03,-0.04,0.01,26.59,1.348672,98.93758934165845,254.73535010431775,10.754617612914,0.05099019513592785,0.6548133714055918,0.28369858227679134
3308172,2181.75,1,197191,242640,0.82,-0.98,9.52,-0.05,0.0,0.01,26.59,1.388672,90.04114592012117,-436.7193034560321,9.605373496121846,0.050990195135927854,0.5971066290179031,-0.4809645404577171
3348172,2181.75,1,196751,242482,0.6,-1.03,9.98,-0.02,-0.02,0.04,26.59,1.428672,85.25985706453957,-903.9630276327076,10.050935279863262,0.048989794855663564,0.5660928192068699,-0.9976781721721855
3388182,2181.75,1,196578,242291,0.62,-0.92,9.34,-0.06,0.0,0.04,26.59,1.468682,83.09739821417496,-1059.6877610468835,9.405657871728058,0.07211102550927978,0.5520660390780974,-1.1698904211263963
3428172,2181.75,1,196603,242359,0.6,-0.79,10.2,-0.03,-0.01,0.02,26.59,1.508672,82.80696815596039,-938.7923048876387,10.248126658077563,0.03741657386773942,0.550182165741652,-1.0361950348054878
3468182,2181.75,1,196659,242304,0.79,-0.77,9.57,-0.07,0.01,0.0,26.59,1.548682,87.02389179952556,-659.4009078988481,9.633374279036396,0.07071067811865477,0.5775352230070596,-0.7272227876934667
3508172,2181.75,1,196993,242535,0.51,-0.75,10.01,-0.04,-0.01,0.0,26.59,1.588672,91.90548345752525,-365.21430639026187,10.05100492488189,0.04123105625617661,0.6091996465190569,-0.4018888786396981
3548182,2181.75,1,197196,242597,0.54,-0.88,10.18,-0.04,0.0,0.0,26.59,1.628682,101.19601244967428,-174.5347188775616,10.23222360975365,0.04,0.6694626232831643,-0.19102089463174388
3588172,2181.75,1,197089,242598,0.39,-0.65,10.15,-0.04,-0.01,0.0,26.59,1.668672,111.73686725244049,-147.01922572068545,10.178266060582226,0.04123105625617661,0.7378358330960529,-0.16059217047379656
3628182,2181.75,1,196938,242427,0.71,-0.65,10.6,-0.01,-0.02,0.0,26.59,1.708682,125.2393472449643,-275.25400432279406,10.643617805990592,0.022360679774997897,0.8254196120966788,-0.302403937513265
3668182,2181.75,1,196680,242114,0.37,-0.77,10.01,-0.04,-0.01,0.01,26.59,1.748682,139.8651481067479,-504.91096871691974,10.046387410407782,0.042426406871192854,0.9202898071345448,-0.5563760680746985
3708182,2118.0,1,196303,241664,0.44,-0.94,10.21,-0.02,-0.01,0.01,26.59,1.788682,95.68718147808272,-775.000340044718,10.262616625403096,0.024494897427831782,0.6337296146332848,-0.8550614280379151
3748184,2015.0,1,195943,241365,0.72,-1.32,9.77,-0.04,-0.07,0.01,26.59,1.828684,6.10429033030755,-1055.1383067375584,9.885024026273278,0.08124038404635961,0.05265057249672073,-1.164859288685543
3788182,1931.0,1,195659,241028,0.71,-1.3,9.54,-0.08,-0.02,-0.0,26.59,1.868682,-47.69961951111776,-1354.0259963568885,9.654309918373244,0.08246211251235322,-0.29634825968301004,-1.4953920183655116
3828203,1887.0,1,195400,240189,0.06,-0.77,9.13,-0.08,0.01,0.0,26.59,1.908703,-85.52851898511207,-1690.4018058048116,9.162608798808341,0.0806225774829855,-0.5417252551091609,-1.867381960931351
3868172,1823.0,1,194869,239083,0.0,-0.31,9.74,-0.02,-0.01,0.0,26.59,1.948672,-106.96133335161818,-2046.6317913975302,9.74493201618154,0.022360679774997897,-0.6807491142725796,-2.2613281608627718
3908181,1826.0,1,194505,238535,-0.11,-0.35,9.98,-0.04,-0.01,0.04,26.59,1.988681,-105.38577189137942,-2342.3397009910123,9.986741210224686,0.05744562646538029,-0.670529241566835,-2.588344448052038
3948202,1776.0,1,194430,238492,-0.25,-0.47,9.83,-0.04,0.01,0.04,26.59,2.028702,-105.59850270119162,-2452.76275354996,9.8444045020509,0.05744562646538029,-0.6719091190592315,-2.7104586543225904
3988869,1821.0,1,194600,238644,-0.33,-0.58,10.2,-0.04,-0.0,0.04,26.49,2.069369,-64.76709053577565,-2263.58736553901,10.221805124340808,0.0565685424949238,-0.4070563378398298,-2.501254128478236
4027204,1814.0,1,195027,239536,0.07,-1.1,9.65,-0.03,-0.09,0.04,26.49,2.107704,-21.118962765783362,-1728.9509582702985,9.71274420542413,0.10295630140987,-0.12393294284018777,-1.9100125443705513
4067184,1850.0,1,195793,240705,0.19,-0.97,9.51,-0.07,-0.02,0.04,26.49,2.147684,9.882091282086135,-898.4225799030598,9.561229000499884,0.08306623862918075,0.07715526229090158,-0.9915511238683158
4107181,1815.0,1,196948,241976,0.33,-0.93,10.05,-0.03,-0.05,0.04,26.49,2.187681,25.35386581816947,101.68791376896256,10.098331545359363,0.07071067811865475,0.17751286196637786,0.11444709196993018
4148182,1664.0,1,197847,242843,0.48,-0.72,10.06,-0.04,-0.02,0.04,26.49,2.228682,-133.3475174745537,1119.2946399514155,10.097148112214658,0.06,-0.8519029852779494,1.2397939718436655
4188182,1392.0,1,198656,243605,0.44,-0.93,10.24,-0.03,0.02,0.04,26.49,2.268682,-356.28182987126445,2026.0368877797978,10.29155479021513,0.053851648071345036,-2.2979654537593706,2.242538483243852
4228172,1359.75,1,199344,243727,0.28,-0.25,9.54,-0.04,-0.0,0.04,26.49,2.308672,-395.5010529196927,2735.918797222348,9.547381840064846,0.0565685424949238,-2.5523607771334245,3.027579866438041
4268183,1359.75,1,199842,243811,0.31,-0.53,10.36,0.01,-0.01,0.04,26.49,2.348683,-356.3874320718162,3191.890285696809,10.378179031024661,0.042426406871192854,-2.2986504419837726,3.531827802957788
4308172,1359.75,1,199867,243806,0.69,-0.58,10.16,-0.04,-0.01,0.0,26.49,2.388672,-353.0906807858204,3346.4761479607646,10.199906862319871,0.04123105625617661,-2.2772660787991903,3.702780601613074
4348197,1359.75,1,199632,243899,0.44,-1.29,9.98,-0.03,-0.01,0.01,26.49,2.428697,-333.30983698057895,3165.1124233262517,10.072641163071381,0.033166247903554,-2.1489577196500993,3.502214807000653
4388183,1359.75,1,199269,244097,0.29,-0.97,9.71,-0.06,-0.01,-0.0,26.49,2.468683,-314.75948210098204,2657.8129795159316,9.762637963173685,0.0608276253029822,-2.028630921679846,2.9412045153378723
4428203,1359.75,1,198478,243802,0.22,-1.24,9.72,-0.02,-0.02,-0.04,26.49,2.508703,-314.29132427320457,1913.9408957016608,9.801244818899281,0.048989794855663564,-2.025594217922597,2.1185742132702035
4468203,1402.0,1,197434,243576,0.09,-0.69,9.26,-0.06,0.0,-0.04,26.49,2.548703,-244.1584598564341,1100.6909328419513,9.286107903745249,0.07211102550927978,-1.5706776913911513,1.2192205782024301
4508182,1573.0,1,196765,243220,0.16,-0.35,9.4,0.02,-0.02,-0.04,26.49,2.588682,-81.38075814864597,406.4983028751614,9.407874361405982,0.048989794855663564,-0.5148208220976221,0.45152959300703355
4548206,1709.0,1,196307,242645,0.13,-0.36,9.81,0.0,-0.02,0.0,26.49,2.628706,78.55276047519737,-43.997306517790356,9.817464031001082,0.02,0.5225872657276532,-0.04666270012869264
4588172,1830.0,1,196051,242329,0.08,-0.65,9.77,0.01,-0.02,0.01,26.49,2.668672,196.47125994118966,-246.37875883229387,9.791925244812687,0.024494897427831782,1.2874651106149073,-0.27047149585161623
4628172,1903.0,1,196037,242503,-0.29,-1.26,9.91,-0.02,0.02,0.01,26.49,2.708672,278.4695276160258,-302.68846848928166,9.993988192908775,0.030000000000000002,1.8193465248768397,-0.3327430536535303
4668183,1930.0,1,195846,242321,0.14,-0.87,9.83,-0.02,-0.01,0.01,26.49,2.748683,314.55780794400823,-345.349718584402,9.86941740935097,0.024494897427831782,2.053433001621017,-0.3799211072677799
4708182,1913.0,1,195786,242441,-0.02,-1.47,10.62,-0.01,-0.02,0.01,26.49,2.788682,290.671150799545,-449.9433857239575,10.721273245282017,0.024494897427831782,1.8984923017227202,-0.49558873597107805
4748220,1821.0,1,195609,242176,0.42,-0.52,10.03,-0.06,-0.01,0.0,26.49,2.82872,216.56357759176828,-594.9252706341258,10.052248504687892,0.0608276253029822,1.4177938435360458,-0.6559207263402316
4788182,1771.0,1,195462,241927,0.31,-0.99,10.25,-0.01,-0.01,0.0,26.49,2.868682,151.2580390232207,-694.6158166786577,10.302363806428115,0.01414213562373095,0.9941897455724524,-0.7661661109840515
4826181,1712.0,1,195185,240478,0.3,-0.3,10.45,-0.03,0.01,-0.0,26.49,2.906681,111.17163469885294,-680.8771568066351,10.458608894112064,0.03162277660168379,0.7341694545430181,-0.7509728564360709
4866184,1697.0,1,195398,240876,0.3,-0.94,10.86,0.03,-0.02,0.0,26.49,2.946684,79.73491899767515,-570.1699058208176,10.904732917407927,0.03605551275463989,0.53025533195206,-0.6285443619393171
4906172,1665.0,1,195700,241310,0.15,-0.99,10.31,-0.07,0.01,-0.0,26.49,2.986672,63.91106862427643,-458.9035750049284,10.358508579906665,0.07071067811865477,0.4276139938563851,-0.5054975944632446
4946184,1681.0,1,195706,240680,0.26,-1.18,10.51,-0.02,-0.04,0.0,26.49,3.026684,63.400181879124204,-448.33745719948536,10.579229650593657,0.044721359549995794,0.4243001291584527,-0.49381277812035246
4986181,1674.0,1,195278,240409,0.15,-0.88,9.39,-0.09,-0.0,-0.01,26.49,3.066681,72.02889314093646,-565.7761145226586,9.432337992247733,0.09055385138137416,0.4802702280316389,-0.6236853734902638
5026895,1734.0,1,195009,239499,0.07,-0.69,9.63,-0.03,-0.02,-0.0,26.950000000000003,3.107395,112.76355821433107,-753.6347194400357,9.654941739855296,0.03605551275463989,0.7444954596504305,-0.8314337004832387
5067202,1769.0,1,194792,239237,0.06,-0.11,9.69,-0.01,-0.02,-0.0,26.950000000000003,3.147702,164.5707174167922,-930.2272295921301,9.690810079657943,0.022360679774997897,1.0805423773093306,-1.0267231233964076
5107202,1786.0,1,194878,239027,0.05,-0.37,9.8,-0.0,-0.03,-0.0,26.950000000000003,3.187702,161.85730254058026,-1056.2946588627408,9.807109665951534,0.03,1.0629418232639447,-1.1661380707755467
5147203,1821.0,1,194886,238071,-0.14,-0.62,9.75,-0.01,-0.02,0.0,26.950000000000003,3.227703,207.44917695822855,-1144.2726210129642,9.770695983398522,0.022360679774997897,1.3586733226203989,-1.2634307897170016
5186205,1934.0,1,194452,236410,0.18,-1.32,9.49,-0.08,-0.04,0.04,26.950000000000003,3.266705,312.7007446345357,-1213.9524175310085,9.583052749515678,0.09797958971132713,2.0413871683683795,-1.3404880060111464
5226181,1991.0,1,194419,235660,0.01,-0.59,8.96,-0.05,-0.01,0.04,26.950000000000003,3.306681,359.66620846235554,-1250.05533146441,8.97940978015816,0.06480740698407861,2.3460284495874753,-1.3804133529098648
5266184,2038.0,1,194501,235813,0.57,-0.56,9.51,-0.02,-0.04,0.04,26.950000000000003,3.346684,422.0267138691479,-1203.322982285757,9.543510884365356,0.06,2.750529602482348,-1.3287331684296986
5306182,1957.0,1,194787,236231,0.3,-0.23,9.95,-0.0,0.0,-0.0,26.950000000000003,3.386682,307.667285720416,-1026.8910461808562,9.957178315165395,0.0,2.0087376585459555,-1.133621320505323
5346185,1535.0,1,194986,237087,0.23,-0.66,10.15,-0.0,0.01,-0.03,26.950000000000003,3.426685,-85.16493455218735,-713.1036350802888,10.174035580830255,0.03162277660168379,-0.5393668662325265,-0.7866113460818956
5386181,1359.75,1,195336,237770,0.26,-0.85,10.41,-0.01,-0.0,-0.04,26.950000000000003,3.466681,-297.64425684904654,-306.84066327259177,10.44788016776609,0.04123105625617661,-1.9176130859310474,-0.3373348663094426
5426205,1359.75,1,195726,238624,0.32,-1.29,9.79,-0.08,0.01,-0.02,26.950000000000003,3.506705,-279.53023864438535,108.52449085706846,9.879807690436083,0.08306623862918075,-1.8001165839455762,0.12200749865471935
5466181,1359.75,1,196088,239025,0.64,-0.68,9.57,-0.03,-0.03,-0.04,26.950000000000003,3.546681,-298.24825945580443,446.06572111925107,9.615451107462405,0.05830951894845301,-1.9215309462689538,0.49528625215637756
5506206,1359.75,1,196395,239421,0.18,-0.69,9.66,-0.04,0.0,-0.01,26.950000000000003,3.586706,-306.19279539689364,656.8162154651997,9.686284117245375,0.04123105625617661,-1.9730631448363394,0.7283501708018381
5546181,1359.75,1,196469,239516,0.11,-0.33,10.29,-0.01,0.0,-0.04,26.950000000000003,3.626681,-301.83492422292005,753.6445911449712,10.295877815902827,0.04123105625617661,-1.9447958320148553,0.8354303498639953
5586184,1405.0,1,196268,239806,0.16,-0.57,10.22,-0.01,-0.01,-0.03,26.950000000000003,3.666684,-286.2972683917058,796.2626049851551,10.237133387819073,0.033166247903554,-1.8440108935989243,0.8825605895405633
5626203,1491.0,1,196376,240316,0.08,-1.01,9.85,-0.07,0.01,-0.01,26.950000000000003,3.706703,-184.15867901971095,843.4398259498714,9.901969501063917,0.07141428428542851,-1.1814893683720327,0.9347327470624843
5666184,1574.0,1,196539,240539,0.37,-0.6,9.74,-0.03,-0.03,-0.0,26.950000000000003,3.746684,-137.59090761216208,910.0537769409418,9.765474898846445,0.042426406871192854,-0.8794277173443183,1.0083995182964849
5706203,1518.0,1,196704,240962,0.14,-0.72,10.13,-0.02,-0.02,0.0,26.950000000000003,3.786703,-182.2508785697911,965.28294580507,10.156520073332205,0.0282842712474619,-1.1691144288738373,1.0694761319431232
5746184,1595.0,1,196529,240765,0.28,-0.77,10.11,-0.05,-0.01,-0.0,26.950000000000003,3.826684,-133.27120580615738,968.8485619151861,10.143145468738975,0.050990195135927854,-0.8514079899657034,1.073419261308433
5786271,1673.0,1,196434,240523,0.03,-0.77,10.35,-0.02,-0.01,0.0,26.950000000000003,3.866771,-59.42250883466722,906.4468830063104,10.378646347188056,0.022360679774997897,-0.37238873138384165,1.00441074077474
5826182,1716.0,1,196317,240073,0.27,-1.04,10.04,-0.05,-0.03,0.0,26.950000000000003,3.906682,-31.99177302172765,792.6684232979811,10.09733133060414,0.05830951894845301,-0.19445938028720722,0.8785858701884868
5866182,1827.0,1,196153,239842,0.33,-0.87,9.77,-0.05,-0.03,-0.0,26.950000000000003,3.946682,63.03323057505631,648.0545242076806,9.814209086829155,0.05830951894845301,0.42191990108647864,0.7186608265145262
5906206,1919.0,1,196056,239647,0.3,-0.54,9.92,-0.03,-0.02,0.0,26.950000000000003,3.986706,143.06333040170233,481.6345488355663,9.93921526077386,0.03605551275463989,0.9410348029782784,0.5346209659131193
5946182,1902.0,1,195890,239522,0.28,-0.88,10.21,-0.04,-0.02,-0.0,26.950000000000003,4.026682,109.46635991735151,297.66242651933584,10.251677911444547,0.044721359549995794,0.7231081969310047,0.3311706068446405
5986203,1847.0,1,195618,238952,0.33,-0.79,9.8,-0.06,-0.01,-0.0,26.950000000000003,4.066703,37.782329441575975,114.23008358759296,9.837326872682437,0.0608276253029822,0.25813003836008197,0.12831717685546543
6026893,1840.0,1,195419,239008,0.11,-1.04,9.72,-0.05,-0.02,0.0,26.83,4.107393,17.55614574034975,-32.727518224740365,9.776098403760061,0.05385164807134505,0.12693298387119462,-0.03419971146508641
6065183,1885.0,1,195305,238743,0.24,-0.74,9.72,-0.05,-0.02,-0.02,26.83,4.145683,43.69728902820845,-109.72414213680446,9.751081991245895,0.057445626465380296,0.2964973985428109,-0.11934843174262626
6105202,1902.0,1,195346,238853,0.12,-0.66,10.06,-0.01,-0.03,-0.04,26.83,4.185702,45.15769494555192,-111.98871859033946,10.0823409980024,0.05099019513592785,0.30597031530970387,-0.12185277254605391
6145205,1895.0,1,195396,239493,0.07,-0.83,10.13,-0.02,-0.02,-0.01,26.83,4.225705,24.89075426613828,-69.14285022106381,10.16418712932815,0.030000000000000002,0.17450889085527865,-0.07447055400890944
6185233,1889.0,1,195417,239931,0.24,-1.01,9.67,-0.05,-0.02,-0.01,26.83,4.265733,-3.261534511385064,-23.806973945970757,9.725564250983076,0.05477225575051661,-0.008100810474967869,-0.024334695430307394
6225205,1876.0,1,195409,239886,0.31,-1.07,9.33,-0.04,-0.02,-0.02,26.83,4.305705,-23.337572814063236,-3.223305233541308,9.396270536760849,0.048989794855663564,-0.13832394747524016,-0.001571709724831689
6265203,1895.0,1,195310,240047,0.25,-0.52,9.43,-0.02,-0.02,-0.03,26.83,4.345703,-26.870924047306584,-9.538688890596218,9.447634624603133,0.04123105625617661,-0.1612430152105985,-0.008555741090597313
6305205,1872.0,1,195262,240200,0.22,-0.96,10.02,-0.01,-0.01,-0.03,26.83,4.385705,-59.921564574916204,-34.12549273430947,10.06828684533769,0.033166247903554,-0.3756258543188256,-0.03574569795673283
6345203,1840.0,1,195224,240355,0.41,-0.94,9.71,-0.03,0.0,-0.01,26.83,4.425703,-103.29830267116012,-76.68177143042475,9.764005325684742,0.03162277660168379,-0.6569888813548203,-0.08280766621766573
6385184,1818.0,1,195214,240459,0.39,-0.92,9.67,-0.03,-0.0,-0.02,26.83,4.465684,-145.96712488294258,-146.45549131734978,9.721491655090796,0.03605551275463989,-0.9337600150193723,-0.15996875011350548
6425202,1774.0,1,195098,240324,0.31,-0.72,9.48,-0.04,0.01,-0.03,26.83,4.505702,-186.8991882852311,-244.45485721707874,9.512355123732503,0.05099019513592785,-1.199265670058344,-0.26834389918370843
6465184,1817.0,1,194849,239571,0.22,-0.79,10.17,0.01,-0.02,-0.04,26.83,4.545684,-170.42677603016344,-348.6017818151884,10.203009359987865,0.045825756949558406,-1.0924174380777103,-0.3835174860217283
6505181,1920.0,1,194745,239905,0.22,-0.78,10.2,-0.01,0.0,-0.01,26.83,4.585681,-59.28483186647806,-422.1568191958931,10.232145425080704,0.01414213562373095,-0.3714956903156799,-0.46486023827131473
6545182,2084.0,1,194766,240264,0.31,-0.98,9.64,-0.05,0.0,-0.02,26.83,4.625682,85.56830452093148,-440.4913117502464,9.69464285056443,0.05385164807134505,0.5680935623199048,-0.4851359139908661
6585181,2108.0,1,194844,240400,0.1,-0.64,9.92,-0.02,-0.0,-0.02,26.83,4.665681,111.84515433344325,-410.963104127501,9.941126696707975,0.0282842712474619,0.7385382367860728,-0.4524813771628907
6625203,2077.0,1,194781,240242,0.22,-0.55,10.15,-0.01,-0.01,-0.01,26.83,4.705703,75.86765568647813,-367.31341980162733,10.167271020288581,0.017320508075688773,0.5051703449442919,-0.40421023783200916
6665202,2127.0,1,194831,240298,0.15,-0.89,10.22,-0.03,-0.01,-0.0,26.83,4.745702,123.46325265628863,-343.9329143146492,10.259775826011015,0.03162277660168379,0.8138989821068614,-0.37835429739581744
6705205,2179.0,1,194765,240025,0.21,-0.88,9.62,-0.06,-0.01,-0.0,26.83,4.785705,177.276923178557,-350.6782465265677,9.662447930002003,0.0608276253029822,1.1629611269013362,-0.38581379855976045
6745202,2177.0,1,194754,240001,0.17,-0.58,10.06,-0.03,-0.02,-0.0,26.83,4.825702,180.25110470887188,-364.739843721234,10.078139709291593,0.03605551275463989,1.1822531427386545,-0.40136418174995747
6785203,2165.0,1,194788,239814,0.12,-0.43,10.51,-0.02,-0.02,-0.0,26.83,4.865703,164.90274941956525,-342.2749458255515,10.519477173319974,0.0282842712474619,1.0826961014820833,-0.3765207897959467
6825202,2121.0,1,194914,240057,0.21,-0.74,10.39,-0.03,-0.02,0.0,26.83,4.905702,141.90497452165246,-242.35841900741798,10.41843558313819,0.03605551275463989,0.9335211324926685,-0.2660254984328207
6865182,2105.0,1,195019,240224,0.38,-0.9,9.84,-0.05,-0.02,0.0,26.83,4.945682,114.5977019696057,-52.555244499219796,9.888377015466189,0.05385164807134505,0.7563926253123161,-0.056126718553260145
6905182,2043.0,1,195264,240389,0.3,-0.75,10.11,-0.03,-0.03,0.01,26.83,4.985682,85.92895804888303,195.05294276315905,10.142218692179734,0.04358898943540673,0.5704329398939056,0.21769723897131857
6945184,2046.0,1,195578,240481,0.23,-0.53,10.36,-0.01,-0.03,0.03,26.83,5.025684,78.12218695328936,427.68318231970824,10.376097532309533,0.04358898943540673,0.5197943524104557,0.47495744324625017
6985181,2018.0,1,195646,240695,0.28,-1.0,9.8,-0.05,-0.01,0.02,26.83,5.065681,84.10660053588235,559.2529615598093,9.854866817973749,0.05477225575051661,0.5586122256423641,0.6204573075297504
7025186,1994.0,1,195611,240780,0.43,-0.86,9.67,-0.04,-0.02,0.0,26.83,5.105686,60.578582278155075,531.8057007681108,9.717684909483328,0.044721359549995794,0.4059978353563982,0.5901040399084823
7065869,1925.0,1,195486,240730,0.07,-0.71,9.31,-0.05,-0.01,0.0,26.77,5.146369,17.52482524568741,349.5284575533634,9.337296182514509,0.050990195135927854,0.12672982361587742,0.38852800700112516
7104183,1927.0,1,195344,239631,0.14,-0.53,10.19,-0.0,-0.01,0.0,26.77,5.184683,34.0291369981959,83.20302870617684,10.204734195460457,0.01,0.23378497155088634,0.09400510078118403
7144181,1958.0,1,194802,239429,0.11,-0.96,9.65,-0.04,-0.01,0.0,26.77,5.224681,84.66514939253439,-163.2968194088756,9.698257575461687,0.04123105625617661,0.5622352504236746,-0.17859317105442052
7184183,1936.0,1,194799,239527,0.34,-1.01,9.49,-0.04,-0.01,-0.0,26.77,5.264683,83.42771632422169,-308.5163632131206,9.549649208217023,0.04123105625617661,0.5542086460929758,-0.33918798269631345
7224201,1872.0,1,194852,239772,0.29,-0.61,9.7,-0.02,-0.01,-0.0,26.77,5.304701,41.4056551496379,-335.20689822693225,9.723487028838985,0.022360679774997897,0.2816327251433908,-0.3687044054234253
7264202,1781.0,1,194959,240207,0.07,-0.73,9.8,-0.02,0.01,0.0,26.77,5.344702,-31.57914609229193,-288.8792896951723,9.82740047011416,0.022360679774997897,-0.1917828774656948,-0.31747181392040846
7304172,1709.0,1,194916,240343,0.0,-0.64,9.6,-0.02,0.01,0.0,26.77,5.384672,-76.25642746111934,-237.15886638678822,9.62130968215866,0.022360679774997897,-0.4815818729037736,-0.2602754378565545
7344172,1692.0,1,194968,240555,0.09,-0.7,9.74,-0.03,0.0,-0.0,26.77,5.424672,-76.50104986574499,-224.29336870106346,9.765536339597533,0.03,-0.4831686150901865,-0.2460477924350587
7384181,1634.0,1,194941,240567,0.0,-0.34,10.31,-0.01,-0.0,-0.0,26.77,5.464681,-110.47809061640459,-252.9845850409214,10.315604684166605,0.01,-0.7035605453021712,-0.27777672067138054
7424202,1581.0,1,194888,240860,0.04,-0.67,10.09,-0.02,0.0,-0.0,26.77,5.504702,-138.63995675905343,-297.26007401001243,10.11229944176892,0.02,-0.8862323701705399,-0.32673992235261345
7464182,1571.0,1,194890,240956,0.06,-0.68,9.91,-0.04,0.01,-0.0,26.77,5.544682,-137.11341829653546,-325.4988269998865,9.933483779621326,0.04123105625617661,-0.8763304849308537,-0.3579684822186595
7504181,1566.0,1,194971,241212,0.03,-0.6,10.2,-0.01,-0.02,0.0,26.77,5.584681,-107.33561442350701,-312.22977037352223,10.217675860977387,0.022360679774997897,-0.6831768868523264,-0.343294550640627
7544181,1583.0,1,195100,241375,0.09,-0.43,10.52,-0.02,-0.01,0.0,26.77,5.624681,-87.59839494111039,-236.67703114994117,10.529169008046171,0.022360679774997897,-0.5551514966876888,-0.25974258782083076
7584181,1491.0,1,195194,241556,-0.03,-0.8,9.8,-0.06,0.0,0.01,26.77,5.664681,-146.06828289553982,-84.01232480644398,9.832644608649293,0.0608276253029822,-0.9344161760375235,-0.09091434943545339
7624184,1483.0,1,195356,241617,-0.1,-0.57,10.18,-0.03,-0.01,0.0,26.77,5.704684,-148.41123461614086,138.3481982670171,10.196435651736346,0.03162277660168379,-0.9496137224008491,0.1549888216123227
7664202,1520.0,1,195569,241768,0.13,-0.49,10.62,-0.02,-0.02,0.0,26.77,5.744702,-89.7505219676312,381.24845101663357,10.632092926606688,0.0282842712474619,-0.5691112594850741,0.4236063872388617
7704181,1509.0,1,195878,241975,-0.05,-0.71,9.84,-0.08,-0.01,0.0,26.77,5.784681,-88.73514356579862,560.5446924046353,9.86570828678813,0.0806225774829855,-0.5625250118033628,0.6218858016999049
7744202,1535.0,1,196088,241085,-0.03,-0.78,10.1,-0.04,-0.02,0.0,26.77,5.824702,-51.155384382005764,603.1912018956721,10.130118459327116,0.044721359549995794,-0.3187640638091829,0.669047554033526
7784202,1603.0,1,195827,240314,-0.01,-0.59,10.42,-0.03,-0.03,0.0,26.77,5.864702,27.983723453962526,503.98352861795496,10.436694879127204,0.042426406871192854,0.19457142232743305,0.5593361668049448
7824214,1649.0,1,195558,239824,0.08,-0.79,9.85,-0.06,-0.02,-0.0,26.77,5.904714,82.6812585710987,341.8048569569122,9.881953248219705,0.06324555320336758,0.5493667510545068,0.37998666228614447
7864202,1703.0,1,195502,239469,-0.08,-0.78,9.57,-0.05,-0.02,0.0,26.77,5.944702,141.05099245730906,232.87575044518167,9.602067485703275,0.05385164807134505,0.9279817814671263,0.25952457512966565
7904202,1744.0,1,195587,239452,0.01,-0.71,9.69,-0.04,-0.02,0.0,26.77,5.984702,189.66866986185258,254.1665212828355,9.715981679686308,0.044721359549995794,1.2433401390192897,0.28306952812161806
7944181,1782.0,1,195749,239707,0.17,-0.52,9.79,-0.03,-0.03,0.0,26.77,6.024681,226.08837247965153,396.3698102940891,9.805274091018568,0.042426406871192854,1.4795763850357224,0.44032873590706745
7984181,1776.0,1,195931,240253,0.27,-1.15,9.44,-0.05,-0.01,0.0,26.77,6.064681,223.77434183702474,578.4459706981366,9.513621812958512,0.050990195135927854,1.4645664351215795,0.6416823961553264
8024209,1712.0,1,196023,240168,0.42,-0.69,9.52,-0.03,-0.03,0.0,26.77,6.104709,155.45127200936855,705.3107886249758,9.554208496782975,0.042426406871192854,1.0213891334893577,0.7819791565308276
8064181,1659.0,1,196061,240340,0.33,-0.92,9.72,-0.02,-0.02,0.0,26.77,6.144681,99.225123989247,722.4714519317514,9.769017350788154,0.0282842712474619,0.6566784636733354,0.800956722629758
8104869,1631.0,1,195880,240376,0.3,-0.8,9.29,-0.05,0.0,-0.0,26.83,6.185369,67.26081136143755,633.2475178800642,9.329206825877534,0.05,0.4493420858634025,0.7022861132364752
8145182,1606.0,1,195749,240592,0.3,-0.9,10.01,-0.01,-0.01,-0.01,26.83,6.225682,29.504586437099977,478.1728655630615,10.054854548923123,0.017320508075688773,0.2044364935942741,0.5307927733809819
8185199,1580.0,1,195649,240791,0.3,-0.84,9.99,-0.03,-0.01,-0.0,26.83,6.265699,2.7285968549338704,302.22047480658085,10.029740774317151,0.03162277660168379,0.030754151136742073,0.3362112431596223
8223204,1533.0,1,195462,240817,0.08,-0.95,9.69,-0.02,0.01,-0.0,26.83,6.303704,-67.21134275381037,135.29811885094162,9.736785917334323,0.022360679774997897,-0.4229109694485917,0.15161581191620532
8263181,1433.0,1,195283,240876,0.19,-0.73,10.01,-0.01,0.0,0.0,26.83,6.343681,-165.57151216570009,-8.655648887852731,10.038381343623085,0.01,-1.060923789686427,-0.007579208323740478
8303172,1415.0,1,195107,240950,0.0,-1.07,9.97,-0.0,0.01,-0.04,26.83,6.383672,-212.01389395292648,-125.74372277649091,10.02725286407,0.04123105625617661,-1.362172101475618,-0.13706410187915066
8343181,1379.0,1,195075,241178,0.23,-0.7,10.14,-0.01,0.0,-0.04,26.83,6.423681,-249.27293124464686,-220.29650671136238,10.166734972448136,0.04123105625617661,-1.6038526882819648,-0.24162775859126745
8383184,1369.0,1,195006,240955,0.13,-0.84,10.39,-0.01,0.0,-0.04,26.83,6.463684,-286.30767681032415,-306.5118981007984,10.42471102717001,0.04123105625617661,-1.8440784077619905,-0.33697129278858273
8423181,1389.0,1,194759,240772,0.1,-0.79,9.9,-0.05,0.01,-0.04,26.83,6.503681,-273.9320134882306,-406.1909372610996,9.931973620585186,0.06480740698407861,-1.763803720298018,-0.44720395224502635
8463183,1451.0,1,194800,240381,0.14,-0.71,10.1,-0.01,-0.02,-0.04,26.83,6.543683,-235.5457320381781,-538.569151457499,10.125892553251788,0.045825756949558406,-1.514811269056562,-0.5935978453632849
8503201,1473.0,1,194573,240371,0.23,-0.86,10.41,-0.02,-0.03,0.01,26.83,6.583701,-224.54817139935813,-706.2474704411378,10.447995022969717,0.03741657386773942,-1.4434756387819971,-0.779029277994046
8543184,1488.0,1,194299,240056,0.39,-0.88,9.87,-0.05,-0.03,0.0,26.83,6.623684,-232.8850847313306,-886.9888162066264,9.916824088386361,0.05830951894845301,-1.497552991625263,-0.9789067987376582
8583181,1535.0,1,194247,239881,0.31,-1.01,10.17,-0.02,-0.04,0.0,26.83,6.663681,-195.11321777313063,-1039.3740048516438,10.224729825281448,0.044721359549995794,-1.2525459373700636,-1.1474259252021328
8623182,1603.0,1,194109,239680,0.48,-0.68,10.21,-0.05,-0.04,-0.0,26.83,6.703682,-151.53046778091363,-1120.7714138116964,10.243871338512605,0.06403124237432849,-0.9698466150476921,-1.2374413681489773
8663201,1606.0,1,194119,239282,0.2,-0.89,9.89,-0.04,-0.03,0.0,26.83,6.743701,-155.77008301123243,-1106.6040919710083,9.931978654830065,0.05,-0.9973468611939946,-1.221774066607648
8703181,1648.0,1,194212,238921,0.3,-0.68,10.07,-0.04,-0.03,0.0,26.83,6.783681,-134.56114359679077,-998.7277480528631,10.097390752070558,0.05,-0.8597751659542585,-1.1024762043618903
8743181,1725.0,1,194412,239078,0.32,-0.63,10.29,-0.03,-0.03,0.02,26.83,6.823681,-67.46547032804102,-818.3456138927165,10.314232884708392,0.0469041575982343,-0.4245593668771905,-0.9029959271200015
8783184,1807.0,1,194676,239231,0.3,-0.7,9.7,-0.06,-0.02,0.01,26.83,6.863684,3.533704545999037,-590.2417799347262,9.729850975220534,0.06403124237432849,0.03597647874804005,-0.6507413662693136
8823181,1887.0,1,194911,239254,0.28,-0.74,9.91,-0.04,-0.01,0.0,26.83,6.903681,68.40888700655822,-332.7993387408939,9.941534086849977,0.04123105625617661,0.4567890736489001,-0.36604194311257976
8863181,1949.0,1,195096,239555,0.38,-0.85,9.34,-0.05,-0.03,0.01,26.83,6.943681,130.06363796083872,-63.99006452413226,9.3862931980628,0.05916079783099616,0.8567123532914716,-0.06877221185225563
8903181,2022.0,1,195270,239470,0.22,-0.64,9.29,-0.05,-0.0,0.01,26.83,6.983681,186.17689621808518,183.45927753683833,9.314617544483509,0.050990195135927854,1.2206907641410996,0.204876082572632
8943182,2064.0,1,195597,239928,0.19,-0.83,9.76,0.02,-0.06,0.04,26.83,7.023682,233.74576108765424,359.2414412550978,9.797070990862524,0.07483314773547883,1.5292460036492335,0.3992693627938653
8983172,2139.0,1,195694,240024,0.25,-0.93,9.38,0.02,-0.05,0.04,26.83,7.063672,296.49369263625374,419.18535765394176,9.42930538268859,0.0670820393249937,1.9362601945639284,0.46555990269616954
9023180,2181.75,1,195481,239101,0.32,-0.96,9.5,-0.03,0.0,0.0,26.83,7.10368,345.14925823605444,361.88047728811387,9.55374272209588,0.03,2.2518643137333636,0.4021878094680243
9063172,2181.75,1,195344,239138,0.51,-0.82,10.14,-0.02,-0.03,-0.0,26.83,7.143672,342.09864062393575,245.0927065657038,10.185877478155724,0.03605551275463989,2.232076495576761,0.2730350139839376
9103203,2181.75,1,195282,239074,0.39,-0.64,9.44,-0.03,-0.01,-0.0,26.83,7.183703,344.9975322026276,161.52716356171558,9.469704324845628,0.03162277660168379,2.250880143463335,0.1806218835820936
9143889,2181.75,1,195332,238982,0.12,-0.67,10.31,-0.05,0.01,-0.0,26.77,7.224389,352.88017904098706,186.57296721563938,10.332444047755594,0.050990195135927854,2.3020108986292835,0.20831943733314837
9184182,2181.75,1,195375,239516,0.2,-0.82,10.24,-0.02,-0.0,0.0,26.77,7.264682,351.52195075915665,332.7124181714285,10.274726273726225,0.02,2.2932007566602453,0.3699315522378129
9224179,2181.75,1,195501,239889,0.24,-0.97,9.48,-0.03,-0.0,0.0,26.77,7.304679,368.5250520074701,541.3855344437293,9.532518030405187,0.03,2.403491300536785,0.6006981482798076
9264185,2181.75,1,195795,240213,0.33,-0.94,10.25,-0.03,-0.0,0.01,26.77,7.344685,366.939851190424,720.5170362702204,10.298300830719601,0.03162277660168379,2.393208902184138,0.7987953812096484
9304183,2181.75,1,195843,240120,0.54,-1.02,9.66,-0.02,-0.02,0.01,26.77,7.384683,382.4707682772963,806.9052190304574,9.728699810354927,0.030000000000000002,2.4939501297635776,0.8943300012410064
9342183,2181.75,1,195744,239466,0.76,-0.85,9.8,-0.05,-0.01,-0.0,26.77,7.422683,394.4161559644528,811.1815326890897,9.866108655391953,0.050990195135927854,2.571433836152922,0.8990590739852057
9382201,2181.75,1,195758,239801,0.71,-0.8,10.52,-0.04,-0.02,-0.0,26.77,7.462701,390.21568550954487,807.5757379853442,10.574237561167234,0.044721359549995794,2.544187502425709,0.8950715120765418
9422204,2177.0,1,195636,239685,0.83,-0.98,9.5,-0.04,-0.03,-0.0,26.77,7.502704,424.308459127154,868.0400351354331,9.586412259025792,0.05,2.765330133386566,0.9619375285747572
9462201,1965.0,1,195707,239935,0.75,-0.94,10.54,-0.06,-0.0,-0.01,26.77,7.542701,181.5488398752483,987.4738052546121,10.608378763977084,0.0608276253029822,1.1906708963717785,1.0940164713500204
9502204,1451.0,1,195852,240466,1.01,-0.95,11.03,-0.03,-0.04,-0.0,26.77,7.582704,-275.51437082420813,1063.6263344298125,11.116811593258204,0.05,-1.7740676744228165,1.17823172749647
9542201,1359.75,1,195707,240123,1.13,-1.12,10.26,-0.03,-0.05,-0.01,26.77,7.622701,-404.8578564859723,959.4740930244965,10.382624908952456,0.05916079783099616,-2.6130536436405443,1.0630522609288389
9582204,1359.75,1,195420,239636,0.93,-1.09,10.64,-0.04,-0.02,-0.01,26.77,7.662704,-358.66583614105394,608.5441241070315,10.736042101258732,0.0458257569495584,-2.313429300281266,0.6749672223629196
9622201,1359.75,1,194702,238449,0.89,-0.97,10.6,-0.03,-0.02,-0.01,26.77,7.702701,-379.3568838617947,80.21595524543547,10.681432488201196,0.03741657386773942,-2.447641693254124,0.09070176786041062
9662201,1359.75,1,193855,237605,0.32,-1.07,9.85,-0.03,-0.01,-0.0,26.77,7.742701,-361.3235329137459,-452.74228083392194,9.913112528363632,0.03162277660168379,-2.3306684390853234,-0.4986839669655788
9702201,1359.75,1,193565,237900,0.26,-1.1,10.15,-0.03,0.0,-0.02,26.77,7.782701,-362.26584447161645,-821.9125415711252,10.212742041195401,0.03605551275463989,-2.336780738994671,-0.9069405069172393
9742181,1359.75,1,193577,238491,0.33,-0.93,9.06,-0.01,-0.01,-0.04,26.77,7.822681,-365.7991274034859,-959.5726531293083,9.113583268945316,0.042426406871192854,-2.359699363693458,-1.0591755236866705
9782201,1359.75,1,193559,238034,0.8,-0.64,9.22,-0.02,-0.03,-0.04,26.77,7.862701,-360.5073250977536,-911.7954316791835,9.276745118844216,0.053851648071345036,-2.325374110560931,-1.0063398400138264
9822201,1359.75,1,193562,238404,0.86,-1.04,10.08,-0.03,-0.02,-0.0,26.77,7.902701,-374.07480247978776,-774.8269625266987,10.169936086328173,0.03605551275463989,-2.4133794948519665,-0.8548696939977175
9862201,1359.75,1,193443,238556,0.79,-0.65,9.33,-0.02,-0.02,-0.03,26.77,7.942701,-371.2125809746188,-622.3304741445427,9.38592030650165,0.04123105625617661,-2.3948137072412194,-0.6862274838225153
9902201,1359.75,1,193681,238613,0.82,-1.01,10.03,-0.04,-0.02,-0.01,26.77,7.982701,-390.69746707808366,-479.52757172597154,10.114019972295882,0.0458257569495584,-2.5212023380174275,-0.5283051779465231
9942201,1359.75,1,193770,239371,0.9,-1.05,10.53,-0.01,-0.02,-0.0,26.77,8.022701,-393.7366080199045,-343.37810830351185,10.620423720360689,0.022360679774997897,-2.540915712800991,-0.3777407507303872
9982202,1359.75,1,193852,239262,0.84,-1.34,9.74,-0.01,-0.03,-0.01,26.77,8.062702,-413.42838281261885,-211.39670644899877,9.867563022347515,0.033166247903554,-2.6686463261794318,-0.23178568286686366
10022201,1359.75,1,193932,239152,0.9,-1.2,10.47,-0.02,-0.02,-0.01,26.77,8.102701,-431.5086792728887,-92.2062649378267,10.576904083899032,0.030000000000000002,-2.7859240922134387,-0.09997583136503571
10062205,1535.0,1,193964,239099,0.78,-1.05,10.73,-0.02,-0.01,-0.01,26.77,8.142705,-264.0972875562026,-0.896188225407863,10.80943106735965,0.024494897427831782,-1.7000108123996622,0.001001793178424997
10102201,1789.0,1,193836,238814,0.47,-1.01,10.37,-0.02,0.01,-0.01,26.77,8.182701,-52.17389833825101,45.14188171588247,10.429664424131776,0.024494897427831782,-0.325370650251246,0.051914190896353164
10142184,1912.0,1,193775,238772,0.52,-0.78,11.0,-0.02,0.0,-0.01,26.77,8.222684,78.34576976719896,26.29926607766069,11.039873187677474,0.022360679774997897,0.5212446213812403,0.03107659404134668
10182869,2097.0,1,193687,239304,-0.04,-1.04,10.17,0.01,0.0,0.01,26.67,8.263369,205.12688263698223,-71.67485445322473,10.22311596334503,0.01414213562373095,1.3436097703900631,-0.07727063678074687
10223172,2136.0,1,193651,238246,0.2,-0.9,9.42,-0.01,-0.01,0.0,26.67,8.303672,252.51519419378917,-236.49467701332227,9.4650092445808,0.01414213562373095,1.6509938516034581,-0.2595409267533514
10263179,2181.75,1,193242,237716,0.17,-1.24,10.5,-0.01,0.0,0.01,26.67,8.343679,244.83532512579202,-411.7539079784239,10.574332130210399,0.01414213562373095,1.6011784135818774,-0.45335590818094595
10303172,2181.75,1,193018,237462,0.31,-1.02,9.09,0.0,-0.02,0.02,26.67,8.383672,237.46564498852578,-510.5027668766724,9.152300257312366,0.0282842712474619,1.5533750147392194,-0.5625599035880194
10343171,2181.75,1,193065,237339,0.1,-1.43,9.22,-0.04,0.03,0.01,26.67,8.423671,201.36260265267404,-463.4265229945983,9.330771672268057,0.05099019513592785,1.3191927842938296,-0.5104994142007191
10383172,2181.75,1,193367,238008,0.33,-1.08,10.2,-0.01,0.0,0.01,26.67,8.463672,177.3607815959771,-267.92272549819546,10.262324298130515,0.01414213562373095,1.1635050741690034,-0.2942964520392871
10423171,2181.75,1,193446,238717,0.59,-1.46,9.47,-0.0,-0.02,0.01,26.67,8.503671,154.52945069895105,3.399661236387448,9.600031249949138,0.022360679774997897,1.0154097434829015,0.00575247009894276
10463182,2181.75,1,193786,238893,0.49,-1.3,9.58,-0.02,0.0,-0.0,26.67,8.543682,125.48871148306405,244.1888546751237,9.68021177454295,0.02,0.8270371121657387,0.27203546584931776
10503179,2181.75,1,193869,239150,0.81,-1.36,10.85,-0.02,-0.01,-0.0,26.67,8.583679,106.48538717642967,375.11457243388116,10.96486206023587,0.022360679774997897,0.70377212993499,0.4168230779829173
10541204,2181.75,1,193743,238871,0.72,-1.41,9.72,-0.01,-0.01,-0.0,26.67,8.621704,82.49558261096769,380.6072540134136,9.848091185605464,0.01414213562373095,0.5481623647294135,0.42289730284663785
10581202,2181.75,1,193637,238532,0.62,-1.65,9.98,-0.03,0.0,-0.01,26.67,8.661702,63.76180452281214,300.25266556793883,10.134461011815084,0.03162277660168379,0.4266457928975527,0.33403509010371624
10621184,2181.75,1,193545,238219,1.0,-1.04,10.08,-0.03,-0.02,-0.01,26.67,8.701684,47.36907112815523,189.6198004967795,10.18273047860936,0.03741657386773942,0.3203143975058349,0.21168885720647154
10661201,2181.75,1,193462,238123,0.85,-1.07,10.39,-0.03,-0.01,-0.01,26.67,8.741701,31.44254646712949,85.14782515255834,10.479479948928764,0.033166247903554,0.2170070630804819,0.09615580454189457
10701205,2181.75,1,193338,238143,1.33,-1.2,9.58,-0.03,-0.03,-0.01,26.67,8.781705,21.25141233058461,-3.743097329810972,9.746040221546389,0.04358898943540673,0.1509023148805148,-0.0021465353413196208
10741205,2181.75,1,193231,237577,1.39,-1.3,9.81,-0.03,-0.04,-0.02,26.67,8.821705,11.503203759900485,-80.20715409959767,9.992907484811415,0.05385164807134504,0.0876706014782704,-0.08670630238529202
10781205,2181.75,1,193061,237628,1.23,-1.2,9.52,-0.03,-0.02,-0.01,26.67,8.861705,6.6723500191793335,-144.32357655424215,9.673846184429438,0.03741657386773942,0.05633528925074356,-0.15761111669276318
10821205,2181.75,1,193073,237275,1.14,-1.6,9.16,-0.04,-0.02,-0.01,26.67,8.901705,4.52591750901997,-190.07978043545683,9.368308278446008,0.0458257569495584,0.04241246390949914,-0.20821180549300522
10861205,2181.75,1,193018,236349,0.96,-1.55,9.25,-0.04,-0.01,-0.01,26.67,8.941705,5.454941545769829,-211.67744441416738,9.427969028375093,0.042426406871192854,0.04843857436965323,-0.23209614425143982
10901208,2181.75,1,193018,236635,0.67,-1.0,10.18,-0.02,0.01,-0.01,26.67,8.981708,10.976847788477267,-208.3821380529905,10.250917032148879,0.024494897427831782,0.0842563957099733,-0.22845194395640994
10941184,2181.75,1,193018,237527,0.59,-1.11,10.56,-0.02,0.0,-0.01,26.67,9.021684,18.1972655660145,-183.3432521182574,10.634556878403538,0.022360679774997897,0.1310916048915577,-0.20076204034514572
10981181,2181.75,1,193018,237609,1.13,-1.12,10.13,-0.03,-0.03,-0.01,26.67,9.061681,30.81607122130975,-140.38439338713562,10.254179635641265,0.04358898943540673,0.21294343406495145,-0.15325486847594502
11021213,2181.75,1,193042,237698,1.02,-1.04,10.07,-0.05,-0.02,-0.01,26.67,9.101713,44.896426745604174,-83.50289982792798,10.174816951670433,0.05477225575051661,0.304275600242784,-0.09035098856592239
11061201,2181.75,1,193101,237810,0.87,-1.01,10.38,-0.04,-0.01,-0.0,26.67,9.141701,63.01336299537732,-18.2198971697418,10.465247249826447,0.04123105625617661,0.42179103011545366,-0.018156081181823193
11101230,2181.75,1,193177,238258,1.01,-1.63,10.34,-0.02,-0.02,-0.0,26.67,9.18173,84.81531069463692,49.398775305341594,10.516301631277035,0.0282842712474619,0.5632092710706281,0.056621787451678424
11141202,2181.75,1,193217,237973,1.09,-1.3,9.99,-0.01,-0.05,-0.01,26.67,9.221702,106.38624856475607,116.7256983460595,10.133025214613847,0.05196152422706632,0.703129067752335,0.1310770173808352
11181205,2181.75,1,193206,237554,0.88,-0.91,10.01,-0.06,-0.03,-0.01,26.67,9.261705,135.2859414084322,186.6372471711609,10.08972744924262,0.06782329983125268,0.8905868023764903,0.20839052299475355
11221889,2181.75,1,193354,237604,0.73,-1.14,10.38,-0.07,0.01,-0.0,26.65,9.302389,160.7031757881348,262.8576169084199,10.467898547464053,0.07071067811865477,1.0554555849965404,0.292680802392207
11262182,2181.75,1,193326,237472,0.94,-1.27,9.89,-0.01,-0.02,-0.0,26.65,9.342682,191.64706798829707,340.54154928194805,10.015418114087899,0.022360679774997897,1.2561730100457758,0.3785896006180531
11302220,2181.75,1,193370,237751,1.19,-1.36,9.9,-0.01,-0.04,-0.01,26.65,9.38272,225.46160177109715,400.7208823293476,10.06358286098942,0.042426406871192854,1.4755108395024215,0.4451404821475361
11342202,2181.75,1,193391,237558,1.21,-0.93,9.22,-0.06,-0.03,-0.01,26.65,9.422702,250.13396682975986,416.8871112778675,9.345448089845666,0.06782329983125268,1.6355480304419485,0.4630183271326915
11382202,2181.75,1,193418,237464,0.68,-1.59,9.78,-0.06,0.01,-0.01,26.65,9.462702,296.5402504549763,372.87243384149554,9.931711836335163,0.06164414002968976,1.9365621916569071,0.4143435506721541
11422182,2181.75,1,193246,237279,1.23,-1.55,9.77,-0.02,-0.03,-0.01,26.65,9.502682,310.7236868186532,279.05870884612074,9.968364961216057,0.03741657386773942,2.0285629912606495,0.31059720152120635
11462202,2112.0,1,193018,236461,1.08,-1.57,9.04,-0.03,-0.03,-0.01,26.65,9.542702,296.34099580271715,171.17774279045167,9.23866332323026,0.04358898943540673,1.93526972720312,0.19129422776438357
11502202,2120.0,1,193018,234134,1.0,-1.32,8.74,-0.06,0.01,-0.01,26.65,9.582702,312.52021326108047,89.62676115506413,8.895504482602435,0.06164414002968976,2.040216152382862,0.10110895247801613
11542182,1927.0,1,193018,233630,1.03,-1.28,9.86,-0.04,-0.01,-0.02,26.65,9.622682,173.49671054536427,55.44435403583964,9.995944177515197,0.045825756949558406,1.1384407937459273,0.06330744801813303
11582202,1595.0,1,193018,234815,0.82,-1.37,9.67,-0.04,0.02,-0.01,26.65,9.662702,-149.51731205159612,61.54170534913572,9.800928527440652,0.0458257569495584,-0.9567882889781097,0.0700503626425805
11622182,1359.75,1,193018,235050,1.09,-1.54,9.4,-0.01,-0.02,-0.02,26.65,9.702682,-340.18279128069037,82.27791786464732,9.587476205967867,0.03,-2.1935391084642766,0.09298204288242369
11662202,1359.75,1,193018,235325,1.01,-1.39,9.39,-0.01,-0.02,-0.02,26.65,9.742702,-328.4504037033372,89.9046596877031,9.545904881151918,0.03,-2.117437026380575,0.10141627380223729
11702202,1359.75,1,193018,235259,1.01,-1.12,9.52,-0.03,-0.01,-0.01,26.65,9.782702,-295.8756104283852,66.92944066932684,9.638718794528659,0.033166247903554,-1.9061407684513532,0.07600852995433577
11740202,1359.75,1,193018,235018,0.6,-1.22,9.86,-0.02,0.01,-0.02,26.65,9.820702,-283.06561519143645,12.674689943946218,9.95329091305986,0.03,-1.8230487888703282,0.016009501964236426
11780181,1359.75,1,193018,234976,1.01,-1.31,10.61,-0.03,-0.01,-0.01,26.65,9.860681,-262.61170158528813,-53.71447380172904,10.738170235193703,0.033166247903554,-1.6903745653224551,-0.05740868244468502
11820204,1359.75,1,193018,235364,1.06,-1.34,9.61,-0.03,-0.01,-0.01,26.65,9.900704,-251.28488849422297,-95.56866474331493,9.760701819029203,0.033166247903554,-1.6169032404178059,-0.10369422869146591
11860201,1359.75,1,193018,236327,1.05,-1.47,9.75,-0.03,-0.03,-0.02,26.65,9.940701,-242.10800913349175,-70.42674815541643,9.91594171019576,0.0469041575982343,-1.5573774515041607,-0.07589038595117689
11900202,1359.75,1,193142,237412,0.85,-0.86,10.01,-0.07,0.01,-0.01,26.65,9.980702,-234.64384414000733,51.15756940362785,10.082767477235603,0.07141428428542851,-1.5089611770438012,0.058566795675309126
11940181,1359.75,1,193655,237990,0.83,-0.93,11.34,-0.04,-0.01,-0.01,26.65,10.020681,-235.54821437755305,270.260987471135,11.408303993144642,0.042426406871192854,-1.5148273707403521,0.30086801239086297
11980201,1359.75,1,194071,238447,0.72,-1.06,10.77,-0.03,0.01,-0.0,26.65,10.060701,-234.08648567802612,554.8430970721264,10.845962382379906,0.03162277660168379,-1.5053458737524563,0.6155805441257808
12020181,1359.75,1,194189,238798,1.36,-1.46,10.62,0.0,-0.05,-0.01,26.65,10.100681,-242.4747710065827,841.1363508066424,10.805813250283386,0.050990195135927854,-1.5597564508329091,0.9321853891307771
12060180,1359.75,1,194482,239197,1.01,-1.58,9.47,-0.03,-0.01,-0.01,26.65,10.14068,-250.677611331852,1037.4363576262706,9.653880048975127,0.033166247903554,-1.6129641396888528,1.1492688600924794
12100201,1359.75,1,194632,239257,1.26,-1.27,9.79,-0.03,-0.05,-0.01,26.65,10.180701,-261.1675517521577,1043.0911573620147,9.952115353029223,0.05916079783099616,-1.6810070935766188,1.1555223675381343
12141202,1359.75,1,194813,238946,0.85,-1.11,10.04,-0.07,0.0,-0.02,26.65,10.221702,-283.63014276571124,796.9523902792544,10.136873285190063,0.07280109889280519,-1.8267105945780515,0.8833234065586951
12181179,1359.75,1,194483,237092,0.91,-1.13,9.78,-0.06,-0.01,-0.01,26.65,10.261679,-291.704729546471,334.84715328004825,9.887031910538166,0.06164414002968976,-1.879086367363422,0.37229230461103513
12221202,1359.75,1,193760,235448,0.52,-1.42,10.43,-0.03,0.0,-0.01,26.65,10.301702,-327.7812403499796,-199.51769196453785,10.53905593494977,0.03162277660168379,-2.1130965011371945,-0.21864896556526617
12261868,1407.0,1,193397,236113,0.77,-1.26,9.62,-0.03,-0.01,-0.01,26.59,10.342368,-289.0602282319668,-624.0448559282495,9.73267178117088,0.033166247903554,-1.861932820842735,-0.6881233775323029
12300202,1686.0,1,193673,236671,0.87,-1.47,9.8,-0.02,-0.03,-0.01,26.59,10.380702,-50.71797408411122,-828.6025476814783,9.94775351524152,0.03741657386773942,-0.31592680377364823,-0.9143388242719854
12340201,1869.0,1,193870,237354,1.07,-1.52,9.45,-0.03,-0.02,-0.01,26.59,10.420701,115.83166331540538,-839.8417265602809,9.63108508943826,0.03741657386773942,0.764396710329711,-0.926767962718281
12380202,1906.0,1,194012,237427,1.24,-1.22,9.18,-0.03,-0.05,-0.02,26.59,10.460702,116.112465341459,-789.9795952653112,9.343361279539605,0.061644140029689765,0.7662181314765244,-0.8716266272367897
12420201,2006.0,1,194117,237243,0.99,-1.25,9.56,-0.04,-0.0,-0.02,26.59,10.500701,190.53151205051108,-819.9741810056211,9.692068922577883,0.044721359549995794,1.2489369612034904,-0.9047969204428813
12460202,2114.0,1,194176,237074,0.88,-1.05,10.0,-0.06,0.02,-0.02,26.59,10.540702,266.1623171543056,-992.0815018866268,10.093408740361207,0.066332495807108,1.7395158566003215,-1.0951262800801342
12500181,2110.0,1,194028,237136,0.98,-1.15,10.23,-0.02,-0.01,-0.02,26.59,10.580681,232.8183001510278,-1264.7474356821774,10.340976743035448,0.03,1.523230032231377,-1.39666099869958
12540214,2126.0,1,194008,237279,0.99,-1.18,9.86,-0.01,0.0,-0.01,26.59,10.620714,218.7945729519395,-1529.8642417200215,9.979584159673188,0.01414213562373095,1.4322651854439656,-1.689847317933171
12580181,2170.0,1,194077,237685,1.15,-1.13,10.02,-0.01,-0.03,-0.01,26.59,10.660681,233.926091231403,-1675.730895302676,10.148881711794655,0.033166247903554,1.530415714359117,-1.8511577527636023
12620205,2181.75,1,194304,238199,1.2,-0.98,9.94,0.01,-0.04,0.0,26.59,10.700705,218.42236077198191,-1636.7528621975455,10.06001988069606,0.04123105625617661,1.429850832722925,-1.8080528805080616
12660172,2181.75,1,194757,238582,1.16,-1.37,10.1,-0.01,-0.03,0.04,26.59,10.740672,192.25174283144483,-1411.9760895361117,10.2582893310727,0.05099019513592785,1.260095230842164,-1.5594776369740686
12700182,2181.75,1,195180,239091,1.41,-0.65,9.75,-0.01,-0.04,0.04,26.59,10.780682,168.69258293555384,-1056.4242132489474,9.872846600651709,0.05744562646538029,1.107278840452798,-1.1662813418649962
12740213,2181.75,1,195818,239602,0.73,-1.21,10.19,-0.03,-0.01,0.04,26.59,10.820713,147.24141600658453,-656.92753965816,10.2875215674136,0.05099019513592785,0.9681359374710761,-0.7244875490587152
12780181,2181.75,1,196258,239468,1.04,-0.4,9.68,-0.01,-0.03,0.04,26.59,10.860681,128.20921508761944,-300.6048624130282,9.743921181947234,0.05099019513592785,0.8446836472173525,-0.3304388436513085
12820182,2181.75,1,196895,239635,1.05,-0.74,10.54,-0.01,-0.03,0.04,26.59,10.900682,112.44210722513853,-43.033441441833844,10.617989451868935,0.05099019513592785,0.7424103691772315,-0.04559678485126901
12860182,2181.75,1,197130,238612,1.52,-0.63,10.56,-0.0,-0.03,0.04,26.59,10.940682,99.65056737949897,110.29385367226487,10.687417835941478,0.05,0.6594381004133814,0.12396419456898053
12900182,2181.75,1,197153,238258,1.3,-1.18,9.54,-0.02,-0.01,0.0,26.59,10.980682,89.1320778968839,194.35430681171027,9.700206183375691,0.022360679774997897,0.5912099631544593,0.2169246342234314
12940206,2181.75,1,197325,238819,0.96,-1.4,9.27,-0.06,0.02,-0.0,26.59,11.020706,84.13878793789031,250.2532493956632,9.424144523509813,0.06324555320336758,0.5588210090884889,0.27874193456801827
12980179,2181.75,1,197685,239715,0.9,-0.9,10.31,-0.04,-0.02,-0.03,26.59,11.060679,79.17118477452097,294.9784618943447,10.388267420508582,0.053851648071345036,0.5265986723130038,0.3282024747178451
13020202,2181.75,1,197843,240675,0.9,-1.34,10.5,-0.02,-0.02,-0.01,26.59,11.100702,80.62090618023933,323.67178821403684,10.623351636842301,0.030000000000000002,0.5360022840407174,0.3599337363302757
13060202,2181.75,1,197715,240037,1.23,-0.62,9.97,-0.0,-0.04,-0.02,26.59,11.140702,84.52274378906762,339.45047219103355,10.064700691029019,0.044721359549995794,0.5613115370829114,0.3773830046233818
13100202,2181.75,1,197861,240000,0.94,-1.17,10.27,-0.04,-0.01,0.01,26.59,11.180702,87.3872727519643,376.3843584846934,10.379084738068189,0.042426406871192854,0.5798922920083879,0.41822730393153046
13140182,2181.75,1,198050,241086,1.0,-0.58,10.5,-0.02,0.0,0.0,26.59,11.220682,104.96148940206356,489.735804273978,10.563446407304767,0.02,0.6938873735077613,0.5435799500629961
13179172,2181.75,1,198261,242252,1.17,-1.14,10.33,-0.03,-0.01,0.01,26.59,11.259672,104.4072930061966,720.9751132122021,10.458365072993006,0.033166247903554,0.6902925809448076,0.7993019575167205
13219181,2140.0,1,198589,243630,0.68,-1.56,9.14,-0.02,-0.01,0.01,26.59,11.299681,95.07427570035583,1066.3916757818374,9.297074808777221,0.024494897427831782,0.6297540039147826,1.181289852194566
13259183,2181.75,1,199080,243619,1.34,-1.23,9.9,-0.05,-0.03,0.0,26.59,11.339683,132.96183788630177,1471.9636872185904,10.065709115606312,0.05830951894845301,0.8755115147723204,1.6298022154595788
13299868,2162.0,1,199260,244970,1.13,-0.79,9.55,0.0,-0.07,0.02,26.65,11.380368,155.51719894769747,1855.5220938951686,9.64901549382112,0.07280109889280519,1.021816768294222,2.0539702610287254
13340172,2124.0,1,199717,245177,1.41,-1.89,8.63,-0.08,0.0,0.01,26.65,11.420672,115.0750537589286,2138.622931764397,8.946345622655096,0.0806225774829855,0.759488965661997,2.367044689871145
13380172,2058.0,1,199640,245536,0.92,-1.13,10.23,-0.04,0.0,0.01,26.65,11.460672,93.05648182641524,2267.160917445527,10.333256988965289,0.04123105625617661,0.6166655925398441,2.5091917663494696
13420172,2065.0,1,199201,244870,1.48,-1.57,9.3,-0.05,-0.03,0.01,26.65,11.500672,104.52468744594405,2213.6748428173655,9.547004765893856,0.05916079783099616,0.6910540594785612,2.45004279882515
13460182,2018.0,1,199309,245192,0.78,-1.7,10.07,-0.03,-0.01,0.01,26.65,11.540682,95.86687094028734,1973.3131751317549,10.242231202233233,0.033166247903554,0.6348951695650592,2.1842325935546008
13500182,1984.0,1,198856,243530,1.09,-1.69,8.83,-0.04,-0.02,0.01,26.65,11.580682,75.58735736393493,1567.6389482579027,9.05610843574656,0.0458257569495584,0.5033521910681549,1.7356071926884644
13540182,1927.0,1,197885,241725,0.75,-1.45,9.68,-0.03,-0.01,0.01,26.65,11.620682,49.03930993866153,1050.4052646153123,9.816689869808458,0.033166247903554,0.33114839444111266,1.163610863383124
13580182,1872.0,1,197199,241163,1.17,-1.68,9.56,-0.03,-0.01,0.01,26.65,11.660682,12.518244632967232,496.0763616365225,9.77675303973666,0.033166247903554,0.09425465978107876,0.5505918204260862
13620182,1790.0,1,196662,241377,0.95,-1.64,9.43,-0.02,-0.01,-0.01,26.65,11.700682,-41.770772917714545,-29.095846390279497,9.618575778149278,0.024494897427831782,-0.2578908214899703,-0.030183532658006575
13660202,1700.0,1,196163,241192,1.37,-1.51,9.14,-0.03,-0.0,-0.04,26.65,11.740702,-118.89528995830801,-486.52452686872726,9.36464628269536,0.05,-0.7581586730071312,-0.5360429428766508
13700202,1617.0,1,195572,240705,0.93,-1.47,9.84,-0.03,0.01,-0.04,26.65,11.780702,-169.10823898176474,-855.3469957009887,9.99256723770223,0.05099019513592785,-1.0838647531253882,-0.9439148680994562
13740182,1579.0,1,195227,240473,1.07,-1.82,9.81,-0.04,0.02,-0.04,26.65,11.820682,-207.8883397854551,-1108.3202734808028,10.034610107024587,0.06,-1.335411711927995,-1.223671950591365
13780182,1478.0,1,194974,240279,1.21,-1.39,10.7,-0.01,-0.0,-0.04,26.65,11.860682,-269.57667820113903,-1206.6991331437364,10.857541158107574,0.04123105625617661,-1.7355528564960006,-1.332466772715377
13820203,1441.0,1,194739,240989,1.03,-1.72,10.12,-0.0,0.0,-0.04,26.65,11.900703,-319.4913234624602,-1125.7921784013565,10.31667097468946,0.04,-2.0593239905308414,-1.242993711328499
13860179,1360.0,1,195058,241642,0.95,-1.73,9.66,-0.01,-0.01,-0.04,26.65,11.940679,-362.38498156679384,-886.7190390363169,9.85956388487848,0.042426406871192854,-2.3375535212554532,-0.9786084586333156
13900202,1359.75,1,195361,242317,0.87,-1.75,10.26,-0.01,0.0,-0.04,26.65,11.980702,-378.6259316818918,-559.1455308758934,10.444472222185285,0.04123105625617661,-2.4429003750503506,-0.6163527700132588
13938181,1359.75,1,195582,242681,0.86,-2.01,10.49,-0.01,-0.02,-0.04,26.65,12.018681,-352.8072847739922,-227.9266346871651,10.715400132519552,0.045825756949558406,-2.275427831774691,-0.2500657341762159
13978204,1359.75,1,195658,242750,0.92,-1.83,10.06,-0.03,-0.01,-0.04,26.65,12.058704,-362.3596937468703,45.71180647776708,10.266396641470658,0.05099019513592785,-2.3373894919191525,0.05254445702574059
14018205,1359.75,1,195838,242874,0.85,-1.52,10.2,-0.05,0.03,-0.03,26.65,12.098705,-356.71293728260093,233.3079887803122,10.347603587304647,0.06557438524302,-2.3007618301480735,0.26000257714093944
14058183,1469.0,1,195689,243136,0.9,-1.07,10.12,-0.04,0.03,-0.02,26.65,12.138683,-245.98432287640208,318.0028389697976,10.216129404035561,0.05385164807134504,-1.5825211440987157,0.3536645812824313
14098182,1562.0,1,195985,243246,0.77,-0.7,10.56,-0.03,0.02,-0.04,26.65,12.178682,-167.45354528192826,275.9680074375183,10.611149796322735,0.053851648071345036,-1.0731315894843052,0.3071792689375252
14138184,1569.0,1,195734,242953,1.22,-0.92,10.21,-0.03,-0.01,-0.04,26.65,12.218684,-152.50545079513105,86.76530076911042,10.323705730017688,0.05099019513592785,-0.9761708382195735,0.09794453204489299
14179206,1670.0,1,195356,242109,1.58,-0.79,9.99,-0.03,-0.02,-0.03,26.65,12.259706,-75.75991190779818,-239.2203924723943,10.144979053699421,0.04690415759823429,-0.4783612268804851,-0.2625552301265195
14219205,1746.0,1,194877,241897,1.11,-1.15,9.63,-0.01,-0.03,0.0,26.65,12.299705,2.66053999191176,-651.4370239186768,9.76173652584416,0.03162277660168379,0.030312700584420964,-0.7184157193455759
14259182,1814.0,1,194607,240490,0.82,-0.97,8.94,-0.01,-0.03,0.0,26.65,12.339682,50.103041957200496,-1082.9895806462846,9.029778513341288,0.03162277660168379,0.3380482876517814,-1.1956593447261261
14299182,1895.0,1,194366,240201,0.55,-1.44,9.31,-0.05,-0.0,-0.0,26.65,12.379682,119.37411801144829,-1484.440335338577,9.436747320978771,0.05,0.7873748276377714,-1.6396141089706056
14339886,1945.0,1,194152,239617,0.92,-0.84,10.75,-0.01,-0.05,-0.0,26.65,12.420386,158.3300785550131,-1833.7119415112786,10.821945296479742,0.050990195135927854,1.0400624998945582,-2.0258652039387663
14378240,1955.0,1,193898,239815,0.72,-1.25,10.19,0.02,-0.04,0.01,26.65,12.45874,143.73444205560338,-2114.519674593848,10.291598515293918,0.0458257569495584,0.9453879658648413,-2.3364037431781655
14418172,1925.0,1,193987,239987,0.43,-1.16,10.12,0.01,-0.03,0.03,26.65,12.498672,109.63753026841593,-2287.501352887303,10.195337169510383,0.04358898943540673,0.7242184926846282,-2.5277000337138467
14458172,1927.0,1,194239,240818,0.63,-1.44,10.26,0.01,-0.03,0.04,26.65,12.538672,81.02295372678122,-2285.8344503393178,10.379696527355701,0.05099019513592785,0.5386101637401182,-2.5258566461524596
14498172,1925.0,1,194619,241297,0.81,-1.6,9.03,-0.03,-0.03,0.03,26.65,12.578672,77.21081521674115,-2048.4519399538167,9.206356499723437,0.05196152422706632,0.5138827435204258,-2.263341019510442
14538181,1984.0,1,195071,241909,0.73,-0.42,9.38,-0.06,0.0,0.01,26.65,12.618681,106.14712494110913,-1572.8392929960064,9.417733272927197,0.0608276253029822,0.7015779933853358,-1.7373723967494958
14578191,2037.0,1,196193,242796,-0.26,-1.16,11.14,-0.07,0.03,0.04,26.65,12.658691,156.39297885190987,-944.9468933003731,11.203249528596603,0.08602325267042626,1.0274975109152962,-1.0430012465658607
14618183,2086.0,1,197147,243574,0.78,0.14,10.15,-0.02,-0.02,-0.0,26.65,12.698683,180.75353161021766,-310.2133789809385,10.180888959221587,0.0282842712474619,1.1855121326957438,-0.34106467174550514
14658181,2097.0,1,198018,244519,0.48,-1.27,9.66,-0.07,0.01,0.0,26.65,12.738681,186.1140009008041,204.6091833199683,9.754942337092515,0.07071067811865477,1.2202827939332583,0.22826525627823246
14698172,2135.0,1,198406,245111,0.77,-0.23,8.91,-0.04,-0.03,-0.01,26.65,12.778672,208.1982057401792,560.0154212859832,8.94616677689389,0.05099019513592785,1.3635318946264154,0.6213004934598376
14738201,2133.0,1,198829,245627,0.67,-0.8,10.05,-0.08,-0.01,-0.01,26.65,12.818701,197.6617676652384,806.1017751184403,10.104028899404435,0.08124038404635961,1.2951873338997673,0.8934414918824509
14778202,2109.0,1,199478,246444,0.94,-0.33,8.75,-0.04,-0.06,-0.0,26.65,12.858702,166.38436386526433,1021.0171228170751,8.806531666893614,0.07211102550927978,1.0923065872778848,1.131111221992189
14818202,2128.0,1,200186,246907,0.63,-0.66,10.07,-0.1,0.0,0.02,26.65,12.898702,177.5636026416858,1242.634001519862,10.111251158981267,0.10198039027185571,1.1648206720187215,1.3761920145603994
14858172,2144.0,1,200594,247738,0.71,-0.44,9.33,-0.05,-0.03,0.02,26.65,12.938672,191.3512325184111,1445.3426726908292,9.36731551726534,0.061644140029689765,1.254254074529531,1.6003626737711347
14898181,2128.0,1,200835,247979,0.54,-0.9,9.7,-0.09,0.01,-0.01,26.65,12.978681,172.6714361136612,1564.6158095266146,9.75661826659217,0.09110433579144298,1.1330876546573176,1.7322639760497112
14938181,2091.0,1,201025,248048,0.21,-0.71,9.18,-0.06,0.01,-0.01,26.65,13.018681,136.6657463295322,1538.9555642133162,9.209809987182146,0.06164414002968976,0.8995369011243138,1.7038869259996925
14978181,2064.0,1,201314,247895,0.74,-0.46,10.64,-0.08,0.0,-0.01,26.65,13.058681,111.65912332838741,1345.7081208832487,10.67561707818335,0.0806225774829855,0.7373315474635856,1.4901792118114157
15018181,2034.0,1,201431,247182,0.46,-0.51,10.31,-0.03,-0.02,-0.01,26.65,13.098681,89.21583591354363,1022.4703922498194,10.332850526355251,0.03741657386773942,0.5917532591730216,1.132718357813598
15058202,1986.0,1,200917,245361,0.7,-1.24,9.5,-0.05,-0.04,-0.01,26.65,13.138702,43.1820801989101,664.0180046323203,9.606123047306859,0.06480740698407861,0.2931554986644609,0.7363144567683152
15098202,1951.0,1,200921,245546,0.24,-0.91,10.65,-0.04,-0.01,0.02,26.65,13.178702,25.745206758355348,385.2890175795563,10.691501297759824,0.045825756949558406,0.18005129330922118,0.42807475292229763
15138182,1941.0,1,201184,246129,0.26,-1.54,10.15,-0.06,0.01,0.04,26.65,13.218682,16.705971492895603,264.793728370167,10.26945470801639,0.07280109889280519,0.12141833223369723,0.2948219016366456
15178172,1893.0,1,201369,246230,0.68,-0.56,9.68,-0.02,-0.04,0.04,26.65,13.258672,-7.621377019341345,306.36258466598264,9.719999999999999,0.06,-0.03638091034594005,0.34079190313998514
15217180,1894.0,1,201657,247300,0.55,-1.02,9.54,-0.05,-0.01,0.0,26.65,13.29768,-0.5687482887719262,446.2713950032484,9.610124869115905,0.050990195135927854,0.009365935896651544,0.49551370197335765
15257183,1841.0,1,201946,248268,0.43,-0.57,9.57,-0.04,-0.01,-0.01,26.65,13.337683,-31.916249912070477,596.7430702029906,9.596598355667492,0.042426406871192854,-0.1939694999578665,0.6619167197979895
15297201,1794.0,1,202156,248397,0.68,-0.79,10.37,-0.05,-0.02,-0.01,26.65,13.377701,-63.26066591490608,693.1151849767086,10.422255034300399,0.05477225575051661,-0.397284920948385,0.7684923308636658
15337204,1803.0,1,202293,248663,0.47,-0.76,9.67,-0.02,-0.02,0.04,26.65,13.417704,-36.54117693957833,716.9314431778602,9.711199719911027,0.048989794855663564,-0.22396906943662534,0.7948301597786523
15377868,1744.0,1,202310,248546,0.49,-1.23,9.55,-0.02,-0.01,-0.0,26.65,13.458368,-74.03883661415973,687.9455140673929,9.641343267408335,0.022360679774997897,-0.467197479313747,0.7627753157554839
15418202,1687.0,1,202325,248929,0.53,-0.93,9.4,-0.04,-0.02,-0.0,26.65,13.498702,-113.50456453311669,636.8495087154764,9.460750498771226,0.044721359549995794,-0.7231917554812818,0.7062694685383526
15458198,1691.0,1,202219,248764,0.63,-0.96,8.52,-0.05,-0.01,-0.01,26.65,13.538698,-86.61640008829971,578.7277973864035,8.59702855642576,0.05196152422706632,-0.548781791254617,0.6419940615326731
15498202,1667.0,1,202260,249149,0.29,-0.52,10.61,-0.06,0.03,-0.01,26.65,13.578702,-93.64206849720908,503.25054459689005,10.626692806325023,0.06782329983125268,-0.5943537594855125,0.5585255773504144
15538182,1618.0,1,202021,249402,0.67,-0.62,9.9,-0.0,-0.02,-0.0,26.65,13.618682,-117.21882079567719,384.8854462703957,9.941996781331204,0.02,-0.7472842629193162,0.42762845308771
15578202,1581.0,1,201790,249475,0.54,-1.05,8.98,-0.02,-0.02,-0.01,26.65,13.658702,-141.35035602429605,203.47921935458677,9.05728988163678,0.030000000000000002,-0.9038133634682087,0.2270156562214578
15618202,1531.0,1,201394,249186,0.58,-0.97,9.02,-0.06,0.01,-0.0,26.65,13.698702,-163.76873223058334,-38.32747806458417,9.09052803746845,0.0608276253029822,-1.0492300653105011,-0.04039257278473196
15658182,1535.0,1,201125,248796,0.34,-1.11,9.87,-0.04,0.02,-0.0,26.65,13.738682,-148.6961901330066,-308.6869977897697,9.93803803574931,0.044721359549995794,-0.9514620851481368,-0.3393766833834158
15698183,1523.0,1,200765,248252,0.72,-0.7,9.76,-0.01,-0.01,-0.0,26.65,13.778683,-138.33410662702494,-552.6112115988211,9.811523836795178,0.01414213562373095,-0.8842484745909333,-0.6091266229946181
15738202,1508.0,1,200350,247433,0.22,-1.25,8.98,-0.04,0.01,-0.0,26.65,13.818702,-136.86877187383465,-710.2264034424425,9.069250244645366,0.04123105625617661,-0.8747435869512985,-0.7834294845994434
15778183,1526.0,1,200213,246998,0.65,-0.42,10.0,-0.03,-0.01,-0.0,26.65,13.858683,-108.8951736963285,-743.8810716469121,10.02990029860716,0.03162277660168379,-0.6932929614374991,-0.8206473752468124
15818203,1563.0,1,200050,247366,0.58,-0.99,10.09,-0.01,-0.01,-0.0,26.65,13.898703,-48.076698561249394,-661.9547715466538,10.155028311137295,0.01414213562373095,-0.29879418133671964,-0.7300470442689542
15858203,1607.0,1,200031,247377,0.7,-0.94,8.99,-0.03,-0.01,-0.01,26.65,13.938703,-4.557170240611915,-521.3835517166334,9.066074122794276,0.033166247903554,-0.01650494611795716,-0.5745927026597819
15898202,1569.0,1,199954,247205,0.42,-1.29,10.62,-0.06,0.03,-0.0,26.65,13.978702,-18.78045481221261,-399.9571466667639,10.706301882536284,0.0670820393249937,-0.10876422095279001,-0.44031015269100876
15938182,1572.0,1,199773,247178,0.88,-0.79,9.16,-0.01,-0.05,-0.01,26.65,14.018682,-17.72838212442354,-351.09598970604236,9.236021870913905,0.05196152422706632,-0.10193995594140455,-0.386275770725937
15978203,1570.0,1,199594,246964,0.47,-1.3,9.8,-0.07,0.02,-0.01,26.65,14.058703,-5.322890462043223,-371.1471526799581,9.897014701413756,0.07348469228349536,-0.02147178707512081,-0.4084498711027953
16018217,1535.0,1,199191,246783,0.73,-0.88,9.86,-0.03,-0.02,-0.0,26.65,14.098717,-37.60452785711163,-405.239696253672,9.926071730548797,0.03605551275463989,-0.23086649063724296,-0.4461519976223083
16058202,1520.0,1,198913,246556,0.97,-1.14,9.19,-0.06,-0.04,-0.04,26.65,14.138702,-50.13116191505137,-390.51003247143376,9.31110090161201,0.0824621125123532,-0.3121204491367021,-0.4298628156107903
16098203,1561.0,1,198862,246269,0.75,-1.15,9.99,-0.06,-0.01,-0.01,26.65,14.178703,-2.9829502394992806,-304.2504161222378,10.083903014210321,0.06164414002968976,-0.006293774781124633,-0.33447037409083474
16138203,1622.0,1,198779,246185,1.35,-1.12,10.08,-0.04,-0.07,-0.01,26.65,14.218703,52.08184195292359,-178.08176845959596,10.23148571811543,0.08124038404635961,0.3508837654016327,-0.19494349171880765
16178203,1635.0,1,198647,245962,0.9,-0.97,9.19,-0.05,-0.03,-0.01,26.65,14.258703,70.71376969071963,-68.17102919283404,9.284772479711068,0.05916079783099616,0.4717396853693941,-0.07339584043462241
16218202,1661.0,1,198458,245418,0.95,-0.91,10.2,-0.05,-0.02,-0.02,26.65,14.298702,85.77795837420032,-11.09734974065163,10.28448345810328,0.057445626465380296,0.5694534811467793,-0.010279426753497217
16256201,1697.0,1,198228,245337,0.84,-1.35,10.43,-0.01,-0.03,-0.01,26.65,14.336701,125.39118823876854,-6.580165693432897,10.550497618596006,0.033166247903554,0.826404528056706,-0.005283981221780499
16296204,1728.0,1,197774,244703,0.75,-1.32,8.6,-0.02,-0.03,-0.02,26.65,14.376704,141.25608083136808,-39.52366354867608,8.732977728129162,0.0412310562561766,0.9293120863325383,-0.04171540563129054
16336201,1702.0,1,197650,244234,0.17,-1.39,10.02,-0.04,0.02,-0.01,26.65,14.416701,117.04294757388931,-112.34688451402371,10.1173810840553,0.0458257569495584,0.7722537005167532,-0.12224885965350381
16376182,1680.0,1,197425,244155,0.37,-1.16,8.97,-0.01,0.01,-0.03,26.65,14.456682,77.11592881067173,-246.8161413133249,9.052259386473635,0.033166247903554,0.5132672632513234,-0.270955186650503
16416868,1648.0,1,197132,243186,0.27,-1.86,9.23,-0.03,0.03,-0.04,26.55,14.497368,42.78679169527228,-448.3097493863182,9.419416117785646,0.05830951894845301,0.2905914614680887,-0.49378213671410626
16457182,1649.0,1,196476,242488,0.6,-0.69,9.28,-0.0,0.02,-0.04,26.55,14.537682,28.246796179220777,-671.3715544372072,9.324939678089075,0.044721359549995794,0.1962778424400989,-0.7404608386864575
16497179,1642.0,1,196147,242145,0.49,-1.64,9.06,-0.02,0.02,-0.04,26.55,14.577679,9.195290773026501,-830.6141938258137,9.220265722852027,0.048989794855663564,0.07270033371212924,-0.9165634555108437
16537182,1601.0,1,196070,241970,0.8,-0.91,9.01,-0.03,0.01,-0.04,26.55,14.617682,-38.06163859793364,-855.1742723046627,9.0911055433319,0.05099019513592785,-0.2338315375119752,-0.9437238574367557
16577179,1582.0,1,196199,242167,0.3,-1.73,10.41,-0.05,0.02,-0.02,26.55,14.657679,-83.4045342958916,-738.2275375937352,10.557035568756978,0.057445626465380296,-0.5279480374628914,-0.8143952674891619
16617182,1558.0,1,196193,243004,0.84,-1.4,8.85,-0.01,-0.01,-0.02,26.55,14.697682,-101.45245933999138,-537.2160862446075,8.999338864605555,0.024494897427831782,-0.6450158264436947,-0.5921015229860681
16657202,1569.0,1,196427,243057,0.41,-1.83,9.63,-0.06,0.03,-0.04,26.55,14.737702,-128.96269944319315,-327.8552539389917,9.810907195565557,0.07810249675906654,-0.8234608817807191,-0.36057439827182935
16697182,1535.0,1,196488,243851,0.95,-1.13,10.65,-0.02,-0.04,-0.01,26.55,14.777682,-150.25179992299994,-154.26818830725392,10.751832401967583,0.0458257569495584,-0.961552541429755,-0.16860862439378926
16737202,1616.0,1,196490,243647,1.07,-1.54,8.86,-0.05,-0.04,-0.02,26.55,14.817702,-109.36532609161164,-14.004579755709642,9.056274068290998,0.0670820393249937,-0.6963426029483839,-0.013494462722052925
16777203,1675.0,1,196720,244036,0.82,-1.73,9.49,-0.07,-0.01,-0.01,26.55,14.857703,-42.8478583496749,119.23593687650451,9.681187943635843,0.07141428428542851,-0.2648773315599605,0.13385302998500956
16817202,1744.0,1,196885,243719,0.72,-1.01,10.29,-0.06,-0.0,-0.02,26.55,14.897702,-2.408906625689347,264.1496282690344,10.364487445117582,0.06324555320336758,-0.0025702433234599934,0.2941096067780462
16857202,1776.0,1,197101,244184,0.84,-0.96,9.46,-0.04,-0.02,0.01,26.55,14.937702,22.228032557274382,420.9474073514863,9.545616795157871,0.0458257569495584,0.1572371578241295,0.4675085112089622
16897183,1837.0,1,197318,244058,0.86,-1.24,9.09,-0.08,-0.0,-0.0,26.55,14.977683,72.29751681018925,583.622681367192,9.214407197427299,0.08,0.4820126543188987,0.6474071963650156
16937202,1914.0,1,197587,244201,0.48,-0.76,9.77,-0.06,0.0,0.0,26.55,15.017702,127.56663788279504,753.3223008979346,9.811263934886268,0.06,0.8405155729132734,0.8350739368071782
16977171,1917.0,1,197805,244272,0.85,-1.22,9.03,-0.04,-0.01,-0.01,26.55,15.057671,132.16759799744582,932.3360861239538,9.151600952838798,0.042426406871192854,0.8703596811137957,1.033040989770985
17017202,1920.0,1,197995,244676,0.92,-1.33,9.01,-0.05,-0.02,-0.01,26.55,15.097702,108.83717735664004,1103.3450357383458,9.153982739769614,0.05477225575051661,0.7190270069289523,1.2221556869595493
17057203,1899.0,1,198341,244917,1.14,-1.2,8.61,-0.05,-0.03,0.04,26.55,15.137703,91.40980107091217,1221.5916203403451,8.767650768592462,0.07071067811865475,0.6059844048280741,1.3529217497358748
17097182,1910.0,1,198690,244962,1.09,-1.49,8.54,-0.05,-0.03,0.04,26.55,15.177682,81.51973730755877,1241.3023287409608,8.737265018299489,0.07071067811865475,0.5418325483223617,1.3747193495630174
17137182,1904.0,1,198803,243917,0.93,-1.58,7.75,-0.05,-0.02,0.04,26.55,15.217682,74.77606819268934,1160.8090145327494,7.963906076794226,0.0670820393249937,0.49808976731197696,1.2857037233252386
17177182,1923.0,1,198638,242222,0.45,-1.18,8.55,-0.06,0.01,0.01,26.55,15.257682,80.77770972885901,1039.8094998687527,8.642765761028121,0.06164414002968976,0.5370193895914327,1.15189326119888
17217172,1943.0,1,198684,243334,0.3,-1.51,9.23,-0.03,0.04,0.04,26.55,15.297672,97.6255661263255,958.9431231544294,9.357510352652568,0.06403124237432849,0.6463029384037257,1.0624650740803119
17257172,1952.0,1,199114,244310,0.24,-1.19,9.0,-0.01,0.03,-0.01,26.55,15.337672,97.30726161643753,948.9492961767972,9.081503179540269,0.033166247903554,0.6442382575551433,1.0514131404423852
17297182,1934.0,1,199377,245172,0.5,-1.21,10.47,0.02,0.02,-0.01,26.55,15.377682,78.46364363863225,953.9753808711455,10.551540171936987,0.030000000000000002,0.5220092097465834,1.0569713669981242
17337172,1895.0,1,199471,245882,0.55,-1.67,9.77,0.049999999999999996,-0.01,-0.01,26.55,15.417672,31.146244071294856,866.8277718715601,9.92694817151777,0.05196152422706631,0.21508509885105842,0.9605969156970271
17377183,1856.0,1,199515,245765,0.85,-1.58,9.64,0.01,-0.0,-0.02,26.55,15.457683,-7.164294317782459,609.2115364715355,9.805534151692095,0.022360679774997897,-0.03341604534776873,0.6757052976946358
17415871,1855.0,1,199360,245647,0.57,-1.62,10.69,0.0,0.01,-0.02,26.55,15.496371,-11.257319324617415,191.07098187933943,10.827067931808685,0.022360679774997897,-0.059965434633378174,0.2132936839032458
17456204,1823.0,1,199090,245589,0.91,-1.36,11.11,0.01,-0.03,-0.02,26.55,15.536704,-47.29248266755952,-297.7925965027908,11.229861975999526,0.03741657386773942,-0.29370736828017435,-0.3273288262093704
17496182,1787.0,1,198767,245665,0.61,-1.4,9.98,-0.01,-0.02,-0.03,26.55,15.576682,-75.95797456992885,-754.125939291889,10.09616263735881,0.03741657386773942,-0.4796459594953775,-0.831976928739688
17536202,1808.0,1,198772,245690,0.71,-0.75,11.39,-0.03,-0.01,-0.03,26.55,15.616702,-65.48189964548544,-1128.5111956427377,11.436725930090306,0.04358898943540673,-0.41169294408750584,-1.2460006073033223
17576203,1778.0,1,198986,246271,0.89,-0.99,11.58,-0.0,-0.04,-0.02,26.55,15.656703,-81.58660273930572,-1437.3987753537754,11.656268699716904,0.044721359549995794,-0.5161560321587961,-1.5875919756737016
17616202,1747.0,1,198862,246231,1.34,-0.91,10.16,-0.0,-0.05,-0.02,26.55,15.696702,-120.96924916980845,-1715.75433102767,10.288308898939611,0.05385164807134505,-0.771611400605094,-1.8954187107113918
17656202,1701.0,1,198791,245917,0.74,-1.37,10.06,-0.03,-0.01,-0.01,26.55,15.736702,-158.52252048939633,-1962.6822331228825,10.17978879938086,0.033166247903554,-1.0152005351808493,-2.168490357180434
17696202,1687.0,1,198860,246157,1.09,-0.86,10.39,-0.0,-0.04,-0.01,26.55,15.776702,-167.22831716369194,-2135.4847540925675,10.48235660526773,0.04123105625617661,-1.0716706482540084,-2.3595885219273174
17736202,1737.0,1,198968,246225,0.79,-1.03,10.14,0.02,-0.03,-0.01,26.55,15.816702,-122.98771944378919,-2192.688220928851,10.222749141008988,0.03741657386773942,-0.7847041994460141,-2.4228484643646775
17776183,1779.0,1,199419,246546,0.79,-0.37,9.13,0.01,-0.02,0.04,26.55,15.856683,-59.05756370274732,-2133.0901867206303,9.171581106875738,0.045825756949558406,-0.3700215163389666,-2.3569404272839516
17816172,1823.0,1,200116,245463,0.62,-0.63,11.21,-0.0,-0.02,0.04,26.55,15.896672,-32.206866761713194,-1984.782455628791,11.244794351165343,0.044721359549995794,-0.1958545849161156,-2.19293046336452
17856182,1794.0,1,200268,244036,1.12,-0.33,9.98,0.049999999999999996,-0.03,0.04,26.55,15.936682,-31.418082027335977,-1757.9159062855506,10.048069466320383,0.07071067811865475,-0.19073813609389828,-1.9420441859035737
17896172,1827.0,1,200659,243746,1.06,-0.77,8.21,0.0,-0.06,0.04,26.55,15.976672,-15.048051427532574,-1420.1655516078263,8.313879960644128,0.07211102550927978,-0.0845540022843673,-1.568534166724832
17936171,1792.0,1,201633,244644,0.99,-1.15,10.04,-0.05,-0.04,0.04,26.55,16.016671,-25.538942943346388,-931.4442975588404,10.154023832944256,0.0754983443527075,-0.15260312544909893,-1.0280690496798057
17976182,1776.0,1,202110,244969,1.24,-0.54,8.45,-0.04,-0.06,-0.0,26.55,16.056682,-46.983926364114346,-308.3244825360706,8.557552220115282,0.07211102550927978,-0.2917059191311917,-0.3389757864561841
18016202,1791.0,1,203212,247726,0.47,-0.89,9.61,-0.06,0.05,0.02,26.55,16.096702,-19.742027845848558,348.18503797584185,9.662561772118199,0.0806225774829855,-0.11500146034270674,0.38704235150079574
18056172,1815.0,1,203992,248301,1.07,-0.87,8.76,-0.03,0.0,-0.01,26.55,16.136672,11.676420710887742,896.8106238160102,8.867885881088005,0.03162277660168379,0.0887941724935824,0.9937542327796124
18096183,1840.0,1,204369,249178,0.52,-0.34,11.32,-0.02,0.04,-0.01,26.55,16.176683,38.90203229222311,1240.419989798691,11.337036649848143,0.0458257569495584,0.2653929861349906,1.3737435920821295
18136182,1863.0,1,204356,249861,1.3,-0.68,10.22,0.03,-0.06,-0.04,26.55,16.216682,76.36307906802395,1381.2104018620785,10.324766341181771,0.07810249675906654,0.5083839066000083,1.5294403331267274
18176182,1891.0,1,204554,250182,0.95,-0.76,9.1,-0.04,-0.02,-0.01,26.55,16.256682,103.88919975049252,1404.9209648577978,9.180964001672155,0.0458257569495584,0.686931971246854,1.555661276248224
18216202,1911.0,1,204765,250749,1.09,-0.84,9.82,-0.06,-0.02,0.01,26.55,16.296702,136.511075362392,1415.6934162454957,9.91595179496149,0.06403124237432849,0.8985336285542881,1.567574271952582
18256183,1889.0,1,204873,251596,0.98,-0.65,10.28,-0.02,-0.0,0.0,26.55,16.336683,120.34880720158534,1477.046563532815,10.347043055868665,0.02,0.7936971449210061,1.635423246506077
18296182,1811.0,1,204875,251178,0.76,-0.36,9.51,0.01,0.01,-0.0,26.55,16.376682,43.97571490636463,1592.8349509790792,9.547109510213026,0.01414213562373095,0.2983034068164012,1.7634708479867514
18336171,1776.0,1,204936,251898,1.17,-1.16,9.78,-0.01,-0.03,0.02,26.55,16.416671,27.969933348998296,1722.1594640404735,9.917807217323796,0.03741657386773942,0.19448197287027766,1.9064877262367643
18376182,1817.0,1,205089,251675,1.58,-0.48,10.08,-0.08,-0.02,-0.01,26.55,16.456682,56.29827634166073,1807.2357961920313,10.214362437274291,0.08306623862918075,0.37823364911768076,2.0005716021335234
18416202,1794.0,1,204739,250954,0.77,-0.71,7.527499999999998,-0.11,0.0,0.0,26.55,16.496702,62.49017573082474,1802.1346686571978,7.600016858533931,0.11,0.418397378150786,1.9949303874997537
18456859,1818.0,1,205148,251438,1.1,-1.46,11.92,-0.11,0.06999999999999999,-0.02,26.65,16.537359,68.38245724117486,1695.8673365265524,12.059353216487192,0.1319090595827292,0.4566176370882345,1.8774118928113783
18495182,1810.0,1,204281,249441,1.66,-0.49,8.45,0.01,-0.07,-0.04,26.65,16.575682,85.57467057528329,1516.7487154363205,8.625439119256479,0.08124038404635961,0.568134855704362,1.6793289043789321
18535182,1853.0,1,204222,249321,0.82,-1.18,12.227500000000001,-0.11,0.06999999999999999,-0.01,26.65,16.615682,120.50869223034559,1306.108240157202,12.311643117390952,0.1307669683062202,0.7947342384795375,1.446386653181611
18575182,1842.0,1,203363,249113,1.7525,-0.17,9.39,0.049999999999999996,-0.09,-0.04,26.65,16.655682,117.1662532973463,1074.8592296949155,9.553651461614036,0.11045361017187261,0.7730535225671283,1.190653917045034
18615182,1776.0,1,203378,249098,0.43,-1.49,9.1,-0.09,0.06999999999999999,-0.0,26.65,16.695682,60.361391918415244,785.2680767501795,9.231197105467958,0.11401754250991379,0.40458903101237753,0.8704020043754185
18655179,1749.0,1,202750,248568,1.42,-0.61,9.12,0.0,-0.04,-0.01,26.65,16.735679,23.917641842886294,388.6714203416123,9.250021621596352,0.04123105625617661,0.16819680126373282,0.43181527103879597
18695182,1709.0,1,202236,247803,1.08,-1.92,10.63,-0.07,0.02,-0.01,26.65,16.775682,1.5825713549872056,-107.45473959674854,10.855860168590972,0.07348469228349536,0.023320461609189647,-0.11683875388582762
18735182,1685.0,1,200901,247113,1.48,-0.43,8.57,0.01,-0.05,-0.04,26.65,16.815682,-34.173245727409366,-612.8768903132867,8.707479543472957,0.06480740698407861,-0.20860949370756507,-0.6757729921270456
18775182,1642.0,1,200320,246587,0.92,-1.91,9.33,-0.09,0.04,-0.04,26.65,16.855682,-69.42748448354398,-1006.6817515639435,9.567831520255778,0.1063014581273465,-0.4372859633458997,-1.1112723461359122
18815182,1606.0,1,200327,247095,0.57,-1.45,10.28,-0.03,0.01,0.01,26.65,16.895682,-101.14258122053546,-1224.6300021593497,10.397393904243504,0.033166247903554,-0.6430058033407844,-1.3522960908409012
18855172,1595.0,1,199794,246562,0.93,-1.35,10.62,0.0,-0.02,-0.04,26.65,16.935672,-129.90527685177,-1299.477421947986,10.745780567273835,0.044721359549995794,-0.8295749061295414,-1.4350680578086583
18895182,1535.0,1,199507,247224,0.74,-0.91,10.78,-0.04,0.04,-0.0,26.65,16.975682,-159.40918414727082,-1320.592715469048,10.843620244180444,0.0565685424949238,-1.0209518752237277,-1.4584189546435176
18935182,1561.0,1,199018,247159,0.64,-1.29,8.93,-0.02,0.04,-0.04,26.65,17.015682,-179.64007168288478,-1355.5037609864519,9.045363453173122,0.06,-1.15217944111435,-1.4970262428377747
18975182,1530.0,1,198885,247489,0.56,-0.97,11.7,-0.0,0.03,-0.04,26.65,17.055682,-159.04749031614958,-1399.8488471810197,11.753488843743376,0.05,-1.0186057497276444,-1.546066410421967
19015182,1602.0,1,198639,246752,0.84,-0.51,9.8,-0.02,0.0,-0.04,26.65,17.095682,-148.48707557494694,-1387.402241010974,9.849147171202185,0.044721359549995794,-0.9501056644573413,-1.5323020070841231
19055182,1518.0,1,198348,246720,1.01,-0.32,11.15,-0.01,0.0,0.01,26.65,17.135682,-179.1982806072382,-1245.7385128847511,11.200223212061445,0.01414213562373095,-1.1493137651825727,-1.3756394867446669
19095172,1583.0,1,198409,247066,1.1,-2.06,10.72,-0.01,0.0,-0.02,26.65,17.175672,-167.88047554874547,-957.5641888128055,10.971417410708609,0.022360679774997897,-1.0759008708428632,-1.0569544111549232
19135182,1603.0,1,198518,247399,0.64,-0.91,9.36,0.01,0.0,-0.04,26.65,17.215682,-114.6572674300585,-586.4311115958307,9.425884573874221,0.04123105625617661,-0.730668757916022,-0.6465272395196827
19175172,1691.0,1,198719,247219,0.77,-0.26,10.47,-0.04,0.01,-0.04,26.65,17.255672,-55.34848668311866,-247.5560748891639,10.501495131646733,0.05744562646538029,-0.34596260403816514,-0.2717734614510323
19215182,1737.0,1,198688,246716,-0.06,-1.02,10.87,0.01,0.06,-0.01,26.65,17.295682,-5.106608596167644,-42.461890769061874,10.917916467898076,0.06164414002968976,-0.020068875672683763,-0.04496472066601485
19255182,1771.0,1,198135,246486,1.07,0.2300000000000002,10.98,0.01,-0.0,-0.01,26.65,17.335682,26.00185221692437,-3.2807023784397513,11.034409816569259,0.01414213562373095,0.18171602298386386,-0.0016351838511942764
19295172,1842.0,1,198190,246629,0.29,-1.23,9.71,-0.04,0.02,0.01,26.65,17.375672,79.20118090967834,-82.83130329391446,9.791889501010518,0.0458257569495584,0.526793242116029,-0.08960828606146723
19335172,1865.0,1,197626,245536,1.31,-0.82,9.16,-0.01,-0.06,0.01,26.65,17.415672,114.54650400606668,-189.2292194797199,9.289461771276095,0.06164414002968976,0.7560605299397353,-0.20727119052550022
19375182,1895.0,1,197604,245161,0.64,-1.56,10.73,-0.07,-0.01,0.02,26.65,17.455682,116.82126030515259,-235.6104747140987,10.861680348822645,0.07348469228349536,0.7708157269916646,-0.258563108630685
19415182,1898.0,1,197309,245178,0.76,-1.2,9.47,-0.01,-0.04,0.03,26.65,17.495682,137.29507330665226,-176.76947426405783,9.575933374872657,0.05099019513592785,0.9036190278827859,-0.1934922570321371
19455182,1936.0,1,197290,244344,1.03,-1.16,9.26,-0.01,-0.05,0.01,26.65,17.535682,146.21591204827982,-21.389244171638023,9.389041484624508,0.05196152422706632,0.9614840104104059,-0.021660986041484677
19495868,1921.0,1,197411,244889,0.93,-1.64,10.32,-0.07,-0.04,0.04,26.67,17.576368,147.38923152428606,179.29089798954797,10.49080073206998,0.09000000000000001,0.9690947421974969,0.2002663715742874
19534182,1936.0,1,197313,244048,1.15,-0.89,8.68,-0.06,-0.04,-0.0,26.67,17.614682,138.5258413786633,360.5261235265745,8.800965856086478,0.07211102550927978,0.9116023997433423,0.40069006211575264
19574202,1894.0,1,197537,244631,0.49,-1.16,11.42,-0.04,-0.0,0.02,26.67,17.654702,105.29802995501382,479.1259480163968,11.489216683481951,0.044721359549995794,0.6960703423720488,0.5318467644145779
19614182,1903.0,1,197279,244160,1.28,-0.94,9.71,-0.03,-0.08,0.01,26.67,17.694682,101.70864590465169,535.7425362233339,9.839009096448688,0.08602325267042626,0.6727878180069431,0.5944576918470184
19654182,1891.0,1,197402,244818,0.68,-1.5,10.84,0.01,0.01,0.03,26.67,17.734682,87.66873607706154,567.3967064177584,10.964396928240058,0.033166247903554,0.581718002668633,0.6294632797099478
19694151,1831.0,1,197072,244849,1.7525,-1.44,8.28,-0.02,-0.09,0.0,26.67,17.774651,26.26319123603997,611.0178422064632,8.58506006094308,0.09219544457292887,0.1834111974190146,0.6777028478980672
19734182,1795.0,1,197348,244784,0.49,-1.47,9.65,-0.09,0.03,-0.0,26.67,17.814682,-17.356942312469688,663.4074317290854,9.773612433486402,0.09486832980505137,-0.0995306131821327,0.7356392388340072
19774182,1787.0,1,197077,244034,1.61,-0.66,10.54,-0.01,-0.08,0.0,26.67,17.854682,-24.633585711179496,672.0579300365215,10.682663525544553,0.0806225774829855,-0.14673052961613875,0.7452056175038361
19814182,1781.0,1,197294,244697,0.55,-1.17,11.34,-0.04,0.02,0.01,26.67,17.894682,-32.46617288519319,570.0959163709815,11.41345696973533,0.0458257569495584,-0.19753657298237867,0.6324482712797058
19854172,1744.0,1,196804,243309,1.12,-0.64,9.24,0.04,-0.06,0.01,26.67,17.934672,-77.07220683976733,330.6072262355419,9.329608780650988,0.07280109889280519,-0.4868734223711554,0.36760347095097534
19894172,1712.0,1,196479,242387,0.68,-1.4,9.57,-0.05,0.03,0.04,26.67,17.974672,-97.82818104823829,-4.633914278551335,9.695736176278725,0.07071067811865475,-0.6215069607303276,-0.0031316684462907337
19934171,1779.0,1,196083,240562,1.06,-0.32,9.03,-0.03,-0.01,-0.0,26.67,18.014671,-49.18204254517242,-346.77806904603995,9.097631559917119,0.03162277660168379,-0.30596399038373834,-0.3815006857965113
19974202,1776.0,1,195894,241066,1.63,-0.47,11.55,-0.02,-0.03,0.04,26.67,18.054702,-30.319361722930033,-612.4909996899688,11.673915367176516,0.053851648071345036,-0.18361129151587466,-0.6753462449390111
20014182,1779.0,1,195856,240124,0.85,-0.88,8.17,-0.01,0.01,0.04,26.67,18.094682,-50.30649822513935,-763.0640838058271,8.26110162145461,0.042426406871192854,-0.31325776736580024,-0.8418614084525484
20054172,1771.0,1,195939,240282,0.98,-1.12,10.34,-0.01,-0.02,0.04,26.67,18.134672,-34.00753989114614,-803.5202868427607,10.446549669627766,0.045825756949558406,-0.20753464350594075,-0.8866009533943816
20094182,1818.0,1,195792,239772,1.24,-0.99,7.95,-0.01,-0.01,0.04,26.67,18.174682,-6.224675945148549,-754.8449594055185,8.1067996151379,0.042426406871192854,-0.027321214772995633,-0.8327720758437906
20134182,1815.0,1,196134,240860,0.78,-1.77,9.48,-0.05,-0.0,0.04,26.67,18.214682,9.589347815034046,-632.0486938463702,9.675313948394646,0.06403124237432849,0.07525638303787817,-0.6969746299822177
20174179,1841.0,1,196252,240894,1.51,-0.53,8.04,-0.05,-0.03,0.0,26.67,18.254679,26.516881472483714,-444.7649114536963,8.197719194995642,0.05830951894845301,0.18505675805792005,-0.4898619854371002
20214182,1842.0,1,196705,242057,0.75,-0.95,10.39,-0.07,0.05,0.01,26.67,18.294682,36.02889240909511,-209.48965976310163,10.460262903005834,0.08660254037844388,0.24675637651208446,-0.22967672566116698
20254172,1837.0,1,196948,243192,0.96,-0.72,9.45,-0.03,0.02,0.01,26.67,18.334672,34.17645089701637,45.85217065875487,9.525885785584455,0.03741657386773942,0.2347405225285702,0.0526996824080582
20294172,1827.0,1,197369,243794,0.96,-1.45,10.38,-0.05,0.01,0.0,26.67,18.374672,22.99442779975331,289.9549834840419,10.524661514747162,0.050990195135927854,0.16220837730244542,0.3226471303891425
20334172,1822.0,1,197529,244432,1.3,-0.69,9.21,-0.01,-0.01,0.0,26.67,18.414672,29.210283881628346,497.22668771459416,9.326853703151992,0.01414213562373095,0.20252750132085331,0.5518639384550734
20374182,1840.0,1,197783,244853,1.04,-0.85,10.16,-0.03,-0.0,0.0,26.67,18.454682,42.770184444814866,646.375339812741,10.248399875102454,0.03,0.29048373860868243,0.7168038567530673
20414179,1809.0,1,197916,245453,0.98,-0.85,9.77,-0.03,0.02,0.0,26.67,18.494679,23.04841233720254,712.1004735197013,9.855749590974803,0.03605551275463989,0.16255854777483436,0.7894877062632665
20454172,1799.0,1,197883,245402,1.17,-0.95,10.96,-0.02,-0.01,-0.03,26.67,18.534672,12.140866135258406,665.8121626988219,11.063136987310607,0.03741657386773942,0.09180679576193422,0.7382985731564923
20494202,1776.0,1,197989,245869,0.55,-1.26,11.04,-0.02,0.03,0.0,26.67,18.574702,-3.833539464991404,494.859913438955,11.125273030357501,0.03605551275463989,-0.011811118171899091,0.5492465795305232
20534858,1728.0,1,197665,245722,1.46,-1.1,10.41,0.01,-0.05,-0.04,26.67,18.615358,-49.13962004195102,227.96343641170202,10.569280959459824,0.06480740698407861,-0.3056888169971565,0.254092164819963
20573181,1719.0,1,197447,245300,0.52,-1.48,11.14,-0.05,0.03,-0.01,26.67,18.653681,-52.319692970019275,-60.25161039046734,11.249906666279504,0.05916079783099616,-0.32631634650966224,-0.06463794506074803
20613181,1728.0,1,197140,244642,1.08,-0.19,10.42,-0.04,-0.06,-0.04,26.67,18.693681,-42.019330146580145,-280.1649258057034,10.477542650831825,0.0824621125123532,-0.25950308689706786,-0.3078348078346803
20653202,1721.0,1,197253,244861,0.8,-1.05,10.87,-0.06,0.02,-0.0,26.67,18.733702,-40.38762018305045,-375.04717163986766,10.949858446573636,0.06324555320336758,-0.24891900716371274,-0.4127628085618935
20693181,1754.0,1,197263,244182,0.82,-0.12,10.17,-0.07,-0.01,-0.01,26.67,18.773681,-9.392558720069587,-347.0630942451294,10.20371010956309,0.07141428428542851,-0.047869672908997137,-0.3818158883302878
20733202,1767.0,1,197581,244386,0.81,-0.6,11.34,-0.04,0.01,0.01,26.67,18.813702,14.120975423998248,-239.33410836837106,11.384713435128702,0.042426406871192854,0.1046507662353658,-0.26268098580937504
20773172,1786.0,1,197586,244208,1.24,-0.89,8.1,-0.03,-0.05,0.01,26.67,18.853672,30.052449399815785,-91.89208034395826,8.242554215775593,0.05916079783099616,0.20799020437004995,-0.09962838215571232
20813179,1773.0,1,197890,244512,1.13,-1.6,9.28,-0.06,-0.01,0.04,26.67,18.893679,27.255021082006433,87.05041335958973,9.484476791051787,0.07280109889280519,0.18984469749333055,0.09825983122271217
20853181,1744.0,1,198004,244452,1.07,-1.46,8.1,-0.07,-0.04,0.01,26.67,18.933681,-5.2064735221060845,309.0002446035525,8.29978915394843,0.08124038404635961,-0.020716649089726348,0.3437088280231841
20893182,1744.0,1,198327,244859,0.97,-1.45,8.91,-0.11,-0.06,0.04,26.67,18.973682,5.469228014375968,566.3907872902531,9.079179478344946,0.13152946437965904,0.048531243487459165,0.6283508578652238
20933186,1777.0,1,198701,245793,0.79,-1.13,10.31,-0.07,-0.01,0.03,26.67,19.013686,33.26197234674274,806.9242586797589,10.401783500919446,0.07681145747868609,0.2288087613045339,0.8943510567326654
20973181,1763.0,1,198753,246307,0.93,-0.42,9.42,-0.05,0.0,0.0,26.67,19.053681,31.067902843104157,949.3307257177172,9.475109498048031,0.05,0.21457693880784484,1.0518349542263568
21013172,1757.0,1,198796,246259,0.62,-0.87,10.0,-0.06,-0.0,0.0,26.67,19.093672,18.991476906846835,931.687133459775,10.056903101849992,0.06,0.13624325337344878,1.0323233285792601
21053179,1690.0,1,198636,245997,0.59,-1.2,10.31,-0.02,0.03,0.01,26.67,19.133679,-37.00039021454434,754.2156148233393,10.396355130525313,0.03741657386773942,-0.22694775439013357,0.8360618312587736
21093172,1632.0,1,198345,245990,1.28,-0.88,10.49,-0.02,-0.01,-0.04,26.67,19.173672,-99.75561058392255,481.1597132512264,10.604381170063627,0.045825756949558406,-0.634009224209786,0.5340958566252761
21133201,1617.0,1,197933,245934,0.9,-1.3,9.96,-0.03,-0.02,-0.04,26.67,19.213701,-105.50513342584856,197.883385569525,10.084721116619935,0.053851648071345036,-0.6713034796521282,0.2208273578068675
21173202,1610.0,1,197750,245773,0.67,-1.5,10.33,-0.03,0.01,-0.03,26.67,19.253702,-116.33518732115535,-44.33967856630761,10.459818354063325,0.04358898943540673,-0.7415525781478572,-0.04704132116827664
21213182,1584.0,1,197676,245490,1.33,-0.63,10.35,-0.03,-0.03,-0.04,26.67,19.293682,-132.79592004269716,-251.56540748941362,10.454104457102005,0.05830951894845301,-0.8483250508839872,-0.2762072862440281
21253203,1617.0,1,197438,244288,0.63,-1.16,9.96,-0.05,0.01,-0.0,26.67,19.333703,-105.30376045029166,-460.24335589463846,10.047094107253102,0.050990195135927854,-0.6699972747032863,-0.5069792260259661
21293182,1625.0,1,197096,243653,0.79,-0.97,10.58,-0.01,0.02,0.0,26.67,19.373682,-84.21276167197267,-685.4957609423745,10.653703581384269,0.022360679774997897,-0.5331906008977667,-0.7560804600119876
21333172,1649.0,1,196972,242754,1.01,-0.88,9.61,-0.03,-0.01,-0.0,26.67,19.413672,-70.53106934038307,-890.5552044065773,9.702917087144463,0.03162277660168379,-0.4444443618225758,-0.9828507819386042
21373199,1674.0,1,196772,243229,0.8,-1.6,9.95,-0.0,0.02,0.01,26.67,19.453699,-25.521169980726324,-1002.2342249385811,10.109525211403351,0.022360679774997897,-0.1524878412027113,-1.1063539330768877
21413172,1728.0,1,196829,242986,0.96,-1.05,8.95,0.01,0.01,0.01,26.67,19.493672,10.90149730903785,-957.2613710751491,9.062372757727415,0.017320508075688773,0.0837676351458053,-1.0566195322793477
21453151,1712.0,1,197164,244209,0.88,-1.39,9.59,-0.03,0.03,0.0,26.67,19.533651,22.906199841540353,-742.1064720157997,9.73008735829232,0.042426406871192854,0.16163608702702353,-0.81868488806339
21493172,1728.0,1,197493,244349,0.7,-0.87,9.66,-0.01,0.01,-0.04,26.67,19.573672,15.829347156155173,-399.76732092423987,9.724325169388361,0.042426406871192854,0.1157321122046244,-0.4401002289537016
21533179,1683.0,1,197796,246148,0.93,-1.42,10.21,-0.01,0.0,0.01,26.67,19.613679,2.2753221988416588,-5.896394142144766,10.350140095670204,0.01414213562373095,0.02781398700928207,-0.004527814657635209
21573858,1715.0,1,198208,247022,1.24,-0.94,9.15,0.01,-0.03,-0.04,26.71,19.654358,12.681913623639485,363.5782602208501,9.28136304644959,0.05099019513592785,0.09531629799244667,0.40406534690650525
21612181,1711.0,1,198625,248010,0.86,-1.37,10.33,-0.02,-0.03,-0.04,26.71,19.692681,36.052216915404045,653.223678964438,10.455878729212577,0.053851648071345036,0.24690767082298082,0.7243772708219692
21652205,1761.0,1,198734,248153,0.76,-0.91,8.91,-0.01,-0.05,-0.04,26.71,19.732705,71.89143172454456,830.9799738882398,8.988537144608125,0.06480740698407861,0.47937858513929266,0.9209536954107252
21692202,1775.0,1,198789,248337,0.67,-0.91,11.02,-0.02,-0.02,-0.04,26.71,19.772702,106.5909619594403,878.5435769876844,11.077788587980907,0.048989794855663564,0.7044569403156284,0.9735531436713648
21732204,1803.0,1,198736,247818,0.83,-0.83,10.44,-0.02,-0.01,-0.04,26.71,19.812704,126.16534973108823,780.9218438217632,10.505779361856025,0.045825756949558406,0.8314261232815584,0.8655956095871821
21772202,1782.0,1,198615,248151,0.81,-0.9,11.54,-0.03,-0.03,-0.01,26.71,19.852702,123.93212339901861,526.8188995255517,11.603348654591052,0.04358898943540673,0.8169403101839153,0.5845892559801986
21812202,1743.0,1,198242,246938,0.89,-0.92,9.89,-0.02,-0.05,-0.04,26.71,19.892702,76.2453042755635,122.12758838270088,9.972492165953303,0.0670820393249937,0.5076199609100008,0.13705083805413273
21852202,1697.0,1,197607,245719,0.77,-1.11,9.83,-0.04,-0.04,0.0,26.71,19.932702,50.57411248407148,-394.13112860690387,9.922393864385752,0.0565685424949238,0.341103884619303,-0.43386729900592413
21892181,1702.0,1,197231,244637,1.21,-0.85,10.88,-0.01,-0.04,0.01,26.71,19.972681,47.22492575048285,-944.9881401537281,10.980027322370379,0.042426406871192854,0.3193793991270919,-1.0430468604720322
21932182,1681.0,1,196792,243770,1.43,-0.66,9.63,-0.03,-0.06,0.04,26.71,20.012682,41.63775595838161,-1426.632230335347,9.757940356448179,0.07810249675906654,0.2831382460514115,-1.575685511681505
21972182,1758.0,1,196718,241840,0.4,-1.64,9.84,-0.06,0.01,0.04,26.71,20.052682,120.07542970291966,-1732.8886235685577,9.983746791660934,0.07280109889280519,0.7919238829394933,-1.9143671140126042
22012172,1852.0,1,196384,241088,1.14,-0.22,8.85,-0.03,-0.05,0.04,26.71,20.092672,214.4224410164483,-1789.4132349852339,8.925833294432515,0.07071067811865475,1.4039053702535957,-1.9768763265179732
22052181,1845.0,1,196869,241818,1.13,-1.07,10.02,-0.03,-0.03,0.04,26.71,20.132681,223.83266504321185,-1588.2103449558504,10.140128204317735,0.05830951894845301,1.46494474835027,-1.7543708745684072
22092182,1805.0,1,197106,241999,1.41,-0.42,8.85,0.0,-0.07,0.01,26.71,20.172682,170.18585557927253,-1200.7495300765338,8.971454731536017,0.07071067811865477,1.1169649471004326,-1.3258872493338039
22132172,1735.0,1,197953,243525,0.88,-1.65,10.29,-0.06,0.0,0.04,26.71,20.212672,122.28099046777693,-748.9401680196306,10.458537182608282,0.07211102550927978,0.8062302434531669,-0.8262421086261578
22172172,1755.0,1,198257,243652,1.25,-0.71,9.22,-0.05,-0.06,-0.0,26.71,20.252672,127.82240349100722,-341.37615466621287,9.331398608997475,0.07810249675906655,0.8421745954423214,-0.37552683820266836
22212202,1744.0,1,198688,244256,1.15,-1.09,9.38,-0.09,-0.03,0.03,26.71,20.292702,130.38628256706608,-16.743355783222338,9.512885997424757,0.09949874371066199,0.8588051861564865,-0.016523209464713303
22252182,1793.0,1,198959,244520,0.68,-1.21,9.62,-0.06,-0.01,0.02,26.71,20.332682,172.85197143901317,261.0916297766986,9.719614189874,0.06403124237432849,1.134258696276797,0.290727839565364
22292182,1791.0,1,199191,245062,1.22,-0.42,10.11,-0.05,-0.04,0.01,26.71,20.372682,173.97420949028978,551.4858426799394,10.192001766090899,0.06480740698407861,1.141538088619798,0.6118678369885516
22332182,1568.0,1,199827,245743,0.41,-0.41,11.21,-0.05,0.05,0.04,26.71,20.412682,-53.816294627958456,872.3069088443641,11.224985523375967,0.08124038404635961,-0.33602404679386866,0.9666561619049185
22372172,1359.75,1,199977,246104,1.48,-0.5,9.51,-0.06,-0.03,0.04,26.71,20.452672,-260.04779985434897,1176.7655299582011,9.637452983024094,0.07810249675906654,-1.6737438276575052,1.3033496511534217
22412182,1359.75,1,200517,246084,0.92,-0.96,10.03,-0.1,0.01,0.03,26.71,20.492682,-271.6841310230195,1389.416308782557,10.117751726544785,0.10488088481701516,-1.749222840255134,1.5385150488414496
22452172,1359.75,1,200382,245987,0.89,-0.98,8.88,-0.04,-0.0,0.03,26.71,20.532672,-268.09641400902103,1467.1382870810296,8.978134550116746,0.05,-1.7259511291143057,1.624465921143485
22492182,1359.75,1,200576,246066,0.64,-1.24,9.38,-0.06,0.01,0.03,26.71,20.572682,-282.83666522532934,1430.1661732349933,9.4832272987628,0.06782329983125268,-1.8215637058896588,1.5835793469017247
22532172,1359.75,1,200308,245929,0.82,-1.17,9.25,-0.03,0.03,0.01,26.71,20.612672,-286.33621084838956,1335.866789948068,9.359690165812115,0.04358898943540673,-1.8442634936784517,1.4792959198905198
22572172,1359.75,1,200250,246147,1.25,-1.43,9.47,-0.05,-0.02,0.0,26.71,20.652672,-294.69817151963736,1220.170318376021,9.658586853158178,0.05385164807134505,-1.8985033159813176,1.3513499659713246
22612872,1359.75,1,200107,246360,0.95,-1.04,8.72,-0.02,-0.01,0.01,26.65,20.693372,-311.48159243235756,1063.5716737476612,8.83303458614309,0.024494897427831782,-2.0073689042960616,1.1781712795586488
22651181,1359.75,1,200171,246318,1.2,-1.41,10.15,-0.04,-0.0,-0.0,26.65,20.731681,-312.5581595359667,819.059928955692,10.317490004841295,0.04,-2.014352052231408,0.9077716035203536
22691205,1438.0,1,199810,245118,0.87,-1.84,9.93,-0.04,0.01,0.0,26.65,20.771705,-258.81415738489665,479.65953631348003,10.136439217003177,0.04123105625617661,-1.6657418110301803,0.5324368469187615
22731172,1517.0,1,198984,243014,1.18,-0.87,9.15,-0.03,-0.01,-0.0,26.65,20.811672,-182.86793133319833,118.25447497473016,9.266703836855909,0.03162277660168379,-1.1731169389973042,0.13276765479982366
22771219,1606.0,1,199147,244199,0.4,-1.96,11.06,-0.05,0.05,0.0,26.65,20.851719,-114.49268187781932,-147.46083662996082,11.239448385040967,0.07071067811865477,-0.7296011744319515,-0.16108053739009595
22811172,1676.0,1,198685,244472,1.34,-0.98,8.12,0.01,-0.06,-0.04,26.65,20.891672,-58.598402537019304,-240.8970134883538,8.287967181402204,0.07280109889280519,-0.3670431693918088,-0.264409365108625
22851184,1730.0,1,199069,245381,0.37,-1.97,10.58,-0.06,0.04,0.0,26.65,20.931684,-15.087133171966697,-188.87527518530842,10.768203192733688,0.07211102550927978,-0.08480750585329482,-0.20687977201664334
22891172,1787.0,1,199037,245989,1.09,-1.16,9.62,0.02,-0.03,-0.03,26.65,20.971672,16.678266020684642,-106.0476350350047,9.750799967182179,0.04690415759823429,0.1212386208061242,-0.11528267068838753
22931184,1797.0,1,198977,246203,0.83,-1.27,10.93,-0.01,-0.03,0.0,26.65,21.011684,23.23194571990014,-114.71387987250209,11.034794968643505,0.03162277660168379,0.16374903628052548,-0.1248664630682651
22971181,1840.0,1,198767,246089,0.85,-1.35,9.49,0.0,0.02,-0.03,26.65,21.051681,37.2060206138504,-263.966831934826,9.623154368501007,0.03605551275463989,0.254391813601995,-0.289921724195898
23011172,1883.0,1,198381,245772,1.04,-1.5,10.79,-0.0,-0.01,-0.04,26.65,21.091672,77.26694294933957,-505.41289846680814,10.9432947506681,0.04123105625617661,0.5142468158190279,-0.5569311401505993
23051202,1947.0,1,198164,245234,0.78,-1.06,9.7,-0.01,-0.02,-0.04,26.65,21.131702,115.07535863514548,-732.8462035222683,9.788871232169722,0.045825756949558406,0.7594909432402801,-0.8084441791648915
23091205,1973.0,1,198076,245419,1.31,-1.55,10.91,0.0,-0.06,0.01,26.65,21.171705,136.1776666016756,-848.0048181067642,11.097148282329114,0.0608276253029822,0.8963709740469957,-0.9357953299374631
23131172,2018.0,1,198060,245440,0.59,-1.36,9.04,-0.02,-0.03,0.01,26.65,21.211672,158.76153803730526,-808.5162482598137,9.160747786070742,0.03741657386773942,1.0428611599900166,-0.8921258673400094
23171184,2063.0,1,198089,245717,1.3,-0.89,10.81,-0.03,-0.05,0.0,26.65,21.251684,199.70635058873282,-640.431320315946,10.924202488053762,0.05830951894845301,1.3084495123306141,-0.7062447756091765
23210181,2097.0,1,198231,245756,0.86,-0.98,10.31,-0.03,-0.04,0.0,26.65,21.290681,212.49630276100336,-422.9732967909499,10.392117204881785,0.05,1.3914114826579136,-0.4657631612674421
23250184,2067.0,1,198223,245993,1.36,-1.33,10.19,-0.02,-0.07,0.0,26.65,21.330684,182.78885850249625,-256.7110107322284,10.366031063044332,0.07280109889280519,1.1987142719195059,-0.281897685496884
23290182,2085.0,1,198266,245258,1.08,-1.02,9.41,-0.04,-0.09,-0.0,26.65,21.370682,179.80959080393356,-219.78745882435706,9.526536621459028,0.09848857801796104,1.1793892646734965,-0.24106481473819683
23330205,2099.0,1,198352,245073,1.16,-1.17,9.79,-0.03,-0.05,0.0,26.65,21.410705,198.3606552943693,-322.8196637520904,9.927668407032941,0.05830951894845301,1.2997206655314353,-0.355005659819784
23370182,2094.0,1,197857,242945,1.3,-0.87,9.04,-0.04,-0.09,-0.0,26.65,21.450682,175.69451413835645,-490.70814333451784,9.174339213262172,0.09848857801796104,1.152696837397315,-0.5406695040178373
23410204,2061.0,1,197480,242950,1.2,-0.97,9.49,-0.02,-0.04,-0.01,26.65,21.490704,147.2239289564585,-598.8407695497326,9.614624277630405,0.0458257569495584,0.9680225077948641,-0.6602507827111808
23450202,2063.0,1,197598,243731,1.08,-0.63,8.69,-0.02,-0.04,-0.0,26.65,21.530702,140.7473612351929,-552.6941420235685,8.779487456566015,0.044721359549995794,0.9260122788372215,-0.6092183337629677
23490205,2039.0,1,197775,244556,1.31,-1.29,9.38,-0.02,-0.05,-0.0,26.65,21.570705,115.86974967817468,-354.3401804094933,9.558483143260755,0.05385164807134505,0.7646437573597064,-0.38986344344066054
23530202,2005.0,1,197952,245242,1.01,-0.8,9.35,-0.01,-0.05,-0.0,26.65,21.610702,86.2039032620502,-100.51251269639944,9.438357908026163,0.050990195135927854,0.5722163708488597,-0.10916151160678765
23570205,1974.0,1,197989,245494,1.02,-1.05,9.97,0.01,-0.03,0.0,26.65,21.650705,48.839669712009446,88.23532933898201,10.07689436284811,0.03162277660168379,0.32985342896066666,0.09957020139422632
23610172,1904.0,1,198044,245704,1.1,-1.13,9.24,0.01,-0.04,0.01,26.65,21.690672,-8.686803377905173,151.1155807898318,9.373606563111128,0.042426406871192854,-0.04329179388596847,0.16910796382761098
23650860,1862.0,1,197855,245042,1.13,-1.49,9.17,-0.01,-0.04,0.0,26.59,21.73136,-54.176845445400474,119.46058377982416,9.358733888726615,0.04123105625617661,-0.33836275813658656,0.1341014616091523
23691182,1841.0,1,197743,244888,0.48,-1.67,10.21,-0.01,0.05,0.0,26.59,21.771682,-65.5386720972704,76.90009733601057,10.356804526493683,0.050990195135927854,-0.4120611983543673,0.08703484010092674
23731172,1857.0,1,197485,244639,1.16,-1.56,9.78,-0.02,-0.04,-0.01,26.59,21.811672,-40.95724145985431,83.77383979147196,9.97133892714514,0.0458257569495584,-0.2526138531512103,0.09463634707438023
23771202,1867.0,1,197695,244998,0.62,-1.4,10.05,-0.01,0.02,-0.0,26.59,21.851702,-29.757066194869076,130.52023506276936,10.16596773553802,0.022360679774997897,-0.17996396396641715,0.14633206479162617
23811182,1862.0,1,197751,244639,0.78,-1.89,9.67,-0.03,0.0,0.0,26.59,21.891682,-16.201594450920236,159.76480767221224,9.883794817781276,0.03,-0.09203645419572276,0.1786729364589551
23851172,1866.0,1,197570,244600,1.19,-1.59,10.59,-0.01,-0.02,0.0,26.59,21.931672,-11.333217941353773,134.53870161376085,10.77461368216977,0.022360679774997897,-0.06045775068778974,0.15077599060174746
23891183,1778.0,1,197360,243321,0.86,-1.06,9.88,-0.01,0.0,-0.0,26.59,21.971683,-84.85375245393037,85.29043155564928,9.97384579788559,0.01,-0.5373483848766732,0.09631350954387549
23931182,1743.0,1,197275,243465,1.08,-1.5,10.68,-0.01,-0.01,0.0,26.59,22.011682,-105.82464941553631,87.57462477508886,10.83876376714614,0.01414213562373095,-0.6733760187592754,0.09883954405837633
23971183,1802.0,1,197336,243412,0.89,-1.35,9.69,-0.01,-0.01,0.0,26.59,22.051683,-47.05553202691529,190.15730729567608,9.823985952758687,0.01414213562373095,-0.2921703889581734,0.21228327308785863
24011183,1778.0,1,197503,244403,0.92,-1.19,10.42,-0.01,-0.03,0.01,26.59,22.091683,-41.821934187716934,362.85276689055905,10.528005509117099,0.033166247903554,-0.25822267885008204,0.4032630412273014
24051185,1766.0,1,197859,244786,0.44,-1.5,10.05,-0.02,0.03,0.0,26.59,22.131685,-64.16814634652863,515.4002757893146,10.170845589232,0.03605551275463989,-0.40317128890557735,0.5719616737685194
24091172,1715.0,1,197705,244478,0.63,-1.2,10.58,-0.03,-0.02,0.0,26.59,22.171672,-82.10455479029791,571.0115007393972,10.666456768768155,0.03605551275463989,-0.5195157259329872,0.6334607940802607
24131183,1714.0,1,197573,244691,0.24,-1.29,11.23,-0.03,0.03,-0.0,26.59,22.211683,-91.80593183857006,526.962614352179,11.306396419726314,0.042426406871192854,-0.5824436668644363,0.5847481867611922
24171182,1689.0,1,197440,245141,0.49,-1.37,10.45,-0.02,-0.03,-0.04,26.59,22.251682,-90.43159314938153,448.96665115544863,10.550805656441597,0.053851648071345036,-0.5735290248066405,0.4984943211293627
24210205,1695.0,1,197504,245233,0.61,-1.85,10.98,-0.05,-0.02,-0.04,26.59,22.290705,-86.87455504567738,409.46477385044983,11.151457303868407,0.0670820393249937,-0.5504563122868571,0.4548101421331193
24250202,1703.0,1,197519,245140,1.13,-0.86,11.26,-0.07,-0.08,-0.04,26.59,22.330702,-59.59234971326892,428.6915917848396,11.34918939836674,0.11357816691600547,-0.3734904035199944,0.4760726190956453
24290205,1719.0,1,197601,244678,1.2,-0.89,11.23,-0.05,-0.06,-0.01,26.59,22.370705,-43.96327532189931,468.07567243825156,11.328945228925772,0.07874007874011811,-0.27211247900272223,0.519626529599246
24330202,1683.0,1,197699,244280,0.72,-0.79,9.32,-0.06,-0.04,-0.0,26.59,22.410702,-63.18828545201688,474.3874535083607,9.381092686888879,0.07211102550927978,-0.39681542538392867,0.5266065769504856
24370205,1663.0,1,197588,243636,0.96,-1.21,9.07,-0.08,-0.05,-0.0,26.59,22.450705,-85.53337036131296,430.03334898855957,9.200576068920903,0.09433981132056604,-0.541756723540239,0.4775564362166454
24410202,1673.0,1,197535,243380,0.99,-0.93,8.62,-0.08,-0.03,-0.01,26.59,22.490702,-60.450938667895606,364.9580128885325,8.72636235782127,0.08602325267042626,-0.37905963711975077,0.4055911823001045
24450205,1757.0,1,197555,243714,1.41,-0.59,8.79,-0.07,-0.03,-0.0,26.59,22.530705,20.669926980802888,323.82819557773354,8.921900021856331,0.07615773105863909,0.14713051263414356,0.3601067034836923
24490202,1779.0,1,197673,244261,1.4,-0.55,8.97,-0.05,-0.01,-0.01,26.59,22.570702,52.7538726962055,322.32754243150777,9.095240513587314,0.05196152422706632,0.35524288995755265,0.358447167149638
24530205,1754.0,1,197816,244515,1.02,-0.81,8.84,-0.02,-0.01,-0.0,26.59,22.610705,27.256083572737865,332.96058471289507,8.93544067184154,0.022360679774997897,0.18985158933493768,0.3702059936658645
24570202,1754.0,1,197819,244740,1.01,-1.36,8.43,0.0,-0.03,0.0,26.59,22.650702,30.95343516714615,310.6911553790939,8.598523129003025,0.03,0.2138344447149543,0.34557876570779333
24610172,1744.0,1,197849,245261,1.03,-1.65,8.61,-0.0,-0.03,0.01,26.59,22.690672,22.052872273874126,232.41795947312843,8.826975699524723,0.03162277660168379,0.156100981391392,0.25901831506988093
24650869,1698.0,1,197845,245559,0.97,-1.6,8.83,-0.03,-0.02,0.01,26.67,22.731369,-23.779980748730594,113.99818474830741,9.026062264354263,0.03741657386773942,-0.1411936246604301,0.12806072548921382
24689184,1677.0,1,197851,245497,0.67,-1.65,10.18,-0.02,0.03,0.0,26.67,22.769684,-45.95119711497908,-10.211191701586001,10.334592396413125,0.03605551275463989,-0.28500712525230226,-0.00929944582503121
24729172,1682.0,1,197736,245960,0.61,-1.65,10.75,-0.0,0.01,0.01,26.67,22.809672,-39.43681211747092,-127.28990399349459,10.89298398052618,0.01414213562373095,-0.2427515946932748,-0.13877398661507612
24769172,1721.0,1,197707,246525,0.43,-1.51,10.37,0.01,0.04,0.0,26.67,22.849672,-8.575408464472227,-267.9603967186776,10.48817906025636,0.04123105625617661,-0.042569231254118094,-0.29433811173879565
24809150,1747.0,1,197944,247115,0.13,-1.45,11.18,0.0,0.05,-0.0,26.67,22.88965,25.241654882781862,-485.3055728391549,11.274386901290907,0.05,0.17678500621159182,-0.5346949308415545
24849172,1779.0,1,197708,246283,0.42,-0.86,10.98,-0.01,0.01,-0.04,26.67,22.929672,39.03140294740395,-803.1501862695512,11.021633272795825,0.042426406871192854,0.2662321483391782,-0.8861916680441725
24889181,1781.0,1,197251,245705,0.27,-0.9,11.94,-0.01,0.01,-0.0,26.67,22.969681,56.09732639902711,-1181.3785949492035,11.976915295684444,0.01414213562373095,0.3769301881700951,-1.3044653966230255
24929184,1781.0,1,196990,245149,0.54,-0.76,10.77,-0.02,-0.01,-0.0,26.67,23.009684,31.963648504195625,-1534.6789749230704,10.810277517251812,0.022360679774997897,0.2203871892259342,-1.6951718159421436
24969202,1722.0,1,197135,245098,0.29,-0.88,11.3,-0.01,0.01,-0.0,26.67,23.049702,-13.246517000919354,-1788.7488851565884,11.337923090231298,0.01414213562373095,-0.07286835689404822,-1.9761416379712342
25009184,1719.0,1,197177,244760,0.08,-0.82,10.02,-0.02,0.0,-0.01,26.67,23.089684,-32.98196319797623,-1920.2398142303875,10.053815196232721,0.022360679774997897,-0.20088224465087706,-2.1215543037463696
25049181,1673.0,1,197229,245062,0.57,-0.29,10.13,-0.04,-0.05,-0.01,26.67,23.129681,-79.91146302912657,-1946.7572160976658,10.150167486302875,0.06480740698407861,-0.5052902455586502,-2.150879262677851
25089205,1680.0,1,197589,244767,0.25,-0.51,10.13,-0.06,-0.01,-0.01,26.67,23.169705,-71.60542968359674,-1885.951858830257,10.145910506208894,0.06164414002968976,-0.4514131956160095,-2.083636075973307
25129202,1756.0,1,197769,245686,0.86,-0.22,9.79,-0.02,-0.09,0.01,26.67,23.209702,-13.475854999563966,-1729.7629683056214,9.830162765692132,0.09273618495495703,-0.07435595684612052,-1.910910526799485
25169184,1751.0,1,198187,245680,0.55,-1.19,9.38,-0.09,-0.06,0.01,26.67,23.249684,-5.661322354223596,-1457.915478945796,9.47116677078384,0.10862780491200215,-0.023667024103274262,-1.6102809062581038
25209182,1821.0,1,198749,246728,0.7,0.0,8.83,-0.06,-0.07,0.04,26.67,23.289682,44.77975415459855,-1071.1040736308635,8.85770286248077,0.1004987562112089,0.30351880397782194,-1.1825154474902075
25250172,1876.0,1,199448,246843,0.56,-0.73,9.18,-0.1,-0.07,0.01,26.67,23.330672,105.83841625181182,-603.1083010871952,9.225990461733634,0.12247448713915891,0.6995755557861719,-0.6649701435181427
25290182,1852.0,1,200292,247792,0.78,0.04,9.2,-0.07,-0.05,0.04,26.67,23.370682,77.66043453976263,-94.30736593141336,9.233092656309694,0.09486832980505139,0.5167991973454809,-0.10229938857687003
25330172,1827.0,1,200918,248042,0.66,-0.91,8.8,-0.1,-0.05,0.0,26.67,23.410672,41.78783900095717,444.86252692865537,8.871510581631519,0.1118033988749895,0.28411175906827635,0.4939556685493404
25370182,1828.0,1,201406,248914,0.73,-0.51,8.59,-0.06,-0.04,0.04,26.67,23.450682,56.090059163514496,1033.3169945012519,8.636034969822667,0.0824621125123532,0.37688304927787425,1.1447133551802846
25410182,1856.0,1,202257,249809,0.56,-0.94,9.47,-0.08,0.01,0.0,26.67,23.490682,62.7099226925046,1671.11123056119,9.533000576943232,0.0806225774829855,0.4198227658824089,1.8500347087881772
25450171,1821.0,1,202980,250587,0.59,-0.4,9.06,-0.03,-0.02,-0.0,26.67,23.530671,46.8458711518234,2291.2065848561883,9.08799757922503,0.03605551275463989,0.3169206630862652,2.5357832934088314
25490202,1870.0,1,203933,250923,0.03,-0.63,9.07,-0.05,0.06999999999999999,0.02,26.67,23.570702,77.62346166114656,2770.466322186407,9.091902991123476,0.08831760866327847,0.5165593729257061,3.0657851459682917
25530171,1897.0,1,204350,250281,0.87,-0.69,10.46,0.01,0.02,0.04,26.67,23.610671,118.25671463090875,3001.289324514052,10.518773692783775,0.045825756949558406,0.7801267953659284,3.3210467699229373
25570151,1903.0,1,203954,249205,0.77,-0.99,9.03,0.01,0.04,0.04,26.67,23.650651,115.43677671854385,2957.449708175457,9.116682510650461,0.05744562646538029,0.7618352800999325,3.272565589333085
25610152,1878.0,1,203772,249554,0.62,-1.44,8.9,-0.01,0.0,-0.0,26.67,23.690652,98.65366258106228,2690.5156235643904,9.037034911960893,0.01,0.6529716816814679,2.977369585297282
25650182,1865.0,1,203617,250221,0.88,-1.34,9.19,0.0,-0.0,-0.0,26.67,23.730682,80.80442949631743,2268.6954648187893,9.3287780550295,0.0,0.5371927072493239,2.51088878549654
25688868,1847.0,1,203430,250750,0.33,-1.25,9.51,-0.0,0.01,-0.0,26.61,23.769368,73.24664665605479,1729.967431548222,9.597473625908018,0.01,0.48816918102430495,1.9151223702961286
25729184,1808.0,1,202754,250437,0.13,-0.44,9.48,-0.03,0.03,-0.01,26.61,23.809684,26.757954323363577,1095.114305538005,9.491095827142406,0.04358898943540673,0.186620476079069,1.213053519774802
25769182,1713.0,1,201919,249956,0.15,-0.64,11.69,0.0,0.06999999999999999,-0.01,26.61,23.849682,-53.462457289847656,411.1155321196242,11.70846702177531,0.07071067811865475,-0.33372888240625803,0.4566356761236524
25809172,1679.0,1,201388,249736,0.1,-0.63,10.7,0.01,0.01,-0.01,26.61,23.889672,-94.72005136446013,-235.72900724330069,10.718997154584937,0.017320508075688773,-0.6013460907656961,-0.2586941909127385
25849172,1648.0,1,200940,249430,0.54,-0.8,10.45,-0.01,-0.01,-0.04,26.61,23.929672,-114.06299409690385,-755.6732587929132,10.494479501147257,0.042426406871192854,-0.7268140064699321,-0.8336880722766197
25889205,1659.0,1,200662,249037,0.62,-0.28,10.44,-0.0,-0.02,-0.04,26.61,23.969705,-101.76649319817395,-1103.1291417993518,10.462141272225299,0.044721359549995794,-0.6470528057281673,-1.2179312025298321
25929202,1680.0,1,200561,248709,0.32,-0.91,11.52,-0.03,-0.01,-0.04,26.61,24.009702,-78.89075611629602,-1290.42955043707,11.560315739632719,0.05099019513592785,-0.4986694345130305,-1.4250622336407057
25969206,1653.0,1,200432,248239,0.62,-0.23,10.79,-0.02,-0.07,-0.02,26.61,24.049706,-94.55732201926443,-1359.8778111674803,10.8102451406062,0.07549834435270751,-0.6002905475607124,-1.5018634000587157
26009202,1648.0,1,200486,248562,0.11,-0.75,10.08,-0.03,-0.03,0.0,26.61,24.089702,-104.02758450713681,-1344.5805048812144,10.108461801876684,0.042426406871192854,-0.661719364879826,-1.4849464758120536
26049213,1653.0,1,200524,248490,0.32,-0.19,9.56,-0.03,-0.04,-0.0,26.61,24.129713,-85.79327826147427,-1253.5330467707315,9.567240981599658,0.05,-0.543442615028384,-1.3842592748838083
26089203,1682.0,1,200807,249370,0.28,-0.96,11.08,-0.04,-0.02,-0.0,26.61,24.169703,-58.305101080078416,-1090.336566305406,11.125034831406147,0.044721359549995794,-0.3651406707397467,-1.2037842000118082
26129204,1695.0,1,200716,249057,0.34,0.01,8.7,-0.01,-0.08,-0.0,26.61,24.209704,-38.85127540020368,-883.3976278590493,8.706646886143941,0.0806225774829855,-0.23895351326895267,-0.9749353896480722
26169183,1724.0,1,201098,249662,0.29,-1.19,10.44,-0.08,-0.01,0.0,26.61,24.249683,-3.302247015109847,-693.3898471453616,10.511603112751166,0.0806225774829855,-0.00836489195709322,-0.7648103406715943
26209182,1773.0,1,201284,249244,0.17,0.0,8.81,-0.02,-0.04,0.0,26.61,24.289682,43.50982117744371,-581.8970892012826,8.81164002896169,0.044721359549995794,0.2952813891267486,-0.6415131728633785
26249172,1766.0,1,201337,248757,0.85,-0.94,10.47,-0.07,-0.01,0.04,26.61,24.329672,49.871425867603776,-563.2361021303265,10.546421193940626,0.08124038404635961,0.33654591087244456,-0.6208764346861002
26288183,1814.0,1,200867,246645,0.56,-0.89,7.96,-0.04,-0.07,0.0,26.61,24.368683,88.66649050578039,-585.6311509421597,8.029153130934795,0.0806225774829855,0.5881899325237554,-0.6456425822130162
26328181,1856.0,1,201037,247829,0.24,-1.66,9.81,-0.07,-0.01,0.04,26.61,24.408681,150.02938415341563,-566.3530241193898,9.95235148093153,0.08124038404635961,0.9862200809890106,-0.6243233639810363
26368184,1867.0,1,201134,247046,0.44,-0.37,7.72,-0.07,-0.05,0.0,26.61,24.448684,143.5886395456572,-453.24182320765766,7.7413758467083875,0.08602325267042628,0.9444422185046576,-0.4992363988994332
26408181,1814.0,1,201455,248351,0.66,-1.15,10.45,-0.08,0.01,0.02,26.61,24.488681,117.5224189482545,-259.3667026763369,10.533783745644296,0.08306623862918075,0.7753637895457892,-0.2848345515437703
26448172,1755.0,1,201522,247573,0.53,-0.4,9.11,-0.03,-0.02,-0.0,26.61,24.528672,33.00468360992568,-47.77505479082764,9.134166628653103,0.03605551275463989,0.22713985900827333,-0.0508404213667976
