timestamp_us,ecg,leads,ir,red,accX,accY,accZ,gyroX,gyroY,gyroZ,temp,time_sec,ecg_filtered,ppg_filtered,accel_magnitude,gyro_magnitude,ecg_norm,ppg_norm
1950960,1842.5,1,183779,229486,0.39,-1.53,10.18,-0.04,0.02,-0.01,30.59,0.030472,2.804063645181265,-21.454275149296226,10.301718303273487,0.0458257569495584,0.10608318804809642,-0.08395361569178232
1991178,1842.5,1,184024,229664,0.55,-1.67,10.14,-0.04,-0.05,-0.01,30.59,0.07069,5.201396911994224,205.45271882163422,10.291307011259551,0.06480740698407861,0.19653075961857722,0.7774744681429094
2031193,1842.5,1,184201,229727,0.4,-1.0,9.62,-0.02,-0.04,-0.0,30.59,0.110705,-16.202503038815802,336.63849809808806,9.680103305233885,0.044721359549995794,-0.611004345945593,1.2755072193191646
2071193,1842.5,1,184267,229906,0.25,-1.15,9.84,-0.04,0.02,-0.01,30.59,0.150705,5.174586453830871,320.49775480921403,9.910126134414234,0.0458257569495584,0.19551924366994528,1.2142306173084585
2111176,1870.0,1,184182,229935,0.45,-1.56,10.12,-0.05,-0.03,-0.01,30.59,0.190688,1.788955794664088,176.0269062938934,10.249414617430597,0.05916079783099616,0.06778478321952293,0.6657625245952459
2151193,1842.5,1,184028,230000,0.39,-1.07,9.5,-0.02,-0.02,-0.0,30.59,0.230705,-6.793184396594058,-14.226654243260985,9.568019648809257,0.0282842712474619,-0.25600571763505975,-0.056514727542891094
2191189,1915.0,1,183856,229993,0.48,-0.98,9.82,-0.03,0.01,-0.01,30.59,0.270701,50.28465316547838,-146.92548670783722,9.880445334092993,0.033166247903554,1.89745032014269,-0.5602916229862517
2231173,1905.0,1,183884,230036,0.24,-1.8,10.15,-0.05,-0.01,-0.01,30.59,0.310685,34.6209418273207,-156.4155607338792,10.311163852834461,0.05196152422706632,1.306483402055075,-0.5963196719266474
2271193,1842.5,1,184055,230335,0.31,-1.03,9.63,-0.02,-0.04,-0.0,30.59,0.350705,-14.898886421302143,-52.314950482031826,9.689886480243203,0.044721359549995794,-0.561820964166645,-0.20111286209706825
2311193,1867.0,1,184301,230557,0.33,-1.07,10.14,-0.02,0.01,-0.01,30.59,0.390705,-19.103024181476467,91.67042129909908,10.20163712352091,0.024494897427831782,-0.7204363958296117,0.3455121702258025
2351170,1847.0,1,184403,230680,0.22,-1.77,10.04,-0.04,-0.02,-0.01,30.59,0.430682,-14.476489059379581,191.3498334175966,10.197200596242087,0.0458257569495584,-0.5458845834587331,0.7239343751843965
2391193,1915.0,1,184461,230634,0.37,-1.02,9.53,-0.02,-0.04,-0.0,30.59,0.470705,29.870104715798465,208.14671225723694,9.59156921468015,0.044721359549995794,1.1272418733061942,0.7877019254922047
2431190,1904.0,1,184398,230348,0.35,-0.93,9.84,-0.03,-0.0,-0.01,30.59,0.510702,24.01220202044845,165.3485231628882,9.890045500400895,0.03162277660168379,0.906232520695429,0.6252231874949845
2471194,1902.0,1,184276,230335,0.31,-1.55,10.02,-0.04,-0.02,-0.01,30.59,0.550706,28.428321902396863,115.54456947337042,10.143914431815757,0.0458257569495584,1.0728457006882781,0.43614781505560796
2511190,1966.5,1,184347,230389,0.3,-0.89,9.38,-0.02,-0.03,-0.0,30.59,0.590702,66.69806485525037,91.58902317481416,9.42690299090852,0.03605551275463989,2.5167022402146952,0.34520315097080556
2551193,1842.5,1,184487,230210,0.43,-0.92,10.02,-0.03,-0.01,-0.01,30.59,0.630705,-24.011982579183826,85.45635812818561,10.07133059729448,0.033166247903554,-0.9056435892389002,0.3219211453901666
2591191,1842.5,1,184476,230115,0.21,-1.73,10.07,-0.04,-0.01,-0.01,30.59,0.670703,-66.58701482774906,69.90876157471452,10.219681991138472,0.042426406871192854,-2.511931846998297,0.26289636138986694
2631193,1842.5,1,184351,230146,0.33,-0.91,9.74,-0.02,-0.02,-0.0,30.59,0.710705,-26.82960691720383,35.293707786558876,9.787982427446424,0.0282842712474619,-1.0119480745183247,0.13148401955440195
2671190,1842.5,1,184278,230264,0.28,-1.08,10.38,-0.03,0.02,-0.01,30.59,0.750702,-66.39787428161105,1.552200203339915,10.439789269903871,0.03741657386773942,-2.5047958749911845,0.0033880022635919306
2711173,1842.5,1,184354,230312,0.27,-1.7,10.07,-0.04,-0.02,-0.01,30.59,0.790685,-34.95026828816087,-4.829560007602877,10.216055990449544,0.0458257569495584,-1.3183277133933653,-0.02083966641157114
2751190,1966.5,1,184376,230553,0.31,-0.82,9.67,-0.02,-0.03,-0.0,30.59,0.830702,62.31560132882127,18.493066135245474,9.709654988721278,0.03605551275463989,2.351358860990382,0.06770218413535653
2791193,1966.5,1,184448,230645,0.38,-1.06,10.16,-0.03,0.0,-0.01,30.59,0.870705,78.75507711002297,44.965438840931974,10.222211111105073,0.03162277660168379,2.971594137781139,0.16820170993374947
2831170,1966.5,1,184450,230584,0.42,-1.49,9.86,-0.04,-0.04,-0.01,30.59,0.910682,69.75593132476051,45.642919043571624,9.980786542151876,0.05744562646538029,2.6320706790474304,0.17077369091407385
2871193,1966.5,1,184423,230497,0.33,-0.69,9.36,-0.02,-0.03,-0.0,30.59,0.950705,67.81782511278351,20.46560004686633,9.391198006644306,0.03605551275463989,2.558949013926575,0.07519069772433913
2911189,1966.5,1,184366,230457,0.52,-1.05,10.08,-0.04,0.01,-0.01,30.59,0.990701,77.06017453753286,2.232153719658167,10.147871698045853,0.042426406871192854,2.9076481592004932,0.005969372914219527
2949173,1966.0,1,184354,230476,0.25,-1.64,9.86,-0.05,-0.01,-0.01,30.59,1.028685,59.5630010809085,25.911494111376435,9.998584899874581,0.05196152422706632,2.247507631219983,0.09586545087610256
2989879,1856.0,1,184388,230538,0.3,-0.89,9.82,-0.03,-0.02,-0.0,30.890000000000008,1.069391,-30.393870533037703,89.13328229474348,9.864811199409749,0.03605551275463989,-1.1464220723358116,0.3358801939138502
3030193,1842.5,1,184516,230476,0.4,-1.17,10.18,-0.03,0.0,-0.01,30.890000000000008,1.109705,-65.88898775358494,141.7379604862523,10.254818379669139,0.03162277660168379,-2.485596395593777,0.5355882167571543
3070170,1842.5,1,184574,230428,0.35,-1.64,10.01,-0.04,-0.02,-0.01,30.890000000000008,1.149682,-45.958401732781574,119.49815938450041,10.149492598154845,0.0458257569495584,-1.733647081531686,0.45115719542688554
3110193,1842.5,1,184380,229727,0.36,-0.8,9.45,-0.02,-0.03,-0.0,30.890000000000008,1.189705,-62.83425178582536,-3.1647269445111887,9.490632223408511,0.03605551275463989,-2.3703460656135134,-0.01451930611616551
3150189,1842.5,1,184045,229292,0.44,-1.21,10.09,-0.04,0.01,-0.01,30.890000000000008,1.229701,-52.40003845241397,-186.8396044795735,10.171813997512931,0.042426406871192854,-1.976679790540285,-0.7118212933077576
3190173,1842.5,1,183897,229237,0.28,-1.45,9.66,-0.04,-0.04,-0.01,30.890000000000008,1.269685,-54.67841318373481,-350.4079834787809,9.772231065626723,0.05744562646538029,-2.0626392457517304,-1.332791113723629
3230193,1842.5,1,183917,229168,0.24,-0.68,9.43,-0.02,-0.03,-0.0,30.890000000000008,1.309705,-64.21114422691039,-423.206612372189,9.457531390378781,0.03605551275463989,-2.422294027681988,-1.6091633061183481
3270194,1842.5,1,183943,229148,0.38,-1.19,10.16,-0.04,0.01,-0.01,30.890000000000008,1.349706,-41.58487264966372,-383.55416224532433,10.236508193715277,0.042426406871192854,-1.5686407846446606,-1.4586270289663457
3310173,1842.5,1,184034,229203,0.23,-1.7,9.85,-0.04,-0.02,-0.01,30.890000000000008,1.389685,-77.79584014531204,-259.9576054438746,9.998269850329105,0.0458257569495584,-2.9348230003334637,-0.989405947540894
3350193,1842.5,1,184148,229370,0.31,-0.86,9.9,-0.02,-0.02,-0.0,30.890000000000008,1.429705,-32.12746975009716,-105.45552283516339,9.942117480697963,0.0282842712474619,-1.2118280137750537,-0.40285534969047176
3390189,1966.5,1,184228,229652,0.27,-1.35,10.27,-0.04,0.01,-0.01,30.890000000000008,1.469701,43.11680644832549,29.66876168186122,10.361867592282772,0.042426406871192854,1.6270188628518987,0.11012951452198377
3430173,1842.5,1,184342,229932,0.23,-1.7,10.0,-0.04,-0.03,-0.01,30.890000000000008,1.509685,-38.28043303629856,112.45032504130344,10.146078060019054,0.05099019513592785,-1.4439695332305802,0.42440084769517
3470196,1842.5,1,184362,229989,0.3,-0.79,9.69,-0.01,-0.03,0.0,30.890000000000008,1.549708,-67.09503480608468,131.4165309546557,9.726777472523981,0.03162277660168379,-2.5310986328539955,0.4964040157405162
3510178,1842.5,1,184296,230138,0.39,-1.27,10.25,-0.04,0.02,-0.01,30.890000000000008,1.58969,-56.89366443322546,97.29654193948664,10.335738967292082,0.0458257569495584,-2.1462171523818205,0.36687113425708645
3550170,1842.5,1,184244,230203,0.32,-1.58,9.77,-0.04,-0.03,-0.01,30.890000000000008,1.629682,-49.094623407704916,40.64701388917715,9.902105836638992,0.05099019513592785,-1.8519717376528715,0.15180727243196557
3590193,1966.5,1,184147,230315,0.25,-0.79,9.49,-0.01,-0.02,-0.0,30.890000000000008,1.669705,54.15361804648937,1.6339019394271166,9.526106234973447,0.022360679774997897,2.0434202121152527,0.0036981741482566334
3630190,1966.5,1,184190,230300,0.3,-1.03,10.15,-0.03,0.01,-0.01,30.890000000000008,1.709702,80.29739375121336,11.03328539050261,10.20653712088483,0.033166247903554,3.0297832918380814,0.03938192604056183
3670173,1966.5,1,184216,230260,0.27,-1.73,10.03,-0.04,-0.02,-0.01,30.890000000000008,1.749685,56.594082471316575,70.51310455966798,10.181684536460555,0.0458257569495584,2.1354950536842003,0.2651906847617331
3710190,1966.5,1,184208,230277,0.3,-0.82,9.86,-0.02,-0.03,-0.0,30.890000000000008,1.789702,73.27105258418896,145.74254267901733,9.898585757571633,0.03605551275463989,2.7646906139110294,0.5507911838605573
3750193,1966.5,1,184301,230285,0.34,-1.16,10.26,-0.03,0.0,-0.01,30.890000000000008,1.829705,65.85160016241082,181.96241139425987,10.330963169037048,0.03162277660168379,2.4847664735245383,0.6882960335705345
3790171,1966.5,1,184324,230266,0.31,-1.71,9.87,-0.04,-0.01,-0.01,30.890000000000008,1.869683,66.64303098979366,137.81854494448658,10.02183117000082,0.042426406871192854,2.5146258999938325,0.5207085757165273
3830193,1966.5,1,184157,229453,0.48,-0.82,9.57,-0.02,-0.05,-0.01,30.890000000000008,1.909705,69.97530843660573,16.633234575445147,9.617052563025743,0.05477225575051661,2.6403474285921127,0.060641532946176656
3870190,1966.5,1,183838,228867,0.29,-0.94,9.8,-0.03,0.01,-0.01,30.890000000000008,1.949702,67.85526809955103,-129.81981551111625,9.849248702312273,0.033166247903554,2.560361678270056,-0.49535177558963345
3910173,1966.5,1,183850,228878,0.49,-1.44,9.96,-0.04,-0.04,-0.01,30.890000000000008,1.989685,67.52863145334703,-231.43765546554414,10.075480137442582,0.05744562646538029,2.5480381970736548,-0.8811330140761725
3950193,1966.5,1,183822,229131,0.5,-0.73,9.64,-0.02,-0.05,-0.0,30.890000000000008,2.029705,73.1311641664897,-242.33064797909807,9.680521680157533,0.05385164807134505,2.7594128463820464,-0.9224870926965015
3990880,1966.5,1,183932,229236,0.52,-0.6,9.91,-0.02,0.0,-0.01,30.45,2.070392,65.17218939999228,-164.77455665612686,9.941755378201577,0.022360679774997897,2.459133385955825,-0.6280537040693775
4029170,1885.0,1,184038,229460,0.39,-1.55,10.12,-0.04,0.01,-0.01,30.45,2.108682,-5.8390120210830645,-41.34406707163005,10.245438009182427,0.042426406871192854,-0.22000631137005686,-0.1594630790348196
4069173,1842.5,1,184029,229750,0.47,-1.14,10.04,-0.03,-0.03,-0.0,30.45,2.148685,-56.580816242003245,73.20525040589857,10.115438695380442,0.042426406871192854,-2.1344138876634844,0.2754111279359926
4109190,1842.5,1,184215,229894,0.31,-0.74,9.88,-0.02,-0.01,0.0,30.45,2.188702,-49.78217202471311,139.66294027028226,9.91252238332908,0.022360679774997897,-1.8779118535332582,0.5277106248976882
4149173,1842.5,1,184168,229893,0.37,-1.3,10.06,-0.04,0.02,-0.01,30.45,2.228685,-51.67553611800637,148.49145306519335,10.150394081019712,0.0458257569495584,-1.9493454696715693,0.5612271275269753
4189170,1842.5,1,184191,229960,0.43,-1.27,9.83,-0.03,-0.04,-0.0,30.45,2.268682,-51.61274550908209,117.60044564780998,9.921023132721745,0.05,-1.9469764798555713,0.4439527286131678
4229193,1842.5,1,184014,230048,0.38,-0.6,9.7,-0.02,-0.02,0.0,30.45,2.308705,-47.95180899226881,77.47355015605372,9.725965247727343,0.0282842712474619,-1.8088551672273718,0.291615270482076
4269170,1842.5,1,184088,230128,0.47,-0.96,10.0,-0.03,0.01,-0.0,30.45,2.348682,-51.09765625216383,52.28882595384806,10.056962762186206,0.03162277660168379,-1.9275429813615403,0.19600416422331265
4309173,1842.5,1,184054,230254,0.4,-1.55,9.97,-0.04,-0.01,-0.0,30.45,2.388685,-46.887568059517356,48.58376815413234,10.097692805784893,0.04123105625617661,-1.7687030493446385,0.18193830937656968
4349190,1842.5,1,184055,230406,0.3,-0.98,9.73,-0.03,-0.02,0.0,30.45,2.428702,-48.024043336006095,58.33714209846349,9.783828493999678,0.03605551275463989,-1.8115804541390703,0.2189659482375594
4389173,1842.5,1,184090,230359,0.22,-0.99,9.87,-0.03,0.02,0.0,30.45,2.468685,-48.01851661711927,71.79899200357441,9.92196553108304,0.03605551275463989,-1.8113719398248587,0.27007241862743014
4429160,1842.5,1,184117,230540,0.33,-1.6,10.0,-0.05,0.0,-0.0,30.45,2.508672,-43.50988068774067,87.07554915600761,10.132566308690016,0.05,-1.641268276494879,0.3280682305903597
4469173,1842.5,1,184032,230526,0.42,-1.31,9.67,-0.04,-0.05,0.0,30.45,2.548685,-49.7290053536678,106.96197419132365,9.767364025160525,0.06403124237432849,-1.8759059595880547,0.4035649119076804
4509170,1842.5,1,184102,230541,0.14,-0.68,9.46,-0.02,-0.01,0.0,30.45,2.588682,-39.87654294543136,126.72005979846037,9.485441476283537,0.022360679774997897,-1.504188221737148,0.47857436634070716
4549173,1878.0,1,184089,230516,0.51,-1.19,10.05,-0.04,0.01,-0.01,30.45,2.628685,-13.786119058715721,127.45294651756852,10.133049886386626,0.042426406871192854,-0.519838021259991,0.48135669222260624
4589173,1890.0,1,184129,230455,0.36,-1.44,9.83,-0.04,-0.02,-0.0,30.45,2.668685,7.69822432529173,86.16293633719646,9.941433498243601,0.044721359549995794,0.2907320871059266,0.32460359383309795
4629193,1911.0,1,183985,229283,0.31,-0.78,9.62,-0.02,-0.02,0.0,30.45,2.708705,23.50004033441458,-3.4754185234185755,9.656547001904976,0.0282842712474619,0.8869094747950191,-0.0156988133970916
4669170,1908.0,1,183841,228831,0.33,-1.31,10.25,-0.04,0.02,-0.0,30.45,2.748682,22.275968381356428,-118.97938866278513,10.338641109933162,0.044721359549995794,0.8407271867025378,-0.45419725688359314
4709173,1914.0,1,183654,228812,0.3,-1.81,10.07,-0.05,-0.01,-0.0,30.45,2.788685,32.43802879735511,-218.82905883126747,10.235770610950599,0.050990195135927854,1.2241255650187477,-0.8332658282815337
4749189,1933.0,1,183762,228863,0.33,-0.98,9.6,-0.03,-0.04,0.01,30.45,2.828701,44.241607169597,-267.10958172338,9.65553209305422,0.05099019513592785,1.6694558052445523,-1.0165576589723837
4789173,1915.0,1,183713,228723,0.28,-0.95,9.96,-0.04,0.01,-0.0,30.45,2.868685,36.5963346287816,-253.08896905124257,10.009120840513418,0.04123105625617661,1.3810118308986261,-0.9633299056229426
4829170,1940.0,1,183745,228881,0.33,-1.59,10.23,-0.05,-0.01,-0.01,30.45,2.908682,52.06517145908955,-192.6630298612152,10.3580837996224,0.05196152422706632,1.9646264437227208,-0.7339293036430609
4869194,1931.0,1,183831,229085,0.36,-1.2,9.53,-0.03,-0.04,0.01,30.45,2.948706,51.67360132441776,-114.98389774537696,9.611997711194068,0.05099019513592785,1.9498531252730618,-0.4390288038327243
4909170,1905.0,1,183936,229130,0.2,-0.77,9.97,-0.02,0.02,0.0,30.45,2.988682,20.514332702457484,-46.51934302093057,10.00168985721913,0.0282842712474619,0.7742634741457319,-0.17911045951570886
4949164,1899.0,1,183911,229187,0.3,-1.48,10.27,-0.04,0.02,-0.0,30.45,3.028676,17.74242630902246,-2.0207310471356954,10.380428700203089,0.044721359549995794,0.6696838542082056,-0.010176248299634873
4989170,1910.0,1,183928,229331,0.29,-1.75,10.14,-0.03,-0.02,0.0,30.45,3.068682,27.990506435736997,16.08804609688008,10.29398853700547,0.03605551275463989,1.0563276194087297,0.058571783317924904
5029859,1914.0,1,183950,229403,0.19,-0.87,9.61,-0.01,-0.04,0.01,30.09,3.109371,32.53541877404593,14.68022621207807,9.651170913417708,0.042426406871192854,1.2277999339556545,0.05322714600848728
5068170,1909.0,1,183968,229541,0.22,-1.13,10.03,-0.03,0.01,-0.0,30.09,3.147682,27.32059296900792,8.097801364050182,10.0958506328095,0.03162277660168379,1.0310528497024056,0.028237675544879808
5108173,1887.0,1,183951,229465,0.31,-1.58,10.02,-0.04,-0.02,-0.01,30.09,3.187685,6.6238979793629085,16.174653943503476,10.148541767170295,0.0458257569495584,0.25019946262329495,0.05890058072542746
5148193,1876.0,1,183978,229387,0.39,-1.17,9.61,-0.02,-0.06,0.0,30.09,3.227705,-6.183176915489892,55.96686440657725,9.688813136808863,0.06324555320336758,-0.2329911054951939,0.20996744301502204
5188185,1872.0,1,184037,229498,0.13,-0.81,9.65,-0.02,0.01,-0.0,30.09,3.267697,-7.485313197651199,126.0612478543506,9.6848076903984,0.022360679774997897,-0.28211863657554137,0.47607325740311934
5228170,1865.0,1,184073,229536,0.28,-1.62,10.26,-0.05,0.01,-0.01,30.09,3.307682,-17.603301064627132,194.5203361705557,10.390880617156565,0.05196152422706632,-0.66385422770767,0.7359708490871094
5268173,1842.5,1,184042,229566,0.36,-1.5,10.07,-0.03,-0.03,0.0,30.09,3.347685,-36.48824921958999,207.4549010398509,10.187467791360127,0.042426406871192854,-1.3763532880162876,0.7850755383503234
5308170,1855.0,1,184090,229539,0.1,-0.7,9.6,-0.01,-0.01,0.0,30.09,3.387682,-28.464215352656264,123.58365989777036,9.626006440887103,0.01414213562373095,-1.0736192511970033,0.4666673602616577
5348173,1869.0,1,184041,228901,0.4,-1.51,10.18,-0.04,0.01,-0.01,30.09,3.427685,-9.24583901003231,-45.265267318351356,10.299150450401237,0.042426406871192854,-0.3485404756336997,-0.17434949551653456
5388173,1863.0,1,183598,227524,0.52,-1.53,9.84,-0.04,-0.07,-0.0,30.09,3.467685,-21.97297947675976,-224.4948524836844,9.97180525281155,0.0806225774829855,-0.8287152449023171,-0.8547754066510288
5428193,1842.5,1,183391,227126,0.3,-0.62,9.4,-0.01,-0.04,0.0,30.09,3.507705,-35.69501673650439,-317.5941466045543,9.425200263124387,0.04123105625617661,-1.3464258879425823,-1.2082168988563229
5468170,1842.5,1,183646,227787,0.5,-1.02,10.06,-0.03,0.02,-0.0,30.09,3.547682,-42.47588725673762,-271.71861327469526,10.123932042442798,0.03605551275463989,-1.6022573487491574,-1.0340553532836123
5508173,1842.5,1,183908,228150,0.39,-1.62,10.11,-0.05,-0.02,-0.01,30.09,3.587685,-39.2788640847936,-113.67985046119382,10.246394487818629,0.05477225575051661,-1.4816387488407228,-0.43407812807969914
5548193,1870.0,1,183976,228392,0.36,-0.96,9.93,-0.01,-0.03,0.0,30.09,3.627705,-10.952573884239404,73.46611010279615,9.982790191123922,0.03162277660168379,-0.4129328681406885,0.27640145381760456
5588173,1905.0,1,184081,229060,0.4,-0.86,10.05,-0.03,0.01,-0.0,30.09,3.667685,15.261662794663584,209.4179940620331,10.094657002593006,0.03162277660168379,0.5760885920806734,0.7925282106143803
5628170,1913.0,1,184136,229255,0.31,-1.66,10.07,-0.04,0.01,-0.0,30.09,3.707682,38.03967476719055,261.55226748000877,10.210612126606318,0.04123105625617661,1.4354667589123857,0.9904503921506363
5668173,1933.0,1,184116,229199,0.41,-1.05,9.59,-0.02,-0.06,0.0,30.09,3.747685,35.88087171593009,248.10899521699403,9.656018848366028,0.06324555320336758,1.354018553029425,0.9394144497879235
5708170,1902.0,1,184105,229248,0.34,-0.68,9.82,-0.03,0.0,-0.0,30.09,3.787682,28.300937003914203,210.40941070889278,9.849385767650691,0.03,1.0680396710544318,0.7962920176590214
5748173,1931.0,1,184114,229440,0.35,-1.34,10.12,-0.04,0.01,-0.0,30.09,3.827685,33.55267772184159,182.79287828854228,10.21432817173993,0.04123105625617661,1.2661794962635589,0.6914488121293191
5788173,1872.0,1,184077,229535,0.29,-1.32,9.66,-0.03,-0.03,-0.0,30.09,3.867685,-8.961258496473844,179.32192038185676,9.754081197119492,0.042426406871192854,-0.3378037054382642,0.6782716924367899
5828193,1844.0,1,184124,229685,0.22,-0.72,9.75,-0.02,-0.01,0.0,30.09,3.907705,-47.18443688761392,196.3637180862106,9.779023468629166,0.022360679774997897,-1.77990343810494,0.7429690509652832
5868170,1842.5,1,184158,229794,0.33,-1.38,10.25,-0.04,0.01,-0.0,30.09,3.947682,-49.08106259399072,219.06332870468643,10.347743715419318,0.04123105625617661,-1.851460109717804,0.8291456898456713
5908173,1842.5,1,184100,229763,0.2,-1.5,10.06,-0.04,-0.01,0.0,30.09,3.987685,-44.09367077249206,223.8584225457498,10.173180426985457,0.04123105625617661,-1.6632937479650534,0.8473497496986873
5948170,1874.0,1,184054,229901,0.24,-0.8,9.62,-0.02,-0.01,0.0,30.09,4.027682,-22.67018668129904,181.06581285150318,9.65618972473097,0.022360679774997897,-0.8550197639297674,0.684892193295982
5988173,1879.0,1,184006,229949,0.38,-1.42,10.11,-0.05,0.0,-0.01,30.09,4.067685,-11.004479167558584,67.22579501566527,10.216305594489624,0.050990195135927854,-0.4148911719330264,0.25271076639560053
6028173,1887.0,1,183961,229614,0.31,-1.38,9.74,-0.04,-0.04,0.0,30.09,4.107685,-7.385015062917409,-112.9443431274269,9.842159315922498,0.0565685424949238,-0.27833454746064734,-0.43128585331511265
6068859,1878.0,1,183669,228372,0.3,-0.66,9.5,-0.02,-0.01,0.01,29.77,4.148371,-19.92892187401107,-313.03206870286425,9.52762299841886,0.024494897427831782,-0.7515962023068838,-1.1908974590436352
6109170,1872.0,1,183367,227893,0.4,-1.21,10.1,-0.04,0.01,-0.0,29.77,4.188682,-20.166989301993897,-460.97775466770184,10.180083496710623,0.04123105625617661,-0.760578107755392,-1.7525573997179464
6147173,1917.0,1,183461,228141,0.28,-1.6,9.84,-0.05,-0.02,-0.0,29.77,4.226685,15.754801136380612,-501.7196170040652,9.973163991432207,0.05385164807134505,0.5946939174536847,-1.9072295135654664
6187189,1924.0,1,183586,228431,0.25,-0.85,9.78,-0.02,-0.01,0.01,29.77,4.266701,26.45349032882427,-433.8206588241127,9.820050916364943,0.024494897427831782,0.998338446080407,-1.6494583959117652
6227173,1935.0,1,183740,228645,0.32,-1.18,10.33,-0.04,0.02,-0.0,29.77,4.306685,38.641721134236825,-307.7203112075297,10.40210074936789,0.044721359549995794,1.4581810108797635,-1.1707319410006487
6267170,1963.0,1,183842,228906,0.24,-1.8,10.01,-0.05,-0.01,-0.0,29.77,4.346682,54.1711661462705,-186.9794396224461,10.17338193522685,0.050990195135927854,2.0440822740124664,-0.7123521624408303
6307193,1934.0,1,183918,229093,0.24,-0.94,9.64,-0.03,-0.03,0.01,29.77,4.386705,44.51972033820866,-106.12585032320483,9.688694442493272,0.04358898943540673,1.6799485728004528,-0.4054001761564168
6347170,1962.0,1,183957,229358,0.25,-0.92,10.09,-0.03,0.02,-0.0,29.77,4.426682,44.78478094650963,-58.11205861927046,10.134939565680694,0.03605551275463989,1.6899488880139018,-0.22312096183454808
6387173,1934.0,1,184014,229539,0.22,-1.57,9.97,-0.05,-0.01,-0.0,29.77,4.466685,44.82147701558709,-15.627047411729569,10.095256311753555,0.050990195135927854,1.6913333723407937,-0.06183117011972781
6427190,1951.0,1,184111,229814,0.31,-0.9,9.62,-0.02,-0.04,0.01,29.77,4.506702,34.31922839201823,37.35743611536625,9.666979879983199,0.0458257569495584,1.2951002339694904,0.1393187429744639
6467173,1925.0,1,184166,230074,0.15,-0.77,9.82,-0.02,0.03,-0.0,29.77,4.546685,27.550059267393102,91.57037536195165,9.85128418024777,0.03605551275463989,1.0397102482099558,0.3451323565478539
6507170,1937.0,1,184268,230291,0.17,-1.46,10.02,-0.04,0.01,-0.0,29.77,4.586682,27.510534645947946,124.46744983045934,10.127235555668683,0.04123105625617661,1.0382190471006043,0.4700225740208519
6547173,1929.0,1,184256,230554,0.07,-0.99,9.87,-0.03,-0.02,0.0,29.77,4.626685,20.465937066194805,123.01261529010831,9.919773182890825,0.03605551275463989,0.772437583755287,0.4644994506104221
6587170,1921.0,1,184177,230935,-0.04,-0.56,9.54,-0.01,0.01,0.0,29.77,4.666682,17.590861359973978,94.21345311363464,9.556505637522536,0.01414213562373095,0.6639655497211273,0.3551665179600406
6627173,1936.0,1,184141,231252,0.04,-1.31,9.98,-0.03,0.01,-0.01,29.77,4.706685,21.391674174330618,54.78864522357543,10.065689246147032,0.033166247903554,0.8073641726041025,0.2054944601624945
6667170,1907.0,1,184113,231450,0.15,-0.82,9.68,-0.02,-0.05,0.0,29.77,4.746682,2.5979061340507146,13.555251288999225,9.715827293648235,0.05385164807134505,0.09830519301465601,0.048956299282299366
6707173,1888.0,1,184189,231743,-0.03,-0.33,9.4,-0.01,-0.0,-0.0,29.77,4.786685,-25.177822105949993,-32.75173088103897,9.40583861226632,0.01,-0.9496288604970182,-0.12684319557158621
6747206,1860.0,1,184140,231664,0.16,-0.93,10.17,-0.02,0.0,-0.01,29.77,4.826718,-50.82955705819403,-85.85798939203272,10.213686895533856,0.022360679774997897,-1.917428025143205,-0.3284554143409024
6787173,1858.0,1,184004,231081,0.1,-0.91,9.97,-0.02,-0.03,-0.0,29.77,4.866685,-51.62566633551058,-132.00674198115775,10.011942868394726,0.03605551275463989,-1.94746396208815,-0.5036542075491197
6827189,1872.0,1,183894,231000,-0.06,-0.3,9.84,-0.01,-0.02,0.0,29.77,4.906701,-43.14941452919209,-146.3440674651092,9.844754948702379,0.022360679774997897,-1.6276684615983037,-0.5580843271448904
6867193,1851.0,1,184114,231131,0.07,-1.03,10.45,-0.03,0.0,-0.01,29.77,4.946705,-60.320219022554696,-112.57689643546694,10.500871392413107,0.03162277660168379,-2.275495607634115,-0.4298908813302164
6907170,1842.5,1,184191,231349,-0.01,-0.92,10.41,-0.04,-0.01,0.0,29.77,4.986682,-70.08522693084969,-37.12641595480781,10.450578931331986,0.04123105625617661,-2.643913826285035,-0.14345121859691312
6947193,1842.5,1,184269,231396,-0.11,-0.4,9.85,-0.02,-0.02,0.0,29.77,5.026705,-76.12999475229955,55.23371243933599,9.858732170010503,0.0282842712474619,-2.8719733029235757,0.20718411014701363
6987189,1842.5,1,184258,231515,0.02,-0.88,10.34,-0.03,-0.0,-0.01,29.77,5.066701,-65.01646284362221,136.4911087407974,10.377398517933095,0.03162277660168379,-2.452677418356292,0.5156691064373069
7027198,1886.0,1,184321,231393,0.1,-0.92,10.37,-0.04,-0.05,-0.0,29.77,5.10671,-37.47690251919909,186.73067817445684,10.41121030428259,0.06403124237432849,-1.4136536047109558,0.7063982473621635
7067190,1905.0,1,184429,231393,-0.04,-0.36,9.53,-0.03,-0.03,0.0,29.77,5.146702,-4.066052522644842,198.02387839469756,9.536881041514569,0.042426406871192854,-0.153115369110811,0.749271671648635
7107880,1963.0,1,184377,231217,0.16,-0.64,10.03,-0.03,-0.0,-0.0,29.89,5.187392,44.411764834604696,175.9771257224844,10.05167150278997,0.03,1.6758755833359436,0.6655735379911283
7148189,1966.5,1,184292,231202,-0.03,-1.08,10.14,-0.05,-0.02,-0.0,29.89,5.227701,46.69967283339192,140.02710898631258,10.197396726616063,0.05385164807134505,1.7621947135677138,0.529093152398285
7188208,1940.0,1,184255,231206,-0.15,-0.36,9.45,-0.03,-0.01,0.0,29.89,5.26772,32.89044698493876,117.56470852095224,9.458044195286888,0.03162277660168379,1.2411945837353902,0.44381705644118197
7228190,1943.0,1,184344,231232,-0.03,-0.71,9.92,-0.03,0.01,-0.0,29.89,5.307702,11.674431902153273,130.31258749294557,9.94542105694877,0.03162277660168379,0.4407480754400723,0.4922130127033658
7268193,1851.0,1,184335,231228,-0.02,-1.28,10.25,-0.06,-0.02,-0.0,29.89,5.347705,-48.89737002930898,179.60163309010184,10.32963213284965,0.06324555320336758,-1.8445296813868675,0.6793335917554095
7308206,1869.0,1,184357,231319,-0.06,-0.52,9.16,-0.04,-0.05,0.0,29.89,5.387718,-64.52950250717771,240.49523877286688,9.174944141519337,0.06403124237432849,-2.434305179297055,0.9105096394527749
7348193,1872.0,1,184394,231497,0.0,-0.41,9.59,-0.03,0.02,-0.0,29.89,5.427705,-30.953765510720235,271.21713261232975,9.598760336626809,0.03605551275463989,-1.167546019417736,1.0271420167927687
7388170,1945.0,1,184424,231616,0.03,-1.15,10.3,-0.05,-0.0,-0.0,29.89,5.467682,19.066780092810713,236.28229710709041,10.364043612413063,0.05,0.7196496162914507,0.8945156579410277
7428193,1966.5,1,184350,231339,-0.06,-0.75,9.52,-0.04,-0.03,0.0,29.89,5.507705,55.13419131681445,130.95944892826202,9.549685858707605,0.05,2.0804156821550666,0.49466875281511663
7467190,1966.5,1,184067,230496,-0.2,-0.25,9.54,-0.02,0.02,-0.0,29.89,5.546702,49.80719800617894,-11.282398763466025,9.545370605691536,0.0282842712474619,1.8794366963006277,-0.045337177164675384
7507193,1966.5,1,183914,230491,-0.01,-1.14,10.55,-0.03,0.02,-0.0,29.89,5.586705,50.08880540028561,-137.03996004339018,10.6114183783319,0.03605551275463989,1.8900612954274316,-0.5227622804868208
7547197,1966.5,1,183956,230625,-0.1,-1.1,10.07,-0.04,-0.04,0.0,29.89,5.626709,54.0127176292337,-204.0459117984781,10.130394859036839,0.0565685424949238,2.0381042634524347,-0.7771431949565613
7587193,1966.5,1,183990,230670,-0.26,-0.21499999999999997,9.51,-0.02,0.0,0.0,29.89,5.666705,51.482065198354576,-200.66899499049572,9.515982608222863,0.02,1.9426267718451702,-0.7643230922163959
7627170,1966.5,1,183997,230757,0.03,-1.01,10.38,-0.03,0.02,-0.01,29.89,5.706682,53.873775370258365,-142.2509993862475,10.429065154653125,0.03741657386773942,2.0328621929873876,-0.5425454328584037
7667173,1966.5,1,184060,231054,0.01,-1.04,10.34,-0.05,-0.03,-0.0,29.89,5.746685,55.61236834851942,-54.780695899545925,10.392174940790786,0.05830951894845301,2.0984565410949636,-0.21047380030819038
7707190,1966.5,1,184165,231190,-0.23,-0.24,9.57,-0.02,-0.02,0.0,29.89,5.786702,54.32832475680791,37.18324465285321,9.575771509387637,0.0282842712474619,2.0500116184516717,0.13865744375601763
7747194,1945.0,1,184240,231142,0.23,-0.79,10.35,-0.03,0.0,-0.01,29.89,5.826706,36.13269959262772,113.6656039500053,10.38265380333949,0.03162277660168379,1.3635196183240854,0.42901452382443855
7787173,1918.0,1,184330,231094,0.03,-1.31,10.57,-0.05,-0.03,-0.01,29.89,5.866685,10.003358363153282,160.9634683107309,10.650910759179236,0.05916079783099616,0.37770112839663034,0.6085757967173876
7827193,1905.0,1,184375,231024,-0.04,-0.59,10.01,-0.04,-0.03,0.0,29.89,5.906705,-5.141808788244067,177.17294713692908,10.02745231851042,0.05,-0.1937019421885417,0.6701133458288081
7867189,1889.0,1,184402,230969,0.18,-0.74,10.2,-0.03,0.0,-0.01,29.89,5.946701,-12.375117345243089,175.5337265587978,10.228391857960858,0.03162277660168379,-0.4666031705898343,0.6638902205875344
7907173,1891.0,1,184391,230934,0.03,-1.51,10.33,-0.05,-0.01,-0.01,29.89,5.986685,-21.036518401093844,174.8433261482676,10.439822795430965,0.05196152422706632,-0.7933840578133962,0.661269189422678
7947193,1882.0,1,184347,230871,0.19,-0.85,9.61,-0.04,-0.07,-0.0,29.89,6.026705,-14.089298594545971,177.16188274199695,9.649388581666717,0.0806225774829855,-0.5312765029868836,0.6700713410392758
7987193,1902.0,1,184337,230719,0.13,-0.69,9.68,-0.03,0.0,-0.0,29.89,6.066705,-9.338563865749377,151.48169220851076,9.705431469028051,0.03,-0.3520388369754173,0.5725792499554511
8027170,1842.5,1,184328,230490,0.29,-1.34,10.1,-0.04,-0.02,-0.01,29.89,6.106682,-51.936273541396694,46.950436306947964,10.192629690124134,0.0458257569495584,-1.9591826779936943,0.1757375400712107
8067193,1842.5,1,184277,230272,0.31,-1.22,9.7,-0.04,-0.04,-0.0,29.89,6.146705,-65.38792999134193,-163.06484176364543,9.78133426481275,0.0565685424949238,-2.4666922830789293,-0.6215629547189075
8107876,1872.0,1,184043,228493,0.15,-0.7,9.52,-0.03,-0.01,-0.0,29.71,6.187388,-23.18877189362396,-439.8161079327043,9.546879071193894,0.03162277660168379,-0.8745851592615175,-1.6722194758897766
8146194,1885.0,1,183457,227182,0.26,-1.39,10.0,-0.05,-0.0,-0.01,29.71,6.225706,-19.104192759967994,-684.6115347485437,10.099490086138013,0.050990195135927854,-0.7204804844376543,-2.601559077825888
8186190,1869.0,1,183524,227806,0.26,-1.65,10.07,-0.05,-0.04,-0.0,29.71,6.265702,-27.40510652959594,-797.922105308698,10.207595211409982,0.06403124237432849,-1.0336607596510925,-3.031730514887692
8226193,1883.0,1,183843,228565,0.23,-0.89,9.29,-0.01,-0.02,0.0,29.71,6.305705,-18.25217072931914,-746.7297155396552,9.335368230552023,0.022360679774997897,-0.6883350482300354,-2.837384093678151
8266170,1871.0,1,183978,229143,0.3,-1.07,9.7,-0.04,0.01,-0.01,29.71,6.345682,-26.964980924734895,-583.8322231206371,9.763447137153966,0.042426406871192854,-1.0170555205311298,-2.2189612222616435
8306173,1885.0,1,184104,229509,0.29,-1.54,9.93,-0.04,-0.02,-0.01,29.71,6.385685,-14.324184364615823,-406.9844148181853,10.052890131698446,0.0458257569495584,-0.5401383695422681,-1.5475774717199449
8346193,1913.0,1,184244,229558,0.24,-1.16,9.32,-0.02,-0.05,0.0,29.71,6.425705,13.290535323124537,-295.28142437992005,9.394977381558723,0.05385164807134505,0.5017210873517289,-1.1235090402983587
8386173,1913.0,1,184347,229372,0.25,-0.85,9.67,-0.02,-0.01,-0.0,29.71,6.465685,13.953595046757512,-267.5749249951778,9.710504621285137,0.022360679774997897,0.5267372762308513,-1.0183242848305603
8426190,1920.0,1,184434,229522,0.22,-1.13,10.31,-0.03,0.04,-0.01,29.71,6.505702,19.089674991567144,-280.5150498062131,10.374073452602888,0.05099019513592785,0.7205134044107488,-1.067450081816703
8467213,1924.0,1,184470,229770,0.42,-1.61,9.96,-0.04,-0.04,-0.01,29.71,6.546725,23.364155364650927,-257.85258020523514,10.098024559288813,0.05744562646538029,0.8817827509897845,-0.981414444828654
8507193,1914.0,1,184637,230464,0.1,-1.23,9.83,-0.02,-0.03,0.0,29.71,6.586705,11.869580438035781,-133.40845827871405,9.907159027693055,0.03605551275463989,0.44811071934547003,-0.5089756732437314
8547173,1916.0,1,184902,231088,-0.05,-0.84,9.71,-0.01,0.0,0.0,29.71,6.626685,13.188378665955948,110.61452317581008,9.746394205038088,0.01,0.4978668791410613,0.417431422665042
8587170,1918.0,1,185282,231687,0.33,-1.06,10.24,-0.03,0.01,-0.01,29.71,6.666682,13.350810360618587,427.41837211323025,10.300004854367788,0.033166247903554,0.50399516865829,1.6201432816771062
8627173,1902.0,1,185625,232181,0.53,-1.34,10.18,-0.04,-0.02,-0.01,29.71,6.706685,-2.4300897732143736,722.3580059953036,10.281483356014345,0.0458257569495584,-0.09139309631956732,2.7398499915306127
8667210,1882.0,1,185867,232461,0.55,-1.17,9.84,-0.02,-0.05,-0.0,29.71,6.746722,-26.90372006826436,897.5959497496908,9.924565481672232,0.05385164807134505,-1.0147442458423779,3.4051220638529514
8707193,1842.5,1,185912,232532,0.11,-1.04,9.94,-0.02,-0.02,0.0,29.71,6.786705,-62.67332731143651,901.4509764310842,9.99486368091131,0.0282842712474619,-2.364274641120215,3.4197572594860564
8747170,1842.5,1,185822,232375,0.0,-0.92,9.85,-0.03,0.03,0.0,29.71,6.826682,-72.13398375886354,752.818843119947,9.892871170696605,0.042426406871192854,-2.721210163176335,2.85549129503157
8787164,1842.5,1,185546,231295,0.41,-1.07,10.21,-0.04,0.01,-0.01,29.71,6.866676,-62.84401155559845,524.8454747859923,10.274098500598484,0.042426406871192854,-2.3707142862056534,1.9900148352164178
8827170,1842.5,1,185317,231161,0.62,-1.36,9.97,-0.05,-0.04,-0.01,29.71,6.906682,-77.97860134239892,299.51499819775654,10.081413591357117,0.06480740698407861,-2.9417182896462415,1.1345718306617445
8867193,1862.0,1,185334,231274,0.48,-1.25,10.0,-0.03,-0.04,-0.0,29.71,6.946705,-44.85011532797391,125.61779025937018,10.089246750872931,0.05,-1.6918331980357568,0.4743897181713808
8907190,1947.0,1,185227,231080,0.07,-0.97,9.8,-0.02,-0.0,0.0,29.71,6.986702,23.533923062877655,7.672478636122517,9.84813687963363,0.02,0.8881878162547115,0.02662298339230116
8947173,1936.0,1,185106,231001,0.17,-1.01,9.84,-0.03,0.04,-0.0,29.71,7.026685,23.989984712431482,-74.14543466705798,9.893159252736206,0.05,0.905394296997128,-0.2839899556215624
8987170,1943.0,1,185046,231153,0.51,-1.22,10.27,-0.05,0.0,-0.01,29.71,7.066682,20.663392088753923,-136.85132302094414,10.354776675525166,0.050990195135927854,0.7798872477348844,-0.5220461402482929
9027173,1966.5,1,185089,231272,0.6,-1.33,9.74,-0.04,-0.04,-0.01,29.71,7.106685,47.08268034203162,-182.78893701068353,9.848680114614345,0.05744562646538029,1.7766449777547095,-0.6964433683927396
9067190,1966.5,1,185045,231341,0.24,-1.33,10.2,-0.03,-0.01,-0.0,29.71,7.146702,46.28081419227205,-205.9350728682087,10.289144765236808,0.03162277660168379,1.7463918431679013,-0.7843151924867988
9107193,1966.5,1,185012,231321,-0.19,-1.19,9.32,-0.02,-0.01,0.01,29.71,7.186705,41.92775788954863,-203.35040349208487,9.39758479610586,0.024494897427831782,1.5821579517263795,-0.7745027722125
9147880,1966.5,1,185135,231492,0.02,-0.88,9.31,-0.01,0.05,0.0,29.49,7.227392,45.66460741185357,-178.44754468245318,9.351518593255323,0.050990195135927854,1.7231433413239297,-0.6799617377076967
9186164,1966.5,1,185242,231659,0.38,-1.2,9.96,-0.04,0.01,-0.01,29.49,7.265676,41.486944006151134,-134.605387808029,10.039223077509535,0.042426406871192854,1.5655267449518366,-0.5135196879207538
9226170,1966.5,1,185257,231802,0.71,-1.26,9.86,-0.05,-0.03,-0.01,29.49,7.305682,42.120783013947026,-70.37609299877238,9.965505506495894,0.05916079783099616,1.5894404826934379,-0.2696800539574228
9266193,1966.5,1,185221,231880,0.57,-1.26,9.86,-0.04,-0.04,-0.0,29.49,7.345705,44.32244641332445,12.624263255660532,9.956510432877574,0.0565685424949238,1.6725057413481221,0.0454219029924489
9306190,1966.5,1,185350,231946,-0.01,-1.15,9.88,-0.02,-0.02,0.0,29.49,7.385702,38.639934536289346,94.9399501141814,9.946707998126818,0.0282842712474619,1.4581136053805117,0.35792458596023996
9346193,1957.0,1,185469,232121,0.01,-1.06,9.74,-0.02,0.02,0.0,29.49,7.425705,37.28188958405329,138.89670330888075,9.797514991057682,0.0282842712474619,1.4068767290923037,0.5248016883952376
9386160,1966.5,1,185555,232205,0.26,-1.04,10.24,-0.03,0.03,-0.01,29.49,7.465672,39.06088449746099,113.89222982151495,10.295960372884116,0.04358898943540673,1.4739953779599575,0.42987488465697826
9426173,1966.5,1,185387,231517,0.49,-1.34,10.19,-0.05,-0.01,-0.01,29.49,7.505685,45.73805345358095,27.868227178499023,10.28940231500353,0.05196152422706632,1.7259143436737772,0.1032939782524043
9466193,1966.5,1,185098,231194,0.57,-1.3,9.99,-0.03,-0.05,-0.0,29.49,7.545705,44.90482281522046,-69.5916455123498,10.090341916902519,0.05830951894845301,1.694477876812406,-0.266701983148444
9506193,1946.0,1,185104,231321,-0.0,-1.2,9.87,-0.02,-0.02,0.0,29.49,7.585705,21.47751665175119,-122.25865041347504,9.942680725035878,0.0282842712474619,0.8106028727580475,-0.46664662266493656
9546190,1927.0,1,185245,231627,-0.04,-1.13,9.69,-0.02,0.01,0.0,29.49,7.625702,13.031355433258623,-109.60114145213286,9.755747024190407,0.022360679774997897,0.4919426422924648,-0.41859374646277636
9586173,1909.0,1,185320,231787,0.29,-1.03,10.13,-0.03,0.03,-0.01,29.49,7.665685,-16.237845986735458,-56.96269356651316,10.186358525007845,0.04358898943540673,-0.61233777916313,-0.2187575205950501
9626173,1842.5,1,185301,231953,0.55,-1.33,10.32,-0.05,-0.0,-0.01,29.49,7.705685,-68.8500094208525,-7.818311983582176,10.419875239176331,0.050990195135927854,-2.5973110340545222,-0.03218614296863502
9666194,1843.0,1,185267,232064,0.7,-1.41,9.89,-0.04,-0.05,-0.01,29.49,7.745706,-74.67884936177224,11.103504652649113,10.014499488242036,0.06480740698407861,-2.817223895160432,0.03964850594354578
9706190,1842.5,1,185231,231982,0.12,-1.33,9.56,-0.03,-0.04,0.0,29.49,7.785702,-73.23151526884905,1.0444759370912102,9.652818241322064,0.05,-2.7626182815946145,0.0014604815021691745
9746173,1842.5,1,185282,231995,-0.09,-1.28,9.53,-0.02,-0.01,0.01,29.49,7.825685,-62.29806251094793,-22.069092216487896,9.615997088185916,0.024494897427831782,-2.3501164969981856,-0.0862877027943052
9786190,1878.0,1,185275,232006,0.17,-1.07,9.69,-0.02,0.03,-0.0,29.49,7.865702,-42.25543284853606,-43.64041444833899,9.750379479794619,0.03605551275463989,-1.593939954526223,-0.16818091573927405
9826173,1858.0,1,185281,232074,0.46,-1.31,9.98,-0.04,0.02,-0.01,29.49,7.905685,-37.81327403380568,-53.33166724414706,10.076115322881135,0.0458257569495584,-1.4263443670103904,-0.20497271831773523
9866170,1894.0,1,185289,232058,0.86,-1.38,9.8,-0.05,-0.05,-0.01,29.49,7.945682,-22.99800919753391,-40.276794172053755,9.933982081723322,0.07141428428542851,-0.8673879861164919,-0.15541129185663996
9906193,1851.0,1,185345,232041,0.83,-1.37,9.56,-0.04,-0.08,-0.01,29.49,7.985705,-44.21057949602022,4.085502973551245,9.69326570356967,0.09,-1.6677045281785963,0.013005414723764208
9946190,1842.5,1,185364,232080,0.23,-1.41,9.88,-0.03,-0.05,0.0,29.49,8.025702,-64.38448423864924,71.59255954077096,9.982755130724184,0.05830951894845301,-2.4288338706545174,0.2692887199068132
9986173,1842.5,1,185431,232096,0.0,-1.38,9.85,-0.02,-0.02,0.0,29.49,8.065685,-55.373021049439785,126.59749571918326,9.946200279503726,0.0282842712474619,-2.0888456958588075,0.478109064949547
10026175,1842.5,1,185544,232152,0.05,-1.3,9.87,-0.02,0.03,-0.0,29.49,8.105687,-55.03229039315152,118.71282173888557,9.955370409984752,0.03605551275463989,-2.075990470076261,0.4481757452239363
10066173,1904.0,1,185614,231661,0.41,-1.28,10.2,-0.04,0.03,-0.01,29.49,8.145685,6.7858597719772975,19.02947035614454,10.288172821254511,0.05099019513592785,0.2563100234835494,0.06973858527083286
10106177,1966.5,1,185257,230330,0.9025000000000001,-1.36,10.08,-0.05,-0.03,-0.02,29.49,8.185689,73.71698204483977,-148.13114979546648,10.211293074336865,0.061644140029689765,2.7815148232798084,-0.5648687936813945
10146193,1966.5,1,185075,229886,0.9025000000000001,-1.49,9.9,-0.05,-0.06,-0.01,29.49,8.225705,73.15245881945648,-309.98205160351966,10.052094620028205,0.07874007874011811,2.760216259772644,-1.1793183960118097
10186879,1966.5,1,185141,229957,0.75,-1.66,9.95,-0.03,-0.07,-0.0,29.25,8.266391,76.3976416794582,-388.0230546588738,10.115364551018414,0.07615773105863909,2.882651848120988,-1.4755927000604703
10225193,1966.5,1,185364,230040,0.11,-1.55,9.46,-0.02,-0.06,0.0,29.25,8.304705,76.66379309885149,-345.3982102413783,9.586772136647456,0.06324555320336758,2.8926933179021845,-1.3137720465506932
10265173,1966.5,1,185442,230128,-0.08,-1.35,9.36,-0.01,0.0,0.0,29.25,8.344685,79.52006826321931,-204.0599478234592,9.457193029646799,0.01,3.000456037391574,-0.77719648122109
10305207,1966.5,1,185629,230565,0.34,-1.44,10.0,-0.03,0.06,-0.0,29.25,8.384719,78.48735848036019,-26.108482914608345,10.108867394520516,0.0670820393249937,2.9614935396488793,-0.10162281665768555
10345170,1891.0,1,185903,230980,0.77,-2.06,10.31,-0.06,-0.01,-0.01,29.25,8.424682,7.767995670880289,121.41936396444035,10.541944792114974,0.06164414002968976,0.2933644490144898,0.4584508427093669
10385193,1869.0,1,186079,231169,0.88,-1.8,9.76,-0.04,-0.08,-0.0,29.25,8.464705,-19.04214605962068,197.030428013374,9.963533509754457,0.08944271909999159,-0.7181395611091943,0.7455001437490673
10425190,1920.0,1,186078,231251,0.53,-0.96,9.16,-0.01,-0.04,0.0,29.25,8.504702,41.18772695241311,199.08917795296404,9.225405140155093,0.04123105625617661,1.554237761372571,0.7533159672480249
10465173,1913.0,1,186166,231316,0.57,-1.21,9.77,-0.03,0.03,-0.01,29.25,8.544685,23.319347818557524,161.11910505211873,9.861130766803571,0.04358898943540673,0.8800922335351261,0.6091666549256859
10505173,1842.5,1,186166,231280,0.89,-2.09,10.42,-0.05,0.0,-0.01,29.25,8.584685,-32.75682527818987,131.85201511250878,10.66473628365934,0.050990195135927854,-1.2355725969577322,0.4980572846727545
10545173,1867.0,1,186356,231428,0.82,-2.01,9.7,-0.04,-0.09,-0.0,29.25,8.624685,-23.222454949232986,149.06353308418753,9.939944667854041,0.09848857801796104,-0.8758559673819754,0.5633989680063631
10585190,1865.0,1,186541,231634,0.44,-0.86,9.25,-0.01,-0.02,0.0,29.25,8.664702,-10.740590553408225,217.4394917513527,9.300306446564006,0.022360679774997897,-0.40493507419500513,0.8229809668872002
10625173,1872.0,1,186522,231787,0.66,-1.55,10.26,-0.04,0.06999999999999999,-0.01,29.25,8.704685,-15.673460472957796,299.2827706323674,10.397389095345043,0.0812403840463596,-0.5910444112958371,1.1336902035987533
10665173,1850.0,1,186617,231887,0.9025000000000001,-2.255,9.92,-0.06,-0.03,-0.01,29.25,8.744685,-29.969189259849735,326.80662890939135,10.213027526155013,0.06782329983125268,-1.1303995232880624,1.2381815816756754
10705193,1842.5,1,186840,232209,0.8,-1.58,9.18,-0.01,-0.06,0.0,29.25,8.784705,-42.314570789868654,240.3801014274193,9.34926735097462,0.0608276253029822,-1.5961711350029872,0.9100725328606376
10745170,1842.5,1,186933,231762,0.39,-0.98,9.29,-0.02,0.0,0.0,29.25,8.824682,-41.13707540014996,37.221592577216576,9.34968448665515,0.02,-1.5517461065725109,0.13880302754092116
10785164,1842.5,1,186390,230162,0.9025000000000001,-1.95,10.1,-0.04,0.02,-0.01,29.25,8.864676,-43.21517707164995,-208.93854097479945,10.32603535971091,0.0458257569495584,-1.6301495777401245,-0.7957175372565265
10825173,1842.5,1,186189,230117,0.9025000000000001,-2.255,9.67,-0.04,-0.06,-0.0,29.25,8.904685,-41.89801593936794,-387.40998308045073,9.97037768843287,0.07211102550927978,-1.5804551829594142,-1.4732652395189845
10865193,1842.5,1,186455,230954,0.57,-0.97,9.3,-0.0,-0.04,0.0,29.25,8.944705,-47.310291989698044,-426.69206758241546,9.367806573579537,0.04,-1.784651750953573,-1.6223954632700208
10905170,1866.0,1,186785,231758,0.57,-1.42,10.19,-0.03,0.06,-0.01,29.25,8.984682,-19.336765477440434,-341.62492052131523,10.304241844987917,0.06782329983125268,-0.7292550831970895,-1.2994471565311132
10945173,1932.0,1,186980,232092,0.9025000000000001,-2.255,10.41,-0.06,-0.03,-0.01,29.25,9.024685,39.68872547230612,-209.87601086567162,10.689603886487095,0.06782329983125268,1.4976828194572667,-0.7992765412238093
10985193,1925.0,1,187015,232183,0.71,-1.51,9.25,-0.02,-0.07,0.0,29.25,9.064705,34.27802731789482,-105.10629546286194,9.399292526568157,0.07280109889280519,1.2935457829667258,-0.40152954540000196
11025178,1906.0,1,187131,232296,0.65,-1.01,9.57,-0.01,0.01,-0.0,29.25,9.10469,15.34228818716313,-50.708738806736974,9.645076464186275,0.01414213562373095,0.5791304599175117,-0.19501505161768118
11065170,1911.0,1,187329,232509,0.82,-2.255,10.57,-0.06,-0.01,-0.01,29.25,9.144682,10.900748785179285,-27.391541329495496,10.838926376722005,0.06164414002968976,0.4115582418595261,-0.10649381041791231
11105194,1842.5,1,187395,232655,0.9025000000000001,-1.9,9.64,-0.03,-0.07,-0.0,29.25,9.184706,-44.84708271187055,-12.43283808526189,9.866818446186187,0.07615773105863909,-1.6917187822530821,-0.049704696751443414
11145190,1842.5,1,187453,232829,0.51,-0.87,9.3,-0.01,-0.01,0.0,29.25,9.224702,-66.96490711417219,-5.920438080388021,9.354517625190516,0.01414213562373095,-2.5261891219860284,-0.02498106809995179
11185173,1842.5,1,187619,233067,0.79,-1.97,10.64,-0.04,0.05,-0.01,29.25,9.264685,-43.63337739905822,-21.97187519000588,10.849635938592595,0.06480740698407861,-1.6459276110105439,-0.08591862877250911
11225860,1842.5,1,187661,233189,0.9025000000000001,-2.255,10.08,-0.05,-0.04,-0.0,28.83,9.305372,-72.6794432991461,-61.15619690631762,10.36850670299248,0.06403124237432849,-2.74178948416248,-0.2346777065855486
11264193,1842.5,1,187542,233078,0.61,-1.18,9.11,-0.02,-0.03,0.01,28.83,9.343705,-47.27131975508648,-98.50434865980871,9.206334775577085,0.03741657386773942,-1.7831813905209675,-0.3764659619264079
11304173,1966.5,1,187509,233171,0.74,-1.7,9.91,-0.03,0.03,-0.01,28.83,9.383685,51.49034533312603,-103.88900752636873,10.081949216297412,0.04358898943540673,1.9429391681618282,-0.3969082422120413
11344173,1966.5,1,187671,233317,0.9025000000000001,-2.255,10.12,-0.07,-0.06,-0.01,28.83,9.423685,68.06924654099606,-74.46209578551239,10.407397909660222,0.09273618495495704,2.5684347445662867,-0.2851921256195928
11384193,1966.5,1,187877,233624,0.76,-1.5,9.19,-0.02,-0.06,0.0,28.83,9.463705,55.20037485054335,-41.832349677421384,9.342574591620878,0.06324555320336758,2.0829126816280223,-0.16131679161597753
11424173,1966.5,1,187996,233820,0.37,-0.79,9.37,-0.01,0.04,0.0,28.83,9.503685,60.113094160597534,-42.69039160817189,9.410520708228635,0.04123105625617661,2.2682617682790096,-0.16457425584535657
11464160,1966.5,1,187718,232833,0.82,-2.255,10.49,-0.05,0.05,-0.01,28.83,9.543672,55.13950585218683,-83.30943494879654,10.760925843067595,0.07141428428542851,2.080616191122723,-0.3187801005386906
11504173,1966.5,1,187496,232330,0.9025000000000001,-2.255,9.75,-0.03,-0.06,-0.0,28.83,9.583685,59.62020385311568,-134.74417096415198,10.047986427638126,0.0670820393249937,2.2496658008432315,-0.5140465632988784
11545193,1966.5,1,187799,232699,0.47,-0.91,8.970000000000002,-0.0,-0.03,0.01,28.83,9.624705,48.38786249363159,-158.0154640018393,9.028283336271633,0.03162277660168379,1.8258874246449952,-0.602393533213692
11585173,1966.5,1,188010,233210,0.67,-1.74,9.97,-0.05,0.05,-0.01,28.83,9.664685,64.29925962204322,-127.08714625432444,10.142849698186403,0.07141428428542851,2.4261991336930957,-0.4849774896302781
11625173,1966.5,1,187919,233118,0.9025000000000001,-2.255,9.8,-0.06,-0.04,-0.01,28.83,9.704685,42.254602946563615,-32.411850038541544,10.09651084533662,0.07280109889280519,1.5944892959312347,-0.1255528743798023
11665193,1871.0,1,187788,233060,0.88,-1.43,9.29,-0.02,-0.05,0.0,28.83,9.744705,-30.794553945114576,119.71493399279873,9.440519053526664,0.05385164807134505,-1.1615392202487118,0.4519801569944535
11705170,1932.0,1,187977,233444,0.61,-1.19,9.81,-0.02,0.02,-0.01,28.83,9.784682,9.975875525246526,299.8282020159928,9.90072219588046,0.030000000000000002,0.37666424462959536,1.1357608753900332
11745206,1935.0,1,188492,233973,0.62,-2.1,10.38,-0.06,0.01,-0.01,28.83,9.824718,26.74730209137387,457.63298929285844,10.608430609661356,0.06164414002968976,1.0094234966194098,1.7348498375454562
11785173,1877.0,1,188525,234220,0.79,-1.98,9.88,-0.04,-0.02,0.0,28.83,9.864685,-38.23272275766162,551.1882090476182,10.107368599195341,0.044721359549995794,-1.4421695002933996,2.0900222025559456
11825173,1889.0,1,188269,234177,0.1,-1.19,9.29,-0.01,0.03,0.01,28.83,9.904685,-24.297324141147573,580.2625932222334,9.366440092158813,0.033166247903554,-0.9164090725803377,2.2003999860253303
11865163,1920.0,1,188105,234202,0.12,-1.59,9.84,-0.01,0.06999999999999999,0.0,28.83,9.944675,6.918486552112955,582.2153962275413,9.968354929475575,0.07071067811865475,0.26131382097576444,2.2078135933431575
11905164,1933.0,1,188180,234570,0.68,-1.91,10.23,-0.04,-0.0,-0.01,28.83,9.984676,22.124258057235295,587.774736456505,10.428969268340952,0.04123105625617661,0.8350033974451647,2.2289190326996673
11945228,1928.0,1,188290,234765,0.9025000000000001,-1.71,10.17,-0.05,-0.07,-0.01,28.83,10.02474,11.27123363222067,583.83718492981,10.352173986656137,0.08660254037844388,0.42553604593976646,2.2139705403359815
11985193,1842.5,1,188130,234786,0.9025000000000001,-1.44,9.77,-0.03,-0.08,-0.0,28.83,10.064705,-62.23334016695711,524.8723154322221,9.916703396290522,0.08544003745317531,-2.347674625890252,1.9901167328531804
12025199,1842.5,1,187836,234753,0.06,-1.24,9.72,-0.02,-0.01,0.0,28.83,10.104711,-77.51096421608855,380.31323891005155,9.79895912839726,0.022360679774997897,-2.9240750845748,1.441313691967806
12065173,1889.0,1,187471,234743,-0.09,-1.21,9.31,-0.01,0.04,0.01,28.83,10.144685,-12.382649338975309,168.54218814647479,9.388732608824261,0.042426406871192854,-0.46688734073488425,0.6373475943238609
12105173,1932.0,1,187210,234756,0.23,-1.46,10.19,-0.02,0.06999999999999999,-0.0,28.83,10.184685,13.665590583165512,-52.999768863271015,10.296630516824424,0.07280109889280517,0.5158713258459116,-0.20371270168597586
12145197,1918.0,1,187057,234367,0.61,-1.97,10.57,-0.05,-0.02,-0.01,28.83,10.224709,14.929657229822164,-226.42093471212507,10.769303598654837,0.05477225575051661,0.5635625501225133,-0.8620875714032809
12185193,1934.0,1,186803,234239,0.76,-1.43,9.98,-0.03,-0.07,-0.0,28.83,10.264705,21.590182799511194,-324.02642505709167,10.110534110520572,0.07615773105863909,0.814853587335016,-1.2326363546214032
12225880,1872.0,1,186806,234220,0.13,-0.74,9.45,-0.01,-0.01,0.0,29.35,10.305392,-34.76299369635977,-351.33663740653753,9.479820673409385,0.01414213562373095,-1.3112621408758733,-1.336316648831795
12264170,1842.5,1,186634,234148,0.34,-1.16,9.65,-0.02,0.03,-0.01,29.35,10.343682,-64.7986362923486,-331.8424280960864,9.725415158233607,0.03741657386773942,-2.4444591689960506,-1.262308972478171
12304173,1882.0,1,186592,234318,0.44,-1.95,10.52,-0.05,-0.0,-0.01,29.35,10.383685,-25.132079683252385,-293.74644678133916,10.708244487309766,0.050990195135927854,-0.9479030716348593,-1.117681662356698
12344193,1855.0,1,186565,234406,0.38,-1.23,9.31,-0.03,-0.05,-0.0,29.35,10.423705,-51.96251009420389,-266.79259208693287,9.398584999881631,0.05830951894845301,-1.9601725414059459,-1.0153542417910026
12384193,1842.5,1,186437,234533,0.4,-0.64,9.8,-0.01,0.01,-0.0,29.35,10.463705,-61.06732243543601,-280.26461983079673,9.829018262268109,0.01414213562373095,-2.3036826312501373,-1.0664993512548884
12424170,1904.0,1,186419,234550,0.11,-1.63,10.2,-0.04,0.03,-0.01,29.35,10.503682,-4.527870898802477,-350.846340761678,10.33000484026992,0.05099019513592785,-0.17053904199280912,-1.3344552901671696
12464173,1904.0,1,186077,234552,0.28,-1.19,9.91,-0.03,-0.01,-0.0,29.35,10.543685,2.792111972741126,-463.10764897825277,9.985118927684336,0.03162277660168379,0.10563227045420949,-1.7606433151963532
12504193,1918.0,1,186006,234428,0.26,-0.84,9.97,-0.03,-0.0,-0.01,29.35,10.583705,10.710410983088163,-560.2229499659754,10.008701214443361,0.03162277660168379,0.4043770992893521,-2.129331147055784
12544193,1931.0,1,185942,234249,0.11,-1.83,10.39,-0.05,-0.02,-0.01,29.35,10.623705,28.848542189070507,-562.3687001686371,10.550502357707902,0.05477225575051661,1.0886999438093483,-2.1374772577292327
12584193,1930.0,1,186048,234302,0.25,-0.77,9.53,-0.03,-0.05,-0.01,29.35,10.663705,25.423323039667125,-413.3909894732883,9.564324335780338,0.05916079783099616,0.9594718725816467,-1.5718993457728718
12624193,1926.0,1,186096,234184,0.31,-1.28,10.19,-0.04,-0.01,-0.01,29.35,10.703705,23.283818099249547,-132.75325178799585,10.274755471542862,0.042426406871192854,0.8787517537301387,-0.50648825202353
12664193,1918.0,1,186390,234146,0.43,-1.38,9.59,-0.04,-0.05,-0.01,29.35,10.743705,13.749831659853177,166.22907560066457,9.698319442047678,0.06480740698407861,0.5190496076969832,0.6285661104517218
12704193,1939.0,1,186590,233967,0.38,-0.62,8.970000000000002,-0.02,-0.02,-0.01,29.35,10.783705,38.15189583115101,322.51240496958013,8.999427759585608,0.030000000000000002,1.4397006811854343,1.2218790207219898
12744193,1954.0,1,186498,233763,0.48,-1.58,10.25,-0.05,-0.0,-0.01,29.35,10.823705,48.42244366127309,227.2501305251593,10.382162587823405,0.050990195135927854,1.8271921171041308,0.8602260055359306
12784193,1903.0,1,186237,232757,0.28,-0.94,9.14,-0.03,-0.0,-0.0,29.35,10.863705,3.650717768371364,-85.3802569744215,9.192475183540068,0.03,0.13802610164411994,-0.326641754418453
12824190,1907.0,1,185581,231773,0.37,-0.99,9.86,-0.04,0.03,-0.01,29.35,10.903702,1.7428300405063204,-433.69808667000217,9.916481230759224,0.05099019513592785,0.06604453187100127,-1.6489930638653656
12864173,1907.0,1,185330,231802,0.29,-1.64,9.82,-0.05,-0.02,-0.01,29.35,10.943685,6.902187595832939,-593.7228326692407,9.960225901052647,0.05477225575051661,0.260698887276279,-2.256509861386016
12904193,1886.0,1,185584,232516,0.28,-0.68,9.8,-0.02,-0.02,-0.0,29.35,10.983705,-17.560157465030088,-448.44456208507853,9.827553103392523,0.0282842712474619,-0.6622264883080705,-1.7049764773239742
12944194,1893.0,1,185999,233299,0.3,-1.44,10.23,-0.03,0.0,-0.01,29.35,11.023706,-8.001887208773288,-70.29474082274064,10.335206819411018,0.03162277660168379,-0.3016081524844118,-0.2693712091400445
12984173,1914.0,1,186429,233848,0.24,-1.59,10.22,-0.03,-0.04,-0.0,29.35,11.063685,11.191994252836306,327.6579745873493,10.345728587199646,0.05,0.42254647017352537,1.241413624298999
13024220,1914.0,1,186623,234203,0.35,-0.76,9.77,-0.02,-0.03,-0.0,29.35,11.103732,13.126290045861136,534.8592970857802,9.80576361126455,0.03605551275463989,0.49552437424719503,2.0280312383453247
13064190,1904.0,1,186380,234227,0.06,-1.58,10.43,-0.05,0.03,-0.01,29.35,11.143702,1.8239784417321288,474.9507427034085,10.549165843800163,0.05916079783099616,0.06910613199531726,1.8005948323369476
13104173,1894.0,1,186117,234099,0.11,-1.19,9.86,-0.03,-0.03,-0.0,29.35,11.183685,-8.093687462923754,237.8519741008524,9.932159885946259,0.042426406871192854,-0.30507163007945676,0.9004747684175829
13144193,1886.0,1,186028,233888,-0.07,-0.72,9.62,-0.03,0.01,-0.01,29.35,11.223705,-12.796428840019132,4.102999100212025,9.647160203914932,0.033166247903554,-0.48249858325721107,0.01307183689348303
13184194,1872.0,1,185934,233749,0.34,-1.37,10.59,-0.05,-0.02,-0.01,29.35,11.263706,-34.45770561443348,-75.00387452982976,10.683660421409883,0.05477225575051661,-1.2997441070580924,-0.28724893055721173
13224193,1852.0,1,186008,233620,0.02,-1.41,9.83,-0.03,-0.03,-0.01,29.35,11.303705,-41.022945728197946,36.54651457277354,9.930629385894935,0.04358898943540673,-1.5474401755552858,0.13624016624859445
13264880,1889.0,1,186195,233669,0.39,-0.78,10.04,-0.03,-0.04,-0.01,29.43,11.344392,-22.044419496880487,249.97097030459344,10.077802339796111,0.05099019513592785,-0.8314105632472112,0.9464832386506598
13303193,1899.0,1,186462,233659,0.2,-1.72,10.05,-0.05,-0.02,-0.01,29.43,11.382705,9.30467373636254,413.27985343464997,10.198083153220512,0.05477225575051661,0.35134086857724295,1.566467910810791
13343193,1949.0,1,186387,233600,0.38,-1.43,9.63,-0.03,-0.03,-0.01,29.43,11.422705,38.46992363679918,404.19194775747087,9.743007749150157,0.04358898943540673,1.4516993645186889,1.5319666509044272
13383198,1933.0,1,186253,233434,0.4,-0.84,9.67,-0.03,0.0,-0.01,29.43,11.46271,40.16735452173431,202.1536999667632,9.714653879578005,0.03162277660168379,1.515740732306997,0.7649500966330117
13423173,1939.0,1,186000,232646,0.28,-1.65,9.75,-0.05,0.0,-0.01,29.43,11.502685,35.242836654944355,-100.62243945063148,9.892593188845884,0.050990195135927854,1.3299465048741421,-0.3845070666072099
13463173,1909.0,1,185618,231887,0.37,-1.07,9.25,-0.03,-0.04,-0.0,29.43,11.542685,8.883202778237672,-355.17446297282936,9.319028919367081,0.05,0.3354394396113168,-1.3508865422749479
13503193,1872.0,1,185561,231787,0.25,-0.81,9.29,-0.02,-0.0,-0.01,29.43,11.582705,-24.10534156589465,-444.1168869756233,9.328595821451371,0.022360679774997897,-0.9091658753345253,-1.688546922589867
13543193,1887.0,1,185753,232045,0.44,-1.5,9.89,-0.04,-0.03,-0.01,29.43,11.622705,-17.745859289273067,-345.29906743618534,10.012776837621022,0.05099019513592785,-0.6692327228068371,-1.3133956615164166
13583216,1893.0,1,186071,232403,0.27,-1.12,9.32,-0.02,-0.03,-0.0,29.43,11.662728,-0.8319584152230668,-130.39674192063444,9.390937120436917,0.03605551275463989,-0.0310981417623685,-0.49754201487123334
13623194,1919.0,1,186291,232887,0.41,-0.62,9.73,-0.02,0.02,-0.01,29.43,11.702706,15.995274656621035,93.68288396506675,9.75835027040944,0.030000000000000002,0.6037666009365558,0.3531522690512952
13663173,1920.0,1,186363,233397,0.36,-1.78,10.31,-0.04,0.01,-0.01,29.43,11.742685,22.74411663669321,251.22145922804552,10.468720074584095,0.042426406871192854,0.8583896758592751,0.9512305858272914
13703173,1917.0,1,186458,233854,0.23,-1.2,10.0,-0.02,-0.01,-0.0,29.43,11.782685,19.063417424540322,324.716008170716,10.074368466559083,0.022360679774997897,0.7195227481654107,1.230244764103746
13743193,1914.0,1,186487,234018,0.11,-0.85,10.17,-0.01,0.0,-0.01,29.43,11.822705,12.649156844264219,336.4067158315666,10.20605212606716,0.01414213562373095,0.477522897357225,1.2746272827855996
13783187,1886.0,1,186588,234194,0.09,-1.7,10.6,-0.04,0.0,-0.01,29.43,11.862699,-8.955511112275898,315.99858981791516,10.735832524774219,0.04123105625617661,-0.337586865772798,1.1971500196173743
13823172,1891.0,1,186582,234306,0.2,-1.13,10.04,-0.03,-0.05,-0.01,29.43,11.902684,-11.123713071888892,286.2850927317884,10.105369859634035,0.05916079783099616,-0.41938967752039524,1.0843459124764148
13863194,1895.0,1,186606,234347,0.06,-0.74,9.98,-0.02,0.0,-0.01,29.43,11.942706,-0.8110335353824919,268.02882669604855,10.007577129355537,0.022360679774997897,-0.030308679323756384,1.0150379550885589
13903173,1898.0,1,186558,234334,0.31,-1.36,10.6,-0.04,-0.01,-0.02,29.43,11.982685,-2.2565619223817097,281.41476992875187,10.691384381828202,0.045825756949558406,-0.08484616647675727,1.065856253931938
13943192,1901.0,1,186626,234291,0.33,-1.33,9.84,-0.04,-0.03,-0.01,29.43,12.022704,2.6917622770454472,329.1794130768376,9.934958480034025,0.05099019513592785,0.10184623602622313,1.2471896024640445
13983193,1899.0,1,186677,234042,0.24,-0.83,9.39,-0.03,-0.02,-0.01,29.43,12.062705,0.5802442935794483,375.56589420251333,9.429665953786486,0.03741657386773942,0.022182020551588116,1.4232909065827009
14023203,1893.0,1,186749,233810,0.33,-1.63,9.92,-0.06,0.01,-0.02,29.43,12.102715,-7.39008939873486,351.5982161881315,10.058439242745367,0.06403124237432849,-0.27852599408109646,1.3323001857389845
14063173,1882.0,1,186707,233573,0.41,-1.64,9.74,-0.05,-0.02,-0.01,29.43,12.142685,-15.695841014725003,198.73351979672995,9.88561075503178,0.05477225575051661,-0.5918887935439368,0.7519657491755746
14103193,1872.0,1,186468,232672,0.28,-0.83,8.970000000000002,-0.04,-0.02,-0.01,29.43,12.182705,-29.843804125306985,-76.46679810485693,9.012668861108791,0.0458257569495584,-1.1256689415673549,-0.29280276312084663
14143193,1869.0,1,186016,231668,0.33,-1.18,9.61,-0.05,0.02,-0.02,29.43,12.222705,-28.96013494800131,-385.0020098725792,9.687796447077115,0.057445626465380296,-1.0923295088462477,-1.464123627310029
14183173,1878.0,1,185848,231549,0.44,-1.7,9.53,-0.06,-0.03,-0.01,29.43,12.262685,-24.64811620180641,-599.6160039288343,9.69043342683907,0.06782329983125268,-0.929643899148684,-2.2788826544719436
14223193,1873.0,1,185917,231845,0.29,-0.82,9.16,-0.03,-0.02,-0.01,29.43,12.302705,-26.50858869604112,-632.7866788659858,9.201201008564045,0.03741657386773942,-0.9998365675634979,-2.404811566800995
14263194,1887.0,1,186126,231983,0.31,-1.12,9.95,-0.03,0.01,-0.01,29.43,12.342706,-15.382761420453816,-490.0441123028258,10.017634451306355,0.033166247903554,-0.5800767983565736,-1.8629047112903983
14303859,1899.0,1,186403,232584,0.22,-1.81,10.03,-0.04,-0.0,-0.02,29.15,12.383371,-3.3800368737323963,-260.393146928939,10.194380805129853,0.044721359549995794,-0.12723308967872932,-0.991059434109746
14342193,1906.0,1,186657,233133,0.22,-1.23,9.98,-0.02,-0.0,-0.01,29.15,12.421705,4.415748254181769,-56.555715714928546,10.057917279437131,0.022360679774997897,0.16688948521153069,-0.21721247279939418
14382193,1918.0,1,186739,233236,0.11,-0.98,10.08,-0.02,0.03,-0.01,29.15,12.461705,12.69043328024197,47.3231339653507,10.128124209348936,0.03741657386773942,0.47908019164290233,0.17715244678743416
14422170,1913.0,1,186710,233077,0.17,-1.82,10.42,-0.04,0.01,-0.02,29.15,12.501682,11.260680654034129,40.398929803607345,10.579116220176427,0.045825756949558406,0.4251378988556617,0.1508654477895323
14462173,1911.0,1,186743,232838,0.23,-1.22,9.74,-0.02,-0.04,-0.01,29.15,12.541685,4.092354191560495,-41.26385312089218,9.818803389415638,0.0458257569495584,0.15468834153687933,-0.15915855536778012
14502194,1906.0,1,186689,232754,0.2,-0.69,10.1,-0.02,0.01,-0.02,29.15,12.581706,2.5433119928519177,-145.85220341865266,10.125517270737332,0.03,0.09624544289073118,-0.5562170180080884
14542173,1915.0,1,186731,232800,0.14,-1.57,10.41,-0.05,0.0,-0.02,29.15,12.621685,7.613181200235984,-226.31578850083017,10.528656134569122,0.05385164807134505,0.28752354524546064,-0.8616883950811536
14582173,1914.0,1,186714,232868,0.21,-1.24,10.08,-0.02,-0.03,-0.01,29.15,12.661685,8.516405093416532,-248.10568866408806,10.158154359921886,0.03741657386773942,0.32160074629778707,-0.9444114157166006
14622193,1913.0,1,186756,233063,0.2,-0.55,10.18,-0.02,0.01,-0.01,29.15,12.701705,4.476707529664111,-197.7873195723485,10.196808324176736,0.024494897427831782,0.1691893817292158,-0.7533831203352026
14662173,1904.0,1,186783,233386,0.16,-1.79,10.42,-0.04,0.02,-0.02,29.15,12.741685,-1.7828304516263294,-96.26079119627572,10.573840361949863,0.048989794855663564,-0.06697303148151366,-0.3679485364695626
14702173,1909.0,1,187064,233737,0.26,-1.39,9.87,-0.03,-0.05,-0.01,29.15,12.781685,-2.771771945892483,0.7162261112974616,9.97078733099849,0.05916079783099616,-0.10428422130226331,0.00021431621874558064
14742193,1914.0,1,187264,234000,0.28,-0.69,9.9,-0.02,-0.03,-0.01,29.15,12.821705,10.147040849125942,32.06786459671412,9.92796555191445,0.03741657386773942,0.3831220400876917,0.11923745161416842
14782193,1931.0,1,187309,233479,0.2,-1.58,10.19,-0.04,0.0,-0.02,29.15,12.861705,14.886334062108885,-22.30721266261455,10.313704475114651,0.044721359549995794,0.5619280359034635,-0.08719170154744643
14822170,1911.0,1,186943,232752,0.37,-1.2,9.59,-0.03,-0.06,-0.02,29.15,12.901682,8.990264723510473,-120.32654866724666,9.671866417605239,0.06999999999999999,0.33947871654105705,-0.4593116054585458
14862193,1920.0,1,186979,232700,0.1,-0.63,9.56,-0.02,-0.01,-0.01,29.15,12.941705,1.6899881875354545,-188.64275431677495,9.581257746246052,0.024494897427831782,0.0640508927951739,-0.7186667584119592
14902190,1906.0,1,187134,232973,0.4,-1.24,10.06,-0.04,-0.01,-0.02,29.15,12.981702,2.6630122665748064,-181.85920923276294,10.144022870636679,0.045825756949558406,0.10076154385359402,-0.6929137565275159
14942193,1936.0,1,187330,233077,0.15,-1.58,9.64,-0.04,-0.03,-0.02,29.15,13.021705,19.586021550662064,-115.32705726210999,9.76977481828522,0.05385164807134504,0.7392397707232563,-0.4403315721598515
14982192,1930.0,1,187394,233240,0.21,-0.8,9.55,-0.02,-0.02,-0.01,29.15,13.061704,22.283331942943263,-42.842764639663145,9.585749840257673,0.030000000000000002,0.8410050021706076,-0.16515272372882078
15022206,1935.0,1,187459,233416,0.22,-1.39,10.26,-0.04,0.0,-0.02,29.15,13.101718,22.198029336257154,-4.53702147243206,10.35606585533329,0.044721359549995794,0.8377866704808933,-0.019729075215636965
15062173,1931.0,1,187460,233589,0.22,-1.65,9.8,-0.03,-0.02,-0.01,29.15,13.141685,19.93476457506933,5.268502615504626,9.940367196436961,0.03741657386773942,0.7523972904125049,0.01749654607635523
15102192,1910.0,1,187516,233817,0.25,-0.88,9.73,-0.02,-0.04,-0.01,29.15,13.181704,-1.9989687716330722,25.31188618582381,9.772911541603147,0.0458257569495584,-0.07512758656092582,0.0935891036497713
15142193,1906.0,1,187587,234087,0.27,-1.17,9.99,-0.03,-0.0,-0.02,29.15,13.221705,-4.015033432383836,88.30204962660923,10.061903398462936,0.03605551275463989,-0.15119049997320555,0.3327245081767089
15182193,1919.0,1,187852,234320,0.27,-1.51,9.77,-0.03,-0.04,-0.02,29.15,13.261705,3.9533442445212326,193.94772571077507,9.889686547105525,0.05385164807134504,0.14944371730882727,0.733796994846126
15222244,1907.0,1,188020,234668,0.23,-0.74,9.45,-0.01,-0.03,-0.01,29.15,13.301756,0.6648993979340109,314.4326397350158,9.481719253384377,0.033166247903554,0.025375923008085086,1.1912050579584772
15262193,1910.0,1,188074,234912,0.35,-0.99,10.27,-0.02,0.03,-0.02,29.15,13.341705,-8.087568582552075,418.4680253191928,10.323541059152136,0.0412310562561766,-0.3048407744541626,1.5861642493277048
15302173,1891.0,1,188087,235024,0.24,-1.53,9.99,-0.04,-0.0,-0.02,29.15,13.381685,-13.7148181685036,485.63211406541427,10.109332322166484,0.044721359549995794,-0.5171479520652841,1.8411455139359387
15342880,1917.0,1,188083,234986,0.32,-0.82,9.95,-0.02,-0.02,-0.01,29.15,13.422392,-0.36206320250211604,501.4391390506228,9.988858793676082,0.030000000000000002,-0.013369742681791098,1.901155190173066
15383192,1909.0,1,188197,235048,0.31,-1.05,10.06,-0.03,0.01,-0.02,29.15,13.462704,2.1518087501100944,450.7431766069178,10.119397215249533,0.03741657386773942,0.08147464816720845,1.70869340209953
15423173,1907.0,1,188183,234728,0.32,-1.51,10.21,-0.04,-0.01,-0.01,29.15,13.502685,-6.891448788709096,327.83438765881044,10.326015688541249,0.042426406871192854,-0.2597130768753001,1.2420833576177155
15463192,1890.0,1,187825,233858,0.33,-0.77,9.71,-0.03,-0.03,-0.01,29.15,13.542704,-19.587130511107144,154.82239983110068,9.74607100322997,0.04358898943540673,-0.738700957750618,0.5852618884039965
15503193,1872.0,1,187621,233697,0.23,-0.87,9.81,-0.04,0.01,-0.01,29.15,13.582705,-39.902994223407305,-18.205473595252673,9.85118774564773,0.042426406871192854,-1.5051861863885294,-0.07161988878243265
15543173,1886.0,1,187508,233802,0.36,-1.27,9.98,-0.05,-0.02,-0.01,29.15,13.622685,-23.234504750097162,-140.64241203351202,10.066921078462869,0.05477225575051661,-0.8763105872052432,-0.5364386033742268
15583192,1919.0,1,187496,233975,0.28,-0.7,9.57,-0.02,-0.02,-0.0,29.15,13.662704,5.4861219933226595,-193.22025215984942,9.599651035324149,0.0282842712474619,0.20727298412606113,-0.7360447383794794
15623190,1904.0,1,187527,234140,0.3,-0.58,9.65,-0.03,0.02,-0.01,29.15,13.702702,-1.8389869887342343,-193.6780249121636,9.672068031191674,0.03741657386773942,-0.06909172831834101,-0.7377826235718075
15663173,1911.0,1,187520,234480,0.13,-1.44,10.01,-0.04,0.01,-0.01,29.15,13.742685,-5.865220084825493,-172.7293011908126,10.113881549632662,0.042426406871192854,-0.22099509993520214,-0.658253039144905
15703173,1907.0,1,187435,234850,0.17,-0.98,9.66,-0.03,-0.02,-0.01,29.15,13.782685,4.553070612405093,-146.7628716941743,9.71107100169698,0.03741657386773942,0.17207043939740538,-0.5596742725151581
15743193,1920.0,1,187410,235029,0.03,-0.53,9.56,-0.02,0.0,-0.01,29.15,13.822705,1.4668430755712776,-113.87721627305025,9.574727150159424,0.022360679774997897,0.05563198259842255,-0.4348274062317148
15783170,1905.0,1,187433,235252,0.29,-1.26,10.0,-0.04,-0.01,-0.01,29.15,13.862682,2.731436731706268,-72.26960834535045,10.083238567047792,0.042426406871192854,0.10334309010451526,-0.2768685820330417
15823193,1916.0,1,187466,235463,0.31,-0.97,9.84,-0.03,-0.03,-0.01,29.15,13.902705,-0.08819249514415675,-35.973388552964245,9.892552754471415,0.04358898943540673,-0.0030370364420166077,-0.1390738736416217
15863193,1887.0,1,187471,235663,0.05,-0.53,9.38,-0.02,-0.01,-0.01,29.15,13.942705,-19.357023672351193,-27.752713901467555,9.395094464666123,0.024494897427831782,-0.7300193926735586,-0.1078649633787038
15903192,1899.0,1,187353,235800,0.27,-0.74,10.09,-0.02,0.02,-0.01,29.15,13.982704,-11.368171354186341,-55.803988135056684,10.120701556710385,0.030000000000000002,-0.42861269973853244,-0.21435861960887653
15943173,1913.0,1,187197,235748,0.07,-1.17,10.2,-0.04,-0.01,-0.01,29.15,14.022685,1.2438121090346186,-100.06466002651264,10.267122284262518,0.042426406871192854,0.04721737892712087,-0.38238951680359895
15983193,1903.0,1,187095,235750,0.02,-0.53,9.85,-0.02,-0.02,-0.01,29.15,14.062705,-2.901576359012059,-125.17210169074252,9.864268852783768,0.030000000000000002,-0.10918153537549811,-0.4777072281896997
16023202,1915.0,1,187100,235762,0.01,-0.89,10.23,-0.03,0.01,-0.01,29.15,14.102714,1.5091762053196909,-110.17814538514091,10.26864645413406,0.033166247903554,0.057229144259559585,-0.42078428005399693
16063173,1904.0,1,187031,235677,0.04,-1.09,10.58,-0.04,-0.0,-0.01,29.15,14.142685,-2.4917367136857904,-67.83751365597345,10.636075404020037,0.04123105625617661,-0.09371893734366582,-0.2600426095549388
16103193,1906.0,1,187040,235630,-0.03,-0.67,9.69,-0.03,-0.03,-0.0,29.15,14.182705,-4.123751319613322,-35.21441496667842,9.713181765003679,0.042426406871192854,-0.15529225295945298,-0.13619251176434477
16141207,1915.0,1,186988,235452,-0.11,-0.43,9.79,-0.03,0.0,-0.01,29.15,14.220719,4.370776078850183,-43.1166210166545,9.800056122288279,0.03162277660168379,0.16519275655753282,-0.1661923901134885
16181190,1914.0,1,186806,234864,0.15,-0.97,10.62,-0.04,0.0,-0.01,29.15,14.260702,8.450776836912636,-90.74424813328733,10.665261365761271,0.04123105625617661,0.3191246965514482,-0.34700557196688864
16221172,1922.0,1,186571,234545,-0.01,-0.84,9.91,-0.04,-0.03,-0.01,29.15,14.300684,8.803806516782785,-147.19155777468856,9.945541714758427,0.05099019513592785,0.3324439449340513,-0.5613017332753641
16261206,1915.0,1,186559,234501,-0.05,-0.49,9.75,-0.03,-0.02,-0.0,29.15,14.340718,10.51868366950018,-177.12678660204355,9.762433098362314,0.03605551275463989,0.3971435326602039,-0.6749476212077787
16301207,1933.0,1,186518,234262,0.03,-1.0,10.09,-0.04,0.02,-0.01,29.15,14.380719,21.806230398359563,-166.82557429284475,10.139477304082297,0.0458257569495584,0.8230047196494007,-0.6358401727091914
16341170,1923.0,1,186421,234111,-0.04,-1.24,9.93,-0.05,-0.03,-0.01,29.15,14.420682,15.631365548333454,-128.9385197198081,10.007202406267197,0.05916079783099616,0.5900368890218047,-0.4920060305708817
16381895,1907.0,1,186373,234356,-0.13,-0.56,9.36,-0.03,-0.02,-0.0,29.57,14.461407,0.31426491960947456,-85.6620283364058,9.377638295434517,0.03605551275463989,0.012147041770601706,-0.3277114691953572
16422206,1911.0,1,186359,234474,0.03,-0.68,9.66,-0.04,-0.0,-0.01,29.57,14.501718,0.5776076808932871,-47.87344527090116,9.683950640105515,0.04123105625617661,0.022082545348062393,-0.18425116358170096
16462193,1904.0,1,186287,234558,0.02,-1.11,10.16,-0.04,-0.01,-0.01,29.57,14.541705,0.11416303677952774,-7.905516306918791,10.22047454866945,0.042426406871192854,0.00459751596240641,-0.032517204836051875
16502192,1918.0,1,186233,234704,-0.07,-0.63,9.44,-0.03,-0.02,0.0,29.57,14.581704,7.596159961363596,49.82837473474752,9.461257844494039,0.03605551275463989,0.28688136097244327,0.18666332486906143
16542192,1920.0,1,186223,234836,-0.16,-0.52,9.67,-0.02,0.02,-0.01,29.57,14.621704,15.817182330669679,130.99966773164877,9.685292974401962,0.030000000000000002,0.5970474607066064,0.49482143919172095
16582193,1923.0,1,186292,234876,0.04,-1.31,10.35,-0.04,0.0,-0.01,29.57,14.661705,14.947005995381991,222.69745487379134,10.432650669892094,0.04123105625617661,0.5642170914565674,0.8429422603589036
16622172,1919.0,1,186277,234905,-0.08,-1.12,10.01,-0.04,-0.03,-0.0,29.57,14.701684,13.668483679335063,302.22883651066104,10.072780152470319,0.05,0.5159804777633684,1.1448746269608396
16662205,1910.0,1,186231,234808,-0.19,-0.62,9.84,-0.02,-0.01,-0.01,29.57,14.741717,3.7249379631252495,355.75062980659607,9.861343721826149,0.024494897427831782,0.14082631155648706,1.3480643790062103
16702207,1899.0,1,186171,234697,0.13,-1.36,10.35,-0.04,-0.01,-0.01,29.57,14.781719,-5.915828955091652,389.61570730033674,10.43977969116207,0.042426406871192854,-0.22290449212479324,1.4766295162187004
16742192,1902.0,1,186170,234420,0.24,-1.23,10.16,-0.04,-0.05,-0.01,29.57,14.821704,-4.424319945239549,423.20015933361805,10.236996629871477,0.06480740698407861,-0.1666322291965951,1.6041292889466139
16782192,1905.0,1,186110,234148,0.06,-0.58,9.53,-0.02,-0.02,-0.0,29.57,14.861704,1.9162127665967583,467.5325739523352,9.54782174110933,0.0282842712474619,0.07258598638808551,1.7724325497163507
16822190,1914.0,1,186068,233873,0.31,-1.08,10.19,-0.04,0.01,-0.01,29.57,14.901702,6.815310593084024,506.2441819963564,10.251760824365734,0.042426406871192854,0.2574211561269475,1.9193970207356663
16862172,1913.0,1,185966,233731,0.25,-1.41,10.22,-0.05,-0.03,-0.01,29.57,14.941684,10.994243099708841,495.6858995357163,10.319835270003102,0.05916079783099616,0.41508563365853407,1.8793136329586468
16902193,1910.0,1,185954,233213,0.11,-0.72,9.72,-0.03,-0.03,-0.0,29.57,14.981705,3.608025273128609,388.7061653559581,9.747250894483019,0.042426406871192854,0.13641538169439643,1.4731765377071004
16942193,1894.0,1,185571,231804,0.24,-1.01,10.18,-0.04,0.0,-0.01,29.57,15.021705,-9.26816967337936,168.06465321578446,10.232795317018708,0.04123105625617661,-0.34938297604833074,0.6355346841393408
16982173,1898.0,1,185168,231037,0.23,-1.57,10.07,-0.06,-0.02,-0.01,29.57,15.061685,-5.831273470862546,-135.15344546838685,10.194248378374935,0.06403124237432849,-0.21971434817719937,-0.5156003300901771
17022193,1886.0,1,184848,230269,0.22,-0.95,9.42,-0.03,-0.04,-0.0,29.57,15.101705,-19.57364786542037,-453.29724327906877,9.470337903158471,0.05,-0.7381922789709107,-1.7233991613904476
17062195,1865.0,1,184560,229194,0.25,-0.79,9.68,-0.03,-0.02,-0.01,29.57,15.141707,-37.1852297920996,-715.6565116887364,9.715400146159704,0.03741657386773942,-1.4026492565776818,-2.7194180055313444
17102193,1889.0,1,184319,227977,0.31,-1.5,9.9,-0.05,-0.02,-0.01,29.57,15.181705,-16.80918989409087,-879.0176817886897,10.017789177258623,0.05477225575051661,-0.6338936761538669,-3.3396011795688287
17142190,1901.0,1,184216,228025,0.36,-1.22,9.37,-0.03,-0.04,-0.0,29.57,15.221702,-2.928226258447214,-935.3035116607772,9.455945219807482,0.05,-0.11018699369865888,-3.553284300239712
17182193,1900.0,1,184358,228243,0.24,-0.64,9.5,-0.02,0.01,-0.01,29.57,15.261705,-3.1772207078284347,-895.8976585056504,9.524557732514408,0.024494897427831782,-0.11958115828679727,-3.4036842020618616
17222170,1909.0,1,184384,228559,0.3,-1.51,10.0,-0.05,0.01,-0.01,29.57,15.301682,1.1313588278547442,-770.7355000167306,10.1178110280831,0.05196152422706632,0.04297469546768942,-2.928519481623421
17262172,1891.0,1,184500,229053,0.24,-1.55,9.92,-0.03,-0.03,-0.01,29.57,15.341684,-9.447411214714366,-563.4469126079404,10.043231551647109,0.04358898943540673,-0.3561454743470565,-2.1415705756975396
17302193,1887.0,1,184771,229784,0.2,-0.84,9.67,-0.02,-0.02,-0.0,29.57,15.381705,-23.553416192386276,-286.99459150471966,9.708475678498658,0.0282842712474619,-0.8883426087436739,-1.092048967429663
17342193,1881.0,1,185081,230509,0.27,-1.27,10.1,-0.04,-0.0,-0.01,29.57,15.421705,-19.691940416497296,19.2742157512692,10.183113472803885,0.04123105625617661,-0.7426552687971057,0.07066773493281556
17382879,1903.0,1,185399,230924,0.4,-1.64,10.09,-0.04,-0.05,-0.01,28.85,15.462391,-6.95128161899931,295.407580453898,10.230234601415551,0.06480740698407861,-0.2619704744073224,1.1189784594100238
17421193,1903.0,1,185696,231201,0.35,-0.81,9.55,-0.01,-0.04,-0.0,28.85,15.500705,-1.4134977911197941,491.0044000788073,9.590677765413663,0.04123105625617661,-0.053038697566859305,1.8615408220105851
17461193,1907.0,1,185664,231299,0.36,-0.86,9.97,-0.03,0.03,-0.01,28.85,15.540705,0.03702724625008865,592.6495291331582,10.01349589304355,0.04358898943540673,0.0016873052582300912,2.2474256606402707
17501172,1911.0,1,185634,231329,0.24,-1.74,10.31,-0.05,0.0,-0.01,28.85,15.580684,1.6000896574480097,619.8501228611111,10.458551524948376,0.050990195135927854,0.06065916422462986,2.350689799502549
17541173,1908.0,1,185588,231370,0.23,-0.98,9.9,-0.02,-0.03,-0.0,28.85,15.620685,3.5594555200419564,592.5431109831617,9.95104517123704,0.03605551275463989,0.13458292215308879,2.2470216555391826
17581193,1919.0,1,185598,231507,0.21,-0.76,9.95,-0.03,-0.0,-0.0,28.85,15.660705,6.408183313728427,506.1278206636359,9.981192313546513,0.03,0.2420608913495917,1.9189552674070283
17621190,1913.0,1,185668,231357,0.26,-1.82,10.27,-0.05,-0.01,-0.01,28.85,15.700702,8.256180246359868,344.38694435296037,10.43325931816132,0.05196152422706632,0.3117828766655582,1.3049233650854157
17661193,1917.0,1,185304,229775,0.37,-1.19,9.52,-0.03,-0.07,-0.0,28.85,15.740705,4.292327814587618,117.8847904251666,9.601218672647759,0.07615773105863909,0.16223302830669137,0.4450322130857271
17701193,1905.0,1,184867,229213,0.23,-0.72,9.59,-0.03,-0.01,-0.0,28.85,15.780705,-2.4743795286780665,-116.84492368872546,9.619740121229887,0.03162277660168379,-0.09306407835723243,-0.44609398937103667
17741192,1926.0,1,184847,229460,0.34,-1.38,10.08,-0.04,0.02,-0.01,28.85,15.820704,14.398409477161556,-283.7590927583793,10.179705300253048,0.0458257569495584,0.5435194172817024,-1.079765743204029
17781173,1936.0,1,184946,229750,0.35,-1.52,9.72,-0.04,-0.04,-0.01,28.85,15.860685,26.435859345279987,-336.8470768585636,9.844353711646082,0.05744562646538029,0.9976732571106233,-1.2813085851312684
17821193,1923.0,1,184965,230059,0.16,-0.8,9.6,-0.02,-0.01,0.0,28.85,15.900705,10.559981997913694,-287.3297519838219,9.634604299087743,0.022360679774997897,0.398701652912666,-1.0933213682677223
17861170,1924.0,1,185059,230501,0.35,-1.28,10.12,-0.04,0.02,-0.01,28.85,15.940682,15.337919603031457,-188.35987935042576,10.206630198062433,0.0458257569495584,0.5789656401857786,-0.7175928539193625
17901172,1937.0,1,185186,230766,0.24,-1.84,9.94,-0.05,-0.01,-0.01,28.85,15.980684,21.313078815043323,-96.01349050041614,10.111715977023879,0.05196152422706632,0.8043988946919098,-0.3670096858822044
17941193,1915.0,1,185254,230895,0.29,-1.02,9.4,-0.02,-0.05,-0.0,28.85,16.020705,8.716519706071956,-38.38159905988152,9.459624728286002,0.05385164807134505,0.3291507523820528,-0.14821638673097182
17981193,1931.0,1,185306,231167,0.17,-0.99,9.81,-0.04,0.02,-0.01,28.85,16.060705,12.74776285333362,-9.386992314471025,9.861293018666467,0.0458257569495584,0.4812431452618648,-0.03814146972140963
18021177,1921.0,1,185390,231402,0.29,-1.51,9.98,-0.05,-0.01,-0.01,28.85,16.100689,15.106513615614864,17.17970480870287,10.097752225124164,0.05196152422706632,0.5702350602958474,0.06271614861874691
18061193,1911.0,1,185430,231554,0.34,-1.2,9.61,-0.02,-0.04,-0.0,28.85,16.140705,-6.371327352872358,67.916681484016,9.6905985367262,0.044721359549995794,-0.24008972227357422,0.25533364282687937
18101193,1889.0,1,185604,231760,0.2,-0.77,9.89,-0.02,0.01,-0.01,28.85,16.180705,-19.68934957497082,155.66455024982736,9.921945373766176,0.024494897427831782,-0.7425575204666429,0.5884590222111511
18141172,1911.0,1,185739,232006,0.3,-1.67,10.32,-0.05,0.01,-0.01,28.85,16.220684,-2.6674673370815554,273.365089193463,10.458551524948376,0.05196152422706632,-0.1003489742921139,1.035296503745616
18181173,1917.0,1,185813,232110,0.31,-1.59,9.91,-0.03,-0.03,-0.0,28.85,16.260685,4.555610488779249,393.1664991878415,10.041528768071124,0.042426406871192854,0.17216626489372325,1.4901097170631965
18221193,1902.0,1,185910,232251,0.25,-0.8,10.01,-0.02,-0.02,-0.0,28.85,16.300705,-8.369789829933676,470.7336761339852,10.045028621163803,0.0282842712474619,-0.3154885332887916,1.7845851910705925
18261190,1907.0,1,185953,232422,0.22,-1.44,10.14,-0.04,0.02,-0.01,28.85,16.340702,-6.868382259832969,459.5555491805569,10.244100741402342,0.0458257569495584,-0.2588428134245369,1.7421486301085876
18301173,1907.0,1,185896,232369,0.4,-1.43,9.88,-0.04,-0.04,-0.01,28.85,16.380685,-2.9532254312191584,335.99430333067346,9.99096091474689,0.05744562646538029,-0.11113017273004121,1.2730616029263029
18341193,1904.0,1,185765,231604,0.28,-0.85,9.68,-0.02,-0.02,-0.0,28.85,16.420705,-8.094914088499767,121.58566885550619,9.721280779814972,0.0282842712474619,-0.3051179087116822,0.45908220140455785
18381193,1901.0,1,185379,230401,0.32,-0.99,9.93,-0.03,0.01,-0.01,28.85,16.460705,-10.572531820974051,-119.18820207126662,9.984357766025814,0.033166247903554,-0.3985944854915864,-0.4549899946092987
18421859,1904.0,1,185098,230261,0.32,-1.62,10.11,-0.05,-0.01,-0.01,28.43,16.501371,-5.4600758939888046,-312.655500925645,10.243968957391466,0.05196152422706632,-0.2057096539338703,-1.1894678598361053
18460193,1905.0,1,185228,230456,0.26,-1.31,9.93,-0.03,-0.03,-0.0,28.43,16.539705,-7.303586634703317,-418.6707697644761,10.019411160342708,0.042426406871192854,-0.2752623823634029,-1.5919434657874747
18500192,1891.0,1,185223,230363,0.21,-0.86,9.86,-0.02,-0.01,-0.0,28.43,16.579704,-17.686457260900422,-447.5581170239957,9.899661610378406,0.022360679774997897,-0.6669915787460411,-1.7016111836543963
18540193,1904.0,1,185143,230362,0.28,-1.59,9.9,-0.04,0.01,-0.01,28.43,16.619705,-6.612595582812284,-439.33891101363554,10.030777636853486,0.042426406871192854,-0.24919238888954512,-1.6704078489301515
18580172,1917.0,1,185130,230561,0.53,-1.57,9.84,-0.04,-0.06,-0.01,28.43,16.659684,7.1946534783908715,-427.195665692533,9.978546988414696,0.07280109889280519,0.2717331599036092,-1.6243073195219127
18620193,1913.0,1,185172,230747,0.23,-0.79,9.45,-0.02,-0.02,-0.0,28.43,16.699705,4.915675440824493,-415.96076431953855,9.485752474105572,0.0282842712474619,0.18575094290698455,-1.581655220560828
18660190,1919.0,1,185248,230806,0.39,-0.99,9.93,-0.03,0.02,-0.01,28.43,16.739702,8.655449901494709,-386.9210834224991,9.986846349073366,0.03741657386773942,0.32684668577739634,-1.4714091843654327
18700172,1919.0,1,185291,230923,0.32,-1.77,10.11,-0.05,-0.01,-0.01,28.43,16.779684,11.619604316326178,-318.30110545178786,10.26875844491436,0.05196152422706632,0.4386795178215792,-1.210900792351472
18740192,1914.0,1,185358,231218,0.23,-1.13,9.78,-0.02,-0.03,-0.0,28.43,16.819704,5.563393923878247,-204.0887512594559,9.847751012287018,0.03605551275463989,0.21018833117691446,-0.7773058303788407
18780192,1913.0,1,185513,231773,0.12,-0.8,9.95,-0.01,0.01,-0.0,28.43,16.859704,3.7932064908341157,-59.1890950236892,9.982830260001418,0.01414213562373095,0.143401974536448,-0.22720981511245764
18820170,1911.0,1,185730,232447,0.22,-1.52,10.02,-0.04,0.02,-0.01,28.43,16.899682,6.193463211530748,91.2264209243209,10.137021258732764,0.0458257569495584,0.23395984337266026,0.34382657038873427
18860172,1908.0,1,185842,232785,0.35,-1.26,9.82,-0.03,-0.05,-0.01,28.43,16.939684,-3.7674079255983726,228.83895498203577,9.906689659013246,0.05916079783099616,-0.1418479834121144,0.8662578073040689
18900193,1889.0,1,185944,232939,0.09,-0.58,9.61,-0.01,-0.02,-0.0,28.43,16.979705,-12.983635547224681,349.57429930256365,9.627907353106385,0.022360679774997897,-0.48956159459687265,1.3246166021963866
18940193,1909.0,1,185973,232986,0.34,-0.94,10.18,-0.02,0.02,-0.01,28.43,17.019705,-3.52619828100187,452.435170322127,10.228958891304627,0.030000000000000002,-0.13274752712798002,1.7151168748997547
18980173,1902.0,1,186003,233073,0.27,-1.49,10.05,-0.04,-0.03,-0.01,28.43,17.059685,0.013283623972967881,520.8252024255233,10.163439378478135,0.05099019513592785,0.0007914961502593319,1.9747523020729216
19020193,1904.0,1,186091,232973,0.2,-0.95,9.89,-0.02,-0.03,-0.0,28.43,17.099705,-6.560670246302942,520.397599493748,9.937534905599074,0.03605551275463989,-0.24723332852223384,1.9731289533708163
19060190,1904.0,1,186084,233024,0.21,-0.74,9.83,-0.02,0.0,-0.01,28.43,17.139702,-0.5151497993401281,424.7150867131563,9.860050709808748,0.022360679774997897,-0.019145456520023887,1.6098805483805632
19100172,1915.0,1,185843,232208,0.25,-1.59,10.23,-0.04,0.01,-0.01,28.43,17.179684,7.653126905261325,248.96703455342404,10.355843760891721,0.042426406871192854,0.2890306331686245,0.9426719041682429
19140173,1906.0,1,185468,231634,0.4,-1.19,9.7,-0.03,-0.06,-0.0,28.43,17.219685,-1.3239597413693625,55.88883370884035,9.780904866115403,0.0670820393249937,-0.04966056934614276,0.20967120783401041
19180193,1899.0,1,185392,231634,0.23,-0.61,9.68,-0.02,-0.01,-0.0,28.43,17.259705,-6.43213948768482,-79.80959777776923,9.701927643514972,0.022360679774997897,-0.24238406740778917,-0.3054933438142252
19220190,1905.0,1,185414,231469,0.46,-1.23,10.16,-0.03,0.02,-0.01,28.43,17.299702,-3.167671527236739,-121.179989918945,10.244515605923006,0.03741657386773942,-0.1192208828895618,-0.4625516037029815
19260173,1901.0,1,185507,231439,0.43,-1.57,10.31,-0.04,-0.03,-0.01,28.43,17.339685,-5.165225590612162,-90.19990413658677,10.437715267241199,0.05099019513592785,-0.19458542090110126,-0.3449390283235281
19300193,1915.0,1,185434,231217,0.34,-1.02,9.72,-0.02,-0.03,0.0,28.43,17.379705,7.949574683440899,-44.50013667957877,9.77928422738597,0.03605551275463989,0.3002151363851725,-0.17144475904937428
19340173,1921.0,1,185525,231187,0.19,-0.91,9.93,-0.03,0.01,-0.01,28.43,17.419685,12.926656945806107,-32.96518007141603,9.973419674314322,0.033166247903554,0.4879925348675711,-0.127653532546418
19380173,1904.0,1,185418,231093,0.45,-1.76,10.2,-0.05,0.0,-0.01,28.43,17.459685,-2.4248755527252506,-66.6397651187134,10.360506744363423,0.050990195135927854,-0.09119637207292089,-0.25549548560203006
19420172,1904.0,1,185373,231106,0.4,-1.2,9.53,-0.03,-0.05,-0.0,28.43,17.499684,-4.603929584182746,-122.21176124094201,9.613578938147853,0.05830951894845301,-0.17340861523267576,-0.4664686129467659
19460876,1901.0,1,185361,231005,0.13,-0.74,9.41,-0.02,-0.01,0.0,28.33,17.540388,-6.844593376819813,-166.956225058365,9.439947033749712,0.022360679774997897,-0.2579452967009757,-0.6363361743379822
19501172,1909.0,1,185381,230925,0.38,-1.27,10.16,-0.04,0.02,-0.01,28.33,17.580684,1.2255819561661279,-180.83247404160937,10.246116337422682,0.0458257569495584,0.0465295842516206,-0.689015866414731
19541173,1920.0,1,185401,230994,0.4,-1.49,9.63,-0.04,-0.02,-0.01,28.33,17.620685,10.251315847127039,-160.28928046163915,9.752794471329745,0.0458257569495584,0.3870561699290776,-0.611025833706854
19581193,1898.0,1,185490,230977,0.15,-1.12,9.76,-0.03,-0.02,-0.0,28.33,17.660705,-9.761479843905576,-107.62636754816337,9.825197199038806,0.03605551275463989,-0.36799478424904564,-0.41109672898291355
19621192,1904.0,1,185583,231091,0.3,-1.11,9.96,-0.04,0.02,-0.01,28.33,17.700704,-6.386019424991562,-21.5466103382896,10.026150806765278,0.0458257569495584,-0.24064403078917207,-0.0843041563407641
19661173,1920.0,1,185627,231456,0.32,-1.95,10.06,-0.06,0.01,-0.01,28.33,17.740685,11.042399373374563,99.93135701576695,10.252243656878235,0.06164414002968976,0.4169024932788648,0.3768739273076598
19701173,1911.0,1,185939,231893,0.39,-1.34,9.56,-0.03,-0.05,-0.0,28.33,17.780685,0.3010250251903859,247.007153932598,9.661330136166551,0.05830951894845301,0.011647521610166056,0.9352314274416451
19741193,1904.0,1,186187,231905,0.2,-0.83,9.52,-0.03,-0.01,-0.0,28.33,17.820705,-5.631736173942979,387.8662871425588,9.558205898598334,0.03162277660168379,-0.2121861232975165,1.4699880300839474
19779189,1907.0,1,186128,231573,0.41,-1.34,10.13,-0.04,0.03,-0.01,28.33,17.858701,-5.119959981288836,469.9329857729462,10.226465665125954,0.05099019513592785,-0.19287762144925624,1.7815454559289639
19819172,1904.0,1,185998,231320,0.52,-1.8,9.92,-0.05,-0.03,-0.01,28.33,17.898684,-5.272269550510904,435.81500756163035,10.0953850842848,0.05916079783099616,-0.19862401927128126,1.652020208246855
19859193,1918.0,1,186112,231449,0.2,-1.09,9.82,-0.02,-0.01,0.0,28.33,17.938705,4.037838033647662,253.74525369744904,9.882332720567549,0.022360679774997897,0.1526315335983136,0.9608119010424997
19899173,1915.0,1,186073,230317,0.16,-0.99,9.88,-0.03,0.01,-0.0,28.33,17.978685,5.714530596931497,-47.946560263102974,9.930765328009722,0.03162277660168379,0.2158904774917992,-0.18452873681348977
19939172,1911.0,1,185501,228501,0.33,-1.81,10.21,-0.05,0.01,-0.01,28.33,18.018684,-3.604261304169506,-371.43881489555355,10.374444563445314,0.05196152422706632,-0.13569272084497597,-1.4126324112163005
19979172,1904.0,1,185102,228132,0.47,-1.52,9.72,-0.03,-0.05,-0.0,28.33,18.058684,-6.861978202625061,-591.6974548167341,9.849350232375738,0.05830951894845301,-0.2586011985307413,-2.248820731439015
20019192,1913.0,1,185300,229102,0.03,-0.75,9.6,-0.02,-0.02,0.0,28.33,18.098704,-0.5049457929481623,-633.133220727516,9.629299039909395,0.0282842712474619,-0.018760475586743004,-2.4061271758376415
20059173,1919.0,1,185718,229924,0.31,-1.28,10.07,-0.03,0.02,-0.01,28.33,18.138685,5.26397785204426,-518.9780411886984,10.15575698803393,0.03741657386773942,0.19889183896139567,-1.9727492713093795
20099172,1920.0,1,185890,230426,0.27,-1.75,9.98,-0.05,-0.02,-0.01,28.33,18.178684,8.457612801364276,-347.92473653072994,10.135867007809447,0.05477225575051661,0.3193826066186684,-1.3233637328275516
20139198,1927.0,1,185869,230801,0.11,-1.02,9.69,-0.02,-0.02,-0.0,28.33,18.21871,10.40624847933615,-219.93936130948458,9.744157223690513,0.0282842712474619,0.39290153174602926,-0.8374809726433247
20179190,1920.0,1,186043,231307,0.06,-0.9,9.91,-0.02,0.02,-0.01,28.33,18.258702,9.922774554981126,-176.14954834722158,9.950964777346968,0.030000000000000002,0.3746608294703311,-0.6712376409089384
20219172,1923.0,1,186111,231604,0.29,-1.9,10.24,-0.04,-0.0,-0.01,28.33,18.298684,4.671415164596753,-193.63655699658122,10.418814711856623,0.04123105625617661,0.17653539114295957,-0.7376251950746262
20259193,1905.0,1,186122,231856,0.41,-1.46,9.56,-0.03,-0.07,-0.01,28.33,18.338705,-4.647306396992992,-221.6664611655188,9.679529947265001,0.07681145747868609,-0.17504515339591986,-0.8440377221446879
20299193,1921.0,1,186279,232237,0.08,-0.79,9.37,-0.01,-0.02,-0.0,28.33,18.378705,1.9568803991976649,-219.19084976909411,9.403584422974038,0.022360679774997897,0.07412031149056177,-0.8346393288020187
20339210,1923.0,1,186372,232413,0.37,-1.26,10.08,-0.03,0.0,-0.01,28.33,18.418722,13.354400429943112,-168.39336082194208,10.165180765731616,0.03162277660168379,0.5041306162644564,-0.6417921062392576
20379172,1923.0,1,186494,232753,0.39,-1.82,10.2,-0.05,-0.04,-0.01,28.33,18.458684,3.542248975871034,-68.72058878621841,10.368437683662856,0.06480740698407861,0.13393374660585705,-0.2633951096432633
20419193,1904.0,1,186726,233038,0.17,-0.96,9.81,-0.02,-0.02,-0.0,28.33,18.498705,-5.718347807918704,69.58220902390126,9.85832642997786,0.0282842712474619,-0.2154538425050633,0.26165663962900115
20459193,1915.0,1,186945,233213,0.22,-0.9,9.88,-0.02,0.01,-0.01,28.33,18.538705,-4.237536379492895,222.0343070629386,9.923346209822572,0.024494897427831782,-0.1595851823112368,0.8404246907679231
20499857,1907.0,1,187029,233326,0.34,-1.76,10.4,-0.05,-0.0,-0.01,28.39,18.579369,-3.9084301321355017,344.6533102505821,10.553350178971606,0.050990195135927854,-0.14716852699083463,1.3059345946679493
20540193,1908.0,1,187192,233485,0.49,-1.28,9.5,-0.03,-0.07,-0.0,28.39,18.619705,-9.053883828294257,383.665034657384,9.598359234785912,0.07615773105863909,-0.3412983119016383,1.4540384252935659
20580193,1906.0,1,187309,233607,0.17,-0.72,9.64,-0.02,-0.02,-0.0,28.39,18.659705,-8.212443837094462,305.55500995757023,9.66834525655761,0.0282842712474619,-0.3095521192133415,1.1575020879691147
20620193,1915.0,1,187208,232839,0.47,-1.24,10.21,-0.04,0.02,-0.01,28.39,18.699705,2.0433319743245004,128.41316322444175,10.295756407374837,0.0458257569495584,0.07738199193228873,0.48500205203894503
20660173,1913.0,1,186789,231929,0.55,-1.57,9.9,-0.04,-0.02,-0.01,28.39,18.739685,-5.163911867842363,-77.08079790127123,10.038794748374926,0.0458257569495584,-0.19453585623026884,-0.29513374754245425
20700193,1905.0,1,186725,231848,0.28,-1.1,9.8,-0.02,-0.03,0.0,28.39,18.779705,-4.80242004298119,-227.7119491563431,9.86551569863431,0.03605551275463989,-0.1808973445748822,-0.8669887693761743
20740170,1929.0,1,186883,232375,0.27,-0.95,9.84,-0.02,-0.0,-0.0,28.39,18.819682,9.758411862328364,-278.9139349763015,9.889438811176294,0.02,0.3684596864698875,-1.0613716209645587
20780193,1911.0,1,186948,232673,0.37,-1.67,9.99,-0.05,0.01,-0.01,28.39,18.859705,0.3104061613489158,-242.0720592734577,10.135378631309242,0.05196152422706632,0.012001456958186761,-0.9215053883898039
20820173,1910.0,1,187115,232714,0.46,-1.4,9.52,-0.03,-0.06,-0.0,28.39,18.899685,-6.019906260804157,-155.23732568278112,9.633379469324355,0.0670820393249937,-0.2268311633505294,-0.591846628832593
20860193,1910.0,1,187204,233045,0.24,-0.84,9.54,-0.01,-0.01,0.0,28.39,18.939705,-4.7058306580555245,-40.48524874550087,9.579916492329147,0.01414213562373095,-0.17725318069205798,-0.1562026673035957
20900170,1911.0,1,187288,233303,0.36,-1.0,9.97,-0.03,0.02,-0.01,28.39,18.979682,-0.6399722955686221,109.04124619306045,10.026489914222225,0.03741657386773942,-0.02385481079192355,0.41145864521612446
20940172,1927.0,1,187587,233652,0.43,-1.63,9.96,-0.05,-0.02,-0.01,28.39,19.019684,9.430294187663224,303.6167514811151,10.101653330024744,0.05477225575051661,0.35608032842499265,1.1501436973962662
20980193,1909.0,1,187862,234007,0.11,-1.08,9.79,-0.03,-0.02,0.0,28.39,19.059705,-1.0530531548438604,524.1296010448775,9.850005076140823,0.03605551275463989,-0.03943969467140288,1.987297097282103
21020172,1911.0,1,188091,234576,0.09,-0.82,9.95,-0.02,0.02,-0.0,28.39,19.099684,-6.0544389036739386,718.7263889781735,9.984137418926082,0.0282842712474619,-0.22813402504719904,2.726062946743934
21060170,1906.0,1,188283,234963,0.23,-1.59,10.19,-0.04,0.02,-0.01,28.39,19.139682,-5.170805992481719,834.3309747005436,10.315866420228598,0.0458257569495584,-0.19479596058887683,3.164943366507825
21100172,1903.0,1,188264,235225,0.29,-1.4,9.78,-0.03,-0.04,-0.0,28.39,19.179684,-12.26503545253211,853.3096895356709,9.883951638894231,0.05,-0.4624499558460091,3.2369940233340455
21140193,1909.0,1,188172,235329,-0.0,-0.74,9.47,-0.02,0.0,-0.0,28.39,19.219705,-3.001465506305036,800.2176548456707,9.498868353651398,0.02,-0.11295019404468128,3.035435803776692
21180193,1919.0,1,188121,235272,0.3,-1.05,10.2,-0.03,0.03,-0.01,28.39,19.259705,4.234047665388283,711.9368913074688,10.2582893310727,0.04358898943540673,0.1600342109629297,2.700287346502081
21220170,1917.0,1,187990,235224,0.41,-1.66,10.2,-0.05,-0.02,-0.01,28.39,19.299682,5.5832459174832785,599.5547012911453,10.34232565722043,0.05477225575051661,0.2109373153241185,2.273640406675668
21260193,1919.0,1,187917,235005,0.13,-1.02,9.67,-0.02,-0.02,0.0,28.39,19.339705,3.968647221558164,439.0586447271046,9.724515412091236,0.0282842712474619,0.15002107429542152,1.6643343291084949
21300170,1908.0,1,187776,234955,0.21,-0.9,10.03,-0.03,0.02,-0.01,28.39,19.379682,-3.0878720675274973,201.19998195202592,10.072487279713982,0.03741657386773942,-0.11621017618338382,0.7613294084048692
21340173,1921.0,1,187392,233827,0.27,-1.74,10.28,-0.05,0.01,-0.01,28.39,19.419685,6.761981882286728,-107.14311998566856,10.42971236420257,0.05196152422706632,0.2554091486796007,-0.4092621314039997
21380172,1927.0,1,186929,232858,0.39,-1.29,9.62,-0.03,-0.06,-0.0,28.39,19.459684,14.944447843639987,-430.1579035688654,9.713938439170796,0.0670820393249937,0.5641205764596847,-1.635553138141318
21420193,1922.0,1,186723,232806,0.15,-0.81,9.56,-0.02,-0.01,-0.0,28.39,19.499705,9.345917989934495,-691.8820775547894,9.59542599367011,0.022360679774997897,0.3528969486719307,-2.6291609143687698
21460193,1917.0,1,186721,232634,0.4,-1.25,10.2,-0.04,0.01,-0.01,28.39,19.539705,4.1473728294341115,-840.4056306893381,10.284089653440406,0.042426406871192854,0.15676410724524903,-3.193014665819927
21500858,1910.0,1,186682,232555,0.49,-1.71,10.0,-0.04,-0.03,-0.01,28.77,19.58037,-2.36094761109416,-871.0024878522087,10.156977896992785,0.05099019513592785,-0.08878447250264612,-3.3091723548180547
21539193,1906.0,1,186671,232538,0.23,-1.26,9.83,-0.02,-0.04,-0.0,28.77,19.618705,-5.598002182018223,-817.4055789431867,9.913092353045037,0.044721359549995794,-0.21091339343087234,-3.1056974343981216
21580193,1910.0,1,186724,232569,0.14,-1.0,9.96,-0.03,-0.0,-0.0,28.77,19.659705,-4.364617524238819,-728.6096584479461,10.011053890575159,0.03,-0.1643797517996693,-2.768593238948103
21620190,1903.0,1,186856,232654,0.42,-1.68,10.06,-0.05,0.0,-0.01,28.77,19.699702,-5.541195213241471,-650.0795077328206,10.20795768016306,0.050990195135927854,-0.20877015684158998,-2.4704619382335617
21660172,1907.0,1,186866,232608,0.62,-1.62,9.79,-0.04,-0.05,-0.0,28.77,19.739684,-10.189009826374537,-611.497846794213,9.942479570006668,0.06403124237432849,-0.38412481056753695,-2.3239907974728573
21700193,1901.0,1,186952,232407,0.21,-1.21,9.64,-0.02,-0.02,0.0,28.77,19.779705,-5.046199851002735,-614.8211719029672,9.7179112982163,0.0282842712474619,-0.19009476903759753,-2.3366074450705976
21738172,1920.0,1,186935,232269,0.14,-0.99,9.81,-0.03,0.01,-0.0,28.77,19.817684,1.7993430544458249,-625.2585918232063,9.860821466794743,0.03162277660168379,0.06817667801176382,-2.3762319911664376
21778208,1903.0,1,186954,232465,0.51,-1.53,10.08,-0.05,0.02,-0.01,28.77,19.85772,-3.317640414243219,-578.7143225727732,10.208202584196691,0.05477225575051661,-0.12487897049408436,-2.199531661343095
21818172,1920.0,1,187122,232592,0.68,-1.97,9.94,-0.05,-0.05,-0.01,28.77,19.897684,3.7215674122853475,-414.36376552367255,10.156126230015063,0.07141428428542851,0.14069914603363537,-1.5755923857908016
21858193,1919.0,1,187443,232802,0.6,-1.5,9.43,-0.03,-0.07,-0.0,28.77,19.937705,9.91439241520612,-120.09013362253654,9.56738731315922,0.07615773105863909,0.374344584667112,-0.4584140810791059
21898192,1911.0,1,187766,233061,-0.01,-1.15,9.71,-0.02,-0.0,0.0,28.77,19.977704,-1.9657413795936698,240.21766781509274,9.777867865746602,0.02,-0.0738739699022876,0.9094558710602757
21938190,1906.0,1,188119,233347,0.39,-1.19,9.75,-0.03,0.02,-0.01,28.77,20.017702,-6.122283241261688,545.2650523109972,9.830091556033443,0.03741657386773942,-0.2306936840084988,2.0675355728201796
21978205,1906.0,1,188376,233582,0.65,-1.74,10.2,-0.06,0.01,-0.01,28.77,20.057717,-4.452995820227259,680.1277570660919,10.367743245277634,0.06164414002968976,-0.16771412435535418,2.579527377501301
22018172,1913.0,1,188263,233718,0.84,-1.67,9.72,-0.04,-0.05,-0.01,28.77,20.097684,-0.8814565398375469,608.3363902092657,9.89812608527493,0.06480740698407861,-0.03296562728499028,2.3069791474750723
22058192,1916.0,1,188101,233640,0.25,-1.19,9.52,-0.02,-0.02,0.0,28.77,20.137704,6.534108500820132,400.2508466306906,9.597343382415781,0.0282842712474619,0.24681184839410167,1.517004682864447
22098173,1923.0,1,187772,232892,-0.13,-1.01,9.57,-0.02,0.01,0.0,28.77,20.177685,8.702349584689772,190.55430549206326,9.624027223569144,0.022360679774997897,0.32861613623768116,0.7209142386758808
22138172,1924.0,1,187690,232887,0.34,-1.33,10.17,-0.03,0.03,-0.01,28.77,20.217684,14.200137685800723,90.40507837530195,10.262231726091553,0.04358898943540673,0.5360389379141604,0.3407084314288398
22178172,1933.0,1,187878,233215,0.58,-1.71,10.26,-0.05,-0.05,-0.01,28.77,20.257684,19.441310455728008,118.4396279201225,10.417682083841875,0.07141428428542851,0.7337800512519244,0.44713859417057256
22218193,1922.0,1,188051,233449,0.42,-1.19,9.68,-0.02,-0.05,-0.0,28.77,20.297705,10.615240327354304,202.22341353248177,9.761910673633517,0.05385164807134505,0.4007864618026662,0.7652147567137051
22258192,1905.0,1,188047,233484,-0.04,-0.8,9.59,-0.01,0.01,0.0,28.77,20.337704,-6.786585892109051,244.77859171279982,9.62339337240248,0.01414213562373095,-0.2557567665547374,0.9267709298205227
22298172,1902.0,1,187952,233621,0.25,-1.27,9.92,-0.03,0.05,-0.01,28.77,20.377684,-11.773183699299304,199.72276685034788,10.004089163936914,0.05916079783099616,-0.4438931714103883,0.7557213195919998
22338172,1909.0,1,187884,233778,0.57,-1.7,10.46,-0.05,-0.01,-0.01,28.77,20.417684,-1.0135914026515913,98.16586681347202,10.612563309587369,0.05196152422706632,-0.03795086551897895,0.3701714329712063
22378193,1910.0,1,187924,233873,0.47,-1.51,9.71,-0.03,-0.06,-0.01,28.77,20.457705,-5.290364796969384,15.326632516741098,9.837941857929433,0.06782329983125268,-0.19930672414247955,0.05568115826549102
22418192,1901.0,1,187855,233980,0.05,-0.82,9.63,-0.01,-0.0,-0.0,28.77,20.497704,-9.296089775389984,10.596091345631374,9.664978013425587,0.01,-0.35043635709460397,0.0377221657055163
22458192,1919.0,1,187994,234224,0.18,-1.1,9.92,-0.02,0.02,-0.01,28.77,20.537704,4.921773365781733,87.15994036670948,9.98242455518698,0.030000000000000002,0.1859810079178183,0.32838861277715437
22498172,1919.0,1,188131,234481,0.47,-1.89,10.25,-0.05,-0.01,-0.01,28.77,20.577684,5.4998476597878705,196.44824356395628,10.433383918940201,0.05196152422706632,0.20779083169325194,0.7432899428825196
22538879,1911.0,1,188336,234633,0.58,-1.47,9.62,-0.03,-0.08,-0.01,28.51,20.618391,0.1419426233941563,278.7948829104287,9.74893327497937,0.08602325267042626,0.005645595586256648,1.0559101336534833
22579193,1905.0,1,188312,234552,0.15,-0.77,9.33,-0.01,-0.01,-0.0,28.51,20.658705,-12.182304616827421,306.35835456650426,9.362921552592438,0.01414213562373095,-0.4593286529854213,1.1605518996784074
22618192,1883.0,1,188284,234679,0.44,-1.18,9.99,-0.03,0.02,-0.01,28.51,20.697704,-26.129985466783882,294.08377422502525,10.069066490991109,0.03741657386773942,-0.9855524698332799,1.1139527709411512
22658170,1901.0,1,188308,234680,0.58,-1.84,10.28,-0.05,-0.02,-0.01,28.51,20.737682,-16.91765590382621,271.7867758465709,10.45946461344939,0.05477225575051661,-0.6379859262028321,1.0293046062800042
22698210,1901.0,1,188280,234670,0.39,-1.24,9.82,-0.03,-0.04,-0.0,28.51,20.777722,-9.892391997211119,245.01759412960868,9.905659998203047,0.05,-0.3729338915978082,0.9276782768808337
22738192,1920.0,1,188281,234616,0.15,-0.75,9.81,-0.01,0.0,-0.0,28.51,20.817704,4.129295989037558,183.57791967903273,9.839771338806608,0.01,0.15608209680549526,0.6944291376314398
22778172,1926.0,1,188240,234666,0.39,-1.52,10.07,-0.04,0.03,-0.01,28.51,20.857684,12.18052212171256,52.001577273810724,10.191535703710212,0.05099019513592785,0.45984205456612104,0.19491365539545208
22818173,1909.0,1,188158,233873,0.59,-1.68,10.03,-0.04,-0.06,-0.01,28.51,20.897685,-5.448940703554536,-144.3358775351497,10.186824824252156,0.07280109889280519,-0.20528954090757698,-0.550460449303722
22858192,1915.0,1,187735,232969,0.31,-1.09,9.35,-0.02,-0.04,0.0,28.51,20.937704,0.18820479270795556,-343.3861288344828,9.418423434949185,0.044721359549995794,0.007390993661668254,-1.3061333951344065
22898170,1920.0,1,187579,233154,0.31,-0.78,9.69,-0.02,0.02,-0.0,28.51,20.977682,4.927010096196596,-462.4757784909146,9.726283976935898,0.0282842712474619,0.18617858142816435,-1.7582444866119458
22938172,1914.0,1,187785,233641,0.38,-1.59,10.22,-0.04,0.03,-0.01,28.51,21.017684,-0.47487353673342847,-458.0782332271464,10.349922705025387,0.05099019513592785,-0.01762589718501585,-1.7415496773253294
22978172,1925.0,1,187968,233992,0.44,-1.64,9.91,-0.04,-0.05,-0.01,28.51,21.057684,9.400609756459417,-356.02184362228377,10.054416939832961,0.06480740698407861,0.35496038204415237,-1.3541035320925099
23018193,1911.0,1,188075,234172,0.17,-0.99,9.48,-0.02,-0.03,0.0,28.51,21.097705,-4.127307007758515,-227.1016303672423,9.53306876089751,0.03605551275463989,-0.15542640341840114,-0.8646717595043201
23058170,1904.0,1,188085,234384,0.12,-1.09,9.76,-0.03,0.02,-0.01,28.51,21.137682,-10.673112792422828,-134.52641064526068,9.821410285697263,0.03741657386773942,-0.402389245585929,-0.5132198595866879
23098172,1925.0,1,188137,234499,0.55,-1.58,10.31,-0.04,-0.01,-0.02,28.51,21.177684,8.469048074588022,-99.71355826855596,10.44485519286888,0.045825756949558406,0.31981404129137364,-0.3810565966088765
23138192,1919.0,1,188178,234516,0.48,-1.46,9.83,-0.03,-0.05,-0.01,28.51,21.217704,5.309876751465191,-106.92162494060587,9.949417068351291,0.05916079783099616,0.2006235314414737,-0.40842124920416906
23178193,1919.0,1,188150,234522,0.15,-0.93,9.69,-0.02,-0.02,-0.0,28.51,21.257705,2.0097536411116934,-129.6168090718403,9.73568179430696,0.0282842712474619,0.07611513482129542,-0.4945810834001543
23218190,1923.0,1,188162,234589,0.28,-1.18,10.04,-0.03,0.04,-0.01,28.51,21.297702,9.305745062948304,-149.2437086325276,10.112981756138986,0.05099019513592785,0.35138128802554525,-0.5690925040677114
23258172,1919.0,1,188168,234653,0.43,-1.9,10.34,-0.05,-0.0,-0.01,28.51,21.337684,2.5488241515790273,-153.98997466303044,10.521905720923373,0.050990195135927854,0.09645340787327235,-0.5871111943710587
23298190,1911.0,1,188244,234731,0.58,-1.39,9.72,-0.04,-0.07,-0.0,28.51,21.377702,-2.9325592912873093,-129.28190670705402,9.836000203334688,0.0806225774829855,-0.11035047213669966,-0.493309662465432
23338192,1922.0,1,188264,234838,0.23,-0.9,9.55,-0.02,-0.0,0.0,28.51,21.417704,6.092624307103472,-60.374710272349354,9.5950716516345,0.02,0.2301553518772413,-0.23171087633558304
23378170,1927.0,1,188264,234894,0.52,-1.27,9.98,-0.04,0.02,-0.01,28.51,21.457682,13.293210823766215,47.22057211153218,10.073911851907381,0.0458257569495584,0.501822029735971,0.17676308170148736
23418177,1919.0,1,188410,234939,0.77,-1.92,10.27,-0.06,-0.04,-0.01,28.51,21.497689,3.5029980153819213,149.17645914079714,10.476268419623468,0.07280109889280519,0.13245287028916172,0.563827679677422
23458193,1917.0,1,188480,234945,0.47,-1.33,9.79,-0.03,-0.05,-0.0,28.51,21.537705,3.563665322678311,175.00806308877165,9.89110206195447,0.05830951894845301,0.13474175131152094,0.6618945955616063
23498192,1936.0,1,188563,234750,0.22,-0.91,9.89,-0.02,0.02,-0.0,28.51,21.577704,21.405032405746937,77.3683269340313,9.934213607528278,0.0282842712474619,0.8078681574312471,0.2912158017969755
23538857,1930.0,1,188198,233232,0.57,-1.8,10.12,-0.05,0.03,-0.01,28.37,21.618369,16.407873578522107,-117.42524679937162,10.294624811036096,0.05916079783099616,0.6193333020853544,-0.44829712386442716
23579172,1915.0,1,187811,232238,0.86,-1.93,9.95,-0.05,-0.07,-0.01,28.37,21.658684,1.697185997156933,-306.95255881922117,10.171872983870767,0.08660254037844388,0.06432245470519354,-1.1678172513423615
23620188,1914.0,1,187901,232303,0.34,-1.05,9.28,-0.02,-0.03,0.0,28.37,21.6997,0.4574848715158044,-371.38122431043524,9.345399937937382,0.03605551275463989,0.017550502786929083,-1.4124137747321746
23658170,1907.0,1,188033,232674,0.23,-0.94,9.67,-0.03,0.03,-0.0,28.37,21.737682,-5.592947189275982,-251.70825472636957,9.71830232087889,0.042426406871192854,-0.21072267659388877,-0.9580881716667349
23698170,1908.0,1,188311,233082,0.62,-1.79,10.3,-0.05,0.04,-0.01,28.37,21.777682,-4.5590309536913685,11.627176576013705,10.4727503550882,0.06480740698407861,-0.17171466130853733,0.04163657027601752
23738173,1918.0,1,188488,233657,0.67,-1.99,10.08,-0.05,-0.04,-0.01,28.37,21.817685,5.305518742393438,304.68757265603114,10.296378003939056,0.06480740698407861,0.20045911068993333,1.1542089552214865
23778192,1906.0,1,188761,234166,0.29,-1.1,9.15,-0.02,-0.04,0.0,28.37,21.857704,-5.119958816517385,506.66759818484667,9.220444674743188,0.044721359549995794,-0.19287757750428178,1.9210044749156043
23818188,1890.0,1,188776,234262,0.02,-1.09,9.77,-0.02,0.05,-0.0,28.37,21.8977,-22.734309424086902,550.9776611870773,9.830635788187863,0.05385164807134505,-0.8574390130378863,2.089222880168886
23858170,1890.0,1,188574,233916,0.67,-1.87,10.39,-0.05,-0.0,-0.01,28.37,21.937682,-20.315423905958596,446.9829202400777,10.578180372824052,0.050990195135927854,-0.7661783093007871,1.6944179918086104
23898193,1899.0,1,188322,233710,0.64,-1.87,10.03,-0.04,-0.06,-0.01,28.37,21.977705,-12.804195750056142,259.4184979395601,10.222886089554162,0.07280109889280519,-0.48279161642084284,0.9823497647772509
23938193,1904.0,1,188253,233832,0.07,-0.93,9.35,-0.01,0.0,0.0,28.37,22.017705,-6.762784742430638,68.92054826283396,9.396398246136654,0.01,-0.25485878702940423,0.25914471546315626
23978163,1914.0,1,188102,233914,-0.0,-1.08,9.85,-0.01,0.05,-0.01,28.37,22.057675,4.119591396737607,-58.97304982791466,9.90903123418228,0.05196152422706632,0.15571595797166554,-0.2263896226813614
24018190,1907.0,1,187987,233949,0.54,-2.0,10.34,-0.05,0.02,-0.01,28.37,22.097702,-4.869645903613025,-87.28412976383608,10.54548244510416,0.05477225575051661,-0.1834336693842269,-0.33386960341574096
24058172,1890.0,1,188038,233972,0.79,-1.87,9.9,-0.04,-0.07,-0.01,28.37,22.137684,-18.19057286070366,-12.592695744536723,10.105988323761313,0.08124038404635961,-0.6860110586090203,-0.05031157922212239
24098193,1906.0,1,188050,234218,0.18,-0.8,9.04,-0.01,-0.03,0.0,28.37,22.177705,-6.198738348694251,131.4239819551365,9.077114078824833,0.03162277660168379,-0.23357821362195078,0.4964323026652799
24138172,1908.0,1,188286,234696,0.22,-0.97,10.06,-0.02,0.03,-0.01,28.37,22.217684,0.08786611172770248,279.5278317338118,10.109050400507458,0.03741657386773942,0.00360537480137771,1.0586926953076061
24178172,1907.0,1,188441,234937,0.55,-1.96,10.59,-0.05,-0.0,-0.01,28.37,22.257684,-4.350622262781385,359.4868364862943,10.78388612699522,0.050990195135927854,-0.16385173284217083,1.362248487237423
24218193,1904.0,1,188290,234609,0.4,-1.36,9.61,-0.02,-0.05,-0.01,28.37,22.297705,-4.580883235205722,327.71267231798544,9.71399505867694,0.05477225575051661,-0.17253911313741271,1.2416212783711251
24258188,1904.0,1,188002,234294,0.17,-0.61,9.73,-0.01,0.01,-0.0,28.37,22.3377,-6.397112176359045,191.27514384740587,9.750584597858737,0.01414213562373095,-0.2410625426569683,0.7236508242360282
24298172,1909.0,1,187884,234589,0.3,-1.65,10.36,-0.04,0.02,-0.01,28.37,22.377684,-0.06505833046464947,-0.43113387842088596,10.494860647002417,0.0458257569495584,-0.002164221199956115,-0.004141513013817827
24338172,1920.0,1,187713,234816,0.49,-1.51,9.7,-0.03,-0.05,-0.0,28.37,22.417684,9.940036753235532,-185.5984250371416,9.829048784088926,0.05830951894845301,0.37531210475762344,-0.7071092885780748
24378193,1922.0,1,187570,234952,0.21,-0.66,9.53,-0.02,-0.0,-0.0,28.37,22.457705,12.749181116520052,-318.4942944458329,9.555134745256082,0.02,0.48129665407636146,-1.2116342136623175
24418189,1922.0,1,187357,234904,0.42,-1.28,10.19,-0.03,0.01,-0.01,28.37,22.497701,12.036309960858953,-381.92188121205595,10.278662364335156,0.033166247903554,0.45440115908416717,-1.4524302489633978
24458172,1919.0,1,187411,235164,0.26,-1.5,9.82,-0.04,-0.03,-0.01,28.37,22.537684,9.3443327189291,-383.935629873658,9.937303457175895,0.05099019513592785,0.35283713891802465,-1.4600752299334896
24498188,1920.0,1,187435,235378,0.22,-0.67,9.79,-0.02,0.0,-0.0,28.37,22.5777,10.231237992282743,-345.4657062969949,9.815365505165866,0.02,0.38629866439651334,-1.3140282880919463
24538170,1922.0,1,187485,235480,0.29,-1.43,10.35,-0.04,0.01,-0.01,28.37,22.617682,11.769012476487726,-286.19412064859443,10.452344234668125,0.042426406871192854,0.44431645009399146,-1.089010065614914
24578857,1923.0,1,187511,235339,-0.0,-1.44,10.02,-0.03,-0.02,-0.0,28.39,22.658369,13.162363567457355,-216.58275600400202,10.122944235744855,0.03605551275463989,0.4968853708476847,-0.8247379803455128
24617209,1923.0,1,187509,235367,0.28,-0.9,9.94,-0.02,-0.02,-0.01,28.39,22.696721,12.485337773517449,-140.70548768798935,9.984588123703452,0.030000000000000002,0.47134226434674825,-0.5366780633363114
24657192,1913.0,1,187640,235512,0.36,-1.7,10.22,-0.04,-0.03,-0.01,28.39,22.736704,2.620322586042244,-65.3095086227818,10.366677384774738,0.05099019513592785,0.09915093009840971,-0.25044530938557635
24697193,1915.0,1,187670,235662,0.23,-1.06,9.51,-0.03,-0.05,-0.01,28.39,22.776705,4.2629599407815455,-3.9335127838539075,9.571656074055316,0.05916079783099616,0.16112502513303215,-0.017437919160543887
24737193,1921.0,1,187718,235901,0.33,-1.03,9.84,-0.03,0.01,-0.01,28.39,22.816705,10.278463029767954,30.097745555316845,9.899262598799973,0.033166247903554,0.38808038995673994,0.11175810582117575
24777172,1909.0,1,187660,235836,0.35,-1.38,9.74,-0.04,-0.04,-0.01,28.39,22.856684,-2.662443982363676,35.626376534050785,9.843500393660785,0.05744562646538029,-0.1001594511074741,0.1327469608004543
24817192,1902.0,1,187697,235860,0.23,-0.92,9.42,-0.02,-0.02,-0.0,28.39,22.896704,-8.434509051436875,27.856982905296544,9.467613215589239,0.0282842712474619,-0.3179302865902332,0.10325129057429701
24857192,1909.0,1,187656,235692,0.38,-0.98,10.05,-0.03,0.01,-0.01,28.39,22.936704,-3.9959341536155932,28.232750003267157,10.104815683623329,0.033166247903554,-0.15046991455971742,0.10467785008887247
24897172,1904.0,1,187604,235672,0.3,-1.65,9.8,-0.04,-0.01,-0.01,28.39,22.976684,-6.508459502222923,46.66355865118201,9.942459454279913,0.042426406871192854,-0.24526350018117743,0.17464843979723188
24937192,1905.0,1,187676,235740,0.27,-0.98,9.81,-0.02,-0.02,-0.0,28.39,23.016704,-8.375104630473649,71.55606597078393,9.862525031653913,0.0282842712474619,-0.31568905226079963,0.26915017597955887
24977190,1904.0,1,187791,235448,0.38,-1.2,10.21,-0.04,-0.01,-0.01,28.39,23.056702,-8.059377512461056,78.48072880794335,10.287297993156416,0.042426406871192854,-0.30377717021314876,0.29543891628951924
25017192,1904.0,1,187654,234924,0.39,-1.62,10.2,-0.04,-0.02,-0.0,28.39,23.096704,-8.393154591086297,51.72362204741293,10.335206819411017,0.044721359549995794,-0.3163700485690548,0.19385842816830734
25057206,1902.0,1,187565,235006,0.36,-0.85,9.59,-0.02,-0.03,-0.0,28.39,23.136718,-12.484187259779267,-0.5255573517445515,9.634324055168582,0.03605551275463989,-0.47071820500651845,-0.004499981610447519
25097193,1897.0,1,187575,235149,0.32,-1.21,9.85,-0.04,0.02,-0.01,28.39,23.176705,-14.49932695974483,-51.481291157557145,9.929199363493513,0.0458257569495584,-0.5467462211193791,-0.19794796381920754
25137172,1903.0,1,187514,235160,0.46,-1.43,9.98,-0.04,-0.04,-0.01,28.39,23.216684,-12.830355172440223,-76.20788151381295,10.092417946161365,0.05744562646538029,-0.4837785698248942,-0.2918198140323553
25177193,1904.0,1,187567,235126,0.15,-0.79,9.4,-0.02,-0.03,0.0,28.39,23.256705,-8.485866299461804,-68.6436658706663,9.434330924872205,0.03605551275463989,-0.3198679138824841,-0.2631030800385895
25217170,1920.0,1,187582,235110,0.43,-0.88,10.06,-0.03,0.01,-0.01,28.39,23.296682,5.013320673667642,-41.8439646841222,10.10756647269757,0.033166247903554,0.18943494225257326,-0.16136088674407786
25257213,1922.0,1,187642,235260,0.3,-1.63,10.0,-0.04,-0.01,-0.01,28.39,23.336725,6.7028026714683655,-13.957897079253344,10.136414553479943,0.042426406871192854,0.25317641117077105,-0.055494419773807487
25297189,1910.0,1,187624,235357,0.28,-0.97,9.78,-0.02,-0.04,0.0,28.39,23.376701,-3.1432216856560813,6.333187277306218,9.831973352282846,0.044721359549995794,-0.11829842925040075,0.021538507287217817
25337172,1920.0,1,187664,235512,0.3,-1.03,10.11,-0.03,0.01,-0.01,28.39,23.416684,2.146987604313475,22.95599559640926,10.166759562417122,0.033166247903554,0.0812927540035859,0.08464521751982876
25377172,1923.0,1,187661,235665,0.3,-1.66,10.18,-0.04,-0.0,-0.01,28.39,23.456684,10.412482930231853,43.71821553049468,10.318817761739956,0.04123105625617661,0.39313674766339796,0.1634667603069363
25417192,1922.0,1,187749,235816,0.28,-1.11,9.46,-0.03,-0.05,-0.0,28.39,23.496704,3.8027944434649905,69.75536620428426,9.529013590083709,0.05830951894845301,0.1437637127410608,0.26231401230619
25457215,1906.0,1,187736,235826,0.24,-0.76,9.86,-0.03,-0.0,-0.01,28.39,23.536727,-8.392652177315767,93.57986391727624,9.892158510658833,0.03162277660168379,-0.3163510932965038,0.3527611644810407
25497192,1904.0,1,187808,235948,0.38,-1.4,10.27,-0.04,-0.01,-0.01,28.39,23.576704,-12.269427694118216,106.88752675004989,10.371947743794315,0.042426406871192854,-0.4626156681358745,0.40328228017579526
25537188,1914.0,1,187794,235946,0.34,-1.1,9.61,-0.03,-0.04,-0.0,28.39,23.6167,-3.5361094773317445,109.36964645862804,9.678724089465511,0.05,-0.13312146080328716,0.4127053816280261
25577190,1920.0,1,187787,235971,0.33,-0.72,9.9,-0.02,0.0,-0.0,28.39,23.656702,6.075400575113698,108.47136113595593,9.931631285946937,0.02,0.22950552786093883,0.4092951376743056
25617857,1917.0,1,187768,235991,0.32,-1.62,10.18,-0.05,0.01,-0.01,28.31,23.697369,-2.5945910521863214,108.96709467281165,10.313059681782123,0.05196152422706632,-0.09759946796143372,0.4111771369166953
25658172,1909.0,1,187790,235986,0.25,-1.35,9.84,-0.03,-0.03,0.0,28.31,23.737684,-4.616347060058545,102.68174848119737,9.935320830250022,0.042426406871192854,-0.1738771068494021,0.3873154937327324
25696172,1936.0,1,187777,236005,0.28,-0.77,9.58,-0.02,-0.02,0.0,28.31,23.775684,17.336939966728128,71.19717305876488,9.614972698869197,0.0282842712474619,0.6543854993765157,0.26778767750345617
25736172,1939.0,1,187724,235939,0.36,-1.28,10.03,-0.04,0.01,-0.01,28.31,23.815684,22.940857403016448,3.2507909002861166,10.117751726544785,0.042426406871192854,0.8658123920870061,0.009836519797949006
25776172,1931.0,1,187716,235499,0.41,-1.49,9.87,-0.04,-0.05,-0.0,28.31,23.855684,15.421215373048234,-87.50518347421743,9.990250247115934,0.06403124237432849,0.5821082571195211,-0.334708810135754
25816192,1931.0,1,187467,234911,0.22,-0.71,9.46,-0.02,-0.01,0.0,28.31,23.895704,12.02700948901445,-163.39436425489595,9.489156969931523,0.022360679774997897,0.4540502670724306,-0.6228139515403398
25856170,1917.0,1,187487,234857,0.44,-0.96,10.0,-0.03,0.02,-0.0,28.31,23.935682,3.5454585646793793,-186.42958954899515,10.055605401963623,0.03605551275463989,0.1340548392872432,-0.710264715567201
25896172,1920.0,1,187575,234853,0.15,-1.8,9.88,-0.05,-0.0,-0.01,28.31,23.975684,0.5954583454983855,-146.3099993002246,10.04374929993775,0.050990195135927854,0.022756022534902037,-0.5579549910081646
25936192,1919.0,1,187697,234948,0.28,-1.04,9.78,-0.02,-0.03,0.01,28.31,24.015704,4.773891721863909,-67.34324133701136,9.83912597744332,0.03741657386773942,0.18040166867559465,-0.2581661576696761
25976172,1927.0,1,187769,235172,0.18,-1.05,10.0,-0.03,0.03,-0.0,28.31,24.055684,9.962032211323901,12.061034648486865,10.056584907412654,0.042426406871192854,0.37614195841093634,0.04328366594938688
26016170,1921.0,1,187792,235321,0.24,-1.8,10.21,-0.05,0.0,-0.01,28.31,24.095682,4.32124183026917,67.54766935247862,10.370231434254494,0.050990195135927854,0.16332390813510334,0.2539327278184036
26056172,1909.0,1,187781,235391,0.38,-1.39,9.69,-0.04,-0.05,0.0,28.31,24.135684,-5.208711969957544,99.17555102989863,9.79656062095264,0.06403124237432849,-0.19622609283546746,0.37400459088588006
26096172,1920.0,1,187795,235418,0.08,-0.73,9.65,-0.02,0.01,0.0,28.31,24.175684,1.7285313154916846,118.32673333749628,9.677902665350587,0.022360679774997897,0.0655050637161013,0.44671000198711835
26136163,1920.0,1,187883,235349,0.4,-1.36,10.26,-0.04,0.01,-0.01,28.31,24.215675,7.056333658747587,128.8121024422966,10.357470733726453,0.042426406871192854,0.2665145730846669,0.4865165820231872
26176172,1919.0,1,187855,235297,0.45,-1.59,9.91,-0.04,-0.04,-0.0,28.31,24.255684,0.8109736051061582,122.9406451468172,10.046825369239778,0.0565685424949238,0.030887070536341887,0.46422622367482347
26216192,1904.0,1,187828,235194,0.22,-0.88,9.67,-0.02,-0.01,0.0,28.31,24.295704,-8.840243231312316,95.29604316218771,9.712450772076016,0.022360679774997897,-0.3332379919397112,0.3592764550526939
26256170,1907.0,1,187726,235199,0.29,-1.36,10.07,-0.04,0.02,-0.01,28.31,24.335682,-10.830428173514973,57.985459114685696,10.165559502555677,0.0458257569495584,-0.40832450472884535,0.21763082148130006
26296171,1904.0,1,187797,235309,0.4,-1.79,10.2,-0.05,-0.02,-0.0,28.31,24.375683,-8.30298163534173,39.35100300473673,10.363594936121345,0.05385164807134505,-0.31296796635489893,0.1468871060092618
26336192,1904.0,1,187789,235279,0.29,-1.1,9.64,-0.02,-0.04,0.0,28.31,24.415704,-14.350113213682594,62.84359043403001,9.706889306054746,0.044721359549995794,-0.5411166237817484,0.23607419636456267
26376172,1904.0,1,187778,235178,0.16,-0.95,9.66,-0.03,0.0,-0.0,28.31,24.455684,-7.265657175552803,120.5571160277975,9.707919447543846,0.03,-0.2738313641905702,0.45517741082939667
