timestamp_us,ecg,leads,ir,red,accX,accY,accZ,gyroX,gyroY,gyroZ,temp,time_sec,ecg_filtered,ppg_filtered,accel_magnitude,gyro_magnitude,ecg_norm,ppg_norm
2449951,1953.0,1,178986.25,206276,0.20000000000000004,-0.57,9.919999999999998,-0.03,-0.01,-0.0,30.65,0.030465,-0.47214520387867065,-10.128500748144548,9.938375118700238,0.03162277660168379,-0.0303570087977956,-0.02033697889346509
2490198,1949.0,1,178986.25,206647,0.21,-0.565,9.97,-0.03,-0.01,-0.0,30.65,0.070712,-4.416064231624773,-46.38811549971358,9.988204293064896,0.03162277660168379,-0.28328791187396335,-0.0692044856645438
2530185,1963.0,1,178986.25,206825,0.20000000000000004,-0.59,9.93,-0.03,-0.01,-0.01,30.65,0.110699,5.141858455331372,-67.80214970488088,9.949522601612601,0.033166247903554,0.32967954504808583,-0.09806442994930326
2570185,1963.0,1,178986.25,207087,0.21,-0.6,9.94,-0.03,-0.01,-0.01,30.65,0.150699,8.458404535892479,-50.842553090002575,9.960306220192228,0.033166247903554,0.5423758477227989,-0.07520778328908286
2610185,1965.0,1,178986.25,207321,0.20000000000000004,-0.58,9.98,-0.03,-0.01,-0.0,30.65,0.190699,4.989917925772031,25.753797066936325,9.998839932712196,0.03162277660168379,0.31993531473175557,0.028022013430479862
2650185,1958.0,1,179120.0,207804,0.21,-0.58,9.98,-0.03,-0.01,-0.0,30.65,0.230699,0.08614909372020425,154.59036345941558,9.999044954394394,0.03162277660168379,0.005447448616396732,0.20165656039638705
2690185,1958.0,1,179283.0,208366,0.20000000000000004,-0.6,9.95,-0.03,-0.01,-0.01,30.65,0.270699,-2.1297471222728928,286.19254101821457,9.970080240399271,0.033166247903554,-0.13666211983346496,0.3790183538684213
2730185,1958.0,1,179467.0,208706,0.20000000000000004,-0.57,9.95,-0.03,-0.01,-0.0,30.65,0.310699,-3.9692243414122896,351.59035796543975,9.968319818304385,0.03162277660168379,-0.2546312340449339,0.46715575644090734
2770184,1954.0,1,179464.0,208632,0.20000000000000004,-0.57,9.98,-0.03,-0.01,-0.0,30.65,0.350698,-6.382359917051863,310.0578621168597,9.99826484946263,0.03162277660168379,-0.40939013150144576,0.41118192616152033
2810185,1964.0,1,179116.0,206766,0.20000000000000004,-0.59,9.96,-0.03,-0.01,-0.01,30.65,0.390699,-0.356942827353788,181.74482707358558,9.979463913457476,0.033166247903554,-0.022968864942415443,0.2382529485163971
2850185,1968.0,1,178986.25,204374,0.20000000000000004,-0.57,9.94,-0.03,-0.01,-0.0,30.65,0.430699,5.581379617050071,34.10249196200423,9.958338214782625,0.03162277660168379,0.3578668591314909,0.039273647158793175
2890185,1968.0,1,178986.25,203865,0.20000000000000004,-0.57,9.98,-0.03,-0.01,-0.01,30.65,0.470699,3.647611639649037,-66.77988586544265,9.99826484946263,0.033166247903554,0.23385070225229213,-0.09668671301993587
2930186,1966.0,1,178986.25,204030,0.20000000000000004,-0.6,9.95,-0.03,-0.01,-0.0,30.65,0.5107,0.2927958538198679,-97.37392063937332,9.970080240399271,0.03162277660168379,0.018700091807614123,-0.13791865140960066
2970185,1970.0,1,178986.25,204248,0.20000000000000004,-0.61,9.97,-0.03,-0.01,-0.0,30.65,0.550699,6.623068669254171,-79.33051835948159,9.990645624783216,0.03162277660168379,0.4246723261922873,-0.11360134718209912
3010185,1979.0,1,178986.25,204926,0.20000000000000004,-0.59,9.97,-0.03,-0.01,-0.01,30.65,0.590699,10.743344942266031,-50.42155810339531,9.98944442899604,0.033166247903554,0.6889133492266188,-0.07464040342309212
3050186,1968.0,1,178986.25,205726,0.21,-0.59,9.97,-0.03,-0.01,-0.0,30.65,0.6307,4.7338072950097665,-34.58046115025948,9.989649643506024,0.03162277660168379,0.30351046100875045,-0.05329117183520875
3090185,1978.0,1,178986.25,206252,0.20000000000000004,-0.59,9.96,-0.03,-0.01,-0.01,30.65,0.670699,9.114978271575291,-33.61259186693555,9.979463913457476,0.033166247903554,0.5844831493012627,-0.051986763085132205
3130185,1972.0,1,178986.25,206443,0.20000000000000004,-0.59,9.94,-0.03,-0.01,-0.0,30.65,0.710699,7.846209418525108,-38.793397254885164,9.959502999648125,0.03162277660168379,0.5031146299327774,-0.058968995083730956
3170221,1967.0,1,178986.25,206593,0.21,-0.58,9.97,-0.03,-0.01,-0.0,30.65,0.750735,-1.410694719454073,-44.89888365815865,9.98906402021731,0.03162277660168379,-0.09054794448540035,-0.067197430498638
3210185,1966.0,1,178986.25,206898,0.21,-0.58,9.98,-0.03,-0.01,-0.0,30.65,0.790699,1.2153587922013063,-52.551375196086944,9.999044954394394,0.03162277660168379,0.07786577840204034,-0.0775107828220835
3250185,1970.0,1,178986.25,207192,0.20000000000000004,-0.58,9.99,-0.03,-0.01,-0.01,30.65,0.830699,2.1646193197862007,-59.749909648508094,10.008821109401447,0.033166247903554,0.13874363132130255,-0.08721233187343716
3290186,1974.0,1,178986.25,207468,0.20000000000000004,-0.58,9.97,-0.03,-0.01,-0.01,30.65,0.8707,8.932776633721197,-55.26232911977433,9.988858793676084,0.033166247903554,0.5727982175163601,-0.08116436712322787
3330185,1974.0,1,178986.25,207586,0.20000000000000004,-0.565,9.98,-0.03,-0.01,-0.0,30.65,0.910699,7.6679806286989445,-24.84043846666174,9.997981046191276,0.03162277660168379,0.49168448432183515,-0.04016442937800774
3370197,1959.0,1,178986.25,207796,0.22,-0.59,9.98,-0.03,-0.01,-0.0,30.65,0.950711,-7.389718485416209,32.6998776386419,9.999844998798732,0.03162277660168379,-0.47399392042951605,0.03738332743494242
3410185,1964.0,1,179075.0,208261,0.20000000000000004,-0.57,9.97,-0.03,-0.01,-0.01,30.65,0.990699,1.04353014342205,95.77814503114253,9.988283135754614,0.033166247903554,0.06684608580583301,0.12239464595088317
3450185,1967.0,1,179274.0,208561,0.20000000000000004,-0.565,9.99,-0.03,-0.01,-0.01,30.65,1.030699,-1.6439796139861356,130.5580318140448,10.007963079468269,0.033166247903554,-0.10550894105579486,0.16926790603667277
3490871,1939.0,1,179146.0,207564,0.20000000000000004,-0.6,9.94,-0.03,-0.01,-0.0,30.71,1.071385,-20.307805218269767,116.03111087357024,9.960100401100382,0.03162277660168379,-1.302454981716613,0.14968980482723157
3529185,1963.0,1,178986.25,204858,0.22,-0.6,9.95,-0.03,-0.01,-0.0,30.71,1.109699,-6.396930016298669,60.98872093952566,9.970501491900995,0.03162277660168379,-0.41032453921480855,0.07550853232262267
3569184,1965.0,1,178986.25,204038,0.20000000000000004,-0.6,9.99,-0.03,-0.01,-0.01,30.71,1.149698,7.057988278134655,-3.2951168247325473,10.01,0.033166247903554,0.45256453408645914,-0.011127547479628389
3609186,1967.0,1,178986.25,204104,0.20000000000000004,-0.59,9.97,-0.03,-0.01,-0.01,30.71,1.1897,-0.11149452415885976,-46.58590079586022,9.98944442899604,0.033166247903554,-0.007227806226743745,-0.06947104322079163
3649186,1961.0,1,178986.25,204143,0.22,-0.58,10.0,-0.03,-0.01,-0.01,30.71,1.2297,1.8828383759319585,-57.49877670084959,10.019221526645671,0.033166247903554,0.1206724924116787,-0.0841784536782051
3689185,1968.0,1,178986.25,204609,0.21,-0.57,9.96,-0.03,-0.01,-0.01,30.71,1.269699,5.009385315960695,-44.01734420967534,9.978506902337644,0.033166247903554,0.32118379487202076,-0.06600936947639928
3729185,1959.0,1,178986.25,205537,0.20000000000000004,-0.6,9.96,-0.03,-0.01,-0.01,30.71,1.309699,-1.806086959337732,-23.352280007489938,9.980060120059399,0.033166247903554,-0.1159051882826279,-0.03815882082209033
3769185,1962.0,1,178986.25,205971,0.20000000000000004,-0.57,9.98,-0.03,-0.01,-0.01,30.71,1.349699,2.429850546883439,-12.77383086636273,9.99826484946263,0.033166247903554,0.15575340594439943,-0.023902121224663512
3809186,1968.0,1,178986.25,205979,0.22,-0.61,9.98,-0.03,-0.01,-0.0,30.71,1.3897,7.281366743223408,-24.327122811883292,10.001044945404455,0.03162277660168379,0.46689021280987736,-0.03947262786805097
3849185,1959.0,1,178986.25,206371,0.20000000000000004,-0.6,9.97,-0.03,-0.01,-0.0,30.71,1.429699,0.446701009941384,-58.93449950040758,9.990040039959801,0.03162277660168379,0.028570317299576143,-0.08611339408255003
3889184,1965.0,1,178986.25,206822,0.20000000000000004,-0.58,9.98,-0.03,-0.01,-0.01,30.71,1.469698,6.612736400909947,-99.37717786858826,9.998839932712196,0.033166247903554,0.42400969850020115,-0.14061846460076638
3929185,1964.0,1,178986.25,207279,0.20000000000000004,-0.6,9.94,-0.03,-0.01,-0.0,30.71,1.509699,4.893255174220903,-111.24378756985499,9.960100401100382,0.03162277660168379,0.3137361516983233,-0.15661123324708265
3969184,1947.0,1,178986.25,207628,0.20000000000000004,-0.6,9.96,-0.03,-0.01,-0.01,30.71,1.549698,-8.857626525240685,-61.33934243223412,9.980060120059399,0.033166247903554,-0.5681336082713714,-0.08935442902071987
4009185,1954.0,1,179044.0,208227,0.20000000000000004,-0.58,9.95,-0.03,-0.01,-0.01,30.71,1.589699,-4.783884073068574,52.48354544743405,9.96889662901567,0.033166247903554,-0.3068768861939763,0.06404600786403021
4049185,1951.0,1,179239.0,208915,0.20000000000000004,-0.59,9.98,-0.03,-0.01,-0.0,30.71,1.629699,-4.12626706527715,184.76442065656497,9.999424983467799,0.03162277660168379,-0.2647026776240837,0.24232249009517978
4089185,1951.0,1,179444.0,209300,0.22,-0.6,9.95,-0.03,-0.01,-0.01,30.71,1.669699,-5.833168212483607,262.01306560908233,9.970501491900995,0.033166247903554,-0.37416944040176753,0.3464313921377876
4129185,1950.0,1,179511.0,209148,0.20000000000000004,-0.59,9.98,-0.03,-0.01,-0.0,30.71,1.709699,-5.52928400363636,231.52155199356545,9.999424983467799,0.03162277660168379,-0.3546807777711236,0.30533762271205944
4169185,1939.0,1,179139.0,207222,0.20000000000000004,-0.58,9.98,-0.03,-0.01,-0.0,30.71,1.749699,-15.901086201327978,100.70838018990646,9.998839932712196,0.03162277660168379,-1.0198438498154123,0.1290391815217825
4209210,1942.0,1,178986.25,205520,0.20000000000000004,-0.59,10.0,-0.03,-0.01,-0.01,30.71,1.789724,-13.195152576797511,-68.38680941008232,10.019386208745523,0.033166247903554,-0.8463072658993392,-0.09885238267021496
4249185,1951.0,1,178986.25,205468,0.20000000000000004,-0.61,9.94,-0.03,-0.01,-0.01,30.71,1.829699,-3.2620373713609703,-204.21690267601176,9.96070780617522,0.033166247903554,-0.20927801109070893,-0.2819121875762181
4289185,1950.0,1,178986.25,205913,0.20000000000000004,-0.58,9.94,-0.03,-0.01,-0.01,30.71,1.869699,-3.7308953022193005,-269.8403028386462,9.9589156036187,0.033166247903554,-0.2393467470439906,-0.3703536112857731
4329186,1951.0,1,178986.25,206327,0.21,-0.59,9.97,-0.03,-0.01,-0.01,30.71,1.9097,-3.3886943036247397,-272.6742357778233,9.989649643506024,0.033166247903554,-0.21740075702767103,-0.37417293584404154
4369185,1947.0,1,178986.25,207197,0.20000000000000004,-0.61,9.98,-0.03,-0.01,-0.0,30.71,1.949699,-5.044468387410671,-243.05689796079886,10.00062498046997,0.03162277660168379,-0.32358864561153644,-0.3342573033633589
4409185,1943.0,1,178986.25,208002,0.20000000000000004,-0.59,9.95,-0.03,-0.01,-0.0,30.71,1.989699,-11.267406673504858,-208.03043776548478,9.969483436969037,0.03162277660168379,-0.7226773158950557,-0.28705173340656936
4449185,1936.0,1,179108.0,208435,0.20000000000000004,-0.58,9.97,-0.03,-0.01,-0.0,30.71,2.029699,-14.783600274798383,-178.59248431945224,9.988858793676084,0.03162277660168379,-0.9481773874505479,-0.24737785934014822
4489186,1939.0,1,179136.0,208718,0.22,-0.6,9.98,-0.03,-0.01,-0.01,30.71,2.0697,-14.497077164737505,-148.74505686283104,10.000439990320427,0.033166247903554,-0.9298021245534022,-0.2071521323618272
4529871,1935.0,1,179237.0,208965,0.20000000000000004,-0.59,9.96,-0.03,-0.01,-0.0,30.77,2.110385,-14.979410334859315,-98.04656950004738,9.979463913457476,0.03162277660168379,-0.9607350528017339,-0.13882518814416775
4570185,1936.0,1,179391.0,209336,0.20000000000000004,-0.59,9.95,-0.03,-0.01,-0.0,30.77,2.150699,-16.07984971602537,2.0325397182553466,9.969483436969037,0.03162277660168379,-1.0313082883323768,-0.003947402462307793
4610185,1943.0,1,179546.0,209735,0.21,-0.58,9.98,-0.03,-0.01,-0.0,30.77,2.190699,-6.501188236152938,170.85446177067362,9.999044954394394,0.03162277660168379,-0.4170108138353917,0.22357587586061162
4650185,1955.0,1,179663.0,210289,0.20000000000000004,-0.59,9.97,-0.03,-0.01,-0.0,30.77,2.230699,4.937119698737471,391.96401234948036,9.98944442899604,0.03162277660168379,0.31654926568999736,0.521567802528626
4690185,1950.0,1,179932.0,210869,0.20000000000000004,-0.59,9.95,-0.03,-0.01,-0.01,30.77,2.270699,0.8403247147502936,596.9644297922913,9.969483436969037,0.033166247903554,0.05381414163498634,0.7978492621110678
4730185,1948.0,1,180078.0,211346,0.20000000000000004,-0.58,9.97,-0.03,-0.01,-0.0,30.77,2.310699,0.29191423153576834,685.7086902952674,9.988858793676084,0.03162277660168379,0.018643551721745064,0.9174509396450492
4770184,1961.0,1,180090.0,211588,0.20000000000000004,-0.61,9.95,-0.03,-0.01,-0.01,30.77,2.350698,12.513588644469477,584.6798711968189,9.970687037511507,0.033166247903554,0.8024423885180515,0.7812932188531072
4810191,1962.0,1,179909.0,210526,0.21,-0.58,9.97,-0.03,-0.01,-0.0,30.77,2.390705,16.486953366430246,305.4806053459181,9.98906402021731,0.03162277660168379,1.057261699032867,0.4050131036911361
4850185,1966.0,1,179138.0,208057,0.20000000000000004,-0.6,9.94,-0.03,-0.01,-0.01,30.77,2.430699,18.926828550635662,-48.973850691327726,9.960100401100382,0.033166247903554,1.2137354575945083,-0.07268931121633633
4890185,1973.0,1,178986.25,206886,0.20000000000000004,-0.6,9.99,-0.03,-0.01,-0.0,30.77,2.470699,29.330837446573373,-345.2070250445734,10.01,0.03162277660168379,1.8809640054295464,-0.4719262240381683
4930184,1970.0,1,178986.25,206981,0.20000000000000004,-0.57,9.95,-0.03,-0.01,-0.0,30.77,2.510698,24.97176209301439,-500.94812673735584,9.968319818304385,0.03162277660168379,1.6014083507631707,-0.681820327813167
4970185,1956.0,1,178986.25,207240,0.20000000000000004,-0.58,9.97,-0.03,-0.01,-0.01,30.77,2.550699,14.095753675755368,-521.8375775057217,9.988858793676084,0.033166247903554,0.9039095909031294,-0.7099732848663872
5010213,1968.0,1,178986.25,207606,0.20000000000000004,-0.6,9.97,-0.03,-0.01,-0.01,30.77,2.590727,25.102585485960457,-470.85491296882117,9.990040039959801,0.033166247903554,1.6097982996157074,-0.6412633517483909
5049185,1971.0,1,178986.25,208299,0.20000000000000004,-0.59,9.97,-0.03,-0.01,-0.01,30.77,2.629699,31.341701469976886,-408.39399893002786,9.98944442899604,0.033166247903554,2.0099244759221393,-0.557084047565728
5089185,1962.0,1,178986.25,208874,0.20000000000000004,-0.565,9.98,-0.03,-0.01,-0.0,30.77,2.669699,20.6324782066247,-356.40949055766487,9.997981046191276,0.03162277660168379,1.3231219598999089,-0.4870239177964861
5129185,1958.0,1,179058.0,209170,0.20000000000000004,-0.565,9.98,-0.03,-0.01,-0.01,30.77,2.709699,21.300986967816666,-305.2399213109497,9.997981046191276,0.033166247903554,1.3659946769848852,-0.41806209101566427
5169185,1963.0,1,179136.0,209371,0.20000000000000004,-0.59,9.98,-0.03,-0.01,-0.01,30.77,2.749699,22.739110637987825,-240.5229016636352,9.999424983467799,0.033166247903554,1.4582242374988292,-0.3308422069245812
5209210,1953.0,1,179216.0,209584,0.20000000000000004,-0.57,9.97,-0.03,-0.01,-0.0,30.77,2.789724,18.877466827851467,-158.6809757024164,9.988283135754614,0.03162277660168379,1.2105697979971972,-0.2205428863589947
5249185,1952.0,1,179319.0,209614,0.20000000000000004,-0.59,9.95,-0.03,-0.01,-0.0,30.77,2.829699,13.778252284799212,-62.123833948962734,9.969483436969037,0.03162277660168379,0.8835476329172998,-0.09041169741058688
5289185,1936.0,1,179345.0,209697,0.22,-0.6,9.95,-0.03,-0.01,-0.01,30.77,2.869699,2.5642978509291217,49.64761096169243,9.970501491900995,0.033166247903554,0.16437576299311007,0.06022398579805342
5329185,1936.0,1,179425.0,209999,0.20000000000000004,-0.58,9.96,-0.03,-0.01,-0.0,30.77,2.909699,1.3083980015352028,175.08730529473246,9.978877692406096,0.03162277660168379,0.08383255689641617,0.22928052857107403
5369185,1931.0,1,179440.0,210177,0.20000000000000004,-0.57,10.0,-0.03,-0.01,-0.0,30.77,2.949699,-3.3263992440871415,294.7976741621618,10.018228386296652,0.03162277660168379,-0.21340565835673486,0.3906155924231878
5409184,1914.0,1,179586.0,210479,0.21,-0.6,9.97,-0.03,-0.01,-0.01,30.77,2.989698,-17.257709791024247,367.18971303945233,9.990245242235048,0.033166247903554,-1.1068466577489224,0.4881791896716971
5449185,1916.0,1,179586.0,210411,0.20000000000000004,-0.58,9.95,-0.03,-0.01,-0.01,30.77,3.029699,-18.898551784068257,351.4603003744595,9.96889662901567,0.033166247903554,-1.212076923427855,0.46698047630482753
5489185,1911.0,1,179546.0,209319,0.20000000000000004,-0.6,9.94,-0.03,-0.01,-0.01,30.77,3.069699,-18.820115785699127,243.92116015416204,9.960100401100382,0.033166247903554,-1.2070466761632395,0.32204871961417025
5529185,1916.0,1,178986.25,206667,0.20000000000000004,-0.58,9.96,-0.03,-0.01,-0.01,30.77,3.109699,-18.25608252747046,92.37721247440378,9.978877692406096,0.033166247903554,-1.1708741684709862,0.11781116937830814
5569871,1913.0,1,178986.25,205423,0.21,-0.61,9.96,-0.03,-0.01,-0.0,30.73,3.150385,-17.37566699288292,-30.88283372109439,9.980871705417318,0.03162277660168379,-1.1144114737049695,-0.04830783611392029
5610185,1911.0,1,178986.25,205424,0.20000000000000004,-0.58,9.98,-0.03,-0.01,-0.0,30.73,3.190699,-22.39175269659231,-76.4765381748684,9.998839932712196,0.03162277660168379,-1.4361024308521624,-0.10975500471675137
5650184,1915.0,1,178986.25,205849,0.21,-0.6,9.98,-0.03,-0.01,-0.0,30.73,3.230698,-16.637223467102185,-44.71697412117244,10.000224997468807,0.03162277660168379,-1.0670537093765244,-0.06695226888864012
5690185,1922.0,1,178986.25,206262,0.20000000000000004,-0.59,9.96,-0.03,-0.01,-0.0,30.73,3.270699,-11.544013614209797,26.635360351109984,9.979463913457476,0.03162277660168379,-0.7404166363064129,0.029210106576357163
5730184,1913.0,1,178986.25,206970,0.22,-0.58,9.97,-0.03,-0.01,-0.01,30.73,3.310698,-19.773461820920133,95.39798914866603,9.989279253279488,0.033166247903554,-1.268186540327828,0.12188230542304616
5770186,1917.0,1,178986.25,207525,0.20000000000000004,-0.59,9.93,-0.03,-0.01,-0.01,30.73,3.3507,-18.066008367556904,138.93082543598777,9.949522601612601,0.033166247903554,-1.1586843571234002,0.1805520179009732
5810185,1919.0,1,178986.25,207716,0.20000000000000004,-0.59,9.96,-0.03,-0.01,-0.01,30.73,3.390699,-14.725693376071904,156.76550391795269,9.979463913457476,0.033166247903554,-0.9444637097390665,0.20458802262547787
5850186,1917.0,1,178986.25,207617,0.20000000000000004,-0.59,9.96,-0.03,-0.01,-0.01,30.73,3.4307,-20.565148394733594,160.82595958153138,9.979463913457476,0.033166247903554,-1.318958880900538,0.21006034620070313
5890205,1920.0,1,178986.25,207685,0.20000000000000004,-0.6,9.96,-0.03,-0.01,-0.01,30.73,3.470719,-15.07829266511404,166.686613982,9.980060120059399,0.033166247903554,-0.967076561568433,0.21795881866269917
5930185,1920.0,1,178986.25,208091,0.20000000000000004,-0.6,9.97,-0.03,-0.01,-0.0,30.73,3.510699,-19.90786795679522,189.33674722371197,9.990040039959801,0.03162277660168379,-1.2768062571847667,0.24848466807226297
5970184,1904.875,1,178997.0,208214,0.20000000000000004,-0.59,9.96,-0.03,-0.01,-0.0,30.73,3.550698,-32.93078959749815,238.0148182604852,9.979463913457476,0.03162277660168379,-2.1119905771720813,0.3140886735833704
6010185,1918.0,1,179031.0,208463,0.20000000000000004,-0.59,9.96,-0.03,-0.01,-0.01,30.73,3.590699,-23.250701603054477,307.487543754439,9.979463913457476,0.033166247903554,-1.491188430610104,0.4077178780506951
6049185,1917.0,1,179094.0,208707,0.20000000000000004,-0.57,9.97,-0.03,-0.01,-0.0,30.73,3.629699,-24.47560806924552,373.2039126723312,9.988283135754614,0.03162277660168379,-1.5697439730788838,0.4962845968387606
6089185,1918.0,1,179175.0,209005,0.20000000000000004,-0.58,9.95,-0.03,-0.01,-0.0,30.73,3.669699,-24.826842973628136,400.81097308411046,9.96889662901567,0.03162277660168379,-1.5922693243683945,0.5334909549549571
6129185,1932.0,1,179308.0,208954,0.22,-0.58,9.97,-0.03,-0.01,-0.01,30.73,3.709699,-11.79734734573813,368.6134202802196,9.989279253279488,0.033166247903554,-0.7566634022882528,0.49009793656696626
6169186,1927.0,1,178986.25,207010,0.20000000000000004,-0.59,9.95,-0.03,-0.01,-0.01,30.73,3.7497,-19.252753330808616,285.1013736986666,9.969483436969037,0.033166247903554,-1.2347925310399142,0.3775477749132468
6209185,1936.0,1,178986.25,204997,0.20000000000000004,-0.59,9.96,-0.03,-0.01,-0.0,30.73,3.789699,-8.12812114710368,183.43467896663049,9.979463913457476,0.03162277660168379,-0.5213490640672372,0.24053038167147273
6249185,1955.0,1,178986.25,204763,0.20000000000000004,-0.59,9.94,-0.03,-0.01,-0.01,30.73,3.829699,5.033247826702342,95.85739172250828,9.959502999648125,0.033166247903554,0.32271414231300233,0.12250144764343933
6289185,1938.0,1,178986.25,205122,0.20000000000000004,-0.57,9.95,-0.03,-0.01,-0.0,30.73,3.869699,-7.025132695074024,31.27420846831193,9.968319818304385,0.03162277660168379,-0.45061235185489784,0.03546193642426151
6329185,1958.0,1,178986.25,205750,0.23,-0.6,9.95,-0.03,-0.01,-0.0,30.73,3.909699,7.022711901695001,-24.730947397145147,9.97072715502736,0.03162277660168379,0.45030219409231487,-0.04001686698338127
6369184,1968.0,1,178986.25,206575,0.20000000000000004,-0.59,9.96,-0.03,-0.01,-0.01,30.73,3.949698,20.14724927667771,-90.86558101193134,9.979463913457476,0.033166247903554,1.2920033211584048,-0.1291472859940666
6409185,1971.0,1,178986.25,207208,0.20000000000000004,-0.59,9.98,-0.03,-0.01,-0.01,30.73,3.989699,21.253671069662637,-171.87205598233564,9.999424983467799,0.033166247903554,1.362960219947161,-0.23832065949071013
6449185,1981.0,1,178986.25,207690,0.20000000000000004,-0.6,9.96,-0.03,-0.01,-0.01,30.73,4.029699,30.907690475887136,-256.71293090414605,9.980060120059399,0.033166247903554,1.9820905391937678,-0.3526616986360973
6489185,1985.0,1,178986.25,208095,0.20000000000000004,-0.6,9.96,-0.03,-0.01,-0.0,30.73,4.069699,35.74778545630927,-331.45667981635654,9.980060120059399,0.03162277660168379,2.2924948821227393,-0.45339472299635203
6529184,2001.0,1,178987.0,208712,0.20000000000000004,-0.565,9.96,-0.03,-0.01,-0.01,30.73,4.109698,51.502266070720324,-391.00773954154494,9.978017087578072,0.033166247903554,3.3028591875928295,-0.5336523824967092
6569185,2002.0,1,179208.0,209158,0.20000000000000004,-0.58,9.97,-0.03,-0.01,-0.01,30.73,4.149699,52.21252997230376,-435.83589459520715,9.988858793676084,0.033166247903554,3.348409739920616,-0.594067811221721
6609871,1989.0,1,179349.0,209431,0.22,-0.59,9.95,-0.03,-0.01,-0.01,30.67,4.190385,41.22020021716518,-458.3761516071933,9.969904713687086,0.033166247903554,2.643451075120863,-0.6244455791517409
6650206,1998.0,1,179458.0,209570,0.20000000000000004,-0.6,9.96,-0.03,-0.01,-0.01,30.67,4.23072,49.3949862086092,-441.830363675986,9.980060120059399,0.033166247903554,3.1677153890492296,-0.6021466272930172
6690185,1994.0,1,179475.0,209844,0.20000000000000004,-0.57,9.95,-0.03,-0.01,-0.0,30.67,4.270699,46.47974197718338,-387.17495344545324,9.968319818304385,0.03162277660168379,2.9807553244650666,-0.528486891859643
6730185,1994.0,1,179646.0,210855,0.20000000000000004,-0.59,9.96,-0.03,-0.01,-0.01,30.67,4.310699,49.07948212561097,-349.16802525415187,9.979463913457476,0.033166247903554,3.1474815221580617,-0.4772645103351412
6770185,2000.0,1,179993.0,211541,0.20000000000000004,-0.59,9.96,-0.03,-0.01,-0.01,30.67,4.350699,52.2909244582708,-434.6304586765145,9.979463913457476,0.033166247903554,3.35343732491725,-0.5924432311393785
6810185,1980.0,1,179982.0,209948,0.20000000000000004,-0.57,9.99,-0.03,-0.01,-0.0,30.67,4.390699,38.36630960903983,-737.7400816132298,10.008246599679687,0.03162277660168379,2.460425733141097,-1.0009476141209461
6850214,1984.0,1,179195.0,208276,0.20000000000000004,-0.6,9.97,-0.03,-0.01,-0.0,30.67,4.430728,38.42589253894846,-1247.5912997160196,9.990040039959801,0.03162277660168379,2.4642468978667647,-1.6880800622615508
6890185,1968.0,1,178986.25,208275,0.20000000000000004,-0.58,9.99,-0.03,-0.01,-0.01,30.67,4.470699,27.147836128918776,-1800.9671889695762,10.008821109401447,0.033166247903554,1.7409640483294164,-2.4338712186300757
6930185,1951.0,1,179045.0,208560,0.20000000000000004,-0.6,9.99,-0.03,-0.01,-0.01,30.67,4.510699,9.57785000700475,-2127.6073815072673,10.01,0.033166247903554,0.6141679793464456,-2.874088025397207
6970185,1945.0,1,179301.0,209522,0.21,-0.6,9.96,-0.03,-0.01,-0.01,30.67,4.550699,4.013724364005131,-1973.651298008174,9.980265527529816,0.033166247903554,0.25733019596085926,-2.6665996115134063
7010185,1919.0,1,179888.0,212220,0.21,-0.59,9.96,-0.03,-0.01,-0.0,30.67,4.590699,-19.254298075988274,-1241.0721467420394,9.979669333199373,0.03162277660168379,-1.2348915984372326,-1.6792941235724508
7050185,1904.875,1,181528.0,216940,0.22,-0.57,9.92,-0.03,-0.01,-0.01,30.67,4.630699,-35.06590798034202,-65.95986821430009,9.938797714009477,0.033166247903554,-2.248919712113234,-0.09558156564332511
7090185,1904.875,1,183121.0,220720,0.21,-0.61,9.97,-0.03,-0.01,-0.01,30.67,4.670699,-32.578850038142306,1219.7569704918292,9.990850814620345,0.033166247903554,-2.089420035041308,1.6371940512968113
7130186,1904.875,1,184149.0,223552,0.20000000000000004,-0.6,9.99,-0.03,-0.01,-0.01,30.67,4.7107,-33.46852758750828,2237.1060821954657,10.01,0.033166247903554,-2.146476720136673,3.0082873446301908
7170184,1904.875,1,184877.0,225048,0.22,-0.62,9.96,-0.03,-0.01,-0.01,30.67,4.750698,-33.0062115176586,2740.3388785881752,9.981703261467954,0.033166247903554,-2.116827525964314,3.6865000684453406
7210186,1904.875,1,185109.0,225066,0.23,-0.62,9.99,-0.03,-0.01,-0.01,30.67,4.7907,-33.15864739538946,2721.776073514242,10.011862963504845,0.033166247903554,-2.1266035238852727,3.6614827589991226
7250185,1904.875,1,184855.0,224377,0.23,-0.61,9.99,-0.03,-0.01,-0.0,30.67,4.830699,-33.74061770379357,2378.4570936673035,10.011248673367374,0.03162277660168379,-2.1639263681507366,3.19878775555637
7290185,1904.875,1,184601.0,223566,0.23,-0.62,9.96,-0.03,-0.01,-0.0,30.67,4.870699,-34.548895528288746,1964.0188257961254,9.98192867135405,0.03162277660168379,-2.215762736658241,2.640244456071575
7330185,1904.875,1,184311.0,222898,0.22,-0.6,9.99,-0.03,-0.01,-0.0,30.67,4.910699,-35.48921072145309,1622.693363596709,10.010419571626356,0.03162277660168379,-2.2760669085517544,2.1802361396718597
7370185,1904.875,1,184199.0,222589,0.25,-0.61,9.97,-0.03,-0.01,-0.01,30.67,4.950699,-36.71846137321113,1317.3050028035402,9.991771614683755,0.033166247903554,-2.3549010517653417,1.7686606750367029
7410185,1904.875,1,184237.0,222538,0.23,-0.61,9.96,-0.03,-0.01,-0.0,30.67,4.990699,-39.18301223444854,901.5724459191497,9.981312538939957,0.03162277660168379,-2.5129573076429295,1.2083730471151537
7450186,1904.875,1,183941.0,219393,0.22,-0.62,9.95,-0.03,-0.01,-0.0,30.67,5.0307,-39.45531852059956,279.2925212059608,9.971725026293093,0.03162277660168379,-2.5304208190347586,0.3697191164880435
7490185,1904.875,1,182604.0,216387,0.26,-0.62,9.95,-0.03,-0.01,-0.0,30.67,5.070699,-44.002051712249106,-480.2430748646789,9.972687701918675,0.03162277660168379,-2.822011321811262,-0.6539158873077754
7530185,1904.875,1,182200.0,215722,0.24,-0.61,9.95,-0.03,-0.01,-0.0,30.67,5.110699,-44.40860556977684,-1166.7121403204485,9.971569585576786,0.03162277660168379,-2.848084381022205,-1.5790782734537643
7570185,1904.875,1,182148.0,215673,0.26,-0.62,9.94,-0.03,-0.01,-0.01,30.67,5.150699,-47.59181825891841,-1567.719264796578,9.96271047456464,0.033166247903554,-3.052229763948136,-2.1195202639396147
7610872,1904.875,1,182284.0,215652,0.23,-0.62,10.000000000000004,-0.03,-0.01,-0.0,30.79,5.191386,-53.28113071084122,-1603.5278320622733,10.021841148212241,0.03162277660168379,-3.4170960115114624,-2.1677798887400486
7649185,1904.875,1,182519.0,216154,0.27,-0.59,9.95,-0.03,-0.01,-0.0,30.79,5.229699,-49.170374665067236,-1359.71653143482,9.971133335784854,0.03162277660168379,-3.153465538454406,-1.8391925480882279
7689185,1904.875,1,183022.0,217000,0.26,-0.61,9.96,-0.03,-0.01,-0.0,30.79,5.269699,-64.39443293192608,-1016.4551842296642,9.982048887878681,0.03162277660168379,-4.129812866792278,-1.3765752168306835
7729185,1904.875,1,183196.0,217326,0.29,-0.59,9.95,-0.03,-0.01,-0.01,30.79,5.309699,-51.89686750488223,-743.1782667714812,9.971694941182266,0.033166247903554,-3.3283206232960483,-1.0082767198454279
7769186,1980.0,1,183384.0,217496,0.27,-0.59,9.96,-0.03,-0.01,-0.0,30.79,5.3497,2.246278038602658,-623.6585661649767,9.981112162479691,0.03162277660168379,0.14398055767526294,-0.8471986218379767
7809185,1984.0,1,183507.0,217637,0.24,-0.6,9.99,-0.03,-0.01,-0.0,30.79,5.389699,19.563301238935512,-632.102877186596,10.01087908227844,0.03162277660168379,1.2545536414117855,-0.8585791185380476
7849185,2017.0,1,183689.0,217854,0.27,-0.62,9.92,-0.03,-0.01,-0.01,30.79,5.429699,35.78358605515048,-650.64123997924,9.943022679245985,0.033166247903554,2.294790841479884,-0.8835634868359773
7890185,2035.875,1,183809.0,218606,0.27,-0.62,9.96,-0.03,-0.01,-0.01,30.79,5.470699,60.070667465428926,-520.6604871386153,9.982930431491548,0.033166247903554,3.8523667934630432,-0.7083869064153516
7930186,2035.875,1,184149.0,219811,0.27,-0.59,9.95,-0.03,-0.01,-0.01,30.79,5.5107,53.072039992380326,-126.70162581961046,9.971133335784854,0.033166247903554,3.4035317249440307,-0.17744394259911672
7970185,2035.875,1,184583.0,221389,0.26,-0.61,9.95,-0.03,-0.01,-0.01,30.79,5.550699,50.0656276955059,511.0800578573299,9.972070998543883,0.033166247903554,3.210724881822226,0.6821018898398288
8010186,2035.875,1,185305.0,224419,0.29,-0.62,9.96,-0.03,-0.01,-0.01,30.79,5.5907,49.4767744199863,1198.321646043687,9.983491373262163,0.033166247903554,3.1729606200032783,1.6083054139026556
8050185,2035.875,1,186063.0,226779,0.25,-0.62,9.98,-0.03,-0.01,-0.01,30.79,5.630699,44.14132690083958,1640.9007020573179,10.00236472040487,0.033166247903554,2.830788392368955,2.2047743826069595
8090170,2035.875,1,186368.0,226085,0.24,-0.62,9.97,-0.03,-0.01,-0.01,30.79,5.670684,43.98000715493366,1614.1506433027312,9.99214191252306,0.033166247903554,2.8204426553675237,2.1687230156447677
8130185,2035.875,1,185247.0,222032,0.26,-0.62,9.97,-0.03,-0.01,-0.01,30.79,5.710699,40.95263847984558,1112.3399784523033,9.992642293207538,0.033166247903554,2.6262918405187397,1.492426915137614
8170186,2035.875,1,184263.0,220469,0.27,-0.59,9.98,-0.03,-0.01,-0.0,30.79,5.7507,39.2584779724007,356.0053515216258,10.001069942761125,0.03162277660168379,2.517642158796218,0.47310589487948124
8210185,2035.875,1,183812.0,219547,0.25,-0.61,9.96,-0.03,-0.01,-0.0,30.79,5.790699,38.36346901359529,-352.348217204258,9.98179342603322,0.03162277660168379,2.4602435604428226,-0.48155049221111845
8250185,2035.875,1,183521.0,218473,0.26,-0.62,9.96,-0.03,-0.01,-0.0,30.79,5.830699,36.93624960753389,-805.1404228373455,9.982664974845145,0.03162277660168379,2.3687133107791416,-1.09178384207618
8290191,2035.875,1,183253.0,217915,0.28,-0.63,9.95,-0.03,-0.01,-0.0,30.79,5.870705,36.13640333348723,-967.1558511067207,9.973855824103333,0.03162277660168379,2.3174176733703926,-1.3101339291418543
8330185,2035.875,1,183236.0,218044,0.29,-0.61,9.97,-0.03,-0.01,-0.0,30.79,5.910699,36.35969884905741,-925.6330574935668,9.992852445623322,0.03162277660168379,2.3317380323860544,-1.2541731746785958
8370185,2035.875,1,183197.0,218213,0.28,-0.61,9.96,-0.03,-0.01,-0.01,30.79,5.950699,35.647185051613945,-788.6376605447978,9.982589844323968,0.033166247903554,2.2860431900290608,-1.0695428763737609
8410186,2035.875,1,183230.0,218756,0.26,-0.62,9.97,-0.03,-0.01,-0.0,30.79,5.9907,36.03825456199281,-619.1970719875128,9.992642293207538,0.03162277660168379,2.3111232090988763,-0.8411858139683919
8450184,2029.0,1,183495.0,219469,0.25,-0.62,9.98,-0.03,-0.01,-0.01,30.79,6.030698,30.90474620557176,-431.57343479321315,10.00236472040487,0.033166247903554,1.981901717632136,-0.5883232443071931
8490194,2006.0,1,183778.0,220027,0.25,-0.62,9.98,-0.03,-0.01,-0.01,30.79,6.070708,5.97126389301874,-219.85417234871437,10.00236472040487,0.033166247903554,0.3828708669019825,-0.30298671875498395
8530185,1990.0,1,183883.0,220334,0.29,-0.61,9.97,-0.03,-0.01,-0.01,30.79,6.110699,-4.578924195177506,16.127895801540873,9.992852445623322,0.033166247903554,-0.2937324259135645,0.01504907374297001
8570186,1999.0,1,183979.0,220636,0.26,-0.63,9.96,-0.03,-0.01,-0.01,30.79,6.1507,0.6037953402328845,256.4068697909815,9.983291040533679,0.033166247903554,0.038645070495379574,0.3388758564825396
8610871,1977.0,1,184025.0,221014,0.26,-0.6,9.98,-0.03,-0.01,-0.01,30.63,6.191385,-14.884155656380191,454.44379719641387,10.001399902013718,0.033166247903554,-0.9546261921277551,0.6057725391200688
8649185,1971.0,1,184088.0,221513,0.26,-0.6,9.97,-0.03,-0.01,-0.0,30.63,6.229699,-22.921569727733825,546.230197709271,9.99142132031274,0.03162277660168379,-1.4700805879109144,0.7294741443159954
8689185,1972.0,1,184255.0,221560,0.29,-0.63,9.94,-0.03,-0.01,-0.01,30.63,6.269699,-18.221731140280454,485.48120580852856,9.964165795489354,0.033166247903554,-1.1686711497673155,0.647602017615662
8729186,1967.0,1,183963.0,219796,0.27,-0.64,9.94,-0.03,-0.01,-0.01,30.63,6.3097,-21.25841393685824,288.96889389269097,9.964241064928126,0.033166247903554,-1.3634192966462904,0.38276007710023
8769185,1961.0,1,183271.0,218858,0.27,-0.64,9.97,-0.03,-0.01,-0.01,30.63,6.349699,-26.737799375234832,48.89872376779412,9.994168299563501,0.033166247903554,-1.714822532230217,0.059214701770373114
8809186,1951.0,1,183185.0,219097,0.25,-0.62,9.97,-0.03,-0.01,-0.01,30.63,6.3897,-32.70995551986176,-113.41490092658798,9.992387102189346,0.033166247903554,-2.097828074774438,-0.15953726810398464
8849185,1957.0,1,183343.0,219275,0.25,-0.62,9.97,-0.03,-0.01,-0.01,30.63,6.429699,-26.59880642927258,-123.47351598131607,9.992387102189346,0.033166247903554,-1.705908654664242,-0.1730933812249419
8889185,1958.0,1,183310.0,219468,0.28,-0.61,9.97,-0.03,-0.01,-0.01,30.63,6.469699,-22.43349009651233,1.437137937034995,9.992567237702232,0.033166247903554,-1.4387791283653604,-0.0047498324046733225
8930185,1949.0,1,183378.0,220260,0.25,-0.61,9.97,-0.03,-0.01,-0.01,30.63,6.510699,-30.20301946552596,171.19110674918304,9.991771614683755,0.033166247903554,-1.9370535771956356,0.22402957623441513
8970186,1945.0,1,183513.0,220523,0.24,-0.61,9.97,-0.03,-0.01,-0.0,30.63,6.5507,-32.19405194885631,285.70934185124685,9.991526409913552,0.03162277660168379,-2.0647422139348457,0.3783671407012281
9010185,1941.0,1,183467.0,219919,0.25,-0.61,9.97,-0.03,-0.01,-0.01,30.63,6.590699,-34.801000176129314,295.2260485356832,9.991771614683755,0.033166247903554,-2.2319306792045803,0.3911929175752072
9050186,1938.0,1,183254.0,219747,0.25,-0.65,9.98,-0.03,-0.01,-0.0,30.63,6.6307,-36.22297856821664,222.8154314623497,10.004269088744065,0.03162277660168379,-2.32312481284048,0.2936042822746627
9090185,1935.0,1,183233.0,219766,0.23,-0.64,9.99,-0.03,-0.01,-0.0,30.63,6.670699,-37.37858413859027,142.7292983182693,10.013121391454316,0.03162277660168379,-2.397235959255545,0.18567126421857558
9130186,1937.0,1,183284.0,219688,0.27,-0.62,9.95,-0.03,-0.01,-0.01,30.63,6.7107,-36.57741473472146,131.86201911284718,9.972953424136703,0.033166247903554,-2.3458554670568144,0.1710253049663144
9170185,1936.0,1,183189.0,219970,0.26,-0.62,9.97,-0.03,-0.01,-0.01,30.63,6.750699,-31.271433422510896,220.32982252418566,9.992642293207538,0.033166247903554,-2.0055729623803304,0.29025439804538444
9210186,1946.0,1,183302.0,220449,0.26,-0.64,9.96,-0.03,-0.01,-0.01,30.63,6.7907,-30.055289318172044,364.121848850725,9.983927083067064,0.033166247903554,-1.9275793665642995,0.4840445932331374
9250185,1943.0,1,183439.0,220461,0.25,-0.62,9.96,-0.03,-0.01,-0.0,30.63,6.830699,-18.551234939872256,455.67753161965834,9.98240952876609,0.03162277660168379,-1.1898028446655782,0.60743525742788
9290186,1959.0,1,183334.0,220118,0.27,-0.63,9.98,-0.03,-0.01,-0.0,30.63,6.8707,-19.889988135999037,375.0841892618453,10.003509384211124,0.03162277660168379,-1.2756595908386772,0.498818667583834
9330185,1941.0,1,183118.0,219075,0.26,-0.62,9.96,-0.03,-0.01,-0.0,30.63,6.910699,-18.06462376915595,61.22877523614607,9.982664974845145,0.03162277660168379,-1.158595560238503,0.07583205630504491
9368185,2001.0,1,182433.0,216851,0.23,-0.62,9.98,-0.03,-0.01,-0.01,30.63,6.948699,22.5492970331092,-438.242595233289,10.001884822372231,0.033166247903554,1.4460511360329176,-0.5973113498123327
9408185,1998.0,1,181874.0,215542,0.27,-0.62,9.94,-0.03,-0.01,-0.0,30.63,6.988699,36.317951556429165,-973.9753899486384,9.962976462884974,0.03162277660168379,2.329060700434977,-1.3193247013774758
9448185,2009.0,1,181638.0,215128,0.26,-0.62,9.96,-0.03,-0.01,-0.01,30.63,7.028699,33.756113463786576,-1361.0417004959986,9.982664974845145,0.033166247903554,2.164765232463029,-1.8409784939266947
9488184,2009.0,1,181532.0,214999,0.25,-0.61,9.96,-0.03,-0.01,-0.0,30.63,7.068698,42.594652289257674,-1469.7739087053594,9.98179342603322,0.03162277660168379,2.7315972569728615,-1.9875181622963194
9528186,2006.0,1,181491.0,215418,0.27,-0.62,9.96,-0.03,-0.01,-0.01,30.63,7.1087,32.88708062523871,-1293.2105216711896,9.982930431491548,0.033166247903554,2.109032531281693,-1.74956162109938
9568185,2011.0,1,182001.0,216679,0.24,-0.61,9.99,-0.03,-0.01,-0.0,30.63,7.148699,41.25678302164027,-953.7214961398992,10.01148340656868,0.03162277660168379,2.6457971987881717,-1.2920282918700792
9608186,2006.0,1,182264.0,217072,0.26,-0.61,9.97,-0.03,-0.01,-0.01,30.63,7.1887,32.56929518712301,-636.9010985907113,9.992026821421168,0.033166247903554,2.0886523568203037,-0.8650457376282185
9648871,1961.0,1,182440.0,217347,0.27,-0.63,9.94,-0.03,-0.01,-0.0,30.57,7.229385,-11.0474733732927,-477.4079899153052,9.963603765706463,0.03162277660168379,-0.7085725820382418,-0.6500950101718951
9689185,1965.0,1,182554.0,218024,0.23,-0.6,9.97,-0.03,-0.01,-0.01,30.57,7.269699,-9.387072999666806,-459.15500270055077,9.990685662155526,0.033166247903554,-0.6020880008349585,-0.6254952458770792
9729185,1975.0,1,182794.0,218430,0.25,-0.62,9.97,-0.03,-0.01,-0.0,30.57,7.309699,0.330421936578594,-404.08872860377664,9.992387102189346,0.03162277660168379,0.021113122862367276,-0.551281784407091
9769186,1963.0,1,182786.0,218561,0.25,-0.61,9.97,-0.03,-0.01,-0.0,30.57,7.3497,-12.37003761192986,-83.95842066727381,9.991771614683755,0.03162277660168379,-0.7933911000913147,-0.11983842523467664
9809185,1966.0,1,183222.0,220440,0.32,-0.61,9.98,-0.03,-0.01,-0.01,30.57,7.389699,-10.840705572569435,596.7135538293442,10.003744299011247,0.033166247903554,-0.6953121762854655,0.7975111536424032
9849186,1959.0,1,184417.0,223724,0.24,-0.6,9.98,-0.03,-0.01,-0.01,30.57,7.4297,-18.229512095801635,1476.2643122838572,10.000899959503645,0.033166247903554,-1.1691701569966533,1.9828919950762864
9889185,1965.0,1,185388.0,225713,0.24,-0.62,9.94,-0.03,-0.01,-0.01,30.57,7.469699,-12.901546182289064,2188.7329351985663,9.96220859046828,0.033166247903554,-0.827477738723575,2.9430942888129863
9928225,1999.0,1,185572.0,225731,0.25,-0.62,9.96,-0.03,-0.01,-0.01,30.57,7.508739,19.463355572268053,2386.1320689455665,9.98240952876609,0.033166247903554,1.2481439388923103,3.209131409479559
9968185,2003.0,1,185236.0,222727,0.27,-0.61,10.0,-0.03,-0.01,-0.0,30.57,7.548699,24.36312474678343,1973.1905833581313,10.022225301797999,0.03162277660168379,1.562375299489789,2.652605340979891
10008186,2003.0,1,183830.0,219546,0.25,-0.61,9.95,-0.03,-0.01,-0.0,30.57,7.5887,21.686061544028068,1169.6263371717644,9.971815281080971,0.03162277660168379,1.3906902297149533,1.5696324106122332
10048185,2011.0,1,183169.0,218636,0.28,-0.64,9.94,-0.03,-0.01,-0.0,30.57,7.628699,31.56428799654824,351.1922705890368,9.964517048005888,0.03162277660168379,2.0241993661473714,0.46661924942903926
10088186,2003.0,1,182939.0,218349,0.27,-0.61,9.98,-0.03,-0.01,-0.0,30.57,7.6687,20.549233787528635,-197.6529382905758,10.00226974241347,0.03162277660168379,1.3177833396214769,-0.2730658560239357
10128204,1993.0,1,182808.0,218283,0.25,-0.61,9.95,-0.03,-0.01,-0.01,30.57,7.708718,12.750925868692411,-427.0042090775749,9.971815281080971,0.033166247903554,0.8176632685700955,-0.5821652453839454
10168187,2005.0,1,182738.0,218019,0.25,-0.61,9.96,-0.03,-0.01,-0.0,30.57,7.748701,22.318218002809555,-476.4942524098208,9.98179342603322,0.03162277660168379,1.4312316056611045,-0.6488635554517558
10208185,2000.0,1,182539.0,217435,0.26,-0.62,9.95,-0.03,-0.01,-0.0,30.57,7.788699,18.42075207187185,-517.32407220105,9.972687701918675,0.03162277660168379,1.1812798265587743,-0.7038903809925174
10248187,1990.0,1,182229.0,216943,0.29,-0.61,9.96,-0.03,-0.01,-0.01,30.57,7.828701,8.453784773625692,-620.9118788729414,9.982875337296365,0.033166247903554,0.5420795737288566,-0.8434968792584926
10288186,1991.0,1,182381.0,216997,0.28,-0.61,9.96,-0.03,-0.01,-0.0,30.57,7.8687,7.484690003068632,-733.0198741680168,9.982589844323968,0.03162277660168379,0.47992971371424364,-0.9945861353553764
10328187,1984.0,1,182510.0,217154,0.26,-0.61,9.95,-0.03,-0.01,-0.01,30.57,7.908701,4.353821071277167,-735.1735945641427,9.972070998543883,0.033166247903554,0.27914123383926803,-0.9974887295158987
10368185,1982.0,1,182618.0,217861,0.27,-0.64,9.97,-0.03,-0.01,-0.01,30.57,7.948699,-2.967551895353136,-531.896166840695,9.994168299563501,0.033166247903554,-0.19039210677435092,-0.7235293633245301
10408186,1977.0,1,182935.0,219039,0.25,-0.63,9.95,-0.03,-0.01,-0.01,30.57,7.9887,-1.5216313531183057,-117.973866807604,9.973058708340185,0.033166247903554,-0.09766251827343267,-0.1656814397281475
10448186,1984.0,1,183527.0,220516,0.26,-0.61,9.96,-0.03,-0.01,-0.01,30.57,8.0287,-0.5657614436628932,395.81606351038874,9.982048887878681,0.033166247903554,-0.03636079333409993,0.526759256918805
10488187,1975.0,1,183801.0,221410,0.26,-0.61,9.99,-0.03,-0.01,-0.01,30.57,8.068701,-4.244281982470158,812.4440301741964,10.011982820600522,0.033166247903554,-0.2722711949724597,1.088253639069773
10528185,1984.0,1,184122.0,221971,0.27,-0.61,9.95,-0.03,-0.01,-0.01,30.57,8.108699,1.7790923276852346,935.7097653365763,9.972336737194547,0.033166247903554,0.11401906431413895,1.254380311649187
10568186,1979.0,1,183959.0,221483,0.26,-0.63,10.0,-0.03,-0.01,-0.01,30.57,8.1487,-2.0701076942470578,681.4513247826417,10.02319809242539,0.033166247903554,-0.13283733177787924,0.9117132383638686
10608185,1971.0,1,183459.0,218625,0.26,-0.63,9.97,-0.03,-0.01,-0.0,30.57,8.188699,-8.660975021361944,143.59626587457439,9.993267733829612,0.03162277660168379,-0.5555219795545006,0.18683968653134192
10648187,1968.0,1,182479.0,216954,0.26,-0.63,9.94,-0.03,-0.01,-0.01,30.57,8.228701,-14.21853754579164,-445.24753711458374,9.963337794133048,0.033166247903554,-0.9119388578720041,-0.6067519918919723
10688871,1933.0,1,182139.0,216881,0.27,-0.64,9.95,-0.03,-0.01,-0.0,30.63,8.269385,-45.223800709680404,-848.3477215674881,9.974216761229926,0.03162277660168379,-2.900364369903454,-1.1500148237819052
10729186,1936.0,1,182246.0,217407,0.25,-0.62,9.96,-0.03,-0.01,-0.01,30.63,8.3097,-46.72554083883514,-962.5975584533261,9.98240952876609,0.033166247903554,-2.9966737729060555,-1.3039906648344288
10769185,1951.0,1,182435.0,217848,0.25,-0.61,9.97,-0.03,-0.01,-0.01,30.63,8.349699,-25.78119822215041,-856.927601816126,9.991771614683755,0.033166247903554,-1.653473911269401,-1.1615780287143906
10809187,1947.0,1,182609.0,218217,0.26,-0.64,9.95,-0.03,-0.01,-0.0,30.63,8.389701,-37.29780690137169,-690.5271246202154,9.973951072669244,0.03162277660168379,-2.392055563964983,-0.9373181599376541
10849185,1945.0,1,182542.0,218114,0.26,-0.61,9.98,-0.03,-0.01,-0.0,30.63,8.429699,-29.438993251282756,-588.100995956639,10.00200479903904,0.03162277660168379,-1.8880551472119358,-0.7992772687065605
10889186,1967.0,1,182508.0,218056,0.28,-0.6,9.96,-0.03,-0.01,-0.0,30.63,8.4697,-19.293979082643595,-570.5616118035415,9.981983770774224,0.03162277660168379,-1.2374364156045459,-0.7756392356018387
10929185,1951.0,1,182463.0,218244,0.24,-0.62,9.93,-0.03,-0.01,-0.0,30.63,8.509699,-22.4889439377365,-573.7414743761043,9.952230905681398,0.03162277660168379,-1.442335486911567,-0.7799247735718495
10968186,1993.0,1,182736.0,218901,0.26,-0.62,9.98,-0.03,-0.01,-0.01,30.63,8.5487,7.128627092180266,-510.5427512105721,10.002619656869895,0.033166247903554,0.45709473333829226,-0.6947511154021488
11008185,1994.0,1,183062.0,219953,0.25,-0.64,9.95,-0.03,-0.01,-0.01,30.63,8.588699,18.12642685919525,-317.65094404019715,9.973695403409911,0.033166247903554,1.1624042002295691,-0.4347885714654122
11048187,1994.0,1,183346.0,220755,0.25,-0.61,9.95,-0.03,-0.01,-0.01,30.63,8.628701,10.9250030833246,25.821606675427578,9.971815281080971,0.033166247903554,0.7005634255455893,0.02811340123271643
11088184,2000.0,1,183537.0,221292,0.27,-0.62,9.98,-0.03,-0.01,-0.01,30.63,8.668698,20.584063440985148,481.5521223663052,10.00288458395877,0.033166247903554,1.3200170304352612,0.6423067459192446
11128186,1999.0,1,183853.0,222470,0.27,-0.6,9.92,-0.03,-0.01,-0.0,30.63,8.7087,17.827335271555146,930.3904761901586,9.941795612463576,0.03162277660168379,1.1432228973599894,1.247211443470061
11168186,1999.0,1,184393.0,224215,0.27,-0.63,9.95,-0.03,-0.01,-0.01,30.63,8.7487,17.96055697212105,1186.1829527220134,9.973580099442726,0.033166247903554,1.1517666541654465,1.591945954979743
11208187,2000.0,1,184747.0,223697,0.25,-0.64,9.96,-0.03,-0.01,-0.01,30.63,8.788701,18.269884745243136,1081.5783950071623,9.983671669280797,0.033166247903554,1.1716044227534648,1.4509691694446736
11248185,1985.0,1,183749.0,220115,0.27,-0.62,9.95,-0.03,-0.01,-0.0,30.63,8.828699,4.132958942113046,588.8175451286284,9.972953424136703,0.03162277660168379,0.2649769324446901,0.786869610391312
11288187,1984.0,1,182826.0,218391,0.28,-0.61,9.96,-0.03,-0.01,-0.0,30.63,8.868701,0.872058277015924,-122.90957668185727,9.982589844323968,0.03162277660168379,0.05584927433046073,-0.17233335363712568
11328185,1984.0,1,182483.0,217856,0.25,-0.64,9.96,-0.03,-0.01,-0.0,30.63,8.908699,3.08910294191153,-756.966511755539,9.983671669280797,0.03162277660168379,0.19803249495624314,-1.026859298831339
11368187,1985.0,1,182314.0,217418,0.24,-0.64,9.96,-0.03,-0.01,-0.0,30.63,8.948701,1.4635463083455027,-1046.4741373689328,9.983426265566347,0.03162277660168379,0.09378250796696176,-1.4170321109770954
11408185,1984.0,1,182207.0,217999,0.25,-0.61,9.96,-0.03,-0.01,-0.01,30.63,8.988699,1.9448359883059103,-894.618170320897,9.98179342603322,0.033166247903554,0.12464851523973138,-1.2123740485902774
11448187,1984.0,1,182746.0,220025,0.28,-0.63,9.97,-0.03,-0.01,-0.01,30.63,9.028701,1.1575970402136098,-414.48556134029025,9.993808083008199,0.033166247903554,0.07416140922236705,-0.5652937174524459
11488186,1988.0,1,183452.0,221719,0.26,-0.62,9.96,-0.03,-0.01,-0.01,30.63,9.0687,4.44345111888311,146.30230650339115,9.982664974845145,0.033166247903554,0.2848893764162942,0.19048664912753982
11528187,2000.0,1,183760.0,222120,0.25,-0.64,9.99,-0.03,-0.01,-0.01,30.63,9.108701,17.919746120375052,546.9254475514624,10.013600750978641,0.033166247903554,1.1491493779194577,0.7304111406576185
11568194,2006.0,1,183832.0,222140,0.24,-0.64,9.96,-0.03,-0.01,-0.0,30.63,9.148708,21.83031120633794,678.7087904276308,9.983426265566347,0.03162277660168379,1.3999412303312917,0.9080170927461712
11608186,1997.0,1,183809.0,222058,0.26,-0.62,9.99,-0.03,-0.01,-0.01,30.63,9.1887,14.863224569156985,604.124654790631,10.012597065696792,0.033166247903554,0.9531289346034182,0.8074991810632174
11648185,2000.0,1,183686.0,221750,0.29,-0.6,9.98,-0.03,-0.01,-0.0,30.63,9.228699,16.553326344658494,491.51804877821627,10.00222475252381,0.03162277660168379,1.0615183222558644,0.655737941472503
11688185,1985.0,1,183601.0,221683,0.27,-0.65,9.93,-0.03,-0.01,-0.01,30.63,9.268699,2.333652583371999,490.37041961506213,9.95491335974352,0.033166247903554,0.14958405063718822,0.6541912682305129
11728871,1962.0,1,183696.0,222381,0.25,-0.61,9.97,-0.03,-0.01,-0.01,30.59,9.309385,-20.23245098909204,627.1791468658943,9.991771614683755,0.033166247903554,-1.297622374073696,0.838569989600778
11769187,1967.0,1,183946.0,222797,0.26,-0.62,9.98,-0.03,-0.01,-0.0,30.59,9.349701,-15.607654469062906,789.5323665294119,10.002619656869895,0.03162277660168379,-1.001025524055965,1.057375322078009
11809186,1966.0,1,183962.0,222778,0.26,-0.63,9.95,-0.03,-0.01,-0.01,30.59,9.3897,-15.117031273023125,809.8572792318421,9.97331439392141,0.033166247903554,-0.9695609409416976,1.0847674445788311
11849187,1962.0,1,183931.0,221657,0.25,-0.61,9.95,-0.03,-0.01,-0.01,30.59,9.429701,-20.120313172809247,590.7849750178809,9.971815281080971,0.033166247903554,-1.2904307661979113,0.7895211386574945
11889185,1970.0,1,183137.0,219495,0.27,-0.6,9.96,-0.03,-0.01,-0.01,30.59,9.469699,-9.213708373379287,180.3027863270549,9.981708270631836,0.033166247903554,-0.5909698031285965,0.23630949334104365
11929186,1978.0,1,182656.0,218828,0.26,-0.61,9.95,-0.03,-0.01,-0.01,30.59,9.5097,-4.2425080452555735,-259.0314609677616,9.972070998543883,0.033166247903554,-0.2721574290613118,-0.35578640871255446
11969186,1974.0,1,182488.0,218739,0.26,-0.61,9.95,-0.03,-0.01,-0.01,30.59,9.5497,-2.023548862065544,-559.052237000519,9.972070998543883,0.033166247903554,-0.12985142679681985,-0.760127916604903
12009187,1984.0,1,182547.0,218821,0.25,-0.62,9.99,-0.03,-0.01,-0.01,30.59,9.589701,1.5114788883595183,-646.7220587559729,10.01234238327875,0.033166247903554,0.09685651396567116,-0.8782815604758302
12049185,1973.0,1,182454.0,218822,0.26,-0.62,9.95,-0.03,-0.01,-0.0,30.59,9.629699,-0.06695495997653945,-568.1557350449112,9.972687701918675,0.03162277660168379,-0.004371400678861275,-0.7723968073631974
12089187,1985.0,1,182532.0,219261,0.27,-0.6,9.97,-0.03,-0.01,-0.01,30.59,9.669701,4.17347791083478,-436.24730872898124,9.991686544322736,0.033166247903554,0.2675754896864599,-0.594622278860323
12129185,1984.0,1,182643.0,219436,0.22,-0.63,9.98,-0.03,-0.01,-0.0,30.59,9.709699,11.682475659261373,-353.0517836453722,10.002284738998386,0.03162277660168379,0.7491415584482338,-0.4824986969303527
12169186,1982.0,1,182634.0,219211,0.25,-0.62,9.96,-0.03,-0.01,-0.01,30.59,9.7497,5.876853148152423,-357.55088205058854,9.98240952876609,0.033166247903554,0.37681612926889835,-0.4885621844573718
12209185,1969.0,1,182514.0,218829,0.28,-0.62,9.97,-0.03,-0.01,-0.01,30.59,9.789699,-4.7739993859258565,-418.49764165072014,9.993182676204814,0.033166247903554,-0.3062429627213989,-0.5707008449985973
12249187,1975.0,1,182424.0,219024,0.25,-0.63,9.96,-0.03,-0.01,-0.01,30.59,9.829701,5.157470441800477,-463.0759383642306,9.983035610474403,0.033166247903554,0.3306807709375282,-0.6307795367170845
12289186,1985.0,1,182552.0,219731,0.24,-0.63,9.95,-0.03,-0.01,-0.0,30.59,9.8697,10.086416428430708,-419.2362770226331,9.97281304346973,0.03162277660168379,0.6467832950617365,-0.5716963125259171
12329186,1965.0,1,182783.0,220026,0.25,-0.64,9.97,-0.03,-0.01,-0.01,30.59,9.9097,-0.2062233099358982,-252.72838451042543,9.993647982593744,0.033166247903554,-0.013302940418225332,-0.3472916788714391
12369185,1980.0,1,182892.0,220217,0.28,-0.6,9.97,-0.03,-0.01,-0.0,30.59,9.949699,7.091266054423917,9.837030925535256,9.991961769342396,0.03162277660168379,0.4546987001152226,0.006570801592799326
12409186,1977.0,1,182987.0,220555,0.27,-0.59,9.96,-0.03,-0.01,-0.01,30.59,9.9897,12.986235096319545,277.62851010118936,9.981112162479691,0.033166247903554,0.8327540894077382,0.36747650926547093
12449185,1972.0,1,183221.0,221277,0.24,-0.62,9.94,-0.03,-0.01,-0.01,30.59,10.029699,4.1742096200354535,423.79990103676624,9.96220859046828,0.033166247903554,0.2676224155659248,0.5644734019578623
12489187,1966.0,1,183483.0,221611,0.25,-0.63,9.98,-0.03,-0.01,-0.0,30.59,10.069701,1.4279085099008773,350.1174204569634,10.002989553128605,0.03162277660168379,0.09149698930371555,0.46517066133821516
12529185,1968.0,1,183059.0,219197,0.28,-0.62,9.98,-0.03,-0.01,-0.0,30.59,10.109699,5.246290765700731,58.546150070819834,10.003159500877711,0.03162277660168379,0.3363769844189819,0.07221665100278166
12569186,1966.0,1,182311.0,217815,0.26,-0.63,9.96,-0.03,-0.01,-0.0,30.59,10.1497,2.4756492736335702,-328.2981612804947,9.983291040533679,0.03162277660168379,0.15869056394261255,-0.4491379506341711
12609185,1959.0,1,182114.0,217652,0.28,-0.63,9.96,-0.03,-0.01,-0.01,30.59,10.189699,-1.684522246675326,-629.3554634362797,9.9838319296751,0.033166247903554,-0.10810901591205341,-0.854876396902244
12649187,1957.0,1,182210.0,218234,0.28,-0.6,9.95,-0.03,-0.01,-0.01,30.59,10.229701,-2.291758053000087,-710.9852962410604,9.972005816283902,0.033166247903554,-0.1470521838101227,-0.9648898770409714
12689185,1946.0,1,182361.0,218648,0.24,-0.62,9.95,-0.03,-0.01,-0.01,30.59,10.269699,-15.600909569771913,-557.3134056272778,9.97218631996013,0.033166247903554,-1.0005929610502777,-0.7577844732316676
12729872,1937.0,1,182604.0,219426,0.25,-0.62,9.96,-0.03,-0.01,-0.01,30.63,10.310386,-16.760348930289197,-259.89287559352596,9.98240952876609,0.033166247903554,-1.0749499755971217,-0.35694734727590266
12768185,1958.0,1,182897.0,220142,0.26,-0.62,9.96,-0.03,-0.01,-0.0,30.63,10.348699,-4.5235728197679075,51.14423327967399,9.982664974845145,0.03162277660168379,-0.2901826386916756,0.062241001195453546
12808187,1939.0,1,183086.0,220696,0.24,-0.61,9.96,-0.03,-0.01,-0.01,30.63,10.388701,-11.283491448326199,278.39795722893393,9.981547976140776,0.033166247903554,-0.7237088625857249,0.3685135021563956
12848185,1954.0,1,183228.0,220988,0.28,-0.63,9.98,-0.03,-0.01,-0.0,30.63,10.428699,-7.023768770345562,391.6602432707555,10.003784283959746,0.03162277660168379,-0.45052488081128084,0.521158409389368
12888186,1954.0,1,183277.0,221040,0.27,-0.62,9.99,-0.03,-0.01,-0.01,30.63,10.4687,4.187463835352716,421.7793828010785,10.012861728796619,0.033166247903554,0.26847243318195,0.5617503259064466
12928185,1955.0,1,183311.0,221489,0.26,-0.61,9.96,-0.03,-0.01,-0.01,30.63,10.508699,-2.9190643119086843,431.19291332982283,9.982048887878681,0.033166247903554,-0.18728250736769297,0.5744370510689986
12968187,1947.0,1,183409.0,221811,0.26,-0.63,9.93,-0.03,-0.01,-0.01,30.63,10.548701,-3.453144434143043,478.0169698378077,9.95336124130939,0.033166247903554,-0.2215340644309641,0.6375423795213454
13008185,1958.0,1,183451.0,222037,0.25,-0.6,9.96,-0.03,-0.01,-0.0,30.63,10.588699,2.5590831418199067,583.0335459724255,9.981187304123694,0.03162277660168379,0.16404133394550688,0.7790744470983146
13048186,1951.0,1,183511.0,222076,0.25,-0.62,9.95,-0.03,-0.01,-0.0,30.63,10.6287,0.4626366634152062,708.9050789744826,9.972432000269542,0.03162277660168379,0.029592300559345593,0.9487129838949009
13088185,1952.0,1,183548.0,222505,0.27,-0.63,9.97,-0.03,-0.01,-0.01,30.63,10.668699,-2.329257080471412,766.8412316584153,9.993532908836595,0.033166247903554,-0.14945706657167893,1.0267942142932414
13128187,1949.0,1,183776.0,222515,0.26,-0.64,9.98,-0.03,-0.01,-0.0,30.63,10.708701,-1.3515462656317516,660.5862901015415,10.003879247571914,0.03162277660168379,-0.08675464352369462,0.8835931871569447
13168185,1950.0,1,183249.0,220354,0.26,-0.6,9.94,-0.03,-0.01,-0.01,30.63,10.748699,-3.546748832739326,351.46581392982,9.96148583294681,0.033166247903554,-0.22753708956974075,0.46698790698785486
13208186,1949.0,1,182722.0,219390,0.27,-0.63,9.94,-0.03,-0.01,-0.01,30.63,10.7887,-2.2558492310262985,-98.31654396385879,9.963603765706463,0.033166247903554,-0.14474928390108927,-0.13918903588575887
13248185,1955.0,1,182407.0,218693,0.26,-0.6,9.98,-0.03,-0.01,-0.0,30.63,10.828699,3.0995770428658562,-540.9736465727977,10.001399902013718,0.03162277660168379,0.19870421863886717,-0.7357631888991295
13288186,1955.0,1,182184.0,218188,0.24,-0.61,9.96,-0.03,-0.01,-0.01,30.63,10.8687,1.291760926637369,-813.9713134572654,9.981547976140776,0.033166247903554,0.08276559016894261,-1.1036853366210144
13328185,1952.0,1,182044.0,218289,0.26,-0.62,9.97,-0.03,-0.01,-0.0,30.63,10.908699,2.033666796321281,-824.7250299834577,9.992642293207538,0.03162277660168379,0.13034540108709464,-1.1181782461226306
13368187,1957.0,1,182336.0,219410,0.26,-0.61,9.94,-0.03,-0.01,-0.0,30.63,10.948701,1.0588324762845704,-599.1913406229264,9.962093153549608,0.03162277660168379,0.06782745303037802,-0.8142238558886524
13408185,1952.0,1,182764.0,220396,0.24,-0.62,9.95,-0.03,-0.01,-0.01,30.63,10.988699,1.7795863365806537,-265.93315251639405,9.97218631996013,0.033166247903554,0.11405074602848628,-0.3650878991115968
13448186,1963.0,1,182985.0,220855,0.26,-0.62,9.95,-0.03,-0.01,-0.01,30.63,11.0287,7.608356232862404,16.277180406345664,9.972687701918675,0.033166247903554,0.4878606603086617,0.01525026635039561
13488185,1955.0,1,183126.0,221217,0.25,-0.62,9.94,-0.03,-0.01,-0.01,30.63,11.068699,0.7618078274997415,145.97216619909767,9.962454516834693,0.033166247903554,0.048778706815128706,0.19004171517923388
13528186,1951.0,1,183131.0,221257,0.25,-0.63,9.96,-0.03,-0.01,-0.01,30.63,11.1087,-1.0527172372481464,129.99648259534493,9.983035610474403,0.033166247903554,-0.06759017907026649,0.1685110995886417
13568185,1959.0,1,183113.0,221255,0.25,-0.63,9.97,-0.03,-0.01,-0.01,30.63,11.148699,-1.0448119920955257,67.30752104153784,9.993012558783263,0.033166247903554,-0.06708320091442095,0.08402445310351875
13608195,1945.0,1,183096.0,221383,0.25,-0.64,9.95,-0.03,-0.01,-0.01,30.63,11.188709,-4.271279237925362,74.5034865480809,9.973695403409911,0.033166247903554,-0.2740025794544492,0.09372253995647478
13648185,1972.0,1,183137.0,221678,0.25,-0.62,9.98,-0.03,-0.01,-0.0,30.63,11.228699,8.307327606418703,198.2288635108763,10.00236472040487,0.03162277660168379,0.532687001695041,0.2604686771647318
13688186,1962.0,1,183303.0,222228,0.24,-0.63,9.94,-0.03,-0.01,-0.0,30.63,11.2687,11.739500522794387,372.9567775945281,9.962835941638303,0.03162277660168379,0.7527986695931964,0.4959515300047454
13728185,1966.0,1,183557.0,222795,0.27,-0.6,9.95,-0.03,-0.01,-0.01,30.63,11.308699,2.6225424223315605,459.826623545453,9.971730040469406,0.033166247903554,0.16811109628480858,0.613027037130085
13768872,1954.0,1,183649.0,222332,0.26,-0.63,9.97,-0.03,-0.01,-0.0,30.51,11.349386,-0.9024995673576272,346.6635058555688,9.993267733829612,0.03162277660168379,-0.05795643896655038,0.46051578024455786
13809185,1956.0,1,183038.0,219964,0.26,-0.6,9.97,-0.03,-0.01,-0.01,30.51,11.389699,-4.67146305302311,36.56900883247247,9.99142132031274,0.033166247903554,-0.2996671159312503,0.042597800785201215
13849186,1955.0,1,182471.0,219225,0.25,-0.62,9.95,-0.03,-0.01,-0.01,30.51,11.4297,-5.60845879570096,-345.89875890935855,9.972432000269542,0.033166247903554,-0.3597584052571046,-0.4728584818559298
13889185,1953.0,1,182433.0,219315,0.24,-0.64,9.99,-0.03,-0.01,-0.0,30.51,11.469699,-5.2995610749127815,-635.3424101202806,10.013356080755344,0.03162277660168379,-0.33994821672953385,-0.862945074951446
13929186,1957.0,1,182462.0,219371,0.26,-0.63,9.98,-0.03,-0.01,-0.01,30.51,11.5097,-7.868336383211223,-725.7881050391783,10.00324447366953,0.033166247903554,-0.5046885813153134,-0.9848397955420142
13969185,1954.0,1,182478.0,219575,0.24,-0.62,9.97,-0.03,-0.01,-0.0,30.51,11.549699,-4.071132639161826,-617.267320409497,9.99214191252306,0.03162277660168379,-0.26116680376617024,-0.8385850652028218
14009186,1967.0,1,182672.0,220394,0.25,-0.61,9.99,-0.03,-0.01,-0.01,30.51,11.5897,0.43389143796228963,-391.6324593488128,10.011728122557065,0.033166247903554,0.027748815492389424,-0.5344943246855839
14049185,1958.0,1,182921.0,220902,0.25,-0.64,9.96,-0.03,-0.01,-0.0,30.51,11.629699,-2.1839560901404704,-153.83762324365446,9.983671669280797,0.03162277660168379,-0.14013864232317974,-0.2140154436187756
14089187,1967.0,1,183060.0,221223,0.27,-0.63,9.99,-0.03,-0.01,-0.01,30.51,11.669701,0.6995932798749819,18.411875800658272,10.013485906516273,0.033166247903554,0.0447887715237344,0.01812722029352177
14129185,1968.0,1,183139.0,221665,0.25,-0.62,9.96,-0.03,-0.01,-0.01,30.51,11.709699,4.778584723051949,98.93764988176324,9.98240952876609,0.033166247903554,0.30638212121081343,0.12665274758099723
14169187,1969.0,1,183248.0,221906,0.25,-0.63,9.97,-0.03,-0.01,-0.01,30.51,11.749701,3.0807119484518655,114.91252185754372,9.993012558783263,0.033166247903554,0.19749436485303154,0.14818226933108114
14209185,1968.0,1,183245.0,222019,0.25,-0.63,9.95,-0.03,-0.01,-0.0,30.51,11.789699,2.7341893986676933,131.96159141498129,9.973058708340185,0.03162277660168379,0.1752712256768564,0.171159499722163
14249186,1969.0,1,183330.0,222308,0.26,-0.63,9.96,-0.03,-0.01,-0.01,30.51,11.8297,2.175584416213631,221.78514972601664,9.983291040533679,0.033166247903554,0.1394468434618652,0.29221575953189977
14289185,1968.0,1,183477.0,222753,0.25,-0.65,9.97,-0.03,-0.01,-0.0,30.51,11.869699,2.2303937181846663,415.2284365139761,9.994293371719683,0.03162277660168379,0.1429618665003658,0.5529215389975042
14329187,1968.0,1,183651.0,223181,0.27,-0.62,9.96,-0.03,-0.01,-0.0,30.51,11.909701,-0.5449055746489266,662.0983019041754,9.982930431491548,0.03162277660168379,-0.0350232674500669,0.8856309431427544
14369185,1968.0,1,183794.0,223708,0.26,-0.62,9.95,-0.03,-0.01,-0.0,30.51,11.949699,2.0117473517615836,833.2780321910506,9.972687701918675,0.03162277660168379,0.12893966611423932,1.116331867192239
14409186,1982.0,1,183936.0,223946,0.25,-0.62,9.94,-0.03,-0.01,-0.0,30.51,11.9897,12.47846409960951,784.8184640408674,9.962454516834693,0.03162277660168379,0.8001897857670645,1.0510223405762633
14449185,1977.0,1,183822.0,222317,0.24,-0.62,9.96,-0.03,-0.01,-0.0,30.51,12.029699,9.806563185278614,455.5414554896767,9.982164094022899,0.03162277660168379,0.6288357832032831,0.6072518660364153
14489186,1975.0,1,182796.0,219583,0.26,-0.62,9.96,-0.03,-0.01,-0.01,30.51,12.0697,5.726177252167948,-72.26016972593024,9.982664974845145,0.033166247903554,0.36715300226881287,-0.1040725556576661
14529185,1977.0,1,182213.0,218763,0.25,-0.62,9.95,-0.03,-0.01,-0.0,30.51,12.109699,8.053872865487447,-604.232885912892,9.972432000269542,0.03162277660168379,0.5164324751538827,-0.8210184054248808
14569187,1973.0,1,182166.0,218893,0.28,-0.6,9.98,-0.03,-0.01,-0.0,30.51,12.149701,4.017047244868194,-940.1161053249014,10.001939811856499,0.03162277660168379,0.257543298524983,-1.273692147585857
14609186,1970.0,1,182168.0,218949,0.26,-0.6,9.98,-0.03,-0.01,-0.0,30.51,12.1897,0.12140660634552267,-976.5615763275378,10.001399902013718,0.03162277660168379,0.007708578838848973,-1.3228101349996482
14649186,1968.0,1,182288.0,219503,0.26,-0.63,9.96,-0.03,-0.01,-0.0,30.51,12.2297,-1.721520472366188,-741.3148838354336,9.983291040533679,0.03162277660168379,-0.11048178131884057,-1.0057654168746626
14689185,1968.0,1,182567.0,220701,0.27,-0.62,9.98,-0.03,-0.01,-0.01,30.51,12.269699,-1.6384746579953762,-356.5938919718435,10.00288458395877,0.033166247903554,-0.10515589793286516,-0.4872724377385128
14729187,1969.0,1,183029.0,221642,0.26,-0.64,9.97,-0.03,-0.01,-0.01,30.51,12.309701,-2.13541516604743,27.323248216709054,9.993903141415771,0.033166247903554,-0.13702562208097138,0.030137181096045785
14769871,1965.0,1,183242.0,222281,0.25,-0.62,9.97,-0.03,-0.01,-0.01,30.65,12.350385,-4.1318729532196645,291.15185807790897,9.992387102189346,0.033166247903554,-0.2650621937018401,0.38570208345724866
14808187,1973.0,1,183339.0,222369,0.25,-0.62,9.96,-0.03,-0.01,-0.01,30.65,12.388701,0.7984949445459493,383.3736150843016,9.98240952876609,0.033166247903554,0.051131520242705945,0.509990423689977
14848185,1971.0,1,183297.0,222120,0.25,-0.59,9.97,-0.03,-0.01,-0.0,30.65,12.428699,1.7960405485240063,331.2927933691918,9.990570554277669,0.03162277660168379,0.11510598541270285,0.4398004913025586
14888186,1968.0,1,183177.0,221912,0.26,-0.64,9.96,-0.03,-0.01,-0.0,30.65,12.4687,-4.504819269859619,223.66120573033635,9.983927083067064,0.03162277660168379,-0.2889799384635986,0.29474414214495687
14928185,1967.0,1,183104.0,221823,0.27,-0.62,10.0,-0.03,-0.01,-0.01,30.65,12.508699,-2.8659751704635243,165.5355413428838,10.022838919188516,0.033166247903554,-0.18387780144072152,0.21640750460789163
14968187,1973.0,1,183084.0,222062,0.26,-0.63,9.95,-0.03,-0.01,-0.0,30.65,12.548701,0.6646994339638975,218.8605098461476,9.97331439392141,0.03162277660168379,0.04255096392778713,0.2882741881690578
15008185,1969.0,1,183226.0,222248,0.27,-0.63,9.97,-0.03,-0.01,-0.0,30.65,12.588699,-1.6822820016671602,358.42029806438705,9.993532908836595,0.03162277660168379,-0.10796534481002495,0.4763605465722456
15048217,1968.0,1,183210.0,222517,0.24,-0.6,9.96,-0.03,-0.01,-0.0,30.65,12.628731,-4.1651831709361185,476.423699821883,9.980941839325586,0.03162277660168379,-0.2671984402600006,0.6353951108913611
15088185,1959.0,1,183382.0,222758,0.25,-0.62,9.97,-0.03,-0.01,-0.0,30.65,12.668699,-12.158302825212251,446.23342643159026,9.992387102189346,0.03162277660168379,-0.779812152237578,0.5947073264394591
15128186,1954.0,1,183343.0,221279,0.25,-0.62,10.0,-0.03,-0.01,-0.01,30.65,12.7087,-18.394383803906713,211.85040401094165,10.022320090677606,0.033166247903554,-1.179743687976715,0.2788265865683518
15168185,1962.0,1,182494.0,219313,0.27,-0.62,9.95,-0.03,-0.01,-0.01,30.65,12.748699,-9.024824216246165,-162.16315961959927,9.972953424136703,0.033166247903554,-0.5788563088848356,-0.22523586634008266
15208187,1968.0,1,182103.0,218861,0.27,-0.63,9.95,-0.03,-0.01,-0.0,30.65,12.788701,-4.941952816658579,-525.7567051932075,9.973580099442726,0.03162277660168379,-0.3170141303369382,-0.7152551390757359
15248192,1961.0,1,182116.0,218942,0.26,-0.61,9.98,-0.03,-0.01,-0.0,30.65,12.828706,-9.612560976637546,-740.4653403456781,10.00200479903904,0.03162277660168379,-0.6165489665005293,-1.0046204771801184
15288186,1969.0,1,182109.0,218872,0.24,-0.6,9.95,-0.03,-0.01,-0.01,30.65,12.8687,-4.2173393815766245,-761.3122126611213,9.970962842173266,0.033166247903554,-0.2705433155897239,-1.0327160507544806
15328185,1967.0,1,182120.0,219071,0.27,-0.61,9.98,-0.03,-0.01,-0.0,30.65,12.908699,-3.373787476785823,-643.0068379602742,10.00226974241347,0.03162277660168379,-0.21644475434408603,-0.8732745139687517
15368186,1968.0,1,182289.0,219667,0.26,-0.62,9.95,-0.03,-0.01,-0.01,30.65,12.9487,-4.898947739086999,-477.50785675919457,9.972687701918675,0.033166247903554,-0.31425613428516413,-0.6502296018851111
15408185,1975.0,1,182490.0,220060,0.23,-0.58,9.97,-0.03,-0.01,-0.01,30.65,12.988699,4.7025873999008425,-320.7300528000409,9.989504492215818,0.033166247903554,0.30150827074868414,-0.43893832234394414
15448187,1975.0,1,182597.0,220422,0.27,-0.63,9.97,-0.03,-0.01,-0.0,30.65,13.028701,3.033460561581837,-163.28862590608028,9.993532908836595,0.03162277660168379,0.1944640450445978,-0.22675267041403802
15488185,1971.0,1,182706.0,221013,0.27,-0.63,9.96,-0.03,-0.01,-0.01,30.65,13.068699,0.6609938321566198,40.85688075762755,9.983556480533379,0.033166247903554,0.04231331675375499,0.048376615915247986
15528187,1980.0,1,183018.0,222026,0.24,-0.62,9.97,-0.03,-0.01,-0.01,30.65,13.108701,9.660215396596378,318.0689756399617,9.99214191252306,0.033166247903554,0.6194502258188171,0.4219785975276199
15568186,1968.0,1,183445.0,223242,0.23,-0.62,9.93,-0.03,-0.01,-0.01,30.65,13.1487,-2.2533006027632565,638.4215837613829,9.951994774918242,0.033166247903554,-0.14458583560419433,0.8537215532585232
15608187,1959.0,1,183803.0,223926,0.27,-0.61,9.98,-0.03,-0.01,-0.0,30.65,13.188701,-9.526623372605064,924.7584909550781,10.00226974241347,0.03162277660168379,-0.6110376272353923,1.2396211511160031
15648185,1979.0,1,183846.0,223894,0.28,-0.61,9.95,-0.03,-0.01,-0.01,30.65,13.228699,9.873994628959586,1092.6201806546828,9.972612496231866,0.033166247903554,0.6331602877952816,1.4658503130693907
15688187,1979.0,1,183733.0,223382,0.24,-0.64,9.98,-0.03,-0.01,-0.0,30.65,13.268701,11.782641902744102,1085.821605527857,10.003379428972991,0.03162277660168379,0.7555654069713899,1.4566877938777196
15728185,1969.0,1,183540.0,223027,0.25,-0.64,9.95,-0.03,-0.01,-0.0,30.65,13.308699,2.2341955655757637,890.0696018955915,9.973695403409911,0.03162277660168379,0.14320568608368456,1.192870529726064
15768186,1968.0,1,183520.0,222765,0.26,-0.61,9.97,-0.03,-0.01,-0.0,30.65,13.3487,2.3341504289901414,534.7146189884982,9.992026821421168,0.03162277660168379,0.14961597840773913,0.7139544642265674
15808871,1966.0,1,183056.0,220202,0.24,-0.63,9.94,-0.03,-0.01,-0.0,30.57,13.389385,1.5321099465412589,92.88036021819231,9.962835941638303,0.03162277660168379,0.09817962231059749,0.11848926747573414
15849187,1964.0,1,182265.0,218806,0.27,-0.61,9.92,-0.03,-0.01,-0.0,30.57,13.429701,1.5583396176284698,-330.87512782725236,9.942404135821477,0.03162277660168379,0.09986178017154894,-0.452610958580762
15889185,1967.0,1,182172.0,218916,0.26,-0.59,9.97,-0.03,-0.01,-0.01,30.57,13.469699,3.9681697103183486,-637.4476553524277,9.9908257916951,0.033166247903554,0.2544086908246586,-0.8657823385666716
15929187,1968.0,1,182188.0,218901,0.25,-0.62,9.96,-0.03,-0.01,-0.01,30.57,13.509701,10.324423799997158,-778.0675327535492,9.98240952876609,0.033166247903554,0.6620471529162144,-1.055297391556864
15969185,1968.0,1,182136.0,218865,0.26,-0.63,9.96,-0.03,-0.01,-0.0,30.57,13.549699,6.663194842122761,-772.2233258260841,9.983291040533679,0.03162277660168379,0.42724569270139706,-1.0474210855465491
16009187,1949.0,1,182180.0,219401,0.25,-0.63,9.96,-0.03,-0.01,-0.0,30.57,13.589701,-4.047218465053881,-683.9513819932021,9.983035610474403,0.03162277660168379,-0.25963314305688834,-0.9284559547114791
16049185,1964.0,1,182460.0,219889,0.27,-0.61,9.96,-0.03,-0.01,-0.0,30.57,13.629699,6.224154165098739,-576.9294628804497,9.982314360908497,0.03162277660168379,0.39908919300005313,-0.7842212629551373
16089187,1965.0,1,182541.0,219980,0.26,-0.62,9.97,-0.03,-0.01,-0.0,30.57,13.669701,15.46128129124775,-482.14749946465054,9.992642293207538,0.03162277660168379,0.9914834306630488,-0.6564825026088963
16129185,1959.0,1,182570.0,220218,0.25,-0.6,9.94,-0.03,-0.01,-0.0,30.57,13.709699,6.614758927162802,-396.95383574023003,9.961229843749214,0.03162277660168379,0.4241394068912789,-0.5416660058692012
16169186,1947.0,1,182669.0,220578,0.25,-0.61,9.97,-0.03,-0.01,-0.0,30.57,13.7497,0.692975578368187,-307.1569459170791,9.991771614683755,0.03162277660168379,0.04436436594983024,-0.42064568749241116
16209185,1949.0,1,182915.0,221253,0.26,-0.62,9.96,-0.03,-0.01,-0.01,30.57,13.789699,2.440485506663594,-205.53623256184366,9.982664974845145,0.033166247903554,0.15643544580435836,-0.2836902638897947
16249187,1949.0,1,183151.0,222016,0.27,-0.63,9.95,-0.03,-0.01,-0.01,30.57,13.829701,6.881073527828873,-87.9897943817661,9.973580099442726,0.033166247903554,0.4412186602874454,-0.12527155472707358
16289185,1946.0,1,183343.0,222472,0.24,-0.61,9.95,-0.03,-0.01,-0.0,30.57,13.869699,4.781979964639966,61.107521139258914,9.971569585576786,0.03162277660168379,0.3065998644035558,0.07566864074089037
16329186,1934.0,1,183454.0,222768,0.24,-0.62,9.96,-0.03,-0.01,-0.0,30.57,13.9097,-2.786157133126007,262.77704142211144,9.982164094022899,0.03162277660168379,-0.17875892143240577,0.34746101127389617
16369185,1936.0,1,183669.0,223536,0.23,-0.6,9.93,-0.03,-0.01,-0.0,30.57,13.949699,-0.19655811777255802,505.2968113759576,9.950768814518806,0.03162277660168379,-0.012683093569169863,0.6743077409355013
16409186,1936.0,1,183914.0,224226,0.24,-0.63,9.99,-0.03,-0.01,-0.0,30.57,13.9897,5.029129664927557,708.6585627747434,10.012721907653283,0.03162277660168379,0.3224500368966937,0.9483807511300887
16449185,1925.0,1,184124.0,224877,0.24,-0.61,9.94,-0.03,-0.01,-0.0,30.57,14.029699,-5.908714962790986,744.5050264057729,9.96159123835143,0.03162277660168379,-0.37901439478477755,0.9966914493051917
16489187,1904.875,1,184230.0,224548,0.25,-0.63,9.96,-0.03,-0.01,-0.0,30.57,14.069701,-20.532961384012538,521.282254196772,9.983035610474403,0.03162277660168379,-1.3168946677075881,0.6958515091370384
16529185,1904.875,1,183568.0,221424,0.27,-0.63,9.97,-0.03,-0.01,-0.01,30.57,14.109699,-20.14705818799371,72.83496389393645,9.993532908836595,0.033166247903554,-1.2921459740396042,0.09147385246606028
16569187,1904.875,1,182766.0,220331,0.23,-0.62,9.95,-0.03,-0.01,-0.01,30.57,14.149701,-15.496119757786506,-433.8693940496695,9.971950661731134,0.033166247903554,-0.9938725944321534,-0.5914175354429296
16609185,1904.875,1,182700.0,220500,0.24,-0.63,9.97,-0.03,-0.01,-0.0,30.57,14.189699,-13.945311546753166,-792.6359906495779,9.992767384463626,0.03162277660168379,-0.8944163635726767,-1.074931472606982
16649187,1904.875,1,182788.0,220894,0.25,-0.62,9.97,-0.03,-0.01,-0.0,30.57,14.229701,-10.68217354180805,-882.4045049346877,9.992387102189346,0.03162277660168379,-0.6851452206697739,-1.195913548939369
16689185,1904.875,1,182931.0,221389,0.23,-0.63,9.94,-0.03,-0.01,-0.01,30.57,14.269699,-8.090157523669808,-725.6578772163466,9.962600062232749,0.033166247903554,-0.5189143858977261,-0.9846642859824777
16729187,1904.875,1,183166.0,222441,0.25,-0.62,9.96,-0.03,-0.01,-0.0,30.57,14.309701,-5.763145139371866,-447.1693364118144,9.98240952876609,0.03162277660168379,-0.369678729767568,-0.609342023275745
16769185,1904.875,1,183592.0,223358,0.24,-0.62,9.96,-0.03,-0.01,-0.0,30.57,14.349699,-2.9569879544098674,-180.17881313156542,9.982164094022899,0.03162277660168379,-0.1897146214852193,-0.2495157732285947
16809872,1904.875,1,183664.0,223539,0.25,-0.62,9.97,-0.03,-0.01,-0.0,30.47,14.390386,-0.8755242073863527,5.808338022449083,9.992387102189346,0.03162277660168379,-0.05622645868289371,0.001141285061280158
16848185,1904.875,1,183784.0,223854,0.25,-0.62,10.0,-0.03,-0.01,-0.0,30.47,14.428699,1.5120635589165776,115.25009104846471,10.022320090677606,0.03162277660168379,0.09689400998193283,0.14863721527675822
16888210,1904.875,1,183929.0,224302,0.25,-0.62,9.97,-0.03,-0.01,-0.01,30.47,14.468724,3.5717628361948957,188.88820924791324,9.992387102189346,0.033166247903554,0.2289863766360874,0.24788016819768882
16928186,1904.875,1,184044.0,224705,0.27,-0.63,9.97,-0.03,-0.01,-0.0,30.47,14.5087,5.434277093889384,263.0674852980162,9.993532908836595,0.03162277660168379,0.34843289921343484,0.3478524458815069
16968186,1904.875,1,184192.0,225186,0.26,-0.6,9.93,-0.03,-0.01,-0.01,30.47,14.5487,7.277702629955945,358.6827917985329,9.951507423501225,0.033166247903554,0.4666552263734944,0.476714312446997
17008185,1904.875,1,184372.0,225813,0.27,-0.63,9.95,-0.03,-0.01,-0.01,30.47,14.588699,8.73591747293163,493.39015327332714,9.973580099442726,0.033166247903554,0.5601732713734426,0.6582609985903959
17048187,1904.875,1,184549.0,226293,0.24,-0.62,9.96,-0.03,-0.01,-0.01,30.47,14.628701,10.132508381006215,683.9494838406877,9.982164094022899,0.033166247903554,0.6497392581805151,0.9150800365364556
17088210,1904.875,1,184659.0,226642,0.27,-0.62,9.94,-0.03,-0.01,-0.01,30.47,14.668724,11.217011005568859,918.3954649823611,9.962976462884974,0.033166247903554,0.719290439705625,1.2310456266120413
17128186,1904.875,1,184779.0,227043,0.24,-0.61,9.96,-0.03,-0.01,-0.0,30.47,14.7087,12.079725214626114,1120.1696464460224,9.981547976140776,0.03162277660168379,0.774617915360772,1.502979050242188
17168185,1904.875,1,184932.0,227469,0.24,-0.61,9.98,-0.03,-0.01,-0.0,30.47,14.748699,12.702564299839205,1155.2171043573182,10.001504886765792,0.03162277660168379,0.8145617507148437,1.5502129190663247
17208186,1904.875,1,184959.0,227230,0.27,-0.62,9.96,-0.03,-0.01,-0.0,30.47,14.7887,13.014240292319222,907.8287241342985,9.982930431491548,0.03162277660168379,0.834550115001872,1.2168047064180785
17248185,1904.875,1,184425.0,223840,0.24,-0.62,9.94,-0.03,-0.01,-0.01,30.47,14.828699,13.087038924627027,381.2321809007924,9.96220859046828,0.033166247903554,0.8392188274381022,0.5071043878018564
17288187,1904.875,1,183225.0,221489,0.26,-0.62,9.95,-0.03,-0.01,-0.01,30.47,14.868701,12.805590684623251,-266.58534824710813,9.972687701918675,0.033166247903554,0.8211690254486238,-0.3659668709237659
17328185,1904.875,1,182828.0,221047,0.25,-0.62,9.95,-0.03,-0.01,-0.01,30.47,14.908699,12.283389446239559,-800.2128881891265,9.972432000269542,0.033166247903554,0.7876792834223117,-1.0851429460149182
17368187,1904.875,1,182791.0,221017,0.26,-0.63,9.97,-0.03,-0.01,-0.0,30.47,14.948701,11.365690963403557,-1045.8255392922135,9.993267733829612,0.03162277660168379,0.7288255634594075,-1.4161579877652812
17408185,1904.875,1,182816.0,221298,0.23,-0.59,9.97,-0.03,-0.01,-0.0,30.47,14.988699,10.187192707218058,-983.9441057074583,9.990090089683877,0.03162277660168379,0.6532462662898519,-1.332759656166178
17448186,1904.875,1,182980.0,222014,0.24,-0.63,10.0,-0.03,-0.01,-0.01,30.47,15.0287,8.657380656740672,-732.7378613160422,10.022699237231455,0.033166247903554,0.5551365584733662,-0.9942060633372972
17488185,1904.875,1,183230.0,222775,0.25,-0.61,9.97,-0.03,-0.01,-0.01,30.47,15.068699,6.723710702571258,-451.91702456064377,9.991771614683755,0.033166247903554,0.4311266880073319,-0.6157405381069002
17528187,1904.875,1,183409.0,222854,0.26,-0.64,9.96,-0.03,-0.01,-0.0,30.47,15.108701,4.629086351744541,-248.43641123098595,9.983927083067064,0.03162277660168379,0.2967945110704479,-0.34150733629826757
17568185,1904.875,1,183392.0,222830,0.23,-0.62,9.98,-0.03,-0.01,-0.0,30.47,15.148699,1.9302384932727954,-143.34181369427685,10.001884822372231,0.03162277660168379,0.12371235058335767,-0.1998701183654242
17608186,1904.875,1,183353.0,223015,0.27,-0.62,9.98,-0.03,-0.01,-0.01,30.47,15.1887,-0.8212960416131331,-100.17740949700868,10.00288458395877,0.033166247903554,-0.05274870499558662,-0.1416969461232038
17648185,1904.875,1,183479.0,223338,0.24,-0.61,9.99,-0.03,-0.01,-0.0,30.47,15.228699,-4.06434838775637,-71.918687888889,10.01148340656868,0.03162277660168379,-0.2607317170357871,-0.10361233659306361
17688186,1904.875,1,183539.0,223363,0.26,-0.64,9.96,-0.03,-0.01,-0.0,30.47,15.2687,-7.7248162531853195,-25.08489491163012,9.983927083067064,0.03162277660168379,-0.4954843669687003,-0.040493886187231265
17728185,1904.875,1,183512.0,223473,0.25,-0.62,9.94,-0.03,-0.01,-0.0,30.47,15.308699,-11.226657034519354,63.007657302074215,9.962454516834693,0.03162277660168379,-0.7200639653378761,0.07822947646511245
17768186,1904.875,1,183571.0,223772,0.26,-0.62,9.96,-0.03,-0.01,-0.01,30.47,15.3487,-15.823758605940593,205.98992164800526,9.982664974845145,0.033166247903554,-1.0148846865069259,0.2709283459633496
17808185,1904.875,1,183662.0,224102,0.27,-0.62,9.96,-0.03,-0.01,-0.0,30.47,15.388699,-19.75595682829954,388.9249228981353,9.982930431491548,0.03162277660168379,-1.267063912413634,0.5174719861400889
17848872,1904.875,1,183718.0,224137,0.27,-0.62,9.98,-0.03,-0.01,-0.0,30.45,15.429386,-24.609565446243444,544.5944881281081,10.00288458395877,0.03162277660168379,-1.5783349101897712,0.7272696793877094
17889185,1904.875,1,183724.0,224376,0.25,-0.6,9.95,-0.03,-0.01,-0.0,30.45,15.469699,-29.78563383509669,565.3332147880893,9.97120855262791,0.03162277660168379,-1.9102858561311842,0.755219503797698
17929186,1904.875,1,183759.0,224237,0.27,-0.63,9.99,-0.03,-0.01,-0.01,30.45,15.5097,-33.87044871695496,366.1407640080516,10.013485906516273,0.033166247903554,-2.1722526738317565,0.4867655087971017
17969185,1904.875,1,183205.0,221295,0.27,-0.64,9.95,-0.03,-0.01,-0.0,30.45,15.549699,-40.72490764309157,-39.71120115565328,9.974216761229926,0.03162277660168379,-2.611841943816597,-0.06020593013234086
18009187,1904.875,1,182280.0,219810,0.23,-0.63,9.97,-0.03,-0.01,-0.01,30.45,15.589701,-44.20567742089845,-520.4232195384643,9.992532211606825,0.033166247903554,-2.83507021932307,-0.708067138096345
18049185,1904.875,1,182040.0,219466,0.26,-0.61,9.94,-0.03,-0.01,-0.0,30.45,15.629699,-51.22967428789007,-891.3049887873062,9.962093153549608,0.03162277660168379,-3.285532274520906,-1.2079088350976397
18089187,1904.875,1,182007.0,219439,0.26,-0.62,9.98,-0.03,-0.01,-0.01,30.45,15.669701,-56.34860764601821,-1021.8685752896134,10.002619656869895,0.033166247903554,-3.613819044089295,-1.3838709072589754
18129185,1931.0,1,182010.0,219709,0.26,-0.62,9.95,-0.03,-0.01,-0.0,30.45,15.709699,-34.46711721649795,-903.6492536726032,9.972687701918675,0.03162277660168379,-2.210518140583176,-1.2245453452205204
18169186,1967.0,1,182184.0,220469,0.25,-0.62,9.96,-0.03,-0.01,-0.01,30.45,15.7497,-7.394878380704191,-635.4226274078779,9.98240952876609,0.033166247903554,-0.47432483416425203,-0.8630531847278922
18209185,1991.0,1,182465.0,220936,0.26,-0.62,9.93,-0.03,-0.01,-0.01,30.45,15.789699,16.185591362040682,-349.45981307794307,9.95273329292009,0.033166247903554,1.0379347900910632,-0.47765775619703277
18249187,2029.0,1,182578.0,221115,0.24,-0.59,9.96,-0.03,-0.01,-0.0,30.45,15.829701,42.65766618796273,-136.8113241747377,9.980345685395873,0.03162277660168379,2.7356384561439637,-0.19106890128132023
18289185,2032.0,1,182571.0,221231,0.26,-0.63,9.96,-0.03,-0.01,-0.01,30.45,15.869699,46.382431754290685,-14.850815925073148,9.983291040533679,0.033166247903554,2.9745146378836136,-0.026701298273712787
18329187,2035.875,1,182638.0,221329,0.26,-0.62,9.96,-0.03,-0.01,-0.0,30.45,15.909701,40.035192680932425,58.16044627348331,9.982664974845145,0.03162277660168379,2.567454325648371,0.07169683348521805
18369185,2035.875,1,182716.0,221621,0.25,-0.64,9.96,-0.03,-0.01,-0.0,30.45,15.949699,38.53365648302829,145.6587371115025,9.983671669280797,0.03162277660168379,2.471158001138258,0.18961930313307038
18409186,2035.875,1,182872.0,222195,0.26,-0.62,9.95,-0.03,-0.01,-0.01,30.45,15.9897,32.0283459890415,298.21587704778705,9.972687701918675,0.033166247903554,2.0539602730765667,0.39522234441993875
18449185,2035.875,1,183017.0,222557,0.23,-0.62,9.95,-0.03,-0.01,-0.01,30.45,16.029699,27.859041472109205,529.9060926844145,9.971950661731134,0.033166247903554,1.7865749770681216,0.7074739571022177
18489186,2035.875,1,183116.0,222814,0.26,-0.62,9.97,-0.03,-0.01,-0.0,30.45,16.0697,24.228099329547064,802.6834082893957,9.992642293207538,0.03162277660168379,1.5537158669609858,1.075099134828252
18529222,2035.875,1,183232.0,223238,0.22,-0.63,9.95,-0.03,-0.01,-0.0,30.45,16.109736,19.384577970627493,1025.2680355237383,9.972351778793204,0.03162277660168379,1.2430917839710394,1.3750790395524628
18569187,2035.875,1,183372.0,223579,0.27,-0.62,9.94,-0.03,-0.01,-0.0,30.45,16.149701,16.658973929735964,1084.6461234017095,9.962976462884974,0.03162277660168379,1.0682936994665704,1.455103582871829
18609185,2035.875,1,183377.0,223184,0.27,-0.62,9.98,-0.03,-0.01,-0.0,30.45,16.189699,12.882009495476371,912.143767720391,10.00288458395877,0.03162277660168379,0.8260699067053399,1.2226201411132789
18649187,2035.875,1,182843.0,220578,0.26,-0.64,9.94,-0.03,-0.01,-0.01,30.45,16.229701,10.166832180306278,545.0786786070005,9.963975110366343,0.033166247903554,0.6519405076212096,0.7279222285575745
18689185,2035.875,1,182056.0,219226,0.25,-0.62,9.98,-0.03,-0.01,-0.01,30.45,16.269699,7.786910117137849,126.28959332416876,10.00236472040487,0.033166247903554,0.49931165483462064,0.1635152815745796
18729237,2035.875,1,181883.0,219224,0.24,-0.63,9.96,-0.03,-0.01,-0.0,30.45,16.309751,5.32629106151932,-174.8931123740455,9.982790191123923,0.03162277660168379,0.34150755300454433,-0.24239217251392292
18769185,2035.875,1,181886.0,219223,0.26,-0.62,9.96,-0.03,-0.01,-0.0,30.45,16.349699,3.930318294747422,-266.3926465474512,9.982664974845145,0.03162277660168379,0.25198120875524677,-0.36570716458994784
18809186,2035.875,1,181916.0,219151,0.28,-0.62,9.98,-0.03,-0.01,-0.01,30.45,16.3897,2.190786580490282,-182.63104529576157,10.003159500877711,0.033166247903554,0.14042178668766545,-0.252820675189334
18849871,2035.875,1,181967.0,219476,0.27,-0.62,9.93,-0.03,-0.01,-0.0,30.59,16.430385,1.383491192185011,-46.93964755481344,9.952999547875002,0.03162277660168379,0.08864842365034932,-0.06994779186406412
18888187,2035.875,1,182071.0,219477,0.25,-0.61,9.98,-0.03,-0.01,-0.0,30.59,16.468701,0.6397463361240279,16.099639928629404,10.001749846901792,0.03162277660168379,0.04095067509660565,0.015010992972661655
18928185,2035.875,1,181858.0,218850,0.27,-0.6,9.95,-0.03,-0.01,-0.0,30.59,16.508699,0.14986782304842253,-46.81745747292574,9.971730040469406,0.03162277660168379,0.009533849893519927,-0.06978311486198022
18969186,2035.875,1,181701.0,218380,0.27,-0.6,9.97,-0.03,-0.01,-0.0,30.59,16.5497,0.5108905386906601,-200.72993710358776,9.991686544322736,0.03162277660168379,0.03268691182405005,-0.27721276330245154
19009185,2035.875,1,181567.0,218098,0.27,-0.62,9.95,-0.03,-0.01,-0.0,30.59,16.589699,0.2555930135131732,-356.11874305330394,9.972953424136703,0.03162277660168379,0.016314204082848057,-0.4866320739852549
19049187,2035.875,1,181550.0,218135,0.27,-0.61,9.97,-0.03,-0.01,-0.0,30.59,16.629701,1.4039738755947333,-420.93304760704376,9.99229202935943,0.03162277660168379,0.08996201644365902,-0.573983070082244
19089185,2035.875,1,181611.0,218380,0.25,-0.62,9.95,-0.03,-0.01,-0.01,30.59,16.669699,1.9158113080038734,-342.5645574662668,9.972432000269542,0.033166247903554,0.12278710821067108,-0.4683649395854793
19129186,2035.875,1,181788.0,218874,0.26,-0.62,9.97,-0.03,-0.01,-0.01,30.59,16.7097,2.7485136838965896,-130.7812883185595,9.992642293207538,0.033166247903554,0.17618986887753485,-0.18294215145094908
19169185,2035.875,1,181974.0,219488,0.25,-0.61,9.97,-0.03,-0.01,-0.01,30.59,16.749699,5.185438641187114,137.97550035665404,9.991771614683755,0.033166247903554,0.3324744238696775,0.17926451512128902
19209186,2035.875,1,182143.0,219974,0.26,-0.61,9.96,-0.03,-0.01,-0.01,30.59,16.7897,4.420622958923136,340.52242904773743,9.982048887878681,0.033166247903554,0.28342536382536043,0.45223937922528257
19249185,2032.0,1,182320.0,220287,0.25,-0.6,9.94,-0.03,-0.01,-0.01,30.59,16.829699,5.461906737062714,358.12339968043494,9.961229843749214,0.033166247903554,0.35020483990246476,0.4759604131486693
19289187,2032.0,1,182316.0,219314,0.26,-0.61,9.97,-0.03,-0.01,-0.01,30.59,16.869701,3.232500065817682,144.7137276745953,9.992026821421168,0.033166247903554,0.20722882069035325,0.1883457028653015
19329185,2015.0,1,181629.0,217433,0.25,-0.62,9.93,-0.03,-0.01,-0.01,30.59,16.909699,-7.8029160766290815,-231.3469670543825,9.952477078597067,0.033166247903554,-0.5004930547066453,-0.31847569256085023
19369187,2009.0,1,181195.0,216790,0.25,-0.63,9.96,-0.03,-0.01,-0.0,30.59,16.949701,-15.37062822543479,-612.8157491349315,9.983035610474403,0.03162277660168379,-0.9858245877710554,-0.8325856305454982
19409185,2001.0,1,181148.0,216903,0.26,-0.62,9.96,-0.03,-0.01,-0.01,30.59,16.989699,-19.13997530807627,-838.704104068911,9.982664974845145,0.033166247903554,-1.2275598655272202,-1.1370180077197871
19449186,2000.0,1,181282.0,217212,0.27,-0.61,9.96,-0.03,-0.01,-0.0,30.59,17.0297,-18.670135446869633,-830.4342277190465,9.982314360908497,0.03162277660168379,-1.1974281565443181,-1.1258725986664408
19489185,2004.0,1,181446.0,217759,0.27,-0.62,9.92,-0.03,-0.01,-0.01,30.59,17.069699,-13.992295558130845,-621.1693916441117,9.943022679245985,0.033166247903554,-0.8974295360907466,-0.8438439322312012
19529187,1999.0,1,181745.0,218761,0.25,-0.61,9.96,-0.03,-0.01,-0.01,30.59,17.109701,-13.911888626181996,-319.15207591897905,9.98179342603322,0.033166247903554,-0.8922728891696691,-0.43681166445063163
19569185,2000.0,1,182053.0,219443,0.23,-0.62,9.96,-0.03,-0.01,-0.01,30.59,17.149699,-15.527177489441153,-40.399504287110695,9.98192867135405,0.033166247903554,-0.9958643848466224,-0.06113356431068233
19609187,1991.0,1,182288.0,219843,0.26,-0.62,9.97,-0.03,-0.01,-0.0,30.59,17.189701,-16.947483245663197,147.24272085316662,9.992642293207538,0.03162277660168379,-1.086951249216356,0.19175405654265262
19649185,1997.0,1,182423.0,220319,0.24,-0.62,9.96,-0.03,-0.01,-0.01,30.59,17.229699,-15.637176601937966,246.1702639709995,9.982164094022899,0.033166247903554,-1.0029188336488577,0.3250798631260689
19689187,1995.0,1,182625.0,220809,0.26,-0.62,9.94,-0.03,-0.01,-0.01,30.59,17.269701,-8.77612777648322,314.4804335782921,9.96271047456464,0.033166247903554,-0.5629069410964666,0.4171422774316003
19729185,2000.0,1,182721.0,220996,0.25,-0.61,9.97,-0.03,-0.01,-0.0,30.59,17.309699,-9.7843832398959,423.23448506289077,9.991771614683755,0.03162277660168379,-0.627568249581339,0.5637113842386686
19769186,1983.0,1,182832.0,221574,0.29,-0.6,9.97,-0.03,-0.01,-0.01,30.59,17.3497,-17.086836756786855,603.0031635152882,9.992246994545322,0.033166247903554,-1.0958882505004532,0.8059877341582514
19809185,1998.0,1,183171.0,222489,0.26,-0.62,9.97,-0.03,-0.01,-0.01,30.59,17.389699,-9.357766668555346,807.5511954065834,9.992642293207538,0.033166247903554,-0.6002085310127531,1.081659508443337
19849187,1993.0,1,183314.0,222494,0.24,-0.64,9.96,-0.03,-0.01,-0.0,30.59,17.429701,-3.80553412043855,923.2942023084697,9.983426265566347,0.03162277660168379,-0.24413347404419514,1.2376477121855785
19889871,1984.0,1,183244.0,222288,0.28,-0.62,9.96,-0.03,-0.01,-0.0,30.73,17.470385,-21.235652057025828,830.8331695936814,9.983205897906744,0.03162277660168379,-1.3619595347238929,1.1130368972828821
19928186,1973.0,1,183143.0,221767,0.25,-0.62,9.97,-0.03,-0.01,-0.01,30.73,17.5087,-21.456395732970964,486.2461813468261,9.992387102189346,0.033166247903554,-1.3761162394920088,0.6486329840932044
19967185,2007.0,1,182533.0,219070,0.25,-0.61,9.96,-0.03,-0.01,-0.01,30.73,17.547699,4.362518493551441,-34.80429222359254,9.98179342603322,0.033166247903554,0.27969901579543666,-0.05359283158991444
20007187,2007.0,1,181746.0,217842,0.25,-0.62,9.97,-0.03,-0.01,-0.0,30.73,17.587701,13.168248624220707,-569.0069558463105,9.992387102189346,0.03162277660168379,0.8444269573495604,-0.773544007590256
20047185,2005.0,1,181612.0,217874,0.27,-0.61,9.97,-0.03,-0.01,-0.01,30.73,17.627699,5.8976032519336865,-956.1247925112489,9.99229202935943,0.033166247903554,0.3781468722307584,-1.2952672424906109
20087187,1998.0,1,181639.0,217869,0.26,-0.61,9.98,-0.03,-0.01,-0.01,30.73,17.667701,3.334670241404911,-1123.1234891463484,10.00200479903904,0.033166247903554,0.21378118512707875,-1.520333338600303
20127185,2002.0,1,181558.0,217889,0.27,-0.6,9.98,-0.03,-0.01,-0.0,30.73,17.707699,6.463264584179674,-1103.75314714071,10.001664861411825,0.03162277660168379,0.4144237913545291,-1.494227702188993
20167219,2001.0,1,181620.0,218373,0.27,-0.61,9.97,-0.03,-0.01,-0.0,30.73,17.747733,5.485703670670346,-991.1893012164525,9.99229202935943,0.03162277660168379,0.35173098175920103,-1.3425240908690659
20207185,2000.0,1,181836.0,219053,0.23,-0.62,10.000000000000004,-0.03,-0.01,-0.0,30.73,17.787699,6.748707488763798,-868.66199302114,10.021841148212241,0.03162277660168379,0.4327297786542751,-1.1773926049473247
20247186,2015.0,1,181948.0,219254,0.28,-0.6,9.95,-0.03,-0.01,-0.0,30.73,17.8277,19.5076548317341,-764.8065409334359,9.972005816283902,0.03162277660168379,1.250984933249326,-1.037425397824979
20287185,2009.0,1,182009.0,219668,0.26,-0.62,9.96,-0.03,-0.01,-0.01,30.73,17.867699,16.83399031752018,-651.1651950343378,9.982664974845145,0.033166247903554,1.079517827726802,-0.884269627190147
20327187,2005.0,1,182225.0,220309,0.26,-0.61,9.98,-0.03,-0.01,-0.01,30.73,17.907701,9.598843373394105,-470.7370349123991,10.00200479903904,0.033166247903554,0.6155143231943068,-0.641104486113446
20367227,2010.0,1,182531.0,221453,0.27,-0.62,9.97,-0.03,-0.01,-0.0,30.73,17.947741,19.030828925644872,-174.82447135781624,9.992907484811415,0.03162277660168379,1.2204051961429623,-0.2422996642137565
20407186,2018.0,1,183030.0,223170,0.28,-0.6,9.96,-0.03,-0.01,-0.0,30.73,17.9877,21.839553682090372,248.699491850721,9.981983770774224,0.03162277660168379,1.4005339675863613,0.3284885331129044
20447185,2015.0,1,183607.0,224305,0.23,-0.6,9.96,-0.03,-0.01,-0.0,30.73,18.027699,25.409427346073457,758.7233627526374,9.980706387826466,0.03162277660168379,1.6294766419533557,1.015853667449658
20487186,2021.0,1,183753.0,224767,0.24,-0.62,10.0,-0.03,-0.01,-0.0,30.73,18.0677,24.411153254497222,1254.317973645652,10.022075633320675,0.03162277660168379,1.565455457511287,1.6837723193563645
20527186,2000.0,1,184014.0,225681,0.26,-0.63,9.97,-0.03,-0.01,-0.0,30.73,18.1077,10.031530795896527,1589.422082247001,9.993267733829612,0.03162277660168379,0.6432633768014698,2.1353960447679565
20567186,2000.0,1,184392.0,226584,0.29,-0.63,9.98,-0.03,-0.01,-0.0,30.73,18.1477,5.2954028194039395,1627.906799348875,10.004069172091924,0.03162277660168379,0.3395266322712038,2.1872623479938476
20607185,1994.0,1,184517.0,224897,0.29,-0.61,9.97,-0.03,-0.01,-0.01,30.73,18.187699,0.8808118307667389,1328.583876023607,9.992852445623322,0.033166247903554,0.05641065610319573,1.7838613443551186
20647187,1987.0,1,183066.0,221059,0.27,-0.62,9.95,-0.03,-0.01,-0.0,30.73,18.227701,-4.0127166347031595,798.1803786990847,9.972953424136703,0.03162277660168379,-0.25742047615196567,1.0690303491971147
20687185,1996.0,1,182606.0,220541,0.28,-0.6,9.94,-0.03,-0.01,-0.0,30.73,18.267699,-0.9784841280828386,248.4838250116127,9.962027906003877,0.03162277660168379,-0.06282947095043899,0.32819787639212483
20727186,1995.0,1,182499.0,220251,0.26,-0.62,9.97,-0.03,-0.01,-0.0,30.73,18.3077,6.435977500532953,-127.2534965877099,9.992642293207538,0.03162277660168379,0.41267381964858757,-0.17818770528610706
20767185,2006.0,1,182395.0,219932,0.24,-0.59,9.97,-0.03,-0.01,-0.0,30.73,18.347699,7.501262781511112,-262.8636639680991,9.990325320028372,0.03162277660168379,0.4809925569897896,-0.3609511135046548
20807186,1985.0,1,182254.0,219833,0.31,-0.62,9.96,-0.03,-0.01,-0.0,30.73,18.3877,-4.473551492119349,-229.23795304551248,9.984092347329327,0.03162277660168379,-0.2869746774008351,-0.3156333497211681
20847185,2000.0,1,182292.0,220402,0.29,-0.57,9.95,-0.03,-0.01,-0.0,30.73,18.427699,2.762145585118241,-150.78336384597645,9.97053158061294,0.03162277660168379,0.177064108196948,-0.20989918251618897
20887186,1998.0,1,182438.0,220520,0.26,-0.58,9.97,-0.03,-0.01,-0.0,30.73,18.4677,5.485734315209814,-103.51330081568962,9.990240237351653,0.03162277660168379,0.3517329470508278,-0.14619276585874497
20927871,1975.0,1,182375.0,220207,0.27,-0.61,9.97,-0.03,-0.01,-0.01,31.090000000000003,18.508385,-20.63707344047423,-69.17974471602942,9.99229202935943,0.033166247903554,-1.323571568596454,-0.09992103085354184
20968186,1980.0,1,182313.0,220511,0.3,-0.59,9.95,-0.03,-0.01,-0.0,31.090000000000003,18.5487,-15.098390710127838,31.17824890046113,9.971990774163402,0.03162277660168379,-0.9683654867820702,0.03533261059264892
21007185,2003.0,1,182668.0,221398,0.29,-0.6,9.95,-0.03,-0.01,-0.01,31.090000000000003,18.587699,7.401840918075388,258.1814222945099,9.972291612262449,0.033166247903554,0.47461644695117045,0.341267441640737
21047170,2000.0,1,183039.0,222351,0.28,-0.6,9.97,-0.03,-0.01,-0.0,31.090000000000003,18.627684,3.449050910711516,591.1745620591792,9.991961769342396,0.03162277660168379,0.22111663136181278,0.7900461896683506
21087185,1998.0,1,183356.0,223209,0.29,-0.63,9.97,-0.03,-0.01,-0.0,31.090000000000003,18.667699,1.1835380952211516,924.5868939177858,9.994093255518482,0.03162277660168379,0.07582505759436615,1.2393898877824232
21127187,1997.0,1,183570.0,222932,0.25,-0.61,9.96,-0.03,-0.01,-0.0,31.090000000000003,18.707701,-0.6467105682581952,1119.4239555659785,9.98179342603322,0.03162277660168379,-0.04155221208359081,1.5019740739240626
21167185,1985.0,1,183355.0,222234,0.28,-0.59,9.98,-0.03,-0.01,-0.01,31.090000000000003,18.747699,-13.621096667581183,1070.649629768527,10.001344909560915,0.033166247903554,-0.8736238570321547,1.4362403447465173
21207187,1983.0,1,183126.0,221601,0.28,-0.6,9.94,-0.03,-0.01,-0.0,31.090000000000003,18.787701,-15.706970812427105,752.4967668536417,9.962027906003877,0.03162277660168379,-1.007394866895056,1.007462011351277
21247185,1988.0,1,182874.0,220385,0.27,-0.61,9.97,-0.03,-0.01,-0.0,31.090000000000003,18.827699,-12.952609488972564,226.56597817793838,9.99229202935943,0.03162277660168379,-0.8307525240786116,0.29865893793703
21287186,1974.0,1,182124.0,217701,0.28,-0.6,9.97,-0.03,-0.01,-0.0,31.090000000000003,18.8677,-25.648107579880534,-385.3752630200063,9.991961769342396,0.03162277660168379,-1.6449385594775705,-0.5260614280301474
21327185,1973.0,1,181452.0,216369,0.29,-0.59,9.97,-0.03,-0.01,-0.0,31.090000000000003,18.907699,-30.75632293765288,-953.8660706750876,9.991651515140028,0.03162277660168379,-1.9725379636385842,-1.2922231366616095
21367186,1984.0,1,181118.0,215740,0.27,-0.6,9.95,-0.03,-0.01,-0.0,31.090000000000003,18.9477,-16.6416178975938,-1396.2341123443673,9.971730040469406,0.03162277660168379,-1.0673355324223146,-1.8884077188667179
21407185,1986.0,1,180990.0,215249,0.3,-0.61,9.96,-0.03,-0.01,-0.0,31.090000000000003,18.987699,-20.489769773811346,-1698.3440188874629,9.983170838966947,0.03162277660168379,-1.3141247089694281,-2.2955647723752866
21447186,1969.0,1,180966.0,214991,0.29,-0.57,9.97,-0.03,-0.01,-0.0,31.090000000000003,19.0277,-33.346410964274426,-1886.1888600565374,9.990490478449995,0.03162277660168379,-2.138645152708981,-2.5487254612197465
21487185,1984.0,1,180975.0,214270,0.27,-0.59,10.000000000000004,-0.03,-0.01,0.0,31.090000000000003,19.067699,-24.31894594201253,-1974.1299177736873,10.02102789138919,0.03162277660168379,-1.5596969378735188,-2.6672446529677143
21527170,1988.0,1,180766.0,212725,0.24,-0.6,10.000000000000004,-0.03,-0.01,0.015,31.090000000000003,19.107684,-17.160475518372404,-1941.150550614078,10.02085824667728,0.034999999999999996,-1.1006108419984555,-2.6227979742310525
21567170,1999.0,1,181069.0,212261,0.34,-0.62,9.93,-0.03,-0.01,0.0,31.090000000000003,19.147684,-10.228495884137393,-1755.9634437651619,9.955144398751834,0.03162277660168379,-0.6560500240258161,-2.373219145005784
21607170,2019.0,1,181735.0,212669,0.31,-0.58,9.96,-0.03,-0.01,-0.0,31.090000000000003,19.187684,10.627797785248857,-1416.1925047586049,9.981688233961227,0.03162277660168379,0.6815030939534674,-1.915305877689555
21647185,2031.0,1,182459.0,213625,0.31,-0.59,9.95,-0.03,-0.01,-0.01,31.090000000000003,19.227699,20.990939816887707,-953.3797710434435,9.972296626153875,0.033166247903554,1.3461107733527484,-1.2915677449619194
21687186,2032.0,1,183013.0,214446,0.3,-0.59,9.99,-0.03,-0.01,-0.01,31.090000000000003,19.2677,20.842078350856397,-403.4589992934659,10.0119029160295,0.033166247903554,1.3365640091388646,-0.5504330908523911
21727185,2032.0,1,183628.0,215535,0.33,-0.58,9.94,-0.03,-0.01,-0.0,31.090000000000003,19.307699,21.12645361910727,208.81132679175457,9.962374215015213,0.03162277660168379,1.3548015269238904,0.27473078666523704
21767187,2035.875,1,184266.0,216919,0.32,-0.6,9.93,-0.03,-0.01,-0.01,31.090000000000003,19.347701,22.345522060144944,839.2704975789438,9.953255748748749,0.033166247903554,1.432982665921444,1.1244079828632048
21807204,2035.875,1,185012.0,218791,0.31,-0.59,9.96,-0.03,-0.01,-0.01,31.090000000000003,19.387718,24.373071587153618,1381.5458923834192,9.982274289960179,0.033166247903554,1.5630132089650817,1.8552388730686886
21847186,2035.875,1,185685.0,220264,0.32,-0.61,9.96,-0.03,-0.01,-0.01,31.090000000000003,19.4277,20.43131390460264,1679.791797643785,9.983791864817697,0.033166247903554,1.3102209169983754,2.2571883668681716
21887185,2035.875,1,185932.0,220293,0.3,-0.61,9.96,-0.03,-0.01,-0.01,31.090000000000003,19.467699,23.708286088873262,1616.4175668930595,9.983170838966947,0.033166247903554,1.5203792716937874,2.1717781750737597
21927186,2035.875,1,185357.0,217967,0.28,-0.61,9.99,-0.03,-0.01,-0.01,31.090000000000003,19.5077,19.647888082360154,1209.4579125388727,10.012522159775727,0.033166247903554,1.25997835387298,1.6233138904705011
21967871,2005.0,1,184694.0,217273,0.3,-0.6,9.97,-0.03,-0.01,-0.01,31.090000000000003,19.548385,-8.329337265703634,628.2888611797015,9.992542219075185,0.033166247903554,-0.5342534300628171,0.8400655645569789
22009186,2011.0,1,184590.0,217360,0.31,-0.61,9.93,-0.03,-0.01,-0.01,31.090000000000003,19.5897,-4.841589924737092,104.5394834783854,9.953547106433968,0.033166247903554,-0.3105776703816372,0.13420240421935256
22047185,2035.875,1,184567.0,217540,0.28,-0.61,9.98,-0.03,-0.01,-0.01,31.090000000000003,19.627699,21.593285337059548,-193.25974225162705,10.002544676231144,0.033166247903554,1.38474031805413,-0.2671450943542129
22087170,2035.875,1,184623.0,217945,0.3,-0.59,9.96,-0.03,-0.01,-0.0,31.090000000000003,19.667684,20.515779199251842,-231.24718877625818,9.981968743689794,0.03162277660168379,1.3156378343092834,-0.3183412202087512
22127185,2035.875,1,184789.0,218953,0.29,-0.62,9.95,-0.03,-0.01,-0.01,31.090000000000003,19.707699,21.757087366913193,-94.70164208256439,9.97351492704553,0.033166247903554,1.3952452485674396,-0.13431719035261527
22167187,2033.0,1,185141.0,219947,0.28,-0.62,9.96,-0.03,-0.01,-0.01,31.090000000000003,19.747701,18.020639434414715,83.54442603860937,9.983205897906744,0.033166247903554,1.1556198548371805,0.10590711982025271
22207200,2014.0,1,185395.0,220774,0.26,-0.61,9.98,-0.03,-0.01,-0.01,31.090000000000003,19.787714,0.5447384941345494,200.4104413017445,10.00200479903904,0.033166247903554,0.03485764450833577,0.26340881506187463
22247186,2022.0,1,185623.0,221508,0.29,-0.6,9.94,-0.03,-0.01,-0.01,31.090000000000003,19.8277,8.185465286053779,230.5498722313887,9.962313988225828,0.033166247903554,0.524871743185925,0.3040280785350784
22287186,2021.0,1,185761.0,222177,0.29,-0.62,9.96,-0.03,-0.01,-0.01,31.090000000000003,19.8677,8.101248822210968,228.51620647154073,9.983491373262163,0.033166247903554,0.5194707838599885,0.30128728341162275
22327187,2003.0,1,185942.0,223109,0.29,-0.6,9.98,-0.03,-0.01,-0.01,31.090000000000003,19.907701,-9.130718577480476,282.8412192647448,10.00222475252381,0.033166247903554,-0.585647512311995,0.3745017383554928
22367185,2003.0,1,186173.0,224052,0.26,-0.59,9.96,-0.03,-0.01,-0.01,31.090000000000003,19.947699,-8.657562902961242,440.0164887680216,9.980846657473505,0.033166247903554,-0.555303154020198,0.5863286868578935
22407187,1997.0,1,186324.0,224799,0.31,-0.62,9.98,-0.03,-0.01,-0.0,31.090000000000003,19.987701,-13.902595620889613,642.536077264963,10.004044182229505,0.03162277660168379,-0.8916769113607034,0.859266704262563
22447185,1988.0,1,186554.0,225794,0.27,-0.61,9.98,-0.03,-0.01,-0.01,31.090000000000003,20.027699,-21.45134438151876,735.0545864760438,10.00226974241347,0.033166247903554,-1.3757922868764574,0.9839549809113645
22487187,1994.0,1,186763.0,226445,0.27,-0.63,9.98,-0.03,-0.01,-0.01,31.090000000000003,20.067701,-15.770335395007361,559.1648127263763,10.003509384211124,0.033166247903554,-1.0114585560789153,0.7469062762142622
22527185,1992.0,1,186667.0,224325,0.26,-0.63,9.98,-0.03,-0.01,-0.01,31.090000000000003,20.107699,-15.326996452003971,84.7076465718838,10.00324447366953,0.033166247903554,-0.9830264005417961,0.10747480573405813
22567187,1998.0,1,185351.0,221331,0.26,-0.63,9.96,-0.03,-0.01,-0.01,31.090000000000003,20.147701,-9.84806594030633,-527.6708851815291,9.983291040533679,0.033166247903554,-0.6316523402565841,-0.7178349018278022
22607185,2000.0,1,185023.0,221820,0.29,-0.6,9.94,-0.03,-0.01,-0.01,31.090000000000003,20.187699,-5.872121975558396,-1001.7916607607523,9.962313988225828,0.033166247903554,-0.376667618078187,-1.356813014796424
22647187,1987.0,1,185324.0,223305,0.28,-0.59,9.96,-0.03,-0.01,-0.01,31.090000000000003,20.227701,-18.29639802936178,-1113.769678851641,9.98138767907549,0.033166247903554,-1.1734596770044026,-1.5077270990954494
22687165,1989.0,1,185761.0,224854,0.25,-0.61,9.97,-0.03,-0.01,-0.01,31.090000000000003,20.267679,-15.654669814079172,-824.619805950171,9.991771614683755,0.033166247903554,-1.004040706058877,-1.1180364344626241
22727186,2000.0,1,186135.0,227015,0.28,-0.61,9.93,-0.03,-0.01,-0.01,31.090000000000003,20.3077,-2.8521401972342555,-285.2921918517163,9.952657936450946,0.033166247903554,-0.18299053873367924,-0.3911783027819641
22767185,1994.0,1,186771.0,229070,0.27,-0.62,9.95,-0.03,-0.01,-0.01,31.090000000000003,20.347699,-9.06198091434547,269.538554472501,9.972953424136703,0.033166247903554,-0.5812392374235478,0.3565735814718008
22807187,1991.0,1,187187.0,229938,0.24,-0.6,9.94,-0.03,-0.01,-0.01,31.090000000000003,20.387701,-10.258353377780006,651.1234335936259,9.960983887146892,0.033166247903554,-0.6579648409319159,0.8708399847955131
22847185,1998.0,1,187301.0,230292,0.25,-0.62,9.96,-0.03,-0.01,-0.01,31.090000000000003,20.427699,-2.4654463122234707,792.7200602754644,9.98240952876609,0.033166247903554,-0.15819113670191265,1.061671414212099
22887187,2000.0,1,187326.0,230600,0.28,-0.6,9.94,-0.03,-0.01,-0.0,31.090000000000003,20.467701,-1.067542361067771,749.0322024631156,9.962027906003877,0.03162277660168379,-0.0685409419864252,1.0027927774122831
22927185,2000.0,1,187290.0,230768,0.27,-0.61,9.97,-0.03,-0.01,-0.0,31.090000000000003,20.507699,3.095137136153864,640.5698488337166,9.99229202935943,0.03162277660168379,0.19841947911801552,0.8566167952153837
22967186,1994.0,1,187279.0,230921,0.28,-0.62,9.95,-0.03,-0.01,-0.0,31.090000000000003,20.5477,-7.526651554708246,579.5109504727587,9.973229166122675,0.03162277660168379,-0.4827756942522965,0.7743270039549953
23007871,1977.0,1,187235.0,230931,0.27,-0.61,9.97,-0.03,-0.01,-0.0,31.090000000000003,20.588385,-16.93585209214762,608.0233883867179,9.99229202935943,0.03162277660168379,-1.086205321589086,0.8127535499171271
23047186,2005.0,1,187218.0,230623,0.27,-0.64,9.98,-0.03,-0.01,-0.0,31.090000000000003,20.6277,4.159233147229851,671.8921582603941,10.004144141304643,0.03162277660168379,0.26666194635624596,0.898830237870004
23087185,2010.0,1,187169.0,230583,0.27,-0.6,9.96,-0.03,-0.01,-0.0,31.090000000000003,20.667699,17.042373847963404,646.6552973046493,9.981708270631836,0.03162277660168379,1.09288185324822,0.8648182252745787
23127186,2015.0,1,187194.0,230512,0.28,-0.62,9.96,-0.03,-0.01,-0.01,31.090000000000003,20.7077,16.356222078576753,415.682972329429,9.983205897906744,0.033166247903554,1.0488776570521696,0.5535341222307107
23167185,2010.0,1,186974.0,228441,0.27,-0.62,9.97,-0.03,-0.01,-0.0,31.090000000000003,20.747699,16.805944613426774,-38.40708638439255,9.992907484811415,0.03162277660168379,1.07771920427286,-0.058448359406576604
23207186,2005.0,1,185754.0,225061,0.28,-0.6,9.95,-0.03,-0.01,-0.0,31.090000000000003,20.7877,8.543409363165102,-596.4507630015802,9.972005816283902,0.03162277660168379,0.5478273662698685,-0.8105303473837941
23247185,2000.0,1,185407.0,225163,0.28,-0.64,9.99,-0.03,-0.01,-0.01,31.090000000000003,20.827699,6.9324865354725045,-1060.2395931104895,10.01439463971737,0.033166247903554,0.4445158726190579,-1.4355839766344214
23287186,2005.0,1,185543.0,225291,0.28,-0.61,9.96,-0.03,-0.01,-0.01,31.090000000000003,20.8677,9.762679970456432,-1269.1086618727459,9.982589844323968,0.033166247903554,0.6260214705673558,-1.7170792628348022
23327185,2000.0,1,185529.0,225261,0.28,-0.62,9.97,-0.03,-0.01,-0.0,31.090000000000003,20.907699,7.537678921291754,-1188.7626779338502,9.993182676204814,0.03162277660168379,0.4833279921385506,-1.6087960408242026
23367186,2003.0,1,185703.0,226025,0.29,-0.62,9.96,-0.03,-0.01,-0.0,31.090000000000003,20.9477,8.661290798754353,-914.5355412270012,9.983491373262163,0.03162277660168379,0.5553873231933613,-1.239216922246954
23407185,2000.0,1,186090.0,226953,0.26,-0.62,9.98,-0.03,-0.01,-0.0,31.090000000000003,20.987699,7.713579335079766,-603.35748362912,10.002619656869895,0.03162277660168379,0.4946088146396909,-0.8198386155312831
23447203,1995.0,1,186243.0,227122,0.3,-0.64,9.95,-0.03,-0.01,-0.01,31.090000000000003,21.027717,2.052358791397536,-390.00891282231504,9.97507393456309,0.033166247903554,0.13154415368867486,-0.5323062520482883
23487185,1988.0,1,186272.0,226842,0.27,-0.62,9.94,-0.03,-0.01,-0.0,31.090000000000003,21.067699,-4.876136073692718,-332.19691524178586,9.962976462884974,0.03162277660168379,-0.3127931795215761,-0.4543923469345047
23527187,1985.0,1,186207.0,226712,0.28,-0.62,9.97,-0.03,-0.01,-0.0,31.090000000000003,21.107701,-6.13157136467188,-396.76967129105566,9.993182676204814,0.03162277660168379,-0.3933065926183251,-0.5414178052876815
23567185,1991.0,1,186245.0,226913,0.28,-0.62,9.96,-0.03,-0.01,-0.0,31.090000000000003,21.147699,-2.803774747872033,-479.1050928395451,9.983205897906744,0.03162277660168379,-0.179888772014127,-0.6523822156264958
23607186,1983.0,1,186333.0,227208,0.3,-0.62,9.97,-0.03,-0.01,-0.0,31.090000000000003,21.1877,-6.319821387442878,-447.9929383099681,9.99376305502587,0.03162277660168379,-0.4053794186394994,-0.610452001183962
23647200,1991.0,1,186539.0,227547,0.31,-0.6,9.94,-0.03,-0.01,-0.0,31.090000000000003,21.227714,-3.6787926799704533,-213.43402699253056,9.962916239736234,0.03162277660168379,-0.2360053084380442,-0.2943342137900478
23687186,1989.0,1,186678.0,228341,0.27,-0.61,9.95,-0.03,-0.01,-0.01,31.090000000000003,21.2677,1.252393309477918,198.96485627281731,9.972336737194547,0.033166247903554,0.08024087125609332,0.26146058321569343
23727185,1989.0,1,187099.0,229618,0.27,-0.61,9.96,-0.03,-0.01,-0.01,31.090000000000003,21.307699,-6.08597710313899,614.8734558952553,9.982314360908497,0.033166247903554,-0.3903825473568798,0.8219854659937125
23767186,1984.0,1,187473.0,230707,0.29,-0.63,9.97,-0.03,-0.01,-0.01,31.090000000000003,21.3477,-3.136617589694811,774.8488268786209,9.994093255518482,0.033166247903554,-0.2012346059352622,1.0375861440013894
23807185,1995.0,1,187641.0,229148,0.29,-0.62,9.96,-0.03,-0.01,-0.01,31.090000000000003,21.387699,1.2313299773376094,492.3309712783239,9.983491373262163,0.033166247903554,0.07889004037377519,0.656833526631103
23847187,1983.0,1,186444.0,224867,0.28,-0.61,9.95,-0.03,-0.01,-0.0,31.090000000000003,21.427701,-5.891487738629943,-191.00004594317113,9.972612496231866,0.03162277660168379,-0.37790958068137076,-0.2640996752175059
23887185,1984.0,1,185463.0,223370,0.29,-0.61,9.98,-0.03,-0.01,-0.0,31.090000000000003,21.467699,-5.629578624623891,-982.9931913876587,10.002829599668287,0.03162277660168379,-0.36111285938375126,-1.3314780978186915
23927186,1991.0,1,185200.0,222829,0.28,-0.62,9.95,-0.03,-0.01,-0.0,31.090000000000003,21.5077,-1.9767044734934949,-1494.3677007677907,9.973229166122675,0.03162277660168379,-0.12684720855039444,-2.020663503425057
23967185,1983.0,1,185198.0,223359,0.3,-0.63,9.96,-0.03,-0.01,-0.0,31.090000000000003,21.547699,-1.1697508161946273,-1468.6044432603114,9.984412852040926,0.03162277660168379,-0.07509576136161647,-1.9859420600418973
24007186,1984.0,1,185740.0,225590,0.29,-0.61,9.93,-0.03,-0.01,-0.0,31.090000000000003,21.5877,-12.349872194542447,-926.7493119179405,9.9529442879984,0.03162277660168379,-0.7920978541613595,-1.2556775638182784
24047871,1962.0,1,186614.0,228402,0.27,-0.62,9.95,-0.03,-0.01,-0.01,31.090000000000003,21.628385,-19.222430886636847,-133.49208003520937,9.972953424136703,0.033166247903554,-1.2328478959868399,-0.1865955171437724
24087187,1989.0,1,187378.0,229848,0.27,-0.62,9.99,-0.03,-0.01,-0.01,31.090000000000003,21.667701,-6.355080039164199,578.637939117016,10.012861728796619,0.033166247903554,-0.4076406219143086,0.7731504363430589
24127185,1985.0,1,187534.0,230236,0.3,-0.62,9.97,-0.03,-0.01,-0.0,31.090000000000003,21.707699,2.0231222829813835,1000.8098202539991,9.99376305502587,0.03162277660168379,0.12966916172650028,1.342116416852486
24167186,1999.0,1,187690.0,230475,0.3,-0.63,9.96,-0.03,-0.01,-0.01,31.090000000000003,21.7477,8.937349772327744,1135.4290519118929,9.984412852040926,0.033166247903554,0.5730915014477768,1.5235443294111786
24207185,1987.0,1,187740.0,230722,0.28,-0.62,9.96,-0.03,-0.01,-0.0,31.090000000000003,21.787699,0.1610415520555257,1142.9444582190422,9.983205897906744,0.03162277660168379,0.010250442031596883,1.5336729303662158
24247186,1975.0,1,187833.0,230809,0.27,-0.63,9.98,-0.03,-0.01,-0.0,31.090000000000003,21.8277,-9.85753595661182,1202.6115578753524,10.003509384211124,0.03162277660168379,-0.6322596701128621,1.6140869782385583
24287185,1999.0,1,187904.0,231043,0.28,-0.6,9.94,-0.03,-0.01,-0.0,31.090000000000003,21.867699,11.0347587970451,1381.8852653339163,9.962027906003877,0.03162277660168379,0.7076022647291006,1.8556962499622371
24327186,2000.0,1,187972.0,231271,0.28,-0.63,9.99,-0.03,-0.01,-0.0,31.090000000000003,21.9077,16.57332635993759,1589.2973851398137,10.01376053238742,0.03162277660168379,1.062800960639282,2.1352279890185626
24367185,1995.0,1,187984.0,231434,0.29,-0.62,9.96,-0.03,-0.01,-0.01,31.090000000000003,21.947699,10.008144509081749,1634.2186984406928,9.983491373262163,0.033166247903554,0.6417635704915414,2.195768968202614
24407187,1995.0,1,187928.0,231051,0.29,-0.63,9.99,-0.03,-0.01,-0.01,31.090000000000003,21.987701,10.443362115074814,1358.805018882029,10.014045136706745,0.033166247903554,0.6696748894978505,1.8245907319501637
24447185,1986.0,1,187320.0,227958,0.3,-0.62,9.96,-0.03,-0.01,-0.01,31.090000000000003,22.027699,4.967984768097636,760.4521663720501,9.983786856699217,0.033166247903554,0.3185287003112088,1.0181835963018078
24487186,1991.0,1,186016.0,224727,0.28,-0.62,9.97,-0.03,-0.01,-0.01,31.090000000000003,22.0677,6.367795323878545,17.581621136949167,9.993182676204814,0.033166247903554,0.40830116914699915,0.017008276375377444
24527185,1980.0,1,185441.0,224034,0.28,-0.62,9.94,-0.03,-0.01,-0.0,31.090000000000003,22.107699,1.0613438831174686,-607.782612818136,9.963252480992338,0.03162277660168379,0.06798851424734717,-0.8258024138807343
24567186,1981.0,1,185300.0,223863,0.29,-0.63,9.97,-0.03,-0.01,-0.01,31.090000000000003,22.1477,-1.4696219571048514,-923.3927452367102,9.994093255518482,0.033166247903554,-0.0943270584403116,-1.25115387965488
24607185,1984.0,1,185257.0,223857,0.27,-0.62,9.97,-0.03,-0.01,-0.0,31.090000000000003,22.187699,5.650151947041564,-905.8167540067999,9.992907484811415,0.03162277660168379,0.3622773572702779,-1.2274665107647045
24647186,1981.0,1,185288.0,224382,0.29,-0.61,9.95,-0.03,-0.01,-0.0,31.090000000000003,22.2277,1.534985537143147,-685.1749754434427,9.972898274824624,0.03162277660168379,0.09836403931376009,-0.9301050059113982
24687186,1987.0,1,185457.0,224709,0.28,-0.63,9.96,-0.03,-0.01,-0.0,31.090000000000003,22.2677,9.096698368283961,-445.6874985985077,9.9838319296751,0.03162277660168379,0.5833108249165343,-0.6073449331281651
24727186,1987.0,1,185452.0,224617,0.3,-0.61,9.94,-0.03,-0.01,-0.01,31.090000000000003,22.3077,10.505449247539497,-319.026380544534,9.963217351839715,0.033166247903554,0.6736566534167402,-0.43664226332478207
24767185,1971.0,1,185374.0,224344,0.28,-0.61,9.97,-0.03,-0.01,-0.0,31.090000000000003,22.347699,-6.4697739338795826,-329.02117641460404,9.992567237702232,0.03162277660168379,-0.4149961558802946,-0.4501123665843613
24807186,1973.0,1,185273.0,224232,0.27,-0.62,9.97,-0.03,-0.01,-0.0,31.090000000000003,22.3877,-0.6304705910605024,-400.712924903166,9.992907484811415,0.03162277660168379,-0.0405107119742703,-0.5467321742877422
24847185,1981.0,1,185141.0,224361,0.29,-0.63,9.95,-0.03,-0.01,-0.0,31.090000000000003,22.427699,4.368450186157377,-414.46291203434157,9.974141567072325,0.03162277660168379,0.2800794263355706,-0.5652631927179889
24887186,1972.0,1,185267.0,224894,0.28,-0.64,9.97,-0.03,-0.01,-0.01,31.090000000000003,22.4677,-0.14886247883752665,-276.60708969144645,9.994443456241074,0.033166247903554,-0.009624283044977495,-0.3794732890488512
24927185,1978.0,1,185413.0,225452,0.27,-0.61,9.99,-0.03,-0.01,-0.01,31.090000000000003,22.507699,4.176254317968761,20.146996752399353,10.012247499937263,0.033166247903554,0.26775354586833494,0.020465663088316734
24967187,1978.0,1,185559.0,226041,0.26,-0.61,9.94,-0.03,-0.01,-0.0,31.090000000000003,22.547701,4.706801550205861,372.5392253408249,9.962093153549608,0.03162277660168379,0.3017785320889521,0.49538878995014407
25007185,1984.0,1,185667.0,226403,0.28,-0.62,10.0,-0.03,-0.01,-0.01,31.090000000000003,22.587699,14.771800711202456,601.2854269400831,10.023113288794056,0.033166247903554,0.9472657516139942,0.8036727204909832
25047187,1984.0,1,185819.0,226681,0.3,-0.63,9.96,-0.03,-0.01,-0.0,31.090000000000003,22.627701,8.723017436866693,544.658969244749,9.984412852040926,0.03162277660168379,0.5593459679352469,0.7273565813425604
25087871,1948.0,1,185607.0,223583,0.28,-0.62,9.99,-0.03,-0.01,-0.0,31.090000000000003,22.668385,-18.034752166443326,166.53646747198724,10.013136371786814,0.03162277660168379,-1.1566798384913568,0.2177564644555468
25128187,1954.0,1,184267.0,220969,0.28,-0.62,9.95,-0.03,-0.01,-0.01,31.090000000000003,22.708701,-20.773680159415644,-398.8605505831616,9.973229166122675,0.033166247903554,-1.332332412960916,-0.5442357077575382
25168185,1946.0,1,183814.0,220492,0.27,-0.63,9.94,-0.03,-0.01,-0.0,31.090000000000003,22.748699,-20.555360370601406,-913.3928885340437,9.963603765706463,0.03162277660168379,-1.3183311566076028,-1.237676955852036
25208186,1955.0,1,183767.0,220278,0.28,-0.63,9.98,-0.03,-0.01,-0.01,31.090000000000003,22.7887,-16.53395547220499,-1172.990462478423,10.003784283959746,0.033166247903554,-1.0604309397343343,-1.587539641636187
25248185,1967.0,1,183751.0,220386,0.28,-0.61,9.99,-0.03,-0.01,-0.01,31.090000000000003,22.828699,-1.9699197322984283,-1115.8692401213543,10.012522159775727,0.033166247903554,-0.12641209040888762,-1.5105567023680428
25288216,1967.0,1,183866.0,220995,0.28,-0.62,9.96,-0.03,-0.01,-0.01,31.090000000000003,22.86873,-1.7802724281061513,-829.7701239821245,9.983205897906744,0.033166247903554,-0.11424965411700304,-1.1249775782950693
25328185,1971.0,1,184259.0,222075,0.28,-0.61,9.97,-0.03,-0.01,-0.01,31.090000000000003,22.908699,1.120693234640537,-472.89226089947783,9.992567237702232,0.033166247903554,0.07179469915431605,-0.6440091093764997
25368187,1975.0,1,184432.0,222290,0.29,-0.62,9.98,-0.03,-0.01,-0.01,31.090000000000003,22.948701,6.043960130051187,-178.41931943639085,10.003444406803089,0.033166247903554,0.38753301253770667,-0.24714448300249287
25408185,1969.0,1,184483.0,222431,0.28,-0.59,9.94,-0.03,-0.01,-0.0,31.090000000000003,22.988699,0.6217091779814626,-1.3882235989465583,9.961430620146887,0.03162277660168379,0.03979391841224393,-0.00855760518263284
25448187,1971.0,1,184602.0,222569,0.28,-0.64,9.97,-0.03,-0.01,-0.0,31.090000000000003,23.028701,-0.3164628619536162,80.22215804798984,9.994443456241074,0.03162277660168379,-0.020372809056600587,0.10142966040323248
25488194,1969.0,1,184699.0,222975,0.29,-0.62,9.98,-0.03,-0.01,-0.01,31.090000000000003,23.068708,2.7122485851163036,133.81987994283952,10.003444406803089,0.033166247903554,0.17386412027060005,0.1736639368994444
25528187,1968.0,1,184838.0,223296,0.29,-0.63,9.94,-0.03,-0.01,-0.01,31.090000000000003,23.108701,-5.439703024575957,234.9369559400031,9.964165795489354,0.033166247903554,-0.34893578205168974,0.3099406025457403
25568185,1952.0,1,184936.0,223581,0.31,-0.61,9.97,-0.03,-0.01,-0.0,31.090000000000003,23.148699,-13.769299115174253,430.4591949751532,9.99345285674576,0.03162277660168379,-0.8831283571611129,0.5734482102633104
25608186,1968.0,1,185084.0,224122,0.29,-0.63,9.97,-0.03,-0.01,-0.0,31.090000000000003,23.1887,-5.700933392400393,702.2325111253684,9.994093255518482,0.03162277660168379,-0.3656889740873067,0.9397202861847588
25648185,1966.0,1,185256.0,224730,0.29,-0.62,9.96,-0.03,-0.01,-0.0,31.090000000000003,23.228699,-1.286570860424629,949.3722875596774,9.983491373262163,0.03162277660168379,-0.08258764927225093,1.2727934526001266
25688186,1969.0,1,185475.0,225218,0.3,-0.62,9.97,-0.03,-0.01,-0.01,31.090000000000003,23.2687,-3.536912085587221,1021.6270352142812,9.99376305502587,0.033166247903554,-0.2269062405784176,1.370172020862525
25728185,1968.0,1,185601.0,224870,0.28,-0.62,9.97,-0.03,-0.01,-0.0,31.090000000000003,23.308699,-1.4025425810838579,808.6475769852492,9.993182676204814,0.03162277660168379,-0.09002513260577645,1.0831371147164928
25768186,1968.0,1,184889.0,221301,0.29,-0.61,9.95,-0.03,-0.01,-0.01,31.090000000000003,23.3487,-3.4997272511551722,331.4200038975541,9.972898274824624,0.033166247903554,-0.22452150760406675,0.4399719344190586
25808185,1966.0,1,183959.0,220083,0.29,-0.61,9.95,-0.03,-0.01,-0.01,31.090000000000003,23.388699,-4.615015715487923,-243.3566873744805,9.972898274824624,0.033166247903554,-0.29604704260860415,-0.3346613330615054
25848187,1968.0,1,183790.0,220056,0.27,-0.64,9.96,-0.03,-0.01,-0.01,31.090000000000003,23.428701,-3.2200615406150384,-691.8064504977486,9.984192506156921,0.033166247903554,-0.20658602256273745,-0.9390423223814943
25888185,1968.0,1,183803.0,220210,0.28,-0.61,9.95,-0.03,-0.01,-0.01,31.090000000000003,23.468699,-2.8252991927441755,-861.4037753500857,9.972612496231866,0.033166247903554,-0.1812691749183001,-1.167610620124365
25928187,1967.0,1,183884.0,220588,0.29,-0.61,9.96,-0.03,-0.01,-0.01,31.090000000000003,23.508701,-4.044367415474367,-744.6248151358392,9.982875337296365,0.033166247903554,-0.2594502999153867,-1.0102262499900332
25968185,1963.0,1,184127.0,221631,0.28,-0.62,10.0,-0.03,-0.01,-0.0,31.090000000000003,23.548699,-7.60787339863539,-456.3247774797668,10.023113288794056,0.03162277660168379,-0.48798460300257185,-0.6216809182542422
26008186,1965.0,1,184593.0,222511,0.27,-0.63,9.96,-0.03,-0.01,-0.01,31.090000000000003,23.5887,-5.4283854454381375,-149.39818488694584,9.983556480533379,0.033166247903554,-0.34820996453570474,-0.2080323606367134
26048185,1962.0,1,184688.0,222808,0.27,-0.6,9.94,-0.03,-0.01,-0.01,31.090000000000003,23.628699,-7.864294306039109,66.93628456467141,9.961751853966248,0.033166247903554,-0.5044293553468657,0.08352413336291377
26088872,1962.0,1,184809.0,223299,0.29,-0.64,9.98,-0.03,-0.01,-0.0,31.07,23.669386,-7.625944875773481,165.15470685098978,10.004703893669218,0.03162277660168379,-0.4891435606282992,0.21589424951020791
26127185,1979.0,1,184991.0,223968,0.28,-0.63,9.98,-0.03,-0.01,-0.01,31.07,23.707699,10.854030897698316,192.03660076889227,10.003784283959746,0.033166247903554,0.6960118465508236,0.25212329226350066
