timestamp_us,ecg,leads,ir,red,accX,accY,accZ,gyroX,gyroY,gyroZ,temp,time_sec,ecg_filtered,ppg_filtered,accel_magnitude,gyro_magnitude,ecg_norm,ppg_norm
1949961,1623.0,1,202365,241768,1.4,0.79,9.75,-0.12,-0.1,-1.13,34.25,0.030473,1.9090872845016895,79.62166557527082,9.881629420292992,1.1407453703609758,0.020907800618887144,0.06413428665123222
1990179,1636.0,1,202426,241876,1.61,0.76,9.91,-0.23,-0.09,-1.13125,34.25,0.070691,-2.58175493823401,75.47492395219417,10.068654329154418,1.1578974749519062,-0.05890541567543274,0.061148766373404405
2030174,1731.0,1,202431,241867,1.35,0.49,10.09,-0.34,-0.07,-1.13125,34.25,0.110686,66.64387236972462,39.36835931607568,10.191697601479353,1.1833116928772403,1.1714027740597046,0.03515320390962753
2070180,1782.0,1,202360,241547,1.21,0.55,9.98,-0.27,-0.11,-1.04,34.25,0.150692,105.69044200422458,-12.3588524304508,10.068117996924748,1.0800925886237718,1.865355523504356,-0.0020887208645926103
2110174,1824.0,1,202297,241537,1.26,0.62,9.88,-0.2,-0.14,-0.89,34.25,0.190686,122.76926885062149,-21.43585380359644,9.979298572545067,0.9228759396581969,2.168887919775971,-0.008623869211089033
2150174,1851.0,1,202436,241713,1.28,0.54,9.84,-0.18,-0.11,-0.83,34.25,0.230686,132.92117825569818,53.828653276312195,9.937585219760383,0.8563877626402656,2.3493121032499875,0.04556414936168741
2190174,1843.0,1,202501,241900,1.27,0.6,9.93,-0.17,-0.11,-0.89,34.25,0.270686,111.63802973501404,178.51615174714215,10.028848388523977,0.9127431182978045,1.9710586594514858,0.1353351283406222
2230174,1872.0,1,202654,242112,1.11,0.68,10.02,-0.04,-0.06,-0.92,34.25,0.310686,112.95862853375814,242.594501684042,10.104202096157815,0.9228217596047462,1.9945289201140781,0.18146947441170008
2270175,1894.0,1,202797,241983,1.21,0.74,9.9,0.08,0.01,-0.88,34.25,0.350687,135.09298867443917,138.88928912130748,10.001084941145136,0.8836854644046149,2.3879104699046145,0.10680506481851886
2310143,1904.0,1,202429,240354,0.96,0.78,10.18,-0.06,0.02,-0.9,34.25,0.390655,111.27474006708677,-138.5793798498975,10.254872012853207,0.9022194854911969,1.9646021162451854,-0.09296343126173826
2350164,1859.0,1,201916,239101,0.87,0.78,10.36,-0.1,-0.12,-0.84,34.25,0.430676,71.52069858507942,-462.4388216642917,10.425684629797699,0.854400374531753,1.2580758670455476,-0.32613178815239374
2390174,1899.0,1,201756,239078,1.04,0.78,10.01,-0.05,-0.12,-0.76,34.25,0.470686,83.43347286999388,-645.2271133350334,10.094062611258165,0.7710382610480494,1.4697949129415957,-0.45773346506796986
2430226,1920.0,1,201984,239700,0.83,0.8250000000000002,10.04,0.02,-0.06,-0.68,34.25,0.510738,103.15346589007189,-567.2470139252149,10.107973337914974,0.682934843158555,1.8202672720607227,-0.40159030756824854
2470165,1924.0,1,202299,240569,0.77,0.8250000000000002,9.86,0.08,-0.05,-0.61,34.25,0.550677,95.07362641362003,-258.7887038439509,9.92437025709944,0.6172519744804386,1.6766688235352714,-0.1795102689935635
2510163,1923.0,1,202726,241361,0.62,0.8250000000000002,9.78,0.1,0.01,-0.51,34.25,0.590675,80.36550810030674,125.58096034350838,9.834298398970818,0.519807656734681,1.415269698382348,0.0972234971585016
2550142,1893.0,1,202982,241757,0.54,0.8250000000000002,9.88,0.01,-0.0,-0.4,34.25,0.630654,55.46578306475362,415.7532568377628,9.929079766020616,0.4001249804748512,0.9727408716356656,0.306138195490901
2590163,1886.0,1,203039,241896,0.65,0.8250000000000002,9.38,-0.05,-0.02,-0.26,34.25,0.670675,26.466309884000104,533.4039141578995,9.438618807855311,0.26551836094703507,0.45734952395503986,0.39084287570881954
2630222,1859.0,1,203103,241946,0.56,0.8250000000000002,9.24,-0.1,0.11,-0.11,34.25,0.710734,13.508671132939272,522.9794033872383,9.2936443336293,0.1849324200890693,0.22706068880819338,0.38333756403976205
2670165,1865.0,1,202982,241910,0.55,0.8250000000000002,9.19,-0.2,0.12,-0.04,34.25,0.750677,-0.06289419493194752,492.17465620058965,9.243334084625525,0.23664319132398465,-0.014139118542425977,0.36115913920921666
2710165,1822.0,1,202961,242101,0.59,0.8250000000000002,9.45,-0.32,0.17,0.04,34.25,0.790677,-31.43310973322475,511.81783542834194,9.504274038557599,0.36455452267116367,-0.5716643384847949,0.3753015949578701
2750143,1822.0,1,203006,242404,0.03,0.8250000000000002,9.88,-0.42,0.29,0.08,34.25,0.830655,-39.066886928763296,551.417964528099,9.914430139952573,0.5166236541235796,-0.7073351726471695,0.40381241120308536
2790143,1839.0,1,203018,242607,0.18,0.61,10.08,-0.44,0.27,-0.02,34.25,0.870655,-19.422530314500893,500.1014800170297,10.100044554357174,0.5166236541235796,-0.3582070568832251,0.3668661967965644
2830164,1841.0,1,202713,242174,0.46,0.28,10.09,-0.31,0.04,-0.02,34.25,0.910676,-11.21517799946001,259.3636259415241,10.104360444877251,0.3132091952673165,-0.21234239430218185,0.1935427032411785
2870165,1821.0,1,202384,240929,0.53,0.37,10.13,-0.15,0.02,0.08,34.25,0.950677,-35.81523309639738,-163.04773320952796,10.150600967430451,0.1711724276862369,-0.6495453555560717,-0.11057985682191908
2910144,1744.0,1,201541,239202,0.41,0.46,10.19,-0.07,0.13,0.16,34.25,0.990656,-98.18001910121731,-633.9809130137284,10.208614009746865,0.21771541057077243,-1.7579196665821866,-0.4496365634136877
2950144,1727.0,1,201238,238789,0.35,0.37,10.16,-0.05,0.18,0.18,34.25,1.030656,-120.79846646914862,-969.670684866912,10.172757738194692,0.25942243542145693,-2.159904626748229,-0.6913223765228949
2990832,1744.0,1,201263,238931,0.25,0.56,10.08,0.0,0.07,0.18,34.17,1.071344,-87.43212453528623,-1049.0477480615223,10.098638522097916,0.19313207915827965,-1.5669033736123927,-0.7484713029096086
3029124,1760.0,1,201364,239399,0.3,0.61,9.78,-0.04,0.03,0.19,34.17,1.109636,-73.30315359381589,-882.0300628310847,9.803596278917242,0.19646882704388502,-1.3157971093890235,-0.628223954187318
3069143,1760.0,1,201519,239952,0.08,0.58,9.9,-0.11,0.06,0.17,34.17,1.149655,-59.25289308404312,-589.8098889983698,9.91729801911791,0.21118712081942875,-1.0660897214561402,-0.4178348501947122
3109143,1765.0,1,201731,240428,-0.15,0.8250000000000002,9.76,-0.04,0.0,0.24,34.17,1.189655,-50.092157444135545,-321.070450043485,9.795954522148415,0.2433105012119288,-0.9032811125628105,-0.22435111829617213
3149165,1734.0,1,201761,240514,-0.03,0.8250000000000002,9.52,-0.14,0.06,0.21,34.17,1.229677,-71.76645572528669,-164.43599584634856,9.55572734018714,0.25942243542145693,-1.2884862413431568,-0.11157936116289692
3189165,1725.0,1,201853,240656,-0.62,0.74,10.58,-0.2,0.13,0.22,34.17,1.269677,-69.49466882252614,-107.86279840786393,10.62395406616576,0.32449961479175904,-1.248111048795382,-0.07084848292485564
3229165,1733.0,1,201774,240773,-0.18,0.78,10.34,-0.14,-0.09,0.23,34.17,1.309677,-57.51807689842675,-62.55393254920103,10.370940169531401,0.28390139133156783,-1.0352578078448134,-0.038227560262677464
3269176,1717.0,1,201813,241121,0.07,0.74,10.17,-0.15,-0.0,0.19,34.17,1.349688,-57.0454277227116,64.78007674837117,10.197127046379288,0.2420743687382041,-1.026857679534426,0.05344882118810644
3309165,1743.0,1,201895,241527,0.22,0.64,10.34,-0.14,0.06,0.15,34.17,1.389677,-29.00716364610569,293.1616876465196,10.362123334529462,0.2137755832643195,-0.5285493613454638,0.21787621802059084
3349145,1766.0,1,201977,241861,0.61,0.59,10.16,-0.06,0.05,0.1,34.17,1.429657,9.94719940719845,534.2656221144598,10.195381307239078,0.12688577540449522,0.16376465232452955,0.39146327765611216
3389143,1775.0,1,202103,242054,0.81,0.44,9.93,-0.03,0.19,0.01,34.17,1.469655,24.67591524492897,638.7601777682946,9.972692715610965,0.19261360284258222,0.4255298457091793,0.4666959888264953
3429145,1755.0,1,202082,241529,0.3,0.55,10.15,0.03,0.37,0.02,34.17,1.509657,14.947760845213454,504.52474462651713,10.169316594540659,0.37175260590882214,0.25263682191996883,0.37005080470951773
3469125,1745.0,1,201472,239538,0.21,0.71,9.7,0.11,0.37,0.03,34.17,1.549637,16.68435780452841,172.80937488600628,9.728216691665537,0.3871692136521188,0.2835003842219705,0.13122643298686665
3509124,1767.0,1,200894,238581,-0.17,0.8250000000000002,9.65,0.1,0.4,0.04,34.17,1.589636,43.48557161545177,-170.6005212463759,9.68669319220961,0.41424630354415964,0.7598233028967804,-0.11601762070685936
3549143,1778.0,1,200707,238597,-0.23,0.8250000000000002,9.72,0.07,0.3,-0.04,34.17,1.629655,68.76524979236346,-307.51108813586035,9.757659811655662,0.31064449134018135,1.2091048234030946,-0.21458881487597875
3589165,1778.0,1,200829,239003,-0.22,0.81,9.79,0.01,0.33,-0.08,34.17,1.669677,72.94965875118,-137.28283176446243,9.825914715689322,0.3397057550292606,1.2834719734230007,-0.09202995844088445
3629165,1734.0,1,201096,240067,-0.58,0.69,10.17,-0.01,0.33,-0.1,34.17,1.709677,40.30398647558926,249.60283852331614,10.209867775833338,0.34496376621320685,0.7032787773195822,0.18651525098747251
3669177,1719.0,1,201563,240907,-0.63,0.8250000000000002,10.22,0.03,0.12,-0.1,34.17,1.749689,32.71520658887932,633.5010962620264,10.272581223821012,0.15905973720586866,0.5684076550517868,0.4629096196945638
3709165,1751.0,1,201553,240830,-0.65,0.8250000000000002,9.83,0.1,0.02,-0.02,34.17,1.789677,71.28569010071179,818.1809669950529,9.885950890025704,0.10392304845413264,1.2538991932584185,0.5958731725505502
3749165,1726.0,1,201403,240687,-1.43,0.8250000000000002,10.27,0.09,0.06,0.16,34.17,1.829677,56.14540317139327,760.409861655826,10.401847191725132,0.19313207915827965,0.9848193780446829,0.5542798392444782
3789143,1680.0,1,201069,240277,-1.13,0.8250000000000002,9.88,0.06,-0.16,0.3,34.17,1.869655,14.133019171126938,582.0291167834072,9.978573294815247,0.34525353003264136,0.23815687579123343,0.4258514539245586
3829165,1664.0,1,200861,240320,-0.97,0.8250000000000002,9.52,-0.2,-0.07,0.31,34.17,1.909677,7.406931920519388,460.1353613239804,9.604786567123707,0.37549966711037175,0.11861790516576687,0.33809187984366884
3869174,1642.0,1,200855,240650,-0.9,0.8250000000000002,9.72,-0.45,0.0,0.2,34.17,1.949686,-10.428150715460294,482.1879118646381,9.796378157257916,0.49244289008980524,-0.19835500046113633,0.3539690052595775
3909165,1618.0,1,200859,241053,-0.85,0.64,9.74,-0.41,-0.03,0.24,34.17,1.989677,-28.42827296512209,576.9903709070505,9.79794366180986,0.47602520941647614,-0.5182610624383682,0.4222237193425513
3949174,1615.0,1,200883,241200,-0.9,0.71,9.94,-0.35,-0.04,0.4,34.17,2.029686,-24.4418707326609,573.7011141624567,10.005883269357083,0.5330103188494572,-0.4474129747445268,0.4198555605319523
3989176,1629.0,1,200646,240793,-0.94,0.8250000000000002,9.8,-0.38,-0.11,0.53,34.17,2.069688,-10.742755821604074,343.56606690712186,9.879485057430879,0.661362230551458,-0.2039463002972403,0.254165746053013
4029860,1613.0,1,200184,239387,-1.11,0.61,9.54,-0.4700000000000001,-0.24,0.58,34.37,2.110372,-14.053110177186968,-86.04036717679342,9.623710303204268,0.7841555968046138,-0.2627793688150721,-0.0551370359928123
4070179,1562.0,1,199433,237636,-1.07,-0.15,10.03,-0.4700000000000001,-0.17,0.61,34.37,2.150691,-73.53257903115401,-537.845106821496,10.088027557456412,0.788606365685695,-1.319874558817325,-0.3804218823699033
4110199,1521.125,1,199110,237712,-1.12,-0.97,10.83,-0.4700000000000001,-0.26,0.61,34.37,2.190711,-96.44627779195459,-810.2226559184222,10.930882855469635,0.8127730310486441,-1.727106856144529,-0.5765249362781849
4150195,1598.0,1,199206,238520,-0.72,-1.52,10.55,-0.4700000000000001,-0.42,0.47,34.37,2.230707,-32.7829934507398,-822.558908648423,10.683225168459195,0.7862569554541314,-0.595655063559206,-0.585406640523481
4190193,1630.0,1,199518,239466,-0.47,-1.75,10.39,-0.35,-0.33,0.4,34.37,2.270705,16.324215937322798,-663.2811408128264,10.546824166544164,0.6256196927846821,0.2770997851097595,-0.4707317827908426
4230194,1653.0,1,199681,239795,-0.05,-1.41,9.91,-0.15,-0.36,0.32,34.37,2.310706,28.626626948596535,-506.980307778632,10.009930069685803,0.5044799302251776,0.49574362568233465,-0.35820022213895253
4270230,1630.0,1,199371,239458,-0.03,-1.3,9.45,0.03,-0.23,0.32,34.37,2.350742,15.938466877739433,-476.2113550385674,9.53904607390068,0.3952214569073901,0.27024408375111714,-0.33604756815593617
4310174,1619.0,1,199380,239332,-0.78,-1.2,9.91,0.16,0.17,0.43,34.37,2.390686,-0.7267548655295181,-558.9230226937586,10.012816786499192,0.48928519290900274,-0.025937541346827957,-0.39559730224675105
4350165,1617.0,1,199467,239056,-1.19,-0.76,9.91,0.36,0.09,0.61,34.37,2.430677,2.9587171705711492,-633.5124431440499,10.01008491472475,0.7140028011149536,0.039562283001216544,-0.44929928021096943
4390164,1639.0,1,199467,239026,-1.13,-0.23,9.55,0.34,0.06,0.77,34.37,2.470676,18.078945496430322,-568.7333011661568,9.619371081312957,0.8438601779915912,0.3082856079226951,-0.40266038646388436
4430164,1664.0,1,199727,239409,-1.24,-0.3,9.69,0.0,0.15,0.86,34.37,2.510676,52.6960208635886,-325.42715059431686,9.77362266511246,0.8729833904490967,0.9235154438247661,-0.2274878022329161
4470193,1675.0,1,200069,240057,-1.1,-0.6,9.85,-0.28,0.09,0.9,34.37,2.550705,47.68276896318907,0.5855505998287343,9.929375609775269,0.9468368391650169,0.8344177337696679,0.007230831990162397
4510170,1623.0,1,200264,240338,-0.79,-0.94,9.78,-0.34,-0.06,1.01,34.37,2.590682,14.197051448151742,218.97450497963837,9.856779392884878,1.067379969832674,0.239294885483519,0.16446383829229727
4550193,1663.0,1,200242,240374,-0.68,-1.14,9.72,-0.34,-0.09,1.07,34.37,2.630705,28.655270772863606,152.22218498427213,9.81021916167014,1.1263214461245066,0.4962526962816423,0.11640431998781345
4590194,1651.0,1,200167,239840,-0.58,-1.45,9.84,-0.32,-0.11,1.09,34.37,2.670706,40.413533465514675,-245.47925256742354,9.96315713014705,1.1413150310059008,0.7052256944383899,-0.16992789317065124
4630194,1664.0,1,199379,237089,-0.4,-1.51,9.83,-0.31,-0.08,1.03,34.37,2.710706,24.64551037235321,-832.8248206734505,9.953341147574516,1.0786102168995062,0.4249894769874717,-0.5927977662088997
4670193,1616.0,1,198778,236303,-0.69,-1.53,10.45,-0.17,0.03,1.12,34.37,2.750705,-0.7332692560576984,-1339.6434190333375,10.583926492564089,1.133225485064645,-0.026053317950516915,-0.9576908172162752
4710173,1627.0,1,198774,236375,-0.83,-1.6,10.67,0.04,-0.08,1.23875,34.37,2.790685,-16.83713572191269,-1516.7072169511573,10.821173688653186,1.241974863876077,-0.3122582910192787,-1.0851710431872017
4750174,1616.0,1,199055,237100,-0.49,-1.41,10.45,0.09,-0.16,1.23875,34.37,2.830686,-8.684318090381574,-1282.6029809453403,10.556074080831376,1.2522785482870815,-0.16736284273582788,-0.9166235407744051
4790174,1635.0,1,199626,238578,-0.31,-1.64,10.17,-0.02,-0.12,1.23,34.37,2.870686,-14.452503963126954,-765.9554438440904,10.306046768766382,1.236001618121918,-0.2698775702309341,-0.5446539707578479
4830194,1614.0,1,200307,240031,-0.39,-1.47,9.87,-0.17,-0.2,1.11,34.37,2.910706,-19.89498373142623,-213.42659223474485,9.986485868412371,1.1406138698087096,-0.3666037060825999,-0.14685101110763518
4870194,1631.0,1,200729,240899,-0.04,-1.09,9.2,-0.2,-0.5,1.01,34.37,2.950706,-23.785369300079655,170.7595511727255,9.264431984746825,1.1445959985951375,-0.43574534354366523,0.12975062599954065
4910194,1613.0,1,200852,240969,0.61,-1.08,9.06,-0.25,-0.58,0.83,34.37,2.990706,-33.30656690795189,342.85874570111895,9.14451201541121,1.0429765098025938,-0.6049602405201943,0.25365649758869885
4950173,1648.0,1,200853,240951,0.29,-1.25,9.61,0.05,-0.3,1.02,34.37,3.030685,-9.774040822118003,420.2308374394346,9.695292672219853,1.064377752492037,-0.18672987274382813,0.30936190916708156
4990165,1652.0,1,201183,241422,0.17,-1.25,9.94,0.04,-0.11,1.06,34.37,3.070677,-10.185912142025733,575.8982102018296,10.01973053529884,1.0664426848171449,-0.19404983036220055,0.4214373988460105
5030851,1615.0,1,201670,242196,0.15,-1.7,10.27,-0.18,-0.06,0.84,34.13,3.111363,-44.650889158696096,907.9529825383866,10.410830898636284,0.8611620056644393,-0.8065765077155159,0.6605061294954885
5069173,1643.0,1,202045,242797,0.2,-1.31,9.94,-0.28,-0.12,0.62,34.13,3.149685,-35.20545985491199,1369.4411892903483,10.027945951190603,0.6907966415668217,-0.6387081982480792,0.9927627599952061
5109175,1650.0,1,202303,243851,0.32,-1.24,9.88,-0.19,-0.15,0.46,34.13,3.189687,-14.154642953771827,1794.6268414564397,9.96265024980803,0.519807656734681,-0.26458385382180516,1.298882721586034
5149173,1683.0,1,202811,244237,0.15,-0.87,9.91,-0.05,-0.09,0.47,34.13,3.229685,-7.226266143650768,1998.9488110821483,9.949246202602486,0.4811444689487763,-0.1414497044822445,1.4459879523842532
5189174,1681.0,1,202882,243753,-0.04,-0.91,9.95,-0.1,0.11,0.52,34.13,3.269686,6.6968558593227305,1891.845397522541,9.99160647743895,0.5408326913195984,0.10599812218368214,1.3688769476311904
5229173,1690.0,1,202200,242312,-0.0,-0.95,10.13,-0.16,-0.03,0.5,34.13,3.309685,-5.768902889763178,1532.0325421152704,10.174448387996277,0.5258326730053963,-0.11554880597972109,1.1098232920903088
5269197,1699.0,1,201719,241926,0.06,-0.82,10.15,-0.11,-0.11,0.53,34.13,3.349709,8.203228722482452,1085.676403857713,10.183246044361297,0.5523585791856591,0.1327700409428366,0.7884612630492671
5309173,1744.0,1,201478,241890,0.25,-0.94,10.18,-0.14,-0.09,0.48,34.13,3.389685,48.41808804772073,715.9915827822597,10.226362989841501,0.5080354318352215,0.8474861468263429,0.5223001104990801
5349175,1711.0,1,201414,241867,0.25,-0.82,10.22,-0.12,-0.06,0.44,34.13,3.429687,1.1638133664111816,487.3288056963044,10.255890990060298,0.45999999999999996,0.007662465897054565,0.3576702830761616
5389173,1671.0,1,201181,241748,0.55,-0.74,9.99,-0.13,-0.04,0.3,34.13,3.469685,-24.89188064991842,351.9636807950723,10.032457326099125,0.3293933818400121,-0.4554107482309407,0.2602117573135948
5429176,1730.0,1,201043,241609,0.45,-0.97,10.17,-0.06,0.17,0.23,34.13,3.509688,7.238585923656168,216.6635390036087,10.226059847272555,0.29223278392404917,0.11562598632437367,0.16280001729500837
5469165,1693.0,1,200756,241383,0.17,-1.0,10.25,-0.1,0.2,0.04,34.13,3.549677,-11.843429934122737,28.185008902944656,10.30006796094084,0.22715633383201095,-0.22350796304443338,0.027101552162952104
5509165,1710.0,1,200656,241413,-0.08,-1.19,10.3,0.02,0.13,-0.05,34.13,3.589677,-13.963045073005594,-184.09868859799238,10.368823462669235,0.1407124727947029,-0.2611786923085126,-0.12573586601963696
5549173,1728.0,1,200570,241436,-0.04,-1.19,10.2,0.19,0.07,-0.05,34.13,3.629685,5.465718630358801,-331.4051871123475,10.269259953862303,0.20856653614614212,0.08411781174974535,-0.23179179579423517
5589176,1738.0,1,200554,241231,0.19,-1.14,10.02,0.25,-0.0,-0.09,34.13,3.669688,19.191518088247758,-336.64398440747505,10.086431479963565,0.26570660511172844,0.3280587356590251,-0.23556356094810757
5629173,1756.0,1,200376,241055,0.2,-1.07,10.01,0.27,-0.14,-0.13,34.13,3.709685,17.03884865454549,-208.71238015244347,10.069011868103045,0.3307567081708246,0.2898005509798966,-0.14345693039439092
5669176,1703.0,1,200599,241092,0.21,-0.97,10.22,0.27,-0.08,-0.01,34.13,3.749688,-15.472417269367316,-65.50594199141084,10.268076742993305,0.28178005607210743,-0.28800391653192453,-0.04035291188839983
5709188,1747.0,1,200962,241106,-0.06,-0.89,10.53,0.24,-0.0,0.18,34.13,3.7897,2.2612301484415993,-73.44939620763628,10.567714984801587,0.3,0.027166237939140195,-0.046071942827429616
5770177,1754.0,1,200867,239170,-0.18,0.06,10.08,0.36,-0.2,0.52,34.13,3.850689,26.44417642931723,-334.46123036697884,10.08178555614034,0.66332495807108,0.45695615849744237,-0.233992048410855
5810165,1734.0,1,199740,235947,0.16,0.27,9.62,0.26,-0.25,0.52,34.13,3.890677,-6.914068194069898,-810.2492035429678,9.625118181092635,0.6328506932918696,-0.13590118568762027,-0.5765440497119634
5850143,1712.0,1,199191,235287,-0.12,0.18,10.04,0.17,-0.21,0.43,34.13,3.930655,-27.849887511869305,-1352.8105001631648,10.042330406832868,0.5078385570237849,-0.5079817426599433,-0.9671706911235715
5890165,1760.0,1,199015,235266,0.22,0.21,9.68,0.12,-0.25,0.23,34.13,3.970677,23.19380062885352,-1808.7891894210204,9.684776713998108,0.3602776706930364,0.39918905514946507,-1.2954606466541607
5930143,1813.0,1,198963,235456,0.56,-0.27,9.4,0.02,-0.19,0.02,34.13,4.010655,67.3223918747772,-2093.453672479918,9.420536078164554,0.19209372712298545,1.183461720094929,-1.5004098968847925
5970161,1769.0,1,198906,235472,0.5,-0.43,9.55,-0.04,-0.24,-0.1,34.13,4.050673,29.064838379695733,-2176.0461076851934,9.572742553730357,0.2630589287593181,0.5035317113015302,-1.5598737874557176
6010194,1751.0,1,198756,235433,0.78,-0.68,9.37,0.03,-0.33,-0.17,34.13,4.090706,9.051653785005554,-2025.207717153075,9.42696663832009,0.37242448899072145,0.14784862301411403,-1.45127500929639
6050861,1766.0,1,198992,236526,0.72,-0.92,9.64,0.03,-0.05,-0.12,34.15,4.131373,17.502581585923412,-1600.0503726822892,9.71053036656598,0.13341664064126332,0.29804221588798113,-1.1451754283335431
6089173,1755.0,1,200105,238893,0.43,-0.85,10.13,0.1,0.1,-0.11,34.15,4.169685,19.866014483059633,-903.8749457546045,10.17468918444195,0.17916472867168917,0.3400461812157441,-0.6439515656140832
6129164,1791.0,1,201079,240613,0.38,-0.58,9.81,0.13,0.09,-0.21,34.15,4.209676,37.08682934040827,-38.075198334170274,9.834475074959517,0.2628687885618983,0.6461020506505708,-0.020603660821286812
6169165,1751.0,1,201758,241878,0.39,-0.43,9.83,0.08,0.16,-0.26,34.15,4.249677,17.166933079760376,805.0193201515559,9.847126484411582,0.31559467676119,0.2920769235235265,0.5863972111542106
6209164,1739.0,1,202449,242667,0.19,-0.42,10.02,0.0,0.18,-0.22,34.15,4.289676,-11.688096570460917,1409.5530153585296,10.030598187545944,0.2842534080710379,-0.22074731042366222,1.0216419815605966
6249164,1744.0,1,202435,242622,0.24,-0.29,9.79,-0.07,0.21,-0.22,34.15,4.329676,4.2247996051687435,1620.962999023255,9.797234303618547,0.31208973068654466,0.06206365494596946,1.1738503539496132
6289173,1760.0,1,202433,243049,-0.03,-0.35,10.09,-0.14,0.25,-0.23,34.15,4.369685,18.263230224711283,1411.9032580712178,10.096113113470945,0.3674234614174767,0.31156079688470417,1.0233340805419993
6329197,1739.0,1,202406,242387,-0.05,-0.37,10.09,-0.11,0.11,-0.18,34.15,4.409709,-8.252608973266206,908.8041828556305,10.09690546652785,0.23790754506740638,-0.1596903190906821,0.6611189662812392
6369194,1719.0,1,201546,240329,-0.05,-0.44,10.55,-0.1,0.0,-0.13,34.15,4.449706,-15.696429155833451,356.3747154912928,10.559289748842012,0.16401219466856726,-0.2919851539613992,0.26338756008328784
6409195,1743.0,1,200820,239951,0.42,-0.39,10.09,-0.1,-0.1,-0.14,34.15,4.489707,-6.521790492709576,8.180844107749635,10.10626538341439,0.198997487421324,-0.12892945444584944,0.012699198443900498
6449194,1680.0,1,201056,241207,0.5,-0.33,10.03,-0.19,0.17,-0.15,34.15,4.529706,-54.45109540299384,-12.816598859995281,10.047875397316588,0.2958039891549808,-0.9807500684665756,-0.002418283536137693
6489176,1689.0,1,201688,242181,0.02,-0.36,10.37,-0.24,0.26,-0.1,34.15,4.569688,-56.58496059656532,214.34399663435622,10.37626618779607,0.36769552621700474,-1.018674055948303,0.16113002157110165
6529173,1744.0,1,201881,242518,0.26,-0.25,9.94,-0.17,-0.02,-0.04,34.15,4.609685,5.221716120007274,472.1948613015365,9.946542112714347,0.17578395831246948,0.07978129219079724,0.3467743310297027
6569195,1750.0,1,201776,242500,0.39,-0.15,9.5,-0.25,-0.15,0.14,34.15,4.649707,9.436123450266354,560.4538106166945,9.509185033429521,0.3234192325759246,0.15468158641610416,0.41031792907155046
6609173,1728.0,1,201660,242331,0.42,-0.23,9.54,-0.31,-0.16,0.28,34.15,4.689685,-14.203741711541111,423.7670114983768,9.55201025962598,0.4473253849269008,-0.26545645846460086,0.3119078404834069
6649173,1697.0,1,201479,241803,0.57,-0.44,9.55,-0.34,-0.21,0.36,34.15,4.729685,-42.10227038055337,164.3030060040476,9.577108123019183,0.5378661543544081,-0.7612813377445351,0.1251021216368557
6689173,1702.0,1,201290,241480,0.6,-0.77,9.66,-0.28,-0.13,0.42,34.15,4.769685,-40.45224085556549,-50.98023463616352,9.70919667119788,0.5212485011968859,-0.7319562898274327,-0.029894870900857472
6729180,1770.0,1,201293,241313,0.54,-0.88,10.11,-0.17,0.01,0.46,34.15,4.809692,28.423778169233948,-110.6941355054445,10.162583332991666,0.49050993873722887,0.4921385082679797,-0.07288695435291662
6769164,1754.0,1,201276,241470,0.47,-1.12,10.49,-0.11,-0.0,0.39,34.15,4.849676,13.184746232723471,-29.102436160114554,10.560085226928805,0.4052159917870962,0.2213037535070261,-0.014143561337467442
6809176,1687.0,1,201358,241591,0.68,-1.27,10.44,-0.03,-0.07,0.21,34.15,4.889688,-58.760182993497395,69.4573017328085,10.538923094889723,0.22338307903688676,-1.0573330617747934,0.05681627238335117
6849173,1728.0,1,201298,241672,0.74,-1.23,10.32,0.02,-0.06,0.03,34.15,4.929685,-12.596237397435553,38.03975559606364,10.41935218715636,0.06999999999999999,-0.23688718723386895,0.03419665206535071
6889164,1754.0,1,201272,241564,0.89,-1.08,10.07,0.15,-0.02,-0.11,34.15,4.969676,6.797334889228126,-185.58995204891716,10.166779234349491,0.18708286933869708,0.10778387954257626,-0.1268095276260276
6929173,1729.0,1,200847,239730,1.02,-0.62,10.07,0.2,0.15,-0.2,34.15,5.009685,-17.80513199499741,-521.108653172328,10.140498015383663,0.32015621187164245,-0.32946194505207216,-0.368372175325112
6969165,1773.0,1,200303,238485,0.79,-0.49,10.17,0.32,0.29,-0.2,34.15,5.049677,31.171096055875605,-785.8122565289088,10.21239932630917,0.47592016137163173,0.5409650458839482,-0.5589502357080547
7009165,1771.0,1,200251,238483,0.62,-0.23,10.29,0.36,0.31,-0.18,34.15,5.089677,10.984466125587089,-816.8183810788925,10.311226891112424,0.5080354318352215,0.18219941107212584,-0.5812736457478029
7049165,1717.0,1,200544,238822,0.19,-0.3,10.38,0.35,0.36,-0.14,34.15,5.129677,-16.81685053599808,-589.2679162458495,10.386072404908411,0.5212485011968859,-0.3118977738043169,-0.4174446472860779
7089850,1778.0,1,200853,239516,-0.33,-0.46,10.37,0.25,0.29,-0.22,34.15,5.170362,6.749487259355148,-235.2954882613511,10.385441733503683,0.44158804331639234,0.10693351049311628,-0.16259591119444108
7130173,1724.0,1,201210,240260,-0.46,-0.2,9.58,0.29,0.21,-0.33,34.15,5.210685,-9.695466077178532,56.8227832663876,9.593122536484145,0.486929152957594,-0.18533340793787803,0.04771982642390819
7170173,1789.0,1,201212,240083,-0.53,0.15,9.56,0.29,0.18,-0.27,34.15,5.250685,17.21773810021596,184.69223106106713,9.575855053205432,0.43520110293977887,0.2929798526146289,0.1397817063300932
7210164,1767.0,1,200871,239609,-0.78,0.13,9.65,0.16,0.18,-0.14,34.15,5.290676,22.619730409133723,201.72815009669242,9.682344757340548,0.2785677655436824,0.38898642759273194,0.15204701879838153
7250164,1754.0,1,200919,240088,-1.04,-0.04,9.79,0.02,0.32,-0.06,34.15,5.330676,-10.90022217522581,263.34694961989334,9.845166326680316,0.32619012860600183,-0.20674486135045708,0.19641056786740513
7290173,1744.0,1,201264,240937,-1.24,-0.43,10.39,-0.06,0.27,-0.08,34.15,5.370685,-13.207568185926782,498.4049673239801,10.472564155926667,0.2879236009777594,-0.24775202594991375,0.3656447623530714
7330194,1711.0,1,201623,241595,-1.35,-0.59,10.55,-0.17,0.09,-0.21,34.15,5.410706,-49.36721917683954,904.8009703041675,10.65237532196458,0.28478061731796284,-0.8903971919399036,0.6582367823076016
7370194,1729.0,1,201769,242144,-1.31,-0.9,10.43,-0.13,-0.08,-0.21,34.15,5.450706,-35.21844549789447,1334.9681374839765,10.550402835911052,0.25961509971494334,-0.6389389847867009,0.9679432741044574
7410206,1787.0,1,201890,242472,-1.1,-0.83,9.82,-0.04,-0.18,-0.18,34.15,5.490718,25.826968918839977,1569.0204711637455,9.916213995270574,0.2576819745345025,0.44598687610252646,1.1364534085158282
7450211,1793.0,1,201678,242280,-0.8,-0.56,9.28,0.08,-0.23,-0.2,34.15,5.530723,26.23238151643539,1430.528867461744,9.331237860005498,0.31511902513177464,0.4531920464771413,1.0367439188142615
7490190,1773.0,1,201245,240755,-0.55,-0.54,9.19,0.09,-0.14,-0.22,34.15,5.570702,10.476433460814203,890.4793289136311,9.222266532691407,0.2758622844826744,0.17317043188581244,0.6479256622355724
7530193,1776.0,1,200274,237706,-0.91,-0.64,9.75,0.12,0.08,-0.22,34.15,5.610705,6.191140592289908,108.0403055186526,9.813266530569727,0.2630589287593181,0.09701032880570803,0.08459479119462938
7570173,1778.0,1,199311,235740,-1.01,-0.58,10.11,0.12,0.05,-0.41,34.15,5.650685,17.223421470525977,-625.9400837716639,10.176865922276857,0.4301162633521313,0.29308085996276895,-0.44384742559542084
7610172,1808.0,1,198894,235169,-0.75,-0.47,9.96,-0.01,0.04,-0.66,34.15,5.690684,34.092532933061634,-1029.2942482515734,9.99924997187289,0.6612866246946176,0.5928861025152833,-0.7342494198985049
7650193,1792.0,1,198809,235209,-0.44,-0.17,9.59,-0.1,0.04,-0.88,34.15,5.730705,34.24403133911734,-978.7337059691622,9.601593617728257,0.8865664103720601,0.5955785985886374,-0.69784745952507
7690193,1793.0,1,199178,236293,-0.42,0.07,9.52,0.03,0.13,-0.98,34.15,5.770705,17.679682171602803,-573.767820564731,9.529517301521624,0.9890399385262457,0.3011897251189043,-0.4062850781181497
7730163,1750.0,1,199684,237244,-0.38,0.36,9.46,0.12,0.14,-1.07,34.15,5.810675,-7.288969515980888,-66.278766661025,9.474470961483814,1.0857716150277645,-0.1425640962978444,-0.04090932073468498
7770164,1752.0,1,200085,237627,-0.8,0.29,10.01,0.12,0.18,-1.13,34.15,5.850676,-19.14840386632689,301.1109280334484,10.046103722339323,1.1505216208311775,-0.3533351614981369,0.22359941481598108
7810164,1746.0,1,200046,237375,-1.19,0.0,10.45,0.1,0.05,-1.13125,34.15,5.890676,-14.123047550019084,437.0715340035037,10.517537734660142,1.136761436054197,-0.26402232645821677,0.3214866677498143
7850164,1778.0,1,199934,237214,-1.41,-0.03,10.79,0.21,-0.01,-1.13125,34.15,5.930676,14.992970507243038,424.0855980158783,10.8817783473107,1.1506200773930553,0.253440307848709,0.3121372125047912
7890193,1801.0,1,199916,237036,-1.75,0.0,10.884999999999998,0.31,-0.03,-1.13125,34.15,5.970705,38.45927941201207,409.83946207365676,11.024777775538151,1.1733399177135329,0.670493834860558,0.301880453921256
7930173,1781.0,1,199855,237089,-1.78,0.12,10.57,0.31,-0.19,-1.13125,34.15,6.010685,25.142296485418242,457.710338409822,10.719500921218302,1.188245160941125,0.43381857752753034,0.3363459415281185
7970174,1770.0,1,199904,237723,-1.76,0.22,9.96,0.39,-0.2,-1.13125,34.15,6.050686,10.276110761930012,481.081902187771,10.116699066395126,1.2131885931296915,0.16961020908088698,0.35317271394994176
8010174,1762.0,1,199982,238166,-1.42,0.44,9.48,0.36,-0.27,-1.13125,34.15,6.090686,8.601411453272968,320.3688724743627,9.59585327107496,1.2174672736874697,0.1398467189557833,0.23746451393806559
8050174,1755.0,1,199839,237028,-1.08,0.58,8.91,0.23,-0.24,-1.13125,34.15,6.130686,4.705855198827664,-99.77711633446802,8.993936846565024,1.1790786922423797,0.07061318580054109,-0.06502705251408367
8090861,1747.0,1,198713,234089,-0.92,0.4,8.9,0.2,-0.12,-1.13125,34.21,6.171373,-7.80549728237902,-674.1308566999988,8.95636086812049,1.1550439656134308,-0.1517440541535988,-0.4785432284351919
8129173,1739.0,1,198163,233434,-0.91,0.37,9.12,0.19,-0.04,-1.13125,34.21,6.209685,1.4837597361992432,-1178.122535734584,9.172753130876247,1.1477920380016584,0.013348693011691695,-0.8414009886681185
8169173,1801.0,1,198230,233443,-1.03,0.49,9.32,0.2,0.02,-1.13125,34.21,6.249685,45.331963184176125,-1440.546563584914,9.38953672978598,1.1489676072457398,0.7926381831195894,-1.0303378281799855
8209161,1792.0,1,198377,233658,-1.32,0.35,9.89,0.06,0.01,-1.13125,34.21,6.289673,65.37835978010587,-1473.2843892475234,9.98383693777097,1.132884178766744,1.1489115296496757,-1.0539080071908484
8249165,1783.0,1,198549,234031,-1.33,0.11,10.25,-0.19,-0.09,-1.13125,34.21,6.329677,31.38261868045539,-1441.1507922287724,10.336512951667986,1.1506200773930553,0.5447243186772027,-1.0307728533232559
8289194,1710.0,1,198493,233992,-1.19,-0.16,10.53,-0.32,-0.12,-1.02,34.21,6.369706,-11.017191577565988,-1501.2463205607803,10.598235702228932,1.0757323087088162,-0.2088236928359032,-1.074039696244824
8329210,1719.0,1,198339,234049,-1.02,-0.3,10.56,-0.3,-0.29,-0.92,34.21,6.409722,-22.563767805273592,-1652.7897099510583,10.61338777205469,1.010198000393982,-0.4140345063566428,-1.1831460508528908
8369248,1712.0,1,198454,234875,-0.66,-0.22,9.9,-0.26,-0.34,-0.92,34.21,6.44976,-7.936801149871647,-1721.1869146951246,9.924414340403166,1.0146920715172658,-0.1540776440364528,-1.2323898331454188
8409210,1723.0,1,198848,236240,-0.54,-0.3,9.92,-0.09,-0.2,-0.87,34.21,6.489722,-5.969448210248218,-1486.430310385802,9.93921526077386,0.897217922246318,-0.11911298531331069,-1.0633726465864266
8449207,1670.0,1,199540,237760,-0.39,-0.03,9.78,0.08,-0.15,-0.82,34.21,6.529719,-48.32904229747142,-856.6859082519597,9.787818960320015,0.8374365647617734,-0.8719462574124612,-0.6099769799848982
8489197,1644.0,1,200477,239878,-0.39,0.21,9.55,0.03,-0.1,-0.85,34.21,6.569709,-76.44440134345288,41.78446565738727,9.560266732680633,0.8563877626402656,-1.3716247411874738,0.03689272258019815
8529176,1606.0,1,201846,241823,-0.51,0.28,9.74,-0.03,-0.04,-0.85,34.21,6.609688,-104.16566288372967,926.792490780748,9.757361323636632,0.85146931829632,-1.8642991513602973,0.6740699680449815
8569240,1579.0,1,202653,242467,-0.36,0.07,9.71,-0.12,-0.27,-0.91,34.21,6.649752,-141.3678323358313,1533.369722374712,9.716923381400104,0.9567653839891994,-2.5254724123727397,1.1107860187664675
8609198,1627.0,1,202850,242942,-0.35,-0.04,9.85,-0.33,-0.23,-0.96,34.21,6.68971,-68.09164879789041,1770.4850248532712,9.856297479276892,1.0408650248711404,-1.2231759619814662,1.2815013919629736
8649210,1715.0,1,202930,242092,-0.41,-0.45,10.37,-0.4700000000000001,-0.28,-1.04,34.21,6.729722,-9.942039227309856,1742.0694573932453,10.387853483756881,1.1751170154499508,-0.18971561403369025,1.261043099508536
8689212,1630.0,1,202752,242433,-0.24,-0.73,10.24,-0.46,-0.25,-1.06,34.21,6.769724,-50.90970132324899,1623.0209566181725,10.268792528822463,1.182243629714282,-0.9178108607074758,1.1753320170694816
8729211,1715.0,1,203122,243233,-0.0,-0.83,10.18,-0.31,-0.13,-0.99,34.21,6.809723,-10.15908006199441,1503.8823876852016,10.213779907556262,1.0455142275454696,-0.1935729588755283,1.0895560884605346
8769206,1745.0,1,203264,243713,-0.08,-0.69,10.03,-0.22,0.0,-0.84,34.21,6.849718,69.49206611381437,1339.1088743954167,10.05402406999307,0.8683317338436963,1.2220221216275835,0.9709244711834986
8809193,1799.0,1,203181,243419,-0.11,-0.54,10.23,-0.13,-0.05,-0.58,34.21,6.889705,82.08488762038674,1030.5854319566308,10.244832843926737,0.5964897316802695,1.4458272648079555,0.7487975394112624
8849206,1744.0,1,202546,242260,0.14,-0.51,9.84,-0.29,-0.37,-0.46,34.21,6.929718,65.08372948015737,552.0130645670334,9.854202149337103,0.6577233460962139,1.1436752308241238,0.4042408640451163
8889193,1747.0,1,201971,242030,0.41,-0.7,9.93,-0.46,-0.24,-0.44,34.21,6.969705,43.0785187720005,-5.087021161455947,9.96308185251933,0.680294054067798,0.7525889813539044,0.003146763205528637
8929193,1737.0,1,201915,242101,0.34,-0.88,10.45,-0.4,-0.24,-0.41,34.21,7.009705,51.50252194939387,-491.9263258837065,10.492497319513596,0.6210475022089695,0.9023040580175774,-0.34736184051439234
8969193,1759.0,1,201795,242110,0.48,-0.95,10.17,-0.22,-0.24,-0.35,34.21,7.049705,66.35267950218186,-796.3840305391585,10.225546440166413,0.4780167361086848,1.1662275667894755,-0.5665615721618548
9010193,1723.0,1,201894,242450,0.55,-0.92,10.1,0.03,0.02,-0.2,34.21,7.090705,33.750715513315406,-887.0474879745894,10.156716989263805,0.20322401432901577,0.5868111735148267,-0.6318363385290515
9050164,1707.0,1,202016,242921,0.53,-0.81,9.94,0.19,0.1,-0.04,34.21,7.130676,18.752955068318304,-793.9437084944733,9.987021578028155,0.21840329667841554,0.32026440144903884,-0.5648046189655686
9090163,1710.0,1,202244,243503,0.46,-0.77,9.98,0.31,0.11,0.07,34.21,7.170675,23.23320022484467,-571.7592231855638,10.020224548382137,0.33630343441600474,0.39988928203804963,-0.40483895276225007
9130830,1690.0,1,202629,244546,0.54,-0.91,9.75,0.26,0.25,0.07,33.95,7.211342,-1.8590913540471201,-284.1860319444439,9.807252418491125,0.36742346141747667,-0.04606192171772234,-0.19779552641705614
9169141,1684.0,1,203146,245320,0.12,-0.8,10.31,0.19,0.32,0.06,33.95,7.249653,3.88655172261228,-3.48779578453018,10.341687483191512,0.3769615364994153,0.056052165324958214,0.004298153917951729
9209142,1686.0,1,203479,245347,-0.03,-1.12,10.29,0.19,0.28,0.17,33.95,7.289654,-12.37759414837775,201.5281920472037,10.35081639292283,0.3786819245752298,-0.23300136358145995,0.15190305544938934
9249164,1616.0,1,203506,245287,0.01,-1.2,10.14,-0.07,0.27,0.16,33.95,7.329676,-60.682567887109464,294.12053794011064,10.210763928325834,0.32155870381627055,-1.09149852867497,0.2185665593186805
9289165,1664.0,1,203619,245325,0.08,-1.33,10.3,-0.29,0.1,0.08,33.95,7.369677,-36.353515851106614,290.08303502904687,10.38582206664451,0.31701734968294715,-0.6591119525991848,0.21565968739165015
9329161,1663.0,1,203618,245251,0.36,-1.28,9.62,-0.27,-0.14,0.0,33.95,7.409673,-18.88175553825225,245.90098750345905,9.711457151220921,0.304138126514911,-0.3485961705410741,0.18385003760070714
9369173,1663.0,1,203556,245116,0.07,-1.1,9.62,-0.0,0.01,0.1,33.95,7.449685,-33.266706626242915,219.200107748978,9.682938603543864,0.1004987562112089,-0.6042518261231165,0.16462626501279737
9409160,1673.0,1,203622,244983,-0.27,-0.74,9.92,0.28,0.08,0.22,33.95,7.489672,-20.318340615735252,231.9916172525012,9.951226055115018,0.3649657518178932,-0.37412779018557285,0.1738357394575691
9449165,1683.0,1,203747,245070,-0.5,-0.47,9.8,0.31,0.1,0.25,33.95,7.529677,-8.459008654986361,266.098559658964,9.823996131921064,0.4106093033529562,-0.16335854469807704,0.1983916383837362
9489161,1712.0,1,203806,244998,-0.61,-0.37,9.93,0.16,-0.0,0.18,33.95,7.569673,7.242000628560289,292.75096461706016,9.955596416086783,0.2408318915758459,0.11568667395657639,0.2175805106810744
9529173,1707.0,1,203680,245095,-0.55,-0.22,9.72,-0.03,-0.13,0.16,33.95,7.609685,15.504923926152244,307.7075925926511,9.738033682422751,0.2083266665599966,0.26253896839597846,0.22834880062240026
9569193,1725.0,1,203696,245490,-0.6,-0.23,9.42,-0.18,-0.06,0.21,33.95,7.649705,12.581530737313233,337.64015088590446,9.441890700490024,0.2830194339616981,0.21058314333650574,0.2498992775690367
9609193,1727.0,1,203875,245618,-0.94,-0.4,9.75,-0.19,0.08,0.24,33.95,7.689705,28.662585311186003,409.1891201272878,9.803371868903067,0.3163858403911275,0.4963826934626306,0.30141222868686923
9649173,1751.0,1,203867,245703,-0.97,-0.63,9.82,-0.08,0.04,0.22,33.95,7.729685,35.1286190164606,505.2897788829777,9.887881471781506,0.23748684174075835,0.6112998785003771,0.37060160470949494
9689173,1745.0,1,203719,245551,-0.82,-0.63,10.06,0.0,0.02,0.17,33.95,7.769685,33.66965478163004,546.9432093296128,10.11300647680995,0.17117242768623692,0.585370526662834,0.40059073172610754
9729160,1746.0,1,203635,245410,-0.66,-0.69,10.44,-0.02,-0.02,0.16,33.95,7.809672,29.311208971828517,425.87097565735223,10.483572864248142,0.16248076809271922,0.5079103174478122,0.31342262684614725
9769193,1726.0,1,203396,244914,-0.44,-0.53,10.34,-0.03,-0.1,0.21,33.95,7.849705,-1.846999661936947,80.56886422458108,10.362919472812669,0.23452078799117146,-0.045847022865817086,0.06481623914108828
9809193,1727.0,1,202997,243015,-0.33,-0.56,10.56,-0.03,-0.1,0.25,33.95,7.889705,8.533188327062307,-432.16077877644153,10.57998582229674,0.2709243436828813,0.13863422765494013,-0.3043325734360574
9849193,1787.0,1,201848,240563,-0.06,-0.43,10.23,-0.07,-0.21,0.17,33.95,7.929705,43.47217021798878,-934.4028127689816,10.239208953820603,0.27910571473905726,0.7595851273873081,-0.6659306456471988
9889194,1744.0,1,201685,240309,0.33,-0.28,9.84,-0.04,-0.19,0.11,33.95,7.969706,18.81542250310544,-1216.1599646911122,9.849512678300384,0.22315913604421397,0.3213746000792147,-0.8687867111916003
9929173,1761.0,1,201928,240475,0.29,-0.12,9.67,-0.05,-0.07,0.02,33.95,8.009685,5.44302564828201,-1161.5716040318907,9.675091730831289,0.08831760866327848,0.08371450212606531,-0.8294848514435685
9969170,1743.0,1,202096,240838,0.34,-0.2,9.77,-0.04,-0.02,-0.08,33.95,8.049682,5.615841956580673,-819.2156086236164,9.77795990991986,0.09165151389911681,0.08678586930160254,-0.5829995722934821
10010197,1751.0,1,202416,242233,0.3,-0.26,9.74,-0.04,0.15,-0.21,33.95,8.090709,-14.016871556175529,-367.0932051629524,9.748086991815368,0.2611512971440119,-0.26213532015926516,-0.25748601821036776
10050173,1744.0,1,202767,243065,0.1,-0.45,10.07,0.0,0.26,-0.32,33.95,8.130685,-8.77276029485283,-3.135831409514685,10.080545620153703,0.41231056256176607,-0.168934676357431,0.004551556920645233
10090164,1747.0,1,202836,243439,-0.11,-0.39,10.06,0.09,0.28,-0.36,33.95,8.170676,-26.496527833253218,163.4418175778738,10.06815772621784,0.4648655719667784,-0.4839292412813497,0.12448209373469166
10130859,1734.0,1,202802,243755,-0.21,-0.59,10.14,0.11,0.27,-0.28,34.21,8.211371,-36.36787677810005,156.81639023118805,10.159320843442243,0.40422765862815474,-0.6593671812880287,0.11971199964859586
10169173,1767.0,1,202674,243908,-0.04,-0.35,9.82,-0.03,0.16,-0.25,34.21,8.249685,-13.838478091886591,96.12636383380178,9.82631670566342,0.29832867780352595,-0.2589648333230315,0.07601713728654966
10209242,1745.0,1,202601,244293,-0.25,-0.45,9.62,-0.18,0.26,-0.25,34.21,8.289754,-44.30869764669889,101.9483361898341,9.633763542873574,0.4031128874149275,-0.8004949301836123,0.0802087696827324
10249194,1735.0,1,202627,244496,-0.4,-0.41,9.76,-0.13,0.21,-0.2,34.21,8.329706,-54.05146197999835,206.7226841357252,9.776793953029797,0.3178049716414141,-0.9736476081159315,0.1556429222829035
10289193,1763.0,1,202652,244560,-0.51,-0.34,9.67,-0.02,0.2,-0.12,34.21,8.369705,-41.93760128492624,328.66914413990924,9.68940658657691,0.2340939982143925,-0.7583547664034757,0.24344044193682596
10329193,1731.0,1,202734,244504,-0.8,-0.31,9.89,0.05,0.19,-0.0,34.21,8.409705,-72.13522338232859,332.4680606377966,9.927144604567822,0.19646882704388502,-1.2950401417729753,0.2461755393383859
10369170,1743.0,1,202678,244122,-0.82,-0.36,9.73,0.02,0.15,0.07,34.21,8.449682,-69.61974850779563,139.93954971470814,9.771125830732098,0.16673332000533067,-1.2503340197837411,0.10756121858540697
10409183,1771.0,1,202158,242702,-1.06,-0.16,9.8,-0.14,0.16,-0.05,34.21,8.489695,-52.826520837500645,-191.68068305153153,9.858458297320125,0.21840329667841557,-0.9518774172463836,-0.13119465758298118
10449193,1773.0,1,201547,242361,-1.03,-0.37,9.83,-0.11,0.05,-0.08,34.21,8.529705,-42.11650834813994,-492.443224225841,9.890738091770503,0.14491376746189438,-0.7615343811449078,-0.34773399065594685
10489193,1821.0,1,201601,242881,-1.25,-0.46,10.12,0.11,0.23,-0.02,34.21,8.569705,-22.850057323868686,-593.8412461599003,10.207276816075872,0.25573423705088844,-0.4191225691602626,-0.4207372973802173
10529173,1814.0,1,201861,243232,-1.84,-0.08,10.58,0.26,0.27,0.28,34.21,8.609685,-6.700718572526382,-445.30348404137663,10.739106108052011,0.46786750261158344,-0.1321094427035635,-0.31379489750650813
10569163,1858.0,1,202157,243561,-2.0,0.19,10.24,0.05,0.02,0.47,34.21,8.649675,2.9492797772385675,-141.32432475207662,10.43521442041322,0.4730750469005948,0.03939455751055144,-0.09493970309439119
10609141,1827.0,1,202476,244167,-1.67,0.33,9.52,-0.37,-0.22,0.68,34.21,8.689653,-6.3957485123263265,153.31780666849443,9.670997880260341,0.8047981113297918,-0.12668938112695993,0.11719313227765335
10649173,1887.0,1,202490,244250,-1.5,0.19,9.62,-0.4700000000000001,-0.33,0.81,34.21,8.729685,29.563354691761045,310.76602995471563,9.738095296309233,0.9929249719893242,0.5123915616965586,0.23055077691918607
10689172,1909.0,1,202366,244152,-1.18,-0.09,9.87,-0.4700000000000001,-0.34,0.91,34.21,8.769684,61.157504768047176,299.47710924017963,9.940694140752948,1.079166344916297,1.073896644397442,0.22242311795908143
10729193,1905.0,1,202416,244214,-0.83,-0.82,9.87,-0.38,-0.14,0.93,34.21,8.809705,46.37938608982619,171.1326620000046,9.938722251879263,1.0143470806385753,0.8112534420785978,0.13001925376610315
10769193,1933.0,1,202425,244252,-0.94,-1.52,10.39,-0.25,-0.17,0.81,34.21,8.849705,77.35748644765548,7.614365870570519,10.542585071983058,0.8645808232895292,1.361809819171806,0.012291352376367692
10809196,1937.0,1,202105,244391,-0.35,-1.66,9.95,-0.1,-0.5,0.6,34.21,8.889708,73.09624070648991,-128.31689873361208,10.093592026627586,0.7874007874011811,1.2860770921788467,-0.08557477572000163
10849193,1872.0,1,201880,245029,0.52,-1.28,9.76,-0.03,-0.59,0.29,34.21,8.929705,16.775043679986606,-217.19088162236483,9.857301862071589,0.6581033353509158,0.28511209334774235,-0.14956117810617928
10889172,1885.0,1,202021,245612,0.75,-1.88,9.74,-0.21,-0.37,-0.08,34.21,8.969684,14.660997260652742,-277.87993197382485,9.948090268991331,0.43289721643826723,0.24754033380822751,-0.19325533774662626
10929192,1890.0,1,202086,245616,0.49,-1.54,9.98,-0.16,-0.31,-0.0,34.21,9.009704,38.12594946223297,-336.70265732835884,10.110000000000001,0.34885527085024814,0.6645697488963693,-0.23560580355953123
10969193,1911.0,1,201955,245009,-0.06,-1.15,9.77,-0.12,-0.3,0.02,34.21,9.049705,38.99673999239993,-388.8553834346897,9.837631828849867,0.3237282811247729,0.680045819861277,-0.27315408495424426
11009193,1873.0,1,201849,244930,-1.24,-1.07,10.18,-0.3,0.08,0.07,34.21,9.089705,22.981260713259086,-385.66398056583296,10.310911695868604,0.31827660925679097,0.3954117026144251,-0.27085637777937077
11050172,1898.0,1,202124,244790,-1.57,-1.1,10.63,-0.05,0.0,0.42,34.21,9.130684,31.059480385074796,-267.2798029406866,10.801472121891534,0.422965719651132,0.5389813632619314,-0.1856235865905112
11090173,1902.0,1,202248,244998,-1.68,-0.91,10.04,0.14,-0.12,0.55,34.21,9.170685,52.75672022598345,-19.61905597056475,10.220181016009452,0.5800862004909271,0.9245942194974497,-0.007315833344797133
11130859,1891.0,1,202688,245591,-1.83,-0.96,10.06,-0.01,0.16,0.68,34.17,9.211371,33.32157619240212,293.12010674003295,10.270058422423896,0.6986415389883428,0.579184321414112,0.21784628110848722
11169172,1840.0,1,202943,245905,-1.75,-1.18,10.08,-0.14,0.15,0.76,34.17,9.249684,-6.521323281341026,553.7425410349294,10.29860670187963,0.787210264160726,-0.12892115096063134,0.40548603134374783
11209173,1825.0,1,203089,245952,-1.63,-1.32,9.88,-0.22,-0.02,0.91,34.17,9.289685,-22.566510122606484,662.8543521516425,10.10018316665594,0.9364293886887575,-0.4140832440222258,0.4840430175872682
11249193,1833.0,1,203011,245724,-1.39,-1.4,9.68,-0.29,-0.17,1.09,34.17,9.329705,-6.895729854055564,604.711973792326,9.87899286364759,1.1406577050105786,-0.13557526867129027,0.4421823796765594
11289194,1854.0,1,202796,245501,-1.12,-1.28,9.3,-0.39,-0.23,1.23875,34.17,9.369706,15.942239076443881,457.8352858551726,9.454247722584807,1.3189016500482513,0.2703111249198269,0.33643589966047016
11329193,1847.0,1,202689,245428,-1.14,-1.54,9.49,-0.4700000000000001,-0.2,1.23875,34.17,9.409705,17.24117633874691,339.7420255242218,9.681492653511647,1.3399259541108979,0.29339640726265415,0.2514125595442692
11369196,1836.0,1,202684,245442,-1.09,-1.68,9.69,-0.4700000000000001,-0.41,1.23875,34.17,9.449708,7.329098004914315,324.2741426787074,9.894776399696962,1.3869035880334293,0.1172346067034492,0.24027618257943545
11409193,1833.0,1,202732,245519,-0.97,-2.58,10.15,-0.43,-0.33,1.23875,34.17,9.489705,15.004407536358688,390.74141723205116,10.517594782078268,1.3521470195581544,0.25364357174294033,0.288130477355517
11449196,1838.0,1,202783,245565,-0.59,-3.22,10.35,-0.33,-0.42,1.23875,34.17,9.529708,19.768626394778718,441.36720902855654,10.855367336023226,1.3490002084877526,0.3383153574261432,0.3245794152754579
11489193,1794.0,1,202687,245566,-0.04,-3.2,9.81,-0.19,-0.58,1.23875,34.17,9.569705,-12.569177730260838,375.0803095040851,10.31880322518072,1.3809422734133385,-0.23640627096873412,0.2768549847048806
11529194,1775.0,1,202502,245319,0.29,-3.18,9.75,0.03,-0.59,1.23875,34.17,9.609706,-31.129131941983722,165.7577943732942,10.259580888125987,1.3724072145321884,-0.5662619119470372,0.12614952236039326
11569163,1788.0,1,202173,244548,0.73,-2.96,9.41,0.15,-0.54,1.23875,34.17,9.649675,-8.557021400074902,-111.89865068761813,9.891541841391563,1.35963287783872,-0.16510047016224674,-0.07375416645055938
11609164,1774.0,1,201820,243868,0.85,-3.19,9.4,0.11,-0.31,1.23875,34.17,9.689676,-18.70682518559568,-330.79007856784256,9.96286103486343,1.2816791964060275,-0.34548723164263395,-0.23134893747326696
11649164,1741.0,1,201671,243711,0.72,-3.375,9.74,0.09,-0.25,1.23875,34.17,9.729676,-47.14588577884667,-401.6299362211704,10.333277553612891,1.2669260288193624,-0.8509186811923583,-0.28235135110942927
11689164,1751.0,1,201812,243950,0.84,-3.375,9.56,0.06,-0.16,1.07,34.17,9.769676,-28.162051015584115,-336.913911761131,10.172994888428875,1.083558950865157,-0.5135296492675385,-0.23575789994029253
11729164,1755.0,1,201922,244302,0.94,-2.77,9.28,0.06,-0.12,0.92,34.17,9.809676,-25.381564452917964,-236.99600357728417,9.730102774380134,0.9297311439335568,-0.46411362340361134,-0.16382022739736576
11769164,1712.0,1,201933,244311,0.76,-2.4,9.26,0.11,-0.11,0.84,34.17,9.849676,-55.90009806622683,-208.79018410366845,9.596103375850012,0.8542833253669416,-1.0065023788875838,-0.14351294673087658
11809164,1727.0,1,201766,243942,0.62,-1.97,9.21,0.07,-0.02,0.76,34.17,9.889676,-44.2671732632894,-284.3434224469558,9.438718133306027,0.7634788798650556,-0.7997569406417462,-0.19790884250460106
11849165,1741.0,1,201349,243987,0.62,-1.67,9.13,-0.09,0.14,0.58,34.17,9.929677,-20.36163871283122,-404.47688009699317,9.30216103924244,0.6034069936618236,-0.3748973029444842,-0.2844010589146627
11889164,1740.0,1,201343,244589,0.38,-1.63,9.23,-0.24,0.28,0.39,34.17,9.969676,-19.729790028151363,-472.2083325656069,9.380522373514175,0.5367494760127857,-0.36366781118449215,-0.3331655210326922
11929164,1760.0,1,201577,245068,0.08,-1.55,9.78,-0.18,0.26,0.29,34.17,10.009676,-0.06237468736277388,-421.3790373129201,9.902388600736693,0.42906875905849867,-0.014129885626209265,-0.2965700671852441
11969164,1760.0,1,201715,245287,0.25,-1.53,9.79,-0.1,0.14,0.2,34.17,10.049676,13.260881573102989,-246.11470397097546,9.911987691679201,0.2638181191654584,0.22265686414595887,-0.17038539769428027
12009164,1761.0,1,201727,245250,-0.16,-1.93,10.56,-0.1,0.16,0.21,34.17,10.089676,-1.3362540993467469,12.690957044672059,10.736111959177773,0.2823118842698621,-0.03676982887044593,0.01594633435262036
12049173,1734.0,1,201823,245816,-0.27,-1.9,10.83,-0.01,-0.0,0.25,34.17,10.129685,-1.1411133913226923,291.2724336150157,10.998718107125029,0.2501999200639361,-0.03330170267832537,0.21651601602738393
12089194,1746.0,1,202277,246588,-0.0,-1.36,9.95,0.06,-0.05,0.29,34.17,10.169706,-18.65127029256153,518.2777766003494,10.042514625331645,0.3003331483536241,-0.34449988573422186,0.3799525443334653
12129173,1698.0,1,202483,246182,-0.07,-1.08,10.01,0.08,0.08,0.31,34.17,10.209685,-30.741391580416323,631.1832908581622,10.068336506096724,0.33,-0.5593708202967578,0.46124087452973694
12169851,1757.0,1,202073,245250,-0.07,-1.1,10.04,0.09,-0.02,0.24,34.03,10.250363,-6.881738151894673,601.9562092940303,10.10032177705245,0.2570992026436488,-0.1353266020079995,0.44019831808352583
12210173,1686.0,1,202037,245087,-0.45,-1.52,10.5,-0.09,0.17,0.23,34.03,10.290685,-42.61641152573657,457.7664099906548,10.618987710700113,0.299833287011299,-0.7704188795220145,0.3363863112585725
12250173,1711.0,1,202017,244872,-0.86,-1.35,10.67,-0.07,0.17,0.3,34.03,10.330685,-50.16226516624147,276.53524728998406,10.789392939364104,0.3518522417151836,-0.9045270977279124,0.20590571699967056
12290173,1744.0,1,201783,244377,-0.57,-1.02,9.98,0.11,-0.03,0.38,34.03,10.370685,12.639051014360605,152.68920998173104,10.048168987432486,0.39673668849754745,0.21160541891101803,0.11674056292911625
12330173,1758.0,1,201571,244189,-0.45,-0.64,9.29,0.15,0.09,0.41,34.03,10.410685,-1.8916821752198745,147.24968755690492,9.322885819315818,0.44575778176045333,-0.046641140075985216,0.11282428215323119
12370163,1730.0,1,201851,244215,-0.93,-0.67,9.77,0.19,0.29,0.46,34.03,10.450675,-4.476664687627681,250.24600444557655,9.837006658531852,0.5760208329565867,-0.0925825822703531,0.18697830971585586
12410164,1776.0,1,202050,244249,-1.07,-0.66,9.85,0.22,0.22,0.44,34.03,10.490676,16.15424612805818,385.1620631964234,9.92990432985132,0.5388877434122992,0.2740790071626605,0.2841135223280204
12450164,1712.0,1,202135,244263,-1.11,-0.73,9.82,0.01,0.15,0.33,34.03,10.530676,-27.18228354167898,460.5674433270603,9.909460126565927,0.36262928728937494,-0.496116792294511,0.33840296495557953
12490164,1756.0,1,202172,244316,-1.38,-0.9,10.12,-0.09,0.1,0.25,34.03,10.570676,-3.398246029183097,433.2324617819574,10.253233636272997,0.28390139133156783,-0.07341645320740973,0.31872265952183887
12530173,1755.0,1,201973,244337,-0.99,-0.81,9.79,-0.09,-0.12,0.18,34.03,10.610685,10.231138251472668,330.31924254103143,9.873211230395103,0.23430749027719963,0.16881093791383092,0.24462845958652618
12570193,1729.0,1,201983,244246,-0.83,-0.97,9.79,-0.1,-0.1,0.12,34.03,10.650705,-31.56280391580498,209.82687951551065,9.872887115732661,0.1854723699099141,-0.5739693203418696,0.15787784287721168
12610193,1788.0,1,201832,244029,-0.84,-1.11,10.1,0.0,-0.17,0.15,34.03,10.690705,39.952940518051186,93.52656994976142,10.195474486261048,0.22671568097509268,0.6970398347006707,0.07414536950729352
12650173,1839.0,1,201758,243946,-0.69,-1.05,10.06,0.09,-0.23,0.17,34.03,10.730685,74.45519089565484,-64.59754396754688,10.138155650807498,0.299833287011299,1.310228950561205,-0.039698894597934464
12690173,1778.0,1,201628,243779,-0.72,-1.08,9.97,0.04,-0.19,0.17,34.03,10.770685,28.342295111288994,-337.5325791955714,10.054138451403979,0.2580697580112788,0.49069035564859836,-0.2362033205472758
12730173,1830.0,1,201591,242806,-0.91,-1.2,10.04,0.08,-0.12,0.19,34.03,10.810685,61.6089654515065,-739.9889922214852,10.152324856898542,0.23853720883753127,1.0819202015366571,-0.5259589627469546
12770173,1814.0,1,200900,241111,-1.02,-1.09,9.96,0.24,-0.16,0.16,34.03,10.850685,62.15152037028509,-1176.9864748900702,10.071251163584394,0.3298484500494128,1.0915627253520772,-0.8405830614866256
12810173,1817.0,1,200479,240779,-0.69,-0.73,9.48,0.35,-0.16,0.05,34.03,10.890685,45.61950877910008,-1486.7870777305536,9.53306876089751,0.3880721582386451,0.7977485694622573,-1.0636295075724826
12850173,1831.0,1,200648,241857,-0.78,-1.21,9.4,0.41,0.11,-0.16,34.03,10.930685,78.44759793860668,-1554.1850347944014,9.509600412215017,0.4536518488885502,1.3811837583789621,-1.1121538637509594
12890173,1815.0,1,201163,242867,-0.17,-0.54,10.03,0.39,0.2,-0.11,34.03,10.970685,38.75804863246033,-1396.0778035669575,10.045964363862733,0.45188494110780014,0.6758036923952981,-0.9983217546381367
12930174,1743.0,1,201421,243557,-0.53,-0.89,10.11,0.31,0.04,0.02,34.03,11.010686,-6.833683868795173,-1139.8252865441787,10.162927727776085,0.3132091952673165,-0.13447256022682277,-0.8138282039528392
12970165,1802.0,1,201728,244068,-0.69,-0.62,9.9,0.16,0.08,0.07,34.03,11.050677,20.031711959772604,-913.5653014303018,9.94336462169622,0.19209372712298547,0.342991029396195,-0.6509283092838981
13010163,1789.0,1,201977,244170,-1.0,-0.44,9.98,0.12,0.15,0.09,34.03,11.090675,41.62829484605725,-746.7050572289644,10.039621506809906,0.21213203435596426,0.7268149661167366,-0.530794313026667
13050165,1808.0,1,202178,244236,-1.04,-0.33,9.79,0.11,-0.01,0.08,34.03,11.130677,24.911930669931806,-564.3037074676688,9.850614194049017,0.13638181696985854,0.4297244152866142,-0.39947122181090017
13090175,1751.0,1,202604,244584,-1.13,-0.27,9.62,-0.12,0.13,0.05,34.03,11.170687,0.6992853640496917,-273.88464425348224,9.68990196028835,0.18384776310850237,-0.0005933293610252338,-0.19037885939589905
13130175,1747.0,1,203190,245085,-1.16,-0.56,9.71,-0.19,0.19,0.07,34.03,11.210687,-29.52522619572601,132.68544595256753,9.795065084010417,0.2776688675382964,-0.5377565960413301,0.10233849774868665
13170865,1680.0,1,203671,245264,-1.22,-0.9,9.86,-0.17,0.13,0.05,34.17,11.251377,-78.4528762088138,547.7244225034706,9.975870889300843,0.21977260975835913,-1.4073202367983404,0.401153180025003
13209177,1706.0,1,203961,245718,-1.42,-0.75,10.16,-0.17,0.12,-0.03,34.17,11.289689,-59.9685845835206,814.2549152909837,10.286131439953508,0.2102379604162864,-1.078809304468568,0.5930465418993733
13249195,1739.0,1,204303,245916,-1.34,-0.78,10.14,-0.11,0.01,-0.1,34.17,11.329707,-26.70558193417676,841.9790514963522,10.257855526375872,0.1489966442575134,-0.4876446423902448,0.6130070261421743
13289197,1705.0,1,204215,245678,-0.88,-0.42,9.91,-0.04,-0.17,-0.09,34.17,11.369709,-53.30206615104249,683.4049516276046,9.957856194984943,0.19646882704388502,-0.9603290169875887,0.4988387866594394
13329208,1765.0,1,203830,244440,-0.38,-0.61,9.45,-0.04,-0.12,-0.04,34.17,11.40972,-1.9307812574805867,504.79704977303317,9.477288641800458,0.132664991614216,-0.04733602610283891,0.37024685563590204
13369211,1790.0,1,203691,244609,-0.38,-0.5,9.7,-0.11,0.24,0.08,34.17,11.449723,34.349692331351854,466.26615071395963,9.720308637075265,0.2758622844826744,0.5974564520532707,0.3425058505480443
13409174,1745.0,1,204361,245278,-0.8,-0.89,10.05,-0.11,0.37,0.11,34.17,11.489686,-18.39934493087676,604.4165190543043,10.120997974508246,0.40137264480778956,-0.34002255778883644,0.4419696617906329
13449174,1749.0,1,204620,245183,-1.11,-0.56,10.02,-0.07,0.16,0.07,34.17,11.529686,-6.225917973284229,814.4497303402551,10.096836138117721,0.1881488772222678,-0.1236710783512969,0.5931868024540192
13489221,1732.0,1,204570,245430,-1.15,-1.48,9.62,-0.1,0.06,-0.09,34.17,11.569733,-25.685050320076616,942.1279280480262,9.800882613316006,0.14730919862656236,-0.46950730725096934,0.6851109884635255
13529198,1694.0,1,204629,245455,-1.03,-0.34,9.97,-0.15,-0.15,-0.09,34.17,11.60971,-62.29278737306382,901.2110765681191,10.02882844603496,0.23043437243605824,-1.1201160551298441,0.65565217455568
13569212,1750.0,1,204347,245276,-0.76,0.37,9.69,-0.04,-0.48,-0.02,34.17,11.649724,0.5674878703167603,720.8822375067945,9.726798034296795,0.482078831727758,-0.0029356921857756697,0.5258212242262286
13609198,1760.0,1,204223,245012,-0.55,0.8250000000000002,9.79,-0.28,-0.34,0.19,34.17,11.68971,1.056705706255633,499.7978982671498,9.84008257079177,0.4796873982084583,0.005758901616061919,0.3666476277241146
13649177,1726.0,1,203980,244891,-0.62,-0.45,10.25,-0.38,-0.25,0.33,34.17,11.729689,-14.637972609693387,321.03795956917054,10.27858939738328,0.5619608527290847,-0.27317380030761756,0.2379462350749855
13689243,1771.0,1,203878,245009,-0.74,-1.01,10.83,-0.34,0.06,0.26,34.17,11.769755,11.7030166440244,201.2702584749569,10.902137405114651,0.4322036556994862,0.19496980582260026,0.1517173515931399
13729177,1719.0,1,203970,244895,-1.43,-1.52,10.884999999999998,0.11,0.11,0.36,34.17,11.809689,-16.47806869247911,105.45928733668612,11.083254260369559,0.39217343102255153,-0.3058767943950478,0.08273654131553852
13769165,1766.0,1,203584,244596,-0.63,-0.93,10.5,0.32,-0.05,0.25,34.17,11.849677,10.371223715698447,-0.9696016498465947,10.559914772383346,0.40914545090957566,0.1713005981827529,0.006111172508443725
13809177,1753.0,1,203357,244704,-0.4,-0.81,10.05,0.08,0.11,0.05,34.17,11.889689,21.324261878753102,-116.26436862828542,10.090520303730626,0.14491376746189438,0.3659627930739562,-0.07689734261726457
13849165,1745.0,1,203222,245174,-0.37,-0.7,9.35,0.06,0.17,-0.06,34.17,11.929677,-8.67717668623497,-209.8236157328285,9.38346417907587,0.19000000000000003,-0.16723592257129563,-0.1442569841860766
13889174,1761.0,1,203363,244784,-0.52,-0.44,9.09,0.15,0.33,-0.11,34.17,11.969686,38.08819353996173,-253.62762765687748,9.115486821887243,0.37881393849751627,0.6638987340975484,-0.17579446053176462
13929176,1755.0,1,203040,243717,-1.18,-0.4,9.65,0.21,0.43,-0.1,34.17,12.009688,-1.5969575452495106,-241.72482136630717,9.730102774380136,0.48887626246321264,-0.041403164775940374,-0.16722482374856218
13969174,1680.0,1,203101,243781,-1.86,-0.61,10.12,0.2,0.39,-0.04,34.17,12.049686,-31.606983201548854,-184.7390384530756,10.307574884520607,0.44011362169330775,-0.5747544939716518,-0.12619689727044267
14009176,1803.0,1,203177,244024,-2.29,-0.77,10.3,0.13,0.18,0.05,34.17,12.089688,46.44114245990202,-94.5257182550092,10.579555756268787,0.22759613353482083,0.8123510033550684,-0.061246215201741526
14049165,1717.0,1,203113,244051,-2.17,-0.62,9.98,0.06,-0.01,0.1,34.17,12.129677,9.172085514329963,20.833717559522725,10.231993940576784,0.11704699910719626,0.14998898849224312,0.021808859401033047
14089177,1674.0,1,203039,244549,-2.0,-0.54,9.68,-0.05,-0.18,0.1,34.17,12.169689,-71.37989932819174,147.18401444105518,9.899191886209701,0.21189620100417092,-1.281616191628407,0.11277699962711805
14129196,1659.0,1,203153,245135,-1.82,-0.53,9.46,-0.1,-0.17,0.14,34.17,12.209708,-55.29218187989402,254.0049823403298,9.64805161677735,0.2418677324489565,-0.9956982259777,0.18968465261077827
14169198,1736.0,1,203199,245133,-1.82,-0.46,9.35,-0.11,-0.11,0.17,34.17,12.24971,9.312229780541122,302.3278796313604,9.536587439959852,0.23043437243605827,0.15247969381582188,0.22447558073200596
14209885,1744.0,1,202940,244897,-1.9,-0.67,9.66,-0.04,-0.14,0.17,34.07,12.290397,21.685443176531365,271.50283581704963,9.867851843233156,0.22383029285599393,0.3723818654018811,0.20228254298390638
14250198,1695.0,1,202744,244789,-1.69,-0.67,9.44,0.03,-0.13,0.14,34.07,12.33071,-15.952493749911632,181.47787340246992,9.613459314939654,0.19339079605813717,-0.2965360461590834,0.13746747244666813
14290175,1736.0,1,202655,244663,-1.58,-0.72,9.64,0.05,-0.07,0.1,34.07,12.370687,13.115849456332487,84.74454360251045,9.795121234573873,0.1319090595827292,0.22007928979992103,0.06782259366945798
14330177,1721.0,1,202409,244287,-1.61,-0.69,9.79,0.01,-0.1,0.05,34.07,12.410689,17.87715369430085,26.64067085214386,9.945466303798932,0.11224972160321825,0.3046992755709945,0.02598967855577375
14370175,1693.0,1,202207,244081,-1.4,-0.6,9.79,-0.05,-0.1,-0.1,34.07,12.450687,-22.795268460281925,2.8038851077427074,9.907779771472516,0.15000000000000002,-0.4181488374629361,0.008827961316842884
14410212,1706.0,1,202094,244131,-1.22,-0.5,9.76,-0.1,-0.06,-0.27,34.07,12.490724,6.357620972511928,-46.79699343218252,9.848654730469537,0.29410882339705485,0.09996909109046415,-0.026883072101523575
14450210,1727.0,1,202073,244101,-1.17,-0.53,9.79,-0.12,0.05,-0.43,34.07,12.530722,20.78365049326794,-190.05168808568797,9.873899938727352,0.44922154890432403,0.35635481058406704,-0.13002183372630766
14490195,1711.0,1,201903,242961,-1.16,-0.5,9.81,-0.05,0.12,-0.55,34.07,12.570707,15.070023426295595,-431.7086216461913,9.89099085026369,0.5651548460377916,0.2548097260979888,-0.3040070348798054
14530195,1733.0,1,201184,241262,-1.15,-0.43,9.83,-0.03,0.18,-0.64,34.07,12.610707,35.868060084951395,-684.3018287711566,9.906376734205095,0.6655073252789935,0.6244415492626172,-0.48586600041468464
14570196,1693.0,1,200929,241258,-1.27,-0.5,10.01,-0.01,0.2,-0.72,34.07,12.650708,2.2644685005581517,-820.9613398892899,10.102623421666275,0.7473285756613351,0.027223791352307784,-0.5842564425224595
14610195,1664.0,1,201197,241771,-1.51,-0.47,10.2,0.03,0.13,-0.8,34.07,12.690707,-25.07408855222148,-773.6341810793316,10.321869985617916,0.8110487038396648,-0.4586490269314089,-0.5501824140050342
14650174,1693.0,1,201414,242105,-1.65,-0.54,10.35,0.09,-0.0,-0.8,34.07,12.730686,9.002438982063145,-589.5601815043502,10.49459861071399,0.8050465825031494,0.14697395596563956,-0.4176550688495779
14690194,1680.0,1,201555,242469,-1.54,-0.49,10.22,0.08,-0.18,-0.84,34.07,12.770706,-2.2137210422751417,-394.24084032003066,10.346985068124917,0.8627861844049196,-0.05236455596918535,-0.2770314402847709
14730195,1680.0,1,201581,242664,-1.64,-0.57,10.25,-0.03,-0.2,-0.86,34.07,12.810707,3.90508242601095,-294.88307497293,10.396008849553755,0.8834591105421914,0.05638150110766647,-0.20549705252531822
14770207,1751.0,1,201520,242707,-1.53,-0.7,10.04,-0.06,-0.24,-0.97,34.07,12.850719,74.64817165682472,-305.6148826003512,10.180004911590169,1.001049449328054,1.31365868923114,-0.2132236080240043
14810210,1712.0,1,201540,242933,-1.46,-0.83,9.92,0.04,-0.09,-1.02,34.07,12.890722,44.70047568717175,-347.0292440872476,10.061157985043272,1.0247438704378768,0.7814151105452727,-0.24304061309717886
14850194,1666.0,1,201635,243224,-1.34,-0.67,9.55,0.15,0.01,-1.07,34.07,12.930706,-6.283918861137091,-309.0253414833928,9.666798849670972,1.0805091392487154,-0.12470189555169346,-0.21567902846673356
14890173,1680.0,1,201914,243722,-1.2,-0.43,9.31,0.29,0.15,-1.07,34.07,12.970685,23.038676670136592,-126.89334465794228,9.396861178074305,1.1187046080176841,0.39643212416515555,-0.08454986268084698
14930173,1662.0,1,202276,244078,-1.48,-0.41,9.72,0.38,0.21,-0.97,34.07,13.010685,-8.312189990614714,174.22388486339685,9.840574170240272,1.0627323275406653,-0.1607492190450375,0.13224483456684163
14970173,1635.0,1,202534,244395,-1.58,-0.44,9.9,0.33,0.18,-0.87,34.07,13.050685,-12.282850754170932,483.7779341848577,10.03493896344168,0.9477341399358788,-0.23131754245409905,0.3551137700678783
15010173,1715.0,1,202756,244559,-1.65,-0.53,10.05,0.22,0.01,-0.8,34.07,13.090685,48.413911103476345,654.2221805446413,10.19832829438237,0.8297590011563599,0.8474119123424997,0.47782813233110155
15050172,1655.0,1,202873,244779,-1.52,-0.63,9.96,0.11,-0.09,-0.76,34.07,13.130684,11.446987435807639,576.2419272929798,10.094993808814348,0.7731752712031082,0.19041954251795457,0.4216848640702131
15090193,1632.0,1,202858,244105,-1.28,-0.72,9.79,0.09,-0.15,-0.73,34.07,13.170705,-25.607108859984173,249.32337044768823,9.899540393371804,0.7506663706334525,-0.46812209746088596,0.18631404298306023
15130210,1647.0,1,202284,242349,-1.02,-0.63,9.56,0.07,-0.18,-0.71,34.07,13.210722,0.17943491516384583,-197.59617116888458,9.634879345378437,0.7357988855658861,-0.00983233938626503,-0.13545361831237038
15170193,1648.0,1,201889,242228,-0.96,-0.67,9.59,0.08,-0.13,-0.7,34.07,13.250705,1.735059436185899,-566.192675554383,9.66119040284374,0.7164495795239187,0.01781490142315409,-0.4008312179330773
15210880,1665.0,1,202029,242878,-0.8,-0.67,9.57,0.06,-0.1,-0.73,34.23,13.291392,12.651024521589536,-705.4677448838102,9.62672322236388,0.7392563831310488,0.21181821732941403,-0.5011047776274895
15249193,1676.0,1,202305,243504,-0.75,-0.68,9.7,0.07,-0.0,-0.74,34.23,13.329705,37.54251258612068,-607.0571572719942,9.752686809284915,0.7433034373659253,0.654200653016874,-0.4302523273004688
15289193,1680.0,1,202650,244295,-0.78,-0.73,9.78,-0.02,0.03,-0.79,34.23,13.369705,24.441038092958816,-406.65632712515514,9.838175643888453,0.7908223567907018,0.4213555060189802,-0.2859701905096526
15329227,1633.0,1,202877,244812,-0.96,-0.58,9.74,-0.05,0.03,-0.86,34.23,13.409739,-4.505398159236942,-287.37115262391114,9.804366374223273,0.8619744775803979,-0.0930932461215181,-0.2000887106181067
15369193,1646.0,1,203031,244957,-0.96,-0.7,9.79,0.17,0.06,-0.88,34.23,13.449705,-9.38798714040339,-352.605342841293,9.861830458895549,0.8982761268117949,-0.17986875750715497,-0.24705522442688632
15409173,1630.0,1,202845,244903,-0.89,-0.58,10.33,0.12,-0.11,-0.86,34.23,13.489685,-13.110818419627694,-554.3679976242644,10.384478802520615,0.8752713864853574,-0.246032546698347,-0.39231783105054485
15449194,1617.0,1,202905,245229,-1.03,-0.64,10.24,-0.04,-0.12,-0.95,34.23,13.529706,-36.69379241477454,-720.9480257992342,10.311551774587567,0.9583840566286566,-0.6651594968300689,-0.5122500808029449
15489207,1601.0,1,203093,245394,-0.87,-0.38,10.09,-0.04,-0.2,-1.04,34.23,13.569719,-51.77884767582097,-661.5936546930043,10.134564618176748,1.0598113039593418,-0.9332577106275313,-0.46951684718905706
15529243,1603.0,1,203607,245894,-1.14,-0.45,10.13,0.03,-0.12,-0.95,34.23,13.609755,-50.424912831793186,-280.42206436125673,10.203871814169366,0.9580187889597991,-0.9091949871571491,-0.1950855911073287
15569193,1614.0,1,204580,246785,-0.87,-0.41,10.68,0.4100000000000001,-0.22,-0.79,34.23,13.649705,-49.67928977460178,366.9258952041001,10.723217800641745,0.9168424073961676,-0.8959434473821895,0.2709840693068888
15609195,1601.0,1,205316,247747,-0.23,-0.1,10.0,0.4,-0.28,-0.88,34.23,13.689707,-55.99952654806959,1099.5209904810467,10.003144505604226,1.00637965003273,-1.0082694654458593,0.7984289190691374
15649193,1607.0,1,206081,248225,-0.4,0.61,10.08,0.28,-0.0,-0.68,34.23,13.729705,-66.81737640545789,1697.2734572546042,10.106359384071002,0.7353910524340095,-1.2005290345164568,1.2287914236300026
15689173,1613.0,1,206529,248400,-0.26,0.68,9.71,0.13,-0.16,-0.56,34.23,13.769685,-52.507781819397906,1998.1823801993046,9.737253206115163,0.5967411499134277,-0.9462126477150739,1.4454361468583072
15729173,1667.0,1,206741,248140,-0.4,0.47,9.77,0.18,0.1,-0.32,34.23,13.809685,-15.659263777146249,1961.8853368879695,9.789473938879452,0.380525951808809,-0.2913246345619857,1.4193034458893996
15769164,1659.0,1,206580,247393,-0.48,0.24,10.11,0.0,-0.01,-0.31,34.23,13.849676,-19.174241528912578,1674.9299959319912,10.124233304305072,0.3101612483854165,-0.3537943597621175,1.2127048518300385
15809173,1653.0,1,206204,246913,-0.49,0.07,9.9,-0.16,-0.2,-0.4,34.23,13.889685,-38.36818786052005,1298.2863174931663,9.912366014226876,0.4749736834815167,-0.6949175865703273,0.9415335463315124
15849193,1669.0,1,206128,246975,-0.51,-0.48,9.96,-0.21,-0.03,-0.38,34.23,13.929705,-23.900554488870327,983.9983252458088,9.984593131420029,0.43520110293977887,-0.4377924652038984,0.7152563245459647
15889207,1691.0,1,206132,247204,-0.75,-0.87,10.18,-0.27,-0.0,-0.51,34.23,13.969719,-10.253573416736254,805.0131075075872,10.244598576811098,0.5770615218501404,-0.19525233619192672,0.5863927382508485
15929210,1712.0,1,206209,247495,-0.72,0.02,10.16,-0.22,-0.06,-0.51,34.23,14.009722,3.4884710917246724,734.0241701656965,10.185499496833721,0.5586591089385369,0.04897730187623585,0.5352829920452443
15969193,1724.0,1,206161,247543,-0.68,0.13,9.84,-0.19,-0.09,-0.35,34.23,14.049705,12.076609964441369,675.9134296262563,9.864324609419542,0.40828911325187206,0.20160947005698268,0.4934451323448443
16009194,1746.0,1,206219,247622,-0.93,-0.08,10.1,-0.19,0.04,-0.21,34.23,14.089706,20.919678078936503,528.933474115824,10.143041950026628,0.2860069929215018,0.358772352456724,0.38762430300533685
16049193,1775.0,1,206026,247447,-0.96,-0.37,10.13,-0.17,-0.04,-0.11,34.23,14.129705,51.93434566844737,241.25820166504562,10.182111765247916,0.20639767440550294,0.9099786184185971,0.18050738148028292
16089210,1787.0,1,205775,247383,-0.61,-0.49,10.03,-0.21,-0.19,-0.11,34.23,14.169722,46.19673893024679,-162.11892811408057,10.060472155917932,0.3038091506192662,0.8080073567052903,-0.10991114709783682
16129207,1776.0,1,205473,247355,-0.51,-0.92,9.85,-0.3,-0.15,-0.07,34.23,14.209719,38.747198223693246,-593.4914484553315,9.906008277807969,0.34263683398023626,0.6756108541750141,-0.420485454310392
16169210,1808.0,1,205195,247109,-0.37,-1.1,10.07,-0.34,-0.09,-0.07,34.23,14.249722,56.44415273856812,-952.1435626575455,10.13665625342006,0.3586084215408222,0.9901288862928341,-0.6787034136058839
16209206,1811.0,1,204903,247039,-0.25,-1.26,9.92,-0.29,-0.18,-0.09,34.23,14.289718,53.97835048840333,-1183.8047750240248,10.002824601081436,0.3529872518944558,0.9463055679551136,-0.8454920177613439
16249896,1833.0,1,204988,247188,-0.26,-1.37,10.14,-0.15,0.03,-0.2,34.23,14.330408,76.39220877620977,-1310.5054478521993,10.235433552126652,0.25179356624028343,1.3446544813188894,-0.9367124173729043
16290193,1857.0,1,205084,247349,-0.13,-1.3,9.96,0.05,0.09,-0.1,34.23,14.370705,78.19353165279108,-1404.2075889073337,10.04532229448115,0.14352700094407325,1.3766683809915683,-1.0041749379792468
16330173,1818.0,1,205160,246935,-0.2,-0.95,10.07,0.28,0.2,0.01,34.23,14.410685,56.030730979787556,-1520.2355833230474,10.116689181743206,0.34423828956117014,0.9827813735952647,-1.087711353220569
16370164,1856.0,1,204859,245994,-0.46,-0.58,9.96,0.4100000000000001,0.15,0.22,34.23,14.450676,61.347290300305026,-1646.3726744696517,9.987472152652042,0.48887626246321275,1.0772695960587009,-1.1785259921912503
16410164,1809.0,1,204750,245858,-0.49,-0.43,9.81,0.4100000000000001,0.11,0.26,34.23,14.490676,35.417214318857134,-1714.515659595376,9.83163770691333,0.49779513858614577,0.6164289207043288,-1.2275867445546027
16450164,1826.0,1,205067,246250,-0.58,-0.06,9.56,0.21,0.04,0.17,34.23,14.530676,24.289173356486675,-1662.8653652777411,9.57776591904396,0.27313000567495327,0.41865649936090454,-1.1904001978493697
16490164,1812.0,1,205366,246628,-0.63,-0.04,9.9,0.04,0.07,0.1,34.23,14.570676,22.881266745324936,-1487.2478669942977,9.920105846209506,0.1284523257866513,0.393634565989484,-1.0639612609865507
16530163,1795.0,1,205655,246953,-0.79,-0.13,10.13,-0.06,0.04,0.11,34.23,14.610675,-10.58142372210847,-1234.5256551666837,10.16158944260198,0.13152946437965904,-0.20107903551401768,-0.8820094162248708
16570175,1776.0,1,205876,247638,-0.74,-0.07,9.77,-0.03,0.05,0.11,34.23,14.650687,-24.964947149872735,-951.1782593164128,9.798234534853714,0.12449899597988733,-0.4567093180927806,-0.6780084263216103
16610175,1753.0,1,206312,248116,-0.73,-0.04,9.72,-0.03,0.13,0.09,34.23,14.690687,-59.352141493764215,-640.4622059751877,9.747456078382708,0.1609347693943108,-1.0678536076937448,-0.45430288538930735
16650175,1725.0,1,206665,248626,-1.1,0.23,9.69,0.1,0.18,0.19,34.23,14.730687,-80.6936049011326,-267.34409288371353,9.754947462698095,0.28017851452243797,-1.4471434492174986,-0.18566987327678536
16690142,1789.0,1,207155,249114,-0.59,0.31,9.3,0.06,0.29,0.32,34.23,14.770654,-32.437453054940875,195.10739564574968,9.323851135662775,0.4360045871318328,-0.5895139681965806,0.14728028904656673
16730142,1796.0,1,207661,249657,-1.03,0.41,9.67,-0.01,0.25,0.43,34.23,14.810654,-10.544971696354473,718.3367831076226,9.733339611870122,0.49749371855331,-0.20043119413559188,0.5239885791241748
16768173,1776.0,1,208320,250277,-1.55,0.0,10.15,-0.06,0.33,0.58,34.23,14.848685,-51.775212662471745,1209.9221517811154,10.267667700115737,0.6699999999999999,-0.9331931075770822,0.8779141958760743
16810164,1725.0,1,208576,250355,-1.6,0.05,10.26,-0.31,-0.06,0.24,34.23,14.890676,-83.38574458860289,1553.2818635871822,10.384127310467644,0.3966106403010388,-1.4949893356934874,1.125122118472794
16850175,1735.0,1,208688,250356,-1.71,0.25,10.47,-0.45,-0.11,0.11,34.23,14.930687,-92.37208568839121,1667.937538743759,10.611668106381767,0.47613023428469653,-1.6546985283836337,1.207670508091057
16890177,1703.0,1,208514,250158,-1.42,-0.06,10.58,-0.47,-0.42,0.02,34.23,14.970689,-110.24058338319097,1549.275614898919,10.675036299704091,0.6306346010171024,-1.972265301081527,1.122237748578545
16930195,1723.0,1,208294,249820,-0.75,0.0,10.01,-0.4700000000000001,-0.48,0.0,34.23,15.010707,-97.16401449937385,1264.8593927885386,10.03805758102632,0.6717886572427374,-1.7398627874889017,0.9174672382269226
16970205,1773.0,1,207883,248684,-0.62,-0.02,10.06,-0.35,-0.27,0.12,34.23,15.050717,-46.01293933288258,915.5595293444438,10.079107103310292,0.45803929962395146,-0.8307834603903839,0.6659825979610788
17010198,1776.0,1,207375,248173,-0.42,-0.66,9.69,-0.19,-0.15,0.17,34.23,15.09071,-33.82010928902708,589.6813953512442,9.721527657729519,0.2958039891549808,-0.6140871407995111,0.43136084778424016
17050198,1776.0,1,207360,248466,-0.68,-0.89,10.15,-0.22,0.13,0.07,34.23,15.13071,-45.05398315667979,336.7364567121806,10.211611038420921,0.2649528259898354,-0.8137404709216016,0.24924864689902027
17090175,1802.0,1,207082,248298,-0.41,-0.52,9.97,-0.19,-0.12,-0.07,34.23,15.170687,0.8255308307973502,168.79660220790944,9.99196677336349,0.2353720459187964,0.0016503604067195305,0.12833736603027077
17130212,1861.0,1,206747,248559,-0.02,-0.84,9.45,-0.1,-0.08,-0.15,34.23,15.210724,45.72276351498628,76.37380257688906,9.487280959263302,0.1972308292331602,0.7995836578844192,0.0617959300033731
17170243,1841.0,1,206628,249085,-0.28,-0.78,9.67,-0.02,0.34,-0.23,34.23,15.250755,44.07310442958639,41.80790279558216,9.70544692427917,0.41097445176069036,0.770265193582036,0.036909596564086045
17210195,1869.0,1,206749,249624,-0.24,-0.93,9.98,0.08,0.32,-0.26,34.23,15.290707,67.46716029105144,47.59140018293256,10.026110911016294,0.42,1.1860346078401687,0.04107352822324929
17250862,1877.0,1,206752,249810,-0.18,-0.93,9.78,0.1,0.2,-0.33,34.25,15.331374,82.32771224394892,85.22087007898439,9.825767145622777,0.398622628559895,1.450142850446622,0.06816553337577229
17289176,1859.0,1,206625,249898,-0.32,-0.65,9.61,0.15,0.24,-0.34,34.25,15.369688,73.84921507095801,158.09898780193996,9.637271398066986,0.44237992721189334,1.2994592826087659,0.12063542854864182
17329174,1874.0,1,206569,250037,-0.71,-0.64,9.79,0.2,0.35,-0.35,34.25,15.409686,85.89511809393551,264.0792694086679,9.83655427474479,0.5338539126015656,1.5135443507872761,0.19693781450536155
17369176,1854.0,1,206494,250126,-1.01,-0.32,9.83,0.17,0.29,-0.29,34.25,15.449688,81.43737982647502,364.579704542303,9.886930767432329,0.4439594576084623,1.434319472495392,0.26929488767148985
17409174,1846.0,1,206574,250209,-1.61,-0.4,10.06,0.07,0.3,-0.2,34.25,15.489686,72.48728978787598,376.5494345283419,10.195866809643995,0.3672873534441392,1.2752545495533454,0.2779127073578123
17449176,1835.0,1,206384,249942,-1.66,-0.4,10.2,-0.02,0.12,-0.16,34.25,15.529688,69.98991631958674,215.74564208958782,10.341934055098204,0.2009975124224178,1.230870133689623,0.1621391611098739
17489194,1805.0,1,205863,249333,-1.58,-0.5,10.03,-0.22,0.05,-0.12,34.25,15.569706,51.43836379294773,-130.3472642284399,10.165987409002629,0.25553864678361277,0.9011638111410436,-0.08703657341737371
17529197,1792.0,1,205258,248637,-1.62,-0.6,10.09,-0.34,-0.0,-0.04,34.25,15.609709,33.6095325061753,-563.074690935405,10.23682079553999,0.34234485537247383,0.5843020072321842,-0.39858636953111504
17569212,1744.0,1,204651,247835,-1.4,-0.59,9.67,-0.33,-0.25,0.02,34.25,15.649724,9.762938212011726,-912.1855206187529,9.788615836776923,0.4144876355212541,0.16048988160298566,-0.6499349115836621
17609197,1732.0,1,204604,247653,-1.63,-0.46,9.91,-0.28,-0.07,0.26,34.25,15.689709,-16.019843279704684,-1034.2528013204046,10.053685891254013,0.38845849199110066,-0.2977330115215003,-0.7378194182445069
17649194,1730.0,1,204616,247509,-1.63,-0.4,10.09,-0.17,-0.09,0.49,34.25,15.729706,10.109581119235852,-898.656877461308,10.228636272739392,0.5264028875300742,0.1666505712818845,-0.6401947246732269
17689193,1776.0,1,204761,247639,-1.62,-0.34,9.83,-0.1,-0.07,0.63,34.25,15.769705,43.25844782265674,-600.1385680331949,9.968395056376929,0.6417164482853779,0.755786759304097,-0.4252711661035791
17729193,1716.0,1,205005,247869,-1.6,-0.62,10.09,-0.11,-0.02,0.66,34.25,15.809705,5.76029448695702,-294.2598938115461,10.234866877492838,0.6694027188471825,0.08935314298421387,-0.205048382180458
17769194,1712.0,1,205083,247802,-1.59,-1.29,10.39,-0.13,-0.23,0.5,34.25,15.849706,-4.491615729051863,-104.69210844959503,10.589820583938144,0.5655086206239477,-0.09284829873150426,-0.068565688377822
17809193,1712.0,1,204938,247835,-0.85,-1.32,9.76,-0.1,-0.43,0.33,34.25,15.889705,11.26634464390582,-62.494802114842905,9.88546913403709,0.5511805511808268,0.18720907964551659,-0.0381849882563025
17849194,1680.0,1,204861,248044,-0.41,-1.5,9.51,-0.12,-0.35,0.19,34.25,15.929706,-25.12813112078617,-108.34995294303637,9.63629596888763,0.4159326868617084,-0.4596094951465061,-0.07119921848433668
17889194,1658.0,1,204698,248075,-0.46,-1.25,9.34,-0.24,-0.32,0.13,34.25,15.969706,-30.4034504481592,-145.2753586984391,9.434495217021418,0.4205948168962618,-0.5533647823765134,-0.09778432015459264
17929195,1663.0,1,204711,248208,-1.21,-1.56,9.72,-0.26,-0.02,0.26,34.25,16.009707,-36.38703281048858,-101.61751740120557,9.91847266467978,0.3682390527904394,-0.6597076306916231,-0.06635208194767646
17969194,1621.0,1,204786,248129,-1.64,-1.52,9.92,-0.21,-0.06,0.35,34.25,16.049706,-56.01205331969656,33.309101672609536,10.168893745142586,0.41255302689472534,-1.00849209672163,0.030790733756560797
18009196,1676.0,1,204860,248132,-1.76,-1.58,9.59,-0.21,-0.14,0.4,34.25,16.089708,-18.223580929755535,214.2879453442266,9.877352884249909,0.4729693436154187,-0.3368988029244988,0.16108966644929973
18049193,1662.0,1,204964,248238,-1.56,-1.7,9.56,-0.27,-0.22,0.35,34.25,16.129705,-10.422836460525177,374.2248946619941,9.834490327414024,0.49376107582514034,-0.19826055319322022,0.27623911359711606
18089195,1649.0,1,205054,248290,-1.33,-1.81,9.74,-0.29,-0.21,0.34,34.25,16.169707,-37.57871353717806,463.9863345018848,9.995629044737505,0.4937610758251404,-0.6808867028735668,0.34086445637653573
18129194,1639.0,1,205055,248055,-1.15,-1.87,9.72,-0.25,-0.09,0.37,34.25,16.209706,-36.183610669408054,477.4452947253744,9.964828147037961,0.45552167895721496,-0.6560923232415156,0.3505544738210983
18169195,1641.0,1,204916,247544,-1.3,-1.89,10.02,-0.13,0.1,0.48,34.25,16.249707,-38.2597973856951,451.0736889474399,10.279226624605569,0.5072474741188959,-0.6929912235447794,0.3315677678805219
18209174,1642.0,1,204975,247400,-1.55,-1.92,10.18,0.02,0.18,0.63,34.25,16.289686,-39.03868272180292,440.1307077274643,10.474793554051553,0.6555150646628954,-0.7068339151193184,0.323689174203425
18249165,1653.0,1,205068,247358,-1.61,-1.75,10.09,0.11,0.14,0.74,34.25,16.329677,-24.187452183977324,484.57356399301773,10.36642175487762,0.7611175993235211,-0.4428913367870483,0.3556865978786797
18289852,1662.0,1,205205,247339,-1.36,-1.69,10.02,0.1,0.01,0.81,34.23,16.370364,-23.656310575075924,581.6201197556634,10.252126608660273,0.8162107570964745,-0.4334516553171577,0.4255569892506312
18330164,1646.0,1,205142,247587,-0.97,-1.53,9.81,-0.05,-0.12,0.79,34.23,16.410676,-37.339862163598674,678.5935125362895,9.975865877205848,0.8006247560499239,-0.6766417315750485,0.4953747056343002
18370194,1649.0,1,205312,247909,-1.07,-1.78,9.95,-0.16,-0.08,0.83,34.23,16.450706,-38.42649084946298,694.3921714889117,10.164438007091192,0.8490583018850943,-0.6959537728437059,0.5067492307320429
18410194,1690.0,1,205380,247791,-1.46,-1.77,10.22,-0.07,-0.15,0.96,34.23,16.490706,-6.8996799331424645,567.9504004462977,10.474392583820793,0.9741663102366043,-0.13564547120812095,0.4157152320591026
18450194,1703.0,1,205138,247643,-1.16,-1.73,9.57,-0.12,-0.39,1.05,34.23,16.530706,14.234003470377239,310.95141070751515,9.794049213680724,1.1264990013311154,0.23995161301838205,0.23068424508453353
18490198,1685.0,1,204913,247614,-0.83,-1.91,9.17,-0.36,-0.5,0.97,34.23,16.57071,-27.558486094490636,22.92773898750112,9.403504665814761,1.1491301057756689,-0.5028028289506242,0.023316487318008738
18530194,1664.0,1,204814,248114,-0.46,-2.1,8.85,-0.4700000000000001,-0.61,0.82,34.23,16.610706,-31.6319204187299,-160.94465095869012,9.10736515134866,1.1248999955551604,-0.5751976891252408,-0.10906570540460515
18570194,1711.0,1,204902,248493,-0.3,-2.99,8.87,-0.4700000000000001,-0.52,0.8,34.23,16.650706,-12.13607844962661,-169.69408351625688,9.365201546149446,1.0636258740741502,-0.22870904072822998,-0.11536501476469056
18610201,1651.0,1,205026,248302,-0.56,-2.76,9.23,-0.4700000000000001,-0.21,1.05,34.23,16.690713,-61.32099777537556,-74.36721910925371,9.650082901198312,1.16940155635265,-1.1028449844696029,-0.0467327457260198
18650196,1680.0,1,205228,248058,-0.54,-2.85,9.72,-0.43,0.0,1.23875,34.23,16.730708,-46.74468945705069,-71.00583687454434,10.143594037618028,1.311259532853813,-0.8437884443192218,-0.044312658887860526
18690173,1718.0,1,205194,247558,-0.28,-2.37,9.35,-0.18,-0.1,1.16,34.23,16.770685,-16.825189866884262,-355.40097849151755,9.649756473611134,1.1781341180018512,-0.3120459840479098,-0.2490679919638642
18730194,1677.0,1,204901,246353,-0.13,-2.04,9.53,-0.05,0.03,0.98,34.23,16.810706,-52.76371955206157,-964.8656461000421,9.746763565409802,0.9817331613019904,-0.9507612852760967,-0.68786290352501
18770173,1741.0,1,204152,244781,-0.09,-1.61,9.48,-0.13,0.27,0.74,34.23,16.850685,-12.883584774730041,-1710.9430177471963,9.616163476147856,0.7983733462484829,-0.24199405076594815,-1.2250145576057465
18810196,1762.0,1,203278,243928,-0.18,-1.46,8.77,-0.38,0.31,0.3,34.23,16.890708,23.39845648491385,-2277.143661698294,8.89251932806446,0.5748912940721924,0.40282628872292425,-1.6326607669639719
18850172,1762.0,1,203573,244615,-1.19,-1.63,10.23,-0.23,0.35,0.35,34.23,16.930684,-2.881317617695324,-2424.745640691334,10.42717123672571,0.5458021619598076,-0.06422937491152167,-1.7389294331569438
18890175,1771.0,1,204073,245789,-0.99,-1.84,10.13,0.04,0.05,0.33,34.23,16.970687,18.1421396185277,-2146.149103194194,10.343239337847695,0.33615472627943227,0.3094087215582517,-1.5383489081004509
18930164,1797.0,1,204922,247004,-1.3,-2.11,10.13,0.2,0.46,0.45,34.23,17.010676,27.750296672402328,-1638.481951945738,10.428758315350874,0.6738694235532579,0.4801690999229901,-1.1728449263706175
18970165,1771.0,1,205692,247561,-1.91,-1.93,10.884999999999998,0.32,0.52,0.6,34.23,17.050677,2.3249112436787067,-1125.3257066940173,11.218566084843463,0.8560373823613079,0.028298006274773743,-0.8033889739266089
19010164,1779.0,1,205925,247771,-1.67,-1.57,10.27,0.23,0.05,0.58,34.23,17.090676,9.261665728906236,-688.5700822474034,10.522675515286025,0.625939294181153,0.15158104732821628,-0.4889390053092576
19049164,1811.0,1,206349,248299,-1.9,-1.36,10.04,0.05,0.33,0.59,34.23,17.129676,28.992790165695993,-254.96039482450908,10.308307329527965,0.677864293203293,0.5022512388639842,-0.17675400992409812
19089164,1823.0,1,207016,249031,-2.2,-1.36,10.15,0.01,0.35,0.71,34.23,17.169676,53.32387762593097,270.7212353442003,10.47435439537922,0.7916438593205912,0.9346739893913384,0.20171981584222345
19129164,1863.0,1,207924,250490,-2.27,-1.2,9.53,-0.0,0.48,0.75,34.23,17.209676,74.75093186218251,871.4603984074843,9.869842957210615,0.8904493247793498,1.315484988640001,0.6342326454407207
19169173,1853.0,1,209043,251574,-2.75,-1.44,9.52,0.01,0.5800000000000001,0.54,34.23,17.249685,80.40407832006548,1415.0982899592486,10.013316134028726,0.7925276020429826,1.415955185233019,1.0256344004936786
19209164,1835.0,1,209317,251479,-2.67,-1.3,9.69,0.12,0.25,0.24,34.23,17.289676,50.29691398990606,1768.9975937934762,10.134840896629804,0.366742416417845,0.880877464950111,1.2804304895546401
19249164,1783.0,1,208989,251291,-2.24,-1.35,8.99,0.0,-0.0,0.08,34.23,17.329676,4.920610336701004,1898.1489430707973,9.362702601279185,0.08,0.07442990823684167,1.3734152971998737
19289173,1821.0,1,208943,251341,-2.16,-1.27,8.91,-0.14,0.27,0.04,34.23,17.369685,46.05852028416788,1847.946080310126,9.255625316530484,0.3067572330035594,0.8055508743466907,1.3372708545505176
19329859,1840.0,1,209203,251628,-2.35,-1.18,8.99,-0.24,0.41,0.09,34.13,17.410371,60.483832563472674,1655.9761820827798,9.366696322610231,0.48352869614946326,1.0619238467108596,1.1990587169288218
19370172,1779.0,1,209411,250969,-2.86,-0.81,9.93,-0.23,0.13,0.13,34.13,17.450684,12.050797477695934,1313.3010758845935,10.365355758487018,0.2944486372867091,0.20115071922906946,0.9523436882981181
19410172,1835.0,1,208504,249286,-2.88,-1.06,9.95,-0.03,-0.59,0.22,34.13,17.490684,64.20004788924713,817.8705933008813,10.412516506589556,0.6303967004989794,1.1279700542776043,0.5956497134971823
19450193,1839.0,1,207575,248595,-2.57,-1.07,9.7,-0.03,-0.45,0.16,34.13,17.530705,75.74840674942,240.83136750146747,10.091570739978984,0.478539444560216,1.3332125495238347,0.18020007464362334
19490192,1781.0,1,207257,248365,-2.83,-1.1,10.1,-0.02,-0.16,0.1,34.13,17.570704,25.61900828676129,-283.16636365694563,10.546511271505853,0.18973665961010278,0.44229090860120357,-0.197061398124123
19530193,1819.0,1,207002,248271,-2.96,-1.22,10.28,0.12,-0.16,0.1,34.13,17.610705,61.79102697327771,-630.4696261332036,10.76700515463794,0.22360679774997896,1.0851558786981557,-0.4471085500634613
19568172,1811.0,1,206987,248429,-3.01,-1.29,10.2,0.28,-0.14,0.14,34.13,17.648684,68.79727264538604,-745.1229114880441,10.712805421550415,0.34292856398964494,1.2096739475824552,-0.5296552191015211
19608175,1777.0,1,207014,248592,-2.95,-0.94,9.92,0.4100000000000001,-0.04,0.21,34.13,17.688687,33.88248564535837,-631.4649228459813,10.391943995230152,0.46238512086787575,0.5891530500556306,-0.44782513160833415
19648172,1749.0,1,207103,248948,-2.5,-0.79,9.44,0.4100000000000001,-0.02,0.24,34.13,17.728684,14.700953673816036,-315.434439078863,9.797331269279404,0.4754997371187497,0.24825045669564538,-0.22029337210641686
19688177,1679.0,1,207309,249677,-1.99,-1.01,9.07,0.37,0.03,0.15,34.13,17.768689,-44.71957100343179,170.62773381589403,9.340508551465494,0.40037482438335203,-0.8077971515630398,0.12965572175240841
19728165,1638.0,1,208094,250737,-2.01,-1.22,9.17,0.13,0.24,0.04,34.13,17.808677,-89.42407375500981,771.1940637682476,9.466646713593995,0.2758622844826744,-1.6023051682058913,0.5620441170831684
19768165,1658.0,1,208730,251285,-2.09,-1.85,9.64,-0.06,0.27,-0.02,34.13,17.848677,-48.26267187883971,1394.11641557923,10.035945396423797,0.277308492477241,-0.870766693242743,1.0105281273948727
19808198,1718.0,1,208956,251546,-2.36,-2.14,9.38,-0.07,0.02,-0.26,34.13,17.88871,1.7076852421608053,1924.538873539121,9.906240457408654,0.27,0.017328395248978914,1.3924151963267428
19848196,1702.0,1,209121,251280,-2.58,-1.88,9.47,-0.02,0.09,-0.36,34.13,17.928708,5.756521087655252,2250.85234848193,9.993582941067734,0.3716180835212409,0.08928608047796235,1.6273503779519254
19888197,1695.0,1,208871,250695,-2.52,-1.39,9.35,0.01,-0.01,-0.36,34.13,17.968709,-4.585739242345222,2279.320608023848,9.782893232576956,0.3602776706930364,-0.09452110306358072,1.6478466070065345
19928198,1677.0,1,208499,249688,-3.13,-0.89,10.16,-0.15,-0.03,-0.34,34.13,18.00871,-16.53697292639288,1943.687582482348,10.668392568704997,0.372827037646145,-0.30692366625757056,1.4062016494122407
19968212,1675.0,1,207578,248434,-3.24,-0.81,10.12,-0.05,-0.6200000000000001,-0.26,34.13,18.048724,-7.322953072185939,1233.822216304328,10.656833488424223,0.6741661516273271,-0.14316806695352946,0.8951214717956442
20008214,1697.0,1,206695,247330,-3.08,-0.25,9.32,0.07,-0.6200000000000001,-0.3,34.13,18.088726,5.023776611696408,240.25396732101333,9.81892560314009,0.6923149572268392,0.07626342449328043,0.17978436512905555
20049195,1683.0,1,205176,245657,-2.17,-1.25,10.02,0.03,-0.6200000000000001,0.02,34.13,18.129707,9.637553943397945,-831.0823055467573,10.328204103327934,0.6210475022089696,0.15826149742593465,-0.5915432114963
20089176,1712.0,1,203828,245250,-1.59,-1.39,9.89,-0.05,-0.6200000000000001,-0.1,34.13,18.169688,27.337679924862726,-1718.2691967087464,10.112976811997545,0.6300000000000001,0.4728358942380272,-1.2302891702623402
20129211,1696.0,1,203263,245495,-0.95,-1.48,9.66,-0.06,-0.6200000000000001,-0.05,34.13,18.209723,17.930478423692904,-2219.8893743169783,9.818783020313669,0.6248999919987198,0.3056469860336906,-1.5914395259254053
20169214,1659.0,1,203207,246001,-0.93,-1.54,9.88,-0.24,-0.25,-0.05,34.13,18.249726,-12.24097953311908,-2288.42836487399,10.042454879161768,0.35014282800023194,-0.2305733887616358,-1.640785389432085
20209212,1658.0,1,203213,246429,-0.64,-1.36,9.57,-0.1,-0.25,-0.08,34.13,18.289724,-35.075778519383164,-2030.2636012926962,9.687316449874032,0.2808914381037628,-0.6364034447144328,-1.4549150828754107
20249224,1616.0,1,203300,246922,-0.33,-1.06,9.29,-0.04,-0.17,0.01,34.13,18.329736,-43.36711897129513,-1621.2183514285325,9.356099614689873,0.17492855684535902,-0.783760781275495,-1.1604156905760334
20289198,1664.0,1,203441,247239,-0.26,-0.89,9.33,-0.23,-0.07,0.15,34.13,18.36971,-44.91157616273541,-1212.457363820898,9.375958617656117,0.2833725463060951,-0.8112095514090067,-0.866120957936753
20329885,1595.0,1,203501,247264,-0.44,-0.92,9.58,-0.35,-0.02,0.25,33.91,18.410397,-63.64513888567282,-890.9129378868943,9.634126841598048,0.4305810028322197,-1.144150638940286,-0.6346193378439573
20368196,1637.0,1,203540,247515,-0.42,-0.87,9.42,-0.44,-0.01,0.27,33.91,18.448708,-80.79024741714952,-695.8649691006004,9.469408640459022,0.5163332257370234,-1.4488610223700433,-0.49419108865669326
20408198,1597.0,1,203434,247749,-0.57,-0.97,9.62,-0.4700000000000001,-0.02,0.26,33.91,18.48871,-75.94169971051736,-648.0377325271851,9.68556658125894,0.5374941860150676,-1.3626905074355364,-0.45975702027206644
20448198,1634.0,1,203088,247475,-0.27,-1.16,9.89,-0.4700000000000001,-0.08,0.34,33.91,18.52871,-85.54612958495692,-754.8049353618482,9.961455716912063,0.5855766388782941,-1.5333846447337522,-0.5366259641425899
20488198,1555.0,1,202507,246554,-0.23,-1.41,10.12,-0.4700000000000001,0.17,0.42,33.91,18.56871,-142.3470249758378,-992.3425769499895,10.22034246001571,0.6528399497579787,-2.542875053145774,-0.7076454078817986
20528177,1579.0,1,202090,246107,-0.86,-2.09,10.884999999999998,-0.38,0.05,0.35,33.91,18.608689,-142.14005149197098,-1290.500359491756,11.117145541909576,0.5190375708944391,-2.5391966296751343,-0.9223093987166496
20568177,1596.0,1,201625,245169,-0.7,-2.43,10.884999999999998,-0.05,-0.19,0.38,33.91,18.648689,-126.53203296642816,-1541.7156193513022,11.174888142616908,0.42778499272414877,-2.2618040835290714,-1.1031762866453931
20608199,1535.0,1,201263,244755,0.19,-2.15,10.66,0.11,-0.08,0.36,33.91,18.688711,-193.95487712934303,-1635.4700217400748,10.876313713754307,0.38483762809787714,-3.4600724210603873,-1.1706764337270517
20648165,1606.0,1,201264,244246,-0.19,-1.83,9.93,0.07,0.05,0.28,33.91,18.728677,-138.26435117109915,-1502.9660048610085,10.099004901474204,0.2929163703175362,-2.470315984874108,-1.0752778134984338
20688165,1709.0,1,201336,244457,-0.6,-2.1,10.54,0.13,0.18,0.23,33.91,18.768677,-31.878531720679597,-1149.0594756115393,10.76390263798405,0.3196873472629156,-0.5795805732718908,-0.8204765223714453
20728164,1728.0,1,201605,244952,-0.86,-2.05,10.16,0.26,0.09,0.16,33.91,18.808676,-38.0811316656705,-650.8203976562299,10.400370185719352,0.31827660925679097,-0.6898158980602832,-0.4617604494519641
20768164,1750.0,1,201992,245544,-0.65,-1.59,9.36,0.29,0.05,0.03,33.91,18.848676,-1.2321777823286928,-116.68980831206902,9.516312310974245,0.2958039891549808,-0.03492013894831414,-0.07720364547343002
20808165,1777.0,1,202453,245974,-0.93,-1.63,9.04,0.26,0.05,-0.15,33.91,18.888677,-11.750739189217457,374.2663813949482,9.232735239353502,0.30430248109405883,-0.2218606225001245,0.27626898270731237
20848178,1723.0,1,202651,246348,-1.49,-1.81,9.58,0.17,0.23,-0.12,33.91,18.92869,-38.69295072642909,811.0690947158912,9.862687260579644,0.3101612483854165,-0.7006894145650706,0.5907528537960373
20888176,1898.0,1,202660,246811,-1.52,-1.79,9.75,0.16,0.32,-0.09,33.91,18.968688,92.54637004037133,1231.5261691143419,10.028808503506287,0.36891733491393436,1.6317533155870936,0.8934683918433255
20928175,1927.0,1,202950,247639,-1.94,-1.72,9.65,0.14,0.38,-0.14,33.91,19.008687,149.55711011636808,1653.9992103200905,9.992221975116445,0.428485705712571,2.6449731757167854,1.1976353609971775
20968176,1922.0,1,203338,248025,-2.26,-1.72,9.5,0.19,0.23,-0.11,33.91,19.048688,109.8984784805679,2020.3296967515764,9.915442501472135,0.3179622619116929,1.9401425921215611,1.4613815007473256
21008175,1968.0,1,203315,248201,-1.97,-1.54,9.14,0.17,0.19,-0.02,33.91,19.088687,171.23745879857145,2211.0898553865436,9.475869353257252,0.25573423705088844,3.03028583487649,1.5987226648644657
21048173,2030.125,1,203152,247294,-2.12,-1.7,9.47,0.02,0.2,0.08,33.91,19.128685,217.51156552716387,2132.960090800281,9.852172349284192,0.21633307652783937,3.852689541347776,1.542471753262904
21089164,2009.0,1,202645,245489,-2.46,-1.74,9.66,0.09,-0.02,0.12,33.91,19.169676,196.35317809572612,1809.4961952646627,10.119031574216972,0.15132745950421556,3.476653406309472,1.3095881769405706
21129172,2030.125,1,201956,243850,-2.08,-1.45,9.22,0.12,-0.21,0.09,33.91,19.209684,216.93466277821102,1396.499638804887,9.562285291707209,0.2580697580112788,3.842436572840031,1.0122439712823224
21169172,2030.125,1,201639,242864,-2.02,-1.15,9.0,0.05,-0.13,0.09,33.91,19.249684,211.03933860450906,1100.6350690257098,9.295316024751392,0.16583123951776998,3.7376622877362946,0.7992310197034461
21209172,1986.0,1,201539,242074,-1.9,-0.84,9.01,0.08,-0.07,0.11,33.91,19.289684,168.34428052530345,1054.2913605646954,9.24638848415964,0.15297058540778355,2.9788670025395794,0.7658650437308598
21249173,1990.0,1,201513,241805,-1.24,-0.85,8.99,0.01,0.02,0.08,33.91,19.329685,175.45218964635433,1232.079648008378,9.114834063218046,0.08306623862918075,3.105191878797026,0.8938668788028936
21289164,1962.0,1,201675,242269,-1.51,-1.21,9.82,-0.28,0.09,-0.17,33.91,19.369676,137.66071110170705,1466.1310314359846,10.008826104993533,0.3397057550292606,2.433545158300874,1.062376329063344
21329193,1872.0,1,201740,242730,-1.42,-1.3,9.89,-0.31,0.12,-0.47,33.91,19.409705,67.6500972374661,1554.0352877758105,10.075638937556269,0.5756735185849702,1.1892858434321243,1.1256645595982402
21369880,1873.0,1,201485,243091,-1.13,-1.1,9.75,-0.18,0.26,-0.7,34.01,19.450392,46.74286366909185,1394.168142720014,9.8767099785303,0.7681145747868608,0.8177133249275644,1.0105653692685561
21408192,1803.0,1,201212,243499,-1.17,-1.12,9.74,-0.12,0.49,-0.84,34.01,19.488704,6.620771767760939,1059.0465165415133,9.873748021901308,0.9798469268207152,0.10464592236120009,0.7692886027281264
21448193,1774.0,1,200793,242845,-1.78,-1.31,10.34,-0.11,0.46,-0.98,34.01,19.528705,-44.837106368567895,746.1128197402073,10.57355663908791,1.08816359064251,-0.8098860415873536,0.5439864300013036
21488198,1707.0,1,200481,242849,-2.31,-1.64,10.884999999999998,-0.11,0.19,-1.07,34.01,19.56871,-85.57119697661636,623.1150833766657,11.247618636849312,1.092291169972549,-1.533830153405226,0.45543202526175236
21528196,1702.0,1,200326,242719,-2.58,-2.05,10.884999999999998,-0.06,-0.18,-1.08,34.01,19.608708,-103.55352919789262,672.5518456270789,11.372867932056538,1.096540012949824,-1.8534200432007168,0.4910249002427729
21568206,1703.0,1,200519,243413,-2.34,-2.23,10.884999999999998,0.04,-0.34,-1.1,34.01,19.648718,-85.23217534843609,667.9761506722423,11.354810654519959,1.1520416659131736,-1.5278049124378599,0.4877305473955165
21608195,1715.0,1,200761,242445,-2.23,-2.06,10.09,0.14,-0.37,-1.07,34.01,19.688707,-78.43063283230552,333.5614072344412,10.536821152510846,1.1407892005098927,-1.4069249177618834,0.2469627136385186
21648193,1695.0,1,199701,236198,-2.13,-1.83,9.4,0.21,-0.04,-1.13,34.01,19.728705,-84.4382068084364,-416.7099632468369,9.810494381018728,1.1500434774390051,-1.513694155552868,-0.293208484388429
21688193,1690.0,1,198341,233280,-2.42,-1.8,9.43,0.34,0.29,-1.09,34.01,19.768705,-95.34032152085088,-1360.0159541570877,9.900570690621828,1.1780492349643117,-1.707451316559821,-0.9723583856956416
21728172,1670.0,1,197960,232578,-1.8,-1.36,8.765,0.4,0.24,-1.13125,34.01,19.808684,-98.25339616741684,-2089.7977925926057,9.050680913610865,1.2236529583587008,-1.7592237559634558,-1.497777781231352
21768172,1689.0,1,197797,232052,-1.95,-1.18,8.765,0.37,0.37,-1.09,34.01,19.848684,-89.35513940070727,-2308.2504100784968,9.05649628719628,1.2090905673273613,-1.6010800366476718,-1.6550566229173693
21808172,1661.0,1,198039,232137,-2.24,-0.94,8.765,0.39,0.44,-0.85,34.01,19.888684,-99.5036555812678,-2062.270665199866,9.095406807834381,1.0335376142163382,-1.781443914248355,-1.4779591369820875
21848172,1649.0,1,198412,232511,-2.44,-1.05,9.11,0.27,0.35,-0.74,34.01,19.928684,-119.51892824535359,-1732.1470932832303,9.489373003523468,0.8619744775803979,-2.1371641126202596,-1.240280808373127
21888187,1655.0,1,198877,232791,-2.3,-1.54,9.59,-0.02,-0.01,-0.83,34.01,19.968699,-104.8205193956566,-1763.1249573482398,9.981467827929917,0.8303011501858828,-1.8759375483103307,-1.2625838717748108
21928209,1699.0,1,198616,231777,-1.59,-2.27,10.76,-0.05,-0.38,-1.01,34.01,20.008721,-57.13364553212589,-2323.322145302339,11.111192555257064,1.0802777420645118,-1.0284255251087255,-1.665907786366383
21968207,1712.0,1,196825,230943,-1.22,-2.35,9.47,-0.36,-0.6200000000000001,-0.9,34.01,20.048719,-52.09407562872048,-3140.0354288822123,9.833198869137144,1.1506519890914022,-0.9388600799691684,-2.2539150197396456
22008209,1680.0,1,197024,233794,0.07,-2.69,9.35,-0.11,-0.14,-1.04,34.01,20.088721,-66.53530305512295,-3649.1190454489215,9.729516945871465,1.0551303237041385,-1.1955159033030802,-2.6204388108318346
22048193,1713.0,1,197823,234610,-0.48,-2.52,8.98,-0.04,0.44,-1.09,34.01,20.128705,-54.699013545942556,-3366.565954516757,9.339229090240801,1.1761377470347596,-0.9851561783642415,-2.4170096948612514
22089193,1707.0,1,198512,236027,-1.08,-2.38,9.58,0.0,0.42,-1.0,34.01,20.169705,-38.00331701807864,-2233.0408972157165,9.930115809999398,1.0846197490365,-0.6884329420375415,-1.600908198407914
22129172,1779.0,1,199866,238728,-1.18,-2.1,10.08,-0.03,0.24,-1.01,34.01,20.209684,10.84182342313331,-701.0639450668355,10.363821688933093,1.0385566907973778,0.17966430244459217,-0.4979341837376012
22169193,1780.0,1,201993,241009,-1.69,-1.95,10.11,-0.09,0.33,-0.94,34.01,20.249705,29.39907586042749,505.40108836445853,10.434112324486449,1.000299955013495,0.5094719263035753,0.37068174394754777
22209192,1772.0,1,202578,237771,-1.83,-1.99,10.34,-0.15,0.12,-0.86,34.01,20.289704,2.6397315960291534,826.6872870761802,10.68759093528565,0.8811923740024081,0.033893131560803855,0.6019974487655358
22249195,1778.0,1,201543,234816,-2.15,-1.96,9.58,-0.24,-0.18,-0.85,34.01,20.329707,20.566893377433708,222.70357375656445,10.012017778649817,0.9013878188659973,0.3525025081179894,0.16714864758665288
22289207,1810.0,1,200421,233507,-1.78,-2.06,9.98,-0.19,-0.14,-0.72,34.01,20.369719,33.824842989767895,-802.3342906900639,10.344679792047698,0.7576938695805846,0.5881285995160124,-0.5708455676343527
22329209,1769.0,1,199796,233828,-0.92,-1.82,9.25,-0.31,0.02,-0.97,34.01,20.409721,6.96495775549474,-1532.166907936769,9.472132811568892,1.0185283501208986,0.11076294659006236,-1.0963015222770107
22369879,1775.0,1,200220,235676,-1.27,-2.19,9.14,-0.34,0.41,-0.84,34.01,20.450391,-13.155945463483118,-1489.2092999073743,9.484123575744889,0.9946356116689166,-0.24683456430068487,-1.0653734294474455
22408195,1770.0,1,201052,238125,-0.53,-2.12,9.24,-0.12,0.53,-0.66,34.01,20.488707,3.6148667761578697,-685.7285964794671,9.494888098340075,0.8549268974596601,0.051223661378527595,-0.48689322716573324
22448192,1840.0,1,202290,240355,-1.08,-2.11,9.44,-0.08,0.54,-0.56,34.01,20.528704,39.45401007210797,473.60568118553,9.733041662296529,0.7820485918406862,0.6881726241368514,0.34779007586140026
22488193,1797.0,1,203439,242201,-1.77,-2.63,10.29,-0.15,0.38,-0.4,34.01,20.568705,22.905647976451775,1523.761491645408,10.767260561535604,0.5717516943569123,0.3940678799152319,1.1038684024103507
22528193,1777.0,1,204070,242896,-1.93,-3.15,10.884999999999998,-0.15,0.01,-0.43,34.01,20.608705,-32.18270110004978,2241.944941382095,11.494808610846896,0.45552167895721496,-0.5849864047978519,1.6209373320144995
22568196,1747.0,1,204308,243115,-1.9,-3.13,10.55,0.02,-0.39,-0.3,34.01,20.648708,-39.30788254325883,2712.565993217633,11.167336298330055,0.49244289008980524,-0.7116182523350587,1.959769316531825
22608193,1822.0,1,204610,244469,-1.34,-2.84,9.65,-0.03,-0.43,-0.16,34.01,20.688705,8.976493244710099,3146.2241522787417,10.14808848995711,0.45978255730290596,0.14651283694952486,2.271989209933775
22648209,1853.0,1,205201,245776,-1.04,-3.18,10.07,-0.17,-0.39,-0.2,34.01,20.728721,51.95578540031967,3632.504765859996,10.611262884313064,0.47010637094172636,0.9103596547303501,2.622095574044359
22688206,1862.0,1,205593,246774,-0.53,-3.2,9.76,0.15,-0.31,-0.31,34.01,20.768718,48.37811355449438,4039.9220226930734,10.284867524669435,0.46335731352812376,0.84677570261212,2.9154228638477857
22728193,1823.0,1,205960,246819,-0.41,-2.68,9.07,0.31,-0.06,-0.19,34.01,20.808705,8.481092154631732,4131.857624766828,9.466541078979164,0.36851051545376556,0.13770835164503328,2.9816135333406826
22768193,1797.0,1,205444,243813,-0.58,-2.43,9.16,0.34,0.09,-0.08,34.01,20.848705,-16.55079169772408,3770.6249005863947,9.494572133592962,0.3606937759374287,-0.3071692595183614,2.7215376180596373
22808172,1808.0,1,203635,239315,-0.73,-2.36,9.19,0.31,-0.03,-0.06,34.01,20.888684,-15.104982425591446,3012.3968505723874,9.516228244425413,0.3171750305430741,-0.28147370344363476,2.175637867292161
22848192,1805.0,1,202421,237505,-0.92,-2.07,9.2,0.21,-0.17,0.05,34.01,20.928704,-9.273402056922384,2023.01623199159,9.474771765061151,0.27477263328068174,-0.1778323011815081,1.4633157195063446
22888172,1846.0,1,201865,238394,-1.08,-2.18,8.95,0.05,-0.04,0.06,34.01,20.968684,20.440306578294127,938.3502769276805,9.274766843430621,0.08774964387392122,0.35025275204137124,0.6823912014482006
22928172,1858.0,1,201197,236012,-0.8,-2.12,8.765,-0.18,0.26,0.06,34.01,21.008684,43.44463290150699,-163.21138445985423,9.05315552721812,0.3218695387886216,0.7590957221293368,-0.1106976804460441
22968172,1840.0,1,198781,232933,-1.78,-3.32,9.65,-0.27,0.5800000000000001,-0.25,34.01,21.048684,16.531537583675114,-1165.4696497446157,10.359213290593065,0.686876990442976,0.28078439627668933,-0.8322913186838896
23008193,1807.0,1,197945,232810,-1.71,-3.375,10.0,-0.21,0.5800000000000001,-0.01,34.01,21.088705,-4.646488626261987,-1848.2885492512014,10.691806442318342,0.6169278726074873,-0.09560076774067591,-1.3238989122740787
23048193,1840.0,1,197871,234073,-0.71,-3.3,10.35,-0.31,0.31,0.27,34.01,21.128705,21.12388557375062,-1972.9641569308321,10.8865329650904,0.5148786264742401,0.36240161755760114,-1.4136613302667087
23088172,1860.0,1,198027,234961,-0.9,-2.88,10.48,-0.02,-0.48,0.32,34.01,21.168684,55.94568055833204,-1468.405088054037,10.905723268082681,0.5772347875864725,0.9812698202280176,-1.0503950676400173
23129194,1878.0,1,198252,236078,-0.3,-2.2,9.52,-0.01,-0.6200000000000001,0.48,34.01,21.209706,65.82779164522213,-552.8389950039431,9.77549998721293,0.7841555968046139,1.156899029740078,-0.391216998458898
23169193,1870.0,1,199248,237958,-1.07,-2.04,9.44,-0.11,-0.18,0.64,34.01,21.249705,77.51389612982533,330.2655398736823,9.717000566018301,0.6738694235532579,1.3645896005968463,0.2445897953974067
23209194,1901.0,1,199777,237487,-1.53,-1.95,9.47,-0.06,-0.2,0.55,34.01,21.289706,98.60647050493846,739.7926148852018,9.78898871181288,0.5883026432033092,1.7394560771526428,0.5394360862688564
23249193,1872.0,1,198500,234705,-1.39,-1.91,9.3,0.1,-0.5,0.32,34.01,21.329705,93.35495372399133,477.26076794127954,9.595321776782685,0.6019966777316964,1.646123819210244,0.3504216204856862
23289172,1869.0,1,197123,233045,-1.07,-1.71,9.01,0.14,-0.22,0.32,34.01,21.369684,80.18673757543075,-326.48189998429285,9.233043918448564,0.4127953488110059,1.4120925102600976,-0.22824718778861983
23329172,1837.0,1,196296,230554,-1.47,-1.83,9.25,0.1,0.08,0.34,34.01,21.409684,73.19087178597621,-1325.2691839426554,9.54318081144856,0.363318042491699,1.2877589171997676,-0.94734183137576
23369164,1827.0,1,195178,228292,-1.99,-1.62,9.9,0.14,0.01,0.45,34.01,21.449676,55.401834484024135,-2168.5164507540335,10.227145251730809,0.471380949975707,0.971604349430624,-1.5544526772211267
23409849,1792.0,1,194179,226485,-1.41,-1.47,9.69,0.14,-0.13,0.4,34.07,21.490361,42.97288831169726,-2658.8420901448007,9.901772568585889,0.4432832051860301,0.7507116705161356,-1.9074713295030865
23448172,1773.0,1,193650,225844,-1.94,-1.61,10.25,-0.06,0.28,0.42,34.07,21.528684,21.964197879470884,-2780.7045643651268,10.555481988047728,0.5083306010855534,0.37733601615920115,-1.9952083821003297
23488172,1723.0,1,193694,225767,-2.0,-2.02,10.55,-0.07,0.5800000000000001,0.55,34.07,21.568684,-12.546658504505565,-2624.0344200621553,10.926248212446943,0.8023714850367005,-0.23600604941855655,-1.8824109292415008
23528172,1706.0,1,193740,225650,-2.16,-2.09,10.07,-0.04,0.54,0.52,34.07,21.608684,-21.95196380581357,-2278.9630278939126,10.508977114829017,0.7507329751649384,-0.40316125752785476,-1.6339706519685222
23568172,1709.0,1,194062,226186,-2.08,-2.3,9.97,-0.01,0.47,0.42,34.07,21.648684,-14.348316518193911,-1778.1824124053826,10.441134995775124,0.6303967004989794,-0.26802590529479037,-1.2734247539641927
23608172,1677.0,1,194124,226580,-1.43,-1.84,9.55,0.05,0.21,0.19,34.07,21.688684,-28.350280777440457,-1123.132014309979,9.830208543057466,0.2875760768909681,-0.5168749510953362,-0.8018095861346579
23648163,1648.0,1,194443,227952,-1.2,-1.44,9.4,0.04,0.06,0.12,34.07,21.728675,-62.16962620024209,-360.8761578875502,9.585071726387863,0.13999999999999999,-1.1179271807855804,-0.25300994460943865
23688164,1647.0,1,195494,230995,-1.52,-1.3,9.8,0.05,-0.07,0.17,34.07,21.768676,-40.62987037346696,373.23516281600376,10.002019796021203,0.19052558883257653,-0.7351131994736346,0.27552653857691894
23728178,1678.0,1,196034,231626,-1.16,-1.14,9.35,0.01,-0.26,0.07,34.07,21.80869,-16.203342505229664,905.1553056935295,9.490400413048967,0.26944387170614964,-0.3009942401842484,0.6584918923641832
23768172,1600.0,1,195659,230788,-2.23,-1.78,10.01,0.1,-0.32,0.01,34.07,21.848684,-76.10491673175326,1126.4085130867593,10.408717500249491,0.33541019662496846,-1.3655912718740788,0.8177870684925757
23808172,1602.0,1,195045,230502,-1.96,-1.9,9.71,0.23,-0.23,0.02,34.07,21.888684,-76.87322298215787,1054.405795543993,10.08641165132576,0.32588341473600646,-1.3792459473007441,0.7659474332265749
23848173,1611.0,1,194866,230616,-1.69,-1.62,9.46,0.22,0.04,-0.05,34.07,21.928685,-54.93522952183691,800.4977987815946,9.74536299990924,0.229128784747792,-0.9893543122200208,0.5831418615415102
23888172,1584.0,1,194916,230635,-1.54,-1.31,9.29,0.16,0.1,0.04,34.07,21.968684,-87.56290750613039,495.3315762240881,9.507460228683577,0.1928730152198591,-1.569227705891704,0.3634320198471578
23928178,1590.0,1,194508,227751,-1.51,-1.15,9.25,-0.01,0.32,0.11,34.07,22.00869,-62.664384884412975,242.3604363454342,9.442727360249261,0.33852621759621515,-1.126720248970721,0.18130095491415982
23968172,1587.0,1,193872,226748,-1.94,-1.31,9.86,-0.16,0.18,0.07,34.07,22.048684,-86.36963555361898,105.71647033308041,10.134066311209928,0.25079872407968906,-1.5480203537470272,0.08292170478137269
24008172,1530.0,1,193673,226781,-2.0,-1.41,9.86,-0.22,-0.03,0.01,34.07,22.088684,-111.49933879240034,97.3477112051477,10.15911905629617,0.22226110770892868,-1.9946364539196848,0.07689646801772736
24048193,1641.0,1,193914,227934,-2.15,-1.53,9.84,-0.27,0.02,0.01,34.07,22.128705,-34.81540206847953,165.95526085323655,10.187688648560083,0.2709243436828813,-0.6317759203073829,0.12629169185964018
24088172,1600.0,1,194297,228961,-2.07,-1.55,9.7,-0.24,0.06,0.04,34.07,22.168684,-41.94089816402968,229.22271689089533,10.038794748374926,0.25059928172283336,-0.7584133599839064,0.171842220466452
24128172,1607.0,1,194390,228588,-2.27,-1.38,9.61,-0.14,0.06,0.11,34.07,22.208684,-65.82366131228093,249.36612252137618,9.970426269723877,0.18788294228055935,-1.1828682943405642,0.18634482309779038
24169173,1648.0,1,193887,227656,-2.41,-1.16,9.73,-0.11,-0.02,0.31,34.07,22.249685,-6.797701587073014,278.1839818901786,10.090916707613834,0.3295451410656816,-0.13383306734521708,0.20709275275667174
24209192,1679.0,1,193932,227986,-2.55,-0.99,9.77,-0.22,-0.05,0.63,34.07,22.289704,10.340786625468763,406.23006506537826,10.145713380536629,0.6691786009728644,0.1707596568747789,0.2992818044421135
24249193,1661.0,1,194541,229128,-2.53,-1.09,9.47,-0.4,-0.24,0.72,34.07,22.329705,-11.27166142418546,653.3520339372564,9.86255038009946,0.8579044235810886,-0.21334624248278214,0.4772016548272769
24289192,1665.0,1,195095,230060,-2.6,-1.7,9.45,-0.4700000000000001,-0.45,0.64,34.07,22.369704,-6.156894107142743,912.0590964683703,9.947487119871028,0.9126883367283709,-0.12244435594944314,0.6634623991441246
24329193,1701.0,1,195369,230220,-2.64,-2.48,9.43,-0.4700000000000001,-0.41,0.58,34.07,22.409705,13.580509691082085,1003.4783136958873,10.101727575023986,0.8517041739947034,0.22833743514995902,0.7292812881959572
24369193,1699.0,1,194764,229108,-1.98,-2.78,9.17,-0.36,-0.5,0.46,34.07,22.449705,15.347245648011706,789.2473673792753,9.784564374564663,0.7688953114696434,0.2597366409273282,0.5750419136453077
24409880,1717.0,1,194017,228636,-1.43,-2.82,9.09,-0.28,-0.42,0.41,34.13,22.490392,18.204109281294343,242.16986051929945,9.624209058410981,0.6503076195155643,0.31051007356590854,0.18116374646349995
24448192,1734.0,1,193785,228593,-1.19,-2.79,9.64,-0.3,-0.32,0.41,34.13,22.528704,29.949795544357485,-551.2958488080375,10.105928952847432,0.600416522091123,0.5192595579038385,-0.3901059829488189
24488194,1744.0,1,193349,226709,-1.09,-2.64,9.69,-0.3,-0.33,0.37,34.13,22.568706,35.332401383140564,-1412.169274435593,10.102168084129268,0.5794825277780168,0.6149215880377228,-1.0099070948751643
24528193,1776.0,1,192579,224999,-1.45,-2.11,9.84,-0.21,-0.23,0.46,34.13,22.608705,47.69964608327975,-2091.6317817043555,10.16760542114022,0.555517776493246,0.8347176813450701,-1.4990981942640746
24568196,1755.0,1,192292,224585,-2.02,-1.75,9.51,-0.17,-0.06,0.59,34.13,22.648708,35.738462737657045,-2336.1049233242243,9.878410803363058,0.6169278726074873,0.6221382884046855,-1.675110974425878
24608193,1787.0,1,192458,225102,-2.77,-2.0,9.71,-0.13,-0.01,0.62,34.13,22.688705,33.725829442830374,-2018.3369148887907,10.293541664558415,0.6335613624582863,0.5863688873627366,-1.4463282531805008
24648192,1807.0,1,193233,227683,-3.15,-2.39,9.56,-0.05,0.09,0.78,34.13,22.728704,75.12278325537424,-1255.063129880864,10.345443441438361,0.7867655305108379,1.3220936945802593,-0.8967957358917009
24688172,1820.0,1,194914,230389,-3.16,-2.72,9.54,-0.1,0.41,0.9,34.13,22.768684,44.160065295403,-376.9555408478108,10.411320761555663,0.9940321926376429,0.7718107002038062,-0.26458658194214996
24728173,1744.0,1,195702,231402,-3.11,-2.93,9.82,-0.01,0.13,0.9,34.13,22.808685,-4.551180408190061,284.08632551508833,10.709313703501266,0.9093954035511727,-0.09390690831602506,0.21134224987527966
24768173,1819.0,1,195950,232500,-2.35,-2.78,9.25,-0.02,-0.39,0.94,34.13,22.848685,26.51622535905951,642.3857396310831,9.940492945523376,1.0178899744078433,0.45823664365547845,0.46930627647973067
24808193,1790.0,1,196087,233260,-1.65,-2.4,8.91,-0.09,-0.6200000000000001,1.05,34.13,22.888705,19.900152099074987,919.4598859338364,9.373931939159789,1.2227019260637484,0.34065288988990144,0.668790728958098
24848192,1806.0,1,196449,235036,-1.46,-2.4,9.38,-0.16,-0.6200000000000001,1.15,34.13,22.928704,2.878048564150118,1437.6371263137291,9.791629077942035,1.3162446581088183,0.03812860517128802,1.041861636017704
24888196,1813.0,1,197913,238062,-2.04,-2.48,9.68,-0.21,-0.4,1.22,34.13,22.968708,20.03365144984555,2302.910702977551,10.198745020834671,1.3009611831257688,0.34302549886383943,1.664830714829464
24928193,1808.0,1,198956,239201,-1.91,-2.43,9.6,-0.15,-0.38,1.14,34.13,23.008705,-3.184975249210238,3242.8871797343286,10.085286312247163,1.210991329448729,-0.06962611143030252,2.3415834732895817
24968195,1823.0,1,199362,239782,-1.77,-2.34,9.63,-0.11,-0.18,0.81,34.13,23.048707,9.985370896257757,3744.6560008645765,10.06704524674445,0.8370185183136631,0.16444305275844878,2.702840847496237
25008193,1856.0,1,199409,239782,-2.05,-2.32,9.41,-0.0,0.02,0.72,34.13,23.088705,38.04126754786063,3397.972947190497,9.906210173421519,0.7202777242147642,0.6630647447985191,2.45324022589896
25048172,1819.0,1,198427,233939,-1.3,-2.15,9.2,0.03,0.33,0.58,34.13,23.128684,-10.86908567555093,2191.5451466837353,9.53690201270832,0.6679820356865894,-0.2061914898312757,1.584651104719086
25088163,1791.0,1,195796,229324,-1.63,-1.92,8.84,0.04,0.46,0.42,34.13,23.168675,-30.997002171737734,548.9155511695291,9.191784375190705,0.6241794613730893,-0.5639136437584618,0.4020107542626236
25128163,1841.0,1,195076,228066,-2.64,-2.3,9.23,-0.01,0.52,0.55,34.13,23.208675,-2.952714747450276,-913.2204902222531,9.8718032800497,0.7569676347110226,-0.06549827599450256,-0.650680056330803
25169173,1810.0,1,194610,227619,-2.06,-2.04,9.34,0.12,0.18,0.49,34.13,23.249685,-13.418229138805682,-1722.4239543647825,9.779611444224152,0.5356304696336832,-0.251495984736034,-1.233280461825462
25209164,1826.0,1,194427,227852,-1.81,-1.64,8.89,-0.08,0.27,0.3,34.13,23.289676,-27.485406999262047,-1757.5947293131321,9.21942514476906,0.4114608122288197,-0.5015040352400495,-1.2586022858838681
25249173,1808.0,1,194849,229361,-2.79,-1.79,9.79,-0.14,0.46,0.36,34.13,23.329685,-16.481457464417897,-1227.9107322509838,10.335971168690438,0.6006662967072482,-0.30593702113522436,-0.8772468849904224
25289173,1849.0,1,195900,231308,-2.53,-1.51,9.35,-0.04,0.44,0.47,34.13,23.369685,-6.787745588477219,-492.39227691835407,9.803239260570967,0.6450581369148055,-0.13365612497451226,-0.3476973102370955
25329172,1838.0,1,196574,231983,-2.46,-1.09,9.25,-0.15,0.39,0.31,34.13,23.409684,10.355763591439386,136.59264539210656,9.633389849891886,0.5202883815731426,0.171025834078332,0.10515155537719799
25369196,1855.0,1,196698,231691,-3.325,-1.02,9.32,-0.16,0.41,0.35,34.13,23.449708,5.766377813606727,496.75748001561175,9.947784929319694,0.5623166367803819,0.08946125853172164,0.36445862460597245
25409859,1849.0,1,196802,231796,-3.325,-1.04,9.55,-0.23,0.35,0.51,34.09,23.490371,15.706020960510978,565.0338682804836,10.16561483629987,0.6599242380758567,0.26611295303034455,0.4136154229285991
25448173,1904.0,1,197044,234589,-3.325,-1.47,9.66,-0.33,0.13,0.34,34.09,23.528685,67.72323885138665,388.4460391715972,10.3214400642546,0.4913247398615299,1.1905857482522944,0.2864778791548888
25608172,1871.0,1,196853,232348,-3.325,-2.24,9.54,-0.42,-0.35,0.27,34.09,23.688684,34.61722994854143,28.407131722178274,10.348179791634855,0.6097540487770459,0.6022112478462547,0.027261473431569327
25648195,1827.0,1,195800,229500,-3.325,-2.22,9.93,-0.3,-0.46,0.48,34.09,23.728707,1.707074851624294,-455.4822428748808,10.704621665430311,0.7293833011524188,0.017317547120833162,-0.32112327570384536
25688192,1828.0,1,195670,228787,-2.9,-1.76,9.14,-0.21,-0.61,0.38,34.09,23.768704,-0.5598823152430786,-1001.9543414602967,9.749215353042521,0.7487322618933954,-0.022971809243800958,-0.7145655684463089
25728193,1758.0,1,195215,228256,-2.26,-1.52,8.94,-0.25,-0.6200000000000001,0.17,34.09,23.808705,-64.95105911725601,-1545.5125735008523,9.34567279547064,0.6897825744392214,-1.167360025673758,-1.1059099712194163
25768193,1792.0,1,194783,227809,-1.73,-1.46,9.15,-0.2,-0.47,0.08,34.09,23.848705,-17.863128569716878,-2016.0359199583204,9.42586866023498,0.5170106381884226,-0.3304926855975716,-1.4446716110145486
25808193,1839.0,1,194429,227955,-1.41,-1.4,9.2,-0.16,-0.24,0.02,34.09,23.888705,15.951146986274841,-2340.4533615135624,9.412125158538851,0.2891366458960192,0.2704694401976314,-1.6782417097287248
25848193,1749.0,1,194380,228625,-1.51,-1.46,9.5,-0.2,-0.05,-0.02,34.09,23.928705,-44.15080547505759,-2453.3418768580077,9.729424443408767,0.20712315177207982,-0.7976888013059181,-1.759517801255416
25888209,1839.0,1,194485,229586,-2.01,-1.59,9.75,-0.21,0.05,-0.03,34.09,23.968721,26.243426623062938,-2315.293862563905,10.081205285083724,0.21794494717703367,0.45338834495313657,-1.6601276816262311
25928193,1840.0,1,195097,231862,-2.28,-1.76,10.01,-0.19,0.01,-0.05,34.09,24.008705,51.74281492590576,-1925.5264381161076,10.416146120326845,0.19672315572906005,0.9065746501152588,-1.379507702110302
25968193,1790.0,1,195809,234161,-2.72,-2.28,10.1,-0.07,0.01,-0.09,34.09,24.048705,-1.3680874270564893,-1321.5234939738564,10.705456552618388,0.11445523142259598,-0.03733558472287886,-0.9446450553591225
26008193,1825.0,1,196491,236074,-2.84,-2.31,9.82,0.07,0.06,-0.01,34.09,24.088705,36.08309996155169,-577.5217046246191,10.480176525230862,0.09273618495495704,0.6282633322003727,-0.4089877536161942
26048172,1834.0,1,197266,237797,-3.0,-2.21,9.82,0.13,0.13,0.01,34.09,24.128684,62.26328281911949,185.48673081511,10.503166189297398,0.1841195263952197,1.0935490165776391,0.14035372053836315
26088163,1822.0,1,197670,238706,-2.89,-2.09,9.57,0.2,-0.1,0.0,34.09,24.168675,39.27047863774299,795.1054425428349,10.212986830501643,0.223606797749979,0.6849108230444818,0.579259538898957
26128172,1767.0,1,198149,239983,-2.75,-2.21,9.51,0.08,-0.04,0.07,34.09,24.208684,2.7896371418897092,1070.2141806557265,10.143308138866727,0.11357816691600547,0.036557318624627765,0.7773289608453067
26168172,1735.0,1,198671,239396,-2.95,-2.56,9.74,0.01,0.05,0.13,34.09,24.248684,-31.168246359765956,923.265133609547,10.493983990839705,0.1396424004376894,-0.5669570705235009,0.6715303846035737
26208164,1735.0,1,197834,235143,-2.8,-2.56,9.69,0.22,-0.08,0.15,34.09,24.288676,-32.48765121244985,456.53869167385693,10.406233708695956,0.2780287754891569,-0.5904061118534111,0.33550239365206846
26248173,1742.0,1,196825,233270,-2.23,-2.1,9.25,0.36,-0.1,0.14,34.09,24.328685,-4.413794295307375,-52.21412239760367,9.743993021343972,0.3989987468652001,-0.09146522210228365,-0.030783230308601316
26288172,1776.0,1,196893,233643,-1.69,-1.75,9.03,0.28,-0.21,0.08,34.09,24.368684,3.406023971550703,-303.826799316893,9.351978400317229,0.3590264614203248,0.047512015520377135,-0.21193624570764935
26328172,1726.0,1,197271,234252,-1.77,-1.64,9.23,0.22,-0.29,0.05,34.09,24.408684,-7.816969682496069,-166.27245441620997,9.540199159346727,0.3674234614174767,-0.1519479466767699,-0.11290155212584484
26368173,1799.0,1,197662,235163,-1.84,-1.69,9.45,0.19,-0.27,0.04,34.09,24.448685,27.324969951979924,254.33966052502052,9.774671349973868,0.33256578296631784,0.4726100070292416,0.189925610113744
26408172,1793.0,1,198074,236133,-1.94,-1.79,9.71,0.16,-0.26,-0.09,34.09,24.488684,59.4442494172864,714.8327200604514,10.062395341070635,0.31827660925679097,1.043447919393166,0.5214657667010668
26448879,1792.0,1,198342,236502,-1.86,-1.91,9.76,0.17,-0.38,-0.2,34.13,24.529391,27.758803064258238,1021.2493383965158,10.11757381984436,0.4618441295502196,0.48032027924735893,0.74207585304327
