timestamp_us,ecg,leads,ir,red,accX,accY,accZ,gyroX,gyroY,gyroZ,temp,time_sec,ecg_filtered,ppg_filtered,accel_magnitude,gyro_magnitude,ecg_norm,ppg_norm
1950951,1925.0,1,185096.0,222094,0.34,-0.76,9.909999999999997,-0.03,-0.01,-0.0,30.45,0.030466,4.815390590105816,-21.87041784037803,9.944913272623344,0.03162277660168379,0.3325845620337781,-0.03290657591141137
1991196,1926.0,1,184833.0,221992,0.36,-0.78,9.94,-0.03,-0.01,-0.0,30.45,0.070711,2.2598352031164946,-92.13388222413384,9.977053673304559,0.03162277660168379,0.15544181395963777,-0.1423247436937211
2031184,1923.0,1,184931.0,222058,0.37,-0.79,9.95,-0.03,-0.01,-0.0,30.45,0.110699,0.9270798256133586,-135.17201621936132,9.988168000189022,0.03162277660168379,0.06305956652980334,-0.2093461154383235
2071184,1936.0,1,185021.0,222244,0.35,-0.79,9.96,-0.03,-0.01,-0.0,30.45,0.150699,5.222721397315105,-151.86913570887418,9.997409664508103,0.03162277660168379,0.3608194024648116,-0.23534779693536007
2111184,1942.0,1,184913.0,222323,0.34,-0.78,9.97,-0.03,-0.01,-0.01,30.45,0.190699,17.48365920844262,-163.01271739240318,10.006243051215577,0.033166247903554,1.2107075437615664,-0.2527012010272047
2151184,1949.0,1,184978.0,221987,0.35,-0.77,9.94,-0.03,-0.01,-0.0,30.45,0.230699,12.309342399004285,-174.15902980743655,9.975921010112298,0.03162277660168379,0.8520408117875217,-0.2700588575657588
2191183,1937.0,1,184847.0,221794,0.35,-0.78,9.92,-0.03,-0.01,-0.0,30.45,0.270698,8.047038477203603,-154.84790444415182,9.956771565120896,0.03162277660168379,0.5565918327988642,-0.2399865009918691
2231185,1963.0,1,184937.0,222033,0.37,-0.78,9.98,-0.03,-0.01,-0.01,30.45,0.3107,23.154411620052592,-61.56799850838116,10.017270087204398,0.033166247903554,1.6037855693660439,-0.09472585254656041
2271184,1957.0,1,185081.0,222474,0.36,-0.78,9.95,-0.04,-0.01,-0.0,30.45,0.350699,20.693122141845034,111.73911952754764,9.987016571529256,0.04123105625617661,1.4331770260351553,0.17515761371058947
2311184,1956.0,1,185245.0,223143,0.35,-0.77,9.94,-0.03,-0.01,-0.0,30.45,0.390699,15.55694627064136,304.554229365664,9.975921010112298,0.03162277660168379,1.0771540992579816,0.4754200078903591
2351184,1967.0,1,185431.0,223603,0.33,-0.79,9.97,-0.04,-0.01,-0.01,30.45,0.430699,22.094162071040518,418.12226274872387,10.006692760347947,0.042426406871192854,1.5302925354398136,0.6522744547981528
2391185,1957.0,1,185553.0,223100,0.33,-0.79,9.96,-0.03,-0.01,-0.0,30.45,0.4707,15.874400631527752,387.0218743556051,9.9967294651801,0.03162277660168379,1.0991589981389973,0.6038432032915734
2431184,1962.0,1,185121.0,221756,0.36,-0.8,9.95,-0.04,-0.01,-0.01,30.45,0.510699,10.177355492926088,235.42418945258842,9.988598500290218,0.042426406871192854,0.7042584466219984,0.3677668716217835
2471185,1955.0,1,184769.0,221852,0.34,-0.81,9.95,-0.03,-0.01,-0.0,30.45,0.5507,10.764090848297197,65.76904597073944,9.98870361958948,0.03162277660168379,0.7449290240518,0.1035704628987255
2511185,1961.0,1,184962.0,221963,0.34,-0.77,9.95,-0.03,-0.01,-0.01,30.45,0.5907,5.209425168131562,-14.738234921862453,9.985539544761714,0.033166247903554,0.35989775130882895,-0.02179994469024035
2551185,1950.0,1,184868.0,222156,0.36,-0.78,9.96,-0.03,-0.01,-0.01,30.45,0.6307,0.16720923717909777,31.254934735961253,9.996979543842231,0.033166247903554,0.010387820536249768,0.04982317265242587
2591185,1958.0,1,185010.0,222294,0.36,-0.79,9.94,-0.03,-0.01,-0.01,30.45,0.6707,0.2129753370237357,155.17103291037486,9.977840447712119,0.033166247903554,0.013560177017502006,0.24279220058028558
2631184,1957.0,1,185178.0,222569,0.35,-0.8,9.98,-0.03,-0.01,-0.0,30.45,0.710699,0.7508765942147423,270.5383217196358,10.018128567751564,0.03162277660168379,0.050845734347411686,0.42244854793284037
2671183,1963.0,1,185166.0,222246,0.38,-0.79,9.97,-0.03,-0.01,-0.0,30.45,0.750698,3.161621635021725,318.4011698427815,10.008466415990014,0.03162277660168379,0.2179507024528981,0.4969832323866903
2711185,1968.0,1,184913.0,221944,0.37,-0.79,9.97,-0.03,-0.01,-0.0,30.45,0.7907,6.518383177043734,297.3931810589977,10.008091726198357,0.03162277660168379,0.4506304429158476,0.4642684258841467
2751184,1971.0,1,184899.0,222048,0.37,-0.78,9.92,-0.03,-0.01,-0.01,30.45,0.830699,7.418835849167483,244.6359378085394,9.957494664824079,0.033166247903554,0.5130468795396765,0.38211191760008695
2791185,1968.0,1,185021.0,222232,0.34,-0.78,9.94,-0.03,-0.01,-0.0,30.45,0.8707,3.409851456667063,197.27798922117782,9.976352038696309,0.03162277660168379,0.23515718249401826,0.30836349073549996
2831194,1961.0,1,184970.0,221971,0.36,-0.78,9.98,-0.03,-0.01,-0.0,30.45,0.910709,-7.991746343712926,171.14301927599053,10.016905709848725,0.03162277660168379,-0.5551643175125964,0.2676646645172293
2871184,1952.0,1,184798.0,221611,0.36,-0.76,9.96,-0.03,-0.01,-0.0,30.45,0.950699,-14.560881934079966,162.6397949112689,9.995438959845636,0.03162277660168379,-1.0105153292236646,0.2544229714354855
2911184,1959.0,1,184742.0,221375,0.34,-0.79,9.91,-0.03,-0.01,-0.01,30.45,0.990699,-15.210841182456331,154.84400617663866,9.947250876498492,0.033166247903554,-1.0555683803059315,0.24228293639391105
2951185,1951.0,1,184681.0,221272,0.37,-0.8,9.96,-0.03,-0.01,-0.0,30.45,1.0307,-18.54580181898264,117.60486290785023,9.998924942212538,0.03162277660168379,-1.2867369532435458,0.18429207496983677
2991869,1950.0,1,184649.0,221170,0.38,-0.79,9.96,-0.03,-0.01,-0.01,30.31,1.071384,-27.20466405500241,13.907397319868819,9.998504888232041,0.033166247903554,-1.8869409869706173,0.022808624248764647
3030193,1936.0,1,184558.0,220576,0.37,-0.76,9.96,-0.03,-0.01,-0.01,30.31,1.109708,-38.608938940311546,-176.5339766387643,9.995804119729438,0.033166247903554,-2.6774480537560192,-0.2737572566291042
3070184,1941.0,1,184147.0,219265,0.35,-0.79,9.94,-0.03,-0.01,-0.0,30.31,1.149699,-36.99388856833014,-430.87798604113976,9.977484652957378,0.03162277660168379,-2.5654980398265645,-0.669835869309188
3110184,1947.0,1,183752.0,218751,0.38,-0.81,9.96,-0.03,-0.01,-0.0,30.31,1.189699,-33.237217932981906,-682.3116173532027,10.000104999448757,0.03162277660168379,-2.305097907885384,-1.0613822796421668
3150184,1946.0,1,183701.0,218621,0.38,-0.78,9.97,-0.03,-0.01,-0.01,30.31,1.229699,-32.79008409070203,-852.8350271419129,10.007682049305924,0.033166247903554,-2.2741040511364137,-1.326930800864617
3190184,1955.0,1,183696.0,218630,0.35,-0.77,9.98,-0.03,-0.01,-0.0,30.31,1.269699,-28.810555981342777,-895.0428122070534,10.015777553440373,0.03162277660168379,-1.9982561673773083,-1.392659107154122
3230184,1951.0,1,183782.0,218870,0.34,-0.79,9.97,-0.03,-0.01,-0.01,30.31,1.309699,-30.22784129798748,-811.306383371032,10.00702753069062,0.033166247903554,-2.0964977539513114,-1.2622600911046165
3271184,1961.0,1,183876.0,219290,0.37,-0.8,9.98,-0.03,-0.01,-0.0,30.31,1.350699,-23.819601890373065,-642.4519810534249,10.018847239078955,0.03162277660168379,-1.6522995398327134,-0.9993106409798519
3311183,1961.0,1,184091.0,219657,0.37,-0.78,9.91,-0.03,-0.01,-0.0,30.31,1.390698,-22.927007300991917,-441.78954512246446,9.947532357323599,0.03162277660168379,-1.5904277998250114,-0.6868279549229311
3351185,1959.0,1,184166.0,220307,0.37,-0.76,9.96,-0.03,-0.01,-0.0,30.31,1.4307,-26.472310692764317,-251.4827226367852,9.995804119729438,0.03162277660168379,-1.8361766451728732,-0.3904716050690752
3391184,1977.0,1,184511.0,220972,0.34,-0.77,9.93,-0.04,-0.01,-0.0,30.31,1.470699,-7.194427274261952,-86.59985965749587,9.965610869384777,0.04123105625617661,-0.4998967651936248,-0.13370685650272923
3431184,1990.0,1,184722.0,221320,0.34,-0.81,9.93,-0.03,-0.01,-0.0,30.31,1.510699,2.742676146403573,70.82132270861874,9.968781269543435,0.03162277660168379,0.18891077026245834,0.11143814873853361
3471184,1987.0,1,184845.0,221624,0.38,-0.77,9.95,-0.03,-0.01,-0.0,30.31,1.550699,5.149378449314775,258.45201467325705,9.98698152596669,0.03162277660168379,0.3557355089883555,0.4036270795656341
3511184,2007.0,1,184934.0,222177,0.36,-0.77,9.96,-0.03,-0.01,-0.01,30.31,1.590699,18.55215665646813,495.89126440847673,9.996204279625342,0.033166247903554,1.2847722950939295,0.7733806619358247
3551184,2003.0,1,185220.0,223018,0.37,-0.8,9.96,-0.03,-0.01,-0.01,30.31,1.630699,23.662158075278818,742.9809707638747,9.998924942212538,0.033166247903554,1.638980894367252,1.1581624711505585
3591184,2020.0,1,185477.0,223336,0.37,-0.78,9.98,-0.03,-0.01,-0.01,30.31,1.670699,33.60367295578012,896.6447394021895,10.017270087204398,0.033166247903554,2.328094217802851,1.3974562231224052
3631185,2024.5,1,185610.0,223456,0.37,-0.8,9.94,-0.03,-0.01,-0.0,30.31,1.7107,46.2738526975135,849.0476016205638,9.979002956207598,0.03162277660168379,3.20634967235909,1.3233353175646703
3671184,2022.0,1,185310.0,221565,0.37,-0.8,9.97,-0.03,-0.01,-0.01,30.31,1.750699,41.286525164313424,573.1976599674982,10.008886051904078,0.033166247903554,2.860644425947784,0.8937664731694391
3711184,2017.0,1,184598.0,220359,0.37,-0.79,9.94,-0.03,-0.01,-0.01,30.31,1.790699,39.474218623679896,164.4954588340717,9.978206251626592,0.033166247903554,2.73502125902485,0.25731271432296765
3751185,2024.5,1,184371.0,220109,0.35,-0.8,9.96,-0.03,-0.01,-0.0,30.31,1.8307,51.21245298780212,-204.61882631615967,9.998204838869826,0.03162277660168379,3.548677305528533,-0.3174925438241466
3791183,2024.5,1,184408.0,220122,0.38,-0.8,9.93,-0.03,-0.01,-0.01,30.31,1.870698,49.61961164235954,-387.29517282291454,9.96941823779101,0.033166247903554,3.4382667487414147,-0.6019662928378161
3831184,2005.0,1,184291.0,220114,0.37,-0.79,9.94,-0.03,-0.01,-0.0,30.31,1.910699,38.435922996817645,-346.93860885161916,9.978206251626592,0.03162277660168379,2.6630499992383725,-0.5391208108158737
3871184,2006.0,1,184517.0,220753,0.36,-0.8,9.95,-0.03,-0.01,-0.0,30.31,1.950699,37.54195439461673,-168.0392997131659,9.988598500290218,0.03162277660168379,2.601083017152169,-0.26052887409411885
3911185,2000.0,1,184807.0,221316,0.36,-0.81,9.96,-0.03,-0.01,-0.0,30.31,1.9907,38.37227212819512,6.416647966264737,9.99936497983747,0.03162277660168379,2.6586379290314404,0.011143613467181719
3951184,1994.0,1,184801.0,221196,0.39,-0.79,9.98,-0.03,-0.01,-0.0,30.31,2.030699,35.283944852452706,65.7751843887499,10.018812304859294,0.03162277660168379,2.4445651746851382,0.10358002198405779
3991184,1975.0,1,184690.0,221037,0.35,-0.79,9.98,-0.03,-0.01,-0.01,30.31,2.070699,17.960227574238335,-4.752763450319184,10.017334974932206,0.033166247903554,1.2437417054909705,-0.0062500141190488636
4031870,1948.0,1,184719.0,221108,0.36,-0.77,9.990000000000002,-0.03,-0.01,-0.0,30.31,2.111385,-0.3823017006867489,-122.22639461251198,10.0260959500695,0.03162277660168379,-0.027702481918525795,-0.18918647472820768
4070184,1949.0,1,184647.0,221119,0.34,-0.8,9.94,-0.03,-0.01,-0.0,30.31,2.149699,-1.310763642680645,-163.55422842826266,9.977935658241137,0.03162277660168379,-0.09206042959768486,-0.25354447207706404
4110183,1925.0,1,184746.0,221621,0.36,-0.79,9.95,-0.04,-0.01,-0.01,30.31,2.189698,-14.786897298035594,-48.616274827562734,9.987802561124242,0.042426406871192854,-1.0261819756528168,-0.07455670934807138
4150185,1905.0,1,184982.0,222189,0.36,-0.79,9.92,-0.04,-0.01,-0.01,30.31,2.2297,-35.8491807084663,198.58848986710154,9.957916448735649,0.042426406871192854,-2.4861506317951387,0.3104042751006338
4190184,1892.5,1,185242.0,222847,0.36,-0.79,9.93,-0.03,-0.01,-0.01,30.31,2.269699,-40.2057108192779,449.93696920974213,9.96787841017335,0.033166247903554,-2.788131062282334,0.7018180820591711
4230185,1892.5,1,185411.0,223275,0.39,-0.77,9.95,-0.03,-0.01,-0.01,30.31,2.3097,-37.95441573622611,542.6300816839839,9.987367020391309,0.033166247903554,-2.6320786441786446,0.8461649431472772
4271195,1892.5,1,185415.0,222926,0.35,-0.78,9.98,-0.03,-0.01,-0.0,30.31,2.35071,-33.062917477202404,381.8089909647093,10.016551302718916,0.03162277660168379,-2.29301596989079,0.5957254118547691
4311185,1892.5,1,184865.0,220731,0.38,-0.8,9.95,-0.03,-0.01,-0.0,30.31,2.3907,-28.52999860545646,9.317675503664194,9.989339317492423,0.03162277660168379,-1.9788088469200822,0.015661254614145432
4351184,1892.5,1,184253.0,219829,0.39,-0.79,9.96,-0.03,-0.01,-0.0,30.31,2.430699,-25.21373880023703,-413.35501889824457,9.998889938388162,0.03162277660168379,-1.7489365544958297,-0.6425481319950501
4391185,1892.5,1,184200.0,219940,0.38,-0.8,9.94,-0.04,-0.01,-0.0,30.31,2.4707,-20.573873121460398,-699.6712098339617,9.979378738178044,0.04123105625617661,-1.4273162283554228,-1.0884156008618269
4431183,1892.5,1,184245.0,220208,0.35,-0.79,9.96,-0.04,-0.01,-0.01,30.31,2.510698,-17.311013503562325,-744.0901171716462,9.997409664508103,0.042426406871192854,-1.2011454624087172,-1.1575871895161614
4471224,1892.5,1,184214.0,220458,0.38,-0.79,9.97,-0.03,-0.01,-0.0,30.31,2.550739,-13.701326087430303,-569.2963459823015,10.008466415990014,0.03162277660168379,-0.9509337268941229,-0.8853886244291825
4511184,1892.5,1,184509.0,221404,0.38,-0.78,9.96,-0.03,-0.01,-0.01,30.31,2.590699,-10.289036098316181,-292.2232518001273,9.997719740020722,0.033166247903554,-0.7144049359413014,-0.45391501900590964
4551184,1892.5,1,184938.0,222169,0.35,-0.78,9.97,-0.03,-0.01,-0.0,30.31,2.630699,-7.640946932529161,-40.9757743579399,10.00658783002478,0.03162277660168379,-0.5308480487139416,-0.06265849781440717
4591184,1892.5,1,185020.0,222285,0.38,-0.81,9.94,-0.03,-0.01,-0.0,30.31,2.670699,-4.645320881494982,119.54328938682485,9.980185369019956,0.03162277660168379,-0.3232010403241771,0.18731070030478614
4631184,1892.5,1,184949.0,222301,0.34,-0.79,9.97,-0.03,-0.01,-0.0,30.31,2.710699,-2.5268289364951784,206.17224716363933,10.00702753069062,0.03162277660168379,-0.17635410176014757,0.32221412301477576
4671227,1892.5,1,184995.0,222530,0.34,-0.77,9.97,-0.03,-0.01,-0.0,30.31,2.750742,-0.46916884843222145,274.15069767430754,10.005468504772779,0.03162277660168379,-0.03372382872530493,0.42807394032941043
4711185,1892.5,1,185079.0,223280,0.35,-0.79,9.95,-0.04,-0.01,-0.01,30.31,2.7907,1.3269568102165865,353.7003926165621,9.987447121261768,0.042426406871192854,0.09077773233628465,0.5519531419111002
4751184,1892.5,1,185352.0,223833,0.35,-0.8,9.990000000000002,-0.04,-0.01,-0.01,30.31,2.830699,2.31969060930942,422.2793712794695,10.028090546061101,0.042426406871192854,0.15959079511421959,0.6587481350058648
4791169,1892.5,1,185289.0,223187,0.35,-0.79,9.96,-0.03,-0.01,-0.0,30.31,2.870684,3.6081204233040505,431.043699185801,9.997409664508103,0.03162277660168379,0.24890053933406422,0.6723964330191331
4831184,1892.5,1,184921.0,222008,0.32,-0.8,9.99,-0.03,-0.01,-0.0,30.31,2.910699,3.8653078015115443,352.27314479420744,10.027088311169898,0.03162277660168379,0.26672792792348987,0.5497305523609977
4871184,1892.5,1,184825.0,221635,0.38,-0.78,9.91,-0.03,-0.01,-0.0,30.31,2.950699,4.107030428842624,202.10392220232913,9.947909328095024,0.03162277660168379,0.28348335051973966,0.3158787015106731
4911184,1892.5,1,184785.0,221493,0.38,-0.77,9.92,-0.03,-0.01,-0.0,30.31,2.990699,4.2097564813548285,26.540505588147326,9.957092949249796,0.03162277660168379,0.29060398477930793,0.04248160183724452
4951185,1892.5,1,184513.0,220676,0.37,-0.77,9.94,-0.04,-0.01,-0.01,30.31,3.0307,2.974415988198388,-126.4690453166965,9.976642721877935,0.042426406871192854,0.20497421878828423,-0.19579336595772012
4991164,1892.5,1,184312.0,220777,0.35,-0.79,9.94,-0.04,-0.01,-0.01,30.31,3.070679,2.997895537241537,-224.8308001330746,9.977484652957378,0.042426406871192854,0.20660174439865453,-0.3489677516253455
5031184,1892.5,1,184386.0,221197,0.34,-0.79,9.97,-0.04,-0.01,-0.01,30.31,3.110699,0.8954959340518386,-255.82731489691272,10.00702753069062,0.042426406871192854,0.06087027438040698,-0.39723724534932103
5071870,1892.5,1,184357.0,220939,0.34,-0.8,9.96,-0.03,-0.01,-0.0,30.47,3.151385,-0.40042040216864216,-224.0815873715306,9.997859770970987,0.03162277660168379,-0.02895841109477377,-0.34780103591660194
5110185,1892.5,1,184196.0,220939,0.38,-0.78,9.94,-0.03,-0.01,-0.01,30.47,3.1897,-1.4814483005943218,-150.258530962324,9.977795347670746,0.033166247903554,-0.10389173230036018,-0.23283967380288104
5150184,1892.5,1,184386.0,221647,0.34,-0.78,9.96,-0.04,-0.01,-0.01,30.47,3.229699,-5.917969800332283,-67.59025293894703,9.996279307822487,0.042426406871192854,-0.41141690446242724,-0.1041040415028077
5190185,1897.0,1,184581.0,221564,0.36,-0.79,9.95,-0.03,-0.01,-0.01,30.47,3.2697,-0.1758822688534256,-9.754144023299446,9.987802561124242,0.033166247903554,-0.013394161466142515,-0.014038441625109256
5230184,1909.0,1,184359.0,221033,0.37,-0.78,9.96,-0.03,-0.01,-0.0,30.47,3.309699,4.493430976488568,6.938798972932175,9.997344647455144,0.03162277660168379,0.31026737375626734,0.011956736004709888
5270184,1905.0,1,184303.0,221042,0.35,-0.77,9.94,-0.03,-0.01,-0.0,30.47,3.349699,2.1847555144183577,-7.606000811387428,9.975921010112298,0.03162277660168379,0.15023753529354034,-0.01069323375010788
5311185,1913.0,1,184207.0,221000,0.35,-0.8,9.95,-0.03,-0.01,-0.0,30.47,3.3907,3.6453644692217404,-26.51293954514876,9.988243088751895,0.03162277660168379,0.25148217488649555,-0.04013616846396785
5351184,1907.0,1,184305.0,221172,0.37,-0.78,9.96,-0.03,-0.01,-0.0,30.47,3.430699,-4.50865423839239,-23.56272611105669,9.997344647455144,0.03162277660168379,-0.3137277552400366,-0.03554193230786195
5391184,1907.0,1,184360.0,221346,0.36,-0.79,9.96,-0.04,-0.01,-0.0,30.47,3.470699,-6.190689046384159,16.337768415723218,9.997764750182913,0.04123105625617661,-0.43032091137391537,0.026593333053999024
5431185,1927.0,1,184379.0,221401,0.34,-0.8,9.98,-0.03,-0.01,-0.0,30.47,3.5107,5.574793960557894,94.2333097836392,10.017784186136174,0.03162277660168379,0.3852239220036381,0.1478965948507366
5471183,1925.0,1,184214.0,221340,0.34,-0.79,9.96,-0.03,-0.01,-0.0,30.47,3.550698,6.911853327317019,191.07095150732846,9.99706456916229,0.03162277660168379,0.4779045079036027,0.2986975469913126
5511184,1930.0,1,184324.0,221605,0.38,-0.79,9.93,-0.03,-0.01,-0.0,30.47,3.590699,-0.19971176988829104,260.93696402830557,9.968620767187405,0.03162277660168379,-0.01504594460496332,0.40749678066628325
5551184,1917.0,1,184440.0,222011,0.36,-0.77,9.96,-0.03,-0.01,-0.0,30.47,3.630699,-8.12772090617532,244.0599097514588,9.996204279625342,0.03162277660168379,-0.564589629828423,0.381214894728389
5591185,1936.0,1,184396.0,220845,0.38,-0.78,9.96,-0.03,-0.01,-0.01,30.47,3.6707,-1.5306548537824765,108.24993427472904,9.997719740020722,0.033166247903554,-0.10730256976425684,0.16972406071452156
5631184,1937.0,1,183899.0,219843,0.37,-0.79,9.99,-0.03,-0.01,-0.0,30.47,3.710699,3.829101137533824,-110.27928224487299,10.028015755871149,0.03162277660168379,0.2642182002970555,-0.17058176804285602
5671184,1936.0,1,183654.0,219707,0.35,-0.79,9.97,-0.03,-0.01,-0.0,30.47,3.750699,-8.568454821453033,-311.53747465745556,10.007372282472558,0.03162277660168379,-0.5951398645520563,-0.4839921991694976
5711184,1939.0,1,183642.0,219690,0.34,-0.79,9.93,-0.03,-0.01,-0.0,30.47,3.790699,-2.0231494947619604,-391.27789783877137,9.96717612967685,0.03162277660168379,-0.1414406888435979,-0.6081684133543298
5751185,1957.0,1,183671.0,219931,0.36,-0.8,9.92,-0.04,-0.01,-0.0,30.47,3.8307,5.730996382256444,-311.81927151231423,9.958714776516095,0.04123105625617661,0.3960513634186781,-0.4844310288773106
5791183,1945.0,1,183829.0,220791,0.38,-0.8,9.96,-0.04,-0.01,-0.01,30.47,3.870698,-4.249931847579197,-126.58090902238145,9.999299975498285,0.042426406871192854,-0.2957939645930831,-0.19596756633091175
5831185,1955.0,1,184227.0,221623,0.35,-0.79,9.990000000000002,-0.03,-0.01,-0.01,30.47,3.9107,-1.4300770953189703,60.372004713979756,10.027297741665002,0.033166247903554,-0.10033084822769009,0.09516589060871038
5871184,1963.0,1,184145.0,221147,0.37,-0.79,9.96,-0.03,-0.01,-0.0,30.47,3.950699,4.73618415885694,164.72867574406956,9.998129825122296,0.03162277660168379,0.32709423105993024,0.2576758926434735
5911184,1973.0,1,184000.0,220683,0.37,-0.79,9.92,-0.03,-0.01,-0.0,30.47,3.990699,12.525033812747639,166.89664186089362,9.958282984531017,0.03162277660168379,0.8669918357258081,0.26105196984657625
5951184,1986.0,1,183975.0,220868,0.36,-0.79,9.95,-0.03,-0.01,-0.01,30.47,4.030699,19.741127148156586,105.2350807074466,9.987802561124242,0.033166247903554,1.367187844116673,0.16502916335417633
5991185,1980.0,1,184039.0,221252,0.35,-0.77,9.97,-0.03,-0.01,-0.01,30.47,4.0707,14.40249097522776,38.42095610316762,10.005813310271185,0.033166247903554,0.9971310308480917,0.060982498984616745
6031184,1983.0,1,184078.0,221254,0.35,-0.78,9.96,-0.03,-0.01,-0.0,30.47,4.110699,11.804275125133234,14.211871900083452,9.996624430276453,0.03162277660168379,0.8170311988825026,0.02328276896957456
6071870,1984.0,1,184039.0,221203,0.36,-0.79,9.96,-0.03,-0.01,-0.01,30.53,4.151385,11.466393019499478,56.94421058841623,9.997764750182913,0.033166247903554,0.7936103154918462,0.08982793928445378
6110238,1991.0,1,184008.0,221315,0.35,-0.77,9.95,-0.03,-0.01,-0.0,30.53,4.189753,17.17366060470086,159.59696437090133,9.98588503839294,0.03162277660168379,1.1892194536009943,0.24968450677936402
6150184,1997.0,1,184114.0,221828,0.34,-0.78,9.97,-0.03,-0.01,-0.0,30.53,4.229699,17.928420495069957,273.78887334932085,10.006243051215577,0.03162277660168379,1.241536942706026,0.4275104874019703
6190184,1981.0,1,184278.0,222101,0.36,-0.78,9.95,-0.03,-0.01,-0.01,30.53,4.269699,4.014669082368888,316.42265307743213,9.987016571529256,0.033166247903554,0.27708116381172226,0.49390217623197613
6230185,1985.0,1,184335.0,221876,0.36,-0.79,9.97,-0.03,-0.01,-0.0,30.53,4.3097,2.285197616600439,210.88002963434099,10.00772701466222,0.03162277660168379,0.15719985357999264,0.3295453432553328
6270184,1984.0,1,183955.0,220190,0.37,-0.8,9.96,-0.03,-0.01,-0.0,30.53,4.349699,2.0118414727162075,-55.556118372740606,9.998924942212538,0.03162277660168379,0.13825169899209713,-0.08536381901835408
6310220,1982.0,1,183403.0,219393,0.36,-0.78,9.95,-0.03,-0.01,-0.01,30.53,4.389735,-1.8049053778382265,-405.6098378096504,9.987016571529256,0.033166247903554,-0.1263127198628787,-0.6304869059896314
6350184,1989.0,1,183274.0,219283,0.34,-0.8,9.95,-0.03,-0.01,-0.01,30.53,4.429699,1.834003779962837,-706.3992377955672,9.987897676688522,0.033166247903554,0.12592457128988377,-1.09889285954532
6390184,1978.0,1,183206.0,219302,0.37,-0.79,9.95,-0.03,-0.01,-0.01,30.53,4.469699,-6.854665098226996,-843.0184727365643,9.988168000189022,0.033166247903554,-0.476345561466678,-1.3116439173272187
6430184,1975.0,1,183243.0,219483,0.36,-0.79,9.96,-0.03,-0.01,-0.01,30.53,4.509699,-15.165656374720308,-779.9577046287687,9.997764750182913,0.033166247903554,-1.0524363170940318,-1.213442188081211
6470184,1984.0,1,183378.0,220146,0.36,-0.8,9.95,-0.03,-0.01,-0.01,30.53,4.549699,-3.6857439451501723,-573.3252132571553,9.988598500290218,0.033166247903554,-0.25668630291794214,-0.8916626002332353
6510184,1990.0,1,183727.0,220888,0.35,-0.79,9.94,-0.04,-0.01,-0.01,30.53,4.589699,-0.2766571329700284,-332.37441503884753,9.977484652957378,0.042426406871192854,-0.020379545722456305,-0.5164406396031894
6550185,1984.0,1,183899.0,221185,0.35,-0.79,9.95,-0.04,-0.01,-0.0,30.53,4.6297,-8.115921038895392,-155.5677236790362,9.987447121261768,0.04123105625617661,-0.5637717015896071,-0.24110744346896282
6590184,1986.0,1,183943.0,221413,0.34,-0.8,9.95,-0.03,-0.01,-0.01,30.53,4.669699,-2.815985989202998,-75.71174394231073,9.987897676688522,0.033166247903554,-0.19639752371157962,-0.11675127820031977
6630184,1995.0,1,184024.0,221605,0.34,-0.8,9.95,-0.04,-0.01,-0.0,30.53,4.709699,-1.143879036947296,-42.74520409930352,9.987897676688522,0.04123105625617661,-0.08049253409388124,-0.0654139520468104
6670183,1983.0,1,184115.0,222142,0.37,-0.8,9.96,-0.03,-0.01,-0.0,30.53,4.749698,-5.430955476516154,45.90018590708416,9.998924942212538,0.03162277660168379,-0.3776586630596089,0.07262957088385814
6710184,1993.0,1,184347.0,222993,0.39,-0.81,9.98,-0.03,-0.01,-0.01,30.53,4.789699,-4.3518930632185295,281.3211857902551,10.020409173282298,0.033166247903554,-0.30286158286005,0.439240222530736
6750185,1984.0,1,184824.0,224365,0.35,-0.79,9.95,-0.03,-0.01,-0.01,30.53,4.8297,-6.819639253808425,677.0585492927886,9.987447121261768,0.033166247903554,-0.4739176843932593,1.0555044164075726
6790185,1993.0,1,185161.0,225344,0.34,-0.77,9.98,-0.03,-0.01,-0.01,30.53,4.8697,-2.6617623462360114,1136.3729979061652,10.015433090985132,0.033166247903554,-0.18570724477171988,1.7707743770336033
6830184,1990.0,1,185510.0,226184,0.33,-0.79,9.96,-0.03,-0.01,-0.01,30.53,4.909699,-4.437863863666944,1477.5242688687915,9.9967294651801,0.033166247903554,-0.3088207978013888,2.3020340769747114
6870185,1984.0,1,185596.0,226201,0.29,-0.78,9.94,-0.03,-0.01,-0.0,30.53,4.9497,-10.013682865214715,1516.7727159889914,9.97477318037859,0.03162277660168379,-0.6953183496551961,2.363153937913222
6910183,1989.0,1,185502.0,225298,0.38,-0.8,9.94,-0.03,-0.01,-0.0,30.53,4.989698,-7.092480033920749,1173.679848800441,9.979378738178044,0.03162277660168379,-0.4928301156486541,1.8288706765312297
6950185,1981.0,1,184691.0,221843,0.4,-0.82,9.96,-0.03,-0.01,-0.0,30.53,5.0297,-13.728414110810519,535.6058490045281,10.00169985552456,0.03162277660168379,-0.9528113801533312,0.8352264180317924
6990183,1983.0,1,183691.0,220418,0.38,-0.79,9.96,-0.03,-0.01,-0.01,30.53,5.069698,-12.40832369182108,-171.03904969525024,9.998504888232041,0.033166247903554,-0.8613070262595881,-0.26520025131303904
7030185,1983.0,1,183442.0,219879,0.32,-0.78,9.98,-0.03,-0.01,-0.01,30.53,5.1097,-12.976708363376783,-695.9910763503478,10.015547913119882,0.033166247903554,-0.9007055942558824,-1.0826846926792744
7070184,1979.0,1,183311.0,219788,0.36,-0.79,9.91,-0.03,-0.01,-0.0,30.53,5.149699,-16.791771772403163,-894.5275548237323,9.94795456362764,0.03162277660168379,-1.1651533224454866,-1.3918567197496041
7110870,1984.0,1,183329.0,219858,0.39,-0.79,9.95,-0.03,-0.01,-0.0,30.63,5.190385,-10.124209290047466,-788.3204114474144,9.988928871505692,0.03162277660168379,-0.7029796802330276,-1.2264650594386384
7151184,1979.0,1,183518.0,220666,0.39,-0.78,9.94,-0.03,-0.01,-0.0,30.63,5.230699,-20.389891827936317,-527.8767584649197,9.978181196991763,0.03162277660168379,-1.414563246324583,-0.8208877431219592
7191185,1971.0,1,183905.0,221364,0.37,-0.78,9.97,-0.03,-0.01,-0.0,30.63,5.2707,-18.603630767433096,-291.7937808647361,10.007307330146308,0.03162277660168379,-1.2907454669697225,-0.45324622302099205
7231184,1989.0,1,183937.0,221049,0.35,-0.79,9.96,-0.03,-0.01,-0.0,30.63,5.310699,-13.884054416007768,-188.07322645517823,9.997409664508103,0.03162277660168379,-0.9635998574894532,-0.29172681710506426
7271184,1975.0,1,183842.0,220797,0.38,-0.8,9.94,-0.03,-0.01,-0.0,30.63,5.350699,-12.414323147208213,-210.62791912599153,9.979378738178044,0.03162277660168379,-0.8617228889012807,-0.32685023677385067
7309183,2024.5,1,183745.0,220699,0.38,-0.79,9.97,-0.03,-0.01,-0.0,30.63,5.388698,23.15775433498486,-265.9171295019718,10.008466415990014,0.03162277660168379,1.6040172754414217,-0.4129496648411784
7349184,2018.0,1,183902.0,221070,0.39,-0.8,9.93,-0.03,-0.01,-0.01,30.63,5.428699,27.760535586937905,-243.56737271480884,9.969804411321217,0.033166247903554,1.923067030303378,-0.3781453827085004
7389184,2001.0,1,184082.0,221426,0.37,-0.8,9.97,-0.04,-0.01,-0.01,30.63,5.468699,5.681140729202741,-85.99346537739257,10.008886051904078,0.042426406871192854,0.3925955324733084,-0.13276254566260057
7429184,2003.0,1,184203.0,221790,0.38,-0.78,9.95,-0.03,-0.01,-0.0,30.63,5.508699,8.707997983747108,176.4181445421104,9.987757506067114,0.03162277660168379,0.6024073858293074,0.2758793824578159
7469185,2003.0,1,184405.0,222321,0.36,-0.79,9.95,-0.03,-0.01,-0.0,30.63,5.5487,12.7995703678137,434.6812498819371,9.987802561124242,0.03162277660168379,0.8860218125593381,0.678061028920819
7509184,2011.0,1,184548.0,222687,0.37,-0.8,9.96,-0.03,-0.01,-0.01,30.63,5.588699,16.529896907907975,549.7221567865463,9.998924942212538,0.033166247903554,1.144595857907924,0.8572091162506507
7549184,2000.0,1,184644.0,222432,0.38,-0.79,9.97,-0.03,-0.01,-0.01,30.63,5.628699,11.077569939431553,422.90508330999035,10.008466415990014,0.033166247903554,0.7666583702244704,0.6597225285194697
7589185,2000.0,1,184156.0,220304,0.37,-0.8,9.97,-0.03,-0.01,-0.01,30.63,5.6687,9.30492297087006,55.022199629537575,10.008886051904078,0.033166247903554,0.6437842752332397,0.08683487710879136
7629184,2010.0,1,183381.0,218859,0.35,-0.81,9.96,-0.03,-0.01,-0.0,30.63,5.708699,21.042758173979696,-444.6770756329569,9.999009950990148,0.03162277660168379,1.4574126531999563,-0.6913245777502373
7669185,2000.0,1,182999.0,218212,0.37,-0.79,9.99,-0.03,-0.01,-0.0,30.63,5.7487,13.098187302858582,-909.1941185247158,10.028015755871149,0.03162277660168379,0.9067209626402315,-1.414696307035812
7709185,1985.0,1,182926.0,218098,0.4,-0.78,9.92,-0.03,-0.01,-0.0,30.63,5.7887,-1.4468398686202137,-1189.3400074601075,9.958654527595582,0.03162277660168379,-0.10149278889352098,-1.8509550390510763
7749193,1986.0,1,182865.0,218208,0.38,-0.79,9.94,-0.04,-0.01,-0.01,30.63,5.828708,0.31865522582252487,-1205.9483930439362,9.978582063600017,0.042426406871192854,0.02088556155555401,-1.8768185391836543
7789184,1989.0,1,182950.0,218861,0.36,-0.8,9.95,-0.04,-0.01,-0.01,30.63,5.868699,8.1520300584599,-961.2473263730675,9.988598500290218,0.042426406871192854,0.5638695061074049,-1.4957564523035016
7829184,1993.0,1,183366.0,220190,0.37,-0.78,9.94,-0.04,-0.01,-0.0,30.63,5.908699,7.344111164348841,-525.0237388834483,9.977419506064681,0.04123105625617661,0.5078672085823812,-0.8164448626293797
7869184,1983.0,1,183893.0,221707,0.36,-0.78,9.94,-0.04,-0.01,-0.01,30.63,5.948699,7.845897768794467,-11.241510225107985,9.977053673304559,0.042426406871192854,0.5426494162037969,-0.016354650853483834
7909184,1997.0,1,184366.0,223176,0.36,-0.8,9.95,-0.04,-0.01,-0.01,30.63,5.988699,13.676142310844313,456.1202965335781,9.988598500290218,0.042426406871192854,0.9467829150827561,0.7114471026676231
7949203,1986.0,1,184752.0,224136,0.36,-0.78,9.96,-0.04,-0.01,-0.01,30.63,6.028718,13.331174244897435,788.3156479891993,9.996979543842231,0.042426406871192854,0.9228708560795496,1.2287601475176837
7989185,1991.0,1,184905.0,224221,0.35,-0.79,9.97,-0.03,-0.01,-0.0,30.63,6.0687,14.149798393694846,967.7855919197433,10.007372282472558,0.03162277660168379,0.9796152068755095,1.508240708419459
8029184,1993.0,1,184933.0,224149,0.33,-0.79,9.94,-0.03,-0.01,-0.01,30.63,6.108699,19.49088663866057,1043.972925848051,9.976803095180339,0.033166247903554,1.349841989764512,1.6268838547511633
8069184,1994.0,1,184870.0,224067,0.34,-0.79,9.97,-0.03,-0.01,-0.0,30.63,6.148699,25.629470186774963,1080.6384110988997,10.00702753069062,0.03162277660168379,1.7753485409164922,1.6839813840600748
8109185,1979.0,1,184828.0,223772,0.38,-0.79,9.94,-0.03,-0.01,-0.0,30.63,6.1887,4.81040586522085,1089.4239464234638,9.978582063600017,0.03162277660168379,0.3322390371944372,1.6976627074424557
8149878,1936.0,1,184737.0,223742,0.36,-0.77,9.95,-0.03,-0.01,-0.0,30.37,6.229393,-26.18777115568761,1007.9515207443137,9.986240533854568,0.03162277660168379,-1.8164532943153155,1.5707893228068135
8190184,1954.0,1,184773.0,223538,0.35,-0.78,9.98,-0.03,-0.01,-0.0,30.37,6.269699,-17.306726294766946,752.3536980887285,10.016551302718916,0.03162277660168379,-1.2008482871052795,1.1727582025168273
8230184,1946.0,1,184377.0,220847,0.36,-0.82,9.95,-0.03,-0.01,-0.0,30.37,6.309699,-14.18983859184865,307.09747943313727,9.990220217792999,0.03162277660168379,-0.9847958172803518,0.4793804980972652
8270184,1941.0,1,183200.0,218990,0.34,-0.78,9.93,-0.03,-0.01,-0.0,30.37,6.349699,-24.435038503790533,-229.04643315511504,9.966388513398423,0.03162277660168379,-1.6949595946768576,-0.3555325694201951
8310185,1951.0,1,182885.0,218841,0.35,-0.78,9.95,-0.04,-0.01,-0.01,30.37,6.3897,-9.157556044640106,-688.7454419466039,9.986661103692263,0.042426406871192854,-0.6359744362073925,-1.0714013885064528
8350184,1959.0,1,182957.0,219066,0.35,-0.79,9.95,-0.04,-0.01,-0.0,30.37,6.429699,-0.8394401268269217,-936.0318368433919,9.987447121261768,0.04123105625617661,-0.05938982372650674,-1.456489492038033
8390184,1955.0,1,182959.0,218981,0.37,-0.79,9.97,-0.03,-0.01,-0.01,30.37,6.469699,-4.385779778236652,-936.8031263457689,10.008091726198357,0.033166247903554,-0.305210499206014,-1.4576905868733072
8430184,1951.0,1,182880.0,219104,0.35,-0.8,9.990000000000002,-0.03,-0.01,-0.0,30.37,6.509699,-5.21772202264542,-755.7832674891985,10.028090546061101,0.03162277660168379,-0.36287801686727494,-1.1757964123970857
8470184,1947.0,1,183059.0,219786,0.35,-0.79,9.92,-0.03,-0.01,-0.0,30.37,6.549699,-10.685458567255832,-503.8593704029851,9.957559942074163,0.03162277660168379,-0.7418836460110663,-0.7834865329809296
8510184,1942.0,1,183419.0,220578,0.37,-0.76,9.94,-0.03,-0.01,-0.01,30.37,6.589699,-11.89890797152193,-281.55561552528513,9.97587590139332,0.033166247903554,-0.8259959932585507,-0.4373027835290722
8550185,1950.0,1,183559.0,220863,0.34,-0.79,9.97,-0.04,-0.01,-0.0,30.37,6.6297,-6.211628537621249,-141.8807923620919,10.00702753069062,0.04123105625617661,-0.4317723684778768,-0.21979339412059923
8590184,1949.0,1,183542.0,220827,0.37,-0.79,9.96,-0.03,-0.01,-0.0,30.37,6.669699,-2.9430641978384013,-76.25333874762092,9.998129825122296,0.03162277660168379,-0.20520616985269663,-0.11759467970061865
8630184,1951.0,1,183566.0,220907,0.37,-0.79,9.95,-0.03,-0.01,-0.0,30.37,6.709699,-4.467708838358673,-25.9895074849419,9.988168000189022,0.03162277660168379,-0.3108895539160135,-0.0393210509987437
8670185,1943.0,1,183691.0,221439,0.35,-0.81,9.94,-0.04,-0.01,-0.01,30.37,6.7497,-7.415670084909422,80.57937126808478,9.979088134694472,0.042426406871192854,-0.5152325938237805,0.12663392372446533
8710185,1943.0,1,183907.0,221961,0.35,-0.79,9.96,-0.03,-0.01,-0.01,30.37,6.7897,-11.871303174990032,278.41741699928735,9.997409664508103,0.033166247903554,-0.8240825189732413,0.43471831255152077
8750184,1938.0,1,184047.0,222274,0.34,-0.77,9.95,-0.03,-0.01,-0.0,30.37,6.829699,-12.093975723125407,529.1442428155424,9.985539544761714,0.03162277660168379,-0.83951745233379,0.8251640461244217
8790184,1945.0,1,184132.0,222746,0.35,-0.77,9.94,-0.03,-0.01,-0.0,30.37,6.869699,-8.60351582651187,723.6376743111553,9.975921010112298,0.03162277660168379,-0.597570178846156,1.1280400159700548
8830185,1941.0,1,184266.0,223011,0.37,-0.8,9.93,-0.04,-0.01,-0.01,30.37,6.9097,-10.257807007281322,734.4569290499587,9.96904208036058,0.042426406871192854,-0.7122402374049532,1.1448883601368651
8870185,1942.0,1,184286.0,222180,0.37,-0.78,9.96,-0.03,-0.01,-0.0,30.37,6.9497,-9.90201878815582,497.0049596917086,9.997344647455144,0.03162277660168379,-0.6875781607428053,0.7751149700634952
8910184,1945.0,1,183487.0,219739,0.35,-0.78,9.94,-0.03,-0.01,-0.01,30.37,6.989699,-7.733291356486369,66.52479849580797,9.976697850491414,0.033166247903554,-0.5372490624084147,0.10474736269031862
8950184,1947.0,1,182885.0,218794,0.37,-0.78,9.96,-0.03,-0.01,-0.0,30.37,7.029699,-4.264002771327496,-398.8198550739569,9.997344647455144,0.03162277660168379,-0.2967693150446543,-0.6199131678921849
8990184,1951.0,1,182706.0,218627,0.34,-0.79,9.92,-0.03,-0.01,-0.0,30.37,7.069699,-1.7262740394663758,-725.5040414468634,9.957213465623804,0.03162277660168379,-0.12086225244790835,-1.1286439204942718
9030185,1947.0,1,182697.0,218674,0.34,-0.78,9.95,-0.03,-0.01,-0.0,30.37,7.1097,-5.695686580586825,-820.0825619766517,9.98631563691034,0.03162277660168379,-0.3960089580735732,-1.27592684368477
9070184,1946.0,1,182757.0,218943,0.34,-0.79,9.94,-0.03,-0.01,-0.0,30.37,7.149699,-5.015774062111782,-705.5576630264936,9.977138868433174,0.03162277660168379,-0.3488796441929729,-1.0975823125904913
9110184,1946.0,1,182913.0,219578,0.34,-0.8,9.98,-0.03,-0.01,-0.01,30.37,7.189699,-8.899724940061267,-485.21018538947004,10.017784186136174,0.033166247903554,-0.6181024266095517,-0.7544449866707837
9150870,1942.0,1,183119.0,219894,0.36,-0.79,9.98,-0.03,-0.01,-0.01,30.03,7.230385,-7.605870381108528,-273.54417955406734,10.017689354337158,0.033166247903554,-0.5284166567968465,-0.4248269306378988
9189184,1963.0,1,183131.0,220059,0.33,-0.79,9.95,-0.03,-0.01,-0.0,30.03,7.268699,7.686208371812058,-141.60979446855384,9.986766243384292,0.03162277660168379,0.5315802690572379,-0.2193713811549155
9229184,1958.0,1,183205.0,220276,0.37,-0.79,9.96,-0.03,-0.01,-0.0,30.03,7.308699,7.829033561829567,-96.04815565294429,9.998129825122296,0.03162277660168379,0.5414804444878785,-0.14842026759843815
9269184,1965.0,1,183319.0,220488,0.36,-0.8,9.96,-0.03,-0.01,-0.0,30.03,7.348699,11.654156162831113,-85.62818975258402,9.998559896305068,0.03162277660168379,0.806625442992561,-0.13219371817946082
9309183,1968.0,1,183382.0,220673,0.36,-0.78,9.94,-0.03,-0.01,-0.01,30.03,7.388698,16.464759171888844,-26.899332954840542,9.977053673304559,0.033166247903554,1.1400807229120238,-0.04073788173419209
9349185,1953.0,1,183465.0,220918,0.36,-0.81,9.96,-0.03,-0.01,-0.01,30.03,7.4287,2.0046129516582822,150.986328523238,9.99936497983747,0.033166247903554,0.13775064153459424,0.23627554657287278
9389190,1958.0,1,183584.0,221320,0.36,-0.79,9.98,-0.03,-0.01,-0.0,30.03,7.468705,6.626163838164026,450.30839864254034,10.017689354337158,0.03162277660168379,0.45810144612606907,0.7023964925937731
9429184,1970.0,1,183845.0,222344,0.36,-0.8,9.96,-0.04,-0.01,-0.01,30.03,7.508699,20.362339543574286,772.3969773981408,9.998559896305068,0.042426406871192854,1.4102482572942765,1.2039707098649848
9469184,1968.0,1,184292.0,223414,0.35,-0.78,9.95,-0.04,-0.01,-0.01,30.03,7.548699,18.602085746829136,952.0667854326541,9.986661103692263,0.042426406871192854,1.288233216473454,1.4837625102459626
9509185,1968.0,1,184420.0,222934,0.34,-0.78,9.96,-0.03,-0.01,-0.01,30.03,7.5887,19.61233616834776,858.6027001478761,9.996279307822487,0.033166247903554,1.3582604742750144,1.3382150474926993
9549184,1969.0,1,183622.0,220007,0.36,-0.8,9.96,-0.03,-0.01,-0.01,30.03,7.628699,22.099824234280625,494.47829471166995,9.998559896305068,0.033166247903554,1.5306850180921183,0.7711803070755502
9589200,1969.0,1,182931.0,219023,0.34,-0.8,9.95,-0.03,-0.01,-0.01,30.03,7.668715,22.915779517506476,6.380082914832005,9.987897676688522,0.033166247903554,1.5872443718482983,0.011086672338990487
9629184,1967.0,1,182753.0,218712,0.35,-0.78,9.97,-0.03,-0.01,-0.0,30.03,7.708699,22.51970721524677,-406.7107940350755,10.00658783002478,0.03162277660168379,1.5597899341884702,-0.6322013761492097
9669184,1963.0,1,182643.0,218487,0.36,-0.8,9.96,-0.03,-0.01,-0.01,30.03,7.748699,20.2233212517078,-613.0519696228732,9.998559896305068,0.033166247903554,1.4006119636028243,-0.9535273108847073
9709184,1961.0,1,182560.0,218505,0.35,-0.8,9.95,-0.03,-0.01,-0.0,30.03,7.788699,19.221402381822216,-603.791451511603,9.988243088751895,0.03162277660168379,1.3311622217336174,-0.9391063179357126
9749184,1950.0,1,182667.0,218989,0.37,-0.79,9.93,-0.03,-0.01,-0.01,30.03,7.828699,10.981742990977207,-459.70830936566836,9.968244579663963,0.033166247903554,0.7600159593124689,-0.714732049456417
9789206,1940.0,1,182852.0,219521,0.34,-0.79,9.95,-0.03,-0.01,-0.01,30.03,7.868721,1.4680303491779183,-276.30228254126655,9.98710168166921,0.033166247903554,0.10055648903996749,-0.42912200174008636
9829184,1936.0,1,182963.0,219445,0.34,-0.78,9.95,-0.03,-0.01,-0.0,30.03,7.908699,0.9522484027554592,-109.82054872530091,9.98631563691034,0.03162277660168379,0.06480417004838336,-0.16986740273718642
9869184,1936.0,1,182976.0,219769,0.37,-0.78,9.98,-0.03,-0.01,-0.0,30.03,7.948699,1.1849917451887388,29.36978544511287,10.017270087204398,0.03162277660168379,0.08093717795910728,0.0468875135127886
9909184,1935.0,1,183220.0,220717,0.37,-0.78,9.97,-0.04,-0.01,-0.0,30.03,7.988699,3.9564043611904607,153.23401444288797,10.007307330146308,0.04123105625617661,0.2730424437441132,0.23977576787899804
9949185,1939.0,1,183422.0,221203,0.35,-0.8,9.93,-0.03,-0.01,-0.0,30.03,8.0287,8.39454192261996,273.9155755087291,9.968319818304387,0.03162277660168379,0.5806796360214763,0.42770779503913425
9989184,1931.0,1,183526.0,221303,0.35,-0.79,9.96,-0.03,-0.01,-0.0,30.03,8.068699,3.682157938787543,395.3529801502076,9.997409664508103,0.03162277660168379,0.2540325779586618,0.6168168637798646
10029184,1919.0,1,183428.0,221124,0.34,-0.79,9.95,-0.03,-0.01,-0.0,30.03,8.108699,-6.972953058444313,507.4027560430002,9.98710168166921,0.03162277660168379,-0.4845448963132867,0.7913069958298041
10069184,1904.0,1,183411.0,221069,0.38,-0.8,9.97,-0.03,-0.01,-0.0,30.03,8.148699,-19.846938678527106,575.1439727234599,10.0092607119607,0.03162277660168379,-1.3769275083352897,0.8967973794527606
10109184,1892.5,1,183531.0,221598,0.34,-0.77,9.92,-0.03,-0.01,-0.0,30.03,8.188699,-28.949456892259565,540.3268962055157,9.95564663896826,0.03162277660168379,-2.007884324604919,0.8425782948468117
10149185,1892.5,1,183602.0,220991,0.35,-0.79,9.96,-0.03,-0.01,-0.0,30.03,8.2287,-27.76052952515774,354.76641055536464,9.997409664508103,0.03162277660168379,-1.925471764837593,0.553613204230968
10189870,1892.5,1,182960.0,218944,0.37,-0.8,9.96,-0.03,-0.01,-0.01,30.17,8.269385,-25.082877986652974,30.14442557663018,9.998924942212538,0.033166247903554,-1.7398657105409245,0.04809382613378807
10230185,1892.5,1,182502.0,218212,0.32,-0.78,9.92,-0.03,-0.01,-0.01,30.17,8.3097,-24.001716134439047,-343.216750301207,9.955762150634175,0.033166247903554,-1.664923104096487,-0.5333249260427174
10270184,1892.5,1,182304.0,217797,0.37,-0.8,9.96,-0.03,-0.01,-0.0,30.17,8.349699,-21.86865935465636,-636.9750772116655,9.998924942212538,0.03162277660168379,-1.5170665787820308,-0.9907817022384859
10310184,1892.5,1,182218.0,217780,0.36,-0.79,9.94,-0.03,-0.01,-0.01,30.17,8.389699,-20.501977185402882,-758.5069514641382,9.977840447712119,0.033166247903554,-1.4223326370181226,-1.180037884302431
10350184,1892.5,1,182247.0,217970,0.34,-0.78,9.96,-0.03,-0.01,-0.01,30.17,8.429699,-19.003095485352645,-701.245716393364,9.996279307822487,0.033166247903554,-1.318435055796946,-1.0908675098930996
10390186,1892.5,1,182401.0,218619,0.34,-0.79,9.97,-0.03,-0.01,-0.01,30.17,8.469701,-17.63404295880075,-537.020075392965,10.00702753069062,0.033166247903554,-1.2235368086112508,-0.8351262238813991
10430184,1892.5,1,182610.0,218916,0.36,-0.8,9.96,-0.03,-0.01,-0.0,30.17,8.509699,-16.443246228754834,-361.6003459688715,9.998559896305068,0.03162277660168379,-1.1409946707135699,-0.5619528818779224
10470184,1892.5,1,182682.0,219034,0.34,-0.79,9.91,-0.03,-0.01,-0.01,30.17,8.549699,-15.35717287934595,-234.05503299215906,9.947250876498492,0.033166247903554,-1.0657116153339607,-0.36333223916507085
10510184,1892.5,1,182746.0,219329,0.34,-0.78,9.98,-0.03,-0.01,-0.01,30.17,8.589699,-14.44497516851176,-148.25202251048924,10.016206866873308,0.033166247903554,-1.0024810510085773,-0.22971502743986688
10550185,1892.5,1,182901.0,219820,0.37,-0.78,9.95,-0.03,-0.01,-0.0,30.17,8.6297,-13.467891388777176,-50.01385702989123,9.987382039353456,0.03162277660168379,-0.9347527964295363,-0.07673310194762704
10590184,1892.5,1,183041.0,220305,0.36,-0.8,9.94,-0.03,-0.01,-0.0,30.17,8.669699,-13.147633465326775,114.80251599510629,9.978637181499284,0.03162277660168379,-0.9125535637534031,0.17992810477035792
10630184,1892.5,1,183284.0,221049,0.35,-0.79,9.95,-0.03,-0.01,-0.0,30.17,8.709699,-12.030726051620483,351.5648260561838,9.987447121261768,0.03162277660168379,-0.8351331917999699,0.5486275190961257
10670184,1892.5,1,183523.0,221469,0.37,-0.8,9.96,-0.03,-0.01,-0.0,30.17,8.749699,-12.299891001971853,596.0567614728778,9.998924942212538,0.03162277660168379,-0.8537908265486549,0.9293639351762616
10710184,1892.5,1,183588.0,221518,0.37,-0.79,9.97,-0.03,-0.01,-0.0,30.17,8.789699,-11.398075047358473,736.1658365224135,10.008091726198357,0.03162277660168379,-0.7912798916377436,1.147549565731913
10750184,1903.0,1,183610.0,221373,0.34,-0.79,9.93,-0.03,-0.01,-0.0,30.17,8.829699,-1.0526005616254317,669.8760874666522,9.96717612967685,0.03162277660168379,-0.07416540847537464,1.0443194880799578
10790185,1922.0,1,183477.0,220250,0.37,-0.79,9.95,-0.03,-0.01,-0.0,30.17,8.8697,17.795194184152393,370.9912256039413,9.988168000189022,0.03162277660168379,1.2323021302062194,0.5788793870301261
10830184,1942.0,1,182765.0,218507,0.38,-0.79,9.97,-0.03,-0.01,-0.0,30.17,8.909699,38.4797745373133,-78.52965547149361,10.008466415990014,0.03162277660168379,2.666089644722181,-0.12113948648466848
10870185,1954.0,1,182329.0,217877,0.35,-0.79,9.95,-0.03,-0.01,-0.0,30.17,8.9497,48.99029792012809,-517.2591408113213,9.987447121261768,0.03162277660168379,3.394644778063575,-0.8043533994191682
10910184,1954.0,1,182175.0,217709,0.38,-0.79,9.97,-0.03,-0.01,-0.0,30.17,8.989699,50.22098059936093,-782.2944980968268,10.008466415990014,0.03162277660168379,3.47995167961478,-1.2170811726089892
10950185,1963.0,1,182242.0,217761,0.37,-0.79,9.96,-0.03,-0.01,-0.0,30.17,9.0297,57.27705456792614,-789.4928741410015,9.998129825122296,0.03162277660168379,3.969055668426614,-1.2282908834404944
10990184,1966.0,1,182313.0,218288,0.36,-0.78,9.96,-0.04,-0.01,-0.0,30.17,9.069699,60.819105574761586,-569.034014394864,9.996979543842231,0.04123105625617661,4.214579069079181,-0.884980107116514
11030185,1954.0,1,182667.0,219387,0.36,-0.78,9.97,-0.04,-0.01,-0.01,30.17,9.1097,47.70751304663824,-240.77231541585243,10.00694259002219,0.042426406871192854,3.3057263226723044,-0.37379276430033254
11070184,1941.0,1,183037.0,220183,0.34,-0.8,9.95,-0.04,-0.01,-0.01,30.17,9.149699,33.55110978484772,52.79901219414807,9.987897676688522,0.042426406871192854,2.324450710566083,0.08337280620251805
11110185,1931.0,1,183187.0,220398,0.38,-0.78,9.96,-0.04,-0.01,-0.0,30.17,9.1897,23.767641561286865,220.00902314997828,9.997719740020722,0.04123105625617661,1.6462926649056784,0.34376151880173167
11150184,1913.0,1,183209.0,220384,0.34,-0.79,9.96,-0.03,-0.01,-0.0,30.17,9.229699,3.055356842053908,261.643932138918,9.99706456916229,0.03162277660168379,0.21058477426926941,0.4085977106591632
11190871,1892.5,1,183184.0,220561,0.37,-0.79,9.94,-0.03,-0.01,-0.0,30.39,9.270386,-16.70612506530922,257.17874792166816,9.978206251626592,0.03162277660168379,-1.1592165725963683,0.40164427788799295
11229232,1892.5,1,183258.0,220890,0.36,-0.79,9.96,-0.03,-0.01,-0.0,30.39,9.308747,-19.67450388248552,302.4141158684599,9.997764750182913,0.03162277660168379,-1.3649748917769002,0.47208730433291246
11269185,1892.5,1,183367.0,221165,0.36,-0.78,9.96,-0.03,-0.01,-0.01,30.39,9.3487,-19.897422609447247,436.15594117372456,9.996979543842231,0.033166247903554,-1.3804268894491987,0.6803575000755947
11309184,1892.5,1,183486.0,221456,0.35,-0.79,9.95,-0.03,-0.01,-0.01,30.39,9.388699,-21.964939413763283,603.8022653779378,9.987447121261768,0.033166247903554,-1.5237403978437392,0.9414256638894037
11349185,1892.5,1,183581.0,221728,0.38,-0.8,9.95,-0.03,-0.01,-0.0,30.39,9.4287,-23.53230307990989,686.1409537546425,9.989339317492423,0.03162277660168379,-1.632384925161092,1.069648040892785
11389184,1892.5,1,183621.0,221681,0.35,-0.8,9.96,-0.03,-0.01,-0.0,30.39,9.468699,-25.38180284616423,580.5579658153059,9.998204838869826,0.03162277660168379,-1.7605862049395542,0.905228350081542
11429213,1892.5,1,183343.0,219880,0.36,-0.79,9.96,-0.03,-0.01,-0.0,30.39,9.508728,-26.655551489228042,281.8143987208731,9.997764750182913,0.03162277660168379,-1.8488782983673746,0.44000828108959134
11469184,1892.5,1,182657.0,218668,0.37,-0.8,9.96,-0.03,-0.01,-0.01,30.39,9.548699,-30.42115135430693,-98.78149857076832,9.998924942212538,0.033166247903554,-2.10989737533347,-0.15267678094590983
11509185,1892.5,1,182421.0,218612,0.36,-0.79,9.95,-0.04,-0.01,-0.0,30.39,9.5887,-29.477725531206065,-396.4985242007946,9.987802561124242,0.04123105625617661,-2.044502180316751,-0.6162982625756652
11549184,1901.0,1,182444.0,218894,0.34,-0.79,9.99,-0.03,-0.01,-0.0,30.39,9.628699,-27.63984572385704,-495.1595383432808,10.02695367497028,0.03162277660168379,-1.9171063581165024,-0.7699386714808537
11589185,1897.0,1,182548.0,219121,0.35,-0.79,9.96,-0.03,-0.01,-0.01,30.39,9.6687,-28.871418176826335,-393.53745804302105,9.997409664508103,0.033166247903554,-2.0024749358754095,-0.6116871259556967
11629184,1913.0,1,182691.0,219567,0.35,-0.79,9.95,-0.03,-0.01,-0.01,30.39,9.708699,-20.566683482835405,-193.17686755441682,9.987447121261768,0.033166247903554,-1.426817866101106,-0.2996744903801424
11669185,1921.0,1,182861.0,219800,0.35,-0.77,9.97,-0.03,-0.01,-0.0,30.39,9.7487,-10.843202456259,-25.84621014121563,10.005813310271185,0.03162277660168379,-0.7528179369022698,-0.03909790041919122
11709184,1931.0,1,182821.0,219661,0.36,-0.79,9.95,-0.03,-0.01,-0.0,30.39,9.788699,-6.2784587313805655,25.13641665368173,9.987802561124242,0.03162277660168379,-0.43640481911350926,0.04029507659314968
11749185,1945.0,1,182759.0,219528,0.38,-0.82,9.95,-0.03,-0.01,-0.01,30.39,9.8287,5.543011569837575,-35.5637906300748,9.99096091474689,0.033166247903554,0.38302087054123324,-0.05423065627877721
11789184,1963.0,1,182726.0,219545,0.34,-0.8,9.96,-0.03,-0.01,-0.01,30.39,9.868699,22.3215322313039,-127.71613926469783,9.997859770970987,0.033166247903554,1.5460530919216529,-0.19773540989249458
11829185,1975.0,1,182722.0,219434,0.36,-0.79,9.96,-0.03,-0.01,-0.0,30.39,9.9087,27.721062643364874,-146.10561340068423,9.997764750182913,0.03162277660168379,1.920330894849339,-0.22637252000494432
11869184,1962.0,1,182747.0,219709,0.39,-0.8,9.94,-0.03,-0.01,-0.01,30.39,9.948699,16.855876314222318,-24.626796639156154,9.979764526280166,0.033166247903554,1.1671916850788344,-0.03719896201166226
11909185,1961.0,1,182896.0,220250,0.36,-0.8,9.96,-0.03,-0.01,-0.0,30.39,9.9887,7.174971593100937,214.31741958432104,9.998559896305068,0.03162277660168379,0.4961430062381567,0.3348982377301332
11949184,1968.0,1,183119.0,220820,0.36,-0.79,9.94,-0.03,-0.01,-0.01,30.39,10.028699,16.344376110850703,454.2830934613963,9.977840447712119,0.033166247903554,1.1317361625231388,0.7085861080416787
11989185,1983.0,1,183299.0,221034,0.36,-0.79,9.96,-0.04,-0.01,-0.0,30.39,10.0687,24.63638293500898,538.9117942360369,9.997764750182913,0.04123105625617661,1.70651097795431,0.8403746194931481
12029184,1974.0,1,183276.0,220148,0.36,-0.79,9.97,-0.03,-0.01,-0.01,30.39,10.108699,13.97199383180838,364.7815170419404,10.00772701466222,0.033166247903554,0.9672903756967209,0.569209284092911
12069185,1968.0,1,182567.0,218154,0.36,-0.79,9.94,-0.03,-0.01,-0.01,30.39,10.1487,6.3693149887047955,-46.08048129059869,9.977840447712119,0.033166247903554,0.440297523243188,-0.07060783086446255
12109184,1970.0,1,181949.0,216990,0.36,-0.79,9.94,-0.03,-0.01,-0.0,30.39,10.188699,1.5201301951439592,-550.163093710385,9.977840447712119,0.03162277660168379,0.1041678801041763,-0.855593261708727
12149185,1953.0,1,181667.0,216335,0.33,-0.78,9.98,-0.03,-0.01,-0.0,30.39,10.2287,-12.63867612709024,-963.8122298874808,10.01587240334061,0.03162277660168379,-0.87727430429899,-1.4997506624601873
12189184,1948.0,1,181505.0,215948,0.34,-0.78,9.95,-0.03,-0.01,-0.0,30.39,10.268699,-26.753510955448128,-1162.1413880758605,9.98631563691034,0.03162277660168379,-1.8556685284419985,-1.808599838872237
12229871,1943.0,1,181435.0,215923,0.34,-0.8,9.97,-0.03,-0.01,-0.0,30.37,10.309386,-28.71809733690011,-1127.1664849776178,10.007821940862058,0.03162277660168379,-1.9918472362920467,-1.7541349779528785
12270184,1968.0,1,181598.0,216717,0.37,-0.77,9.94,-0.03,-0.01,-0.0,30.37,10.349699,-10.389320635127518,-923.2255940939267,9.976642721877935,0.03162277660168379,-0.7213563323111649,-1.4365468998229824
12310185,1975.0,1,181960.0,217482,0.34,-0.79,9.95,-0.04,-0.01,-0.01,30.37,10.3897,-3.791022073204921,-631.6197522117789,9.98710168166921,0.042426406871192854,-0.26398383871413944,-0.9824420928197698
12350184,1963.0,1,182218.0,218011,0.37,-0.78,9.97,-0.03,-0.01,-0.0,30.37,10.429699,-18.159973271536916,-297.2474616829794,10.007307330146308,0.03162277660168379,-1.2599925791916462,-0.4617389975807911
12390185,1968.0,1,182494.0,218879,0.36,-0.78,9.95,-0.04,-0.01,-0.01,30.37,10.4697,-16.57179482805077,77.66275440305074,9.987016571529256,0.042426406871192854,-1.149905239530155,0.12209200601098595
12430184,1984.0,1,182835.0,220010,0.35,-0.78,9.97,-0.04,-0.01,-0.01,30.37,10.509699,-0.5875962159956759,496.7055652649431,10.00658783002478,0.042426406871192854,-0.04193282683357575,0.7746487364396876
12470185,2001.0,1,183349.0,221411,0.34,-0.8,9.95,-0.04,-0.01,-0.01,30.37,10.5497,12.568699244173539,926.6132459772397,9.987897676688522,0.042426406871192854,0.8700185807370909,1.4441248454195459
12510184,2001.0,1,183836.0,222089,0.35,-0.79,9.99,-0.03,-0.01,-0.01,30.37,10.589699,13.121590118254188,1287.3321427679869,10.027297741665,0.033166247903554,0.9083431693249135,2.005856338699352
12550185,2009.0,1,183812.0,221667,0.35,-0.79,9.96,-0.03,-0.01,-0.0,30.37,10.6297,17.206853333480133,1481.963074696803,9.997409664508103,0.03162277660168379,1.1915202650887733,2.3089464318536255
12590184,2017.0,1,183588.0,221188,0.38,-0.79,9.94,-0.03,-0.01,-0.0,30.37,10.669699,27.56217659576741,1441.8031795120787,9.978582063600017,0.03162277660168379,1.9093174332568625,2.2464072133852286
12630185,2010.0,1,183442.0,220785,0.35,-0.77,9.96,-0.03,-0.01,-0.0,30.37,10.7097,14.726002662357578,1159.1315293850862,9.995849138517448,0.03162277660168379,1.019555803789441,1.8062152258115531
12670184,2002.0,1,183210.0,219174,0.34,-0.79,9.97,-0.03,-0.01,-0.0,30.37,10.749699,12.066015915997458,696.8014290724643,10.00702753069062,0.03162277660168379,0.835174215157102,1.0862491249297723
12710185,2017.0,1,182370.0,217067,0.37,-0.8,9.93,-0.03,-0.01,-0.0,30.37,10.7897,20.174722939935677,171.53810854933434,9.96904208036058,0.03162277660168379,1.3972432874462022,0.2682799194691289
12750184,2000.0,1,181783.0,216014,0.37,-0.79,9.96,-0.03,-0.01,-0.0,30.37,10.829699,8.126054607339858,-289.95491047712704,9.998129825122296,0.03162277660168379,0.5620689727214742,-0.45038263195889455
12790185,2000.0,1,181537.0,215549,0.36,-0.82,9.94,-0.03,-0.01,-0.0,30.37,10.8697,5.384636979619022,-605.2591296180319,9.980260517641812,0.03162277660168379,0.3720428615028607,-0.9413918677688744
12830184,1997.0,1,181435.0,215453,0.36,-0.8,9.96,-0.03,-0.01,-0.0,30.37,10.909699,1.659350663546283,-763.3866315331506,9.998559896305068,0.03162277660168379,0.11381818801239604,-1.1876367930268725
12870194,1988.0,1,181437.0,215543,0.34,-0.78,9.97,-0.03,-0.01,-0.0,30.37,10.949709,-2.7081652157182567,-801.0434682052158,10.006243051215577,0.03162277660168379,-0.18892374004333848,-1.2462781098089646
12910184,2000.0,1,181454.0,215555,0.34,-0.79,9.96,-0.03,-0.01,-0.01,30.37,10.989699,3.2011576865235223,-751.2409066693784,9.99706456916229,0.033166247903554,0.2206912123423276,-1.1687227959355302
12950185,1986.0,1,181461.0,215350,0.34,-0.78,9.91,-0.03,-0.01,-0.0,30.37,11.0297,-2.9717075622907476,-616.8208968598046,9.946461682427575,0.03162277660168379,-0.20719163427229403,-0.9593964936297759
12990184,1990.0,1,181461.0,215864,0.38,-0.78,9.92,-0.04,-0.01,-0.0,30.37,11.069699,-3.705748149631268,-394.8525704693319,9.9578712584568,0.04123105625617661,-0.25807292900042084,-0.6137350920412966
13030185,1990.0,1,181896.0,217391,0.34,-0.79,9.95,-0.04,-0.01,-0.01,30.37,11.1097,0.12404598386923162,-119.97474113459563,9.98710168166921,0.042426406871192854,0.007395884870892234,-0.18568007492007027
13070191,1990.0,1,182390.0,218409,0.36,-0.79,9.96,-0.04,-0.01,-0.01,30.37,11.149706,1.8754963279773977,129.8326186249318,9.997764750182913,0.042426406871192854,0.12880069912390288,0.2033338150603246
13110185,1991.0,1,182412.0,218089,0.34,-0.79,9.97,-0.03,-0.01,-0.0,30.37,11.1897,1.1116646905512744,280.7654877519369,10.00702753069062,0.03162277660168379,0.07585438615862679,0.4383748586929823
13150184,1975.0,1,182279.0,217766,0.36,-0.81,9.990000000000002,-0.03,-0.01,-0.0,30.37,11.229699,-9.137539769516296,317.18284982643826,10.029247229976937,0.03162277660168379,-0.6345869734274067,0.49508599681582927
13190185,1978.0,1,182199.0,217558,0.34,-0.8,9.93,-0.03,-0.01,-0.0,30.37,11.2697,-8.18012535868054,284.5511049637841,9.967973715856196,0.03162277660168379,-0.5682221352224976,0.44427003199362103
13230870,1978.0,1,182129.0,217767,0.38,-0.78,9.95,-0.03,-0.01,-0.0,30.39,11.310385,-4.776631851166444,238.58817517396488,9.987757506067114,0.03162277660168379,-0.332303087627987,0.3726940058523359
13269185,1979.0,1,182347.0,218106,0.38,-0.78,9.96,-0.04,-0.01,-0.0,30.39,11.3487,-1.220803672619308,193.8522316240315,9.997719740020722,0.04123105625617661,-0.08582469845506757,0.3030287108063632
13310184,1984.0,1,182257.0,217363,0.37,-0.79,9.95,-0.04,-0.01,-0.01,30.39,11.389699,2.877991387549501,120.22210526589937,9.988168000189022,0.042426406871192854,0.19829038057923712,0.18836779007969684
13350185,1971.0,1,181880.0,216847,0.32,-0.79,9.94,-0.04,-0.01,-0.01,30.39,11.4297,-4.705049040390752,-17.462701099135593,9.976477334209706,0.042426406871192854,-0.3273412011119542,-0.02604263468448748
13390185,1971.0,1,181761.0,216560,0.34,-0.79,9.97,-0.03,-0.01,-0.0,30.39,11.4697,-5.530391484956539,-219.44828594911755,10.00702753069062,0.03162277660168379,-0.38455124221572123,-0.3405858016996451
13430185,1968.0,1,181597.0,215976,0.35,-0.81,9.98,-0.03,-0.01,-0.01,30.39,11.5097,-5.714082750895751,-442.2589935351752,10.018932078819578,0.033166247903554,-0.39728412048216505,-0.6875590060550896
13470184,1965.0,1,181411.0,215611,0.37,-0.78,9.96,-0.03,-0.01,-0.0,30.39,11.549699,-5.297404378991959,-618.254231512551,9.997344647455144,0.03162277660168379,-0.3684013374136074,-0.9616285619301066
13510185,1968.0,1,181405.0,215877,0.37,-0.79,9.95,-0.03,-0.01,-0.01,30.39,11.5897,-3.5266569260801788,-684.5016746763516,9.988168000189022,0.033166247903554,-0.24565891063974865,-1.0647927584982677
13550184,1958.0,1,181552.0,216166,0.35,-0.8,9.94,-0.03,-0.01,-0.0,30.39,11.629699,-7.965491027184384,-608.7660236935152,9.978281415153614,0.03162277660168379,-0.5533443847711261,-0.9468529979267938
13590184,1968.0,1,181599.0,216405,0.38,-0.8,9.94,-0.03,-0.01,-0.01,30.39,11.669699,1.4957653304796437,-408.1334649423148,9.979378738178044,0.033166247903554,0.10247898730808781,-0.6344168382729832
13630184,1972.0,1,181826.0,217476,0.37,-0.79,9.97,-0.04,-0.01,-0.0,30.39,11.709699,7.304433583778461,-151.2838224924735,10.008091726198357,0.04123105625617661,0.5051168883604232,-0.23443631469805465
13670184,1958.0,1,182265.0,218427,0.34,-0.8,9.97,-0.04,-0.01,-0.01,30.39,11.749699,-1.7442989682141872,69.34864827896203,10.007821940862058,0.042426406871192854,-0.12211168160467162,0.10914481835344449
13710184,1956.0,1,182493.0,218756,0.34,-0.79,9.98,-0.03,-0.01,-0.0,30.39,11.789699,-7.86843801491178,193.1130989477887,10.016990566033293,0.03162277660168379,-0.5466169871219223,0.30187769236609935
13750185,1948.0,1,182528.0,218791,0.36,-0.79,9.96,-0.03,-0.01,-0.0,30.39,11.8297,-6.810001506803423,238.0390801995036,9.997764750182913,0.03162277660168379,-0.473249627266264,0.3718389246722238
13790184,1958.0,1,182533.0,218720,0.36,-0.79,9.95,-0.03,-0.01,-0.0,30.39,11.869699,-2.433348038353535,289.91899620898914,9.987802561124242,0.03162277660168379,-0.16987431138911668,0.4526292102672278
13830185,1947.0,1,182511.0,218880,0.35,-0.8,9.97,-0.03,-0.01,-0.0,30.39,11.9097,-6.550551745528701,425.0606651782215,10.008166665278912,0.03162277660168379,-0.4552654176759062,0.6630793202830871
13870184,1950.0,1,182779.0,219948,0.38,-0.8,9.99,-0.03,-0.01,-0.0,30.39,11.949699,-4.509157269228918,626.1183381026665,10.029182419320131,0.03162277660168379,-0.31376262369375996,0.9761774913299122
13910184,1955.0,1,183433.0,221083,0.37,-0.78,9.96,-0.03,-0.01,-0.0,30.39,11.989699,0.83564246753645,773.6389427866548,9.997344647455144,0.03162277660168379,0.056721427677933305,1.2059047673221865
13950184,1941.0,1,183292.0,219931,0.36,-0.79,9.95,-0.04,-0.01,-0.0,30.39,12.029699,-8.158782336824906,735.1870861375576,9.987802561124242,0.04123105625617661,-0.5667427066947648,1.1460254012921658
13990184,1945.0,1,182895.0,219128,0.34,-0.78,9.96,-0.03,-0.01,-0.01,30.39,12.069699,-8.392579440720722,479.95956739414254,9.996279307822487,0.033166247903554,-0.5829487579064629,0.7485709388135706
14030184,1951.0,1,182543.0,218514,0.36,-0.79,9.98,-0.03,-0.01,-0.01,30.39,12.109699,3.9590573231535355,116.920949352842,10.017689354337158,0.033166247903554,0.27322633839772464,0.18322704681093793
14070185,1957.0,1,182390.0,218149,0.35,-0.8,9.95,-0.03,-0.01,-0.0,30.39,12.1497,7.103648046024403,-177.39088588852525,9.988243088751895,0.03162277660168379,0.49119909103449644,-0.2750916832886333
14110184,1950.0,1,182313.0,218353,0.35,-0.79,9.94,-0.03,-0.01,-0.0,30.39,12.189699,2.0014916203303894,-279.0736931060293,9.977484652957378,0.03162277660168379,0.1375342810472075,-0.4334377961408956
14150185,1948.0,1,182624.0,219270,0.36,-0.79,9.95,-0.04,-0.01,-0.01,30.39,12.2297,2.7733863066123527,-190.0243387684883,9.987802561124242,0.042426406871192854,0.19103949820976737,-0.29476519752556124
14190184,1955.0,1,182833.0,219522,0.36,-0.78,9.95,-0.03,-0.01,-0.0,30.39,12.269699,5.522189240177604,-17.933423127451842,9.987016571529256,0.03162277660168379,0.381577534694923,-0.026775669161578305
14230185,1948.0,1,182870.0,219598,0.36,-0.79,9.97,-0.03,-0.01,-0.0,30.39,12.3097,5.630199200929919,108.23196146254335,10.00772701466222,0.03162277660168379,0.3890644322063034,0.16969607245353127
14270870,1955.0,1,182960.0,219724,0.34,-0.81,9.95,-0.03,-0.01,-0.0,30.25,12.350385,6.341468476072745,121.17673249498075,9.98870361958948,0.03162277660168379,0.438367293987725,0.18985438860194873
14310185,1950.0,1,183076.0,219591,0.35,-0.8,9.99,-0.03,-0.01,-0.01,30.25,12.3897,6.717204327611223,46.863408557965066,10.0280905460611,0.033166247903554,0.46441207534146267,0.07412955467415606
14350184,1953.0,1,183062.0,219431,0.37,-0.79,9.96,-0.03,-0.01,-0.0,30.25,12.429699,8.124549016776633,-24.78113642748518,9.998129825122296,0.03162277660168379,0.5619646101037817,-0.037439308499029246
14390185,1953.0,1,183117.0,219545,0.36,-0.79,9.96,-0.03,-0.01,-0.01,30.25,12.4697,5.986253375686869,-8.180221026009585,9.997764750182913,0.033166247903554,0.41374494404370143,-0.011587441349157703
14430184,1946.0,1,183210.0,219936,0.37,-0.79,9.96,-0.03,-0.01,-0.0,30.25,12.509699,5.53701680496853,108.55074956131322,9.998129825122296,0.03162277660168379,0.38260533303092636,0.1701925069801253
14470185,1954.0,1,183419.0,220369,0.37,-0.81,9.94,-0.03,-0.01,-0.0,30.25,12.5497,3.7589249773558615,236.473054458808,9.97980961742257,0.03162277660168379,0.2593538182036349,0.3694002224426984
14510184,1936.0,1,183541.0,220592,0.37,-0.78,9.96,-0.03,-0.01,-0.0,30.25,12.589699,-2.808971652614643,229.73849929927692,9.997344647455144,0.03162277660168379,-0.1959113128215695,0.3589127992442039
14550185,1949.0,1,183548.0,220239,0.35,-0.79,9.95,-0.03,-0.01,-0.01,30.25,12.6297,-1.2752356202855026,-13.685023928261622,9.987447121261768,0.033166247903554,-0.08959774318800798,-0.0201598260564852
14590184,1941.0,1,183063.0,218530,0.35,-0.79,9.95,-0.03,-0.01,-0.01,30.25,12.669699,-0.03556561095786395,-459.5929018478979,9.987447121261768,0.033166247903554,-0.0036678692845116758,-0.7145523304622925
14630185,1948.0,1,182518.0,217613,0.37,-0.78,9.95,-0.03,-0.01,-0.0,30.25,12.7097,0.2536430334551212,-929.9368592496523,9.987382039353456,0.03162277660168379,0.01637912883532486,-1.4469980545344845
14670184,1941.0,1,182324.0,217577,0.38,-0.8,9.96,-0.03,-0.01,-0.0,30.25,12.749699,-3.8344646937663027,-1202.0526335479046,9.999299975498285,0.03162277660168379,-0.2669951392044221,-1.8707518462029584
14710184,1936.0,1,182489.0,218117,0.36,-0.8,9.96,-0.04,-0.01,-0.01,30.25,12.789699,-9.771436596610133,-1151.6348742973944,9.998559896305068,0.042426406871192854,-0.6785266299570852,-1.7922385122923148
14750184,1947.0,1,182868.0,219252,0.36,-0.78,9.96,-0.04,-0.01,-0.01,30.25,12.829699,-0.13165078797988847,-834.3945866685953,9.996979543842231,0.042426406871192854,-0.010328179756954116,-1.2982143231420122
14790186,1955.0,1,183452.0,220732,0.37,-0.8,9.97,-0.04,-0.01,-0.01,30.25,12.869701,8.711455154224975,-443.50338433732736,10.008886051904078,0.042426406871192854,0.6026470255890747,-0.6894968405010684
14830184,1961.0,1,183829.0,221124,0.37,-0.79,9.98,-0.03,-0.01,-0.01,30.25,12.909699,13.485478657179044,-173.82724523124054,10.018053703190056,0.033166247903554,0.9335667336843513,-0.2695421842029494
14870185,1957.0,1,183792.0,220879,0.37,-0.79,9.95,-0.03,-0.01,-0.0,30.25,12.9497,8.910178798484443,-93.48641364430216,9.988168000189022,0.03162277660168379,0.6164218991960607,-0.14443098071406701
14910188,1941.0,1,183733.0,221001,0.38,-0.77,9.94,-0.03,-0.01,-0.0,30.25,12.989703,-7.018931851755256,-113.14711138896243,9.977018592746031,0.03162277660168379,-0.48773199601055783,-0.17504771080857484
14950185,1940.0,1,183917.0,221825,0.38,-0.77,9.92,-0.03,-0.01,-0.01,30.25,13.0297,-9.109080190917531,-64.65138165231888,9.957092949249796,0.033166247903554,-0.632614248442582,-0.09952746796845129
14990184,1938.0,1,184352.0,223314,0.39,-0.8,9.97,-0.04,-0.01,-0.01,30.25,13.069699,-11.715497728588742,178.05812756469837,10.00964534836275,0.042426406871192854,-0.8132825945885236,0.2784332550728297
15030185,1936.0,1,184877.0,224871,0.37,-0.78,9.93,-0.04,-0.01,-0.01,30.25,13.1097,-13.5280998719054,617.9823835411406,9.967457047813149,0.042426406871192854,-0.9389262517234457,0.9635077311766098
15070184,1947.0,1,185290.0,226209,0.38,-0.77,9.93,-0.04,-0.01,-0.01,30.25,13.149699,-4.223314331097777,1130.5196684456548,9.967055733766117,0.042426406871192854,-0.2939489253345201,1.76165924741948
15110169,1947.0,1,185658.0,227059,0.34,-0.8,9.97,-0.04,-0.01,-0.01,30.25,13.189684,-4.056993666713673,1520.402754932399,10.007821940862058,0.042426406871192854,-0.28242012040213066,2.3688068360965047
15150184,1949.0,1,185766.0,227200,0.35,-0.8,9.96,-0.03,-0.01,-0.01,30.25,13.229699,-2.216378751460378,1607.8388126975735,9.998204838869826,0.033166247903554,-0.15483470946007385,2.504967119718748
15190185,1958.0,1,185731.0,227009,0.37,-0.8,9.95,-0.03,-0.01,-0.0,30.25,13.2697,4.145096469704674,1314.868313613078,9.988963910236135,0.03162277660168379,0.2861219640754999,2.0487371927539537
15230185,1951.0,1,185399.0,224363,0.36,-0.82,9.96,-0.03,-0.01,-0.0,30.25,13.3097,0.30444320516696316,717.8374750991069,10.00017999838003,0.03162277660168379,0.019900430727464793,1.1190076237286404
15270871,1950.0,1,184081.0,221547,0.37,-0.79,9.95,-0.03,-0.01,-0.0,30.23,13.350386,-5.957712587569776,27.12231700275581,9.988168000189022,0.03162277660168379,-0.4141717445974592,0.04338763087437825
15309184,1949.0,1,183758.0,221573,0.36,-0.8,9.94,-0.03,-0.01,-0.0,30.23,13.388699,-2.7876404679170914,-513.6196522765728,9.978637181499284,0.03162277660168379,-0.19443270480695202,-0.7986857858076056
15350184,1953.0,1,183797.0,221912,0.36,-0.81,9.96,-0.03,-0.01,-0.01,30.23,13.429699,-2.673670072773337,-754.364397074925,9.99936497983747,0.033166247903554,-0.18653264946178305,-1.1735868686119628
15390184,1945.0,1,183811.0,221899,0.34,-0.8,9.97,-0.03,-0.01,-0.0,30.23,13.469699,-9.997400098552387,-707.2620650291997,10.007821940862058,0.03162277660168379,-0.6941896814809512,-1.100236502017902
15430184,1955.0,1,183887.0,222495,0.36,-0.79,9.95,-0.03,-0.01,-0.0,30.23,13.509699,1.099647301657629,-514.5831724856428,9.987802561124242,0.03162277660168379,0.07502138003239137,-0.8001862329720361
15470184,1966.0,1,184126.0,222944,0.36,-0.81,9.95,-0.03,-0.01,-0.0,30.23,13.549699,8.00221410913954,-347.65842191528907,9.989404386648886,0.03162277660168379,0.5534847540871368,-0.5402417436828096
15510185,1956.0,1,184165.0,222958,0.35,-0.79,9.93,-0.03,-0.01,-0.01,30.23,13.5897,2.316262111670523,-306.21459644888023,9.967522259819638,0.033166247903554,0.15935314286194915,-0.47570311769566487
15550184,1967.0,1,184132.0,222964,0.35,-0.81,9.97,-0.03,-0.01,-0.0,30.23,13.629699,9.043015852563657,-373.2602980867853,10.008970976079409,0.03162277660168379,0.6256297296838933,-0.5801104066791979
15590185,1962.0,1,184117.0,222910,0.38,-0.8,9.93,-0.03,-0.01,-0.0,30.23,13.6697,5.54953269868014,-442.216996839369,9.96941823779101,0.03162277660168379,0.3834728938820689,-0.6874936064687139
15630184,1961.0,1,184047.0,222759,0.35,-0.8,9.95,-0.03,-0.01,-0.0,30.23,13.709699,5.5135964498760295,-394.931569483837,9.988243088751895,0.03162277660168379,0.38098191055177383,-0.6138581136927276
15670184,1968.0,1,184102.0,223634,0.37,-0.79,9.94,-0.03,-0.01,-0.0,30.23,13.749699,8.408476597097645,-182.55537204105096,9.978206251626592,0.03162277660168379,0.5816455421188604,-0.2831341078588217
15710184,1951.0,1,184765.0,225791,0.38,-0.77,9.92,-0.04,-0.01,-0.01,30.23,13.789699,-3.2182729984535663,141.32097323028435,9.957092949249796,0.042426406871192854,-0.2242827445508455,0.22122411868790592
15750169,1965.0,1,185254.0,225873,0.36,-0.8,9.96,-0.03,-0.01,-0.01,30.23,13.829684,5.167929588441713,453.6728421673863,9.998559896305068,0.033166247903554,0.35702141332898607,0.7076357908453522
15790185,1967.0,1,184930.0,224974,0.37,-0.78,9.96,-0.03,-0.01,-0.0,30.23,13.8697,11.192223410544516,630.4861508260327,9.997344647455144,0.03162277660168379,0.7746057741635869,0.9829792918047188
15830185,1961.0,1,184782.0,224952,0.38,-0.77,9.92,-0.03,-0.01,-0.0,30.23,13.9097,3.313151101136816,601.1435505033359,9.957092949249796,0.03162277660168379,0.22845422985774033,0.9372853654742038
15870184,1966.0,1,184957.0,225121,0.37,-0.8,9.95,-0.03,-0.01,-0.0,30.23,13.949699,8.035367805492877,369.57778521580764,9.988963910236135,0.03162277660168379,0.5557828599747044,0.5766782991831845
15910184,1967.0,1,184727.0,223547,0.41,-0.78,9.92,-0.04,-0.01,-0.01,30.23,13.989699,10.801214540901682,15.694851732658059,9.959061200735741,0.042426406871192854,0.747502317105865,0.02559214750024581
15950169,1968.0,1,184142.0,222384,0.37,-0.79,9.98,-0.04,-0.01,-0.01,30.23,14.029684,9.8361168076902,-320.0151767205197,10.018053703190056,0.042426406871192854,0.6806048961023577,-0.49719414750609625
15990184,1963.0,1,183844.0,222071,0.33,-0.82,9.96,-0.03,-0.01,-0.0,30.23,14.069699,6.433604749650766,-487.98076649503315,9.999144963445625,0.03162277660168379,0.4447538793781319,-0.7587594893916756
16030184,1958.0,1,183877.0,222686,0.35,-0.8,9.91,-0.03,-0.01,-0.0,30.23,14.109699,1.1706212001645167,-412.90677497420467,9.948396855775307,0.03162277660168379,0.07994105873982757,-0.6418501016699281
16070184,1949.0,1,184268.0,223968,0.37,-0.79,9.96,-0.04,-0.01,-0.01,30.23,14.149699,-8.226217475839405,-152.9084703607641,9.998129825122296,0.042426406871192854,-0.5714170901585734,-0.23696630655938528
16110184,1938.0,1,184731.0,225125,0.37,-0.79,9.96,-0.04,-0.01,-0.01,30.23,14.189699,-17.949933701163047,126.54696411288384,9.998129825122296,0.042426406871192854,-1.2454333225659575,0.19821721143385895
16150185,1951.0,1,184830.0,224720,0.35,-0.79,9.97,-0.03,-0.01,-0.0,30.23,14.2297,-5.7000019931039665,258.17227180458974,10.007372282472558,0.03162277660168379,-0.39630808836683623,0.4031914484391561
16190184,1951.0,1,184505.0,223634,0.36,-0.82,9.98,-0.03,-0.01,-0.0,30.23,14.269699,-5.042560461181616,179.49490073649045,10.020099799902196,0.03162277660168379,-0.3507363898406699,0.2806706780259258
16230185,1937.0,1,184188.0,223043,0.37,-0.81,9.96,-0.03,-0.01,-0.0,30.23,14.3097,-18.531666337513848,-37.90403712116668,9.999729996354903,0.03162277660168379,-1.2857571278617594,-0.057875018045736325
16270870,1950.0,1,184126.0,223270,0.38,-0.78,9.91,-0.03,-0.01,-0.0,30.03,14.350385,-6.1141225117069355,-244.08360242891365,9.947909328095024,0.03162277660168379,-0.4250135694034422,-0.37894928428049846
16309184,1949.0,1,184328.0,223748,0.37,-0.8,9.93,-0.03,-0.01,-0.01,30.03,14.388699,-5.515360435827507,-295.2098956598429,9.96904208036058,0.033166247903554,-0.383509339010371,-0.4585659866434223
16350216,1941.0,1,184405.0,224140,0.37,-0.79,9.94,-0.03,-0.01,-0.0,30.03,14.429731,-15.154440083702978,-114.89986391836905,9.978206251626592,0.03162277660168379,-1.0516588404546585,-0.17777719436059594
16390184,1951.0,1,184701.0,225019,0.36,-0.78,9.94,-0.04,-0.01,-0.01,30.03,14.469699,-2.026465015031894,273.6823138157284,9.977053673304559,0.042426406871192854,-0.14167050987385285,0.4273445469800499
16430184,1957.0,1,185017.0,225856,0.36,-0.8,9.95,-0.04,-0.01,-0.01,30.03,14.509699,0.08291946881079594,734.0236644902661,9.988598500290218,0.042426406871192854,0.004545129245225079,1.1442136565095624
16470184,1946.0,1,185201.0,226659,0.38,-0.8,9.95,-0.03,-0.01,-0.01,30.03,14.549699,-4.952267079239853,1038.4304789736902,9.989339317492423,0.033166247903554,-0.344477547676065,1.618252848760466
16510184,1957.0,1,185553.0,227362,0.36,-0.8,9.92,-0.04,-0.01,-0.01,30.03,14.589699,-0.5886273431382463,959.5201406550261,9.958714776516095,0.042426406871192854,-0.04200430119745715,1.49536928881026
16550196,1949.0,1,185414.0,224795,0.35,-0.8,9.98,-0.03,-0.01,-0.0,30.03,14.629711,-0.8758023426243783,413.7018757209319,10.018128567751564,0.03162277660168379,-0.06191033369675427,0.6453907826975568
16590184,1955.0,1,183782.0,221109,0.36,-0.79,9.95,-0.03,-0.01,-0.0,30.03,14.669699,-1.508819838136656,-440.6513635691032,9.987802561124242,0.03162277660168379,-0.10578903783478484,-0.6850555154159317
16630184,1948.0,1,183022.0,220026,0.35,-0.8,9.97,-0.03,-0.01,-0.0,30.03,14.709699,-2.880325365154219,-1253.4896198179918,10.008166665278912,0.03162277660168379,-0.20085731899654957,-1.9508523770162087
16670184,1953.0,1,182836.0,219849,0.36,-0.79,9.96,-0.03,-0.01,-0.0,30.03,14.749699,-0.6470127376173656,-1676.404387636333,9.997764750182913,0.03162277660168379,-0.04605138594391941,-2.6094387337894456
16710185,1958.0,1,182976.0,220613,0.39,-0.79,9.91,-0.04,-0.01,-0.0,30.03,14.7897,5.017997607019098,-1567.0803499313233,9.949085385099476,0.04123105625617661,0.34662861834257325,-2.4391932725791414
16750184,1954.0,1,183501.0,222416,0.36,-0.78,9.95,-0.04,-0.01,-0.01,30.03,14.829699,3.317351755979095,-1057.972894838327,9.987016571529256,0.042426406871192854,0.2287454055240008,-1.6463828777437173
16790184,1958.0,1,184229.0,224198,0.35,-0.78,9.96,-0.04,-0.01,-0.0,30.03,14.869699,3.619161740106664,-450.15728679158843,9.996624430276453,0.04123105625617661,0.24966588733267533,-0.6998586668290595
16830184,1955.0,1,184614.0,224713,0.36,-0.79,9.96,-0.03,-0.01,-0.0,30.03,14.909699,5.894926872360622,-19.840215061979613,9.997764750182913,0.03162277660168379,0.40741448928088275,-0.02974503142755774
16870185,1959.0,1,184618.0,224704,0.37,-0.79,9.96,-0.03,-0.01,-0.0,30.03,14.9497,4.7873974408777205,129.26471550764353,9.998129825122296,0.03162277660168379,0.3306441684086741,0.20244944479596985
16910184,1954.0,1,184586.0,224837,0.35,-0.8,9.97,-0.03,-0.01,-0.0,30.03,14.989699,4.814908880253175,87.01358222795422,10.008166665278912,0.03162277660168379,0.3325511714809826,0.13665363426006671
16950184,1953.0,1,184729.0,225405,0.34,-0.79,9.94,-0.03,-0.01,-0.01,30.03,15.029699,0.2737384849648558,45.39383881548933,9.977138868433174,0.033166247903554,0.017772079863640766,0.0718410590803181
16990184,1947.0,1,184925.0,225911,0.36,-0.79,9.95,-0.03,-0.01,-0.0,30.03,15.069699,-3.3879108485377483,170.28408266362496,9.987802561124242,0.03162277660168379,-0.23604148595566507,0.2663270807360927
17030184,1958.0,1,185206.0,226776,0.36,-0.81,9.97,-0.04,-0.01,-0.0,30.03,15.109699,7.293258374711727,508.2923435059897,10.009325651611102,0.04123105625617661,0.5043422593876126,0.7926923108172749
17070184,1968.0,1,185603.0,227810,0.35,-0.77,9.97,-0.04,-0.01,-0.0,30.03,15.149699,16.168479867651644,960.7654163917746,10.005813310271185,0.04123105625617661,1.1195436097595273,1.4973085013255238
17110184,1959.0,1,185867.0,228431,0.33,-0.75,9.96,-0.03,-0.01,-0.0,30.03,15.189699,9.853476695690203,1326.4616512204984,9.993647982593744,0.03162277660168379,0.6818082268077833,2.0667909817410357
17150184,1957.0,1,186064.0,228767,0.37,-0.81,9.96,-0.04,-0.01,-0.01,30.03,15.229699,4.342121736160185,1399.9527858675556,9.999729996354903,0.042426406871192854,0.2997791116832793,2.181235456858364
17190185,1955.0,1,186095.0,228264,0.37,-0.8,9.98,-0.03,-0.01,-0.01,30.03,15.2697,6.289808327523262,1090.6838076437518,10.018847239078955,0.033166247903554,0.4347863813115358,1.699624633282477
17230184,1957.0,1,185408.0,224704,0.36,-0.79,9.96,-0.03,-0.01,-0.01,30.03,15.309699,4.351192762087101,496.2683626480831,9.997764750182913,0.033166247903554,0.30040788555714115,0.7739679002511219
17270184,1947.0,1,184227.0,222815,0.37,-0.79,9.92,-0.03,-0.01,-0.0,30.03,15.349699,-2.2633303292849045,-134.1301703081999,9.958282984531017,0.03162277660168379,-0.15808923940084413,-0.207723695141935
17310870,1951.0,1,184101.0,223058,0.37,-0.79,9.93,-0.03,-0.01,-0.01,30.17,15.390385,-1.344415055973256,-541.648466935421,9.968244579663963,0.033166247903554,-0.09439303559698368,-0.8423338121606891
17349185,1951.0,1,184305.0,223483,0.39,-0.8,9.95,-0.03,-0.01,-0.0,30.17,15.4287,0.8333701413267721,-610.6154408169871,9.989724720932003,0.03162277660168379,0.056563917450859945,-0.949733012951534
17389184,1951.0,1,184347.0,223587,0.38,-0.8,9.96,-0.03,-0.01,-0.01,30.17,15.468699,-1.385230237388132,-421.4767057461767,9.999299975498285,0.033166247903554,-0.0972222105918929,-0.6551956736725976
17429185,1958.0,1,184564.0,224403,0.36,-0.8,9.94,-0.03,-0.01,-0.0,30.17,15.5087,6.8622841634931815,-173.4415475860795,9.978637181499284,0.03162277660168379,0.47446853545542333,-0.2689415544158814
17469184,1963.0,1,184723.0,224282,0.37,-0.78,9.96,-0.03,-0.01,-0.0,30.17,15.548699,10.29980492181873,-45.219156259207665,9.997344647455144,0.03162277660168379,0.7127462408778317,-0.06926652770461388
17509185,1951.0,1,184585.0,223799,0.38,-0.79,9.96,-0.03,-0.01,-0.0,30.17,15.5887,-1.642300455162068,-92.76151855619612,9.998504888232041,0.03162277660168379,-0.11504147800293532,-0.143302133836524
17549184,1950.0,1,184396.0,223431,0.39,-0.81,9.97,-0.03,-0.01,-0.0,30.17,15.628699,-2.8009205678073443,-238.52691418139327,10.010449540355319,0.03162277660168379,-0.19535323793303305,-0.37029610083283265
17589185,1957.0,1,184330.0,223413,0.36,-0.79,9.95,-0.03,-0.01,-0.01,30.17,15.6687,2.040793782066668,-339.19089666962134,9.987802561124242,0.033166247903554,0.14025857846242443,-0.5270556432512798
17629184,1950.0,1,184456.0,223886,0.37,-0.79,9.94,-0.04,-0.01,-0.01,30.17,15.708699,-2.883074363785628,-278.0606196016292,9.978206251626592,0.042426406871192854,-0.20104787059816973,-0.4318601818337666
17669185,1949.0,1,184698.0,224568,0.39,-0.79,9.97,-0.03,-0.01,-0.01,30.17,15.7487,-8.50550615593959,-31.39932909148243,10.00885108291656,0.033166247903554,-0.590776468769902,-0.04774552555900556
17709184,1943.0,1,184871.0,225080,0.36,-0.79,9.94,-0.03,-0.01,-0.0,30.17,15.788699,-10.721112293439901,314.19265993019616,9.977840447712119,0.03162277660168379,-0.7443550457966016,0.4904295070933608
17749185,1950.0,1,185028.0,225436,0.37,-0.79,9.96,-0.04,-0.01,-0.0,30.17,15.8287,-9.574279282071183,593.9876298392206,9.998129825122296,0.04123105625617661,-0.6648603292076845,0.9261417685176598
17789184,1948.0,1,185126.0,225673,0.36,-0.81,9.96,-0.03,-0.01,-0.0,30.17,15.868699,-7.7471002772098805,639.0514959598061,9.99936497983747,0.03162277660168379,-0.5382062516665128,0.9963177227969896
17829185,1952.0,1,185188.0,225260,0.39,-0.79,9.96,-0.03,-0.01,-0.01,30.17,15.9087,-8.996575899599918,369.61906391147994,9.998889938388162,0.033166247903554,-0.6248158186235303,0.5767425806598881
17869184,1955.0,1,184390.0,221910,0.38,-0.79,9.95,-0.03,-0.01,-0.01,30.17,15.948699,-3.796129476924088,-141.38990728357993,9.988543437358622,0.033166247903554,-0.26433786724936253,-0.21902896062228636
17909185,1967.0,1,183493.0,220752,0.36,-0.79,9.96,-0.03,-0.01,-0.0,30.17,15.9887,4.899586412619414,-689.1332375329717,9.997764750182913,0.03162277660168379,0.3384207413051624,-1.0720052853240463
17949184,1961.0,1,183289.0,220591,0.35,-0.79,9.94,-0.03,-0.01,-0.0,30.17,16.028699,-1.234161033198244,-1045.684871363539,9.977484652957378,0.03162277660168379,-0.08675058703960634,-1.6272472853548492
17989197,1954.0,1,183306.0,220819,0.39,-0.8,9.96,-0.03,-0.01,-0.0,30.17,16.068712,-9.58592783435459,-1086.9889451226527,9.999684995038594,0.03162277660168379,-0.6656677687854269,-1.6915682822243465
18029184,1961.0,1,183493.0,221550,0.36,-0.8,9.95,-0.03,-0.01,-0.0,30.17,16.108699,-4.164341392732946,-848.23614419369,9.988598500290218,0.03162277660168379,-0.28986111396594705,-1.3197691650065908
18069185,1963.0,1,183843.0,222316,0.37,-0.78,9.97,-0.03,-0.01,-0.01,30.17,16.1487,-3.102192967222744,-477.2675755794636,10.007307330146308,0.033166247903554,-0.21623645612624412,-0.7420763136990932
18109184,1958.0,1,184053.0,222590,0.37,-0.79,9.92,-0.03,-0.01,-0.0,30.17,16.188699,-9.069656247525785,-133.77587794245866,9.958282984531017,0.03162277660168379,-0.6298815095209808,-0.20717197139960802
18149185,1963.0,1,184090.0,222719,0.37,-0.8,9.96,-0.03,-0.01,-0.0,30.17,16.2287,-6.608017801818194,92.03806629863213,9.998924942212538,0.03162277660168379,-0.4592487769033878,0.14447803981545346
18189206,1963.0,1,184222.0,223179,0.36,-0.76,9.93,-0.03,-0.01,-0.0,30.17,16.268721,-5.187389935825927,202.4339477435502,9.96554564487063,0.03162277660168379,-0.3607754957317974,0.3163926356065575
18229185,1961.0,1,184392.0,223427,0.39,-0.79,9.96,-0.03,-0.01,-0.0,30.17,16.3087,-12.376637563029576,265.80521652088686,9.998889938388162,0.03162277660168379,-0.8591106473595124,0.4150778937342443
18269184,1951.0,1,184467.0,223372,0.39,-0.8,9.95,-0.03,-0.01,-0.01,30.17,16.348699,-18.2651098577164,367.48184186493614,9.989724720932003,0.033166247903554,-1.2672803037675977,0.5734143798299438
18309185,1953.0,1,184442.0,223374,0.38,-0.79,9.94,-0.03,-0.01,-0.01,30.17,16.3887,-23.33098518317454,554.3634541049796,9.978582063600017,0.033166247903554,-1.618430226450289,0.8644368021208243
18349870,1957.0,1,184437.0,223635,0.35,-0.79,9.93,-0.03,-0.01,-0.01,30.23,16.429385,-14.156897864726453,788.8379619676671,9.967522259819638,0.033166247903554,-0.9825124737239201,1.2295735238439476
18388185,1991.0,1,184585.0,223988,0.37,-0.77,9.97,-0.03,-0.01,-0.0,30.23,16.4677,13.32086377563476,944.5658463785933,10.006532866083038,0.03162277660168379,0.9221561680440552,1.472081631497094
18428184,1995.0,1,184770.0,224158,0.37,-0.78,9.98,-0.03,-0.01,-0.0,30.23,16.507699,21.05853780623483,873.878783146138,10.017270087204398,0.03162277660168379,1.458506445741298,1.3620038120692823
18468185,1994.0,1,184572.0,221978,0.36,-0.79,9.96,-0.03,-0.01,-0.0,30.23,16.5477,16.22188061166752,522.4433228949945,9.997764750182913,0.03162277660168379,1.1232451748253192,0.8147290015875082
18508184,1998.0,1,183440.0,219672,0.38,-0.79,9.96,-0.03,-0.01,-0.0,30.23,16.587699,21.361608441555898,2.44910241506827,9.998504888232041,0.03162277660168379,1.4795143117709977,0.004965131255804508
18548185,1993.0,1,182895.0,218818,0.39,-0.79,9.94,-0.03,-0.01,-0.0,30.23,16.6277,15.527594270470543,-454.9740338488254,9.978967882501676,0.03162277660168379,1.075119514526145,-0.7073595727735086
18588184,1990.0,1,182822.0,219047,0.36,-0.79,9.94,-0.04,-0.01,-0.0,30.23,16.667699,11.33876181853358,-647.5762944556154,9.977840447712119,0.04123105625617661,0.7847633377295143,-1.007290506312818
18628185,1990.0,1,183046.0,219680,0.39,-0.78,9.97,-0.04,-0.01,-0.0,30.23,16.7077,13.344956760680773,-534.2901312591137,10.008066746380141,0.04123105625617661,0.923826215033484,-0.830875003309031
18668184,1985.0,1,183229.0,220182,0.37,-0.79,9.98,-0.04,-0.01,-0.01,30.23,16.747699,4.650757965464026,-247.3387650313705,10.018053703190056,0.042426406871192854,0.3211727664999461,-0.384018404212431
18708185,1982.0,1,183404.0,220575,0.38,-0.79,9.96,-0.03,-0.01,-0.0,30.23,16.7877,6.962040563623226,16.262729176302983,9.998504888232041,0.03162277660168379,0.48138332311644827,0.026476477784177763
18748184,1991.0,1,183476.0,220397,0.39,-0.81,9.94,-0.03,-0.01,-0.01,30.23,16.827699,9.592069798854313,131.18673348403536,9.980571125942642,0.033166247903554,0.6636883549760888,0.2054425178996934
18788185,1973.0,1,183344.0,220105,0.37,-0.79,9.94,-0.03,-0.01,-0.01,30.23,16.8677,-0.4490931034983838,109.09724250656365,9.978206251626592,0.033166247903554,-0.032332243692430686,0.171043536135885
18828184,1983.0,1,183284.0,220044,0.38,-0.79,9.99,-0.03,-0.01,-0.01,30.23,16.907699,2.2109226326516316,60.142273527313336,10.028389701243166,0.033166247903554,0.15205135441740752,0.09480814045010437
18868185,1975.0,1,183299.0,220126,0.38,-0.78,9.96,-0.03,-0.01,-0.0,30.23,16.9477,2.3286925034250583,93.84684622264096,9.997719740020722,0.03162277660168379,0.1602147769968409,0.14729477233700314
18908184,1971.0,1,183442.0,220540,0.37,-0.8,9.96,-0.03,-0.01,-0.01,30.23,16.987699,-7.394887174812948,235.08353934020184,9.998924942212538,0.033166247903554,-0.5137919904127919,0.36723639235380146
18948185,1968.0,1,183626.0,220927,0.38,-0.79,9.96,-0.03,-0.01,-0.01,30.23,17.0277,-4.258841398708503,408.26133776643314,9.998504888232041,0.033166247903554,-0.2964115455616614,0.6369184749348755
18988184,1977.0,1,183593.0,220581,0.37,-0.8,9.93,-0.03,-0.01,-0.0,30.23,17.067699,1.9120300729364672,491.15703288401755,9.96904208036058,0.03162277660168379,0.13133309893508974,0.7660082537602988
19028184,1975.0,1,183447.0,220298,0.39,-0.78,9.95,-0.03,-0.01,-0.0,30.23,17.107699,3.4476807296885266,397.0190027439847,9.98814297054262,0.03162277660168379,0.2377793840768075,0.6194112866608571
19068184,1980.0,1,183378.0,219958,0.39,-0.79,9.93,-0.03,-0.01,-0.0,30.23,17.147699,8.6291178469381,131.88678418051546,9.96900697160956,0.03162277660168379,0.5969396725197268,0.2065326757112301
19108185,1983.0,1,182960.0,218297,0.4,-0.8,9.95,-0.04,-0.01,-0.0,30.23,17.1877,12.452029513164664,-208.31420915929652,9.990120119397963,0.04123105625617661,0.8619314162509669,-0.3232471991559964
19148183,1978.0,1,182432.0,217581,0.39,-0.79,9.94,-0.04,-0.01,-0.01,30.23,17.227698,10.736369408193015,-500.59373129187713,9.978967882501676,0.042426406871192854,0.7430074644152418,-0.7784010984480674
19188185,1980.0,1,182295.0,217736,0.38,-0.78,9.98,-0.04,-0.01,-0.01,30.23,17.2677,10.58497553598614,-676.0717733236114,10.017644433697974,0.042426406871192854,0.7325133359370071,-1.051665248081692
19228164,1971.0,1,182403.0,217979,0.35,-0.78,9.95,-0.04,-0.01,-0.01,30.23,17.307679,7.983891687295877,-756.622119840708,9.986661103692263,0.042426406871192854,0.5522147036811529,-1.1771027198521344
19268185,1969.0,1,182371.0,217822,0.36,-0.79,9.96,-0.03,-0.01,-0.01,30.23,17.3477,1.1821066563655696,-812.2102583889997,9.997764750182913,0.033166247903554,0.08073719303012623,-1.2636676554659474
19308184,1968.0,1,182256.0,217752,0.37,-0.78,9.96,-0.03,-0.01,-0.0,30.23,17.387699,8.456497006619225,-872.1745780491902,9.997344647455144,0.03162277660168379,0.5849741599800135,-1.357047423273805
19348185,1973.0,1,182300.0,217792,0.38,-0.8,9.93,-0.03,-0.01,-0.01,30.23,17.4277,8.1174380537202,-871.6430820019383,9.96941823779101,0.033166247903554,0.561471701382772,-1.3562197481202396
19388870,1943.0,1,182318.0,218168,0.36,-0.79,9.94,-0.03,-0.01,-0.0,30.11,17.468385,-14.825731420182585,-690.3441607189799,9.977840447712119,0.03162277660168379,-1.0288738300932205,-1.0738910021400356
19429185,1946.0,1,182751.0,219807,0.37,-0.8,9.96,-0.04,-0.01,-0.01,30.11,17.5087,-14.42279198089736,-260.89160146659805,9.998924942212538,0.042426406871192854,-1.0009433849360416,-0.4051236335660061
19469184,1954.0,1,183532.0,222229,0.38,-0.77,9.94,-0.04,-0.01,-0.01,30.11,17.548699,-3.4369813879934856,342.2367396131718,9.977018592746031,0.042426406871192854,-0.2394428953921126,0.5341013049895332
19509169,1943.0,1,184184.0,223879,0.35,-0.79,9.95,-0.04,-0.01,-0.01,30.11,17.588684,-12.83398669172096,913.0851592327497,9.987447121261768,0.042426406871192854,-0.8908125943797842,1.4230581576584957
19549164,1943.0,1,184522.0,224456,0.34,-0.79,9.98,-0.04,-0.01,-0.0,30.11,17.628679,-13.890506516460803,1225.4326404108108,10.016990566033293,0.04123105625617661,-0.964047096007906,1.9094629969539543
19589185,1941.0,1,184394.0,223295,0.35,-0.79,9.98,-0.03,-0.01,-0.0,30.11,17.6687,-11.484774042865457,1165.5636236290072,10.017334974932206,0.03162277660168379,-0.7972895826808588,1.816231640079559
19629185,1942.0,1,183869.0,221919,0.36,-0.79,9.94,-0.03,-0.01,-0.0,30.11,17.7087,-13.644828336053786,793.6848460174978,9.977840447712119,0.03162277660168379,-0.9470174873988654,1.2371213607864766
19669185,1941.0,1,183579.0,221551,0.36,-0.78,9.94,-0.03,-0.01,-0.0,30.11,17.7487,-9.439209725498035,299.8247975031578,9.977053673304559,0.03162277660168379,-0.655497748942613,0.46805507401490476
19709184,1941.0,1,183496.0,220406,0.38,-0.8,9.93,-0.03,-0.01,-0.01,30.11,17.788699,-12.987521304269197,-107.18379446317176,9.96941823779101,0.033166247903554,-0.9014551119827129,-0.1657613026069875
19749184,1939.0,1,182876.0,219394,0.38,-0.78,9.96,-0.04,-0.01,-0.01,30.11,17.828699,-10.647309244509362,-308.3786303610873,9.997719740020722,0.042426406871192854,-0.7392392596272367,-0.47907307145142103
19789184,1954.0,1,182833.0,220048,0.36,-0.78,9.93,-0.04,-0.01,-0.01,30.11,17.868699,2.2575074404133324,-325.1339571633936,9.967090849390308,0.042426406871192854,0.15528046105599816,-0.5051653966076232
19829197,1951.0,1,183213.0,221191,0.34,-0.79,9.96,-0.04,-0.01,-0.01,30.11,17.908712,0.6229360014665573,-286.0131589040066,9.99706456916229,0.042426406871192854,0.0419773105577994,-0.444244317562265
19869184,1943.0,1,183369.0,220863,0.36,-0.79,9.97,-0.03,-0.01,-0.01,30.11,17.948699,-5.973652156796564,-325.63613935960575,10.00772701466222,0.033166247903554,-0.4152766234470143,-0.5059474226048374
19909186,1942.0,1,182959.0,219678,0.36,-0.79,9.97,-0.03,-0.01,-0.0,30.11,17.988701,-9.898018360537439,-479.4055310837288,10.00772701466222,0.03162277660168379,-0.6873008641733788,-0.745405656710123
19949184,1937.0,1,182673.0,219184,0.36,-0.79,9.95,-0.03,-0.01,-0.0,30.11,18.028699,-9.970985476548472,-652.9152533800715,9.987802561124242,0.03162277660168379,-0.6923587062045259,-1.0156046295702252
19989185,1948.0,1,182765.0,219533,0.41,-0.79,9.94,-0.03,-0.01,-0.0,30.11,18.0687,-4.5730436183453325,-691.3356688032163,9.97976953641716,0.03162277660168379,-0.3181910166389968,-1.0754350335775686
20029189,1941.0,1,183084.0,220759,0.4,-0.8,9.94,-0.04,-0.01,-0.01,30.11,18.108704,-5.99257697898541,-491.8898682730203,9.980160319353592,0.042426406871192854,-0.41658843027632986,-0.7648469597145994
20069184,1951.0,1,183598.0,222292,0.34,-0.79,9.96,-0.04,-0.01,-0.01,30.11,18.148699,-0.7145438965341072,-73.1930025192885,9.99706456916229,0.042426406871192854,-0.05073242519356612,-0.11282895421527847
20109169,1953.0,1,184075.0,223505,0.36,-0.78,9.97,-0.04,-0.01,-0.01,30.11,18.188684,4.2601376247830505,437.89627225785193,10.00694259002219,0.042426406871192854,0.2940962410001785,0.6830676402633855
20149185,1941.0,1,184423.0,224347,0.35,-0.79,9.97,-0.03,-0.01,-0.01,30.11,18.2287,-9.05611698158472,874.6535420384539,10.007372282472558,0.033166247903554,-0.6289430118511915,1.3632103096311912
20189184,1943.0,1,184673.0,225034,0.34,-0.79,9.95,-0.03,-0.01,-0.0,30.11,18.268699,-8.116838180254991,1102.2802417864277,9.98710168166921,0.03162277660168379,-0.5638352748315094,1.7176832443661791
20229185,1950.0,1,184706.0,224764,0.35,-0.81,9.98,-0.03,-0.01,-0.0,30.11,18.3087,1.6747158628364034,1062.7069919581609,10.018932078819578,0.03162277660168379,0.11488325341493671,1.6560575826175448
20269184,1950.0,1,184455.0,223524,0.38,-0.79,9.97,-0.03,-0.01,-0.0,30.11,18.348699,-3.434247177697185,789.7514416347389,10.008466415990014,0.03162277660168379,-0.23925336886955506,1.2309960450981159
20309185,1946.0,1,184103.0,222606,0.35,-0.79,9.94,-0.03,-0.01,-0.0,30.11,18.3887,-0.9818229572949234,397.4513892738914,9.977484652957378,0.03162277660168379,-0.06925933623877131,0.6200846229714287
20349184,1952.0,1,183894.0,221710,0.39,-0.8,9.92,-0.03,-0.01,-0.0,30.11,18.428699,-2.809734104042734,36.993284670678776,9.95984437629424,0.03162277660168379,-0.1959641634629341,0.058759249765294314
20389870,1941.0,1,183402.0,220453,0.38,-0.8,9.94,-0.04,-0.01,-0.01,30.03,18.469385,-5.929061541237809,-175.35853781096495,9.979378738178044,0.042426406871192854,-0.41218574769507027,-0.27192679802581726
20428164,1971.0,1,183187.0,220663,0.37,-0.79,9.95,-0.04,-0.01,-0.01,30.03,18.507679,16.71661265193634,-226.81423351484102,9.988168000189022,0.042426406871192854,1.157538383111754,-0.352056464208116
20468185,1971.0,1,183463.0,221769,0.39,-0.8,9.96,-0.04,-0.01,-0.01,30.03,18.5477,22.659058865509536,-216.14288056551905,9.999684995038594,0.042426406871192854,1.5694493351945642,-0.3354384409194279
20508169,1965.0,1,183690.0,222016,0.35,-0.81,9.99,-0.04,-0.01,-0.01,30.03,18.587684,12.621777346189461,-271.3504200846105,10.028893258979277,0.042426406871192854,0.8736977813138144,-0.42141068659402336
20548184,1968.0,1,183449.0,220891,0.35,-0.8,9.99,-0.03,-0.01,-0.0,30.03,18.627699,18.049286418072004,-427.87110834387454,10.0280905460611,0.03162277660168379,1.2499149735082946,-0.6651533924164558
20588184,1964.0,1,183027.0,220120,0.36,-0.79,9.97,-0.03,-0.01,-0.0,30.03,18.667699,13.797689402714447,-577.8828894911875,10.00772701466222,0.03162277660168379,0.9552081622849549,-0.8987600667081174
20628184,1967.0,1,182912.0,220032,0.39,-0.78,9.92,-0.03,-0.01,-0.0,30.03,18.707699,15.765413278305388,-556.2764656940652,9.958257879769935,0.03162277660168379,1.0916043509756341,-0.8651133439775517
20668184,1965.0,1,183133.0,221335,0.38,-0.8,9.91,-0.04,-0.01,-0.01,30.03,18.747699,17.615314008656178,-299.67728834124887,9.949497474747155,0.042426406871192854,1.2198334242749433,-0.4655228585575909
20708184,1957.0,1,183831.0,223348,0.36,-0.79,9.97,-0.04,-0.01,-0.01,30.03,18.787699,4.150995332894931,70.59155242955543,10.00772701466222,0.042426406871192854,0.2865308539948323,0.11108033770307676
20748164,1957.0,1,184304.0,223765,0.34,-0.8,9.98,-0.03,-0.01,-0.0,30.03,18.827679,13.162828027048237,332.20590832806135,10.017784186136174,0.03162277660168379,0.9112016464003075,0.5184807375982675
20788184,1959.0,1,184112.0,222923,0.36,-0.8,9.96,-0.03,-0.01,-0.0,30.03,18.867699,5.37301637833752,345.50520336970493,9.998559896305068,0.03162277660168379,0.37123735939722874,0.5391911382170764
20828184,1937.0,1,183667.0,221886,0.35,-0.78,9.97,-0.03,-0.01,-0.0,30.03,18.907699,-4.972777336282555,168.84743865013675,10.00658783002478,0.03162277660168379,-0.3458992516683747,0.26408985891547826
20868184,1973.0,1,183468.0,221505,0.37,-0.8,9.94,-0.03,-0.01,-0.0,30.03,18.947699,21.953589335897853,-2.782377356623546,9.979002956207598,0.03162277660168379,1.5205484928202537,-0.0031816194976506803
20908184,1958.0,1,183396.0,221766,0.4,-0.79,9.94,-0.03,-0.01,-0.0,30.03,18.987699,14.89644757887609,-18.640113544492966,9.979363707170913,0.03162277660168379,1.0313704884020594,-0.027876166714611468
20948184,1955.0,1,183732.0,222782,0.38,-0.8,9.92,-0.04,-0.01,-0.01,30.03,19.027699,8.66515606398245,95.17436102430533,9.95945781656813,0.042426406871192854,0.5994377239552112,0.14936205209008618
20988184,1959.0,1,184048.0,223363,0.36,-0.81,9.98,-0.03,-0.01,-0.01,30.03,19.067699,15.152508111387123,170.2248641580435,10.019286401735405,0.033166247903554,1.0491197677302486,0.26623486239137595
21028185,1937.0,1,183839.0,221292,0.4,-0.82,9.94,-0.04,-0.01,-0.01,30.03,19.1077,-6.835852565793678,58.778638388625744,9.98178340778841,0.042426406871192854,-0.47504153819626166,0.09268461210279921
21068184,1941.0,1,183052.0,220225,0.38,-0.78,9.94,-0.03,-0.01,-0.01,30.03,19.147699,-0.5117147894105181,-227.92406093324004,9.977795347670746,0.033166247903554,-0.03667297431716572,-0.353784749081924
21108184,1931.0,1,182931.0,220208,0.35,-0.78,9.95,-0.04,-0.01,-0.01,30.03,19.187699,-12.168136370068117,-526.4714261091734,9.986661103692263,0.042426406871192854,-0.8446580260287567,-0.818699281553211
21148184,1904.0,1,182919.0,220383,0.38,-0.79,9.92,-0.04,-0.01,-0.01,30.03,19.227699,-36.21003906817633,-654.5581023411133,9.95865954835288,0.042426406871192854,-2.5111641540337897,-1.018162965183717
21188184,1914.0,1,182993.0,220927,0.42,-0.81,9.93,-0.03,-0.01,-0.01,30.03,19.267699,-24.55222921408582,-546.9177993129139,9.971830323466198,0.033166247903554,-1.7030828717445967,-0.8505395090934832
21228184,1921.0,1,183313.0,222044,0.36,-0.79,9.91,-0.04,-0.01,-0.01,30.03,19.307699,-23.91072454121256,-287.2649232440762,9.94795456362764,0.042426406871192854,-1.658615864207324,-0.4461936344908694
21268169,1934.0,1,183652.0,222436,0.36,-0.79,9.95,-0.03,-0.01,-0.0,30.03,19.347684,4.956011502915884,-30.517599475281724,9.987802561124242,0.03162277660168379,0.3423319441718017,-0.04637244724682395
21308184,1957.0,1,183575.0,222224,0.4,-0.79,9.95,-0.03,-0.01,-0.01,30.03,19.387699,5.286834189536337,106.81839157495713,9.989324301473047,0.033166247903554,0.3652634917060763,0.16749478294285228
21348184,1892.5,1,183508.0,222214,0.39,-0.8,9.95,-0.03,-0.01,-0.0,30.03,19.427699,-30.211241329549086,105.79751545029345,9.989724720932003,0.03162277660168379,-2.0953470983865397,0.16590501796224552
21388184,1955.0,1,183508.0,222189,0.37,-0.78,9.93,-0.03,-0.01,-0.0,30.03,19.467699,3.1673974915442273,30.927150719539743,9.967457047813149,0.03162277660168379,0.21835106595199774,0.049312729183409273
21428870,1938.0,1,183590.0,222289,0.36,-0.81,9.94,-0.03,-0.01,-0.0,30.15,19.508385,12.312394768761969,-20.865795308287606,9.979443872280658,0.03162277660168379,0.8522523920842225,-0.031342121927562944
21469221,1934.0,1,183670.0,222742,0.35,-0.79,9.95,-0.03,-0.01,-0.0,30.15,19.548736,-10.762740229099284,35.50329017875596,9.987447121261768,0.03162277660168379,-0.7472405582597237,0.056438947617630505
21509185,1937.0,1,183842.0,223329,0.36,-0.79,9.96,-0.04,-0.01,-0.0,30.15,19.5887,4.254765724433353,244.8925074110085,9.997764750182913,0.04123105625617661,0.293723878422881,0.3825114620298559
21549184,1968.0,1,184109.0,224060,0.39,-0.79,9.98,-0.03,-0.01,-0.01,30.15,19.628699,28.303653808494893,585.1936789958702,10.018812304859294,0.033166247903554,1.9607142105545126,0.9124473400221933
21589185,1966.0,1,184334.0,224618,0.34,-0.79,9.93,-0.04,-0.01,-0.0,30.15,19.6687,31.644949197293855,946.3895007479505,9.96717612967685,0.04123105625617661,2.1923218878182,1.4749215273307725
21629184,1939.0,1,184560.0,225533,0.36,-0.79,9.91,-0.04,-0.01,-0.0,30.15,19.708699,-4.176008436617515,1150.9345175942458,9.94795456362764,0.04123105625617661,-0.29066983532105295,1.7934503839508507
21669218,1915.0,1,184932.0,226175,0.38,-0.81,9.96,-0.04,-0.01,-0.01,30.15,19.748733,-14.255705069052446,1040.6936272419475,10.000104999448757,0.042426406871192854,-0.9893614662337047,1.6217771488943156
21709184,1942.0,1,184469.0,223022,0.36,-0.8,9.96,-0.03,-0.01,-0.01,30.15,19.788699,-8.9128677396034,591.3667751153494,9.998559896305068,0.033166247903554,-0.6190134425241877,0.9220604280311822
21749184,1897.0,1,183364.0,221057,0.36,-0.79,9.95,-0.03,-0.01,-0.01,30.15,19.828699,-28.630725364516397,-40.70998161561739,9.987802561124242,0.033166247903554,-1.9857908966910713,-0.06224459059918753
21789184,1930.0,1,182923.0,220057,0.4,-0.81,9.97,-0.03,-0.01,-0.0,30.15,19.868699,-23.638754129372213,-602.3689408566548,10.010844120252798,0.03162277660168379,-1.6397637640362484,-0.9368911053657041
21829184,1906.0,1,182636.0,219790,0.41,-0.8,9.92,-0.03,-0.01,-0.0,30.15,19.908699,-24.59710652439635,-907.9437129616267,9.96064756930994,0.03162277660168379,-1.706193620239838,-1.4127491060701611
21869184,1911.0,1,182761.0,220336,0.34,-0.76,9.97,-0.03,-0.01,-0.0,30.15,19.948699,-37.385141737579666,-950.5684199051452,10.004703893669218,0.03162277660168379,-2.59261843093467,-1.479126666256276
21909185,1915.0,1,183050.0,220985,0.37,-0.81,9.97,-0.03,-0.01,-0.0,30.15,19.9887,-27.11613230369299,-866.9293792252481,10.009690304899548,0.03162277660168379,-1.8808042552845774,-1.3488793084505006
21949184,1934.0,1,183081.0,220747,0.42,-0.82,9.94,-0.03,-0.01,-0.0,30.15,20.028699,-6.961225948491009,-792.3086259683786,9.982604870473438,0.03162277660168379,-0.4837320113745872,-1.232675728517284
21989185,1958.0,1,182975.0,220450,0.38,-0.77,9.92,-0.03,-0.01,-0.0,30.15,20.0687,5.75316761843139,-738.1010673134763,9.957092949249796,0.03162277660168379,0.3975882010564871,-1.1482607085635745
22029184,1946.0,1,182883.0,220972,0.35,-0.77,9.91,-0.03,-0.01,-0.0,30.15,20.108699,7.156738561104266,-596.070478403392,9.946029358492765,0.03162277660168379,0.49487915204424743,-0.9270827899413794
22069185,1968.0,1,183542.0,223815,0.35,-0.8,9.95,-0.04,-0.01,-0.01,30.15,20.1487,12.532670693534461,-254.8489455874005,9.988243088751895,0.042426406871192854,0.867521199345231,-0.39571367434125637
22109169,1958.0,1,184458.0,225483,0.36,-0.79,9.990000000000002,-0.04,-0.01,-0.01,30.15,20.188684,13.946153167366791,278.96105515888263,10.027651768983606,0.042426406871192854,0.9654991852828683,0.4355648960765599
22149185,1968.0,1,184680.0,225968,0.38,-0.79,9.97,-0.03,-0.01,-0.01,30.15,20.2287,14.951184254749787,850.6217364893641,10.008466415990014,0.033166247903554,1.0351646558985161,1.3257866477787013
22189184,1968.0,1,184845.0,226531,0.38,-0.8,9.95,-0.03,-0.01,-0.0,30.15,20.268699,15.739378767699723,1230.8359339288618,9.989339317492423,0.03162277660168379,1.0897997237791615,1.9178773056123792
22229184,1958.0,1,185080.0,227181,0.39,-0.8,9.93,-0.03,-0.01,-0.01,30.15,20.308699,7.3788691009987515,1240.871271208339,9.969804411321217,0.033166247903554,0.5102765151647776,1.933504889988247
22269184,1968.0,1,185203.0,226648,0.35,-0.79,9.99,-0.03,-0.01,-0.0,30.15,20.348699,10.287329320998294,860.1983073618086,10.027297741665,0.03162277660168379,0.7118814729982313,1.3406998156347194
22309185,1965.0,1,184501.0,223556,0.35,-0.8,9.98,-0.03,-0.01,-0.0,30.15,20.3887,12.764786755694672,252.43311440876613,10.018128567751564,0.03162277660168379,0.8836107262373278,0.3942541139030228
22349184,1962.0,1,183168.0,220340,0.41,-0.8,9.95,-0.03,-0.01,-0.0,30.15,20.428699,3.4913050689377942,-324.7100855953581,9.990525511703575,0.03162277660168379,0.24080328071269214,-0.50450532026843
22389184,1953.0,1,182826.0,221421,0.4,-0.79,9.909999999999997,-0.04,-0.01,-0.01,30.15,20.468699,-4.175868045002274,-679.0481266557863,9.949482398597423,0.042426406871192854,-0.2906601038330731,-1.0563001907383858
22429849,1959.0,1,183663.0,223721,0.35,-0.79,9.97,-0.04,-0.01,-0.01,30.25,20.509364,1.8911633225713893,-788.127074590839,10.007372282472558,0.042426406871192854,0.12988668399066483,-1.2261639845514718
22468169,1981.0,1,183907.0,223080,0.32,-0.8,9.990000000000002,-0.03,-0.01,-0.01,30.25,20.547684,19.114470143824022,-758.0791353677506,10.0270883111699,0.033166247903554,1.3237500284416404,-1.179371665324687
22508184,1984.0,1,183230.0,221417,0.34,-0.78,9.97,-0.03,-0.01,-0.0,30.25,20.587699,27.09833220395119,-692.4413537111654,10.006243051215577,0.03162277660168379,1.877165255822781,-1.077156867504111
22548185,1989.0,1,182938.0,221828,0.37,-0.79,9.92,-0.03,-0.01,-0.0,30.25,20.6277,25.222299879644414,-614.9304885214075,9.958282984531017,0.03162277660168379,1.7471248258264156,-0.9564526448093121
22588184,1973.0,1,183539.0,223671,0.35,-0.8,9.94,-0.04,-0.01,-0.01,30.25,20.667699,13.942831898570821,-507.635595447703,9.978281415153614,0.042426406871192854,0.9652689657835742,-0.7893670802774593
22628185,1965.0,1,184063.0,224249,0.34,-0.79,9.95,-0.04,-0.01,-0.0,30.25,20.7077,1.9767642513287036,-382.23801650406097,9.98710168166921,0.04123105625617661,0.13582026063508787,-0.5940910082435993
22668184,1967.0,1,183976.0,223912,0.37,-0.81,9.97,-0.03,-0.01,-0.01,30.25,20.747699,4.647528807836375,-280.666816081544,10.009690304899548,0.033166247903554,0.3209489318458279,-0.4359186956889262
22708185,1967.0,1,183884.0,223895,0.37,-0.79,9.96,-0.03,-0.01,-0.0,30.25,20.7877,5.627803253503327,-210.27231482265714,9.998129825122296,0.03162277660168379,0.3888983529604578,-0.32629647000946455
22748184,1966.0,1,183927.0,224363,0.35,-0.8,9.96,-0.03,-0.01,-0.0,30.25,20.827699,0.9653774368607287,-103.90632048098674,9.998204838869826,0.03162277660168379,0.06571423178792032,-0.1606574381558093
22788184,1959.0,1,184348.0,225832,0.35,-0.79,9.94,-0.04,-0.01,-0.0,30.25,20.867699,-1.3889117543983127,136.5335470410662,9.977484652957378,0.04123105625617661,-0.09747740132013355,0.2137688728270372
22828184,1958.0,1,184778.0,226721,0.36,-0.8,9.97,-0.04,-0.01,-0.0,30.25,20.907699,-7.934439197088196,544.9890239053861,10.008521369313252,0.04123105625617661,-0.551191973383772,0.8498384189434669
22868185,1955.0,1,185139.0,227548,0.43,-0.79,9.92,-0.04,-0.01,-0.0,30.25,20.9477,-6.0297202288751,1025.3004959386349,9.960692746993052,0.04123105625617661,-0.4191630789774937,1.5978061101985581
22908185,1969.0,1,185512.0,228353,0.38,-0.79,9.93,-0.04,-0.01,-0.01,30.25,20.9877,4.440143702449884,1372.8542992907785,9.968620767187405,0.042426406871192854,0.3065736740584835,2.1390361890467138
22948185,1965.0,1,185675.0,228408,0.37,-0.8,9.96,-0.03,-0.01,-0.01,30.25,21.0277,1.6123218573806615,1381.416486687482,9.998924942212538,0.033166247903554,0.11055830485539717,2.152369702635501
22988184,1953.0,1,185385.0,226408,0.39,-0.79,9.93,-0.03,-0.01,-0.0,30.25,21.067699,-8.666907735660178,973.9647002826695,9.96900697160956,0.03162277660168379,-0.6019642988285944,1.5178631590277447
23028185,1950.0,1,184312.0,223811,0.38,-0.78,9.96,-0.03,-0.01,-0.0,30.25,21.1077,-16.0706125967087,272.1324743809368,9.997719740020722,0.03162277660168379,-1.1151649250772346,0.4249310509647457
23068184,1946.0,1,183738.0,222716,0.38,-0.82,9.95,-0.03,-0.01,-0.0,30.25,21.147699,-13.344219604029055,-448.52739799730193,9.99096091474689,0.03162277660168379,-0.9261802724603632,-0.6973205135067907
23108230,1957.0,1,183443.0,222044,0.38,-0.79,9.97,-0.03,-0.01,-0.0,30.25,21.187745,-10.086684904723372,-895.4123891465343,10.008466415990014,0.03162277660168379,-0.7003786124690712,-1.3932346328832794
23148184,1941.0,1,183285.0,222047,0.38,-0.79,9.93,-0.03,-0.01,-0.0,30.25,21.227699,-18.12464090752751,-904.8851035055737,9.968620767187405,0.03162277660168379,-1.2575434551818725,-1.4079860696104853
23188185,1958.0,1,183716.0,224026,0.4,-0.8,9.94,-0.04,-0.01,-0.0,30.25,21.2677,-8.176377785077548,-513.450655307133,9.980160319353592,0.04123105625617661,-0.5679623656671111,-0.7984226143440429
23228184,1962.0,1,184499.0,225748,0.37,-0.8,9.98,-0.04,-0.01,-0.0,30.25,21.307699,1.896939077183344,78.27230910617875,10.018847239078955,0.04123105625617661,0.13028704042565836,0.12304123843731612
23268184,1952.0,1,184878.0,226815,0.39,-0.79,9.97,-0.03,-0.01,-0.0,30.25,21.347699,-13.322512421903122,618.129724291448,10.00885108291656,0.03162277660168379,-0.92467560153274,0.9637371783733814
23308220,1949.0,1,185245.0,227558,0.37,-0.79,9.95,-0.04,-0.01,-0.0,30.25,21.387735,-11.181215208480321,923.4313338834552,9.988168000189022,0.04123105625617661,-0.7762478762874334,1.4391697952466034
23348185,1968.0,1,185300.0,227218,0.35,-0.81,9.990000000000002,-0.03,-0.01,-0.0,30.25,21.4277,1.8308054167265855,947.5332501803524,10.028893258979279,0.03162277660168379,0.12570287120234375,1.476702637448144
23388184,1954.0,1,185074.0,226662,0.38,-0.8,9.96,-0.03,-0.01,-0.0,30.25,21.467699,-4.840529675669972,768.6782187586385,9.999299975498285,0.03162277660168379,-0.33673227600955785,1.198179652445205
23428184,1962.0,1,184970.0,226397,0.39,-0.81,9.91,-0.03,-0.01,-0.0,30.25,21.507699,-6.230076300621652,521.9928616282225,9.950693443172693,0.03162277660168379,-0.433051107123241,0.8140275182931762
23468870,1955.0,1,184848.0,225880,0.37,-0.81,9.96,-0.03,-0.01,-0.0,30.33,21.548385,-2.4250315048964537,317.85836170180806,9.999729996354903,0.03162277660168379,-0.16929783646764238,0.49613794141273193
23509205,1956.0,1,184619.0,225223,0.39,-0.79,9.97,-0.03,-0.01,-0.0,30.33,21.58872,-13.772223484414283,186.24849066053213,10.00885108291656,0.03162277660168379,-0.9558481027659921,0.29118774321653074
23549184,1947.0,1,184419.0,224838,0.39,-0.78,9.990000000000002,-0.03,-0.01,-0.0,30.33,21.628699,-10.803469452301117,70.53531823246975,10.027990825683878,0.03162277660168379,-0.7500637749122094,0.1109927666892392
23589184,1977.0,1,184460.0,224872,0.4,-0.77,9.96,-0.03,-0.01,-0.0,30.33,21.668699,7.831359469734948,-124.95783729678628,9.99772474115986,0.03162277660168379,0.5416416688229972,-0.1934400289264943
23629184,1968.0,1,184502.0,223410,0.39,-0.78,9.91,-0.03,-0.01,-0.0,30.33,21.708699,7.02414804877889,-455.8175449996549,9.948296336559341,0.03162277660168379,0.48568841102511195,-0.708673135169516
23669185,1968.0,1,183601.0,221337,0.39,-0.8,9.96,-0.04,-0.01,-0.0,30.33,21.7487,1.556538145877522,-877.3424442389535,9.999684995038594,0.04123105625617661,0.10669156027073658,-1.36509511142564
23709183,1967.0,1,183326.0,221346,0.37,-0.8,9.96,-0.04,-0.01,-0.01,30.33,21.788698,1.3240051154430834,-1252.8153842574202,9.998924942212538,0.042426406871192854,0.09057313050048942,-1.9498024199675712
23749185,1970.0,1,183482.0,221998,0.38,-0.78,9.95,-0.04,-0.01,-0.01,30.33,21.8287,6.170544166390242,-1431.9060405714163,9.987757506067114,0.042426406871192854,0.4265193794075976,-2.2286923331347213
23789184,1988.0,1,183591.0,222046,0.37,-0.81,9.990000000000002,-0.03,-0.01,-0.0,30.33,21.868699,18.736220871475936,-1344.788263451334,10.029611158963245,0.03162277660168379,1.2975310249710401,-2.093027693804031
23829185,1979.0,1,183688.0,222861,0.37,-0.79,9.95,-0.03,-0.01,-0.0,30.33,21.9087,15.507315227752033,-1047.1238647398106,9.988168000189022,0.03162277660168379,1.0737138375551982,-1.629488165733627
23869184,1978.0,1,184366.0,224560,0.43,-0.79,9.96,-0.04,-0.01,-0.0,30.33,21.948699,7.440749056515413,-688.3925628289338,10.000529985955746,0.04123105625617661,0.5145658314624145,-1.0708518655524861
23909185,1971.0,1,184777.0,225079,0.42,-0.8,9.96,-0.04,-0.01,-0.0,30.33,21.9887,5.642678558524171,-424.3915346438139,10.000899959503645,0.04123105625617661,0.38992946049318783,-0.6597348070639781
23949184,1973.0,1,184834.0,225069,0.41,-0.8,9.93,-0.03,-0.01,-0.0,30.33,22.028699,2.5595579931030286,-327.3422693323904,9.970606801995553,0.03162277660168379,0.17621761829124036,-0.5086043029231915
23989185,1974.0,1,184787.0,224871,0.43,-0.8,9.93,-0.03,-0.01,-0.01,30.33,22.0687,5.7469006641675,-349.644878256587,9.971449242712916,0.033166247903554,0.39715379626682284,-0.543335163785998
24029164,1967.0,1,184905.0,225276,0.39,-0.78,9.98,-0.04,-0.01,-0.01,30.33,22.108679,-2.6638163075115733,-362.6582170731306,10.018028748211895,0.042426406871192854,-0.18584961865515956,-0.5636002574947249
24069185,1963.0,1,185205.0,226519,0.42,-0.77,9.92,-0.04,-0.01,-0.01,30.33,22.1487,-8.930935212347002,-241.2085783536184,9.958699714320138,0.042426406871192854,-0.6202658206917088,-0.37447213716844174
24109164,1975.0,1,185663.0,227690,0.36,-0.76,9.99,-0.04,-0.01,-0.01,30.33,22.188679,6.89881149231512,60.289214181625,10.02533291217803,0.042426406871192854,0.47700049052095167,0.09503696459517788
24149185,1984.0,1,186006.0,228494,0.4,-0.77,9.95,-0.04,-0.01,-0.01,30.33,22.2287,7.778583163233097,478.41216202046985,9.98776251219461,0.042426406871192854,0.5379833877250654,0.7461612332533804
24189184,1968.0,1,186366.0,229239,0.41,-0.8,9.95,-0.03,-0.01,-0.0,30.33,22.268699,1.4023522477722548,866.2061679690033,9.990525511703575,0.03162277660168379,0.096003897681344,1.3500555897300648
24229184,1984.0,1,186763.0,229834,0.43,-0.8,9.94,-0.04,-0.01,-0.0,30.33,22.308699,4.590944166917731,1062.446515275673,9.981407716349432,0.04123105625617661,0.31702666945145824,1.6556519538658485
24269184,1968.0,1,187040.0,229905,0.41,-0.8,9.97,-0.04,-0.01,-0.0,30.33,22.348699,0.7923386808934302,978.7315253510299,10.010444545573389,0.04123105625617661,0.05371975070117333,1.5252863236794347
24309184,1981.0,1,186631.0,228033,0.42,-0.8,9.96,-0.04,-0.01,-0.0,30.33,22.388699,1.2513574638424507,658.7133081992046,10.000899959503645,0.04123105625617661,0.08553743269828695,1.026936188444581
24349184,1975.0,1,185997.0,226994,0.43,-0.82,9.96,-0.03,-0.01,-0.0,30.33,22.428699,4.4045775446414845,262.67137555932703,10.002944566476414,0.03162277660168379,0.30410834422658317,0.41019770259732247
24389185,1977.0,1,185926.0,227311,0.44,-0.81,9.96,-0.03,-0.01,-0.0,30.33,22.4687,-0.8849906884305079,-24.421374614958037,10.002564671123102,0.03162277660168379,-0.06254723980125111,-0.03687906743050227
24429184,1967.0,1,186160.0,227848,0.43,-0.79,9.96,-0.03,-0.01,-0.01,30.33,22.508699,-7.903694401993914,-100.15977554073491,10.000529985955746,0.033166247903554,-0.5490608446593841,-0.15482311036580054
24469871,1966.0,1,186209.0,228108,0.41,-0.78,9.98,-0.04,-0.01,-0.0,30.25,22.549386,-10.289571439904885,8.609158069315958,10.018827276682636,0.04123105625617661,-0.7144420440707766,0.014557911928325208
24508184,1968.0,1,186439.0,228418,0.39,-0.79,9.98,-0.03,-0.01,-0.0,30.25,22.587699,-9.671656604624896,183.59588656489362,10.018812304859294,0.03162277660168379,-0.6716102069857546,0.2870569608456046
24548185,1968.0,1,186560.0,228183,0.4,-0.8,9.990000000000002,-0.03,-0.01,-0.0,30.25,22.6277,-8.733666986353862,298.0961064208596,10.029960119561794,0.03162277660168379,-0.6065918319227535,0.46536306028421803
24588183,1975.0,1,186569.0,227935,0.43,-0.8,9.94,-0.03,-0.01,-0.0,30.25,22.667698,-3.197029231160768,288.0413378947142,9.981407716349432,0.03162277660168379,-0.22281019602505236,0.4497052164922115
24628184,1974.0,1,186554.0,227869,0.43,-0.81,9.96,-0.03,-0.01,-0.0,30.25,22.707699,-4.688604861616168,178.90915468324874,10.002129773203306,0.03162277660168379,-0.32620134437756976,0.27975852175106036
24668184,1969.0,1,186582.0,227802,0.42,-0.8,9.98,-0.03,-0.01,-0.0,30.25,22.747699,-8.988209476968215,66.66489108229732,10.020818329857098,0.03162277660168379,-0.6242358855475051,0.1049655226439729
24708184,1978.0,1,186556.0,227779,0.43,-0.81,9.98,-0.03,-0.01,-0.0,30.25,22.787699,-2.1539634478582643,64.854173771681,10.022045699356994,0.03162277660168379,-0.15050828458262844,0.1021457731164339
24748203,1979.0,1,186677.0,228421,0.46,-0.8,9.95,-0.03,-0.01,-0.0,30.25,22.827718,0.13862833855186432,235.87525684716044,9.992702337205886,0.03162277660168379,0.008406686043515835,0.368469298811978
24788184,1979.0,1,186959.0,229403,0.48,-0.79,9.909999999999997,-0.04,-0.01,-0.01,30.25,22.867699,-1.0439368191580531,536.0627477925723,9.953019642299513,0.042426406871192854,-0.073564866159958,0.8359379261916621
24828184,1982.0,1,187296.0,230110,0.45,-0.81,9.97,-0.04,-0.01,-0.01,30.25,22.907699,1.1079389910113033,813.3563905283374,10.012966593372814,0.042426406871192854,0.07559613284180607,1.2677549820674938
24868169,1982.0,1,187400.0,230371,0.44,-0.82,9.95,-0.04,-0.01,-0.01,30.25,22.947684,2.8113444088700636,878.553637513457,9.993422837046372,0.042426406871192854,0.19367062981420957,1.3692837548390762
24908169,1990.0,1,187377.0,229728,0.44,-0.8,9.91,-0.04,-0.01,-0.01,30.25,22.987684,7.283980294542334,621.2690844155329,9.95196965429457,0.042426406871192854,0.5036991331902991,0.9686259642566124
24948226,1986.0,1,186608.0,226886,0.46,-0.8,9.909999999999997,-0.04,-0.01,-0.0,30.25,23.027741,6.9710068010364905,95.17209649750977,9.952873956802625,0.04123105625617661,0.4820048333929843,0.1493585256432331
24988183,1984.0,1,185832.0,225419,0.45,-0.79,9.98,-0.04,-0.01,-0.0,30.25,23.067698,0.8061689996925284,-496.34118221728664,10.02132725740458,0.04123105625617661,0.05467842320394384,-0.771778792926599
25028185,1982.0,1,185594.0,224896,0.44,-0.83,9.97,-0.04,-0.01,-0.01,30.25,23.1077,1.7766541816968535,-913.9100335476943,10.014159974755746,0.042426406871192854,0.12194928455201634,-1.4220401917382957
25068184,1990.0,1,185485.0,224590,0.42,-0.83,9.92,-0.03,-0.01,-0.0,30.25,23.147699,7.805166069414425,-1018.442208653356,9.963518454843149,0.03162277660168379,0.5398260279107296,-1.5848234984635667
25108185,1990.0,1,185621.0,225301,0.42,-0.81,9.94,-0.03,-0.01,-0.01,30.25,23.1877,7.537977108444865,-837.3610235657916,9.981788416912071,0.033166247903554,0.5213053622886155,-1.3028338233755945
25148208,1984.0,1,186002.0,226049,0.45,-0.8,9.990000000000002,-0.03,-0.01,-0.01,30.25,23.227723,3.608018489469266,-525.196851107246,10.032078548336832,0.033166247903554,0.24889347361374864,-0.8167144425955083
25188184,1987.0,1,186135.0,226269,0.4,-0.8,9.95,-0.03,-0.01,-0.0,30.25,23.267699,2.143161028600036,-257.81793460517724,9.990120119397963,0.03162277660168379,0.14735434146408916,-0.40033714887870087
25228183,1981.0,1,186163.0,226260,0.43,-0.8,9.94,-0.03,-0.01,-0.0,30.25,23.307698,2.213939015606284,-133.99254752498157,9.981407716349432,0.03162277660168379,0.1522604402265242,-0.20750938130305843
25268185,1993.0,1,186153.0,226534,0.46,-0.81,9.94,-0.03,-0.01,-0.01,30.25,23.3477,6.537137280974277,-137.6682953115967,9.983551472296819,0.033166247903554,0.4519304161133912,-0.21323345983474964
25308184,1990.0,1,186164.0,226815,0.42,-0.81,9.99,-0.03,-0.01,-0.01,30.25,23.387699,11.807479512925513,-168.1378197786767,10.031580134754444,0.033166247903554,0.8172533165725786,-0.2606822950099893
25348169,1993.0,1,186209.0,227001,0.43,-0.79,9.95,-0.03,-0.01,-0.0,30.25,23.427684,6.310142315925244,-110.85739790116129,9.990570554277667,0.03162277660168379,0.4361958669377027,-0.1714820418399442
25389184,1974.0,1,186286.0,227589,0.45,-0.81,9.94,-0.03,-0.01,-0.0,30.25,23.468699,-4.977239733570205,87.57004367483933,9.983095712252787,0.03162277660168379,-0.34620857046559483,0.1375201869200255
25429185,1977.0,1,186453.0,228245,0.39,-0.82,9.990000000000002,-0.04,-0.01,-0.01,30.25,23.5087,-8.452001002529716,373.85531642423496,10.031181386058178,0.042426406871192854,-0.5870676663861196,0.5833395082704775
25469855,1974.0,1,186571.0,228534,0.43,-0.8,9.96,-0.03,-0.01,-0.01,30.39,23.54937,-6.934743084904829,600.5137339891814,10.00132491223038,0.033166247903554,-0.4818963058146873,0.9363045802308029
25508185,1975.0,1,186686.0,228830,0.42,-0.79,9.95,-0.03,-0.01,-0.0,30.39,23.5877,-8.282977182225725,606.0408520922124,9.99014514409075,0.03162277660168379,-0.5753514875190624,0.9449117154077284
25548184,1973.0,1,186663.0,228155,0.43,-0.85,9.96,-0.03,-0.01,-0.0,30.39,23.627699,-10.239909361919723,328.1756809428854,10.005448515683842,0.03162277660168379,-0.7109996311165703,0.5122046437549074
25588185,1974.0,1,185868.0,224971,0.45,-0.8,9.94,-0.03,-0.01,-0.01,30.39,23.6677,-7.208274215808434,-128.48131139360797,9.982289316584648,0.033166247903554,-0.5008565899309221,-0.19892697841416843
25628184,1983.0,1,185053.0,224223,0.4,-0.8,9.98,-0.04,-0.01,-0.01,30.39,23.707699,-1.8003635129079423,-538.1675016285926,10.02,0.042426406871192854,-0.12599789262836514,-0.8369130597208906
25668169,1982.0,1,185118.0,224828,0.42,-0.79,9.95,-0.03,-0.01,-0.0,30.39,23.747684,1.813289321788206,-696.6408649492411,9.99014514409075,0.03162277660168379,0.12448871274242183,-1.0836965795618854
25708184,1988.0,1,185355.0,225789,0.43,-0.79,9.93,-0.04,-0.01,-0.01,30.39,23.787699,3.062748429879816,-555.9505162486818,9.970651934552725,0.042426406871192854,0.21109713498223964,-0.8646057574044114
25748185,1982.0,1,185661.0,226635,0.38,-0.8,9.95,-0.04,-0.01,-0.01,30.39,23.8277,1.587733709023786,-247.02732057321438,9.989339317492423,0.042426406871192854,0.10885393476341379,-0.3835334056107213
25788184,1984.0,1,185793.0,226782,0.42,-0.82,9.98,-0.03,-0.01,-0.0,30.39,23.867699,0.044294004464854084,19.69005940294338,10.022434833911369,0.03162277660168379,0.001867738281712983,0.03181370669927549
25828185,1979.0,1,185693.0,226395,0.41,-0.79,9.96,-0.03,-0.01,-0.0,30.39,23.9077,-2.035695133738076,91.6300449650112,9.999689995194851,0.03162277660168379,-0.14231031153927085,0.14384264634129937
25868184,1983.0,1,185532.0,225658,0.38,-0.81,9.96,-0.03,-0.01,-0.0,30.39,23.947699,0.020425308338471646,-45.1542651675671,10.000104999448757,0.03162277660168379,0.00021323826723466604,-0.06916547569394264
25908186,1985.0,1,185313.0,225134,0.44,-0.81,9.91,-0.03,-0.01,-0.0,30.39,23.987701,4.167603450691713,-275.86567989582096,9.952778506527713,0.03162277660168379,0.28768207444649585,-0.4284420998603178
25948184,1981.0,1,185224.0,224930,0.44,-0.81,9.95,-0.03,-0.01,-0.0,30.39,24.027699,-1.880873082863589,-429.63875262872864,9.992607267375217,0.03162277660168379,-0.13157855291881262,-0.6679060662368534
25988185,1975.0,1,185228.0,225157,0.42,-0.81,9.93,-0.03,-0.01,-0.0,30.39,24.0677,-4.391254620302831,-368.58820282533657,9.971830323466198,0.03162277660168379,-0.3055899973666926,-0.5728347605422517
26028184,1986.0,1,185369.0,225909,0.41,-0.81,9.96,-0.03,-0.01,-0.01,30.39,24.107699,2.615992480264647,-59.13918867372101,10.001289916805733,0.033166247903554,0.18012947251786357,-0.0909435750239393
26068185,1981.0,1,185758.0,227207,0.41,-0.81,9.96,-0.04,-0.01,-0.0,30.39,24.1477,3.634503264100059,398.0266108883831,10.001289916805733,0.04123105625617661,0.25072931164101603,0.6209803900059534
26108184,1985.0,1,186154.0,228219,0.4,-0.81,9.97,-0.04,-0.01,-0.01,30.39,24.187699,1.4480501575542117,800.1454930675544,10.010844120252798,0.042426406871192854,0.0991715274502909,1.2471822390694554
26148185,1970.0,1,186360.0,228583,0.42,-0.8,9.97,-0.03,-0.01,-0.01,30.39,24.2277,-5.532201125396245,938.7195170876042,10.010859103993024,0.033166247903554,-0.38467668057724047,1.4629774029356004
26188184,1967.0,1,186376.0,227431,0.4,-0.8,9.93,-0.03,-0.01,-0.01,30.39,24.267699,-15.69641602532044,718.1593854699745,9.970200599787349,0.033166247903554,-1.089226841593265,1.1195089204306943
26228184,1963.0,1,185384.0,224207,0.41,-0.8,9.96,-0.04,-0.01,-0.01,30.39,24.307699,-11.30641277293264,220.14178138868115,10.000484988239322,0.042426406871192854,-0.7849261623195749,0.3439682573018082
