timestamp_us,ecg,leads,ir,red,accX,accY,accZ,gyroX,gyroY,gyroZ,temp,time_sec,ecg_filtered,ppg_filtered,accel_magnitude,gyro_magnitude,ecg_norm,ppg_norm
1947951,1976.5,1,175665.0,205970,0.18500000000000003,-0.585,9.919999999999998,-0.03,-0.01,-0.01,31.25,0.030465,1.3793179668834266,19.481042797023395,9.93895618261797,0.033166247903554,0.10173555750613433,0.025401400630433765
1988198,1967.0,1,175657.0,206164,0.18500000000000003,-0.585,9.98,-0.03,-0.01,-0.01,31.25,0.070712,-3.945525711893742,-31.367836743713383,9.998842433001933,0.033166247903554,-0.2948389597885242,-0.04467842584373323
2028194,1976.5,1,175716.0,206401,0.18500000000000003,-0.585,9.97,-0.03,-0.01,-0.01,31.25,0.110708,3.147662392231785,15.11806325104726,9.988861296464178,0.033166247903554,0.2334352616097996,0.019388350741155573
2068186,1972.0,1,175836.0,206735,0.18500000000000003,-0.585,10.000000000000004,-0.03,-0.01,-0.01,31.25,0.1507,7.56200975764934,180.7579630669343,10.018804818939238,0.033166247903554,0.5621994059148655,0.2476729371693814
2108185,1976.5,1,176042.0,207335,0.3,-0.585,9.919999999999998,-0.03,-0.01,-0.01,31.25,0.190699,7.964410182891506,386.0326032883555,9.941761664815747,0.033166247903554,0.5921686902782001,0.5305820454170754
2148185,1956.0,1,176280.0,208118,0.18500000000000003,-0.585,9.99,-0.03,-0.01,-0.01,31.25,0.230699,-5.471233922932143,495.4485987339497,10.008823607197801,0.033166247903554,-0.408468022691644,0.6813789566485708
2188186,1939.0,1,176390.0,207425,0.18500000000000003,-0.585,9.98,-0.03,-0.01,-0.01,31.25,0.2707,-21.80342444305841,408.7831119087373,9.998842433001933,0.033166247903554,-1.6248287203207765,0.5619367519654883
2228185,1933.0,1,175853.0,205692,0.2,-0.585,9.94,-0.03,-0.01,-0.01,31.25,0.310699,-27.297684922953657,134.78218621625058,9.959208050844204,0.033166247903554,-2.034020769730563,0.18430921130537875
2268185,1923.0,1,175452.0,205102,0.18500000000000003,-0.585,9.96,-0.03,-0.01,-0.01,31.25,0.350699,-29.909604504575043,-209.61470844051,9.978880197697537,0.033166247903554,-2.2285468083863758,-0.2903379162965609
2308185,1938.0,1,175401.0,204771,0.18500000000000003,-0.585,10.000000000000004,-0.03,-0.01,-0.01,31.25,0.390699,-20.060676723063924,-475.34788593392466,10.018804818939238,0.033166247903554,-1.4950353634607878,-0.6565708625357867
2348170,1946.0,1,175264.0,204598,0.18500000000000003,-0.585,9.96,-0.03,-0.01,-0.01,31.25,0.430684,-1.1484855786883732,-573.9783515136561,9.978880197697537,0.033166247903554,-0.08652583219368026,-0.792503177570505
2388186,1968.0,1,175320.0,204974,0.18500000000000003,-0.585,9.96,-0.03,-0.01,-0.01,31.25,0.4707,14.47817849041031,-519.7682609704755,9.978880197697537,0.033166247903554,1.0772898840926137,-0.7177909366572821
2428185,1968.0,1,175535.0,205545,0.2,-0.585,9.96,-0.03,-0.01,-0.01,31.25,0.510699,24.21361259804215,-398.8868447768043,9.97916955462728,0.033166247903554,1.8023487430551508,-0.5511924049429826
2468185,1976.5,1,175630.0,205697,0.18500000000000003,-0.585,9.95,-0.03,-0.01,-0.01,31.25,0.550699,29.255777852467478,-298.13490466600587,9.968899136815459,0.033166247903554,2.1778704245391083,-0.4123362778528297
2508222,1976.5,1,175608.0,205661,0.19,-0.585,9.98,-0.03,-0.01,-0.01,31.25,0.590736,34.55621161738842,-247.76271809338962,9.998936193415778,0.033166247903554,2.572626982398954,-0.34291342869633556
2548186,1969.0,1,175637.0,205719,0.19,-0.585,9.96,-0.03,-0.01,-0.01,31.25,0.6307,28.73075931329317,-213.19701786569826,9.97897414567249,0.033166247903554,2.138768999914449,-0.29527504815003364
2588185,1955.0,1,175751.0,206437,0.18500000000000003,-0.585,9.94,-0.03,-0.01,-0.0,31.25,0.670699,14.26769240972165,-129.92729936170696,9.958918113931855,0.03162277660168379,1.0616136650556036,-0.1805128847352547
2628185,1942.0,1,176052.0,207392,0.18500000000000003,-0.585,9.96,-0.03,-0.01,-0.0,31.25,0.710699,8.455243484083262,51.1038407046128,9.978880197697537,0.03162277660168379,0.628724125749118,0.06898387894671813
2668186,1943.0,1,176406.0,207924,0.18500000000000003,-0.585,9.96,-0.03,-0.01,-0.01,31.25,0.7507,3.7561401211696124,334.33028162079967,9.978880197697537,0.033166247903554,0.2787524157264223,0.45932600667051593
2708197,1936.0,1,176566.0,208524,0.19,-0.585,9.97,-0.03,-0.01,-0.0,31.25,0.790711,7.834579389229939,669.9862742229526,9.98895515056505,0.03162277660168379,0.5824993765044401,0.9219264401319516
2748185,1958.0,1,176816.0,209241,0.18500000000000003,-0.585,9.96,-0.03,-0.01,-0.01,31.25,0.830699,21.432719302230925,958.4394876538566,9.978880197697537,0.033166247903554,1.5952381717477222,1.3194720955275416
2788185,1936.0,1,177007.0,209443,0.18500000000000003,-0.585,9.99,-0.03,-0.01,-0.0,31.25,0.870699,11.21477242744366,1074.7972364749319,10.008823607197801,0.03162277660168379,0.8342435596877129,1.479836117703742
2828185,1925.0,1,176938.0,209227,0.18500000000000003,-0.585,9.95,-0.03,-0.01,-0.0,31.25,0.910699,-7.761450657478136,924.2561637916718,9.968899136815459,0.03162277660168379,-0.5790348319338828,1.2723607053413921
2868186,1909.0,1,176788.0,207941,0.18500000000000003,-0.585,9.96,-0.03,-0.01,-0.0,31.25,0.9507,-13.846142290930377,510.91002880925345,9.978880197697537,0.03162277660168379,-1.032199993765885,0.702687869381873
2908185,1905.0,1,175960.0,205488,0.18500000000000003,-0.6,9.95,-0.03,-0.01,-0.0,31.25,0.990699,-23.789689270327074,-32.97628637916643,9.969790619666995,0.03162277660168379,-1.7727583240071558,-0.04689518798998039
2948185,1895.0,1,175322.0,204601,0.2,-0.6,9.95,-0.03,-0.01,-0.01,31.25,1.030699,-26.59280370530702,-501.3542235111818,9.970080240399271,0.033166247903554,-1.9815238429658544,-0.6924127461938662
2988871,1904.0,1,175291.0,204783,0.18500000000000003,-0.59,9.96,-0.03,-0.01,-0.0,31.41,1.071385,-21.076822307270564,-730.8669524302057,9.979174565062985,0.03162277660168379,-1.570714100503147,-1.0087267409471254
3027228,1897.0,1,175461.0,205187,0.18500000000000003,-0.585,9.98,-0.03,-0.01,-0.0,31.41,1.109742,-24.06348619693614,-694.9714584233158,9.998842433001933,0.03162277660168379,-1.793149698957657,-0.9592556412114458
3067185,1897.0,1,175634.0,205789,0.2,-0.585,9.96,-0.03,-0.01,-0.01,31.41,1.149699,-24.537338969854588,-501.9541311298265,9.97916955462728,0.033166247903554,-1.8284404879507385,-0.6932395377022509
3107185,1904.0,1,175929.0,206447,0.19,-0.59,9.98,-0.03,-0.01,-0.01,31.41,1.189699,-17.11663373321616,-303.03890243748805,9.999229970352717,0.033166247903554,-1.275774010822973,-0.41909495800388097
3147185,1910.0,1,176005.0,206352,0.22,-0.585,9.97,-0.03,-0.01,-0.0,31.41,1.229699,-8.8284811382261,-188.83981525070726,9.989570811601467,0.03162277660168379,-0.6585032864779772,-0.26170599907615577
3187186,1916.0,1,175912.0,206399,0.19,-0.6,9.95,-0.03,-0.01,-0.01,31.41,1.2697,-4.645685510834351,-151.69904109132483,9.96988465329464,0.033166247903554,-0.3469842528795999,-0.210518656666368
3227185,1917.0,1,175971.0,206864,0.18500000000000003,-0.61,9.97,-0.03,-0.01,-0.01,31.41,1.309699,-1.224756834465196,-126.25812214393781,9.990356600242055,0.033166247903554,-0.09220623114392645,-0.1754560318597016
3267186,1920.0,1,176280.0,207596,0.2,-0.585,9.98,-0.03,-0.01,-0.01,31.41,1.3497,1.4153261367189471,-55.522822648400584,9.999131212260394,0.033166247903554,0.1044173118322003,-0.07796878024240364
3307186,1917.0,1,176527.0,208068,0.18500000000000003,-0.59,9.99,-0.03,-0.01,-0.01,31.41,1.3897,-3.095402393658971,76.83049314798558,10.009117093929913,0.033166247903554,-0.23152494253134343,0.10444030109950889
3347228,1913.0,1,176671.0,208437,0.21,-0.585,9.96,-0.03,-0.01,-0.0,31.41,1.429742,-2.4280564303907473,257.4223425156531,9.979374980428384,0.03162277660168379,-0.18182350165967237,0.3533316351985427
3387185,1927.0,1,176763.0,208958,0.19,-0.585,9.97,-0.03,-0.01,-0.01,31.41,1.469699,4.076194837934204,460.9353361735702,9.98895515056505,0.033166247903554,0.30258889853523685,0.6338128455929463
3427186,1922.0,1,176992.0,209610,0.19,-0.59,9.96,-0.03,-0.01,-0.0,31.41,1.5097,8.741151324056005,646.1690570693424,9.979268510266673,0.03162277660168379,0.6500174764027445,0.8891015979663465
3467185,1936.0,1,177206.0,210275,0.2,-0.6,9.97,-0.03,-0.01,-0.01,31.41,1.549699,11.606700945300378,746.0153859744863,9.990040039959801,0.033166247903554,0.863432935406388,1.026709613461543
3507186,1920.0,1,177441.0,210641,0.18500000000000003,-0.6,9.98,-0.03,-0.01,-0.01,31.41,1.5897,6.211089395302183,686.1577589506626,9.999731246388576,0.033166247903554,0.46158789073807066,0.9442139488004491
3547185,1923.0,1,177171.0,209012,0.19,-0.585,9.97,-0.03,-0.01,-0.01,31.41,1.629699,-0.6552579291329919,434.6292570199242,9.98895515056505,0.033166247903554,-0.0497920745777715,0.5975578586796889
3587185,1917.0,1,176581.0,207522,0.18500000000000003,-0.585,9.96,-0.03,-0.01,-0.0,31.41,1.669699,0.4838215779610296,40.593773138400785,9.978880197697537,0.03162277660168379,0.035042323000222246,0.05449892435333642
3627185,1929.0,1,176296.0,207223,0.2,-0.585,9.96,-0.03,-0.01,-0.01,31.41,1.709699,6.824463620455089,-378.0402943565511,9.97916955462728,0.033166247903554,0.5072697176488769,-0.5224617298675186
3667185,1923.0,1,176253.0,207097,0.21,-0.585,9.95,-0.03,-0.01,-0.01,31.41,1.749699,3.8438265286725017,-692.6678814176371,9.969394414908058,0.033166247903554,0.2852829726453715,-0.9560808558811513
3707186,1923.0,1,176136.0,206888,0.19,-0.585,9.97,-0.03,-0.01,-0.0,31.41,1.7897,0.868575640515687,-825.4840605809374,9.98895515056505,0.03162277660168379,0.06369737201939128,-1.1391278546113635
3747186,1933.0,1,176176.0,207330,0.19,-0.6,9.96,-0.03,-0.01,-0.01,31.41,1.8297,12.954859150643983,-779.3992883644738,9.979864728542166,0.033166247903554,0.9638387354211131,-1.075613911547113
3787185,1934.0,1,176466.0,208111,0.2,-0.59,9.97,-0.03,-0.01,-0.01,31.41,1.869699,10.142445303680828,-630.5545489490058,9.98944442899604,0.033166247903554,0.7543806309066987,-0.8704763823814615
3827186,1922.0,1,176641.0,208429,0.21,-0.585,9.97,-0.03,-0.01,-0.01,31.41,1.9097,1.955929687927941,-493.4632762379562,9.989355584821276,0.033166247903554,0.14467945008481448,-0.6815374580730842
3867185,1932.0,1,176680.0,208432,0.2,-0.61,9.98,-0.03,-0.01,-0.0,31.41,1.949699,6.59315246297204,-468.39416686565653,10.00062498046997,0.03162277660168379,0.49004252448463076,-0.6469872604966517
3907186,1926.0,1,176695.0,208641,0.21,-0.585,9.96,-0.03,-0.01,-0.01,31.41,1.9897,4.864723066365475,-582.7157010796059,9.979374980428384,0.033166247903554,0.3613155430017569,-0.8045449756780789
3947185,1934.0,1,176786.0,208917,0.21,-0.59,9.97,-0.03,-0.01,-0.01,31.41,2.029699,8.592736810100725,-751.4835640172313,9.989649643506024,0.033166247903554,0.6389641163828212,-1.0371405147717103
3987186,1926.0,1,176861.0,209211,0.22,-0.585,9.96,-0.03,-0.01,-0.0,31.41,2.0697,2.6707472387252578,-795.0166627994053,9.979590422457226,0.03162277660168379,0.19791639792067953,-1.0971377464922918
4027911,1914.0,1,176971.0,209607,0.22,-0.59,9.96,-0.03,-0.01,-0.0,31.41,2.110425,-10.913973145687134,-535.4298652210238,9.979884768873838,0.03162277660168379,-0.813822960833311,-0.7393757290479621
4068186,1929.0,1,177345.0,211654,0.22,-0.585,9.96,-0.03,-0.01,-0.01,31.41,2.1507,3.9939250790963015,64.18401053355159,9.979590422457226,0.033166247903554,0.29646175342689784,0.08701094345912887
4108185,1936.0,1,178481.0,214601,0.23,-0.6,9.97,-0.03,-0.01,-0.01,31.41,2.190699,10.922345598440376,818.359136602659,9.990685662155526,0.033166247903554,0.8124646990202732,1.1264136292885019
4148197,1926.0,1,179372.0,216540,0.24,-0.61,9.97,-0.03,-0.01,-0.01,31.41,2.230711,0.061132485790600544,1388.7543469383236,9.991526409913552,0.033166247903554,0.0035620143178647463,1.9125311941798868
4188185,1922.0,1,179683.0,216580,0.24,-0.6,9.97,-0.03,-0.01,-0.0,31.41,2.270699,-3.124132336950289,1487.7936420303072,9.990920878477619,0.03162277660168379,-0.23366464166243112,2.049026957249939
4228186,1921.0,1,179032.0,213216,0.23,-0.6,9.95,-0.03,-0.01,-0.0,31.41,2.3107,-6.214096752698208,1072.1161943195445,9.97072715502736,0.03162277660168379,-0.463793678410851,1.476141110641316
4268185,1921.0,1,177939.0,211688,0.23,-0.61,9.95,-0.03,-0.01,-0.01,31.41,2.350699,-3.395277065114996,370.4769427210106,9.97133391277215,0.033166247903554,-0.25385849075465533,0.5091432644036762
4308186,1920.0,1,177727.0,211520,0.26,-0.61,9.97,-0.03,-0.01,-0.01,31.41,2.3907,-8.489982932996448,-274.52383143355684,9.992026821421168,0.033166247903554,-0.6332932013671058,-0.37979554283676564
4348208,1911.0,1,177681.0,211405,0.24,-0.6,9.96,-0.03,-0.01,-0.01,31.41,2.430722,-13.167622618149645,-618.1343056826402,9.980941839325586,0.033166247903554,-0.9816663766419843,-0.8533588273687392
4388185,1933.0,1,177678.0,211500,0.26,-0.6,9.97,-0.03,-0.01,-0.0,31.41,2.470699,4.843104791781849,-621.6137534247907,9.99142132031274,0.03162277660168379,0.35970549445856403,-0.8581541954515403
4428184,1932.0,1,177788.0,212081,0.23,-0.6,9.98,-0.03,-0.01,-0.0,31.41,2.510698,6.439410327963903,-410.1251483693749,10.00066497789022,0.03162277660168379,0.47859238309893964,-0.5666810130056322
4468185,1923.0,1,178093.0,212923,0.24,-0.61,9.97,-0.03,-0.01,-0.01,31.41,2.550699,-3.2459724156647645,-152.92863815911275,9.991526409913552,0.033166247903554,-0.2427388367596349,-0.2122132849437657
4508185,1927.0,1,178346.0,213244,0.24,-0.6,9.98,-0.03,-0.01,-0.01,31.41,2.590699,-0.3652191914632383,34.66080291402456,10.000899959503645,0.033166247903554,-0.028191070055034222,0.04632211637731034
4548211,1921.0,1,178383.0,213412,0.24,-0.59,9.97,-0.03,-0.01,-0.0,31.41,2.630725,-3.700475129293408,121.67518063426814,9.990325320028372,0.03162277660168379,-0.27658850543343605,0.16624516181053398
4588185,1925.0,1,178525.0,213830,0.23,-0.6,9.98,-0.03,-0.01,-0.0,31.41,2.670699,-2.7709209984764978,140.1744353651129,10.00066497789022,0.03162277660168379,-0.20735877720738075,0.19174079855117063
4628186,1927.0,1,178599.0,214068,0.24,-0.61,9.98,-0.03,-0.01,-0.01,31.41,2.7107,2.381871984192949,150.16136522277387,10.001504886765792,0.033166247903554,0.176402045286983,0.20550476577632565
4668185,1926.0,1,178705.0,214305,0.22,-0.61,9.96,-0.03,-0.01,-0.01,31.41,2.750699,-0.7219260897919134,212.10599614063594,9.981087115139314,0.033166247903554,-0.05475727078392683,0.2908767351282229
4708186,1924.0,1,178752.0,214657,0.24,-0.59,9.98,-0.03,-0.01,-0.01,31.41,2.7907,-1.3093653047569542,363.78934569753665,10.000304995348891,0.033166247903554,-0.09850755476751477,0.49992643124693487
4748185,1922.0,1,179031.0,215315,0.22,-0.61,9.96,-0.03,-0.01,-0.0,31.41,2.830699,-3.326704654204926,594.5115400785962,9.981087115139314,0.03162277660168379,-0.24875147308486392,0.8179073089378616
4788185,1923.0,1,179211.0,215777,0.24,-0.63,9.97,-0.03,-0.01,-0.01,31.41,2.870699,-2.733860438478778,828.3805103559077,9.992767384463626,0.033166247903554,-0.20459864478314765,1.1402250670232865
4828185,1931.0,1,179296.0,216131,0.23,-0.6,9.94,-0.03,-0.01,-0.0,31.41,2.910699,6.522543041762454,942.3764034076042,9.960747963883033,0.03162277660168379,0.4847837978774531,1.2973339841908806
4868185,1930.0,1,179409.0,216203,0.23,-0.62,9.98,-0.03,-0.01,-0.0,31.41,2.950699,4.740497667981703,828.4473467618635,10.001884822372231,0.03162277660168379,0.35206369818307587,1.140317180827442
4908185,1926.0,1,179129.0,214176,0.24,-0.62,9.94,-0.03,-0.01,-0.0,31.41,2.990699,1.3331482051950048,468.07142926047976,9.96220859046828,0.03162277660168379,0.09829700568006457,0.6436477951483929
4948185,1929.0,1,178141.0,212181,0.24,-0.61,9.93,-0.03,-0.01,-0.0,31.41,3.030699,5.277790123516437,-38.212662335689124,9.951612934595074,0.03162277660168379,0.39207923836672326,-0.05411195110651323
4988185,1921.0,1,177794.0,211572,0.22,-0.62,9.96,-0.03,-0.01,-0.0,31.41,3.070699,-4.62238490558218,-518.1467131172838,9.981703261467954,0.03162277660168379,-0.34524891061643037,-0.7155561225729286
5028871,1916.0,1,177642.0,211385,0.22,-0.62,9.96,-0.03,-0.01,-0.01,31.39,3.111385,-6.071092535773387,-820.9542018780766,9.981703261467954,0.033166247903554,-0.453143257155464,-1.1328848121939852
5067185,1936.0,1,177573.0,211217,0.23,-0.6,9.97,-0.03,-0.01,-0.0,31.39,3.149699,10.106205550228621,-888.0583899102384,9.990685662155526,0.03162277660168379,0.7516816290957222,-1.2253676730840923
5107185,1931.0,1,177588.0,211432,0.25,-0.62,9.98,-0.03,-0.01,-0.0,31.39,3.189699,9.086108955382826,-759.3386775753247,10.00236472040487,0.03162277660168379,0.6757086355020777,-1.047966416936281
5147186,1922.0,1,177784.0,212221,0.27,-0.61,10.0,-0.03,-0.01,-0.0,31.39,3.2297,-2.362912862351811,-528.9122737380939,10.022225301797999,0.03162277660168379,-0.17697185143135513,-0.7303931971951744
5187186,1920.0,1,178045.0,212705,0.25,-0.63,9.96,-0.03,-0.01,-0.0,31.39,3.2697,-3.4499120620463657,-292.3578740935423,9.983035610474403,0.03162277660168379,-0.25792750176089557,-0.4043743856005165
5227186,1925.0,1,178131.0,213024,0.25,-0.62,9.96,-0.03,-0.01,-0.0,31.39,3.3097,3.0661833212883587,-114.0108109471323,9.98240952876609,0.03162277660168379,0.22736700398980747,-0.1585768114875074
5267185,1930.0,1,178242.0,213185,0.27,-0.61,9.98,-0.03,-0.01,-0.0,31.39,3.349699,5.062728777281201,-16.750463255250647,10.00226974241347,0.03162277660168379,0.37606227059884245,-0.024532790249955996
5307185,1922.0,1,178291.0,213330,0.26,-0.59,9.97,-0.03,-0.01,-0.01,31.39,3.389699,1.3171914892631338,16.043197277968666,9.9908257916951,0.033166247903554,0.0971086089307833,0.020663368650253436
5347186,1920.0,1,178305.0,213496,0.23,-0.61,9.98,-0.03,-0.01,-0.0,31.39,3.4297,-4.579997269085615,31.793247509009827,10.00126991936524,0.03162277660168379,-0.3420920373827832,0.042370057118511974
5387257,1906.0,1,178356.0,213608,0.27,-0.61,9.96,-0.03,-0.01,-0.0,31.39,3.469771,-15.576066437803492,88.63981845042441,9.982314360908497,0.03162277660168379,-1.161038298679303,0.12071589016748213
5427186,1909.0,1,178389.0,213874,0.28,-0.61,9.96,-0.03,-0.01,-0.01,31.39,3.5097,-13.510772025391402,220.51753691579472,9.982589844323968,0.033166247903554,-1.0072228659487463,0.3024695041966397
5467185,1921.0,1,178522.0,214150,0.22,-0.62,9.95,-0.03,-0.01,-0.0,31.39,3.549699,-2.39087850038633,401.22253437980976,9.971725026293093,0.03162277660168379,-0.1790546279546508,0.5515167787810792
5507185,1918.0,1,178645.0,214638,0.25,-0.61,9.95,-0.03,-0.01,-0.0,31.39,3.589699,-2.5816762918675726,538.195224009023,9.971815281080971,0.03162277660168379,-0.19326453656833184,0.7402922721176648
5547186,1921.0,1,178762.0,214797,0.25,-0.61,9.99,-0.03,-0.01,-0.0,31.39,3.6297,-3.20118457968898,517.6814580114021,10.011728122557065,0.03162277660168379,-0.2394032056117083,0.712020239883538
5588186,1916.0,1,178690.0,213729,0.22,-0.63,9.98,-0.03,-0.01,-0.0,31.39,3.6707,-4.115139929007765,282.76204713884886,10.002284738998386,0.03162277660168379,-0.30747119471147544,0.38825476662128233
5628185,1919.0,1,177930.0,211774,0.26,-0.6,9.97,-0.03,-0.01,-0.01,31.39,3.710699,-4.539008233597321,-112.88661837831087,9.99142132031274,0.033166247903554,-0.3390393267411674,-0.15702745148472824
5668186,1923.0,1,177503.0,211086,0.24,-0.61,9.97,-0.03,-0.01,-0.01,31.39,3.7507,2.3594464201450984,-524.4476574782401,9.991526409913552,0.033166247903554,0.17473187283238445,-0.7242400717853286
5708185,1926.0,1,177418.0,210969,0.25,-0.64,9.94,-0.03,-0.01,-0.01,31.39,3.790699,3.5919190296493198,-799.3021956074031,9.963719185123594,0.033166247903554,0.266521840703379,-1.1030440594385433
5748186,1920.0,1,177391.0,210943,0.25,-0.62,9.96,-0.03,-0.01,-0.0,31.39,3.8307,-0.9119086937537593,-861.4174340475568,9.98240952876609,0.03162277660168379,-0.06890646726848042,-1.188651159744463
5788186,1923.0,1,177463.0,211331,0.25,-0.61,9.97,-0.03,-0.01,-0.01,31.39,3.8707,1.1594263386392791,-738.4616722299875,9.991771614683755,0.033166247903554,0.08535884833143698,-1.0191937689425452
5828186,1926.0,1,177705.0,212125,0.24,-0.6,9.99,-0.03,-0.01,-0.0,31.39,3.9107,5.805749349937023,-525.0378544445348,10.01087908227844,0.03162277660168379,0.43139967442074234,-0.7250534800916094
5868185,1927.0,1,177965.0,212577,0.25,-0.61,9.99,-0.03,-0.01,-0.01,31.39,3.950699,4.920419465040447,-320.0087799172751,10.011728122557065,0.033166247903554,0.3654636032551708,-0.4424828100040141
5908186,1920.0,1,178000.0,212827,0.26,-0.62,9.98,-0.03,-0.01,-0.01,31.39,3.9907,1.371134425442008,-180.44998322269427,10.002619656869895,0.033166247903554,0.10112607783073535,-0.25014314896065765
5948185,1925.0,1,178140.0,213160,0.24,-0.62,9.96,-0.03,-0.01,-0.01,31.39,4.030699,2.465632127904069,-109.51044920653779,9.982164094022899,0.033166247903554,0.18264018870763582,-0.15237442172591634
5988193,1926.0,1,178262.0,213549,0.23,-0.61,9.98,-0.03,-0.01,-0.01,31.39,4.070707,8.943046918842617,-69.10738205765655,10.00126991936524,0.033166247903554,0.6650539080571675,-0.09669099348932461
6028871,1925.0,1,178394.0,214069,0.25,-0.62,9.95,-0.03,-0.01,-0.01,31.41,4.111385,2.7908237311150916,-1.5411653529101514,9.972432000269542,0.033166247903554,0.206859247679392,-0.003571365585012633
6067186,1904.0,1,178581.0,214509,0.23,-0.61,9.98,-0.03,-0.01,-0.01,31.41,4.1497,-12.295233309587063,144.90435858370725,10.00126991936524,0.033166247903554,-0.9166940713863159,0.1982595694934029
6107185,1915.0,1,178753.0,215074,0.25,-0.61,9.96,-0.03,-0.01,-0.0,31.41,4.189699,-5.680053299195324,383.80753728340915,9.98179342603322,0.03162277660168379,-0.424020111793039,0.5275154637946566
6147185,1919.0,1,178999.0,215669,0.25,-0.64,9.99,-0.03,-0.01,-0.01,31.41,4.229699,2.8197403305471345,661.4974836894005,10.013600750978641,0.033166247903554,0.2090128482643765,0.9102272055973873
6187191,1915.0,1,179207.0,216424,0.23,-0.61,9.96,-0.03,-0.01,-0.0,31.41,4.269705,-3.6008801338850294,859.5379644932127,9.981312538939957,0.03162277660168379,-0.2691710412576404,1.1831662094641904
6227185,1917.0,1,179479.0,216973,0.26,-0.62,9.95,-0.03,-0.01,-0.01,31.41,4.309699,1.1118158273647833,850.5512885691721,9.972687701918675,0.033166247903554,0.08181299484430306,1.1707807902568352
6267185,1919.0,1,179462.0,215407,0.24,-0.61,9.97,-0.03,-0.01,-0.01,31.41,4.349699,2.3954877245445876,584.9421416458888,9.991526409913552,0.033166247903554,0.1774160948973183,0.8047187827071303
6307186,1907.0,1,178463.0,213277,0.26,-0.6,9.95,-0.03,-0.01,-0.0,31.41,4.3897,-8.253459629530669,142.5958283898635,9.971464285650327,0.03162277660168379,-0.6156778269900649,0.19507795768885297
6347184,1909.0,1,178113.0,213053,0.24,-0.61,9.94,-0.03,-0.01,-0.0,31.41,4.429698,-5.5544522118831,-302.2063746424946,9.96159123835143,0.03162277660168379,-0.4146658107886632,-0.41794756982276443
6387185,1916.0,1,178146.0,213090,0.27,-0.62,9.95,-0.03,-0.01,-0.01,31.41,4.469699,1.4858976853151513,-581.667239977915,9.972953424136703,0.033166247903554,0.10967321782824323,-0.803099988635394
6427185,1915.0,1,178169.0,213220,0.23,-0.62,9.97,-0.03,-0.01,-0.0,31.41,4.509699,2.4400635448954384,-622.8663989310901,9.991906724944943,0.03162277660168379,0.18073593591145146,-0.8598805890418804
6467185,1919.0,1,178219.0,213506,0.24,-0.62,9.94,-0.03,-0.01,-0.0,31.41,4.549699,5.725410524028078,-464.8110809510784,9.96220859046828,0.03162277660168379,0.42541633800246537,-0.6420490584870184
6507186,1921.0,1,178488.0,214439,0.24,-0.62,9.96,-0.03,-0.01,-0.01,31.41,4.5897,9.638558224321603,-211.76039503309008,9.982164094022899,0.033166247903554,0.7168529986751004,-0.29329509736788606
6547186,1919.0,1,178796.0,215012,0.25,-0.62,9.94,-0.03,-0.01,-0.01,31.41,4.6297,8.038990267981273,29.38790663043383,9.962454516834693,0.033166247903554,0.597723137136828,0.039055021017337266
6587185,1914.0,1,178937.0,215355,0.24,-0.6,9.99,-0.03,-0.01,-0.0,31.41,4.669699,2.6625614261069477,190.49732272054536,10.01087908227844,0.03162277660168379,0.19730674909648788,0.2610957036228244
6627185,1910.0,1,179032.0,215621,0.24,-0.61,9.98,-0.03,-0.01,-0.01,31.41,4.709699,2.1506448608299205,255.30090157198927,10.001504886765792,0.033166247903554,0.15918111067089227,0.35040786943320174
6667185,1915.0,1,179082.0,215801,0.26,-0.61,9.99,-0.03,-0.01,-0.0,31.41,4.749699,3.1590257763204628,254.15239587596537,10.011982820600522,0.03162277660168379,0.23428156411775156,0.3488250011259962
6707185,1905.0,1,179113.0,215796,0.25,-0.63,9.94,-0.03,-0.01,-0.01,31.41,4.789699,-0.15571574463598814,248.5052750675104,9.963081852519329,0.033166247903554,-0.012588033926814257,0.3410421502567232
6747185,1909.0,1,179209.0,216082,0.24,-0.6,9.97,-0.03,-0.01,-0.01,31.41,4.829699,-2.692110510288762,304.4426033079805,9.990920878477619,0.033166247903554,-0.20148926568812706,0.41813486679102074
6787185,1905.0,1,179296.0,216436,0.25,-0.63,9.93,-0.03,-0.01,-0.01,31.41,4.869699,0.9220407639411109,454.3772068521573,9.953105043151107,0.033166247903554,0.06767925520575478,0.6247744445703325
6827185,1917.0,1,179445.0,216839,0.24,-0.6,9.98,-0.03,-0.01,-0.0,31.41,4.909699,6.656875311638347,660.7209823326632,10.000899959503645,0.03162277660168379,0.49478836482755034,0.9091570329440547
6867186,1909.0,1,179557.0,217108,0.23,-0.61,9.96,-0.03,-0.01,-0.01,31.41,4.9497,4.277210428727096,811.9446425928181,9.981312538939957,0.033166247903554,0.31755979077102514,1.1175731861717741
6907185,1911.0,1,179701.0,217402,0.23,-0.61,9.97,-0.03,-0.01,-0.0,31.41,4.989699,2.4636673713877126,774.1836819108332,9.991291207846961,0.03162277660168379,0.18249386096280812,1.0655311039077722
6947185,1914.0,1,179678.0,216480,0.24,-0.62,9.96,-0.03,-0.01,-0.0,31.41,5.029699,7.935287062162563,479.9133595542813,9.982164094022899,0.03162277660168379,0.5899997087565026,0.659968320351784
6987186,1919.0,1,178735.0,213640,0.25,-0.64,9.95,-0.03,-0.01,-0.0,31.41,5.0697,11.35768430956053,-9.80504442402197,9.973695403409911,0.03162277660168379,0.8448871041906352,-0.01496062758129821
7027194,1920.0,1,178077.0,212726,0.24,-0.62,9.96,-0.03,-0.01,-0.0,31.41,5.109708,12.86018306664033,-527.3791400869771,9.982164094022899,0.03162277660168379,0.9567876134393087,-0.7282802353914459
7067871,1922.0,1,178002.0,212562,0.24,-0.62,9.96,-0.03,-0.01,-0.01,31.25,5.150385,13.72975896417165,-895.424461790932,9.982164094022899,0.033166247903554,1.0215503863238917,-1.2355195789639788
7108186,1921.0,1,177954.0,212382,0.25,-0.62,9.99,-0.03,-0.01,-0.01,31.25,5.1907,12.856509714890349,-1023.2102289417217,10.01234238327875,0.033166247903554,0.9565140358875567,-1.411633673683044
7148185,1919.0,1,177912.0,212474,0.23,-0.62,9.94,-0.03,-0.01,-0.0,31.25,5.230699,9.183673557461375,-934.3484837538147,9.961972696208315,0.03162277660168379,0.6829748835477352,-1.289164590013832
7188186,1919.0,1,178022.0,213234,0.25,-0.61,9.96,-0.03,-0.01,-0.01,31.25,5.2707,8.946579460451552,-722.7696336388947,9.98179342603322,0.033166247903554,0.6653169985942606,-0.9975670320031658
7228185,1920.0,1,178386.0,213939,0.24,-0.62,9.96,-0.03,-0.01,-0.0,31.25,5.310699,8.46201241914836,-485.790723694916,9.982164094022899,0.03162277660168379,0.6292282508123079,-0.6709631611429144
7268186,1910.0,1,178514.0,214154,0.24,-0.62,9.96,-0.03,-0.01,-0.0,31.25,5.3507,-3.1495471880084027,-281.76730833140374,9.982164094022899,0.03162277660168379,-0.23555744507573276,-0.38977848855072333
7308185,1909.0,1,178573.0,214483,0.24,-0.61,9.99,-0.03,-0.01,-0.0,31.25,5.390699,-4.928058212720952,-126.3797181486476,10.01148340656868,0.03162277660168379,-0.3680143196201851,-0.17562361523591322
7348185,1914.0,1,178712.0,214822,0.24,-0.62,9.98,-0.03,-0.01,-0.0,31.25,5.430699,-2.294875813374549,-11.18820415322532,10.002119775327628,0.03162277660168379,-0.17190470552360765,-0.016866895618747713
7388185,1909.0,1,178871.0,215141,0.25,-0.6,9.96,-0.03,-0.01,-0.01,31.25,5.470699,-9.273314358002061,80.90732731349327,9.981187304123694,0.033166247903554,-0.6916328072773167,0.11005898598427312
7428185,1909.0,1,178961.0,215315,0.23,-0.62,9.98,-0.03,-0.01,-0.0,31.25,5.510699,-9.601046518213337,173.95390402505822,10.001884822372231,0.03162277660168379,-0.7160410774685592,0.23829559628633087
7468185,1904.0,1,179013.0,215562,0.25,-0.62,9.95,-0.03,-0.01,-0.0,31.25,5.550699,-20.28906693619083,298.1897059538865,9.972432000269542,0.03162277660168379,-1.5120450155725709,0.40951713586964167
7508185,1890.0,1,179122.0,215972,0.26,-0.62,9.93,-0.03,-0.01,-0.0,31.25,5.590699,-31.394977055480183,471.65009329263546,9.95273329292009,0.03162277660168379,-2.339171821609903,0.6485799029283076
7548185,1904.0,1,179329.0,216254,0.23,-0.62,9.97,-0.03,-0.01,-0.01,31.25,5.630699,-25.66417955962406,667.8069124439054,9.991906724944943,0.033166247903554,-1.9123633765675325,0.9189228479844058
7588186,1899.0,1,179309.0,216467,0.25,-0.61,9.98,-0.03,-0.01,-0.0,31.25,5.6707,-27.65370476425708,800.9458576385913,10.001749846901792,0.03162277660168379,-2.060535801012129,1.102414682228705
7628185,1906.0,1,179430.0,216851,0.26,-0.59,9.96,-0.03,-0.01,-0.01,31.25,5.710699,-27.123050257497272,760.4174856323523,9.980846657473505,0.033166247903554,-2.0210146305208228,1.0465585590824258
7668186,1907.0,1,179406.0,215921,0.24,-0.63,9.97,-0.03,-0.01,-0.01,31.25,5.7507,-26.822448960193583,485.68270745481175,9.992767384463626,0.033166247903554,-1.9986269659117213,0.6679196243606434
7708185,1905.0,1,178565.0,213211,0.26,-0.63,9.96,-0.03,-0.01,-0.0,31.25,5.790699,-31.207057814048465,27.386611842992778,9.983291040533679,0.03162277660168379,-2.3251762966786855,0.036296840449854664
7748186,1917.0,1,177907.0,212260,0.24,-0.6,9.96,-0.03,-0.01,-0.0,31.25,5.8307,-23.326619987212414,-463.298445797667,9.980941839325586,0.03162277660168379,-1.738270649156323,-0.6399643476727934
7788185,1920.0,1,177777.0,212143,0.27,-0.61,9.95,-0.03,-0.01,-0.01,31.25,5.870699,-20.73388926312952,-818.1365498676752,9.972336737194547,0.033166247903554,-1.5451737251139763,-1.1290015296961806
7828194,1929.0,1,177730.0,212092,0.24,-0.61,9.98,-0.03,-0.01,-0.0,31.25,5.910708,-15.955510554214793,-944.7885444953871,10.001504886765792,0.03162277660168379,-1.1892978826941087,-1.3035530613382202
7868185,1943.0,1,177731.0,212175,0.26,-0.59,9.98,-0.03,-0.01,-0.0,31.25,5.950699,-3.155416726949819,-861.2554222981281,10.000804967601358,0.03162277660168379,-0.23599458646670196,-1.1884278754678126
7908186,1945.0,1,177834.0,212871,0.23,-0.62,9.94,-0.03,-0.01,-0.0,31.25,5.9907,-3.7057823205796896,-658.8802411756064,9.961972696208315,0.03162277660168379,-0.2769837652663089,-0.9095147960875203
7948185,1946.0,1,178155.0,213577,0.25,-0.61,9.95,-0.03,-0.01,-0.01,31.25,6.030699,-4.708861732368923,-434.60181526732833,9.971815281080971,0.033166247903554,-0.35168938247043263,-0.6004147075209727
7988186,1955.0,1,178304.0,213847,0.25,-0.64,9.96,-0.03,-0.01,-0.01,31.25,6.0707,2.5310217313082495,-242.095420631762,9.983671669280797,0.033166247903554,0.18751016273325025,-0.3351027704030654
8028185,1966.0,1,178455.0,214211,0.25,-0.61,9.96,-0.03,-0.01,-0.0,31.25,6.110699,12.25939985490027,-85.14434040381087,9.98179342603322,0.03162277660168379,0.9120435182944794,-0.11879309816149483
8068871,1976.5,1,178529.0,214619,0.26,-0.61,9.96,-0.03,-0.01,-0.0,31.19,6.151385,20.76928832610718,56.032205927795744,9.982048887878681,0.03162277660168379,1.5458283045316732,0.07577614227211324
8107185,1976.5,1,178705.0,215130,0.26,-0.63,9.97,-0.03,-0.01,-0.0,31.19,6.189699,20.774724576490357,194.44739979602755,9.993267733829612,0.03162277660168379,1.54623317620522,0.2665396921336746
8147185,1976.5,1,178883.0,215599,0.25,-0.62,9.94,-0.03,-0.01,-0.0,31.19,6.229699,18.935820836319678,328.0296240994533,9.962454516834693,0.03162277660168379,1.4092784772314086,0.4506424527799063
8187185,1976.5,1,179056.0,216135,0.24,-0.62,9.96,-0.03,-0.01,-0.0,31.19,6.269699,19.52208585092619,454.8689747291948,9.982164094022899,0.03162277660168379,1.4529413111472607,0.6254521980980331
8227186,1976.5,1,179199.0,216401,0.26,-0.62,9.96,-0.03,-0.01,-0.01,31.19,6.3097,18.826207005911247,586.8056270001772,9.982664974845145,0.033166247903554,1.4011148475541098,0.8072870345829865
8267185,1976.5,1,179206.0,216403,0.26,-0.63,9.98,-0.03,-0.01,-0.01,31.19,6.349699,19.289205728922923,734.8280030661672,10.00324447366953,0.033166247903554,1.4355972673513733,1.0112911841864796
8307186,1976.5,1,179272.0,216685,0.25,-0.62,9.95,-0.03,-0.01,-0.0,31.19,6.3897,20.178243463857008,871.929368543773,9.972432000269542,0.03162277660168379,1.5018094853726143,1.2002440183260132
8347185,1976.5,1,179384.0,217087,0.26,-0.61,9.99,-0.03,-0.01,-0.0,31.19,6.429699,20.569874426101126,915.6642682540524,10.011982820600522,0.03162277660168379,1.530976700257929,1.2605193716915886
8387186,1976.5,1,179450.0,217307,0.24,-0.62,9.98,-0.03,-0.01,-0.0,31.19,6.4697,22.589896495461378,768.6689127883998,10.002119775327628,0.03162277660168379,1.6814204175587657,1.0579306598736886
8427185,1976.5,1,179281.0,215228,0.23,-0.61,9.94,-0.03,-0.01,-0.01,31.19,6.509699,23.731109886807797,400.5116370614737,9.961355329471989,0.033166247903554,1.7664137388852124,0.5505370214853451
8467187,1976.5,1,178219.0,212985,0.26,-0.63,9.96,-0.03,-0.01,-0.01,31.19,6.549701,25.761154360846238,-100.29421322249352,9.983291040533679,0.033166247903554,1.9176038875438794,-0.13967262329219932
8507185,1976.5,1,177817.0,212578,0.25,-0.63,9.95,-0.03,-0.01,-0.01,31.19,6.589699,28.745605644826064,-562.1145953071955,9.973058708340185,0.033166247903554,2.1398746993708895,-0.7761525719369137
8547186,1976.5,1,177804.0,212639,0.23,-0.62,9.97,-0.03,-0.01,-0.01,31.19,6.6297,29.840289367591648,-832.4954242567886,9.991906724944943,0.033166247903554,2.221402664346901,-1.1487909023360885
8587185,1976.5,1,177835.0,212812,0.24,-0.61,9.94,-0.03,-0.01,-0.0,31.19,6.669699,34.846642993151825,-863.2016757695359,9.96159123835143,0.03162277660168379,2.594257229143971,-1.1911101982010348
8627185,1975.0,1,177880.0,213182,0.25,-0.62,9.99,-0.03,-0.01,-0.0,31.19,6.709699,34.06278212923137,-715.8783073908223,10.01234238327875,0.03162277660168379,2.5358781925960256,-0.98806941962697
8667186,1961.0,1,178102.0,213800,0.23,-0.62,9.98,-0.03,-0.01,-0.0,31.19,6.7497,25.37192319731806,-500.88986760320876,10.001884822372231,0.03162277660168379,1.8886154007254883,-0.6917727717883941
8707185,1955.0,1,178324.0,214038,0.25,-0.62,9.93,-0.03,-0.01,-0.0,31.19,6.789699,21.848638847611685,-308.5793788785384,9.952477078597067,0.03162277660168379,1.626214309807923,-0.42673083181427557
8747185,1941.0,1,178329.0,214326,0.25,-0.64,9.98,-0.03,-0.01,-0.0,31.19,6.829699,11.063660921550696,-177.66399347191583,10.003624343206816,0.03162277660168379,0.8229893377570264,-0.2463035033272284
8787185,1922.0,1,178520.0,214801,0.24,-0.61,9.98,-0.03,-0.01,-0.01,31.19,6.869699,-2.3275226450996986,-101.95705836893964,10.001504886765792,0.033166247903554,-0.17433611991126427,-0.1419643532254616
8827185,1913.0,1,178626.0,215085,0.24,-0.6,9.97,-0.03,-0.01,-0.0,31.19,6.909699,-10.53239477391232,-49.76042494319995,9.990920878477619,0.03162277660168379,-0.7854044254310792,-0.07002705497917384
8867185,1887.0,1,178693.0,215257,0.26,-0.64,9.97,-0.03,-0.01,-0.0,31.19,6.949699,-29.19937403319947,22.673099942399407,9.993903141415771,0.03162277660168379,-2.1756514891347862,0.02980068755403968
8907185,1873.0,1,178858.0,215842,0.25,-0.61,9.97,-0.03,-0.01,-0.01,31.19,6.989699,-42.67095958530002,158.61121173634533,9.991771614683755,0.033166247903554,-3.1789649871086563,0.21715032773861098
8947186,1868.5,1,179016.0,216397,0.25,-0.63,9.98,-0.03,-0.01,-0.01,31.19,7.0297,-40.87510243902046,375.37220226129045,10.002989553128605,0.033166247903554,-3.045216238060021,0.5158899015415503
8987185,1868.5,1,179233.0,216892,0.23,-0.62,9.98,-0.03,-0.01,-0.0,31.19,7.069699,-38.578738923764405,631.0112363367265,10.001884822372231,0.03162277660168379,-2.874191639492863,0.8682111190361815
9027195,1868.5,1,179311.0,217293,0.25,-0.64,9.96,-0.03,-0.01,-0.0,31.19,7.109709,-34.714260564229726,815.1304764330914,9.983671669280797,0.03162277660168379,-2.5863796899822504,1.1219638961484417
9067185,1868.5,1,179493.0,217797,0.24,-0.62,9.97,-0.03,-0.01,-0.0,31.19,7.149699,-30.599101455292445,795.0052591896693,9.99214191252306,0.03162277660168379,-2.2798979722706245,1.0942273610485083
9107871,1868.5,1,179637.0,216479,0.22,-0.63,9.94,-0.03,-0.01,-0.01,31.13,7.190385,-28.523005754357207,504.759898459286,9.962374215015213,0.033166247903554,-2.125278099815518,0.6942117717448751
9148185,1868.5,1,178487.0,213565,0.24,-0.63,9.96,-0.03,-0.01,-0.0,31.13,7.230699,-24.18434088486279,12.15725015092635,9.982790191123923,0.03162277660168379,-1.8021505058204632,0.015307763909096
9188186,1868.5,1,177920.0,212940,0.26,-0.61,9.97,-0.03,-0.01,-0.01,31.13,7.2707,-22.04617353968903,-502.59103421843463,9.992026821421168,0.033166247903554,-1.6429077685759752,-0.6941173162950861
9228185,1868.5,1,177884.0,212939,0.24,-0.61,9.97,-0.03,-0.01,-0.01,31.13,7.310699,-19.751327914117,-850.0169525871141,9.991526409913552,0.033166247903554,-1.4719962167769591,-1.1729390384610485
9268204,1868.5,1,177865.0,212980,0.24,-0.63,9.95,-0.03,-0.01,-0.0,31.13,7.350718,-15.525478561101265,-936.3347313927513,9.97281304346973,0.03162277660168379,-1.1572707021085142,-1.2919020326306334
9308185,1871.0,1,177932.0,213252,0.27,-0.61,9.97,-0.03,-0.01,-0.01,31.13,7.390699,-14.442573063877498,-794.3454873607418,9.99229202935943,0.033166247903554,-1.0766199354862216,-1.0962127338135448
9348186,1868.5,1,178129.0,214007,0.25,-0.62,9.98,-0.03,-0.01,-0.0,31.13,7.4307,-10.064749701252765,-536.4097255380506,10.00236472040487,0.03162277660168379,-0.7505759628239332,-0.7407261706232017
9388186,1878.0,1,178407.0,214494,0.24,-0.61,9.96,-0.03,-0.01,-0.0,31.13,7.4707,-4.887336925306357,-282.3098523831385,9.981547976140776,0.03162277660168379,-0.36498154985749254,-0.3905262217032248
9428186,1875.0,1,178522.0,214752,0.25,-0.62,9.96,-0.03,-0.01,-0.01,31.13,7.5107,-0.8665200336893567,-110.29692600168272,9.98240952876609,0.033166247903554,-0.06552608898105143,-0.15345834250898022
9469185,1882.0,1,178544.0,215042,0.25,-0.64,9.97,-0.03,-0.01,-0.0,31.13,7.551699,2.816505935261079,-40.86660710611471,9.993647982593744,0.03162277660168379,0.20877196255454433,-0.05776961260590667
9507185,1877.0,1,178715.0,215342,0.25,-0.62,9.97,-0.03,-0.01,-0.01,31.13,7.589699,0.3679595112704355,-37.6139105833161,9.992387102189346,0.033166247903554,0.026413347965008504,-0.05328675261076684
9547185,1877.0,1,178725.0,215648,0.26,-0.62,9.96,-0.03,-0.01,-0.01,31.13,7.629699,2.319902163228168,-16.4655189439689,9.982664974845145,0.033166247903554,0.17178676391564549,-0.024140080556649415
9587186,1883.0,1,178880.0,216002,0.25,-0.63,9.98,-0.03,-0.01,-0.0,31.13,7.6697,3.7353816875810906,124.96739246688007,10.002989553128605,0.03162277660168379,0.2772064049368526,0.17078248172848434
9627185,1869.0,1,179028.0,216545,0.26,-0.62,9.95,-0.03,-0.01,-0.01,31.13,7.709699,-2.7204387971399235,446.7786605899691,9.972687701918675,0.033166247903554,-0.2035990509440886,0.6143021429518972
9667207,1879.0,1,179369.0,217994,0.25,-0.63,9.94,-0.03,-0.01,-0.0,31.13,7.749721,-1.9663539358037514,898.3128794990247,9.963081852519329,0.03162277660168379,-0.1474376201258457,1.2366057215970179
9707185,1885.0,1,179927.0,219169,0.24,-0.62,10.0,-0.03,-0.01,-0.01,31.13,7.789699,12.536631829745703,1301.0795906550961,10.022075633320675,0.033166247903554,0.9326907228389367,1.7916980163008913
9747185,1909.0,1,180128.0,219680,0.25,-0.61,9.95,-0.03,-0.01,-0.01,31.13,7.829699,28.603621298767937,1427.3049592037955,9.971815281080971,0.033166247903554,2.129300234297704,1.9656615727140452
9787185,1901.0,1,180024.0,219220,0.25,-0.61,9.99,-0.03,-0.01,-0.0,31.13,7.869699,24.40411621354232,1143.5398660081075,10.011728122557065,0.03162277660168379,1.8165367425378354,1.5745770754706376
9827185,1893.0,1,179202.0,215274,0.26,-0.62,9.98,-0.03,-0.01,-0.0,31.13,7.909699,14.071793223670118,516.1563695672049,10.002619656869895,0.03162277660168379,1.0470238235816762,0.7099183659682736
9867185,1895.0,1,178021.0,213605,0.24,-0.63,9.95,-0.03,-0.01,-0.0,31.13,7.949699,13.45702123072691,-213.71196689178132,9.97281304346973,0.03162277660168379,1.0012378961338086,-0.29598474989207557
9907186,1891.0,1,177763.0,213365,0.27,-0.62,9.97,-0.03,-0.01,-0.0,31.13,7.9897,11.968817720783584,-775.9102059205727,9.992907484811415,0.03162277660168379,0.8904020436290221,-1.0708052649371762
9947185,1901.0,1,177701.0,213216,0.26,-0.63,9.98,-0.03,-0.01,-0.01,31.13,8.029699,15.928816355012318,-1025.444782309664,10.00324447366953,0.033166247903554,1.1853279872986797,-1.4147133307706148
9987186,1899.0,1,177696.0,213276,0.25,-0.61,9.97,-0.03,-0.01,-0.01,31.13,8.0697,17.435988725828132,-992.28094209254,9.991771614683755,0.033166247903554,1.2975765698849366,-1.3690069909530163
10027191,1901.0,1,177736.0,213624,0.25,-0.6,9.96,-0.03,-0.01,-0.0,31.13,8.109705,13.813708652427918,-811.8007337791561,9.981187304123694,0.03162277660168379,1.0278026463160408,-1.1202695203369588
10067186,1898.0,1,177937.0,214076,0.24,-0.62,9.96,-0.03,-0.01,-0.0,31.13,8.1497,12.630542622539895,-614.5310023419624,9.982164094022899,0.03162277660168379,0.9396848487828683,-0.8483927617419406
10107871,1888.0,1,178028.0,214257,0.25,-0.62,9.98,-0.03,-0.01,-0.0,31.07,8.190385,-1.0654475449305327,-461.4729715710774,10.00236472040487,0.03162277660168379,-0.08034146883182931,-0.6374484826588952
10148186,1879.0,1,178130.0,214568,0.25,-0.63,9.97,-0.03,-0.01,-0.01,31.07,8.2307,-10.198762251827597,-349.5471905729499,9.993012558783263,0.033166247903554,-0.7605567182717335,-0.4831925898805597
10188185,1890.0,1,178274.0,214986,0.24,-0.63,9.98,-0.03,-0.01,-0.01,31.07,8.270699,-1.2707445292777948,-251.30673143944423,10.002744623352132,0.033166247903554,-0.09563122330745014,-0.34779778096833924
10228186,1893.0,1,178377.0,215345,0.22,-0.62,10.000000000000004,-0.03,-0.01,-0.0,31.07,8.3107,0.38506227449858255,-141.72987739219656,10.021616636052293,0.03162277660168379,0.027687098046844678,-0.19677917472620504
10268185,1893.0,1,178603.0,215910,0.25,-0.62,9.96,-0.03,-0.01,-0.0,31.07,8.350699,-0.9021274213871004,2.26945759537682,9.98240952876609,0.03162277660168379,-0.06817799454677488,0.001680427520093812
10308185,1900.0,1,178750.0,216372,0.25,-0.62,9.96,-0.03,-0.01,-0.01,31.07,8.390699,4.71965488302253,206.03249114852193,9.98240952876609,0.033166247903554,0.3505114052177059,0.2825062424097678
10348185,1904.0,1,178910.0,216976,0.26,-0.62,9.96,-0.03,-0.01,-0.0,31.07,8.430699,6.855235914905429,476.7083543728389,9.982664974845145,0.03162277660168379,0.5095615234846671,0.6555511884701591
10388185,1904.0,1,179103.0,217511,0.25,-0.63,9.98,-0.03,-0.01,-0.01,31.07,8.470699,6.95882725927796,764.42050395979,10.002989553128605,0.033166247903554,0.517276620841267,1.0520755111233258
10428185,1904.0,1,179291.0,218132,0.26,-0.62,9.95,-0.03,-0.01,-0.01,31.07,8.510699,3.3498771801772733,950.1658434686352,9.972687701918675,0.033166247903554,0.2484954655814099,1.3080693752700616
10468186,1894.0,1,179518.0,218564,0.24,-0.61,9.97,-0.03,-0.01,-0.01,31.07,8.5507,-4.576111572282685,899.8589931261301,9.991526409913552,0.033166247903554,-0.3418026451626666,1.2387365723783037
10507185,1893.0,1,179405.0,216734,0.23,-0.63,9.98,-0.03,-0.01,-0.01,31.07,8.589699,-10.37047373446107,563.186105775168,10.002509685074042,0.033166247903554,-0.7733451497163459,0.774734656560075
10547186,1888.0,1,178187.0,213901,0.25,-0.62,9.96,-0.03,-0.01,-0.0,31.07,8.6297,-12.875828372642559,35.84148876188255,9.98240952876609,0.03162277660168379,-0.9599346284363908,0.04794933530692521
10587185,1894.0,1,177758.0,213333,0.25,-0.64,9.96,-0.03,-0.01,-0.01,31.07,8.669699,-10.57571258450594,-481.141838230993,9.983671669280797,0.033166247903554,-0.7886305745657279,-0.6645560762759019
10627186,1898.0,1,177693.0,213311,0.25,-0.61,9.96,-0.03,-0.01,-0.0,31.07,8.7097,-6.121384082060992,-801.0692781779728,9.98179342603322,0.03162277660168379,-0.45688878414107287,-1.105479449186155
10667185,1901.0,1,177743.0,213389,0.24,-0.62,9.97,-0.03,-0.01,-0.0,31.07,8.749699,-3.6715203894098267,-854.2966435577376,9.99214191252306,0.03162277660168379,-0.274432064289729,-1.17883730019844
10707186,1904.0,1,177694.0,213678,0.24,-0.62,9.96,-0.03,-0.01,-0.01,31.07,8.7897,-3.405183589723633,-701.0570121847621,9.982164094022899,0.033166247903554,-0.25459629179666454,-0.9676427395202633
10747185,1905.0,1,177997.0,214420,0.24,-0.62,9.97,-0.03,-0.01,-0.0,31.07,8.829699,0.13234489882250328,-465.4400945729308,9.99214191252306,0.03162277660168379,0.008865649509273809,-0.6429159638321792
10787186,1913.0,1,178146.0,214756,0.26,-0.62,9.95,-0.03,-0.01,-0.0,31.07,8.8697,3.433288432630989,-255.0862087412595,9.972687701918675,0.03162277660168379,0.2547076248811495,-0.35300664920430647
10827185,1904.0,1,178246.0,215082,0.27,-0.62,9.96,-0.03,-0.01,-0.0,31.07,8.909699,-2.026297585680856,-117.82091776184362,9.982930431491548,0.03162277660168379,-0.15190199982390884,-0.16382789325832792
10867185,1907.0,1,178410.0,215334,0.25,-0.63,9.95,-0.03,-0.01,-0.0,31.07,8.949699,-3.361677931532276,-42.12041353123342,9.973058708340185,0.03162277660168379,-0.2513561524728401,-0.059497606172296304
10907185,1908.0,1,178406.0,215618,0.25,-0.62,9.97,-0.03,-0.01,-0.0,31.07,8.989699,0.19673679922543835,20.17883131988956,9.992387102189346,0.03162277660168379,0.01366131833270939,0.026363091409853007
10947186,1907.0,1,178656.0,216166,0.24,-0.62,9.96,-0.03,-0.01,-0.0,31.07,9.0297,-3.6942483869167613,128.1014281195321,9.982164094022899,0.03162277660168379,-0.27612476086151955,0.1751018035441352
10987185,1904.0,1,178827.0,216587,0.25,-0.62,9.98,-0.03,-0.01,-0.01,31.07,9.069699,-5.14420487532502,324.47684133930545,10.00236472040487,0.033166247903554,-0.384112117707423,0.4457460145185261
11027194,1912.0,1,179010.0,217217,0.23,-0.62,9.97,-0.03,-0.01,-0.0,31.07,9.109708,0.44037596260620837,603.244575628993,9.991906724944943,0.03162277660168379,0.03180665544314866,0.8299431614776256
11067185,1908.0,1,179136.0,217748,0.25,-0.63,9.95,-0.03,-0.01,-0.01,31.07,9.149699,-1.4928073544522837,883.5104350123632,9.973058708340185,0.033166247903554,-0.11216963513982994,1.2162050215149705
11107201,1904.0,1,179386.0,218331,0.26,-0.64,9.96,-0.03,-0.01,-0.0,31.07,9.189715,-9.07849851470369,1023.2510309836614,9.983927083067064,0.03162277660168379,-0.6771236491352047,1.408795237966441
11147871,1906.0,1,179532.0,218447,0.27,-0.63,9.97,-0.03,-0.01,-0.0,31.07,9.230385,-3.282152230926154,892.7784465396535,9.993532908836595,0.03162277660168379,-0.2454333745974838,1.2289781769012704
11188185,1919.0,1,179236.0,215888,0.23,-0.62,9.96,-0.03,-0.01,-0.0,31.07,9.270699,4.490392897452141,473.13684094930494,9.98192867135405,0.03162277660168379,0.3334368267424799,0.6506289356450816
11228185,1910.0,1,178085.0,213746,0.25,-0.62,9.96,-0.03,-0.01,-0.01,31.07,9.310699,0.5469652674913497,-101.40286887517355,9.98240952876609,0.033166247903554,0.03974502972858973,-0.14120057034749633
11268187,1919.0,1,177642.0,213397,0.24,-0.62,9.96,-0.03,-0.01,-0.01,31.07,9.350701,3.895806850795905,-608.799788551946,9.982164094022899,0.033166247903554,0.289154273363,-0.8404940140897148
11308200,1918.0,1,177668.0,213544,0.24,-0.62,9.97,-0.03,-0.01,-0.01,31.07,9.390714,7.553216286015924,-871.6268773941891,9.99214191252306,0.033166247903554,0.5615445009113129,-1.202721794625545
11348186,1915.0,1,177787.0,213686,0.24,-0.63,9.98,-0.03,-0.01,-0.0,31.07,9.4307,0.12571963977061748,-853.3176094477396,10.002744623352132,0.03162277660168379,0.008372224900223678,-1.177487997300114
11388185,1913.0,1,177775.0,214131,0.25,-0.61,9.95,-0.03,-0.01,-0.01,31.07,9.470699,0.9713668296244208,-651.5173630566948,9.971815281080971,0.033166247903554,0.07135287679325188,-0.8993672918438841
11428186,1919.0,1,178064.0,214840,0.24,-0.62,9.98,-0.03,-0.01,-0.0,31.07,9.5107,4.853597463116454,-411.877739316506,10.002119775327628,0.03162277660168379,0.36048694952479204,-0.5690964304261232
11468185,1918.0,1,178310.0,214927,0.25,-0.62,9.96,-0.03,-0.01,-0.01,31.07,9.550699,4.038999282241747,-237.2880377777314,9.98240952876609,0.033166247903554,0.29981871213464184,-0.3284772447425551
11508186,1919.0,1,178266.0,215189,0.24,-0.62,9.97,-0.03,-0.01,-0.0,31.07,9.5907,5.793553985734178,-148.9708212334376,9.99214191252306,0.03162277660168379,0.4304914091337722,-0.20675862938649564
11547185,1915.0,1,178326.0,215482,0.24,-0.63,9.95,-0.03,-0.01,-0.01,31.07,9.629699,-0.7724206285864819,-104.59278628520134,9.97281304346973,0.033166247903554,-0.0585179158951221,-0.14559690829202426
11587186,1905.0,1,178496.0,215921,0.26,-0.63,9.98,-0.03,-0.01,-0.0,31.07,9.6697,-7.877127713397923,-41.53403311933617,10.00324447366953,0.03162277660168379,-0.5876500280562207,-0.05868945783383217
11627185,1913.0,1,178658.0,216476,0.25,-0.61,9.97,-0.03,-0.01,-0.01,31.07,9.709699,-3.401336467735289,88.31130907382197,9.991771614683755,0.033166247903554,-0.25430977248501185,0.120263139186234
11667186,1913.0,1,178867.0,217030,0.27,-0.61,9.95,-0.03,-0.01,-0.0,31.07,9.7497,-1.1878190338296222,301.21712561437664,9.972336737194547,0.03162277660168379,-0.08945524137959537,0.4136895197331182
11707185,1913.0,1,179085.0,217562,0.25,-0.6,9.97,-0.03,-0.01,-0.0,31.07,9.789699,-2.230280854031561,570.1407162760256,9.991166098108868,0.03162277660168379,-0.16709391362689674,0.7843194871698639
11747185,1915.0,1,179169.0,217848,0.25,-0.6,9.95,-0.03,-0.01,-0.0,31.07,9.829699,-2.0797183869835405,814.916877227212,9.97120855262791,0.03162277660168379,-0.15588058206371108,1.121669514140062
11787185,1910.0,1,179322.0,218172,0.25,-0.63,9.96,-0.03,-0.01,-0.01,31.07,9.869699,-3.0400618839856217,914.1097173165327,9.983035610474403,0.033166247903554,-0.22740338756475914,1.2583768926255678
11827186,1917.0,1,179380.0,218297,0.25,-0.61,9.96,-0.03,-0.01,-0.0,31.07,9.9097,-3.192524574988888,760.1168592411842,9.98179342603322,0.03162277660168379,-0.23875824072806368,1.0461442363772473
11867185,1909.0,1,179218.0,216559,0.24,-0.64,9.97,-0.03,-0.01,-0.0,31.07,9.949699,-2.4642633074916964,338.7354633662238,9.993402823863352,0.03162277660168379,-0.1845200549625016,0.46539721954865165
11907186,1920.0,1,178056.0,213578,0.25,-0.62,9.98,-0.03,-0.01,-0.0,31.07,9.9897,-1.9000573648980692,-230.84257691424835,10.00236472040487,0.03162277660168379,-0.14250009854000079,-0.3195941231686164
11947185,1913.0,1,177510.0,212955,0.24,-0.65,9.95,-0.03,-0.01,-0.0,31.07,10.029699,1.1899242390408733,-746.3622593098546,9.97409645030566,0.03162277660168379,0.08763021832084487,-1.030082342626014
11987186,1926.0,1,177538.0,213188,0.25,-0.6,9.95,-0.03,-0.01,-0.01,31.07,10.0697,4.613575053662025,-1036.6494804046633,9.97120855262791,0.033166247903554,0.3426109747710786,-1.4301556238021438
12027191,1917.0,1,177581.0,213299,0.25,-0.61,9.95,-0.03,-0.01,-0.0,31.07,10.109705,2.7823920033189498,-1051.155115795126,9.971815281080971,0.03162277660168379,0.20623128400901383,-1.450147262167484
12067186,1921.0,1,177623.0,213570,0.26,-0.62,9.94,-0.03,-0.01,-0.0,31.07,10.1497,1.8230576698468086,-860.8707911057094,9.96271047456464,0.03162277660168379,0.13478363724762088,-1.1878977775096133
12107185,1921.0,1,177856.0,214494,0.25,-0.62,9.96,-0.03,-0.01,-0.0,31.07,10.189699,3.4656429391065044,-587.2246718897457,9.98240952876609,0.03162277660168379,0.25711726797339157,-0.8107592304425036
12147186,1920.0,1,178206.0,215237,0.25,-0.62,9.97,-0.03,-0.01,-0.01,31.07,10.2297,3.2288517199846565,-325.8539601396486,9.992387102189346,0.033166247903554,0.23948194023651695,-0.4505386259707357
12187871,1920.0,1,178273.0,215615,0.24,-0.61,9.99,-0.03,-0.01,-0.01,31.07,10.270385,-0.18641362803586597,-115.70148241914686,10.01148340656868,0.033166247903554,-0.0148742979048152,-0.16090689160832275
12228186,1910.0,1,178452.0,215942,0.24,-0.63,9.95,-0.03,-0.01,-0.0,31.07,10.3107,-5.427749151151553,45.42035188820239,9.97281304346973,0.03162277660168379,-0.40522943890987256,0.06115090575990838
12268185,1920.0,1,178558.0,216527,0.24,-0.63,9.97,-0.03,-0.01,-0.01,31.07,10.350699,-1.422792469516454,172.25514813698754,9.992767384463626,0.033166247903554,-0.1069551873791317,0.23595437423909602
12308186,1919.0,1,178778.0,217041,0.26,-0.66,9.98,-0.03,-0.01,-0.0,31.07,10.3907,3.7205910303958665,281.7957590321415,10.00517865907451,0.03162277660168379,0.27610485189838896,0.38692303023979824
12348185,1918.0,1,178861.0,217306,0.27,-0.63,9.97,-0.03,-0.01,-0.0,31.07,10.430699,-3.553015563744393,401.4944776889868,9.993532908836595,0.03162277660168379,-0.2656062664127574,0.5518915705186763
12388186,1907.0,1,179010.0,217535,0.24,-0.63,9.95,-0.03,-0.01,-0.0,31.07,10.4707,-8.800866003328085,567.7031228428043,9.97281304346973,0.03162277660168379,-0.6564466141223443,0.7809600006608669
12428185,1917.0,1,179066.0,217964,0.24,-0.63,9.96,-0.03,-0.01,-0.0,31.07,10.510699,-4.021825924443041,792.535394656297,9.982790191123923,0.03162277660168379,-0.300521515331294,1.090823398572309
12468186,1921.0,1,179195.0,218423,0.24,-0.62,9.96,-0.03,-0.01,-0.0,31.07,10.5507,4.257678346279294,1018.7775944163409,9.982164094022899,0.03162277660168379,0.3161051140451395,1.402629956426071
12508185,1926.0,1,179364.0,218797,0.25,-0.62,9.96,-0.03,-0.01,-0.0,31.07,10.590699,6.0909162321822,1116.6158144011793,9.98240952876609,0.03162277660168379,0.4526378413035633,1.537470400129179
12547186,1920.0,1,179477.0,218729,0.25,-0.63,9.97,-0.03,-0.01,-0.0,31.07,10.6297,1.9960826306482218,955.0948485429134,9.993012558783263,0.03162277660168379,0.147669891652277,1.3148625204369866
12587185,1923.0,1,179094.0,215495,0.24,-0.63,9.98,-0.03,-0.01,-0.0,31.07,10.669699,4.458347126972151,508.9846359764811,10.002744623352132,0.03162277660168379,0.33105017715686125,0.7000342967400768
12627185,1922.0,1,177823.0,213290,0.23,-0.61,9.96,-0.03,-0.01,-0.01,31.07,10.709699,3.059986739382602,-91.64422409477214,9.981312538939957,0.033166247903554,0.2269055056573876,-0.12775122516997509
12667185,1917.0,1,177403.0,212868,0.26,-0.64,9.98,-0.03,-0.01,-0.0,31.07,10.749699,-0.8027422514173702,-626.0504257843102,10.003879247571914,0.03162277660168379,-0.06077615738785859,-0.8642688086325203
12707186,1924.0,1,177388.0,212926,0.25,-0.63,9.96,-0.03,-0.01,-0.0,31.07,10.7897,5.247172555406033,-916.1889214931484,9.983035610474403,0.03162277660168379,0.3897989559722347,-1.2641371167721693
12747221,1920.0,1,177365.0,212865,0.24,-0.62,9.97,-0.03,-0.01,-0.01,31.07,10.829735,1.923364972629445,-921.4082139347984,9.99214191252306,0.033166247903554,0.1422541514226564,-1.271330335421869
12787186,1915.0,1,177423.0,213312,0.23,-0.62,9.97,-0.03,-0.01,-0.0,31.07,10.8697,-2.746813035033331,-730.5789073650606,9.991906724944943,0.03162277660168379,-0.20556330591429167,-1.0083297578009
12827185,1924.0,1,177696.0,213935,0.25,-0.64,9.94,-0.03,-0.01,-0.0,31.07,10.909699,5.516186665197888,-481.16793461693857,9.963719185123594,0.03162277660168379,0.4098341245465461,-0.6645920422640452
12867186,1921.0,1,177715.0,214246,0.26,-0.62,9.97,-0.03,-0.01,-0.01,31.07,10.9497,3.9027462851925914,-280.0489078223729,9.992642293207538,0.033166247903554,0.28967109658114104,-0.3874101923252475
12907185,1916.0,1,177793.0,214539,0.25,-0.62,9.96,-0.03,-0.01,-0.01,31.07,10.989699,-2.0615284488358414,-171.27106035375667,9.98240952876609,0.033166247903554,-0.1545258632445851,-0.23749277538930738
12947225,1920.0,1,177952.0,214640,0.23,-0.63,9.98,-0.03,-0.01,-0.01,31.07,11.029739,2.6829241621943587,-142.64687582658203,10.002509685074042,0.033166247903554,0.19882328981050898,-0.19804298017755886
12987185,1920.0,1,177925.0,214632,0.25,-0.62,9.96,-0.03,-0.01,-0.01,31.07,11.069699,3.1111591898405577,-142.38358383149344,9.98240952876609,0.033166247903554,0.2307166391034325,-0.1976801116641423
13027194,1915.0,1,178012.0,214696,0.26,-0.62,9.97,-0.03,-0.01,-0.0,31.07,11.109708,-2.9565049943493964,-96.76552938131634,9.992642293207538,0.03162277660168379,-0.2211803817502976,-0.13480939811387888
13067185,1915.0,1,177959.0,214977,0.28,-0.62,9.94,-0.03,-0.01,-0.0,31.07,11.149699,-0.6634798450397834,57.79989892857977,9.963252480992338,0.03162277660168379,-0.050404412240371566,0.07821237331345408
13107186,1925.0,1,178172.0,215652,0.24,-0.61,9.96,-0.03,-0.01,-0.01,31.07,11.1897,6.672350189142407,326.21756711551234,9.981547976140776,0.033166247903554,0.49594087604601605,0.44814507938362225
13147185,1920.0,1,178475.0,216293,0.24,-0.64,9.97,-0.03,-0.01,-0.0,31.07,11.229699,4.9675418101379085,622.149333832606,9.993402823863352,0.03162277660168379,0.3689730999443036,0.8559976623124751
13187186,1917.0,1,178695.0,216813,0.25,-0.62,9.97,-0.03,-0.01,-0.01,31.07,11.2697,-0.9849262983130185,795.1949310071212,9.992387102189346,0.033166247903554,-0.07434454639886164,1.0944887663768876
13227871,1915.0,1,178824.0,217001,0.24,-0.62,9.97,-0.03,-0.01,-0.0,31.07,11.310385,-0.2591249822840516,720.5187167880644,9.99214191252306,0.03162277660168379,-0.020289568653089465,0.9915701537843199
13268186,1914.0,1,178389.0,214143,0.26,-0.62,9.96,-0.03,-0.01,-0.01,31.07,11.3507,-2.962082225586094,390.9469030435875,9.982664974845145,0.033166247903554,-0.22159575315253227,0.5373549237420107
13308185,1905.0,1,177432.0,213056,0.25,-0.61,9.95,-0.03,-0.01,-0.0,31.07,11.390699,-11.04787652604481,-65.95287611046,9.971815281080971,0.03162277660168379,-0.8237955856900961,-0.09234345955371139
13348186,1909.0,1,177302.0,212954,0.26,-0.62,9.96,-0.03,-0.01,-0.01,31.07,11.4307,-6.879786891611024,-465.2755429089188,9.982664974845145,0.033166247903554,-0.5133717996539877,-0.6426891790502105
13388185,1915.0,1,177332.0,212784,0.25,-0.62,9.97,-0.03,-0.01,-0.0,31.07,11.470699,-1.5624476199836073,-674.5962640902158,9.992387102189346,0.03162277660168379,-0.1173561826430796,-0.9311745881747284
13428186,1911.0,1,177147.0,212750,0.27,-0.62,9.93,-0.03,-0.01,-0.0,31.07,11.5107,-4.643707035969935,-672.9848558132704,9.952999547875002,0.03162277660168379,-0.346836903443322,-0.9289537484345549
13468185,1914.0,1,177205.0,213134,0.25,-0.62,9.97,-0.03,-0.01,-0.0,31.07,11.550699,-2.1460057186414256,-530.9424718644407,9.992387102189346,0.03162277660168379,-0.16081741554480466,-0.7331912122878881
13508186,1913.0,1,177473.0,213605,0.23,-0.63,9.95,-0.03,-0.01,-0.0,31.07,11.5907,-3.392559318289274,-347.40906591494604,9.9725774000506,0.03162277660168379,-0.2536560830971619,-0.4802458306526989
13548185,1910.0,1,177570.0,213716,0.24,-0.62,9.96,-0.03,-0.01,-0.0,31.07,11.630699,-5.278966551650747,-195.08707771939115,9.982164094022899,0.03162277660168379,-0.394148665249973,-0.27031596400946767
13587186,1916.0,1,177591.0,213820,0.24,-0.62,9.99,-0.03,-0.01,-0.01,31.07,11.6697,-1.205741737694409,-98.43868294583382,10.012097682304143,0.033166247903554,-0.09079005758502157,-0.1371153350887946
13627185,1908.0,1,177686.0,214176,0.23,-0.64,9.95,-0.03,-0.01,-0.0,31.07,11.709699,-6.884709346387273,-38.622920321308904,9.973214125847294,0.03162277660168379,-0.5137384057450878,-0.05467736786105237
13667185,1910.0,1,177876.0,214506,0.28,-0.62,9.99,-0.03,-0.01,-0.0,31.07,11.749699,-7.551164168943285,30.19780628051599,10.013136371786814,0.03162277660168379,-0.5633734777768254,0.040171223133330325
13707185,1915.0,1,178017.0,214841,0.27,-0.62,9.93,-0.03,-0.01,-0.01,31.07,11.789699,0.1394185339687725,158.98113069930835,9.952999547875002,0.033166247903554,0.0093924674992236,0.2176601493309075
13747186,1917.0,1,178067.0,215382,0.26,-0.62,9.95,-0.03,-0.01,-0.01,31.07,11.8297,-0.9758886699057224,371.8943184645809,9.972687701918675,0.033166247903554,-0.07367145750849725,0.5110966888853017
13787185,1913.0,1,178266.0,215937,0.26,-0.62,9.95,-0.03,-0.01,-0.01,31.07,11.869699,-1.5413232495335363,630.4456286953601,9.972687701918675,0.033166247903554,-0.11578291823951042,0.8674315996894935
13827186,1917.0,1,178419.0,216488,0.24,-0.63,9.98,-0.03,-0.01,-0.0,31.07,11.9097,-1.7934825851277407,824.513386139735,10.002744623352132,0.03162277660168379,-0.1345628060309917,1.1348954039811279
13867185,1911.0,1,178695.0,216940,0.23,-0.62,9.94,-0.03,-0.01,-0.01,31.07,11.949699,-3.0917146417466834,821.6765062285273,9.961972696208315,0.033166247903554,-0.23125029250915652,1.1309856216279845
13907186,1919.0,1,178723.0,215524,0.24,-0.61,9.96,-0.03,-0.01,-0.01,31.07,11.9897,-0.38824791323206786,559.3109838551306,9.981547976140776,0.033166247903554,-0.0299061634493785,0.76939397109807
13947185,1914.0,1,177591.0,213115,0.25,-0.62,9.94,-0.03,-0.01,-0.0,31.07,12.029699,-0.19044278885231306,108.24676525509996,9.962454516834693,0.03162277660168379,-0.015174374790124253,0.1477381459609276
13987186,1920.0,1,177174.0,212666,0.27,-0.61,9.98,-0.03,-0.01,-0.0,31.07,12.0697,0.7006872419416038,-356.4309776045695,10.00226974241347,0.03162277660168379,0.0511936696310462,-0.49267981172336434
14027190,1919.0,1,177187.0,212612,0.24,-0.62,9.95,-0.03,-0.01,-0.01,31.07,12.109704,4.192875632672862,-662.0383176568502,9.97218631996013,0.033166247903554,0.3112788493849614,-0.9138672509261839
14067186,1929.0,1,177177.0,212483,0.23,-0.61,9.95,-0.03,-0.01,-0.0,31.07,12.1497,10.037674094311882,-736.2771017231423,9.97133391277215,0.03162277660168379,0.7465776616012394,-1.0161829981365211
14107185,1927.0,1,177086.0,212768,0.25,-0.63,9.95,-0.03,-0.01,-0.0,31.07,12.189699,11.707351855135702,-625.6846501843363,9.973058708340185,0.03162277660168379,0.8709290401544579,-0.8637646974150034
14147186,1921.0,1,177354.0,213328,0.25,-0.61,9.97,-0.03,-0.01,-0.01,31.07,12.2297,2.143258329451693,-439.1108159943872,9.991771614683755,0.033166247903554,0.15863098933541017,-0.6066290035168369
14187185,1919.0,1,177528.0,213670,0.26,-0.62,9.96,-0.03,-0.01,-0.0,31.07,12.269699,3.4141438654868383,-272.83170070475654,9.982664974845145,0.03162277660168379,0.25328180885123175,-0.3774634515710982
14227186,1931.0,1,177559.0,213947,0.26,-0.61,9.96,-0.03,-0.01,-0.0,31.07,12.3097,12.45058601381523,-166.9584595021524,9.982048887878681,0.03162277660168379,0.9262823510676007,-0.2315491573182219
14267871,1925.0,1,177653.0,214244,0.24,-0.62,9.97,-0.03,-0.01,-0.01,31.13,12.350385,8.600600496044045,-105.28891200115618,9.99214191252306,0.033166247903554,0.6395497744124754,-0.1465563073942058
14308186,1922.0,1,177758.0,214626,0.24,-0.63,9.95,-0.03,-0.01,-0.0,31.13,12.3907,4.541927560346125,-41.21131613975421,9.97281304346973,0.03162277660168379,0.33727493642118844,-0.05824468992284501
14348185,1920.0,1,177887.0,215163,0.25,-0.63,9.96,-0.03,-0.01,-0.01,31.13,12.430699,2.1602499979450394,72.84634546687529,9.983035610474403,0.033166247903554,0.15989646549532763,0.09894935654652262
14388194,1918.0,1,178164.0,215573,0.26,-0.6,9.98,-0.03,-0.01,-0.0,31.13,12.470708,1.8662958118556332,261.67863583605873,10.001399902013718,0.03162277660168379,0.13800385296291212,0.3591976503401
14428185,1927.0,1,178243.0,216063,0.24,-0.62,9.98,-0.03,-0.01,-0.0,31.13,12.510699,8.068825522586375,507.1921036938381,10.002119775327628,0.03162277660168379,0.5999451557362733,0.6975638322489895
14468186,1924.0,1,178409.0,216364,0.25,-0.64,9.97,-0.03,-0.01,-0.01,31.13,12.5507,8.355273267924483,736.3842799207716,9.993647982593744,0.033166247903554,0.6212787165298721,1.0134360419080557
14508185,1923.0,1,178487.0,216674,0.25,-0.61,9.96,-0.03,-0.01,-0.01,31.13,12.590699,3.988028682444329,837.0932947723107,9.98179342603322,0.033166247903554,0.29602261177371586,1.1522330094897313
14548186,1915.0,1,178700.0,216833,0.24,-0.62,9.96,-0.03,-0.01,-0.01,31.13,12.6307,-1.1002738415325177,715.0383004614719,9.982164094022899,0.033166247903554,-0.08293520164301758,0.9840170547063726
14589185,1917.0,1,178430.0,214742,0.23,-0.62,9.96,-0.03,-0.01,-0.0,31.13,12.671699,-1.57495804515728,365.8880453555235,9.98192867135405,0.03162277660168379,-0.11828791249726747,0.50281885501677
14627186,1918.0,1,177409.0,212594,0.26,-0.6,9.95,-0.03,-0.01,-0.0,31.13,12.7097,1.1966521365752698,-99.20284459846697,9.971464285650327,0.03162277660168379,0.08813128706165041,-0.13816850118603063
14667185,1911.0,1,177022.0,212551,0.27,-0.64,9.95,-0.03,-0.01,-0.01,31.13,12.749699,-7.235141305420187,-511.65943338966923,9.974216761229926,0.033166247903554,-0.5398372723751057,-0.7066153663221171
14707186,1909.0,1,177108.0,212648,0.23,-0.62,9.95,-0.03,-0.01,-0.01,31.13,12.7897,-8.6142609878204,-747.9282981076711,9.971950661731134,0.033166247903554,-0.6425489678412581,-1.0322406542386597
14747185,1917.0,1,177069.0,212517,0.23,-0.585,9.98,-0.03,-0.01,-0.0,31.13,12.829699,-0.7338107464139255,-791.6429467869015,9.99977624749674,0.03162277660168379,-0.05564239572794576,-1.0924880976727938
14787202,1913.0,1,177044.0,212464,0.23,-0.62,10.0,-0.03,-0.01,-0.01,31.13,12.869716,-6.025905118010577,-711.7940176420399,10.021841148212237,0.033166247903554,-0.4497778666448465,-0.9824404594718975
14827185,1910.0,1,177093.0,212768,0.27,-0.65,9.98,-0.03,-0.01,-0.0,31.13,12.909699,-6.837393164147703,-592.2793169161533,10.004788853344182,0.03162277660168379,-0.5102144727878309,-0.8177255323460761
14867186,1919.0,1,177150.0,212930,0.25,-0.59,9.94,-0.03,-0.01,-0.01,31.13,12.9497,-1.7840637919770348,-478.7395460077621,9.9606325100367,0.033166247903554,-0.13386132941072454,-0.6612452418255697
14907185,1907.0,1,177227.0,213201,0.26,-0.61,9.97,-0.03,-0.01,-0.01,31.13,12.989699,-9.379153897413515,-372.17091866683177,9.992026821421168,0.033166247903554,-0.699515341823838,-0.5143725677549552
14947186,1908.0,1,177398.0,213807,0.23,-0.62,9.96,-0.03,-0.01,-0.01,31.13,13.0297,-13.78581247363752,-249.5228162352765,9.98192867135405,0.033166247903554,-1.0277068537575227,-0.3453391925179773
14987185,1911.0,1,177639.0,214309,0.22,-0.61,9.98,-0.03,-0.01,-0.01,31.13,13.069699,-6.380226432201332,-80.59864979542597,10.001044945404455,0.033166247903554,-0.4761663979556241,-0.11252823624284322
15027194,1919.0,1,177889.0,214762,0.24,-0.62,9.99,-0.03,-0.01,-0.01,31.13,13.109708,-2.4261227926176825,163.05069237827675,10.012097682304143,0.033166247903554,-0.1816794915228993,0.2232688112889266
15067185,1916.0,1,177959.0,215427,0.26,-0.61,9.96,-0.03,-0.01,-0.01,31.13,13.149699,-3.870323633122696,488.7854166303045,9.982048887878681,0.033166247903554,-0.2892381891580085,0.6721957720866546
15107187,1919.0,1,178316.0,216455,0.26,-0.61,9.96,-0.03,-0.01,-0.0,31.13,13.189701,-1.2280611516591629,848.3129122762717,9.982048887878681,0.03162277660168379,-0.09245232437693697,1.1676958644215534
15147185,1923.0,1,178629.0,216753,0.23,-0.63,9.97,-0.03,-0.01,-0.01,31.13,13.229699,0.16677561548931116,1119.480968996337,9.992532211606825,0.033166247903554,0.011429921000786242,1.5414191505965213
15187186,1915.0,1,178580.0,216713,0.25,-0.62,9.96,-0.03,-0.01,-0.0,31.13,13.2697,-4.4589520747019655,1146.280668799717,9.98240952876609,0.03162277660168379,-0.33307704230887003,1.5783544445251911
15227185,1917.0,1,178533.0,215918,0.25,-0.62,10.0,-0.03,-0.01,-0.01,31.13,13.309699,-7.906585382358262,836.0534374989198,10.022320090677606,0.033166247903554,-0.5898439254836951,1.150799880226406
15267186,1911.0,1,177801.0,213086,0.24,-0.63,9.93,-0.03,-0.01,-0.01,31.13,13.3497,-9.21554693004977,249.88337553367109,9.952858885767446,0.033166247903554,-0.6873305044798016,0.3429414456277281
15307871,1917.0,1,176829.0,211270,0.26,-0.62,9.96,-0.03,-0.01,-0.01,31.13,13.390385,-8.364764317497226,-395.14900070664856,9.982664974845145,0.033166247903554,-0.6239673854383059,-0.546040915545578
15346186,1922.0,1,176406.0,211014,0.27,-0.62,9.94,-0.03,-0.01,-0.01,31.13,13.4287,-0.5929590479123896,-833.8415329408455,9.962976462884974,0.033166247903554,-0.04515228602463011,-1.1506461066954785
15386185,1935.0,1,176580.0,211299,0.26,-0.62,9.96,-0.03,-0.01,-0.01,31.13,13.468699,10.38023168248043,-902.5817506711056,9.982664974845145,0.033166247903554,0.7720900744284948,-1.245383740520306
15426186,1938.0,1,176735.0,212075,0.24,-0.61,9.97,-0.03,-0.01,-0.0,31.13,13.5087,12.401069232840314,-626.1659171612644,9.991526409913552,0.03162277660168379,0.9225945257157733,-0.8644279786226816
15466185,1932.0,1,177128.0,213071,0.23,-0.61,9.97,-0.03,-0.01,-0.0,31.13,13.548699,8.076875203465008,-188.0845603025117,9.991291207846961,0.03162277660168379,0.6005446659757087,-0.2606651081815807
15506186,1937.0,1,177521.0,213873,0.26,-0.62,9.96,-0.03,-0.01,-0.01,31.13,13.5887,9.214242994677358,183.34993993861713,9.982664974845145,0.033166247903554,0.6852515813325388,0.2512451946317521
15546185,1937.0,1,177589.0,213732,0.26,-0.62,9.97,-0.03,-0.01,-0.0,31.13,13.628699,12.514786598449007,334.00464464557007,9.992642293207538,0.03162277660168379,0.9310637714053752,0.45887721442723
15586186,1934.0,1,177340.0,213351,0.23,-0.62,9.95,-0.03,-0.01,-0.0,31.13,13.6687,5.727513950597971,244.87376366708193,9.971950661731134,0.03162277660168379,0.425572993376208,0.33603720833706685
15626185,1921.0,1,177316.0,212819,0.23,-0.63,9.98,-0.03,-0.01,-0.0,31.13,13.708699,-5.50141000871386,20.223669706995498,10.002509685074042,0.03162277660168379,-0.4107154251272165,0.026424887587392143
15666186,1927.0,1,177050.0,212595,0.26,-0.63,9.96,-0.03,-0.01,-0.0,31.13,13.7487,-0.4654344615338227,-173.22958104139522,9.983291040533679,0.03162277660168379,-0.035654729976581936,-0.24019200477598085
15706185,1936.0,1,177064.0,212785,0.25,-0.62,9.96,-0.03,-0.01,-0.0,31.13,13.788699,7.101518365227965,-183.94367447807008,9.98240952876609,0.03162277660168379,0.5279037227578737,-0.2549581474255678
15746186,1927.0,1,177275.0,213413,0.25,-0.64,9.97,-0.03,-0.01,-0.0,31.13,13.8287,0.2879701663044321,52.8669722558409,9.993647982593744,0.03162277660168379,0.02045603958522645,0.07141382340718959
15786185,1931.0,1,177545.0,214404,0.25,-0.63,9.98,-0.03,-0.01,-0.0,31.13,13.868699,0.7204467377791505,470.14587514641585,10.002989553128605,0.03162277660168379,0.05266528325887769,0.6465067924169557
15826186,1934.0,1,177825.0,215403,0.26,-0.61,9.95,-0.03,-0.01,-0.0,31.13,13.9087,6.9804883873379,877.9785288294428,9.972070998543883,0.03162277660168379,0.5188898609517074,1.2085809592175927
15866185,1937.0,1,178324.0,216064,0.26,-0.62,9.96,-0.03,-0.01,-0.0,31.13,13.948699,6.92844714611616,1045.2903936034177,9.982664974845145,0.03162277660168379,0.515014023206614,1.4391698444856742
15906186,1938.0,1,178365.0,214856,0.24,-0.62,9.99,-0.03,-0.01,-0.0,31.13,13.9887,9.505178122371634,828.2810370068277,10.012097682304143,0.03162277660168379,0.7069193456444319,1.1400879730478577
15946185,1934.0,1,177277.0,211761,0.26,-0.63,9.97,-0.03,-0.01,-0.01,31.13,14.028699,5.598515437726783,266.8043321904022,9.993267733829612,0.033166247903554,0.4159656647747103,0.36626187504506885
15986186,1931.0,1,176420.0,210599,0.24,-0.64,9.93,-0.03,-0.01,-0.01,31.13,14.0687,0.20003811922452666,-427.25253828186686,9.95349687295877,0.033166247903554,0.013907188345812631,-0.5902859483328944
16026210,1931.0,1,176271.0,210070,0.23,-0.63,9.98,-0.03,-0.01,-0.01,31.13,14.108724,5.149580489751438,-986.9875490343144,10.002509685074042,0.033166247903554,0.38253066254176016,-1.361711646978272
16066186,1931.0,1,176144.0,209844,0.23,-0.61,9.97,-0.03,-0.01,-0.0,31.13,14.1487,-1.9124952147259282,-1228.208720596957,9.991291207846961,0.03162277660168379,-0.14342642325284183,-1.6941621945161442
16106185,1911.0,1,176042.0,210264,0.26,-0.63,9.98,-0.03,-0.01,-0.0,31.13,14.188699,-12.918617470681271,-1121.1522538297875,10.00324447366953,0.03162277660168379,-0.9631214010298865,-1.5466171811010472
16146186,1920.0,1,176369.0,211336,0.26,-0.65,9.96,-0.03,-0.01,-0.01,31.13,14.2287,-13.074992604383986,-775.1617191038815,9.98457310053865,0.033166247903554,-0.9747676383480276,-1.0697737018682223
16186185,1914.0,1,176913.0,212271,0.26,-0.6,9.95,-0.03,-0.01,-0.01,31.13,14.268699,-10.113291631931931,-369.84734129120164,9.971464285650327,0.033166247903554,-0.75419118495794,-0.5111702179538548
16226228,1935.0,1,177101.0,212906,0.25,-0.63,9.95,-0.03,-0.01,-0.01,31.13,14.308742,4.35910073884242,-73.11699419984059,9.973058708340185,0.033166247903554,0.32365867595229914,-0.10221703311283013
16266185,1936.0,1,177321.0,212904,0.24,-0.61,9.99,-0.03,-0.01,-0.01,31.13,14.348699,10.122228280541485,27.614472028476712,10.01148340656868,0.033166247903554,0.752874942350136,0.03661087691247313
16306187,1927.0,1,177231.0,212812,0.24,-0.62,9.97,-0.03,-0.01,-0.01,31.13,14.388701,-0.31539230826496933,-38.4910228031054,9.99214191252306,0.033166247903554,-0.02448014944502513,-0.05449558695906279
16346871,1921.0,1,177335.0,212839,0.25,-0.63,9.95,-0.03,-0.01,-0.0,31.15,14.429385,-5.959898721959469,-140.40718614577565,9.973058708340185,0.03162277660168379,-0.4448619562010042,-0.19495624423363017
16387186,1912.0,1,177210.0,212993,0.25,-0.6,9.96,-0.03,-0.01,-0.0,31.15,14.4697,-13.148312440004174,-117.19267714227321,9.981187304123694,0.03162277660168379,-0.9802282265217404,-0.16296205326340243
16427185,1914.0,1,177390.0,213631,0.24,-0.61,9.96,-0.03,-0.01,-0.01,31.15,14.509699,-12.250040660772648,116.78635570562417,9.981547976140776,0.033166247903554,-0.9133282912864652,0.1595073928418495
16467186,1920.0,1,177721.0,214674,0.25,-0.6,9.96,-0.03,-0.01,-0.01,31.15,14.5497,-4.106134653180647,493.8559423625111,9.981187304123694,0.033166247903554,-0.3068005153207398,0.6791839607479438
16507185,1921.0,1,178179.0,216286,0.27,-0.61,9.98,-0.03,-0.01,-0.01,31.15,14.589699,-3.7497143441179217,808.7473775452592,10.00226974241347,0.033166247903554,-0.2802556586925687,1.1131667217275507
16547186,1920.0,1,178706.0,216443,0.24,-0.64,9.95,-0.03,-0.01,-0.01,31.15,14.6297,-2.8923307985523015,840.3536480933151,9.973449754222457,0.033166247903554,-0.21640092675475672,1.1567264220692044
16587185,1920.0,1,177909.0,213198,0.26,-0.63,9.98,-0.03,-0.01,-0.01,31.15,14.669699,-3.4765099957237533,504.3197274710267,10.00324447366953,0.033166247903554,-0.2599084167596186,0.6936051289485189
16627187,1920.0,1,177128.0,211928,0.26,-0.64,9.98,-0.03,-0.01,-0.0,31.15,14.709701,-1.2613331904644005,-78.19207998738027,10.003879247571914,0.03162277660168379,-0.09493030185845176,-0.1092115064334735
16667185,1923.0,1,176821.0,211720,0.24,-0.64,9.96,-0.03,-0.01,-0.0,31.15,14.749699,1.0022487300113183,-649.5734186165874,9.983426265566347,0.03162277660168379,0.07365284567081488,-0.8966881514130904
16707186,1918.0,1,176677.0,211322,0.23,-0.61,9.96,-0.03,-0.01,-0.01,31.15,14.7897,-2.043360850796912,-967.7643090570434,9.981312538939957,0.033166247903554,-0.15317280823352297,-1.3352182151849683
16747185,1921.0,1,176551.0,211344,0.25,-0.61,9.97,-0.03,-0.01,-0.01,31.15,14.829699,1.2450858381991199,-932.8896267277041,9.991771614683755,0.033166247903554,0.09173844869886918,-1.2871539961096234
16787186,1917.0,1,176848.0,212216,0.24,-0.63,9.96,-0.03,-0.01,-0.0,31.15,14.8697,-2.1851118474799835,-617.5906646605284,9.982790191123923,0.03162277660168379,-0.16372989431469323,-0.8526095823738066
16827185,1914.0,1,177376.0,213375,0.26,-0.62,9.94,-0.03,-0.01,-0.01,31.15,14.909699,-3.6492855723084743,-203.03054408434787,9.96271047456464,0.033166247903554,-0.27277609795699925,-0.28126363383990266
16867186,1924.0,1,177643.0,213975,0.26,-0.64,9.96,-0.03,-0.01,-0.01,31.15,14.9497,6.58815647454714,128.9462848057219,9.983927083067064,0.033166247903554,0.489670441881359,0.17626618337902
16907185,1923.0,1,177758.0,214454,0.27,-0.62,9.97,-0.03,-0.01,-0.0,31.15,14.989699,6.1600548344971715,286.77065666716015,9.992907484811415,0.03162277660168379,0.45778702679961225,0.3937794244443065
16947186,1922.0,1,177779.0,214439,0.25,-0.63,9.96,-0.03,-0.01,-0.01,31.15,15.0297,7.520860632399735,300.42671506504445,9.983035610474403,0.033166247903554,0.5591347723843076,0.4126001774577161
16987185,1922.0,1,177804.0,214334,0.26,-0.63,9.97,-0.03,-0.01,-0.01,31.15,15.069699,5.43117631766764,283.81894093952707,9.993267733829612,0.033166247903554,0.4035028706035944,0.38971137559324237
17027194,1908.0,1,177880.0,214330,0.24,-0.61,9.97,-0.03,-0.01,-0.01,31.15,15.109708,-4.06808592582861,352.4938513736565,9.991526409913552,0.033166247903554,-0.3039667878737821,0.48435900303008905
17067185,1919.0,1,177842.0,214574,0.26,-0.61,9.96,-0.03,-0.01,-0.01,31.15,15.149699,3.8335405061539265,541.6318495100631,9.982048887878681,0.033166247903554,0.284516908013006,0.7450286226714001
17107186,1917.0,1,178065.0,215066,0.25,-0.6,9.97,-0.03,-0.01,-0.01,31.15,15.1897,5.7383781111493795,772.4275414764886,9.991166098108868,0.033166247903554,0.4263821155751673,1.0631107945909357
17147185,1915.0,1,178269.0,215702,0.24,-0.63,9.95,-0.03,-0.01,-0.0,31.15,15.229699,2.1513336135648253,895.3507436833277,9.97281304346973,0.03162277660168379,0.1592324064083557,1.2325233118009344
17187186,1919.0,1,178309.0,215740,0.23,-0.62,9.98,-0.03,-0.01,-0.01,31.15,15.2697,8.068517092845974,792.2854631283192,10.001884822372231,0.033166247903554,0.5999221850383905,1.0904789434285713
17227185,1916.0,1,177819.0,213125,0.23,-0.6,9.94,-0.03,-0.01,-0.01,31.15,15.309699,4.70948383661329,468.25119344528366,9.960747963883033,0.033166247903554,0.34975390357757286,0.6438955457968066
17267186,1911.0,1,177022.0,211789,0.26,-0.63,9.98,-0.03,-0.01,-0.01,31.15,15.3497,1.0429895083940601,57.38993536760931,10.00324447366953,0.033166247903554,0.07668706704819339,0.07764736233439161
17307185,1907.0,1,176792.0,211541,0.25,-0.62,9.96,-0.03,-0.01,-0.0,31.15,15.389699,-3.815323506069754,-268.25712875547396,9.98240952876609,0.03162277660168379,-0.28514198462075635,-0.3711587854448272
17347872,1906.0,1,176727.0,211447,0.25,-0.62,9.95,-0.03,-0.01,-0.01,30.97,15.430386,-3.1251328154131035,-414.5740473450548,9.972432000269542,0.033166247903554,-0.2337391535706465,-0.5728124768851258
17386185,1922.0,1,176686.0,211278,0.23,-0.62,9.98,-0.03,-0.01,-0.01,30.97,15.468699,11.623650834921984,-412.4339000529146,10.001884822372231,0.033166247903554,0.8646953000316027,-0.5698629300668485
17426186,1919.0,1,176631.0,210966,0.24,-0.62,9.96,-0.03,-0.01,-0.0,30.97,15.5087,9.709099636812734,-366.90562803226845,9.982164094022899,0.03162277660168379,0.7221066602463221,-0.5071159544856177
17466185,1914.0,1,176548.0,210634,0.24,-0.6,9.96,-0.03,-0.01,-0.0,30.97,15.548699,3.775338531957555,-362.61874416202556,9.980941839325586,0.03162277660168379,0.280182241830313,-0.5012077795080188
17506185,1911.0,1,176317.0,210139,0.24,-0.62,9.97,-0.03,-0.01,-0.0,30.97,15.588699,1.6460939068081846,-404.4414075335711,9.99214191252306,0.03162277660168379,0.12160403552796906,-0.5588476924861867
17546185,1911.0,1,176246.0,210097,0.27,-0.62,9.96,-0.03,-0.01,-0.01,30.97,15.628699,-1.0620279392538763,-429.22278864656283,9.982930431491548,0.033166247903554,-0.08008678934218286,-0.59300134353758
17586186,1921.0,1,176332.0,210470,0.25,-0.62,9.97,-0.03,-0.01,-0.0,30.97,15.6687,12.759265054337998,-363.1895431781972,9.992387102189346,0.03162277660168379,0.9492716158946964,-0.5019944535973246
17626185,1925.0,1,176448.0,210926,0.24,-0.61,9.96,-0.03,-0.01,-0.0,30.97,15.708699,9.223433687136957,-174.37604671461568,9.981547976140776,0.03162277660168379,0.6859360698632155,-0.24177206152774294
17666186,1908.0,1,176700.0,211474,0.24,-0.61,9.96,-0.03,-0.01,-0.01,30.97,15.7487,0.2376970233181462,109.43444192247084,9.981547976140776,0.033166247903554,0.016711883208930692,0.14937499962434192
17706185,1933.0,1,176895.0,211729,0.24,-0.63,9.98,-0.03,-0.01,-0.0,30.97,15.788699,14.397224388886553,411.89108883361826,10.002744623352132,0.03162277660168379,1.0712607242390084,0.5662201596934183
17746186,1923.0,1,176851.0,211706,0.25,-0.62,9.94,-0.03,-0.01,-0.01,30.97,15.8287,12.280526450349312,630.8547975896137,9.962454516834693,0.033166247903554,0.9136169484076818,0.8679955154604386
17786185,1923.0,1,176880.0,211851,0.27,-0.63,9.93,-0.03,-0.01,-0.0,30.97,15.868699,3.978258967970063,668.891110128222,9.953627479466972,0.03162277660168379,0.29529499984077207,0.9204170871154711
17826186,1922.0,1,176940.0,211567,0.25,-0.62,9.96,-0.03,-0.01,-0.01,30.97,15.9087,5.229671667565391,476.8506471413033,9.98240952876609,0.033166247903554,0.3884955550526373,0.6557472960857561
17866185,1920.0,1,176451.0,209627,0.24,-0.64,10.0,-0.03,-0.01,-0.0,30.97,15.948699,0.8290379733474985,97.15117239449208,10.023332779071042,0.03162277660168379,0.0607527538825858,0.13244622155035207
17906185,1915.0,1,175676.0,208076,0.25,-0.61,9.94,-0.03,-0.01,-0.01,30.97,15.988699,-7.765560444944357,-332.1032877383329,9.961837179958323,0.033166247903554,-0.5793409135916592,-0.45915143706218087
17946185,1907.0,1,175352.0,207910,0.24,-0.61,9.94,-0.03,-0.01,-0.01,30.97,16.028699,-15.037903569231839,-637.330624916855,9.96159123835143,0.033166247903554,-1.1209579333757487,-0.8798151570465396
17986186,1918.0,1,175419.0,208239,0.25,-0.64,9.96,-0.03,-0.01,-0.01,30.97,16.0687,-8.69399626893044,-704.0125211724245,9.983671669280797,0.033166247903554,-0.6484873544916677,-0.9717160162348915
18026196,1920.0,1,175602.0,208449,0.27,-0.62,9.97,-0.03,-0.01,-0.0,30.97,16.10871,-7.93614917576747,-537.2703346780656,9.992907484811415,0.03162277660168379,-0.5920457266647108,-0.7419122604591837
18066187,1907.0,1,175732.0,209302,0.26,-0.63,9.97,-0.03,-0.01,-0.0,30.97,16.148701,-22.601095343139484,-244.61095453376566,9.993267733829612,0.03162277660168379,-1.684236276906981,-0.33856967431391893
18106185,1912.0,1,176117.0,210202,0.25,-0.63,9.99,-0.03,-0.01,-0.0,30.97,16.188699,-22.606707277001743,41.07090034937945,10.012966593372814,0.03162277660168379,-1.6846542328314684,0.05515650014366825
18146186,1920.0,1,176292.0,210554,0.26,-0.63,9.95,-0.03,-0.01,-0.01,30.97,16.2287,-13.794159853362508,239.815854697507,9.97331439392141,0.033166247903554,-1.0283285354978347,0.3290664080733959
18186185,1923.0,1,176375.0,210642,0.27,-0.62,9.95,-0.03,-0.01,-0.0,30.97,16.268699,-16.84525707652542,353.96121816052795,9.972953424136703,0.03162277660168379,-1.255562888558275,0.4863813250699586
18226186,1919.0,1,176396.0,210692,0.25,-0.63,9.97,-0.03,-0.01,-0.0,30.97,16.3087,-21.34862003857255,438.8571619241682,9.993012558783263,0.03162277660168379,-1.5909565828360035,0.6033847489615354
18266185,1920.0,1,176611.0,211487,0.26,-0.63,9.94,-0.03,-0.01,-0.0,30.97,16.348699,-23.227567320114037,546.1127724072995,9.963337794133048,0.03162277660168379,-1.7308935755723884,0.7512042218570395
18306186,1919.0,1,176895.0,212186,0.25,-0.62,9.98,-0.03,-0.01,-0.0,30.97,16.3887,-29.314602755172057,683.4017232530829,10.00236472040487,0.03162277660168379,-2.18423329501519,0.9404155857846375
18346185,1921.0,1,177097.0,212452,0.26,-0.62,9.94,-0.03,-0.01,-0.0,30.97,16.428699,-25.136843407924488,812.1581642462148,9.96271047456464,0.03162277660168379,-1.8730893447972128,1.1178674612974733
18386872,1941.0,1,177009.0,212284,0.25,-0.62,9.96,-0.03,-0.01,-0.0,30.77,16.469386,-14.355098166046712,870.5422321377312,9.98240952876609,0.03162277660168379,-1.0701051310195844,1.1983322696403116
18427185,1942.0,1,176981.0,212084,0.24,-0.61,9.95,-0.03,-0.01,-0.0,30.77,16.509699,-8.474871198743463,798.7225155064023,9.971569585576786,0.03162277660168379,-0.6321677357049402,1.0993504764443538
18467186,1962.0,1,176929.0,212056,0.27,-0.62,9.96,-0.03,-0.01,-0.0,30.77,16.5497,2.323321985825312,560.2679288944845,9.982930431491548,0.03162277660168379,0.17204145956072164,0.7707128308823747
18507185,1963.0,1,176851.0,211623,0.28,-0.62,10.0,-0.03,-0.01,-0.0,30.77,16.589699,6.5071303397806695,164.53580560323937,10.023113288794056,0.03162277660168379,0.4836359172602261,0.2253155914351143
18547186,1969.0,1,176287.0,209659,0.24,-0.64,9.98,-0.03,-0.01,-0.01,30.77,16.6297,7.228205374622626,-319.7796853188496,10.003379428972991,0.033166247903554,0.537338899192899,-0.4421670722758904
18587185,1976.5,1,175741.0,208635,0.24,-0.62,9.93,-0.03,-0.01,-0.0,30.77,16.669699,14.23833618942463,-783.7456725155337,9.952230905681398,0.03162277660168379,1.0594273231465843,-1.0816040896955288
18627186,1976.5,1,175578.0,208381,0.27,-0.6,9.95,-0.03,-0.01,-0.0,30.77,16.7097,13.04184925163268,-1132.3598825012953,9.971730040469406,0.03162277660168379,0.9703174340252623,-1.5620635130473968
18667186,1976.5,1,175657.0,208445,0.26,-0.61,9.99,-0.03,-0.01,-0.0,30.77,16.7497,10.662396701577858,-1335.881502539385,10.011982820600522,0.03162277660168379,0.7931046737287503,-1.8425566123021069
18707186,1976.5,1,175699.0,208559,0.26,-0.62,9.98,-0.03,-0.01,-0.0,30.77,16.7897,11.065207213528387,-1433.3765184580488,10.002619656869895,0.03162277660168379,0.8231044998221766,-1.9769240528314977
18747185,1976.5,1,175646.0,208580,0.26,-0.63,9.97,-0.03,-0.01,-0.0,30.77,16.829699,9.43705528055962,-1484.720509768401,9.993267733829612,0.03162277660168379,0.7018458102060088,-2.0476862413795853
18787186,1976.5,1,175828.0,208536,0.3,-0.62,9.95,-0.03,-0.01,-0.0,30.77,16.8697,9.721768027801048,-1512.3732441763434,9.973810706044103,0.03162277660168379,0.7230501548058176,-2.0857971859342697
18827185,1976.5,1,175942.0,208736,0.27,-0.62,9.95,-0.03,-0.01,-0.0,30.77,16.909699,9.66790999535806,-1478.0788457424565,9.972953424136703,0.03162277660168379,0.7190390092197706,-2.0385327129903312
18867186,1976.5,1,176282.0,209649,0.32,-0.63,9.919999999999998,-0.03,-0.01,-0.0,30.77,16.9497,10.047720226079772,-1306.3064593941072,9.945134488783948,0.03162277660168379,0.7473258600643057,-1.8017963455999344
18907185,1976.5,1,176724.0,211510,0.28,-0.62,9.97,-0.03,-0.01,-0.01,30.77,16.989699,10.957425641063374,-931.9067523815113,9.993182676204814,0.033166247903554,0.8150773298896711,-1.2857994006052738
18947170,1976.5,1,177577.0,214605,0.31,-0.61,9.95,-0.03,-0.01,-0.01,30.77,17.029684,12.118644821424196,-340.83765809839906,9.973499887201081,0.033166247903554,0.9015606078420948,-0.47118912923402445
18987165,1976.5,1,178669.0,217245,0.28,-0.63,9.99,-0.03,-0.01,-0.01,30.77,17.069679,13.710007975077295,409.80305182865965,10.01376053238742,0.033166247903554,1.0200794062465977,0.5633424311711622
19027173,1976.5,1,179322.0,219249,0.28,-0.62,9.94,-0.03,-0.01,-0.01,30.77,17.109687,15.44232085919762,1185.051132740575,9.963252480992338,0.033166247903554,1.1490956154099625,1.6317878222089919
19067185,1976.5,1,179987.0,220656,0.27,-0.63,9.97,-0.03,-0.01,-0.01,30.77,17.149699,18.259881531773143,1774.804350736557,9.993532908836595,0.033166247903554,1.3589370363193651,2.444584555451251
19107186,1976.5,1,180109.0,220763,0.29,-0.64,9.99,-0.03,-0.01,-0.0,30.77,17.1897,19.95505064446505,1931.8525699715485,10.01467922601618,0.03162277660168379,1.4851869157811768,2.66102810448261
19147185,1976.5,1,179917.0,219821,0.29,-0.62,9.98,-0.03,-0.01,-0.0,30.77,17.229699,24.088571890369938,1481.839969038329,10.003444406803089,0.03162277660168379,1.7930361770384375,2.0408216167600366
19187186,1976.5,1,179578.0,218248,0.27,-0.62,10.0,-0.03,-0.01,-0.0,30.77,17.2697,26.2980038831335,484.2029987137338,10.022838919188516,0.03162277660168379,1.9575864397095857,0.6658802926635905
19227185,1971.0,1,178852.0,214570,0.31,-0.63,9.95,-0.03,-0.01,-0.0,30.77,17.309699,24.72034267743268,-676.7053204759668,9.974743104461387,0.03162277660168379,1.8400881113363117,-0.9340812855665414
19267186,1965.0,1,177054.0,210951,0.3,-0.61,9.94,-0.03,-0.01,-0.0,30.77,17.3497,23.30635576587069,-1415.445600693711,9.963217351839715,0.03162277660168379,1.7347796345544289,-1.9522116969881274
19307185,1953.0,1,176931.0,213178,0.34,-0.62,9.919999999999998,-0.03,-0.01,-0.01,30.77,17.389699,13.071257548395344,-1284.3719215189446,9.94516968181036,0.033166247903554,0.9725076543954102,-1.7715662083389756
19347186,1936.0,1,178706.0,219918,0.35,-0.62,9.919999999999998,-0.03,-0.01,-0.01,30.77,17.4297,3.863211621827338,-301.3661518803479,9.94551657783546,0.033166247903554,0.28672670215638624,-0.4167895764529456
19387850,1930.0,1,181000.0,223298,0.23,-0.64,10.0,-0.03,-0.01,-0.025,30.99,17.470364,-2.143426318325022,1021.6047130743051,10.023098323372869,0.04031128874149275,-0.16062531141985836,1.406526285839058
19426170,1914.0,1,181630.0,223355,0.21,-0.67,10.000000000000004,-0.03,-0.01,-0.01,30.99,17.508684,-9.367017854580556,2008.5363437401973,10.024619693534516,0.033166247903554,-0.6986114945714708,2.7667135317256215
19466185,1918.0,1,181403.0,222573,0.26,-0.65,9.98,-0.03,-0.01,-0.0,30.99,17.548699,-4.146321729350685,2249.4551159680013,10.00452397668175,0.03162277660168379,-0.309793499020362,3.0987473130908114
19506239,1909.0,1,180750.0,221500,0.25,-0.66,9.96,-0.03,-0.01,-0.0,30.99,17.588753,-6.767275423846205,1794.6466244618189,9.984973710531241,0.03162277660168379,-0.5049923647427278,2.4719311383470504
19546185,1891.0,1,180318.0,220515,0.3,-0.65,9.92,-0.03,-0.01,-0.0,30.99,17.628699,-20.21250714799719,1010.942659174872,9.945798107743792,0.03162277660168379,-1.5063431278029666,1.3918318639780634
19586185,1885.0,1,179899.0,219552,0.28,-0.65,10.0,-0.03,-0.01,-0.0,30.99,17.668699,-22.962621021855995,284.33590650908957,10.025013715701341,0.03162277660168379,-1.7111613624448063,0.3904238565315693
19626185,1874.0,1,179465.0,218368,0.28,-0.67,9.99,-0.03,-0.01,-0.0,30.99,17.708699,-27.387528583259652,-178.22137600163143,10.01635662304413,0.03162277660168379,-2.0407119908005527,-0.2470716868411032
19666186,1869.0,1,179275.0,218131,0.31,-0.65,9.95,-0.03,-0.01,-0.0,30.99,17.7487,-30.083981444868623,-352.1465088468205,9.976026262996704,0.03162277660168379,-2.2415337531862516,-0.4867749652490877
19706214,1868.5,1,179194.0,218185,0.3,-0.65,9.93,-0.03,-0.01,-0.0,30.99,17.788728,-24.730057880237595,-293.69911279631344,9.955772195063526,0.03162277660168379,-1.8427934743423025,-0.40622287816120967
19746185,1868.5,1,179394.0,218667,0.32,-0.65,9.94,-0.03,-0.01,-0.0,30.99,17.828699,-21.486613518009865,-72.09540597582915,9.966368445928536,0.03162277660168379,-1.6012338230328895,-0.10080908221767976
19786185,1868.5,1,179517.0,219323,0.31,-0.66,9.94,-0.03,-0.01,-0.01,30.99,17.868699,-17.47108045425278,216.12468299844102,9.966709587421517,0.033166247903554,-1.3021718819683754,0.2964152815070742
19826186,1868.5,1,179743.0,219695,0.29,-0.67,9.99,-0.03,-0.01,-0.0,30.99,17.9087,-13.474911638176456,414.67345631808627,10.016641153600343,0.03162277660168379,-1.0045521179216357,0.5700548131264929
19866185,1868.5,1,179869.0,219913,0.31,-0.65,9.96,-0.03,-0.01,-0.01,30.99,17.948699,-10.62088659703808,346.41895757133767,9.986000200280392,0.033166247903554,-0.7919949667047119,0.47598659625612205
19906186,1868.5,1,179751.0,218773,0.29,-0.65,9.95,-0.03,-0.01,-0.0,30.99,17.9887,-7.029255768279532,-68.9647347742997,9.975424802984582,0.03162277660168379,-0.524503684680329,-0.09649439728199519
19946185,1868.5,1,178690.0,214164,0.31,-0.64,9.97,-0.03,-0.01,-0.0,30.99,18.028699,-4.501468882100139,-717.0395284929646,9.995328909045465,0.03162277660168379,-0.3362435357099895,-0.9896698122820545
19986186,1868.5,1,177495.0,213098,0.31,-0.65,9.95,-0.03,-0.01,-0.0,30.99,18.0687,-1.9540298072903444,-1321.7875472716523,9.976026262996704,0.03162277660168379,-0.1465197649527894,-1.8231323506778936
20026196,1868.5,1,177562.0,214138,0.31,-0.64,9.96,-0.03,-0.01,-0.01,30.99,18.10871,0.3338008330971245,-1610.2141434921682,9.985354275137164,0.033166247903554,0.02386933688690014,-2.2206413222861103
20066165,1868.5,1,177953.0,214875,0.3,-0.66,9.96,-0.03,-0.01,-0.0,30.99,18.148679,1.961119955179334,-1481.2421339808143,9.986350684809743,0.03162277660168379,0.1450660018512175,-2.0428923506624708
20106185,1868.5,1,178184.0,215572,0.31,-0.65,9.94,-0.03,-0.01,-0.0,30.99,18.188699,3.6193957728016533,-1046.0757411167865,9.96605237794785,0.03162277660168379,0.268568206157429,-1.4431468779059167
20146186,1868.5,1,178587.0,216972,0.29,-0.66,9.96,-0.03,-0.01,-0.0,30.99,18.2287,4.675821394617675,-526.5496298825905,9.986055277235351,0.03162277660168379,0.3472468503210468,-0.7271370060478102
20186185,1868.5,1,178845.0,217471,0.33,-0.66,9.96,-0.03,-0.01,-0.01,30.99,18.268699,5.4140874510381245,-111.31632515638641,9.987296931602666,0.033166247903554,0.4022301554886468,-0.15486327643308595
20226186,1868.5,1,179026.0,217726,0.33,-0.64,9.96,-0.03,-0.01,-0.0,30.99,18.3087,6.0116992624927,125.38666188654949,9.985995193269423,0.03162277660168379,0.44673805655657267,0.1713603180238312
20266185,1868.5,1,179032.0,217963,0.31,-0.64,9.97,-0.03,-0.01,-0.01,30.99,18.348699,5.921404179111845,215.462104746614,9.995328909045465,0.033166247903554,0.44001321517793024,0.2955021174544347
20306186,1868.5,1,179202.0,218125,0.3,-0.64,10.000000000000004,-0.03,-0.01,-0.01,30.99,18.3887,5.836422835675231,241.7333963246984,10.024948877675142,0.033166247903554,0.4336841213518057,0.33170916019899394
20346185,1868.5,1,179037.0,218216,0.32,-0.65,9.95,-0.03,-0.01,-0.01,30.99,18.428699,5.305947427004019,287.23205389838756,9.976342014987257,0.033166247903554,0.3941762894188344,0.3944153212072662
20386186,1868.5,1,179251.0,218511,0.31,-0.68,9.97,-0.03,-0.01,-0.01,30.99,18.4687,4.2342670881255495,405.95291311485124,9.997969793913162,0.033166247903554,0.3143615307661438,0.5580361775151893
20426871,1868.5,1,179282.0,218686,0.29,-0.65,9.95,-0.03,-0.01,-0.0,31.05,18.509385,3.5251528510182872,603.0237835308426,9.975424802984582,0.03162277660168379,0.26154934448386724,0.8296388662391662
20467185,1868.5,1,179341.0,218855,0.3,-0.64,9.95,-0.03,-0.01,-0.0,31.05,18.549699,1.6104957656287977,817.6652651914338,9.97507393456309,0.03162277660168379,0.11895281860848111,1.125457337064696
20507185,1868.5,1,179356.0,218969,0.3,-0.64,9.94,-0.03,-0.01,-0.01,31.05,18.589699,0.3385499560194986,928.4487768424764,9.965099096346206,0.033166247903554,0.02422303386734296,1.278138956459754
20547186,1868.5,1,179385.0,219139,0.31,-0.64,9.95,-0.03,-0.01,-0.0,31.05,18.6297,-1.5350317294424025,806.9564609423504,9.975379692021752,0.03162277660168379,-0.115314349264775,1.1106984839631178
20587185,1868.5,1,179391.0,217655,0.3,-0.64,9.94,-0.03,-0.01,-0.01,31.05,18.669699,-4.245352407732069,407.98239994910614,9.965099096346206,0.033166247903554,-0.3171689349665829,0.560833212306531
20627185,1869.0,1,178141.0,214153,0.31,-0.66,9.97,-0.03,-0.01,-0.01,31.05,18.709699,-4.731785846962042,-169.16845478359227,9.996629431963555,0.033166247903554,-0.35339668511208716,-0.23459496849893743
20667185,1868.5,1,177444.0,213578,0.31,-0.65,9.94,-0.03,-0.01,-0.0,31.05,18.749699,-9.401353457693457,-714.6622905886921,9.96605237794785,0.03162277660168379,-0.701168682359873,-0.9863935076451793
20707186,1872.0,1,177474.0,213619,0.31,-0.65,9.98,-0.03,-0.01,-0.0,31.05,18.7897,-6.78072142752864,-1027.916252414956,10.005948230927443,0.03162277660168379,-0.5059937729983648,-1.4181195060428977
20747185,1887.0,1,177531.0,213706,0.3,-0.65,9.95,-0.03,-0.01,-0.0,31.05,18.829699,4.623735783308309,-1033.3484598963198,9.975720525355548,0.03162277660168379,0.34336770805714606,-1.4256061637845037
20787185,1886.0,1,177607.0,214235,0.32,-0.65,9.96,-0.03,-0.01,-0.0,31.05,18.869699,0.29538340648010875,-806.5619770381569,9.986315636910343,0.03162277660168379,0.021008150092427944,-1.1130494760279102
20827185,1881.0,1,177873.0,215356,0.31,-0.64,9.98,-0.03,-0.01,-0.01,31.05,18.909699,-4.934130525813168,-505.34218805422904,10.00530359359475,0.033166247903554,-0.36846656287438717,-0.6979089511385196
20867186,1894.0,1,178205.0,215688,0.3,-0.65,9.96,-0.03,-0.01,-0.0,31.05,18.9497,0.45110968121162165,-268.1240680923132,9.985694768016897,0.03162277660168379,0.03260606281198545,-0.37097540149872926
20907184,1889.0,1,178132.0,215750,0.32,-0.66,9.96,-0.03,-0.01,-0.0,31.05,18.989698,-0.7161327488573423,-146.33049915979544,9.986971512926228,0.03162277660168379,-0.054325804336600336,-0.20311974266120372
20947186,1901.0,1,178283.0,216236,0.28,-0.65,9.99,-0.03,-0.01,-0.0,31.05,19.0297,0.3678029799216121,-97.11589417575652,10.015038691887316,0.03162277660168379,0.026401690093370216,-0.13529227018930692
20987185,1904.0,1,178464.0,216732,0.31,-0.64,9.99,-0.03,-0.01,-0.0,31.05,19.069699,9.259510227248922,-24.48574257500871,10.015278328633709,0.03162277660168379,0.6886229161527294,-0.03519353710129169
21027194,1918.0,1,178679.0,217391,0.3,-0.65,9.97,-0.03,-0.01,-0.0,31.05,19.109708,11.877582064435986,157.32278882625468,9.995669062148867,0.03162277660168379,0.883607151880309,0.2153746258002397
21067185,1909.0,1,178859.0,217855,0.3,-0.65,9.95,-0.03,-0.01,-0.0,31.05,19.149699,8.095996828084449,461.41820804294935,9.975720525355548,0.03162277660168379,0.6019687733318679,0.6344783386602663
21107185,1920.0,1,179103.0,218475,0.31,-0.68,9.97,-0.03,-0.01,-0.0,31.05,19.189699,9.742091758669252,791.370793305466,9.997969793913162,0.03162277660168379,0.7245637905564423,1.0892183472650836
21147185,1920.0,1,179220.0,218869,0.31,-0.64,9.98,-0.03,-0.01,-0.01,31.05,19.229699,12.606457924917715,961.9970593193257,10.00530359359475,0.033166247903554,0.9378911102414399,1.3243751338488825
21187186,1920.0,1,179324.0,218950,0.3,-0.65,9.95,-0.03,-0.01,-0.01,31.05,19.2697,6.352993200712385,794.8094330884059,9.975720525355548,0.033166247903554,0.4721563574438857,1.0939574738981992
21227185,1917.0,1,179244.0,217241,0.29,-0.65,9.98,-0.03,-0.01,-0.01,31.05,19.309699,3.590392890644095,248.50980758848291,10.005348569640141,0.033166247903554,0.26640817955652996,0.3410483969682754
21267186,1923.0,1,177714.0,212733,0.32,-0.65,9.96,-0.03,-0.01,-0.0,31.05,19.3497,6.255875964326501,-511.9014870522846,9.986315636910343,0.03162277660168379,0.46492342752817256,-0.706948964207198
21307185,1922.0,1,176922.0,212054,0.32,-0.65,9.97,-0.03,-0.01,-0.0,31.05,19.389699,3.6337133245488724,-1183.3281789778964,9.996289311539558,0.03162277660168379,0.2696345240656194,-1.6323079197093484
21347191,1926.0,1,176976.0,212697,0.32,-0.65,9.95,-0.03,-0.01,-0.01,31.05,19.429705,6.018215432149054,-1496.7375173656055,9.976342014987257,0.033166247903554,0.4472233565939011,-2.0642480577805973
21387185,1927.0,1,177319.0,213558,0.31,-0.64,9.97,-0.03,-0.01,-0.0,31.05,19.469699,5.339914549129102,-1364.663371182791,9.995328909045465,0.03162277660168379,0.3967060341161918,-1.8822237274548852
21427871,1920.0,1,177648.0,214612,0.31,-0.63,9.98,-0.03,-0.01,-0.0,30.87,19.510385,-3.7307136843997704,-900.0397880682474,10.004668910063941,0.03162277660168379,-0.2788405603515529,-1.2418804126255505
21466185,1923.0,1,177996.0,216315,0.29,-0.66,9.96,-0.03,-0.01,-0.01,30.87,19.548699,-0.22995265651820046,-317.55219152314817,9.986055277235351,0.033166247903554,-0.01811692252357685,-0.43909714467699457
21506186,1927.0,1,178633.0,217570,0.31,-0.64,9.98,-0.03,-0.01,-0.01,30.87,19.5887,-0.3803865973608171,189.76417129902347,10.00530359359475,0.033166247903554,-0.029320681933861396,0.2600852757655423
21546204,1914.0,1,178908.0,217931,0.33,-0.64,9.96,-0.03,-0.01,-0.0,30.87,19.628718,-10.253098018136122,521.0607341685222,9.985995193269423,0.03162277660168379,-0.7646034436960913,0.7166775516834872
21586186,1920.0,1,178997.0,217970,0.36,-0.63,9.94,-0.03,-0.01,-0.0,30.87,19.6687,-9.504701636162226,672.5634182695601,9.96644871556564,0.03162277660168379,-0.7088656696259754,0.9254782550237722
21626185,1918.0,1,178992.0,218289,0.32,-0.66,9.95,-0.03,-0.01,-0.01,30.87,19.708699,-7.89304112460485,707.9674440622442,9.976998546657205,0.033166247903554,-0.5888351996309378,0.9742720142264807
21666187,1927.0,1,179113.0,218547,0.28,-0.64,9.96,-0.03,-0.01,-0.01,30.87,19.748701,-2.7321746614841222,725.2522128154229,9.984467937752116,0.033166247903554,-0.20447309439364297,0.9980938487646133
21706185,1933.0,1,179236.0,218615,0.31,-0.64,9.96,-0.03,-0.01,-0.0,30.87,19.788699,5.289237522498548,824.8823375009679,9.985354275137164,0.03162277660168379,0.39293179799090605,1.1354038920266096
21746186,1930.0,1,179270.0,218945,0.33,-0.66,9.99,-0.03,-0.01,-0.01,30.87,19.8287,0.7696762564517656,1066.0183315104998,10.017215181875649,0.033166247903554,0.056331714384743936,1.4677370480271383
21786185,1927.0,1,179394.0,219542,0.33,-0.64,9.93,-0.03,-0.01,-0.01,30.87,19.868699,-1.4829648478553685,1412.8064183216009,9.956073523231938,0.033166247903554,-0.11143660192080829,1.9456797119861442
21826186,1933.0,1,179553.0,220239,0.31,-0.66,9.96,-0.03,-0.01,-0.01,30.87,19.9087,3.9500092558236615,1712.177289130531,9.986656097012654,0.033166247903554,0.2931910665360586,2.3582720614577273
21866185,1933.0,1,179894.0,220971,0.28,-0.64,10.0,-0.03,-0.01,-0.0,30.87,19.948699,5.157540188655117,1754.9500360198224,10.024370304413141,0.03162277660168379,0.383123471258966,2.41722137768452
21906185,1931.0,1,179902.0,219611,0.31,-0.68,9.92,-0.03,-0.01,-0.0,30.87,19.988699,1.8316380371326721,1411.7676235478295,9.948110373332215,0.03162277660168379,0.13542267103337582,1.9442480470577195
21946170,1924.0,1,178531.0,215191,0.29,-0.69,9.97,-0.03,-0.01,-0.01,30.87,20.028684,-2.3326454311972187,746.060927713273,9.99805481081195,0.033166247903554,-0.17471764593275574,1.026772378996995
21986187,1927.0,1,177396.0,213437,0.28,-0.62,9.97,-0.03,-0.01,-0.01,30.87,20.068701,-2.0536639821222638,-5.628834383499571,9.993182676204814,0.033166247903554,-0.15394014706607126,-0.009204983059671785
22026195,1923.0,1,177060.0,212706,0.32,-0.62,9.98,-0.03,-0.01,-0.01,30.87,20.108709,-1.6677327219760394,-586.9297877691035,10.004359049934184,0.033166247903554,-0.12519742475641732,-0.8103528217233492
22066186,1922.0,1,176928.0,212322,0.3,-0.65,9.99,-0.03,-0.01,-0.01,30.87,20.1487,-6.204864176323181,-882.649683335193,10.015617804209583,0.033166247903554,-0.46310607052220903,-1.2179134042456765
22106185,1920.0,1,176706.0,211873,0.3,-0.64,9.96,-0.03,-0.01,-0.0,30.87,20.188699,-3.4765998393330886,-956.762847973449,9.98504882311549,0.03162277660168379,-0.2599151079768925,-1.3200560230056315
22146186,1929.0,1,176561.0,211345,0.31,-0.65,9.99,-0.03,-0.01,-0.01,30.87,20.2287,2.7563677539609666,-956.8218165798204,10.015922323979954,0.033166247903554,0.20429309488090255,-1.3201372934237656
22186185,1922.0,1,176338.0,210583,0.3,-0.66,9.98,-0.03,-0.01,-0.0,30.87,20.268699,-1.1337161534328224,-986.8837956699545,10.006298016749252,0.03162277660168379,-0.08542586043023036,-1.3615686542941434
22226186,1920.0,1,176094.0,209832,0.33,-0.65,9.95,-0.03,-0.01,-0.0,30.87,20.3087,-3.271330731802276,-1052.0736640867046,9.97666778037637,0.03162277660168379,-0.24462742966269424,-1.4514132036289946
22266185,1924.0,1,176026.0,209700,0.37,-0.68,9.96,-0.03,-0.01,-0.0,30.87,20.348699,0.6999011913757953,-1092.2510417978413,9.990040039959801,0.03162277660168379,0.05113512751366027,-1.5067855871232627
22306186,1918.0,1,176086.0,209987,0.33,-0.62,9.97,-0.03,-0.01,-0.01,30.87,20.3887,-2.1377850676173873,-1047.0186569768214,9.99470860005433,0.033166247903554,-0.16020517208595922,-1.4444464027026833
22346185,1911.0,1,176214.0,210260,0.31,-0.63,9.95,-0.03,-0.01,-0.0,30.87,20.428699,-12.090694809549872,-891.7648347147806,9.974743104461387,0.03162277660168379,-0.901460805996063,-1.2304758880749516
22386186,1904.0,1,176331.0,210464,0.3,-0.63,9.96,-0.03,-0.01,-0.0,30.87,20.4687,-13.790926667007597,-635.8830855728131,9.984412852040926,0.03162277660168379,-1.0280877398246897,-0.8778201611496543
22426186,1921.0,1,176388.0,210789,0.31,-0.63,9.96,-0.03,-0.01,-0.0,30.87,20.5087,-0.9819880867032632,-314.60955892031467,9.984718323518196,0.03162277660168379,-0.0741257193456859,-0.4350416141707896
22466872,1920.0,1,176609.0,211244,0.34,-0.65,9.96,-0.03,-0.01,-0.0,30.87,20.549386,3.553669802911312,5.509293768933973,9.986976519447715,0.03162277660168379,0.2636731808091973,0.006145563407025582
22507185,1914.0,1,176770.0,211803,0.33,-0.65,9.96,-0.03,-0.01,-0.01,30.87,20.589699,-6.255048327085054,227.03477685381108,9.98664107695876,0.033166247903554,-0.46684359908920775,0.3114515515509142
22547186,1909.0,1,176992.0,212175,0.31,-0.64,9.97,-0.03,-0.01,-0.0,30.87,20.6297,-6.683656922853393,258.2431652015881,9.995328909045465,0.03162277660168379,-0.4987647703439862,0.3544628914212153
22586185,1921.0,1,176638.0,210270,0.33,-0.62,9.99,-0.03,-0.01,-0.0,30.87,20.668699,2.5907272540843143,77.31920398787315,10.014659255311686,0.03162277660168379,0.19195680761206868,0.10511384142457993
22626186,1920.0,1,175957.0,209140,0.31,-0.62,9.96,-0.03,-0.01,-0.0,30.87,20.7087,4.741157786288788,-229.10314236573643,9.984092347329327,0.03162277660168379,0.3521128613350446,-0.31719683787100766
22666185,1919.0,1,175723.0,208994,0.34,-0.64,9.96,-0.03,-0.01,-0.01,30.87,20.748699,2.5115527051294966,-498.5569515545649,9.986330657453719,0.033166247903554,0.18606018220334125,-0.6885575514463848
22706186,1923.0,1,175683.0,209042,0.31,-0.63,9.97,-0.03,-0.01,-0.01,30.87,20.7887,7.645953088698312,-583.3966248231849,9.994693592101761,0.033166247903554,0.5684511924459016,-0.8054834234516219
22746185,1921.0,1,175748.0,209234,0.31,-0.65,9.98,-0.03,-0.01,-0.01,30.87,20.828699,6.650130724799753,-437.58584714100084,10.005948230927443,0.033166247903554,0.49428605312955115,-0.6045272944213944
22786186,1915.0,1,175853.0,209699,0.32,-0.65,9.97,-0.03,-0.01,-0.0,30.87,20.8687,-0.8750452876498221,-142.89264207442892,9.996289311539558,0.03162277660168379,-0.06616101813167814,-0.19838169474035508
22826185,1919.0,1,176101.0,210216,0.3,-0.64,9.97,-0.03,-0.01,-0.01,30.87,20.908699,6.404929408081808,139.85888583262786,9.995023761852696,0.033166247903554,0.47602437265900543,0.19130590880177425
22866186,1919.0,1,176143.0,210169,0.3,-0.62,9.97,-0.03,-0.01,-0.0,30.87,20.9487,3.3408285936306603,268.35245129759136,9.99376305502587,0.03162277660168379,0.24782156056965826,0.36839548977508946
22906185,1907.0,1,176093.0,209928,0.31,-0.63,9.93,-0.03,-0.01,-0.01,30.87,20.988699,-5.70730788742728,215.60741921466152,9.954792815523586,0.033166247903554,-0.4260499319763491,0.29570238957049577
22946186,1920.0,1,176016.0,209439,0.29,-0.65,9.97,-0.03,-0.01,-0.01,30.87,21.0287,6.543233216110762,109.23520195184875,9.995373929973807,0.033166247903554,0.48632472497313967,0.1491004074859502
22986185,1917.0,1,175925.0,209193,0.35,-0.64,9.96,-0.03,-0.01,-0.0,30.87,21.068699,2.0069268778605407,173.08583852920782,9.98667612371604,0.03162277660168379,0.14847753077993622,0.2370992301152991
23026197,1905.0,1,176142.0,211163,0.35,-0.65,9.919999999999998,-0.03,-0.01,-0.01,30.87,21.108711,-5.2608453405346705,581.9256561269123,9.947431829371839,0.033166247903554,-0.3927990649640914,0.8005614682561332
23066165,1925.0,1,176873.0,212920,0.23,-0.63,10.000000000000004,-0.03,-0.01,-0.01,30.87,21.148679,7.701391084306689,1307.7256202511323,10.02246476671283,0.033166247903554,0.5725800078017026,1.80085756131032
23106170,1910.0,1,177389.0,214994,0.3,-0.65,9.96,-0.03,-0.01,-0.01,30.87,21.188684,1.4485327951735645,2070.93435241314,9.985694768016897,0.033166247903554,0.10689042002880235,2.852710345414115
23146165,1911.0,1,178046.0,216275,0.27,-0.63,9.98,-0.03,-0.01,-0.01,30.87,21.228679,-6.714131418275003,2463.520712364749,10.003509384211124,0.033166247903554,-0.5010343972176898,3.3937720999704277
23186172,1908.0,1,178082.0,214924,0.27,-0.65,10.000000000000004,-0.03,-0.01,-0.0,30.87,21.268686,-0.930360256020644,2190.735135210486,10.024739398109064,0.03162277660168379,-0.07028067087721482,3.017819550292098
23226185,1916.0,1,176717.0,209541,0.27,-0.65,9.97,-0.03,-0.01,-0.0,30.87,21.308699,-0.8997009514045825,1269.2134069041833,9.994813655091326,0.03162277660168379,-0.06799728010329134,1.747780104090676
23266186,1910.0,1,174956.0,205667,0.3,-0.65,9.92,-0.03,-0.01,-0.0,30.87,21.3487,0.09112399626528203,27.01245954428167,9.945798107743792,0.03162277660168379,0.0057956702722806504,0.035781184482497924
23306185,1917.0,1,173983.0,203935,0.3,-0.64,9.96,-0.03,-0.01,-0.0,30.87,21.388699,0.660677876783145,-1101.2540392503106,9.98504882311549,0.03162277660168379,0.04821392118543075,-1.5191935006292223
23346186,1909.0,1,173555.0,203082,0.26,-0.64,9.97,-0.03,-0.01,-0.01,30.87,21.4287,-1.5070914752959932,-1823.9473828429957,9.993903141415771,0.033166247903554,-0.11323346323888758,-2.5152080553341394
23386185,1914.0,1,173266.0,201993,0.32,-0.65,9.95,-0.03,-0.01,-0.0,30.87,21.468699,-2.1788953796981834,-2100.6722191333915,9.976342014987257,0.03162277660168379,-0.16326691495631865,-2.8965896842604355
23426186,1906.0,1,173186.25,201167,0.28,-0.66,10.0,-0.03,-0.01,-0.0,30.87,21.5087,-5.21560419623437,-2061.5841243234945,10.025667060101288,0.03162277660168379,-0.38942967310114196,-2.8427185483332646
23466870,1907.0,1,173186.25,201236,0.26,-0.63,9.95,-0.03,-0.01,-0.0,30.93,21.549384,-8.516189946305468,-1848.3377781413994,9.97331439392141,0.03162277660168379,-0.6352450020733279,-2.5488228504994708
23507186,1905.0,1,173351.0,202772,0.31,-0.65,9.92,-0.03,-0.01,-0.0,30.93,21.5897,-7.899327332234454,-1520.1998146717044,9.946104765183202,0.03162277660168379,-0.5893033729533322,-2.0965837501055278
23547185,1909.0,1,173892.0,204132,0.3,-0.65,9.96,-0.03,-0.01,-0.01,30.93,21.629699,-4.757735435466362,-1074.5977417324339,9.985694768016897,0.033166247903554,-0.3553293137779974,-1.4824558434503656
23587186,1919.0,1,174389.0,205608,0.32,-0.63,9.99,-0.03,-0.01,-0.01,30.93,21.6697,3.4160773961801736,-522.280051399988,10.01495881169763,0.033166247903554,0.2534258110131055,-0.7212526813216594
23626185,1925.0,1,175007.0,207396,0.28,-0.64,9.97,-0.03,-0.01,-0.01,30.93,21.708699,13.504855911569589,70.13356054458501,9.994443456241074,0.033166247903554,1.0048004449351446,0.09521060166474524
23666170,1927.0,1,175559.0,208649,0.27,-0.65,9.95,-0.03,-0.01,-0.01,30.93,21.748684,8.983544861338256,601.9354704749564,9.97486340758609,0.033166247903554,0.6680700439224597,0.828138955311041
23706185,1914.0,1,175779.0,208992,0.31,-0.64,9.96,-0.03,-0.01,-0.0,30.93,21.788699,3.600781827088069,987.5711218862658,9.985354275137164,0.03162277660168379,0.2671819088346109,1.359621256931985
23746186,1929.0,1,175810.0,208902,0.27,-0.65,9.99,-0.03,-0.01,-0.0,30.93,21.8287,10.550183785199325,1179.9613340423293,10.014764101065985,0.03162277660168379,0.7847474738123646,1.6247730715835482
23786185,1920.0,1,175683.0,208403,0.28,-0.66,9.96,-0.03,-0.01,-0.0,30.93,21.868699,8.242396118915442,1156.5565513421896,9.985769875177377,0.03162277660168379,0.6128720470420389,1.5925166457762232
23826186,1917.0,1,175493.0,207649,0.29,-0.65,9.97,-0.03,-0.01,-0.0,30.93,21.9087,0.5222243625699279,905.8741700305168,9.995373929973807,0.03162277660168379,0.03790241931248469,1.2470266774401688
23866185,1911.0,1,175273.0,206596,0.31,-0.65,9.97,-0.03,-0.01,-0.0,30.93,21.948699,-3.885806077301031,450.5352924907389,9.99597418964255,0.03162277660168379,-0.29039126391418135,0.6194795257007611
23906186,1905.0,1,174586.0,203791,0.29,-0.62,9.94,-0.03,-0.01,-0.01,30.93,21.9887,-8.721037970612475,-111.30866071804853,9.963538528053173,0.033166247903554,-0.6505013196779362,-0.15485271331913747
23946185,1914.0,1,173632.0,201943,0.29,-0.63,9.97,-0.03,-0.01,-0.01,30.93,22.028699,-3.6517992209713865,-606.2820037597477,9.994093255518482,0.033166247903554,-0.2729633051437784,-0.837024008006391
23986186,1917.0,1,173424.0,202073,0.29,-0.63,9.94,-0.03,-0.01,-0.01,30.93,22.0687,4.67087794626696,-857.9474414761866,9.964165795489354,0.033166247903554,0.34687868070674066,-1.1838688227595653
24026196,1919.0,1,173667.0,203132,0.3,-0.65,9.96,-0.03,-0.01,-0.01,30.93,22.10871,0.6773888233823897,-783.7725286036228,9.985694768016897,0.033166247903554,0.04945849022462068,-1.081641102703683
24066186,1909.0,1,174042.0,204041,0.28,-0.64,9.97,-0.03,-0.01,-0.01,30.93,22.1487,-4.399621348948977,-435.122603569859,9.994443456241074,0.033166247903554,-0.3286583109158695,-0.6011324569424106
24106185,1917.0,1,174465.0,205134,0.31,-0.65,9.98,-0.03,-0.01,-0.01,30.93,22.188699,0.4294934386055768,50.116832082318716,10.005948230927443,0.033166247903554,0.030996165602911872,0.06762358559111996
24146186,1921.0,1,174803.0,205951,0.28,-0.66,9.95,-0.03,-0.01,-0.0,30.93,22.2287,4.4795840667113955,533.3925785624942,9.975795707611498,0.03162277660168379,0.3326318253016648,0.7336732755429213
24186185,1920.0,1,175078.0,206668,0.28,-0.65,9.97,-0.03,-0.01,-0.01,30.93,22.268699,6.48741074441063,928.853778722918,9.995088794002783,0.033166247903554,0.4821672752705488,1.278697129260402
24226187,1930.0,1,175357.0,207841,0.28,-0.64,9.99,-0.03,-0.01,-0.01,30.93,22.308701,9.909654278733324,1200.9526809141207,10.01439463971737,0.033166247903554,0.7370432227275564,1.6537033048457317
24266185,1919.0,1,175672.0,208455,0.29,-0.64,9.98,-0.03,-0.01,-0.01,30.93,22.348699,8.006134646622062,1338.410726405929,10.004703893669218,0.033166247903554,0.5952761728751583,1.8431477146842359
24306186,1924.0,1,175679.0,208038,0.27,-0.67,9.95,-0.03,-0.01,-0.0,30.93,22.3887,1.6097435159823374,1342.365924106595,9.97618664620906,0.03162277660168379,0.11889679385762898,1.848598760430714
24346185,1907.0,1,175458.0,207143,0.29,-0.65,9.98,-0.03,-0.01,-0.0,30.93,22.428699,-3.358618604849957,1229.8329569267178,10.005348569640141,0.03162277660168379,-0.251128305220324,1.6935060448425376
24386186,1919.0,1,175182.0,206170,0.29,-0.64,9.919999999999998,-0.03,-0.01,-0.0,30.93,22.4687,-3.653964182837951,1028.3014932751453,9.944852940089158,0.03162277660168379,-0.27312454343714204,1.4157557752329104
24426186,1909.0,1,174870.0,205247,0.29,-0.69,9.99,-0.03,-0.01,-0.0,30.93,22.5087,-2.7857119626482296,754.6668203443561,10.017998802156047,0.03162277660168379,-0.2084603531090557,1.0386330034136735
24466872,1919.0,1,174658.0,204514,0.29,-0.65,9.96,-0.03,-0.01,-0.0,30.85,22.549386,-2.231268340555024,403.9158712456332,9.985399341037894,0.03162277660168379,-0.16716745794387608,0.5552287303894163
24507185,1917.0,1,174483.0,203469,0.3,-0.64,9.98,-0.03,-0.01,-0.0,30.85,22.589699,2.4627708754338893,-28.60110334102766,10.00499875062461,0.03162277660168379,0.18242709328443266,-0.04086531927163731
24547186,1919.0,1,173887.0,201478,0.31,-0.66,9.93,-0.03,-0.01,-0.01,30.85,22.6297,-0.1172453564014776,-507.8480590094252,9.956736413102439,0.033166247903554,-0.009722902748401391,-0.7013625375949549
24587185,1904.0,1,173186.25,200722,0.29,-0.63,9.97,-0.03,-0.01,-0.01,30.85,22.669699,-13.427062263380613,-949.0020750723111,9.994093255518482,0.033166247903554,-1.0009884747694164,-1.3093601409502276
24626219,1902.0,1,173186.25,200559,0.27,-0.63,9.98,-0.03,-0.01,-0.0,30.85,22.708733,-15.619227785434093,-1259.1684830995082,10.003509384211124,0.03162277660168379,-1.1642527950354333,-1.7368308787321265
24666185,1911.0,1,173186.25,200402,0.29,-0.65,9.96,-0.03,-0.01,-0.0,30.85,22.748699,-8.054356387408264,-1399.148551289388,9.985399341037894,0.03162277660168379,-0.600849359358011,-1.9297511353275523
24706187,1911.0,1,173186.25,200219,0.29,-0.65,9.98,-0.03,-0.01,-0.0,30.85,22.788701,-7.011862552556001,-1410.4032518737768,10.005348569640141,0.03162277660168379,-0.5232083027788372,-1.945262341692302
24746185,1907.0,1,173186.25,200609,0.29,-0.64,9.95,-0.03,-0.01,-0.0,30.85,22.828699,-11.482959279282062,-1382.3040853112311,9.974778193022638,0.03162277660168379,-0.8561989280710162,-1.9065361252140347
24786186,1907.0,1,173371.0,201152,0.31,-0.64,9.99,-0.03,-0.01,-0.01,30.85,22.8687,-13.500465915053306,-1381.0316698576023,10.015278328633709,0.033166247903554,-1.0064553052504284,-1.904782484720896
24826208,1908.0,1,173472.0,200589,0.24,-0.63,9.93,-0.03,-0.01,-0.0,30.85,22.908722,-8.370775898707455,-1386.221371005768,9.952858885767446,0.03162277660168379,-0.6244151056082193,-1.9119349207077083
24866186,1921.0,1,173734.0,201609,0.3,-0.62,10.0,-0.03,-0.01,0.0,30.85,22.9487,-2.453178471461302,-1280.2385127766922,10.023691934611717,0.03162277660168379,-0.18369449767608495,-1.765869552483033
24906170,1921.0,1,174363.0,202429,0.37,-0.63,10.0,-0.03,-0.01,0.0,30.85,22.988684,6.04231153843864,-913.656584659789,10.026654476942944,0.03162277660168379,0.4490179448103702,-1.2606470550941378
24946165,1931.0,1,174794.0,203864,0.28,-0.66,9.92,-0.03,-0.01,-0.01,30.85,23.028679,6.571302082404589,-227.2324456116455,9.945873516187504,0.033166247903554,0.4884151895525692,-0.31461864725802763
24986186,1910.0,1,175703.0,206855,0.34,-0.62,9.919999999999998,-0.03,-0.01,-0.01,30.85,23.0687,-6.093363662749112,644.1724794874026,9.94516968181036,0.033166247903554,-0.4548019277123496,0.8863499186422729
25026174,1922.0,1,176794.0,210948,0.34,-0.63,9.93,-0.03,-0.01,-0.01,30.85,23.108688,-0.6879605191046307,1383.1011166213061,9.955772195063526,0.033166247903554,-0.05222764163187629,1.904739923197845
25066165,1929.0,1,177659.0,211424,0.25,-0.65,10.000000000000004,-0.03,-0.01,-0.01,30.85,23.148679,10.045328565764413,1654.339911991128,10.024220667962178,0.033166247903554,0.7471477381151344,2.2785607012417537
25106170,1926.0,1,177151.0,209339,0.35,-0.64,10.000000000000004,-0.03,-0.01,-0.0,30.85,23.188684,5.652085937014167,1333.590556258489,10.026569702545336,0.03162277660168379,0.4199553959626514,1.8365045656009227
25146185,1920.0,1,176659.0,207047,0.3,-0.66,9.95,-0.03,-0.01,-0.0,30.85,23.228699,-0.6930968013438382,623.0243568579068,9.976377097924876,0.03162277660168379,-0.05261017279571519,0.8572036173370072
25186185,1920.0,1,175707.0,205127,0.3,-0.64,9.919999999999998,-0.03,-0.01,-0.01,30.85,23.268699,0.04845691293413738,-62.71055982413244,9.945149571524803,0.033166247903554,0.0026179848795884393,-0.08787490558020315
25226185,1935.0,1,175505.0,206366,0.34,-0.65,9.919999999999998,-0.03,-0.01,-0.01,30.85,23.308699,15.14694509570354,-373.01959427019625,9.947085000139486,0.033166247903554,1.1270971290891196,-0.5155422108140318
25266170,1936.0,1,176257.0,208854,0.33,-0.65,9.97,-0.03,-0.01,-0.01,30.85,23.348684,14.618538000260417,-247.44808573967074,9.996614426894737,0.033166247903554,1.0877433374190226,-0.34247980300092346
25306165,1921.0,1,176904.0,210266,0.31,-0.66,9.98,-0.03,-0.01,-0.01,30.85,23.388679,3.1112277473922223,86.57703197956322,10.006602820138312,0.033166247903554,0.23072174501444107,0.11787296188200436
25346186,1936.0,1,177115.0,210514,0.3,-0.63,9.96,-0.03,-0.01,-0.0,30.85,23.4287,13.44826556784405,328.31467298718593,9.984412852040926,0.03162277660168379,1.0005858069851254,0.4510353066002732
25386185,1927.0,1,177192.0,210557,0.3,-0.65,10.000000000000004,-0.03,-0.01,-0.0,30.85,23.468699,10.423072638444411,337.72480778718835,10.025592251832311,0.03162277660168379,0.7752807092070465,0.4640043360034555
25426185,1922.0,1,177058.0,210278,0.3,-0.66,9.93,-0.03,-0.01,-0.0,30.85,23.508699,-0.7113494824527551,195.96524252393604,9.95643008311714,0.03162277660168379,-0.0539695644768179,0.26863158001690096
25466185,1923.0,1,177015.0,210611,0.34,-0.66,9.92,-0.03,-0.01,-0.01,30.85,23.548699,7.441710123886429,65.77395998454483,9.947743462715552,0.033166247903554,0.5532399374180914,0.08920220868728476
25506872,1932.0,1,177248.0,211195,0.29,-0.68,9.97,-0.03,-0.01,-0.01,31.01,23.589386,9.065189111441267,0.39595275996364215,9.997369654064013,0.033166247903554,0.6741506034708147,-0.0009016331850803003
25547185,1919.0,1,177310.0,211284,0.27,-0.65,10.000000000000004,-0.03,-0.01,-0.01,31.01,23.629699,5.142191585869686,-115.94792334058414,10.024739398109064,0.033166247903554,0.38198036451105527,-0.16124653600494357
25587186,1924.0,1,177235.0,210848,0.28,-0.67,9.95,-0.03,-0.01,-0.0,31.01,23.6697,0.3723518534100225,-438.9377289875555,9.976462298831184,0.03162277660168379,0.026740473242083253,-0.6063904553420638
25627185,1904.0,1,176968.0,209703,0.32,-0.63,9.97,-0.03,-0.01,-0.0,31.01,23.709699,-7.919922755929959,-963.99942673223,9.995008754373355,0.03162277660168379,-0.5908372433734306,-1.3300294617178008
25666185,1923.0,1,176452.0,208120,0.31,-0.63,9.95,-0.03,-0.01,-0.0,31.01,23.748699,-0.8798835575795022,-1448.8233437156491,9.974743104461387,0.03162277660168379,-0.06652135444907117,-1.9982128372335644
25706185,1920.0,1,176028.0,207060,0.31,-0.64,9.94,-0.03,-0.01,-0.0,31.01,23.788699,9.138400812760855,-1557.8350902234743,9.965405159851755,0.03162277660168379,0.6796031382047176,-2.1484526133685327
25746186,1925.0,1,176126.0,209007,0.32,-0.63,9.919999999999998,-0.03,-0.01,-0.01,31.01,23.8287,2.125606710887837,-1128.1456643754425,9.945134488783948,0.033166247903554,0.15731636255315723,-1.5562554858567985
25786185,1907.0,1,178085.0,215808,0.31,-0.64,9.92,-0.03,-0.01,-0.01,31.01,23.868699,-4.214639521169043,-324.08214170491215,9.945456248961131,0.033166247903554,-0.31488155360889114,-0.44809670926437867
25826170,1917.0,1,179345.0,216263,0.31,-0.69,9.98,-0.03,-0.01,-0.01,31.01,23.908684,-3.573045257032347,472.85673404230573,10.008626279365215,0.033166247903554,-0.26709800333996325,0.6502428928529097
25866165,1906.0,1,179161.0,216133,0.29,-0.66,10.000000000000004,-0.03,-0.01,-0.01,31.01,23.948679,-6.699062871938314,948.4298095335112,10.025951326432823,0.033166247903554,-0.4999121480306156,1.3056767766911825
25906186,1912.0,1,179003.0,215523,0.27,-0.64,9.92,-0.03,-0.01,-0.0,31.01,23.9887,-5.770819177402565,1057.6664512542886,9.944289818785453,0.03162277660168379,-0.4307800162162105,1.456226502969417
25946185,1915.0,1,178881.0,215892,0.32,-0.64,9.92,-0.03,-0.01,-0.0,31.01,24.028699,0.8082588455874916,979.5095728472684,9.945772971468834,0.03162277660168379,0.05920520186822861,1.3485108457908048
25986185,1920.0,1,179349.0,217242,0.35,-0.69,9.95,-0.03,-0.01,-0.0,31.01,24.068699,4.0563501829670585,907.3867090948767,9.980035070078662,0.03162277660168379,0.30111094257272825,1.2491112558246507
26026196,1917.0,1,179615.0,217400,0.3,-0.67,10.0,-0.03,-0.01,-0.0,31.01,24.10871,2.7163777747919804,893.7467924624366,10.026908795835334,0.03162277660168379,0.20131479023155252,1.2303127493608512
26066185,1915.0,1,179489.0,216190,0.3,-0.65,9.96,-0.03,-0.01,-0.0,31.01,24.148699,-1.2086805057768737,868.744579524621,9.985694768016897,0.03162277660168379,-0.09100892608221132,1.1958547483197746
26106186,1904.0,1,179037.0,214535,0.33,-0.64,9.95,-0.03,-0.01,-0.0,31.01,24.1887,-8.588858747109205,765.1483764705339,9.976021250979771,0.03162277660168379,-0.6406571035996099,1.0530786635960834
26146186,1903.0,1,178737.0,214788,0.32,-0.64,9.919999999999998,-0.03,-0.01,-0.01,31.01,24.2287,-15.090155994633484,606.9335415676989,9.945772971468832,0.033166247903554,-1.1248494993317075,0.835027287129726
26186185,1899.0,1,179033.0,215757,0.33,-0.68,9.98,-0.03,-0.01,-0.01,31.01,24.268699,-11.530670495157128,496.38873277305095,10.008581318049027,0.033166247903554,-0.859752281661584,0.6826746475451596
