timestamp_us,ecg,leads,ir,red,accX,accY,accZ,gyroX,gyroY,gyroZ,temp,time_sec,ecg_filtered,ppg_filtered,accel_magnitude,gyro_magnitude,ecg_norm,ppg_norm
1949966,1680.0,1,197933.0,240322,-0.5,-1.07,9.78,-0.28,0.02,0.06,28.27,0.030471,18.996318953459163,-4.171542634221585,9.85105578098104,0.2870540018881465,0.16193892245613975,-0.006225810276565828
1990184,1637.0,1,197738.0,240293,-1.23,-1.81,10.26,0.14,-0.18,0.12,28.27,0.070689,-22.475639858392015,115.40861701101146,10.490786433818963,0.25768197453450253,-0.18842050791665482,0.08212458469067332
2030180,1614.125,1,198107.0,240980,0.14,-0.69,9.55,0.32,-0.03,-0.09,28.27,0.110685,-45.38068827370581,240.22115973538206,9.575917710590458,0.33376638536557274,-0.3819247441611548,0.17434086437518656
2070179,1614.125,1,197979.0,240845,-0.32,-1.05,9.97,-0.05,0.04,-0.02,28.27,0.150684,-43.219013560326246,363.5167527967567,10.030244264224077,0.0670820393249937,-0.3636626908863886,0.26543636363702156
2110196,1614.125,1,198089.0,241392,-0.64,-0.77,10.08,-0.08,-0.04,0.02,28.27,0.190701,-44.85960335789856,475.8024387758569,10.129605125571283,0.0916515138991168,-0.37752256448340316,0.34839732250221034
2150199,1614.125,1,198029.0,241971,-1.04,-1.48,10.23,0.03,-0.08,0.04,28.27,0.230704,-44.14119908137937,587.7893818432756,10.388690966623274,0.09433981132056604,-0.37145341028114937,0.43113755867963033
2190180,1614.125,1,198186.0,242648,-0.55,-1.21,9.64,0.05,-0.14,-0.03,28.27,0.270685,-44.86963668373693,737.5667183337207,9.731197254192313,0.15165750888103102,-0.37760732706578864,0.5417987827098613
2230200,1614.125,1,198261.0,243389,-0.91,-0.73,10.1,-0.14,0.05,0.04,28.27,0.310705,-50.00694584007626,960.9993051896399,10.167152993832639,0.15394804318340652,-0.42100785024410653,0.7068793224569024
2270177,1614.125,1,198406.0,243904,-0.8,-0.82,9.61,-0.11,0.05,0.02,28.27,0.350682,-46.459960037752914,1238.2065702593604,9.678042157378732,0.1224744871391589,-0.3910425445087219,0.9116906509361272
2310180,1614.125,1,198202.0,244452,-1.31,-1.55,10.23,-0.07,-0.04,0.01,28.27,0.390685,-59.384465986665184,1462.400855041661,10.42935760246047,0.08124038404635961,-0.5002301177953904,1.077333962240266
2350204,1614.125,1,198587.0,245227,-0.88,-0.85,9.64,0.05,-0.0,-0.01,28.27,0.430709,-54.59412312142627,1478.3960144773118,9.7173298801677,0.050990195135927854,-0.45976080200614255,1.0891517977231444
2390200,1654.0,1,198475.0,244716,-0.98,-1.27,9.51,-0.05,0.11,0.03,28.27,0.470705,-27.702897225801053,1187.4529087351311,9.644345493604012,0.12449899597988733,-0.23258092295675828,0.8741919048648513
2430180,1705.0,1,197478.0,239415,-0.59,-0.91,9.59,-0.04,-0.1,-0.09,28.27,0.510685,16.574085396432793,642.2016255104847,9.651129467580464,0.14035668847618202,0.14147564091403153,0.47133940515076633
2470214,1759.0,1,196253.0,237723,-0.81,-0.88,9.53,0.06,-0.09,-0.09,28.27,0.550719,71.16665811397561,39.30328466583972,9.604759236961643,0.1407124727947029,0.6026793850313183,0.025895054710471724
2510196,1744.0,1,196138.0,237429,-0.72,-1.29,9.16,0.01,0.07,0.0,28.27,0.590701,27.47603815491497,-399.5571318098494,9.278367313272309,0.07071067811865477,0.23357647405146773,-0.29835180401714895
2550170,1693.0,1,196214.0,237331,-0.53,-0.93,9.64,-0.09,-0.03,-0.07,28.27,0.630675,-7.503686641504555,-561.685366394264,9.699247393483683,0.11789826122551596,-0.061935886719118635,-0.41813834388605803
2590213,1743.0,1,195887.0,237188,-1.08,-1.57,9.97,-0.05,-0.07,-0.04,28.27,0.670718,0.8099239540349346,-485.7684627858861,10.150477821265362,0.09486832980505139,0.008298362061097806,-0.3620480322625496
2630214,1683.0,1,196031.0,237128,-0.54,-0.76,9.26,-0.05,-0.11,-0.09,28.27,0.710719,-46.00337837601619,-299.29582759690595,9.306814707514059,0.15066519173319362,-0.38718529504407806,-0.22427491824091225
2668213,1754.0,1,195972.0,237519,-0.44,-1.21,10.08,-0.27,0.12,-0.08,28.27,0.748718,-8.043392816526856,-124.12265855585545,10.161894508407377,0.30610455730027936,-0.06649538073548175,-0.09485028192703422
2708200,1765.0,1,196146.0,236953,-0.77,-1.27,9.7,0.03,0.05,0.0,28.27,0.788705,-2.7264798761197038,-23.37977654915666,9.813042341700152,0.05830951894845301,-0.021577546070521078,-0.02041758806012462
2748167,1706.0,1,195839.0,236986,-0.63,-1.6,10.26,0.0,-0.1,-0.01,28.27,0.828672,-82.44019700517556,-5.046432897213432,10.403100499370368,0.1004987562112089,-0.695007336376282,-0.006872212660687438
2788200,1709.0,1,195956.0,236521,-0.91,-1.39,10.22,0.14,-0.1,-0.02,28.27,0.868705,-91.69152867643288,-51.10137566876472,10.354158584839233,0.17320508075688776,-0.7731635505362281,-0.040899365627633306
2828200,1680.0,1,195696.0,236514,-0.46,-1.74,10.03,0.03,-0.05,-0.05,28.27,0.908705,-152.4963030370732,-138.36259258657302,10.190196268963614,0.07681145747868609,-1.2868486215884418,-0.10537128975687683
2868200,1674.0,1,195594.0,236022,-0.69,-1.28,10.12,0.05,-0.05,-0.07,28.27,0.948705,-149.9928963234092,-243.48489751697892,10.223937597618638,0.099498743710662,-1.2656995807589522,-0.1830396687590632
2908200,1843.0,1,195178.0,235710,-0.7,-1.39,10.29,-0.09,0.02,0.04,28.27,0.988705,-43.685375096674036,-346.0297763696481,10.407026472532872,0.1004987562112089,-0.3676025617510341,-0.2588037468082948
2948179,1806.0,1,195087.0,235461,-0.64,-1.77,10.33,0.06,-0.07,-0.07,28.27,1.028684,-43.9254553987901,-437.84203720223684,10.500066666455028,0.11575836902790226,-0.36963078516519016,-0.32663815622420295
2988886,1899.0,1,194838.0,235301,-0.85,-1.1,10.65,0.04,-0.03,0.02,27.23,1.069391,-36.65511587744576,-526.0104880146274,10.740344500992508,0.05385164807134504,-0.3082101991525731,-0.3917803794494822
3029180,1889.0,1,195054.0,234589,-0.54,-1.47,10.28,0.04,0.03,-0.05,27.23,1.109685,1.700423272290309,-613.8337489783967,10.398600867424424,0.07071067811865477,0.01582139311219342,-0.4566675632137434
3069180,1946.0,1,194573.0,233299,-0.72,-1.04,10.31,-0.13,0.02,0.06,27.23,1.149685,-29.16905582821363,-670.9262706187658,10.387304751474273,0.14456832294800961,-0.2449671836373281,-0.49884970155146674
3109179,1875.0,1,194563.0,233347,-0.99,-1.55,10.25,-0.09,0.08,0.09,27.23,1.189684,-56.545694100096036,-628.5860263647672,10.413697710227622,0.15033296378372907,-0.4762478770324474,-0.4675671099079351
3149200,1999.0,1,194799.0,234033,-0.44,-1.23,10.13,-0.01,0.05,-0.01,27.23,1.229705,-11.53084854939162,-423.0276251361675,10.213882709332433,0.05196152422706632,-0.09595777023968023,-0.3156927020524763
3189200,2004.0,1,195074.0,234559,-0.78,-1.08,9.73,-0.07,0.07,0.02,27.23,1.269705,28.90618516487148,-64.56343068243308,9.820778991505716,0.10099504938362078,0.24565850504573394,-0.05084564669179071
3229177,2027.0,1,195316.0,235201,-0.54,-1.91,9.67,0.01,0.09,-0.05,27.23,1.309682,-16.333350925370496,321.4227395638441,9.871605745774088,0.10344080432788601,-0.13652981084295948,0.23433569688831082
3269180,2054.0,1,195510.0,235354,-0.54,-0.7,9.48,-0.07,-0.02,-0.0,27.23,1.349685,35.74299262816713,527.5536180811163,9.521134386195795,0.07280109889280519,0.30341656704796166,0.38663307285749393
3309213,2232.0,1,195214.0,234929,-0.88,-1.44,9.33,-0.24,-0.01,0.04,27.23,1.389718,165.00542416588888,374.76411859302493,9.481397576306987,0.2435159132377184,1.3954390607917777,0.27374634761253575
3349238,2163.0,1,194836.0,234094,-1.28,-1.53,9.71,0.17,-0.05,0.07,27.23,1.429743,97.00159889174772,-151.98793941736352,9.912789718338628,0.19052558883257653,0.8209356573159186,-0.1154382170601801
3389179,2009.0,1,194221.0,233135,-1.16,-2.38,10.89,0.44,0.21,0.01,27.23,1.469684,-67.82819623940566,-833.6627523493358,11.2072342707735,0.48764741360946434,-0.5715636310010965,-0.6190856376727305
3429171,2031.0,1,193585.0,232392,-1.3,-1.91,11.4,0.44,0.27,-0.18,27.23,1.509676,-84.2490660806577,-1291.8783705661613,11.631771146304418,0.5467174773134658,-0.7102888508516431,-0.9576328596342963
3469179,2129.0,1,193147.0,232063,-0.93,-0.65,11.71,0.42,0.18,-0.265,27.23,1.549684,48.89493704940569,-1203.4993447435797,11.76484169039261,0.5282281703960893,0.4145255642531533,-0.8923350555386135
3509179,2259.125,1,194009.0,233921,-1.7,-0.13,10.92,-0.18,0.13,0.02,27.23,1.589684,106.89575723793634,-530.6631220838449,11.052298403499607,0.22293496809607952,0.9045225382229828,-0.3952179234272869
3549199,2129.0,1,195082.0,235964,-1.02,-0.51,10.13,-0.52,-0.02,0.13,27.23,1.629704,38.83796819176126,411.6048287822679,10.193988424556897,0.5363767332761555,0.3295632431767171,0.3009656731741483
3589200,2207.0,1,196090.0,238429,-1.35,-0.88,8.76,-0.52,-0.16,0.12,27.23,1.669705,41.84168716064556,1133.6556176868983,8.906991635788147,0.5571355310873648,0.35493897408233155,0.8344444089058227
3629199,2195.0,1,195946.0,239317,-2.02,-0.43,8.93,-0.46,-0.18,0.255,27.23,1.709704,83.67501077599192,1285.8739292361972,9.165707828640404,0.5559001708940194,0.7083512519775627,0.9469091186580557
3669200,2259.125,1,195515.0,234132,-1.11,-1.26,8.25,-0.11,-0.14,-0.03,27.23,1.749705,102.32541472490199,876.7885575300971,8.41915672736884,0.18055470085267789,0.8659118083382468,0.6446612016726515
3709213,2259.125,1,194046.0,233036,-1.3,-0.67,8.81,0.06,-0.04,-0.04,27.23,1.789718,125.77089306283638,233.29236437153892,8.930565491613619,0.0824621125123532,1.0639816528942514,0.16922160538725026
3749199,2259.125,1,194292.0,233149,-0.72,-0.79,8.69,0.11,0.14,-0.1,27.23,1.829704,117.92484229943646,-247.6990160309758,8.755489706464168,0.2042057785666214,0.9976973983064195,-0.18615322067482384
3789180,2259.125,1,194095.0,233041,-0.79,-0.71,9.14,0.04,0.08,0.06,27.23,1.869685,116.99947346041571,-349.20150275030494,9.201510745524347,0.10770329614269007,0.9898797859096933,-0.26114713955246244
3829171,2259.125,1,194514.0,233621,-0.64,-1.03,9.59,0.12,0.06,-0.13,27.23,1.909676,129.30007793756832,-111.38912585528502,9.666364363089155,0.18681541692269404,1.0937965745380784,-0.08544226100816851
3869180,2259.125,1,194445.0,233847,-0.74,-0.66,9.54,0.17,0.08,-0.04,27.23,1.949685,127.22114489545271,269.25898203877404,9.591391974056737,0.19209372712298547,1.0762335315257319,0.19579511796628765
3909179,2259.125,1,194773.0,234430,-0.5,-0.61,10.4,-0.06,0.19,-0.13,27.23,1.989684,135.20194798641498,593.0342238194323,10.42986577094835,0.23790754506740638,1.143656187821097,0.4350126485064792
3949197,2187.0,1,194724.0,234499,-0.85,-0.69,9.87,-0.09,0.07,-0.04,27.23,2.029702,79.21629571165765,746.1363110822713,9.930533721809718,0.12083045973594572,0.670683562413588,0.5481303255534989
3989886,2054.0,1,194734.0,234741,-0.84,-0.24,10.27,-0.27,-0.05,0.14,27.81,2.070391,-61.763777537132356,707.0065940797815,10.307089792953198,0.3082207001484488,-0.520330789752628,0.5192197942213552
4028202,1997.0,1,194779.0,234460,-1.23,-0.83,10.26,-0.1,0.04,0.15,27.81,2.108707,-85.25579965671625,518.7601762028781,10.36674490860077,0.1846618531261939,-0.7187938410269382,0.3801361417163356
4068213,2095.0,1,194277.0,233963,-1.18,-0.78,10.07,-0.03,-0.16,0.07,27.81,2.148718,1.4429883137261204,264.6723629287308,10.16885932639448,0.17720045146669353,0.013646555751609946,0.19240634836488532
4108199,2066.0,1,193853.0,234207,-0.99,-0.44,9.26,-0.23,-0.16,0.03,27.81,2.188704,-2.0472651674212523,39.310209089608996,9.32315933576167,0.28178005607210743,-0.015839469421669614,0.025900170739558415
4148199,2006.0,1,193581.0,234708,-0.93,-0.86,9.71,-0.48,-0.1,0.07,27.81,2.228704,-44.881563426165876,-98.54971535423847,9.792272463529597,0.49527769988159165,-0.3777080854288688,-0.07595601352129956
4188217,2022.0,1,193469.0,235448,-1.1,-0.73,9.52,-0.42,-0.24,0.05,27.81,2.268722,-45.59249426245705,-167.0440107844813,9.611102954396024,0.48631265663151313,-0.38371410322917227,-0.12656221836513087
4228200,1930.0,1,193366.0,236447,-1.09,-0.47,9.15,-0.42,-0.29000000000000004,0.08,27.81,2.308705,-65.0352854693547,-249.28679277714332,9.226673289978356,0.5166236541235796,-0.5479688297302805,-0.18732633085514036
4268199,1964.0,1,193433.0,234415,0.19,-1.26,10.1,-0.4,-0.23,0.05,27.81,2.348704,-105.49673690751058,-418.69882817456636,10.180063850487382,0.46411205543489176,-0.8897913884920283,-0.312494421314057
4308179,1841.0,1,192739.0,231942,-1.15,-0.98,9.16,-0.22,-0.25,-0.02,27.81,2.388684,-103.34641062747515,-658.6353643840833,9.283776171364753,0.3336165463522455,-0.8716252079649206,-0.48976870999265687
4348213,1966.0,1,192271.0,230669,-1.53,-1.4,10.09,-0.07,0.0,0.11,27.81,2.428718,-90.34099480438512,-852.7586104584241,10.300922288805017,0.130384048104053,-0.7617540996285318,-0.6331943879134194
4388199,1862.0,1,192178.0,231785,-1.06,-1.69,9.01,0.17,0.12,-0.19,27.81,2.468704,-54.61940070922547,-862.2909741663467,9.228206759712311,0.28178005607210743,-0.45997434970237516,-0.6402372627604251
4428179,2033.0,1,192756.0,231343,-1.01,-0.9,10.37,0.13,0.14,-0.15,27.81,2.508684,14.893871191847724,-625.1156905620755,10.457867851526906,0.2428991560298224,0.12728101619680016,-0.4650030931032545
4468179,1891.0,1,192821.0,231528,-0.52,-1.87,9.8,0.09,0.27,-0.15,27.81,2.548684,-24.454042487515725,-196.67001119388928,9.990360353861117,0.32171415884290827,-0.20513425952246864,-0.14845104043424515
4508179,1853.0,1,193142.0,231439,-0.44,-1.2,9.96,0.12,0.03,-0.15,27.81,2.588684,-110.01676155070453,287.2252266659649,10.041673167356127,0.1944222209522358,-0.9279770277680752,0.2090692665675237
4548179,1788.0,1,193250.0,231521,-0.62,-1.75,9.71,-0.01,0.08,0.03,27.81,2.628684,-137.6135272695152,684.0136646239013,9.885899048644996,0.08602325267042626,-1.1611173807771784,0.502231738636652
4587177,1785.0,1,193632.0,231647,-0.09,-1.37,9.54,-0.05,0.1,0.05,27.81,2.667682,-128.08959078982716,905.1975894046778,9.638288229763623,0.12247448713915891,-1.0806581727839297,0.6656508808485494
4627179,1867.0,1,193597.0,231320,-0.98,-1.45,9.41,-0.01,-0.19,0.02,27.81,2.707684,-59.225375561918455,940.3488140926443,9.571363539224702,0.19131126469708992,-0.49888610530625516,0.6916219499119933
4667200,1865.0,1,193129.0,231095,-0.87,-1.9,9.76,-0.0,-0.29000000000000004,-0.04,27.81,2.747705,-20.70718859704512,839.7472505445226,9.98120734179989,0.292745623366089,-0.1734804473475724,0.6172936675266246
4707214,1872.0,1,192848.0,230690,-0.09,-1.16,9.39,-0.2,-0.26,-0.03,27.81,2.787719,-36.59844700308959,665.1459887148424,9.46180743832805,0.3293933818400121,-0.30773145459581436,0.4882915781315589
4747213,1858.0,1,192486.0,230892,-0.49,-2.04,9.73,-0.09,-0.13,-0.22,27.81,2.827718,-23.541651427585613,440.2592717709376,9.953622456171422,0.2709243436828813,-0.19742628475608273,0.32213667146622266
4787222,1845.0,1,192155.0,230289,-0.84,-1.22,10.13,0.03,-0.28,0.11,27.81,2.867727,-35.060549881526136,143.21907613535427,10.237719472616938,0.3023243291566195,-0.2947391394286572,0.10267201542789174
4827180,1783.0,1,191700.0,229860,-0.05,-2.02,10.24,-0.09,-0.04,0.05,27.81,2.907685,-105.21723111902642,-245.99161112419642,10.437456586736062,0.11045361017187261,-0.8874300944599937,-0.18489172463459028
4867200,1753.0,1,191221.0,229277,-0.25,-2.34,10.05,0.21,0.03,-0.13,27.81,2.947705,-102.48308146927889,-684.0160279851881,10.321850609265763,0.24879710609249456,-0.8643317132577588,-0.5085209148763173
4907179,1871.0,1,190467.0,227271,-0.27,-1.94,10.72,0.18,-0.07,-0.18,27.81,2.987684,-20.020008449851588,-1053.1259190798248,10.897472183951653,0.2640075756488817,-0.1676750778441329,-0.7812334180313153
4947200,1855.0,1,190012.0,225283,-0.12,-1.24,11.22,-0.05,0.07,-0.04,27.81,3.027705,8.982810938292692,-1224.3616803669192,11.288950349788948,0.09486832980505139,0.07734376310657497,-0.907748946921009
4987222,1881.0,1,190243.0,225458,0.02,-2.21,10.16,-0.16,0.03,-0.02,27.81,3.067727,-2.8860090373366054,-1144.7722341598933,10.397600684773387,0.16401219466856726,-0.022925265051082742,-0.8489452203791129
5027867,1863.0,1,190565.0,225654,-0.21,-1.35,9.48,-0.09,-0.18,0.1,27.05,3.108372,13.092049245852499,-868.6123243237598,9.577943411818636,0.22472205054244232,0.11205903660581713,-0.644907717999744
5068200,1932.0,1,190672.0,225791,-0.3,-1.64,9.55,-0.29,-0.03,0.15,27.05,3.148705,57.20293995598184,-504.22789009376976,9.694436548866573,0.32787192621510003,0.4847124386925575,-0.37568656308872567
5108199,1920.0,1,190931.0,226139,-0.36,-1.95,9.11,-0.17,-0.04,-0.05,27.05,3.188704,66.80570055568683,-130.81518027583246,9.323314861142467,0.1816590212458495,0.5658375610669925,-0.09979497291123267
5148213,1982.0,1,191143.0,227024,0.01,-1.92,9.01,0.15,-0.15,-0.01,27.05,3.228718,103.8003041484606,234.93859443850243,9.212306985766377,0.21236760581595301,0.8783718279058103,0.17043790311636078
5188194,1994.0,1,191412.0,227552,-0.11,-0.59,8.97,-0.07,-0.1,-0.04,27.05,3.268699,150.3868452717837,597.1971968549839,8.990055617180575,0.1284523257866513,1.2719397827028238,0.43808841218684325
5228213,1975.0,1,191474.0,227729,0.04,-1.76,8.66,-0.22,0.06,0.06,27.05,3.308718,77.3785151414226,915.7435479429006,8.837126229719704,0.23579652245103191,0.6551578006173127,0.6734426383183869
5268171,1913.0,1,191924.0,228316,0.4900000000000001,-1.33,8.36,-0.18,0.09,-0.07,27.05,3.348676,85.88885549389704,1092.7149891964832,8.47930421673854,0.21307275752662516,0.727054042887873,0.8041959069129642
5308177,2033.0,1,191841.0,227679,-0.47,-1.45,9.93,0.14,0.01,0.12,27.05,3.388682,116.78512049917302,1036.212502256569,10.046307779477992,0.1846618531261939,0.9880689097526151,0.762449708776226
5348170,1827.0,1,191345.0,227081,-0.32,-2.04,9.82,0.42,-0.13,-0.12,27.05,3.428675,1.998513797540932,746.3976256289076,10.034759588550191,0.4557411546042336,0.01833969293738737,0.5483233947338253
5388200,1854.0,1,190723.0,226288,0.35,-2.43,10.75,0.44,-0.01,-0.265,27.05,3.468705,-59.74078613094949,339.85294668887633,11.026781035279516,0.5137363136863112,-0.5032403475110441,0.24795263872594897
5428179,1766.0,1,190223.0,225636,0.18,-1.63,10.93,0.32,0.19,-0.26,27.05,3.508684,-81.54420035944862,-16.564149717449872,11.052339118937674,0.45398237851264667,-0.6874378633297588,-0.015381942311556563
5468171,1840.0,1,190144.0,225771,-0.35,-1.25,11.71,0.06,0.13,0.06,27.05,3.548676,-52.69558298985986,-204.3759158102397,11.781727377596209,0.15524174696260024,-0.44372173710319857,-0.1541444574563855
5506171,1895.0,1,190647.0,225852,-0.02,-2.06,10.32,-0.25,-0.14,0.07,27.05,3.586676,15.946683707904695,-201.88008552072253,10.523611547372889,0.29495762407505255,0.13617528605968549,-0.15230044259217865
5546199,1889.0,1,190317.0,224245,-0.43,-1.67,10.64,-0.19,-0.18,0.16,27.05,3.626704,13.218461951362817,-61.38315561498477,10.77884038289834,0.30675723300355934,0.11312698431707457,-0.04849593785090005
5586200,1953.0,1,190221.0,223500,-0.54,-1.6,10.45,-0.14,0.09,0.1,27.05,3.666705,56.351630669392264,135.23465467196493,10.585560920423632,0.194164878389476,0.4775204891134756,0.09677281950803188
5626180,1984.0,1,190436.0,224478,-0.83,-1.73,10.19,-0.16,-0.05,-0.02,27.05,3.706685,105.09659078973806,298.03459637334174,10.369083855384718,0.16881943016134132,0.8893229925541521,0.21705564228258342
5666216,1991.0,1,190963.0,225110,-0.62,-1.37,9.37,-0.33,-0.19,0.2,27.05,3.746721,95.93939053773819,341.33367743650024,9.489899894097935,0.4301162633521314,0.811962010434748,0.24904665922885538
5706200,2000.0,1,190675.0,225274,-0.12,-1.89,9.09,-0.27,-0.04,0.255,27.05,3.786705,103.08352849408269,218.69191535770844,9.285181742970893,0.3735304539123952,0.8723164324731458,0.15843423530095865
5746200,2035.0,1,190440.0,224991,-0.76,-1.7,9.36,0.17,0.24,0.11,27.05,3.826705,147.85554099901748,-35.36564719321123,9.54343753581486,0.31400636936215165,1.2505550603864726,-0.02927320765931348
5786171,2084.0,1,189865.0,224816,0.19,-2.52,9.28,0.24,0.24,-0.265,27.05,3.866676,169.48633307680115,-309.1029136250697,9.617946766332198,0.4306100323959023,1.4332942462847515,-0.2315207684441278
5826171,1922.0,1,189900.0,225619,0.19,-1.7,10.66,0.1,0.07,-0.265,27.05,3.906676,34.74901665500944,-478.3116974856342,10.79637439143345,0.2917618892179032,0.2950193544316081,-0.35653868889480544
5866167,1823.0,1,190036.0,226008,0.49,-1.77,10.21,-0.15,0.12,-0.26,27.05,3.946672,-99.17193809880959,-481.01485331479216,10.373866203108657,0.3232645975048923,-0.8363588289668734,-0.35853588379630613
5906179,1883.0,1,190229.0,226575,-0.18,-1.57,10.28,-0.1,-0.1,0.22,27.05,3.986684,-17.420783395199052,-338.95439466536016,10.400754780303206,0.2615339366124404,-0.1457165536835012,-0.25357618422623784
5946200,1983.0,1,190588.0,227406,-0.27,-2.34,9.55,0.08,0.23,0.07,27.05,4.026705,62.85881108683435,-119.69168330607998,9.836208619178429,0.25337718918639857,0.5324938274776262,-0.09157650796177819
5986170,1991.0,1,190700.0,227582,-0.5,-1.55,9.33,0.24,0.27,-0.08,27.05,4.066675,67.54850640099734,107.62956433909609,9.471082303517376,0.37,0.5721128622655991,0.07637712308773108
6026200,2081.0,1,190816.0,227736,-0.18,-1.7,9.9,0.21,0.27,-0.14,27.05,4.106705,165.5921543678203,274.3333500645409,10.046511832472005,0.3695943722515266,1.4003958186884524,0.1995442551192711
6066866,2086.0,1,190801.0,227682,-0.73,-1.06,10.05,0.02,0.12,-0.0,26.93,4.147371,138.56852741268364,285.43448760723857,10.132077773092744,0.1216552506059644,1.172097401689085,0.20774620006894137
6107177,1868.0,1,190739.0,227771,-0.86,-1.43,10.22,0.0,0.04,0.15,26.93,4.187682,-50.802348533136346,26.367455429149672,10.355331959913212,0.15524174696260024,-0.42772749509430064,0.016337569374434334
6147171,1875.0,1,190603.0,226488,-1.01,-1.57,9.46,0.0,0.17,0.11,26.93,4.227676,-88.44892477417658,-560.627671443925,9.64243745118422,0.2024845673131659,-0.7457696948161923,-0.41735687840805114
6187171,1845.0,1,189557.0,223306,-1.66,-1.5,10.52,0.06,0.27,0.06,26.93,4.267676,-90.04255875699158,-1379.2546029107846,10.755277774190677,0.28301943396169815,-0.7592328807962632,-1.0221897615593263
6227171,1787.0,1,188488.0,220608,-1.89,-1.11,10.8,0.02,0.24,0.12,26.93,4.307676,-186.7017856334006,-2161.732956039133,11.020172412444373,0.2690724809414742,-1.5758201035588364,-1.6003146926290293
6267170,1725.0,1,188131.0,220664,-2.5,-1.18,11.1,-0.0,0.27,0.12,26.93,4.347675,-231.11128924317933,-2579.579360215508,11.43907338904686,0.29546573405388316,-1.950996218544135,-1.909035595445578
6307179,1808.0,1,188768.0,221956,-2.48,-1.12,11.28,-0.17,0.27,0.15,26.93,4.387684,-180.91501228007516,-2417.259517224496,11.603585652719593,0.3525620512760839,-1.5269328391552994,-1.7891074879583269
6347179,1840.0,1,189298.0,223528,-2.17,-1.71,10.6,-0.06,0.01,-0.15,26.93,4.427684,-132.64252229108644,-1685.873635401022,10.95413164061853,0.16186414056238646,-1.1191218126265625,-1.2487316285827086
6387200,1829.0,1,190359.0,225944,-2.09,-0.43,10.0,-0.23,-0.14,0.02,26.93,4.467705,-183.85030493263093,-606.7588295403028,10.225116136259773,0.27,-1.5517304974089772,-0.4514403421716288
6427200,1769.0,1,191746.0,227787,-1.5,-0.45,9.18,-0.4,-0.14,0.03,26.93,4.507705,-218.01911140372033,505.8558782061695,9.312620469019448,0.4248529157249601,-1.840392135650867,0.3706019528662238
6467199,1877.0,1,192316.0,228946,-1.48,-0.39,8.09,-0.21,-0.29000000000000004,0.01,26.93,4.547704,-159.3871664611183,1379.4072733761013,8.233504721562987,0.35818989377144633,-1.3450633539809531,1.016015130239607
6507200,1950.0,1,192668.0,229880,-1.4,-0.02,7.710000000000001,0.0,-0.29000000000000004,-0.03,26.93,4.587705,-60.13897513259455,1867.7078532552423,7.836102347468415,0.29154759474226505,-0.5066042896973777,1.376790272395673
6547200,2079.0,1,193056.0,230908,-1.34,0.02,7.710000000000001,-0.04,-0.2,-0.06,26.93,4.627705,30.18946192210023,1969.9208174743687,7.825605407890179,0.212602916254693,0.25649976083770365,1.4523091192204616
6587197,2047.0,1,193229.0,230416,-1.25,-0.41,7.710000000000001,0.07,0.04,-0.06,26.93,4.667702,1.1901803626051508,1801.0633107931658,7.821425701238875,0.1004987562112089,0.011510807832147191,1.3275507357835463
6627179,1987.0,1,192452.0,229503,-0.84,-1.08,8.45,0.44,0.03,-0.265,26.93,4.707684,-65.42396538340293,1528.241313021903,8.560052569932033,0.5145143341054746,-0.5512524381535308,1.1259794104871665
6667179,2012.0,1,191905.0,229042,-1.49,-0.78,10.03,0.39,0.18,-0.14,26.93,4.747684,-70.62782799492312,1283.923149855629,10.170024582074518,0.4517742799230607,-0.5952152118576146,0.9454678082493853
6707179,2030.0,1,191879.0,229470,-0.72,-0.61,10.14,0.04,0.12,-0.25,26.93,4.787684,-30.97705808241899,1097.114544567127,10.183815591417591,0.28017851452243797,-0.2602413751162004,0.807446466669949
6747179,2120.0,1,192102.0,229119,-1.32,-0.39,10.09,-0.34,0.02,0.15,26.93,4.827684,14.690448406602158,902.8586341599806,10.183447353426049,0.3721558813185679,0.12556247930572095,0.6639227712667194
6787179,2077.0,1,191668.0,226745,-1.38,-1.25,9.77,-0.32,-0.08,0.15,26.93,4.867684,-5.471202199243496,637.0823252271441,9.945843352878628,0.36235341863986875,-0.044765246319353885,0.46755707032757415
6827199,2125.0,1,190932.0,224820,-1.8,-1.1,9.87,-0.09,-0.15,0.03,26.93,4.907704,12.970102578004974,332.7686570073442,10.092913355419237,0.17748239349298847,0.11102881844619865,0.2427184945896424
6867200,2161.0,1,190641.0,224229,-1.17,-0.73,9.32,-0.07,-0.11,-0.11,26.93,4.947705,52.901249137345175,117.1220409883088,9.421475468311744,0.1705872210923198,0.4483713063217678,0.08339052785038871
6907213,2163.0,1,190667.0,224199,-1.18,-0.92,9.56,-0.11,0.06,-0.03,26.93,4.987718,47.673897864462276,103.09764927804291,9.676383621994324,0.12884098726725127,0.40421009795843404,0.07302877092973169
6945199,2217.0,1,190838.0,224360,-0.85,-0.83,9.15,-0.22,-0.12,-0.02,26.93,5.025704,94.69894447051394,273.9873907018601,9.22680334677184,0.2513961017995307,0.8014825927758775,0.19928864711183786
6985212,2240.0,1,190937.0,224550,-0.72,-0.99,8.83,-0.07,-0.19,0.0,26.93,5.065717,114.96634321467826,467.4206618591962,8.91444894539197,0.2024845673131659,0.9727036896948524,0.34220454517768384
7025224,2224.0,1,190847.0,224201,-0.9,-0.98,8.77,-0.06,-0.15,-0.02,26.93,5.105729,103.49586370151313,477.3342923134917,8.870360759292712,0.16278820596099705,0.8757998832803138,0.3495291144774303
7065213,2239.0,1,190407.0,223362,-0.72,-1.65,9.57,0.04,-0.07,-0.14,26.93,5.145718,101.99584539945134,198.33221041456292,9.737853973027116,0.16155494421403513,0.8631275723281493,0.14339170668684784
7105886,2170.0,1,189860.0,222368,-0.7,-1.41,10.07,0.05,-0.11,-0.18,26.67,5.186391,59.612218116512096,-290.102919532439,10.19230101596298,0.216794833886788,0.5050662716948168,-0.21748284620485897
7146199,2224.0,1,189276.0,221616,-1.13,-1.02,10.66,0.05,0.03,-0.08,26.67,5.226704,82.81404581873791,-756.5837470315338,10.768142829661947,0.09899494936611665,0.701077730286365,-0.5621367208648476
7186179,2225.0,1,189049.0,221375,-1.23,-1.64,11.34,0.07,0.06,0.02,26.67,5.266684,125.34448328404513,-949.2711797556764,11.523805794962009,0.09433981132056604,1.0603792986413338,-0.7045015649736668
7226170,2207.0,1,189081.0,221623,-1.06,-1.65,10.82,-0.04,-0.12,-0.05,26.67,5.306675,74.87322761594272,-748.085054250526,10.996294830532692,0.13601470508735444,0.6339928704935789,-0.5558575616286089
7266216,2150.0,1,189328.0,222761,-1.49,-1.67,10.95,-0.01,0.06,-0.03,26.67,5.346721,58.67491272033816,-245.28517015432342,11.176381346392937,0.06782329983125268,0.4971478180191972,-0.18436977903011467
7306199,2185.0,1,190029.0,224075,-1.56,-0.68,11.71,-0.19,0.1,0.15,26.67,5.386704,76.79580746707812,301.02880653157257,11.833008915740747,0.2619160170741759,0.6502350254529323,0.21926787925299257
7346179,2132.0,1,190495.0,224404,-1.49,-2.22,10.24,-0.01,0.07,-0.0,26.67,5.426684,45.34062856815931,618.6824913992274,10.583293438245015,0.07071067811865477,0.3844983957630356,0.4539625694433899
7386199,2096.0,1,190242.0,222652,-1.43,-0.96,9.9,-0.16,-0.26,0.09,26.67,5.466704,25.460313009645382,579.1168190748253,10.048706384405905,0.31827660925679097,0.21654741793939045,0.4247299376474795
7426199,2146.0,1,189493.0,220678,-1.23,-1.21,9.57,-0.32,-0.29,0.05,26.67,5.506704,63.247264303479014,248.01882083603385,9.724294318869623,0.43474130238568315,0.5357755207375842,0.18010207459690852
7466200,2117.0,1,189109.0,219923,-1.67,-1.15,10.38,-0.27,-0.29,0.16,26.67,5.546705,89.50809906836115,-202.31927766813814,10.576190240346474,0.42731721238442993,0.7576297898132216,-0.15262493454641082
7506203,2096.0,1,188708.0,219228,-1.37,-2.81,10.21,0.25,0.13,-0.18,26.67,5.586708,26.817794861463494,-633.5236930874274,10.677879002873183,0.33436506994600973,0.22801556610432566,-0.4712152469104099
7546179,2045.0,1,188596.0,218594,-0.58,-0.58,10.06,0.13,-0.19,-0.06,26.67,5.626684,51.44674257238142,-1009.6010564036517,10.093383971691555,0.23790754506740638,0.4360834832679754,-0.7490755849949381
7586200,2162.0,1,188004.0,217532,-1.24,-1.69,10.69,-0.2,-0.05,-0.11,26.67,5.666705,126.79072029958559,-1346.8199085126585,10.893566908960535,0.23366642891095848,1.0725972596797213,-0.9982257689604053
7626213,1970.0,1,187906.0,216990,-1.1,-1.87,10.31,0.03,-0.0,0.13,26.67,5.706718,-6.371416985938028,-1614.2997477683748,10.535796125590132,0.13341664064126335,-0.052370354660398376,-1.195850103249026
7665179,1925.0,1,187535.0,216302,-0.44,-2.72,10.43,0.22,0.06,-0.23,26.67,5.745684,-59.85539814779632,-1694.439272310587,10.787812567893456,0.3238826948140329,-0.5042086017745697,-1.2550602487012232
7705179,2003.0,1,187850.0,217477,-0.51,-0.42,10.33,0.32,-0.13,-0.08,26.67,5.785684,37.42777072002619,-1446.2243953290363,10.351106221076083,0.3545419580247167,0.31764974796054546,-1.0716696052773842
7745198,1936.0,1,188546.0,219303,0.02,-2.14,9.6,-0.3,0.25,-0.26,26.67,5.825703,-1.3755646695683292,-813.8686729601106,9.835649444749441,0.46914816422959604,-0.010164873609194462,-0.6044610148486829
7785180,1905.0,1,189746.0,221646,0.18,-0.68,9.45,-0.43,-0.28,-0.04,26.67,5.865685,-40.24086686566953,116.01486286255044,9.476143730442251,0.5146843692983109,-0.33850299721866683,0.08257250231003113
7825199,1863.0,1,190919.0,224349,-0.17,-1.65,8.68,-0.52,-0.07,0.18,26.67,5.905704,-42.83137899661379,1151.4166744591882,8.837069650059345,0.5547071299343466,-0.3603879136917244,0.8475669568730008
7865200,1857.0,1,191756.0,225892,0.04,-0.93,8.31,-0.5,-0.15,0.16,26.67,5.945705,-57.34201359542499,2079.851717287589,8.361973451285289,0.545985347788748,-0.48297526712376077,1.5335302720138393
7905179,1884.0,1,192330.0,227374,-0.55,-2.39,8.44,-0.18,-0.06,0.0,26.67,5.985684,-2.623870132110922,2722.1726626354916,8.789095516604652,0.18973665961010275,-0.020710688258843715,2.008101550272539
7945199,1953.0,1,192649.0,228062,0.0,-1.22,8.11,0.09,-0.19,-0.08,26.67,6.025704,69.6636889849394,2929.615362166125,8.20124990474013,0.22494443758403987,0.58998214518533,2.161368149773457
7985179,1987.0,1,192669.0,227154,0.07,-2.07,8.43,-0.05,0.07,-0.09,26.67,6.065684,114.23660366032729,2573.927690994032,8.68070849643046,0.12449899597988733,0.9665387738840795,1.8985724959939079
8025207,1941.0,1,191771.0,224071,-0.43,-1.41,9.02,0.07,-0.06,0.01,26.67,6.105712,82.5900845199543,1591.1663117002233,9.139660825216655,0.09273618495495704,0.6991856818923318,1.1724708059079136
8065200,1902.0,1,190310.0,220522,0.0,-2.16,9.53,0.29,0.01,-0.01,26.67,6.145705,37.592938589900164,73.1869348955379,9.771719398345411,0.2903446228191595,0.319045103339525,0.050929591289173785
8105166,1819.0,1,188710.0,217042,-0.83,-1.64,10.48,0.44,0.15,0.02,26.67,6.185671,-20.69613832701962,-1671.685758852076,10.63996710521231,0.46529560496527367,-0.17338709351470516,-1.238249082811197
8145858,1673.0,1,187661.0,213045,-1.13,-2.63,11.71,0.44,0.27,-0.07,26.87,6.226363,-189.15075699073202,-3172.8897998030097,12.054787430726435,0.5209606511052443,-1.5965092688246143,-2.3473960377736183
8186179,1614.125,1,186673.5,209296,-0.95,-1.8,11.71,0.44,0.27,-0.265,26.87,6.266684,-217.61626000931741,-3980.7208320714917,11.885562670736293,0.5802801047769948,-1.8369888050845866,-2.944252497737026
8226179,1714.0,1,186673.5,210346,-1.31,-2.28,11.71,0.2,0.17,-0.265,26.87,6.306684,-145.0974027862979,-3891.8479335526117,12.001608225567107,0.3729946380311653,-1.2243419411346121,-2.8785898016064855
8266184,1623.0,1,187634.0,216759,-1.08,-0.76,11.71,-0.08,0.08,0.1,26.87,6.346689,-219.8404234072185,-3067.1891165660895,11.784230988910563,0.150996688705415,-1.8557787692789465,-2.269300330760058
8306179,1614.125,1,189874.0,219919,-1.12,-2.09,10.7,-0.35,0.08,0.14,26.87,6.386684,-237.4686636266198,-1932.2439499615107,10.959584846151792,0.38535697735995383,-2.0047039799198116,-1.430759438749542
8344179,1662.0,1,190607.0,221787,-1.18,-0.98,9.22,-0.15,-0.24,0.23,26.87,6.424684,-206.50548952853066,-903.3575256928771,9.34672135029177,0.3646916505762094,-1.7431238580655204,-0.6705788015079532
8384200,1614.125,1,191367.0,223624,-1.13,-0.65,9.22,-0.17,-0.29000000000000004,0.255,26.87,6.464705,-238.463308625702,-139.64356273727765,9.311702314829443,0.42193008899579565,-2.0131068445369036,-0.10631771949147294
8424199,1695.0,1,192008.0,225210,-0.75,-1.38,8.09,-0.24,-0.29000000000000004,0.03,26.87,6.504704,-194.54327842650207,480.94474186782304,8.241055757607759,0.37762415176998415,-1.642065851938542,0.35219665268009553
8464220,1843.0,1,192736.0,227282,-0.72,-0.85,8.5,-0.12,-0.2,0.1,26.87,6.544725,-36.304521972538296,1149.3148482157387,8.57268336053537,0.25377155080899044,-0.30524834530398054,0.8460140472656529
8504197,1968.0,1,193677.0,229664,-1.12,-0.41,8.49,-0.18,0.01,0.05,26.87,6.584702,73.43476034765827,1871.5733380029674,8.573365733479472,0.18708286933869708,0.6218405490897962,1.3796462403523522
8544179,1955.0,1,194665.0,232074,-1.12,-0.1,8.39,-0.37,-0.29000000000000004,0.14,26.87,6.624684,25.974038706601267,2403.0628288369508,8.465016243339408,0.49050993873722887,0.22088742616928617,1.7723310015655067
8584199,1955.0,1,195060.0,232254,-0.11,-1.12,7.92,-0.38,-0.29000000000000004,-0.09,26.87,6.664704,57.612511917548964,2429.9778779998087,7.999556237692189,0.4864154602806124,0.48817254531067844,1.7922168691806362
8624216,2064.0,1,194059.0,227465,-0.99,0.2837499999999997,8.73,0.04,-0.07,0.21,26.87,6.704721,88.9626374781215,1839.2937863342827,8.79053548212508,0.22494443758403984,0.7530216734492559,1.3557968731349586
8664167,1904.0,1,193046.0,225941,-0.71,-0.89,9.22,0.44,0.03,-0.1,26.87,6.744672,-21.11068004107874,843.7262922956032,9.290026910617645,0.4522167621838005,-0.17688918511984078,0.6202335357400647
8705179,1973.0,1,192170.0,224130,-0.77,-0.56,9.91,0.44,-0.05,-0.265,26.87,6.785684,-20.202682589236474,-139.8069701334726,9.955631572130418,0.5160668561339703,-0.16921832801249584,-0.1064384511248578
8745196,1984.0,1,191770.0,223515,-0.26,-0.67,10.5,0.24,0.27,-0.26,26.87,6.825701,-0.2794800178731198,-750.9637283985099,10.524566499386092,0.44508426168535775,-0.0009050362344872761,-0.5579844361762839
8785179,1968.0,1,191747.0,223772,-0.47,0.14,11.71,-0.24,0.18,0.05,26.87,6.865684,-23.82220137615386,-880.5754479061645,11.720264502134755,0.30413812651491096,-0.19979639996133317,-0.6537465311998858
8825170,1979.0,1,192105.0,224372,-0.76,-1.66,10.68,-0.24,-0.04,0.03,26.87,6.905675,-68.34708119908734,-672.1219890498679,10.834925011277189,0.24515301344262524,-0.5759472252202134,-0.499733144055398
8865199,1925.0,1,192164.0,224911,-0.94,0.15,10.22,-0.1,-0.25,0.11,26.87,6.945704,-77.57142086802486,-364.26224041418715,10.264234019156033,0.2908607914449798,-0.6538754081313756,-0.27227458849591274
8905180,2173.0,1,192486.0,225473,-0.8,-1.39,9.93,-0.36,0.12,0.14,26.87,6.985685,90.53821542065452,-112.93677259219496,10.058677845522244,0.4044749683231337,0.7663323201191707,-0.08658572160298135
8945179,2160.0,1,192726.0,225692,-0.67,-1.3,9.77,-0.18,-0.12,0.02,26.87,7.025684,118.93331118475702,83.29272209725065,9.878856209096273,0.2172556098240043,1.006217048555219,0.058396133342429726
8985199,2153.0,1,192757.0,226078,-0.8,-0.71,8.93,-0.16,-0.25,0.08,26.87,7.065704,64.77743458772184,325.87141619208603,8.993831219230211,0.30740852297878796,0.5487025587777429,0.23762254930891946
9025265,2259.125,1,193216.0,227234,-0.68,-0.55,8.52,-0.49,-0.16,0.255,26.87,7.10577,169.1423173717159,691.8250678627375,8.564770866754111,0.5750869499475709,1.4303879657538567,0.5080031020755958
9065199,2259.125,1,193574.0,228349,-0.73,-1.06,9.16,-0.52,-0.23,0.14,26.87,7.145704,171.4395920516442,1142.2183580196076,9.249978378353108,0.585576638878294,1.4497955816786565,0.8407708889225848
9105199,2257.0,1,193961.0,229093,-1.01,-1.64,9.2,-0.0,-0.17,-0.04,26.87,7.185704,133.2012229828144,1528.5682931764375,9.399452111692467,0.1746424919657298,1.1267538544691986,1.1262209959298126
9145899,2259.125,1,193998.0,229126,-0.54,-1.29,9.9,0.28,-0.06,-0.1,27.17,7.226404,161.8192851119144,1687.4264553248051,9.998284852913523,0.30331501776206204,1.3685222259949603,1.2435914812278517
9184199,2259.125,1,193879.0,228842,-0.17,-1.72,10.24,0.13,0.07,-0.19,27.17,7.264704,125.86487158148543,1550.4601061209974,10.384839912102642,0.24062418831031931,1.064775593214518,1.142395504526715
9224180,2217.0,1,193298.0,226268,0.4900000000000001,-1.65,10.87,-0.18,0.01,-0.23,27.17,7.304685,100.20969012741378,1188.9940051447772,11.005430477723257,0.29223278392404917,0.8480379464315878,0.875330525827382
9264180,2203.0,1,192620.0,224677,-0.48,-1.35,11.17,-0.2,-0.07,-0.01,27.17,7.344685,80.4323150738419,762.9342289617578,11.261518547691514,0.21213203435596428,0.6809566207224571,0.5605412696740192
9304212,2151.0,1,192354.0,224085,0.23,-2.05,10.48,-0.21,-0.08,-0.05,27.17,7.384717,12.81307746676082,416.54980891283185,10.681095449437759,0.23021728866442676,0.10970225394078625,0.30461921360206407
9344199,2122.0,1,192117.0,223452,0.31,-1.93,9.87,-0.09,-0.11,-0.08,27.17,7.424704,20.902771618339212,200.90389275435894,10.061704626950643,0.16309506430300091,0.17804483326518494,0.14529176394655824
9384200,2219.0,1,191879.0,223062,-0.33,-2.12,10.3,-0.14,-0.02,0.11,27.17,7.464705,68.4200999011514,74.24420201148138,10.521088346744362,0.17916472867168917,0.5794761749949545,0.05171074066676791
9424199,2126.0,1,191526.0,222722,-0.22,-2.52,10.64,-0.1,-0.05,-0.02,27.17,7.504704,45.09924882722762,-34.64690734781136,10.93656253125268,0.11357816691600547,0.3824591945543338,-0.028742175175261245
9464213,2194.0,1,191502.0,222560,-0.34,-3.01,11.03,0.05,0.05,0.05,27.17,7.544718,50.69713301324656,-158.89826942402516,11.43838275281956,0.08660254037844388,0.4297507035858775,-0.12054383313607282
9504171,2187.0,1,191170.0,222071,0.26,-3.32625,9.53,0.29,0.03,-0.19,27.17,7.584676,115.7091036312069,-270.6273452778703,10.097150046547787,0.3479942528261063,0.978978607106375,-0.20309354715466715
9544170,2224.0,1,191054.0,221613,0.4900000000000001,-2.32,9.81,0.17,0.06,-0.01,27.17,7.624675,111.45231563784057,-307.8852743313746,10.092502167450846,0.1805547008526779,0.9430168184833744,-0.2306211299686085
9584171,2161.0,1,190965.0,221849,0.4900000000000001,-2.83,9.36,-0.01,0.11,-0.18,27.17,7.664676,88.24398626767265,-219.3242534842998,9.790740523576345,0.21118712081942875,0.7469504331234282,-0.16518886098892016
9624179,2163.0,1,191579.0,222363,0.4900000000000001,-2.27,9.07,-0.1,0.08,0.05,27.17,7.704684,97.46133819168907,8.972179521372938,9.362579772690859,0.1374772708486752,0.8248195828372135,0.003485274298263307
9664171,2073.0,1,191825.0,223063,0.23,-2.56,9.02,-0.05,0.19,-0.17,27.17,7.744676,-1.8314844930843173,348.76634436083714,9.379067117789488,0.2598076211353316,-0.014016531795570743,0.25453819779489606
9705180,1968.0,1,191955.0,223504,0.08,-1.71,9.35,0.01,0.07,-0.06,27.17,7.785685,-51.567774116518216,720.0767786307647,9.505419506786641,0.09273618495495704,-0.43419389019763005,0.5288765464016497
9743170,2096.0,1,192023.0,223937,0.31,-2.02,9.75,-0.03,0.09,-0.11,27.17,7.823675,34.38223679659129,964.3882367449277,9.961877333113474,0.1452583904633395,0.2919207599608093,0.7093831946905146
9783177,1959.0,1,192109.0,224105,-0.83,-1.71,10.45,-0.02,-0.06,0.19,27.17,7.863682,-31.300645882307162,843.0513067170464,10.621464117531065,0.20024984394500786,-0.26297507857493374,0.6197348305816203
9823200,1868.0,1,191656.0,222157,-0.4,-2.55,10.52,0.09,-0.03,0.05,27.17,7.903705,-159.6447426199081,124.39061040829083,10.832031203795527,0.10723805294763608,-1.3472393842157586,0.08876082490474466
9863177,1822.0,1,190301.0,217417,-1.43,-1.94,11.31,0.35,0.15,0.1,27.17,7.943682,-154.69684700323307,-1245.2579621427724,11.563935316318576,0.39370039370059057,-1.3054390463617644,-0.9231879190190609
9903188,1846.0,1,188966.0,209664,-1.25,-2.55,11.71,0.44,0.27,-0.01,27.17,7.983693,-139.34283959918614,-2999.47479582787,12.049443970573913,0.5163332257370234,-1.175726791572287,-2.219270401046726
9943179,1785.0,1,186673.5,198386,-1.2,-1.91,11.71,0.44,0.27,-0.17,27.17,8.023684,-179.3359496084923,-4581.908574380316,11.925275678155202,0.5435071296680477,-1.5135927531311828,-3.388432992561819
9983179,1806.0,1,186673.5,198335,-1.35,-1.13,11.71,0.44,0.23,-0.09,27.17,8.063684,-145.9746379348689,-5386.796765599211,11.841600398594778,0.5045790324617145,-1.231752915097783,-3.9831151690167563
10023194,1908.0,1,186673.5,207169,-0.79,-0.26,11.3,-0.08,-0.03,0.01,27.17,8.103699,-34.84824283263854,-5080.933234685212,11.330564857940669,0.08602325267042626,-0.29294554735238587,-3.757131495450023
10063200,1919.0,1,188198.0,215132,-0.79,-0.95,10.16,-0.4,-0.03,0.01,27.17,8.143705,-14.118905440772503,-3791.790214281647,10.234852221698171,0.4012480529547776,-0.11782194459301401,-2.804663332170941
10103217,1920.0,1,190874.0,220251,-1.06,-0.44,9.79,-0.27,-0.0,0.06,27.17,8.183722,3.1309971578909908,-2023.424982030526,9.857043167197757,0.27658633371878666,0.027907030396391853,-1.498127472215277
10143199,1930.0,1,192321.0,223729,-0.75,-0.59,8.98,-0.28,-0.16,-0.03,27.17,8.223704,10.117703099946933,-352.7097186733617,9.030559229637998,0.323882694814033,0.08693145037004958,-0.26373914363869194
10183900,1807.0,1,193764.0,227277,0.03,-0.25,8.13,-0.36,-0.28,-0.17,27.05,8.264405,-92.09234366714156,881.700014425835,8.133898204428183,0.48672374094551835,-0.7765496773518595,0.6482899738526718
10224200,1803.0,1,194789.0,229772,0.17,-0.16,7.710000000000001,-0.22,-0.29000000000000004,-0.06,27.05,8.304705,-100.90260987699041,1685.890927185502,7.713533561215638,0.36891733491393436,-0.8509797245246793,1.242456974316394
10264199,1811.0,1,195561.0,231919,-0.36,0.2837499999999997,8.15,-0.22,-0.12,0.25,27.05,8.344704,-81.28564013834965,2263.6645969563997,8.16288025530817,0.35397740040855713,-0.6852535196340033,1.6693382569419848
10304179,1793.0,1,196509.0,234678,-0.37,-0.73,8.11,-0.26,-0.07,0.13,27.05,8.384684,-97.43839118959777,2757.48716307893,8.151190097157592,0.29899832775452106,-0.8217136440024629,2.0341932537081675
10344200,1854.0,1,196988.0,236373,-0.44,0.26,7.85,-0.11,-0.22,0.05,27.05,8.424705,-33.35511832791003,3088.979502948881,7.866619350140185,0.25099800796022265,-0.28033147591858487,2.279112471436373
10384179,1825.0,1,197469.0,237437,-0.8,-0.27,7.77,-0.17,-0.1,0.1,27.05,8.464684,-63.17637494816703,3018.877763664422,7.815740527934636,0.2211334438749598,-0.5322645599061314,2.2273186256006836
10424200,1731.0,1,197380.0,236693,-0.4,0.01,8.33,-0.42,-0.12,0.02,27.05,8.504705,-149.10316740979954,2370.785229806944,8.339604307159902,0.4372642221815089,-1.2581830581665974,1.7484830770322417
10464179,1779.0,1,196419.0,230476,-0.73,-1.38,8.98,-0.02,-0.03,-0.13,27.05,8.544684,-115.93427780167445,1233.3385299919978,9.114696923101722,0.13490737563232041,-0.9779688217973246,0.9080939566215026
10504213,1840.0,1,194688.0,228238,-1.05,-0.52,10.19,0.3,-0.27,-0.09,27.05,8.584718,-35.96443411922596,-28.253382647059322,10.257143851969708,0.4135214625627066,-0.30237524767423546,-0.024018394623202415
10544200,1881.0,1,194654.0,228603,-0.63,-0.97,10.13,0.03,0.01,-0.18,27.05,8.624705,-23.118508893891466,-964.4278442610794,10.195817770046698,0.18275666882497066,-0.19385153253026752,-0.7156998883360965
10584179,1765.0,1,195033.0,229292,-0.62,-0.14,11.1,-0.05,0.05,-0.2,27.05,8.664684,-111.89152657453515,-1287.3190060418563,11.11818330483897,0.21213203435596428,-0.9438152380829551,-0.9542642267631156
10624200,1815.0,1,195446.0,230650,-1.38,-1.34,11.38,-0.1,0.12,0.1,27.05,8.704705,-102.41368665305633,-997.3175937143491,11.54142105635177,0.1854723699099141,-0.8637454586177775,-0.7400000930121132
10664179,1874.0,1,196084.0,233444,-1.57,-1.25,11.71,-0.07,0.03,0.12,27.05,8.744684,-1.7236309088453472,-335.2637550354019,11.880719675171198,0.14212670403551894,-0.013105373475100204,-0.25084939852904586
10704179,1922.0,1,197414.0,237095,-1.86,-1.13,11.36,-0.21,0.04,0.12,27.05,8.784684,-18.72152802065304,369.49798605211805,11.566594140022378,0.24515301344262522,-0.15670537984679064,0.2698555275022491
10743179,1843.0,1,198111.0,238355,-0.5,-1.04,10.74,-0.03,-0.06,-0.21,27.05,8.823684,-25.631345704943723,852.9043086736981,10.801814662361135,0.220454076850486,-0.2150802398053257,0.6270146052287338
10783216,2005.0,1,198544.0,239139,-1.37,-1.41,10.97,0.1,-0.02,0.05,27.05,8.863721,35.89453141683023,1007.2279888164,11.144770073895648,0.11357816691600547,0.30469678252840854,0.7410348418119279
10823179,1957.0,1,198661.0,240062,-0.02,-1.15,9.81,-0.21,-0.21,-0.08,27.05,8.903684,91.06649029662921,889.9180526525575,9.877195958367942,0.30757112998459396,0.7707952413297758,0.6543617747713266
10863216,2112.0,1,198876.0,240247,-0.42,-1.27,9.75,-0.21,-0.01,0.07,27.05,8.943721,125.95416172629636,661.2852859076223,9.841331210766153,0.22158519806160337,1.0655299256639639,0.48543914325539744
10903200,2032.0,1,199005.0,240304,-0.31,-1.99,9.11,0.23,-0.11,-0.05,27.05,8.983705,150.07519517128435,482.6340031740882,9.329967845603756,0.2598076211353316,1.2693069301727096,0.3534447435344161
10943200,2177.0,1,198733.0,240295,0.4900000000000001,-1.72,9.7,0.25,-0.24,-0.19,27.05,9.023705,195.80391378352616,421.16054385767444,9.863493295987988,0.3952214569073901,1.6556279109913077,0.30802580090446136
10983179,2103.0,1,198869.0,241418,0.4900000000000001,-1.77,9.63,0.26,0.06,-0.265,27.05,9.063684,186.69426166817112,415.55894067740144,9.803565677854156,0.37606515392947537,1.5786686204858866,0.30388712225663944
11023177,2143.0,1,199597.0,242809,0.4900000000000001,-1.39,9.15,0.05,0.11,-0.05,27.05,9.103682,179.5674772049194,337.8438239963972,9.267939361044613,0.1307669683062202,1.518460802565769,0.2464682220472558
11063170,2149.0,1,199943.0,241402,0.4900000000000001,-1.43,8.94,-0.36,0.05,-0.05,27.05,9.143675,197.53622051434508,120.86090902550718,9.066895830437227,0.3668787265568828,1.6702626187993999,0.08615294653921535
11103179,2138.0,1,198683.0,237695,0.04,-1.54,9.84,-0.32,-0.04,0.05,27.05,9.183684,185.86411399483978,-153.5985458402313,9.959859436759135,0.3263433774416144,1.5716554464211363,-0.11662819467870232
11143179,2203.0,1,198710.0,239974,0.03,-1.62,8.97,-0.09,-0.03,0.07,27.05,9.223684,232.73800489437662,-297.61404387575,9.115163191078919,0.11789826122551596,1.9676509620760474,-0.22303235211243055
11183179,2181.0,1,199613.0,242391,0.46,-1.37,8.75,-0.14,0.08,-0.02,27.05,9.263684,224.5778873415711,-161.34448999938283,8.868539902374009,0.16248076809271922,1.8987134385183468,-0.12235119444626867
11223866,2129.0,1,200161.0,243553,0.09,-1.31,8.9,-0.25,0.06,-0.07,27.15,9.304371,156.6870516087456,251.16014862290865,8.996343701749062,0.2664582518894846,1.3251645824636267,0.18242300769747757
11262179,2109.0,1,200437.0,244667,-0.09,-1.77,9.71,-0.21,0.07,0.01,27.15,9.342684,139.56255826294486,785.9064998885026,9.870415391461497,0.22158519806160337,1.1804950779129288,0.5775140619473672
11302180,2062.0,1,201014.0,245279,-0.81,-1.58,9.81,0.0,-0.01,0.12,27.15,9.382685,94.49099593172292,1234.4052981512482,9.969383130364687,0.12041594578792295,0.7997258218471589,0.9088821257332337
11342179,2079.0,1,201092.0,245422,0.18,-1.4,9.17,-0.09,-0.07,0.05,27.15,9.422684,95.98081088831891,1432.7320800729908,9.278000862254757,0.12449899597988733,0.8123119338734055,1.055413536690971
11382177,2016.0,1,201095.0,245420,-0.61,-1.89,10.15,0.15,0.13,0.05,27.15,9.462682,55.291076169681496,1312.554473398096,10.342470691280687,0.20469489490458723,0.4685608141657906,0.9666217250104641
11422171,1875.0,1,200755.0,244950,-0.58,-1.61,10.9,0.31,0.1,-0.02,27.15,9.502676,-121.10024061973415,907.8762021890615,11.033517118308197,0.3263433774416144,-1.0216114140962256,0.6676299424099882
11462179,1803.0,1,200267.0,244218,-1.0,-1.51,10.15,0.17,-0.02,-0.05,27.15,9.542684,-150.20115960007234,333.28721754031335,10.31031522311515,0.1783255450012701,-1.2674590106260173,0.24310162694235182
11502200,1909.0,1,199671.0,242636,-0.31,-2.14,11.71,0.09,0.27,0.01,27.15,9.582705,-97.05246947382639,-267.16119225034106,11.907972119550836,0.28478061731796284,-0.8184533371257231,-0.2005326207442356
11542170,1782.0,1,198553.0,240751,-1.12,-2.79,11.31,0.44,0.27,-0.02,27.15,9.622675,-169.28807017727698,-796.2805150713816,11.702760358137734,0.5166236541235796,-1.4287072204765465,-0.5914662111887321
11582180,1749.0,1,198042.0,239983,-1.41,-0.58,11.71,0.44,0.27,0.09,27.15,9.662685,-257.5489740342711,-1260.1401356244603,11.808835675035876,0.5240229002629561,-2.1743445350730246,-0.9341834379159997
11622170,1614.125,1,197829.0,240255,-0.69,-2.01,11.71,0.28,0.27,-0.2,27.15,9.702675,-345.7085548427935,-1736.482790623459,11.901273041149842,0.4373785545725808,-2.919125861995825,-1.2861236078719658
11662179,1614.125,1,197908.0,239215,-0.63,-1.48,11.56,0.09,0.01,0.03,27.15,9.742684,-384.41512543972317,-2248.2125167898344,11.671370956318713,0.09539392014169455,-3.2461230045120195,-1.6642090992896779
11702170,1725.0,1,196623.0,233400,-0.63,-1.68,9.78,0.08,0.03,0.01,27.15,9.782675,-248.0690726934966,-2649.9985169090583,9.943223823287896,0.08602325267042626,-2.09425734052279,-1.9610639614018788
11742170,1927.0,1,195913.0,232992,-0.75,-0.14,9.23,-0.03,-0.08,0.15,27.15,9.822675,-65.57581632301411,-2668.275301697759,9.261479363471043,0.17262676501632068,-0.5525352907177203,-1.974567548950211
11782200,1941.0,1,196768.0,236609,-0.45,-1.12,7.86,-0.29,0.03,-0.0,27.15,9.862705,-38.67589748981573,-2104.9238411625192,7.952138077272049,0.291547594742265,-0.32528197282571436,-1.5583419460464971
11822199,1953.0,1,198282.0,240281,-0.58,-0.38,8.26,-0.37,-0.09,0.14,27.15,9.902704,-45.6730658314142,-1041.551301534309,8.28905302190787,0.40570925550201586,-0.3843947802411296,-0.7726816479485947
11862199,2027.0,1,198931.0,241985,-0.53,-0.14,8.17,-0.4,0.02,0.05,27.15,9.942704,52.55310425430134,140.2751062926797,8.188369801126473,0.4036087214122114,0.4454301420651235,0.10049689792392119
11902179,2064.0,1,199211.0,243244,-1.15,-0.7,8.64,-0.16,-0.1,0.13,27.15,9.982684,48.23708904533978,954.1177228145481,8.744260975062444,0.22912878474779202,0.4089679957519387,0.7017949462305892
11942199,1907.0,1,199453.0,243496,-1.07,-0.33,8.2,0.14,0.12,-0.06,27.15,10.022704,-58.27439703436363,1085.9439721009817,8.276098114449828,0.19390719429665315,-0.4908521395916756,0.7991932205434839
11982179,1984.0,1,199186.0,241852,-0.84,-0.98,8.49,0.2,0.17,-0.18,27.15,10.062684,-46.641597631718746,576.531666103203,8.587554948878056,0.318276609256791,-0.3925770378333528,0.42281992776982774
12022184,2010.0,1,197724.0,237257,-0.59,0.14,9.03,0.08,0.03,-0.23,27.15,10.102689,43.28288481155138,-202.1208904839432,9.050337010299671,0.24535688292770594,0.367114362043068,-0.15247835850794375
12062170,2063.0,1,196685.0,235869,-1.19,-0.4,9.33,-0.11,0.14,0.04,27.15,10.142675,32.02316524306871,-769.996292131373,9.414085191881366,0.1824828759089466,0.271991077607232,-0.5720464221112946
12102180,1893.0,1,196649.0,236395,-1.19,0.11,9.92,-0.11,0.01,0.12,27.15,10.182685,-91.25802158614401,-830.5801453643793,9.991726577524027,0.16309506430300091,-0.7695012374560759,-0.6168080897462377
12142171,1902.0,1,197134.0,237888,-1.15,-1.07,9.63,0.21,-0.0,-0.06,27.15,10.222676,-116.8417538452474,-439.37352478345065,9.757269085148776,0.21840329667841554,-0.9856352739932676,-0.3277696778168241
12182200,1971.0,1,197268.0,238758,-1.59,-0.07,9.85,0.44,0.05,-0.02,27.15,10.262705,-36.29042674027478,66.05195319024833,9.977750247425519,0.44328320518603004,-0.30512926731277157,0.0456579939471352
12222179,2031.0,1,197339.0,238574,-1.36,-0.7,10.78,0.14,0.16,-0.02,27.15,10.302684,21.765891739180795,317.07879779700056,10.887975018340187,0.21354156504062624,0.18533656200298787,0.23112622658860618
12262866,2072.0,1,196892.0,238294,-1.32,-0.0,11.7,0.09,0.02,-0.15,26.85,10.343371,52.981682774308325,161.34911240180597,11.774226089217073,0.17606816861659008,0.44905081806986413,0.11606717955598404
12303179,2059.0,1,196217.0,232749,-1.84,-0.63,9.79,-0.02,0.03,0.09,26.85,10.383684,44.468832489849156,-258.26740716685026,9.981312538939955,0.09695359714832658,0.37713337163230426,-0.1939615522056808
12343179,2064.0,1,195131.0,232161,-1.47,0.2837499999999997,10.77,-0.44,-0.08,0.17,26.85,10.423684,50.69326894401245,-620.2500184760268,10.873560321371285,0.4784349485562274,0.4297180595262631,-0.46140814849154926
12383179,2128.0,1,195604.0,232886,-1.85,-0.75,9.19,-0.52,-0.05,0.09,26.85,10.463684,96.34673977309217,-627.5556685900126,9.404312840394027,0.5300943312279429,0.8154033392301612,-0.4668058421806866
12423200,2148.0,1,195911.0,233985,-2.06,-0.23,9.76,-0.19,-0.15,0.16,26.85,10.503705,148.1195342697758,-157.08752063626375,9.977680091083297,0.29017236257093815,1.2527853030519989,-0.11920598268446116
12463200,2213.0,1,196346.0,234963,-1.61,-0.27,9.02,-0.19,-0.16,0.05,26.85,10.543705,167.20109534625473,704.9714662396349,9.16653696877943,0.25337718918639857,1.4139883197628564,0.5177161639450684
12503199,2122.0,1,196638.0,236952,-1.02,-0.46,8.81,-0.26,-0.29000000000000004,-0.1,26.85,10.583704,128.4621539448486,1709.5963060158244,8.880771362894103,0.40211938525766205,1.0867177053166641,1.2599714147446435
12543216,2170.0,1,197346.0,239098,-0.95,0.23,8.26,-0.22,-0.29000000000000004,0.08,26.85,10.623721,125.16829341534438,2528.193178180043,8.317631874518131,0.37269290307168446,1.0588908282675205,1.8647820889335902
12583180,2157.0,1,197820.0,239856,-0.34,-0.96,7.92,-0.2,-0.11,0.04,26.85,10.663685,156.5218322148041,2868.5035720049414,7.9852113309542405,0.23173260452512937,1.3237687918039547,2.11621642214645
12623199,2167.0,1,197630.0,237619,-0.64,-0.78,8.99,0.19,-0.27,-0.14,26.85,10.703704,138.12138312022944,2613.2186135403263,9.046441289258446,0.3586084215408222,1.1683198801037307,1.9276021321466863
12661200,2128.0,1,196220.0,234104,0.07,-1.31,8.88,0.32,-0.26,-0.22,26.85,10.741705,113.34696794599989,1906.2818844869844,8.97638011672857,0.4673328578219169,0.9590230386489748,1.4052902418296818
12701179,2134.0,1,194876.0,232634,-0.28,-0.64,10.11,0.27,-0.03,-0.14,26.85,10.781684,125.67319877009842,1093.609372508004,10.134105781962214,0.30561413579872254,1.0631563213272128,0.8048567115067982
12741199,2123.0,1,194347.0,231708,0.12,-1.89,10.68,0.07,0.27,-0.18,26.85,10.821704,99.25043217212996,523.6196664579036,10.846607764642362,0.3319638534539566,0.8399340352486472,0.38372651895487325
12781171,2006.0,1,193958.0,231333,-0.58,-0.57,11.11,0.11,-0.13,0.05,26.85,10.861676,10.15310501993696,343.36755232594396,11.139721720043099,0.17748239349298847,0.0872305294798182,0.2505493637772471
12821179,1958.0,1,194020.0,231513,-0.51,-1.58,10.89,-0.16,0.27,-0.01,26.85,10.901684,-59.75663942104998,442.46913017676695,11.015834058299898,0.31400636936215165,-0.5033742777580898,0.32376939936653604
12861200,1935.0,1,194097.0,231517,-1.12,-1.63,11.11,-0.3,0.0,0.06,26.85,10.941705,-62.93974090700401,572.6781633299861,11.284653295515994,0.3059411708155671,-0.5302654508636861,0.4199728125541337
12901179,1961.0,1,193582.0,228616,-0.84,-1.63,10.64,-0.26,-0.12,-0.1,26.85,10.981684,-35.44638239330765,528.0775315157193,10.796856023861762,0.30331501776206204,-0.2979986927007936,0.38702016013863777
12941216,1982.0,1,192694.0,226328,-1.11,-0.7,10.79,-0.2,-0.03,0.12,26.85,11.021721,-27.510933658165282,243.80190528424276,10.869507808544046,0.23515952032609694,-0.2309591947303602,0.17698645612266034
12981212,1963.0,1,192303.0,225465,-0.91,-1.85,9.32,-0.16,-0.11,-0.05,26.85,11.061717,-8.162607305084473,-227.97322231662824,9.54531298596332,0.20049937655763422,-0.06750251715970329,-0.17157904991877765
13021219,1983.0,1,192006.0,224131,-0.64,-0.75,10.28,-0.21,-0.17,0.06,26.85,11.101724,-33.788032237340204,-792.0523120586831,10.32717289484397,0.27676705006196095,-0.2839887777450198,-0.588342253106707
13061199,1858.0,1,191081.0,222190,-0.79,-1.81,9.98,0.08,-0.01,-0.03,26.85,11.141704,-98.57497402149826,-1349.8411548931563,10.173524463036397,0.08602325267042626,-0.8313156142243846,-1.0004579813257528
13101198,1926.0,1,190341.0,220420,-0.78,-1.25,10.23,0.28,0.18,0.07,26.85,11.181703,-83.82348629135853,-1798.7837770624485,10.33555997515374,0.340147027033899,-0.7066935084364586,-1.3321539591866267
13141170,1859.0,1,189839.0,219541,-0.79,-1.67,11.31,0.1,0.14,-0.16,26.85,11.221675,-97.56837871087592,-2041.8534701622257,11.459890924437284,0.23494680248941463,-0.822811792129905,-1.5117431439949027
13181188,1874.0,1,189809.0,219492,-0.53,-1.93,11.1,0.19,0.02,-0.13,26.85,11.261693,-119.48915999499371,-2027.9356182003717,11.278998182462837,0.23108440016582688,-1.0080008370668279,-1.5014601027146983
13221179,1887.0,1,190032.0,219733,0.12,-1.36,10.23,0.06,0.12,-0.08,26.85,11.301684,-73.88375089007582,-1785.1948946425305,10.320702495469968,0.15620499351813308,-0.622721587817784,-1.3221139731845593
13261171,1902.0,1,190367.0,220379,-0.17,-1.17,9.84,-0.07,-0.01,0.02,26.85,11.341676,-78.77488489799693,-1404.6381201288402,9.91077191746435,0.07348469228349536,-0.6640423976851622,-1.0409440748043188
13301886,1859.0,1,190774.0,220952,0.01,-1.44,9.62,-0.11,0.11,0.0,26.93,11.382391,-100.7352624976587,-984.1266390109591,9.727183559489355,0.15556349186104046,-0.8495659564226459,-0.7302541112246912
13342171,1875.0,1,190838.0,221333,-0.18,-1.71,9.14,0.01,0.04,0.04,26.93,11.422676,-100.95962261690353,-586.832109416513,9.300327951206883,0.05744562646538029,-0.8514613740935018,-0.436717719300397
13382214,1894.0,1,191056.0,221776,-0.34,-1.01,9.05,0.08,-0.02,0.1,26.93,11.462719,-61.845738602423694,-249.25958973561904,9.112529835342105,0.12961481396815722,-0.521023205374434,-0.18730623220775514
13422180,1989.0,1,191221.0,222484,-0.62,-1.42,9.48,0.06,0.03,0.03,26.93,11.502685,17.12599065888037,-12.660032772407382,9.60578992066764,0.07348469228349534,0.14613819409238835,-0.012497431410115018
13462170,1989.0,1,191655.0,223150,-0.0,-1.43,8.68,0.04,0.09,-0.04,26.93,11.542675,31.513351200368405,79.41443044927497,8.79700517221628,0.1063014581273465,0.2676841154401716,0.05553070315808012
13502179,1927.0,1,191556.0,223151,-0.34,-1.23,9.9,0.1,0.13,-0.09,26.93,11.582684,-35.952244510568995,31.747993370023234,9.98190863512585,0.18708286933869708,-0.30227226858986433,0.020312916569342893
13542179,1834.0,1,191335.0,220990,-1.28,-0.15,9.8,0.11,0.02,0.11,26.93,11.622684,-130.8462890392862,-62.042542084123326,9.884376561017898,0.15684387141358122,-1.103947046906609,-0.048983117790760304
13582171,1836.0,1,190920.0,220276,-0.62,-1.38,9.81,-0.25,0.11,-0.11,26.93,11.662676,-118.24594847545737,-58.671682645843845,9.925970985248748,0.2944486372867091,-0.9974980565786012,-0.04649259792831329
13622199,1929.0,1,191347.0,221236,-1.07,-0.11,10.05,-0.1,0.12,-0.12,26.93,11.702704,-39.9170060849211,124.58991337153562,10.10739828046763,0.19697715603592209,-0.3357669875891751,0.08890807755579529
13662199,1911.0,1,191923.0,222613,-1.66,-1.22,9.43,-0.05,0.1,0.08,26.93,11.742704,-43.26882929272118,422.50776002321663,9.65240384567492,0.13747727084867523,-0.364083539385604,0.30902117572822
13702179,1939.0,1,192185.0,223316,-1.5,0.2837499999999997,10.11,-0.09,-0.12,0.07,26.93,11.782684,-25.425240594780853,643.05753181146,10.224608259610731,0.16552945357246848,-0.21333904235378526,0.4719717814577595
13742179,1955.0,1,191984.0,223070,-1.37,-2.05,10.26,-0.0,0.07,-0.13,26.93,11.822684,-6.409690471422686,586.5898142751992,10.552108793980471,0.147648230602334,-0.052693693054748685,0.4302512722861026
13782199,1948.0,1,191440.0,222030,-1.92,0.2837499999999997,10.99,0.44,0.09,0.11,26.93,11.862704,-10.356777145074455,172.30948904304313,11.160063353874834,0.46238512086787564,-0.08603909265081261,0.12416512496863351
13822147,2016.0,1,190929.0,220720,-1.85,-0.81,11.06,0.27,0.18,0.06,26.93,11.902652,51.30602388772314,-507.6628759624203,11.242873298227638,0.33,0.4348946771538646,-0.37822446201027354
13862171,2058.0,1,190323.0,219375,-1.75,-0.61,11.53,0.1,0.18,0.06,26.93,11.942676,98.04292413170981,-1218.5642960079986,11.67799212193603,0.21447610589527216,0.8297328814731164,-0.9034656176512781
13902171,2101.0,1,190097.0,218758,-2.27,-0.06,11.15,0.14,0.25,0.1,26.93,11.982676,142.14848154697484,-1665.3708051455642,11.378883952303935,0.3034798181098704,1.2023412273289913,-1.233583353514419
13942170,2192.0,1,190123.0,218636,-2.17,-0.81,10.61,-0.09,0.0,0.12,26.93,12.022675,224.64821998881,-1599.2271103433684,10.8598848981009,0.15,1.8993076160524978,-1.1847138623069828
13980179,2243.0,1,190683.0,220627,-1.82,-0.02,10.0,-0.17,-0.14,-0.06,26.93,12.060684,292.4334175401001,-929.569059002261,10.164290432686386,0.22825424421026658,2.4719640297396825,-0.689944884706466
14020213,2259.125,1,191805.0,223361,-1.67,-0.32,8.57,-0.24,-0.08,-0.06,26.93,12.100718,288.55517740845914,197.49302577994396,8.737059001746527,0.26,2.4392002529059167,0.14277168498643378
14060216,2147.0,1,193064.0,226773,-1.27,0.2837499999999997,8.29,-0.5,-0.27,0.02,26.93,12.140721,198.75258758533607,1419.212565406295,8.391514408168527,0.56859475903318,1.6805386145885075,1.045424802237767
14100179,2099.0,1,194428.0,230296,-1.47,0.2837499999999997,8.75,-0.52,-0.29000000000000004,0.06,26.93,12.180684,134.37849774525165,2308.356173490647,8.877156868192653,0.5984145720150872,1.1366995943613283,1.7023581027945383
14140179,2034.0,1,195153.0,228272,-1.82,0.2837499999999997,7.87,-0.3,-0.27,0.06,26.93,12.220684,82.8770927336939,2593.750176179939,8.08268606729842,0.4080441152620633,0.7016103571948493,1.9132181061068472
14180179,1955.0,1,193805.0,226152,-1.81,-0.61,8.31,-0.23,-0.21,0.1,26.93,12.260684,0.39905015524395954,2304.39352407597,8.526681652319384,0.32710854467592254,0.004827257386428435,1.6994303458661142
14220200,1897.0,1,193478.0,225726,-1.21,-0.38,8.72,0.17,-0.13,-0.19,26.93,12.300705,-54.39718392173626,1730.3147842183453,8.811747840241459,0.2861817604250837,-0.4580970391215751,1.2752790187630985
14260199,1819.0,1,193338.0,225685,-1.58,-0.34,9.48,0.12,-0.02,-0.25,26.93,12.340704,-128.64769670411908,1237.6573660685328,9.616777006877095,0.2780287754891569,-1.0853731097153179,0.9112848778771078
14300200,1744.0,1,193590.0,226578,-0.64,-0.05,9.57,-0.16,-0.28,-0.23,26.93,12.380705,-200.64723402491106,1079.680551067889,9.591506659539991,0.3961060464067672,-1.693632705006217,0.7945655655565563
14340900,1732.0,1,193794.0,227270,-0.21,0.19,9.5,-0.19,-0.24,-0.08,26.85,12.421405,-212.39545927484454,1302.756573390331,9.504220115296151,0.3163858403911275,-1.7928829363524574,0.9593826617904136
14381199,1675.0,1,193967.0,227557,-1.14,-0.99,10.06,-0.03,-0.06,0.07,26.85,12.461704,-258.73839378002623,1734.0678949833061,10.172674181354676,0.09695359714832658,-2.1843928770500094,1.2780519605238707
14421200,1614.125,1,193697.0,227369,-1.02,-0.71,9.93,-0.09,-0.25,0.05,26.85,12.501705,-325.75259745306204,2010.1686816708789,10.00746721203722,0.27037011669191546,-2.750535854098439,1.4820457804600773
14461200,1614.125,1,193596.0,227002,-0.83,-1.55,9.02,-0.1,-0.22,-0.07,26.85,12.541705,-310.8475442680337,1679.240026291765,9.189766047076498,0.2515949125081825,-2.6246164113425676,1.237543034390298
14501213,1614.125,1,193020.0,225185,-0.77,-0.83,10.29,-0.09,-0.03,0.12,26.85,12.581718,-314.05950944650067,436.1948493446616,10.352096406042595,0.15297058540778355,-2.651751427930773,0.3191337207447941
14541200,1614.125,1,191694.0,220761,-0.44,-1.92,10.12,0.29,0.24,-0.265,26.85,12.621705,-309.30068641131953,-1581.5824233704495,10.309917555441459,0.4603531253288067,-2.611548394950943,-1.17167729279783
14581177,1837.0,1,188907.0,205604,-1.12,-2.48,11.71,0.44,0.11,-0.14,26.85,12.661682,-70.48530286819745,-3685.7281130548763,12.02201730160126,0.47465777145223276,-0.5940111447326456,-2.7263005957250206
14621180,2183.0,1,186673.5,187276,-1.08,-1.5,11.71,0.44,0.27,-0.18,26.85,12.701685,255.4393135042346,-4929.628858049383,11.854977857423439,0.5467174773134658,2.1594339832096914,-3.6453420357628428
14680182,2259.125,1,186673.5,204381,-0.97,-1.47,11.71,-0.39,0.27,-0.265,26.85,12.760687,374.93494097901436,-4694.064973354295,11.841701735814834,0.5433461143691009,3.168945498304551,-3.4712984292433906
14720203,2259.125,1,189276.0,218906,-1.01,0.2837499999999997,11.15,-0.52,-0.15,0.12,26.85,12.800708,330.429895376984,-3126.053527502905,11.199246138133585,0.554346462061408,2.7929622346110414,-2.3127916086711324
14760179,2160.0,1,192660.0,222983,-1.18,-1.67,9.79,-0.52,0.02,0.2,26.85,12.840684,291.38734656311334,-1038.6466776176674,10.00126991936524,0.5574943945906542,2.463126713101486,-0.7705356007194564
14800179,2195.0,1,193205.0,223190,-1.19,-1.1,9.17,-0.52,-0.29000000000000004,0.255,26.85,12.880684,276.0389695584029,665.816189511721,9.312088917101253,0.647707495710834,2.33346202451242,0.48878674811031836
14840199,2086.0,1,193349.0,223942,-1.33,-1.71,8.13,-0.52,-0.29000000000000004,0.16,26.85,12.920704,219.74303766076162,1561.156676058437,8.413673395134852,0.6165225056719341,1.8578681245125266,1.1502985394580214
14880202,2083.0,1,193714.0,225212,-0.64,-1.22,7.87,0.07,-0.29000000000000004,0.08,26.85,12.960707,185.07032633135617,1804.7191189394641,7.989674586614902,0.30886890422961005,1.5649494455091273,1.3302517866485741
14920179,2073.0,1,193885.0,225670,-0.07,-0.88,8.02,0.16,-0.26,-0.06,26.85,13.000684,198.18997219217374,1786.4420663719968,8.068438510641325,0.3111269837220809,1.675785581109631,1.3167480012550488
14960200,2042.0,1,194186.0,225673,-0.03,-0.74,7.72,0.18,0.05,-0.09,26.85,13.040705,170.36141617449098,1704.6574893247396,7.7554432497440144,0.2073644135332772,1.4406870394977855,1.256322428101519
15000177,1991.0,1,193851.0,224878,-0.04,-1.08,8.94,0.01,0.04,0.05,26.85,13.080682,102.8277504616049,1439.285245128187,9.005087450991246,0.06480740698407861,0.87015559299683,1.0602552656419086
15040171,1854.0,1,193114.0,223164,-0.41,-1.61,10.01,0.41,-0.04,-0.07,26.85,13.120676,6.759395025355869,771.6785719648992,10.14693549797179,0.4178516483155235,0.058560113743098455,0.5670019246886018
15080199,1846.0,1,191920.0,219660,-1.08,-2.17,10.93,0.44,0.16,-0.02,26.85,13.160704,-54.67029098969729,-296.69378750390007,11.195543756334482,0.46861498055439926,-0.46040427609573675,-0.22235243151217987
15120178,1814.0,1,190640.0,215977,0.04,-1.55,11.07,0.44,0.27,-0.265,26.85,13.200683,-17.397540231430177,-1419.906035583707,11.178058865473917,0.5802801047769948,-0.1455201930135104,-1.0522245946227056
15160170,1867.0,1,189980.0,214033,-0.63,0.2837499999999997,11.71,0.33,0.25,-0.15,26.85,13.240675,-39.15595327122117,-2082.4210018759904,11.73036717509303,0.44034077712607994,-0.3293375340998617,-1.5417159878210902
15200171,1703.0,1,189892.0,215277,-0.29,-1.04,11.71,-0.12,0.15,-0.02,26.85,13.280676,-128.3196794221187,-1935.1684598524998,11.759668362670778,0.19313207915827965,-1.0826019855300466,-1.4329201784970138
15240199,1747.0,1,191248.0,219146,-1.37,-0.44,10.85,0.04,-0.03,0.11,26.85,13.320704,-152.4033741506126,-1038.8643831209758,10.944998857925933,0.12083045973594572,-1.286063548670299,-0.7706964498708616
15280179,1649.0,1,192333.0,221878,-0.81,-0.05,10.42,-0.48,0.08,-0.05,26.85,13.360684,-200.5309990696988,160.775030108912,10.451554908242123,0.4891829923454003,-1.6926507399902329,0.11564302560376191
15320199,1614.125,1,193163.0,223567,-1.51,-0.85,10.44,-0.44,0.0,0.15,26.85,13.400704,-269.28332271443867,1102.166123563947,10.58282570961083,0.46486557196677836,-2.273477535711625,0.8111787664168414
15360866,1614.125,1,193449.0,224382,-0.34,-0.72,9.21,-0.08,0.02,-0.03,26.85,13.441371,-263.94390232628564,1431.319441597794,9.244355034289846,0.08774964387392122,-2.2283695557823147,1.0543698253629392
15399199,1614.125,1,193297.0,222424,-1.5,-0.34,9.1,0.1,-0.03,0.04,26.85,13.479704,-255.94648590601358,1169.6338598266154,9.229062790988042,0.1118033988749895,-2.16080654834945,0.8610265100896766
15439180,1614.125,1,192536.0,219566,-0.78,-0.05,8.53,-0.29,-0.04,0.03,26.85,13.519685,-289.62600366020035,637.3215707224999,8.565734060779613,0.2942787793912432,-2.4453346245158283,0.467733834048843
15479199,1619.0,1,191897.0,219102,-0.01,-1.37,8.71,-0.39,-0.13,-0.06,26.85,13.559704,-251.77080540349098,209.50330642479585,8.81709135713133,0.4154515615568198,-2.12552996426236,0.15164533962770646
15519216,1823.0,1,192124.0,219477,-1.57,-0.04,9.33,-0.03,-0.16,0.255,26.85,13.599721,-95.51299127805791,82.53677641820947,9.461257844494039,0.3025309901481169,-0.8054476648788976,0.05783761176564633
15559199,1915.0,1,192450.0,220299,-0.34,-0.93,7.8,-0.1,-0.1,0.09,26.85,13.639704,27.23337966040347,200.6249891195865,7.862601350698126,0.1676305461424021,0.23152646979924818,0.14508569927526954
15599200,1985.0,1,192423.0,220148,-0.74,-0.43,8.78,0.04,-0.03,-0.08,26.85,13.679705,60.32694910869092,360.48535826957004,8.821615498308685,0.09433981132056604,0.5111043936081225,0.26319665343281173
15639221,1995.0,1,192166.0,219964,-0.87,-1.18,9.25,0.15,0.18,-0.08,26.85,13.719726,81.89728884466588,383.43014625110226,9.365457810486362,0.24758836806279894,0.6933328718222798,0.28014914025522536
15679179,2022.0,1,192082.0,219538,-1.14,-0.17,10.14,-0.05,-0.04,0.14,26.85,13.759684,90.25162873936175,224.69622892480788,10.20529764387105,0.15394804318340652,0.7639112059666974,0.16287045178314274
15719199,2011.0,1,191897.0,219575,-0.08,-1.63,9.34,-0.11,-0.09,-0.2,26.85,13.799704,75.52534386624798,-26.69779771590097,9.481503045403718,0.24535688292770594,0.6395020165416431,-0.022869068986903978
15759216,2047.0,1,191969.0,219566,-0.86,0.2837499999999997,9.39,0.06,-0.16,0.05,26.85,13.839721,99.35222021603812,-219.03547790099873,9.433568469169025,0.17804493814764855,0.8407939512522346,-0.16497550254453244
15799171,2041.0,1,191890.0,219588,-0.67,-1.57,10.39,0.0,0.27,-0.06,26.85,13.879676,91.7618304610838,-225.45559331887782,10.52928772519775,0.27658633371878666,0.7766695475094979,-0.16971892933529514
15839208,1941.0,1,191829.0,219764,-1.68,-0.37,10.77,0.07,-0.14,0.1,26.85,13.919713,-30.233238220584497,-19.60385198514424,10.906520985172127,0.1857417562100671,-0.25395750740031536,-0.017627790592160658
15879179,1936.0,1,192151.0,221012,-0.84,-1.64,10.42,-0.14,0.04,-0.06,26.85,13.959684,-23.055048771282756,282.4600479340231,10.581663385309513,0.15748015748023622,-0.19331541480046735,0.20554857028893056
15919200,2082.0,1,192527.0,221307,-1.25,-0.57,11.13,-0.14,-0.07,0.1,26.85,13.999705,89.5850217558523,451.5347913209552,11.214468333362934,0.1857417562100671,0.7582796406942569,0.3304674565116714
15959199,2016.0,1,192151.0,220650,-0.56,-2.19,9.55,0.15,0.07,-0.26,26.85,14.039704,42.17680037553502,266.91181207287764,9.813877928729296,0.3082207001484488,0.3577700454482086,0.19406093903428576
15999179,2031.0,1,192187.0,219637,-1.44,0.2837499999999997,11.71,0.29,0.05,0.15,26.85,14.079684,27.27236589668411,-320.34181401909774,11.801619128852618,0.3303028912982749,0.23185582958660794,-0.2398244978567304
16039149,2046.0,1,191190.0,214808,-0.42,-2.69,10.92,-0.06,0.11,-0.18,26.85,14.119654,51.89401268043247,-1103.062427886048,11.254283628912148,0.2193171219946131,0.43986206775660497,-0.8181284204247221
16079200,2000.0,1,190032.0,212139,-1.03,-1.2,11.47,0.17,0.09,-0.03,26.85,14.159705,-7.657810925333872,-1711.7628539669518,11.578505948523755,0.19467922333931786,-0.06323794473219767,-1.2678595733226974
16119179,2066.0,1,189926.0,213098,-0.48,-0.44,10.53,-0.12,0.11,-0.07,26.85,14.199684,51.322663027841095,-1852.6290232742226,10.550113743462674,0.1772004514666935,0.43503524634376145,-1.3719368862543957
16159200,2115.0,1,190787.0,215544,-0.88,-0.85,9.75,-0.2,-0.05,0.16,26.85,14.239705,109.07841663868349,-1514.5729217579508,9.826464267476883,0.2609597670139978,0.9229618723237166,-1.122168110408491
16199199,2119.0,1,191536.0,216477,-0.23,-1.42,8.65,-0.14,-0.01,0.08,26.85,14.279704,82.65128234497122,-970.2878544830355,8.768796952832242,0.16155494421403513,0.6997026874962932,-0.7200294879883957
16239200,2117.0,1,191787.0,216742,-0.58,-1.12,8.11,0.17,0.07,-0.09,26.85,14.319705,121.99419233114826,-564.2074973572475,8.207490481261614,0.20469489490458723,1.0320756914940235,-0.42000179069362026
16279179,2196.0,1,191688.0,216347,-0.78,-0.02,9.17,0.25,-0.11,-0.0,26.85,14.359684,136.3748398506861,-461.3438334355675,9.203135335308287,0.27313000567495327,1.1535649005327204,-0.34400218204432664
16319200,2127.0,1,191620.0,216513,-1.1,-0.74,9.24,0.06,0.05,0.0,26.85,14.399705,147.3028182518477,-551.8695917596297,9.3346237203221,0.07810249675906655,1.2458856010119819,-0.41088607420810963
16359166,2240.0,1,191787.0,216348,-0.86,-1.04,9.88,-0.21,0.01,0.05,26.85,14.439671,167.34270824512214,-562.6259820687226,9.971740068814471,0.21610182784974308,1.4151846802918038,-0.4188333067176627
16399865,2147.0,1,191918.0,217794,-1.38,-0.11,9.64,-0.08,-0.07,-0.08,26.71,14.48037,171.38670250351393,-265.7338428450359,9.738896241361235,0.13304134695650072,1.4493487652637467,-0.19947804041846
16440212,2234.0,1,193065.0,220326,-2.21,-0.25,10.15,-0.13,0.09,0.14,26.71,14.520717,172.7927786404262,371.96363326165664,10.390818062116187,0.21118712081942875,1.4612274430137975,0.2716772419526972
16480180,2025.0,1,193881.0,222384,-0.34,-1.28,9.11,-0.42,-0.04,-0.265,26.71,14.560685,34.713215087402666,1178.7861576377118,9.205764498399901,0.49822183814040105,0.29471689905712073,0.8677885777175098
16520213,1968.0,1,194187.0,223386,-1.66,0.2837499999999997,10.36,-0.18,-0.12,0.02,26.71,14.600718,-60.355810651788744,1878.6846074687267,10.495985616534542,0.2172556098240043,-0.5084361387627697,1.3849003181850148
16560179,1965.0,1,194508.0,224629,-1.64,-0.3,10.83,-0.05,0.06,0.1,26.71,14.640684,-46.41297013181817,2224.2857847016144,10.957577286973613,0.12688577540449522,-0.39064556888595814,1.6402436845114674
16600179,1792.0,1,194858.0,225049,-1.49,-0.63,10.14,-0.13,-0.12,-0.07,26.71,14.680684,-200.85514518204462,2106.5894039147133,10.268232564565336,0.1902629759044045,-1.6953891601307975,1.553285097404816
16640216,1682.0,1,194838.0,223432,-0.74,-1.51,9.49,0.04,0.07,-0.14,26.71,14.720721,-339.0205855833718,1613.2971034916309,9.637831706353873,0.16155494421403513,-2.8626252006522828,1.1888218812159699
16680179,1717.0,1,193667.0,220240,-1.66,0.22,10.61,0.13,-0.1,0.22,26.71,14.760684,-251.90127862466608,1002.0541323153078,10.741326733695423,0.2744084546802449,-2.1266322156331525,0.7372121987687053
16720170,1868.0,1,193318.0,218893,-0.54,-1.45,9.14,-0.18,0.02,0.01,26.71,14.800675,-144.92518503966855,566.4610962014813,9.270043149845636,0.18138357147217055,-1.2228870276620443,0.415379405604596
16760179,1837.0,1,193219.0,219310,-0.82,-1.1,8.76,0.1,-0.15,-0.05,26.71,14.840684,-120.18531539374767,450.86021720857707,8.866791979064356,0.18708286933869708,-1.013882030430877,0.32996905536017523
16800199,1889.0,1,193606.0,220568,-0.35,-0.17,8.78,-0.13,-0.08,0.05,26.71,14.880704,-103.65364440089822,550.4046986262108,8.7886176387416,0.16062378404209013,-0.8742207509036117,0.4035163250422787
16840199,1885.0,1,194028.0,221133,0.31,0.0,8.1,-0.39,-0.16,-0.0,26.71,14.920704,-65.17839337044384,600.3261131933434,8.105929928145198,0.42154477816715985,-0.5491778201938105,0.4404001752346068
16878179,1951.0,1,193939.0,221305,-0.94,-1.56,8.95,-0.07,-0.12,-0.07,26.71,14.958684,-19.792858888379815,405.8020555708319,9.133438563870673,0.15556349186104046,-0.16575609467461988,0.29667836241409684
16918213,1936.0,1,193644.0,220742,-1.31,-0.7,10.02,0.15,-0.18,0.12,26.71,14.998718,-2.3473625542158376,26.01596523280813,10.129486660240982,0.26324893162176366,-0.018374723422348003,0.016077874975580723
16958179,1982.0,1,193202.0,219743,-0.44,-2.2,10.17,0.01,0.13,-0.14,26.71,15.038684,25.44018263210763,-255.4471992211028,10.41453311483525,0.19131126469708992,0.21637735441190398,-0.1918778747241006
16998179,1967.0,1,193114.0,220317,-1.19,-1.03,11.43,0.14,0.18,-0.1,26.71,15.078684,49.36608832248572,-163.8993991744812,11.537846419501346,0.24899799195977465,0.4185058993129134,-0.12423885905045591
17038179,1979.0,1,194340.0,222084,0.23,-1.26,9.82,0.01,0.06,-0.09,26.71,15.118684,29.6402590183464,324.8523950723446,9.903176258150715,0.10862780491200216,0.25186003746723945,0.23686965753593459
17078170,1982.0,1,195245.0,224462,-0.89,0.2837499999999997,9.93,-0.25,-0.05,0.11,26.71,15.158675,85.19794758547413,946.6122699735466,9.973841489742055,0.2776688675382964,0.7212171808690494,0.6962496306458154
17118179,2055.0,1,196342.0,225641,-0.92,-1.68,8.96,-0.3,-0.04,0.14,26.71,15.198684,119.1312793581066,1344.83374732655,9.162445088512127,0.33346664001066134,1.0078895043165053,0.9904708870227538
17158199,1999.0,1,195638.0,224758,-0.92,-0.78,9.82,-0.01,-0.16,0.05,26.71,15.238704,106.79982992610768,1318.0825794860582,9.893796035900477,0.16792855623746666,0.9037121342948259,0.9707061011957884
17198199,2017.0,1,195212.0,224884,-2.09,-1.82,11.23,0.39,0.27,-0.06,26.71,15.278704,111.9922979941049,903.6643310328985,11.566909699656172,0.47812132351527686,0.9475786457076546,0.6645180509281394
17238179,1916.0,1,195298.0,224662,-0.31,-1.82,10.97,0.06,-0.1,-0.18,26.71,15.318684,10.37695207545675,259.2033793221111,11.124270762616309,0.21447610589527216,0.08912161273485193,0.18836565412975712
17278238,1940.0,1,194762.0,224504,-0.16,-1.51,10.07,-0.0,-0.07,-0.265,26.71,15.358743,70.53160147222326,-500.8328132698472,10.1838401401436,0.27408940147331495,0.5973143603343118,-0.3731781504956368
17318211,2064.0,1,194474.0,221045,-1.52,0.06,11.65,-0.08,-0.1,0.255,26.71,15.398716,150.11284094120373,-1343.1590749986885,11.74889356492772,0.2853506614676055,1.269624965560542,-0.9955210051615602
17358179,1840.0,1,193575.0,219074,-1.05,-1.91,9.3,-0.34,-0.03,-0.02,26.71,15.438684,-16.658282321669496,-2216.8521562033693,9.551994556112353,0.3419064199455752,-0.13927486514420515,-1.6410388655958172
17398212,1900.0,1,193188.0,218425,-1.12,-2.22,11.59,0.03,0.07,0.08,26.71,15.478717,2.3760788383482896,-2956.0681253661883,11.853729370961698,0.11045361017187261,0.021529401753073812,-2.187199892938358
17438857,1878.0,1,193259.0,218341,-1.42,-2.12,10.41,0.44,0.23,-0.16,27.05,15.519362,7.543526368694176,-3319.2794148497464,10.718157490912326,0.5216320542297991,0.06518453705610956,-2.4555542836469493
17479205,1784.0,1,193084.0,218662,-0.65,-0.62,11.16,0.17,0.05,-0.25,27.05,15.55971,-87.27692257710015,-3160.6845622228393,11.196093068566373,0.3064310689208913,-0.7358684981057534,-2.338378341492929
17519179,1889.0,1,193863.0,222014,-1.17,-0.85,10.97,-0.21,0.1,-0.02,27.05,15.599684,3.74762787732358,-2584.6422067661383,11.064913013666217,0.23345235059857503,0.03311639098123675,-1.9127762200921226
17559200,1820.0,1,196178.0,226059,-0.35,-1.26,8.73,-0.37,0.08,0.12,27.05,15.639705,-40.60975951172195,-1917.3966298563648,8.8274005233704,0.3971145930332956,-0.34161944073960093,-1.4197896708600661
17599179,1850.0,1,196339.0,226343,-0.65,-0.47,9.2,-0.39,-0.07,-0.14,27.05,15.679684,-35.96173852573705,-1479.7510006495625,9.234901190592133,0.42023802778901387,-0.30235247501949836,-1.0964403434229684
17639213,2004.0,1,196512.0,227572,-1.7,-1.24,9.26,0.2,-0.03,0.21,27.05,15.719718,138.45264037748962,-1339.8936346586472,9.496062341834113,0.291547594742265,1.1711183759376762,-0.9931083729603611
17679179,1989.0,1,196766.0,228938,-0.76,-1.57,9.53,-0.01,0.05,-0.07,27.05,15.759684,104.9332616537104,-1267.152298833111,9.688312546568675,0.08660254037844388,0.8879431709903446,-0.9393642922558586
17719200,1946.0,1,197233.0,232015,-1.13,-0.75,10.12,-0.09,0.07,-0.17,27.05,15.799705,75.13639437426454,-932.8820414576468,10.210475013435955,0.20469489490458723,0.6362161306958999,-0.6923926428406016
17759200,2027.0,1,198948.0,236199,-1.16,-0.74,9.72,-0.14,0.04,0.07,27.05,15.839705,137.82502694835395,-185.79012713064782,9.816903788873557,0.16155494421403513,1.1658162322766092,-0.1404125660164409
17799179,1898.0,1,200431.0,239299,-0.63,-0.88,8.26,-0.38,-0.29000000000000004,-0.04,27.05,15.879684,22.45042621965208,819.1566372755493,8.330600218471655,0.4796873982084583,0.19111958063821857,0.6020805350109248
17839216,1719.0,1,200815.0,240466,0.12,-0.19,9.58,-0.52,-0.26,0.09,27.05,15.919721,-173.83341439586312,1715.746179677249,9.582635336899761,0.5883026432033092,-1.4671067621643878,1.2645151765910692
17879179,1710.0,1,201722.0,241753,-2.18,-1.33,9.19,-0.06,0.27,0.255,27.05,15.959684,-181.061441240904,2151.661088087971,9.538207378747853,0.3761980861195336,-1.5281698862776412,1.5865857813172641
17919179,1708.0,1,202304.0,242600,-1.17,-0.89,7.92,0.44,-0.06,-0.15,27.05,15.999684,-176.21500238143966,1990.3355618584494,8.055271565875355,0.4687216658103186,-1.4872266656826862,1.4673923130783704
17959200,1614.125,1,202060.0,239678,0.32,-0.95,9.13,0.3,-0.03,-0.265,27.05,16.039705,-305.4114441909256,1380.4844103186201,9.184867990341505,0.40140378672852606,-2.578691671324721,1.016810960204943
17999179,1648.0,1,200450.0,236477,-1.7,0.2837499999999997,10.04,0.19,0.27,0.03,27.05,16.079684,-222.5449579797743,663.9853803269933,10.18685987252696,0.33151168908501555,-1.8786269592224945,0.48743407627027213
18039148,1788.0,1,201006.0,237847,-1.3,-1.77,10.77,-0.49,0.19,0.255,27.05,16.119653,-153.55520877086127,180.69705466442156,10.991624083819461,0.584144673860851,-1.2957943675897725,0.13036217920957893
18079179,1621.0,1,201281.0,239595,-1.84,-0.22,9.29,0.33,-0.29000000000000004,-0.18,27.05,16.159684,-254.0796700822103,95.25364709770471,9.473019581949568,0.4747630988187688,-2.1450354937048903,0.06723332214614754
18119199,1726.0,1,201574.0,240207,-1.63,-0.62,9.13,-0.12,-0.06,-0.11,27.05,16.199704,-209.8643844902158,351.8173918653092,9.295063205809846,0.17349351572897473,-1.7715001527758094,0.2567924283702996
18159216,1618.0,1,201965.0,242808,-2.41,0.2837499999999997,10.69,-0.26,0.2,0.25,27.05,16.239721,-285.9989615405429,758.7269515429678,10.961966705956554,0.4124318125460256,-2.4146929946678988,0.5574327722210166
18218170,1614.125,1,202578.0,243379,-1.44,-1.17,9.84,-0.07,-0.29000000000000004,-0.2,27.05,16.298675,-298.8208834489696,1117.3469278280365,10.013396027322598,0.35916569992135944,-2.523013927288933,0.8223949251561489
18258216,1840.0,1,202655.0,243994,-3.0300000000000002,-0.47,11.61,0.18,0.06,0.25,27.05,16.338721,-89.76219868139076,1312.5903280525108,12.008076448790622,0.3138470965295043,-0.7568643696576307,0.9666482158003105
18298171,1841.0,1,203136.0,244640,-1.09,-1.33,8.51,0.07,-0.08,-0.24,27.05,16.378676,-62.798467346881246,1339.4842689705717,8.681998617829882,0.26248809496813374,-0.5290719571038206,0.986518487836956
18338200,1965.0,1,203084.0,245190,-1.24,-1.01,9.95,-0.29,0.01,-0.11,27.05,16.418705,37.2600587916205,1277.4468829915954,10.077708072771307,0.31032241298365804,0.31623290010994076,0.9406828946228427
18378199,2096.0,1,203215.0,245164,-1.13,-0.94,9.62,-0.06,-0.09,0.07,27.05,16.458704,181.11791591744858,1225.868116030568,9.731644259836052,0.12884098726725127,1.5315590704005264,0.9025745291009238
18418200,2112.0,1,202751.0,244526,-0.8,0.16,9.18,-0.08,-0.29000000000000004,-0.06,27.05,16.498705,203.78974797833158,1219.2735140247187,9.216181421825418,0.3067572330035594,1.7230930705762961,0.8977021849461988
18458886,2259.125,1,202686.0,244607,-1.08,-2.84,9.25,0.22,0.02,-0.14,27.25,16.539391,334.92837515550576,1171.4095796120134,9.736246710103437,0.2615339366124404,2.830965860624868,0.8623384797747522
18497178,2259.125,1,202634.0,244486,-1.14,0.2837499999999997,8.72,0.11,-0.25,0.02,27.25,16.577683,366.3040591291578,915.9959072507297,8.798779123406838,0.27386127875258304,3.096030908900915,0.6736290910258136
18537170,2259.125,1,202668.0,244300,0.34,-2.43,8.61,-0.41,0.25,-0.265,27.25,16.617675,340.8663516446694,354.7952491387287,8.952798445179026,0.5484751589634667,2.8811305048788047,0.25899258320403806
18577180,2259.125,1,201605.0,238982,-1.47,0.2837499999999997,10.35,0.05,-0.28,0.19,27.25,16.657685,375.2237775134459,-392.6314411192903,10.457720309058757,0.3420526275297414,3.171385619450827,-0.29323483888056473
18617170,2246.0,1,199933.0,236193,-1.16,-2.71,9.28,0.07,0.12,0.02,27.25,16.697675,343.15050444378636,-993.5040626569097,9.736945106140837,0.14035668847618202,2.900427265786909,-0.7371825104286462
18657171,2259.125,1,200097.0,238786,-0.9,-0.24,9.96,-0.13,-0.03,0.15,27.25,16.737676,383.6512512090337,-1103.8341806798248,10.003459401627019,0.2007485989988473,3.242581795567401,-0.8186986209023728
18697199,2221.0,1,201152.0,241820,-1.06,-1.8,8.96,-0.31,-0.0,-0.265,27.25,16.777704,340.7142368893782,-622.5246437092181,9.200282604355152,0.40782962128810607,2.8798454235722546,-0.4630887286007507
18738216,2079.0,1,201609.0,242562,-0.43,-0.44,8.93,-0.52,-0.06,0.08,27.25,16.818721,206.29132106041095,209.08017148087026,8.951167521614149,0.5295280917949491,1.7442266206950523,0.15133271134947723
18778199,2016.0,1,202066.0,243539,0.03,-1.35,9.08,-0.29,-0.0,-0.265,27.25,16.858704,171.04896704830287,936.2031642756436,9.17985838670728,0.39284220750830734,1.446495540938335,0.6885589852879745
18818199,1983.0,1,201885.0,242886,-1.4,-1.79,9.09,0.18,-0.22,0.12,27.25,16.898704,104.06516024777545,1145.2445805644304,9.369749196216514,0.30854497241083023,0.8806093598369087,0.8430067778684356
18858179,1992.0,1,201476.0,241812,-0.05,-1.11,8.34,0.33,-0.09,-0.1,27.25,16.938684,186.420158227903,682.2890797338428,8.413691223238466,0.3563705936241092,1.5763529660546296,0.5009575493677697
18898199,2085.0,1,200536.0,239017,-1.7,-2.25,11.71,0.18,0.27,0.17,27.25,16.978704,207.10309690886893,-267.6506226308477,12.04477480071753,0.36633318168028406,1.7510845876685066,-0.20089423062630143
18938170,1669.0,1,199260.0,236321,-1.05,-2.89,10.27,0.44,0.21,-0.26,27.25,17.018675,-116.72611288531911,-1263.494224154021,10.720424431896342,0.5525395913416522,-0.9846583271113504,-0.9366615667897269
18978180,1614.125,1,198644.0,235391,-1.06,-1.61,11.71,0.44,0.25,-0.25,27.25,17.058685,-239.55197195831028,-1818.6769428833975,11.867594533013,0.5644466316668034,-2.0223039858344922,-1.3468517908557258
19018179,1614.125,1,198110.0,236385,-1.3,0.22,11.71,-0.05,0.12,0.0,27.25,17.098684,-177.31578642040748,-1653.5819074352062,11.78399338085354,0.13,-1.4965262039708565,-1.2248732650513448
19058170,1614.125,1,199293.0,237640,-1.48,-2.32,11.41,-0.46,0.0,0.255,27.25,17.138675,-204.57952033954294,-860.8538074103245,11.737158940731781,0.5259515186782904,-1.7268530696267437,-0.6391754290005017
19098179,1614.125,1,199737.0,239912,-1.72,-1.24,10.27,-0.08,-0.17,0.02,27.25,17.178684,-187.94221551400372,130.08587145844476,10.486605742565132,0.18894443627691185,-1.5862993844714446,0.09296870156852775
19138200,1614.125,1,200522.0,241064,-0.2,-1.19,10.14,-0.29,-0.08,0.02,27.25,17.218705,-184.64004167663475,796.6077326243087,10.211547385190945,0.3014962686336267,-1.558402275731022,0.5854205419324231
19178199,1614.125,1,201103.0,240606,-1.94,-0.62,8.75,-0.21,-0.14,0.15,27.25,17.258704,-187.16386772154075,834.4497044441006,8.98390227017191,0.293598365118064,-1.5797238211990072,0.6133796378772413
19218200,1614.125,1,199495.0,233948,-0.77,-1.7,9.76,-0.52,0.07,0.09,27.25,17.298705,-186.27990914024122,324.585573270088,9.93682544880406,0.5323532661682466,-1.5722560469754094,0.23667251938454575
19258179,1637.0,1,198221.0,232857,-1.56,-1.2,9.22,0.06,-0.29000000000000004,0.24,27.25,17.338684,-159.93987962976092,-367.0222123609616,9.427725070238314,0.3811823710509184,-1.3497327324350479,-0.274313761317888
19298179,1683.0,1,198249.0,233907,-1.13,-2.03,8.38,0.05,-0.09,-0.07,27.25,17.378684,-127.00383366809983,-869.9409349482028,8.696102575291992,0.12449899597988733,-1.0714855834587569,-0.6458893463382197
19338199,1616.0,1,198478.0,234166,0.11,-0.2,7.81,-0.13,-0.21,-0.265,27.25,17.418704,-188.5384244679161,-1038.1854834612632,7.813334755403738,0.3622499137335991,-1.5913362198527579,-0.7701948528395758
19378200,1614.125,1,198111.0,233277,-1.19,-1.65,10.82,-0.21,0.23,0.01,27.25,17.458705,-205.1948288427001,-964.1239203378148,11.009586731571718,0.3116087290176577,-1.7320512599906885,-0.7154753377188362
19418179,1614.125,1,197991.0,233839,-1.31,-0.61,9.43,0.44,-0.18,-0.01,27.25,17.498684,-208.63518558621024,-821.7071164796071,9.540078616028277,0.4754997371187496,-1.761115752324023,-0.6102523566810611
19458200,1614.125,1,197808.0,233665,-0.43,-2.3,10.52,0.05,0.17,-0.26,27.25,17.538705,-225.1766913903853,-709.9932960930272,10.777072886456693,0.31464265445104544,-1.9008601173623803,-0.5277139139850866
19498866,1614.125,1,198193.0,235243,-1.34,0.2837499999999997,8.88,0.2,-0.07,-0.07,28.13,17.579371,-221.467370907286,-612.9067647175834,8.985016085823109,0.223159136044214,-1.8695233913248,-0.45598267179183666
19537179,1614.125,1,198241.0,235455,-0.46,-2.24,11.71,-0.52,0.27,0.0,28.13,17.617684,-268.374098357215,-460.5125915428552,11.93119021724153,0.5859180830116101,-2.2657963135797465,-0.343388028745382
19577179,1614.125,1,198592.0,236217,-1.25,-0.52,8.66,0.11,-0.17,-0.03,28.13,17.657684,-224.35706719005054,-212.44929561878453,8.765186820598862,0.20469489490458723,-1.8939358466942926,-0.16010937920361873
19617200,1761.0,1,198669.0,237104,-1.15,-1.63,10.64,-0.19,0.01,0.2,28.13,17.697705,-178.09734526313596,92.35463764669731,10.825386829116086,0.27604347483684527,-1.5031288945306023,0.06509142309892986
19657179,1712.0,1,199012.0,237509,-0.52,-0.33,8.08,-0.21,-0.18,0.01,28.13,17.737684,-137.83112408084972,331.97235996440764,8.103437542179245,0.27676705006196095,-1.162955661317916,0.24213015988208378
19697199,1981.0,1,198713.0,236998,-1.36,-2.05,10.35,-0.08,0.11,0.19,28.13,17.777704,-2.7669358510042628,341.14246788705606,10.638355136016093,0.23366642891095846,-0.021919322362787257,0.24890538630143147
19738181,1872.0,1,198545.0,236688,-1.62,-0.85,9.3,0.44,-0.01,0.02,28.13,17.818686,-15.949760389613964,-7.882375628414801,9.47823295767729,0.4405678154382138,-0.1332891980179475,-0.008967515603495478
19778179,2000.0,1,198170.0,235504,-0.76,-2.22,10.29,0.16,0.14,-0.19,28.13,17.858684,-5.983107877942373,-705.3848620975926,10.554150842204217,0.2851315485876651,-0.04908987884532672,-0.5243090267121056
19818179,2099.0,1,197375.0,231628,-1.72,-0.26,10.45,0.17,0.13,0.06,28.13,17.898684,152.3920987716522,-1547.701424913582,10.593795353885216,0.2222611077089287,1.2888803732631668,-1.1466447154503052
19858171,2201.0,1,196150.0,228584,-1.3,-2.14,10.73,-0.2,0.27,-0.02,28.13,17.938676,182.1451891641104,-2195.499358647607,11.018280265086744,0.3366006535941367,1.5402375818537832,-1.6252626021813512
19898199,2181.0,1,195946.0,230121,-1.82,-0.06,9.7,0.06,-0.15,0.07,28.13,17.978704,176.34502142057858,-2346.7099222358515,9.86944780623516,0.17606816861659008,1.4912371602457795,-1.7369827492013488
19938202,2259.125,1,196906.0,231725,-0.88,-1.55,9.6,-0.38,0.11,-0.13,28.13,18.018707,221.24629135513197,-1914.3033955955862,9.764061654864742,0.4164132562731403,1.8705677683961162,-1.4175042710957844
19976199,2259.125,1,197664.0,234459,-1.04,0.07,8.49,-0.14,-0.2,-0.01,28.13,18.056704,210.51123338585955,-1069.564114557464,8.553747716644441,0.24433583445741236,1.7798768798321927,-0.7933785854847358
20016200,2259.125,1,198835.0,237258,-2.48,-0.55,9.89,-0.23,0.14,0.14,28.13,18.096705,192.87242041551062,-116.46527461709759,10.211023455070507,0.3034798181098704,1.6308623494893983,-0.08919271383704196
20056179,2259.125,1,199360.0,238830,-0.87,-0.92,8.29,-0.08,-0.29,-0.1,28.13,18.136684,181.68802529890158,694.612196594302,8.38614333290339,0.31701734968294715,1.5363754138735282,0.510062339368712
20096216,2259.125,1,199668.0,239349,-1.79,-1.17,9.44,-0.04,-0.08,-0.09,28.13,18.176721,161.65814446314087,1269.1407698451187,9.679183849891476,0.1268857754044952,1.3671608929995662,0.9345460205852854
20136213,2259.125,1,200086.0,240646,-1.67,-0.73,9.04,0.01,0.08,0.08,28.13,18.216718,161.33507580246354,1638.9901558004242,9.22189785239459,0.11357816691600547,1.3644315752829923,1.207804890823336
20176170,2259.125,1,200774.0,241983,-1.52,-0.86,9.4,-0.39,-0.03,0.0,28.13,18.256675,139.2481300410384,1872.4795847763655,9.560857702110203,0.39115214431215894,1.1778387555236232,1.3803158101255073
20216199,2256.0,1,200839.0,242269,-1.04,-0.34,9.04,-0.3,-0.26,-0.12,28.13,18.296704,136.41736101636693,2017.1461603807104,9.10597605970936,0.41472882706655445,1.1539241237720739,1.4872010085657934
20256216,2259.125,1,200624.0,242070,-2.06,-0.9,9.71,-0.1,-0.11,0.19,28.13,18.336721,135.59057122536612,2096.0053594831616,9.966829987513584,0.24124676163629638,1.1469393174472202,1.5454652006204945
20296199,2257.0,1,200442.0,241855,-2.27,-0.66,10.62,0.05,-0.11,0.05,28.13,18.376704,111.32997947284751,2116.5845638565097,10.879931065958091,0.1307669683062202,0.9419833098112759,1.560669903807804
20336178,2259.125,1,200303.0,241788,-0.96,-1.66,9.18,0.1,0.0,-0.21,28.13,18.416683,146.12360554900238,2068.7318670364116,9.378144805877119,0.23259406699226012,1.235923489197307,1.525314501399527
20376179,2259.125,1,200474.0,242202,-1.01,-1.66,9.53,0.04,0.07,0.02,28.13,18.456684,98.19002199111014,1931.894001360489,9.726078346384014,0.08306623862918075,0.8309755795203047,1.4242134532422988
20416170,2167.0,1,200662.0,241525,-0.7,-0.94,10.04,-0.06,0.08,0.04,28.13,18.496675,56.593845508152285,1703.177567432299,10.108174909448291,0.10770329614269009,0.47956674531566756,1.2552290052117545
20456177,2253.0,1,199538.0,235065,-0.95,-0.36,8.93,-0.28,-0.16,0.12,28.13,18.536682,110.70153969035974,1407.577837182811,8.987602572432762,0.34409301068170506,0.9366741850309653,1.0368286200873924
20496200,2253.0,1,198288.0,234119,0.05,-2.73,8.01,-0.25,-0.19,-0.05,28.13,18.576705,121.55822869069868,1056.7944598151707,8.462594164911845,0.3179622619116929,1.0283926252220847,0.7776564461220888
20536886,2259.125,1,198568.0,235636,-1.76,0.2837499999999997,9.1,-0.05,-0.26,0.2,28.25,18.617391,168.06910566353233,607.3786954123316,9.272977626550167,0.3318132004607412,1.4213213613898217,0.44561089268501936
20577179,2259.125,1,198805.0,234177,-0.28,-3.32625,8.66,-0.22,0.13,-0.01,28.25,18.657684,103.06251911501924,9.974076958968174,9.281052691505419,0.25573423705088844,0.8721389430491582,0.004225514440029439
20617199,2139.0,1,197425.0,232045,-1.1,-1.03,8.56,0.44,-0.29,-0.19,28.25,18.697704,93.58194912804058,-664.936297940374,8.691633908535264,0.5601785429664368,0.7920460997061024,-0.4944240806662885
20657200,2259.125,1,196173.0,229776,-0.77,-2.2,10.66,0.33,0.27,-0.1,28.25,18.737705,116.99582990748381,-1178.9496410128515,10.911851355292557,0.4379497688091638,0.9898490047947827,-0.8741967955850108
20717179,1821.0,1,195709.0,230157,-1.83,-1.76,11.71,0.34,0.27,0.03,28.25,18.797684,-219.24888686802484,-1268.029749143417,11.982094975420617,0.4352011029397789,-1.8507814069441497,-0.9400125861008379
20758170,1757.0,1,196323.0,233086,-1.83,-0.6,11.71,-0.32,0.07,-0.19,28.25,18.838675,-323.1532556447387,-872.0353100670237,11.867308035102148,0.37868192457522976,-2.728576343590628,-0.6474367507697437
20796200,1858.0,1,197760.0,234933,-1.58,-2.75,11.38,-0.52,0.12,0.08,28.25,18.876705,-200.54016839486576,-219.15788388387273,11.813691209778593,0.5396295025292818,-1.6927282034048976,-0.16506594076576708
20836179,1689.0,1,197985.0,235544,-1.7,-2.19,11.71,0.06,0.06,0.03,28.25,18.916684,-324.6508926321699,333.49368784450564,12.033710982070328,0.09,-2.7412285369486056,0.24325417509899014
20876171,1714.0,1,197283.0,233442,-1.63,-2.84,10.63,0.44,-0.17,-0.09,28.25,18.956676,-336.0272569740514,552.8488936583717,11.122922277890824,0.4802082881417188,-2.837337248587178,0.40532218980369933
20916200,1716.0,1,197042.0,233860,-1.57,-0.56,11.16,0.25,-0.09,0.09,28.25,18.996705,-271.5266966751355,447.61647889227635,11.283798119427695,0.28053520278211075,-2.292429792742665,0.3275724574440513
20956193,1645.0,1,197071.0,232218,-1.28,-2.85,11.71,-0.4,0.22,-0.02,28.25,19.036698,-349.4031556454451,186.12433040206886,12.119612205017123,0.45694638635183454,-2.9503382346388554,0.13437205807610517
20996200,1614.125,1,196346.0,233453,-2.23,-2.72,10.71,0.44,-0.08,0.15,28.25,19.076705,-383.4615963799576,-53.60560854538275,11.272772507240623,0.4716990566028302,-3.2380674916354995,-0.042749588644524626
21036179,1712.0,1,197538.0,232358,-1.76,-0.43,10.87,0.22,0.27,0.255,28.25,19.116684,-210.5607093109268,-155.55414524931462,11.019954627855778,0.43165379646193314,-1.7773827774342095,-0.11807306630876874
21076170,1866.0,1,196679.0,228913,-1.42,-2.68,8.36,-0.52,-0.07,-0.18,28.25,19.156675,-135.23162901929692,-58.33807119690213,8.89316591546565,0.5547071299343466,-1.14099485611085,-0.04624611303176324
21116214,1674.0,1,195954.0,228693,-0.91,-1.12,9.35,-0.52,-0.29,-0.03,28.25,19.196719,-206.96941178200362,231.1795571956752,9.460708218732886,0.5961543424315553,-1.7470431216142102,0.16766058264709857
21156216,1982.0,1,196888.0,230951,-1.68,-1.58,7.82,-0.28,0.01,0.22,28.25,19.236721,15.980411640217001,573.7352268864361,8.152987182622086,0.35623026261113755,0.13646022314708475,0.42075381153418945
21196179,2080.0,1,197710.0,231640,-1.76,-1.24,8.2,-0.38,-0.29000000000000004,0.255,28.25,19.276684,196.7179934048587,688.5357917768573,8.477924274254871,0.5417794754325786,1.6633501509004083,0.5055728591138371
21236201,2046.0,1,196808.0,230015,-0.71,-2.68,7.710000000000001,-0.33,-0.29000000000000004,-0.19,28.25,19.316706,141.82022470466936,298.99552530901457,8.193326552750111,0.4786439177509728,1.199568079313295,0.2177656133283992
21276214,2085.0,1,195906.0,228383,-2.09,-2.77,9.6,0.44,0.19,0.12,28.25,19.356719,184.34667805260185,-635.5333856881487,10.207889105980726,0.494064773081425,1.5588359894294457,-0.4727000846591069
21316171,2110.0,1,194802.0,226623,-1.37,-2.16,9.58,0.44,0.27,-0.17,28.25,19.396676,255.92784343798618,-1803.64208756607,9.915588736933374,0.5435071296680477,2.16356113500606,-1.3357434647797106
21356179,2259.125,1,194151.0,224920,-0.89,-2.29,10.05,0.32,0.23,-0.18,28.25,19.436684,358.385751920335,-2681.0588949168623,10.34595089878161,0.4332435804486894,3.0291362243313698,-1.9840125564945985
21396179,2259.125,1,193331.0,223771,-1.83,-1.32,11.6,0.07,0.27,-0.265,28.25,19.476684,422.5338720879491,-2862.0650409556447,11.817415114990249,0.38474017206421274,3.5710662292142916,-2.117746819280906
21436179,2169.0,1,193983.0,225878,-1.71,-1.75,10.87,0.06,0.27,-0.17,28.25,19.516684,289.18478587897647,-2347.965091083652,11.141970202796271,0.32465366161495857,2.444519250884505,-1.7379101159466581
21476180,1978.0,1,195648.0,230221,-2.43,-0.15,9.77,-0.52,-0.15,0.02,28.25,19.556685,134.84174464015103,-1556.6338837568626,10.068778476061532,0.5415717865620402,1.1406131524104004,-1.1532443576415665
21516199,2013.0,1,196609.0,232082,-1.56,-1.81,9.83,-0.52,-0.13,-0.06,28.25,19.596704,157.38795661343138,-1016.7921208065222,10.116254247496945,0.539351462406472,1.331085900993606,-0.7543886183786813
21556902,2096.0,1,196282.0,230654,-2.5,-2.12,10.68,0.18,-0.04,0.1,27.67,19.637407,241.24562330501595,-976.2766949427164,11.171696379690955,0.20976176963403032,2.039524209098296,-0.7244542723470916
21595179,2064.0,1,195395.0,230126,-2.8,-1.91,10.21,0.44,0.07,-0.18,27.67,19.675684,219.158576130996,-1245.348535018296,10.757890127715566,0.48052055106935854,1.8529305325947567,-0.9232548377232136
21635179,2036.0,1,196200.0,231543,-1.69,-0.18,9.87,-0.03,-0.03,-0.16,27.67,19.715684,174.62753779412498,-1399.912519549161,10.015258359123841,0.16552945357246848,1.4767276795682733,-1.0374526203781773
21675213,1857.0,1,196290.0,230184,-0.82,-1.64,8.4,-0.52,-0.29000000000000004,-0.265,27.67,19.755718,6.275238988866253,-1156.8938515917062,8.597790413821448,0.6517092910186258,0.054469913086659286,-0.8579011348963681
21715216,1614.125,1,197098.0,232057,-2.18,0.2837499999999997,8.99,-0.52,-0.29000000000000004,0.255,27.67,19.795721,-251.04058040993897,-597.8902136416275,9.254891358762674,0.647707495710834,-2.1193609474106228,-0.4448878695893434
21755180,1614.125,1,198483.0,235784,-1.98,-2.17,8.56,-0.52,-0.29000000000000004,0.1,27.67,19.835685,-255.03216667418553,-67.68353381009528,9.05002209942053,0.6037383539249432,-2.1530822841859103,-0.05315089820245352
21796201,1614.125,1,198635.0,235051,0.13,-1.41,7.710000000000001,-0.37,-0.29000000000000004,-0.1,27.67,19.876706,-254.3305766458458,141.5314890945982,7.838947633451828,0.48062459362791665,-2.1471551785047076,0.10142516158495712
21836199,1614.125,1,198577.0,235214,-1.28,-2.78,7.710000000000001,0.44,-0.29000000000000004,-0.265,27.67,19.916704,-285.26569331006516,37.04772197834739,8.29523357115398,0.589851676271247,-2.408498268233438,0.024228558739028534
21876202,1891.0,1,197834.0,233172,-0.11,0.2837499999999997,10.3,0.44,0.27,-0.24,27.67,19.956707,19.82168703604119,-101.49583687233277,10.304494847516787,0.5692978130996114,0.1689117180400968,-0.07813272076535524
21916171,2032.0,1,198935.0,237864,-1.76,-1.68,11.71,0.44,0.27,-0.265,27.67,19.996676,94.94818677902786,25.271121440446073,11.960104514593509,0.5802801047769948,0.8035882177749741,0.015527555897237635
21996180,1614.125,1,199844.0,240894,-1.21,-2.87,10.85,-0.52,-0.05,0.01,27.67,20.076685,-266.75010174389314,499.96238405327455,11.28820180542499,0.5224940191045253,-2.2520766209326704,0.3662476140052442
22036199,1619.0,1,200767.0,242135,-2.95,-1.67,11.07,-0.18,-0.24,0.255,27.67,20.116704,-352.0616943090827,1162.6762315645212,11.577404717811328,0.3937321424522006,-2.9727978463500326,0.8558859482538758
22076202,1614.125,1,201600.0,243628,-1.24,-2.24,7.86,-0.17,-0.25,-0.2,27.67,20.156707,-289.7241899211699,1771.0454703981927,8.266486557177723,0.3624913792078372,-2.4461641122817617,1.3053724073482311
22116214,1614.125,1,201479.0,243744,-0.82,-0.99,7.710000000000001,-0.52,-0.29000000000000004,0.14,27.67,20.196719,-385.3546921057874,2165.3935429038897,7.816431410816576,0.6116371473349211,-3.254060561631349,1.5967318440960367
22156199,1617.0,1,201976.0,245311,0.4900000000000001,-2.01,7.710000000000001,-0.45,-0.29000000000000004,0.03,27.67,20.236704,-316.6800766747719,2306.757085486315,7.98275015267295,0.5361902647381804,-2.6738902529984796,1.7011766354241213
22196180,1929.0,1,202457.0,245489,-1.02,-0.76,10.72,-0.12,-0.17,0.255,27.67,20.276685,-99.4416440469373,2217.030041496768,10.795202638209252,0.3291276348166468,-0.8386373329262083,1.6348828639553576
22236200,1936.0,1,202523.0,245222,-1.78,-2.56,9.25,0.1,-0.21,0.16,27.67,20.316705,-27.90359559640141,1933.0121842836006,9.761377976494918,0.2823118842698621,-0.23427644370896822,1.4250396095477897
22276177,1993.0,1,202232.0,243574,0.05,-3.32625,9.88,0.44,0.09,-0.17,27.67,20.356682,-63.584513383583214,1520.8289548932296,10.425010266781516,0.4802082881417188,-0.5357125559459229,1.1205028768360172
22316171,2045.0,1,201171.0,241498,-0.01,-1.82,10.99,0.35,0.27,-0.265,27.67,20.396676,47.16241183130045,1096.4396993539772,11.13968581244552,0.5153882032022076,0.3998890106416949,0.8069478652188352
22356180,2259.125,1,201561.0,242193,0.4900000000000001,-2.52,10.64,-0.52,0.26,-0.11,27.67,20.436685,183.89491346709787,793.6358536065903,10.945323202171785,0.5916924876994806,1.555019435126866,0.5832248040626189
22396197,2192.0,1,201559.0,242814,-0.61,-2.35,11.64,-0.1,-0.1,-0.265,27.67,20.476702,152.22623482677707,698.6101023519,11.89050882006317,0.30037476591751183,1.2874791373700307,0.5130161450315703
22436214,2239.0,1,201905.0,243977,0.4900000000000001,-3.25,9.27,0.44,0.18,-0.2,27.67,20.516719,156.78584095280678,812.5489666188371,9.835420682411097,0.5157518783291051,1.3259991651383733,0.5971985352371669
22476171,2214.0,1,202271.0,243859,0.09,-1.02,8.77,-0.12,-0.12,-0.01,27.67,20.556676,132.16811292093362,1061.991331093922,8.829575301224855,0.16999999999999998,1.118026032992642,0.7814960933631844
22516199,2089.0,1,202224.0,244651,0.45,-1.82,10.81,-0.52,0.19,-0.16,27.67,20.596704,0.22182356302476697,1323.2288050714328,10.971371837650933,0.5762811813689565,0.0033300286642807867,0.9745083294618089
22556865,2109.0,1,202188.0,244124,-2.07,-1.59,9.99,-0.52,-0.15,0.255,27.53,20.63737,0.937761623161337,1438.1136007954615,10.32536197912693,0.598268334445339,0.009378348013497842,1.0593896100025073
22595219,2198.0,1,202489.0,244627,-0.16,-3.32625,9.25,0.15,0.05,0.08,27.53,20.675724,92.94300588980046,1248.7415356028166,9.831176891018695,0.17720045146669353,0.7866482406368949,0.9194742862132661
22635171,2259.125,1,202167.0,243177,-0.92,-2.76,8.29,0.44,-0.18,0.07,27.53,20.715676,145.17312889962602,679.6615481140708,8.785675841960025,0.4805205510693585,1.2278937634018865,0.4990162285242077
22675180,2259.125,1,201299.0,240126,0.4900000000000001,-2.77,9.34,0.44,0.08,-0.265,27.53,20.755685,134.62455966714748,-175.1684630231126,9.754414385292435,0.5198317035349037,1.1387783511228058,-0.13256487437683961
22715171,2221.0,1,199523.0,237048,-0.48,-2.05,10.79,0.44,0.27,-0.19,27.53,20.795676,109.28308927372437,-1056.382172198892,10.9934980784098,0.5500909015790028,0.9246909680761297,-0.7836392623623181
22755179,2259.125,1,199396.0,236648,-0.93,-2.6,11.71,0.31,0.27,0.2,27.53,20.835684,128.31991544642,-1670.455501710605,12.031167856862442,0.4571651780264984,1.085516059657422,-1.237340121787205
22795171,2259.125,1,199070.0,236486,-0.59,-1.95,11.44,-0.07,-0.16,0.03,27.53,20.875676,144.49647014382853,-1858.8310102842058,11.619991394144833,0.17720045146669353,1.2221772797095314,-1.3765191514356712
22836200,2259.125,1,199543.0,238811,-1.78,-1.94,10.72,-0.16,0.12,0.12,27.53,20.916705,142.35306903285567,-1670.568472640906,11.038586866080278,0.23323807579381203,1.2040696037324259,-1.2374235890307808
22876182,2259.125,1,200273.0,236222,-1.01,-2.3,10.73,-0.35,0.24,0.1,27.53,20.956687,138.15371913008252,-1298.7035535215757,11.02011796670072,0.4360045871318328,1.1685930580851243,-0.9626755658125078
22916180,2259.125,1,199353.0,234892,-0.88,-0.67,8.47,-0.52,-0.29000000000000004,-0.07,27.53,20.996685,165.92992984089906,-963.2823724763881,8.541908451862499,0.5994997914928746,1.403249381088981,-0.7148535699760814
22956217,2259.125,1,199235.0,236966,-1.33,-2.12,10.7,-0.52,-0.17,0.25,27.53,21.036722,144.29427507102653,-832.6520820587039,10.988780642091276,0.6014981296729026,1.220469114661131,-0.6183389158116467
22996200,2158.0,1,199702.0,237287,-0.72,-0.56,9.33,-0.23,-0.11,0.255,27.53,21.076705,79.94749187854532,-980.2723683080542,9.374481318985067,0.3605897946420558,0.6768607838388834,-0.7274064286331762
23036200,2176.0,1,200325.0,237256,-1.38,-3.32625,8.14,0.44,0.1,0.12,27.53,21.116705,91.03645087779657,-1331.7499309720213,8.901007755445447,0.4669047011971501,0.7705414651886805,-0.9870914932426542
23076171,2224.0,1,198624.0,235273,0.1,-1.15,10.62,0.44,-0.14,-0.265,27.53,21.156676,150.32342952888507,-1639.937264891089,10.68255119341817,0.5323767462990847,1.2714040398974398,-1.2147920813371231
23114179,2257.0,1,198012.0,235024,-0.18,-1.7,10.33,0.44,0.27,-0.265,27.53,21.194684,211.89120441179384,-1591.114375460506,10.470496645336361,0.5802801047769948,1.7915350188839496,-1.178719863525815
23154180,2117.0,1,198751.0,238258,-1.32,0.2837499999999997,11.71,-0.08,0.21,-0.01,27.53,21.234685,60.9799172777902,-1035.7766032586178,11.787578804084408,0.22494443758403984,0.5166207367549482,-0.7684150800247218
23194179,1947.0,1,200314.0,239551,0.13,-2.71,8.81,-0.52,-0.11,0.255,27.53,21.274684,-81.71802763756017,-157.31656583372506,9.218302446763179,0.5895125104694556,-0.6889063742920385,-0.11937521003556266
23234179,2071.0,1,200593.0,240731,-1.29,-0.85,8.36,-0.52,-0.29000000000000004,0.255,27.53,21.314684,73.19803270465468,608.1020124808288,8.501541036776802,0.647707495710834,0.6198406492892463,0.4461453069965394
23274201,2145.0,1,200493.0,239739,-2.14,-1.78,10.45,-0.42,0.03,0.255,27.53,21.354706,93.18808979158267,867.9564278626892,10.814365446016701,0.49226517244265816,0.7887187349825204,0.6381356865133442
23314180,1856.0,1,200495.0,239853,-2.88,-0.61,10.13,0.44,0.27,-0.03,27.53,21.394685,-52.048183624821796,547.9505392840288,10.549094747891878,0.5171073389539158,-0.4382524397934794,0.40170309826755624
23354180,1903.0,1,199297.0,235413,-0.14,-3.32625,10.92,0.44,-0.07,-0.265,27.53,21.434685,-182.76588481874248,-77.66076081001624,11.416213867237246,0.5183869211313109,-1.5425692032653742,-0.060522455062186814
23394200,1614.125,1,197579.0,235741,-0.86,-0.23,10.49,0.44,0.1,-0.265,27.53,21.474705,-219.6872137199022,-613.4349077882871,10.527706302894282,0.5232829062753722,-1.8544844378725311,-0.4563728840898827
23434179,1937.0,1,199082.0,235781,-1.34,-1.8,11.71,-0.42,0.27,0.255,27.53,21.514684,-147.3936242996306,-830.540026390801,11.92307426798978,0.5606469477309227,-1.243740659798248,-0.6167784483143158
23474180,1614.125,1,198523.0,232325,0.39,-2.34,7.710000000000001,-0.37,-0.29000000000000004,-0.01,27.53,21.554685,-197.65139502777998,-783.9270225507571,8.066709366278173,0.4702127178203499,-1.6683235449232479,-0.5823389784884242
23514200,1922.0,1,197542.0,231654,-1.51,-0.86,9.69,-0.19,-0.2,0.15,27.53,21.594705,-114.46331638071553,-690.8834575119051,9.844582266404197,0.31400636936215165,-0.9655419864051112,-0.5135948344370136
23554200,1840.0,1,197937.0,232727,-1.05,0.2837499999999997,8.57,-0.46,-0.02,0.255,27.53,21.634705,9.866183611966107,-700.8959668871191,8.638744935608413,0.5263316444980294,0.08480658752148221,-0.5209924592648929
23594866,1834.0,1,198495.0,232297,-0.37,-3.32625,9.86,-0.3,0.27,-0.14,27.53,21.675371,-141.34787147010226,-750.2609068628265,10.412513580423315,0.42720018726587655,-1.1926655097881416,-0.5574651647482031
23635200,1614.125,1,197754.0,231521,-1.51,-1.87,8.26,0.44,-0.29000000000000004,-0.265,27.53,21.715705,-235.88132249061078,-613.6253694911558,8.6025926324568,0.589851676271247,-1.9912939565654169,-0.4565136044796572
23675200,1718.0,1,197137.0,232634,0.41,-0.55,10.05,0.24,0.14,-0.26,27.53,21.755705,-217.46454146221876,-119.09183653965928,10.07338572675543,0.380525951808809,-1.8357070709861414,-0.09113331823122155
23715170,1614.125,1,198709.0,235687,-0.55,-0.51,9.65,-0.48,0.14,0.23,27.53,21.795675,-239.2722495317037,645.2173996014114,9.67910636370941,0.5503635162326805,-2.019940861621021,0.47356757437930574
23755180,1614.125,1,199646.0,238281,-0.03,-3.32625,8.63,-0.51,0.03,-0.11,27.53,21.835685,-303.4425974992887,1334.5154355826944,9.2488777190803,0.5225897052181568,-2.562058649274744,0.9828473237103336
23795199,1614.125,1,199745.0,236959,-0.98,0.2837499999999997,8.01,-0.1,-0.29000000000000004,0.19,27.53,21.875704,-239.7882118719536,1598.107276160445,8.074714487986556,0.36083237105337435,-2.024299765246574,1.1775990558896288
23834183,1792.0,1,199092.0,236199,-1.81,-2.08,11.32,-0.26,0.2,0.255,27.53,21.914688,-110.23797172691272,1370.5276423678847,11.65096133372693,0.4154816482108446,-0.9298458343918612,1.0094545192731494
23874179,1614.125,1,198121.0,232871,-0.89,-2.61,9.22,0.44,-0.07,-0.02,27.53,21.954684,-253.05876389059503,929.7030133423475,9.623544045724527,0.4459820624195552,-2.13641077179626,0.6837564251976789
23914200,1614.125,1,197293.0,232452,-1.39,-2.76,10.75,0.44,0.27,-0.265,27.53,21.994705,-268.9245772337703,658.9401040051569,11.185356498565435,0.5802801047769948,-2.270446816501423,0.4837064331806864
23954179,1879.0,1,197733.0,234984,-0.6,0.2837499999999997,11.71,0.15,0.03,-0.17,27.53,22.034684,-8.140139275620692,731.9643911322776,11.72879422884126,0.22869193252058545,-0.06731270490510875,0.5376595691275106
23994171,1919.0,1,199185.0,237026,0.4900000000000001,-2.01,8.53,-0.52,-0.24,-0.15,27.53,22.074676,47.00953015493693,1004.8726545630509,8.77730596481631,0.5920304046246274,0.3985974503059952,0.7392946307921348
24034223,1949.0,1,197782.0,231733,-2.48,0.11,11.71,-0.52,-0.23,0.255,27.53,22.114728,48.951415237653535,1184.3409141345644,11.970238092870167,0.62315728351677,0.415002697873795,0.8718926442440954
24074180,2001.0,1,197608.0,230296,-2.54,-2.28,8.89,0.16,0.02,0.255,27.53,22.154685,126.18800910979866,1082.461699132338,9.522714949004827,0.3017034968309118,1.0675054927320575,0.7966203841040932
24114171,2094.0,1,197108.0,229658,-0.33,-2.32,10.67,-0.41,-0.08,-0.2,27.53,22.194676,187.6946133370613,730.9028909508555,10.924294027533312,0.4631414470763764,1.5871196956442821,0.5368752921992587
24154216,2203.0,1,196671.0,229730,-1.45,-2.23,10.16,0.35,-0.04,-0.265,27.53,22.234721,319.8239496222063,307.3424662007715,10.502428290638314,0.4408230937689177,2.7033620994916268,0.2239326524655168
24194199,2165.0,1,196524.0,229631,-0.2,-0.31,10.51,0.15,-0.09,-0.06,27.53,22.274704,251.50255559635656,-5.294933968282315,10.51647279271905,0.1849324200890693,2.1261758421033785,-0.007055814755247721
24234217,1908.0,1,196392.0,229199,0.4900000000000001,-1.94,9.58,-0.17,0.14,-0.18,27.53,22.314722,19.108613358233455,-106.67800635710398,9.786730812687145,0.2844292530665578,0.16288759729132815,-0.08196150575882771
24274177,1968.0,1,195907.0,228722,-1.13,-1.61,10.11,0.15,-0.29000000000000004,0.22,27.53,22.354682,42.37619820288943,3.3079345889472442,10.299567952103622,0.39370039370059057,0.3594545790755303,-0.0006996864716142268
24314181,1990.0,1,195929.0,229122,0.4900000000000001,-2.16,8.17,0.06,-0.09,0.01,27.53,22.394686,103.53522379580161,236.0414160769033,8.46490401599451,0.10862780491200215,0.8761324014590884,0.17125270991725652
24354170,2035.0,1,196310.0,229019,-0.73,-0.98,8.68,-0.29,-0.02,0.09,27.53,22.434675,88.84429253543384,443.03145227518957,8.765597526694915,0.3043024810940588,0.7520218830391704,0.32418486443734573
24394200,2061.0,1,196116.0,229494,-0.2,-1.97,9.17,-0.28,0.12,-0.11,27.53,22.474705,188.5599935117695,486.174258370152,9.381353846860272,0.323882694814033,1.5944305175526998,0.35606041946079897
24434200,2189.0,1,196545.0,229273,-1.23,-1.45,10.14,0.13,0.11,0.255,27.53,22.514705,217.53775743146053,337.4030106112947,10.316733979317291,0.30663496212923924,1.8392376872945595,0.24614253226062066
24474170,2093.0,1,195717.0,228540,0.25,-2.98,9.91,0.23,-0.11,-0.265,27.53,22.554675,235.78586781852465,124.28976168918183,10.351376720031013,0.3677295201639379,1.9933996257165436,0.08868631401437913
24514180,2257.0,1,195290.0,227552,-0.61,-1.09,10.49,0.44,-0.02,0.05,27.53,22.594685,274.3495463421774,41.141608201593755,10.56410431603172,0.44328320518603004,2.3191896011050597,0.027253278440422357
24554179,2036.0,1,195169.0,227842,0.3,-2.45,9.81,0.02,0.12,-0.2,27.53,22.634684,174.82249521021305,162.61796543724498,10.115759981336055,0.23409399821439253,1.4783747001384242,0.11700465670243546
24594170,2125.0,1,195835.0,228897,-1.28,-0.08,10.24,-0.26,0.0,0.255,27.53,22.674675,161.51901790932627,322.75378590844224,10.32,0.36417715469260287,1.3659855373727594,0.2353191248299847
24634866,2096.0,1,195904.0,226951,-0.92,-2.38,9.61,-0.52,0.04,0.11,27.29,22.715371,206.39765969818166,202.6898315757002,9.94298244994931,0.5330103188494572,1.7451249805898668,0.1466112838461883
24675177,2075.0,1,195037.0,224546,-0.46,-2.49,9.78,0.05,0.15,0.02,27.29,22.755682,153.68033369112666,-409.89993599997973,10.102479893570687,0.15937377450509227,1.2997635161265426,-0.3059934632855245
24715171,2023.0,1,193813.0,221493,-0.16,-1.76,9.51,0.32,-0.11,-0.265,27.29,22.795676,97.87876674500558,-1398.3601365533837,9.672812414184408,0.42979646345683215,0.8283460627612704,-1.0363056604541876
24755194,1857.0,1,192735.0,219063,-1.08,-2.45,10.92,0.44,0.27,-0.16,27.29,22.835699,-22.069806855862463,-2327.380553909999,11.243455874418684,0.5404627646748664,-0.18499198841416867,-1.7227014726825447
24793180,1774.0,1,192693.0,219081,-0.33,-0.9,10.69,0.13,-0.04,0.06,27.29,22.873685,-172.01956101779803,-2695.116471131825,10.732893365723895,0.14866068747318506,-1.4517831397813272,-1.9943988313963776
24833180,1661.0,1,193005.0,220565,-0.36,-2.81,11.48,-0.3,0.13,-0.19,27.29,22.913685,-194.0249368011084,-2249.2205855325224,11.824385819145112,0.3781534080237807,-1.637686847864118,-1.6649538990276516
24873200,1739.0,1,194214.0,224601,-1.24,-1.29,8.3,-0.11,-0.14,0.19,27.29,22.953705,-202.5184817526791,-1151.2919313039563,8.490683129171646,0.2603843313258307,-1.7094412008373772,-0.8537622219574154
24913200,1614.125,1,195735.0,226912,-0.18,-0.96,10.0,-0.52,0.25,0.12,27.29,22.993705,-239.99718351931483,110.84432477075153,10.047586774942529,0.5893216439263028,-2.0260651795031253,0.07875231103449791
24953179,1742.0,1,196170.0,227483,-0.64,-1.3,9.58,-0.52,-0.29,0.2,27.29,23.033684,-173.32600981260197,999.8052645776753,9.68896279278644,0.6280923498976883,-1.4628201553617906,0.7355506492822488
24993200,1705.0,1,196827.0,229082,-1.73,-3.32625,9.8,0.15,-0.02,0.255,27.29,23.073705,-162.67175748188745,1224.67118993607,10.492704087245576,0.29652150006365474,-1.3728119212542071,0.9016901943290919
25033179,1712.0,1,196813.0,228583,-1.17,-1.29,8.64,0.39,-0.01,-0.07,27.29,23.113684,-169.7932358457003,883.8341703510009,8.813773312265297,0.39635842365212826,-1.4329749126932478,0.6498667698652335
25073200,1837.0,1,195970.0,226694,-0.56,-3.32625,11.14,0.26,0.27,-0.26,27.29,23.153705,-45.91417430956304,369.3462891725714,11.63946472405411,0.4561797891182818,-0.38643168979357007,0.2697434480464012
25113180,1771.0,1,195652.0,228287,0.0,-1.83,8.17,0.44,-0.05,-0.265,27.29,23.193685,-79.59183786811782,84.52612240274317,8.372442893206259,0.5160668561339703,-0.6709441015219997,0.059307416656202434
25153180,1741.0,1,195800.0,226894,0.17,-1.07,11.71,-0.17,0.27,0.1,27.29,23.233685,-157.96344579993314,154.18041489926293,11.760012755095124,0.3343650699460098,-1.3330356134508803,0.11077067169356469
25193171,1684.0,1,196182.0,229455,-1.77,-0.23,8.06,0.23,-0.29000000000000004,0.255,27.29,23.273676,-134.17613591666074,336.9674993803483,8.255264986661544,0.44947191235938205,-1.132077940373165,0.24582075990824265
25233179,1742.0,1,197083.0,227118,-1.26,-1.44,11.03,-0.33,0.27,0.255,27.29,23.313684,-179.21616916343436,221.17756919074327,11.194735369806647,0.49681485485037585,-1.5125808354474608,0.1602707314099452
25273182,1674.0,1,195737.0,224752,-1.51,-1.95,7.710000000000001,-0.03,0.06,-0.265,27.29,23.353687,-112.54743560760224,-434.67647445568247,8.09485639156125,0.27335873865673294,-0.9493564259550863,-0.32429931740862183
25313200,1945.0,1,194588.0,222179,-1.0,-1.53,11.71,0.44,0.14,0.02,27.29,23.393705,6.402676137526588,-1481.547517146055,11.85179311328037,0.46216880033165375,0.05554651540041856,-1.097767678513515
25353171,1942.0,1,193696.0,221942,-1.6,-0.54,10.0,0.33,-0.01,-0.02,27.29,23.433676,165.72122562521392,-2449.2090620093336,10.14157778651823,0.3307567081708246,1.401486226123102,-1.812713033469709
25393200,2253.0,1,194004.0,220866,-0.72,-0.98,11.71,-0.16,0.27,0.16,27.29,23.473705,322.7943979126057,-2839.602954955943,11.772973286302829,0.35227829907617075,2.728456756237832,-2.1011509711423066
25433180,1951.0,1,194023.0,222921,-3.0300000000000002,-1.77,9.62,0.36,0.12,0.11,27.29,23.513685,151.11137592263714,-2421.242665497179,10.24002929683309,0.3950949253027682,1.2780606931539622,-1.7920503902269698
25473171,1985.0,1,195918.0,226917,-1.94,-0.83,11.71,-0.04,0.27,0.1,27.29,23.553676,84.19974538080476,-1340.3112506375746,11.898596555896834,0.2906888370749727,0.7127842646084148,-0.9934169236161918
25513179,1923.0,1,196849.0,229103,-0.54,-1.74,7.710000000000001,-0.52,-0.29000000000000004,-0.265,27.29,23.593684,87.77323029861255,-19.68382427017814,7.922329202955405,0.6517092910186258,0.7429734376332282,-0.017686877174668488
25553213,1733.0,1,197545.0,231959,-1.81,-0.9,9.63,-0.21,-0.19,0.255,27.29,23.633718,-149.77243383054903,1060.950199203488,9.839867885291957,0.38108398024582457,-1.263837090642016,0.7807268653072449
25593200,1761.0,1,198627.0,233846,-1.58,0.2837499999999997,7.710000000000001,-0.1,0.02,0.17,27.29,23.673705,-91.64253901574716,1588.133651302872,7.8753421552653835,0.19824227601599012,-0.7727496807769078,1.1702301604304164
25633171,1910.0,1,199443.0,234506,-1.27,-2.28,7.710000000000001,-0.2,-0.03,0.05,27.29,23.713676,19.077797064138515,1554.4854544263749,8.139742010653656,0.2083266665599966,0.16262725802704875,1.145369585793339
25673887,1827.0,1,198451.0,233746,-1.38,-0.72,8.17,0.38,-0.26,-0.265,27.17,23.754392,-29.12337172189729,1249.1286124617266,8.316952566896122,0.5312485294097293,-0.2445812395458349,0.9197602733993413
25714200,1999.0,1,198248.0,233619,-0.74,-0.9,8.7,0.17,0.27,-0.12,27.17,23.794705,92.48321660473934,1069.648083271139,8.777676230073652,0.34088121098118623,0.7827638928360985,0.7871531946835902
25754179,1935.0,1,198204.0,233982,-1.6,-0.77,10.98,-0.14,-0.05,0.07,27.17,23.834684,68.2076755158648,1237.3321072645701,11.122648065995795,0.16431676725154984,0.5776815916485553,0.9110445642340926
25794199,1893.0,1,198792.0,236732,-1.83,-1.82,10.31,-0.22,-0.03,-0.01,27.17,23.874704,-22.39594180939351,1619.281593340518,10.628141888401755,0.22226110770892868,-0.18774721049234894,1.193243451177034
25834217,1899.0,1,199501.0,238667,-1.0,0.02,9.76,-0.44,-0.18,-0.13,27.17,23.914722,13.690586924824107,1832.8646951032733,9.811116144455736,0.49284886121406424,0.11711554529913745,1.3510468146701995
25874216,1904.0,1,200069.0,237798,-1.79,-1.63,9.3,-0.14,-0.1,-0.23,27.17,23.954721,-21.583618957573176,1583.6505251926176,9.60994276777963,0.2872281323269014,-0.1808846223774792,1.1669178554150692
25914216,1865.0,1,198303.0,231642,-1.29,-0.43,10.81,-0.41,-0.14,-0.04,27.17,23.994721,-35.62405808447578,952.1912617766621,10.895187010786001,0.4350861983561418,-0.2994997154576683,0.700371603143482
25954214,1904.0,1,196903.0,230553,-0.98,-1.26,10.05,0.03,-0.15,-0.265,27.17,24.034719,-36.91626588099881,354.52756026990886,10.175976611608343,0.30598202561588483,-0.31041642160041544,0.2587948044307137
