timestamp_us,ecg,leads,ir,red,accX,accY,accZ,gyroX,gyroY,gyroZ,temp,time_sec,ecg_filtered,ppg_filtered,accel_magnitude,gyro_magnitude,ecg_norm,ppg_norm
2450958,1814.5,1,190356,225287,0.1,-0.8049999999999999,9.909999999999997,-0.03,-0.01,0.0,31.259999999999998,0.030471,1.038909362342932,-45.109996903185895,9.94314462330705,0.03162277660168379,0.09036812300081884,-0.09214180313514618
2491177,1814.5,1,190257,225190,0.11,-0.83,9.909999999999997,-0.03,-0.01,-0.0,31.259999999999998,0.07069,0.8184583190664562,43.26270265929545,9.945305425174228,0.03162277660168379,0.06958657013138399,0.08508807474308784
2531188,1814.5,1,190380,225686,0.09,-0.82,9.96,-0.03,-0.01,-0.01,31.259999999999998,0.110701,-2.1578256063573025,205.8097901287971,9.994103261423708,0.033166247903554,-0.21098276096074559,0.41107336889283147
2571171,1814.5,1,190535,226510,0.06,-0.84,9.98,-0.03,-0.01,-0.01,31.259999999999998,0.150684,0.015415987768379087,432.52630516459095,10.015468036991582,0.033166247903554,-0.006114893632321499,0.8657493092194455
2610169,1837.0,1,190746,227494,0.06,-0.84,9.99,-0.03,-0.01,-0.01,31.259999999999998,0.189682,17.84757652976772,622.9304374615497,10.025432658992827,0.033166247903554,1.6748931958374627,1.2476014115267025
2650192,1850.0,1,190803,227409,0.05,-0.82,9.95,-0.03,-0.01,-0.0,31.259999999999998,0.229705,34.18205924634737,664.4809240041994,9.98385697012933,0.03162277660168379,3.2147176898578675,1.3309301736013355
2690188,1863.0,1,190437,225915,0.1,-0.84,9.98,-0.03,-0.01,-0.0,31.259999999999998,0.269701,41.95648752628529,529.0602839743336,10.015787537682696,0.03162277660168379,3.947600101879547,1.059346487536427
2730192,1861.0,1,190010,225078,0.08,-0.81,9.95,-0.03,-0.01,-0.0,31.259999999999998,0.309705,43.79619550169278,304.21429465049346,9.983235948328577,0.03162277660168379,4.121026310197843,0.6084218532708353
2770188,1856.0,1,189818,225056,0.07,-0.84,9.94,-0.03,-0.01,-0.01,31.259999999999998,0.349701,33.36383567659065,133.18538881167427,9.975675415730004,0.033166247903554,3.137585116016555,0.2654264231716213
2810192,1851.0,1,189842,225287,0.05,-0.82,9.94,-0.03,-0.01,-0.01,31.259999999999998,0.389705,32.41675628866704,114.64397027029484,9.973890915786075,0.033166247903554,3.048305518700235,0.2282419379171614
2850188,1861.0,1,189923,225575,0.05,-0.83,9.96,-0.03,-0.01,-0.01,31.259999999999998,0.429701,37.466376426796636,239.91013880528368,9.994648568108836,0.033166247903554,3.524324803124738,0.47946101192580187
2890191,1842.0,1,190030,225726,0.07,-0.845,9.94,-0.03,-0.01,-0.01,31.259999999999998,0.469704,21.51965159092733,405.9560876870119,9.976097683964406,0.033166247903554,2.0210535990264678,0.8124632104348308
2930189,1829.0,1,189895,225416,0.04000000000000002,-0.82,9.94,-0.03,-0.01,-0.0,31.259999999999998,0.509702,5.58691839592588,482.5599456566111,9.973845797885588,0.03162277660168379,0.519101363621218,0.9660908857256006
2970192,1822.0,1,189820,225213,0.06,-0.82,9.96,-0.03,-0.01,-0.01,31.259999999999998,0.549705,-0.7142699494581403,383.8315032495276,9.99387812613302,0.033166247903554,-0.07490117224175538,0.7680927496774371
3010188,1814.5,1,189623,224322,0.05,-0.84,9.95,-0.03,-0.01,-0.01,31.259999999999998,0.589701,-8.535476471389785,106.52759276158547,9.985519515778835,0.033166247903554,-0.8121932912654231,0.21196468711681457
3050191,1814.5,1,189059,222797,0.06,-0.82,9.97,-0.03,-0.01,-0.01,31.259999999999998,0.629704,-9.810149809905633,-275.8453326593425,10.003844261082836,0.033166247903554,-0.9323546249652795,-0.5548774169696497
3090188,1814.5,1,188652,222054,0.04000000000000002,-0.81,9.96,-0.03,-0.01,-0.01,31.259999999999998,0.669701,-8.841515736080417,-653.5022384812739,9.992962523696365,0.033166247903554,-0.8410431032906492,-1.3122616275919612
3130192,1814.5,1,188385,221479,0.06,-0.81,9.94,-0.03,-0.01,-0.0,31.259999999999998,0.709705,-10.357975626151143,-932.6404274168349,9.973128897191692,0.03162277660168379,-0.9839972527085714,-1.872068302969388
3170188,1814.5,1,188241,221096,0.06,-0.82,9.95,-0.03,-0.01,-0.0,31.259999999999998,0.749701,-9.846145298570061,-1072.0085562168995,9.983912058907569,0.03162277660168379,-0.9357478597607385,-2.1515686075842755
3210195,1814.5,1,188172,220989,0.05,-0.82,9.94,-0.03,-0.01,-0.0,31.259999999999998,0.789708,-10.384522088519285,-1086.1837022752366,9.973890915786075,0.03162277660168379,-0.9864997435246757,-2.1799966109978066
3250188,1814.5,1,188248,221316,0.04000000000000002,-0.84,9.94,-0.03,-0.01,-0.01,31.259999999999998,0.829701,-10.971280052030664,-1018.8942935718959,9.975510012024447,0.033166247903554,-1.0418124399811903,-2.045048898117768
3290192,1814.5,1,188368,221593,0.05,-0.82,9.95,-0.03,-0.01,-0.01,31.259999999999998,0.869705,-10.63149064889063,-906.6792505983394,9.98385697012933,0.033166247903554,-1.0097810585874882,-1.82000362439901
3330188,1814.5,1,188466,222099,0.05,-0.83,9.95,-0.03,-0.01,-0.01,31.259999999999998,0.909701,-11.740136546939947,-755.3309235258527,9.984683269888935,0.033166247903554,-1.1142912618569707,-1.516477245133351
3370191,1814.5,1,188659,223143,0.04000000000000002,-0.83,9.97,-0.03,-0.01,-0.01,31.259999999999998,0.949704,-11.57629261110477,-540.4608976237967,10.004568956231948,0.033166247903554,-1.0988459667733599,-1.0855592281569653
3410188,1814.5,1,189020,224091,0.06,-0.81,9.91,-0.03,-0.01,-0.01,31.259999999999998,0.989701,-12.021597497933103,-228.69975755312623,9.943228851836812,0.033166247903554,-1.1408241171649403,-0.46032780425055153
3450192,1814.5,1,189586,225011,0.04000000000000002,-0.82,9.96,-0.03,-0.01,-0.01,31.259999999999998,1.029705,-13.259889723962022,192.13064862115812,9.993778064375855,0.033166247903554,-1.2575558639535307,0.38364009378773106
3490875,1814.5,1,189937,225648,0.07,-0.83,9.94,-0.03,-0.01,-0.01,31.07,1.070388,-12.213487099977842,685.0530231665279,9.974838344554762,0.033166247903554,-1.1589132305150929,1.3721871527395657
3531192,1814.5,1,190326,226589,0.06,-0.82,9.95,-0.03,-0.01,-0.01,31.07,1.110705,-15.096416019751631,1149.7332611280185,9.983912058907569,0.033166247903554,-1.430682140630724,2.304095108862563
3571188,1814.5,1,190603,227477,0.05,-0.83,9.95,-0.03,-0.01,-0.01,31.07,1.150701,-13.239255278514339,1439.609410766614,9.984683269888935,0.033166247903554,-1.255610689130907,2.8854365735299177
3611192,1827.0,1,190803,228077,0.06,-0.83,9.92,-0.03,-0.01,-0.01,31.07,1.190705,-3.770989713649346,1422.9048511343276,9.954843042459283,0.033166247903554,-0.3630530559546346,2.8519358761618734
3650188,1825.0,1,190803,226387,0.04000000000000002,-0.83,9.96,-0.03,-0.01,-0.01,31.07,1.229701,-5.158820370272919,1066.2946503933524,9.994603543913085,0.033166247903554,-0.4938815416618869,2.136760458410032
3690192,1823.0,1,189604,223747,0.06,-0.82,9.96,-0.03,-0.01,-0.01,31.07,1.269705,-8.399118520016582,480.4876710422671,9.99387812613302,0.033166247903554,-0.7993390541816995,0.9619349758275367
3730188,1830.0,1,189016,223061,0.07,-0.84,9.95,-0.03,-0.01,-0.01,31.07,1.309701,-3.2008550637676594,-123.21302135363261,9.985639689073503,0.033166247903554,-0.3093074116015089,-0.2487760301509983
3770192,1835.0,1,188933,222671,0.07,-0.83,9.96,-0.03,-0.01,-0.01,31.07,1.349705,2.2113245679975946,-545.6366006976361,9.994768631639253,0.033166247903554,0.20088975274282528,-1.0959390086576395
3810188,1841.0,1,188845,222446,0.06,-0.82,9.94,-0.03,-0.01,-0.0,31.07,1.389701,5.567366659770502,-699.5357195490608,9.973946059609506,0.03162277660168379,0.5172582540012165,-1.404580955487853
3850192,1840.0,1,188782,222508,0.05,-0.84,9.95,-0.03,-0.01,-0.0,31.07,1.429705,3.9533818329137547,-629.2147327207243,9.985519515778835,0.03162277660168379,0.3651105911401975,-1.2635534665736847
3890187,1840.0,1,188971,222994,0.06,-0.84,9.92,-0.03,-0.01,-0.0,31.07,1.4697,3.6609185555053343,-453.3976025122905,9.955681794834545,0.03162277660168379,0.3375405648364035,-0.9109553376265036
3930191,1852.0,1,189167,223345,0.05,-0.81,9.94,-0.03,-0.01,-0.0,31.07,1.509704,11.109683663447422,-284.2870198794931,9.97307374884995,0.03162277660168379,1.0397232517587036,-0.5718070706129192
3970188,1851.0,1,189255,223853,0.05,-0.84,9.96,-0.03,-0.01,-0.01,31.07,1.549701,14.207723224630245,-171.59788203320397,9.995483980278294,0.033166247903554,1.3317702839497811,-0.3458110080553784
4010191,1851.0,1,189431,224340,0.06,-0.83,9.96,-0.03,-0.01,-0.01,31.07,1.589704,5.080659030640998,-90.53692275884842,9.994703597405978,0.033166247903554,0.4713771360151834,-0.18324469533649201
4050189,1838.0,1,189557,224858,0.06,-0.81,9.95,-0.03,-0.01,-0.01,31.07,1.629702,-0.25456604168715985,29.945323831334793,9.983095712252787,0.033166247903554,-0.03156565011566043,0.058380308260647086
4090191,1857.0,1,189776,225712,0.07,-0.82,9.95,-0.03,-0.01,-0.01,31.07,1.669704,7.307980586033774,252.8216170230004,9.983977163435421,0.033166247903554,0.6813430312664767,0.50535475195052
4130188,1854.0,1,190032,226539,0.04000000000000002,-0.81,9.94,-0.03,-0.01,-0.01,31.07,1.709701,12.357600449458236,575.4964131113086,9.973028627252607,0.033166247903554,1.1573622897949836,1.152473318976778
4170191,1863.0,1,190288,227010,0.05,-0.84,9.94,-0.03,-0.01,-0.01,31.07,1.749704,11.238880498323995,901.7362729092301,9.975555122397951,0.033166247903554,1.0519024223112508,1.8067415578927823
4210188,1856.0,1,190504,227299,0.05,-0.83,9.94,-0.03,-0.01,-0.01,31.07,1.789701,9.40915509328651,1072.6428692714437,9.974718041127778,0.033166247903554,0.8794172542839594,2.149491698511088
4250192,1853.0,1,190572,227210,0.04000000000000002,-0.82,9.98,-0.03,-0.01,-0.0,31.07,1.829705,0.04642908161263375,955.1186718716334,10.013710600971052,0.03162277660168379,-0.0031913409024719457,1.9137990099768936
4290188,1840.0,1,190264,224893,0.06,-0.82,9.94,-0.03,-0.01,-0.0,31.07,1.869701,-11.699090136689504,537.0264227736466,9.973946059609506,0.03162277660168379,-1.1104218850917615,1.0753224372760306
4330192,1845.0,1,189086,222893,0.05,-0.82,9.94,-0.03,-0.01,-0.0,31.07,1.909705,-9.706791929151388,-44.78448296410011,9.973890915786075,0.03162277660168379,-0.9226112496042781,-0.09148899071731291
4370188,1846.0,1,188728,222210,0.07,-0.83,9.96,-0.03,-0.01,-0.0,31.07,1.949701,-9.478829921601903,-575.7358917919759,9.994768631639253,0.03162277660168379,-0.9011216506361718,-1.1563026018406184
4410192,1842.0,1,188592,221901,0.05,-0.83,9.95,-0.03,-0.01,-0.0,31.07,1.989705,-15.936861238813508,-885.26534392948,9.984683269888935,0.03162277660168379,-1.5099095123601183,-1.777058415272128
4450188,1852.0,1,188555,221704,0.06,-0.82,9.95,-0.03,-0.01,-0.0,31.07,2.029701,-5.608708584628422,-929.3428694540714,9.983912058907569,0.03162277660168379,-0.5362917547096842,-1.8654551090992184
4490192,1858.0,1,188506,221868,0.07,-0.81,9.95,-0.03,-0.01,-0.0,31.07,2.069705,-3.9191645376187694,-784.3890232692403,9.98316082210439,0.03162277660168379,-0.37702124994670344,-1.574752747572348
4530875,1844.0,1,188698,222326,0.06,-0.82,9.97,-0.03,-0.01,-0.01,31.25,2.110388,-15.431943404799807,-576.4721621695386,10.003844261082836,0.033166247903554,-1.462311748673799,-1.1577791789933685
4571192,1862.0,1,188820,222487,0.06,-0.845,9.96,-0.03,-0.01,-0.0,31.25,2.150705,-2.925350157555892,-404.15710622841925,9.995960434095366,0.03162277660168379,-0.28333602272017766,-0.8122043977292331
4611188,1875.0,1,188860,222809,0.05,-0.82,9.97,-0.03,-0.01,-0.01,31.25,2.190701,12.843910169018208,-296.3465646376979,10.003789282067071,0.033166247903554,1.2032058975082887,-0.5959922732303023
4650233,1882.5,1,189046,222899,0.07,-0.83,9.95,-0.03,-0.01,-0.0,31.25,2.229746,15.981886583250796,-214.5287327740612,9.98480345324834,0.03162277660168379,1.499017710354324,-0.4319080659893319
4690188,1882.5,1,189049,223286,0.04000000000000002,-0.845,9.96,-0.03,-0.01,-0.01,31.25,2.269701,17.321807302931287,-90.0150421140861,9.99586039318277,0.033166247903554,1.6253298060606214,-0.1821980729814417
4730191,1882.5,1,189124,223821,0.06,-0.83,9.94,-0.03,-0.01,-0.01,31.25,2.309704,14.730042189462424,121.45265005631722,9.97477318037859,0.033166247903554,1.3810084232710602,0.2418966241829757
4770188,1882.5,1,189368,224222,0.05,-0.845,9.95,-0.03,-0.01,-0.0,31.25,2.349701,15.139434364376918,394.34601232701436,9.985941367742953,0.03162277660168379,1.419601142093663,0.7891794107048626
4810192,1879.0,1,189493,224642,0.04000000000000002,-0.84,9.96,-0.03,-0.01,-0.01,31.25,2.389705,9.729566395932157,628.9266156083913,9.995438959845636,0.033166247903554,0.9096218944023742,1.259626640199835
4850209,1867.0,1,189682,224967,0.05,-0.84,9.93,-0.03,-0.01,-0.01,31.25,2.429722,-1.6882128608843816,702.6090916689656,9.965590800348968,0.033166247903554,-0.16671314919952346,1.4073955360085308
4890192,1872.0,1,189608,224140,0.06,-0.81,9.97,-0.03,-0.01,-0.0,31.25,2.469705,1.46412152850705,551.2072447362402,10.003029541094039,0.03162277660168379,0.13045216606331533,1.103761823614642
4930188,1876.0,1,188869,222314,0.05,-0.8049999999999999,9.94,-0.03,-0.01,-0.01,31.25,2.509701,6.276570488058246,221.2138112931571,9.972668900550143,0.033166247903554,0.5841137182971301,0.44196585948448813
4970191,1869.0,1,188418,221509,0.05,-0.82,9.94,-0.03,-0.01,-0.01,31.25,2.549704,-2.187812756522802,-151.25474475821196,9.973890915786075,0.033166247903554,-0.21380959968786586,-0.3050132079117053
5010189,1859.0,1,188257,221266,0.06,-0.82,9.93,-0.03,-0.01,-0.01,31.25,2.589702,-11.496606862742595,-420.48119757044833,9.96398012844265,0.033166247903554,-1.0913341239264553,-0.844942072705151
5051195,1857.0,1,188238,221130,0.07,-0.84,9.95,-0.03,-0.01,-0.01,31.25,2.630708,-14.508256692769976,-508.5189640585569,9.985639689073503,0.033166247903554,-1.3752373399726872,-1.0215002482571875
5091188,1860.0,1,188129,221216,0.05,-0.82,9.94,-0.03,-0.01,-0.01,31.25,2.670701,-10.565374693633597,-429.48511737359206,9.973890915786075,0.033166247903554,-1.0035484175472549,-0.8629992737982141
5131192,1872.0,1,188160,221582,0.06,-0.82,9.96,-0.03,-0.01,-0.0,31.25,2.710705,-0.006736984137121172,-260.42740011947575,9.99387812613302,0.03162277660168379,-0.008203217416264256,-0.5239570273617313
5171188,1873.0,1,188346,221703,0.04000000000000002,-0.82,9.95,-0.03,-0.01,-0.01,31.25,2.750701,3.448935027692697,-91.53864282338654,9.983811897266493,0.033166247903554,0.3175572305540489,-0.18525362711729326
5211192,1873.0,1,188403,221755,0.04000000000000002,-0.83,9.96,-0.03,-0.01,-0.01,31.25,2.790705,0.12847027360617697,15.91984445021464,9.994603543913085,0.033166247903554,0.0045425456945038765,0.030252458707492404
5251189,1870.0,1,188334,221844,0.05,-0.81,9.95,-0.03,-0.01,-0.0,31.25,2.830702,2.2754859685299946,52.84042360609579,9.983040618969753,0.03162277660168379,0.20693814116287382,0.10429602382868854
5291192,1872.0,1,188484,221829,0.05,-0.83,9.97,-0.03,-0.01,-0.0,31.25,2.870705,-1.3800681533887977,62.39469079495832,10.004613935579924,0.03162277660168379,-0.13766486058596103,0.12345693681970704
5331188,1859.0,1,188287,221954,0.05,-0.82,9.96,-0.03,-0.01,-0.0,31.25,2.910701,-7.355863062399237,113.49969772841122,9.993823092290558,0.03162277660168379,-0.7009930988776412,0.2259471196773489
5371192,1867.0,1,188450,222234,0.04000000000000002,-0.84,9.94,-0.03,-0.01,-0.01,31.25,2.950705,-5.13380326182986,253.08086864217495,9.975510012024447,0.033166247903554,-0.49152322049441666,0.5058746764637861
5411188,1863.0,1,188510,222730,0.04000000000000002,-0.82,9.95,-0.03,-0.01,-0.01,31.25,2.990701,-3.6904772419063896,461.2910720746466,9.983811897266493,0.033166247903554,-0.35546327927085297,0.9234365378760812
5451192,1867.0,1,188738,222942,0.04000000000000002,-0.83,9.98,-0.03,-0.01,-0.0,31.25,3.030705,-1.6758254797823402,644.4536510605403,10.014534437506319,0.03162277660168379,-0.16554541140404813,1.2907658337586982
5491188,1863.0,1,188824,223138,0.05,-0.82,9.94,-0.03,-0.01,-0.01,31.25,3.070701,-5.314105097407941,682.7468591501946,9.973890915786075,0.033166247903554,-0.5085199743896697,1.3675621818039099
5531878,1850.0,1,188705,221866,0.04000000000000002,-0.82,9.96,-0.03,-0.01,-0.0,31.13,3.111391,-14.437590586549074,507.83139653931227,9.993778064375855,0.03162277660168379,-1.3685757637756308,1.016772331193726
5570188,1855.0,1,187983,220455,0.04000000000000002,-0.83,9.97,-0.03,-0.01,-0.01,31.13,3.149701,-14.336211103925057,154.9900077524886,10.004568956231948,0.033166247903554,-1.3590188887129682,0.3091551988138061
5610191,1851.0,1,187679,219518,0.04000000000000002,-0.83,9.99,-0.03,-0.01,-0.0,31.13,3.189704,-10.465834682128047,-250.99457868834548,10.02449998753055,0.03162277660168379,-0.9941649463648008,-0.5050396716787761
5650188,1861.0,1,187449,219044,0.06,-0.82,9.95,-0.03,-0.01,-0.0,31.13,3.229701,-7.253662947455631,-565.7724692023711,9.983912058907569,0.03162277660168379,-0.6913588641723001,-1.1363211349673967
5690192,1861.0,1,187264,218715,0.04000000000000002,-0.81,9.95,-0.03,-0.01,-0.0,31.13,3.269705,0.3577889996104652,-700.7620565137843,9.982995542421122,0.03162277660168379,0.026160040252843728,-1.4070403524687254
5730188,1875.0,1,187197,218693,0.06,-0.82,9.93,-0.03,-0.01,-0.01,31.13,3.309701,9.890337684602306,-657.8633243244044,9.96398012844265,0.033166247903554,0.9247775361527092,-1.3210077077187545
5770192,1874.0,1,187435,219147,0.04000000000000002,-0.81,9.96,-0.03,-0.01,-0.01,31.13,3.349705,12.653020587867552,-511.5562781303238,9.992962523696365,0.033166247903554,1.1852110544631074,-1.0275915276305927
5810189,1873.0,1,187506,219591,0.06,-0.82,9.96,-0.03,-0.01,-0.01,31.13,3.389702,11.893092050517954,-356.8737166449114,9.99387812613302,0.033166247903554,1.1135738562842945,-0.7173784005259994
5850192,1882.0,1,187634,219902,0.06,-0.845,9.95,-0.03,-0.01,-0.01,31.13,3.429705,19.696218582669612,-254.45289907673094,9.985996445022398,0.033166247903554,1.8491616047687836,-0.5119752717354883
5890189,1882.5,1,187700,219891,0.06,-0.8049999999999999,9.97,-0.03,-0.01,-0.01,31.13,3.469702,24.915266034138558,-201.40329111906664,10.002625905231087,0.033166247903554,2.341152519979684,-0.40558522609500586
5930192,1877.0,1,187722,220366,0.05,-0.83,9.96,-0.03,-0.01,-0.01,31.13,3.509705,14.46829142385285,-142.8234357414882,9.994648568108836,0.033166247903554,1.3563336143280678,-0.28810436757090385
5970188,1866.0,1,187876,220639,0.04000000000000002,-0.82,9.96,-0.03,-0.01,-0.01,31.13,3.549701,10.709401668767654,-17.53714649755145,9.993778064375855,0.033166247903554,1.001989334461302,-0.03684494183817532
6010192,1882.5,1,188072,221221,0.05,-0.81,9.94,-0.03,-0.01,-0.0,31.13,3.589705,20.697758587074286,188.65981364885792,9.97307374884995,0.03162277660168379,1.9435751137413253,0.3766793959554627
6050188,1869.0,1,188185,221656,0.04000000000000002,-0.83,9.97,-0.03,-0.01,-0.0,31.13,3.629701,14.855212664102643,417.3781664803132,10.004568956231948,0.03162277660168379,1.3928080355467238,0.835369986392502
6090192,1866.0,1,188473,222323,0.06,-0.82,9.93,-0.03,-0.01,-0.01,31.13,3.669705,5.373373877198685,562.7149649461471,9.96398012844265,0.033166247903554,0.49897087732389694,1.1268403519107786
6130188,1863.0,1,188616,222627,0.04000000000000002,-0.83,9.97,-0.03,-0.01,-0.01,31.13,3.709701,9.357984879531857,537.7487844838632,10.004568956231948,0.033166247903554,0.8745935234152925,1.0767711208436872
6170192,1863.0,1,188292,221003,0.04000000000000002,-0.84,9.96,-0.03,-0.01,-0.01,31.13,3.749705,3.689023968373779,337.9591202029752,9.995438959845636,0.033166247903554,0.3401900153210191,0.6760965009991221
6210188,1853.0,1,187815,220049,0.04000000000000002,-0.82,9.95,-0.03,-0.01,-0.01,31.13,3.789701,-1.1465891179910555,51.101791407787466,9.983811897266493,0.033166247903554,-0.11565518058668024,0.10080922786447234
6250213,1855.0,1,187716,220059,0.05,-0.81,9.96,-0.03,-0.01,-0.01,31.13,3.829726,-1.9135016077184064,-197.47433475164883,9.993007555285846,0.033166247903554,-0.18795074433010459,-0.39770577394933443
6290204,1840.0,1,187689,220103,0.06,-0.83,9.95,-0.03,-0.01,-0.0,31.13,3.869717,-16.915926762438552,-321.0706028398574,9.984738354108233,0.03162277660168379,-1.6022043894423623,-0.6455758922995316
6330192,1826.0,1,187721,220037,0.05,-0.845,9.95,-0.03,-0.01,-0.0,31.13,3.909705,-26.557765665736213,-311.4790108549475,9.985941367742953,0.03162277660168379,-2.511124492288778,-0.6263401250936023
6370188,1843.0,1,187835,220187,0.06,-0.84,9.97,-0.03,-0.01,-0.0,31.13,3.949701,-18.840130144148283,-221.6152161014184,10.005503485582322,0.03162277660168379,-1.7835958390550355,-0.44611988231848776
6410192,1835.0,1,187806,220463,0.05,-0.84,9.97,-0.03,-0.01,-0.0,31.13,3.989705,-12.679713651068704,-117.17302874023474,10.005448515683842,0.03162277660168379,-1.2028636313688452,-0.23666293234412303
6450188,1855.0,1,187991,220638,0.07,-0.82,9.95,-0.03,-0.01,-0.0,31.13,4.029701,-11.149059406080863,-36.785784310162704,9.983977163435421,0.03162277660168379,-1.058571403741932,-0.07544774276811066
6490219,1851.0,1,188113,220797,0.04000000000000002,-0.82,9.94,-0.03,-0.01,-0.01,31.13,4.069732,5.191070133893247,19.796362271074017,9.973845797885588,0.033166247903554,0.48178540691971977,0.03802674628029601
6530189,1868.0,1,188131,221299,0.06,-0.82,9.98,-0.03,-0.01,-0.0,31.13,4.109702,1.7670063796095214,79.23923717598564,10.01381046355482,0.03162277660168379,0.15900461677067193,0.15723837512365985
6570878,1831.0,1,188315,221570,0.05,-0.84,9.94,-0.03,-0.01,-0.0,31.05,4.150391,-18.341385341890216,169.7385005991226,9.975555122397951,0.03162277660168379,-1.736579996796203,0.33873303901827884
6609188,1867.0,1,188386,221721,0.05,-0.83,9.93,-0.03,-0.01,-0.0,31.05,4.188701,5.253532935458567,294.7414831420642,9.964752882033753,0.03162277660168379,0.4876736712427639,0.5894242981988025
6649192,1856.0,1,188492,222049,0.04000000000000002,-0.83,9.95,-0.03,-0.01,-0.01,31.05,4.228705,0.3344849974792062,417.3946742059581,9.9846382007562,0.033166247903554,0.023963210765614626,0.8354030923428077
6689198,1814.5,1,188537,222346,0.06,-0.83,9.96,-0.03,-0.01,-0.01,31.05,4.268711,-43.063077184896656,469.09434287667193,9.994703597405978,0.033166247903554,-4.067052733153342,0.9390858587426
6730192,1815.0,1,188623,222605,0.06,-0.84,9.92,-0.03,-0.01,-0.01,31.05,4.309705,-43.73255832727122,386.33530144643936,9.955681794834545,0.033166247903554,-4.130163605973744,0.7731140724486927
6770189,1817.0,1,188458,221492,0.07,-0.82,9.91,-0.03,-0.01,-0.01,31.05,4.349702,-41.39331792495567,157.9029699632051,9.944113836838353,0.033166247903554,-3.9096473073320026,0.3149970927406085
6810192,1815.0,1,187887,220138,0.05,-0.82,9.97,-0.03,-0.01,-0.01,31.05,4.389705,-41.54004170753624,-152.97477465716187,10.003789282067071,0.033166247903554,-3.923478714067863,-0.30846269729527076
6850189,1831.0,1,187678,219720,0.04000000000000002,-0.84,9.95,-0.03,-0.01,-0.01,31.05,4.429702,-31.415695714499243,-435.05102726571573,9.98547445042047,0.033166247903554,-2.9690734710911753,-0.8741616071358406
6890191,1837.0,1,187625,219745,0.06,-0.81,9.94,-0.03,-0.01,-0.0,31.05,4.469704,-16.463104212202698,-589.287398182812,9.973128897191692,0.03162277660168379,-1.5595175614358519,-1.1834799069880744
6930188,1882.5,1,187708,219773,0.06,-0.84,9.94,-0.03,-0.01,-0.0,31.05,4.509701,18.437153690950726,-580.2869271577968,9.975610257021872,0.03162277660168379,1.7304716533654219,-1.1654296223582352
6970192,1882.5,1,187699,220230,0.05,-0.84,9.96,-0.03,-0.01,-0.0,31.05,4.549705,28.75639422211324,-446.63329055390335,9.995483980278294,0.03162277660168379,2.703249280014343,-0.8973896302502383
7010188,1882.5,1,187898,220802,0.05,-0.83,9.95,-0.03,-0.01,-0.01,31.05,4.589701,21.12574506090524,-270.4699593914956,9.984683269888935,0.033166247903554,1.9839206861692424,-0.5440972014446405
7050192,1882.5,1,188052,221018,0.06,-0.83,9.92,-0.03,-0.01,-0.01,31.05,4.629705,26.184357401924235,-128.78053175372426,9.954843042459283,0.033166247903554,2.460787650590997,-0.2599415732789006
7090189,1882.5,1,188197,221261,0.05,-0.82,9.99,-0.03,-0.01,-0.01,31.05,4.669702,25.205722812179758,-51.81795415497343,10.023721863659226,0.033166247903554,2.3685333969283073,-0.1055944921492028
7130192,1882.5,1,188201,221243,0.06,-0.83,9.98,-0.03,-0.01,-0.01,31.05,4.709705,25.141701560220003,-9.074438797325849,10.014634291875065,0.033166247903554,2.3624982200808997,-0.019873131995818374
7170189,1882.5,1,188222,221523,0.1,-0.81,9.94,-0.03,-0.01,-0.01,31.05,4.749702,27.630842380522836,66.61410041624806,9.973449754222457,0.033166247903554,2.5971453815902126,0.13191888780232597
7210192,1882.5,1,188430,221736,0.08,-0.82,9.96,-0.03,-0.01,-0.0,31.05,4.789705,27.250908563008732,225.6986164928465,9.994018210909964,0.03162277660168379,2.5613296530810334,0.45096005658137156
7250188,1882.5,1,188561,222107,0.06,-0.84,9.96,-0.03,-0.01,-0.0,31.05,4.829701,28.618639616049155,451.0785077065898,9.99553900497617,0.03162277660168379,2.6902633826178914,0.9029554215954291
7290192,1882.5,1,188748,222574,0.06,-0.83,9.94,-0.03,-0.01,-0.0,31.05,4.869705,30.843599645766535,648.7982612404296,9.97477318037859,0.03162277660168379,2.9000066607749475,1.2994788722357669
7330189,1882.5,1,188887,222914,0.05,-0.81,9.95,-0.03,-0.01,-0.0,31.05,4.909702,30.66326262230252,697.3973969848502,9.983040618969753,0.03162277660168379,2.8830065897762642,1.396943574973309
7370192,1882.5,1,188859,221757,0.07,-0.84,9.92,-0.03,-0.01,-0.0,31.05,4.949705,33.29951036716328,530.338120190328,9.955747083971147,0.03162277660168379,3.1315212761778337,1.0619091653501669
7410188,1882.5,1,188247,220050,0.06,-0.82,9.95,-0.03,-0.01,-0.0,31.05,4.989701,35.611206979189696,193.00110988129802,9.983912058907569,0.03162277660168379,3.3494410675605892,0.38538578836983733
7450192,1870.0,1,187813,219403,0.09,-0.82,9.95,-0.03,-0.01,-0.01,31.05,5.029705,21.38493453683862,-173.7494974736657,9.984137418926082,0.033166247903554,2.0083540465981855,-0.3501260345696963
7490189,1845.0,1,187706,219257,0.08,-0.82,9.94,-0.03,-0.01,-0.01,31.05,5.069702,4.9954737313182935,-416.62541911938075,9.974086424329798,0.033166247903554,0.4633468596542172,-0.8372093775697592
7530192,1840.0,1,187656,219215,0.06,-0.845,9.93,-0.03,-0.01,-0.01,31.05,5.109705,-7.7909342597355415,-459.5264909752742,9.966068683287308,0.033166247903554,-0.7420065363966168,-0.9232467144793284
7570875,1819.0,1,187737,219470,0.09,-0.83,9.95,-0.03,-0.01,-0.01,30.99,5.150388,-15.293937120632334,-337.1061908588449,9.984963695477314,0.033166247903554,-1.4493021260015047,-0.6777349789901164
7609192,1834.0,1,187942,220056,0.06,-0.83,9.97,-0.03,-0.01,-0.0,30.99,5.188705,-10.062564784854011,-156.36294767864962,10.004668910063941,0.03162277660168379,-0.9561493644637364,-0.3152576180547531
7649188,1815.0,1,188037,220281,0.06,-0.845,9.97,-0.03,-0.01,-0.01,30.99,5.228701,-16.656111943452814,-21.126421814269488,10.00592449501794,0.033166247903554,-1.5777120789648689,-0.04404316967553523
7689192,1814.5,1,188018,220380,0.07,-0.84,9.95,-0.03,-0.01,-0.0,30.99,5.268705,-22.993974141033856,28.32901604968396,9.985639689073503,0.03162277660168379,-2.175171797824261,0.05513883173934783
7730188,1814.5,1,188041,220487,0.07,-0.82,9.97,-0.03,-0.01,-0.01,30.99,5.309701,-16.25764209985806,27.13343065410122,10.003909235893737,0.033166247903554,-1.5401489901336016,0.05274110648368427
7770192,1814.5,1,188137,220744,0.07,-0.82,9.96,-0.03,-0.01,-0.01,30.99,5.349705,-16.294769260734604,49.509804251120684,9.993943165737937,0.033166247903554,-1.5436489057846257,0.0976165259242053
7810188,1814.5,1,188122,220847,0.06,-0.82,9.95,-0.03,-0.01,-0.01,30.99,5.389701,-14.618698293465274,150.4707528664386,9.983912058907569,0.033166247903554,-1.3856484858204112,0.3000919134833748
7850192,1814.5,1,188323,221107,0.06,-0.82,9.96,-0.03,-0.01,-0.0,30.99,5.429705,-11.61131703394464,319.9671508267044,9.99387812613302,0.03162277660168379,-1.1021476608100507,0.6400139262771526
7890188,1814.5,1,188357,221563,0.07,-0.83,9.93,-0.03,-0.01,-0.0,30.99,5.469701,-11.567429090701594,477.2120354610757,9.964873305767615,0.03162277660168379,-1.0980104174598695,0.9553657469038723
7930192,1814.5,1,188558,221902,0.08,-0.83,9.96,-0.03,-0.01,-0.01,30.99,5.509705,-8.859270405514122,513.5769693209744,9.994843670613363,0.033166247903554,-0.842716806422338,1.028294975262266
7970189,1814.5,1,188530,221182,0.06,-0.81,9.94,-0.03,-0.01,-0.0,30.99,5.549702,-8.215728784583343,362.59898391168747,9.973128897191692,0.03162277660168379,-0.7820512091074628,0.7255113096182013
8010192,1814.5,1,187918,219432,0.1,-0.82,9.94,-0.03,-0.01,-0.01,30.99,5.589705,-7.009048061541546,50.99216320121262,9.974266890353395,0.033166247903554,-0.6682994260824611,0.1005893704451623
8050189,1814.5,1,187581,218740,0.07,-0.8049999999999999,9.93,-0.03,-0.01,-0.0,30.99,5.629702,-5.67214437960773,-308.59155916263495,9.962822140337545,0.03162277660168379,-0.5422717415021432,-0.6205493920579317
8090192,1814.5,1,187420,218521,0.07,-0.83,9.96,-0.03,-0.01,-0.0,30.99,5.669705,-5.566849599000044,-580.1208094567397,9.994768631639253,0.03162277660168379,-0.5323457778162743,-1.1650964762620142
8130190,1814.5,1,187376,218325,0.06,-0.8049999999999999,9.94,-0.03,-0.01,-0.0,30.99,5.709703,-4.2735074341443395,-677.7121110918872,9.972724051130664,0.03162277660168379,-0.41042456493496415,-1.3608140967082063
8170192,1814.5,1,187373,218446,0.08,-0.83,9.97,-0.03,-0.01,-0.0,30.99,5.749705,-4.574606436987443,-603.4115270642412,10.00480884375109,0.03162277660168379,-0.43880866669977436,-1.211805596360303
8210188,1814.5,1,187517,218985,0.08,-0.81,9.98,-0.03,-0.01,-0.0,30.99,5.789701,-4.045821996382128,-434.13492736312617,10.013136371786814,0.03162277660168379,-0.3889610377403041,-0.8723243850676675
8250191,1814.5,1,187760,219312,0.08,-0.82,9.95,-0.03,-0.01,-0.01,30.99,5.829704,-4.076580593457478,-273.681616338536,9.984052283516947,0.033166247903554,-0.39186059948340446,-0.5505381223549304
8290189,1814.5,1,187784,219376,0.09,-0.845,9.96,-0.03,-0.01,-0.01,30.99,5.869702,-4.955556106590508,-197.16828319683535,9.996185522488066,0.033166247903554,-0.4747201578943121,-0.39709199299715603
8330195,1814.5,1,187749,219450,0.07,-0.82,9.97,-0.03,-0.01,-0.0,30.99,5.909708,-4.281225606738969,-212.8277134587946,10.003909235893737,0.03162277660168379,-0.4111521442171795,-0.4284967019933721
8370188,1814.5,1,187840,219501,0.08,-0.83,9.93,-0.03,-0.01,-0.01,30.99,5.949701,-6.442134370980113,-258.5664585614049,9.964948569862266,0.033166247903554,-0.6148574162025919,-0.5202249421509334
8410191,1814.5,1,187895,219570,0.09,-0.84,9.94,-0.03,-0.01,-0.01,30.99,5.989704,-6.017920538910312,-239.07672532920145,9.975835804582992,0.033166247903554,-0.574867484433261,-0.48113862864321244
8450189,1814.5,1,187876,219836,0.08,-0.84,9.97,-0.03,-0.01,-0.01,30.99,6.029702,-7.375805499640651,-91.14913590015287,10.005643407597535,0.033166247903554,-0.7028730392386313,-0.1844724779074219
8490191,1814.5,1,188007,220292,0.09,-0.81,9.97,-0.03,-0.01,-0.01,30.99,6.069704,-10.082668798077988,158.5557003109772,10.003254470421114,0.033166247903554,-0.9580445363236306,0.3163061318487923
8530189,1814.5,1,188410,221424,0.09,-0.83,9.95,-0.03,-0.01,-0.0,30.99,6.109702,-7.42767785774853,390.8098573634554,9.984963695477314,0.03162277660168379,-0.707762960086632,0.782087714791387
8570192,1814.5,1,188899,221580,0.09,-0.84,9.96,-0.03,-0.01,-0.01,30.99,6.149705,-15.5712833936796,466.3574175772496,9.995764102858772,0.033166247903554,-1.4754470974691336,0.9335970037118048
8610875,1814.5,1,188388,219950,0.1,-0.83,9.94,-0.03,-0.01,-0.01,30.87,6.190388,-8.312399689267707,330.1945144287277,9.975093984519644,0.033166247903554,-0.7911642143660258,0.6605247221584228
8649192,1854.0,1,187969,219299,0.1,-0.83,9.96,-0.03,-0.01,-0.0,30.87,6.228705,19.60402101387875,62.475424560437276,9.995023761852696,0.03162277660168379,1.8404702934382324,0.12361884695108612
8689188,1842.0,1,187916,219208,0.09,-0.83,9.97,-0.03,-0.01,-0.01,30.87,6.268701,15.365427751103645,-172.59796773497297,10.004893802534838,0.033166247903554,1.44090516245393,-0.34781666215070195
8729192,1829.0,1,187861,219343,0.07,-0.81,9.97,-0.03,-0.01,-0.01,30.87,6.308705,-7.229196434273245,-240.77652481723055,10.003094521196928,0.033166247903554,-0.6890524467034891,-0.48454754629733354
8769188,1814.5,1,187986,219872,0.11999999999999998,-0.81,9.909999999999997,-0.03,-0.01,-0.0,30.87,6.348701,-18.34992685769571,-123.89583570779632,9.943771920151827,0.03162277660168379,-1.7373851912723042,-0.2501454021991655
8809171,1814.5,1,188224,220662,0.11999999999999998,-0.82,9.909999999999997,-0.03,-0.01,-0.0,30.87,6.388684,-22.778793615447512,82.97336660319705,9.944591494878004,0.03162277660168379,-2.1548870878837545,0.16472710530439053
8849169,1814.5,1,188433,221003,0.11999999999999998,-0.82,9.909999999999997,-0.03,-0.01,-0.01,30.87,6.428682,-24.153812530954657,251.0555408719818,9.944591494878004,0.033166247903554,-2.2845078320833987,0.5018129176270434
8889192,1825.0,1,188373,220981,0.07,-0.83,9.96,-0.03,-0.01,-0.01,30.87,6.468705,-14.909939585402725,309.2235774706966,9.994768631639253,0.033166247903554,-1.4131033175880707,0.6184678809114694
8929188,1859.0,1,188350,221098,0.07,-0.82,9.95,-0.03,-0.01,-0.01,30.87,6.508701,16.60770330518571,283.2806238266103,9.983977163435421,0.033166247903554,1.5580124109471274,0.5664397485933962
8969192,1882.5,1,188420,221125,0.07,-0.82,9.96,-0.03,-0.01,-0.0,30.87,6.548705,38.443486723841076,262.7263209359675,9.993943165737937,0.03162277660168379,3.616435364252053,0.5252184595616485
9009188,1882.5,1,188404,221427,0.09,-0.81,9.94,-0.03,-0.01,-0.01,30.87,6.588701,37.24875466978448,324.4230613409466,9.973354500868801,0.033166247903554,3.503809962361587,0.6489501755960628
9049191,1882.5,1,188542,221602,0.07,-0.84,9.96,-0.03,-0.01,-0.0,30.87,6.628704,34.95454280904858,467.0225249828141,9.995604033774047,0.03162277660168379,3.287538429376489,0.9349308647893514
9089188,1882.5,1,188568,221755,0.06,-0.83,9.96,-0.03,-0.01,-0.0,30.87,6.668701,33.45153118534792,600.5048847167075,9.994703597405978,0.03162277660168379,3.145852025642225,1.2026273641795324
9129192,1882.5,1,188744,221985,0.08,-0.81,9.96,-0.03,-0.01,-0.0,30.87,6.708705,33.0649206787346,600.8250578787062,9.993202689828722,0.03162277660168379,3.109406896766208,1.203269465763866
9169188,1882.5,1,188621,221215,0.07,-0.82,9.96,-0.03,-0.01,-0.0,30.87,6.748701,29.49417678469652,396.33419479037883,9.993943165737937,0.03162277660168379,2.772798814017876,0.7931666752891317
9209192,1882.5,1,187948,219306,0.09,-0.84,9.96,-0.03,-0.01,-0.01,30.87,6.788705,30.581869897951837,25.412096029457896,9.995764102858772,0.033166247903554,2.87533383314449,0.049289000495936104
9249188,1882.5,1,187479,218449,0.07,-0.8049999999999999,9.94,-0.03,-0.01,-0.01,30.87,6.828701,28.51550160534057,-379.2974495984114,9.972789228696252,0.033166247903554,2.6805407340400818,-0.7623487983139852
9289192,1882.5,1,187373,218283,0.07,-0.83,9.94,-0.03,-0.01,-0.0,30.87,6.868705,24.682093728934,-669.194832554893,9.974838344554762,0.03162277660168379,2.319171754925107,-1.343732846022873
9329188,1882.5,1,187212,217962,0.06,-0.81,9.95,-0.03,-0.01,-0.01,30.87,6.908701,31.833231887087095,-762.0156170156039,9.983095712252787,0.033166247903554,2.993297644744154,-1.5298832790862282
9369192,1882.5,1,187258,218142,0.07,-0.83,9.95,-0.03,-0.01,-0.01,30.87,6.948705,16.535442638752322,-673.3596538920616,9.98480345324834,0.033166247903554,1.5512005182132713,-1.3520853211721604
9409189,1858.0,1,187411,218602,0.07,-0.83,9.95,-0.03,-0.01,-0.01,30.87,6.988702,11.084002110702077,-487.70559292089115,9.98480345324834,0.033166247903554,1.0373022945329433,-0.9797594024617636
9449192,1882.5,1,187537,218927,0.08,-0.83,9.96,-0.03,-0.01,-0.01,30.87,7.028705,11.768714870481988,-299.4529755368889,9.994843670613363,0.033166247903554,1.1018490265703929,-0.6022221250626999
9489188,1814.5,1,187656,219332,0.04000000000000002,-0.82,9.97,-0.03,-0.01,-0.0,30.87,7.068701,-33.97694248207968,-162.99106645915302,10.003744299011247,0.03162277660168379,-3.210517940217086,-0.3285501924340218
9529192,1814.5,1,187642,219559,0.05,-0.82,9.98,-0.03,-0.01,-0.0,30.87,7.108705,-53.89091973033154,-74.79756545444842,10.013755539256987,0.03162277660168379,-5.087775425028589,-0.151679694077608
9569188,1814.5,1,187841,219834,0.06,-0.84,9.99,-0.03,-0.01,-0.0,30.87,7.148701,-41.31304237909749,10.24394910280093,10.025432658992827,0.03162277660168379,-3.9020798652569737,0.018869551494608755
9609192,1814.5,1,187881,220130,0.08,-0.81,9.97,-0.03,-0.01,-0.01,30.87,7.188705,-47.57658593875039,139.83130182611345,10.003169497714213,0.033166247903554,-4.492533689835561,0.2787546835707013
9649875,1814.5,1,187916,220250,0.07,-0.82,9.99,-0.03,-0.01,-0.0,30.59,7.229388,-48.949248069772,321.18920742806216,10.023841578955645,0.03162277660168379,-4.621932263885044,0.6424647390653915
9690191,1817.0,1,188008,220601,0.06,-0.82,9.95,-0.03,-0.01,-0.01,30.59,7.269704,-40.989929896953434,498.0585041185734,9.983912058907569,0.033166247903554,-3.871620589443841,0.9971729691869099
9730188,1844.0,1,188130,220917,0.07,-0.83,9.94,-0.03,-0.01,-0.0,30.59,7.309701,-22.306040366360467,570.1980371149053,9.974838344554762,0.03162277660168379,-2.11032142607476,1.1418475201107876
9770223,1857.0,1,188175,220501,0.07,-0.83,9.97,-0.03,-0.01,-0.01,30.59,7.349736,-2.1683056288266633,455.4400632073502,10.004733879519234,0.033166247903554,-0.21197069523305814,0.9117024436122497
9810189,1854.0,1,187683,218702,0.06,-0.82,9.93,-0.03,-0.01,-0.01,30.59,7.389702,-9.787163093975712,156.35406623600608,9.96398012844265,0.033166247903554,-0.9301877055200709,0.3118907938521997
9850192,1842.0,1,187027,217420,0.07,-0.81,9.94,-0.03,-0.01,-0.0,30.59,7.429705,-22.133325047487467,-223.12132471566062,9.973194072111502,0.03162277660168379,-2.094039840480179,-0.4491403563686754
9890188,1845.0,1,186852,217101,0.06,-0.84,9.97,-0.03,-0.01,-0.0,30.59,7.469701,-13.957813363463966,-531.9548355331816,10.005503485582322,0.03162277660168379,-1.3233479636305012,-1.068500471855439
9930191,1857.0,1,186713,216914,0.06,-0.83,9.99,-0.03,-0.01,-0.0,30.59,7.509704,-11.890199546385169,-659.1999178685592,10.02459974263312,0.03162277660168379,-1.1284374510079367,-1.3236882223095294
9970192,1847.0,1,186762,216920,0.06,-0.83,9.98,-0.03,-0.01,-0.0,30.59,7.549705,-9.036861238798473,-590.532473527769,10.014634291875065,0.03162277660168379,-0.8594579986443098,-1.185976883457373
10010191,1872.0,1,186860,217388,0.08,-0.83,9.95,-0.03,-0.01,-0.0,30.59,7.589704,2.2178556356015102,-400.33768285876056,9.984878567113372,0.03162277660168379,0.20150542561371482,-0.8045446120632844
10050189,1846.0,1,186982,217830,0.09,-0.81,9.94,-0.03,-0.01,-0.01,30.59,7.629702,-11.214629473442272,-195.03664458460398,9.973354500868801,0.033166247903554,-1.0647525848389732,-0.39281702965670506
10090192,1853.0,1,187129,218064,0.07,-0.81,9.97,-0.03,-0.01,-0.0,30.59,7.669705,-13.602817631669923,-49.342296639637055,10.003094521196928,0.03162277660168379,-1.2898831069482426,-0.10062960501456022
10130189,1872.0,1,187206,218242,0.07,-0.83,9.98,-0.03,-0.01,-0.01,30.59,7.709702,11.411443964251186,28.76598217651233,10.014699196680848,0.033166247903554,1.0681696929814164,0.05601515953829623
10170192,1882.5,1,187160,218333,0.06,-0.84,9.97,-0.03,-0.01,-0.01,30.59,7.749705,19.900260611977153,89.81139575802271,10.005503485582322,0.033166247903554,1.868396307207109,0.17844065120756522
10210189,1882.5,1,187258,218562,0.08,-0.84,9.97,-0.03,-0.01,-0.0,30.59,7.789702,19.95046030376267,199.24762846701512,10.005643407597535,0.03162277660168379,1.8731285485853535,0.3979130703425696
10250192,1882.5,1,187426,218929,0.07,-0.83,9.94,-0.03,-0.01,-0.0,30.59,7.829705,21.95409156473604,384.0331097854456,9.974838344554762,0.03162277660168379,2.062007532154281,0.7684970680010494
10290188,1882.5,1,187589,219433,0.07,-0.81,9.98,-0.03,-0.01,-0.01,30.59,7.869701,20.794196532312373,601.3838144796695,10.013061469900203,0.033166247903554,1.9526661583006903,1.2043900421934948
10330192,1882.5,1,187618,219544,0.08,-0.82,9.96,-0.03,-0.01,-0.01,30.59,7.909705,22.226427399703297,751.7051293876616,9.994018210909964,0.033166247903554,2.087680177964879,1.5058567668215341
10370189,1882.5,1,187769,219599,0.09,-0.82,9.95,-0.03,-0.01,-0.0,30.59,7.949702,23.15321776552561,733.1151647908105,9.984137418926082,0.03162277660168379,2.175047162942421,1.46857492331588
10410192,1882.5,1,187557,218429,0.07,-0.8049999999999999,9.93,-0.03,-0.01,-0.01,30.59,7.989705,22.619094517194604,506.920357594339,9.962822140337545,0.033166247903554,2.1246962534660514,1.0149452587860786
10450189,1882.5,1,186896,216524,0.09,-0.83,9.93,-0.03,-0.01,-0.0,30.59,8.029702,25.094000581634194,130.32920827216265,9.965033868482335,0.03162277660168379,2.3580015282364366,0.2596984038769528
10490191,1882.0,1,186526,215690,0.06,-0.81,9.95,-0.03,-0.01,-0.01,30.59,8.069704,24.12677963500995,-268.86677744765655,9.983095712252787,0.033166247903554,2.266823219710638,-0.5408820485577209
10530189,1875.0,1,186369,215412,0.05,-0.82,9.97,-0.03,-0.01,-0.0,30.59,8.109702,18.34181008087625,-558.9625409160124,10.003789282067071,0.03162277660168379,1.7214837699602135,-1.1226639448563538
10570192,1872.0,1,186248,215211,0.07,-0.83,9.96,-0.03,-0.01,-0.0,30.59,8.149705,17.54338691706112,-666.7879523407718,9.994768631639253,0.03162277660168379,1.646217747425694,-1.338905890543091
10610188,1861.0,1,186162,215452,0.09,-0.82,9.96,-0.03,-0.01,-0.0,30.59,8.189701,4.9163624281084,-600.3244921314849,9.994103261423708,0.03162277660168379,0.45588916879555147,-1.2056146026841235
10650878,1840.0,1,186460,216148,0.11,-0.84,9.93,-0.03,-0.01,-0.01,30.77,8.230391,-11.327491609580807,-428.53298635739384,9.966072446054163,0.033166247903554,-1.0753919105335166,-0.8610897919722619
10689191,1854.0,1,186603,216587,0.09,-0.81,9.93,-0.03,-0.01,-0.01,30.77,8.268704,-0.03715219993438209,-238.61878395565864,9.963387977992225,0.033166247903554,-0.011070409177898782,-0.48022023535987723
10729192,1854.0,1,186708,216748,0.07,-0.81,9.97,-0.03,-0.01,-0.0,30.77,8.308705,4.238207680117977,-94.3889233396602,10.003094521196928,0.03162277660168379,0.3919606496125121,-0.1909698140202489
10769188,1839.0,1,186822,217037,0.1,-0.83,9.94,-0.03,-0.01,-0.01,30.77,8.348701,-11.229722484164435,-11.870677255401286,9.975093984519644,0.033166247903554,-1.0661753778347325,-0.025480938511819935
10809192,1840.0,1,186895,217321,0.08,-0.83,9.93,-0.03,-0.01,-0.01,30.77,8.388705,-9.376882188653466,41.182519055468106,9.964948569862266,0.033166247903554,-0.8915112075613802,0.08091630350722141
10849189,1838.0,1,187082,217617,0.08,-0.83,9.95,-0.03,-0.01,-0.0,30.77,8.428702,-7.753368245282323,122.51715731366406,9.984878567113372,0.03162277660168379,-0.7384652507494701,0.2440314745627209
10889191,1833.0,1,187159,217918,0.08,-0.845,9.96,-0.03,-0.01,-0.0,30.77,8.468704,-16.033861230869256,275.556881711267,9.996100489690969,0.03162277660168379,-1.5190535401373568,0.5509499210941532
10929188,1838.0,1,187291,218393,0.09,-0.82,9.96,-0.03,-0.01,-0.01,30.77,8.508701,-3.98719026962518,488.2125884441528,9.994103261423708,0.033166247903554,-0.3834339224619352,0.9774271603430462
10969192,1855.0,1,187502,219016,0.06,-0.82,9.96,-0.03,-0.01,-0.0,30.77,8.548705,7.49012901580872,677.7580542966248,9.99387812613302,0.03162277660168379,0.6985138605226814,1.3575572223613006
11009188,1840.0,1,187770,219486,0.09,-0.82,9.94,-0.03,-0.01,-0.0,30.77,8.588701,-0.2672954310996014,725.5937163576394,9.974171644803391,0.03162277660168379,-0.03276562846522312,1.4534907921998461
11049192,1835.0,1,187703,218626,0.08,-0.82,9.96,-0.03,-0.01,-0.0,30.77,8.628705,-8.999559658712176,552.6506784822923,9.994018210909964,0.03162277660168379,-0.8559416407847344,1.1066566043309114
11089188,1825.0,1,187128,216869,0.07,-0.84,9.96,-0.03,-0.01,-0.01,30.77,8.668701,-15.800466451259185,184.49064694357918,9.995604033774047,0.033166247903554,-1.497051802790921,0.3683182062476827
11129192,1827.0,1,186662,215990,0.07,-0.8049999999999999,9.98,-0.03,-0.01,-0.01,30.77,8.708705,-12.509780737672171,-248.91037540623333,10.012658238449967,0.033166247903554,-1.1868443385067189,-0.5008598390495714
11169189,1829.0,1,186520,215644,0.08,-0.81,9.97,-0.03,-0.01,-0.01,30.77,8.748702,-12.745763683510582,-584.7701425237964,10.003169497714213,0.033166247903554,-1.209090057975034,-1.174420631071918
11209192,1814.5,1,186439,215562,0.1,-0.81,9.95,-0.03,-0.01,-0.0,30.77,8.788705,-21.979422851085616,-718.9151541061353,9.983416248960072,0.03162277660168379,-2.0795317366231423,-1.4434460669634983
11249188,1829.0,1,186501,215905,0.09,-0.845,9.96,-0.03,-0.01,-0.0,30.77,8.828701,-12.083831675731084,-654.1164766532061,9.996185522488066,0.03162277660168379,-1.1466908295060223,-1.3134934713258137
11289192,1828.0,1,186739,216626,0.07,-0.81,9.96,-0.03,-0.01,-0.01,30.77,8.868705,-8.014839896468178,-480.93874397933007,9.993127638532394,0.033166247903554,-0.7631137480403745,-0.9661886072108455
11329189,1821.0,1,186933,217120,0.07,-0.84,9.96,-0.03,-0.01,-0.01,30.77,8.908702,-18.085836562316786,-313.5546286985271,9.995604033774047,0.033166247903554,-1.7124898387525214,-0.6305027397784622
11369192,1825.0,1,187075,217331,0.08,-0.84,9.94,-0.03,-0.01,-0.01,30.77,8.948705,-11.844110068099116,-223.90416080652832,9.975750598325922,0.033166247903554,-1.1240926726141005,-0.45071032023161095
11409197,1834.0,1,187067,217600,0.1,-0.82,9.96,-0.03,-0.01,-0.0,30.77,8.98871,-3.4760574815509377,-209.18147975607275,9.994198317023733,0.03162277660168379,-0.3352502854022326,-0.42118424512549063
11449191,1837.0,1,187230,217981,0.06,-0.81,9.93,-0.03,-0.01,-0.01,30.77,9.028704,-0.5236711392155412,-204.40536317764187,9.963162148635341,0.033166247903554,-0.056933739686036454,-0.4116058282374896
11489189,1841.0,1,187371,218341,0.08,-0.81,9.94,-0.03,-0.01,-0.01,30.77,9.068702,3.988186610300329,-129.4537101900894,9.973269273412805,0.033166247903554,0.36839157956564533,-0.2612916206652306
11529191,1842.0,1,187495,218751,0.06,-0.81,9.96,-0.03,-0.01,-0.01,30.77,9.108704,4.017733145841234,53.66848175117261,9.993062593619637,0.033166247903554,0.371176882285587,0.1059566797173805
11569189,1845.0,1,187759,219395,0.08,-0.83,9.96,-0.03,-0.01,-0.01,30.77,9.148702,7.744961724057909,303.21502381053335,9.994843670613363,0.033166247903554,0.7225365157146557,0.6064178333663828
11609221,1857.0,1,188032,220149,0.08,-0.8049999999999999,9.97,-0.03,-0.01,-0.01,30.77,9.188734,18.25724711059015,506.46164605399275,10.00276586749885,0.033166247903554,1.71351215952155,1.014025320946911
11649188,1852.0,1,188279,220537,0.07,-0.81,9.94,-0.03,-0.01,-0.01,30.77,9.228701,14.28261628012823,540.8436689708477,9.973194072111502,0.033166247903554,1.3388303276186742,1.0829778566613215
11689878,1837.0,1,188186,219124,0.08,-0.82,9.97,-0.03,-0.01,-0.01,30.85,9.269391,-2.956100955283739,355.8493436760354,10.003984206305006,0.033166247903554,-0.28623484923177234,0.7119750261210466
11730189,1839.0,1,187571,217816,0.08,-0.83,9.92,-0.03,-0.01,-0.0,30.85,9.309702,0.5721233366329997,17.942660959937555,9.954983676531068,0.03162277660168379,0.04636498140607244,0.034309181256007494
11770192,1855.0,1,187375,217522,0.08,-0.82,9.95,-0.03,-0.01,-0.01,30.85,9.349705,13.707069646975722,-319.886209441892,9.984052283516947,0.033166247903554,1.2845745046118233,-0.6432006123961178
11810214,1850.0,1,187357,217665,0.06,-0.82,9.96,-0.03,-0.01,-0.0,30.85,9.389727,10.421633821870962,-505.40887807671237,9.99387812613302,0.03162277660168379,0.9748619385754638,-1.0152630261118643
11850191,1856.0,1,187411,217951,0.08,-0.845,9.95,-0.03,-0.01,-0.0,30.85,9.429704,13.277305768118433,-470.20159857796,9.986136640362979,0.03162277660168379,1.2440613791708826,-0.9446554529939118
11890188,1856.0,1,187607,218603,0.08,-0.82,9.97,-0.03,-0.01,-0.01,30.85,9.469701,15.352047513658508,-256.7091926082814,10.003984206305006,0.033166247903554,1.4396438297437781,-0.5165002283005122
11930191,1851.0,1,187943,219360,0.06,-0.81,9.96,-0.03,-0.01,-0.01,30.85,9.509704,6.08503385791187,18.44293289749323,9.993062593619637,0.033166247903554,0.5660578790202513,0.03531246773291559
11970191,1849.0,1,188176,219826,0.06,-0.83,9.93,-0.03,-0.01,-0.01,30.85,9.549704,7.999551711936636,235.35957278479117,9.964808076425758,0.033166247903554,0.7465362900613581,0.470334932671897
12010191,1855.0,1,188352,220115,0.09,-0.83,9.94,-0.03,-0.01,-0.01,30.85,9.589704,7.294057119802725,334.8140409160655,9.974998746867088,0.033166247903554,0.6800304892829785,0.6697891004026033
12050188,1840.0,1,188344,220443,0.06,-0.81,9.96,-0.03,-0.01,-0.01,30.85,9.629701,-1.605205423189343,342.7690728007501,9.993062593619637,0.033166247903554,-0.15888817622875667,0.6857427754223792
12090192,1837.0,1,188426,220695,0.07,-0.83,9.95,-0.03,-0.01,-0.01,30.85,9.669705,-12.282525459038684,343.601762305996,9.98480345324834,0.033166247903554,-1.1654213616970468,0.6874127194215536
12130189,1821.0,1,188476,220935,0.07,-0.82,9.94,-0.03,-0.01,-0.01,30.85,9.709702,-23.24245232887535,416.241444549297,9.974011229189587,0.033166247903554,-2.198595422955639,0.833090310768549
12170192,1830.0,1,188651,221341,0.09,-0.83,9.95,-0.03,-0.01,-0.01,30.85,9.749705,-18.475542900263658,569.7948446759407,9.984963695477314,0.033166247903554,-1.7492268064947873,1.1410389248424195
12210189,1835.0,1,188704,221789,0.07,-0.82,9.94,-0.03,-0.01,-0.0,30.85,9.789702,-13.65428704639811,721.538210373107,9.974011229189587,0.03162277660168379,-1.2947350429946112,1.4453575470468567
12250191,1836.0,1,188864,222178,0.07,-0.8049999999999999,9.96,-0.03,-0.01,-0.01,30.85,9.829704,-10.891812224997029,740.6569281669146,9.99272360270212,0.033166247903554,-1.0343211402151582,1.483699795688806
12290189,1850.0,1,188957,221624,0.09,-0.83,9.97,-0.03,-0.01,-0.0,30.85,9.869702,-2.156928143071672,537.8826750837408,10.004893802534838,0.03162277660168379,-0.21089815859079755,1.0770396360614276
12330192,1845.0,1,188270,219497,0.1,-0.83,9.96,-0.03,-0.01,-0.01,30.85,9.909705,-2.2753059316061974,139.20657318810268,9.995023761852696,0.033166247903554,-0.2220574356549199,0.27750180139362807
12370189,1850.0,1,187614,218573,0.1,-0.82,9.95,-0.03,-0.01,-0.0,30.85,9.949702,-2.7323097232507045,-317.49777675814505,9.984232569406624,0.03162277660168379,-0.265138422328599,-0.6384106531105403
12410191,1847.0,1,187474,218345,0.06,-0.83,9.97,-0.03,-0.01,-0.01,30.85,9.989704,-3.17497837481802,-666.0283193889367,10.004668910063941,0.033166247903554,-0.306868059210609,-1.337382460162979
12450191,1851.0,1,187452,218378,0.07,-0.82,9.95,-0.03,-0.01,-0.0,30.85,10.029704,-0.30020610898835626,-810.9084151864372,9.983977163435421,0.03162277660168379,-0.03586806328407926,-1.6279369165991957
12490192,1861.0,1,187462,218423,0.09,-0.82,9.95,-0.03,-0.01,-0.0,30.85,10.069705,7.419934889769914,-768.1491266905527,9.984137418926082,0.03162277660168379,0.691896777111696,-1.5421839236974928
12530189,1854.0,1,187520,218874,0.07,-0.84,9.95,-0.03,-0.01,-0.01,30.85,10.109702,3.859549600594301,-629.5522749704548,9.985639689073503,0.033166247903554,0.3562651827999962,-1.264230401554676
12570192,1863.0,1,187651,219182,0.08,-0.82,9.94,-0.03,-0.01,-0.01,30.85,10.149705,7.301813119837593,-491.3404975114957,9.974086424329798,0.033166247903554,0.6807616344950146,-0.9870491389967033
12610189,1866.0,1,187761,219305,0.09,-0.84,9.96,-0.03,-0.01,-0.01,30.85,10.189702,15.899710356399561,-399.63427315594583,9.995764102858772,0.033166247903554,1.4912710942461034,-0.8031339364095428
12650192,1867.0,1,187787,219445,0.06,-0.81,9.98,-0.03,-0.01,-0.01,30.85,10.229705,10.33044481220029,-337.6301439121729,10.012996554478585,0.033166247903554,0.9662657024342456,-0.6787857575237017
12690878,1859.0,1,187902,219869,0.06,-0.82,9.95,-0.03,-0.01,-0.01,30.91,10.270391,8.52834918260815,-248.59624193229467,9.983912058907569,0.033166247903554,0.796385147343478,-0.5002298499522683
12729191,1867.0,1,188135,220515,0.08,-0.81,9.93,-0.03,-0.01,-0.01,30.91,10.308704,9.62693862985949,-75.92348392422569,9.963302665281226,0.033166247903554,0.8999473457369984,-0.15393770355211084
12769189,1857.0,1,188349,221031,0.07,-0.82,9.95,-0.03,-0.01,-0.01,30.91,10.348702,6.346275622132806,196.87768425467135,9.983977163435421,0.033166247903554,0.5906847052496609,0.39316018935770225
12809192,1872.0,1,188570,221628,0.06,-0.81,9.95,-0.03,-0.01,-0.0,30.91,10.388705,13.842305922317111,520.3548622720963,9.983095712252787,0.03162277660168379,1.2973230031632585,1.0418879190780173
12849189,1871.0,1,188800,222257,0.06,-0.83,9.94,-0.03,-0.01,-0.0,30.91,10.428702,20.364808793447693,783.1847594420863,9.97477318037859,0.03162277660168379,1.9121884909507005,1.5689886052492275
12889192,1872.0,1,188928,222703,0.08,-0.83,9.96,-0.03,-0.01,-0.0,30.91,10.468705,13.072123840047839,857.6151357460274,9.994843670613363,0.03162277660168379,1.2247192203737296,1.7182574016997871
12929189,1856.0,1,189023,222182,0.09,-0.83,9.94,-0.03,-0.01,-0.01,30.91,10.508702,5.19558667348769,673.4843359738096,9.974998746867088,0.033166247903554,0.482211173588699,1.3489863562432753
12969191,1855.0,1,188329,219872,0.07,-0.81,9.93,-0.03,-0.01,-0.0,30.91,10.548704,-4.155525350503564,274.5644431387939,9.963227388753104,0.03162277660168379,-0.39930259031245396,0.5489596031806815
13009188,1843.0,1,187663,218696,0.08,-0.83,9.95,-0.03,-0.01,-0.0,30.91,10.588701,-8.94804684687199,-192.43479118694106,9.984878567113372,0.03162277660168379,-0.8510856137648599,-0.3875990589235734
13049192,1854.0,1,187451,218371,0.08,-0.81,9.97,-0.03,-0.01,-0.01,30.91,10.628705,-4.243737673399646,-558.0850103744511,10.003169497714213,0.033166247903554,-0.40761821914665963,-1.1209040729560351
13089188,1851.0,1,187361,218258,0.05,-0.82,9.96,-0.03,-0.01,-0.01,30.91,10.668701,-3.2872145088067612,-721.798744417855,9.993823092290558,0.033166247903554,-0.31744837272458404,-1.4492290560690377
13129192,1856.0,1,187422,218376,0.08,-0.8049999999999999,9.97,-0.03,-0.01,-0.0,30.91,10.708705,-0.8338127954406425,-688.5030081522456,10.00276586749885,0.03162277660168379,-0.08617027733205172,-1.3824550489216414
13169189,1851.0,1,187448,218863,0.07,-0.82,9.95,-0.03,-0.01,-0.01,30.91,10.748702,-5.469123171858001,-535.7018147578987,9.983977163435421,0.033166247903554,-0.5231332702127323,-1.0760149720766228
13209191,1846.0,1,187634,219251,0.07,-0.84,9.97,-0.03,-0.01,-0.01,30.91,10.788704,-10.760475557869784,-350.9926345591318,10.005568449618442,0.033166247903554,-1.021940251238474,-0.7055839949571432
13249204,1856.0,1,187735,219489,0.08,-0.82,9.97,-0.03,-0.01,-0.0,30.91,10.828717,-1.0028445618155417,-188.17201716308617,10.003984206305006,0.03162277660168379,-0.1021046205645692,-0.37905014140254456
13289192,1853.0,1,187887,219939,0.08,-0.82,9.97,-0.03,-0.01,-0.01,30.91,10.868705,-5.552857928990137,-58.58019908617712,10.003984206305006,0.033166247903554,-0.5310268063760807,-0.11915605413919941
13329189,1846.0,1,188021,220372,0.08,-0.83,9.95,-0.03,-0.01,-0.01,30.91,10.908702,-10.76779296431824,56.06103839279543,9.984878567113372,0.033166247903554,-1.0226300509632367,0.1107549095271621
13369191,1851.0,1,188192,220801,0.05,-0.82,9.95,-0.03,-0.01,-0.01,30.91,10.948704,-9.222166377043974,186.97777743981922,9.98385697012933,0.033166247903554,-0.8769264055531274,0.37330610224156036
13409192,1839.0,1,188339,221221,0.07,-0.81,9.96,-0.03,-0.01,-0.01,30.91,10.988705,-19.00153844257599,360.9898166017144,9.993127638532394,0.033166247903554,-1.7988115306547985,0.7222841531859081
13449192,1843.0,1,188481,221682,0.07,-0.83,9.96,-0.03,-0.01,-0.0,30.91,11.028705,-17.3834327800004,577.5552647653569,9.994768631639253,0.03162277660168379,-1.6462754034704334,1.156602309366603
13489188,1840.0,1,188613,221941,0.07,-0.81,9.96,-0.03,-0.01,-0.0,30.91,11.068701,-20.33826137443634,786.9534805005521,9.993127638532394,0.03162277660168379,-1.9248221762265818,1.5765467083314673
13529191,1844.0,1,188708,222317,0.07,-0.83,9.97,-0.03,-0.01,-0.01,30.91,11.108704,-17.112161653803824,893.5843212485214,10.004733879519234,0.033166247903554,-1.6207031259832492,1.7903929637630398
13569192,1860.0,1,188856,222448,0.06,-0.82,9.95,-0.03,-0.01,-0.01,30.91,11.148705,-0.7027009221479152,802.3530680306069,9.983912058907569,0.033166247903554,-0.07381057929593812,1.607430307348346
13609192,1851.0,1,188609,220711,0.07,-0.83,9.97,-0.03,-0.01,-0.0,30.91,11.188705,-13.87531156228034,488.4575023653975,10.004733879519234,0.03162277660168379,-1.3155706561719427,0.9779183308580104
13649191,1840.0,1,187743,218775,0.08,-0.81,9.95,-0.03,-0.01,-0.0,30.91,11.228704,-18.392086381834716,35.58151624751093,9.983235948328577,0.03162277660168379,-1.7413594994308108,0.0696835919507745
13689192,1856.0,1,187367,218195,0.07,-0.82,9.98,-0.03,-0.01,-0.0,30.91,11.268705,-13.786995539719856,-398.622368166924,10.013875373700234,0.03162277660168379,-1.3072452517430004,-0.8011045789437575
13729875,1841.0,1,187296,218090,0.06,-0.83,9.96,-0.03,-0.01,-0.0,30.99,11.309388,-16.089590649779716,-670.1106944086766,9.994703597405978,0.03162277660168379,-1.5243070596864483,-1.3455695906883978
13768192,1882.5,1,187254,217981,0.09,-0.83,9.96,-0.03,-0.01,-0.01,30.99,11.347705,10.956533373403825,-723.3255598110919,9.994928714102969,0.033166247903554,1.0252860288623769,-1.4522910571963732
13808189,1882.5,1,187250,218321,0.08,-0.82,9.97,-0.03,-0.01,-0.0,30.99,11.387702,22.7613653058653,-603.7790641785293,10.003984206305006,0.03162277660168379,2.138107883878833,-1.2125426855089143
13848191,1882.5,1,187497,218943,0.07,-0.83,9.95,-0.03,-0.01,-0.0,30.99,11.427704,13.114705714199276,-413.1059759929273,9.98480345324834,0.03162277660168379,1.2287333427648308,-0.8301511969484948
13888188,1882.5,1,187684,219136,0.09,-0.83,9.96,-0.03,-0.01,-0.01,30.99,11.467701,17.968808193056333,-247.34893235721245,9.994928714102969,0.033166247903554,1.686321502923867,-0.4977283927741736
13928192,1882.5,1,187673,219268,0.08,-0.83,9.95,-0.03,-0.01,-0.01,30.99,11.507705,15.991508738829982,-155.49400481142257,9.984878567113372,0.033166247903554,1.499924774942973,-0.3135149685826395
13968189,1882.5,1,187756,219458,0.08,-0.83,9.97,-0.03,-0.01,-0.0,30.99,11.547702,14.597642588550226,-130.62198321523073,10.00480884375109,0.03162277660168379,1.3685273332959123,-0.2636345714475346
14008192,1882.5,1,187788,219680,0.08,-0.83,9.95,-0.03,-0.01,-0.01,30.99,11.587705,17.029036182093435,-125.43727069510261,9.984878567113372,0.033166247903554,1.5977307598691954,-0.2532367226624991
14048189,1878.0,1,187921,219857,0.09,-0.82,9.91,-0.03,-0.01,-0.01,30.99,11.627702,9.432858341960733,-79.21721396658353,9.944274734740588,0.033166247903554,0.8816517200781765,-0.16054322059596018
14088192,1874.0,1,187969,220078,0.09,-0.83,9.95,-0.03,-0.01,-0.01,30.99,11.667705,7.8661752673993846,50.40373427464363,9.984963695477314,0.033166247903554,0.7339631146638076,0.0994092866940474
14128189,1879.0,1,188133,220474,0.09,-0.8049999999999999,9.98,-0.03,-0.01,-0.01,30.99,11.707702,11.509261866499228,255.99841330386886,10.012818034899066,0.033166247903554,1.0773908237909244,0.5117257604145568
14168191,1874.0,1,188252,220912,0.08,-0.82,9.97,-0.03,-0.01,-0.01,30.99,11.747704,6.992406433982163,465.45583925798843,10.003984206305006,0.033166247903554,0.6515943812822584,0.9317889044208315
14208189,1872.0,1,188487,221440,0.1,-0.83,9.95,-0.03,-0.01,-0.01,30.99,11.787702,5.793837268859542,566.5594295889439,9.98505883808403,0.033166247903554,0.5386072613191565,1.1345503574048206
14248192,1873.0,1,188663,220858,0.07,-0.82,9.96,-0.03,-0.01,-0.0,30.99,11.827705,6.2748849476487445,472.8099802339958,9.993943165737937,0.03162277660168379,0.5839548252086103,0.9465375034059241
14288188,1863.0,1,188127,219000,0.07,-0.83,9.94,-0.03,-0.01,-0.0,30.99,11.867701,-2.6340434278158678,190.57756517964486,9.974838344554762,0.03162277660168379,-0.25587502223980263,0.3805254125565722
14328191,1863.0,1,187604,218118,0.08,-0.83,9.96,-0.03,-0.01,-0.0,30.99,11.907704,-2.0340091307338324,-169.559835611295,9.994843670613363,0.03162277660168379,-0.19931078791841703,-0.3417237421887323
14368188,1872.0,1,187434,217868,0.1,-0.82,9.95,-0.03,-0.01,-0.01,30.99,11.947701,6.644211375629528,-455.20749159712324,9.984232569406624,0.033166247903554,0.6187706127643827,-0.9145850380098359
14408192,1869.0,1,187475,217842,0.09,-0.83,9.96,-0.03,-0.01,-0.0,30.99,11.987705,6.030564680343588,-562.491216300484,9.994928714102969,0.03162277660168379,0.5609231603245894,-1.1297406406069421
14448189,1869.0,1,187494,218143,0.07,-0.82,9.94,-0.03,-0.01,-0.01,30.99,12.027702,4.778035579999688,-486.62332222397214,9.974011229189587,0.033166247903554,0.44284932709415264,-0.9775889278197557
14488192,1863.0,1,187682,218765,0.08,-0.83,9.98,-0.03,-0.01,-0.01,30.99,12.067705,1.411293351255925,-304.3891433871259,10.014774086318672,0.033166247903554,0.12547214173581295,-0.6121215219309085
14528188,1857.0,1,187850,219127,0.08,-0.83,9.95,-0.03,-0.01,-0.01,30.99,12.107701,-4.75549925745635,-114.80965633723068,9.984878567113372,0.033166247903554,-0.4558611317568854,-0.23192323100605247
14568192,1859.0,1,187933,219250,0.08,-0.83,9.97,-0.03,-0.01,-0.01,30.99,12.147705,-2.0005539010847224,15.952242948741077,10.00480884375109,0.033166247903554,-0.19615701911161612,0.030317433320305027
14608189,1859.0,1,188006,219552,0.09,-0.82,9.96,-0.03,-0.01,-0.0,30.99,12.187702,0.6052849724447918,77.98933796187985,9.994103261423708,0.03162277660168379,0.049491073610568884,0.15473172447054215
14648192,1861.0,1,188120,219867,0.09,-0.83,9.95,-0.03,-0.01,-0.01,30.99,12.227705,0.3204314489046811,109.45623952261883,9.984963695477314,0.033166247903554,0.02263840613614237,0.21783803613043676
14688189,1862.0,1,188214,220130,0.09,-0.83,9.96,-0.03,-0.01,-0.0,30.99,12.267702,7.010995624145561,169.03402573498408,9.994928714102969,0.03162277660168379,0.6533467532939261,0.3373202272024388
14728192,1863.0,1,188290,220471,0.08,-0.8049999999999999,9.95,-0.03,-0.01,-0.0,30.99,12.307705,3.135104944645327,298.9659514834016,9.982831512151249,0.03162277660168379,0.2879729910515453,0.5978963943545429
14768875,1840.0,1,188366,220800,0.07,-0.84,9.97,-0.03,-0.01,-0.01,30.91,12.348388,-12.457523109082294,489.12505366726435,10.005568449618442,0.033166247903554,-1.181918098851732,0.9792570931261435
14809191,1846.0,1,188539,221184,0.09,-0.84,9.96,-0.03,-0.01,-0.01,30.91,12.388704,-12.033231971409451,662.9016829878286,9.995764102858772,0.033166247903554,-1.1419208796118911,1.3277630338188304
14849189,1847.0,1,188694,221674,0.09,-0.81,9.95,-0.03,-0.01,-0.01,30.91,12.428702,-4.075276022567032,707.662170460379,9.983321090699226,0.033166247903554,-0.391737619757254,1.4175293956908201
14889223,1851.0,1,188739,221112,0.07,-0.845,9.95,-0.03,-0.01,-0.01,30.91,12.468736,-4.59629990505813,545.4057216207773,9.98606153596101,0.033166247903554,-0.4408536738221357,1.0921269721463525
14929191,1842.0,1,188149,219146,0.09,-0.8049999999999999,9.94,-0.03,-0.01,-0.0,30.91,12.508704,-8.205121691160004,197.2634987397675,9.972949663966022,0.03162277660168379,-0.7810512960678512,0.39393393344853317
14969191,1843.0,1,187557,218058,0.08,-0.82,9.97,-0.03,-0.01,-0.0,30.91,12.548704,-10.431844195039165,-214.3399792760027,10.003984206305006,0.03162277660168379,-0.9909607197301844,-0.4315295242046448
15009189,1841.0,1,187381,217865,0.08,-0.83,9.97,-0.03,-0.01,-0.01,30.91,12.588702,-8.36247425549636,-535.5787597715816,10.00480884375109,0.033166247903554,-0.7958846603663184,-1.0757681874892417
15049191,1843.0,1,187350,217823,0.07,-0.83,9.96,-0.03,-0.01,-0.01,30.91,12.628704,-8.688399660935607,-670.5691652686037,9.994768631639253,0.033166247903554,-0.8266091057758742,-1.3464890458472634
15089227,1840.0,1,187355,217954,0.08,-0.84,9.94,-0.03,-0.01,-0.0,30.91,12.66874,-8.964284178927288,-623.7444856533851,9.975750598325922,0.03162277660168379,-0.8526162800277661,-1.252582983330465
15129192,1846.0,1,187452,218437,0.08,-0.82,9.95,-0.03,-0.01,-0.01,30.91,12.708705,-3.814073476866451,-474.15210428464246,9.984052283516947,0.033166247903554,-0.36711449059247203,-0.9525781219563733
15169189,1847.0,1,187618,218756,0.08,-0.83,9.94,-0.03,-0.01,-0.01,30.91,12.748702,-2.5183046168030505,-313.97039789532664,9.974913533459826,0.033166247903554,-0.24496451719360104,-0.6313365575110779
15209191,1846.0,1,187683,218928,0.07,-0.83,9.96,-0.03,-0.01,-0.01,30.91,12.788704,-1.8024559997375358,-198.10980306328102,9.994768631639253,0.033166247903554,-0.17748265972104774,-0.398980194350925
15249191,1854.0,1,187731,219142,0.06,-0.83,9.93,-0.03,-0.01,-0.0,30.91,12.828704,3.5449379614161063,-128.92836476178033,9.964808076425758,0.03162277660168379,0.3266072673020799,-0.2602380497483744
15289192,1853.0,1,187848,219540,0.08,-0.83,9.96,-0.03,-0.01,-0.0,30.91,12.868705,6.214348580073814,-70.86692118262383,9.994843670613363,0.03162277660168379,0.5782481626109459,-0.14379685686965646
15329188,1849.0,1,187942,219890,0.1,-0.82,9.95,-0.03,-0.01,-0.01,30.91,12.908701,-1.378503920221545,22.23882234911739,9.984232569406624,0.033166247903554,-0.13751740292923034,0.0429250565446332
15369192,1842.0,1,188118,220182,0.06,-0.83,9.92,-0.03,-0.01,-0.0,30.91,12.948705,-5.965206743240585,178.99249171119686,9.954843042459283,0.03162277660168379,-0.5698982426670283,0.35729175367562177
15409189,1850.0,1,188205,220514,0.08,-0.83,9.93,-0.03,-0.01,-0.0,30.91,12.988702,1.3137261112839946,386.5254109613557,9.964948569862266,0.03162277660168379,0.11627464044180175,0.7734953337010808
15449192,1855.0,1,188315,220879,0.09,-0.82,9.99,-0.03,-0.01,-0.01,30.91,13.028705,4.129353440935937,580.3066772189499,10.024001197126823,0.033166247903554,0.38169914169219515,1.1621202181275339
15489189,1853.0,1,188461,221384,0.09,-0.8049999999999999,9.95,-0.03,-0.01,-0.01,30.91,13.068702,6.094494177052653,663.8665134372554,9.982916657971256,0.033166247903554,0.5669496875572576,1.3296979841323513
15529191,1854.0,1,188635,221367,0.06,-0.84,9.94,-0.03,-0.01,-0.0,30.91,13.108704,0.9817704067726339,562.0877479424939,9.975610257021872,0.03162277660168379,0.08498172877723047,1.1255824793606477
15569189,1840.0,1,188156,219435,0.08,-0.83,9.96,-0.03,-0.01,-0.01,30.91,13.148702,-7.605421701295546,278.4782747757353,9.994843670613363,0.033166247903554,-0.7245185763313523,0.5568087229482708
15609192,1854.0,1,187506,218271,0.08,-0.81,9.96,-0.03,-0.01,-0.01,30.91,13.188705,1.5501995668889335,-91.86095405679559,9.993202689828722,0.033166247903554,0.13856659944926628,-0.1859000165658297
15649188,1853.0,1,187357,218079,0.05,-0.8049999999999999,9.95,-0.03,-0.01,-0.01,30.91,13.228701,1.9346989596205624,-412.56508822627467,9.982636174878857,0.033166247903554,0.174812717133984,-0.8290664561484029
15689191,1846.0,1,187296,217921,0.07,-0.845,9.94,-0.03,-0.01,-0.0,30.91,13.268704,-4.655050818244461,-583.2133962211078,9.976097683964406,0.03162277660168379,-0.44639202460679533,-1.1712986040377906
15729191,1847.0,1,187236,217867,0.08,-0.81,9.96,-0.03,-0.01,-0.01,30.91,13.308704,-7.103068038571398,-585.1884505725083,9.993202689828722,0.033166247903554,-0.6771625328039769,-1.175259540426908
15769878,1840.0,1,187277,218422,0.07,-0.83,9.990000000000002,-0.03,-0.01,-0.01,30.79,13.349391,-11.228593980137193,-470.8415609780176,10.024664582917477,0.033166247903554,-1.0660689956386813,-0.9459388862099435
15808191,1854.0,1,187469,218860,0.08,-0.81,9.99,-0.03,-0.01,-0.0,30.79,13.387704,0.30305530224185806,-317.37390977653615,10.02310331184908,0.03162277660168379,0.021000385715945775,-0.6381622400810372
15848192,1861.0,1,187582,219001,0.07,-0.84,9.93,-0.03,-0.01,-0.0,30.79,13.427705,5.727809974902529,-183.24787044390143,9.965711213957587,0.03162277660168379,0.5323829782320835,-0.369174852698949
15888188,1854.0,1,187629,219091,0.1,-0.82,9.96,-0.03,-0.01,-0.01,30.79,13.467701,3.213834204053402,-89.2969983370352,9.994198317023733,0.033166247903554,0.29539466727699387,-0.18075804895198472
15928192,1872.0,1,187686,219364,0.08,-0.82,9.93,-0.03,-0.01,-0.01,30.79,13.507705,12.10525217584012,-23.268342655242385,9.964120633553168,0.033166247903554,1.133573838119894,-0.048338753842929336
15968189,1862.0,1,187820,219716,0.06,-0.82,9.96,-0.03,-0.01,-0.01,30.79,13.547702,13.026763818375041,45.48874773441646,9.99387812613302,0.033166247903554,1.2204432066405138,0.08955236856650109
16008192,1870.0,1,187965,220119,0.06,-0.83,9.95,-0.03,-0.01,-0.0,30.79,13.587705,8.329743074998303,150.4331411714816,9.984738354108233,0.03162277660168379,0.7776628801945291,0.3000164838978011
16048189,1857.0,1,188065,220394,0.09,-0.82,9.95,-0.03,-0.01,-0.01,30.79,13.627702,6.63856921757321,309.9608389684395,9.984137418926082,0.033166247903554,0.618238735916796,0.6199464457381205
16088192,1863.0,1,188167,220710,0.09,-0.82,9.96,-0.03,-0.01,-0.01,30.79,13.667705,2.9862923668875325,505.570567605611,9.994103261423708,0.033166247903554,0.2739446770715021,1.0122382789603193
16128188,1853.0,1,188286,221095,0.07,-0.8049999999999999,9.93,-0.03,-0.01,-0.01,30.79,13.707701,-0.9001732971633162,669.3689431883887,9.962822140337545,0.033166247903554,-0.09242597136050965,1.3407330091757748
16168192,1856.0,1,188439,221560,0.08,-0.84,9.95,-0.03,-0.01,-0.01,30.79,13.747705,-1.0105303237436565,704.5080507179944,9.98571479664826,0.033166247903554,-0.10282914454720553,1.411203864621568
16208189,1857.0,1,188513,221033,0.08,-0.84,9.97,-0.03,-0.01,-0.0,30.79,13.787702,0.08175775602777427,542.8386722858045,10.005643407597535,0.03162277660168379,0.00013903442373834878,1.0869788003421974
16248192,1855.0,1,187915,219119,0.07,-0.83,9.95,-0.03,-0.01,-0.0,30.79,13.827705,-0.19080606417228874,203.528171718493,9.98480345324834,0.03162277660168379,-0.025555103175233844,0.40649762373369414
16288188,1859.0,1,187375,218049,0.06,-0.84,9.94,-0.03,-0.01,-0.0,30.79,13.867701,1.5303369057457403,-200.13990276652777,9.975610257021872,0.03162277660168379,0.13669417944825382,-0.40305152321457116
16328197,1856.0,1,187192,217783,0.06,-0.83,9.96,-0.03,-0.01,-0.0,30.79,13.90771,0.49496697536446355,-521.272187170165,9.994703597405978,0.03162277660168379,0.03909157966986754,-1.047076610480072
16368189,1856.0,1,187134,217716,0.07,-0.84,9.94,-0.03,-0.01,-0.01,30.79,13.947702,0.30381820447160063,-663.5907759954489,9.975675415730004,0.033166247903554,0.02107230323915623,-1.3324940102221088
16408192,1861.0,1,187132,217850,0.11,-0.82,9.95,-0.03,-0.01,-0.01,30.79,13.987705,4.126875205104898,-626.4448924984578,9.98433773467224,0.033166247903554,0.38146552252587046,-1.2579986012502886
16448191,1858.0,1,187263,218448,0.06,-0.82,9.95,-0.03,-0.01,-0.01,30.79,14.027704,4.709941499464632,-484.6361030030598,9.983912058907569,0.033166247903554,0.4364302114769038,-0.9736035950010998
16488191,1861.0,1,187479,218851,0.07,-0.8049999999999999,9.95,-0.03,-0.01,-0.0,30.79,14.067704,3.471544205456759,-328.57968183289495,9.982756382883435,0.03162277660168379,0.3196885601048419,-0.6606352167232824
16528246,1855.0,1,187525,219026,0.06,-0.81,9.95,-0.03,-0.01,-0.01,30.79,14.107759,3.2480465529920424,-211.55973879143124,9.983095712252787,0.033166247903554,0.29861980845885816,-0.42595380134009264
16568192,1862.0,1,187624,219200,0.11,-0.8049999999999999,9.95,-0.03,-0.01,-0.01,30.79,14.147705,5.357442097454276,-134.40862626867667,9.98311699821253,0.033166247903554,0.4974690149686918,-0.27122861677208876
16608189,1855.0,1,187648,219435,0.08,-0.84,9.94,-0.03,-0.01,-0.01,30.79,14.187702,3.7023787779048054,-65.25036433910013,9.975750598325922,0.033166247903554,0.341448950984037,-0.1325329519714013
16648192,1850.0,1,187845,219955,0.09,-0.81,9.98,-0.03,-0.01,-0.01,30.79,14.227705,-4.673173061729741,30.33457735257196,10.013221259914314,0.033166247903554,-0.4481003783324332,0.059160949277319436
16688189,1845.0,1,188076,220516,0.07,-0.81,9.96,-0.03,-0.01,-0.0,30.79,14.267702,-6.205925145961005,170.3273238658076,9.993127638532394,0.03162277660168379,-0.5925903657725946,0.3399139136114858
16728214,1856.0,1,188206,220786,0.08,-0.82,9.97,-0.03,-0.01,-0.0,30.79,14.307727,3.466109177110242,349.68552604876663,10.003984206305006,0.03162277660168379,0.31917620903019367,0.6996135994502206
16768188,1856.0,1,188266,220873,0.08,-0.84,9.96,-0.03,-0.01,-0.0,30.79,14.347701,5.184817604473415,535.2887207545017,9.995679066476676,0.03162277660168379,0.48119599137976715,1.07183750676959
16808878,1843.0,1,188361,221203,0.08,-0.81,9.94,-0.03,-0.01,-0.0,30.57,14.388391,-7.697688313833455,663.1893665715439,9.973269273412805,0.03162277660168379,-0.7332163963010019,1.3283399781315182
16849189,1841.0,1,188564,221742,0.08,-0.82,9.99,-0.03,-0.01,-0.01,30.57,14.428702,-9.106190562538096,656.082448420417,10.023916400289858,0.033166247903554,-0.8659935585821698,1.3140871801265834
16889191,1846.0,1,188571,220805,0.07,-0.84,9.99,-0.03,-0.01,-0.01,30.57,14.468704,-3.052738043305053,468.8170766278494,10.025497493890265,0.033166247903554,-0.2953446666498034,0.9385298062098398
16929207,1840.0,1,187939,219027,0.1,-0.83,9.96,-0.03,-0.01,-0.0,30.57,14.50872,-9.317681044208687,133.89186664379713,9.995023761852696,0.03162277660168379,-0.8859304142254771,0.26684325190414504
16969192,1842.0,1,187499,218263,0.07,-0.84,9.95,-0.03,-0.01,-0.0,30.57,14.548705,-5.719941018000693,-237.76347242412933,9.985639689073503,0.03162277660168379,-0.546777451037384,-0.4785049232891669
17009188,1850.0,1,187417,218114,0.07,-0.83,9.94,-0.03,-0.01,-0.01,30.57,14.588701,1.9518065657567651,-512.3568116500376,9.974838344554762,0.033166247903554,0.17642542268576988,-1.0291969833724532
17049191,1842.0,1,187388,218069,0.08,-0.83,9.94,-0.03,-0.01,-0.0,30.57,14.628704,-5.4477200506959305,-606.2451363160473,9.974913533459826,0.03162277660168379,-0.5211156336101117,-1.2174883493387514
17089189,1839.0,1,187408,218321,0.08,-0.81,9.95,-0.03,-0.01,-0.01,30.57,14.668702,-6.779580785965619,-524.7056443354066,9.983235948328577,0.033166247903554,-0.6466679280032901,-1.053962347784789
17129192,1847.0,1,187574,218810,0.09,-0.82,9.95,-0.03,-0.01,-0.0,30.57,14.708705,-1.2671907602988808,-346.901645684666,9.984137418926082,0.03162277660168379,-0.12702409664400874,-0.6973795894992092
17169189,1843.0,1,187809,219196,0.09,-0.83,9.94,-0.03,-0.01,-0.01,30.57,14.748702,-0.3542811901871138,-175.0649330066666,9.974998746867088,0.033166247903554,-0.04096563117103005,-0.35276411714525013
17209192,1847.0,1,187881,219334,0.09,-0.83,9.99,-0.03,-0.01,-0.01,30.57,14.788705,-1.725509757829456,-79.85234017619435,10.024824187984546,0.033166247903554,-0.17022906558717177,-0.1618169549180288
17249189,1842.0,1,187903,219380,0.09,-0.83,9.96,-0.03,-0.01,-0.0,30.57,14.828702,-0.5331979137597805,-67.59947240784116,9.994928714102969,0.03162277660168379,-0.05783181286329967,-0.13724404644069937
17289192,1851.0,1,187949,219502,0.08,-0.81,9.96,-0.03,-0.01,-0.0,30.57,14.868705,3.5886061859145637,-82.17010633742686,9.993202689828722,0.03162277660168379,0.33072379813196995,-0.16646519374901658
17329188,1847.0,1,188003,219697,0.1,-0.84,9.96,-0.03,-0.01,-0.01,30.57,14.908701,3.0265637368900147,-40.36751568512711,9.995859142665028,0.033166247903554,0.2777409920827292,-0.08263084136440024
17369192,1849.0,1,188147,220111,0.09,-0.82,9.94,-0.03,-0.01,-0.01,30.57,14.948705,4.263487516043807,113.60784778927058,9.974171644803391,0.033166247903554,0.3943437376624262,0.2261640127017051
17409188,1850.0,1,188356,220707,0.09,-0.81,9.97,-0.03,-0.01,-0.0,30.57,14.988701,3.705504437797083,361.1664281673517,10.003254470421114,0.03162277660168379,0.34174360173886137,0.7226383445409844
17449192,1842.0,1,188534,221164,0.09,-0.81,9.95,-0.03,-0.01,-0.0,30.57,15.028705,-0.6894047152538626,600.9432781310353,9.983321090699226,0.03162277660168379,-0.07255716800595316,1.2035065543781864
17489189,1853.0,1,188799,221644,0.09,-0.82,9.95,-0.03,-0.01,-0.01,30.57,15.068702,5.530328903568282,696.2877720127483,9.984137418926082,0.033166247903554,0.513766766380011,1.3947182418187276
17529192,1849.0,1,188842,220961,0.08,-0.81,9.98,-0.03,-0.01,-0.0,30.57,15.108705,6.264882322474808,559.7393071444772,10.013136371786814,0.03162277660168379,0.5830118943846241,1.1208727230909243
17569188,1840.0,1,188252,219203,0.09,-0.84,9.93,-0.03,-0.01,-0.01,30.57,15.148701,-6.915024355190729,218.81993005965788,9.965871763172553,0.033166247903554,-0.6594359678040659,0.4371649732292471
17609192,1833.0,1,187708,218248,0.09,-0.82,9.93,-0.03,-0.01,-0.01,30.57,15.188705,-11.458995189155651,-190.5038867211437,9.96420593926079,0.033166247903554,-1.08778853406878,-0.38372666434513397
17649189,1840.0,1,187587,218015,0.08,-0.83,9.95,-0.03,-0.01,-0.01,30.57,15.228702,-5.739748273840044,-503.4027420066357,9.984878567113372,0.033166247903554,-0.5486446480726352,-1.011239755888514
17689191,1841.0,1,187547,217936,0.08,-0.81,9.95,-0.03,-0.01,-0.01,30.57,15.268704,-5.325595218733199,-620.3024586136094,9.983235948328577,0.033166247903554,-0.5096031289996372,-1.2456800592947255
17729189,1841.0,1,187543,218188,0.07,-0.83,9.95,-0.03,-0.01,-0.0,30.57,15.308702,-4.399335414382312,-549.5599232983681,9.98480345324834,0.03162277660168379,-0.42228615916879225,-1.1038071623843797
17769192,1846.0,1,187715,218788,0.1,-0.83,9.97,-0.03,-0.01,-0.0,30.57,15.348705,-1.1950451070485342,-379.70162446782933,10.004988755615871,0.03162277660168379,-0.12022304601145778,-0.7631593638291616
17809875,1840.0,1,187926,219137,0.07,-0.81,9.95,-0.03,-0.01,-0.01,30.57,15.389388,-6.292038188323389,-213.44906872603664,9.98316082210439,0.033166247903554,-0.6007080989255169,-0.42974281893534066
17848192,1845.0,1,187917,219267,0.08,-0.82,9.94,-0.03,-0.01,-0.01,30.57,15.427705,-2.40576563807395,-110.70536749436958,9.974086424329798,0.033166247903554,-0.2343556550100916,-0.22369215269794918
17888188,1855.0,1,187992,219564,0.07,-0.84,9.96,-0.03,-0.01,-0.0,30.57,15.467701,7.692428092627381,-68.39419111658749,9.995604033774047,0.03162277660168379,0.7175842577313367,-0.13883784068254076
17928192,1856.0,1,188100,219760,0.09,-0.82,9.97,-0.03,-0.01,-0.01,30.57,15.507705,7.731738892241007,-36.86468706967272,10.004069172091924,0.033166247903554,0.7212900213710478,-0.07560598084957074
17968189,1856.0,1,188155,220061,0.1,-0.82,9.97,-0.03,-0.01,-0.01,30.57,15.547702,8.617849920133388,43.622183582367356,10.004164132999819,0.033166247903554,0.8048222328799775,0.08580900734343852
18008192,1858.0,1,188280,220422,0.07,-0.83,9.95,-0.03,-0.01,-0.0,30.57,15.587705,8.10816799816067,203.79928756089666,9.98480345324834,0.03162277660168379,0.7567753665524392,0.4070413417357235
18048188,1856.0,1,188478,220932,0.08,-0.82,9.94,-0.03,-0.01,-0.01,30.57,15.627701,8.578459177383607,418.0306162303295,9.974086424329798,0.033166247903554,0.8011089331339007,0.8366784627668751
18088192,1855.0,1,188562,221249,0.08,-0.83,9.94,-0.03,-0.01,-0.01,30.57,15.667705,4.532991787788291,603.2633946421587,9.974913533459826,0.033166247903554,0.4197494567216572,1.2081595067940958
18128188,1847.0,1,188702,221468,0.11999999999999998,-0.84,9.94,-0.03,-0.01,-0.01,30.57,15.707701,-2.287153115307433,654.4504624295237,9.976151562601682,0.033166247903554,-0.22317424994067658,1.3108142612353764
18168206,1853.0,1,188720,220980,0.08,-0.81,9.94,-0.03,-0.01,-0.01,30.57,15.747719,4.170219843617326,506.3741814094005,9.973269273412805,0.033166247903554,0.3855515494435243,1.0138499121571323
18208189,1852.0,1,188240,219260,0.05,-0.81,9.97,-0.03,-0.01,-0.01,30.57,15.787702,-0.6002916568639417,184.4924088423012,10.002974557600355,0.033166247903554,-0.06415662833617883,0.3683217397042466
18248191,1843.0,1,187640,218206,0.11,-0.81,9.96,-0.03,-0.01,-0.01,30.57,15.827704,-3.9487469707655096,-197.10795834685223,9.993487879614404,0.033166247903554,-0.3798099366741892,-0.3969710125829731
18288192,1855.0,1,187495,217886,0.06,-0.83,9.94,-0.03,-0.01,-0.0,30.57,15.867705,0.7607779236763911,-496.8985983425177,9.97477318037859,0.03162277660168379,0.06414913527730971,-0.9981958114011202
18328192,1840.0,1,187427,217769,0.07,-0.83,9.93,-0.03,-0.01,-0.01,30.57,15.907705,-7.853669691210994,-623.9421328724065,9.964873305767615,0.033166247903554,-0.7479205010874478,-1.2529793613144302
18368223,1852.0,1,187380,217869,0.09,-0.845,9.99,-0.03,-0.01,-0.01,30.57,15.947736,-0.4667578219908092,-577.6881437310576,10.026077248854609,0.033166247903554,-0.05156861601366917,-1.160217808397213
18408191,1854.0,1,187529,218450,0.08,-0.82,9.93,-0.03,-0.01,-0.0,30.57,15.987704,2.933519165544577,-428.7426841688604,9.964120633553168,0.03162277660168379,0.2689698352313456,-0.8615103372051398
18448188,1845.0,1,187711,218843,0.06,-0.82,9.96,-0.03,-0.01,-0.01,30.57,16.027701,-4.875777170657519,-264.29258995268987,9.99387812613302,0.033166247903554,-0.46719953041023443,-0.5317085968567019
18488191,1857.0,1,187745,218882,0.07,-0.82,9.95,-0.03,-0.01,-0.0,30.57,16.067704,4.2088109679863965,-138.98872538776487,9.983977163435421,0.03162277660168379,0.3891894704959595,-0.28041392413018634
18528189,1850.0,1,187793,219013,0.07,-0.83,9.96,-0.03,-0.01,-0.0,30.57,16.107702,0.04351805839895937,-57.585659091939945,9.994768631639253,0.03162277660168379,-0.0034657582149056026,-0.11716152186173907
18568210,1845.0,1,187900,219360,0.09,-0.83,9.92,-0.03,-0.01,-0.0,30.57,16.147723,-6.14774421660516,11.103191292512378,9.955069060533935,0.03162277660168379,-0.5871057464147947,0.02059274643042396
18608188,1855.0,1,187991,219775,0.07,-0.83,9.97,-0.03,-0.01,-0.01,30.57,16.187701,2.6456656301615653,106.73630868298628,10.004733879519234,0.033166247903554,0.24183436163454575,0.2123832631866217
18648192,1856.0,1,188131,220177,0.06,-0.83,9.97,-0.03,-0.01,-0.01,30.57,16.227705,7.562450981084023,253.0733121252561,10.004668910063941,0.033166247903554,0.705331531796322,0.5058595220034456
18688192,1863.0,1,188271,220477,0.08,-0.83,9.97,-0.03,-0.01,-0.01,30.57,16.267705,9.185573878715616,442.40593564733524,10.00480884375109,0.033166247903554,0.8583406253773305,0.8855627325120187
18728192,1855.0,1,188402,220755,0.09,-0.83,9.93,-0.03,-0.01,-0.01,30.57,16.307705,7.306396297012939,629.638804995043,9.965033868482335,0.033166247903554,0.6811936829778152,1.261054923353426
18768189,1855.0,1,188435,220983,0.07,-0.83,9.96,-0.03,-0.01,-0.01,30.57,16.347702,2.4598371087516173,741.4014811149352,9.994768631639253,0.033166247903554,0.22431661626608085,1.4851929833893613
18809192,1841.0,1,188557,221111,0.07,-0.83,9.95,-0.03,-0.01,-0.01,30.57,16.388705,-8.054041893426637,706.2967798727968,9.98480345324834,0.033166247903554,-0.7668092550349045,1.414791129141407
18849875,1840.0,1,188402,220046,0.07,-0.83,9.94,-0.03,-0.01,-0.01,30.85,16.429388,-9.996480569256436,497.67090832308725,9.974838344554762,0.033166247903554,-0.9499197154683638,0.99639565270976
18888191,1847.0,1,187827,218324,0.06,-0.82,9.96,-0.03,-0.01,-0.0,30.85,16.467704,-3.123827560875617,160.73131829552625,9.99387812613302,0.03162277660168379,-0.3020461571299482,0.3206692950385589
18928188,1839.0,1,187423,217561,0.11,-0.83,9.95,-0.03,-0.01,-0.01,30.85,16.507701,-9.69571122100955,-201.89464554791545,9.985163994647257,0.033166247903554,-0.9215666896935699,-0.4065706286667382
18968192,1841.0,1,187293,217284,0.08,-0.83,9.94,-0.03,-0.01,-0.01,30.85,16.547705,-8.210264149076162,-480.8694126801512,9.974913533459826,0.033166247903554,-0.7815360670150653,-0.9660495645229177
19008189,1851.0,1,187161,216976,0.06,-0.82,9.96,-0.03,-0.01,-0.0,30.85,16.587702,1.9277407186768638,-611.8273374912014,9.99387812613302,0.03162277660168379,0.1741567753434596,-1.2286833545548683
19048192,1845.0,1,187072,217001,0.09,-0.82,9.95,-0.03,-0.01,-0.01,30.85,16.627705,-2.243255374129673,-595.5350679839985,9.984137418926082,0.033166247903554,-0.21903608295550028,-1.196009497702964
19088189,1846.0,1,187229,217491,0.09,-0.82,9.97,-0.03,-0.01,-0.0,30.85,16.667702,-3.3598874993378063,-482.2288745366216,10.004069172091924,0.03162277660168379,-0.3242991345647391,-0.9687759411074874
19128192,1853.0,1,187377,217903,0.06,-0.81,9.94,-0.03,-0.01,-0.0,30.85,16.707705,6.728335907912673,-338.3225571875615,9.973128897191692,0.03162277660168379,0.6267008923823664,-0.6801743800377353
19168189,1857.0,1,187467,218051,0.08,-0.84,9.97,-0.03,-0.01,-0.01,30.85,16.747702,9.074749380849887,-216.06849593092088,10.005643407597535,0.033166247903554,0.8478933844507508,-0.43499603362642664
19208192,1851.0,1,187516,218171,0.08,-0.845,9.96,-0.03,-0.01,-0.0,30.85,16.787705,3.789720247813165,-137.03686078618216,9.996100489690969,0.03162277660168379,0.3496824859567808,-0.27649949437205984
19248189,1849.0,1,187592,218451,0.09,-0.83,9.96,-0.03,-0.01,-0.01,30.85,16.827702,4.14428604520482,-89.97715417244837,9.994928714102969,0.033166247903554,0.3831068134386289,-0.18212208938806096
19288191,1851.0,1,187704,218790,0.07,-0.84,9.96,-0.03,-0.01,-0.0,30.85,16.867704,1.9186999343168591,-39.41326472207085,9.995604033774047,0.03162277660168379,0.1733045156518465,-0.08071710802271279
19328189,1840.0,1,187815,218991,0.1,-0.83,9.94,-0.03,-0.01,-0.0,30.85,16.907702,-1.9133871516096654,56.1334896832476,9.975093984519644,0.03162277660168379,-0.18793995474326625,0.11090020930212123
19368191,1850.0,1,187907,219383,0.07,-0.82,9.95,-0.03,-0.01,-0.0,30.85,16.947704,0.16555916880895166,216.25615551872946,9.983977163435421,0.03162277660168379,0.008038854104161735,0.4320233689663286
19408188,1840.0,1,188019,219889,0.06,-0.82,9.98,-0.03,-0.01,-0.0,30.85,16.987701,-1.0133068517993902,410.7630695063855,10.01381046355482,0.03162277660168379,-0.1030908832249914,0.8221035270148186
19448192,1847.0,1,188218,220333,0.07,-0.82,9.92,-0.03,-0.01,-0.01,30.85,17.027705,-1.2810973335122193,555.4540454709929,9.95407956568562,0.033166247903554,-0.12833504615084873,1.1122787069883504
19488192,1844.0,1,188389,220636,0.07,-0.83,9.98,-0.03,-0.01,-0.0,30.85,17.067705,1.5945404374506638,550.7572442551857,10.014699196680848,0.03162277660168379,0.14274653950380126,1.1028593556500186
19528192,1844.0,1,188266,219539,0.07,-0.81,9.96,-0.03,-0.01,-0.01,30.85,17.107705,-1.2257487806823597,348.84895979539715,9.993127638532394,0.033166247903554,-0.12311743021315553,0.6979358807016053
19568191,1835.0,1,187660,217941,0.08,-0.83,9.93,-0.03,-0.01,-0.0,30.85,17.147704,-9.556763208218161,-0.37291735412539107,9.964948569862266,0.03162277660168379,-0.908468291831575,-0.0024223854375681575
19608191,1830.0,1,187292,217325,0.09,-0.83,9.95,-0.03,-0.01,-0.01,30.85,17.187704,-12.61752372330443,-367.60002477559954,9.984963695477314,0.033166247903554,-1.1970010904047783,-0.7388898207892461
19648189,1840.0,1,187197,217166,0.08,-0.82,9.95,-0.03,-0.01,-0.01,30.85,17.227702,-5.6255131239152885,-617.7948556695502,9.984052283516947,0.033166247903554,-0.5378758906540921,-1.2406511061707066
19688192,1840.0,1,187187,217177,0.06,-0.83,9.93,-0.03,-0.01,-0.0,30.85,17.267705,-1.8903349625052892,-683.2902799052565,9.964808076425758,0.03162277660168379,-0.18576686325089353,-1.3720010150944513
19728189,1840.0,1,187262,217496,0.11,-0.84,9.97,-0.03,-0.01,-0.01,30.85,17.307702,-4.914980097007152,-585.742528482181,10.005928242796868,0.033166247903554,-0.47089512501692327,-1.1763707338243317
19768191,1842.0,1,187472,218142,0.1,-0.82,9.99,-0.03,-0.01,-0.0,30.85,17.347704,-0.9917010571910837,-403.06631957200386,10.024095969213384,0.03162277660168379,-0.1010541409339805,-0.8100168444818524
19809188,1854.0,1,187653,218529,0.06,-0.84,9.96,-0.03,-0.01,-0.0,30.85,17.388701,10.777264536742734,-216.18975211284769,9.99553900497617,0.03162277660168379,1.0083866540554167,-0.43523921074358235
19849192,1855.0,1,187795,218664,0.1,-0.83,9.97,-0.03,-0.01,-0.01,30.85,17.428705,10.34267337694673,-72.15123453124401,10.004988755615871,0.033166247903554,0.9674184688762567,-0.14637252445772655
19889876,1841.0,1,187893,218976,0.1,-0.83,9.95,-0.03,-0.01,-0.01,30.67,17.469389,-1.0464185467253213,24.070984430417095,9.98505883808403,0.033166247903554,-0.10621226758531328,0.04659942502640961
19928192,1846.0,1,188041,219530,0.07,-0.83,9.95,-0.03,-0.01,-0.01,30.67,17.507705,0.4412102558626571,98.71784828381452,9.98480345324834,0.033166247903554,0.03402402321011828,0.19630238340867726
19968189,1850.0,1,188259,219914,0.07,-0.82,9.99,-0.03,-0.01,-0.0,30.67,17.547702,7.695947656086131,192.1216927930248,10.023841578955645,0.03162277660168379,0.7179160411196495,0.38362213303362686
20008192,1850.0,1,188353,220215,0.09,-0.845,9.96,-0.03,-0.01,-0.0,30.67,17.587705,4.572612518269392,337.2050779710453,9.996185522488066,0.03162277660168379,0.42348443702830973,0.6745842827083876
20048188,1846.0,1,188451,220606,0.11,-0.845,9.94,-0.03,-0.01,-0.0,30.67,17.627701,2.3410203577109163,531.6621736823195,9.976458539983012,0.03162277660168379,0.21311595893723304,1.0645645310892657
20088192,1854.0,1,188621,221155,0.09,-0.84,9.94,-0.03,-0.01,-0.01,30.67,17.667705,8.880329844070083,716.5004771083293,9.975835804582992,0.033166247903554,0.829565778364653,1.4352544625454218
20128188,1855.0,1,188821,221588,0.11,-0.82,9.95,-0.03,-0.01,-0.0,30.67,17.707701,9.999067501978027,788.5772182109279,9.98433773467224,0.03162277660168379,0.9350273150364667,1.5798030854427347
20168191,1847.0,1,188918,221286,0.08,-0.82,9.97,-0.03,-0.01,-0.01,30.67,17.747704,1.2047714289375164,659.1390953169038,10.003984206305006,0.033166247903554,0.10600366391157894,1.3202172311362645
20208192,1840.0,1,188452,219440,0.07,-0.84,9.97,-0.03,-0.01,-0.01,30.67,17.787705,-5.407129755084889,325.4891582953071,10.005568449618442,0.033166247903554,-0.5172892540126746,0.6510882140849071
20248191,1843.0,1,187830,218218,0.1,-0.82,9.95,-0.03,-0.01,-0.0,30.67,17.827704,-4.941876363896239,-104.71835334948457,9.984232569406624,0.03162277660168379,-0.4734305913229048,-0.21168530226782256
20288189,1845.0,1,187614,217830,0.07,-0.84,9.96,-0.03,-0.01,-0.01,30.67,17.867702,-0.005970721693043849,-467.01393447541494,9.995604033774047,0.033166247903554,-0.008130983131242142,-0.9382626493067114
20328192,1855.0,1,187511,217762,0.08,-0.82,9.93,-0.03,-0.01,-0.01,30.67,17.907705,4.207116087445833,-636.3653706832598,9.964120633553168,0.033166247903554,0.3890296969288327,-1.2778939438831463
20368189,1851.0,1,187507,218081,0.09,-0.84,9.98,-0.03,-0.01,-0.0,30.67,17.947702,5.915910513349458,-594.7997825473964,10.01569268697877,0.03162277660168379,0.5501149028644453,-1.1945348958318003
20408192,1855.0,1,187766,218947,0.05,-0.83,9.99,-0.03,-0.01,-0.01,30.67,17.987705,2.1999289400150484,-425.16875555116576,10.02454487744955,0.033166247903554,0.19981550586297409,-0.854342886899837
20448191,1845.0,1,188006,219265,0.07,-0.82,9.95,-0.03,-0.01,-0.0,30.67,18.027704,-2.057037407427635,-244.71751633472815,9.983977163435421,0.03162277660168379,-0.20148162522765148,-0.49245113472252844
20488192,1856.0,1,187949,219255,0.09,-0.83,9.96,-0.03,-0.01,-0.0,30.67,18.067705,2.963130305379245,-131.75603682804015,9.994928714102969,0.03162277660168379,0.27176122809051495,-0.26590889580676147
20528189,1858.0,1,188000,219422,0.11,-0.83,9.94,-0.03,-0.01,-0.01,30.67,18.107702,7.00583182709583,-92.71591330101789,9.975199246130375,0.033166247903554,0.6528599707421128,-0.18761462213060884
20568191,1858.0,1,188099,219818,0.09,-0.82,9.96,-0.03,-0.01,-0.01,30.67,18.147704,5.658700317774356,-78.61084671681394,9.994103261423708,0.033166247903554,0.5258681259000105,-0.15932716185657492
20608191,1858.0,1,188209,220204,0.08,-0.83,9.96,-0.03,-0.01,-0.0,30.67,18.187704,2.813719906096746,-26.430708395413273,9.994843670613363,0.03162277660168379,0.2576765584705188,-0.05468082211414399
20648191,1850.0,1,188323,220573,0.04000000000000002,-0.82,9.92,-0.03,-0.01,-0.01,30.67,18.227704,-2.821385758798371,102.50785112903803,9.953913803122871,0.033166247903554,-0.27353547191666516,0.20390316673591075
20688191,1848.0,1,188466,220779,0.08,-0.82,9.96,-0.03,-0.01,-0.0,30.67,18.267704,-9.481557671896761,299.2350529977075,9.994018210909964,0.03162277660168379,-0.9013787911156391,0.598436072657383
20728192,1840.0,1,188540,221063,0.11,-0.83,9.98,-0.03,-0.01,-0.0,30.67,18.307705,-16.034419455967203,502.12900014426265,10.015058661835187,0.03162277660168379,-1.5191061630880747,1.0053362766009455
20768191,1840.0,1,188764,221789,0.08,-0.83,9.94,-0.03,-0.01,-0.01,30.67,18.347704,-17.100985488917956,617.1434065405407,9.974913533459826,0.033166247903554,-1.6196495675241864,1.2359956238967473
20808191,1850.0,1,188925,221734,0.09,-0.845,9.96,-0.03,-0.01,-0.01,30.67,18.387704,-11.605000248791654,565.2339234961846,9.996185522488066,0.033166247903554,-1.1015521879890986,1.1318920785007063
20848188,1840.0,1,188513,220131,0.07,-0.82,9.95,-0.03,-0.01,-0.0,30.67,18.427701,-15.338439072256143,335.1361945774913,9.983977163435421,0.03162277660168379,-1.4534972508996136,0.6704351738433287
20888192,1837.0,1,188028,219221,0.05,-0.81,9.96,-0.03,-0.01,-0.01,30.67,18.467705,-30.276753195603916,1.7637832953375725,9.993007555285846,0.033166247903554,-2.86170725580869,0.0018627297285576051
20928878,1835.0,1,187828,218882,0.09,-0.84,9.95,-0.03,-0.01,-0.0,30.57,18.508391,-19.790155579783224,-310.6747466848775,9.985799917883394,0.03162277660168379,-1.8731531553848793,-0.624727187598776
20967192,1877.0,1,187701,218650,0.08,-0.83,9.98,-0.03,-0.01,-0.0,30.57,18.546705,6.627788270254295,-497.4537218281164,10.014774086318672,0.03162277660168379,0.6172224339598593,-0.9993091016824751
21007188,1862.0,1,187619,218484,0.1,-0.82,9.97,-0.03,-0.01,-0.01,30.57,18.586701,4.702869176602022,-525.8526842608306,10.004164132999819,0.033166247903554,0.4357635153737934,-1.056262715963093
21047191,1873.0,1,187633,218848,0.08,-0.81,9.95,-0.03,-0.01,-0.01,30.57,18.626704,2.858190468414119,-439.7333803944214,9.983235948328577,0.033166247903554,0.2618687243509631,-0.883551983092349
21087189,1872.0,1,187850,219272,0.09,-0.83,9.94,-0.03,-0.01,-0.01,30.57,18.666702,9.993931670049118,-320.2308619880739,9.974998746867088,0.033166247903554,0.9345431687100405,-0.6438918069502353
21127192,1871.0,1,187906,219305,0.04000000000000002,-0.82,9.93,-0.03,-0.01,-0.0,30.57,18.706705,2.550056927253572,-231.78693220738654,9.963879766436365,0.03162277660168379,0.23282148836921618,-0.46651907813572346
21167189,1871.0,1,187902,219288,0.09,-0.84,9.98,-0.03,-0.01,-0.0,30.57,18.746702,4.57298021315587,-186.82140084665548,10.01569268697877,0.03162277660168379,0.42351909901316404,-0.376341504391268
21207192,1879.0,1,187894,219437,0.11,-0.83,9.96,-0.03,-0.01,-0.01,30.57,18.786705,11.634027034521509,-147.710495021985,9.995128813577143,0.033166247903554,1.0891522284864206,-0.29790527807555317
21247191,1877.0,1,188037,219968,0.07,-0.83,9.95,-0.03,-0.01,-0.01,30.57,18.826704,7.9062879274741515,-60.15489292193485,9.98480345324834,0.033166247903554,0.73774446835435,-0.12231407463182489
21287192,1877.0,1,188206,220365,0.1,-0.84,9.96,-0.03,-0.01,-0.01,30.57,18.866705,9.56439582020772,106.32372792372722,9.995859142665028,0.033166247903554,0.8940515391848325,0.21155583980880927
21327189,1877.0,1,188429,220891,0.08,-0.82,9.97,-0.03,-0.01,-0.01,30.57,18.906702,7.0983777081011965,334.4309991156082,10.003984206305006,0.033166247903554,0.6615841168852973,0.6690209168815227
21367192,1865.0,1,188623,221265,0.07,-0.83,9.96,-0.03,-0.01,-0.01,30.57,18.946705,-3.353270168520872,560.7463063099475,9.994768631639253,0.033166247903554,-0.32367532980435887,1.1228922420147929
21407191,1869.0,1,188683,221462,0.05,-0.8049999999999999,9.95,-0.03,-0.01,-0.01,30.57,18.986704,-0.2605287809183445,699.0171791241848,9.982636174878857,0.033166247903554,-0.03212774761693699,1.400192019257176
21447192,1877.0,1,188692,221472,0.06,-0.82,9.95,-0.03,-0.01,-0.01,30.57,19.026705,7.577459306457204,676.4362301414795,9.983912058907569,0.033166247903554,0.7067463416452067,1.3549063275176134
21487192,1872.0,1,188691,220680,0.07,-0.81,9.94,-0.03,-0.01,-0.01,30.57,19.066705,3.958691538047859,470.81086117265556,9.973194072111502,0.033166247903554,0.3656111282042345,0.942528305668846
21527192,1869.0,1,188114,218926,0.07,-0.83,9.94,-0.03,-0.01,-0.0,30.57,19.106705,-0.6050341519972531,130.21535175391125,9.974838344554762,0.03162277660168379,-0.06460369545766367,0.25947006665374656
21567189,1871.0,1,187695,218136,0.04000000000000002,-0.82,9.94,-0.03,-0.01,-0.01,30.57,19.146702,3.812341498231197,-241.53834062996708,9.973845797885588,0.033166247903554,0.3518149535765665,-0.4860753543661766
21607192,1876.0,1,187525,217658,0.08,-0.8049999999999999,9.96,-0.03,-0.01,-0.0,30.57,19.186705,7.705958544385095,-530.4947888126436,9.992798657032974,0.03162277660168379,0.7188597508946766,-1.0655723741141843
21647206,1872.0,1,187429,217429,0.11,-0.84,9.98,-0.03,-0.01,-0.0,30.57,19.226719,5.1926993606384935,-662.6236010726118,10.015892371626204,0.03162277660168379,0.4819389914128545,-1.3305543581088437
21687191,1872.0,1,187379,217528,0.06,-0.845,9.96,-0.03,-0.01,-0.0,30.57,19.266704,5.9591314179317925,-629.5878656984997,9.995960434095366,0.03162277660168379,0.5541892655904866,-1.2643017781270363
21727189,1872.0,1,187531,218107,0.1,-0.83,9.93,-0.03,-0.01,-0.01,30.57,19.306702,6.105393981227844,-481.2117384119003,9.965129201370146,0.033166247903554,0.567977193952177,-0.9667360926920563
21767192,1873.0,1,187730,218725,0.08,-0.82,9.95,-0.03,-0.01,-0.01,30.57,19.346705,8.807152666537835,-295.16036645607016,9.984052283516947,0.033166247903554,0.8226674876552041,-0.5936133738653393
21807188,1877.0,1,187922,219132,0.04000000000000002,-0.82,9.94,-0.03,-0.01,-0.0,30.57,19.386701,13.594118336271492,-140.59730638571898,9.973845797885588,0.03162277660168379,1.2739267725794188,-0.28363990472414896
21847213,1868.0,1,187970,219329,0.1,-0.81,9.95,-0.03,-0.01,-0.01,30.57,19.426726,4.737021330048391,-50.48152095937683,9.983416248960072,0.033166247903554,0.4389829820268074,-0.10291429913461077
21887191,1868.0,1,187991,219405,0.08,-0.83,9.96,-0.03,-0.01,-0.0,30.57,19.466704,8.091257699031212,-12.31639825123841,9.994843670613363,0.03162277660168379,0.7551812608037262,-0.026374824044920878
21927192,1874.0,1,188065,219592,0.09,-0.81,9.96,-0.03,-0.01,-0.01,30.57,19.506705,11.953709687319447,20.307272216923472,9.993287747283174,0.033166247903554,1.1192881799966599,0.039051367093714234
21967878,1846.0,1,188180,220097,0.07,-0.81,9.94,-0.03,-0.01,-0.01,30.73,19.547391,-11.012941652231671,100.822771267031,9.973194072111502,0.033166247903554,-1.0457398096789452,0.20052376903009064
22008192,1847.0,1,188349,220471,0.06,-0.83,9.94,-0.03,-0.01,-0.01,30.73,19.587705,-12.654002682564059,257.0482802752063,9.97477318037859,0.033166247903554,-1.2004399011684235,0.513831249960986
22048192,1849.0,1,188488,220792,0.06,-0.84,9.96,-0.03,-0.01,-0.0,30.73,19.627705,-5.739192108122291,464.5936210355448,9.99553900497617,0.03162277660168379,-0.5485922192562601,0.93005974110428
22088192,1841.0,1,188569,221043,0.11,-0.83,9.95,-0.03,-0.01,-0.01,30.73,19.667705,-16.25864329699122,641.967467859261,9.985163994647257,0.033166247903554,-1.5402433713206727,1.2857798375480234
22128191,1844.0,1,188731,221533,0.07,-0.82,9.97,-0.03,-0.01,-0.01,30.73,19.707704,-7.800566346387722,681.9500506230679,10.003909235893737,0.033166247903554,-0.7429145371709848,1.3659641964684597
22168191,1855.0,1,188831,221020,0.06,-0.83,9.96,-0.03,-0.01,-0.01,30.73,19.747704,-0.7717302575542282,514.3993053774443,9.994703597405978,0.033166247903554,-0.08031785983300112,1.0299441556039843
22208191,1846.0,1,188232,219124,0.1,-0.82,9.97,-0.03,-0.01,-0.0,30.73,19.787704,-2.6311135838692694,163.11564067805008,10.004164132999819,0.03162277660168379,-0.2555988307282067,0.32545101118810654
22248191,1856.0,1,187666,218046,0.06,-0.83,9.97,-0.03,-0.01,-0.0,30.73,19.827704,2.079587298819043,-251.6220194659438,10.004668910063941,0.03162277660168379,0.18847109967763845,-0.5062979930035756
22288188,1843.0,1,187488,217771,0.08,-0.81,9.94,-0.03,-0.01,-0.0,30.73,19.867701,-4.012774480980817,-576.5668094520046,9.973269273412805,0.03162277660168379,-0.38584570347692987,-1.1579689924357097
22328192,1846.0,1,187437,217737,0.07,-0.82,9.97,-0.03,-0.01,-0.01,30.73,19.907705,-4.67946065587848,-710.5917204140824,10.003909235893737,0.033166247903554,-0.44869309936600843,-1.4267535686685113
22368192,1846.0,1,187474,217985,0.08,-0.83,9.98,-0.03,-0.01,-0.0,30.73,19.947705,-0.9690253276852226,-649.5484371874753,10.014774086318672,0.03162277660168379,-0.09891653766127538,-1.3043323493881274
22408192,1841.0,1,187662,218676,0.09,-0.82,9.97,-0.03,-0.01,-0.01,30.73,19.987705,-6.347405839450598,-466.99558928536214,10.004069172091924,0.033166247903554,-0.6059275152279088,-0.9382258583542022
22448192,1841.0,1,187884,219031,0.07,-0.83,9.96,-0.03,-0.01,-0.0,30.73,20.027705,-5.709956063852442,-257.6299126650351,9.994768631639253,0.03162277660168379,-0.5458361860315726,-0.518346716005724
22488191,1842.0,1,187980,219283,0.1,-0.83,9.93,-0.03,-0.01,-0.0,30.73,20.067704,-3.6888868274637816,-88.01657062946497,9.965129201370146,0.03162277660168379,-0.355313353548878,-0.17819017394796113
22528192,1845.0,1,188089,219608,0.09,-0.83,9.95,-0.03,-0.01,-0.01,30.73,20.107705,-0.3516336008217868,20.81012901773148,9.984963695477314,0.033166247903554,-0.040716047328947284,0.04005983746792106
22568192,1849.0,1,188194,219949,0.08,-0.82,9.97,-0.03,-0.01,-0.01,30.73,20.147705,3.3570791993597244,84.67225524171641,10.003984206305006,0.033166247903554,0.3088981345275748,0.16813419626601298
22608191,1842.0,1,188349,220260,0.09,-0.82,9.95,-0.03,-0.01,-0.0,30.73,20.187704,-1.8718042441936549,139.83965191571795,9.984137418926082,0.03162277660168379,-0.18402000328335474,0.2787714295269549
22648191,1842.0,1,188402,220502,0.1,-0.83,9.94,-0.03,-0.01,-0.0,30.73,20.227704,-3.854363613030109,226.7185576584117,9.975093984519644,0.03162277660168379,-0.37091257465847355,0.45300553045634695
22688189,1843.0,1,188470,220772,0.08,-0.82,9.93,-0.03,-0.01,-0.01,30.73,20.267702,-0.5823217532542515,368.2191486780867,9.964120633553168,0.033166247903554,-0.062462635437015815,0.7367824501416416
22728192,1843.0,1,188603,221080,0.09,-0.84,9.96,-0.03,-0.01,-0.01,30.73,20.307705,-2.424381021952933,543.5296164979343,9.995764102858772,0.033166247903554,-0.23611049625972336,1.0883644766759826
22768192,1841.0,1,188685,221463,0.1,-0.83,9.95,-0.03,-0.01,-0.0,30.73,20.347705,-3.7810348629353543,678.2792327681598,9.98505883808403,0.03162277660168379,-0.3639999954558768,1.3586024365204268
22808191,1841.0,1,188893,221830,0.08,-0.83,9.95,-0.03,-0.01,-0.0,30.73,20.387704,-3.6070193078196553,675.6998111702156,9.984878567113372,0.03162277660168379,-0.34759583875517297,1.3534294523628374
22848189,1837.0,1,188828,220649,0.09,-0.83,9.96,-0.03,-0.01,-0.0,30.73,20.427702,-9.639952296806245,481.9204849980387,9.994928714102969,0.03162277660168379,-0.9163103887296387,0.9648084587431978
22888192,1835.0,1,188155,218994,0.08,-0.8049999999999999,9.99,-0.03,-0.01,-0.01,30.73,20.467705,-9.497692584254006,137.40998977968445,10.0227004844004,0.033166247903554,-0.9028998024441056,0.273898785307796
22928189,1842.0,1,187718,218282,0.09,-0.84,9.95,-0.03,-0.01,-0.01,30.73,20.507702,-5.902759953863603,-234.5119654127699,9.985799917883394,0.033166247903554,-0.5640114877863237,-0.47198408378334167
22968878,1840.0,1,187619,218103,0.08,-0.84,9.91,-0.03,-0.01,-0.0,30.91,20.548391,-5.9237761591446825,-499.57336235736585,9.945858434544501,0.03162277660168379,-0.5659926504729339,-1.0035600030808083
23007189,1859.0,1,187597,218110,0.09,-0.82,9.96,-0.03,-0.01,-0.01,30.91,20.586702,10.69382102025063,-588.7284595598688,9.994103261423708,0.033166247903554,1.0005205726623818,-1.182358965516601
23047192,1866.0,1,187600,218317,0.06,-0.8049999999999999,9.96,-0.03,-0.01,-0.0,30.91,20.626705,17.82392728042784,-523.4290125270335,9.992658555159384,0.03162277660168379,1.6726638204706024,-1.0514020853891215
23087188,1853.0,1,187699,218667,0.09,-0.81,9.96,-0.03,-0.01,-0.01,30.91,20.666701,3.9839627370361486,-383.3281285854354,9.993287747283174,0.033166247903554,0.36799340206442444,-0.770432253364847
23127191,1856.0,1,187789,218849,0.08,-0.83,9.95,-0.03,-0.01,-0.0,30.91,20.706704,6.077790739317184,-251.13685731517984,9.984878567113372,0.03162277660168379,0.5653750822877982,-0.5053250089354557
23167189,1855.0,1,187868,219222,0.06,-0.84,9.97,-0.03,-0.01,-0.01,30.91,20.746702,4.439556637486901,-171.25331338974533,10.005503485582322,0.033166247903554,0.4109414806422847,-0.34511998176668085
23207191,1848.0,1,187966,219402,0.08,-0.82,9.98,-0.03,-0.01,-0.0,30.91,20.786704,-3.470328811187281,-136.57245924160142,10.013950269499045,0.03162277660168379,-0.3347102531834484,-0.2755681453305573
23247189,1855.0,1,187936,219531,0.09,-0.82,9.95,-0.03,-0.01,-0.01,30.91,20.826702,3.334833105233629,-100.2488099944038,9.984137418926082,0.033166247903554,0.30680103226691513,-0.2027217125289759
23287197,1854.0,1,188049,219973,0.1,-0.84,9.94,-0.03,-0.01,-0.01,30.91,20.86671,-0.08595976908823333,-4.683931220870542,9.975931034244372,0.033166247903554,-0.01567141747309333,-0.011068047105903003
23327189,1843.0,1,188248,220487,0.08,-0.81,9.97,-0.03,-0.01,-0.01,30.91,20.906702,-8.508126273490515,180.97448542050918,10.003169497714213,0.033166247903554,-0.809615033638761,0.36126660682366324
23367192,1855.0,1,188416,221040,0.06,-0.83,9.97,-0.03,-0.01,-0.01,30.91,20.946705,-2.366780760285818,429.0509847258907,10.004668910063941,0.033166247903554,-0.23068061547831467,0.8587796158640546
23407192,1855.0,1,188532,221403,0.08,-0.845,9.94,-0.03,-0.01,-0.0,30.91,20.986705,3.5912572394569193,647.7416019615351,9.97617286337802,0.03162277660168379,0.33097370853625446,1.297359760837286
23447192,1857.0,1,188700,221730,0.09,-0.83,9.92,-0.03,-0.01,-0.01,30.91,21.026705,-2.2168737785632158,717.3197517767,9.955069060533935,0.033166247903554,-0.21654913385834043,1.4368975033277327
23487204,1852.0,1,188734,221524,0.08,-0.81,9.990000000000002,-0.03,-0.01,-0.01,30.91,21.066717,-1.3311918629930373,559.3279712688146,10.023103311849082,0.033166247903554,-0.1330573740536905,1.120047796305033
23527192,1868.0,1,188221,219364,0.08,-0.82,9.99,-0.03,-0.01,-0.0,30.91,21.106705,9.786169874811208,196.80384102224326,10.023916400289858,0.03162277660168379,0.9149578101296755,0.3930120980678564
23567189,1862.0,1,187504,218066,0.06,-0.84,9.95,-0.03,-0.01,-0.01,30.91,21.146702,4.563056323020026,-244.31803308407606,9.985574595385083,0.033166247903554,0.42258359041015026,-0.49164997816537914
23607192,1855.0,1,187295,217795,0.09,-0.84,9.94,-0.03,-0.01,-0.01,30.91,21.186705,-0.45615862556682485,-602.6738813757617,9.975835804582992,0.033166247903554,-0.05056944741104064,-1.2103262610459595
23647191,1866.0,1,187220,217656,0.08,-0.82,9.98,-0.03,-0.01,-0.01,30.91,21.226704,4.568378682482215,-770.2049061069264,10.013950269499045,0.033166247903554,0.4230853203766304,-1.5463067527692798
23687192,1856.0,1,187244,217720,0.08,-0.82,9.97,-0.03,-0.01,-0.0,30.91,21.266705,2.346583701788298,-738.1971636925714,10.003984206305006,0.03162277660168379,0.21364040612222532,-1.4821157943925543
23727189,1869.0,1,187325,218137,0.06,-0.81,9.96,-0.03,-0.01,-0.0,30.91,21.306702,6.057584262377545,-577.6453725803673,9.993062593619637,0.03162277660168379,0.5634702513439978,-1.1601320316148913
23767192,1866.0,1,187505,218554,0.1,-0.84,9.95,-0.03,-0.01,-0.0,30.91,21.346705,11.96993702171567,-382.9923383170119,9.985895052522832,0.03162277660168379,1.120817903796888,-0.76975883195122
23807189,1874.0,1,187607,218833,0.1,-0.82,9.96,-0.03,-0.01,-0.01,30.91,21.386702,11.838220768894425,-223.03249008280454,9.994198317023733,0.033166247903554,1.1084012319087189,-0.4489622000917891
23847192,1865.0,1,187743,219245,0.06,-0.8049999999999999,9.98,-0.03,-0.01,-0.01,30.91,21.426705,9.818265415892323,-120.49310710072247,10.012593320414048,0.033166247903554,0.9179834033586167,-0.24332129047156015
23887189,1872.0,1,187821,219420,0.08,-0.82,9.98,-0.03,-0.01,-0.0,30.91,21.466702,10.918944645618673,-55.49644039298846,10.013950269499045,0.03162277660168379,1.021742602067239,-0.11297163090322757
23927192,1871.0,1,187874,219696,0.09,-0.845,9.94,-0.03,-0.01,-0.0,30.91,21.506705,15.636704893984735,19.13554096575658,9.976258066028565,0.03162277660168379,1.4664780071239474,0.036701480900596474
23967188,1862.0,1,188060,220180,0.08,-0.83,9.94,-0.03,-0.01,-0.0,30.91,21.546701,1.3808066958869571,154.9062162723634,9.974913533459826,0.03162277660168379,0.12259821548467757,0.30898715649006414
24007878,1840.0,1,188225,220665,0.08,-0.81,9.96,-0.03,-0.01,-0.01,30.93,21.587391,-14.833222592058505,376.31478369483654,9.993202689828722,0.033166247903554,-1.4058713343346845,0.7530181022431246
24048189,1851.0,1,188409,221044,0.1,-0.83,9.96,-0.03,-0.01,-0.01,30.93,21.627702,-8.668160638446306,649.6602225163089,9.995023761852696,0.033166247903554,-0.824701206817285,1.3012075202505515
24088192,1855.0,1,188564,221608,0.06,-0.82,9.98,-0.03,-0.01,-0.01,30.93,21.667705,-0.06859790073810237,875.7689625201343,10.01381046355482,0.033166247903554,-0.014034743045665406,1.754664578555608
24128192,1856.0,1,188788,222049,0.07,-0.82,9.95,-0.03,-0.01,-0.0,30.93,21.707705,-1.2559564724015728,929.4483288188179,9.983977163435421,0.03162277660168379,-0.1259650590254135,1.862317593353129
24168192,1842.0,1,188833,221181,0.08,-0.83,9.96,-0.03,-0.01,-0.0,30.93,21.747705,-14.14952995381277,736.4930648536371,9.994843670613363,0.03162277660168379,-1.3414207674560867,1.4753492418394005
24208189,1836.0,1,188065,219022,0.07,-0.8049999999999999,9.95,-0.03,-0.01,-0.01,30.93,21.787702,-18.462890209660344,336.3953422769555,9.982756382883435,0.033166247903554,-1.7480340584142822,0.6729603721694126
24248192,1847.0,1,187506,218036,0.08,-0.83,9.93,-0.03,-0.01,-0.01,30.93,21.827705,-9.368175630681641,-125.76684521103849,9.964948569862266,0.033166247903554,-0.8906904548350011,-0.2538976784950161
24288192,1847.0,1,187314,217727,0.08,-0.83,9.99,-0.03,-0.01,-0.0,30.93,21.867705,-6.092828408814594,-481.1081051098502,10.02473939810906,0.03162277660168379,-0.5819289246315741,-0.966528257947193
24328192,1856.0,1,187252,217701,0.09,-0.81,9.96,-0.03,-0.01,-0.0,30.93,21.907705,1.2793344304979164,-631.2373029487914,9.993287747283174,0.03162277660168379,0.11303259394520947,-1.2676096952087172
24368188,1853.0,1,187255,217767,0.06,-0.84,9.95,-0.03,-0.01,-0.0,30.93,21.947701,-0.06804988946117008,-586.5871142758159,9.985574595385083,0.03162277660168379,-0.013983082934851903,-1.1780645356183774
24408191,1842.0,1,187406,218259,0.08,-0.8049999999999999,9.96,-0.03,-0.01,-0.0,30.93,21.987704,-10.453157488480922,-433.2806449531719,9.992798657032974,0.03162277660168379,-0.9929698884231454,-0.8706111368819801
24448188,1846.0,1,187554,218519,0.08,-0.83,9.95,-0.03,-0.01,-0.01,30.93,22.027701,-6.679823277260612,-267.88693012424636,9.984878567113372,0.033166247903554,-0.6372639537219063,-0.5389169821703971
24488192,1845.0,1,187631,218807,0.07,-0.82,9.95,-0.03,-0.01,-0.0,30.93,22.067705,-6.081207254212838,-149.11432108316737,9.983977163435421,0.03162277660168379,-0.5808334177327594,-0.3007206262839637
24528189,1846.0,1,187713,219051,0.08,-0.8049999999999999,9.96,-0.03,-0.01,-0.0,30.93,22.107702,-5.36009411292385,-86.31863913456236,9.992798657032974,0.03162277660168379,-0.5128552823254027,-0.17478500252084594
24568192,1850.0,1,187789,219328,0.1,-0.845,9.93,-0.03,-0.01,-0.0,30.93,22.147705,-0.18180641571185585,-52.9221516716802,9.966389767613947,0.03162277660168379,-0.024706721296395298,-0.10780894063847893
24608189,1851.0,1,187918,219683,0.1,-0.81,9.96,-0.03,-0.01,-0.01,30.93,22.187702,0.7606304476528367,-4.995175557661836,9.993382810640249,0.033166247903554,0.06413523295806951,-0.011692242090020382
24648191,1855.0,1,188028,220006,0.09,-0.82,9.94,-0.03,-0.01,-0.01,30.93,22.227704,6.277844351371991,100.756862342652,9.974171644803391,0.033166247903554,0.5842338032711433,0.20039158985398076
24688189,1851.0,1,188141,220330,0.1,-0.83,9.95,-0.03,-0.01,-0.01,30.93,22.267702,1.3469546054986237,283.1969330296062,9.98505883808403,0.033166247903554,0.11940703527663585,0.5662719081878638
24728192,1842.0,1,188324,220879,0.07,-0.81,9.98,-0.03,-0.01,-0.0,30.93,22.307705,-5.427067459513766,509.5535715263989,10.013061469900203,0.03162277660168379,-0.5191687482193055,1.0202261225134142
24768189,1849.0,1,188509,221369,0.09,-0.82,9.91,-0.03,-0.01,-0.01,30.93,22.347702,0.8845851042027978,687.9699592427306,9.944274734740588,0.033166247903554,0.07582023208631147,1.3780370161829534
24808191,1850.0,1,188717,221695,0.08,-0.845,9.95,-0.03,-0.01,-0.01,30.93,22.387704,2.0778868973558153,704.5566098127142,9.986136640362979,0.033166247903554,0.18831080566232272,1.4113012490227426
24848192,1845.0,1,188667,220838,0.09,-0.82,9.98,-0.03,-0.01,-0.01,30.93,22.427705,0.2958510691394232,495.6306004730729,10.014035150727203,0.033166247903554,0.02032125465411533,0.9923038515892524
24888192,1849.0,1,188013,218949,0.05,-0.82,9.98,-0.03,-0.01,-0.01,30.93,22.467705,-0.897404435462068,103.5585077740334,10.013755539256987,0.033166247903554,-0.09216495537719911,0.20601023995882198
24928189,1840.0,1,187471,218043,0.07,-0.84,9.93,-0.03,-0.01,-0.0,30.93,22.507702,-1.100748840072229,-335.38407321919334,9.965711213957587,0.03162277660168379,-0.11133389389662386,-0.6742813026796897
24968192,1847.0,1,187356,217865,0.1,-0.8049999999999999,9.95,-0.03,-0.01,-0.0,30.93,22.547705,-3.7524856500534414,-668.3005086569688,9.983011820087162,0.03162277660168379,-0.36130870868277615,-1.3419392953449214
25008874,1836.0,1,187327,217807,0.07,-0.8049999999999999,9.96,-0.03,-0.01,-0.01,30.81,22.588387,-4.07554124525382,-808.747170549281,9.99272360270212,0.033166247903554,-0.39176262185842686,-1.6236025789020954
25047191,1856.0,1,187332,217850,0.07,-0.81,9.94,-0.03,-0.01,-0.0,30.81,22.626704,7.49801690220478,-766.7283565460724,9.973194072111502,0.03162277660168379,0.6992574384424386,-1.539334594431261
25087189,1851.0,1,187464,218438,0.09,-0.845,9.95,-0.03,-0.01,-0.0,30.81,22.666702,8.84889661151689,-618.1929311854742,9.986221758002372,0.03162277660168379,0.826602619858108,-1.2414494395408857
25127207,1853.0,1,187680,218915,0.09,-0.83,9.95,-0.03,-0.01,-0.01,30.81,22.70672,8.588085147097933,-451.0995610776454,9.984963695477314,0.033166247903554,0.8020163572747199,-0.9063466563840197
25167188,1856.0,1,187765,219129,0.08,-0.82,9.94,-0.03,-0.01,-0.0,30.81,22.746701,11.320185751590001,-326.0047254084881,9.974086424329798,0.03162277660168379,1.0595669331894835,-0.6554711873918401
25207192,1847.0,1,187868,219351,0.09,-0.81,9.96,-0.03,-0.01,-0.01,30.81,22.786705,5.295969154695233,-261.6792303177923,9.993287747283174,0.033166247903554,0.49167406298751826,-0.5264675505693546
25247191,1853.0,1,187982,219666,0.08,-0.82,9.98,-0.03,-0.01,-0.01,30.81,22.826704,7.941841955161126,-235.30789963193408,10.013950269499045,0.033166247903554,0.7410960873583553,-0.4735803157097166
25287191,1843.0,1,188087,220037,0.09,-0.81,9.96,-0.03,-0.01,-0.0,30.81,22.866704,1.4213260249056197,-189.18094925147065,9.993287747283174,0.03162277660168379,0.1264179051795878,-0.38107353676895395
25327204,1841.0,1,188265,220581,0.08,-0.82,9.93,-0.03,-0.01,-0.01,30.81,22.906717,-2.8564692531902343,-50.663559297517914,9.964120633553168,0.033166247903554,-0.2768427345302272,-0.10327937378546592
25367192,1856.0,1,188482,221199,0.09,-0.84,9.93,-0.03,-0.01,-0.01,30.81,22.946705,13.721461866485798,225.21068624307827,9.965871763172553,0.033166247903554,1.2859312351866115,0.44998152113991
25407192,1853.0,1,188793,222008,0.08,-0.81,9.96,-0.03,-0.01,-0.01,30.81,22.986705,9.818459462618161,603.7980446339334,9.993202689828722,0.033166247903554,0.9180016958204359,1.2092317378475654
25447192,1845.0,1,189119,222894,0.07,-0.81,9.99,-0.03,-0.01,-0.0,30.81,23.026705,2.568123103975092,952.000049862214,10.023028484445208,0.03162277660168379,0.23452455677436757,1.9075446689800228
25487188,1851.0,1,189496,223672,0.08,-0.84,9.97,-0.03,-0.01,-0.01,30.81,23.066701,7.670514072107193,1091.6149444734854,10.005643407597535,0.033166247903554,0.71551845949671,2.18753985804227
25527191,1841.0,1,189666,222589,0.09,-0.84,9.96,-0.03,-0.01,-0.0,30.81,23.106704,-1.7666270599604292,910.5705475311138,9.995764102858772,0.03162277660168379,-0.17410512521194618,1.824458538590789
25567188,1840.0,1,188670,220149,0.07,-0.81,9.95,-0.03,-0.01,-0.01,30.81,23.146701,-3.327354151407317,453.5932310489961,9.98316082210439,0.033166247903554,-0.3212322700129154,0.9079986545517461
25607191,1849.0,1,188098,219199,0.1,-0.83,9.96,-0.03,-0.01,-0.0,30.81,23.186704,5.028651313307065,-88.88090130636867,9.995023761852696,0.03162277660168379,0.46647445507827223,-0.17992357375437704
25647189,1842.0,1,187919,218928,0.07,-0.83,9.97,-0.03,-0.01,-0.0,30.81,23.226702,-1.219579889654883,-494.8853043752032,10.004733879519234,0.03162277660168379,-0.12253589912521912,-0.994158186142113
25687192,1840.0,1,187860,218923,0.1,-0.82,9.93,-0.03,-0.01,-0.01,30.81,23.266705,-5.485570242287376,-640.559939136499,9.964301280069767,0.033166247903554,-0.5246837081630155,-1.2863060763448673
25727189,1845.0,1,187932,219282,0.09,-0.81,9.95,-0.03,-0.01,-0.0,30.81,23.306702,1.1609299073709785,-550.2343471552464,9.983321090699226,0.03162277660168379,0.10187079665556491,-1.1051597074394077
25767192,1847.0,1,188130,219812,0.1,-0.82,9.91,-0.03,-0.01,-0.01,30.81,23.346705,0.3529932635859909,-346.5486007299041,9.944370266638305,0.033166247903554,0.025707954201177944,-0.6966715641188853
25807189,1840.0,1,188330,220128,0.07,-0.82,9.98,-0.03,-0.01,-0.01,30.81,23.386702,-5.506083836795174,-156.42759478468363,10.013875373700234,0.033166247903554,-0.526617490568714,-0.3153872666766048
25847191,1842.0,1,188364,220177,0.07,-0.82,9.96,-0.03,-0.01,-0.01,30.81,23.426704,-5.632229939321714,-43.7264962504046,9.993943165737937,0.033166247903554,-0.5385090736611139,-0.08936721717193788
25887192,1843.0,1,188376,220356,0.1,-0.845,9.97,-0.03,-0.01,-0.0,30.81,23.466705,-4.545566784842718,0.6902691799648079,10.006244300435604,0.03162277660168379,-0.43607114703379235,-0.0002901837448342377
25927192,1854.0,1,188516,220850,0.11,-0.82,9.95,-0.03,-0.01,-0.01,30.81,23.506705,4.5167734271177755,28.688395785685415,9.98433773467224,0.033166247903554,0.4182205788596134,0.055859561410827624
25967191,1854.0,1,188704,221301,0.07,-0.83,9.97,-0.03,-0.01,-0.01,30.81,23.546704,5.198180167784992,97.89165615948221,10.004733879519234,0.033166247903554,0.48245565797877,0.19464546979141417
26007192,1840.0,1,188782,221393,0.09,-0.81,9.96,-0.03,-0.01,-0.01,30.81,23.586705,-12.900263592033555,243.38224808944676,9.993287747283174,0.033166247903554,-1.2236545071587301,0.4864242653678565
26047876,1838.0,1,188838,221504,0.1,-0.83,9.95,-0.03,-0.01,-0.0,30.93,23.627389,-11.400843991007662,453.84221115389056,9.98505883808403,0.03162277660168379,-1.0823067174224519,0.9084979797257311
26088192,1850.0,1,188918,221989,0.09,-0.84,9.95,-0.03,-0.01,-0.0,30.93,23.667705,-6.542981433955189,655.9384151654184,9.985799917883394,0.03162277660168379,-0.624364100951257,1.3137983239943143
26128189,1838.0,1,189205,222586,0.09,-0.82,9.94,-0.03,-0.01,-0.01,30.93,23.707702,-13.413535326018973,731.5918225619322,9.974171644803391,0.033166247903554,-1.272039779088821,1.4655198875579198
26168192,1852.0,1,189291,222354,0.08,-0.82,9.95,-0.03,-0.01,-0.01,30.93,23.747705,-6.152976631033102,582.7310372973883,9.984052283516947,0.033166247903554,-0.587598997412626,1.166982229164446
26208192,1850.0,1,188711,220042,0.09,-0.83,9.95,-0.03,-0.01,-0.01,30.93,23.787705,-6.029702789879605,209.18404798211537,9.984963695477314,0.033166247903554,-0.5759781776184695,0.4178403830299345
26248192,1845.0,1,187931,218676,0.08,-0.82,9.96,-0.03,-0.01,-0.0,30.93,23.827705,-12.985422538293243,-267.8112535257599,9.994018210909964,0.03162277660168379,-1.2316822992603151,-0.538765214097515
26288189,1845.0,1,187673,218332,0.08,-0.82,9.93,-0.03,-0.01,-0.01,30.93,23.867702,-16.16020810478744,-668.6343132816894,9.964120633553168,0.033166247903554,-1.530964049614627,-1.3426087345854032
26328192,1843.0,1,187607,218268,0.07,-0.81,9.95,-0.03,-0.01,-0.0,30.93,23.907705,-15.913857030700036,-860.4718883388352,9.98316082210439,0.03162277660168379,-1.5077409439558853,-1.7273355808643975
26368189,1862.0,1,187607,218377,0.09,-0.83,9.94,-0.03,-0.01,-0.01,30.93,23.947702,-1.828237415624373,-824.3052556190372,9.974998746867088,0.033166247903554,-0.17991303087891639,-1.6548040419170682
26408192,1862.0,1,187691,218881,0.08,-0.82,9.94,-0.03,-0.01,-0.0,30.93,23.987705,-0.5446312786701619,-642.2051867058218,9.974086424329798,0.03162277660168379,-0.058909617140518004,-1.2896055910958497
26448189,1855.0,1,187968,219408,0.08,-0.82,9.95,-0.03,-0.01,-0.0,30.93,24.027702,-8.919633274954846,-429.33322182566354,9.984052283516947,0.03162277660168379,-0.8484071136397094,-0.8626946499772502
26488192,1860.0,1,188015,219557,0.1,-0.84,9.95,-0.03,-0.01,-0.01,30.93,24.067705,-7.1457682361642805,-265.97390521324576,9.985895052522832,0.033166247903554,-0.6811878093489325,-0.5350804447212391
26528189,1857.0,1,188071,219750,0.11,-0.82,9.96,-0.03,-0.01,-0.0,30.93,24.107702,-6.866156245503572,-168.0451503570224,9.994303377424563,0.03162277660168379,-0.6548292524535771,-0.3386860678394397
26568196,1871.0,1,188157,220141,0.08,-0.82,9.96,-0.03,-0.01,-0.01,30.93,24.147709,0.9497965146515018,-98.50898771997504,9.994018210909964,0.033166247903554,0.08196760319324047,-0.1992325298882574
26608189,1877.0,1,188331,220662,0.08,-0.82,9.96,-0.03,-0.01,-0.0,30.93,24.187702,11.662148460684202,0.7143301003225054,9.994018210909964,0.03162277660168379,1.091803188517628,-0.0002419299968131342
26648192,1881.0,1,188477,221103,0.1,-0.83,9.97,-0.03,-0.01,-0.0,30.93,24.227705,10.478678869275006,174.85515911507704,10.004988755615871,0.03162277660168379,0.9802394802325463,0.3489944067078116
26688189,1877.0,1,188597,221543,0.08,-0.83,9.97,-0.03,-0.01,-0.01,30.93,24.267702,9.214976715731337,426.79830309991314,10.00480884375109,0.033166247903554,0.8611123818765151,0.8542619029114444
26728192,1882.0,1,188810,222019,0.07,-0.83,9.95,-0.03,-0.01,-0.0,30.93,24.307705,12.330190386246692,697.9860800608118,9.98480345324834,0.03162277660168379,1.15477838876499,1.3981241684165127
