timestamp_us,ecg,leads,ir,red,accX,accY,accZ,gyroX,gyroY,gyroZ,temp,time_sec,ecg_filtered,ppg_filtered,accel_magnitude,gyro_magnitude,ecg_norm,ppg_norm
1949954,1838,1,189270.0,222846,0.34,-0.77,9.909999999999997,-0.03,-0.01,-0.0,30.45,0.030466,2.4770573303005463,-24.07345413857546,9.945682480352966,0.03162277660168379,0.1614002072953744,-0.04468396880984178
1990199,1838,1,188847.0,222206,0.38,-0.78,9.95,-0.03,-0.01,-0.0,30.45,0.070711,0.3220020202068529,-292.34721083967503,9.987757506067114,0.03162277660168379,0.026678434320670408,-0.58262659719144
2030213,1838,1,188794.0,222252,0.35,-0.8,9.94,-0.03,-0.01,-0.01,30.45,0.110725,-1.815291340690718,-475.32259783342215,9.978281415153614,0.033166247903554,-0.10693296284326881,-0.9495289055608112
2070188,1838,1,188878.0,222162,0.36,-0.83,9.96,-0.03,-0.01,-0.0,30.45,0.1507,-4.207013533589399,-521.507129048979,10.001004949503825,0.03162277660168379,-0.25644980019824537,-1.042138143296836
2110188,1838,1,188677.0,222295,0.4,-0.81,9.909999999999997,-0.03,-0.01,-0.0,30.45,0.1907,-6.586818328681401,-431.1912075294069,9.951090392514779,0.03162277660168379,-0.4052216297781357,-0.8610366266804489
2150188,1838,1,188834.0,222897,0.36,-0.78,9.91,-0.03,-0.01,-0.01,30.45,0.2307,-9.22497481309965,-254.059397400522,9.94716542538627,0.033166247903554,-0.570144134226565,-0.5058518606323578
2190188,1838,1,189150.0,223551,0.34,-0.76,9.99,-0.03,-0.01,-0.01,30.45,0.2707,-12.104858940653164,-66.74064774801245,10.024634656684501,0.033166247903554,-0.7501780729419709,-0.13024023997914544
2230222,1838,1,189336.0,223846,0.33,-0.77,9.990000000000002,-0.03,-0.01,-0.01,30.45,0.310734,-15.000377774033463,64.27700225114178,10.02506359082076,0.033166247903554,-0.9311894043391594,0.13247639645820633
2270187,1838,1,189176.0,223559,0.38,-0.8,9.93,-0.03,-0.01,-0.01,30.45,0.350699,-18.495011946437906,117.31289419621629,9.96941823779101,0.033166247903554,-1.1496540114419094,0.23882398506443425
2310188,1838,1,189097.0,223562,0.41,-0.79,9.93,-0.03,-0.01,-0.01,30.45,0.3907,-21.8551470253032,124.40321557172959,9.969809426463476,0.033166247903554,-1.3597105019361364,0.2530414999034406
2350188,1838,1,189327.0,224103,0.35,-0.79,9.93,-0.03,-0.01,-0.01,30.45,0.4307,-25.755291179957755,146.00574646462897,9.967522259819638,0.033166247903554,-1.6035252814970127,0.2963589022133824
2390189,1838,1,189427.0,224034,0.33,-0.81,9.96,-0.03,-0.01,-0.0,30.45,0.470701,-30.022952678669704,226.90554531522315,9.998329860531708,0.03162277660168379,-1.8703151503553483,0.4585792064443287
2430211,1838,1,189225.0,223635,0.37,-0.81,9.98,-0.03,-0.01,-0.0,30.45,0.510723,-33.95842639418848,359.2228335480115,10.019650692514187,0.03162277660168379,-2.1163385326633337,0.723901877910762
2470188,1838,1,189305.0,224066,0.39,-0.8,9.92,-0.03,-0.01,-0.01,30.45,0.5507,-39.39210760436668,475.44293579675644,9.95984437629424,0.033166247903554,-2.456021306922486,0.956946466555059
2510187,1838,1,189656.0,224908,0.36,-0.79,9.95,-0.03,-0.01,-0.01,30.45,0.590699,-43.41032582430857,484.1156222149839,9.987802561124242,0.033166247903554,-2.7072174039573667,0.9743369403170851
2550188,1838,1,189545.0,223295,0.36,-0.79,9.97,-0.03,-0.01,-0.0,30.45,0.6307,-49.54342839829003,334.93313121326213,10.00772701466222,0.03162277660168379,-3.0906240147912114,0.6751961585096657
2590188,1838,1,188834.0,221897,0.37,-0.81,9.94,-0.03,-0.01,-0.0,30.45,0.6707,-54.31393139453331,66.51080579690792,9.97980961742257,0.03162277660168379,-3.388848667599352,0.1369556200895972
2630188,1859,1,188562.0,221594,0.37,-0.79,9.93,-0.03,-0.01,-0.0,30.45,0.7107,-39.32240539024107,-208.5780299884121,9.968244579663963,0.03162277660168379,-2.4516639218366914,-0.41465260719468716
2670187,1883,1,188601.0,221693,0.36,-0.79,9.96,-0.03,-0.01,-0.01,30.45,0.750699,-21.199765528895043,-374.9342999949089,9.997764750182913,0.033166247903554,-1.318739786819278,-0.7482302565163844
2710189,1892,1,188620.0,221846,0.37,-0.8,9.97,-0.03,-0.01,-0.0,30.45,0.790701,-18.07399441055776,-384.43804772780845,10.008886051904078,0.03162277660168379,-1.1233343951325032,-0.7672871747098691
2750187,1904,1,188547.0,222092,0.36,-0.8,9.95,-0.03,-0.01,-0.0,30.45,0.830699,-12.303510992242728,-274.67809908929075,9.988598500290218,0.03162277660168379,-0.7625966667803095,-0.547196488286826
2790188,1920,1,188696.0,222496,0.39,-0.79,9.93,-0.03,-0.01,-0.0,30.45,0.8707,-2.7687445080923094,-133.34226327469082,9.96900697160956,0.03162277660168379,-0.1665374196565397,-0.2637898221352564
2830188,1938,1,188797.0,222581,0.35,-0.8,9.94,-0.03,-0.01,-0.01,30.45,0.9107,9.461806359435561,-41.430616181261506,9.978281415153614,0.033166247903554,0.5980468996475539,-0.0794885560542473
2870188,1961,1,188832.0,222398,0.36,-0.82,9.97,-0.03,-0.01,-0.01,30.45,0.9507,25.440022859005584,-29.43845823150401,10.010139859162809,0.033166247903554,1.5969139104910737,-0.05544187684571262
2910187,1967,1,188678.0,222411,0.36,-0.78,9.98,-0.03,-0.01,-0.0,30.45,0.990699,25.82549222461577,-65.53177905334505,10.016905709848725,0.03162277660168379,1.6210112578395186,-0.12781621606053994
2950188,1965,1,188784.0,222432,0.39,-0.77,9.94,-0.03,-0.01,-0.0,30.45,1.0307,17.25021468523175,-78.85922078333363,9.97740447210596,0.03162277660168379,1.0849337899225837,-0.15454040676034264
2990873,1973,1,188768.0,222677,0.35,-0.81,9.94,-0.03,-0.01,-0.01,30.31,1.071385,19.140084724364034,-6.3442551104352205,9.979088134694472,0.033166247903554,1.2030776914601296,-0.009133372875389916
3029189,1983,1,188908.0,223109,0.35,-0.79,9.96,-0.03,-0.01,-0.01,30.31,1.109701,23.66253790617419,161.01403469825698,9.997409664508103,0.033166247903554,1.4857956838916402,0.32645352689522095
3069188,1991,1,189058.0,223327,0.37,-0.78,9.96,-0.03,-0.01,-0.0,30.31,1.1497,25.231923142557818,360.4105984251066,9.997344647455144,0.03162277660168379,1.583904702502738,0.726283584447178
3109188,2001,1,189160.0,224097,0.37,-0.77,9.92,-0.03,-0.01,-0.01,30.31,1.1897,30.527616483241527,485.5542935279922,9.956716326179029,0.033166247903554,1.9149612617685994,0.977221764524319
3149188,2014,1,189482.0,223923,0.34,-0.82,9.95,-0.03,-0.01,-0.01,30.31,1.2297,37.74466952484275,450.9964738533901,9.989519507964333,0.033166247903554,2.3661302767182555,0.9079264127333304
3189189,2021,1,188923.0,222228,0.38,-0.79,9.95,-0.03,-0.01,-0.01,30.31,1.269701,39.97489547016622,251.2095770296421,9.988543437358622,0.033166247903554,2.505551289293148,0.5073136591224228
3229188,2021,1,188552.0,221260,0.39,-0.8,9.96,-0.03,-0.01,-0.0,30.31,1.3097,35.89766243655003,-31.569372959498068,9.999684995038594,0.03162277660168379,2.2506659225245698,-0.059714787784635945
3269188,2018,1,188424.0,221312,0.39,-0.76,9.94,-0.03,-0.01,-0.0,30.31,1.3497,27.478631060746967,-279.06853133896067,9.976637710170696,0.03162277660168379,1.7243560740647927,-0.5560001845303993
3309188,2009,1,188443.0,221207,0.36,-0.8,9.94,-0.03,-0.01,-0.01,30.31,1.3897,16.466967480841593,-407.49495100993187,9.978637181499284,0.033166247903554,1.035969639648253,-0.8135208850304243
3349188,2005,1,188314.0,221190,0.38,-0.81,9.95,-0.03,-0.01,-0.0,30.31,1.4297,6.767633962829521,-405.39217023119653,9.99014514409075,0.03162277660168379,0.42962259969095884,-0.8093043882961445
3389188,2006,1,188373.0,221583,0.38,-0.79,9.95,-0.03,-0.01,-0.01,30.31,1.4697,6.977218833262499,-321.5517534376212,9.988543437358622,0.033166247903554,0.4427246510402473,-0.6411875559635849
3429189,2019,1,188549.0,221964,0.38,-0.77,9.96,-0.03,-0.01,-0.01,30.31,1.509701,15.467895192169538,-223.5986760979445,9.996944533206134,0.033166247903554,0.9735133354274843,-0.4447720118935015
3469188,2022,1,188554.0,222179,0.35,-0.82,9.95,-0.03,-0.01,-0.0,30.31,1.5497,17.182737315811764,-158.0346833757102,9.989864863950862,0.03162277660168379,1.0807154894449342,-0.3133030713385488
3509188,2016,1,188595.0,222182,0.37,-0.81,9.94,-0.03,-0.01,-0.0,30.31,1.5897,9.545247927588981,-130.65580809473371,9.97980961742257,0.03162277660168379,0.6032631908252173,-0.2584029412926937
3549188,2019,1,188651.0,222241,0.39,-0.78,9.97,-0.03,-0.01,-0.0,30.31,1.6297,9.580333547855947,-110.91279688222043,10.008066746380141,0.03162277660168379,0.6054565437967832,-0.21881424847970332
3589188,2022,1,188694.0,222694,0.36,-0.79,9.98,-0.03,-0.01,-0.0,30.31,1.6697,13.975222971734137,-54.15635297240472,10.017689354337158,0.03162277660168379,0.8801999772666663,-0.10500620780557841
3629187,2010,1,188945.0,222838,0.36,-0.81,9.91,-0.03,-0.01,-0.01,30.31,1.709699,-1.5726035595273875,67.86750310778196,9.94956280446533,0.033166247903554,-0.09176150622009778,0.13967606999980953
3669198,2000,1,188939.0,223152,0.36,-0.8,9.99,-0.03,-0.01,-0.0,30.31,1.74971,-9.778326569263504,239.7202166085345,10.028444545391872,0.03162277660168379,-0.6047365316095442,0.48427518968972183
3709187,2010,1,189070.0,223375,0.39,-0.78,9.97,-0.03,-0.01,-0.0,30.31,1.789699,-0.36838300999077034,393.5975412987007,10.008066746380141,0.03162277660168379,-0.01648050218911906,0.7928300536095043
3749188,2000,1,189216.0,223735,0.38,-0.77,9.93,-0.03,-0.01,-0.01,30.31,1.8297,-11.997329464220163,434.92060643404903,9.967055733766117,0.033166247903554,-0.7434559430531257,0.8756910779044019
3789188,1997,1,189290.0,223555,0.34,-0.82,9.94,-0.03,-0.01,-0.01,30.31,1.8697,-10.155185669556676,300.38878636618443,9.979559108497728,0.033166247903554,-0.6282956142536646,0.6059278264474222
3829189,2016,1,188907.0,221597,0.37,-0.79,9.98,-0.03,-0.01,-0.0,30.31,1.909701,3.4018777492543704,13.92803214872497,10.018053703190056,0.03162277660168379,0.2192147078982619,0.031516624446747424
3869225,1991,1,188361.0,220772,0.38,-0.78,9.93,-0.03,-0.01,-0.0,30.31,1.949737,-13.772920744593097,-308.78342628528856,9.96783326505816,0.03162277660168379,-0.8544557880454412,-0.6155845020054793
3909188,1995,1,188222.0,220830,0.38,-0.78,9.93,-0.03,-0.01,-0.01,30.31,1.9897,-14.95168681958336,-523.2486013580125,9.96783326505816,0.033166247903554,-0.9281455234324261,-1.0456301441645133
3949188,1997,1,188384.0,221148,0.36,-0.81,9.94,-0.03,-0.01,-0.01,30.31,2.0297,-6.676846247883946,-544.0809338675629,9.979443872280658,0.033166247903554,-0.41084966207753076,-1.0874031444136316
3989189,1990,1,188559.0,221339,0.38,-0.79,9.96,-0.03,-0.01,-0.0,30.31,2.069701,-15.790797331737407,-391.9945920554335,9.998504888232041,0.03162277660168379,-0.9806019292562702,-0.7824395599713679
4029873,1989,1,188656.0,221935,0.37,-0.81,9.96,-0.03,-0.01,-0.01,30.33,2.110385,-12.616446891289606,-169.83941396818577,9.999729996354903,0.033166247903554,-0.7821596352802667,-0.33697392114637476
4070188,1995,1,188866.0,222633,0.38,-0.78,9.95,-0.03,-0.01,-0.0,30.33,2.1507,-7.609581427050671,7.149098440993314,9.987757506067114,0.03162277660168379,-0.4691589483703991,0.017923504265317337
4110187,1994,1,189015.0,222729,0.37,-0.82,9.96,-0.03,-0.01,-0.0,30.33,2.190699,-3.750961895470172,77.44293394497716,10.00054498514956,0.03162277660168379,-0.2279400515306953,0.15887672717846182
4150188,1999,1,188919.0,222509,0.38,-0.8,9.96,-0.03,-0.01,-0.0,30.33,2.2307,-1.1010470899496085,59.90484040405712,9.999299975498285,0.03162277660168379,-0.062282483875910954,0.1237093360321247
4190186,1991,1,188944.0,222517,0.36,-0.8,9.96,-0.03,-0.01,-0.01,30.33,2.270698,-2.9250326204744925,33.092178234750975,9.998559896305068,0.033166247903554,-0.17630766151361857,0.06994457671079195
4230188,1998,1,189039.0,222925,0.35,-0.79,9.96,-0.03,-0.01,-0.0,30.33,2.3107,1.4696225769455313,82.28316243672145,9.997409664508103,0.03162277660168379,0.098421129453321,0.16858235499996152
4270188,1984,1,189174.0,223306,0.36,-0.82,9.96,-0.03,-0.01,-0.0,30.33,2.3507,-7.48037490056046,242.22291096928373,10.00017999838003,0.03162277660168379,-0.46108169288320355,0.4892935932749717
4310188,1977,1,189311.0,223645,0.37,-0.8,9.95,-0.03,-0.01,-0.01,30.33,2.3907,-15.08683515448025,465.7541991183618,9.988963910236135,0.033166247903554,-0.9365942269095988,0.9375186084650118
4350187,1981,1,189504.0,224249,0.36,-0.79,9.97,-0.03,-0.01,-0.0,30.33,2.430699,-8.266875036896828,639.6791378772572,10.00772701466222,0.03162277660168379,-0.5102491979192925,1.2862729549488965
4390188,1982,1,189609.0,224592,0.4,-0.77,9.94,-0.03,-0.01,-0.01,30.33,2.4707,-6.626974693149642,647.5099607825562,9.977800358796522,0.033166247903554,-0.4077319767711067,1.3019753237078386
4430188,1985,1,189599.0,223677,0.36,-0.81,9.95,-0.03,-0.01,-0.0,30.33,2.5107,-0.9174425673129959,446.8036484014026,9.989404386648886,0.03162277660168379,-0.05080457576843727,0.8995189577078267
4470188,1981,1,188934.0,221790,0.37,-0.79,9.95,-0.03,-0.01,-0.01,30.33,2.5507,-5.521422946715825,107.15000057504795,9.988168000189022,0.033166247903554,-0.33861918384312895,0.21844534731111478
4510188,1961,1,188521.0,221134,0.39,-0.76,9.97,-0.03,-0.01,-0.0,30.33,2.5907,-21.321453173087132,-226.4576084864026,10.00652786934609,0.03162277660168379,-1.3263470046470007,-0.4505047440933415
4550187,1959,1,188496.0,221299,0.37,-0.79,9.94,-0.03,-0.01,-0.01,30.33,2.630699,-25.034735208853498,-422.777488650316,9.978206251626592,0.033166247903554,-1.558480229752863,-0.8441654347161718
4590188,1946,1,188569.0,221418,0.37,-0.8,9.99,-0.03,-0.01,-0.0,30.33,2.6707,-34.18052157246583,-438.59043006406387,10.028808503506287,0.03162277660168379,-2.1302226571433485,-0.875873550229063
4630188,1934,1,188566.0,221644,0.38,-0.79,9.95,-0.03,-0.01,-0.0,30.33,2.7107,-46.046477321462646,-325.5080481609693,9.988543437358622,0.03162277660168379,-2.872014568031581,-0.6491207194913964
4670187,1937,1,188760.0,221921,0.38,-0.78,9.94,-0.03,-0.01,-0.0,30.33,2.750699,-42.37291887898458,-176.1587833282029,9.977795347670746,0.03162277660168379,-2.642364635531556,-0.3496455227411193
4710188,1946,1,188765.0,222159,0.38,-0.78,9.99,-0.03,-0.01,-0.0,30.33,2.7907,-29.48208802121037,-60.32570368063516,10.027606892973019,0.03162277660168379,-1.8365033751999769,-0.11737699194862446
4750187,1958,1,188871.0,222342,0.34,-0.81,9.94,-0.03,-0.01,-0.01,30.33,2.830699,-20.19031728357247,4.524490226891433,9.978742405734302,0.033166247903554,-1.2556348369374355,0.012660638979768848
4790189,1953,1,188836.0,222336,0.38,-0.81,9.96,-0.03,-0.01,-0.0,30.33,2.870701,-18.807343963991233,41.267105569923594,10.000104999448757,0.03162277660168379,-1.1691792287133498,0.086336943789809
4830188,1965,1,188929.0,222605,0.39,-0.81,9.94,-0.03,-0.01,-0.01,30.33,2.9107,-10.367143419456864,82.85138632258254,9.980571125942642,0.033166247903554,-0.6415460045005121,0.16972175772957657
4870189,1975,1,189044.0,222979,0.38,-0.78,9.97,-0.03,-0.01,-0.01,30.33,2.950701,5.677700125058648,149.10619015556202,10.007682049305924,0.033166247903554,0.36148614938183354,0.3025759129592674
4910188,1989,1,189114.0,223225,0.34,-0.79,9.93,-0.03,-0.01,-0.0,30.33,2.9907,17.986921763853516,237.74271438212875,9.96717612967685,0.03162277660168379,1.1309885168384437,0.480309901551276
4950188,1996,1,189023.0,223115,0.35,-0.81,9.98,-0.03,-0.01,-0.0,30.33,3.0307,28.80634408770725,322.20191031856075,10.018932078819578,0.03162277660168379,1.8073571238085802,0.6496675100320105
4990188,2002,1,188973.0,223143,0.38,-0.79,9.94,-0.03,-0.01,-0.01,30.33,3.0707,36.10919292822582,354.36578798141693,9.978582063600017,0.033166247903554,2.2638896030228373,0.7141625284850402
5030874,2006,1,189079.0,223493,0.38,-0.77,9.95,-0.03,-0.01,-0.01,30.31,3.111386,41.505428508611196,283.0076758838263,9.98698152596669,0.033166247903554,2.6012314899682316,0.5710752177836231
5069188,2009,1,189103.0,222495,0.36,-0.79,9.97,-0.03,-0.01,-0.0,30.31,3.1497,48.4325942560982,91.18458969968337,10.00772701466222,0.03162277660168379,3.034278403808469,0.1864314999818185
5109188,2009,1,188425.0,221003,0.33,-0.8,9.92,-0.03,-0.01,-0.0,30.31,3.1897,48.331849033959564,-173.28958760847888,9.957675431545256,0.03162277660168379,3.0279803868240895,-0.3438922105059265
5149188,2001,1,188161.0,220526,0.39,-0.79,9.96,-0.03,-0.01,-0.0,30.31,3.2297,45.64821018293638,-410.9712416943711,9.998889938388162,0.03162277660168379,2.860214584090274,-0.8204915442958002
5189188,2005,1,188146.0,220663,0.37,-0.78,9.95,-0.03,-0.01,-0.01,30.31,3.2697,49.533054446719916,-529.4409316448389,9.987382039353456,0.033166247903554,3.1030729016917706,-1.0580470069663928
5229188,1997,1,188196.0,220871,0.37,-0.77,9.96,-0.03,-0.01,-0.0,30.31,3.3097,46.697178350768226,-502.5390842625093,9.996569411553146,0.03162277660168379,2.925790094241885,-1.0041034134255054
5269188,1983,1,188276.0,221224,0.34,-0.8,9.95,-0.03,-0.01,-0.01,30.31,3.3497,33.93051543911559,-381.5591354582287,9.987897676688522,0.033166247903554,2.1276911060755612,-0.7615143788455935
5309188,1973,1,188417.0,221546,0.38,-0.81,9.99,-0.03,-0.01,-0.01,30.31,3.3897,27.864613580375597,-253.04405814758223,10.029985044854254,0.033166247903554,1.7484855008772078,-0.5038159020162716
5349189,1964,1,188399.0,221494,0.37,-0.81,9.92,-0.03,-0.01,-0.0,30.31,3.429701,21.961180265149597,-180.3442567284569,9.959889557620608,0.03162277660168379,1.3794365028584035,-0.358038235429981
5389188,1946,1,188303.0,221427,0.39,-0.78,9.94,-0.03,-0.01,-0.0,30.31,3.4697,6.605032817764111,-170.2344934416769,9.978181196991763,0.03162277660168379,0.41945770301831764,-0.33776613464128713
5429188,1935,1,188423.0,221701,0.36,-0.79,9.94,-0.03,-0.01,-0.01,30.31,3.5097,-0.11045311047134926,-178.45575743969204,9.977840447712119,0.033166247903554,-0.0003561952148665443,-0.35425141601243043
5469188,1931,1,188443.0,221848,0.37,-0.8,9.98,-0.03,-0.01,-0.0,30.31,3.5497,-1.6642453384146063,-141.10486264282943,10.018847239078955,0.03162277660168379,-0.09749042782708203,-0.27935538903422963
5509204,1920,1,188585.0,221996,0.37,-0.81,9.97,-0.03,-0.01,-0.0,30.31,3.589716,-8.846053460771415,-12.668738679785989,10.009690304899548,0.03162277660168379,-0.5464561313411946,-0.021815229484433478
5549188,1920,1,188634.0,222476,0.38,-0.78,9.96,-0.03,-0.01,-0.0,30.31,3.6297,-5.132074110408038,202.24827788232025,9.997719740020722,0.03162277660168379,-0.3142793141018078,0.4091364453831257
5589188,1919,1,188820.0,222908,0.37,-0.78,9.96,-0.03,-0.01,-0.0,30.31,3.6697,-3.9361672967225987,436.1145554214743,9.997344647455144,0.03162277660168379,-0.2395180374433323,0.8780851848209599
5629188,1901,1,189073.0,223352,0.34,-0.81,9.92,-0.03,-0.01,-0.0,30.31,3.7097,-16.946382977591572,580.292243982586,9.958820211249925,0.03162277660168379,-1.0528425563549886,1.1671903350685169
5669188,1892,1,189132.0,223395,0.37,-0.79,9.98,-0.03,-0.01,-0.01,30.31,3.7497,-24.56719128878242,543.2522642330608,10.018053703190056,0.033166247903554,-1.529252049130074,1.0929177550492164
5709209,1879,1,188829.0,221847,0.38,-0.78,9.95,-0.03,-0.01,-0.01,30.31,3.789721,-33.04449595111919,314.21943782785013,9.987757506067114,0.033166247903554,-2.059204811273836,0.6336610534727093
5749189,1873,1,188261.0,220698,0.37,-0.77,9.94,-0.03,-0.01,-0.01,30.31,3.829701,-36.82007657298995,-16.908915585858473,9.976642721877935,0.033166247903554,-2.2952325888463982,-0.030317633661808747
5789188,1883,1,188073.0,220521,0.37,-0.78,9.95,-0.03,-0.01,-0.01,30.31,3.8697,-24.226385820416773,-305.9543012159041,9.987382039353456,0.033166247903554,-1.5079468340283335,-0.609911539452006
5829189,1881,1,188037.0,220499,0.36,-0.8,9.93,-0.03,-0.01,-0.0,30.31,3.909701,-22.58611045257042,-436.97746667358956,9.968675940163768,0.03162277660168379,-1.4054061685113133,-0.8726392354886846
5869188,1873,1,188026.0,220540,0.39,-0.8,9.95,-0.03,-0.01,-0.01,30.31,3.9497,-30.050389001334167,-383.19640796765896,9.989724720932003,0.033166247903554,-1.8720303128460511,-0.7647974382395885
5909188,1877,1,188108.0,221014,0.38,-0.8,9.96,-0.03,-0.01,-0.01,30.31,3.9897,-21.438950640735598,-209.47276287391074,9.999299975498285,0.033166247903554,-1.33369227652355,-0.4164467258816702
5949188,1886,1,188408.0,221683,0.34,-0.8,9.96,-0.03,-0.01,-0.01,30.31,4.0297,-13.50031169703974,-22.860952817409533,9.997859770970987,0.033166247903554,-0.8374138244154047,-0.042252660747343226
5989188,1873,1,188506.0,221757,0.36,-0.8,9.97,-0.03,-0.01,-0.01,30.31,4.0697,-21.591816306288717,92.71032765431008,10.008521369313252,0.033166247903554,-1.3432485665147238,0.1894909102485033
6029187,1872,1,188393.0,221736,0.36,-0.81,9.97,-0.03,-0.01,-0.0,30.31,4.109699,-24.623082455171954,118.77838215574602,10.009325651611102,0.03162277660168379,-1.532746046242053,0.24176258202041365
6069874,1877,1,188409.0,221911,0.37,-0.8,9.97,-0.03,-0.01,-0.0,30.33,4.150386,-15.226007347908682,101.66551377151231,10.008886051904078,0.03162277660168379,-0.9452944790839347,0.20744785250320738
6110187,1882,1,188530.0,222269,0.38,-0.78,9.96,-0.03,-0.01,-0.0,30.33,4.190699,-12.420083268359226,115.49841979772933,9.997719740020722,0.03162277660168379,-0.7698841009563857,0.23518560038210132
6150188,1883,1,188619.0,222407,0.37,-0.79,9.94,-0.03,-0.01,-0.0,30.33,4.2307,-8.379766473758197,212.6481232060611,9.978206251626592,0.03162277660168379,-0.5173065270079664,0.4299902187712116
6190188,1904,1,188673.0,222643,0.36,-0.81,9.96,-0.03,-0.01,-0.01,30.33,4.2707,10.931914572110921,385.63639083800194,9.99936497983747,0.033166247903554,0.6899496846705921,0.7768663519920509
6230188,1910,1,188787.0,222981,0.39,-0.79,9.98,-0.03,-0.01,-0.01,30.33,4.3107,18.30965278647548,558.5484044493382,10.018812304859294,0.033166247903554,1.1511638206266699,1.1235895806247815
6270188,1904,1,188877.0,223480,0.37,-0.79,9.93,-0.03,-0.01,-0.01,30.33,4.3507,10.92473017061321,619.7306790696263,9.968244579663963,0.033166247903554,0.6895005568440344,1.2462722985481467
6310189,1906,1,189039.0,223478,0.35,-0.79,9.95,-0.03,-0.01,-0.0,30.33,4.390701,13.432007898416774,489.47021323869785,9.987447121261768,0.03162277660168379,0.8462412675105269,0.9850739680630174
6350188,1904,1,188649.0,221609,0.36,-0.79,9.96,-0.03,-0.01,-0.0,30.33,4.4307,9.33713026418909,183.80009512520533,9.997764750182913,0.03162277660168379,0.5902528608957422,0.37214414303025894
6390188,1886,1,187959.0,220214,0.36,-0.78,9.99,-0.03,-0.01,-0.0,30.33,4.4707,-8.074975247556981,-179.55888698014704,10.026868903102304,0.03162277660168379,-0.49825271702516066,-0.35646341174296664
6430188,1885,1,187753.0,220055,0.39,-0.79,9.95,-0.03,-0.01,-0.0,30.33,4.5107,-12.134807697518045,-450.35111793287297,9.988928871505692,0.03162277660168379,-0.7520502984966133,-0.8994560855523804
6470188,1897,1,187869.0,220450,0.38,-0.81,9.95,-0.03,-0.01,-0.01,30.33,4.5507,0.09737019876346345,-540.6151628051765,9.99014514409075,0.033166247903554,0.012635733370189996,-1.080453579097982
6510188,1907,1,187959.0,220789,0.38,-0.79,9.96,-0.03,-0.01,-0.0,30.33,4.5907,7.3779487016728265,-469.2377743456849,9.998504888232041,0.03162277660168379,0.46777599803041436,-0.9373276154291101
6550188,1904,1,188081.0,221248,0.36,-0.79,9.92,-0.03,-0.01,-0.01,30.33,4.6307,2.7091963744890495,-326.8425907581926,9.957916448735649,0.033166247903554,0.17591221701653956,-0.6517967447622446
6590188,1904,1,188195.0,221442,0.38,-0.79,9.98,-0.03,-0.01,-0.0,30.33,4.6707,1.9330795601859796,-201.93046009389744,10.018428020403201,0.03162277660168379,0.1273938180832691,-0.4013228977762968
6630188,1919,1,188137.0,221425,0.36,-0.8,9.93,-0.03,-0.01,-0.01,30.33,4.7107,12.510360619065379,-132.0227859584009,9.968675940163768,0.033166247903554,0.7886251335069249,-0.2611440057708711
6670188,1930,1,188196.0,221502,0.35,-0.79,9.94,-0.03,-0.01,-0.01,30.33,4.7507,24.759672813372838,-105.91496275209259,9.977484652957378,0.033166247903554,1.554382304011294,-0.20879258977839504
6710189,1934,1,188351.0,221811,0.37,-0.77,9.94,-0.03,-0.01,-0.0,30.33,4.790701,22.725511302994253,-93.1652448350448,9.976642721877935,0.03162277660168379,1.4272181222329665,-0.18322685106522582
6750188,1918,1,188418.0,222007,0.37,-0.79,9.97,-0.03,-0.01,-0.0,30.33,4.8307,8.153969599823016,-64.86224758230267,10.008091726198357,0.03162277660168379,0.5162884008325821,-0.12647367132658738
6790188,1924,1,188503.0,222144,0.36,-0.8,9.95,-0.03,-0.01,-0.01,30.33,4.8707,8.972419264747524,2.0418557950750853,9.988598500290218,0.033166247903554,0.5674532082659414,0.007682459570852895
6830188,1935,1,188510.0,222409,0.36,-0.8,9.94,-0.03,-0.01,-0.01,30.33,4.9107,19.382837987419737,117.40299645791433,9.978637181499284,0.033166247903554,1.2182532416379286,0.23900465815030367
6870188,1930,1,188555.0,222646,0.38,-0.81,9.95,-0.03,-0.01,-0.0,30.33,4.9507,11.837865491034412,257.3784869533841,9.99014514409075,0.03162277660168379,0.7465845716982149,0.5196835594042623
6910188,1923,1,188753.0,223147,0.36,-0.79,9.95,-0.03,-0.01,-0.01,30.33,4.9907,1.4492693583642517,353.1728075233656,9.987802561124242,0.033166247903554,0.09714876225227108,0.711770363663913
6950189,1927,1,188938.0,223445,0.37,-0.78,9.95,-0.03,-0.01,-0.0,30.33,5.030701,5.596301774711029,320.48236872106094,9.987382039353456,0.03162277660168379,0.35639758853391246,0.646219484634576
6990188,1935,1,188778.0,222081,0.37,-0.81,9.94,-0.03,-0.01,-0.0,30.33,5.0707,8.24313880695163,123.6530829753915,9.97980961742257,0.03162277660168379,0.5218627513482509,0.25153733376557114
7030188,1926,1,188224.0,220871,0.39,-0.8,9.92,-0.03,-0.01,-0.01,30.33,5.1107,0.8219717238347832,-178.45051646557485,9.95984437629424,0.033166247903554,0.05793369008645567,-0.35424090680934417
7070873,1924,1,187918.0,220559,0.39,-0.81,9.94,-0.03,-0.01,-0.01,30.37,5.151385,-6.75019789126966,-455.0657152809964,9.980571125942642,0.033166247903554,-0.4154351886768931,-0.9089097977618686
7109189,1919,1,187964.0,220581,0.35,-0.79,9.96,-0.03,-0.01,-0.01,30.37,5.189701,-10.523859014054143,-585.1483811366209,9.997409664508103,0.033166247903554,-0.6513429701087926,-1.1697516036759132
7149197,1920,1,188032.0,220874,0.37,-0.8,9.96,-0.03,-0.01,-0.01,30.37,5.229709,-13.50539430454826,-533.0602680309199,9.998924942212538,0.033166247903554,-0.8377315600631512,-1.0653045015214597
7189188,1918,1,188227.0,221471,0.36,-0.79,9.94,-0.03,-0.01,-0.0,30.37,5.2697,-16.042688551059246,-360.03052072974583,9.977840447712119,0.03162277660168379,-0.9963487323684015,-0.718345193253735
7229188,1919,1,188420.0,222011,0.36,-0.79,9.99,-0.03,-0.01,-0.0,30.37,5.3097,-16.44162413790956,-170.41885010221554,10.027651768983604,0.03162277660168379,-1.021287911103838,-0.3381358066798395
7269188,1923,1,188528.0,222129,0.39,-0.79,9.93,-0.03,-0.01,-0.0,30.37,5.3497,-15.047629994642739,-41.10161037131955,9.96900697160956,0.03162277660168379,-0.9341433438077462,-0.07882883349200585
7309188,1927,1,188527.0,222066,0.4,-0.81,9.98,-0.03,-0.01,-0.01,30.37,5.3897,-10.14405769662603,15.592213079128772,10.020803361008538,0.033166247903554,-0.6275999568216677,0.03485364061565056
7349200,1940,1,188548.0,222155,0.36,-0.79,9.95,-0.03,-0.01,-0.01,30.37,5.429712,-0.9276717722239924,40.589348727795496,9.987802561124242,0.033166247903554,-0.05144404734732268,0.08497790553895163
7389188,1940,1,188716.0,222660,0.31499999999999995,-0.7450000000000001,9.91,-0.03,-0.01,-0.01,30.37,5.4697,1.0186970638863735,89.88089096285722,9.94295479221343,0.033166247903554,0.07023183690276617,0.18381732283035224
7429188,1936,1,188897.0,222938,0.38,-0.79,9.95,-0.03,-0.01,-0.0,30.37,5.5097,-6.474172355453402,199.12740313577868,9.988543437358622,0.03162277660168379,-0.39817964567654096,0.4028784662775703
7469188,1938,1,188911.0,223029,0.43,-0.79,9.96,-0.03,-0.01,-0.01,30.37,5.5497,-2.886537399342605,364.1874074464836,10.000529985955746,0.033166247903554,-0.17390115973259665,0.733856843184217
7509189,1950,1,188976.0,223290,0.37,-0.77,9.94,-0.03,-0.01,-0.0,30.37,5.589701,6.995814183280239,536.7037208448792,9.976642721877935,0.03162277660168379,0.44388712631953203,1.0797866136150795
7549188,1946,1,189144.0,223759,0.34,-0.78,9.95,-0.03,-0.01,-0.0,30.37,5.6297,3.73913290983312,637.7361821472566,9.98631563691034,0.03162277660168379,0.24029797799589214,1.282376939456818
7589188,1949,1,189246.0,224021,0.38,-0.79,9.96,-0.03,-0.01,-0.0,30.37,5.6697,5.57061605132468,595.8086511843293,9.998504888232041,0.03162277660168379,0.35479186353068903,1.198303840078419
7629188,1953,1,189147.0,222673,0.36,-0.8,9.94,-0.03,-0.01,-0.01,30.37,5.7097,10.89309613279293,396.3994212295087,9.978637181499284,0.033166247903554,0.6875229771310982,0.7984483842018172
7669188,1950,1,188450.0,221250,0.37,-0.78,9.95,-0.03,-0.01,-0.0,30.37,5.7497,5.3776005707302055,104.61790294600618,9.987382039353456,0.03162277660168379,0.3427256359793778,0.21336798428226222
7709188,1951,1,188219.0,220881,0.37,-0.78,9.96,-0.03,-0.01,-0.01,30.37,5.7897,10.732552887147312,-167.31803652003725,9.997344647455144,0.033166247903554,0.6774867285990126,-0.3319180542279035
7749188,1965,1,188204.0,220974,0.37,-0.81,9.94,-0.03,-0.01,-0.0,30.37,5.8297,19.078046187324325,-328.14681179404056,9.97980961742257,0.03162277660168379,1.1991993957785292,-0.6544119692278874
7789188,1957,1,188162.0,221147,0.36,-0.79,9.94,-0.03,-0.01,-0.0,30.37,5.8697,18.610155305330732,-356.68763187766314,9.977840447712119,0.03162277660168379,1.1699495250742202,-0.7116420313880722
7829188,1959,1,188148.0,221307,0.38,-0.79,9.96,-0.03,-0.01,-0.0,30.37,5.9097,13.554260044843025,-296.82877879257967,9.998504888232041,0.03162277660168379,0.853883774799953,-0.5916130387782045
7869188,1938,1,188224.0,221490,0.36,-0.82,9.94,-0.03,-0.01,-0.0,30.37,5.9497,-0.1303865642938285,-213.03750140207245,9.980260517641812,0.03162277660168379,-0.0016023211160885599,-0.42359474079342696
7909188,1939,1,188157.0,221408,0.36,-0.79,9.95,-0.03,-0.01,-0.0,30.37,5.9897,-3.75733316394128,-147.75472022080785,9.987802561124242,0.03162277660168379,-0.2283383469157396,-0.29268968571628123
7949188,1937,1,188165.0,221525,0.37,-0.78,9.96,-0.03,-0.01,-0.01,30.37,6.0297,-1.747391007227861,-106.97741810879158,9.997344647455144,0.033166247903554,-0.10268822106478886,-0.2109230256217994
7989189,1939,1,188257.0,221687,0.38,-0.8,9.96,-0.03,-0.01,-0.0,30.37,6.069701,-0.8645062225831243,-70.05432329960175,9.999299975498285,0.03162277660168379,-0.047495297262495635,-0.13688482332470114
8029188,1941,1,188348.0,221809,0.38,-0.79,9.95,-0.03,-0.01,-0.01,30.37,6.1097,2.9343250661001434,-6.9131134808259365,9.988543437358622,0.033166247903554,0.1899859794574689,-0.010274047873600057
8069188,1933,1,188328.0,221993,0.37,-0.8,9.909999999999997,-0.03,-0.01,-0.0,30.37,6.1497,-5.5567047575524615,104.69037255112396,9.949120564150377,0.03162277660168379,-0.3408248015307154,0.2135133003591466
8109873,1927,1,188384.0,222202,0.35,-0.79,9.95,-0.03,-0.01,-0.0,30.39,6.190385,-8.764957908526467,260.0119507388213,9.987447121261768,0.03162277660168379,-0.541386499704535,0.524964181884471
8148188,1931,1,188465.0,222399,0.37,-0.79,9.95,-0.03,-0.01,-0.0,30.39,6.2287,-6.883838109900475,412.6395606068986,9.988168000189022,0.03162277660168379,-0.42378961332221127,0.8310131172170194
8188188,1926,1,188550.0,222603,0.37,-0.78,9.96,-0.03,-0.01,-0.0,30.39,6.2687,-7.9467422111791555,483.68717350652537,9.997344647455144,0.03162277660168379,-0.490236318590357,0.9734778148208418
8228188,1930,1,188596.0,222333,0.34,-0.79,9.96,-0.03,-0.01,-0.0,30.39,6.3087,-5.909260264560454,404.77251630951235,9.99706456916229,0.03162277660168379,-0.36286456206662826,0.8152381173103175
8268188,1916,1,188225.0,220812,0.38,-0.78,9.97,-0.03,-0.01,-0.01,30.39,6.3487,-17.690815076949534,171.493714437416,10.007682049305924,0.033166247903554,-1.0993802075303662,0.347467384280316
8308189,1920,1,187697.0,219912,0.37,-0.79,9.98,-0.03,-0.01,-0.01,30.39,6.388701,-13.339511072016617,-137.63811037641017,10.018053703190056,0.033166247903554,-0.8273614859918429,-0.2724038562079187
8348188,1931,1,187436.0,219643,0.36,-0.79,9.96,-0.03,-0.01,-0.0,30.39,6.4287,-1.9634581681724907,-400.3657490675737,9.997764750182913,0.03162277660168379,-0.11619550826420916,-0.7992254068655278
8388188,1920,1,187370.0,219614,0.34,-0.8,9.96,-0.03,-0.01,-0.0,30.39,6.4687,-12.865547929602227,-522.1356793411597,9.997859770970987,0.03162277660168379,-0.7977320121812832,-1.0433985125569663
8428188,1927,1,187360.0,219645,0.37,-0.8,9.94,-0.03,-0.01,-0.01,30.39,6.5087,-2.9961348659466744,-486.6094824147198,9.979002956207598,0.033166247903554,-0.18075256857824445,-0.9721613703705086
8468188,1936,1,187421.0,219981,0.35,-0.78,9.95,-0.03,-0.01,-0.01,30.39,6.5487,1.5207115429964737,-352.4806131441889,9.986661103692263,0.033166247903554,0.10161492037534062,-0.7032061159896934
8508188,1919,1,187497.0,220198,0.37,-0.8,9.92,-0.03,-0.01,-0.01,30.39,6.5887,-7.978002512453928,-207.0255816447959,9.959081282929667,0.033166247903554,-0.4921905344249741,-0.41153963724689596
8548187,1940,1,187544.0,220172,0.35,-0.78,9.93,-0.03,-0.01,-0.0,30.39,6.628699,5.235056568965129,-112.33348977062536,9.966734670893974,0.03162277660168379,0.3338145975690154,-0.22166302234379429
8588188,1933,1,187548.0,220313,0.37,-0.8,9.95,-0.03,-0.01,-0.01,30.39,6.6687,5.778055386812653,-75.31234031563893,9.988963910236135,0.033166247903554,0.36775978826595684,-0.1474282008375215
8628188,1931,1,187553.0,220425,0.38,-0.78,9.95,-0.03,-0.01,-0.0,30.39,6.7087,-0.9801136628349963,-52.49763832191466,9.987757506067114,0.03162277660168379,-0.054722415400415836,-0.10168015262302156
8668188,1931,1,187566.0,220632,0.34,-0.79,9.95,-0.03,-0.01,-0.0,30.39,6.7487,0.7084347388294366,17.146201154893124,9.98710168166921,0.03162277660168379,0.05083600500780325,0.03796969803487001
8708188,1925,1,187729.0,220923,0.36,-0.79,9.93,-0.03,-0.01,-0.0,30.39,6.7887,-3.473637850257481,168.34042312079757,9.96787841017335,0.03162277660168379,-0.21060333312510301,0.3411444034573929
8748188,1931,1,187813.0,221062,0.36,-0.78,9.92,-0.03,-0.01,-0.01,30.39,6.8287,-1.9208385182553867,376.0748169781598,9.95712810000956,0.033166247903554,-0.11353117070707062,0.7576934808291101
8788210,1929,1,187888.0,221397,0.38,-0.79,9.94,-0.03,-0.01,-0.01,30.39,6.868722,1.7999960890092566,553.8857806109432,9.978582063600017,0.033166247903554,0.11907419811501106,1.1142400857147168
8828188,1939,1,188029.0,221651,0.37,-0.81,9.96,-0.03,-0.01,-0.0,30.39,6.9087,5.6998515458940435,594.3117516776978,9.999729996354903,0.03162277660168379,0.3628709299370591,1.195302256677484
8868188,1936,1,188011.0,221044,0.35,-0.79,9.95,-0.03,-0.01,-0.0,30.39,6.9487,7.584359059978803,436.3605605757138,9.987447121261768,0.03162277660168379,0.4806795969780052,0.8785784744400951
8908188,1938,1,187463.0,219342,0.38,-0.8,9.96,-0.03,-0.01,-0.0,30.39,6.9887,5.618489453809228,116.59250518509971,9.999299975498285,0.03162277660168379,0.3577846357490362,0.23737946077378946
8948188,1939,1,186946.0,218540,0.35,-0.8,9.93,-0.03,-0.01,-0.0,30.39,7.0287,8.561598529596655,-239.93120449581573,9.968319818304387,0.03162277660168379,0.5417710378107014,-0.47752200340406487
8988212,1937,1,186818.0,218395,0.34,-0.8,9.96,-0.03,-0.01,-0.01,30.39,7.068724,5.23881270784716,-490.40701747364756,9.997859770970987,0.033166247903554,0.33404940995984184,-0.9797761889651091
9028188,1932,1,186760.0,218488,0.36,-0.8,9.94,-0.03,-0.01,-0.0,30.39,7.1087,-0.09743197368104022,-556.6561386468326,9.978637181499284,0.03162277660168379,0.00045781202955091503,-1.112618949323443
9068188,1934,1,186858.0,218771,0.36,-0.8,9.96,-0.03,-0.01,-0.01,30.39,7.1487,2.1406218831914976,-459.65777857367254,9.998559896305068,0.033166247903554,0.14036818101104773,-0.9181178046416065
9108188,1934,1,187019.0,219222,0.36,-0.79,9.95,-0.03,-0.01,-0.0,30.39,7.1887,0.5977573714484824,-288.58697063495634,9.987802561124242,0.03162277660168379,0.04391708692161892,-0.575086562251212
9148874,1927,1,187125.0,219388,0.38,-0.8,9.93,-0.03,-0.01,-0.0,30.57,7.229386,-5.378460379552145,-136.67931647490502,9.96941823779101,0.03162277660168379,-0.32968197911010105,-0.27048128234980334
9189213,1924,1,187134.0,219428,0.39,-0.81,9.97,-0.03,-0.01,-0.0,30.57,7.269725,-10.47069166656636,-51.31001101734054,10.010449540355319,0.03162277660168379,-0.6480192506272704,-0.09929872194707154
9229188,1925,1,187180.0,219578,0.36,-0.79,9.96,-0.03,-0.01,-0.01,30.57,7.3097,-8.333308836820501,-22.754952929567178,9.997764750182913,0.033166247903554,-0.5144022603809585,-0.04204010973611031
9269189,1936,1,187254.0,220069,0.39,-0.79,9.92,-0.03,-0.01,-0.01,30.57,7.349701,0.9588040229745652,-4.311235568610798,9.959046139063721,0.033166247903554,0.0664876654085624,-0.005056761397142778
9309188,1941,1,187375.0,220220,0.36,-0.77,9.96,-0.03,-0.01,-0.01,30.57,7.3897,6.123363377585412,56.27466757313389,9.996204279625342,0.033166247903554,0.38934647540171125,0.11643011223416642
9349189,1941,1,187445.0,220499,0.37,-0.79,9.96,-0.03,-0.01,-0.0,30.57,7.429701,5.889645451509582,186.34417223272447,9.998129825122296,0.03162277660168379,0.37473576298545425,0.3772455273134377
9389188,1941,1,187508.0,220729,0.39,-0.79,9.95,-0.03,-0.01,-0.0,30.57,7.4697,4.411032281165145,363.8503972824144,9.988928871505692,0.03162277660168379,0.2823012964919283,0.7331810702883512
9429188,1939,1,187656.0,221001,0.37,-0.78,9.93,-0.03,-0.01,-0.0,30.57,7.5097,3.646361953530436,510.77905596507554,9.967457047813149,0.03162277660168379,0.2344984666538315,1.0278024667613426
9469188,1938,1,187757.0,221309,0.37,-0.79,9.94,-0.03,-0.01,-0.0,30.57,7.5497,0.4261343066732809,522.5729616934323,9.978206251626592,0.03162277660168379,0.033188191258675406,1.0514516105479474
9509188,1936,1,187751.0,220689,0.35,-0.78,9.96,-0.03,-0.01,-0.01,30.57,7.5897,-0.5031426194491703,332.76522226471616,9.996624430276453,0.033166247903554,-0.024904904767828293,0.6708490667470818
9549188,1946,1,187234.0,219085,0.39,-0.78,9.97,-0.03,-0.01,-0.01,30.57,7.6297,8.563894038279715,-26.016213610209658,10.008066746380141,0.033166247903554,0.5419145399278916,-0.04857959076457718
9589189,1947,1,186721.0,218035,0.37,-0.78,9.95,-0.03,-0.01,-0.0,30.57,7.669701,8.658593861606214,-418.7972542811208,9.987382039353456,0.03162277660168379,0.5478346330406677,-0.8361842674023475
9629188,1936,1,186525.0,217646,0.36,-0.78,9.96,-0.03,-0.01,-0.0,30.57,7.7097,-0.9221607396966337,-679.5666289756806,9.996979543842231,0.03162277660168379,-0.051099529009658876,-1.3590791064264676
9669188,1939,1,186494.0,217922,0.38,-0.79,9.95,-0.03,-0.01,-0.01,30.57,7.7497,-0.757729345895067,-711.0864270481615,9.988543437358622,0.033166247903554,-0.040820215619467644,-1.422282616265334
9709188,1936,1,186788.0,218597,0.37,-0.79,9.99,-0.03,-0.01,-0.01,30.57,7.7897,-1.0968126437673718,-539.6826705870584,10.028015755871149,0.033166247903554,-0.062017770439292894,-1.0785837453843596
9749189,1934,1,187004.0,219229,0.36,-0.79,9.96,-0.03,-0.01,-0.01,30.57,7.829701,-6.043215072385392,-286.8686134266864,9.997764750182913,0.033166247903554,-0.3712386530350298,-0.571640911791465
9789187,1933,1,187181.0,219467,0.36,-0.79,9.96,-0.03,-0.01,-0.0,30.57,7.869699,-5.121715724135846,-83.87217682751438,9.997764750182913,0.03162277660168379,-0.31363176684062605,-0.1645923879288643
9829188,1936,1,187217.0,219558,0.37,-0.79,9.95,-0.03,-0.01,-0.0,30.57,7.9097,-3.5565742041168553,7.667996702102705,9.988168000189022,0.03162277660168379,-0.21578804118510475,0.018963999235367023
9869188,1936,1,187259.0,219665,0.4,-0.79,9.95,-0.03,-0.01,-0.0,30.57,7.9497,-3.284393332359403,19.418999392201727,9.989324301473047,0.03162277660168379,-0.19877284466498837,0.04252711383503368
9909188,1939,1,187300.0,219648,0.38,-0.79,9.98,-0.03,-0.01,-0.01,30.57,7.9897,-0.2038374700012845,38.974370911108984,10.018428020403201,0.033166247903554,-0.0061940530299558014,0.08173955147044591
9949187,1938,1,187423.0,219942,0.36,-0.81,9.96,-0.03,-0.01,-0.0,30.57,8.029699,-1.6945360890376238,142.7665755259028,9.99936497983747,0.03162277660168379,-0.09938403288192868,0.28986371554293566
9989188,1937,1,187565.0,220379,0.39,-0.81,9.96,-0.03,-0.01,-0.01,30.57,8.0697,-2.732018254500313,340.9191066697185,10.00048998799559,0.033166247903554,-0.16424150364201417,0.6871992385353486
10029188,1942,1,187763.0,220827,0.36,-0.79,9.96,-0.03,-0.01,-0.0,30.57,8.1097,2.994832279644211,563.776323883585,9.997764750182913,0.03162277660168379,0.19376854552351638,1.1340726064563365
10069188,1943,1,187877.0,221212,0.35,-0.78,9.95,-0.03,-0.01,-0.0,30.57,8.1497,2.023851185266642,697.7492003685925,9.986661103692263,0.03162277660168379,0.13306834263462752,1.4027150640504482
10109188,1941,1,187990.0,221207,0.36,-0.8,9.94,-0.03,-0.01,-0.01,30.57,8.1897,2.9815928116107333,652.6717918969306,9.978637181499284,0.033166247903554,0.19294088945438537,1.3123258292178586
10149874,1947,1,187691.0,219945,0.37,-0.82,9.94,-0.03,-0.01,-0.0,30.45,8.230386,5.247142934704412,421.46543673933377,9.980626232857334,0.03162277660168379,0.33457016825603686,0.8487107670461916
10188188,1932,1,187163.0,218952,0.38,-0.77,9.96,-0.03,-0.01,-0.0,30.45,8.2687,-5.98867561017524,91.52538924593976,9.996944533206134,0.03162277660168379,-0.3678291567628812,0.1871148713481377
10228189,1936,1,186923.0,218667,0.39,-0.8,9.97,-0.03,-0.01,-0.01,30.45,8.308701,-5.28194043468024,-203.06492270055224,10.00964534836275,0.033166247903554,-0.3236481023740101,-0.40359772258185717
10268188,1945,1,186874.0,218556,0.37,-0.82,9.93,-0.03,-0.01,-0.01,30.45,8.3487,5.976288307450563,-356.4015021961392,9.97066697869305,0.033166247903554,0.38015218042647725,-0.7110682840531494
10308189,1942,1,186844.0,218530,0.38,-0.78,9.94,-0.03,-0.01,-0.0,30.45,8.388701,1.8215732062497931,-342.4665246532938,9.977795347670746,0.03162277660168379,0.12042307648333551,-0.6831258623343198
10348187,1937,1,186874.0,218839,0.35,-0.81,9.95,-0.03,-0.01,-0.01,30.45,8.428699,-3.20497800032545,-215.49457995346677,9.989049003784093,0.033166247903554,-0.19380825081773173,-0.4285216755422096
10388189,1939,1,187052.0,219207,0.38,-0.81,9.94,-0.03,-0.01,-0.0,30.45,8.468701,-0.3303031281591438,-68.05367024436832,9.980185369019956,0.03162277660168379,-0.014099965053484754,-0.13287311313639882
10428187,1943,1,187134.0,219301,0.35,-0.79,9.98,-0.03,-0.01,-0.01,30.45,8.508699,1.9680065025994884,23.204996743685584,10.017334974932206,0.033166247903554,0.1295772514199888,0.0501187970147349
10468189,1939,1,187072.0,219330,0.36,-0.77,9.97,-0.03,-0.01,-0.01,30.45,8.548701,0.10189460628616578,35.548450913608356,10.006168097728521,0.033166247903554,0.012918573536873257,0.07486989552368885
10508187,1939,1,187093.0,219400,0.37,-0.8,9.94,-0.03,-0.01,-0.01,30.45,8.588699,-2.5754095301088795,5.83542171955798,9.979002956207598,0.033166247903554,-0.15445121894978353,0.015289319255711633
10548189,1942,1,187059.0,219394,0.36,-0.78,9.95,-0.03,-0.01,-0.01,30.45,8.628701,3.13162832995568,2.8725752498683477,9.987016571529256,0.033166247903554,0.20232025477551543,0.009348218504765733
10588188,1951,1,187098.0,219542,0.37,-0.81,9.95,-0.03,-0.01,-0.01,30.45,8.6687,9.314165422363667,79.92227984906607,9.989769767116757,0.033166247903554,0.5888172298971717,0.1638483124304578
10628194,1950,1,187214.0,219890,0.34,-0.77,9.97,-0.03,-0.01,-0.01,30.45,8.708706,10.428100337314978,231.91644422076627,10.005468504772779,0.033166247903554,0.6584540907321459,0.46862706263775294
10668187,1951,1,187274.0,220068,0.37,-0.8,9.94,-0.03,-0.01,-0.0,30.45,8.748699,9.96290058599479,384.77994564204187,9.979002956207598,0.03162277660168379,0.6293724541765986,0.7751490077931814
10708188,1943,1,187414.0,220304,0.38,-0.79,9.93,-0.03,-0.01,-0.01,30.45,8.7887,1.9097306642459142,431.76174768094563,9.968620767187405,0.033166247903554,0.1259341782107729,0.8693569332559414
10748188,1936,1,187421.0,219907,0.37,-0.8,9.98,-0.03,-0.01,-0.0,30.45,8.8287,-3.9515876166372252,302.0689899729347,10.018847239078955,0.03162277660168379,-0.2404820279400056,0.6092969712923967
10788188,1941,1,186956.0,218301,0.37,-0.79,9.97,-0.03,-0.01,-0.0,30.45,8.8687,-1.6516160126752077,16.791926194578608,10.008091726198357,0.03162277660168379,-0.09670091437602686,0.03725930576368818
10828187,1934,1,186470.0,217541,0.38,-0.79,9.92,-0.03,-0.01,-0.0,30.45,8.908699,-5.412276297824521,-313.28933277425637,9.95865954835288,0.03162277660168379,-0.33179595755097185,-0.6246197472330537
10868189,1931,1,186320.0,217464,0.37,-0.79,9.95,-0.03,-0.01,-0.0,30.45,8.948701,-12.267766305413028,-551.8945968681684,9.988168000189022,0.03162277660168379,-0.760362112724287,-1.103071104125833
10908187,1930,1,186363.0,217548,0.36,-0.8,9.96,-0.03,-0.01,-0.01,30.45,8.988699,-10.040400326567543,-616.8372528300724,9.998559896305068,0.033166247903554,-0.6211198889501999,-1.233294139997181
10948189,1939,1,186433.0,217698,0.38,-0.77,9.94,-0.03,-0.01,-0.01,30.45,9.028701,-3.719507750919252,-518.2752929376082,9.977018592746031,0.033166247903554,-0.22597371771946778,-1.0356576644247026
10988187,1941,1,186518.0,218136,0.36,-0.78,9.95,-0.03,-0.01,-0.0,30.45,9.068699,-0.4675100692104751,-336.5765649479227,9.987016571529256,0.03162277660168379,-0.022677360852234534,-0.6713153131254413
11028188,1947,1,186746.0,218519,0.37,-0.78,9.96,-0.03,-0.01,-0.0,30.45,9.1087,5.28684638404676,-165.4216374460529,9.997344647455144,0.03162277660168379,0.33705220157720484,-0.3281153941583381
11068188,1950,1,186816.0,218774,0.36,-0.78,9.95,-0.03,-0.01,-0.0,30.45,9.1487,7.386264635657547,-60.21547958313545,9.987016571529256,0.03162277660168379,0.46829586281769603,-0.11715597055074675
11108189,1939,1,186891.0,218903,0.37,-0.78,9.96,-0.03,-0.01,-0.0,30.45,9.188701,-2.2399843079518007,-17.338693678491115,9.997344647455144,0.03162277660168379,-0.13348234617061064,-0.0311794248396511
11148188,1934,1,186916.0,219102,0.37,-0.79,9.94,-0.03,-0.01,-0.01,30.45,9.2287,-8.598091325750874,12.021503220370843,9.978206251626592,0.033166247903554,-0.5309549521816175,0.02769365198974687
11188875,1936,1,187042.0,219511,0.37,-0.79,9.94,-0.03,-0.01,-0.0,30.29,9.269387,-5.587133803136639,84.89220321264152,9.978206251626592,0.03162277660168379,-0.34272705199817566,0.17381400445316147
11229188,1939,1,187157.0,219946,0.36,-0.79,9.94,-0.03,-0.01,-0.01,30.29,9.3097,-2.5197527614297104,225.0665177501568,9.977840447712119,0.033166247903554,-0.15097187504645945,0.4548915877440015
11269189,1939,1,187302.0,220344,0.35,-0.81,9.99,-0.03,-0.01,-0.0,30.29,9.349701,-3.045648064185423,397.7690855131969,10.028893258979277,0.03162277660168379,-0.18384785147939756,0.8011948354903365
11309187,1936,1,187429.0,220693,0.35,-0.77,9.96,-0.03,-0.01,-0.01,30.29,9.389699,-4.170620830747746,517.3209314891212,9.995849138517448,0.033166247903554,-0.2541747358752067,1.040920237792041
11349189,1935,1,187513.0,220801,0.35,-0.81,9.96,-0.03,-0.01,-0.0,30.29,9.429701,-6.663195644318777,491.21821859514034,9.999009950990148,0.03162277660168379,-0.40999630415865934,0.988579068999586
11389188,1927,1,187402.0,219991,0.37,-0.82,9.96,-0.03,-0.01,-0.01,30.29,9.4697,-12.088406762539533,280.4767075799899,10.00054498514956,0.033166247903554,-0.7491495765528607,0.5660001192780573
11429189,1929,1,186932.0,218741,0.36,-0.79,9.98,-0.03,-0.01,-0.01,30.29,9.509701,-11.124488006062695,-63.168783143259525,10.017689354337158,0.033166247903554,-0.6888908707702766,-0.12307793585617897
11469188,1933,1,186547.0,218201,0.37,-0.77,9.97,-0.03,-0.01,-0.0,30.29,9.5497,-4.986825753558887,-414.9579172790879,10.006532866083038,0.03162277660168379,-0.30519921482791523,-0.8284856275371839
11509188,1934,1,186483.0,217869,0.35,-0.82,9.93,-0.03,-0.01,-0.0,30.29,9.5897,-3.869545653370847,-643.7102278351485,9.96994483435089,0.03162277660168379,-0.23535323208135478,-1.287179838637358
11549188,1930,1,186430.0,217808,0.38,-0.79,9.94,-0.03,-0.01,-0.01,30.29,9.6297,-6.149802134145673,-683.3982263678337,9.978582063600017,0.033166247903554,-0.37790186853082375,-1.366762226823262
11589189,1929,1,186544.0,218270,0.39,-0.79,9.95,-0.03,-0.01,-0.01,30.29,9.669701,-6.325693735177691,-561.7783971975091,9.988928871505692,0.033166247903554,-0.3888976087475157,-1.1228901039152472
11629187,1931,1,186851.0,219022,0.36,-0.76,9.97,-0.03,-0.01,-0.01,30.29,9.709699,-2.3323662862280288,-370.1626377172507,10.005403540087727,0.033166247903554,-0.13925754082384806,-0.7386621176907419
11669189,1937,1,187051.0,219321,0.36,-0.79,9.93,-0.03,-0.01,-0.01,30.29,9.749701,4.805388429844935,-198.8737630663385,9.96787841017335,0.033166247903554,0.3069541948582851,-0.39519360785472124
11709188,1943,1,187159.0,219590,0.37,-0.81,9.92,-0.03,-0.01,-0.01,30.29,9.7897,12.919633753482618,-83.75889067872754,9.959889557620608,0.033166247903554,0.8142105567864821,-0.1643652265047019
11749189,1937,1,187254.0,219756,0.41,-0.79,9.95,-0.03,-0.01,-0.0,30.29,9.829701,9.348379432371177,1.5666432711879228,9.989729726073673,0.03162277660168379,0.590956094763979,0.006729563255972068
11789187,1924,1,187361.0,220175,0.38,-0.79,9.96,-0.03,-0.01,-0.01,30.29,9.869699,-3.0440876932095335,107.56645767551647,9.998504888232041,0.033166247903554,-0.18375030598096626,0.219280427230929
11829189,1921,1,187611.0,220946,0.37,-0.78,9.96,-0.03,-0.01,-0.01,30.29,9.909701,-0.4029954398117761,257.69419018459143,9.997344647455144,0.033166247903554,-0.018644273991451913,0.5203166076310908
11869188,1933,1,187895.0,221527,0.35,-0.83,9.96,-0.03,-0.01,-0.01,30.29,9.9497,9.137456569862682,423.26517307322473,10.000649978876375,0.033166247903554,0.5777703997774273,0.852319598956373
11909189,1927,1,187934.0,221453,0.38,-0.79,9.99,-0.03,-0.01,-0.01,30.29,9.989701,12.552220746974621,539.1580489091781,10.028389701243166,0.033166247903554,0.7912419900778292,1.084708033086201
11949188,1936,1,187900.0,221326,0.4,-0.79,9.96,-0.03,-0.01,-0.0,30.29,10.0297,16.827750234750727,544.8359719882274,9.999284974436923,0.03162277660168379,1.0585237207605478,1.0960934063797034
11989188,1930,1,187958.0,221587,0.4,-0.78,9.96,-0.03,-0.01,-0.01,30.29,10.0697,21.82789897105737,422.6552493123589,9.998499887483122,0.033166247903554,1.3711045161291686,0.8510965796231844
12029188,1933,1,187827.0,220538,0.36,-0.81,9.94,-0.03,-0.01,-0.01,30.29,10.1097,20.835878188002333,212.09851438579912,9.979443872280658,0.033166247903554,1.309089031842077,0.42888814297748107
12069189,1918,1,187435.0,219797,0.38,-0.78,9.94,-0.03,-0.01,-0.0,30.29,10.149701,15.304318748015124,-7.779082465233374,9.977795347670746,0.03162277660168379,0.9632874686155452,-0.012010489176310493
12109187,1925,1,187370.0,219965,0.39,-0.8,9.98,-0.03,-0.01,-0.01,30.29,10.189699,21.26174555238364,-159.3775475569797,10.01960578066822,0.033166247903554,1.3357118317826593,-0.31599578305256293
12149189,1920,1,187421.0,220185,0.37,-0.81,9.97,-0.03,-0.01,-0.0,30.29,10.229701,23.348520527049782,-206.79538298419703,10.009690304899548,0.03162277660168379,1.466165107422273,-0.41107804281419696
12189873,1907,1,187513.0,220319,0.38,-0.78,9.93,-0.03,-0.01,-0.0,30.33,10.270385,11.3807822120312,-168.7486375498548,9.96783326505816,0.03162277660168379,0.7180103307235242,-0.3347866959005324
12228189,1905,1,187546.0,220507,0.35,-0.83,9.96,-0.03,-0.01,-0.0,30.33,10.308701,16.015317628282283,-97.34385416174074,10.000649978876375,0.03162277660168379,1.007735065521286,-0.19160579991144913
12268224,1905,1,187646.0,220595,0.36,-0.8,9.97,-0.03,-0.01,-0.0,30.33,10.348736,16.778806673785944,-41.088382038452075,10.008521369313252,0.03162277660168379,1.0554640483345141,-0.07880230803443093
12308188,1874,1,187635.0,220648,0.38,-0.77,9.93,-0.03,-0.01,-0.01,30.33,10.3887,-6.525460614247835,-17.595816882211167,9.967055733766117,0.033166247903554,-0.4013858952448042,-0.031695008375394296
12348187,1856,1,187731.0,220885,0.37,-0.79,9.97,-0.03,-0.01,-0.01,30.33,10.428699,-24.397623307610903,-8.627464175713325,10.008091726198357,0.033166247903554,-1.5186516255789149,-0.013711664471346686
12388189,1840,1,187808.0,221204,0.35,-0.79,9.95,-0.03,-0.01,-0.0,30.33,10.468701,-32.72578520840078,25.279926242048386,9.987447121261768,0.03162277660168379,-2.0392808324673513,0.05427944635211834
12428188,1838,1,187931.0,221502,0.38,-0.81,9.93,-0.03,-0.01,-0.01,30.33,10.5087,-33.57243592662798,119.16352640526026,9.970225674476982,0.033166247903554,-2.092208608991526,0.24253487340082097
12468233,1838,1,188045.0,221850,0.39,-0.77,9.94,-0.03,-0.01,-0.01,30.33,10.548745,-27.711714659554477,275.8423334197652,9.97740447210596,0.033166247903554,-1.7258297247408156,0.5567072706322889
12508188,1838,1,188215.0,222150,0.36,-0.79,9.96,-0.03,-0.01,-0.0,30.33,10.5887,-24.6032179438223,448.4576267429795,9.997764750182913,0.03162277660168379,-1.5315042302312216,0.9028355156421365
12548188,1838,1,188321.0,222525,0.38,-0.8,9.95,-0.03,-0.01,-0.01,30.33,10.6287,-20.69996835847208,549.757739223387,9.989339317492423,0.033166247903554,-1.2874953168459322,1.105962535717293
12588188,1838,1,188425.0,222729,0.35,-0.82,9.95,-0.03,-0.01,-0.01,30.33,10.6687,-16.49545809694562,495.1631529688008,9.989864863950862,0.033166247903554,-1.0246533033393024,0.9964894527503314
12628189,1838,1,188305.0,221514,0.36,-0.8,9.98,-0.03,-0.01,-0.01,30.33,10.708701,-13.411623264052391,260.1792825987341,10.018482919085105,0.033166247903554,-0.8318695291583681,0.5252997157870053
12668188,1838,1,187676.0,220155,0.39,-0.78,9.94,-0.03,-0.01,-0.0,30.33,10.7487,-9.435163184809877,-89.31156580498062,9.978181196991763,0.03162277660168379,-0.5832839130354146,-0.17549945256056515
12708189,1838,1,187380.0,219804,0.38,-0.77,9.99,-0.03,-0.01,-0.01,30.33,10.788701,-6.328112407363488,-423.5058115032898,10.026833996830705,0.033166247903554,-0.38904881034479677,-0.845625867949213
12748188,1838,1,187407.0,219985,0.36,-0.8,9.96,-0.03,-0.01,-0.01,30.33,10.8287,-3.1300337299962537,-618.0301495741612,9.998559896305068,0.033166247903554,-0.18912316226072115,-1.235686136955042
12788189,1838,1,187410.0,219972,0.35,-0.8,9.96,-0.03,-0.01,-0.01,30.33,10.868701,-0.033541669138686295,-618.532231612104,9.998204838869826,0.033166247903554,0.004451869659313322,-1.236692912028666
12828187,1838,1,187479.0,220239,0.37,-0.8,9.94,-0.03,-0.01,-0.0,30.33,10.908699,2.544258664155044,-460.96823786820414,9.979002956207598,0.03162277660168379,0.16560125160302575,-0.9207455380656882
12868188,1838,1,187714.0,220945,0.37,-0.78,9.96,-0.03,-0.01,-0.0,30.33,10.9487,5.217566121023018,-242.62966353685036,9.997344647455144,0.03162277660168379,0.3327211944689434,-0.4829329543929519
12907188,1838,1,187994.0,221473,0.38,-0.78,9.96,-0.03,-0.01,-0.01,30.33,10.9877,7.402015443903886,-65.26786636559414,9.997719740020722,0.033166247903554,0.4692805135609009,-0.12728701824910382
12947188,1838,1,188114.0,221631,0.35,-0.79,9.96,-0.03,-0.01,-0.01,30.33,11.0277,9.408110256345543,20.0690026101489,9.997409664508103,0.033166247903554,0.5946901253799806,0.04383050050922329
12987187,1838,1,188146.0,221772,0.38,-0.8,9.94,-0.03,-0.01,-0.01,30.33,11.067699,11.170237992514014,38.05633670746048,9.979378738178044,0.033166247903554,0.7048483063383137,0.07989870897236619
13027196,1838,1,188165.0,221954,0.39,-0.8,9.94,-0.03,-0.01,-0.0,30.33,11.107708,12.519724204406305,66.61534522889652,9.979764526280166,0.03162277660168379,0.7892104914848018,0.13716524259425433
13067187,1838,1,188303.0,222557,0.39,-0.79,9.97,-0.03,-0.01,-0.01,30.33,11.147699,13.671591706722177,175.35009018233126,10.00885108291656,0.033166247903554,0.8612186814449897,0.35520019023851523
13107188,1838,1,188526.0,223089,0.37,-0.79,9.92,-0.03,-0.01,-0.01,30.33,11.1877,14.438693663133328,362.547051744272,9.958282984531017,0.033166247903554,0.9091735228525549,0.730567601371006
13147187,1838,1,188666.0,223398,0.35,-0.82,9.96,-0.03,-0.01,-0.01,30.33,11.227699,14.841202663714391,537.3481103406249,9.999824998468723,0.033166247903554,0.9343360910439947,1.0810787436515972
13187189,1838,1,188805.0,223816,0.39,-0.79,9.94,-0.03,-0.01,-0.0,30.33,11.267701,14.99601705196598,568.9297074380996,9.978967882501676,0.03162277660168379,0.944014204069475,1.1444061729164463
13227873,1838,1,188886.0,223158,0.36,-0.79,9.99,-0.03,-0.01,-0.01,30.53,11.308385,14.661877144016282,377.09410808662784,10.027651768983604,0.033166247903554,0.9231256818075426,0.7597373637072488
13268189,1838,1,188210.0,221412,0.39,-0.79,9.96,-0.03,-0.01,-0.0,30.53,11.348701,14.048104620913229,1.1900655678504464,9.998889938388162,0.03162277660168379,0.8847561225074587,0.0059744495168784165
13308187,1838,1,187798.0,220876,0.36,-0.8,9.95,-0.03,-0.01,-0.0,30.53,11.388699,13.084726486393443,-408.348566839755,9.988598500290218,0.03162277660168379,0.8245312133277839,-0.8152325557833516
13348188,1838,1,187725.0,220850,0.38,-0.79,9.97,-0.03,-0.01,-0.0,30.53,11.4287,11.559850030076772,-675.9337414749587,10.008466415990014,0.03162277660168379,0.7292046299217023,-1.3517944391717036
13388187,1838,1,187741.0,221090,0.38,-0.79,9.94,-0.03,-0.01,-0.0,30.53,11.468699,9.969829787837085,-704.8508253531511,9.978582063600017,0.03162277660168379,0.6298056283754794,-1.4097789856210143
13428189,1838,1,187887.0,221574,0.36,-0.79,9.99,-0.03,-0.01,-0.0,30.53,11.508701,7.62967221380071,-528.9015418604848,10.027651768983604,0.03162277660168379,0.4835123170448036,-1.056965422386948
13468188,1838,1,188140.0,222475,0.39,-0.8,9.94,-0.03,-0.01,-0.01,30.53,11.5487,5.144038513079785,-282.28839915602913,9.979764526280166,0.033166247903554,0.32812466756854075,-0.5624566645747182
13508189,1838,1,188428.0,222893,0.36,-0.81,9.95,-0.03,-0.01,-0.0,30.53,11.588701,2.345326965764029,-111.88065157920416,9.989404386648886,0.03162277660168379,0.15316517584080255,-0.22075499104800078
13548188,1838,1,188449.0,222750,0.37,-0.8,9.94,-0.03,-0.01,-0.0,30.53,11.6287,-1.3581710226098358,-87.10612982363371,9.979002956207598,0.03162277660168379,-0.07835640639658548,-0.17107711157901717
13588188,1838,1,188378.0,222579,0.35,-0.79,9.97,-0.03,-0.01,-0.0,30.53,11.6687,-4.477062536625581,-161.5804244871914,10.007372282472558,0.03162277660168379,-0.2733317244387438,-0.3204129926239023
13628187,1838,1,188346.0,222709,0.37,-0.79,9.95,-0.03,-0.01,-0.0,30.53,11.708699,-9.097866720314,-210.65183627898074,9.988168000189022,0.03162277660168379,-0.5621980608523408,-0.41881100427541884
13668189,1838,1,188463.0,223155,0.36,-0.79,9.99,-0.03,-0.01,-0.0,30.53,11.748701,-13.279380982278006,-123.39526435058397,10.027651768983604,0.03162277660168379,-0.8236024955562974,-0.24384409650207514
13708187,1838,1,188679.0,223715,0.39,-0.77,9.95,-0.03,-0.01,-0.0,30.53,11.788699,-17.534623226851984,108.91640559050835,9.987367020391309,0.03162277660168379,-1.0896159834425743,0.22198734325021777
13748189,1838,1,188912.0,224201,0.39,-0.81,9.93,-0.03,-0.01,-0.01,30.53,11.828701,-24.149199340733052,369.0529971130009,9.970611816734216,0.033166247903554,-1.5031215753243168,0.7436133252420162
13788188,1838,1,189043.0,224796,0.36,-0.78,9.92,-0.03,-0.01,-0.01,30.53,11.8687,-26.793988774953277,479.50785302038815,9.95712810000956,0.033166247903554,-1.6684587339828674,0.9650974399574644
13828189,1846,1,189258.0,224421,0.35,-0.77,9.95,-0.03,-0.01,-0.0,30.53,11.908701,-28.165195174249725,322.7753972133982,9.98588503839294,0.03162277660168379,-1.7541787414287302,0.6508174661490189
13868188,1851,1,188478.0,222249,0.36,-0.79,9.97,-0.03,-0.01,-0.01,30.53,11.9487,-24.864271484863693,-65.15032700041904,10.00772701466222,0.033166247903554,-1.547823809466936,-0.12705132827398988
13907224,1871,1,187968.0,221317,0.39,-0.79,9.95,-0.03,-0.01,-0.0,30.53,11.987736,-14.900940565403378,-501.87389068314314,9.988928871505692,0.03162277660168379,-0.9249731569029309,-1.0027695670334207
13947187,1882,1,187799.0,221415,0.39,-0.79,9.96,-0.03,-0.01,-0.01,30.53,12.027699,-7.39488832543441,-770.1079546556772,9.998889938388162,0.033166247903554,-0.45573755952728706,-1.5406326035421698
13987189,1897,1,187922.0,221874,0.38,-0.78,9.909999999999997,-0.03,-0.01,-0.01,30.53,12.067701,-0.0020519516986333996,-756.6112751048089,9.94790932809502,0.033166247903554,0.00642042728478417,-1.5135690571062521
14027194,1902,1,188052.0,222284,0.35,-0.8,9.95,-0.03,-0.01,-0.0,30.53,12.107706,-2.3429208232956777,-520.7162092219671,9.988243088751895,0.03162277660168379,-0.13991735031459338,-1.0405521905901167
14067188,1901,1,188268.0,222580,0.36,-0.81,9.96,-0.03,-0.01,-0.0,30.53,12.1477,-7.703347257887958,-247.75576851724304,9.99936497983747,0.03162277660168379,-0.47502065359702567,-0.49321182184693396
14107197,1917,1,188322.0,222409,0.36,-0.83,9.95,-0.03,-0.01,-0.0,30.53,12.187709,-1.6892748086323952,-119.1252759015316,9.991045991286397,0.03162277660168379,-0.09905512762321463,-0.23528191420855493
14147189,1923,1,188294.0,222504,0.4,-0.79,9.93,-0.03,-0.01,-0.0,30.53,12.227701,0.9707219538141295,-178.29099798521685,9.969403191766295,0.03162277660168379,0.06723270650582602,-0.3539210402981564
14187187,1937,1,188347.0,222261,0.34,-0.79,9.98,-0.03,-0.01,-0.0,30.53,12.267699,5.314010177543475,-276.4951363500659,10.016990566033293,0.03162277660168379,0.3387503270979076,-0.5508400120214928
14227189,1936,1,188291.0,222280,0.36,-0.79,9.96,-0.03,-0.01,-0.0,30.53,12.307701,-0.12222803679553441,-147.5732466944367,9.997764750182913,0.03162277660168379,-0.001092296485033838,-0.29232579493934424
14267874,1927,1,188592.0,223782,0.41,-0.8,9.92,-0.03,-0.01,-0.01,30.43,12.348386,-17.150376226452924,408.6090503149086,9.96064756930994,0.033166247903554,-1.065595051398968,0.8229311366056699
14308193,1940,1,189433.0,226394,0.39,-0.81,9.97,-0.03,-0.01,-0.01,30.43,12.388705,-9.583179762895677,1338.8572077652464,10.010449540355319,0.033166247903554,-0.5925370657206237,2.6882650590121124
14348167,1946,1,190407.0,229158,0.38,-0.8,9.92,-0.03,-0.01,-0.01,30.43,12.428679,-10.195589203990602,2289.0100472782897,9.95945781656813,0.033166247903554,-0.6308214129038842,4.593511856675458
14388173,1937,1,191023.0,230586,0.32,-0.79,9.96,-0.03,-0.01,-0.01,30.43,12.468685,-25.444760560000685,2771.619882132124,9.996404353566337,0.033166247903554,-1.5841126773343235,5.5612412620281235
14428167,1956,1,191202.0,229091,0.36,-0.79,9.99,-0.03,-0.01,-0.01,30.43,12.508679,-10.796810041548758,2466.8394260359755,10.027651768983604,0.033166247903554,-0.6684063123752809,4.950095387575796
14468188,1973,1,189267.0,222761,0.37,-0.8,9.96,-0.03,-0.01,-0.0,30.43,12.5487,-1.8205600031466982,1446.5562979559782,9.998924942212538,0.03162277660168379,-0.10726232958571406,2.904223311373185
14508188,1975,1,187663.0,220034,0.39,-0.81,9.94,-0.03,-0.01,-0.0,30.43,12.5887,-1.0851669586518335,145.174157633295,9.980571125942642,0.03162277660168379,-0.061289748592743526,0.2946914000053338
14548188,2008,1,186972.0,218580,0.39,-0.78,9.91,-0.03,-0.01,-0.0,30.43,12.6287,22.70871727870231,-906.8618934077689,9.948296336559341,0.03162277660168379,1.4261682555695012,-1.8148516481421992
14588187,2019,1,186689.0,217943,0.38,-0.81,9.95,-0.03,-0.01,-0.0,30.43,12.668699,33.8205698253258,-1386.0836046419533,9.99014514409075,0.03162277660168379,2.1208179330524946,-2.7757871868578574
14628189,2022,1,186553.0,217741,0.4,-0.8,9.93,-0.03,-0.01,-0.0,30.43,12.708701,29.177699961060743,-1307.6905328526643,9.970200599787349,0.03162277660168379,1.8305721760758824,-2.61859337258469
14668187,2022,1,186726.0,218453,0.4,-0.78,9.94,-0.03,-0.01,-0.0,30.43,12.748699,28.194343713102683,-934.7449877501341,9.978577052866806,0.03162277660168379,1.7690983491303909,-1.8707628384218207
14708188,2022,1,187105.0,219224,0.38,-0.79,9.94,-0.03,-0.01,-0.0,30.43,12.7887,23.817993348299485,-572.0863756058648,9.978582063600017,0.03162277660168379,1.4955138719509413,-1.143559665733289
14748187,2022,1,187240.0,218902,0.36,-0.79,9.97,-0.03,-0.01,-0.01,30.43,12.828699,21.40974661448443,-393.46342698212175,10.00772701466222,0.033166247903554,1.3449640144969353,-0.7853848682670345
14788189,2022,1,187109.0,218533,0.38,-0.79,9.94,-0.03,-0.01,-0.0,30.43,12.868701,19.6468201813747,-388.40799236976574,9.978582063600017,0.03162277660168379,1.234755903558851,-0.7752477090591284
14828187,2022,1,187057.0,218467,0.4,-0.8,9.95,-0.03,-0.01,-0.0,30.43,12.908699,17.0633750168972,-425.77904148623315,9.990120119397963,0.03162277660168379,1.0732536389482026,-0.8501841494858706
14868188,2022,1,187169.0,218616,0.4,-0.79,9.94,-0.03,-0.01,-0.01,30.43,12.9487,16.65271788516725,-369.9792831921193,9.979363707170913,0.033166247903554,1.0475816960462079,-0.7382944551344497
14908187,2022,1,187310.0,219048,0.39,-0.78,9.95,-0.03,-0.01,-0.01,30.43,12.988699,14.862025120796043,-174.15779730883972,9.98814297054262,0.033166247903554,0.9356377923611677,-0.3456331448930305
14948189,2022,1,187464.0,219249,0.37,-0.81,9.97,-0.03,-0.01,-0.0,30.43,13.028701,15.042384930050492,95.75999858266213,10.009690304899548,0.03162277660168379,0.9469128594846573,0.19560611143355436
14988188,2022,1,187633.0,219899,0.41,-0.8,9.96,-0.03,-0.01,-0.01,30.43,13.0687,14.68246024432485,308.2520543099529,10.000484988239322,0.033166247903554,0.9244124199037291,0.6216952540085625
15028188,2022,1,187898.0,220064,0.38,-0.8,9.95,-0.03,-0.01,-0.01,30.43,13.1087,14.473030620992876,351.44566136063986,9.989339317492423,0.033166247903554,0.9113200737182007,0.7083070895896953
15068187,2021,1,187661.0,218860,0.36,-0.79,9.98,-0.03,-0.01,-0.0,30.43,13.148699,15.69784600177208,205.52414514284152,10.017689354337158,0.03162277660168379,0.9878885491964878,0.41570521553054435
15108189,2022,1,187221.0,218045,0.37,-0.8,9.94,-0.03,-0.01,-0.01,30.43,13.188701,14.627176971076533,-43.128832708690354,9.979002956207598,0.033166247903554,0.9209564248056105,-0.08289382041390654
15148188,2019,1,187159.0,218150,0.4,-0.79,9.94,-0.03,-0.01,-0.0,30.43,13.2287,17.431783917653213,-256.8880785753919,9.979363707170913,0.03162277660168379,1.096284463288091,-0.5115239330883992
15188188,2017,1,187181.0,217973,0.34,-0.8,9.99,-0.03,-0.01,-0.01,30.43,13.2687,11.068152985244259,-334.23066709335643,10.027746506568661,0.033166247903554,0.6984665336250561,-0.6666113179478357
15228187,1991,1,187141.0,217984,0.39,-0.8,9.96,-0.03,-0.01,-0.0,30.43,13.308699,-6.45718882807585,-269.7820438630697,9.999684995038594,0.03162277660168379,-0.3971179323604364,-0.5373789166783243
15268874,1989,1,187345.0,218651,0.4,-0.8,9.91,-0.03,-0.01,-0.0,30.33,13.349386,-13.379131313822779,-148.35702935921324,9.950281403055895,0.03162277660168379,-0.8298383176521776,-0.2938974362059165
15307188,1974,1,187580.0,218952,0.39,-0.81,9.95,-0.03,-0.01,-0.0,30.33,13.3877,-19.852214461615905,-80.23428576675623,9.990530516444059,0.03162277660168379,-1.234498575882605,-0.1572976875338102
15347188,1973,1,187536.0,218649,0.39,-0.8,9.97,-0.03,-0.01,-0.0,30.33,13.4277,-23.9921536139462,-123.22224693360943,10.00964534836275,0.03162277660168379,-1.493303971733481,-0.2434971619185826
15387188,1977,1,187416.0,218239,0.4,-0.79,9.97,-0.03,-0.01,-0.0,30.33,13.4677,-13.4299785238458,-245.3758713972718,10.009245725827697,0.03162277660168379,-0.8330169953654754,-0.4884396513307492
15427188,1982,1,187331.0,218399,0.38,-0.77,9.92,-0.03,-0.01,-0.01,30.33,13.5077,-8.813081611739948,-353.9551969927295,9.957092949249796,0.033166247903554,-0.5443949192976019,-0.7061629520254178
15467188,1973,1,187524.0,218780,0.37,-0.8,9.96,-0.03,-0.01,-0.0,30.33,13.5477,-13.828656511568012,-368.2002108777933,9.998924942212538,0.03162277660168379,-0.857940070471881,-0.7347270587233435
15507189,1968,1,187651.0,219113,0.36,-0.78,9.94,-0.03,-0.01,-0.01,30.33,13.587701,-16.26778621375364,-281.81546093199296,9.977053673304559,0.033166247903554,-1.010420555058341,-0.5615083286866739
15547220,1970,1,187780.0,219483,0.37,-0.8,9.99,-0.03,-0.01,-0.01,30.33,13.627732,-13.435395245120727,-170.01662471760585,10.028808503506287,0.033166247903554,-0.8333556179012636,-0.3373292642015165
15587188,1968,1,187979.0,220014,0.37,-0.8,9.97,-0.03,-0.01,-0.0,30.33,13.6677,-9.286397557035171,-135.80668299636105,10.008886051904078,0.03162277660168379,-0.5739839340336543,-0.26873147740117864
15627188,1968,1,188080.0,220012,0.38,-0.78,9.96,-0.03,-0.01,-0.01,30.33,13.7077,-12.450263802946022,-231.84369171803033,9.997719740020722,0.033166247903554,-0.7717708159329405,-0.46130492002531703
15667189,1946,1,187895.0,219436,0.39,-0.8,9.94,-0.03,-0.01,-0.01,30.33,13.747701,-24.50764038677044,-413.475174239545,9.979764526280166,0.033166247903554,-1.5255292662095057,-0.8255124306888805
15707167,1939,1,187800.0,219638,0.36,-0.8,9.94,-0.03,-0.01,-0.01,30.33,13.787679,-37.939358286081614,-561.98653755335,9.978637181499284,0.033166247903554,-2.365203701021388,-1.1233074670277268
15747227,1936,1,187875.0,220280,0.35,-0.78,9.98,-0.03,-0.01,-0.01,30.33,13.827739,-29.49318324305362,-568.612018701017,10.016551302718916,0.033166247903554,-1.837196985220689,-1.1365928840834087
15787188,1957,1,188170.0,221188,0.36,-0.79,9.94,-0.03,-0.01,-0.01,30.33,13.8677,-14.551745385145106,-420.04788576289684,9.977840447712119,0.033166247903554,-0.9031434648396814,-0.8386920340758987
15827189,1937,1,188491.0,222369,0.37,-0.8,9.97,-0.03,-0.01,-0.01,30.33,13.907701,-26.113779584754333,-217.09569069474236,10.008886051904078,0.033166247903554,-1.625935932981855,-0.43173222334637457
15867188,1937,1,188780.0,222692,0.36,-0.8,9.96,-0.03,-0.01,-0.0,30.33,13.9477,-27.58943316274806,-103.41577747749021,9.998559896305068,0.03162277660168379,-1.7181853826329347,-0.20378122261388298
15907188,1951,1,188709.0,222520,0.36,-0.79,9.96,-0.03,-0.01,-0.01,30.33,13.9877,-10.824769189008627,-149.0242260161976,9.997764750182913,0.033166247903554,-0.6701541588918007,-0.2952352991699241
15947217,1947,1,188703.0,222780,0.35,-0.81,9.95,-0.03,-0.01,-0.01,30.33,14.027729,-11.485597335318026,-271.8717212104591,9.989049003784093,0.033166247903554,-0.7114653675115548,-0.5415691384076029
15987189,1941,1,188920.0,223504,0.36,-0.79,9.97,-0.03,-0.01,-0.0,30.33,14.067701,-17.94789223049632,-262.58286544852217,10.00772701466222,0.03162277660168379,-1.1154512056875354,-0.5229431216675412
16027193,1949,1,189314.0,224792,0.34,-0.8,9.96,-0.03,-0.01,-0.0,30.33,14.107705,-6.082246450077637,85.60653739786227,9.997859770970987,0.03162277660168379,-0.37367867226781504,0.17524638760485609
16067188,1968,1,189879.0,226639,0.36,-0.78,9.96,-0.03,-0.01,-0.01,30.33,14.1477,14.144462571740485,811.7087018106172,9.996979543842231,0.033166247903554,0.8907798722993343,1.631226695186555
16107188,1966,1,190772.0,229763,0.38,-0.8,9.92,-0.03,-0.01,-0.01,30.33,14.1877,12.782544092519277,1698.679472308412,9.95945781656813,0.033166247903554,0.8056404926702719,3.4097807865241054
16147188,1955,1,191783.0,232347,0.35,-0.81,9.95,-0.03,-0.01,-0.01,30.33,14.2277,6.203410706278684,2349.9905129482827,9.989049003784093,0.033166247903554,0.39435057807737656,4.715789907222902
16187173,1959,1,192123.0,232794,0.33,-0.79,9.98,-0.03,-0.01,-0.01,30.33,14.267685,9.16582509532387,2416.305352775719,10.016656128668888,0.033166247903554,0.5795438382729075,4.848764446649142
16227189,1954,1,191753.0,229466,0.32,-0.81,9.96,-0.03,-0.01,-0.0,30.33,14.307701,7.85893563556973,1829.5951352491008,9.99800480095904,0.03162277660168379,0.4978445592449478,3.672292918477059
16267188,1961,1,189864.0,225476,0.35,-0.78,9.98,-0.03,-0.01,-0.0,30.33,14.3477,17.311172600482454,863.7372485869847,10.016551302718916,0.03162277660168379,1.08874453129008,1.735554354917125
16307875,1964,1,189233.0,224852,0.37,-0.81,9.92,-0.03,-0.01,-0.0,30.09,14.388387,19.023633722219603,-39.4295759685445,9.959889557620608,0.03162277660168379,1.195797838641458,-0.07547606953762692
16348187,1949,1,189202.0,224840,0.34,-0.81,9.96,-0.03,-0.01,-0.0,30.09,14.428699,11.851672540312602,-547.5881609486645,9.998664910876853,0.03162277660168379,0.747447709711237,-1.09443583735214
16388189,1959,1,189178.0,224809,0.35,-0.79,9.94,-0.03,-0.01,-0.0,30.09,14.468701,17.103346963981515,-606.8532772986216,9.977484652957378,0.03162277660168379,1.075752457217612,-1.2132742688583495
16428188,1946,1,189307.0,225573,0.34,-0.8,9.94,-0.03,-0.01,-0.0,30.09,14.5087,13.046106624061006,-398.86569629764716,9.977935658241137,0.03162277660168379,0.8221169196894278,-0.7962175005399589
16468188,1953,1,189543.0,225836,0.39,-0.81,9.96,-0.03,-0.01,-0.0,30.09,14.5487,17.49601350547076,-163.72206024589087,10.00048998799559,0.03162277660168379,1.1002997309741154,-0.3247074013772505
16508188,1956,1,189464.0,225606,0.36,-0.8,9.97,-0.03,-0.01,-0.01,30.09,14.5887,25.602469102551364,-46.8820017349517,10.008521369313252,0.033166247903554,1.6070691236037322,-0.09041967622468162
16548188,1942,1,189423.0,225600,0.34,-0.81,9.94,-0.03,-0.01,-0.01,30.09,14.6287,14.05366633091401,-63.47167344476053,9.978742405734302,0.033166247903554,0.8851038089118711,-0.12368529159199285
16588188,1944,1,189510.0,225863,0.37,-0.78,9.95,-0.03,-0.01,-0.01,30.09,14.6687,17.329594189914104,-156.2673479266094,9.987382039353456,0.033166247903554,1.0898961440480543,-0.30975920969359294
16628189,1948,1,189510.0,225630,0.35,-0.8,9.99,-0.03,-0.01,-0.01,30.09,14.708701,26.47566319170619,-264.88798522532676,10.0280905460611,0.033166247903554,1.6616562403663435,-0.5275653486297194
16668188,1942,1,189302.0,225020,0.35,-0.81,9.96,-0.03,-0.01,-0.0,30.09,14.7487,21.388643179792634,-353.18633218436327,9.999009950990148,0.03162277660168379,1.3436447480613045,-0.7046212240496044
16708188,1936,1,189075.0,224629,0.39,-0.78,9.95,-0.03,-0.01,-0.0,30.09,14.7887,19.742071774875754,-403.08847669811644,9.98814297054262,0.03162277660168379,1.2407104901975436,-0.8046850212383687
16748188,1931,1,189087.0,224858,0.38,-0.8,9.93,-0.03,-0.01,-0.0,30.09,14.8287,17.897226424756617,-407.4447244135814,9.96941823779101,0.03162277660168379,1.1253812755513624,-0.813420170642302
16788188,1926,1,189261.0,225167,0.37,-0.82,9.96,-0.03,-0.01,-0.01,30.09,14.8687,14.881649009193513,-373.2703052209831,10.00054498514956,0.033166247903554,0.9368645659967131,-0.7448936136285145
16828187,1920,1,189171.0,224917,0.35,-0.8,9.96,-0.03,-0.01,-0.01,30.09,14.908699,14.720849716140744,-322.9773054693337,9.998204838869826,0.033166247903554,0.9268123108403449,-0.6440460733834926
16868173,1915,1,189142.0,225217,0.35,-0.8,9.95,-0.03,-0.01,-0.01,30.09,14.948685,9.602514597169092,-283.7256391081104,9.988243088751895,0.033166247903554,0.6068431765555388,-0.5653386186165332
16908187,1904,1,189244.0,225488,0.34,-0.81,9.98,-0.03,-0.01,-0.01,30.09,14.988699,6.078856523469577,-271.11699185015084,10.018587724824293,0.033166247903554,0.3865641605961803,-0.5400557548370535
16948189,1904,1,189171.0,225153,0.35,-0.82,9.99,-0.03,-0.01,-0.0,30.09,15.028701,5.2355843994079585,-280.83370281650315,10.029705878040492,0.03162277660168379,0.33384759451937435,-0.5595397069788488
16988188,1890,1,189060.0,224752,0.36,-0.8,9.93,-0.03,-0.01,-0.0,30.09,15.0687,-1.4502313369608795,-295.84978762785914,9.968675940163768,0.03162277660168379,-0.08411149245488342,-0.5896499653610051
17028188,1883,1,189025.0,224670,0.38,-0.8,9.97,-0.03,-0.01,-0.0,30.09,15.1087,-8.472562388284253,-303.79838292681876,10.0092607119607,0.03162277660168379,-0.5231075985958765,-0.6055884913638597
17068187,1872,1,189039.0,224604,0.36,-0.81,9.95,-0.03,-0.01,-0.0,30.09,15.148699,-13.54715821198978,-308.1435204432303,9.989404386648886,0.03162277660168379,-0.8403424014789237,-0.6143013625928639
17108188,1868,1,189044.0,224429,0.36,-0.8,9.95,-0.03,-0.01,-0.0,30.09,15.1887,-16.542823309623135,-319.62443180023666,9.988598500290218,0.03162277660168379,-1.027614306427878,-0.6373228899593492
17148187,1855,1,188976.0,224421,0.37,-0.78,9.96,-0.03,-0.01,-0.0,30.09,15.228699,-24.456655902699932,-333.52468174563376,9.997344647455144,0.03162277660168379,-1.5223420069052975,-0.665195675887938
17188188,1844,1,189052.0,224322,0.4,-0.78,9.96,-0.03,-0.01,-0.0,30.09,15.2687,-34.82393128576769,-317.0157151663979,9.998499887483122,0.03162277660168379,-2.170444964626215,-0.6320918904759611
17228188,1849,1,189045.0,224232,0.36,-0.79,9.96,-0.03,-0.01,-0.0,30.09,15.3087,-24.266807815842075,-227.53370302083079,9.997764750182913,0.03162277660168379,-1.510473786754496,-0.45266252922057754
17268188,1856,1,189092.0,224411,0.38,-0.79,9.95,-0.03,-0.01,0.0,30.09,15.3487,-17.874827545443914,-55.13750021601971,9.988543437358622,0.03162277660168379,-1.1108836180873496,-0.10697360459291182
17308859,1838,1,189350.0,225208,0.41,-0.78,9.92,-0.03,-0.01,-0.01,30.43,15.389371,-30.190460785469128,148.0819992772772,9.959061200735741,0.033166247903554,-1.8807868023031924,0.300522205061022
17347173,1841,1,189708.0,225931,0.35,-0.8,9.92,-0.03,-0.01,-0.01,30.43,15.427685,-27.83901256697715,288.03786111737406,9.958358298434536,0.033166247903554,-1.7337876642440975,0.5811617469285362
17387173,1839,1,189663.0,225541,0.37,-0.79,9.98,-0.03,-0.01,-0.01,30.43,15.467685,-25.74502604571263,293.8519651616038,10.018053703190056,0.033166247903554,-1.6028835638209749,0.5928201903398377
17427173,1838,1,189425.0,225051,0.37,-0.81,9.99,-0.03,-0.01,-0.01,30.43,15.507685,-26.28699742363756,176.32533562317582,10.029611158963244,0.033166247903554,-1.636764524830934,0.3571557527289217
17467187,1847,1,189255.0,224986,0.38,-0.81,9.95,-0.03,-0.01,-0.0,30.43,15.547699,-14.956427069239812,24.695320699565116,9.99014514409075,0.03162277660168379,-0.9284418568188914,0.05310719511906059
17507188,1850,1,189260.0,225091,0.37,-0.8,9.95,-0.03,-0.01,-0.0,30.43,15.5877,-11.359840336585618,-61.457117008569675,9.988963910236135,0.03162277660168379,-0.7036037568355527,-0.11964570233945551
17547188,1859,1,189267.0,225277,0.38,-0.81,9.94,-0.03,-0.01,-0.01,30.43,15.6277,-0.4440448774503129,-49.95158064077612,9.980185369019956,0.033166247903554,-0.021210450828016626,-0.09657479689294612
17587196,1868,1,189377.0,225691,0.35,-0.78,9.94,-0.03,-0.01,-0.01,30.43,15.667708,8.316698801164337,1.6263586798004366,9.976697850491414,0.033166247903554,0.5264613028536014,0.006849304613676645
17627188,1858,1,189442.0,225650,0.33,-0.8,9.97,-0.03,-0.01,-0.01,30.43,15.7077,-0.1863130933574008,-1.1682208551846756,10.007487197093985,0.033166247903554,-0.005098528900861471,0.0012456127775561925
17667189,1869,1,189363.0,225522,0.37,-0.8,9.96,-0.03,-0.01,-0.0,30.43,15.747701,10.53615177496376,-102.05390084886497,9.998924942212538,0.03162277660168379,0.6652088506607329,-0.20105038713395051
17707187,1873,1,189278.0,225292,0.37,-0.78,9.96,-0.03,-0.01,-0.0,30.43,15.787699,14.789005497806258,-241.88230796637293,9.997344647455144,0.03162277660168379,0.9310730217842583,-0.48143435674828483
17747189,1863,1,189238.0,225008,0.38,-0.79,9.97,-0.03,-0.01,-0.0,30.43,15.827701,4.464772259925053,-289.1108404306766,10.008466415990014,0.03162277660168379,0.28566081361626744,-0.5761370261441581
17787187,1872,1,189305.0,225168,0.37,-0.8,9.95,-0.03,-0.01,-0.0,30.43,15.867699,13.755270296592647,-138.42893519078734,9.988963910236135,0.03162277660168379,0.8664497898692476,-0.2739896183952706
17827188,1868,1,189658.0,226514,0.41,-0.8,9.909999999999997,-0.03,-0.01,-0.0,30.43,15.9077,7.357403823295359,194.87735281052278,9.950688418395982,0.03162277660168379,0.466491649351474,0.394356263916683
17867187,1854,1,190297.0,228114,0.35,-0.79,9.94,-0.03,-0.01,-0.01,30.43,15.947699,-4.536019816048629,564.1481316632317,9.977484652957378,0.033166247903554,-0.2770173974590306,1.1348181555428196
17907173,1871,1,190717.0,228982,0.39,-0.79,9.98,-0.03,-0.01,-0.01,30.43,15.987685,7.68707193544071,783.1043943801432,10.018812304859294,0.033166247903554,0.48710062043143876,1.5738693281768232
17947188,1872,1,190517.0,227758,0.35,-0.79,9.98,-0.03,-0.01,-0.0,30.43,16.0277,11.094877691950943,753.1805220045375,10.017334974932206,0.03162277660168379,0.7001372099426848,1.5138659690893226
17987188,1874,1,190132.0,227134,0.35,-0.81,9.97,-0.03,-0.01,-0.0,30.43,16.0677,8.970014637737654,525.5703230795383,10.008970976079409,0.03162277660168379,0.567302884692994,1.0574619206210565
18027193,1877,1,190056.0,227134,0.38,-0.78,9.92,-0.03,-0.01,-0.0,30.43,16.107705,11.415001005535832,252.71001277230093,9.9578712584568,0.03162277660168379,0.720149494627303,0.510322333385045
18067189,1875,1,190076.0,227155,0.37,-0.79,9.95,-0.03,-0.01,-0.0,30.43,16.147701,8.304436645605154,76.97095039290836,9.988168000189022,0.03162277660168379,0.5256947427891393,0.15793030559897184
18107188,1874,1,190015.0,227184,0.38,-0.8,9.93,-0.03,-0.01,-0.01,30.43,16.1877,3.3602717890919207,46.11802900523215,9.96941823779101,0.033166247903554,0.21661374044598966,0.09606401711578924
18147189,1873,1,190153.0,227768,0.36,-0.8,9.909999999999997,-0.03,-0.01,-0.01,30.43,16.227701,2.719702739601612,107.61462714632798,9.948753690789612,0.033166247903554,0.17656901507125977,0.21937701667021942
18187173,1883,1,190211.0,227916,0.34,-0.79,9.909999999999997,-0.03,-0.01,-0.01,30.43,16.267685,8.537786753014908,167.16299594661078,9.947250876498488,0.033166247903554,0.540282461279164,0.33878342608637235
18227188,1885,1,190278.0,228192,0.43500000000000005,-0.7450000000000001,9.990000000000002,-0.03,-0.01,-0.01,30.43,16.3077,8.710780721324229,159.4416579907187,10.02718056085558,0.033166247903554,0.5510970580161489,0.3233005965853004
18267188,1884,1,190314.0,228391,0.37,-0.79,9.99,-0.03,-0.01,-0.01,30.43,16.3477,6.5159445458241265,84.76435258267406,10.028015755871149,0.033166247903554,0.41388841210926647,0.1735576383263712
18307173,1894,1,190211.0,228018,0.31499999999999995,-0.8649999999999998,9.909999999999997,-0.03,-0.01,-0.0,30.43,16.387685,10.66374070944308,-4.739433314303111,9.952665472123531,0.03162277660168379,0.6731849835165806,-0.0059153836627617
18347873,1896,1,190107.0,228204,0.39,-0.76,9.909999999999997,-0.03,-0.01,-0.0,30.17,16.428385,14.673382101699163,-53.25945339850469,9.94674821235563,0.03162277660168379,0.9238449061772268,-0.10320774447427433
18388189,1909,1,190356.0,228880,0.39,-0.81,9.95,-0.03,-0.01,-0.01,30.17,16.468701,19.116233354876417,-47.45388419170107,9.990530516444059,0.033166247903554,1.2015866398058188,-0.09156641512188894
18428173,1902,1,190387.0,228839,0.36,-0.79,9.990000000000002,-0.03,-0.01,-0.01,30.17,16.508685,15.165623970800432,-27.922095154533988,10.027651768983606,0.033166247903554,0.9546170617813546,-0.05240126508690051
18468189,1904,1,190329.0,228707,0.33,-0.77,9.96,-0.03,-0.01,-0.01,30.17,16.548701,8.271738885099483,-59.758022652918505,9.995168832991268,0.033166247903554,0.5236506651977225,-0.11623867775834566
18508188,1909,1,190267.0,228425,0.34,-0.8,9.98,-0.03,-0.01,-0.0,30.17,16.5887,15.465515328252177,-184.83728250902442,10.017784186136174,0.03162277660168379,0.9733645599019172,-0.36704765225668046
18548188,1915,1,190125.0,227737,0.39,-0.8,9.94,-0.03,-0.01,-0.0,30.17,16.6287,13.433256639828192,-387.51729401611965,9.979764526280166,0.03162277660168379,0.846319331705049,-0.7734616804167913
18588188,1894,1,189948.0,227432,0.36,-0.77,9.95,-0.03,-0.01,-0.0,30.17,16.6687,-6.628971477797318,-593.4169304847297,9.986240533854568,0.03162277660168379,-0.40785680436449767,-1.1863317016471824
18628189,1895,1,189947.0,227399,0.37,-0.81,9.91,-0.03,-0.01,-0.01,30.17,16.708701,-12.99164365521105,-702.3600310586733,9.949929647992493,0.033166247903554,-0.8056147981306674,-1.404784444052708
18668188,1894,1,189949.0,227675,0.39,-0.81,9.97,-0.03,-0.01,-0.01,30.17,16.7487,-13.657780440142364,-640.9564612532466,10.010449540355319,0.033166247903554,-0.8472578725748746,-1.2816579849486716
18708189,1890,1,190214.0,228540,0.37,-0.78,9.94,-0.03,-0.01,-0.01,30.17,16.788701,-25.104242510081853,-409.03738803645973,9.977419506064681,0.033166247903554,-1.562825429995433,-0.8166137802817774
18748173,1891,1,190574.0,229705,0.36,-0.79,9.93,-0.03,-0.01,-0.01,30.17,16.828685,-23.834478347373842,-91.24069010442004,9.96787841017335,0.033166247903554,-1.4834470129039818,-0.17936773326336786
18788173,1901,1,190941.0,230634,0.35,-0.79,9.91,-0.03,-0.01,-0.01,30.17,16.868685,-21.17152093232904,181.07747425617583,9.94759769994746,0.033166247903554,-1.3169740956518614,0.3666847427356407
18828167,1898,1,191114.0,231009,0.34,-0.81,9.96,-0.03,-0.01,-0.01,30.17,16.908679,-25.044315070477538,301.71583186422754,9.998664910876853,0.033166247903554,-1.5590791080910653,0.6085888185324387
18868189,1919,1,191078.0,230872,0.34,-0.81,9.95,-0.03,-0.01,-0.01,30.17,16.948701,-9.380355848304282,250.96400489327513,9.98870361958948,0.033166247903554,-0.5798576707893471,0.5068212377908733
18908188,1936,1,190855.0,230530,0.34,-0.81,9.97,-0.03,-0.01,-0.0,30.17,16.9887,3.678711730349867,102.75868396581767,10.008626279365215,0.03162277660168379,0.23652079028888487,0.20963987774944956
18948188,1933,1,190771.0,230218,0.34,-0.81,9.93,-0.03,-0.01,-0.0,30.17,17.0287,-1.4689454381247564,-29.42044944655072,9.968781269543435,0.03162277660168379,-0.08528139137887711,-0.055405765623985755
18988188,1936,1,190777.0,230412,0.37,-0.8,9.92,-0.03,-0.01,-0.01,30.17,17.0687,-5.050070738644193,-69.01370648716566,9.959081282929667,0.033166247903554,-0.3091529307639024,-0.13479817813769673
19028199,1943,1,190878.0,230625,0.37,-0.8,9.96,-0.03,-0.01,-0.01,30.17,17.108711,0.9306834138187885,-19.688443400209245,9.998924942212538,0.033166247903554,0.0647297252272358,-0.03589114378258265
19066188,1959,1,191003.0,230929,0.36,-0.8,9.96,-0.03,-0.01,-0.0,30.17,17.1467,11.089537762151787,52.620221084383054,9.998559896305068,0.03162277660168379,0.6998033879722075,0.10910221488925827
19106188,1956,1,191043.0,230879,0.34,-0.8,9.95,-0.03,-0.01,-0.0,30.17,17.1867,4.685488195278772,79.14149095415375,9.987897676688522,0.03162277660168379,0.29945871569114757,0.16228267427223772
19146188,1945,1,190975.0,230291,0.36,-0.8,9.97,-0.03,-0.01,-0.0,30.17,17.2267,-8.667323057053151,40.61143858341084,10.008521369313252,0.03162277660168379,-0.5352829253633108,0.08502220012496112
19186188,1949,1,190831.0,230270,0.4,-0.82,9.91,-0.03,-0.01,-0.01,30.17,17.2667,-11.41212608400364,-24.42552454057311,9.951909364539048,0.033166247903554,-0.7068723637063236,-0.04538994049993519
19226221,1951,1,190938.0,230595,0.38,-0.82,9.97,-0.03,-0.01,-0.0,30.17,17.306733,-9.053673134718743,-53.861580413955004,10.01087908227844,0.03162277660168379,-0.5594353298089119,-0.10441512977089804
19266189,1969,1,191020.0,231026,0.36,-0.79,9.94,-0.03,-0.01,-0.0,30.17,17.346701,1.1215387097575606,-6.800844717777566,9.977840447712119,0.03162277660168379,0.07666091034812503,-0.010048926511667215
19306188,1971,1,191134.0,231391,0.33,-0.79,9.95,-0.03,-0.01,-0.01,30.17,17.3867,3.679383589702872,112.4327148015157,9.986766243384292,0.033166247903554,0.2365627911056632,0.22903824767870884
19346189,1973,1,191248.0,231711,0.35,-0.82,9.97,-0.03,-0.01,-0.0,30.17,17.426701,-1.2057697803880953,259.3849420093804,10.009785212480836,0.03162277660168379,-0.06882914950461848,0.523706903766472
19386873,1973,1,191352.0,232003,0.36,-0.83,9.92,-0.03,-0.01,-0.01,30.19,17.467385,-1.0710045926392027,373.11150341992584,9.96116961004078,0.033166247903554,-0.060404398202987,0.751751443472056
19427189,1973,1,191405.0,232254,0.38,-0.81,9.96,-0.03,-0.01,-0.01,30.19,17.507701,-7.489622227048908,405.0372390894703,10.000104999448757,0.033166247903554,-0.4616597830203637,0.8157689395189234
19467188,1972,1,191425.0,232261,0.34,-0.83,9.97,-0.03,-0.01,-0.0,30.19,17.5477,-7.538631879348819,343.1080822758813,10.01026473176409,0.03162277660168379,-0.4647235870999122,0.6915885731669668
19507189,1985,1,191333.0,231895,0.34,-0.78,9.97,-0.03,-0.01,-0.0,30.19,17.587701,-1.3399276790363521,220.39753337243894,10.006243051215577,0.03162277660168379,-0.07721593655356342,0.4455293386783184
19547188,1984,1,191099.0,231419,0.35,-0.79,9.95,-0.03,-0.01,-0.0,30.19,17.6277,-0.5239553456145086,97.92334718848304,9.987447121261768,0.03162277660168379,-0.02620599776358509,0.19994405879535157
19587189,1994,1,190985.0,231222,0.37,-0.81,9.91,-0.03,-0.01,-0.0,30.19,17.667701,3.47923499084756,25.391376260872164,9.949929647992493,0.03162277660168379,0.22405064166342076,0.05450292596785296
19627188,1987,1,191055.0,231330,0.38,-0.82,9.97,-0.03,-0.01,-0.0,30.19,17.7077,-2.600620415103407,5.545257044463223,10.01087908227844,0.03162277660168379,-0.1560272597635928,0.014707480950305272
19667189,1986,1,191093.0,231365,0.37,-0.81,9.95,-0.03,-0.01,-0.01,30.19,17.747701,-6.935861523566891,-6.848089535493915,9.989769767116757,0.033166247903554,-0.4270418205822798,-0.01014366183625604
19707188,2000,1,191040.0,231144,0.37,-0.79,9.96,-0.03,-0.01,-0.0,30.19,17.7877,5.998609718181218,-65.94222368561474,9.998129825122296,0.03162277660168379,0.3815475877809176,-0.12863923977707245
19747189,2005,1,190911.0,230515,0.38,-0.79,9.95,-0.03,-0.01,-0.01,30.19,17.827701,10.620805319630044,-186.52130728171045,9.988543437358622,0.033166247903554,0.6705009077010412,-0.37042445930489193
19787188,2013,1,190646.0,230191,0.37,-0.8,9.93,-0.03,-0.01,-0.0,30.19,17.8677,16.044853603236756,-327.51111674529824,9.96904208036058,0.03162277660168379,1.0095814863039758,-0.6531372732994645
19827188,2018,1,190594.0,230145,0.37,-0.81,9.96,-0.03,-0.01,-0.0,30.19,17.9077,22.945723511739878,-420.5647959931481,9.999729996354903,0.03162277660168379,1.44098453419183,-0.839728542645794
19867187,2009,1,190688.0,230348,0.36,-0.8,9.97,-0.03,-0.01,-0.01,30.19,17.947699,10.62024634520732,-418.25886843511614,10.008521369313252,0.033166247903554,0.6704659638065973,-0.8351046959204232
19907189,2004,1,190766.0,230533,0.36,-0.8,9.97,-0.03,-0.01,-0.01,30.19,17.987701,8.974131864391135,-323.40420469356803,10.008521369313252,0.033166247903554,0.5675602702328906,-0.6449020918534414
19947187,2013,1,190875.0,230827,0.37,-0.81,9.93,-0.03,-0.01,-0.01,30.19,18.027699,15.185019654050096,-181.77708427417184,9.969849547510735,0.033166247903554,0.9558295693319553,-0.36091134171304623
19987189,2000,1,190982.0,231150,0.36,-0.8,9.96,-0.03,-0.01,-0.01,30.19,18.067701,5.078652181683252,-50.45764387172145,9.998559896305068,0.033166247903554,0.32403708686803917,-0.09758955505613585
20027194,1998,1,191108.0,231393,0.35,-0.8,9.96,-0.03,-0.01,-0.01,30.19,18.107706,3.179582635911092,33.392905640485964,9.998204838869826,0.033166247903554,0.20531808461766626,0.07054759540727855
20067189,2000,1,191133.0,231381,0.36,-0.79,9.99,-0.03,-0.01,-0.0,30.19,18.147701,5.439837134277351,65.92095812028911,10.027651768983604,0.03162277660168379,0.34661631114936203,0.13577285732738403
20107188,1994,1,191103.0,231346,0.36,-0.8,9.99,-0.03,-0.01,-0.0,30.19,18.1877,3.5861754788491647,69.2507855837093,10.028444545391872,0.03162277660168379,0.23073595135309635,0.14244982849204862
20147188,2001,1,191106.0,231243,0.35,-0.8,9.99,-0.03,-0.01,-0.0,30.19,18.2277,8.50344034655592,71.98400453002877,10.0280905460611,0.03162277660168379,0.5381353197409435,0.14793048005486117
20187188,1991,1,191156.0,231342,0.37,-0.79,9.95,-0.03,-0.01,-0.0,30.19,18.2677,4.897276981472367,90.83852124265202,9.988168000189022,0.03162277660168379,0.31269854329024577,0.18573756339381736
20227189,1986,1,191208.0,231438,0.34,-0.8,9.96,-0.03,-0.01,-0.01,30.19,18.307701,-1.9540364373898267,123.39651052201012,9.997859770970987,0.033166247903554,-0.11560651536477602,0.2510228545945948
20267187,1983,1,191173.0,231502,0.38,-0.82,9.95,-0.03,-0.01,-0.0,30.19,18.347699,1.0080549752543373,152.95346903695975,9.99096091474689,0.03162277660168379,0.06956655418730791,0.3102904778836405
20307189,1986,1,191170.0,231508,0.36,-0.82,9.97,-0.03,-0.01,-0.01,30.19,18.387701,4.255697281612229,159.47743129934366,10.010139859162809,0.033166247903554,0.2725906378156627,0.323372329235949
20347188,1979,1,191195.0,231465,0.36,-0.8,9.94,-0.03,-0.01,-0.01,30.19,18.4277,1.8549406275761238,130.4737213404801,9.978637181499284,0.033166247903554,0.12250901745182127,0.2652140801401489
20387874,1969,1,191139.0,231060,0.35,-0.78,9.96,-0.03,-0.01,-0.01,30.39,18.468386,-5.956221988749618,68.20342099725771,9.996624430276453,0.033166247903554,-0.36580034135502076,0.1403496526662882
20426188,1960,1,191000.0,230806,0.36,-0.8,9.94,-0.03,-0.01,-0.0,30.39,18.5067,-11.124119740101928,-9.575685839149768,9.978637181499284,0.03162277660168379,-0.68886784888173,-0.015613038874082968
20466188,1953,1,190920.0,230854,0.39,-0.8,9.95,-0.03,-0.01,-0.01,30.39,18.5467,-14.82802150364299,-76.98737202484114,9.989724720932003,0.033166247903554,-0.9204146728408285,-0.15078697499176982
20506188,1946,1,190973.0,230913,0.36,-0.79,9.96,-0.03,-0.01,-0.01,30.39,18.5867,-18.33201741375445,-112.41198943520799,9.997764750182913,0.033166247903554,-1.139464522417916,-0.221820429897973
20546189,1946,1,190895.0,230882,0.35,-0.82,9.97,-0.03,-0.01,-0.0,30.39,18.626701,-14.157678030008933,-108.59396254449851,10.009785212480836,0.03162277660168379,-0.878508620199388,-0.21416452107529887
20586188,1942,1,190934.0,231159,0.36,-0.79,9.96,-0.03,-0.01,-0.0,30.39,18.6667,-15.148419462104734,-74.7663834628436,9.997764750182913,0.03162277660168379,-0.9404441267575193,-0.14633344797019993
20626189,1933,1,190997.0,231268,0.36,-0.8,9.97,-0.03,-0.01,-0.01,30.39,18.706701,-19.11623860104655,-30.27881923631704,10.008521369313252,0.033166247903554,-1.1884895605510328,-0.05712696901901154
20666199,1939,1,191052.0,231308,0.37,-0.79,9.97,-0.03,-0.01,-0.01,30.39,18.746711,-10.586705283826134,6.345760940885491,10.008091726198357,0.033166247903554,-0.6552717606362901,0.016312651636273233
20706189,1939,1,191022.0,231362,0.35,-0.81,9.96,-0.03,-0.01,-0.01,30.39,18.786701,-4.95218582449841,26.66533586815109,9.999009950990148,0.033166247903554,-0.3030337239298916,0.05705747020661414
20746188,1937,1,191044.0,231441,0.37,-0.81,9.92,-0.03,-0.01,-0.0,30.39,18.8267,-4.95975594234987,34.44249351983912,9.959889557620608,0.03162277660168379,-0.30350696454408804,0.072652229380723
20786188,1935,1,191044.0,231453,0.35,-0.81,9.96,-0.03,-0.01,-0.0,30.39,18.8667,-0.45273768695304034,40.051448405673376,9.999009950990148,0.03162277660168379,-0.021753875724284312,0.08389930762968212
20826188,1933,1,191054.0,231539,0.36,-0.79,9.96,-0.03,-0.01,-0.0,30.39,18.9067,-1.8519708691619265,52.06827453667545,9.997764750182913,0.03162277660168379,-0.1092259578696018,0.10799545148365691
20866220,1920,1,191097.0,231612,0.37,-0.8,9.96,-0.03,-0.01,-0.01,30.39,18.946732,-6.568182987376929,71.8538379542999,9.998924942212538,0.033166247903554,-0.404056654471577,0.1476694699928407
20906188,1930,1,191105.0,231607,0.37,-0.8,9.97,-0.03,-0.01,-0.0,30.39,18.9867,1.763812921934267,93.10604857161195,10.008886051904078,0.03162277660168379,0.116812232773634,0.1902844099667636
20946188,1934,1,191063.0,231551,0.38,-0.8,9.96,-0.03,-0.01,-0.01,30.39,19.0267,15.925689867325248,104.76343351423903,9.999299975498285,0.033166247903554,1.0021320488342758,0.2136598022272887
20986187,1936,1,191075.0,231582,0.35,-0.79,9.95,-0.03,-0.01,-0.0,30.39,19.066699,14.682050137985248,95.71459071367381,9.987447121261768,0.03162277660168379,0.9243867823932111,0.1955150595591811
21026199,1919,1,191113.0,231553,0.35,-0.8,9.97,-0.03,-0.01,-0.0,30.39,19.106711,7.823269087027024,60.9383969840142,10.008166665278912,0.03162277660168379,0.4956148899491965,0.12578182403855565
21066196,1926,1,190987.0,231247,0.36,-0.79,9.97,-0.03,-0.01,-0.0,30.39,19.146708,12.643031777081168,6.813619745784019,10.00772701466222,0.03162277660168379,0.7969189780067754,0.017250802271331443
21106189,1924,1,190916.0,231220,0.36,-0.79,9.96,-0.03,-0.01,-0.0,30.39,19.186701,17.570764368214967,-49.36236047112446,9.997764750182913,0.03162277660168379,1.104972728791443,-0.09539329240791736
21146188,1923,1,190900.0,231180,0.37,-0.81,9.96,-0.03,-0.01,-0.0,30.39,19.2267,18.246129944707466,-87.82189989594727,9.999729996354903,0.03162277660168379,1.1471927346748174,-0.17251237397199973
21186188,1922,1,190883.0,231208,0.39,-0.79,9.94,-0.03,-0.01,-0.01,30.39,19.2667,19.020791500906267,-97.50990985630295,9.978967882501676,0.033166247903554,1.1956201591671884,-0.1919387748467875
21226187,1917,1,190906.0,231277,0.36,-0.79,9.98,-0.03,-0.01,-0.01,30.39,19.306699,19.87542523063663,-81.45644601612898,10.017689354337158,0.033166247903554,1.249046988062941,-0.15974836368244144
21266189,1917,1,190960.0,231387,0.35,-0.77,9.95,-0.03,-0.01,-0.01,30.39,19.346701,17.702420855643993,-52.87893569901735,9.98588503839294,0.033166247903554,1.1132031418703952,-0.10244473025355798
21306187,1901,1,190927.0,231390,0.39,-0.79,9.96,-0.03,-0.01,-0.01,30.39,19.386699,9.060381037949536,-26.29705298522902,9.998889938388162,0.033166247903554,0.572952076895563,-0.04914272997509371
21346189,1899,1,190972.0,231404,0.38,-0.82,9.96,-0.03,-0.01,-0.01,30.39,19.426701,4.2748816502519125,-10.542508571433538,10.000919957683895,0.033166247903554,0.27378993518145794,-0.01755171214641232
21386188,1891,1,190977.0,231444,0.34,-0.81,9.95,-0.03,-0.01,-0.01,30.39,19.4667,1.7231086263847721,-6.8927265153949016,9.98870361958948,0.033166247903554,0.11426763225297457,-0.010233167923568586
21426875,1882,1,190992.0,231438,0.35,-0.78,9.96,-0.03,-0.01,-0.0,30.57,19.507387,-8.034413915954,-10.872427973613439,9.996624430276453,0.03162277660168379,-0.4957170537954633,-0.01821326664412072
21467188,1872,1,190942.0,231416,0.4,-0.79,9.96,-0.03,-0.01,-0.0,30.57,19.5477,-16.057030272526735,-14.95164757402586,9.999284974436923,0.03162277660168379,-0.9972452950387699,-0.026392919177322064
21507188,1868,1,190965.0,231553,0.34,-0.8,9.94,-0.03,-0.01,-0.01,30.57,19.5877,-18.539502967299423,-10.713267584323944,9.977935658241137,0.033166247903554,-1.1524353364426387,-0.017894118177265564
21547187,1863,1,191035.0,231651,0.37,-0.79,9.94,-0.03,-0.01,-0.01,30.57,19.627699,-24.228577256555106,9.2927801467687,9.978206251626592,0.033166247903554,-1.5080838301232988,0.02222201555243957
21587189,1858,1,191065.0,231695,0.35,-0.8,9.94,-0.03,-0.01,-0.01,30.57,19.667701,-26.964961226984244,48.48658524599339,9.978281415153614,0.033166247903554,-1.6791469570458954,0.10081344689711647
21627188,1867,1,191050.0,231867,0.39,-0.81,9.95,-0.03,-0.01,-0.0,30.57,19.7077,-19.60372660858837,100.94414874618093,9.990530516444059,0.03162277660168379,-1.2189645318301154,0.20600137110852637
21667189,1863,1,191125.0,232023,0.36,-0.8,9.96,-0.03,-0.01,-0.01,30.57,19.747701,-21.999132115621155,147.1506238995802,9.998559896305068,0.033166247903554,-1.3687116289878196,0.29865461083619277
21707188,1859,1,191160.0,232059,0.38,-0.8,9.94,-0.03,-0.01,-0.01,30.57,19.7877,-27.831199070604114,158.56753383035712,9.979378738178044,0.033166247903554,-1.7332992089921249,0.3215478025209869
21747189,1872,1,191171.0,232052,0.36,-0.81,9.98,-0.03,-0.01,-0.0,30.57,19.827701,-13.869461677747127,114.50384849006383,10.019286401735405,0.03162277660168379,-0.8604909768492858,0.23319128565695807
21787188,1887,1,191046.0,231683,0.37,-0.82,9.93,-0.03,-0.01,-0.01,30.57,19.8677,-1.3331035795460828,21.528812164261687,9.97066697869305,0.033166247903554,-0.07678933275458952,0.04675771112472508
21827189,1889,1,190929.0,231449,0.36,-0.8,9.95,-0.03,-0.01,-0.0,30.57,19.907701,1.4657415581444424,-82.83345482202529,9.988598500290218,0.03162277660168379,0.09817851028183991,-0.16250954220939584
21867188,1895,1,190877.0,231440,0.37,-0.82,9.94,-0.03,-0.01,-0.0,30.57,19.9477,4.4289055552873275,-151.31331663217034,9.980626232857334,0.03162277660168379,0.28341863170245646,-0.29982538445333856
21906189,1894,1,190851.0,231447,0.35,-0.81,9.96,-0.03,-0.01,-0.01,30.57,19.986701,3.4850679440454093,-160.58842494866062,9.999009950990148,0.033166247903554,0.224415284646277,-0.3184238348111046
21946187,1900,1,190870.0,231597,0.35,-0.81,9.97,-0.03,-0.01,-0.0,30.57,20.026699,6.917114314978973,-130.2905931741839,10.008970976079409,0.03162277660168379,0.43896725918630225,-0.25767061220951903
21986189,1904,1,190941.0,231820,0.37,-0.81,9.94,-0.03,-0.01,-0.01,30.57,20.066701,9.415298191762439,-107.5360715871273,9.97980961742257,0.033166247903554,0.5951394741270203,-0.2120432377669824
22026199,1904,1,191032.0,231858,0.36,-0.79,9.92,-0.03,-0.01,-0.0,30.57,20.106711,7.695770475351314,-124.55652653353978,9.957916448735649,0.03162277660168379,0.4876444035601404,-0.24617265982716924
22066189,1910,1,190991.0,231568,0.36,-0.79,9.93,-0.03,-0.01,-0.0,30.57,20.146701,11.045508277148251,-164.383269653775,9.96787841017335,0.03162277660168379,0.6970509155623085,-0.32603325870732147
22106188,1909,1,190839.0,231277,0.37,-0.79,9.96,-0.03,-0.01,-0.0,30.57,20.1867,8.530893025281957,-170.2874355122021,9.998129825122296,0.03162277660168379,0.5398515047193773,-0.33787229409915026
22146189,1910,1,190864.0,231536,0.4,-0.79,9.93,-0.03,-0.01,-0.0,30.57,20.226701,6.300143294832692,-98.72774595714469,9.969403191766295,0.03162277660168379,0.4003977480842855,-0.19438078021131042
22186188,1914,1,191073.0,232239,0.39,-0.81,9.94,-0.03,-0.01,-0.01,30.57,20.2667,9.312473870009677,30.27106059673841,9.980571125942642,0.033166247903554,0.5887114836867883,0.064287670661435
22226173,1916,1,191382.0,232989,0.38,-0.8,9.93,-0.03,-0.01,-0.01,30.57,20.306685,6.378505105043144,138.54403450450025,9.96941823779101,0.033166247903554,0.4052964817527965,0.28139667484751196
22266173,1911,1,191424.0,232758,0.34,-0.8,9.990000000000002,-0.03,-0.01,-0.01,30.57,20.346685,2.792672048075474,154.7112774032222,10.027746506568665,0.033166247903554,0.18113064027145445,0.31381523581884146
22306198,1920,1,191203.0,232005,0.36,-0.78,9.990000000000002,-0.03,-0.01,-0.0,30.57,20.38671,3.5889948988397458,80.45345403116605,10.026868903102306,0.03162277660168379,0.23091220541864743,0.1649134230814622
22346188,1923,1,190989.0,231693,0.39,-0.81,9.94,-0.03,-0.01,-0.0,30.57,20.4267,10.991523262993347,-7.2367175902849015,9.980571125942642,0.03162277660168379,0.6936760802219121,-0.010922938944191787
22386189,1931,1,191070.0,232018,0.4,-0.8,9.909999999999997,-0.03,-0.01,-0.0,30.57,20.466701,8.924534339808579,-22.732639988353963,9.950281403055891,0.03162277660168379,0.5644597157294298,-0.04199536781878392
22426874,1914,1,191288.0,232464,0.36,-0.8,9.95,-0.03,-0.01,-0.01,30.45,20.507386,-3.999729015608361,54.56558251785552,9.988598500290218,0.033166247903554,-0.24349155377096537,0.11300305429875866
22467188,1920,1,191421.0,232736,0.37,-0.8,9.96,-0.03,-0.01,-0.01,30.45,20.5477,-5.0026969952181055,165.86706655130695,9.998924942212538,0.033166247903554,-0.306191394381556,0.33618482802117494
22507191,1922,1,191454.0,232788,0.37,-0.79,9.96,-0.03,-0.01,-0.01,30.45,20.587703,-4.335361236923151,225.41389695277147,9.998129825122296,0.033166247903554,-0.2644733669574682,0.4555881526394931
22547189,1924,1,191413.0,232429,0.38,-0.81,9.98,-0.03,-0.01,-0.01,30.45,20.627701,-2.318038121924432,188.13187284679154,10.020024950068738,0.033166247903554,-0.1383618256700827,0.3808302251941257
22587187,1936,1,191205.0,232036,0.36,-0.8,9.99,-0.03,-0.01,-0.0,30.45,20.667699,1.628704425959158,75.96606759149986,10.028444545391872,0.03162277660168379,0.10836601979874708,0.15591531426306032
22627189,1929,1,191153.0,231967,0.36,-0.8,9.94,-0.03,-0.01,-0.01,30.45,20.707701,-0.0512808333871949,-49.46444822459999,9.978637181499284,0.033166247903554,0.003342918233586498,-0.09559799880598441
22667188,1942,1,191149.0,231947,0.39,-0.81,9.93,-0.03,-0.01,-0.0,30.45,20.7477,2.754928009740343,-134.70563460751075,9.970611816734216,0.03162277660168379,0.17877109815672657,-0.26652365479654955
22707201,1934,1,191141.0,231901,0.38,-0.81,9.96,-0.03,-0.01,-0.01,30.45,20.787713,-0.6801106395200385,-162.0126859319664,10.000104999448757,0.033166247903554,-0.0359679365666427,-0.32127976342030695
22747187,1937,1,191118.0,232142,0.37,-0.79,9.96,-0.03,-0.01,-0.01,30.45,20.827699,-3.9696255788922854,-143.90562124569098,9.998129825122296,0.033166247903554,-0.2416096585137874,-0.2849714711393621
22787189,1947,1,191207.0,232224,0.36,-0.8,9.93,-0.03,-0.01,-0.0,30.45,20.867701,5.497088523206072,-102.36878414909668,9.968675940163768,0.03162277660168379,0.3501953416204669,-0.20168179123490715
22827188,1951,1,191210.0,232192,0.35,-0.78,9.97,-0.03,-0.01,-0.01,30.45,20.9077,8.904441186982435,-55.66988608114215,10.00658783002478,0.033166247903554,0.5632036063568716,-0.1080411449111259
22867189,1949,1,191244.0,232290,0.38,-0.79,9.96,-0.03,-0.01,-0.01,30.45,20.947701,2.3189030297936943,-18.575919200279138,9.998504888232041,0.033166247903554,0.15151330199505017,-0.03366030987766465
22907188,1946,1,191300.0,232581,0.37,-0.79,9.93,-0.03,-0.01,-0.01,30.45,20.9877,1.208314690117263,-4.2554953835445355,9.968244579663963,0.033166247903554,0.08208564996892341,-0.00494499115904815
22946189,1955,1,191394.0,232772,0.35,-0.77,9.96,-0.03,-0.01,-0.0,30.45,21.026701,5.9368010330386936,-16.476808720891103,9.995849138517448,0.03162277660168379,0.37768366112964563,-0.029451172828887005
22986187,1953,1,191353.0,232624,0.36,-0.8,9.97,-0.03,-0.01,-0.0,30.45,21.066699,4.1506649810020955,-37.29559807843114,10.008521369313252,0.03162277660168379,0.26602461712397374,-0.07119701634497787
23026199,1957,1,191263.0,232547,0.39,-0.8,9.95,-0.03,-0.01,-0.0,30.45,21.106711,7.02988190117548,-28.36322482688651,9.989724720932003,0.03162277660168379,0.44601684583742657,-0.053285818456266495
23066188,1958,1,191373.0,232941,0.39,-0.8,9.93,-0.03,-0.01,-0.0,30.45,21.1467,5.783988969813367,44.979491714246954,9.969804411321217,0.03162277660168379,0.3681307220504424,0.09378102175182067
23106189,1939,1,191573.0,233509,0.38,-0.8,9.93,-0.03,-0.01,-0.01,30.45,21.186701,-12.417958106101231,181.90141750109763,9.96941823779101,0.033166247903554,-0.7697512479266213,0.36833691401120955
23146173,1936,1,191768.0,233957,0.37,-0.82,9.96,-0.03,-0.01,-0.01,30.45,21.226685,-17.639980732238463,334.20105680570924,10.00054498514956,0.033166247903554,-1.0962023340830325,0.6737282026581037
23186173,1937,1,191836.0,234055,0.34,-0.81,9.96,-0.03,-0.01,-0.01,30.45,21.266685,-16.386576032889057,427.787110782975,9.998664910876853,0.033166247903554,-1.0178466173827327,0.8613869899933247
23226187,1941,1,191783.0,234033,0.37,-0.8,9.95,-0.03,-0.01,-0.01,30.45,21.306699,-13.403226696454631,404.64170728395715,9.988963910236135,0.033166247903554,-0.8313446236172556,0.8149758190076862
23266189,1950,1,191696.0,233834,0.35,-0.82,9.95,-0.03,-0.01,-0.01,30.45,21.346701,-3.9782784773992828,258.2795733075594,9.989864863950862,0.033166247903554,-0.2421505884021169,0.5214904180688015
23306188,1949,1,191553.0,233042,0.36,-0.79,9.96,-0.03,-0.01,-0.0,30.45,21.3867,-7.115371066964625,41.29685258877943,9.997764750182913,0.03162277660168379,-0.4382637339313951,0.08639659252215838
23346189,1953,1,191233.0,232456,0.37,-0.81,9.95,-0.03,-0.01,-0.0,30.45,21.426701,0.19026188077500594,-159.95448900435014,9.989769767116757,0.03162277660168379,0.018442791795364864,-0.317152666239488
23386188,1966,1,191164.0,232464,0.39,-0.78,9.92,-0.03,-0.01,-0.0,30.45,21.4667,8.310157968157066,-270.6121740701887,9.958257879769935,0.03162277660168379,0.5260524072603682,-0.5390434940525999
23426189,1949,1,191247.0,232678,0.39,-0.79,9.95,-0.03,-0.01,-0.01,30.45,21.506701,-3.1442677019581486,-266.99356788223224,9.988928871505692,0.033166247903554,-0.19001298904623198,-0.5317874636910612
23466874,1949,1,191308.0,232870,0.39,-0.78,9.94,-0.03,-0.01,-0.01,30.31,21.547386,-7.781606599086612,-186.75215150624237,9.978181196991763,0.033166247903554,-0.47991298148704936,-0.37088734822260955
23507189,1945,1,191387.0,233112,0.36,-0.8,9.96,-0.03,-0.01,-0.01,30.31,21.587701,-8.43749287588624,-103.4796733520929,9.998559896305068,0.033166247903554,-0.5209152525964538,-0.20390934664341603
23547187,1955,1,191440.0,233163,0.36,-0.79,9.96,-0.03,-0.01,-0.01,30.31,21.627699,1.3126946404198276,-82.01347294268136,9.997764750182913,0.033166247903554,0.08861088943814224,-0.16086531426543405
23587189,1967,1,191400.0,232894,0.37,-0.8,9.96,-0.03,-0.01,-0.0,30.31,21.667701,12.194806458940615,-141.2568798965675,9.998924942212538,0.03162277660168379,0.7688984862499207,-0.2796602140832422
23627187,1955,1,191281.0,232665,0.36,-0.79,9.98,-0.03,-0.01,-0.0,30.31,21.707699,3.6717355118803487,-245.2321741904981,10.017689354337158,0.03162277660168379,0.236084676878491,-0.48815150964274556
23667189,1957,1,191221.0,232487,0.37,-0.78,9.94,-0.03,-0.01,-0.0,30.31,21.747701,3.41751595040864,-326.25506756194034,9.977419506064681,0.03162277660168379,0.22019231908799355,-0.6506186430488546
23707188,1961,1,191228.0,232563,0.35,-0.79,9.95,-0.03,-0.01,-0.0,30.31,21.7877,9.714845182960556,-325.8916272653779,9.987447121261768,0.03162277660168379,0.6138654444324849,-0.6498898724423045
23747189,1959,1,191316.0,232795,0.38,-0.79,9.94,-0.03,-0.01,-0.0,30.31,21.827701,8.996801601849416,-229.19346865344892,9.978582063600017,0.03162277660168379,0.5689774529886863,-0.45599069183285584
23787188,1958,1,191516.0,233275,0.37,-0.79,9.96,-0.03,-0.01,-0.01,30.31,21.8677,6.146525416363185,-71.86079819918614,9.998129825122296,0.033166247903554,0.3907944340296106,-0.14050716740910793
23827188,1951,1,191665.0,233754,0.37,-0.8,9.96,-0.03,-0.01,-0.01,30.31,21.9077,4.203607731048431,83.07989023572901,9.998924942212538,0.033166247903554,0.26933429605378684,0.17017995385410636
23867188,1955,1,191835.0,233980,0.37,-0.82,9.98,-0.03,-0.01,-0.0,30.31,21.9477,4.57139393673182,182.6795560876559,10.020464061110143,0.03162277660168379,0.2923261930474427,0.3698972377702147
23907189,1947,1,191806.0,233913,0.37,-0.8,9.95,-0.03,-0.01,-0.0,30.31,21.987701,1.158902928869051,209.84622688468605,9.988963910236135,0.03162277660168379,0.07899670833017147,0.424371855312528
23946188,1951,1,191732.0,233816,0.36,-0.8,9.95,-0.03,-0.01,-0.0,30.31,22.0267,4.382836275329228,181.32205177233567,9.988598500290218,0.03162277660168379,0.28053864293996233,0.3671751696544118
23986189,1952,1,191696.0,233582,0.37,-0.79,9.94,-0.03,-0.01,-0.0,30.31,22.066701,5.756466052354395,124.49451986143039,9.978206251626592,0.03162277660168379,0.3664101461468254,0.25322458329627084
24026199,1936,1,191701.0,233422,0.37,-0.82,9.95,-0.03,-0.01,-0.0,30.31,22.106711,-6.457445732647763,56.5400932699447,9.990585568423905,0.03162277660168379,-0.39713399256977366,0.11696234393188522
24066189,1936,1,191664.0,233120,0.39,-0.8,9.95,-0.03,-0.01,-0.0,30.31,22.146701,-9.773186187052577,-16.367634082662846,9.989724720932003,0.03162277660168379,-0.604415184216751,-0.02923225580709813
24106188,1936,1,191508.0,232687,0.36,-0.79,9.96,-0.03,-0.01,-0.01,30.31,22.1867,-3.9026652222283333,-84.88406467840537,9.997764750182913,0.033166247903554,-0.23742367872638512,-0.16662142579238587
24146220,1942,1,191455.0,232608,0.39,-0.79,9.96,-0.03,-0.01,-0.0,30.31,22.226732,-1.5195191225616242,-127.84862323309517,9.998889938388162,0.03162277660168379,-0.08844296983177621,-0.25277397325127116
24186187,1936,1,191508.0,232739,0.41,-0.81,9.990000000000002,-0.03,-0.01,-0.01,30.31,22.266699,-2.9280993519257517,-121.86674348718289,10.031166432673722,0.033166247903554,-0.17649937608187852,-0.24077910594576732
24226188,1936,1,191530.0,232820,0.38,-0.83,9.92,-0.03,-0.01,-0.0,30.31,22.3067,-4.505155861751026,-61.28470551837996,9.961912466991466,0.03162277660168379,-0.27508795897802824,-0.11929998276055842
24266188,1935,1,191600.0,233040,0.37,-0.8,9.93,-0.03,-0.01,-0.0,30.31,22.3467,-3.147517572039529,30.74478096167183,9.96904208036058,0.03162277660168379,-0.1902161523976552,0.06523757489867316
24306188,1934,1,191721.0,233317,0.38,-0.8,9.96,-0.03,-0.01,-0.01,30.31,22.3867,-4.275014307434912,112.52759147036345,9.999299975498285,0.033166247903554,-0.26070082093688296,0.2292284944074223
24346228,1930,1,191791.0,233278,0.37,-0.8,9.990000000000002,-0.03,-0.01,-0.0,30.31,22.42674,-6.456749155992912,149.98674294100198,10.028808503506289,0.03162277660168379,-0.39709044656818626,0.3043415977047793
24386188,1939,1,191708.0,232983,0.4,-0.82,9.95,-0.03,-0.01,-0.0,30.31,22.4667,1.555500080755578,138.84426878770765,9.991741589933158,0.03162277660168379,0.10378970144205032,0.28199870473453814
24426188,1943,1,191611.0,232871,0.38,-0.81,9.96,-0.03,-0.01,-0.01,30.31,22.5067,8.945489826765659,104.58670215630852,10.000104999448757,0.033166247903554,0.5657697333160704,0.21330542044812528
24466189,1937,1,191574.0,232805,0.38,-0.81,9.94,-0.03,-0.01,-0.01,30.31,22.546701,-0.1829508994267685,80.68867268640992,9.980185369019956,0.033166247903554,-0.004888343702691371,0.1653850836091345
24506873,1934,1,191630.0,232873,0.38,-0.81,9.94,-0.03,-0.01,-0.0,30.29,22.587385,1.6096610583709314,84.90551303429467,9.980185369019956,0.03162277660168379,0.10717553701490456,0.1738406933120772
24547189,1949,1,191674.0,232859,0.39,-0.81,9.990000000000002,-0.03,-0.01,-0.01,30.29,22.627701,13.056042031650072,113.21690031107663,10.030368886536529,0.033166247903554,0.822738024734554,0.23061069672978013
24587188,1937,1,191642.0,232792,0.37,-0.81,9.96,-0.03,-0.01,-0.01,30.29,22.6677,4.343881483364351,151.3185208942277,9.999729996354903,0.033166247903554,0.27810341141027095,0.30701207931054114
24627189,1934,1,191602.0,232633,0.37,-0.81,9.96,-0.03,-0.01,-0.01,30.29,22.707701,0.4494075233184794,186.84974677411864,9.999729996354903,0.033166247903554,0.03464310009307058,0.3782593055561729
24667188,1938,1,191602.0,232707,0.38,-0.81,9.92,-0.03,-0.01,-0.0,30.29,22.7477,4.207922636713824,209.9576679776619,9.960266060703399,0.03162277660168379,0.26960403935862803,0.42459531703014936
24707189,1934,1,191635.0,232786,0.37,-0.79,9.96,-0.03,-0.01,-0.01,30.29,22.787701,1.8865720242499227,207.4519337256807,9.998129825122296,0.033166247903554,0.12448643205533559,0.41957081785396494
24747188,1935,1,191540.0,232657,0.39,-0.81,9.97,-0.03,-0.01,-0.0,30.29,22.8277,1.6392095156788702,164.0871604894889,10.010449540355319,0.03162277660168379,0.10902273812317673,0.33261575977931357
24787188,1930,1,191468.0,232245,0.38,-0.78,9.97,-0.03,-0.01,-0.0,30.29,22.8677,-3.4409259074476237,74.47249515258743,10.007682049305924,0.03162277660168379,-0.20855836893687552,0.15292040229944975
24827188,1929,1,191247.0,231593,0.38,-0.79,9.95,-0.03,-0.01,-0.0,30.29,22.9077,-1.871951777478991,-45.64628702078645,9.988543437358622,0.03162277660168379,-0.11047505035530832,-0.08794182065862825
24867188,1940,1,191068.0,231496,0.38,-0.82,9.91,-0.03,-0.01,-0.0,30.29,22.9477,3.621513986885125,-161.85073992251392,9.951125564477618,0.03162277660168379,0.23294511342637902,-0.3209550292269515
24907188,1931,1,191050.0,231552,0.35,-0.8,9.98,-0.03,-0.01,-0.0,30.29,22.9877,2.358640132663187,-237.96715563700826,10.018128567751564,0.03162277660168379,0.15399743914289138,-0.4735836919629129
24947188,1939,1,190966.0,231386,0.37,-0.79,9.97,-0.03,-0.01,-0.0,30.29,23.0277,0.9034313659607688,-255.48406563466386,10.008091726198357,0.03162277660168379,0.06302608254696312,-0.5087086058610755
24986188,1921,1,190926.0,231392,0.37,-0.79,9.94,-0.03,-0.01,-0.01,30.29,23.0667,-7.901714429522167,-222.383950638596,9.978206251626592,0.033166247903554,-0.4874214383645295,-0.44233624398836113
25026199,1931,1,190958.0,231673,0.36,-0.8,9.94,-0.03,-0.01,-0.0,30.29,23.106711,-6.408867704781077,-166.68741153007787,9.978637181499284,0.03162277660168379,-0.39409717118929133,-0.3306535247830803
25066188,1936,1,191034.0,231792,0.37,-0.82,9.95,-0.03,-0.01,-0.0,30.29,23.1467,4.658228844466972,-119.35561743444664,9.990585568423905,0.03162277660168379,0.29775461647183543,-0.23574379512887106
25106189,1935,1,190967.0,231697,0.38,-0.79,9.96,-0.03,-0.01,-0.0,30.29,23.186701,-0.515529516948355,-97.02296030382631,9.998504888232041,0.03162277660168379,-0.025679262987280925,-0.19096234343817833
25146188,1927,1,190908.0,231569,0.36,-0.8,9.95,-0.03,-0.01,-0.0,30.29,23.2267,-7.160971870861596,-95.30325371406632,9.988598500290218,0.03162277660168379,-0.4411144362411213,-0.18751398719820753
25186189,1923,1,190883.0,231621,0.37,-0.78,9.94,-0.03,-0.01,-0.0,30.29,23.266701,-10.864773519536657,-96.11578158485574,9.977419506064681,0.03162277660168379,-0.6726550015895076,-0.18914326836167503
25226188,1923,1,190837.0,231643,0.35,-0.81,9.98,-0.03,-0.01,-0.01,30.29,23.3067,-13.19493554691022,-81.76768634325133,10.018932078819578,0.033166247903554,-0.8183234483229925,-0.16037246289247745
25266189,1930,1,190948.0,231714,0.36,-0.81,9.94,-0.03,-0.01,-0.01,30.29,23.346701,-2.9443993531034116,-44.71511792120179,9.979443872280658,0.033166247903554,-0.1775183592364448,-0.08607464006274014
25306187,1936,1,190875.0,231750,0.37,-0.79,9.97,-0.03,-0.01,-0.01,30.29,23.386699,-0.9870354925501116,11.129794587363717,10.008091726198357,0.033166247903554,-0.055155128735930536,0.025905597534890648
25346189,1920,1,190876.0,231792,0.38,-0.8,9.97,-0.03,-0.01,-0.01,30.29,23.426701,-12.900747030837552,73.13427080596543,10.0092607119607,0.033166247903554,-0.7999324593360864,0.1502369943834524
25386187,1920,1,190893.0,231809,0.34,-0.8,9.96,-0.03,-0.01,-0.0,30.29,23.466699,-16.231639032245408,122.63399932703463,9.997859770970987,0.03162277660168379,-1.0081608393294597,0.24949386688651817
25426188,1920,1,190920.0,231830,0.38,-0.8,9.98,-0.03,-0.01,-0.0,30.29,23.5067,-13.57475895351768,139.77959075589297,10.019221526645671,0.03162277660168379,-0.8420678424996897,0.28387421266395985
25466188,1926,1,190894.0,231562,0.37,-0.8,9.94,-0.03,-0.01,-0.0,30.29,23.5467,-8.20266120012478,113.14844189504115,9.979002956207598,0.03162277660168379,-0.506234914898843,0.23047342389061085
25506188,1931,1,190714.0,230997,0.39,-0.78,9.97,-0.03,-0.01,-0.0,30.29,23.5867,-3.1115652299191785,48.983540697894455,10.008066746380141,0.03162277660168379,-0.1879686169166117,0.10180994213866214
25546874,1927,1,190576.0,230827,0.36,-0.84,9.95,-0.03,-0.01,-0.0,30.29,23.627386,-4.666513473513537,-29.27626484297283,9.99188170466404,0.03162277660168379,-0.2851751170374027,-0.055116646607744194
25587189,1936,1,190573.0,230734,0.37,-0.8,9.96,-0.03,-0.01,-0.0,30.29,23.667701,2.3820634940718737,-93.17757515409612,9.998924942212538,0.03162277660168379,0.1554617341719913,-0.18325157582519047
25627188,1935,1,190436.0,230632,0.38,-0.81,9.94,-0.03,-0.01,-0.0,30.29,23.7077,5.939874870187456,-124.35074792334851,9.980185369019956,0.03162277660168379,0.3778758199056071,-0.24576003248787143
25667189,1926,1,190447.0,230598,0.37,-0.77,9.97,-0.03,-0.01,-0.0,30.29,23.747701,-5.6281303325958945,-121.74538287420175,10.006532866083038,0.03162277660168379,-0.3452899213169777,-0.24053575360325025
25707188,1926,1,190391.0,230795,0.37,-0.78,9.93,-0.03,-0.01,-0.0,30.29,23.7877,-0.695028025468105,-97.5714863392189,9.967457047813149,0.03162277660168379,-0.03690048649872963,-0.1920622480313197
25747189,1936,1,190485.0,230821,0.35,-0.82,9.96,-0.03,-0.01,-0.01,30.29,23.827701,8.494969144448495,-66.84709834533838,9.999824998468723,0.033166247903554,0.5376057484757449,-0.13045369475318846
25787210,1932,1,190401.0,230705,0.38,-0.8,9.94,-0.03,-0.01,-0.01,30.29,23.867722,6.90329018588712,-38.80940597240533,9.979378738178044,0.033166247903554,0.4381030534406944,-0.07423250444997576
25827188,1936,1,190385.0,230664,0.37,-0.79,9.96,-0.03,-0.01,-0.0,30.29,23.9077,14.988448539536131,-15.497056038884402,9.998129825122296,0.03162277660168379,0.9435410638170859,-0.027486572416965893
25867188,1941,1,190387.0,230781,0.38,-0.79,9.97,-0.03,-0.01,-0.01,30.29,23.9477,17.468439526502518,4.43190246555549,10.008466415990014,0.033166247903554,1.098575962996018,0.012474981969178288
25907189,1932,1,190430.0,230914,0.36,-0.81,9.99,-0.03,-0.01,-0.01,30.29,23.987701,18.07399437631633,23.42138766040108,10.029247229976933,0.033166247903554,1.136431800207361,0.050552704154692436
25947188,1939,1,190431.0,230907,0.36,-0.8,9.98,-0.03,-0.01,-0.01,30.29,24.0277,19.56192750869117,47.11738649685869,10.018482919085105,0.033166247903554,1.2294488975980669,0.0980679290986426
25988206,1920,1,190404.0,230854,0.37,-0.8,9.97,-0.03,-0.01,-0.01,30.29,24.068718,11.220088523238605,85.09045549807946,10.008886051904078,0.033166247903554,0.7079646773434991,0.17421154000349848
26026199,1932,1,190410.0,230988,0.38,-0.8,9.97,-0.03,-0.01,-0.0,30.29,24.106711,20.633700391963977,143.36652988254002,10.0092607119607,0.03162277660168379,1.2964500285595018,0.29106674422336676
26066189,1935,1,190470.0,231182,0.35,-0.78,9.92,-0.03,-0.01,-0.0,30.29,24.146701,29.583082109169787,212.2725116876617,9.956771565120896,0.03162277660168379,1.8559143570722347,0.42923704242648514
26106188,1925,1,190526.0,231269,0.37,-0.82,9.95,-0.03,-0.01,-0.0,30.29,24.1867,23.681572025435766,262.8869337640568,9.990585568423905,0.03162277660168379,1.4869855885228211,0.530729098826648
26146189,1923,1,190523.0,231156,0.39,-0.79,9.96,-0.03,-0.01,-0.0,30.29,24.226701,22.042925579121356,260.97202279892184,9.998889938388162,0.03162277660168379,1.3845467538942204,0.5268893187066375
26186204,1905,1,190441.0,230646,0.37,-0.79,9.96,-0.03,-0.01,-0.0,30.29,24.266716,12.659865249150632,190.8662599637609,9.998129825122296,0.03162277660168379,0.7979713107204168,0.3863132191731236
26226189,1904,1,190225.0,230259,0.37,-0.8,9.94,-0.03,-0.01,-0.0,30.29,24.306701,10.399211621612837,70.23670149482395,9.979002956207598,0.03162277660168379,0.6566481329081746,0.1444267874130778
26266188,1895,1,190100.0,230081,0.37,-0.82,9.96,-0.03,-0.01,-0.0,30.29,24.3467,9.99761391109746,-57.346752091808895,10.00054498514956,0.03162277660168379,0.6315425333767819,-0.11140359720729616
26306189,1868,1,190020.0,229974,0.38,-0.79,9.96,-0.03,-0.01,-0.01,30.29,24.386701,-16.383096115838626,-146.83466818929264,9.998504888232041,0.033166247903554,-1.0176290728062,-0.2908447970690754
26346188,1840,1,189998.0,230025,0.35,-0.78,9.96,-0.03,-0.01,-0.01,30.29,24.4267,-37.896367230260594,-175.25688587019152,9.996624430276453,0.033166247903554,-2.362516145284357,-0.3478370376508916
26386189,1838,1,189952.0,230047,0.35,-0.8,9.95,-0.03,-0.01,-0.01,30.29,24.466701,-37.027385087566,-149.83204960097453,9.988243088751895,0.033166247903554,-2.308192335404005,-0.29685514729747586
26426188,1838,1,190048.0,230199,0.37,-0.81,9.96,-0.03,-0.01,-0.0,30.29,24.5067,-32.143736041413696,-98.98589111676915,9.999729996354903,0.03162277660168379,-2.002894436550886,-0.19489841297338148
26466189,1838,1,190015.0,230150,0.36,-0.79,9.95,-0.03,-0.01,-0.01,30.29,24.546701,-28.182251467330197,-54.66868224093335,9.987802561124242,0.033166247903554,-1.7552450036417764,-0.10603353062946602
26506188,1838,1,190067.0,230238,0.37,-0.77,9.95,-0.03,-0.01,-0.0,30.29,24.5867,-23.939717077221193,-36.25104483676528,9.986606030078486,0.03162277660168379,-1.4900259383748202,-0.0691024778287401
