timestamp_us,ecg,leads,ir,red,accX,accY,accZ,gyroX,gyroY,gyroZ,temp,time_sec,ecg_filtered,ppg_filtered,accel_magnitude,gyro_magnitude,ecg_norm,ppg_norm
1949958,1816.5,1,187824.0,222669,0.36,0.14,9.930000000000001,-0.03,-0.01,-0.0,30.97,0.030472,-0.0875212016101605,12.044716695869607,9.937509748422892,0.03162277660168379,-0.005798214561286485,0.02085086430428512
1990176,1816.5,1,188006.0,223017,0.39,0.12,9.95,-0.03,-0.01,-0.0,30.97,0.07069,-4.704083252096351,130.30382816562332,9.958363319341185,0.03162277660168379,-0.20427030645559602,0.22758516049716151
2030168,1821.0,1,188050.0,222462,0.39,0.13,9.96,-0.03,-0.01,-0.01,30.97,0.110682,-7.094704684015321,69.98239133929616,9.96848032550599,0.033166247903554,-0.30704627509450105,0.12213442919496251
2070170,1826.0,1,187435.0,220261,0.38,0.13,9.99,-0.03,-0.01,-0.01,30.97,0.150684,-4.9369832860119836,-208.57939408728535,9.998069813719045,0.033166247903554,-0.21428298611374627,-0.3648324855795015
2110168,1846.0,1,186852.0,219279,0.37,0.13,9.97,-0.03,-0.01,-0.01,30.97,0.190682,7.643756532792537,-580.9056910394336,9.97771015814751,0.033166247903554,0.32657961296108,-1.0157135381924243
2150170,1856.0,1,186717.0,219443,0.38,0.14999999999999997,9.96,-0.03,-0.01,-0.0,30.97,0.230684,14.557271267398907,-858.0688648346221,9.968374992946444,0.03162277660168379,0.6238007304753463,-1.5002354744136954
2190168,1851.0,1,186793.0,219549,0.38,0.13,9.97,-0.03,-0.01,-0.01,30.97,0.270682,3.7227484878803407,-919.6962092766089,9.978085988805669,0.033166247903554,0.1580103052169799,-1.6079691240336542
2230171,1846.0,1,186859.0,219751,0.4,0.14,9.95,-0.03,-0.01,-0.01,30.97,0.310685,-5.772570809395714,-776.5157146122812,9.959021036226401,0.033166247903554,-0.25020599590179593,-1.3576685896807612
2270168,1857.0,1,186987.0,220364,0.39,0.14,9.96,-0.03,-0.01,-0.01,30.97,0.350682,1.2712206583258188,-534.4131161894381,9.968615751447139,0.033166247903554,0.05261589020688367,-0.9344376887432534
2310170,1871.0,1,187206.0,220829,0.39,0.12,10.0,-0.03,-0.01,-0.0,30.97,0.390684,10.410213072926226,-310.8209918081326,10.008321537600597,0.03162277660168379,0.4455132286366676,-0.5435658151619799
2350168,1877.0,1,187250.0,220954,0.39,0.14,9.96,-0.03,-0.01,-0.0,30.97,0.430682,12.621070552083127,-170.78331275597188,9.968615751447139,0.03162277660168379,0.5405609078338396,-0.2987593841011746
2390170,1882.0,1,187313.0,221004,0.37,0.14,9.97,-0.03,-0.01,-0.01,30.97,0.470684,14.560332082307724,-112.58305450193416,9.977845458815244,0.033166247903554,0.6239323189455567,-0.19701678449209944
2430170,1883.0,1,187353.0,221161,0.43,0.13,9.96,-0.03,-0.01,-0.01,30.97,0.510684,10.390893226311118,-89.97059979190712,9.970125375340073,0.033166247903554,0.4446826429473939,-0.15748689244765968
2470170,1882.0,1,187371.0,221556,0.4,0.12,9.98,-0.03,-0.01,-0.0,30.97,0.550684,8.62244852764605,-43.53942486884057,9.988733653471796,0.03162277660168379,0.3686548727354688,-0.07631837908889373
2510168,1893.0,1,187545.0,222019,0.4,0.13,9.99,-0.03,-0.01,-0.0,30.97,0.590682,14.308628667485994,73.56880738294309,9.998849933867394,0.03162277660168379,0.6131112571401924,0.12840401119522826
2550170,1896.0,1,187654.0,222443,0.4,0.12,9.98,-0.03,-0.01,-0.0,30.97,0.630684,16.161795295507847,274.10997741206774,9.988733653471796,0.03162277660168379,0.6927813348451994,0.4789794309528057
2590168,1897.0,1,187777.0,222838,0.4,0.12,9.99,-0.03,-0.01,-0.0,30.97,0.670682,15.309010131567558,518.4078871859508,9.998724918708385,0.03162277660168379,0.6561189758055681,0.9060480585689685
2630171,1892.0,1,187964.0,223280,0.39,0.14,9.97,-0.03,-0.01,-0.01,30.97,0.710685,5.410767190293949,713.6222593791803,9.978607117228336,0.033166247903554,0.23058045576644862,1.2473114533343137
2670171,1883.0,1,188085.0,223657,0.39,0.14,9.98,-0.03,-0.01,-0.0,30.97,0.750685,0.15215646055304258,750.1083176144708,9.98859850029022,0.03162277660168379,0.004505844275063129,1.311094442030743
2710170,1899.0,1,188175.0,222991,0.39,0.11,9.97,-0.03,-0.01,-0.01,30.97,0.790684,7.33166743746963,568.7448813431204,9.97823130619851,0.033166247903554,0.3131624911009684,0.9940445176173602
2750171,1889.0,1,187480.0,220694,0.38,0.14,9.96,-0.03,-0.01,-0.01,30.97,0.830685,4.819549445639881,213.67397464096524,9.968229531867733,0.033166247903554,0.2051632250949425,0.3733284215522306
2790170,1899.0,1,186902.0,219725,0.38,0.14,9.98,-0.03,-0.01,-0.01,30.97,0.870684,5.269337518725454,-180.13348523267464,9.988213053394487,0.033166247903554,0.22450020763696266,-0.31510485889993917
2830168,1894.0,1,186817.0,219682,0.37,0.12,9.95,-0.03,-0.01,-0.0,30.97,0.910682,7.853736159588502,-464.51818027408996,9.957600112476902,0.03162277660168379,0.3356069140846493,-0.8122510749227917
2870170,1889.0,1,186852.0,219709,0.39,0.12,9.97,-0.03,-0.01,-0.01,30.97,0.950684,-4.386347357958575,-561.6218756674638,9.978346556419055,0.033166247903554,-0.19061042126618508,-0.9820025966058458
2910171,1881.0,1,186850.0,219742,0.39,0.11,10.0,-0.03,-0.01,-0.0,30.97,0.990685,-6.765640840496488,-491.1341299383107,10.008206632559101,0.03162277660168379,-0.29289938641939134,-0.8587796641617276
2950171,1895.0,1,186944.0,220185,0.38,0.12,9.97,-0.03,-0.01,-0.01,30.97,1.030685,3.1244240507959216,-333.63977894393366,9.977960713492513,0.033166247903554,0.13228754846401397,-0.5834564065918119
2989857,1887.0,1,187103.0,220603,0.4,0.14,9.97,-0.03,-0.01,-0.0,30.85,1.070371,-1.3036659031973097,-171.98135806437503,9.9790029562076,0.03162277660168379,-0.058081879403344125,-0.30085374326354025
3030170,1878.0,1,187239.0,220891,0.39,0.12,9.98,-0.03,-0.01,-0.01,30.85,1.110684,-11.814380554182955,-53.652311314774536,9.988338200121179,0.033166247903554,-0.5099513661062456,-0.09399718992972571
3070171,1878.0,1,187303.0,221198,0.39,0.13,9.97,-0.03,-0.01,-0.0,30.85,1.150685,-9.724235948893355,14.411263293915738,9.978471826888123,0.03162277660168379,-0.42009329257948663,0.024987935344936766
3110171,1879.0,1,187328.0,221445,0.39,0.12,9.95,-0.03,-0.01,-0.0,30.85,1.190685,-8.357501706797231,53.09319809448906,9.958363319341185,0.03162277660168379,-0.36133558476012917,0.09260963879753344
3150168,1873.0,1,187469.0,221789,0.39,0.13,9.96,-0.03,-0.01,-0.0,30.85,1.230682,-13.214410868246683,97.05246168784448,9.96848032550599,0.03162277660168379,-0.5701405159777201,0.16945688808921963
3190170,1875.0,1,187534.0,221977,0.4,0.12,9.99,-0.03,-0.01,-0.0,30.85,1.270684,-9.727084284072681,182.62223095426103,9.998724918708385,0.03162277660168379,-0.4202157462658608,0.3190454128533681
3230168,1878.0,1,187679.0,222133,0.37,0.13,9.97,-0.03,-0.01,-0.01,30.85,1.310682,-5.692941831860281,330.4762859422847,9.97771015814751,0.033166247903554,-0.24678264112522627,0.5775160170827065
3270170,1878.0,1,187786.0,222525,0.38,0.14999999999999997,9.97,-0.03,-0.01,-0.0,30.85,1.350684,-4.461604945321846,521.9422666120346,9.97836659979979,0.03162277660168379,-0.1938458442132965,0.9122266729188394
3310168,1872.0,1,187948.0,222974,0.38,0.13,9.97,-0.03,-0.01,-0.0,30.85,1.390682,-8.027638125082923,686.0630204064562,9.978085988805669,0.03162277660168379,-0.3471543142851242,1.1991338558382036
3350170,1861.0,1,188040.0,223302,0.38,0.14,10.0,-0.03,-0.01,-0.0,30.85,1.430684,-19.59044405002071,722.0423939390961,10.008196640754017,0.03162277660168379,-0.8442545925860806,1.2620310852549266
3390172,1866.0,1,188158.0,222699,0.37,0.14,9.930000000000001,-0.03,-0.01,-0.01,30.85,1.470686,-10.160793503741372,559.1214061799052,9.937877036872615,0.033166247903554,-0.43886147769113826,0.977221269581155
3430170,1875.0,1,187593.0,220672,0.38,0.14999999999999997,10.01,-0.03,-0.01,-0.01,30.85,1.510684,-2.873400217169396,215.9525334923266,10.018333194698606,0.033166247903554,-0.1255668280740781,0.37731167708844965
3470170,1856.0,1,186992.0,219559,0.41,0.11,10.0,-0.03,-0.01,-0.01,30.85,1.550684,-17.735660455371544,-192.84586025717013,10.00900594464805,0.033166247903554,-0.764514999352952,-0.33732795757678946
3510170,1872.0,1,186870.0,218983,0.41,0.14,9.96,-0.03,-0.01,-0.01,30.85,1.590684,-1.5395973418609907,-517.599348337963,9.969418237791011,0.033166247903554,-0.0682248831501005,-0.9050447530114966
3550171,1888.0,1,186791.0,218738,0.37,0.13,9.96,-0.03,-0.01,-0.01,30.85,1.630685,15.390247130315277,-658.4112671348189,9.967717893279284,0.033166247903554,0.6596114615350683,-1.1512046688627322
3590173,1870.0,1,186801.0,219045,0.37,0.13,9.96,-0.03,-0.01,-0.01,30.85,1.670687,0.836574090558689,-611.4744895219641,9.967717893279284,0.033166247903554,0.03392986095047217,-1.0691522877416642
3630171,1879.0,1,186991.0,219959,0.4,0.14,9.97,-0.03,-0.01,-0.01,30.85,1.710685,8.175148236631316,-451.1099297850508,9.9790029562076,0.033166247903554,0.34942484322611167,-0.788811483726994
3670170,1885.0,1,187194.0,220496,0.38,0.12,9.97,-0.03,-0.01,-0.0,30.85,1.750684,18.375974697658204,-272.4884047639689,9.977960713492513,0.03162277660168379,0.7879718278935475,-0.47655482289814755
3710168,1870.0,1,187267.0,220553,0.37,0.12,9.96,-0.03,-0.01,-0.0,30.85,1.790682,2.3793382663482916,-139.9953470152684,9.967592487657189,0.03162277660168379,0.10025532780655308,-0.2449374979943892
3750170,1858.0,1,187350.0,220660,0.4,0.12,9.96,-0.03,-0.01,-0.0,30.85,1.830684,-7.783978216600733,-69.03536532380843,9.96875117554852,0.03162277660168379,-0.33667905342685345,-0.12088902772835491
3790168,1856.0,1,187404.0,220900,0.41,0.12,9.96,-0.03,-0.01,-0.0,30.85,1.870682,-7.987086466949052,-38.05807926770727,9.96915743681481,0.03162277660168379,-0.3454109450134462,-0.0667361819037742
3830171,1866.0,1,187483.0,221252,0.4,0.14999999999999997,9.97,-0.03,-0.01,-0.01,30.85,1.910685,0.4718492989248396,-9.753056851007603,9.979148260247465,0.033166247903554,0.01824986107834594,-0.01725484541041974
3870168,1873.0,1,187600.0,221731,0.42,0.12,9.99,-0.03,-0.01,-0.0,30.85,1.950682,11.8925756979652,53.22896417904999,9.999544989648278,0.03162277660168379,0.509241953155044,0.0928469778540318
3910170,1871.0,1,187773.0,222039,0.41,0.09,10.01,-0.03,-0.01,-0.01,30.85,1.990684,6.182426974372137,174.55612598901894,10.018797333013579,0.033166247903554,0.26375512771970006,0.30494467666245156
3950168,1867.0,1,187799.0,221901,0.41,0.14999999999999997,9.95,-0.03,-0.01,-0.01,30.85,2.030682,6.938581058652768,343.6887175024472,9.959573284031801,0.033166247903554,0.29626318918630545,0.6006132880298619
3990170,1875.0,1,187839.0,222109,0.36,0.14,9.930000000000001,-0.03,-0.01,-0.01,30.85,2.070684,12.239805578999395,497.65445729644074,9.937509748422892,0.033166247903554,0.5241698237443304,0.8697680149556407
4030854,1858.0,1,188016.0,223110,0.39,0.14,9.96,-0.03,-0.01,-0.01,30.81,2.111368,-3.260442508384285,534.4959719024007,9.968615751447139,0.033166247903554,-0.14220628669045163,0.9341723935957651
4069170,1855.0,1,188274.0,222998,0.4,0.12,10.0,-0.03,-0.01,-0.01,30.81,2.149684,-4.905914348536809,374.2442875169979,10.008716201391666,0.033166247903554,-0.21294729151109668,0.6540289122741376
4109168,1867.0,1,187663.0,220708,0.37,0.13,10.0,-0.03,-0.01,-0.0,30.81,2.189682,4.001056849730394,32.541667692889845,10.0076870454666,0.03162277660168379,0.16997514878758485,0.05668254514312374
4149171,1859.0,1,187038.0,219224,0.4,0.12,9.97,-0.03,-0.01,-0.0,30.81,2.229685,0.21362680291356098,-362.25661461200804,9.978742405734302,0.03162277660168379,0.007148535373835781,-0.6334828384462374
4189168,1863.0,1,186837.0,219250,0.41,0.13,9.930000000000001,-0.03,-0.01,-0.01,30.81,2.269682,0.3599474605462693,-640.5165897806039,9.93931084130082,0.033166247903554,0.013439053445537277,-1.1199221445612673
4229171,1856.0,1,186950.0,220005,0.37,0.14,9.96,-0.03,-0.01,-0.0,30.81,2.309685,-5.129317290948539,-700.3211461033865,9.967853329579043,0.03162277660168379,-0.2225516786786276,-1.2244692928262857
4269168,1854.0,1,187149.0,220798,0.38,0.13,9.98,-0.03,-0.01,-0.01,30.81,2.349682,-5.888658506135831,-564.0655865198024,9.988077893168436,0.033166247903554,-0.2551967591068041,-0.9862745620965246
4309171,1872.0,1,187408.0,221428,0.42,0.12,10.01,-0.03,-0.01,-0.0,30.81,2.389685,6.39704708652432,-341.84943399401794,10.019525936889428,0.03162277660168379,0.2729819294296325,-0.5978080894149959
4349168,1861.0,1,187515.0,221522,0.38,0.14,9.95,-0.03,-0.01,-0.0,30.81,2.429682,3.961672922539211,-143.64502728147335,9.9582377959155,0.03162277660168379,0.16828198180939508,-0.2513176751476387
4389170,1867.0,1,187585.0,221706,0.39,0.14,9.95,-0.03,-0.01,-0.0,30.81,2.469684,-2.5419843669946145,-15.49439467964381,9.958624402998637,0.03162277660168379,-0.11131882353048211,-0.027291547195653573
4429168,1856.0,1,187664.0,222351,0.39,0.14,9.98,-0.03,-0.01,-0.0,30.81,2.509682,-0.2485022225366702,62.464155232736346,9.98859850029022,0.03162277660168379,-0.012719000988320685,0.10899144823743145
4469170,1873.0,1,187875.0,223151,0.4,0.12,9.98,-0.03,-0.01,-0.0,30.81,2.549684,1.5845959849855185,137.18292865145494,9.988733653471796,0.03162277660168379,0.06608830884873058,0.2396108385164168
4509168,1858.0,1,188100.0,223616,0.39,0.14999999999999997,9.97,-0.03,-0.01,-0.0,30.81,2.589682,-0.1819058147928744,246.03280985406306,9.978752427032148,0.03162277660168379,-0.009855933577331256,0.4298964182187032
4549171,1857.0,1,188172.0,223865,0.37,0.12,9.96,-0.03,-0.01,-0.01,30.81,2.629685,-14.018787199078183,400.94645272836397,9.967592487657189,0.033166247903554,-0.6047217154297201,0.7007082189524189
4589171,1839.0,1,188291.0,224049,0.36,0.11,9.94,-0.03,-0.01,-0.0,30.81,2.669685,-23.456769059640422,582.1223706564076,9.94712521284416,0.03162277660168379,-1.0104730045148658,1.0174303337598865
4629170,1859.0,1,188380.0,224481,0.38,0.1,9.97,-0.03,-0.01,-0.01,30.81,2.709684,-10.048316648235602,732.1260725191463,9.977740225121117,0.033166247903554,-0.4340259493135714,1.2796588364562793
4669168,1866.0,1,188471.0,224790,0.4,0.14999999999999997,9.97,-0.03,-0.01,-0.0,30.81,2.749682,-1.735553636145702,765.1289042956115,9.979148260247465,0.03162277660168379,-0.07664930271193607,1.3373526337027135
4709171,1865.0,1,188601.0,224793,0.38,0.14999999999999997,9.95,-0.03,-0.01,-0.0,30.81,2.789685,-2.1678542770976925,609.1522632335763,9.958383402942466,0.03162277660168379,-0.09523447748023718,1.0646825560086493
4749168,1873.0,1,188205.0,222588,0.39,0.13,9.98,-0.03,-0.01,-0.01,30.81,2.829682,0.9833797697522473,264.7997693086793,9.988463345279893,0.033166247903554,0.0402412307388284,0.4627038197483743
4789170,1861.0,1,187457.0,221159,0.39,0.14,9.95,-0.03,-0.01,-0.0,30.81,2.869684,-6.00363239088551,-169.8654494458488,9.958624402998637,0.03162277660168379,-0.26013963806520146,-0.29715482422362055
4829168,1872.0,1,187196.0,220888,0.39,0.12,9.97,-0.03,-0.01,-0.0,30.81,2.909682,-2.21016303260542,-542.3113230322979,9.978346556419055,0.03162277660168379,-0.09705338668566618,-0.9482449143561567
4869170,1886.0,1,187143.0,220911,0.41,0.13,9.99,-0.03,-0.01,-0.01,30.81,2.949684,17.312071401683312,-731.1214912074837,9.999254972246682,0.033166247903554,0.7422332218884251,-1.2783128198785063
4909171,1892.0,1,187191.0,221019,0.4,0.14,9.96,-0.03,-0.01,-0.0,30.81,2.989685,17.273858585542857,-709.7566425364363,9.96901198715299,0.03162277660168379,0.7405904025190266,-1.2409639264327275
4949171,1877.0,1,187291.0,221485,0.37,0.12,9.98,-0.03,-0.01,-0.01,30.81,3.029685,5.576920515729083,-545.9652053385597,9.98757728380612,0.033166247903554,0.23772360638668866,-0.9546324372926015
4989171,1873.0,1,187507.0,222084,0.4,0.13,9.97,-0.03,-0.01,-0.01,30.81,3.069685,-1.2189858671253733,-348.3840880196682,9.978867671234047,0.033166247903554,-0.054441372957836076,-0.6092316244311732
5029193,1876.0,1,187613.0,222280,0.4,0.13,9.96,-0.03,-0.01,-0.0,30.81,3.109707,1.4193379462834594,-203.8201102319351,9.968876566594654,0.03162277660168379,0.05898364778604776,-0.356512558379054
5069854,1887.0,1,187671.0,222288,0.4,0.12,9.97,-0.03,-0.01,-0.0,30.79,3.150368,13.700618960734666,-140.7582235635444,9.978742405734302,0.03162277660168379,0.5869721178691686,-0.2462711182485057
5110171,1887.0,1,187708.0,222517,0.39,0.11,9.99,-0.03,-0.01,-0.01,30.79,3.190685,9.795154935614404,-128.3607420832124,9.998214840660307,0.033166247903554,0.4190710680388177,-0.22459849973694035
5150171,1878.0,1,187770.0,222927,0.4,0.13,10.0,-0.03,-0.01,-0.01,30.79,3.230685,4.8303928692681275,-101.51045667361797,10.00884109175483,0.033166247903554,0.2056293981794281,-0.17766025719695583
5190171,1891.0,1,187879.0,223240,0.38,0.12,9.96,-0.03,-0.01,-0.01,30.79,3.270685,12.928399576389024,1.2022199515420506,9.967968699790344,0.033166247903554,0.5537733879622947,0.001896587500121851
5230189,1878.0,1,188011.0,223706,0.38,0.14,9.96,-0.03,-0.01,-0.01,30.79,3.310703,3.537729015848985,197.90327441754295,9.968229531867733,0.033166247903554,0.15005607406971813,0.34575892123519225
5270171,1875.0,1,188159.0,224153,0.4,0.11,9.96,-0.03,-0.01,-0.01,30.79,3.350685,-2.576116346392969,437.63010091727205,9.968635814393062,0.033166247903554,-0.11278620234562692,0.7648366239088576
5310168,1876.0,1,188315.0,224611,0.39,0.13,9.98,-0.03,-0.01,-0.0,30.79,3.390682,0.30697874718640195,609.5515628665802,9.988463345279893,0.03162277660168379,0.011161858591332775,1.0653805904143978
5350170,1872.0,1,188449.0,224856,0.38,0.14999999999999997,9.98,-0.03,-0.01,-0.0,30.79,3.430684,-5.779199299090736,598.1411780300649,9.988358223451941,0.03162277660168379,-0.2504909634169044,1.0454335618163504
5390168,1872.0,1,188366.0,223504,0.38,0.13,9.99,-0.03,-0.01,-0.0,30.79,3.470682,-3.186956136347138,360.81945253579954,9.998069813719045,0.03162277660168379,-0.13904701062648103,0.6305603289501932
5428170,1874.0,1,187607.0,221451,0.4,0.14999999999999997,9.98,-0.03,-0.01,-0.0,30.79,3.508684,-5.152835504247489,-27.88427487875463,9.989139102044781,0.03162277660168379,-0.2235627576893749,-0.048950877551203774
5468168,1869.0,1,187121.0,220827,0.4,0.13,9.96,-0.03,-0.01,-0.01,30.79,3.548682,-5.123745169723452,-409.35883859393147,9.968876566594654,0.033166247903554,-0.22231212583741422,-0.7158244441204243
5508171,1882.0,1,187083.0,220891,0.39,0.13,9.97,-0.03,-0.01,-0.01,30.79,3.588685,2.665382026467481,-633.9644471459541,9.978471826888123,0.033166247903554,0.11255272635190365,-1.1084680368879136
5548171,1872.0,1,187131.0,220856,0.39,0.11,9.98,-0.03,-0.01,-0.0,30.79,3.628685,-3.194474914071744,-644.1768179402352,9.988223065190324,0.03162277660168379,-0.13937025279829018,-1.126320760981451
5588170,1878.0,1,187165.0,221016,0.39,0.12,9.99,-0.03,-0.01,-0.0,30.79,3.668684,1.433655831123972,-489.24809318728205,9.998329860531708,0.03162277660168379,0.05959919254093719,-0.8554825949086956
5628168,1886.0,1,187346.0,221631,0.4,0.14,9.99,-0.03,-0.01,-0.01,30.79,3.708682,7.420706922893361,-273.60597256797337,9.998984948483521,0.033166247903554,0.3169904160243168,-0.47850849556266584
5668171,1872.0,1,187488.0,221751,0.39,0.12,9.96,-0.03,-0.01,-0.0,30.79,3.748685,-0.48211029891518864,-87.79575427527281,9.968354929475575,0.03162277660168379,-0.02276212032587347,-0.1536849430534718
5708168,1883.0,1,187572.0,221673,0.4,0.12,9.97,-0.03,-0.01,-0.0,30.79,3.788682,1.429368849229259,32.10728348472033,9.978742405734302,0.03162277660168379,0.05941488953466284,0.05592317774692787
5748170,1871.0,1,187578.0,221758,0.4,0.14,9.96,-0.03,-0.01,-0.0,30.79,3.828684,0.9442750699856081,104.10813994641042,9.96901198715299,0.03162277660168379,0.0385600681159267,0.18179124999012972
5788168,1878.0,1,187703.0,222044,0.4,0.14,9.95,-0.03,-0.01,-0.0,30.79,3.868682,-3.942586636061613,174.35250716137057,9.959021036226401,0.03162277660168379,-0.17153256250196816,0.3045887210451436
5828171,1874.0,1,187822.0,222203,0.4,0.12,9.96,-0.03,-0.01,-0.0,30.79,3.908685,3.5654285792825005,286.1104098251138,9.96875117554852,0.03162277660168379,0.1512469148380405,0.49995794937805005
5868168,1889.0,1,187913.0,222313,0.39,0.14999999999999997,9.96,-0.03,-0.01,-0.0,30.79,3.948682,9.23605741556876,453.66833986469396,9.968761206890253,0.03162277660168379,0.39503472819048985,0.7928738212102805
5908170,1872.0,1,187983.0,222458,0.4,0.12,9.95,-0.03,-0.01,-0.01,30.79,3.988684,-0.7468518025608687,644.4208342612557,9.958759962967276,0.033166247903554,-0.0341437067672968,1.1263371982473624
5948168,1867.0,1,188030.0,222784,0.4,0.14,9.99,-0.03,-0.01,-0.0,30.79,4.028682,-9.412769486345898,778.8398890092272,9.998984948483521,0.03162277660168379,-0.4067029385236575,1.3613214487872545
5988170,1870.0,1,188120.0,223152,0.4,0.13,9.96,-0.03,-0.01,-0.01,30.79,4.068684,-5.549262503941496,762.6729235859235,9.968876566594654,0.033166247903554,-0.24060567730189658,1.333059218699249
6028168,1863.0,1,188159.0,222324,0.4,0.13,9.96,-0.03,-0.01,-0.01,30.79,4.108682,-10.214143347510255,546.8742793909862,9.968876566594654,0.033166247903554,-0.4411550578443455,0.9558114931535716
6068170,1859.0,1,187379.0,220257,0.4,0.14999999999999997,10.0,-0.03,-0.01,-0.01,30.79,4.148684,-18.779128518773113,176.44896937015017,10.009120840513416,0.033166247903554,-0.809375067755239,0.30825364490462875
6108854,1859.0,1,186914.0,219421,0.39,0.13,9.98,-0.03,-0.01,-0.0,30.67,4.189368,-12.043788503924793,-218.37730501421245,9.988463345279893,0.03162277660168379,-0.5198139164596307,-0.3819606729509822
6149170,1872.0,1,186754.0,219251,0.38,0.14,9.99,-0.03,-0.01,-0.01,30.67,4.229684,-6.603745210264317,-492.69290223700426,9.998204838869826,0.033166247903554,-0.2859392797319175,-0.8615046270850097
6189171,1868.0,1,186746.0,219284,0.4,0.14,9.96,-0.03,-0.01,-0.0,30.67,4.269685,-2.74549715480551,-568.1607510530253,9.96901198715299,0.03162277660168379,-0.12006810671618463,-0.9934335111791616
6229170,1881.0,1,186788.0,219556,0.4,0.12,9.95,-0.03,-0.01,-0.01,30.67,4.309684,3.7601170362928387,-465.81664574431545,9.958759962967276,0.033166247903554,0.15961682840314637,-0.8145209832772653
6269168,1875.0,1,186965.0,220155,0.4,0.14999999999999997,9.99,-0.03,-0.01,-0.0,30.67,4.349682,2.365319204254021,-275.499158722942,9.999129962151708,0.03162277660168379,0.09965262983567819,-0.4818180630238559
6309170,1879.0,1,187123.0,220519,0.38,0.12,9.98,-0.03,-0.01,-0.0,30.67,4.389684,4.869956138337388,-94.41306054313172,9.987952743180156,0.03162277660168379,0.20733027530151218,-0.16525296632860365
6349168,1883.0,1,187203.0,220800,0.39,0.13,9.96,-0.03,-0.01,-0.0,30.67,4.429682,7.799919774515823,22.10798496456119,9.96848032550599,0.03162277660168379,0.333293276705414,0.0384429352836122
6389171,1878.0,1,187273.0,221135,0.39,0.14999999999999997,9.96,-0.03,-0.01,-0.0,30.67,4.469685,6.461441392670741,75.95245811519477,9.968761206890253,0.03162277660168379,0.27575032558833174,0.13257098277464624
6429168,1882.0,1,187405.0,221408,0.39,0.14999999999999997,9.96,-0.03,-0.01,-0.0,30.67,4.509682,6.17238315429395,110.98762473897574,9.968761206890253,0.03162277660168379,0.26332333064652563,0.19381759983400065
6469170,1873.0,1,187504.0,221653,0.41,0.11,9.98,-0.03,-0.01,-0.01,30.67,4.549684,1.4979614017331124,180.5627164065102,9.989023976345237,0.033166247903554,0.062363773841844695,0.3154450789320604
6509171,1873.0,1,187562.0,221927,0.38,0.12,9.99,-0.03,-0.01,-0.01,30.67,4.589685,-0.5579108992143277,309.8909491028855,9.997944788805347,0.033166247903554,-0.026020888115343595,0.5415298248096914
6549170,1868.0,1,187707.0,222227,0.4,0.13,9.96,-0.03,-0.01,-0.0,30.67,4.629684,-5.370792452747161,467.18685862563444,9.968876566594654,0.03162277660168379,-0.23293301439524428,0.8165061775410485
6589168,1858.0,1,187815.0,222669,0.39,0.14999999999999997,9.98,-0.03,-0.01,-0.01,30.67,4.669682,-12.319308745335336,563.8385765713717,9.988743664745833,0.033166247903554,-0.5316588950549508,0.9854675762613057
6629171,1863.0,1,187949.0,223121,0.41,0.12,9.96,-0.03,-0.01,-0.01,30.67,4.709685,-11.326832842774351,497.5816220375482,9.96915743681481,0.033166247903554,-0.48899104690694917,0.8696406882253952
6669170,1862.0,1,187853.0,222086,0.38,0.13,9.98,-0.03,-0.01,-0.01,30.67,4.749684,-6.775025867168755,222.21509633570227,9.988077893168436,0.033166247903554,-0.2933028610950826,0.38825955675453405
6709171,1871.0,1,187152.0,220392,0.4,0.14999999999999997,9.97,-0.03,-0.01,-0.01,30.67,4.789685,-1.520273997370523,-204.98969134489025,9.979148260247465,0.033166247903554,-0.06739414708255137,-0.358557157947089
6749168,1865.0,1,186705.0,220094,0.39,0.13,9.99,-0.03,-0.01,-0.01,30.67,4.829682,-4.21351691497122,-641.0614897057965,9.998454880630307,0.033166247903554,-0.18318021255511438,-1.1208747096628495
6789170,1862.0,1,186709.0,220243,0.37,0.13,9.95,-0.03,-0.01,-0.01,30.67,4.869684,-7.174722017019585,-932.9967946064133,9.95772564394099,0.033166247903554,-0.31048632578492497,-1.631220500717756
6829171,1862.0,1,186753.0,220406,0.37,0.13,9.98,-0.03,-0.01,-0.0,30.67,4.909685,-7.163672526481587,-997.6239738978584,9.987702438499056,0.03162277660168379,-0.31001129361218255,-1.7441983022562437
6869170,1868.0,1,186850.0,220930,0.39,0.12,9.96,-0.03,-0.01,-0.0,30.67,4.949684,0.9439705018653302,-855.4785868616935,9.968354929475575,0.03162277660168379,0.0385469743307041,-1.495707288069134
6909168,1883.0,1,187127.0,221831,0.38,0.13,9.97,-0.03,-0.01,-0.01,30.67,4.989682,16.49819978353055,-608.7841376545671,9.978085988805669,0.033166247903554,0.7072438075099974,-1.0644491575311876
6949170,1874.0,1,187355.0,222954,0.37,0.13,10.0,-0.03,-0.01,-0.01,30.67,5.029684,7.281927331885998,-384.2107462293396,10.0076870454666,0.033166247903554,0.3110240983536669,-0.6718618850332366
6989168,1866.0,1,187703.0,224236,0.38,0.14,9.99,-0.03,-0.01,-0.0,30.67,5.069682,3.4489389489036477,-266.682907917084,9.998204838869826,0.03162277660168379,0.14623887197574412,-0.4664059617256392
7029170,1873.0,1,187907.0,224317,0.42,0.12,9.95,-0.03,-0.01,-0.0,30.67,5.109684,7.568817756382854,-251.36772394151944,9.959583324617551,0.03162277660168379,0.3233578961173817,-0.43963277071394674
7069168,1856.0,1,187859.0,223878,0.37,0.13,9.99,-0.03,-0.01,-0.0,30.67,5.149682,-4.328628268723689,-244.71817981416294,9.9976947342875,0.03162277660168379,-0.18812900148726627,-0.4280083909254675
7109857,1870.0,1,187947.0,224421,0.39,0.12,9.97,-0.03,-0.01,-0.0,30.71,5.190371,8.577136474043218,-130.01034026217565,9.978346556419055,0.03162277660168379,0.366706847783517,-0.22748223963901326
7148168,1858.0,1,188284.0,225993,0.44,0.12,9.96,-0.03,-0.01,-0.0,30.71,5.228682,-1.538919379577165,133.63242046241052,9.970436299380284,0.03162277660168379,-0.0681957366572721,0.23340402871997354
7188162,1835.0,1,188718.0,227852,0.37,0.11,9.97,-0.03,-0.01,-0.01,30.71,5.268676,-22.158928909790763,452.78595918962264,9.977469619096818,0.033166247903554,-0.9546771445939624,0.79133129019032
7228158,1875.0,1,189105.0,229573,0.36,0.13,9.97,-0.03,-0.01,-0.01,30.71,5.308672,18.000653141095228,642.3480829713328,9.977344336044537,0.033166247903554,0.771836259119759,1.1227137245565875
7268162,1874.0,1,189285.0,230327,0.37,0.11,9.99,-0.03,-0.01,-0.01,30.71,5.348676,18.877163542705045,552.5216089058192,9.997454676066305,0.033166247903554,0.8095185974208982,0.9656838545987771
7308161,1850.0,1,188929.0,227774,0.36,0.12,10.01,-0.03,-0.01,-0.0,30.71,5.388675,-2.4448075976829196,184.78438306337674,10.017190224808552,0.03162277660168379,-0.10714106603953891,0.3228251723068653
7348170,1889.0,1,187871.0,226252,0.38,0.14,9.94,-0.03,-0.01,-0.0,30.71,5.428684,35.20318148670266,-298.9432869357,9.948246076570483,0.03162277660168379,1.5113956431995845,-0.5228018425033735
7388168,1879.0,1,187908.0,227377,0.38,0.14,9.930000000000001,-0.03,-0.01,-0.01,30.71,5.468682,30.60756830440679,-678.7171211830045,9.93825437388277,0.033166247903554,1.3138241707807812,-1.186702284167584
7428170,1847.0,1,188214.0,228473,0.37,0.11,10.0,-0.03,-0.01,-0.01,30.71,5.508684,-4.593503350625684,-798.3053721938782,10.007447226940545,0.033166247903554,-0.19951633063412114,-1.3957601114961213
7468168,1849.0,1,188453.0,229457,0.38,0.12,10.0,-0.03,-0.01,-0.01,30.71,5.548682,3.7673527482222164,-613.9513386289799,10.00793685032035,0.033166247903554,0.1599279012030488,-1.07348218376871
7508171,1857.0,1,188809.0,230957,0.4,0.11,9.95,-0.03,-0.01,-0.01,30.71,5.588685,7.500460876762226,-169.55738233573354,9.958644486073393,0.033166247903554,0.32041914369830726,-0.2966162776676865
7548168,1857.0,1,189216.0,232281,0.37,0.12,9.97,-0.03,-0.01,-0.01,30.71,5.628682,14.88193026870739,434.274769424508,9.977584878115547,0.033166247903554,0.6377582491737522,0.7589710116441504
7588162,1886.0,1,189747.0,234030,0.4,0.11,9.96,-0.03,-0.01,-0.01,30.71,5.668676,38.05364305061232,1043.5385661301357,9.968635814393062,0.033166247903554,1.633940745651721,1.8240536140950616
7628168,1872.0,1,190589.0,235638,0.4,0.1,9.98,-0.03,-0.01,-0.01,30.71,5.708682,32.26263154099515,1468.725841896077,9.988513402904358,0.033166247903554,1.3849775223854595,2.5673434216471853
7668162,1861.0,1,191023.0,235685,0.34,0.09,9.99,-0.03,-0.01,-0.01,30.71,5.748676,14.875838360131642,1563.861215936554,9.996189273918336,0.033166247903554,0.6374963499887234,2.733654028507565
7708168,1847.0,1,190618.0,234552,0.36,0.13,9.99,-0.03,-0.01,-0.0,30.71,5.788682,8.048021867357695,1327.8257393546792,9.997329643459798,0.03162277660168379,0.3439595129286435,2.321029347658475
7748170,1838.0,1,189992.0,233062,0.39,0.12,9.98,-0.03,-0.01,-0.0,30.71,5.828684,-5.986044917868135,922.3955235244989,9.988338200121179,0.03162277660168379,-0.2593835294019321,1.6122777826983796
7788168,1817.0,1,189401.0,231470,0.39,0.11,10.01,-0.03,-0.01,-0.0,30.71,5.868682,-22.482119792623642,556.337672487273,10.018198440837553,0.03162277660168379,-0.9685715469426225,0.9723548942246828
7828171,1816.5,1,189323.0,230992,0.45,0.12,9.95,-0.03,-0.01,0.0,30.71,5.908685,-25.853261244019837,321.94577433778045,9.960893534216696,0.03162277660168379,-1.113501364545693,0.5626034298764903
7868158,1816.5,1,189602.0,231165,0.5,0.1,9.930000000000001,-0.03,-0.01,-0.0,30.71,5.948672,-24.11424835179063,137.47882635826488,9.94308302288581,0.03162277660168379,-1.0387389065136268,0.2401281111679882
7908171,1816.5,1,189646.0,228653,0.46,0.09,10.0,-0.03,-0.01,-0.0,30.71,5.988685,-25.460977497864885,-144.07024250659762,10.010978973107475,0.03162277660168379,-1.0966365688678552,-0.25206101381477425
7948168,1816.5,1,188300.0,224445,0.43,0.1,9.97,-0.03,-0.01,-0.0,30.71,6.028682,-25.498915765999094,-564.5597457312574,9.979769536417162,0.03162277660168379,-1.0982675850563306,-0.9871384249779357
7988171,1816.5,1,187927.0,222943,0.47,0.11,10.0,-0.03,-0.01,0.0,30.71,6.068685,-26.388713841967093,-993.1851861747755,10.011643221769342,0.03162277660168379,-1.1365211780048543,-1.7364386493679687
8028157,1816.5,1,188103.0,222174,0.48,0.12,9.930000000000001,-0.03,-0.01,0.0,30.71,6.108671,-27.426806799358122,-1219.3229363174166,9.942318643053039,0.03162277660168379,-1.1811501635098687,-2.1317606506696314
8068162,1816.5,1,188200.0,221469,0.5,0.09,9.930000000000001,-0.03,-0.01,-0.0,30.71,6.148676,-28.15384652586675,-1113.3974693008026,9.942987478620298,0.03162277660168379,-1.2124065603333962,-1.9465873764887047
8108158,1816.5,1,188261.0,221979,0.51,0.1,9.97,-0.03,-0.01,-0.01,30.71,6.188672,-30.279574788998715,-721.2313221345321,9.983536447572073,0.033166247903554,-1.3037944222464029,-1.2610233517173308
8148848,1816.5,1,188907.0,223514,0.51,0.1,9.99,-0.03,-0.01,-0.01,30.85,6.229362,-30.611039879290644,-231.7777759331579,10.003509384211123,0.033166247903554,-1.3180445436875836,-0.4053866643156293
8189168,1816.5,1,189399.0,224181,0.52,0.11,9.94,-0.03,-0.01,-0.0,30.85,6.269682,-33.59074713807253,144.80453449829827,9.954200118542925,0.03162277660168379,-1.446146089040108,0.25293452496242613
8229170,1816.5,1,189322.0,224137,0.49,0.11,9.95,-0.03,-0.01,-0.01,30.85,6.309684,-34.50839946392321,300.7353822374763,9.962665306031312,0.033166247903554,-1.4855971729314386,0.5255245492022277
8269158,1816.5,1,189214.0,224067,0.45,0.1,9.97,-0.03,-0.01,-0.0,30.85,6.349672,-36.25654636219775,276.34117557320803,9.980651281354339,0.03162277660168379,-1.5607523139313428,0.4828798930464022
8309162,1816.5,1,189135.0,223889,0.45,0.1,9.99,-0.03,-0.01,-0.01,30.85,6.389676,-40.40294021505378,205.1539833126356,10.000629980156251,0.033166247903554,-1.739011254847641,0.3584342253339364
8349168,1816.5,1,189139.0,223906,0.46,0.11,9.98,-0.03,-0.01,-0.01,30.85,6.429682,-38.27489052069818,205.02330621088115,9.99120112899345,0.033166247903554,-1.647523591544313,0.35820578256682967
8389170,1818.0,1,189196.0,224159,0.47,0.1,9.97,-0.03,-0.01,-0.0,30.85,6.469684,-45.453946993532824,293.88132967962486,9.981573022324689,0.03162277660168379,-1.956160698640235,0.5135426586400039
8429168,1838.0,1,189170.0,224507,0.49,0.11,9.930000000000001,-0.03,-0.01,-0.01,30.85,6.509682,-20.051381378808056,383.3158309603813,9.942690782680513,0.033166247903554,-0.8640708963368263,0.6698873025989341
8469162,1915.0,1,189084.0,224478,0.43,0.11,9.99,-0.03,-0.01,-0.01,30.85,6.549676,46.65425802819213,347.0139401096879,9.999854998948734,0.033166247903554,2.003692527932656,0.6064262655404223
8509198,1936.0,1,188938.0,223722,0.41,0.11,10.01,-0.03,-0.01,-0.0,30.85,6.589712,72.31075718399545,115.15862536314745,10.018996955783548,0.03162277660168379,3.1066992681107934,0.20110912154206564
8549170,1956.5,1,188378.0,221607,0.45,0.13,9.97,-0.03,-0.01,-0.0,30.85,6.629684,84.65229070484865,-267.10231276302335,9.980996944193501,0.03162277660168379,3.637278072918478,-0.46713914299655834
8589168,1949.0,1,187839.0,220747,0.46,0.12,9.930000000000001,-0.03,-0.01,-0.01,30.85,6.669682,79.4638575388508,-655.638181098912,9.941373144591246,0.033166247903554,3.414220487458112,-1.1463569071740938
8629170,1899.0,1,187689.0,220885,0.43,0.11,10.0,-0.03,-0.01,-0.01,30.85,6.709684,22.620288803790217,-888.792072990556,10.009845153647483,0.033166247903554,0.9704404896570848,-1.553944154751013
8669168,1902.0,1,187637.0,221192,0.44,0.11,9.97,-0.03,-0.01,-0.01,30.85,6.749682,28.059120520694563,-882.4350965832892,9.98031061640869,0.033166247903554,1.2042630391019564,-1.5428312263082256
8709216,1956.5,1,187682.0,222066,0.43,0.1,9.96,-0.03,-0.01,-0.0,30.85,6.78973,75.25948089674547,-678.2820186341693,9.969779335572078,0.03162277660168379,3.233468789951449,-1.1859416610063982
8749168,1956.5,1,187964.0,223414,0.45,0.11,9.97,-0.03,-0.01,-0.01,30.85,6.829682,77.07032891003435,-415.2990161054872,9.980756484355283,0.033166247903554,3.311319534589929,-0.7262087468760418
8789170,1956.5,1,188115.0,223414,0.4,0.13,10.01,-0.03,-0.01,-0.0,30.85,6.869684,73.39026601786792,-240.50146210445445,10.018832267285445,0.03162277660168379,3.15310877677417,-0.4206369490371731
8829168,1956.5,1,188037.0,223095,0.43,0.14,9.95,-0.03,-0.01,-0.0,30.85,6.909682,68.59986599660525,-212.0846228905419,9.960271080648356,0.03162277660168379,2.9471631612201845,-0.3709601403591637
8869170,1956.5,1,187983.0,223074,0.45,0.11,9.96,-0.03,-0.01,-0.0,30.85,6.949684,73.83277747969466,-256.770251137834,9.970767272381801,0.03162277660168379,3.1721329282001673,-0.4490771817509654
8909168,1956.5,1,188041.0,223326,0.45,0.1,9.99,-0.03,-0.01,-0.01,30.85,6.989682,60.667374503122076,-216.46902518375893,10.000629980156251,0.033166247903554,2.6061348887897045,-0.37862471952815635
8949170,1871.0,1,188115.0,223827,0.43,0.12,9.96,-0.03,-0.01,-0.0,30.85,7.029684,-13.93597583800618,34.845524643948714,9.97,0.03162277660168379,-0.6011615457872814,0.06071002547328027
8989168,1830.0,1,188221.0,224793,0.43,0.12,9.94,-0.03,-0.01,-0.01,30.85,7.069682,-68.59397067063419,477.42899586526977,9.95002010048221,0.033166247903554,-2.9509808387040923,0.8344109377530209
9029170,1816.5,1,188991.0,226670,0.45,0.12,9.95,-0.03,-0.01,-0.0,30.85,7.109684,-75.8951219965699,924.3097877819786,9.960893534216696,0.03162277660168379,-3.264866964580547,1.6156241977786119
9069168,1816.5,1,189315.0,227147,0.51,0.14,9.95,-0.03,-0.01,-0.01,30.85,7.149682,-80.2830269729103,1128.8431946464739,9.964045363204646,0.033166247903554,-3.453508787253767,1.9731786338854431
9109162,1816.5,1,189159.0,225666,0.42,0.11,10.01,-0.03,-0.01,-0.01,30.85,7.189676,-85.14813399660872,956.3422089558507,10.019411160342708,0.033166247903554,-3.662666155382596,1.6716215747623544
9149854,1816.5,1,188137.0,222440,0.46,0.12,9.95,-0.03,-0.01,-0.0,30.71,7.230368,-79.15754484856194,487.352811463083,9.961350310073428,0.03162277660168379,-3.4051228261930793,0.8517592249814983
9188170,1847.0,1,187538.0,221299,0.46,0.12,9.97,-0.03,-0.01,-0.0,30.71,7.268684,-60.05958665026505,-33.94907836035932,9.981327567012316,0.03162277660168379,-2.584076412633691,-0.059553044806944816
9228168,1859.0,1,187515.0,221337,0.47,0.11,9.95,-0.03,-0.01,-0.0,30.71,7.308682,-41.027384659562884,-362.53104465621175,9.961701661864803,0.03162277660168379,-1.7658569451726416,-0.6339625824705035
9268171,1870.0,1,187590.0,221558,0.48,0.11,9.95,-0.03,-0.01,-0.01,30.71,7.348685,-35.79170386796522,-394.9193559522789,9.962178476618455,0.033166247903554,-1.5407681219671119,-0.6905821076593155
9308168,1892.0,1,187577.0,221627,0.45,0.13,9.99,-0.03,-0.01,-0.01,30.71,7.388682,-18.16597942706123,-196.4482458796861,10.000974952473383,0.033166247903554,-0.7830149795458026,-0.34362545674645517
9348170,1918.0,1,187745.0,221941,0.44,0.12,9.94,-0.03,-0.01,-0.0,30.71,7.428684,17.537984498025,74.81735718918384,9.950457275924558,0.03162277660168379,0.7519455238843517,0.13058665963767788
9388168,1909.0,1,187893.0,222129,0.43,0.1,9.97,-0.03,-0.01,-0.0,30.71,7.468682,-11.935673291118071,270.86440504895864,9.979769536417162,0.03162277660168379,-0.5151659008547959,0.4733056937676416
9428170,1847.0,1,187988.0,222014,0.47,0.12,9.97,-0.03,-0.01,-0.0,30.71,7.508684,-50.685092015268786,321.6102148204991,9.981793426033219,0.03162277660168379,-2.1810545231166327,0.5620168225548741
9468168,1927.0,1,187941.0,221778,0.46,0.13,9.98,-0.03,-0.01,-0.01,30.71,7.548682,1.0288074846923512,251.9289570296245,9.991441337464781,0.033166247903554,0.04219422812422935,0.4402037494800333
9508170,1926.0,1,187850.0,221416,0.45,0.1,9.98,-0.03,-0.01,-0.01,30.71,7.588684,24.393170000808173,156.7421536035373,9.990640620100395,0.033166247903554,1.0466589907850368,0.27380323649989974
9548168,1933.0,1,187760.0,221490,0.47,0.13,9.930000000000001,-0.03,-0.01,-0.0,30.71,7.628682,8.475648208572396,145.7151979348791,9.941966606260555,0.03162277660168379,0.3623437333857374,0.25452649840354463
9588170,1938.0,1,187874.0,221790,0.46,0.14,9.98,-0.03,-0.01,-0.0,30.71,7.668684,28.437919085993983,274.3150336275538,9.991576452192117,0.03162277660168379,1.2205480890675735,0.47933789933517074
9628168,1945.0,1,188020.0,222179,0.44,0.11,9.96,-0.03,-0.01,-0.01,30.71,7.708682,23.877030935786347,493.5686023162139,9.970320957722475,0.033166247903554,1.0244694915813022,0.8626253403389843
9668170,1935.0,1,188159.0,222633,0.44,0.08,9.96,-0.03,-0.01,-0.0,30.71,7.748684,18.09427580408528,657.4188395407831,9.970035105254144,0.03162277660168379,0.7758612208919927,1.149059620562041
9708168,1956.5,1,188256.0,222818,0.44,0.13,9.99,-0.03,-0.01,-0.0,30.71,7.788682,37.50343242436358,601.5712452305306,10.000529985955744,0.03162277660168379,1.6102864650897246,1.0514298230749504
9748170,1956.5,1,188079.0,221262,0.44,0.11,10.0,-0.03,-0.01,-0.0,30.71,7.828684,34.63404420721434,255.34186867402224,10.010279716371565,0.03162277660168379,1.4869276808501588,0.4461700203068989
9788168,1952.0,1,187235.0,218503,0.44,0.1,9.97,-0.03,-0.01,-0.0,30.71,7.868682,33.12196168819915,-292.05966403351664,9.980205408707779,0.03162277660168379,1.4219212588885703,-0.5107682586361041
9828170,1954.0,1,186575.0,217074,0.46,0.12,9.97,-0.03,-0.01,-0.0,30.71,7.908684,30.220577714175498,-830.2903479714095,9.981327567012316,0.03162277660168379,1.297186934857887,-1.451674546958503
9868168,1943.0,1,186405.0,217262,0.44,0.13,9.98,-0.03,-0.01,-0.0,30.71,7.948682,21.620098034913276,-1152.7891938078092,9.990540525917504,0.03162277660168379,0.927440969230087,-2.0154498965987306
9908170,1956.5,1,186504.0,217822,0.46,0.11,10.0,-0.03,-0.01,-0.01,30.71,7.988684,34.202126385145824,-1177.244686536151,10.011178751775438,0.033166247903554,1.4683589639706045,-2.058201689795966
9948168,1952.0,1,186721.0,218546,0.44,0.13,9.96,-0.03,-0.01,-0.0,30.71,8.028682,26.31787570004122,-975.9427317380389,9.970561669234087,0.03162277660168379,1.1294046275229752,-1.7062963065216994
9988170,1929.0,1,186953.0,219228,0.44,0.12,10.0,-0.03,-0.01,-0.0,30.71,8.068684,9.423585530031273,-706.0195433603024,10.010394597617019,0.03162277660168379,0.40309680918482,-1.2344309281852426
10028168,1931.0,1,187121.0,219585,0.44,0.11,9.97,-0.03,-0.01,-0.01,30.71,8.108682,2.5218222326531725,-502.2542365748524,9.98031061640869,0.033166247903554,0.1063809014573935,-0.8782192438315204
10068171,1882.0,1,187211.0,219898,0.46,0.13,9.97,-0.03,-0.01,-0.0,30.71,8.148685,-36.888586067064516,-406.20205080305203,9.981452800068736,0.03162277660168379,-1.5879245345174298,-0.7103059154077792
10108171,1872.0,1,187326.0,220407,0.44,0.12,10.0,-0.03,-0.01,-0.0,30.71,8.188685,-55.49583046357367,-363.38662913450264,10.010394597617019,0.03162277660168379,-2.387874514475982,-0.6354582698027922
10148204,1883.0,1,187520.0,220832,0.45,0.11,9.96,-0.03,-0.01,-0.01,30.71,8.228718,-37.78013896077574,-272.64845426706023,9.970767272381801,0.033166247903554,-1.6262535693953766,-0.4768346129368717
10188857,1886.0,1,187677.0,221191,0.45,0.12,9.99,-0.03,-0.01,-0.0,30.85,8.269371,-37.54381189914964,-51.978144751866324,10.00084996387807,0.03162277660168379,-1.6160935572956308,-0.09107050088402796
10227170,1901.0,1,188148.0,221755,0.47,0.11,10.01,-0.03,-0.01,-0.0,30.85,8.307684,-22.82394767544204,309.3329465023029,10.021631603686098,0.03162277660168379,-0.9832671785032607,0.5405543543070677
10267171,1906.0,1,188509.0,222749,0.47,0.12,9.94,-0.03,-0.01,-0.0,30.85,8.347685,-11.812679885619856,731.2962148029955,9.951828977630191,0.03162277660168379,-0.5098782521214997,1.2782081232828377
10307170,1904.0,1,188754.0,224181,0.47,0.12,9.97,-0.03,-0.01,-0.01,30.85,8.387684,-23.158725039404015,1067.9206665926872,9.981793426033219,0.033166247903554,-0.9976596989584767,1.8666771068321841
10347189,1905.0,1,189104.0,225570,0.46,0.12,9.96,-0.03,-0.01,-0.01,30.85,8.427703,-6.322895888736114,1174.5614913952656,9.97133892714514,0.033166247903554,-0.27386519695316885,2.0531009314913735
10387170,1931.0,1,189263.0,224718,0.45,0.12,10.01,-0.03,-0.01,-0.0,30.85,8.467684,2.1240935119222035,990.1992486123723,10.020828309077048,0.03162277660168379,0.08928201914049498,1.7308086528451752
10427171,1914.0,1,188353.0,222497,0.45,0.13,9.98,-0.03,-0.01,-0.01,30.85,8.507685,6.923000824847385,582.266692548607,9.990985937333713,0.033166247903554,0.29559337438435096,1.0176826296247736
10467170,1956.5,1,187916.0,221827,0.45,0.12,9.96,-0.03,-0.01,-0.0,30.85,8.547684,30.889923200952065,114.19819620099612,9.970882608876709,0.03162277660168379,1.3259629802153994,0.19943015030329347
10507171,1919.0,1,187864.0,221517,0.47,0.13,9.98,-0.03,-0.01,-0.01,30.85,8.587685,11.510153011135126,-246.70182570323703,9.991906724944943,0.033166247903554,0.4928010974245304,-0.4314760952881754
10547170,1907.0,1,187782.0,221117,0.44,0.11,9.94,-0.03,-0.01,-0.01,30.85,8.627684,-10.2742032418679,-413.5170081082339,9.95034170267534,0.033166247903554,-0.4437371119230636,-0.7230935351638645
10587171,1904.0,1,187728.0,221073,0.46,0.11,9.96,-0.03,-0.01,-0.01,30.85,8.667685,-6.010542083007372,-401.2194280219717,9.971223595928436,0.033166247903554,-0.2604366948435517,-0.7015955589621814
10627170,1899.0,1,187858.0,221699,0.45,0.12,10.0,-0.03,-0.01,-0.0,30.85,8.707684,-9.424868403908793,-288.3029323419699,10.010839125667738,0.03162277660168379,-0.40722308694841697,-0.5042009398681457
10667168,1918.0,1,188045.0,222192,0.44,0.1,9.97,-0.03,-0.01,-0.0,30.85,8.747682,8.129970473085518,-160.4824293663534,9.980205408707779,0.03162277660168379,0.34748259158084316,-0.28075192699067253
10707170,1922.0,1,188180.0,222519,0.45,0.12,9.99,-0.03,-0.01,-0.01,30.85,8.787684,19.38943495416582,-71.82236331459092,10.00084996387807,0.033166247903554,0.8315418210965257,-0.12576110955743866
10747170,1920.0,1,188256.0,222690,0.45,0.11,9.98,-0.03,-0.01,-0.0,30.85,8.827684,14.122981640440452,-32.28972888596037,9.990745717913153,0.03162277660168379,0.6051300465751124,-0.056652258208225746
10787170,1927.0,1,188360.0,222877,0.47,0.11,9.96,-0.03,-0.01,-0.01,30.85,8.867684,27.904551989915266,-14.8320213045548,9.971689926988304,0.033166247903554,1.1976179340845623,-0.02613362124970268
10827171,1925.0,1,188450.0,223120,0.46,0.11,9.99,-0.03,-0.01,-0.01,30.85,8.907685,24.89114329347183,25.24468641020879,10.001189929203424,0.033166247903554,1.068067519474052,0.04392635011460379
10867170,1902.0,1,188608.0,223427,0.45,0.13,9.99,-0.03,-0.01,-0.01,30.85,8.947684,6.161737172912212,122.06674561130298,10.000974952473383,0.033166247903554,0.26286564586464806,0.2131855303681497
10907170,1893.0,1,188706.0,223769,0.47,0.13,10.01,-0.03,-0.01,-0.0,30.85,8.987684,-1.331047160679457,268.9915723536923,10.021871082786886,0.03162277660168379,-0.05925903577896484,0.4700317071434319
10947170,1878.0,1,188836.0,224146,0.47,0.11,9.96,-0.03,-0.01,-0.0,30.85,9.027684,-13.850241608803,403.7914546175642,9.971689926988304,0.03162277660168379,-0.5974757181885579,0.7056817001152775
10987171,1883.0,1,188970.0,224515,0.46,0.12,9.96,-0.03,-0.01,-0.0,30.85,9.067685,-6.401899702764653,430.09405195693137,9.97133892714514,0.03162277660168379,-0.27726167512597316,0.7516625034666492
11027172,1904.0,1,189084.0,224585,0.46,0.12,9.96,-0.03,-0.01,-0.01,30.85,9.107686,17.226239557852082,276.18190181804346,9.97133892714514,0.033166247903554,0.7385431977080861,0.48260145912899227
11067170,1895.0,1,188686.0,222675,0.48,0.13,9.98,-0.03,-0.01,-0.0,30.85,9.147684,9.487491109002482,-44.136619244715,9.992382098378744,0.03162277660168379,0.4058441943176153,-0.07736236257103178
11107171,1887.0,1,188093.0,221658,0.46,0.13,9.95,-0.03,-0.01,-0.01,30.85,9.187685,5.633397184902911,-420.2801648582926,9.961475794278677,0.033166247903554,0.24015161288840392,-0.7349165265037165
11147171,1897.0,1,187961.0,221598,0.46,0.13,9.98,-0.03,-0.01,-0.0,30.85,9.227685,15.525722735805346,-702.0903917098659,9.991441337464781,0.03162277660168379,0.6654357365103024,-1.22756219400491
11187171,1886.0,1,188066.0,221766,0.46,0.11,9.95,-0.03,-0.01,-0.0,30.85,9.267685,8.66674490475022,-786.0436886590004,9.961234863208476,0.03162277660168379,0.3705592324150442,-1.3743248877385754
11227857,1891.0,1,188180.0,222003,0.47,0.1,9.96,-0.03,-0.01,-0.0,30.79,9.308371,14.613996867962502,-666.9445301915973,9.971584628332652,0.03162277660168379,0.6262394388658535,-1.1661220660116443
11268170,1888.0,1,188431.0,222656,0.45,0.12,9.94,-0.03,-0.01,-0.0,30.79,9.348684,13.337994403593932,-424.939299282051,9.950904481503176,0.03162277660168379,0.5713824098481556,-0.7430613777882625
11308171,1859.0,1,188695.0,223185,0.47,0.11,9.99,-0.03,-0.01,-0.0,30.79,9.388685,-12.790009295606604,-169.21582614566387,10.00165486307141,0.03162277660168379,-0.5518949325751878,-0.2960191872812732
11348170,1855.0,1,188885.0,223497,0.48,0.11,9.99,-0.03,-0.01,-0.01,30.79,9.428684,-16.35664830605843,18.98958907922151,10.002129773203306,0.033166247903554,-0.7052294481075142,0.03299152126067372
11388171,1862.0,1,189043.0,223774,0.46,0.14,9.97,-0.03,-0.01,-0.01,30.79,9.468685,-7.7153584337067675,116.16826383413778,9.98158805000487,0.033166247903554,-0.3337289984492831,0.20287411788032092
11428170,1856.0,1,189128.0,224073,0.47,0.12,9.94,-0.03,-0.01,-0.0,30.79,9.508684,-10.574984738961938,155.04274421776464,9.951828977630191,0.03162277660168379,-0.4566681052203526,0.27083241929228746
11468170,1855.0,1,189251.0,224385,0.48,0.1,9.99,-0.03,-0.01,-0.0,30.79,9.548684,-14.953898290660455,199.5526910627082,10.002024795010257,0.03162277660168379,-0.6449233746883364,0.3486423437895234
11508170,1842.0,1,189353.0,224651,0.47,0.11,9.96,-0.03,-0.01,-0.01,30.79,9.588684,-19.73971634908729,305.21568290566245,9.971689926988304,0.033166247903554,-0.8506720056163022,0.53335677281577
11548171,1855.0,1,189457.0,225019,0.47,0.12,9.98,-0.03,-0.01,-0.01,30.79,9.628685,-15.666167687293843,477.37370666794254,9.991781622913903,0.033166247903554,-0.6755447755481468,0.8343142841154749
11588170,1854.0,1,189618.0,225516,0.47,0.12,9.98,-0.03,-0.01,-0.01,30.79,9.668684,-4.905204315108795,650.0798929713557,9.991781622913903,0.033166247903554,-0.2129167662374771,1.1362300640486238
11628171,1858.0,1,189753.0,225906,0.48,0.13,9.96,-0.03,-0.01,-0.01,30.79,9.708685,-12.149409052442326,710.4684443731592,9.97240693112751,0.033166247903554,-0.524354683156158,1.2417981214862297
11668170,1840.0,1,189843.0,225973,0.45,0.11,9.97,-0.03,-0.01,-0.0,30.79,9.748684,-19.308152548828865,568.9608092372016,9.980756484355283,0.03162277660168379,-0.8321185086013262,0.9944219912906908
11708170,1863.0,1,189490.0,223852,0.47,0.12,9.97,-0.03,-0.01,-0.0,30.79,9.788684,-4.962521563354211,232.8541800613605,9.981793426033219,0.03162277660168379,-0.21538091034222165,0.406858237725713
11748170,1858.0,1,188736.0,222663,0.48,0.12,9.96,-0.03,-0.01,-0.0,30.79,9.828684,-4.417457139532866,-178.2315129427152,9.972281584472032,0.03162277660168379,-0.1919478718105299,-0.3117799319843189
11788185,1851.0,1,188530.0,222596,0.47,0.1,9.97,-0.03,-0.01,-0.0,30.79,9.868699,-14.56895231023431,-498.2227406670032,9.981573022324689,0.03162277660168379,-0.6283740392378496,-0.8711715968573858
11828170,1856.0,1,188621.0,222711,0.46,0.13,9.99,-0.03,-0.01,-0.01,30.79,9.908684,-10.045682045213722,-615.5637089833499,10.001429897769619,0.033166247903554,-0.43391268425456314,-1.0763008439655457
11868170,1857.0,1,188701.0,222799,0.47,0.11,9.95,-0.03,-0.01,-0.0,30.79,9.948684,-8.078512967451234,-532.3547912088151,9.961701661864803,0.03162277660168379,-0.3493414908635411,-0.930839434360003
11908170,1860.0,1,188808.0,223313,0.48,0.1,9.94,-0.03,-0.01,-0.01,30.79,9.988684,-8.616644815403424,-344.03837567336615,9.952085208638438,0.033166247903554,-0.3724764888144024,-0.6016346809719859
11948171,1863.0,1,189008.0,223671,0.47,0.11,9.98,-0.03,-0.01,-0.01,30.79,10.028685,-3.778553658576486,-166.84414815320034,9.99166652766194,0.033166247903554,-0.16448056843688313,-0.2918731458095048
11989170,1873.0,1,189063.0,223796,0.48,0.11,9.95,-0.03,-0.01,-0.01,30.79,10.069684,2.1948845531881305,-69.1706276115542,9.962178476618455,0.033166247903554,0.09232541937941201,-0.12112548607402504
12027173,1872.0,1,189114.0,224081,0.47,0.12,9.97,-0.03,-0.01,-0.0,30.79,10.107687,2.964852873023507,-44.74308543207658,9.981793426033219,0.03162277660168379,0.12542737305378754,-0.07842255454144956
12067170,1879.0,1,189176.0,224322,0.45,0.12,9.96,-0.03,-0.01,-0.01,30.79,10.147684,4.89956483823682,-31.240584479407595,9.970882608876709,0.033166247903554,0.2086031923646961,-0.05481819969216074
12107171,1885.0,1,189270.0,224650,0.45,0.1,9.98,-0.03,-0.01,-0.01,30.79,10.187685,14.284446904541582,43.5059048115397,9.990640620100395,0.033166247903554,0.6120716512549506,0.0758496420022577
12147170,1887.0,1,189366.0,224896,0.44,0.12,10.0,-0.03,-0.01,-0.01,30.79,10.227684,8.705348314335808,211.13755291448058,10.010394597617019,0.033166247903554,0.37221884391185006,0.3688943838366061
12187184,1877.0,1,189573.0,225335,0.47,0.11,9.96,-0.03,-0.01,-0.0,30.79,10.267698,4.089642508325033,431.1816205870684,9.971689926988304,0.03162277660168379,0.17378356309694337,0.7535637331691092
12227857,1891.0,1,189671.0,225603,0.46,0.13,9.97,-0.03,-0.01,-0.0,30.65,10.308371,9.693555852426314,598.6295811993966,9.981452800068736,0.03162277660168379,0.4147031894412019,1.0462873622907094
12268171,1878.0,1,189774.0,225775,0.47,0.11,9.97,-0.03,-0.01,-0.01,30.65,10.348685,0.6750487843802258,597.4235923610573,9.98167821561084,0.033166247903554,0.02698567498253262,1.044179116671307
12308170,1883.0,1,189783.0,224801,0.47,0.13,9.96,-0.03,-0.01,-0.0,30.65,10.388684,0.852297379519057,376.5031602810394,9.971930605454492,0.03162277660168379,0.034605825882232225,0.6579777536383214
12348171,1891.0,1,189068.0,222689,0.45,0.11,9.99,-0.03,-0.01,-0.0,30.65,10.428685,7.837375638974321,-2.929821157534864,10.000734972990735,0.03162277660168379,0.3349035537235698,-0.00532682725336655
12388171,1885.0,1,188579.0,221950,0.47,0.11,9.95,-0.03,-0.01,-0.0,30.65,10.468685,2.207697879865579,-391.6085687150732,9.961701661864803,0.03162277660168379,0.09287628119432698,-0.6847943652957755
12428171,1890.0,1,188489.0,221931,0.46,0.12,9.99,-0.03,-0.01,-0.01,30.65,10.508685,2.5354063510215648,-637.7050180893353,10.00130491485986,0.033166247903554,0.10696490062379284,-1.1150071042944638
12468170,1891.0,1,188535.0,221954,0.47,0.1,9.98,-0.03,-0.01,-0.0,30.65,10.548684,5.248400157558421,-671.6960386034226,9.991561439534864,0.03162277660168379,0.22360008286356556,-1.1744284005947894
12508168,1891.0,1,188610.0,222203,0.47,0.12,9.95,-0.03,-0.01,-0.0,30.65,10.588682,2.412008462915699,-531.3453763628705,9.961817103320055,0.03162277660168379,0.1016598626496727,-0.9290748289511728
12548170,1894.0,1,188785.0,222803,0.47,0.13,10.01,-0.03,-0.01,-0.01,30.65,10.628684,3.040469814911453,-320.04997021738563,10.021871082786886,0.033166247903554,0.1286782451259111,-0.559699424930426
12588171,1898.0,1,188919.0,223175,0.47,0.1,9.96,-0.03,-0.01,-0.0,30.65,10.668685,10.055424743660794,-138.93525835168208,9.971584628332652,0.03162277660168379,0.4302604103881656,-0.24308430730958838
12628171,1909.0,1,189010.0,223291,0.46,0.12,9.96,-0.03,-0.01,-0.0,30.65,10.708685,13.234608833277962,-37.45190563811054,9.97133892714514,0.03162277660168379,0.5669377278124975,-0.06567650136729888
12668171,1904.0,1,189057.0,223554,0.47,0.11,9.97,-0.03,-0.01,-0.01,30.65,10.748685,15.488053010963343,-1.226773303308689,9.98167821561084,0.033166247903554,0.6638162653521734,-0.0023496494684963737
12708170,1915.0,1,189123.0,223822,0.47,0.1,9.96,-0.03,-0.01,-0.0,30.65,10.788684,17.54711590924788,28.345267225945612,9.971584628332652,0.03162277660168379,0.7523380952973495,0.04934662077928259
12748168,1904.0,1,189204.0,224174,0.45,0.11,9.96,-0.03,-0.01,-0.01,30.65,10.828682,12.164423439411046,116.11929250204875,9.970767272381801,0.033166247903554,0.5209290461327758,0.20278850879914967
12788170,1911.0,1,189331.0,224499,0.48,0.12,9.96,-0.03,-0.01,-0.01,30.65,10.868684,14.925517802837106,289.9094113279454,9.972281584472032,0.033166247903554,0.6396321347588769,0.506599161984526
12828170,1905.0,1,189426.0,224874,0.46,0.12,9.97,-0.03,-0.01,-0.01,30.65,10.908684,8.862793304629443,509.2647109197775,9.981327567012316,0.033166247903554,0.3789876117178771,0.8900644435488422
12868170,1892.0,1,189585.0,225290,0.48,0.12,9.98,-0.03,-0.01,-0.01,30.65,10.948684,-2.629494589311264,669.7947693826378,9.992257002299331,0.033166247903554,-0.11508100341572645,1.1706945636441444
12908170,1906.0,1,189738.0,225548,0.47,0.11,9.97,-0.03,-0.01,-0.0,30.65,10.988684,7.7976051278960234,656.0893993533622,9.98167821561084,0.03162277660168379,0.3331937669941605,1.1467355638524885
12948170,1899.0,1,189659.0,224253,0.45,0.12,9.97,-0.03,-0.01,-0.0,30.65,11.028684,3.4750035821158987,420.55231001763485,9.980871705417318,0.03162277660168379,0.14735942493734647,0.7349821371104464
12988171,1892.0,1,188869.0,222402,0.46,0.12,9.99,-0.03,-0.01,-0.0,30.65,11.068685,-5.285315347280857,30.957730686637078,10.00130491485986,0.03162277660168379,-0.22925824088512084,0.0539135906149539
13027172,1904.0,1,188439.0,221746,0.48,0.11,9.97,-0.03,-0.01,-0.0,30.65,11.107686,6.096097356159781,-359.13060420389803,9.982154076150097,0.03162277660168379,0.2600437035621413,-0.628018113119111
13067171,1894.0,1,188383.0,221709,0.48,0.12,9.96,-0.03,-0.01,-0.01,30.65,11.147685,-1.4183642275312989,-601.395628295487,9.972281584472032,0.033166247903554,-0.06301291165600093,-1.0515329579819075
13107170,1885.0,1,188404.0,221780,0.48,0.12,9.96,-0.03,-0.01,-0.0,30.65,11.187684,-14.59516674044285,-635.9118814325923,9.972281584472032,0.03162277660168379,-0.6295010321699078,-1.1118724380509732
13147171,1885.0,1,188434.0,222090,0.47,0.12,9.97,-0.03,-0.01,-0.01,30.65,11.227685,-9.394703428632761,-507.6321701190144,9.981793426033219,0.033166247903554,-0.40592625487305395,-0.8876206615523761
13187170,1890.0,1,188622.0,222764,0.45,0.12,9.97,-0.03,-0.01,-0.0,30.65,11.267684,-9.625390539435857,-317.14358015314474,9.980871705417318,0.03162277660168379,-0.4158437980477034,-0.5546186282211891
13227171,1883.0,1,188804.0,223131,0.47,0.11,9.95,-0.03,-0.01,-0.0,30.65,11.307685,-11.640161662207047,-152.9650605331988,9.961701661864803,0.03162277660168379,-0.5024614661417631,-0.2676104621544349
13267857,1889.0,1,188807.0,223317,0.45,0.12,9.94,-0.03,-0.01,-0.01,30.59,11.348371,-9.083569626688478,-51.12463079637091,9.950904481503176,0.033166247903554,-0.39255020233534177,-0.08957843312969453
13308171,1879.0,1,188884.0,223616,0.47,0.13,9.94,-0.03,-0.01,-0.0,30.59,11.388685,-16.802487241264753,4.898594700062438,9.95195458188993,0.03162277660168379,-0.7243966520031083,0.00835839346672535
13348170,1873.0,1,189005.0,224004,0.48,0.12,9.98,-0.03,-0.01,-0.0,30.59,11.428684,-22.710782464442715,59.73680395490469,9.992257002299331,0.03162277660168379,-0.9784020568150704,0.10422363762321524
13388170,1875.0,1,189151.0,224354,0.46,0.13,9.94,-0.03,-0.01,-0.01,30.59,11.468684,-21.90014923149523,158.17779115314266,9.95148732602318,0.033166247903554,-0.9435518648881168,0.27631294179632115
13428170,1872.0,1,189281.0,224710,0.46,0.11,9.96,-0.03,-0.01,-0.0,30.59,11.508684,-21.618935239583553,321.5136586094409,9.971223595928436,0.03162277660168379,-0.9314621044485746,0.5618480281162208
13468171,1890.0,1,189366.0,225046,0.47,0.12,9.96,-0.03,-0.01,-0.01,30.59,11.548685,-7.0292265543495365,527.4059683454474,9.97180525281155,0.033166247903554,-0.304231283933118,0.921778026031735
13508170,1901.0,1,189495.0,225425,0.47,0.09,9.95,-0.03,-0.01,-0.01,30.59,11.588684,8.718196727372856,701.8569908669454,9.96150089093004,0.033166247903554,0.37277121413564385,1.2267440359474582
13548171,1904.0,1,189656.0,225747,0.46,0.12,9.96,-0.03,-0.01,-0.0,30.59,11.628685,7.837453369571049,742.868094943142,9.97133892714514,0.03162277660168379,0.33490689546445135,1.2984374693913054
13588170,1898.0,1,189770.0,225407,0.46,0.12,9.99,-0.03,-0.01,-0.0,30.59,11.668684,6.597415973833075,579.6061702043883,10.00130491485986,0.03162277660168379,0.28159605218587613,1.0130316458020332
13628177,1894.0,1,189173.0,223139,0.47,0.11,9.98,-0.03,-0.01,-0.0,30.59,11.708691,-0.6025774490217957,231.6097060262901,9.99166652766194,0.03162277660168379,-0.02794116200769947,0.40468271432989933
13668170,1881.0,1,188550.0,222031,0.48,0.12,9.97,-0.03,-0.01,-0.0,30.59,11.748684,-9.670839868314854,-185.05864235046886,9.98226928108033,0.03162277660168379,-0.4177977246448466,-0.32371475692582563
13708171,1890.0,1,188389.0,221889,0.47,0.13,9.99,-0.03,-0.01,-0.0,30.59,11.788685,-2.617902566817346,-520.0874601001304,10.001894820482766,0.03162277660168379,-0.11458264707858776,-0.9093943378139536
13748170,1883.0,1,188388.0,221994,0.46,0.11,9.96,-0.03,-0.01,-0.0,30.59,11.828684,-6.5345598969441685,-674.0232055700411,9.971223595928436,0.03162277660168379,-0.282964911855379,-1.17849663025581
13788170,1879.0,1,188346.0,222112,0.49,0.12,9.94,-0.03,-0.01,-0.0,30.59,11.868684,-11.88318745637848,-642.4489596878522,9.952793577684607,0.03162277660168379,-0.5129094655894042,-1.1233002109765677
13828197,1889.0,1,188497.0,222649,0.47,0.11,9.99,-0.03,-0.01,-0.0,30.59,11.908711,1.717073897538999,-496.4273007440696,10.00165486307141,0.03162277660168379,0.07178370905059978,-0.8680329041663012
13868170,1883.0,1,188667.0,223119,0.45,0.13,9.930000000000001,-0.03,-0.01,-0.01,30.59,11.948684,-6.489402022448375,-327.5024825107813,9.941041192953584,0.033166247903554,-0.2810235152666042,-0.5727275110093407
13908170,1867.0,1,188782.0,223337,0.48,0.11,9.95,-0.03,-0.01,-0.01,30.59,11.988684,-17.582367414343178,-199.80025386560237,9.962178476618455,0.033166247903554,-0.7579247293223486,-0.3494852590330514
13948171,1885.0,1,188872.0,223532,0.47,0.11,9.97,-0.03,-0.01,-0.01,30.59,12.028685,-1.946912942273866,-130.93647161714406,9.98167821561084,0.033166247903554,-0.08573591806982316,-0.22910125327332864
13988170,1890.0,1,188934.0,223749,0.45,0.12,9.97,-0.03,-0.01,-0.0,30.59,12.068684,7.039442919718805,-97.80626891572457,9.980871705417318,0.03162277660168379,0.3005993736324825,-0.17118479294243014
14028171,1888.0,1,189042.0,224110,0.47,0.09,9.97,-0.03,-0.01,-0.0,30.59,12.108685,5.626086508508707,-54.21125415963216,9.98147784649147,0.03162277660168379,0.23983731726727886,-0.09497430411744086
14067170,1881.0,1,189200.0,224391,0.46,0.12,9.95,-0.03,-0.01,-0.0,30.59,12.147684,-0.9504159306120925,46.16891509851254,9.961350310073428,0.03162277660168379,-0.04289519713764991,0.08050497511434968
14107171,1875.0,1,189282.0,224750,0.48,0.11,9.98,-0.03,-0.01,-0.01,30.59,12.187685,-2.5256728842683858,221.52021138979106,9.992141912523062,0.033166247903554,-0.11061757137288758,0.3870447958076389
14147170,1886.0,1,189488.0,225156,0.45,0.11,9.95,-0.03,-0.01,-0.01,30.59,12.227684,6.929551494565922,435.52918433450765,9.960778082057645,0.033166247903554,0.2958749963160241,0.7611639131494095
14187171,1887.0,1,189630.0,225561,0.48,0.1,9.97,-0.03,-0.01,-0.0,30.59,12.267685,12.325685382857964,594.7229007668788,9.98204888787868,0.03162277660168379,0.5278619097895052,1.0394579110997657
14227170,1892.0,1,189770.0,225906,0.47,0.12,9.99,-0.03,-0.01,-0.0,30.59,12.307684,18.741649867006153,589.5268042869021,10.00176984338272,0.03162277660168379,0.8036926857571713,1.0303743712744813
14267171,1888.0,1,189817.0,224994,0.46,0.11,9.97,-0.03,-0.01,-0.0,30.59,12.347685,14.707785553235132,366.77092754329414,9.981212351212653,0.03162277660168379,0.6302715381550021,0.640964381388035
14307857,1875.0,1,189064.0,222935,0.48,0.13,9.97,-0.03,-0.01,-0.01,30.57,12.388371,8.271048725638686,-17.72447471117435,9.982394502322578,0.033166247903554,0.353547731743331,-0.031190054634466596
14346171,1886.0,1,188638.0,222295,0.47,0.12,9.98,-0.03,-0.01,-0.0,30.57,12.426685,15.533605772637127,-416.7865288651185,9.991781622913903,0.03162277660168379,0.6657746386615946,-0.728809137658776
14386171,1875.0,1,188525.0,222336,0.47,0.1,9.96,-0.03,-0.01,-0.0,30.57,12.466685,12.619901086096693,-675.4032706767309,9.971584628332652,0.03162277660168379,0.5405106309485322,-1.1809091867597952
14426168,1872.0,1,188630.0,222475,0.46,0.1,9.96,-0.03,-0.01,-0.01,30.57,12.506682,7.282004818043293,-717.7952707941664,9.971118292348157,0.033166247903554,0.3110274295857749,-1.2550166293032632
14466170,1870.0,1,188694.0,222778,0.47,0.13,9.96,-0.03,-0.01,-0.0,30.57,12.546684,9.772746284239073,-575.281001072564,9.971930605454492,0.03162277660168379,0.41810769055870267,-1.0058807540022494
14506171,1872.0,1,188954.0,223419,0.48,0.11,9.95,-0.03,-0.01,-0.01,30.57,12.586685,14.057179754570969,-346.2708057181871,9.962178476618455,0.033166247903554,0.602301136707491,-0.6055372965791894
14546170,1875.0,1,189163.0,223865,0.47,0.12,9.99,-0.03,-0.01,-0.0,30.57,12.626684,17.246926798256634,-129.93852953097402,10.00176984338272,0.03162277660168379,0.7394325694599895,-0.22735670393364937
14586171,1869.0,1,189276.0,224080,0.46,0.11,9.96,-0.03,-0.01,-0.01,30.57,12.666685,15.990301718340438,19.918751029042497,9.971223595928436,0.033166247903554,0.6854085997590829,0.03461583281991093
14626170,1874.0,1,189383.0,224303,0.49,0.11,9.95,-0.03,-0.01,-0.01,30.57,12.706684,20.636550880625993,103.83516807366126,9.962665306031312,0.033166247903554,0.8851569797475815,0.18131405506373555
14666171,1872.0,1,189531.0,224696,0.46,0.11,9.97,-0.03,-0.01,-0.0,30.57,12.746685,21.531556692748065,160.00370338936858,9.981212351212653,0.03162277660168379,0.9236344601424838,0.27950490456667115
14706170,1863.0,1,189652.0,224954,0.47,0.09,9.99,-0.03,-0.01,-0.0,30.57,12.786684,14.581455517801837,239.22601534030352,10.001454894164148,0.03162277660168379,0.624840443299711,0.4179971416585921
14746168,1858.0,1,189771.0,225150,0.47,0.11,9.96,-0.03,-0.01,-0.01,30.57,12.826682,9.67000756083854,377.6682653223576,9.971689926988304,0.033166247903554,0.4136908173251441,0.6600145283757107
14786170,1854.0,1,189873.0,225403,0.48,0.09,9.94,-0.03,-0.01,-0.0,30.57,12.866684,8.385134862684861,568.3900929535185,9.95198975079858,0.03162277660168379,0.35845244525699654,0.9934242954026813
14826168,1856.0,1,190010.0,225702,0.46,0.12,9.98,-0.03,-0.01,-0.01,30.57,12.906682,11.108922831906293,744.4904015562121,9.991316229606587,0.033166247903554,0.4755516827883102,1.30127349962774
14866170,1852.0,1,190128.0,226045,0.47,0.13,9.96,-0.03,-0.01,-0.01,30.57,12.946684,6.142378340892593,798.1787670119378,9.971930605454492,0.033166247903554,0.26203338414141186,1.395128647939709
14906171,1843.0,1,190242.0,226021,0.45,0.12,9.97,-0.03,-0.01,-0.0,30.57,12.986685,1.9111371240896897,643.3138490354445,9.980871705417318,0.03162277660168379,0.08012674313355304,1.1244020254838454
14946170,1847.0,1,189790.0,223813,0.47,0.13,9.99,-0.03,-0.01,-0.01,30.57,13.026684,-0.3990353391180309,286.0844990481678,10.001894820482766,0.033166247903554,-0.019190618226548037,0.4999126535342951
14986171,1830.0,1,189030.0,222571,0.48,0.1,9.96,-0.03,-0.01,-0.0,30.57,13.066685,-9.517965089760873,-156.28923517465515,9.972060970531619,0.03162277660168379,-0.41122543626971414,-0.27342160766688406
15026175,1834.0,1,188783.0,222437,0.47,0.12,9.97,-0.03,-0.01,-0.0,30.57,13.106689,-14.30122774587792,-515.8535209595213,9.981793426033219,0.03162277660168379,-0.6168642070817522,-0.9019927903350419
15067171,1816.5,1,188801.0,222521,0.47,0.12,9.94,-0.03,-0.01,-0.01,30.57,13.147685,-24.790655221068363,-672.1108197186062,9.951828977630191,0.033166247903554,-1.0678185300189784,-1.1751534989052355
15107170,1816.5,1,188835.0,222720,0.47,0.12,9.97,-0.03,-0.01,-0.01,30.57,13.187684,-32.543312802865756,-613.9280304305817,9.981793426033219,0.033166247903554,-1.401115505381318,-1.0734414376145112
15147170,1819.0,1,188975.0,223315,0.45,0.12,9.96,-0.03,-0.01,-0.01,30.57,13.227684,-25.92216012586595,-426.26456357346996,9.970882608876709,0.033166247903554,-1.1164634183553537,-0.7453781344182675
15187170,1827.0,1,189170.0,223770,0.45,0.11,9.99,-0.03,-0.01,-0.01,30.57,13.267684,-24.66928379493433,-224.63047222531344,10.000734972990735,0.033166247903554,-1.0626006123179739,-0.39289212767186404
15227171,1816.5,1,189251.0,223943,0.47,0.11,9.97,-0.03,-0.01,-0.0,30.57,13.307685,-32.23769422905497,-89.13946226355127,9.98167821561084,0.03162277660168379,-1.3879765597757687,-0.15603394197451087
15267211,1816.5,1,189318.0,224142,0.45,0.12,9.99,-0.03,-0.01,-0.0,30.57,13.347725,-40.29740902232923,-33.78841280839717,10.00084996387807,0.03162277660168379,-1.734474329674516,-0.0592721778243121
15307857,1822.0,1,189382.0,224411,0.48,0.11,9.96,-0.03,-0.01,-0.0,30.59,13.388371,-31.218866335425194,-14.937535833847772,9.972166264157453,0.03162277660168379,-1.3441758047728807,-0.026318076144386075
15346171,1845.0,1,189465.0,224664,0.47,0.13,9.96,-0.03,-0.01,-0.0,30.59,13.426685,-17.79785054662947,35.30847848401096,9.971930605454492,0.03162277660168379,-0.7671886334061883,0.06151933678219821
15386171,1840.0,1,189556.0,225058,0.48,0.11,9.96,-0.03,-0.01,-0.0,30.59,13.466685,-20.00302869285353,166.42299184776573,9.972166264157453,0.03162277660168379,-0.861992150589416,0.29072676362693656
15426170,1853.0,1,189673.0,225412,0.47,0.1,9.96,-0.03,-0.01,-0.0,30.59,13.506684,-15.210919790021228,371.69524522958346,9.971584628332652,0.03162277660168379,-0.655973067962701,0.6495728119643591
15466168,1859.0,1,189849.0,225860,0.46,0.12,9.99,-0.03,-0.01,-0.01,30.59,13.546682,-10.01983106416948,574.3023130747193,10.00130491485986,0.033166247903554,-0.4328013164814753,1.0037597245337078
15506170,1869.0,1,189974.0,226177,0.45,0.11,9.99,-0.03,-0.01,-0.0,30.59,13.586684,-4.865588389358586,656.002176778493,10.000734972990735,0.03162277660168379,-0.2112136253352237,1.1465830859807744
15546170,1887.0,1,190031.0,226061,0.46,0.12,9.94,-0.03,-0.01,-0.0,30.59,13.626684,8.900988176718386,525.4213961143861,9.951361715865824,0.03162277660168379,0.38062965964883244,0.9183087022871766
15586171,1883.0,1,189607.0,223851,0.47,0.11,9.97,-0.03,-0.01,-0.01,30.59,13.666685,1.628475039149369,186.42951446900508,9.98167821561084,0.033166247903554,0.06797472726464378,0.32570110363309007
15626171,1873.0,1,188887.0,222514,0.47,0.11,9.99,-0.03,-0.01,-0.01,30.59,13.706685,-12.708461066466354,-247.41840914194393,10.00165486307141,0.033166247903554,-0.5483890666405932,-0.43272878838745027
15666170,1878.0,1,188653.0,222400,0.46,0.11,10.01,-0.03,-0.01,-0.0,30.59,13.746684,-12.507163077619394,-611.6240567112992,10.021167596642618,0.03162277660168379,-0.5397350005837174,-1.0694137531563495
15706170,1878.0,1,188589.0,222507,0.46,0.13,9.99,-0.03,-0.01,-0.0,30.59,13.786684,-14.321587954321004,-782.6889506538744,10.001429897769619,0.03162277660168379,-0.61773951929827,-1.3684603129774282
15746170,1885.0,1,188602.0,222653,0.47,0.11,9.99,-0.03,-0.01,-0.0,30.59,13.826684,-14.584142329097261,-737.6768242122944,10.00165486307141,0.03162277660168379,-0.6290270781847271,-1.2897725047874875
15786170,1890.0,1,188721.0,223145,0.45,0.11,10.0,-0.03,-0.01,-0.0,30.59,13.866684,-8.878955997352096,-547.2577241179097,10.010724249523609,0.03162277660168379,-0.38375359252042507,-0.9568919499580026
15826170,1903.0,1,189005.0,223786,0.47,0.12,9.96,-0.03,-0.01,-0.0,30.59,13.906684,-4.2673812698604765,-320.2067795509465,9.97180525281155,0.03162277660168379,-0.1854959122200376,-0.55997355067691
15866170,1905.0,1,189120.0,224070,0.47,0.12,9.96,-0.03,-0.01,-0.0,30.59,13.946684,-0.5956994322438846,-142.98258882432125,9.97180525281155,0.03162277660168379,-0.027645466994166097,-0.2501596354286826
15906171,1922.0,1,189157.0,224278,0.47,0.12,9.96,-0.03,-0.01,-0.0,30.59,13.986685,9.057364866703033,-46.98855582278493,9.97180525281155,0.03162277660168379,0.38735249981546516,-0.08234796658856917
15946171,1940.0,1,189236.0,224486,0.45,0.12,9.98,-0.03,-0.01,-0.01,30.59,14.026685,27.739870877125156,-9.41756937918228,9.990860823772895,0.033166247903554,1.1905380758278117,-0.016668364034842398
15986170,1943.0,1,189342.0,224762,0.47,0.12,9.96,-0.03,-0.01,-0.0,30.59,14.066684,26.6768800572933,24.790535811660778,9.97180525281155,0.03162277660168379,1.144838698375654,0.04313242816483157
16026174,1921.0,1,189365.0,225023,0.48,0.14,10.01,-0.03,-0.01,-0.0,30.59,14.106688,2.615802236937987,112.97573293918009,10.022479733080033,0.03162277660168379,0.1104212258032298,0.1972931049719676
16066170,1923.0,1,189553.0,225319,0.46,0.11,9.96,-0.03,-0.01,-0.0,30.59,14.146684,5.235482024201898,282.48524328389226,9.971223595928436,0.03162277660168379,0.22304471527127492,0.49362062581653254
16107171,1949.0,1,189657.0,225642,0.47,0.1,9.97,-0.03,-0.01,-0.0,30.59,14.187685,26.26947832383988,503.1976355072767,9.981573022324689,0.03162277660168379,1.127323960482907,0.8794583046242043
16147170,1948.0,1,189764.0,226158,0.45,0.11,9.96,-0.03,-0.01,-0.01,30.59,14.227684,29.543267308309005,683.2272265437313,9.970767272381801,0.033166247903554,1.2680684671228006,1.1941764716580556
16187170,1956.5,1,189915.0,226458,0.46,0.09,9.98,-0.03,-0.01,-0.01,30.59,14.267684,32.59516955241396,707.0574983385686,9.991000950855726,0.033166247903554,1.3992737701210907,1.2358352868340066
16227170,1956.5,1,189990.0,225880,0.47,0.13,9.97,-0.03,-0.01,-0.0,30.59,14.307684,37.36929946834782,507.95954341109007,9.981918653244977,0.03162277660168379,1.6045199123863743,0.8877828190467731
16267171,1956.5,1,189242.0,223387,0.47,0.11,9.97,-0.03,-0.01,-0.0,30.59,14.347685,34.69484560279128,126.81516558366955,9.98167821561084,0.03162277660168379,1.4895416130443504,0.22148646590550553
16307170,1956.5,1,188671.0,222563,0.46,0.12,9.96,-0.03,-0.01,-0.0,30.59,14.387684,37.2591081587368,-296.4170661493981,9.97133892714514,0.03162277660168379,1.5997826426415067,-0.5183856375294548
16347857,1956.5,1,188499.0,222502,0.47,0.12,9.97,-0.03,-0.01,-0.01,30.51,14.428371,39.028023245784226,-601.854729763167,9.981793426033219,0.033166247903554,1.6758306354704415,-1.052335534778083
16386170,1956.5,1,188546.0,222585,0.47,0.13,9.97,-0.03,-0.01,-0.01,30.51,14.466684,38.679074428981394,-700.2161025633992,9.981918653244977,0.033166247903554,1.6608288655651484,-1.2242856612900854
16426171,1956.5,1,188543.0,222735,0.46,0.11,9.96,-0.03,-0.01,-0.0,30.51,14.506685,44.364292957992845,-608.0210585263934,9.971223595928436,0.03162277660168379,1.90524390905197,-1.063115183137656
16466170,1954.0,1,188658.0,223308,0.45,0.13,9.98,-0.03,-0.01,-0.01,30.51,14.546684,39.92294978254454,-413.60821370328205,9.990985937333713,0.033166247903554,1.7143047077129763,-0.7232529759398588
16506171,1933.0,1,188881.0,223714,0.47,0.11,9.96,-0.03,-0.01,-0.01,30.51,14.586685,26.070316856022448,-213.65587620962273,9.971689926988304,0.033166247903554,1.1187617462832076,-0.3737069219392365
16546170,1922.0,1,188965.0,223863,0.45,0.11,9.95,-0.03,-0.01,-0.0,30.51,14.626684,14.311206600030475,-67.31116302995272,9.960778082057645,0.03162277660168379,0.6132220858606278,-0.1178748688759474
16586171,1901.0,1,189011.0,223987,0.46,0.13,9.97,-0.03,-0.01,-0.01,30.51,14.666685,-1.219569197841072,14.184886524596163,9.981452800068736,0.033166247903554,-0.054466451114729635,0.024592195503007806
16626170,1889.0,1,189071.0,224295,0.47,0.08,9.97,-0.03,-0.01,-0.0,30.51,14.706684,-10.704624883400918,54.03268065013172,9.981392688397747,0.03162277660168379,-0.4622415060279027,0.0942519922915891
16666168,1883.0,1,189132.0,224519,0.47,0.11,9.96,-0.03,-0.01,-0.0,30.51,14.746682,-13.891898350227235,91.72857841980054,9.971689926988304,0.03162277660168379,-0.5992665964485171,0.1601499581896694
16706170,1873.0,1,189181.0,224733,0.45,0.12,9.97,-0.03,-0.01,-0.0,30.51,14.786684,-19.404838883128193,167.4544033840075,9.980871705417318,0.03162277660168379,-0.8362751816441935,0.29252982248117704
16746171,1866.0,1,189279.0,224882,0.45,0.12,9.96,-0.03,-0.01,-0.0,30.51,14.826685,-23.540198833378984,303.5823746759007,9.970882608876709,0.03162277660168379,-1.0140597605335393,0.5305015101374927
16786170,1863.0,1,189349.0,225244,0.47,0.11,10.0,-0.03,-0.01,-0.0,30.51,14.866684,-24.1962788988286,481.77217512587254,10.011643221769342,0.03162277660168379,-1.0422655079308318,0.8420034530063581
16826168,1861.0,1,189436.0,225573,0.46,0.1,9.97,-0.03,-0.01,-0.01,30.51,14.906682,-19.72560031366709,631.7957957741417,9.981107153016643,0.033166247903554,-0.8500651386342358,1.104266776665436
16866170,1859.0,1,189529.0,225823,0.46,0.11,9.96,-0.03,-0.01,-0.0,30.51,14.946684,-23.928583835009707,655.7816273296474,9.971223595928436,0.03162277660168379,-1.0307569440417532,1.1461975331509235
16906217,1846.0,1,189619.0,225388,0.45,0.13,9.98,-0.03,-0.01,-0.0,30.51,14.986731,-27.293551120762125,488.58376513187324,9.990985937333713,0.03162277660168379,-1.1754213261199418,0.8539111127912462
16946170,1855.0,1,188983.0,223172,0.45,0.12,10.0,-0.03,-0.01,-0.0,30.51,15.026684,-22.160375651045264,154.7956262345376,10.010839125667738,0.03162277660168379,-0.954739341908776,0.27040042076207604
16986168,1841.0,1,188417.0,222232,0.45,0.11,9.94,-0.03,-0.01,-0.01,30.51,15.066682,-28.641673041456794,-229.62133881778195,9.950788913448019,0.033166247903554,-1.2333788656922013,-0.4016168955105807
17026175,1841.0,1,188241.0,222091,0.47,0.11,9.96,-0.03,-0.01,-0.01,30.51,15.106689,-28.491736604747814,-521.823339476084,9.971689926988304,0.033166247903554,-1.226932900508721,-0.9124289099209432
17066171,1847.0,1,188258.0,222061,0.45,0.13,9.99,-0.03,-0.01,-0.0,30.51,15.146685,-21.88131255290804,-634.2517799291797,10.000974952473383,0.03162277660168379,-0.9427420512296723,-1.108970336795084
17106213,1840.0,1,188242.0,222120,0.45,0.12,9.98,-0.03,-0.01,-0.0,30.51,15.186727,-22.685487325889685,-572.2398286963096,9.990860823772895,0.03162277660168379,-0.9773145854438479,-1.000564338015419
17146171,1849.0,1,188351.0,222604,0.46,0.12,9.98,-0.03,-0.01,-0.0,30.51,15.226685,-18.9455793411876,-408.4207581845704,9.991316229606587,0.03162277660168379,-0.8165310081630264,-0.7141845417840095
17186170,1844.0,1,188549.0,223065,0.46,0.12,9.96,-0.03,-0.01,-0.01,30.51,15.266684,-15.613261906907063,-226.211321644186,9.97133892714514,0.033166247903554,-0.6732702862654654,-0.39565568464380296
17226170,1847.0,1,188688.0,223306,0.46,0.12,9.97,-0.03,-0.01,-0.01,30.51,15.306684,-18.41361945763398,-76.87862172802704,9.981327567012316,0.033166247903554,-0.7936613511026125,-0.13460019190365075
17266170,1826.0,1,188765.0,223630,0.48,0.12,9.95,-0.03,-0.01,-0.0,30.51,15.346684,-34.04913374815808,29.372356838243668,9.962293912548454,0.03162277660168379,-1.465852734029411,0.051142124275685576
17306171,1816.5,1,188822.0,223936,0.46,0.13,9.98,-0.03,-0.01,-0.0,30.51,15.386685,-46.47395137620299,108.05140874998166,9.991441337464781,0.03162277660168379,-2.000012032458783,0.18868466302760317
17346170,1816.5,1,188980.0,224251,0.45,0.13,9.98,-0.03,-0.01,-0.0,30.51,15.426684,-44.874103873760966,183.20882333460568,9.990985937333713,0.03162277660168379,-1.9312324780957881,0.3200708624901487
17386857,1816.5,1,189155.0,224708,0.45,0.11,9.97,-0.03,-0.01,-0.01,30.57,15.467371,-46.392374179619814,280.64036172288604,9.980756484355283,0.033166247903554,-1.9965049211756085,0.49039550188034114
17427170,1831.0,1,189286.0,225045,0.45,0.1,9.97,-0.03,-0.01,-0.01,30.57,15.507684,-31.004828685864574,423.31869771873954,9.980651281354339,0.033166247903554,-1.3349740438980402,0.7398181891260307
17467171,1856.0,1,189404.0,225439,0.44,0.12,9.99,-0.03,-0.01,-0.01,30.57,15.547685,-9.002708462063021,613.9945631842771,10.000404991799082,0.033166247903554,-0.38907387421049083,1.0731476075367843
17507170,1856.0,1,189592.0,225869,0.45,0.13,9.98,-0.03,-0.01,-0.0,30.57,15.587684,-6.885141038043088,808.8881901174759,9.990985937333713,0.03162277660168379,-0.29803685753523157,1.413850292478036
17547171,1872.0,1,189725.0,226315,0.45,0.1,9.95,-0.03,-0.01,-0.01,30.57,15.627685,4.722193650161223,912.5906984385945,9.960672668048076,0.033166247903554,0.20097777103294223,1.5951375083614874
17587170,1885.0,1,189887.0,226573,0.47,0.11,9.96,-0.03,-0.01,-0.01,30.57,15.667684,19.62898584435667,821.2873068741271,9.971689926988304,0.033166247903554,0.8418404298385689,1.4355257696927892
17627171,1881.0,1,189808.0,224519,0.47,0.11,9.96,-0.03,-0.01,-0.0,30.57,15.707685,12.580827922413567,498.0806083511696,9.971689926988304,0.03162277660168379,0.5388308241034575,0.8705129895903753
17667170,1878.0,1,188847.0,222728,0.47,0.12,9.96,-0.03,-0.01,-0.0,30.57,15.747684,8.605511340496642,20.083858044818548,9.97180525281155,0.03162277660168379,0.3679267207194043,0.03490446413363171
17707171,1887.0,1,188568.0,222370,0.46,0.12,9.97,-0.03,-0.01,-0.0,30.57,15.787685,18.461472355506324,-452.4312734279116,9.981327567012316,0.03162277660168379,0.7916474849776742,-0.7911213864874729
17747170,1902.0,1,188466.0,222447,0.46,0.12,9.98,-0.03,-0.01,-0.0,30.57,15.827684,28.263717645846732,-767.9623699016402,9.991316229606587,0.03162277660168379,1.2130589393802245,-1.3427160868513985
17787171,1908.0,1,188497.0,222547,0.43,0.12,9.97,-0.03,-0.01,-0.01,30.57,15.867685,39.36466042665572,-864.9870190933191,9.97998997995489,0.033166247903554,1.6903031119077359,-1.5123294241639542
17827170,1920.0,1,188601.0,222941,0.46,0.11,9.96,-0.03,-0.01,-0.01,30.57,15.907684,43.46038954479146,-785.3076945628344,9.971223595928436,0.033166247903554,1.866383909050542,-1.3730382619591157
17867170,1911.0,1,188857.0,223711,0.44,0.11,9.97,-0.03,-0.01,-0.01,30.57,15.947684,40.931740132666356,-624.661622758209,9.98031061640869,0.033166247903554,1.7576739354807225,-1.0922053335029125
17907170,1926.0,1,189080.0,224279,0.47,0.11,9.97,-0.03,-0.01,-0.0,30.57,15.987684,49.759607341915874,-469.31670069378987,9.98167821561084,0.03162277660168379,2.1371955909516833,-0.820639593400605
17947170,1933.0,1,189277.0,224760,0.44,0.12,9.98,-0.03,-0.01,-0.01,30.57,16.027684,59.77199557076189,-360.8621122748309,9.99041540677864,0.033166247903554,2.567641367463612,-0.6310450435428877
17987170,1926.0,1,189440.0,225231,0.47,0.12,10.0,-0.03,-0.01,-0.0,30.57,16.067684,52.956323717073616,-296.4501706045953,10.01175808736907,0.03162277660168379,2.2746266444568635,-0.5184435089793666
18027172,1914.0,1,189612.0,226032,0.48,0.11,9.99,-0.03,-0.01,-0.01,30.57,16.107686,37.489873424651044,-245.4031817512736,10.002129773203306,0.033166247903554,1.6097035458074724,-0.42920587492140927
18067171,1900.0,1,189945.0,227042,0.46,0.11,9.94,-0.03,-0.01,-0.01,30.57,16.147685,30.87640541598297,-164.22761109947083,9.951246153120723,0.033166247903554,1.325381832809331,-0.28729905473489276
18107171,1903.0,1,190240.0,227885,0.46,0.12,9.97,-0.03,-0.01,-0.0,30.57,16.187685,25.869477749323334,-11.969740875859607,9.981327567012316,0.03162277660168379,1.1101274081751429,-0.021129934662016046
18147170,1888.0,1,190449.0,228529,0.47,0.12,9.97,-0.03,-0.01,-0.01,30.57,16.227684,21.059545965840478,221.08772872423066,9.981793426033219,0.033166247903554,0.9033420964005004,0.3862887525872134
18187170,1895.0,1,190681.0,229262,0.46,0.11,9.99,-0.03,-0.01,-0.01,30.57,16.267684,21.587985917038203,476.9770854906668,10.001189929203424,0.033166247903554,0.9260604269260685,0.8336209320437382
18227170,1875.0,1,191029.0,230169,0.47,0.12,9.98,-0.03,-0.01,-0.0,30.57,16.307684,8.1884661525403,624.187605679708,9.991781622913903,0.03162277660168379,0.34999739799765434,1.0909665429250814
18267171,1863.0,1,191278.0,230840,0.47,0.1,9.97,-0.03,-0.01,-0.01,30.57,16.347685,-3.6949274399032603,520.0784283673967,9.981573022324689,0.033166247903554,-0.1608853669913533,0.908968409915391
18307170,1857.0,1,191373.0,229816,0.46,0.12,9.96,-0.03,-0.01,-0.0,30.57,16.387684,-9.263759054109556,120.60433714734002,9.97133892714514,0.03162277660168379,-0.4002967834938757,0.21062902558144483
18347171,1831.0,1,190262.0,226956,0.47,0.11,9.97,-0.03,-0.01,-0.0,30.57,16.427685,-29.200292445089318,-451.0791160232881,9.98167821561084,0.03162277660168379,-1.2573946506852836,-0.788757616745652
18387857,1823.0,1,189825.0,226874,0.47,0.1,9.98,-0.03,-0.01,-0.01,30.81,16.468371,-39.76389919250327,-955.5161005637593,9.991561439534864,0.033166247903554,-1.711538038379442,-1.6705875550612572
18426171,1816.5,1,189992.0,227629,0.47,0.12,9.96,-0.03,-0.01,-0.0,30.81,16.506685,-39.098281258029274,-1183.8744464379129,9.97180525281155,0.03162277660168379,-1.6829222454121386,-2.0697914838522915
18466170,1816.5,1,190317.0,228996,0.45,0.11,9.95,-0.03,-0.01,-0.0,30.81,16.546684,-39.98447871541639,-1083.554605418246,9.960778082057645,0.03162277660168379,-1.7210210430185773,-1.8944176672420892
18506171,1816.5,1,190827.0,230258,0.45,0.11,10.0,-0.03,-0.01,-0.01,30.81,16.586685,-35.40300776723453,-763.5666309511481,10.010724249523609,0.033166247903554,-1.5240575638982439,-1.335031689540414
18546174,1816.5,1,191191.0,231308,0.46,0.12,9.99,-0.03,-0.01,-0.0,30.81,16.626688,-32.971637900538944,-391.24014809442895,10.00130491485986,0.03162277660168379,-1.4195297663002369,-0.6841503119389962
18586171,1816.5,1,191490.0,232311,0.46,0.09,9.96,-0.03,-0.01,-0.01,30.81,16.666685,-31.053949055280725,-77.91780317887734,9.971023016722006,0.033166247903554,-1.3370857933700564,-0.1364168337098356
18626170,1816.5,1,191931.0,233373,0.46,0.11,10.01,-0.03,-0.01,-0.01,30.81,16.706684,-26.81556252210798,161.6236819559805,10.021167596642618,0.033166247903554,-1.1548719657866333,0.28233686503596417
18666171,1816.5,1,192195.0,234363,0.54,0.09,9.96,-0.03,-0.01,-0.0,30.81,16.746685,-25.556764489533535,369.85794680175104,9.975033834529084,0.03162277660168379,-1.1007545779847776,0.6463609444587306
18706170,1816.5,1,192560.0,235686,0.47,0.12,9.96,-0.03,-0.01,-0.01,30.81,16.786684,-21.987852011944852,582.8424870830485,9.97180525281155,0.033166247903554,-0.9473223231014859,1.0186892030409787
18746225,1816.5,1,192971.0,236446,0.48,0.11,9.99,-0.03,-0.01,-0.01,30.81,16.826739,-19.322472931484477,797.2765124765511,10.002129773203306,0.033166247903554,-0.8327341607405814,1.3935513744929378
18786170,1816.5,1,193175.0,236761,0.48,0.09,9.99,-0.03,-0.01,-0.0,30.81,16.866684,-18.303841795365905,979.325664137606,10.001929813790937,0.03162277660168379,-0.7889418646026276,1.711800030122185
18826168,1823.0,1,193245.0,236891,0.48,0.08,9.99,-0.03,-0.01,-0.01,30.81,16.906682,-6.768390487736074,1088.3099524249867,10.001844829830144,0.033166247903554,-0.29301759738106453,1.9023205731497363
18866170,1840.0,1,193301.0,237039,0.48,0.11,9.94,-0.03,-0.01,-0.01,30.81,16.946684,8.40316070063241,1089.0606654453686,9.952190713606727,0.033166247903554,0.35922739980682683,1.903632929770572
18906171,1842.0,1,193220.0,237130,0.48,0.09,9.97,-0.03,-0.01,-0.0,30.81,16.986685,16.827781894175672,955.0359995170287,9.981953716582742,0.03162277660168379,0.7214129771724718,1.6693381288133764
18946191,1851.0,1,193173.0,237078,0.48,0.1,9.96,-0.03,-0.01,-0.01,30.81,17.026705,22.944142358634025,680.6673444644179,9.972060970531619,0.033166247903554,0.9843633811495733,1.1897014217999398
18986171,1850.0,1,192871.0,235422,0.47,0.11,9.96,-0.03,-0.01,-0.0,30.81,17.066685,26.99595129275521,304.2408788307737,9.971689926988304,0.03162277660168379,1.1585559916499333,0.531652672118213
19026175,1856.0,1,192191.0,234076,0.5,0.1,9.98,-0.03,-0.01,-0.0,30.81,17.106689,31.939682135566375,-84.44526732713557,9.993017562278174,0.03162277660168379,1.3710935014689156,-0.1478277997643162
19066168,1867.0,1,192022.0,234199,0.48,0.12,9.95,-0.03,-0.01,-0.01,30.81,17.146682,43.80961942546839,-374.25764474541353,9.962293912548454,0.033166247903554,1.881397762262512,-0.6544624017744605
19106170,1873.0,1,192019.0,234393,0.47,0.11,9.95,-0.03,-0.01,-0.01,30.81,17.186684,52.45115619654799,-487.48560051104016,9.961701661864803,0.033166247903554,2.252908826422722,-0.8524014988439653
19146170,1870.0,1,192091.0,234607,0.48,0.11,9.99,-0.03,-0.01,-0.01,30.81,17.226684,45.328831750251766,-419.0345661124158,10.002129773203306,0.033166247903554,1.9467107039784408,-0.732739036948221
19186170,1851.0,1,192215.0,235045,0.47,0.11,9.97,-0.03,-0.01,-0.01,30.81,17.266684,31.92968523815352,-233.01007542969865,9.98167821561084,0.033166247903554,1.370663721663016,-0.4075409048299541
19226170,1842.0,1,192406.0,235449,0.49,0.1,10.01,-0.03,-0.01,-0.01,30.81,17.306684,15.851774669185845,-24.657263851989303,10.022484721864135,0.033166247903554,0.6794531391957914,-0.0433095883081706
19266170,1816.5,1,192539.0,235523,0.46,0.11,9.99,-0.03,-0.01,-0.0,30.81,17.346684,-4.2644524358130305,124.53257975822606,10.001189929203424,0.03162277660168379,-0.18536999778114333,0.21749617062712787
19306171,1816.5,1,192518.0,235467,0.48,0.11,9.98,-0.03,-0.01,-0.01,30.81,17.386685,-10.750522529858612,176.7230532390724,9.992141912523062,0.033166247903554,-0.46421470638909457,0.3087327837636583
19346170,1816.5,1,192456.0,235388,0.47,0.12,9.98,-0.03,-0.01,-0.0,30.81,17.426684,-8.804780890148841,146.55802109837916,9.991781622913903,0.03162277660168379,-0.38056470682320714,0.25599987708325683
19386171,1816.5,1,192435.0,235365,0.48,0.11,9.98,-0.03,-0.01,-0.0,30.81,17.466685,-12.56421060052598,91.7140072553406,9.992141912523062,0.03162277660168379,-0.5421875488403722,0.16012448565404913
19426857,1816.5,1,192378.0,235303,0.48,0.11,9.98,-0.03,-0.01,-0.01,30.53,17.507371,-14.68716000370233,87.169591895026,9.992141912523062,0.033166247903554,-0.6334559438985112,0.15218018014180093
19465170,1816.5,1,192393.0,235389,0.47,0.11,9.95,-0.03,-0.01,-0.01,30.53,17.545684,-16.534703565030906,184.2691907722152,9.961701661864803,0.033166247903554,-0.7128842785494292,0.3219245405128871
19505170,1816.5,1,192447.0,235509,0.47,0.1,9.97,-0.03,-0.01,-0.01,30.53,17.585684,-20.72841674716626,365.9773631381105,9.981573022324689,0.033166247903554,-0.893177539846651,0.6395771142527553
19545171,1816.5,1,192464.0,235630,0.5,0.09,9.98,-0.03,-0.01,-0.0,30.53,17.625685,-23.103449315054945,527.91757580616,9.992922495446464,0.03162277660168379,-0.9952833226588497,0.9226723910155654
19585170,1816.5,1,192437.0,235689,0.47,0.1,9.97,-0.03,-0.01,-0.0,30.53,17.665684,-26.896905034253354,517.5228539523895,9.981573022324689,0.03162277660168379,-1.1583689876762733,0.9045008904871721
19625168,1816.5,1,192458.0,235304,0.48,0.11,9.94,-0.03,-0.01,-0.01,30.53,17.705682,-31.484553759471215,229.24433210813712,9.952190713606727,0.033166247903554,-1.355598057580004,0.40054769330593865
19665170,1816.5,1,191749.0,231514,0.46,0.1,9.95,-0.03,-0.01,-0.01,30.53,17.745684,-34.08759393812973,-302.76507055406756,9.96112945403281,0.033166247903554,-1.467506188326104,-0.5294828815939366
19705171,1816.5,1,190548.0,229362,0.47,0.11,9.97,-0.03,-0.01,-0.01,30.53,17.785685,-40.16810877000606,-894.9592050078924,9.98167821561084,0.033166247903554,-1.7289155412773496,-1.5647252073167486
19745170,1816.5,1,190319.0,229578,0.47,0.1,9.96,-0.03,-0.01,-0.01,30.53,17.825684,-43.39895221043102,-1312.6936147834215,9.971584628332652,0.033166247903554,-1.8678137623326951,-2.2949863104756227
19785171,1816.5,1,190405.0,229801,0.47,0.12,9.98,-0.03,-0.01,-0.0,30.53,17.865685,-47.96360632163615,-1408.3046616061488,9.991781622913903,0.03162277660168379,-2.064054263449632,-2.462128463223964
19825170,1818.0,1,190434.0,229930,0.48,0.11,9.96,-0.03,-0.01,-0.0,30.53,17.905684,-53.26468618053268,-1195.3077008164307,9.972166264157453,0.03162277660168379,-2.2919546788211056,-2.0897784917687305
19865170,1841.0,1,190716.0,230970,0.47,0.11,9.94,-0.03,-0.01,-0.0,30.53,17.945684,-30.99783653146318,-814.1417209403916,9.951713420311098,0.03162277660168379,-1.3346734419575232,-1.4234443750736703
19905170,1870.0,1,191087.0,231789,0.48,0.11,9.94,-0.03,-0.01,-0.01,30.53,17.985684,-12.457659077292123,-432.4276785693676,9.952190713606727,0.033166247903554,-0.5376067583128147,-0.7561521646405268
19945170,1872.0,1,191240.0,231990,0.46,0.11,9.97,-0.03,-0.01,-0.0,30.53,18.025684,-9.490413160620985,-157.1912547137864,9.981212351212653,0.03162277660168379,-0.41004094249440765,-0.27499847030568564
19985170,1907.0,1,191231.0,232112,0.44,0.1,9.98,-0.03,-0.01,-0.0,30.53,18.065684,15.94897820711547,-5.63812144882039,9.990195193288267,0.03162277660168379,0.6836320475049279,-0.010061333944980556
20025197,1922.0,1,191352.0,232445,0.47,0.12,9.94,-0.03,-0.01,-0.0,30.53,18.105711,28.518799382750906,71.55439845223559,9.951828977630191,0.03162277660168379,1.2240252397079918,0.12488252851741387
20065171,1929.0,1,191497.0,232751,0.46,0.1,9.97,-0.03,-0.01,-0.01,30.53,18.145685,31.255544808229313,149.11165641813463,9.981107153016643,0.033166247903554,1.3416815353749543,0.26046400668817055
20105171,1956.5,1,191573.0,233063,0.47,0.11,9.97,-0.03,-0.01,-0.01,30.53,18.185685,51.29088040288112,292.6261693482904,9.98167821561084,0.033166247903554,2.2030270396244394,0.5113484540287675
20145170,1956.5,1,191721.0,233225,0.48,0.1,9.99,-0.03,-0.01,-0.01,30.53,18.225684,51.19863239411302,529.2270347263341,10.002024795010257,0.033166247903554,2.1990611760504057,0.9249615175352155
20185170,1956.5,1,191858.0,233532,0.48,0.12,9.97,-0.03,-0.01,-0.0,30.53,18.265684,42.44878076355745,818.0426060757063,9.98226928108033,0.03162277660168379,1.8228935132117117,1.4298535561307115
20225170,1956.5,1,191945.0,233864,0.48,0.1,9.96,-0.03,-0.01,-0.01,30.53,18.305684,42.053139877678106,1039.491108841215,9.972060970531619,0.033166247903554,1.8058843896689831,1.8169780642824813
20265171,1956.5,1,192105.0,234079,0.46,0.1,9.96,-0.03,-0.01,-0.01,30.53,18.345685,36.101489482298696,1037.7253177634143,9.971118292348157,0.033166247903554,1.5500150888176831,1.8138912021273723
20305170,1956.5,1,192135.0,233447,0.47,0.1,9.97,-0.03,-0.01,-0.01,30.53,18.385684,33.118548860040406,717.834976758121,9.981573022324689,0.033166247903554,1.4217745369044326,1.2546759020568763
20345171,1956.5,1,191209.0,229275,0.48,0.12,9.96,-0.03,-0.01,-0.01,30.53,18.425685,30.484639142226094,135.92594477418461,9.972281584472032,0.033166247903554,1.3085392839524435,0.23741344607905066
20385189,1956.5,1,190130.0,227807,0.46,0.09,9.96,-0.03,-0.01,-0.0,30.53,18.465703,26.086129561811305,-501.57764154675164,9.971023016722006,0.03162277660168379,1.119441555362367,-0.8770364563472952
20425168,1956.5,1,190033.0,227905,0.46,0.11,9.99,-0.03,-0.01,-0.0,30.53,18.505682,24.756977625168034,-947.8448564965773,10.001189929203424,0.03162277660168379,1.062299560426291,-1.657177093715467
20465857,1956.5,1,190049.0,227999,0.48,0.1,9.96,-0.03,-0.01,-0.0,30.63,18.546371,21.31014174720066,-1056.425341670314,9.972060970531619,0.03162277660168379,0.9141155395823606,-1.8469917295916607
20506168,1956.5,1,190156.0,228320,0.47,0.08,9.930000000000001,-0.03,-0.01,-0.0,30.63,18.586682,19.12739707490558,-848.8695912234559,9.941438527698093,0.03162277660168379,0.8202764670335707,-1.4841537929952064
20546170,1956.5,1,190478.0,229658,0.46,0.11,9.95,-0.03,-0.01,-0.0,30.63,18.626684,18.327888637344877,-473.39730389851286,9.961234863208476,0.03162277660168379,0.7859045447341374,-0.8277730871423246
20586180,1956.5,1,190907.0,230476,0.48,0.1,10.0,-0.03,-0.01,-0.0,30.63,18.666694,14.227143614384158,-103.3763842025883,10.012012784650247,0.03162277660168379,0.6096081072268198,-0.18092217257628163
20626171,1954.0,1,191090.0,230731,0.48,0.13,9.99,-0.03,-0.01,-0.0,30.63,18.706685,13.81277593650609,149.30060050475376,10.00236971922154,0.03162277660168379,0.5917938941950278,0.26079430870280224
20666171,1956.5,1,191147.0,230954,0.48,0.1,9.97,-0.03,-0.01,-0.0,30.63,18.746685,10.848832223682162,263.8804541557374,9.98204888787868,0.03162277660168379,0.46437004447568964,0.46109672183633316
20706170,1936.0,1,191212.0,231323,0.48,0.07000000000000002,9.98,-0.03,-0.01,-0.0,30.63,18.786684,-6.123486647743621,289.86718975146044,9.991781622913903,0.03162277660168379,-0.2652923306578553,0.5065253524675232
20746168,1925.0,1,191350.0,231681,0.48,0.09,9.98,-0.03,-0.01,-0.0,30.63,18.826682,-22.0109668483489,307.08223659246715,9.991941753232952,0.03162277660168379,-0.9483160604074586,0.5366197828109573
20786170,1921.0,1,191487.0,231916,0.48,0.11,9.97,-0.03,-0.01,-0.0,30.63,18.866684,-23.311459133877033,388.918106566065,9.982154076150097,0.03162277660168379,-1.0042259391394033,0.6796809031936398
20826170,1930.0,1,191533.0,232137,0.47,0.13,9.94,-0.03,-0.01,-0.01,30.63,18.906684,-16.656433343906745,568.6697847730485,9.95195458188993,0.033166247903554,-0.7181176023074787,0.9939132377830425
20866171,1936.0,1,191684.0,232584,0.45,0.09,9.97,-0.03,-0.01,-0.0,30.63,18.946685,-10.305250821427947,806.9084535776127,9.980556096731284,0.03162277660168379,-0.4450718883207703,1.4103894222319358
20906168,1937.0,1,191799.0,233019,0.5,0.12,9.96,-0.03,-0.01,-0.0,30.63,18.986682,-8.49453568109385,981.868014481883,9.97326426001036,0.03162277660168379,-0.3672268560658786,1.7162444319324779
20946170,1933.0,1,191907.0,233422,0.46,0.12,9.97,-0.03,-0.01,-0.0,30.63,19.026684,-14.33310614702575,937.1165065745157,9.981327567012316,0.03162277660168379,-0.6182347015953891,1.638012223218769
20986170,1921.0,1,191998.0,232799,0.45,0.1,9.930000000000001,-0.03,-0.01,-0.0,30.63,19.066684,-23.442488340008076,583.5872883056594,9.94069414075295,0.03162277660168379,-1.0098590575412971,1.0199912249710135
21026175,1920.0,1,190995.0,228454,0.47,0.1,9.98,-0.03,-0.01,-0.0,30.63,19.106689,-26.847895785595963,-12.0214768177452,9.991561439534864,0.03162277660168379,-1.1562620154322465,-0.021220376687164602
21066168,1916.0,1,189947.0,227282,0.48,0.11,9.95,-0.03,-0.01,-0.0,30.63,19.146682,-27.940677128917162,-637.0044578681143,9.962178476618455,0.03162277660168379,-1.2032421267835476,-1.1137824221327692
21106170,1911.0,1,189930.0,227488,0.48,0.11,9.97,-0.03,-0.01,-0.01,30.63,19.186684,-33.84904733573943,-1051.4805855017905,9.982154076150097,0.033166247903554,-1.4572507552412834,-1.8383475695464826
21146171,1901.0,1,190003.0,227696,0.47,0.11,9.98,-0.03,-0.01,-0.0,30.63,19.226685,-42.80268128095666,-1128.4728205904603,9.99166652766194,0.03162277660168379,-1.8421792885805062,-1.9729413047399318
21186170,1889.0,1,190120.0,227969,0.48,0.1,9.96,-0.03,-0.01,-0.0,30.63,19.266684,-52.83381512073435,-910.1675103730418,9.972060970531619,0.03162277660168379,-2.2734309636322485,-1.5913115588196063
21226168,1889.0,1,190370.0,229005,0.49,0.11,9.96,-0.03,-0.01,-0.01,30.63,19.306682,-54.36391094684268,-553.9469179607347,9.972652606002077,0.033166247903554,-2.3392118014257077,-0.9685856432726851
21266170,1896.0,1,190763.0,229575,0.48,0.1,9.98,-0.03,-0.01,-0.01,30.63,19.346684,-42.63112207425085,-226.87333950451776,9.992036829395696,0.033166247903554,-1.8348037319939667,-0.3968129890977418
21306171,1902.0,1,190861.0,229750,0.47,0.13,9.95,-0.03,-0.01,-0.0,30.63,19.386685,-39.65480378423948,-24.11660541264671,9.961942581645408,0.03162277660168379,-1.7068478828790092,-0.04236443794682346
21346170,1894.0,1,190901.0,229950,0.46,0.11,9.95,-0.03,-0.01,-0.01,30.63,19.426684,-42.09652651846136,53.95817178451988,9.961234863208476,0.033166247903554,-1.8118207639076251,0.09412173985098682
21386171,1907.0,1,190997.0,230282,0.46,0.11,9.96,-0.03,-0.01,-0.0,30.63,19.466685,-31.03399666302281,76.78802008038065,9.971223595928436,0.03162277660168379,-1.3362280137092573,0.13403166781321443
21426170,1910.0,1,191139.0,230710,0.47,0.12,10.01,-0.03,-0.01,-0.01,30.63,19.506684,-24.173866650723944,137.77056344495503,10.021746354802639,0.033166247903554,-1.041301975822579,0.24063811044449784
21466857,1920.0,1,191198.0,230995,0.47,0.09,9.98,-0.03,-0.01,-0.0,30.59,19.547371,-13.134721732495555,304.86624751643376,9.991466358848434,0.03162277660168379,-0.5667145749201077,0.5327459084319668
21505170,1946.0,1,191329.0,231472,0.49,0.11,9.97,-0.03,-0.01,-0.0,30.59,19.585684,14.444294480956005,575.5562624171907,9.982639931400913,0.03162277660168379,0.6189437094073726,1.0059518121585471
21545171,1956.5,1,191548.0,231971,0.49,0.12,9.97,-0.03,-0.01,-0.0,30.59,19.625685,28.26803973888959,853.6823241627942,9.982755130724183,0.03162277660168379,1.2132447518610698,1.4921570179416104
21585170,1956.5,1,191643.0,232222,0.48,0.11,9.95,-0.03,-0.01,-0.0,30.59,19.665684,29.277776621547538,977.8356644272618,9.962178476618455,0.03162277660168379,1.2566546723110412,1.7091952917843327
21625171,1956.5,1,191756.0,232349,0.48,0.1,9.98,-0.03,-0.01,-0.01,30.59,19.705685,32.94600207067287,810.397397773718,9.992036829395696,0.033166247903554,1.414356522836623,1.4164886091264908
21665170,1956.5,1,191342.0,229078,0.5,0.11,9.98,-0.03,-0.01,-0.0,30.59,19.745684,35.00067911505402,341.0585154157919,9.993122635092597,0.03162277660168379,1.5026897991374577,0.5960153084706395
21705171,1956.5,1,190041.0,226730,0.49,0.12,9.97,-0.03,-0.01,-0.0,30.59,19.785685,38.1355261981158,-277.6320194032122,9.982755130724183,0.03162277660168379,1.6374610101685152,-0.4855466167575434
21745170,1956.5,1,189673.0,226383,0.49,0.12,9.96,-0.03,-0.01,-0.0,30.59,19.825684,41.400705542891224,-806.1704565876431,9.972767920692831,0.03162277660168379,1.7778353770416782,-1.4095094342031371
21785171,1956.5,1,189663.0,226422,0.47,0.1,9.98,-0.03,-0.01,-0.0,30.59,19.865685,44.274101731464086,-1056.310091257646,9.991561439534864,0.03162277660168379,1.9013664692593453,-1.8467902549428767
21825171,1956.5,1,189642.0,226491,0.48,0.11,9.94,-0.03,-0.01,-0.0,30.59,19.905685,48.26515837920846,-989.1177372250497,9.952190713606727,0.03162277660168379,2.072947258834803,-1.7293281511960195
21865171,1956.5,1,189707.0,227237,0.47,0.11,9.97,-0.03,-0.01,-0.01,30.59,19.945685,51.23900646414107,-710.527336960001,9.98167821561084,0.033166247903554,2.200796910575172,-1.2423112134811016
21905170,1956.5,1,190129.0,228110,0.48,0.11,9.98,-0.03,-0.01,-0.0,30.59,19.985684,55.57094368085875,-386.06743092034765,9.992141912523062,0.03162277660168379,2.3870326054395408,-0.6751076425742597
21945171,1956.5,1,190260.0,228242,0.45,0.11,9.96,-0.03,-0.01,-0.0,30.59,20.025685,58.87107578108154,-143.21759878236912,9.970767272381801,0.03162277660168379,2.5289096373728164,-0.2505704673525109
21985170,1956.5,1,190245.0,228289,0.49,0.09,9.98,-0.03,-0.01,-0.01,30.59,20.065684,63.091486657998026,-17.292741154943197,9.992427132583956,0.033166247903554,2.7103506677835085,-0.030435320967174308
22025224,1955.0,1,190361.0,228689,0.48,0.11,9.97,-0.03,-0.01,-0.01,30.59,20.105738,65.50380121045212,43.48688822495257,9.982154076150097,0.033166247903554,2.814059252287908,0.07581639821583634
22065170,1935.0,1,190449.0,229151,0.49,0.1,9.97,-0.03,-0.01,-0.0,30.59,20.145684,49.23688962680515,130.86203123864897,9.982534748249064,0.03162277660168379,2.114723266903247,0.22856098145506018
22105171,1906.0,1,190616.0,229489,0.46,0.13,9.930000000000001,-0.03,-0.01,-0.0,30.59,20.185685,24.51488524641405,315.14317907119556,9.941498880953517,0.03162277660168379,1.051891689738641,0.5507114942172062
22145170,1883.0,1,190686.0,230104,0.46,0.1,10.01,-0.03,-0.01,-0.01,30.59,20.225684,5.273982277135599,593.6326191225257,10.021062817885136,0.033166247903554,0.22469989192755035,1.0375519386499812
22185171,1861.0,1,190885.0,230594,0.48,0.12,9.97,-0.03,-0.01,-0.01,30.59,20.265685,-13.339454330822244,871.06242027791,9.98226928108033,0.033166247903554,-0.5755162993688403,1.5225399786578506
22225205,1845.0,1,190973.0,230698,0.47,0.14,9.96,-0.03,-0.01,-0.01,30.59,20.305719,-24.482293677604627,993.1808102121339,9.972065984539011,0.033166247903554,-1.054561660530013,1.7360208604393448
22265170,1834.0,1,190991.0,230702,0.45,0.11,9.98,-0.03,-0.01,-0.0,30.59,20.345684,-33.962132195788705,833.4079984347771,9.990745717913153,0.03162277660168379,-1.4621124225361466,1.456714518771145
22305170,1816.5,1,190697.0,227722,0.49,0.11,9.98,-0.03,-0.01,-0.0,30.59,20.385684,-45.65861141439717,387.24406685450685,9.992627282151577,0.03162277660168379,-1.9649594920499338,0.6767544359027333
22345170,1816.5,1,189406.0,225349,0.49,0.11,9.98,-0.03,-0.01,-0.0,30.59,20.425684,-45.195631120719014,-199.28012854269667,9.992627282151577,0.03162277660168379,-1.945055358543818,-0.34857600357504376
22385170,1816.5,1,189007.0,224887,0.48,0.11,9.96,-0.03,-0.01,-0.0,30.59,20.465684,-40.24572366912527,-703.8456600331618,9.972166264157453,0.03162277660168379,-1.7322523081661936,-1.2306306608396118
22425171,1816.5,1,188967.0,224932,0.47,0.09,10.0,-0.03,-0.01,-0.0,30.59,20.505685,-39.134065479400405,-956.3317372106325,10.011443452369893,0.03162277660168379,-1.6844606562890356,-1.6720134077168776
22465170,1816.5,1,189000.0,224889,0.48,0.11,9.96,-0.03,-0.01,-0.0,30.59,20.545684,-36.57943683333093,-924.8803143950779,9.972166264157453,0.03162277660168379,-1.5746338011847834,-1.6170317011977884
22505857,1816.5,1,189025.0,225274,0.48,0.11,9.97,-0.03,-0.01,-0.0,30.51,20.586371,-34.36011720660786,-704.6381637534264,9.982154076150097,0.03162277660168379,-1.4792223231019883,-1.2320160737418644
22546170,1816.5,1,189261.0,226082,0.46,0.11,9.95,-0.03,-0.01,-0.01,30.51,20.626684,-33.82000586711646,-437.40627151674096,9.961234863208476,0.033166247903554,-1.4560022241988648,-0.7648554763449218
22586170,1816.5,1,189422.0,226391,0.45,0.11,9.97,-0.03,-0.01,-0.0,30.51,20.666684,-31.96467775610483,-230.4321565394726,9.980756484355283,0.03162277660168379,-1.3762392214890853,-0.40303432397720085
22626170,1816.5,1,189433.0,226432,0.46,0.11,9.95,-0.03,-0.01,-0.0,30.51,20.706684,-31.50320013048315,-118.61048446432939,9.961234863208476,0.03162277660168379,-1.3563996896647685,-0.2075536173470151
22666171,1816.5,1,189514.0,226664,0.45,0.13,9.97,-0.03,-0.01,-0.01,30.51,20.746685,-32.11622208061647,-70.07010602716382,9.980996944193501,0.033166247903554,-1.38275431189004,-0.12269790645568247
22706170,1816.5,1,189597.0,226876,0.49,0.08,10.01,-0.03,-0.01,-0.0,30.51,20.786684,-30.180959850166253,-13.816426821033632,10.022305124072005,0.03162277660168379,-1.2995548359507856,-0.024358212926752307
22746168,1816.5,1,189759.0,227218,0.51,0.09,9.98,-0.03,-0.01,-0.0,30.51,20.826682,-33.76506504724739,124.42795208249137,9.993427840335867,0.03162277660168379,-1.4536402458845792,0.21731326608272122
22786170,1816.5,1,189835.0,227525,0.45,0.12,9.97,-0.03,-0.01,-0.01,30.51,20.866684,-31.202204789886192,379.7061112139484,9.980871705417318,0.033166247903554,-1.3434595029532248,0.66357698230346
22826171,1837.0,1,190065.0,228185,0.47,0.11,9.97,-0.03,-0.01,-0.01,30.51,20.906685,-15.004600927241004,707.4942997744089,9.98167821561084,0.033166247903554,-0.6471031479127943,1.236598879899202
22866171,1843.0,1,190238.0,228933,0.45,0.12,9.94,-0.03,-0.01,-0.0,30.51,20.946685,-8.744054722050524,976.2804139771056,9.950904481503176,0.03162277660168379,-0.37795400875754825,1.7064764855695664
22906171,1846.0,1,190526.0,229408,0.45,0.13,9.97,-0.03,-0.01,-0.0,30.51,20.986685,-7.789673190091744,1023.856418009802,9.980996944193501,0.03162277660168379,-0.3369238878490236,1.7896463283590966
22946171,1855.0,1,190519.0,228220,0.47,0.09,9.96,-0.03,-0.01,-0.0,30.51,21.026685,-2.5226245398011455,761.9465990511155,9.97148935716225,0.03162277660168379,-0.11048651902340949,1.3317894967332629
22986168,1860.0,1,189488.0,224913,0.49,0.1,9.98,-0.03,-0.01,-0.0,30.51,21.066682,2.8234214854763997,255.00773214454324,9.992522204128445,0.03162277660168379,0.11934705115211766,0.445585900576963
23026175,1871.0,1,188755.0,223869,0.5,0.1,9.96,-0.03,-0.01,-0.0,30.51,21.106689,8.085773641945138,-300.8860298508292,9.973043667807739,0.03162277660168379,0.34558251151355435,-0.5261980424599887
23066168,1873.0,1,188650.0,223732,0.47,0.1,9.97,-0.03,-0.01,-0.01,30.51,21.146682,9.795388280562404,-693.4317213455632,9.981573022324689,0.033166247903554,0.41908109984591924,-1.2124255664632084
23106171,1882.0,1,188628.0,223766,0.47,0.12,9.97,-0.03,-0.01,-0.01,30.51,21.186685,14.641574297233005,-814.4959349995545,9.981793426033219,0.033166247903554,0.6274250289254104,-1.424063593274387
23146170,1890.0,1,188638.0,224069,0.44,0.11,9.97,-0.03,-0.01,-0.01,30.51,21.226684,19.333669467012793,-697.9236253372413,9.98031061640869,0.033166247903554,0.8291443892479489,-1.2202780743904564
23186170,1899.0,1,188784.0,224745,0.46,0.13,9.98,-0.03,-0.01,-0.0,30.51,21.266684,26.6826741397046,-465.5776967777985,9.991441337464781,0.03162277660168379,1.1450877936210342,-0.81410326538809
23226170,1911.0,1,189039.0,225175,0.45,0.11,9.97,-0.03,-0.01,-0.0,30.51,21.306684,33.78034959026078,-240.4565580345025,9.980756484355283,0.03162277660168379,1.4502262232258993,-0.42055845012759785
23266170,1903.0,1,189151.0,225278,0.48,0.08,9.96,-0.03,-0.01,-0.0,30.51,21.346684,24.035352012210666,-88.5403512542067,9.971880464586407,0.03162277660168379,1.0312759234856634,-0.1549866079355609
23306168,1904.0,1,189210.0,225510,0.47,0.11,9.97,-0.03,-0.01,-0.01,30.51,21.386682,21.80709508625827,-9.910671412592642,9.98167821561084,0.033166247903554,0.9354802191205113,-0.017530378813758102
23346170,1913.0,1,189276.0,225851,0.46,0.13,9.96,-0.03,-0.01,-0.0,30.51,21.426684,26.970103572923346,37.5961906218694,9.971464285650327,0.03162277660168379,1.157444764080667,0.06551859360760592
23386171,1910.0,1,189406.0,226432,0.48,0.12,9.97,-0.03,-0.01,-0.01,30.51,21.466685,22.804127347488897,107.98039158517877,9.98226928108033,0.033166247903554,0.9783439511376553,0.18856051459285955
23426170,1910.0,1,189569.0,226831,0.46,0.11,9.97,-0.03,-0.01,-0.0,30.51,21.506684,18.794349607341008,241.88223009101873,9.981212351212653,0.03162277660168379,0.8059583171062494,0.42264059517520924
23466171,1904.0,1,189701.0,227089,0.47,0.12,10.01,-0.03,-0.01,-0.01,30.51,21.546685,10.787560508812872,443.7509949137739,10.021746354802639,0.033166247903554,0.4617358926347588,0.7755368456229508
23506857,1907.0,1,189800.0,227423,0.48,0.12,9.96,-0.03,-0.01,-0.0,30.51,21.587371,12.585279796602665,662.1458806459284,9.972281584472032,0.03162277660168379,0.5390222160469639,1.1573231826994663
23545170,1916.0,1,189888.0,227850,0.49,0.1,9.95,-0.03,-0.01,-0.01,30.51,21.625684,17.540883991516374,792.0297079083155,9.96255991199049,0.033166247903554,0.7520701769340397,1.3843791894816102
23585170,1909.0,1,190072.0,228366,0.46,0.11,9.94,-0.03,-0.01,-0.0,30.51,21.665684,11.137722657382087,720.808449435877,9.951246153120723,0.03162277660168379,0.47678982527309927,1.2598739690273173
23625171,1909.0,1,190065.0,226598,0.45,0.12,9.97,-0.03,-0.01,-0.01,30.51,21.705685,8.421626510825632,405.55626458150437,9.980871705417318,0.033166247903554,0.36002126934383133,0.7087668471392568
23665228,1904.0,1,188933.0,224066,0.46,0.1,9.96,-0.03,-0.01,-0.0,30.51,21.745742,1.5260134704538937,-76.14483194995177,9.971118292348157,0.03162277660168379,0.06356976927742863,-0.13331741959597349
23705168,1904.0,1,188509.0,223610,0.48,0.11,9.98,-0.03,-0.01,-0.01,30.51,21.785682,3.8826330662188995,-555.3317736397186,9.992141912523062,0.033166247903554,0.1648839541309269,-0.9710065744006572
23745170,1920.0,1,188498.0,223638,0.47,0.11,9.930000000000001,-0.03,-0.01,-0.01,30.51,21.825684,13.997514312621755,-867.4124921972517,9.941725202398226,0.033166247903554,0.5997360406581025,-1.5165695073917445
23785170,1906.0,1,188442.0,223676,0.48,0.12,9.98,-0.03,-0.01,-0.01,30.51,21.865684,6.013629244917835,-939.9464584848944,9.992257002299331,0.033166247903554,0.2564982906826506,-1.6433695339113827
23825170,1905.0,1,188517.0,223879,0.47,0.12,9.96,-0.03,-0.01,-0.01,30.51,21.905684,-0.8306842240166159,-811.046564405231,9.97180525281155,0.033166247903554,-0.03774777314243309,-1.4180335868481317
23865191,1902.0,1,188643.0,224587,0.46,0.11,9.95,-0.03,-0.01,-0.01,30.51,21.945705,0.47764630939330693,-582.7430078849321,9.961234863208476,0.033166247903554,0.018499082204765926,-1.0189254378948385
23905170,1907.0,1,188988.0,225120,0.46,0.1,9.96,-0.03,-0.01,-0.0,30.51,21.985684,4.561333869948885,-357.1431576866985,9.971118292348157,0.03162277660168379,0.19406219690412937,-0.6245437647002214
23945168,1911.0,1,189055.0,225361,0.48,0.1,9.96,-0.03,-0.01,-0.0,30.51,22.025682,8.20362915385696,-194.43245519849143,9.972060970531619,0.03162277660168379,0.35064927542458,-0.3401015585658441
23985170,1908.0,1,189196.0,225732,0.46,0.11,9.97,-0.03,-0.01,-0.0,30.51,22.065684,9.242751822448557,-100.91572892385895,9.981212351212653,0.03162277660168379,0.39532252957231795,-0.176620585739554
24025204,1904.0,1,189319.0,225971,0.5,0.11,9.94,-0.03,-0.01,-0.01,30.51,22.105718,2.7925864872167274,-37.63351203025773,9.953175372713975,0.033166247903554,0.11802141390491332,-0.06599397601426746
24065170,1875.0,1,189445.0,226311,0.47,0.1,9.97,-0.03,-0.01,-0.0,30.51,22.145684,-21.59104756422292,57.83282207424341,9.981573022324689,0.03162277660168379,-0.9302631765003817,0.10089519764788893
24106168,1872.0,1,189562.0,226670,0.46,0.1,9.97,-0.03,-0.01,-0.0,30.51,22.186682,-24.749289181406514,236.8303665158034,9.981107153016643,0.03162277660168379,-1.066040149411226,0.4138091956517003
24146170,1888.0,1,189810.0,227359,0.47,0.11,9.96,-0.03,-0.01,-0.01,30.51,22.226684,-6.76453283484437,497.95387495041274,9.971689926988304,0.033166247903554,-0.2928517517949236,0.8702914409918447
24186170,1884.0,1,189971.0,227838,0.46,0.11,9.97,-0.03,-0.01,-0.0,30.51,22.266684,-7.728184619753562,761.4304647888166,9.981212351212653,0.03162277660168379,-0.33428041310544804,1.3308872182353841
24226170,1885.0,1,190124.0,228249,0.47,0.11,9.930000000000001,-0.03,-0.01,-0.01,30.51,22.306684,-6.378665594499177,891.2640857224246,9.941725202398226,0.033166247903554,-0.27626281016535553,1.5578554569807523
24266171,1872.0,1,190306.0,228441,0.47,0.11,9.98,-0.03,-0.01,-0.01,30.51,22.346685,-15.509977272492584,772.1607245042342,9.99166652766194,0.033166247903554,-0.6688299435973489,1.3496452882281642
24306170,1843.0,1,189963.0,225730,0.48,0.1,10.01,-0.03,-0.01,-0.01,30.51,22.386684,-43.48964521760937,397.5965663640203,10.02200079824383,0.033166247903554,-1.8717127743373054,0.6948521255719454
24346171,1847.0,1,188895.0,224075,0.48,0.12,9.97,-0.03,-0.01,-0.0,30.51,22.426685,-36.5756818033568,-103.17272436922941,9.98226928108033,0.03162277660168379,-1.5744723674932308,-0.18056614527496898
24386170,1864.0,1,188622.0,223890,0.48,0.1,9.99,-0.03,-0.01,-0.01,30.51,22.466684,-17.149046861159405,-533.0105190643001,10.002024795010257,0.033166247903554,-0.7392957071819172,-0.9319857429616234
24426170,1855.0,1,188696.0,223997,0.47,0.11,9.96,-0.03,-0.01,-0.01,30.51,22.506684,-24.37965900691756,-742.2861009513731,9.971689926988304,0.033166247903554,-1.0501492606598541,-1.2978301975163504
24466170,1856.0,1,188679.0,224119,0.47,0.11,9.97,-0.03,-0.01,-0.0,30.51,22.546684,-19.920286531306115,-703.6201978912778,9.98167821561084,0.03162277660168379,-0.8584349559258151,-1.2302365199007763
24506171,1874.0,1,188700.0,224667,0.46,0.09,10.0,-0.03,-0.01,-0.0,30.51,22.586685,-0.7610398332707675,-500.3133014726326,10.010978973107475,0.03162277660168379,-0.03475366892183077,-0.8748262041973939
24546857,1879.0,1,189039.0,225292,0.48,0.1,9.96,-0.03,-0.01,-0.0,30.59,22.627371,7.806657287153549,-256.1695181355419,9.972060970531619,0.03162277660168379,0.3335829312606329,-0.44802701223011243
24585168,1887.0,1,189148.0,225410,0.49,0.12,9.95,-0.03,-0.01,-0.0,30.59,22.665682,17.314080750517363,-65.35531386130566,9.962780736320557,0.03162277660168379,0.742319606445175,-0.1144557572631979
24625170,1885.0,1,189224.0,225620,0.47,0.11,9.96,-0.03,-0.01,-0.01,30.59,22.705684,18.075097012972154,40.94433493109579,9.971689926988304,0.033166247903554,0.7750366993648043,0.07137164161986953
24665171,1871.0,1,189251.0,225983,0.48,0.12,9.95,-0.03,-0.01,-0.01,30.59,22.745685,6.269692745422462,90.1555821006546,9.962293912548454,0.033166247903554,0.2675067983225687,0.1574001295894791
24705170,1872.0,1,189388.0,226504,0.45,0.1,9.98,-0.03,-0.01,-0.0,30.59,22.785684,9.434725517002114,143.17110655944288,9.990640620100395,0.03162277660168379,0.4035757319185771,0.2500790530150708
24745168,1881.0,1,189539.0,226753,0.49,0.09,9.99,-0.03,-0.01,-0.0,30.59,22.825682,20.591156389116495,261.2483292806577,10.002414708459153,0.03162277660168379,0.8832054106812847,0.4564953809605348
24785170,1879.0,1,189601.0,226934,0.45,0.09,9.96,-0.03,-0.01,-0.01,30.59,22.865684,20.82713419859282,468.45603144904084,9.97056668399545,0.033166247903554,0.8933504079704406,0.8187248780465157
24825171,1873.0,1,189666.0,227331,0.45,0.11,9.97,-0.03,-0.01,-0.0,30.59,22.905685,16.705254163190585,718.8091719732228,9.980756484355283,0.03162277660168379,0.7161453484007296,1.256378938378099
24865170,1875.0,1,189889.0,227985,0.45,0.12,9.96,-0.03,-0.01,-0.01,30.59,22.945684,20.471753405258063,895.0925285557016,9.970882608876709,0.033166247903554,0.8780721189101257,1.5645481373570513
24905170,1873.0,1,190075.0,228390,0.48,0.11,9.96,-0.03,-0.01,-0.01,30.59,22.985684,21.24587823266971,864.1038834623267,9.972166264157453,0.033166247903554,0.9113527663277273,1.510375434266954
24945170,1856.0,1,189980.0,226671,0.49,0.1,9.97,-0.03,-0.01,-0.01,30.59,23.025684,4.099897322167641,568.9326751136877,9.982534748249064,0.033166247903554,0.1742244310703555,0.9943728087105803
24985170,1840.0,1,188876.0,224113,0.47,0.11,9.98,-0.03,-0.01,-0.0,30.59,23.065684,-7.163245523974412,88.44693479154489,9.99166652766194,0.03162277660168379,-0.3099929362111737,0.15441316313505082
25025202,1840.0,1,188433.0,223615,0.48,0.11,9.98,-0.03,-0.01,-0.0,30.59,23.105716,-9.36748866525303,-395.9330249501876,9.992141912523062,0.03162277660168379,-0.40475625629850537,-0.692354149950609
25065171,1821.0,1,188338.0,223655,0.47,0.11,9.95,-0.03,-0.01,-0.01,30.59,23.145685,-22.71111171335239,-707.9529404060037,9.961701661864803,0.033166247903554,-0.9784162116599838,-1.2378107901894204
25106170,1816.5,1,188332.0,223626,0.46,0.11,9.97,-0.03,-0.01,-0.01,30.59,23.186684,-29.42484781226988,-773.7291282430283,9.981212351212653,0.033166247903554,-1.2670485821136994,-1.3527972274265683
25146170,1816.5,1,188350.0,223847,0.48,0.1,10.0,-0.03,-0.01,-0.0,30.59,23.226684,-25.319262226338743,-640.0970079848189,10.012012784650247,0.03162277660168379,-1.0905440424194777,-1.1191886539560283
25186170,1816.5,1,188497.0,224499,0.45,0.1,10.01,-0.03,-0.01,-0.01,30.59,23.266684,-25.3385288365673,-419.6937013845081,10.020608763942437,0.033166247903554,-1.0913723394062735,-0.7338913022145362
25226170,1816.5,1,188743.0,224937,0.49,0.11,9.96,-0.03,-0.01,-0.01,30.59,23.306684,-24.140827432517092,-218.2900113753504,9.972652606002077,0.033166247903554,-1.0398815762524323,-0.38180807084897095
25266170,1816.5,1,188766.0,225064,0.47,0.11,9.98,-0.03,-0.01,-0.01,30.59,23.346684,-21.667455688715776,-90.77971293294915,9.99166652766194,0.033166247903554,-0.9335480625562771,-0.15890134105694517
25304191,1816.5,1,188900.0,225296,0.45,0.11,9.95,-0.03,-0.01,-0.0,30.59,23.384705,-22.677389781293986,-34.80447627494923,9.960778082057645,0.03162277660168379,-0.9769664613208445,-0.061048405998482505
25344170,1816.5,1,188919.0,225438,0.46,0.1,9.97,-0.03,-0.01,-0.01,30.59,23.424684,-19.08233154165017,-6.8275468111959015,9.981107153016643,0.033166247903554,-0.8224101656399844,-0.01214062417563267
25384170,1825.0,1,189055.0,225758,0.46,0.11,9.98,-0.03,-0.01,-0.01,30.59,23.464684,-12.160867186106886,53.18302343102973,9.99120112899345,0.033166247903554,-0.5248472834359204,0.09276666667893074
25424170,1826.0,1,189132.0,226070,0.44,0.08,9.97,-0.03,-0.01,-0.0,30.59,23.504684,-7.903716695292938,190.74855899521253,9.980025050068763,0.03162277660168379,-0.3418267685634411,0.33325142782590766
25464168,1845.0,1,189293.0,226420,0.49,0.1,9.99,-0.03,-0.01,-0.0,30.59,23.544682,9.850794530778337,401.6554674982987,10.002509685074042,0.03162277660168379,0.42146308762472917,0.7019476809070295
25504206,1863.0,1,189407.0,226945,0.47,0.11,9.96,-0.03,-0.01,-0.0,30.59,23.58472,30.57888959803345,610.549607111166,9.971689926988304,0.03162277660168379,1.3125912353659652,1.0671253183419922
25544171,1866.0,1,189561.0,227369,0.46,0.1,9.96,-0.03,-0.01,-0.01,30.59,23.624685,32.273393726749745,692.2671093685794,9.971118292348157,0.033166247903554,1.3854402029466022,1.2099795145714893
25584857,1867.0,1,189777.0,227350,0.47,0.11,9.96,-0.03,-0.01,-0.0,30.67,23.665371,35.8777858147398,543.4135906481521,9.971689926988304,0.03162277660168379,1.5403977730794127,0.949761700941363
25625171,1872.0,1,189273.0,224620,0.46,0.1,9.97,-0.03,-0.01,-0.01,30.67,23.705685,39.71539602253185,162.9670290062453,9.981107153016643,0.033166247903554,1.7053816978021898,0.2846852329843425
25665170,1870.0,1,188377.0,223146,0.47,0.14,9.99,-0.03,-0.01,-0.01,30.67,23.745684,38.78157453598372,-325.96196429650394,10.002029793996817,0.033166247903554,1.665235480365008,-0.5700344589066924
25705179,1874.0,1,188165.0,222974,0.46,0.13,9.95,-0.03,-0.01,-0.0,30.67,23.785693,44.2439058903927,-741.776384991551,9.961475794278677,0.03162277660168379,1.9000683102227274,-1.2969391391538916
25745170,1879.0,1,188210.0,222932,0.46,0.1,9.96,-0.03,-0.01,-0.01,30.67,23.825684,45.79847478087391,-949.3473869732317,9.971118292348157,0.033166247903554,1.966901277334071,-1.6598037376732895
25785171,1879.0,1,188219.0,223037,0.49,0.11,9.98,-0.03,-0.01,-0.0,30.67,23.865685,52.03200932655838,-923.7140436983055,9.992627282151577,0.03162277660168379,2.234889149618198,-1.6149928887234593
25825170,1872.0,1,188341.0,223578,0.48,0.11,9.97,-0.03,-0.01,-0.01,30.67,23.905684,36.70063019562252,-736.6436288548717,9.982154076150097,0.033166247903554,1.575772938362867,-1.2879663275518234
25865171,1816.5,1,188585.0,224399,0.46,0.12,9.97,-0.03,-0.01,-0.01,30.67,23.945685,-9.863687816983225,-496.023707395616,9.981327567012316,0.033166247903554,-0.42608851232866146,-0.8673273637153057
25905170,1816.5,1,188845.0,224827,0.46,0.11,9.98,-0.03,-0.01,-0.0,30.67,23.985684,-19.21538324351318,-288.9280478943133,9.99120112899345,0.03162277660168379,-0.8281302338011105,-0.505293733667683
25945171,1819.0,1,188981.0,225158,0.49,0.1,9.99,-0.03,-0.01,-0.0,30.67,24.025685,-9.702415489945139,-153.74754435750043,10.002509685074042,0.03162277660168379,-0.4191552022676516,-0.268978358806869
25985170,1816.5,1,189118.0,225526,0.47,0.12,9.99,-0.03,-0.01,-0.0,30.67,24.065684,-18.82813036323107,-77.20478457878464,10.00176984338272,0.03162277660168379,-0.8114817216829657,-0.13517037247204508
26025194,1816.5,1,189311.0,226029,0.49,0.12,9.98,-0.03,-0.01,-0.01,30.67,24.105708,-15.867902357477604,-5.664207936647874,9.992742366337682,0.033166247903554,-0.6842176151116838,-0.010106936957164005
26065170,1823.0,1,189444.0,226532,0.45,0.1,9.97,-0.03,-0.01,-0.0,30.67,24.145684,-13.0130713036141,129.75512049035956,9.980651281354339,0.03162277660168379,-0.561484662522981,0.22662593888919016
26105168,1826.0,1,189655.0,227046,0.47,0.11,10.01,-0.03,-0.01,-0.0,30.67,24.185682,-10.321790147136822,370.9996553964236,10.021631603686098,0.03162277660168379,-0.4457829357487186,0.6483568187710228
26144170,1840.0,1,189943.0,227736,0.46,0.1,9.98,-0.03,-0.01,-0.0,30.67,24.224684,1.8785254026462614,686.554901713641,9.991096035971228,0.03162277660168379,0.07872472221314322,1.1999937366083826
26184168,1840.0,1,190214.0,228412,0.47,0.12,9.98,-0.03,-0.01,-0.01,30.67,24.264682,-0.8576452064578155,955.9443457807437,9.991781622913903,0.033166247903554,-0.03890686133969172,1.6709260514959898
26224170,1839.0,1,190383.0,228938,0.48,0.1,9.99,-0.03,-0.01,-0.0,30.67,24.304684,-2.495596305753653,1018.0312882506605,10.002024795010257,0.03162277660168379,-0.10932453959089002,1.7794631459723738
26264168,1840.0,1,190490.0,228676,0.47,0.12,9.96,-0.03,-0.01,-0.0,30.67,24.344682,-5.85743110100372,771.7922719210414,9.97180525281155,0.03162277660168379,-0.25385425177056054,1.3490011789961558
26304170,1819.0,1,189745.0,225118,0.48,0.11,9.95,-0.03,-0.01,-0.01,30.67,24.384684,-27.524679466851424,262.20060372744626,9.962178476618455,0.033166247903554,-1.1853578385815438,0.45816009655912654
