timestamp_us,ecg,leads,ir,red,accX,accY,accZ,gyroX,gyroY,gyroZ,temp,time_sec,ecg_filtered,ppg_filtered,accel_magnitude,gyro_magnitude,ecg_norm,ppg_norm
1948963,1909.0,1,201628,232599,0.5549999999999999,-0.23,9.930000000000001,-0.03,-0.01,-0.01,32.10999999999999,0.030475,3.713025874493988,87.00269071082813,9.948156864464895,0.033166247903554,0.0686610809673002,0.07906041014624458
1989200,1901.0,1,201597,232915,0.57,-0.24,9.94,-0.03,-0.01,-0.01,32.10999999999999,0.070712,-2.438671977942255,86.47395595031112,9.959221857153297,0.033166247903554,-0.048187599744316474,0.07855555031770235
2029191,1918.0,1,201879,233549,0.56,-0.24,9.95,-0.03,-0.01,-0.01,32.10999999999999,0.110703,14.83624424135506,137.95102719283602,9.96863581439306,0.033166247903554,0.2799415148592556,0.12770818279441878
2069194,1902.0,1,202338,234970,0.58,-0.23,9.96,-0.04,-0.01,-0.01,32.10999999999999,0.150706,1.9506812153765694,238.89670149100633,9.979524036746444,0.042426406871192854,0.03518615204251871,0.22409567161475044
2109194,1903.0,1,202901,235839,0.58,-0.23,9.95,-0.03,-0.01,-0.01,32.10999999999999,0.190706,1.4766781087593646,350.0608699079996,9.969543620447226,0.033166247903554,0.026182680319749765,0.3302402401166681
2149193,1914.0,1,203111,236369,0.58,-0.24,9.98,-0.03,-0.01,-0.01,32.10999999999999,0.230705,17.70866274901715,470.12294566206424,9.999719996079891,0.033166247903554,0.3345017876689847,0.44488093239941284
2189194,1925.0,1,203263,237021,0.58,-0.23,9.99,-0.04,-0.01,-0.01,32.10999999999999,0.270706,23.263494675778233,666.2675097555056,10.00946552019637,0.042426406871192854,0.4400132737312835,0.6321686206551945
2229193,1952.0,1,203669,237853,0.58,-0.23,9.96,-0.04,-0.01,-0.01,32.10999999999999,0.310705,60.11769569901896,996.6521022938246,9.979524036746444,0.042426406871192854,1.1400419278598266,0.9476347507405157
2269190,1968.0,1,204066,238920,0.57,-0.23,9.94,-0.03,-0.01,-0.01,32.10999999999999,0.350702,65.27361068543787,1385.5376559993256,9.958985892147854,0.033166247903554,1.237976169507555,1.318960240621927
2309193,1901.0,1,204644,240382,0.57,-0.23,9.97,-0.03,-0.01,-0.01,32.10999999999999,0.390705,10.937477375976666,1594.2832899062143,9.988928871505694,0.033166247903554,0.20588622548232144,1.5182799994365748
2349193,1876.0,1,205168,241461,0.59,-0.22,9.97,-0.03,-0.01,-0.01,32.10999999999999,0.430705,-24.738967361980396,1366.6329504438452,9.989864863950864,0.033166247903554,-0.47177148790167434,1.3009091739660321
2389194,1870.0,1,204480,236750,0.57,-0.22,9.96,-0.03,-0.01,-0.01,32.10999999999999,0.470706,-23.95898376799221,654.5828838617798,9.978722363108416,0.033166247903554,-0.4569560570855898,0.6210116121401535
2429191,1885.0,1,202861,234762,0.57,-0.23,9.98,-0.03,-0.01,-0.01,32.10999999999999,0.510703,-10.545934358302546,-280.43955449690725,9.998909940588524,0.033166247903554,-0.20218133221491477,-0.27179004033928067
2469193,1869.0,1,202409,234518,0.5549999999999999,-0.23,9.97,-0.03,-0.01,-0.01,32.10999999999999,0.550705,-31.60404244472597,-1011.8522664313804,9.988084150626685,0.033166247903554,-0.6021704420842712,-0.9701759304210543
2509191,1841.0,1,202586,235144,0.57,-0.24,9.98,-0.03,-0.01,-0.01,32.10999999999999,0.590703,-52.262562967560726,-1237.759228543754,9.999144963445625,0.033166247903554,-0.9945695693579097,-1.1858821004618263
2549193,1869.0,1,202969,236293,0.57,-0.23,9.99,-0.03,-0.01,-0.01,32.10999999999999,0.630705,-33.94273509571463,-976.493371162538,10.008891047463749,0.033166247903554,-0.6465928369113764,-0.9364136603077465
2589190,1907.0,1,203597,237674,0.58,-0.23,9.98,-0.04,-0.01,-0.01,32.10999999999999,0.670702,7.393552846727865,-509.53159895405526,9.999484986738068,0.042426406871192854,0.1385710036171475,-0.49053747085043153
2629193,1963.0,1,204113,238649,0.57,-0.21,9.96,-0.03,-0.01,-0.01,32.10999999999999,0.710705,63.649433980666075,-132.75069197622798,9.978506902337644,0.033166247903554,1.2071256775380956,-0.13077004434567824
2669194,1959.0,1,204278,238934,0.57,-0.22,9.96,-0.03,-0.01,-0.01,32.10999999999999,0.750706,48.149657592704656,68.09463613208625,9.978722363108416,0.033166247903554,0.9127145302901692,0.061006145691687975
2709194,1935.0,1,204339,239333,0.59,-0.23,9.98,-0.04,-0.01,-0.01,32.10999999999999,0.790706,36.57077917226995,233.76946071890654,10.000069999755002,0.042426406871192854,0.6927790425593817,0.21919995056443423
2749191,1982.0,1,204553,240073,0.57,-0.22,9.96,-0.03,-0.01,-0.01,32.10999999999999,0.830703,65.88765192125632,536.7880396223464,9.978722363108416,0.033166247903554,1.249639601299723,0.5085357749023524
2789193,1887.0,1,205012,241104,0.57,-0.23,9.97,-0.04,-0.01,-0.01,32.10999999999999,0.870705,-22.208995702368174,954.5332953438038,9.988928871505694,0.042426406871192854,-0.4237158359898379,0.9074178116567335
2829190,1811.0,1,205452,242298,0.58,-0.24,9.97,-0.04,-0.01,-0.01,32.10999999999999,0.910702,-100.63278940091534,1224.2243874701135,9.989739736349492,0.042426406871192854,-1.9133398470985998,1.1649310464535503
2869193,1845.0,1,205921,243189,0.56,-0.24,9.99,-0.03,-0.01,-0.01,32.10999999999999,0.950705,-83.11862528567447,1041.6268341917219,10.008561335177,0.033166247903554,-1.5806663283850366,0.9905786559464129
2909190,1815.0,1,205008,237736,0.57,-0.22,9.97,-0.03,-0.01,-0.01,32.10999999999999,0.990702,-91.669846701955,342.4123564276618,9.988703619589481,0.033166247903554,-1.743092859227996,0.32293709401651294
2949194,1840.0,1,203110,235583,0.57,-0.23,9.97,-0.04,-0.01,-0.01,32.10999999999999,1.030706,-103.01402708339933,-589.4335219855603,9.988928871505694,0.042426406871192854,-1.9585703652959214,-0.5668314355642994
2989877,1840.0,1,202740,235440,0.57,-0.22,9.98,-0.03,-0.01,-0.01,32.10999999999999,1.071389,-71.49249057155627,-1300.4863086187004,9.998684913527379,0.033166247903554,-1.3598332290184552,-1.245776749454879
3028205,1936.0,1,202802,235840,0.57,-0.23,9.97,-0.03,-0.01,-0.01,32.10999999999999,1.109717,-11.737921349739333,-1488.746277317182,9.988928871505694,0.033166247903554,-0.2248225786993529,-1.4255358699362781
3068193,1933.0,1,203031,236928,0.57,-0.23,9.94,-0.03,-0.01,-0.01,32.10999999999999,1.149705,6.911868099654967,-1193.570636061929,9.958985892147854,0.033166247903554,0.12942162265525797,-1.1436888366747389
3108193,1935.0,1,203714,238400,0.58,-0.23,9.96,-0.03,-0.01,-0.01,32.10999999999999,1.189705,-11.706990094639202,-707.5287879647757,9.979524036746444,0.033166247903554,-0.22423505368790045,-0.6795941290471645
3148193,1967.0,1,204000,238646,0.58,-0.25,9.97,-0.04,-0.01,-0.01,32.10999999999999,1.229705,24.377579380400455,-310.6352318431579,9.9899849849737,0.042426406871192854,0.4611748019888105,-0.30062223679414973
3188194,2035.0,1,203889,238542,0.57,-0.22,9.97,-0.03,-0.01,-0.01,32.10999999999999,1.269706,87.4858496967426,-66.60552391916471,9.988703619589481,0.033166247903554,1.6598874672307007,-0.06761165057649911
3228193,2073.0,1,204020,239048,0.58,-0.23,9.95,-0.03,-0.01,-0.01,32.10999999999999,1.309705,118.36120740403483,155.37568723730465,9.969543620447226,0.033166247903554,2.2463507333300874,0.1443460351532369
3268193,2065.0,1,204304,239840,0.58,-0.24,9.97,-0.04,-0.01,-0.01,32.10999999999999,1.349705,111.94079708790588,477.4063927343556,9.989739736349492,0.042426406871192854,2.124397982550916,0.4518354966057038
3308193,2044.0,1,204547,240511,0.56,-0.23,9.99,-0.03,-0.01,-0.01,32.10999999999999,1.389705,82.38556319919228,829.1686920421361,10.008326533442043,0.033166247903554,1.563009863228415,0.7877140265939611
3348193,2015.0,1,204811,241105,0.57,-0.22,9.97,-0.03,-0.01,-0.01,32.10999999999999,1.429705,54.16224630751364,962.2792432986695,9.988703619589481,0.033166247903554,1.0269208967014765,0.9148139925935923
3388196,2000.0,1,205110,240906,0.57,-0.23,9.98,-0.03,-0.01,-0.01,32.10999999999999,1.469708,33.276867961258866,661.024034911847,9.998909940588524,0.033166247903554,0.6302127090657069,0.6271619140638851
3428193,1975.0,1,203487,236121,0.59,-0.23,9.95,-0.04,-0.01,-0.01,32.10999999999999,1.509705,8.2235640473628,-36.29961325577486,9.97013039032088,0.042426406871192854,0.15433668588836766,-0.03867419837196808
3468193,1949.0,1,202423,234548,0.57,-0.23,9.99,-0.03,-0.01,-0.01,32.10999999999999,1.549705,-23.687442052893253,-813.0291194750561,10.008891047463749,0.033166247903554,-0.4517982466845284,-0.7803306102751942
3508193,1912.0,1,202187,234576,0.57,-0.23,9.99,-0.03,-0.01,-0.01,32.10999999999999,1.589705,-56.97753191005578,-1282.8373501992378,10.008891047463749,0.033166247903554,-1.084128243035065,-1.2289247268776493
3548193,1907.0,1,202249,235104,0.57,-0.23,9.98,-0.04,-0.01,-0.01,32.10999999999999,1.629705,-71.91933042022367,-1257.7430962904584,9.998909940588524,0.042426406871192854,-1.3679408562765427,-1.204963599916007
3588193,1920.0,1,202550,236143,0.56,-0.24,9.96,-0.04,-0.01,-0.01,32.10999999999999,1.669705,-49.39210400097322,-852.5967286822698,9.97861713866205,0.042426406871192854,-0.9400465171326206,-0.8181115505346294
3628193,1923.0,1,203157,237367,0.56,-0.23,9.97,-0.03,-0.01,-0.01,32.10999999999999,1.709705,-58.53614148616001,-352.5689444289648,9.98836322927836,0.033166247903554,-1.1137333174520645,-0.3406624394195804
3670194,1872.0,1,203525,237683,0.59,-0.22,9.97,-0.03,-0.01,-0.01,32.10999999999999,1.751706,-99.71242061300146,28.956607302514467,9.989864863950864,0.033166247903554,-1.895857863877773,0.023635388177925494
3710191,1892.0,1,203459,237785,0.57,-0.24,9.96,-0.03,-0.01,-0.01,32.10999999999999,1.791703,-85.64242491553262,293.52176149003895,9.979183333319416,0.033166247903554,-1.6286047454210102,0.27625414592851444
3750194,1899.0,1,203603,238378,0.57,-0.23,9.95,-0.03,-0.01,-0.01,32.10999999999999,1.831706,-76.92022587745024,587.2713576627799,9.968966847171274,0.033166247903554,-1.462930573029654,0.5567395269409251
3790190,1886.0,1,203969,239216,0.5549999999999999,-0.23,9.95,-0.04,-0.01,-0.01,32.10999999999999,1.871702,-83.94079428207924,990.2435029942835,9.968120434665703,0.042426406871192854,-1.596283051581844,0.9415155306983183
3830194,1931.0,1,204205,239931,0.57,-0.23,9.96,-0.03,-0.01,-0.01,32.10999999999999,1.911706,-45.952930544474654,1365.8513829860763,9.97894784032866,0.033166247903554,-0.8747209938754731,1.3001628980594933
3870191,1966.0,1,204627,240937,0.595,-0.24,9.95,-0.03,-0.01,-0.01,32.10999999999999,1.951703,2.3879112448416953,1426.2850877650521,9.970663217660096,0.033166247903554,0.043491136021903895,1.3578677287444507
3910194,2027.0,1,204771,239003,0.57,-0.24,9.96,-0.03,-0.01,-0.01,32.10999999999999,1.991706,55.69380929680516,977.5926355973929,9.979183333319416,0.033166247903554,1.056012233600375,0.929435911157777
3950191,2033.0,1,202813,234911,0.58,-0.24,9.97,-0.04,-0.01,-0.01,32.10999999999999,2.031703,73.7186615333365,130.09058562265253,9.989739736349492,0.042426406871192854,1.3983860390736744,0.12020267818278964
3990880,2005.0,1,201823,233368,0.58,-0.22,9.96,-0.04,-0.01,-0.01,32.10999999999999,2.072392,43.81355348414327,-730.9403394684049,9.979298572545067,0.042426406871192854,0.8303522204584268,-0.7019485357566314
4029191,1989.0,1,201571,233380,0.56,-0.23,9.96,-0.04,-0.01,-0.01,32.10999999999999,2.110703,35.36212948667357,-1208.824073095112,9.978381632308919,0.042426406871192854,0.6698212958377158,-1.1582535072436313
4069194,1988.0,1,201863,234028,0.59,-0.24,9.96,-0.03,-0.01,-0.01,32.10999999999999,2.150706,38.229898942362034,-1170.418014361244,9.980345685395873,0.033166247903554,0.7242932620363745,-1.1215816678351467
4109190,2000.0,1,202212,235230,0.58,-0.22,9.97,-0.04,-0.01,-0.01,32.10999999999999,2.190702,54.30411320566205,-800.6010610916857,9.989279253279488,0.042426406871192854,1.0296155933987021,-0.7684637388434655
4149194,2010.0,1,202646,236059,0.58,-0.21,9.98,-0.03,-0.01,-0.01,32.10999999999999,2.230706,73.34207701062617,-407.0583758462909,9.999044954394394,0.033166247903554,1.3912329886946333,-0.39269140943814956
4189194,2015.0,1,202834,236356,0.58,-0.25,9.94,-0.03,-0.01,-0.01,32.10999999999999,2.270706,77.5319817096166,-159.55403667452953,9.960045180620417,0.033166247903554,1.4708183077607422,-0.15636308838067026
4229194,2019.0,1,202865,236554,0.58,-0.22,9.98,-0.04,-0.01,-0.01,32.10999999999999,2.310706,97.83561142970841,12.790930146816471,9.999259972617974,0.042426406871192854,1.8564764469215174,0.008199669540636898
4269193,2000.0,1,203031,237233,0.59,-0.24,9.94,-0.03,-0.01,-0.01,32.10999999999999,2.350705,71.3116168231811,291.20626014669136,9.960386538684128,0.033166247903554,1.3526653282159153,0.2740432006711066
4309193,1936.0,1,203455,238223,0.57,-0.23,9.96,-0.04,-0.01,-0.01,32.10999999999999,2.390705,29.539988820561256,731.1983435319206,9.97894784032866,0.042426406871192854,0.5592324028082482,0.6941675132103405
4349191,1973.0,1,203971,239415,0.58,-0.23,9.97,-0.03,-0.01,-0.01,32.10999999999999,2.430703,56.63140158827815,1140.402708978492,9.989504492215818,0.033166247903554,1.0738213693758931,1.084894322198799
4389193,1968.0,1,204392,240386,0.57,-0.22,9.99,-0.03,-0.01,-0.01,32.10999999999999,2.470705,72.39936623277515,1196.2152713127737,10.008666244810044,0.033166247903554,1.3733266296167261,1.1381866773733202
4429193,1979.0,1,204356,237670,0.58,-0.23,9.98,-0.03,-0.01,-0.01,32.10999999999999,2.510705,77.80906381453562,718.1063771185773,9.999484986738068,0.033166247903554,1.4760813553266694,0.6816667124075748
4469233,1964.0,1,202471,234307,0.58,-0.24,9.96,-0.03,-0.01,-0.01,32.10999999999999,2.550745,77.78059959277715,-141.54507126050373,9.979759516140659,0.033166247903554,1.475540690482631,-0.13916731486606793
4509194,1926.0,1,201720,233321,0.58,-0.23,9.98,-0.04,-0.01,-0.01,32.10999999999999,2.590706,37.658177081444855,-968.6126085352369,9.999484986738068,0.042426406871192854,0.7134336673708618,-0.9288887522330234
4549193,1904.0,1,201656,233733,0.57,-0.23,9.96,-0.03,-0.01,-0.01,32.10999999999999,2.630705,29.07926668277431,-1372.4334750249197,9.97894784032866,0.033166247903554,0.5504811970002906,-1.3144751532829637
4589193,1904.0,1,201909,234528,0.57,-0.24,9.97,-0.03,-0.01,-0.01,32.10999999999999,2.670705,24.09360448060441,-1246.9355750725088,9.989164129195196,0.033166247903554,0.4557808289439152,-1.194644090557997
4629194,1863.0,1,202469,235952,0.56,-0.24,10.01,-0.03,-0.01,-0.01,32.10999999999999,2.710706,-0.9292959552400373,-798.3108453723779,10.028524318163665,0.033166247903554,-0.019517694105070153,-0.7662769374418633
4669242,1869.0,1,202916,236922,0.58,-0.23,9.98,-0.04,-0.01,-0.01,32.10999999999999,2.750754,-3.54795875589559,-338.9201743315028,9.999484986738068,0.042426406871192854,-0.06925799358418211,-0.32762997731234333
4709193,1835.0,1,203241,237266,0.595,-0.24,9.96,-0.04,-0.01,-0.01,32.10999999999999,2.790705,-22.79839963777522,-36.5093290227149,9.980642514387538,0.042426406871192854,-0.4349112935546586,-0.038874444457616814
4749190,1804.0,1,203340,237751,0.58,-0.24,9.99,-0.03,-0.01,-0.01,32.10999999999999,2.830702,-60.44820097454605,175.23847230963793,10.009700295213639,0.033166247903554,-1.1500520109281356,0.16331191940148226
4789194,1758.0,1,203657,238508,0.57,-0.23,9.97,-0.04,-0.01,-0.01,32.10999999999999,2.870706,-98.18693208881031,466.0151605705551,9.988928871505694,0.042426406871192854,-1.8668819086588648,0.4409586336745101
4829194,1744.0,1,203983,239496,0.59,-0.22,9.96,-0.04,-0.01,-0.01,32.10999999999999,2.910706,-115.27856825869101,883.5154108053317,9.979884768873838,0.042426406871192854,-2.1915297027410445,0.8396067281250477
4869193,1741.0,1,204366,240466,0.56,-0.23,9.97,-0.03,-0.01,-0.01,32.10999999999999,2.950705,-113.64949363042285,1239.3471189885875,9.98836322927836,0.033166247903554,-2.160586176960025,1.1793709134939572
4909191,1739.0,1,204751,241296,0.59,-0.22,9.98,-0.03,-0.01,-0.01,32.10999999999999,2.990703,-122.01477199310129,1225.067282908256,9.999844998798732,0.033166247903554,-2.319480804737835,1.1657358810854999
4949193,1744.0,1,204919,238840,0.58,-0.22,9.96,-0.04,-0.01,-0.01,32.10999999999999,3.030705,-107.88822470791773,679.4811545786234,9.979298572545067,0.042426406871192854,-2.0511535147962037,0.644785605498964
4989194,1759.0,1,202737,235153,0.57,-0.24,9.99,-0.04,-0.01,-0.01,32.10999999999999,3.070706,-108.4860636714067,-222.83977539420516,10.009125835955905,0.042426406871192854,-2.0625091918527456,-0.21679116987836086
5029880,1723.0,1,202010,234460,0.57,-0.22,9.97,-0.03,-0.01,-0.01,32.10999999999999,3.111392,-129.6240973263381,-1046.9020036040245,9.988703619589481,0.033166247903554,-2.4640164512572884,-1.0036430024216325
5070191,1754.0,1,202041,234934,0.56,-0.25,9.99,-0.03,-0.01,-0.01,32.10999999999999,3.151703,-118.46743973792572,-1393.8369841809513,10.008806122610228,0.033166247903554,-2.2521008546808154,-1.3349121904699077
5110194,1750.0,1,202404,235820,0.58,-0.23,9.97,-0.03,-0.01,-0.01,32.10999999999999,3.191706,-111.08329264328093,-1173.312496804664,9.989504492215818,0.033166247903554,-2.1118423655796223,-1.1243454503953751
5150190,1789.0,1,202943,237433,0.58,-0.23,9.96,-0.03,-0.01,-0.01,32.10999999999999,3.231702,-85.055496902845,-628.7792507237888,9.979524036746444,0.033166247903554,-1.617456316873259,-0.6044005143311796
5190194,1826.0,1,203628,238551,0.57,-0.23,9.98,-0.03,-0.01,-0.01,32.10999999999999,3.271706,-48.39601509165784,-111.85022851011725,9.998909940588524,0.033166247903554,-0.9211262649165788,-0.11081333790247788
5230193,1834.0,1,203736,238801,0.58,-0.23,9.96,-0.03,-0.01,-0.01,32.10999999999999,3.311705,-42.62750334177295,192.61234980147302,9.979524036746444,0.033166247903554,-0.8115560285668582,0.17990128228555805
5270194,1857.0,1,203886,239124,0.57,-0.24,9.96,-0.04,-0.01,-0.01,32.10999999999999,3.351706,-29.19598273278526,366.47298588479515,9.979183333319416,0.042426406871192854,-0.5564304517328865,0.345911269670235
5310194,1859.0,1,204114,239744,0.58,-0.24,9.96,-0.03,-0.01,-0.01,32.10999999999999,3.391706,-24.575883950432388,615.7689130718649,9.979759516140659,0.033166247903554,-0.46867379325826986,0.5839502798780596
5350194,1886.0,1,204333,240457,0.57,-0.24,9.96,-0.04,-0.01,-0.01,32.10999999999999,3.431706,-8.288993988026897,1019.3190221987408,9.979183333319416,0.042426406871192854,-0.15931178448394867,0.9692781495698013
5390191,1921.0,1,204726,241530,0.58,-0.21,9.96,-0.03,-0.01,-0.01,32.10999999999999,3.471703,28.20192221480843,1394.012915983895,9.979083124215371,0.033166247903554,0.5338164410141284,1.3270528016226009
5430194,1917.0,1,205216,242872,0.58,-0.24,9.98,-0.04,-0.01,-0.01,32.10999999999999,3.511706,16.452834844346913,1411.1806361118254,9.999719996079891,0.042426406871192854,0.31064791230294453,1.3434453161449538
5470191,1914.0,1,205379,239559,0.59,-0.24,9.97,-0.04,-0.01,-0.01,32.10999999999999,3.551703,13.118997100994065,883.0738488602947,9.990325320028372,0.042426406871192854,0.24732319263013108,0.8391851048377037
5510194,1964.0,1,202976,235843,0.59,-0.22,9.98,-0.03,-0.01,-0.01,32.10999999999999,3.591706,58.48661553664113,-29.215724930146738,9.999844998798732,0.033166247903554,1.1090603078777497,-0.03191018186964496
5550191,1993.0,1,202256,234930,0.57,-0.22,9.96,-0.03,-0.01,-0.01,32.10999999999999,3.631703,85.98203384093114,-888.0884273199589,9.978722363108416,0.033166247903554,1.631323174412712,-0.8520006273022986
5590194,1997.0,1,202282,235251,0.58,-0.21,10.01,-0.03,-0.01,-0.01,32.10999999999999,3.671706,89.18581786863274,-1286.822618010141,10.028987984836755,0.033166247903554,1.6921775833745607,-1.2327300405697925
5630191,2012.0,1,202444,236123,0.57,-0.24,9.96,-0.03,-0.01,-0.01,32.10999999999999,3.711703,101.05963555368487,-1130.4394904044289,9.979183333319416,0.033166247903554,1.917715307233859,-1.083408367614686
5670194,2039.0,1,202999,237666,0.57,-0.23,9.98,-0.04,-0.01,-0.01,32.10999999999999,3.751706,131.7271105533367,-657.8421647684478,9.998909940588524,0.042426406871192854,2.5002299365969796,-0.6321510972268015
5710191,2059.0,1,203529,238472,0.56,-0.22,9.96,-0.03,-0.01,-0.01,32.10999999999999,3.791703,148.09388184058812,-209.3442381846945,9.978156142294026,0.033166247903554,2.811109254518408,-0.20390502145298292
5750194,2041.0,1,203574,238383,0.57,-0.23,9.98,-0.03,-0.01,-0.01,32.10999999999999,3.831706,135.9384332930824,44.778968117637085,9.998909940588524,0.033166247903554,2.580222081529006,0.0387432928680676
5790193,2043.0,1,203588,238467,0.58,-0.22,9.96,-0.03,-0.01,-0.01,32.10999999999999,3.871705,137.63148471537357,188.23245449353195,9.979298572545067,0.033166247903554,2.612380817184936,0.17571916043671676
5830194,2035.0,1,203709,239029,0.57,-0.23,9.96,-0.03,-0.01,-0.01,32.10999999999999,3.911706,133.62814614221597,403.99243606205675,9.97894784032866,0.033166247903554,2.5363392361553774,0.3817365351870492
5870190,1995.0,1,203957,239798,0.57,-0.24,9.96,-0.03,-0.01,-0.01,32.10999999999999,3.951702,100.1243052450377,735.7426998176797,9.979183333319416,0.033166247903554,1.8999491367852035,0.6985066698283389
5910194,1981.0,1,204381,240785,0.56,-0.24,9.98,-0.03,-0.01,-0.01,32.10999999999999,3.991706,86.11790814153139,989.9559843842484,9.998579899165682,0.033166247903554,1.633904044466573,0.9412409949442795
5950190,1957.0,1,204708,241540,0.57,-0.22,9.96,-0.03,-0.01,-0.01,32.10999999999999,4.031702,75.75525329407017,879.2542500200703,9.978722363108416,0.033166247903554,1.437070165976239,0.8355379793608576
5990194,1916.0,1,204114,236918,0.57,-0.25,9.930000000000001,-0.04,-0.01,-0.01,32.10999999999999,4.071706,31.77318114925234,289.3240420373309,9.949487423983209,0.042426406871192854,0.6016508673756382,0.2722459738138415
6030878,1872.0,1,202372,234484,0.58,-0.23,9.97,-0.03,-0.01,-0.01,32.10999999999999,4.11239,5.642548982785657,-571.7240578185714,9.989504492215818,0.033166247903554,0.10531148789799333,-0.5499216393667158
6069193,1877.0,1,201827,233955,0.58,-0.22,9.97,-0.03,-0.01,-0.01,32.10999999999999,4.150705,8.450688717488713,-1288.495114424266,9.989279253279488,0.033166247903554,0.1586508148813519,-1.2343270156808046
6109199,1855.0,1,201835,234379,0.59,-0.23,9.99,-0.04,-0.01,-0.01,32.10999999999999,4.190711,3.2887466209240634,-1529.1896358922024,10.010049949925325,0.042426406871192854,0.06060209103928846,-1.4641530152434854
6149193,1834.0,1,202075,235178,0.57,-0.23,9.97,-0.03,-0.01,-0.01,32.10999999999999,4.230705,-14.419682500779851,-1267.5415384046573,9.988928871505694,0.033166247903554,-0.27576140241915764,-1.214319594972807
6189193,1788.0,1,202655,236554,0.57,-0.25,9.95,-0.03,-0.01,-0.01,32.10999999999999,4.270705,-48.82414745038626,-758.54911470451,9.969448329772314,0.033166247903554,-0.9292584428107772,-0.7283106412447055
6229193,1766.0,1,203189,237401,0.57,-0.23,9.97,-0.03,-0.01,-0.01,32.10999999999999,4.310705,-61.105364389363594,-306.1429471660371,9.988928871505694,0.033166247903554,-1.1625345287427842,-0.2963328004997847
6269193,1770.0,1,203317,237546,0.58,-0.24,9.98,-0.04,-0.01,-0.01,32.10999999999999,4.350705,-49.31220093845519,-27.638381392763463,9.999719996079891,0.042426406871192854,-0.9385287950883963,-0.030404063022726642
6309225,1744.0,1,203372,237886,0.59,-0.22,9.97,-0.04,-0.01,-0.01,32.10999999999999,4.390737,-64.27233698012732,191.6094324134342,9.989864863950864,0.042426406871192854,-1.2226897213347026,0.1789436514687905
6349193,1728.0,1,203633,238692,0.58,-0.23,9.98,-0.03,-0.01,-0.01,32.10999999999999,4.430705,-70.69455696435621,526.6707319248371,9.999484986738068,0.033166247903554,-1.3446768459298637,0.4988753125857099
6389193,1728.0,1,204015,239550,0.58,-0.24,9.96,-0.03,-0.01,-0.01,32.10999999999999,4.470705,-64.05354421988001,983.4319379745506,9.979759516140659,0.033166247903554,-1.2185338531504375,0.9350115407873769
6429194,1708.0,1,204408,240560,0.595,-0.24,9.99,-0.04,-0.01,-0.01,32.10999999999999,4.510706,-70.30280845573722,1324.8606262049877,10.010580652489645,0.042426406871192854,-1.3372357625897995,1.2610230722230362
6469194,1706.0,1,205005,241827,0.57,-0.23,9.98,-0.04,-0.01,-0.01,32.10999999999999,4.550706,-70.09014183592028,1238.9642169398285,9.998909940588524,0.042426406871192854,-1.3331962576347296,1.1790053013248312
6509213,1685.5,1,204243,236886,0.58,-0.24,9.97,-0.03,-0.01,-0.01,32.10999999999999,4.590725,-75.93697404791482,617.7995050442559,9.989739736349492,0.033166247903554,-1.4442541552593962,0.5858891808007417
6549193,1685.5,1,202419,234480,0.58,-0.25,9.97,-0.04,-0.01,-0.01,32.10999999999999,4.630705,-74.70650461082766,-300.4812896696775,9.9899849849737,0.042426406871192854,-1.4208819523605396,-0.2909267942253306
6589194,1685.5,1,201853,233952,0.58,-0.22,9.96,-0.03,-0.01,-0.01,32.10999999999999,4.670706,-62.377029959048066,-1068.6771469641653,9.979298572545067,0.033166247903554,-1.1866892332956371,-1.0244348927307425
6629193,1685.5,1,201862,234440,0.57,-0.23,9.96,-0.03,-0.01,-0.01,32.10999999999999,4.710705,-61.546071279609045,-1341.1678053644512,9.97894784032866,0.033166247903554,-1.1709055540988664,-1.2846212798425123
6669193,1685.5,1,202169,235411,0.58,-0.24,9.98,-0.03,-0.01,-0.01,32.10999999999999,4.750705,-50.4922044688938,-1098.0487565611647,9.999719996079891,0.033166247903554,-0.9609424212245038,-1.0524802320813287
6709193,1698.0,1,202715,236613,0.59,-0.22,9.96,-0.03,-0.01,-0.01,32.10999999999999,4.790705,-40.37184009027266,-607.1781870946871,9.979884768873838,0.033166247903554,-0.7687107391215869,-0.5837748432112132
6749193,1689.0,1,203122,237370,0.595,-0.23,9.94,-0.03,-0.01,-0.01,32.10999999999999,4.830705,-37.02137944085531,-178.63642023594403,9.960448032091728,0.033166247903554,-0.7050702749681728,-0.1745838100210869
6789193,1712.0,1,203233,237668,0.56,-0.23,9.94,-0.03,-0.01,-0.01,32.10999999999999,4.870705,-21.623893274434163,72.15208009882069,9.958418549147249,0.033166247903554,-0.41260208358761663,0.06488037643710415
6829194,1712.0,1,203424,238070,0.59,-0.21,9.98,-0.03,-0.01,-0.01,32.10999999999999,4.910706,-7.201456229826226,264.6715505241819,9.999629993154747,0.033166247903554,-0.13865450330433232,0.24870666153882268
6869193,1741.0,1,203652,238725,0.57,-0.23,9.97,-0.03,-0.01,-0.01,32.10999999999999,4.950705,8.757506293536379,581.0648858273123,9.988928871505694,0.033166247903554,0.16447867409035186,0.5508133073300895
6909193,1719.0,1,204015,239762,0.58,-0.23,9.96,-0.03,-0.01,-0.01,32.10999999999999,4.990705,3.4853912205339808,1038.573758525653,9.979524036746444,0.033166247903554,0.06433726506516867,0.9876634414146677
6949193,1722.0,1,204461,240752,0.57,-0.24,9.97,-0.03,-0.01,-0.01,32.10999999999999,5.030705,-12.439994692277711,1409.4731906145598,9.989164129195196,0.033166247903554,-0.23815814000393093,1.3418149700709567
6989193,1730.0,1,204870,241722,0.57,-0.23,9.94,-0.03,-0.01,-0.01,32.10999999999999,5.070705,15.071200743975895,1373.9655188707663,9.958985892147854,0.033166247903554,0.28440440592029614,1.3079106414601869
7029193,1763.0,1,204607,237739,0.57,-0.24,9.95,-0.03,-0.01,-0.01,32.10999999999999,5.110705,24.247352457571978,793.0401729094946,9.969202575933542,0.033166247903554,0.45870120128691405,0.7532168848570443
7069880,1727.0,1,202583,234897,0.5549999999999999,-0.25,9.98,-0.03,-0.01,-0.01,32.10999999999999,5.151392,7.602484358831859,-131.64325606902057,9.998546144315183,0.033166247903554,0.14253956191341793,-0.129712614526448
7110193,1767.0,1,201962,234101,0.57,-0.23,9.95,-0.03,-0.01,-0.01,32.10999999999999,5.191705,24.693378996991,-963.997726738564,9.968966847171274,0.033166247903554,0.4671732709404717,-0.9244822546720672
7150194,1751.0,1,201953,234377,0.57,-0.23,9.96,-0.03,-0.01,-0.01,32.10999999999999,5.231706,21.124627285238148,-1330.5557543605269,9.97894784032866,0.033166247903554,0.3993864681246443,-1.2744884142728572
7190194,1750.0,1,202116,235195,0.58,-0.23,9.95,-0.03,-0.01,-0.01,32.10999999999999,5.271706,4.639201538602405,-1165.1609554141519,9.969543620447226,0.033166247903554,0.08625336313951626,-1.116561990528381
7230191,1753.0,1,202609,236576,0.56,-0.22,9.95,-0.03,-0.01,-0.01,32.10999999999999,5.311703,10.127243216614271,-709.2560946325923,9.968174356420537,0.033166247903554,0.19049619904409384,-0.681243439463792
7270194,1759.0,1,203167,237442,0.58,-0.24,9.96,-0.03,-0.01,-0.01,32.10999999999999,5.351706,7.45133010934905,-286.76234480677533,9.979759516140659,0.033166247903554,0.13966845623500332,-0.2778273260827546
7310191,1764.0,1,203332,237633,0.58,-0.24,9.96,-0.04,-0.01,-0.01,32.10999999999999,5.391703,9.98404085224698,-49.17796333588785,9.979759516140659,0.042426406871192854,0.18777613577823052,-0.050971028652230105
7350194,1776.0,1,203416,237929,0.58,-0.22,9.94,-0.04,-0.01,-0.01,32.10999999999999,5.431706,13.71921615878218,105.40141830514663,9.959337327352658,0.042426406871192854,0.2587240784868276,0.0966283461933848
7390194,1777.0,1,203661,238749,0.59,-0.24,9.95,-0.03,-0.01,-0.01,32.10999999999999,5.471706,13.858811589320949,384.09627079028104,9.970366091573567,0.033166247903554,0.26137562969807016,0.36273877801682924
7430193,1792.0,1,204063,239821,0.59,-0.22,9.97,-0.03,-0.01,-0.01,32.10999999999999,5.511705,17.4919162729967,853.3378078571752,9.989864863950864,0.033166247903554,0.33038478771557317,0.8107917899217713
7470191,1788.0,1,204548,241084,0.56,-0.22,9.96,-0.03,-0.01,-0.01,32.10999999999999,5.551703,14.894869658404222,1312.0000782815212,9.978156142294026,0.033166247903554,0.28105507778166894,1.2487432402459375
7510194,1803.0,1,205075,242481,0.57,-0.23,9.95,-0.03,-0.01,-0.01,32.10999999999999,5.591706,18.388631121522682,1412.064259103892,9.968966847171274,0.033166247903554,0.34741747520091226,1.344289039284765
7550194,1806.0,1,205413,239720,0.57,-0.23,9.95,-0.04,-0.01,-0.01,32.10999999999999,5.631706,20.881438397807685,947.0470862747567,9.968966847171274,0.042426406871192854,0.39476720668794646,0.9002696411386183
7590194,1813.0,1,203108,236017,0.57,-0.22,9.96,-0.03,-0.01,-0.01,32.10999999999999,5.671706,20.889794700753978,65.03443767347021,9.978722363108416,0.033166247903554,0.39492593083180444,0.05808412999593274
7630190,1811.0,1,202507,235379,0.58,-0.22,9.94,-0.03,-0.01,-0.01,32.10999999999999,5.711702,13.647985904063686,-794.6058047046804,9.959337327352658,0.033166247903554,0.25737109245105994,-0.7627391972819262
7670194,1795.0,1,202516,235802,0.56,-0.22,9.95,-0.03,-0.01,-0.01,32.10999999999999,5.751706,-3.588074635199565,-1204.9852590391808,9.968174356420537,0.033166247903554,-0.07001997632206959,-1.154588034211013
7710191,1821.0,1,202790,236680,0.58,-0.23,9.95,-0.03,-0.01,-0.01,32.10999999999999,5.791703,13.164834743509461,-1044.7463485427036,9.969543620447226,0.033166247903554,0.24819385763731014,-1.0015846856134272
7750194,1837.0,1,203303,238377,0.57,-0.24,9.95,-0.03,-0.01,-0.01,32.10999999999999,5.831706,32.5071416855652,-543.3374501376846,9.969202575933542,0.033166247903554,0.6155921113085769,-0.5228168243311873
7790191,1835.0,1,204054,239740,0.59,-0.23,9.95,-0.04,-0.01,-0.01,32.10999999999999,5.871703,18.517058208870004,-60.324166439573425,9.97013039032088,0.042426406871192854,0.34985688885290545,-0.06161392677060062
7830193,1833.0,1,204343,239904,0.57,-0.23,9.96,-0.03,-0.01,-0.01,32.10999999999999,5.911705,23.766936794688842,204.08849197126656,9.97894784032866,0.033166247903554,0.4495759259974491,0.1908592211252569
7870193,1855.0,1,204361,240191,0.57,-0.23,9.99,-0.04,-0.01,-0.01,32.10999999999999,5.951705,31.775945335181305,329.73925634880516,10.008891047463749,0.042426406871192854,0.6017033718202305,0.31083624570713786
7910194,1840.0,1,204533,240934,0.5549999999999999,-0.23,9.99,-0.03,-0.01,-0.01,32.10999999999999,5.991706,26.528930235949474,538.8304733518409,10.008048011475564,0.033166247903554,0.5020387252907581,0.510485982869525
7949205,1887.0,1,204930,242094,0.58,-0.23,9.97,-0.03,-0.01,-0.01,32.10999999999999,6.030717,60.12795082736422,926.4351613655296,9.989504492215818,0.033166247903554,1.1402367193216987,0.8805884443407714
7989193,1907.0,1,205446,243179,0.56,-0.24,9.98,-0.03,-0.01,-0.01,32.10999999999999,6.070705,88.59280763232314,1302.714688725574,9.998579899165682,0.033166247903554,1.680913625777258,1.239877130942703
8029193,1871.0,1,205874,244383,0.56,-0.24,9.94,-0.03,-0.01,-0.01,32.10999999999999,6.110705,43.95260606335868,1306.0435741643287,9.958654527595582,0.033166247903554,0.8329934604576301,1.2430557011017807
8069880,1808.0,1,206262,242398,0.57,-0.22,9.96,-0.04,-0.01,-0.01,32.10999999999999,6.151392,-15.913248547289532,711.9166589787794,9.978722363108416,0.042426406871192854,-0.3041310048080666,0.6757564899820104
8110194,1797.0,1,203716,237263,0.56,-0.25,9.97,-0.04,-0.01,-0.01,32.10999999999999,6.191706,-28.04281588368022,-329.288349525898,9.988843776934345,0.042426406871192854,-0.5345265760565262,-0.3184330759867117
8150225,1808.0,1,202887,236411,0.57,-0.23,9.97,-0.03,-0.01,-0.01,32.10999999999999,6.231737,-20.61781232585374,-1352.6290547391568,9.988928871505694,0.033166247903554,-0.3934920371661791,-1.2955649983688593
8190194,1808.0,1,202880,236800,0.58,-0.23,9.96,-0.04,-0.01,-0.01,32.10999999999999,6.271706,-15.212347572251359,-1902.2306241423858,9.979524036746444,0.042426406871192854,-0.2908177120867308,-1.82034939844147
8230193,1826.0,1,203102,237675,0.59,-0.21,9.97,-0.03,-0.01,-0.01,32.10999999999999,6.311705,-4.646414910767312,-1843.8646611973259,9.989649643506024,0.033166247903554,-0.09012266470347069,-1.7646189410447748
8270191,1814.0,1,203673,239480,0.58,-0.23,9.97,-0.03,-0.01,-0.01,32.10999999999999,6.351703,-9.95868041606602,-1410.3356923574706,9.989504492215818,0.033166247903554,-0.19102671278479133,-1.3506659021665268
8310194,1797.0,1,204351,240474,0.57,-0.24,9.95,-0.03,-0.01,-0.01,32.10999999999999,6.391706,-31.90815173361008,-969.3173533292204,9.969202575933542,0.033166247903554,-0.6079468586201033,-0.9295616743906449
8350191,1803.0,1,204468,240353,0.58,-0.24,9.97,-0.03,-0.01,-0.01,32.10999999999999,6.431703,-25.210121569494937,-733.1802296782116,9.989739736349492,0.033166247903554,-0.48072084609195,-0.7040872840889156
8390193,1815.0,1,204380,240516,0.57,-0.25,9.97,-0.03,-0.01,-0.01,32.10999999999999,6.471705,-9.482040063532828,-651.167578417375,9.989409391951058,0.033166247903554,-0.18197314778478624,-0.6257779007350522
8430194,1807.0,1,204619,241189,0.58,-0.23,9.98,-0.03,-0.01,-0.01,32.10999999999999,6.511706,-27.24539190607008,-545.6441315710193,9.999484986738068,0.033166247903554,-0.5193798731483764,-0.525019347940182
8470194,1796.0,1,204876,241917,0.58,-0.22,9.97,-0.03,-0.01,-0.01,32.10999999999999,6.551706,-25.271760790279263,-341.0976568943884,9.989279253279488,0.033166247903554,-0.48189165483475715,-0.3297091360048363
8510193,1829.0,1,205190,242575,0.57,-0.23,9.95,-0.03,-0.01,-0.01,32.10999999999999,6.591705,-8.9621660881351,-163.56193616238403,9.968966847171274,0.033166247903554,-0.17209837993716337,-0.160190011820079
8550193,1813.0,1,205439,243604,0.58,-0.23,9.95,-0.03,-0.01,-0.01,32.10999999999999,6.631705,-10.949450517468376,-213.6024032868064,9.969543620447226,0.033166247903554,-0.209845936682716,-0.20797090980360816
8590191,1837.0,1,205911,242487,0.595,-0.23,9.95,-0.03,-0.01,-0.01,32.10999999999999,6.671703,0.04686380253188468,-531.5023297056895,9.97042752343148,0.033166247903554,-0.0009759869868884181,-0.5115161168342353
8630194,1820.0,1,204210,239026,0.56,-0.23,9.97,-0.04,-0.01,-0.01,32.10999999999999,6.711706,-12.641902448672665,-889.9857885645957,9.98836322927836,0.042426406871192854,-0.24199328528026298,-0.8538123135090337
8670171,1806.0,1,203948,239930,0.58,-0.23,9.930000000000001,-0.04,-0.01,-0.01,32.10999999999999,6.751683,-28.8221072445457,-944.5608851083617,9.949582905830779,0.042426406871192854,-0.549328858221771,-0.9059230804592141
8710194,1825.0,1,205197,243346,0.57,-0.23,9.95,-0.03,-0.01,-0.01,32.10999999999999,6.791706,-16.9501053008963,-520.3162224069252,9.968966847171274,0.033166247903554,-0.3238256235380649,-0.500835116388214
8750191,1814.0,1,206340,245081,0.57,-0.22,9.96,-0.03,-0.01,-0.01,32.10999999999999,6.831703,-23.562225836468933,235.06662575882768,9.978722363108416,0.033166247903554,-0.4494198220538246,0.22043854232829935
8790194,1824.0,1,206738,245991,0.57,-0.23,9.96,-0.03,-0.01,-0.01,32.10999999999999,6.871706,-24.13122618566319,980.1926678864004,9.97894784032866,0.033166247903554,-0.4602277228517267,0.9319185394123466
8830191,1824.0,1,207215,246592,0.56,-0.24,9.97,-0.03,-0.01,-0.01,32.10999999999999,6.911703,-21.651044721484077,1468.0753831688269,9.98859850029022,0.033166247903554,-0.4131178128778543,1.3977709901673396
8870193,1831.0,1,207275,247157,0.58,-0.23,9.94,-0.03,-0.01,-0.01,32.10999999999999,6.951705,-23.274930390912303,1730.0906262665553,9.959563243435928,0.033166247903554,-0.443962776764376,1.6479549776479854
8910190,1837.0,1,207717,247831,0.59,-0.23,9.97,-0.03,-0.01,-0.01,32.10999999999999,6.991702,-16.849293552317263,2000.6751888720087,9.990090089683877,0.033166247903554,-0.32191075058684754,1.9063213384100155
8950194,1845.0,1,207902,248565,0.57,-0.22,9.96,-0.03,-0.01,-0.01,32.10999999999999,7.031706,-20.426382047055036,2456.899412056757,9.978722363108416,0.033166247903554,-0.3898559067738148,2.3419448311205047
8990193,1843.0,1,208534,250066,0.57,-0.22,9.95,-0.03,-0.01,-0.01,32.10999999999999,7.071705,-16.107241086790165,2997.4767443534115,9.968741144196693,0.033166247903554,-0.30781580416789994,2.8581124820429467
9030194,1843.0,1,208645,250382,0.56,-0.23,9.98,-0.03,-0.01,-0.01,32.10999999999999,7.111706,-37.89563236826458,3255.7091118239146,9.99834486302608,0.033166247903554,-0.721676308558653,3.1046844090290446
9070878,1811.0,1,208664,250411,0.59,-0.24,9.98,-0.03,-0.01,-0.01,32.10999999999999,7.15239,-53.97076111430917,2860.213345270676,10.000304995348891,0.033166247903554,-1.0270160101015064,2.7270471893841637
9109194,1895.0,1,208250,245718,0.59,-0.23,9.94,-0.03,-0.01,-0.01,32.10999999999999,7.190706,0.0946235820837288,1750.602523499245,9.960150601271046,0.033166247903554,-6.88118678275017e-05,1.6675406635027334
9149193,1904.0,1,204708,239462,0.57,-0.21,10.01,-0.04,-0.01,-0.01,32.10999999999999,7.230705,27.716627899608984,283.8564522239801,10.028414630438851,0.042426406871192854,0.5245984979603345,0.2670252721277856
9189193,1913.0,1,204039,238911,0.58,-0.23,9.96,-0.03,-0.01,-0.01,32.10999999999999,7.270705,8.79125705359557,-979.0282663922726,9.979524036746444,0.033166247903554,0.16511975430601444,-0.9388340927563431
9229193,1899.0,1,203900,238615,0.58,-0.21,9.96,-0.03,-0.01,-0.01,32.10999999999999,7.310705,6.332759668144941,-1642.6532917233726,9.979083124215371,0.033166247903554,0.11842172346740665,-1.572493238180003
9269193,1919.0,1,203712,238343,0.595,-0.23,9.97,-0.03,-0.01,-0.01,32.10999999999999,7.350705,8.062465967436674,-1702.172072488018,9.99038662915505,0.033166247903554,0.1512767017090264,-1.6293244580954465
9309193,1919.0,1,203714,238873,0.595,-0.21,9.96,-0.03,-0.01,-0.01,32.10999999999999,7.390705,8.975324842668172,-1460.95241876081,9.979966182307434,0.033166247903554,0.16861603758106505,-1.3989970385351118
9349193,1930.0,1,203980,239013,0.595,-0.24,9.96,-0.03,-0.01,-0.01,32.10999999999999,7.430705,11.664664004672433,-1245.3883760774333,9.980642514387538,0.033166247903554,0.21969880214529552,-1.1931667550814893
9389193,1941.0,1,203837,238568,0.59,-0.22,9.96,-0.03,-0.01,-0.01,32.10999999999999,7.470705,15.7618718663919,-1164.108636637319,9.979884768873838,0.033166247903554,0.29752338728053324,-1.1155571890344824
9429193,1948.0,1,203739,238627,0.59,-0.24,9.97,-0.04,-0.01,-0.01,32.10999999999999,7.510705,20.41274341333452,-1086.0118313956916,9.990325320028372,0.042426406871192854,0.3858645603120111,-1.0409868323107627
9469193,1953.0,1,204052,239355,0.59,-0.21,9.95,-0.04,-0.01,-0.01,32.10999999999999,7.550705,15.688251103073434,-822.7677076780535,9.969689062352947,0.042426406871192854,0.2961249946297404,-0.7896294541144021
9509193,1957.0,1,204387,240189,0.59,-0.23,9.96,-0.03,-0.01,-0.01,32.10999999999999,7.590705,18.713391993420846,-349.73301041197817,9.980110219832245,0.033166247903554,0.35358615908921903,-0.3379545615411278
9549193,1980.0,1,204740,240970,0.56,-0.23,9.97,-0.03,-0.01,-0.01,32.10999999999999,7.630705,33.66162274058727,118.65193237925811,9.98836322927836,0.033166247903554,0.637520949723887,0.10928053546312567
9589242,1987.0,1,205033,241861,0.58,-0.23,9.96,-0.03,-0.01,-0.01,32.10999999999999,7.670754,37.68148509323283,266.0500532455451,9.979524036746444,0.033166247903554,0.7138763923701653,0.25002291819437505
9629193,1987.0,1,205163,239726,0.57,-0.23,9.98,-0.04,-0.01,-0.01,32.10999999999999,7.710705,33.84864193769635,-77.13295676175441,9.998909940588524,0.042426406871192854,0.6410732936416377,-0.07766371890410945
9669194,1984.0,1,203519,236604,0.5549999999999999,-0.22,9.97,-0.04,-0.01,-0.01,32.10999999999999,7.750706,25.044420155724183,-773.4055282269286,9.987858879659845,0.042426406871192854,0.47384113683008217,-0.7424962158347828
9709193,1969.0,1,202800,235631,0.58,-0.25,9.94,-0.03,-0.01,-0.01,32.10999999999999,7.790705,9.92883525731752,-1447.76888316858,9.960045180620417,0.033166247903554,0.18672753080930266,-1.3864088033448148
9749193,1968.0,1,202734,235885,0.56,-0.23,9.96,-0.03,-0.01,-0.01,32.10999999999999,7.830705,2.332068424205361,-1742.8675742390387,9.978381632308919,0.033166247903554,0.04243042724278417,-1.6681823610946183
9789242,1963.0,1,202918,236543,0.59,-0.23,9.97,-0.03,-0.01,-0.01,32.10999999999999,7.870754,-1.6647487944277441,-1557.0107642466849,9.990090089683877,0.033166247903554,-0.033487283647031,-1.490717885079471
9829193,1968.0,1,203377,237868,0.57,-0.23,9.98,-0.03,-0.01,-0.01,32.10999999999999,7.910705,-1.3681996591315648,-1078.0206801781899,9.998909940588524,0.033166247903554,-0.02785446876295694,-1.0333565202246462
9869193,1982.0,1,203969,238895,0.58,-0.23,9.98,-0.03,-0.01,-0.01,32.10999999999999,7.950705,12.935121959304023,-599.2891814203126,9.999484986738068,0.033166247903554,0.24383056860380084,-0.5762420643028644
9909193,1990.0,1,204212,239357,0.57,-0.23,9.97,-0.04,-0.01,-0.01,32.10999999999999,7.990705,18.709512732908877,-279.54185931067013,9.988928871505694,0.042426406871192854,0.3535124743140832,-0.27093288043293423
9949193,1981.0,1,204334,239713,0.5549999999999999,-0.23,9.98,-0.03,-0.01,-0.01,32.10999999999999,8.030705,10.244710549869394,-44.501376239800415,9.998066062994383,0.033166247903554,0.19272743719115873,-0.04650561208460205
9989194,2000.0,1,204537,240396,0.57,-0.23,10.0,-0.03,-0.01,-0.01,32.10999999999999,8.070706,27.093976708683055,292.75527203758094,10.01887219201842,0.033166247903554,0.5127715240177834,0.2755222671824131
10029193,2018.0,1,204944,241363,0.57,-0.22,9.95,-0.03,-0.01,-0.01,32.10999999999999,8.110705,49.316962164616605,799.5873400587191,9.968741144196693,0.033166247903554,0.9348869455303833,0.7594684157402468
10069194,2000.0,1,205412,242651,0.57,-0.22,9.97,-0.04,-0.01,-0.01,32.10999999999999,8.150706,25.197491614607134,1290.0525381988953,9.988703619589481,0.042426406871192854,0.4767486590221859,1.2277867377602611
10109880,1967.0,1,206047,244081,0.58,-0.23,9.95,-0.04,-0.01,-0.01,32.49,8.191392,3.6657254602599867,1430.3817443197709,9.969543620447226,0.042426406871192854,0.06776263128187439,1.3617794014398288
10150194,1983.0,1,206331,241428,0.58,-0.24,9.98,-0.03,-0.01,-0.01,32.49,8.231706,7.080560707395181,1018.5213020373396,9.999719996079891,0.033166247903554,0.13262586140902574,0.9685164503323314
10190194,1932.0,1,204055,237657,0.58,-0.23,9.98,-0.04,-0.01,-0.01,32.49,8.271706,-24.665656655294093,198.1986928074587,9.999484986738068,0.042426406871192854,-0.4703789846344766,0.18523537488318154
10230194,1929.0,1,203503,237057,0.58,-0.23,9.96,-0.03,-0.01,-0.01,32.49,8.311706,-45.55541158662048,-598.9759041981448,9.979524036746444,0.033166247903554,-0.867170303497414,-0.5759429330626274
10270194,1936.0,1,203456,237566,0.58,-0.24,9.94,-0.03,-0.01,-0.01,32.49,8.351706,-14.63456550840217,-952.5509595343872,9.959799194762914,0.033166247903554,-0.27984300664457784,-0.9135523643761981
10310194,1947.0,1,203840,238490,0.56,-0.23,9.96,-0.03,-0.01,-0.01,32.49,8.391706,-22.41889642150853,-742.8246336727259,9.978381632308919,0.033166247903554,-0.4277028039294706,-0.7132961965922309
10350194,1901.0,1,204366,240085,0.57,-0.24,9.98,-0.04,-0.01,-0.01,32.49,8.431706,-45.76469602244488,-194.38342176878177,9.999144963445625,0.042426406871192854,-0.8711455654179701,-0.1896197582650589
10390194,1941.0,1,205074,241398,0.57,-0.22,9.97,-0.04,-0.01,-0.01,32.49,8.471706,-19.06266188348686,340.8634172670669,9.988703619589481,0.042426406871192854,-0.3639526674088215,0.32145809695137645
10430194,1930.0,1,205341,241480,0.57,-0.24,9.94,-0.03,-0.01,-0.01,32.49,8.511706,-14.788258548215078,661.9699039338087,9.959221857153297,0.033166247903554,-0.28276233548150764,0.628065072524252
10470194,1930.0,1,205357,241698,0.57,-0.23,9.97,-0.04,-0.01,-0.01,32.49,8.551706,-18.943105970368745,828.7639561151698,9.988928871505694,0.042426406871192854,-0.3616817576446834,0.7873275664518413
10510194,1941.0,1,205479,242147,0.57,-0.22,9.95,-0.03,-0.01,-0.01,32.49,8.591706,-0.3440475132211057,1028.607183505587,9.968741144196693,0.033166247903554,-0.008401168232239992,0.9781469054659747
10550194,1931.0,1,205787,242911,0.58,-0.23,9.97,-0.03,-0.01,-0.01,32.49,8.631706,-9.151919821079572,1332.752096000323,9.989504492215818,0.033166247903554,-0.1757026651095707,1.2685582039853653
10590194,1923.0,1,206046,243622,0.57,-0.22,9.96,-0.04,-0.01,-0.01,32.49,8.671706,-11.111511889845197,1569.9144338683348,9.978722363108416,0.042426406871192854,-0.21292421816057597,1.4950115151231467
10630194,1931.0,1,206444,244608,0.56,-0.23,9.95,-0.04,-0.01,-0.01,32.49,8.711706,-3.0884192075966843,1446.2998569516449,9.96840007222824,0.042426406871192854,-0.060529250521439835,1.3769787342890358
10670194,1922.0,1,206324,240720,0.56,-0.22,9.96,-0.03,-0.01,-0.01,32.49,8.751706,-3.4719001537125402,819.9386199348152,9.978156142294026,0.033166247903554,-0.06781329530168446,0.778900736888972
10710194,1932.0,1,204050,237465,0.56,-0.23,9.98,-0.04,-0.01,-0.01,32.49,8.791706,4.491014220719561,-119.19497720867217,9.99834486302608,0.042426406871192854,0.08343861296677396,-0.11782643567008515
10750194,1906.0,1,203389,236808,0.57,-0.24,9.96,-0.03,-0.01,-0.01,32.49,8.831706,-12.677010570472156,-944.679244755877,9.979183333319416,0.033166247903554,-0.2426601479599553,-0.9060360955961279
10790194,1891.0,1,203442,237212,0.58,-0.22,9.95,-0.03,-0.01,-0.01,32.49,8.871706,-28.151805196336795,-1296.5623236962986,9.969317930530654,0.033166247903554,-0.5365967780887251,-1.2420299514323905
10830193,1901.0,1,203683,237955,0.57,-0.23,9.98,-0.03,-0.01,-0.01,32.49,8.911705,-12.168162931473262,-1129.52050664018,9.998909940588524,0.033166247903554,-0.23299482031765334,-1.0825308804126
10870194,1904.0,1,204212,239331,0.57,-0.23,9.95,-0.03,-0.01,-0.01,32.49,8.951706,-7.422848444897734,-699.1520559663094,9.968966847171274,0.033166247903554,-0.14285974694136877,-0.6715956470174326
10910194,1895.0,1,204559,239872,0.58,-0.22,9.930000000000001,-0.03,-0.01,-0.01,32.49,8.991706,-11.247230160372048,-319.50518991536654,9.949356763127957,0.033166247903554,-0.21550212449471826,-0.3090916733546158
10950194,1902.0,1,204617,239885,0.58,-0.22,9.96,-0.03,-0.01,-0.01,32.49,9.031706,-4.586866965104605,-114.91585024039667,9.979298572545067,0.033166247903554,-0.08899157877293871,-0.11374053198294805
10990194,1899.0,1,204624,240076,0.59,-0.24,9.96,-0.04,-0.01,-0.01,32.49,9.071706,1.8706312794859534,27.89352845523527,9.980345685395873,0.042426406871192854,0.03366564020591028,0.022620312482808637
11029196,1918.0,1,204834,240692,0.57,-0.23,9.97,-0.04,-0.01,-0.01,32.49,9.110708,14.032948185934462,286.34677790599306,9.988928871505694,0.042426406871192854,0.2646832745249112,0.2694031475593271
11069193,1924.0,1,205156,241582,0.5549999999999999,-0.23,9.96,-0.03,-0.01,-0.01,32.49,9.150705,36.038437923695916,674.7170958599254,9.978102274480856,0.033166247903554,0.6826674645728887,0.6402366670755943
11109196,1926.0,1,205545,242464,0.57,-0.22,9.96,-0.03,-0.01,-0.01,32.49,9.190708,25.46492553557879,973.316367346101,9.978722363108416,0.033166247903554,0.4818284437568502,0.9253527371027238
11149881,1877.0,1,205886,243179,0.56,-0.23,9.98,-0.03,-0.01,-0.01,32.63,9.231393,-5.023473302041344,889.4775382166898,9.99834486302608,0.033166247903554,-0.09728471599865364,0.8452996366444382
11190194,1897.0,1,205336,238749,0.59,-0.23,9.96,-0.04,-0.01,-0.01,32.63,9.271706,3.3699616833825257,319.91926500702294,9.980110219832245,0.042426406871192854,0.06214473392094829,0.3014596744746156
11230207,1888.0,1,203562,236420,0.57,-0.23,10.0,-0.03,-0.01,-0.01,32.63,9.311719,7.428724491644089,-517.8944076625671,10.01887219201842,0.033166247903554,0.1392390728893226,-0.4985226582940987
11270194,1870.0,1,203056,235779,0.57,-0.23,9.94,-0.03,-0.01,-0.01,32.63,9.351706,-13.721007474262068,-1213.5117107294657,9.958985892147854,0.033166247903554,-0.26249039056957124,-1.1627294753642703
11310194,1872.0,1,203048,236133,0.57,-0.21,9.96,-0.03,-0.01,-0.01,32.63,9.391706,-9.532527398293713,-1450.3107487015534,9.978506902337644,0.033166247903554,-0.18293213156470622,-1.3888358913537429
11350193,1869.0,1,203274,236881,0.58,-0.25,9.94,-0.03,-0.01,-0.01,32.63,9.431705,-4.771488173815122,-1211.6384039931775,9.960045180620417,0.033166247903554,-0.09249837400031884,-1.1609407574884782
11390194,1872.0,1,203776,238231,0.57,-0.24,9.95,-0.04,-0.01,-0.01,32.63,9.471706,-9.605388462879107,-744.8601942168403,9.969202575933542,0.042426406871192854,-0.18431609408631733,-0.7152398417315897
11430207,1872.0,1,204172,238863,0.57,-0.23,9.96,-0.03,-0.01,-0.01,32.63,9.511719,5.082977009747017,-333.62103311904156,9.97894784032866,0.033166247903554,0.09468267478311204,-0.32257011795804585
11470193,1873.0,1,204291,239046,0.56,-0.23,9.95,-0.03,-0.01,-0.01,32.63,9.551705,-4.906144180566159,-79.45624212901043,9.96840007222824,0.033166247903554,-0.0950561031209911,-0.07988209669909425
11510194,1843.0,1,204359,239348,0.58,-0.23,9.96,-0.03,-0.01,-0.01,32.63,9.591706,-22.4229121686594,130.92493483471196,9.979524036746444,0.033166247903554,-0.4277790812057456,0.12099935249210264
11550194,1869.0,1,204589,240039,0.58,-0.22,9.97,-0.04,-0.01,-0.01,32.63,9.631706,-0.32003983905155037,459.4986325816997,9.989279253279488,0.042426406871192854,-0.007945153466730021,0.4347363584453816
11590194,1872.0,1,204927,240962,0.57,-0.23,9.99,-0.03,-0.01,-0.01,32.63,9.671706,3.5499176080885415,905.7696376084681,10.008891047463749,0.033166247903554,0.06556291421727241,0.8608560689423324
11630199,1863.0,1,205379,241965,0.58,-0.23,9.96,-0.04,-0.01,-0.01,32.63,9.711711,3.964091414980883,1244.9163726772692,9.979524036746444,0.042426406871192854,0.07342995581807404,1.1846886884396155
11670193,1893.0,1,205804,242842,0.58,-0.23,9.94,-0.03,-0.01,-0.01,32.63,9.751705,22.070986238684892,1186.4540806795017,9.959563243435928,0.033166247903554,0.41736212262563466,1.1288662517128947
11710193,1865.0,1,205149,238460,0.57,-0.24,9.97,-0.04,-0.01,-0.01,32.63,9.791705,12.282459399516402,629.5842618220698,9.989164129195196,0.042426406871192854,0.2314335424672119,0.5971417988061123
11750194,1879.0,1,203470,236224,0.58,-0.24,9.97,-0.03,-0.01,-0.01,32.63,9.831706,10.550084080984789,-208.83433702731537,9.989739736349492,0.033166247903554,0.19852786742863382,-0.2034181447992971
11790194,1872.0,1,203003,235746,0.58,-0.24,9.98,-0.03,-0.01,-0.01,32.63,9.871706,19.667255243175997,-918.7596891518469,9.999719996079891,0.033166247903554,0.3717043542585485,-0.8812869333028338
11830193,1877.0,1,202989,235952,0.58,-0.22,9.94,-0.03,-0.01,-0.01,32.63,9.911705,14.970038027275322,-1178.4982972165662,9.959337327352658,0.033166247903554,0.28248286649049736,-1.1292970868344985
11870194,1872.0,1,203123,236683,0.57,-0.22,9.96,-0.03,-0.01,-0.01,32.63,9.951706,17.188302912211213,-961.9128885926972,9.978722363108416,0.033166247903554,0.3246177911066363,-0.9224915570530353
11910194,1872.0,1,203694,238058,0.58,-0.23,9.96,-0.04,-0.01,-0.01,32.63,9.991706,16.209305654536784,-511.91420007527785,9.979524036746444,0.042426406871192854,0.3060221869785427,-0.4928124860061757
11950194,1873.0,1,204133,238780,0.56,-0.23,9.95,-0.03,-0.01,-0.01,32.63,10.031706,16.46674654525838,-120.95908891267433,9.96840007222824,0.033166247903554,0.310912158684505,-0.11951088919748515
11990194,1873.0,1,204219,238866,0.5549999999999999,-0.23,9.96,-0.04,-0.01,-0.01,32.63,10.071706,20.515751863336313,92.23503083912483,9.978102274480856,0.042426406871192854,0.3878211585997653,0.08405648480845042
12030193,1874.0,1,204322,239187,0.56,-0.23,9.97,-0.03,-0.01,-0.01,32.63,10.111705,17.896142442952275,232.79184558238643,9.98836322927836,0.033166247903554,0.33806287851285005,0.21826647948014005
12069194,1886.0,1,204512,239851,0.56,-0.22,9.96,-0.04,-0.01,-0.01,32.63,10.150706,33.18010157740455,477.58519759919005,9.978156142294026,0.042426406871192854,0.628374675963003,0.45200622756599584
12109193,1897.0,1,204781,240670,0.57,-0.24,9.98,-0.04,-0.01,-0.01,32.63,10.190705,43.39230409074587,857.9765004687666,9.999144963445625,0.042426406871192854,0.822350781335476,0.8152210231241773
12149194,1873.0,1,205244,241668,0.58,-0.22,9.96,-0.03,-0.01,-0.01,32.63,10.230706,16.59255782124827,1172.1008657477478,9.979298572545067,0.033166247903554,0.31330188619887595,1.1151611538630968
12189880,1848.0,1,205598,242608,0.58,-0.21,9.97,-0.03,-0.01,-0.01,32.59,10.271392,-2.2814954211284038,1120.0618949316251,9.98906402021731,0.033166247903554,-0.045202103098830285,1.0654719942964892
12230194,1861.0,1,205378,238900,0.595,-0.23,9.97,-0.04,-0.01,-0.01,32.59,10.311706,-0.4222461346029202,563.8665367628964,9.99038662915505,0.042426406871192854,-0.009886515198413496,0.5343915469158882
12270194,1843.0,1,203530,236358,0.57,-0.23,9.97,-0.03,-0.01,-0.01,32.59,10.351706,-5.718532013937863,-311.10628048489076,9.988928871505694,0.033166247903554,-0.11048703760976135,-0.30107201531120387
12310194,1845.0,1,202958,235658,0.56,-0.24,9.96,-0.03,-0.01,-0.01,32.59,10.391706,-20.316544998761863,-1089.0696992966925,9.97861713866205,0.033166247903554,-0.3877696023918087,-1.0439066226848523
12350194,1819.0,1,202937,235955,0.58,-0.25,9.96,-0.03,-0.01,-0.01,32.59,10.431706,-31.959850534913784,-1408.6711900297894,9.980005010018782,0.033166247903554,-0.6089288536516566,-1.3490765601702872
12390194,1847.0,1,203198,236856,0.57,-0.22,9.96,-0.03,-0.01,-0.01,32.59,10.471706,-20.286465265250868,-1206.6886718223493,9.978722363108416,0.033166247903554,-0.3871982516425964,-1.1562145296674613
12430194,1855.0,1,203747,238500,0.58,-0.23,9.98,-0.03,-0.01,-0.01,32.59,10.511706,-1.458429452220144,-725.649294083393,9.999484986738068,0.033166247903554,-0.029568342320499628,-0.6968964066640136
12470194,1872.0,1,204420,239409,0.58,-0.21,9.95,-0.04,-0.01,-0.01,32.59,10.551706,3.0699007788911548,-293.35543123938277,9.969102266503237,0.042426406871192854,0.05644521459083918,-0.2841227027715797
12510194,1859.0,1,204541,239460,0.58,-0.24,9.96,-0.04,-0.01,-0.01,32.59,10.591706,-4.074050689097093,-64.99915893007868,9.979759516140659,0.042426406871192854,-0.07925086868991808,-0.06607782073680177
12550194,1849.0,1,204552,239823,0.5549999999999999,-0.24,9.98,-0.04,-0.01,-0.01,32.59,10.631706,-22.932405865788258,62.76234087889098,9.998301105687906,0.042426406871192854,-0.43745668042606717,0.055914629361964646
12590194,1840.0,1,204835,240637,0.57,-0.24,9.97,-0.04,-0.01,-0.01,32.59,10.671706,-29.748081413648954,303.9289186226353,9.989164129195196,0.042426406871192854,-0.5669173130887312,0.28619136957622204
12630194,1840.0,1,205251,241688,0.5549999999999999,-0.24,10.0,-0.03,-0.01,-0.01,32.59,10.711706,-36.128265662525074,733.8062572953514,10.018264570273635,0.033166247903554,-0.6881059881604378,0.6966576670526398
12670194,1828.0,1,205700,242778,0.57,-0.21,9.96,-0.03,-0.01,-0.01,32.59,10.751706,-48.830680562665535,1159.3612452420084,9.978506902337644,0.033166247903554,-0.9293825362836826,1.102996788845878
12710193,1855.0,1,206152,243907,0.57,-0.21,9.95,-0.03,-0.01,-0.01,32.59,10.791705,-25.88228565204385,1238.511142195359,9.968525467690794,0.033166247903554,-0.4934882947137106,1.1785726850966376
12750194,1867.0,1,206471,241826,0.56,-0.23,9.95,-0.03,-0.01,-0.01,32.59,10.831706,-16.8185086147331,766.9433483822966,9.96840007222824,0.033166247903554,-0.3213260048095376,0.728298458189929
12790193,1846.0,1,204308,237801,0.56,-0.23,9.97,-0.03,-0.01,-0.01,32.59,10.871705,-40.78619730638113,-109.6917649502745,9.98836322927836,0.033166247903554,-0.7765812644963724,-0.10875233941304378
12830193,1853.0,1,203598,236964,0.5549999999999999,-0.24,9.96,-0.03,-0.01,-0.01,32.59,10.911705,-36.48668771600455,-957.0828924336957,9.978337787427323,0.033166247903554,-0.6949140507622835,-0.9178796585837372
12870194,1851.0,1,203566,237372,0.57,-0.23,9.95,-0.03,-0.01,-0.01,32.59,10.951706,-42.62449721303059,-1352.4543280139023,9.968966847171274,0.033166247903554,-0.8114989285294343,-1.2953981614004189
12910194,1840.0,1,203869,238397,0.57,-0.24,9.97,-0.03,-0.01,-0.01,32.59,10.991706,-54.51021399860015,-1175.2496042928317,9.989164129195196,0.033166247903554,-1.0372626703484031,-1.1261950881104894
12950194,1860.0,1,204465,240208,0.57,-0.23,9.95,-0.04,-0.01,-0.01,32.59,11.031706,-39.261768122003986,-651.9198990175541,9.968966847171274,0.042426406871192854,-0.7476254309516199,-0.6264962504210911
12990194,1856.0,1,205164,241286,0.58,-0.23,10.0,-0.04,-0.01,-0.01,32.59,11.071706,-43.86859320947469,-137.22562802973354,10.019446092474373,0.042426406871192854,-0.8351299616767347,-0.13504291539070115
13030193,1879.0,1,205317,241407,0.57,-0.23,9.96,-0.03,-0.01,-0.01,32.59,11.111705,-24.386894510538365,169.2229911040373,9.97894784032866,0.033166247903554,-0.4650840254819968,0.1575680662697364
13069193,1925.0,1,205347,241761,0.58,-0.24,9.96,-0.03,-0.01,-0.01,32.59,11.150705,21.64032731961523,337.3832161250534,9.979759516140659,0.033166247903554,0.4091819538759533,0.3181350437249698
13109196,1948.0,1,205641,242430,0.5549999999999999,-0.23,9.98,-0.03,-0.01,-0.01,32.59,11.190708,39.719043829349914,572.9759701508583,9.998066062994383,0.033166247903554,0.7525788865268674,0.5430896453232377
13149193,1963.0,1,205967,243228,0.57,-0.26,9.97,-0.03,-0.01,-0.01,32.59,11.230705,60.355036594228864,965.0080257288986,9.98966465903636,0.033166247903554,1.144550109365069,0.9174195572977314
13189194,1958.0,1,206265,244164,0.57,-0.23,9.98,-0.03,-0.01,-0.01,32.59,11.270706,44.576528509756535,1342.507581354012,9.998909940588524,0.033166247903554,0.8448445813151153,1.277873181987178
13229880,1905.0,1,206693,245266,0.57,-0.22,9.96,-0.04,-0.01,-0.01,32.61,11.311392,4.932650762997015,1379.6193677838346,9.978722363108416,0.042426406871192854,0.09182729663704293,1.3133091917466562
13270228,1931.0,1,206994,243226,0.58,-0.23,9.95,-0.03,-0.01,-0.01,32.61,11.35174,16.77733361772819,875.7204683793619,9.969543620447226,0.033166247903554,0.3168116177500714,0.8321637650544457
13310193,1929.0,1,204656,238646,0.57,-0.25,9.96,-0.03,-0.01,-0.01,32.61,11.391705,29.487091331186875,-30.061145801764763,9.979428841371634,0.033166247903554,0.558227639246282,-0.032717427899532886
13350193,1936.0,1,203852,237796,0.57,-0.23,9.98,-0.03,-0.01,-0.01,32.61,11.431705,27.869892504404977,-913.510501077615,9.998909940588524,0.033166247903554,0.5275096888705166,-0.8762747714609468
13390194,1936.0,1,203769,238007,0.57,-0.23,9.97,-0.03,-0.01,-0.01,32.61,11.471706,35.53215093449269,-1359.208693376158,9.988928871505694,0.033166247903554,0.6730507752996298,-1.301847534495098
13430194,1935.0,1,203969,238682,0.58,-0.23,9.96,-0.03,-0.01,-0.01,32.61,11.511706,37.26175795576089,-1246.2449935629493,9.979524036746444,0.033166247903554,0.7059038678007026,-1.1939846921439987
13470194,1942.0,1,204420,240186,0.58,-0.23,9.98,-0.03,-0.01,-0.01,32.61,11.551706,43.164783174430475,-790.4544103231899,9.999484986738068,0.033166247903554,0.8180291258277655,-0.7587752584374268
13510193,1936.0,1,204974,240959,0.57,-0.24,9.97,-0.03,-0.01,-0.01,32.61,11.591705,48.892757834829794,-328.9471020181082,9.989164129195196,0.033166247903554,0.9268293787452861,-0.3181072374545434
13550194,1936.0,1,205080,241063,0.57,-0.25,9.97,-0.03,-0.01,-0.01,32.61,11.631706,44.51424890109153,-46.40630539502677,9.989409391951058,0.033166247903554,0.8436616086980743,-0.04832452447415684
13590194,1915.0,1,205091,241244,0.58,-0.24,9.96,-0.03,-0.01,-0.01,32.61,11.671706,36.8300591025578,128.92903364857065,9.979759516140659,0.033166247903554,0.6977039459788721,0.11909357589886858
13630194,1906.0,1,205291,241825,0.5549999999999999,-0.22,9.98,-0.03,-0.01,-0.01,32.61,11.711706,27.86350924667026,388.8038783624646,9.997841016939608,0.033166247903554,0.5273884418159903,0.3672338143360088
13670193,1904.0,1,205599,242652,0.57,-0.22,9.97,-0.03,-0.01,-0.01,32.61,11.751705,33.63465520178736,800.9459757543915,9.988703619589481,0.033166247903554,0.6370087136865529,0.760765702462417
13710194,1904.0,1,205932,243536,0.56,-0.23,9.97,-0.04,-0.01,-0.01,32.61,11.791706,43.089034072407564,1180.5154981671776,9.98836322927836,0.042426406871192854,0.816590306358932,1.123195824926458
13750193,1886.0,1,206301,244462,0.5549999999999999,-0.24,9.95,-0.03,-0.01,-0.01,32.61,11.831705,24.738475476663538,1205.2862269831014,9.968356183443687,0.033166247903554,0.4680298578992066,1.146848035518107
13790193,1853.0,1,206372,241435,0.57,-0.23,9.930000000000001,-0.04,-0.01,-0.01,32.61,11.871705,9.387540693763214,691.9628870030523,9.949004975373166,0.042426406871192854,0.1764458887090421,0.6567037273291713
13830193,1845.0,1,204092,237801,0.57,-0.24,9.95,-0.04,-0.01,-0.01,32.61,11.911705,-2.7347398491298316,-204.6193730373724,9.969202575933542,0.042426406871192854,-0.053811273237263556,-0.19939350682165874
13870193,1799.0,1,203382,236957,0.58,-0.24,9.95,-0.04,-0.01,-0.01,32.61,11.951705,-30.52525100285672,-1058.262186947148,9.969779335572076,0.042426406871192854,-0.5816792931739775,-1.0144902185365887
13910193,1805.0,1,203275,237170,0.58,-0.22,9.95,-0.03,-0.01,-0.01,32.61,11.991705,-24.110044477467113,-1462.3781227603806,9.969317930530654,0.033166247903554,-0.4598253860144339,-1.400358365102844
13950194,1808.0,1,203448,237806,0.58,-0.23,9.97,-0.03,-0.01,-0.01,32.61,12.031706,-10.169223654863538,-1303.450011098298,9.989504492215818,0.033166247903554,-0.1950258850907748,-1.2486066264318283
13990194,1795.0,1,203868,239147,0.58,-0.23,9.96,-0.03,-0.01,-0.01,32.61,12.071706,-13.853543667660428,-797.4687285386992,9.979524036746444,0.033166247903554,-0.2650078548073515,-0.7654728462566198
14030193,1808.0,1,204532,240280,0.56,-0.22,9.95,-0.03,-0.01,-0.01,32.61,12.111705,1.6810366989118737,-280.81232539714324,9.968174356420537,0.033166247903554,0.030064378059821623,-0.2721459788302447
14070195,1785.0,1,204735,240447,0.58,-0.23,9.99,-0.03,-0.01,-0.01,32.61,12.151707,-5.801814963918533,54.95888689174919,10.00946552019637,0.033166247903554,-0.11206895906696668,0.04846353906834881
14110194,1770.0,1,204688,240525,0.57,-0.23,9.99,-0.03,-0.01,-0.01,32.61,12.191706,-22.774919847572512,267.8817135919531,10.008891047463749,0.033166247903554,-0.434465305703112,0.2517718702162375
14150195,1767.0,1,204884,241225,0.57,-0.22,9.95,-0.03,-0.01,-0.01,32.61,12.231707,-8.62299909083474,539.0266679527502,9.968741144196693,0.033166247903554,-0.16565605830074354,0.5106733183351925
14190194,1762.0,1,205306,242190,0.57,-0.23,9.99,-0.03,-0.01,-0.01,32.61,12.271706,-16.97463554572594,938.2889493941017,10.008891047463749,0.033166247903554,-0.32429156429371186,0.8919069765020181
14230881,1729.0,1,205540,242965,0.58,-0.23,9.96,-0.03,-0.01,-0.01,32.53,12.312393,-33.82760012155281,1296.7810798160342,9.979524036746444,0.033166247903554,-0.6444059008561137,1.2342114531768271
14271194,1735.0,1,205855,243962,0.57,-0.23,9.96,-0.03,-0.01,-0.01,32.53,12.352706,-31.00664019383452,1312.0821234012774,9.97894784032866,0.033166247903554,-0.5908230601833263,1.2488215806316771
14311194,1712.0,1,206045,241077,0.58,-0.23,9.98,-0.03,-0.01,-0.01,32.53,12.392706,-40.60993174163943,810.238340178397,9.999484986738068,0.033166247903554,-0.7732331808958751,0.7696384716846789
14351194,1713.0,1,203827,237620,0.57,-0.22,9.96,-0.03,-0.01,-0.01,32.53,12.432706,-41.69254649087975,-62.5165012816799,9.978722363108416,0.033166247903554,-0.7937969517770427,-0.06370726709006581
14391194,1711.0,1,203136,236711,0.57,-0.24,9.96,-0.03,-0.01,-0.01,32.53,12.472706,-33.48890641598985,-900.9602738750068,9.979183333319416,0.033166247903554,-0.6379725691792845,-0.8642912477231104
14431194,1712.0,1,203019,236893,0.59,-0.23,9.95,-0.03,-0.01,-0.01,32.53,12.512706,-34.53768205516772,-1318.088964323732,9.97013039032088,0.033166247903554,-0.657893581676978,-1.2625845601092047
14471194,1714.0,1,203197,237544,0.58,-0.23,9.97,-0.03,-0.01,-0.01,32.53,12.552706,-23.879379619613758,-1206.8976446788017,9.989504492215818,0.033166247903554,-0.4554440127784218,-1.1564140663886244
14511193,1724.0,1,203657,238884,0.57,-0.23,9.95,-0.03,-0.01,-0.01,32.53,12.592705,-17.686074341886705,-773.5505047509918,9.968966847171274,0.033166247903554,-0.33780501809663627,-0.74263464596752
14551194,1717.0,1,204205,239860,0.58,-0.23,9.97,-0.03,-0.01,-0.01,32.53,12.632706,-17.28092406691216,-333.3546408112282,9.989504492215818,0.033166247903554,-0.33010937434814236,-0.32231575455149375
14591194,1721.0,1,204383,240061,0.57,-0.22,9.96,-0.03,-0.01,-0.01,32.53,12.672706,-17.130133907364165,-55.37081418458817,9.978722363108416,0.033166247903554,-0.3272451843911373,-0.056884242329736864
14631194,1713.0,1,204468,240316,0.59,-0.23,9.96,-0.03,-0.01,-0.01,32.53,12.712706,-22.786233202583126,132.88210587725828,9.980110219832245,0.033166247903554,-0.4346801976953916,0.1228681477950662
14671194,1728.0,1,204715,241099,0.58,-0.21,9.98,-0.03,-0.01,-0.01,32.53,12.752706,-7.0902568657536875,413.7270789358548,9.999044954394394,0.033166247903554,-0.13654232235859537,0.391031611847755
14711200,1744.0,1,205111,242154,0.57,-0.22,9.97,-0.03,-0.01,-0.01,32.53,12.792712,2.712068807918572,844.814349859129,9.988703619589481,0.033166247903554,0.049648360335712675,0.8026532072810674
14751194,1731.0,1,205510,242984,0.57,-0.24,9.96,-0.03,-0.01,-0.01,32.53,12.832706,-4.386938973121945,1235.0631076698826,9.979183333319416,0.033166247903554,-0.0851940382140758,1.1752803460084384
14791194,1744.0,1,205879,244097,0.58,-0.22,9.98,-0.03,-0.01,-0.01,32.53,12.872706,-2.8762129249059996,1258.5127449612196,9.999259972617974,0.033166247903554,-0.05649848945906045,1.197671118748074
14831194,1731.0,1,206154,241644,0.57,-0.23,9.96,-0.03,-0.01,-0.01,32.53,12.912706,-11.202250297263815,729.9436045242098,9.97894784032866,0.033166247903554,-0.21464775261416422,0.692969431738113
14871194,1744.0,1,203923,237816,0.56,-0.23,9.97,-0.03,-0.01,-0.01,32.53,12.952706,-6.733278115878742,-192.6528272480868,9.98836322927836,0.033166247903554,-0.129761674647094,-0.18796730845801415
14911216,1773.0,1,203221,236970,0.56,-0.22,9.98,-0.03,-0.01,-0.01,32.53,12.992728,18.41965099875313,-1073.5654854318143,9.99811982324677,0.033166247903554,0.3480066835491049,-1.0291024990712458
14951194,1773.0,1,203114,237286,0.57,-0.23,9.96,-0.03,-0.01,-0.01,32.53,13.032706,17.471728907580026,-1498.234064604432,9.97894784032866,0.033166247903554,0.3300013379635592,-1.4345952377342313
14991194,1775.0,1,203377,238050,0.56,-0.23,9.95,-0.03,-0.01,-0.01,32.53,13.072706,7.096782463246569,-1358.5075021224025,9.96840007222824,0.033166247903554,0.13293398622521937,-1.3011780054181743
15031194,1792.0,1,203988,239810,0.56,-0.21,9.97,-0.04,-0.01,-0.01,32.53,13.112706,26.34785201036452,-888.7790524785665,9.987922706949629,0.042426406871192854,0.4985992274037117,-0.8526600673943794
15071194,1808.0,1,204643,240983,0.595,-0.24,9.97,-0.03,-0.01,-0.01,32.53,13.152706,30.114408684094848,-437.84675892795804,9.99062185251749,0.033166247903554,0.5701432447966702,-0.42208954809751026
15111219,1795.0,1,204808,241011,0.58,-0.25,9.98,-0.03,-0.01,-0.01,32.53,13.192731,11.966700240915031,-182.10884472668144,9.99996499993875,0.033166247903554,0.22543584199650876,-0.17789943774963896
15151194,1799.0,1,204782,241270,0.57,-0.23,9.94,-0.03,-0.01,-0.01,32.53,13.232706,14.521588221143745,-21.37917812087853,9.958985892147854,0.033166247903554,0.2739647679965827,-0.024427493054894667
15191194,1797.0,1,205141,242271,0.57,-0.23,9.94,-0.04,-0.01,-0.01,32.53,13.272706,-7.131111791058671,265.6085972062834,9.958985892147854,0.042426406871192854,-0.13731834293648645,0.2496013960306485
15231881,1791.0,1,205666,243356,0.57,-0.21,9.98,-0.03,-0.01,-0.01,32.53,13.313393,-1.9837687473172125,751.2852623548304,9.998469882937089,0.033166247903554,-0.039546921410458166,0.7133474104861688
15270194,1879.0,1,206166,244450,0.56,-0.21,9.96,-0.03,-0.01,-0.01,32.53,13.351706,56.88404392985998,1220.3254261447644,9.977940669296446,0.033166247903554,1.0786201948406449,1.1612081420916662
15310193,1861.0,1,206552,245555,0.57,-0.23,9.96,-0.03,-0.01,-0.01,32.53,13.391705,52.85042512381498,1302.1084611141075,9.97894784032866,0.033166247903554,1.0020034546681302,1.2392982774402717
15350194,1882.0,1,206995,244085,0.57,-0.23,9.97,-0.04,-0.01,-0.01,32.53,13.431706,46.96653597773967,782.2983380956391,9.988928871505694,0.042426406871192854,0.890241677567842,0.7429600958442524
15390194,1890.0,1,204620,239077,0.57,-0.23,9.97,-0.04,-0.01,-0.01,32.53,13.471706,62.756146387599465,-170.73277791523313,9.988928871505694,0.042426406871192854,1.1901580891991215,-0.16703705538178254
15430194,1885.0,1,203828,238305,0.57,-0.24,9.95,-0.03,-0.01,-0.01,32.53,13.511706,37.1442339562389,-1077.8025276927642,9.969202575933542,0.033166247903554,0.7036715533038748,-1.0331482183791605
15470193,1883.0,1,203860,238818,0.58,-0.24,9.97,-0.03,-0.01,-0.01,32.53,13.551705,38.59986282424912,-1478.2113818725472,9.989739736349492,0.033166247903554,0.7313205563779414,-1.4154766759792023
15510194,1898.0,1,204259,239926,0.5549999999999999,-0.24,9.96,-0.03,-0.01,-0.01,32.53,13.591706,34.26007187201783,-1245.3841568324308,9.978337787427323,0.033166247903554,0.6488882166407725,-1.1931627263558076
15550194,1872.0,1,204875,241812,0.56,-0.23,9.97,-0.03,-0.01,-0.01,32.53,13.631706,12.771299446593824,-632.9643732857179,9.98836322927836,0.033166247903554,0.24071883507263142,-0.6083966583656246
15590194,1901.0,1,205685,243126,0.58,-0.24,9.96,-0.03,-0.01,-0.01,32.53,13.671706,21.000427420955063,-33.91111313941089,9.979759516140659,0.033166247903554,0.397027348636958,-0.036393550589247134
15630193,1881.0,1,205978,243363,0.57,-0.23,9.96,-0.03,-0.01,-0.01,32.53,13.711705,6.504214885375512,330.1717451155735,9.97894784032866,0.033166247903554,0.12167843672203792,0.3112492055140997
15670194,1888.0,1,206002,243699,0.59,-0.22,9.98,-0.04,-0.01,-0.01,32.53,13.751706,-6.935917180628096,533.8318554558284,9.999844998798732,0.042426406871192854,-0.13361071079037937,0.5057130767502804
15710194,1869.0,1,206224,244443,0.57,-0.24,9.97,-0.03,-0.01,-0.01,32.53,13.791706,-19.95930606304816,799.0245356459268,9.989164129195196,0.033166247903554,-0.38098401256957176,0.7589310246690275
15750194,1877.0,1,206605,245328,0.57,-0.25,9.98,-0.03,-0.01,-0.01,32.53,13.831706,-34.188559576195196,1216.1068921227181,9.999389981393865,0.033166247903554,-0.6512621602298805,1.1571800952861426
15790193,1885.0,1,206978,246187,0.56,-0.23,9.97,-0.04,-0.01,-0.01,32.53,13.871705,-14.658716249861758,1589.8732528144055,9.98836322927836,0.042426406871192854,-0.2803017389076786,1.5140690968512058
15830194,1874.0,1,207381,247280,0.57,-0.23,9.96,-0.03,-0.01,-0.01,32.53,13.911706,-55.092004903003286,1565.0486441104445,9.97894784032866,0.033166247903554,-1.0483135218791886,1.4903654393090864
15870193,1803.0,1,207620,244692,0.57,-0.24,9.96,-0.03,-0.01,-0.01,32.53,13.951705,-106.14890827188722,941.1892442907857,9.979183333319416,0.033166247903554,-2.018115996412607,0.8946763090551304
15910194,1870.0,1,204901,239568,0.56,-0.23,9.97,-0.03,-0.01,-0.01,32.53,13.991706,-73.02920187934522,-99.59761861805934,9.98836322927836,0.033166247903554,-1.3890223558671753,-0.09911399261401888
15950194,1872.0,1,204065,238875,0.58,-0.23,9.96,-0.03,-0.01,-0.01,32.53,14.031706,-51.135867966527734,-1073.2872190332762,9.979524036746444,0.033166247903554,-0.973168514300737,-1.028836797746601
15990193,1884.0,1,204094,239194,0.57,-0.26,9.96,-0.03,-0.01,-0.01,32.53,14.071705,-65.03465665470178,-1530.8893165130748,9.97968436374618,0.033166247903554,-1.2371696340988279,-1.4657759470628178
16030193,1879.0,1,204322,240076,0.56,-0.23,9.99,-0.03,-0.01,-0.01,32.53,14.111705,-62.14491577486579,-1364.6007446376525,10.008326533442043,0.033166247903554,-1.1822803307703917,-1.3069961085603006
16070194,1920.0,1,204871,241660,0.57,-0.24,9.94,-0.03,-0.01,-0.01,32.53,14.151706,-31.5383984344312,-831.8768673101282,9.959221857153297,0.033166247903554,-0.6009235642005458,-0.7983272911272669
16110193,1921.0,1,205441,242537,0.56,-0.23,9.94,-0.04,-0.01,-0.01,32.53,14.191705,-34.290465745508875,-304.93744837008677,9.958418549147249,0.042426406871192854,-0.6531978212012597,-0.29518173580557727
16150194,1904.0,1,205613,242544,0.58,-0.24,9.97,-0.03,-0.01,-0.01,32.53,14.231706,-54.64202836205586,21.025149443387114,9.989739736349492,0.033166247903554,-1.0397664237573163,0.016062074006310448
16190193,1953.0,1,205542,242685,0.56,-0.23,9.96,-0.04,-0.01,-0.01,32.53,14.271705,-6.25951943725986,221.05502071375994,9.978381632308919,0.042426406871192854,-0.12076284572210515,0.20705962902640615
16230193,1984.0,1,205855,243450,0.56,-0.23,9.94,-0.03,-0.01,-0.01,32.53,14.311705,12.047872016030537,482.60743570118626,9.958418549147249,0.033166247903554,0.22697766265493247,0.45680168732467097
16270881,1936.0,1,206126,244274,0.58,-0.22,9.98,-0.03,-0.01,-0.01,32.53,14.352393,-20.18198576502525,857.0316514968858,9.999259972617974,0.033166247903554,-0.38521371143018374,0.8143188386536961
16311194,1979.0,1,206416,244881,0.58,-0.24,9.96,-0.03,-0.01,-0.01,32.53,14.392706,-5.038193376292745,1150.9326704051794,9.979759516140659,0.033166247903554,-0.0975643170612403,1.0949488049327039
16351194,1979.0,1,206648,246001,0.57,-0.22,9.95,-0.03,-0.01,-0.01,32.53,14.432706,24.256520430349582,1064.7351917179226,9.968741144196693,0.033166247903554,0.4588753427271408,1.0126435593531087
16391194,2030.0,1,206582,241661,0.57,-0.23,9.96,-0.03,-0.01,-0.01,32.53,14.472706,42.71183862453467,467.1128957874061,9.97894784032866,0.033166247903554,0.8094256517364817,0.44200680083647664
16431194,2009.0,1,204231,238749,0.58,-0.24,9.98,-0.03,-0.01,-0.01,32.53,14.512706,49.94785469192749,-439.0393437800387,9.999719996079891,0.033166247903554,0.9468704598796617,-0.42322828197487966
16471194,2032.0,1,203770,238161,0.58,-0.22,9.98,-0.03,-0.01,-0.01,32.53,14.552706,50.50042506614536,-1222.1258241502906,9.999259972617974,0.033166247903554,0.9573662808345403,-1.170954619896906
16511194,2032.0,1,203654,238448,0.58,-0.23,9.96,-0.03,-0.01,-0.01,32.53,14.592706,66.11648071896175,-1522.0277830438702,9.979524036746444,0.033166247903554,1.2539860994148924,-1.4573145546937796
16551200,2047.0,1,203955,239296,0.56,-0.23,9.95,-0.03,-0.01,-0.01,32.53,14.632712,75.07492164807752,-1291.5873156678797,9.96840007222824,0.033166247903554,1.4241475782309516,-1.2372795890810144
16591194,2031.0,1,204451,240715,0.56,-0.23,9.97,-0.03,-0.01,-0.01,32.53,14.672706,61.31143547696192,-783.2553927505348,9.98836322927836,0.033166247903554,1.162716467720456,-0.7519013113304704
16631194,2023.0,1,205006,241477,0.57,-0.23,9.98,-0.03,-0.01,-0.01,32.53,14.712706,59.63404009897681,-311.9678269392543,9.998909940588524,0.033166247903554,1.1308551114492436,-0.3018946587757754
16671194,2047.0,1,205065,241604,0.58,-0.24,9.95,-0.04,-0.01,-0.01,32.53,14.752706,79.21804068107127,-7.415775695913628,9.969779335572076,0.042426406871192854,1.5028442250184373,-0.011094605791646266
16711194,2016.0,1,205196,242131,0.57,-0.22,9.99,-0.03,-0.01,-0.01,32.53,14.792706,59.32465326796169,240.32261008419255,10.008666244810044,0.033166247903554,1.1249784504199072,0.22545719353770663
16751199,1993.0,1,205519,243053,0.57,-0.24,9.95,-0.03,-0.01,-0.01,32.53,14.832711,31.346521700190014,610.8069569907009,9.969202575933542,0.033166247903554,0.5935466667253521,0.5792123801153866
16791194,2000.0,1,205977,243979,0.56,-0.25,9.96,-0.03,-0.01,-0.01,32.53,14.872706,50.15454048139306,1117.1976618245315,9.978862660644248,0.033166247903554,0.9507963617038754,1.0627370951687332
16831194,2003.0,1,206287,244925,0.57,-0.24,9.98,-0.03,-0.01,-0.01,32.53,14.912706,49.2729450028054,1519.7769875733454,9.999144963445625,0.033166247903554,0.9340508597196552,1.4471380170476986
16871194,1968.0,1,206741,246081,0.57,-0.23,9.96,-0.03,-0.01,-0.01,32.53,14.952706,25.769689989400796,1483.8367773986806,9.97894784032866,0.033166247903554,0.48761730485034405,1.4128206812084385
16911194,1952.0,1,206589,241753,0.57,-0.22,9.95,-0.04,-0.01,-0.01,32.53,14.992706,7.987474372888599,866.0339730621215,9.968741144196693,0.042426406871192854,0.1498522707474289,0.8229146618552249
16951195,1924.0,1,204218,238689,0.56,-0.24,9.97,-0.03,-0.01,-0.01,32.53,15.032707,-11.182071521489847,-116.29847233357921,9.98859850029022,0.033166247903554,-0.21426446601847587,-0.11506072200075639
16991191,1915.0,1,203703,238158,0.57,-0.24,9.96,-0.03,-0.01,-0.01,32.53,15.072703,-17.58474028328369,-997.5340024921152,9.979183333319416,0.033166247903554,-0.33588022410594526,-0.9565042053573732
17031194,1896.0,1,203617,238285,0.56,-0.23,9.96,-0.03,-0.01,-0.01,32.53,15.112706,-31.69293644194771,-1380.8379858106753,9.978381632308919,0.033166247903554,-0.6038589428116645,-1.32250015975337
17071194,1886.0,1,203751,238959,0.57,-0.24,9.97,-0.03,-0.01,-0.01,32.53,15.152706,-37.22171455677997,-1200.7295353744846,9.989164129195196,0.033166247903554,-0.7088755486596845,-1.1505244770550949
17111194,1862.0,1,204307,240538,0.57,-0.24,9.97,-0.04,-0.01,-0.01,32.53,15.192706,-53.79531732633447,-722.5138194942112,9.989164129195196,0.042426406871192854,-1.0236835357739884,-0.6939025139191052
17151194,1835.0,1,204929,241537,0.58,-0.21,9.97,-0.03,-0.01,-0.01,32.53,15.232706,-84.75926429063307,-296.69694718367015,9.98906402021731,0.033166247903554,-1.6118295142000734,-0.28731333310777035
17191194,1840.0,1,205050,241388,0.58,-0.24,9.95,-0.03,-0.01,-0.01,32.53,15.272706,-59.48434532849532,-81.66265087825586,9.969779335572076,0.033166247903554,-1.131744014771779,-0.08198887542071433
17231194,1846.0,1,204960,241620,0.58,-0.22,9.98,-0.04,-0.01,-0.01,32.53,15.312706,-72.5920618971063,40.220712762977705,9.999259972617974,0.042426406871192854,-1.3807190822935735,0.03439086479136089
17271880,1797.0,1,205244,242462,0.58,-0.22,9.97,-0.03,-0.01,-0.01,32.63,15.353392,-89.84522995662171,294.1696681854599,9.989279253279488,0.033166247903554,-1.7084351005716465,0.2768727965026544
17310193,1891.0,1,205646,243600,0.57,-0.25,9.99,-0.03,-0.01,-0.01,32.63,15.391705,-20.000347857802133,744.3585980039594,10.0093706095838,0.033166247903554,-0.3817635826469837,0.706733518535636
17350194,1874.0,1,206153,244721,0.56,-0.25,9.96,-0.03,-0.01,-0.01,32.63,15.431706,-10.724941848639737,1166.7868454119316,9.978862660644248,0.033166247903554,-0.2055814974351742,1.1100870872498354
17390194,1875.0,1,206601,245896,0.58,-0.23,9.99,-0.04,-0.01,-0.01,32.63,15.471706,-21.108845313782773,1194.083133032211,10.00946552019637,0.042426406871192854,-0.4028189836778105,1.1361508154494688
17430194,1887.0,1,206772,242477,0.57,-0.21,9.97,-0.03,-0.01,-0.01,32.63,15.511706,-1.0412371437482038,628.2665273870904,9.988488374123484,0.033166247903554,-0.021643965665902667,0.5958835664548718
17470193,1855.0,1,204319,238926,0.57,-0.23,9.99,-0.04,-0.01,-0.01,32.63,15.551705,-28.751662418390037,-346.7976826952446,10.008891047463749,0.042426406871192854,-0.5479907910415065,-0.33515177806924806
17510194,1857.0,1,203763,238398,0.57,-0.26,9.97,-0.03,-0.01,-0.01,32.63,15.591706,-29.48754268610007,-1254.3951323065226,9.98966465903636,0.033166247903554,-0.5619684993923117,-1.2017668127003478
17550194,1882.0,1,203732,238779,0.56,-0.22,9.96,-0.03,-0.01,-0.01,32.63,15.631706,0.7501107916088535,-1655.6458704278698,9.978156142294026,0.033166247903554,0.012381867195679656,-1.5848991391097242
17590193,1883.0,1,204019,239754,0.59,-0.23,9.97,-0.04,-0.01,-0.01,32.63,15.671705,4.828323817840946,-1446.7013331218425,9.990090089683877,0.042426406871192854,0.08984565413824368,-1.3853894583465227
17630194,1867.0,1,204696,241698,0.595,-0.25,9.96,-0.03,-0.01,-0.01,32.63,15.711706,-18.03004203118559,-883.0883202424318,9.980887986547089,0.033166247903554,-0.3443385266768863,-0.8472262992452881
17670194,1839.0,1,205422,242909,0.58,-0.23,9.95,-0.03,-0.01,-0.01,32.63,15.751706,-31.164291703063498,-333.2529996379847,9.969543620447226,0.033166247903554,-0.5938175783322153,-0.3222187029688697
17710194,1882.0,1,205721,243265,0.57,-0.23,9.96,-0.03,-0.01,-0.01,32.63,15.791706,-4.9547702833943434,16.839224498020393,9.97894784032866,0.033166247903554,-0.09597973365355547,0.012065163819921261
17750194,1875.0,1,205889,243796,0.57,-0.24,9.97,-0.03,-0.01,-0.01,32.63,15.831706,6.403671465776853,263.3672189691938,9.989164129195196,0.033166247903554,0.1197686605567984,0.24746122686271096
17790194,1895.0,1,206160,244704,0.56,-0.23,9.98,-0.03,-0.01,-0.01,32.63,15.871706,10.971878090933732,617.4477216931217,9.99834486302608,0.033166247903554,0.20653965129332377,0.5855532821695189
17830194,1893.0,1,206625,245946,0.56,-0.23,9.97,-0.03,-0.01,-0.01,32.63,15.911706,20.715759015197087,1127.1512103423006,9.98836322927836,0.033166247903554,0.3916202027642254,1.0722411928247184
17870193,1887.0,1,207103,247267,0.57,-0.23,9.97,-0.03,-0.01,-0.01,32.63,15.951705,7.086405285759746,1547.3647379880952,9.988928871505694,0.033166247903554,0.13273687649585167,1.4734800470868004
17910194,1895.0,1,207675,248628,0.56,-0.22,9.96,-0.03,-0.01,-0.01,32.63,15.991706,19.10911516148159,1501.1525078975258,9.978156142294026,0.033166247903554,0.3611027392633586,1.4293545227175202
17950194,1926.0,1,207901,245230,0.57,-0.23,10.01,-0.03,-0.01,-0.01,32.63,16.031706,46.94540076647204,817.4883722361591,10.028853374140036,0.033166247903554,0.8898402239183906,0.776561129725978
17990196,1905.0,1,204880,240122,0.56,-0.23,9.98,-0.04,-0.01,-0.01,32.63,16.071708,29.009266386365642,-255.69442437340567,9.99834486302608,0.042426406871192854,0.5491515734587937,-0.24816227253526799
18030193,1886.0,1,204290,240029,0.5549999999999999,-0.22,9.96,-0.03,-0.01,-0.01,32.63,16.111705,3.4772617479354113,-1181.150619517343,9.977876778152755,0.033166247903554,0.06418284945978456,-1.1318296439538744
18070193,1882.0,1,204533,240981,0.56,-0.23,9.930000000000001,-0.03,-0.01,-0.01,32.63,16.151705,9.194440960403302,-1513.6833022421315,9.948437063177312,0.033166247903554,0.17277804779258116,-1.449346867563241
18110193,1908.0,1,205030,242222,0.57,-0.23,9.98,-0.03,-0.01,-0.01,32.63,16.191705,19.906807323150304,-1204.3895126354353,9.998909940588524,0.033166247903554,0.3762545362047629,-1.1540191886390754
18150194,1903.0,1,205704,243996,0.59,-0.24,9.97,-0.03,-0.01,-0.01,32.63,16.231706,33.66864800897415,-576.3693819172572,9.990325320028372,0.033166247903554,0.6376543914764475,-0.5543572046124968
18190226,1937.0,1,206245,244652,0.59,-0.22,9.96,-0.03,-0.01,-0.01,32.63,16.271738,45.35539387386205,-23.647402587800645,9.979884768873838,0.033166247903554,0.8596387718671854,-0.02659329621553016
18230194,1919.0,1,206296,244753,0.57,-0.23,9.98,-0.03,-0.01,-0.01,32.63,16.311706,49.85148343149151,289.29558745440653,9.998909940588524,0.033166247903554,0.9450399319651608,0.2722188040929735
18270193,1937.0,1,206583,245195,0.57,-0.22,9.97,-0.03,-0.01,-0.01,32.63,16.351705,46.50165746247189,485.1799202475853,9.988703619589481,0.033166247903554,0.8814115232749581,0.4592580117504617
18310880,1893.0,1,206835,245878,0.57,-0.23,9.98,-0.03,-0.01,-0.01,32.63,16.392392,20.624792320182625,771.6047803403527,9.998909940588524,0.033166247903554,0.3898923320924032,0.7327494039473147
18351193,1901.0,1,207138,246769,0.5549999999999999,-0.23,9.96,-0.04,-0.01,-0.01,32.63,16.432705,14.045917140312374,1174.7022045300628,9.978102274480856,0.042426406871192854,0.26492961386823055,1.1176450296164813
18391197,1882.0,1,207315,247713,0.56,-0.24,9.930000000000001,-0.03,-0.01,-0.01,32.63,16.472709,7.677539125264306,1449.3334497474102,9.948673278382401,0.033166247903554,0.1439651927960005,1.379875345696312
18431195,1873.0,1,207757,248787,0.58,-0.23,9.96,-0.03,-0.01,-0.01,32.63,16.512707,-13.21528673583464,1259.0979752752462,9.979524036746444,0.033166247903554,-0.252884456970224,1.1982299230826108
18471195,1872.0,1,207583,243928,0.57,-0.23,9.96,-0.03,-0.01,-0.01,32.63,16.552707,0.9855071981866602,487.22060090158936,9.97894784032866,0.033166247903554,0.016853114030726826,0.4612065458019822
18511195,1871.0,1,204703,240222,0.57,-0.23,9.96,-0.03,-0.01,-0.01,32.63,16.592707,-18.10102846802639,-595.1515435598877,9.97894784032866,0.033166247903554,-0.34568688150383553,-0.5722912608059629
18551195,1831.0,1,204298,240098,0.57,-0.23,9.95,-0.03,-0.01,-0.01,32.63,16.632707,-34.20730806704583,-1474.6892969059338,9.968966847171274,0.033166247903554,-0.6516182792191061,-1.4121136301854724
18591194,1904.0,1,204404,240697,0.57,-0.23,9.96,-0.03,-0.01,-0.01,32.63,16.672706,13.649606303507754,-1750.512860301244,9.97894784032866,0.033166247903554,0.25740187119569385,-1.6754824255101808
18631194,1872.0,1,204739,241757,0.595,-0.23,9.94,-0.03,-0.01,-0.01,32.63,16.712706,9.56228386097256,-1400.0583966079191,9.960448032091728,0.033166247903554,0.17976505506629342,-1.3408526760322683
18671194,1869.0,1,205368,243555,0.595,-0.24,9.97,-0.04,-0.01,-0.01,32.63,16.752706,-17.60372402639595,-742.2414438035928,9.99062185251749,0.042426406871192854,-0.3362408116040385,-0.7127393405666308
18711195,1856.0,1,206068,244617,0.56,-0.24,9.99,-0.03,-0.01,-0.01,32.63,16.792707,-6.898193218533156,-152.48745852472655,10.008561335177,0.033166247903554,-0.13289416142340044,-0.14961560041600291
18751195,1875.0,1,206237,244863,0.57,-0.24,9.95,-0.03,-0.01,-0.01,32.63,16.832707,-5.583576861022309,217.86332820727412,9.969202575933542,0.033166247903554,-0.10792362634482547,0.20401205687509094
18791195,1855.0,1,206368,245169,0.57,-0.22,9.97,-0.03,-0.01,-0.01,32.63,16.872707,-7.950112378085298,491.42345516337855,9.988703619589481,0.033166247903554,-0.1528748836495843,0.46521962086426877
18831194,1856.0,1,206582,245900,0.58,-0.23,9.97,-0.03,-0.01,-0.01,32.63,16.912706,-19.256230857622594,861.6376888543267,9.989504492215818,0.033166247903554,-0.36762942133871485,0.8187168911446329
18871194,1838.0,1,206959,246892,0.56,-0.24,9.96,-0.03,-0.01,-0.01,32.63,16.952706,-23.76418957682064,1328.1614543526946,9.97861713866205,0.033166247903554,-0.4532560307197516,1.2641748520134726
18911194,1858.0,1,207255,247829,0.56,-0.24,9.97,-0.03,-0.01,-0.01,32.63,16.992706,-11.730910218067363,1619.1107579610814,9.98859850029022,0.033166247903554,-0.2246894054672117,1.5419863872160757
18951194,1846.0,1,207819,248876,0.58,-0.23,9.96,-0.04,-0.01,-0.01,32.63,17.032706,-15.288281748611801,1394.049757619923,9.979524036746444,0.042426406871192854,-0.292260046957766,1.3270879796805557
18991194,1847.0,1,207078,242577,0.57,-0.25,9.98,-0.04,-0.01,-0.01,32.63,17.072706,-15.709544229783234,566.9802471642192,9.999389981393865,0.042426406871192854,-0.30026173467698486,0.537364658231295
19031195,1840.0,1,204372,239791,0.58,-0.23,9.95,-0.03,-0.01,-0.01,32.63,17.112707,-21.53931661728501,-545.6189862529959,9.969543620447226,0.033166247903554,-0.41099558875579334,-0.5249953380548975
19071194,1827.0,1,204026,239688,0.58,-0.23,9.95,-0.03,-0.01,-0.01,32.63,17.152706,-28.950517777921835,-1410.931980149197,9.969543620447226,0.033166247903554,-0.55176795743867,-1.351235264680159
19111194,1847.0,1,204135,240234,0.58,-0.23,9.96,-0.03,-0.01,-0.01,32.63,17.192706,-12.967218229258563,-1655.629153517673,9.979524036746444,0.033166247903554,-0.24817250940471797,-1.584883177048884
19151195,1835.0,1,204437,241307,0.56,-0.24,9.96,-0.03,-0.01,-0.01,32.63,17.232707,-16.982251711812193,-1309.696960870266,9.97861713866205,0.033166247903554,-0.324436229877199,-1.2545714962045356
19191194,1829.0,1,205110,243011,0.56,-0.24,9.97,-0.03,-0.01,-0.01,32.63,17.272706,-26.260215231048157,-721.7918486215341,9.98859850029022,0.033166247903554,-0.5006668938204696,-0.6932131435235672
19231195,1840.0,1,205644,243677,0.59,-0.22,9.98,-0.03,-0.01,-0.01,32.63,17.312707,-10.812540171971266,-243.05660317610105,9.999844998798732,0.033166247903554,-0.20724538743097187,-0.23609511009529574
19271195,1840.0,1,205712,243756,0.59,-0.23,9.97,-0.03,-0.01,-0.01,32.63,17.352707,-8.576751825017315,38.45418461445967,9.990090089683877,0.033166247903554,-0.16477761268671756,0.032704103933603464
19311881,1851.0,1,205781,244371,0.58,-0.22,9.98,-0.03,-0.01,-0.01,32.67,17.393393,0.060906903048981144,295.7300782089868,9.999259972617974,0.033166247903554,-0.0007092447300538281,0.27836274646577586
19350195,1866.0,1,206155,245332,0.57,-0.23,9.95,-0.03,-0.01,-0.01,32.67,17.431707,24.565475224016886,714.7151630902712,9.968966847171274,0.033166247903554,0.4647437974051054,0.678428628096253
19390193,1868.0,1,206629,246604,0.58,-0.23,9.96,-0.04,-0.01,-0.01,32.67,17.471705,16.983681162125222,1234.2386578912851,9.979524036746444,0.042426406871192854,0.32073109476426287,1.1744931241252823
19430197,1840.0,1,207182,247799,0.56,-0.24,9.99,-0.03,-0.01,-0.01,32.67,17.511709,4.66239553782127,1522.6038167759561,10.008561335177,0.033166247903554,0.08669392252233402,1.4498372012381853
19470193,1871.0,1,207583,248305,0.59,-0.24,9.95,-0.03,-0.01,-0.01,32.67,17.551705,21.699363691246415,1236.2630368777016,9.970366091573567,0.033166247903554,0.41030332269226677,1.1764260926083594
19510195,1858.0,1,206477,241739,0.57,-0.24,9.96,-0.03,-0.01,-0.01,32.67,17.591707,25.769515610857336,345.91852616863525,9.979183333319416,0.033166247903554,0.4876139926098478,0.32628494323402407
19550194,1858.0,1,204144,239777,0.58,-0.24,9.97,-0.03,-0.01,-0.01,32.67,17.631706,13.904268342605214,-768.7775056566205,9.989739736349492,0.033166247903554,0.262239059888907,-0.7380771708696842
19590194,1858.0,1,203979,239927,0.57,-0.23,9.98,-0.03,-0.01,-0.01,32.67,17.671706,24.81641826687665,-1562.489597482007,9.998909940588524,0.033166247903554,0.46951034546960596,-1.4959493224926108
19630193,1856.0,1,204199,240682,0.57,-0.23,9.98,-0.04,-0.01,-0.01,32.67,17.711705,20.563848031256057,-1707.0010665301418,9.998909940588524,0.042426406871192854,0.38873472326167097,-1.633935399698291
19670194,1824.0,1,204676,241981,0.56,-0.24,9.97,-0.03,-0.01,-0.01,32.67,17.751706,-12.775034101501914,-1291.6958693639533,9.98859850029022,0.033166247903554,-0.24452205999696885,-1.2373832410526264
19710194,1809.0,1,205314,243639,0.59,-0.23,9.96,-0.04,-0.01,-0.01,32.67,17.791706,-17.52370867094131,-692.2389378757736,9.980110219832245,0.042426406871192854,-0.3347209566069595,-0.6649946896480564
19750195,1823.0,1,205840,244325,0.57,-0.23,9.98,-0.04,-0.01,-0.01,32.67,17.831707,-15.139035518114285,-245.31348265624496,9.998909940588524,0.042426406871192854,-0.2894251832253234,-0.2382500805501828
19790194,1809.0,1,205951,244468,0.58,-0.21,9.98,-0.03,-0.01,-0.01,32.67,17.871706,-14.365039170650117,-8.822706110064066,9.999044954394394,0.033166247903554,-0.2747234774123532,-0.012438006492149269
19830206,1824.0,1,206154,245164,0.57,-0.23,9.98,-0.04,-0.01,-0.01,32.67,17.911718,-7.760159720127602,209.79547910895425,9.998909940588524,0.042426406871192854,-0.14926681998773983,0.1963085101884696
19870194,1822.0,1,206577,246366,0.59,-0.25,9.97,-0.03,-0.01,-0.01,32.67,17.951706,-7.13948566618495,603.3961597378194,9.990570554277669,0.033166247903554,-0.13747740085584803,0.5721362162051633
19910197,1837.0,1,207116,247455,0.57,-0.22,9.97,-0.03,-0.01,-0.01,32.67,17.991709,18.14529666349669,1117.5214866268605,9.988703619589481,0.033166247903554,0.3427954487174833,1.0630462977148674
19950193,1862.0,1,207552,248473,0.56,-0.24,9.96,-0.03,-0.01,-0.01,32.67,18.031705,24.339151607277074,1427.5556673923038,9.97861713866205,0.033166247903554,0.4604448840539799,1.3590809355556244
19990197,1840.0,1,207950,249333,0.59,-0.22,9.95,-0.03,-0.01,-0.01,32.67,18.071709,30.05509295605364,1180.7686954620146,9.969904713687086,0.033166247903554,0.569016569733408,1.1234375891386952
20030236,1878.0,1,207297,243285,0.58,-0.25,9.99,-0.03,-0.01,-0.01,32.67,18.111748,41.00300092929853,315.02052017410676,10.009945054794256,0.033166247903554,0.776967063062536,0.2967821316665735
20070197,1808.0,1,204836,240934,0.5549999999999999,-0.25,9.97,-0.03,-0.01,-0.01,32.67,18.151709,-6.963977756380771,-820.9868721951094,9.988564711709085,0.033166247903554,-0.13414370856357297,-0.7879290319675738
20110194,1815.0,1,204696,241046,0.56,-0.21,9.98,-0.03,-0.01,-0.01,32.67,18.191706,-8.01066588943338,-1669.9342879439582,9.997904780502763,0.033166247903554,-0.1540250698393493,-1.5985423654606048
20150195,1863.0,1,204896,241711,0.58,-0.23,9.97,-0.03,-0.01,-0.01,32.67,18.231707,32.25173955055669,-1839.8318462653249,9.989504492215818,0.033166247903554,0.6107408648328002,-1.760768227214041
20190193,1827.0,1,205206,243281,0.57,-0.22,9.95,-0.03,-0.01,-0.01,32.67,18.271705,21.12595753716634,-1351.3013149626852,9.968741144196693,0.033166247903554,0.3994117356502204,-1.2942972124656917
20230215,1842.0,1,206260,245680,0.57,-0.25,9.95,-0.03,-0.01,-0.01,32.67,18.311727,-1.3972504399104209,-572.9070924634824,9.969448329772314,0.033166247903554,-0.028406275026703686,-0.5510512542749645
20270193,1818.0,1,207025,246696,0.57,-0.24,9.99,-0.03,-0.01,-0.01,32.67,18.351705,18.58072924589168,83.75797369236781,10.009125835955905,0.033166247903554,0.35106629101373765,0.07596220779615485
20310193,1904.0,1,207483,246913,0.56,-0.24,9.96,-0.03,-0.01,-0.01,32.67,18.391705,60.63699206855016,458.49427551937106,9.97861713866205,0.033166247903554,1.1499057243487947,0.43377735296258224
20350880,1812.0,1,207497,247214,0.56,-0.22,9.96,-0.03,-0.01,-0.01,32.63,18.432392,5.150574015670515,698.7999487580983,9.978156142294026,0.033166247903554,0.09596664892353379,0.6632320626744962
20391193,1782.0,1,207858,248098,0.56,-0.25,9.98,-0.04,-0.01,-0.01,32.63,18.472705,-52.24372601931878,1044.5136458385196,9.998824930960637,0.042426406871192854,-0.9942117701610859,0.993335114083591
20431193,1808.0,1,208231,249297,0.58,-0.23,9.96,-0.03,-0.01,-0.01,32.63,18.512705,-12.035080551874632,1529.7518669027177,9.979524036746444,0.033166247903554,-0.23046698152337575,1.4566624823259642
20471193,1791.0,1,208742,250487,0.56,-0.22,9.98,-0.03,-0.01,-0.01,32.63,18.552705,-34.57212483043464,1871.7855893669573,9.99811982324677,0.033166247903554,-0.6585478064042851,1.7832517277731648
20511193,1776.0,1,209144,251507,0.58,-0.22,9.95,-0.04,-0.01,-0.01,32.63,18.592705,-55.356465130155655,1673.384379063226,9.969317930530654,0.042426406871192854,-1.0533368226629243,1.5938092917990878
20551193,1800.0,1,209064,247000,0.56,-0.22,9.98,-0.03,-0.01,-0.01,32.63,18.632705,-21.67108821861991,789.8959476431414,9.99811982324677,0.033166247903554,-0.4134985299178243,0.7502146365703665
20591193,1791.0,1,205815,241911,0.57,-0.24,9.96,-0.04,-0.01,-0.01,32.63,18.672705,-48.16878343143658,-463.871589044502,9.979183333319416,0.042426406871192854,-0.9168101036957788,-0.4469392312498559
20631193,1808.0,1,205257,241973,0.56,-0.23,9.97,-0.03,-0.01,-0.01,32.63,18.712705,-15.390453246506974,-1480.0444642977739,9.98836322927836,0.033166247903554,-0.2942007477239216,-1.4172269858661461
20671193,1905.0,1,205581,243041,0.58,-0.23,9.96,-0.03,-0.01,-0.01,32.63,18.752705,63.13519358813362,-1779.756596262501,9.979524036746444,0.033166247903554,1.1973579170145119,-1.7034056653382146
20711193,1890.0,1,206002,244276,0.57,-0.23,9.96,-0.03,-0.01,-0.01,32.63,18.792705,57.333062282460766,-1337.442970480449,9.97894784032866,0.033166247903554,1.0871490926141152,-1.281064639270883
20751193,1870.0,1,206807,246520,0.58,-0.23,9.95,-0.03,-0.01,-0.01,32.63,18.832705,31.242340638102934,-546.5873252479387,9.969543620447226,0.033166247903554,0.591567795208574,-0.5259199518602761
20791193,1806.0,1,207585,247577,0.58,-0.24,9.930000000000001,-0.04,-0.01,-0.01,32.63,18.872705,-40.5737118800417,117.71174228431511,9.949819093832813,0.042426406871192854,-0.7725452012283471,0.10838279949875312
20831193,1732.0,1,207771,247465,0.56,-0.23,9.96,-0.04,-0.01,-0.01,32.63,18.912705,-104.54641067842655,445.79698357427753,9.978381632308919,0.042426406871192854,-1.9876772892245966,0.42165340516674915
20871193,1776.0,1,207756,247654,0.57,-0.23,9.96,-0.04,-0.01,-0.01,32.63,18.952705,-79.81569783785433,577.9866297930047,9.97894784032866,0.042426406871192854,-1.5179287356063007,0.5478740494455313
20911193,1779.0,1,207865,248071,0.56,-0.23,9.96,-0.04,-0.01,-0.01,32.63,18.992705,-64.25641968256936,783.9066662223448,9.978381632308919,0.042426406871192854,-1.222387379564226,0.7444958001764099
20951193,1818.0,1,208097,248630,0.58,-0.22,9.99,-0.03,-0.01,-0.01,32.63,19.032705,-38.33199033349123,1142.4718502180197,10.009240730445041,0.033166247903554,-0.7299647280775906,1.0868700317027402
20991193,1835.0,1,208351,249619,0.57,-0.24,9.96,-0.03,-0.01,-0.01,32.63,19.072705,-21.671850581033617,1409.8490732925613,9.979183333319416,0.033166247903554,-0.41351301064239865,1.3421738798278682
21031193,1839.0,1,208859,250953,0.57,-0.23,9.94,-0.04,-0.01,-0.01,32.63,19.112705,-15.936381359206733,1208.6433809558055,9.958985892147854,0.042426406871192854,-0.30457040196613805,1.1500535977500885
21070190,1920.0,1,208604,245445,0.58,-0.23,9.99,-0.03,-0.01,-0.01,32.63,19.151702,52.30634174659548,388.6555108751848,10.00946552019637,0.033166247903554,0.9916688403307173,0.36709214635844656
21110193,1923.0,1,205449,241346,0.58,-0.23,9.96,-0.03,-0.01,-0.01,32.63,19.191705,64.52492914439217,-766.8452410902775,9.979524036746444,0.033166247903554,1.2237553068379614,-0.7362321573950484
21150193,1911.0,1,204924,241110,0.56,-0.23,9.97,-0.03,-0.01,-0.01,32.63,19.231705,37.51829672637087,-1699.7293524205168,9.98836322927836,0.033166247903554,0.7107767041486849,-1.6269920386546488
21190192,1905.0,1,205108,241903,0.58,-0.23,9.96,-0.03,-0.01,-0.01,32.63,19.271704,40.283894713874716,-1979.0552907953745,9.979524036746444,0.033166247903554,0.7633079701455263,-1.8937050597872764
21230193,1901.0,1,205509,243156,0.57,-0.21,9.97,-0.03,-0.01,-0.01,32.63,19.311705,22.48518307881907,-1596.3050702127362,9.988488374123484,0.033166247903554,0.4252296017323063,-1.5282378630610745
21270193,1927.0,1,206222,245034,0.57,-0.23,9.97,-0.03,-0.01,-0.01,32.63,19.351705,57.86408146468086,-909.2698049188399,9.988928871505694,0.033166247903554,1.0972355585562628,-0.8722255632463678
21310193,1968.0,1,206831,245764,0.58,-0.23,9.96,-0.03,-0.01,-0.01,32.63,19.391705,83.67182483260771,-313.0491638597467,9.979524036746444,0.033166247903554,1.5874418133208665,-0.30292716810378406
21350880,1885.0,1,206867,245749,0.57,-0.24,9.98,-0.03,-0.01,-0.01,32.61,19.432392,12.09953999493817,59.11047622431276,9.999144963445625,0.033166247903554,0.2279590722292017,0.05242766406093735
21391193,1860.0,1,206933,246295,0.57,-0.22,9.98,-0.04,-0.01,-0.01,32.61,19.472705,-27.787851293518578,358.4934438605408,9.998684913527379,0.042426406871192854,-0.5296836405445411,0.3382920425661359
21431193,1847.0,1,207321,247157,0.57,-0.23,9.96,-0.03,-0.01,-0.01,32.61,19.512705,-31.445921818391692,776.8555466709679,9.97894784032866,0.033166247903554,-0.5991670132710147,0.7377630727796751
21471193,1838.0,1,207760,248253,0.56,-0.23,9.99,-0.03,-0.01,-0.01,32.61,19.552705,-50.13801361283016,1275.471279426188,10.008326533442043,0.033166247903554,-0.9542147282779517,1.2138638933519974
21511193,1852.0,1,208102,249063,0.57,-0.22,9.96,-0.03,-0.01,-0.01,32.61,19.592705,-32.29042377364971,1545.5592719574977,9.978722363108416,0.033166247903554,-0.6152079407836037,1.4717561065806855
21551193,1891.0,1,208355,249624,0.56,-0.23,9.98,-0.03,-0.01,-0.01,32.61,19.632705,3.144622020969019,1253.3129864847524,9.99834486302608,0.033166247903554,0.057864510331197105,1.1927061545185171
21591193,1882.0,1,207423,243017,0.58,-0.24,9.96,-0.03,-0.01,-0.01,32.61,19.672705,-6.062480040764801,362.90904208143496,9.979759516140659,0.033166247903554,-0.11702017271037023,0.3425082551687122
21631193,1854.0,1,204807,240722,0.57,-0.21,9.97,-0.03,-0.01,-0.01,32.61,19.712705,-34.165372679142585,-757.4471793686183,9.988488374123484,0.033166247903554,-0.6508217357494551,-0.7272584636193893
21671197,1872.0,1,204657,240804,0.58,-0.22,9.96,-0.03,-0.01,-0.01,32.61,19.752709,-18.063753123517095,-1561.9275839711388,9.979298572545067,0.033166247903554,-0.34497885342224555,-1.495412686610268
21711193,1894.0,1,204733,241484,0.57,-0.23,9.97,-0.03,-0.01,-0.01,32.61,19.792705,6.307899057758565,-1704.8408260309225,9.988928871505694,0.033166247903554,0.11794950756945205,-1.6318727045068886
21751193,1905.0,1,205067,242514,0.57,-0.22,9.96,-0.03,-0.01,-0.01,32.61,19.832705,12.80525280650739,-1255.57523063335,9.978722363108416,0.033166247903554,0.2413637635796542,-1.2028936238794776
21791192,1905.0,1,205748,244271,0.57,-0.25,9.97,-0.03,-0.01,-0.01,32.61,19.872704,19.398697576071935,-588.7148901608972,9.989409391951058,0.033166247903554,0.3666032244812348,-0.5661452534426064
21831193,1898.0,1,206300,244905,0.59,-0.23,9.96,-0.04,-0.01,-0.01,32.61,19.912705,4.356627083131962,-65.50897072651264,9.980110219832245,0.042426406871192854,0.08088599089260909,-0.06656461206462137
21871204,1908.0,1,206366,244936,0.57,-0.22,9.96,-0.04,-0.01,-0.01,32.61,19.952716,22.584182695177425,222.38623273604495,9.978722363108416,0.042426406871192854,0.42711005406269,0.20833073038669309
21911193,1935.0,1,206418,245330,0.595,-0.23,9.99,-0.04,-0.01,-0.01,32.61,19.992705,45.26838119154986,449.79204460666585,10.010345898119605,0.042426406871192854,0.8579860058540868,0.4254680698690568
21951192,1904.0,1,206696,246091,0.5549999999999999,-0.22,9.98,-0.03,-0.01,-0.01,32.61,20.032704,12.168358251317681,818.9828619679835,9.997841016939608,0.033166247903554,0.22926624346220287,0.7779881360174297
21991193,1898.0,1,207082,247108,0.57,-0.22,10.0,-0.03,-0.01,-0.01,32.61,20.072705,18.76517769134586,1301.351043156075,10.018647613325863,0.033166247903554,0.3545698046822599,1.238575060566743
22031190,1940.0,1,207475,248120,0.56,-0.23,9.98,-0.03,-0.01,-0.01,32.61,20.112702,38.183485845453,1595.0386849385143,9.99834486302608,0.033166247903554,0.7234116665367819,1.5190012847292529
22071193,1901.0,1,207817,248945,0.58,-0.22,9.97,-0.03,-0.01,-0.01,32.61,20.152705,30.318195475923538,1356.1288721265687,9.989279253279488,0.033166247903554,0.5740140814896988,1.2908794055939492
22110193,1937.0,1,206997,242732,0.595,-0.23,9.95,-0.03,-0.01,-0.01,32.61,20.191705,32.47033115257208,518.8728357501566,9.97042752343148,0.033166247903554,0.6148929121086627,0.49142952914243904
22150193,1904.0,1,204546,240339,0.57,-0.23,9.95,-0.03,-0.01,-0.01,32.61,20.231705,28.98137894824082,-579.6129632692288,9.968966847171274,0.033166247903554,0.5486218643554733,-0.5574543225769331
22190193,1915.0,1,204247,240240,0.58,-0.25,9.96,-0.03,-0.01,-0.01,32.61,20.271705,21.09906300502893,-1401.2741348576235,9.980005010018782,0.033166247903554,0.3989008863409736,-1.3420135178193637
22230193,1915.0,1,204373,240857,0.57,-0.24,9.98,-0.03,-0.01,-0.01,32.61,20.311705,22.90916203610581,-1580.0312185981827,9.999144963445625,0.033166247903554,0.43328288767007755,-1.512698854564997
22270193,1935.0,1,204679,242055,0.57,-0.23,9.97,-0.03,-0.01,-0.01,32.61,20.351705,56.70941351129223,-1158.488924604459,9.988928871505694,0.033166247903554,1.0753031700921558,-1.110191234182957
22310193,1920.0,1,205379,243764,0.58,-0.23,9.97,-0.03,-0.01,-0.01,32.61,20.391705,11.76874029419123,-505.62039419332575,9.989504492215818,0.033166247903554,0.22167568355516767,-0.486802875903497
22352879,1795.0,1,206068,244579,0.57,-0.22,9.95,-0.03,-0.01,-0.01,32.63,20.434391,-79.1504699126888,-3.366668106423094,9.968741144196693,0.033166247903554,-1.5052930361144385,-0.007228334995717638
22391193,1872.0,1,206095,244607,0.57,-0.23,9.97,-0.03,-0.01,-0.01,32.63,20.472705,-38.269752069932174,233.61369214299734,9.988928871505694,0.033166247903554,-0.7287825407918843,0.21905121569319388
22431193,1877.0,1,206060,244861,0.58,-0.23,9.96,-0.04,-0.01,-0.01,32.63,20.512705,-10.922914622146298,385.1977895874379,9.979524036746444,0.042426406871192854,-0.2093418995153739,0.36379055791214926
22471193,1872.0,1,206317,245783,0.57,-0.23,9.98,-0.04,-0.01,-0.01,32.63,20.552705,-29.66687654647793,692.6423011111654,9.998909940588524,0.042426406871192854,-0.5653748638618826,0.6573524626039161
22511193,1895.0,1,206826,246791,0.57,-0.24,9.97,-0.03,-0.01,-0.01,32.63,20.592705,-13.186460955839427,1172.0791535299347,9.989164129195196,0.033166247903554,-0.2523369244932201,1.1151404220569419
22551193,1884.0,1,207197,247708,0.58,-0.24,9.96,-0.03,-0.01,-0.01,32.63,20.632705,-14.257807219424311,1531.5672956731225,9.979759516140659,0.033166247903554,-0.27268665565494105,1.4583959357059935
22591193,1952.0,1,207553,248763,0.59,-0.23,9.96,-0.03,-0.01,-0.01,32.63,20.672705,31.400853720016,1384.935924658317,9.980110219832245,0.033166247903554,0.5945786785356443,1.3183856803615934
22631193,1980.0,1,207425,243757,0.58,-0.23,9.96,-0.03,-0.01,-0.01,32.63,20.712705,71.2797165249858,597.4803723373856,9.979524036746444,0.033166247903554,1.3520593966750887,0.5664875552210531
22671193,1952.0,1,204496,240243,0.57,-0.25,9.97,-0.04,-0.01,-0.01,32.63,20.752705,27.960907984058487,-538.4002183012801,9.989409391951058,0.042426406871192854,0.5292384861841942,-0.5181025323940295
22711193,1902.0,1,204082,240048,0.58,-0.22,10.0,-0.03,-0.01,-0.01,32.63,20.792705,-25.43542180855828,-1472.0775779358523,10.019221526645671,0.033166247903554,-0.48500032085323685,-1.4096198429600089
22751193,1856.0,1,204244,240670,0.56,-0.24,9.98,-0.03,-0.01,-0.01,32.63,20.832705,-71.62345138144565,-1780.357218271181,9.998579899165682,0.033166247903554,-1.3623207695686526,-1.7039791663579402
22791193,1852.0,1,204561,241955,0.57,-0.24,9.96,-0.03,-0.01,-0.01,32.63,20.872705,-92.40679120429876,-1446.9606414912435,9.979183333319416,0.033166247903554,-1.757090782227814,-1.3856370576887473
22831193,1869.0,1,205310,243973,0.56,-0.23,9.97,-0.04,-0.01,-0.01,32.63,20.912705,-69.76472479294324,-814.3853831227694,9.98836322927836,0.042426406871192854,-1.3270151100775744,-0.7816256320588445
22871193,1894.0,1,206001,244582,0.57,-0.22,9.95,-0.03,-0.01,-0.01,32.63,20.952705,-61.158775258333804,-275.5428558342864,9.968741144196693,0.033166247903554,-1.1635490437148353,-0.2671144513070476
22911193,1878.0,1,205989,244665,0.58,-0.23,9.96,-0.04,-0.01,-0.01,32.63,20.992705,-79.1125462135298,23.03455496906074,9.979524036746444,0.042426406871192854,-1.504572692833489,0.017980745152825245
22951193,1880.0,1,206187,245428,0.57,-0.23,9.97,-0.03,-0.01,-0.01,32.63,21.032705,-83.1337515059955,230.99221785815158,9.988928871505694,0.033166247903554,-1.580953644006035,0.21654811365261506
22991190,1892.0,1,206723,246475,0.56,-0.23,9.96,-0.04,-0.01,-0.01,32.63,21.072702,-83.06865231043045,578.8000817604963,9.978381632308919,0.042426406871192854,-1.5797171146283524,0.5486507701219505
23031193,1927.0,1,207014,247535,0.5549999999999999,-0.24,9.95,-0.03,-0.01,-0.01,32.63,21.112705,-49.62172186827875,1094.1330290037154,9.968356183443687,0.033166247903554,-0.9444080032631268,1.0407139420854734
23071193,1962.0,1,207501,248241,0.58,-0.23,9.97,-0.03,-0.01,-0.01,32.63,21.152705,-21.783817797680364,1500.3076229270396,9.989504492215818,0.033166247903554,-0.415639776595792,1.4285477883902358
23112193,1955.0,1,207719,249370,0.57,-0.22,9.96,-0.03,-0.01,-0.01,32.63,21.193705,-44.914449740155824,1403.5032213894224,9.978722363108416,0.033166247903554,-0.8549955270466791,1.3361145738336107
23152193,1968.0,1,208074,246850,0.57,-0.22,9.95,-0.04,-0.01,-0.01,32.63,21.233705,-15.534934803047333,635.3750022836064,9.968741144196693,0.042426406871192854,-0.29694510865871876,0.6026710593254797
23192193,2001.0,1,205077,241109,0.57,-0.24,9.98,-0.04,-0.01,-0.01,32.63,21.273705,-23.83058446523017,-537.217813512035,9.999144963445625,0.042426406871192854,-0.4545171711890574,-0.5169735189004168
23232193,1933.0,1,204396,240630,0.57,-0.23,9.98,-0.03,-0.01,-0.01,32.63,21.313705,-53.19082829812613,-1541.43102663179,9.998909940588524,0.033166247903554,-1.0122015437865537,-1.4758416479784762
23272193,2081.5,1,204476,241502,0.56,-0.23,9.97,-0.03,-0.01,-0.01,32.63,21.353705,44.200847793880094,-1887.6122954305392,9.98836322927836,0.033166247903554,0.8377086983325704,-1.8063911579811298
23312210,2081.5,1,204971,242873,0.56,-0.25,9.96,-0.03,-0.01,-0.01,32.63,21.393722,80.8913351836649,-1503.2853872230262,9.978862660644248,0.033166247903554,1.534627687041468,-1.4394184687028955
23352880,2081.5,1,205808,245053,0.57,-0.22,9.95,-0.03,-0.01,-0.01,32.55,21.434392,46.70690818111247,-741.7659132202654,9.968741144196693,0.033166247903554,0.8853101665867008,-0.7122852824893247
23391193,2081.5,1,206679,246334,0.59,-0.26,9.97,-0.03,-0.01,-0.01,32.55,21.472705,61.31346522074102,-75.69477070849499,9.9908257916951,0.033166247903554,1.1627550217730866,-0.07629047390778955
23431193,2081.5,1,206765,246513,0.57,-0.24,9.95,-0.04,-0.01,-0.01,32.55,21.512705,53.32631772488503,260.69417184418114,9.969202575933542,0.042426406871192854,1.0110428164718692,0.2449088807451612
23471193,2081.5,1,206920,246634,0.58,-0.22,9.98,-0.03,-0.01,-0.01,32.55,21.552705,49.220788899927264,395.025183275481,9.999259972617974,0.033166247903554,0.9330601784543268,0.373174197239193
23511196,2081.5,1,207032,247360,0.56,-0.23,9.97,-0.03,-0.01,-0.01,32.55,21.592708,55.38265227339678,623.6286805827815,9.98836322927836,0.033166247903554,1.0501019485780012,0.5914551408674582
23551193,2081.5,1,207406,248215,0.59,-0.23,9.95,-0.04,-0.01,-0.01,32.55,21.632705,48.67793008484122,1077.35756929331,9.97013039032088,0.042426406871192854,0.9227488241132883,1.0246959755253955
23591193,2081.5,1,207922,249365,0.595,-0.22,9.96,-0.04,-0.01,-0.01,32.55,21.672705,54.42242167024449,1538.1444606490327,9.980181611574011,0.042426406871192854,1.031862808449747,1.4646761098689047
23631193,2081.5,1,208346,250625,0.5549999999999999,-0.22,9.98,-0.03,-0.01,-0.01,32.55,21.712705,55.0874112626095,1580.6788912111276,9.997841016939608,0.033166247903554,1.0444939809193172,1.5052899051482673
23671193,2081.5,1,208662,249174,0.57,-0.24,9.98,-0.04,-0.01,-0.01,32.55,21.752705,56.37426270294624,940.6257929356286,9.999144963445625,0.042426406871192854,1.0689371341238658,0.8941383002541234
23711193,2081.5,1,205975,242004,0.56,-0.23,9.97,-0.03,-0.01,-0.01,32.55,21.792705,63.16948983606671,-203.24546248235947,9.98836322927836,0.033166247903554,1.1980093585222824,-0.19808163497393316
23751193,2081.5,1,204742,241160,0.57,-0.24,9.98,-0.03,-0.01,-0.01,32.55,21.832705,64.59958079785746,-1297.0734798540525,9.999144963445625,0.033166247903554,1.2251732807745235,-1.2425180264171136
23791193,2081.5,1,204751,242011,0.56,-0.22,9.96,-0.03,-0.01,-0.01,32.55,21.872705,71.19472873318136,-1793.5081229599912,9.978156142294026,0.033166247903554,1.3504450925289562,-1.7165362440879457
23831193,2081.5,1,205297,243204,0.57,-0.23,9.97,-0.03,-0.01,-0.01,32.55,21.912705,78.45778241287812,-1528.9540237138765,9.988928871505694,0.033166247903554,1.488403467723557,-1.463928042094688
23871193,2081.5,1,205984,245155,0.59,-0.23,9.98,-0.04,-0.01,-0.01,32.55,21.952705,80.46742684443788,-790.1784672643381,10.000069999755002,0.042426406871192854,1.526575742461369,-0.7585117755424434
23911193,2081.5,1,206769,246483,0.56,-0.23,9.96,-0.03,-0.01,-0.01,32.55,21.992705,94.87643431218447,-45.42854620689666,9.978381632308919,0.033166247903554,1.8002682340884146,-0.047390915842879654
23951193,2081.5,1,207004,246708,0.59,-0.23,9.95,-0.04,-0.01,-0.01,32.55,22.032705,93.32975722902741,411.68954704802667,9.97013039032088,0.042426406871192854,1.770889811904981,0.38908608438038667
23991193,2011.0,1,207150,247110,0.57,-0.22,9.96,-0.04,-0.01,-0.01,32.55,22.072705,40.21565332215618,619.4215688020707,9.978722363108416,0.042426406871192854,0.7620117561923202,0.5874380005338234
24031193,1966.0,1,207360,247482,0.56,-0.24,9.930000000000001,-0.04,-0.01,-0.01,32.55,22.112705,-4.850831461939044,809.3295850248342,9.948673278382401,0.042426406871192854,-0.0940054633865328,0.7687707512220295
24071193,1947.0,1,207459,247860,0.56,-0.23,9.97,-0.03,-0.01,-0.01,32.55,22.152705,-9.335976667660859,1116.816666111971,9.98836322927836,0.033166247903554,-0.17919874053701493,1.0623733032555052
24111193,1914.0,1,207544,248696,0.56,-0.22,9.95,-0.03,-0.01,-0.01,32.55,22.192705,-37.16288636395585,1399.139151186388,9.968174356420537,0.033166247903554,-0.70775813410438,1.331947562509642
24152193,1856.0,1,208017,249696,0.57,-0.23,9.96,-0.03,-0.01,-0.01,32.55,22.233705,-85.4887600945348,1328.689648422604,9.97894784032866,0.033166247903554,-1.6256859525875371,1.2646791955662036
24192193,1841.0,1,208241,247794,0.57,-0.23,9.97,-0.04,-0.01,-0.01,32.55,22.273705,-92.07392700499356,695.7333768215708,9.988928871505694,0.042426406871192854,-1.7507681793500511,0.6603039612941863
24232193,1819.0,1,205531,241566,0.58,-0.22,9.98,-0.03,-0.01,-0.01,32.55,22.313705,-104.76375986743246,-344.32988576884316,9.999259972617974,0.033166247903554,-1.9918057374348774,-0.3327954141110286
24272193,1792.0,1,204585,240765,0.57,-0.22,9.98,-0.03,-0.01,-0.01,32.55,22.353705,-127.66444883144872,-1319.6858290987182,9.998684913527379,0.033166247903554,-2.4267938264179283,-1.2641093187154222
24312193,1806.0,1,204505,241272,0.57,-0.23,9.930000000000001,-0.03,-0.01,-0.01,32.55,22.393705,-97.42126823072468,-1767.8357139886702,9.949004975373166,0.033166247903554,-1.8523384746619493,-1.6920230685614235
24352193,1811.0,1,204837,242048,0.58,-0.24,9.96,-0.03,-0.01,-0.01,32.55,22.433705,-98.36082061865365,-1562.051495040048,9.979759516140659,0.033166247903554,-1.8701848415711224,-1.495531002495047
24392879,1780.0,1,205348,243673,0.57,-0.22,9.97,-0.04,-0.01,-0.01,32.53,22.474391,-105.83537430673567,-963.7496671886456,9.988703619589481,0.042426406871192854,-2.012160562471434,-0.924245396210714
24431193,1855.0,1,206060,244914,0.57,-0.23,9.96,-0.03,-0.01,-0.01,32.53,22.512705,-41.84681956654381,-375.5192195603584,9.97894784032866,0.033166247903554,-0.7967272981290713,-0.3625763986162533
24471193,1853.0,1,206234,244906,0.59,-0.23,9.99,-0.04,-0.01,-0.01,32.53,22.552705,-23.22809045820537,-20.570828573337046,10.010049949925325,0.042426406871192854,-0.4430730737144678,-0.023655644399483915
24511193,1843.0,1,206168,245164,0.57,-0.21,9.96,-0.03,-0.01,-0.01,32.53,22.592705,-37.98677959432999,184.37986831344452,9.978506902337644,0.033166247903554,-0.7234076083350308,0.17204053715796502
24551193,1850.0,1,206394,246005,0.57,-0.23,9.97,-0.04,-0.01,-0.01,32.53,22.632705,-22.66408557632801,473.0746083347595,9.988928871505694,0.042426406871192854,-0.4323600595282816,0.44769931322497897
24591193,1839.0,1,206771,246901,0.59,-0.24,9.98,-0.03,-0.01,-0.01,32.53,22.672705,-28.199535226852046,940.3038541495953,10.000304995348891,0.033166247903554,-0.5375033881384731,0.8938308985615262
24631193,1837.0,1,207101,247616,0.58,-0.21,9.95,-0.03,-0.01,-0.01,32.53,22.712705,-32.434145197440316,1381.628598296093,9.969102266503237,0.033166247903554,-0.6179378633452713,1.315227695782458
24671193,1840.0,1,207453,248700,0.57,-0.23,9.95,-0.03,-0.01,-0.01,32.53,22.752705,-20.231343929931917,1420.5043554167723,9.968966847171274,0.033166247903554,-0.38615124714634486,1.3523480244236163
24711193,1855.0,1,207790,246675,0.57,-0.23,9.99,-0.03,-0.01,-0.01,32.53,22.792705,-9.428955781849872,833.8412404107106,10.008891047463749,0.033166247903554,-0.18096483618854606,0.7921755868021592
24751193,1858.0,1,205031,240677,0.57,-0.25,9.98,-0.04,-0.01,-0.01,32.53,22.832705,-1.7262351993641933,-204.175778926745,9.999389981393865,0.042426406871192854,-0.03465518972285997,-0.19896994313083066
24791193,1850.0,1,204118,239904,0.56,-0.25,9.97,-0.03,-0.01,-0.01,32.53,22.872705,-9.643682173002215,-1192.3895166924995,9.988843776934345,0.033166247903554,-0.18504346555591353,-1.1425610505580193
24831193,1856.0,1,204025,240408,0.58,-0.24,9.97,-0.03,-0.01,-0.01,32.53,22.912705,-6.6798441116018585,-1647.4837883066027,9.989739736349492,0.033166247903554,-0.12874672023049827,-1.5771056144769553
24871193,1872.0,1,204402,241284,0.58,-0.23,9.96,-0.03,-0.01,-0.01,32.53,22.952705,14.264655592406182,-1435.398518653145,9.979524036746444,0.033166247903554,0.26908445049401514,-1.3745970206238136
24911193,1882.0,1,204903,242866,0.59,-0.23,9.97,-0.03,-0.01,-0.01,32.53,22.992705,15.635651902057718,-819.2487197459061,9.990090089683877,0.033166247903554,0.295125896918409,-0.7862693655090512
24951198,1879.0,1,205597,244204,0.58,-0.22,9.97,-0.03,-0.01,-0.01,32.53,23.03271,18.695962050764386,-208.6957845857964,9.989279253279488,0.033166247903554,0.35325508531850713,-0.20328584867070326
24991193,1904.0,1,205776,244348,0.57,-0.24,9.98,-0.03,-0.01,-0.01,32.53,23.072705,34.71275474205137,161.4523208438377,9.999144963445625,0.033166247903554,0.657486720243029,0.1501482793592135
25031193,1895.0,1,205902,244445,0.57,-0.21,9.98,-0.03,-0.01,-0.01,32.53,23.112705,27.86134171770141,362.99400742094946,9.998469882937089,0.033166247903554,0.5273472705968424,0.34258938391216265
25071193,1904.0,1,206058,245143,0.57,-0.23,9.96,-0.03,-0.01,-0.01,32.53,23.152705,31.89400948513909,629.0042869675005,9.97894784032866,0.033166247903554,0.6039459462269761,0.5965880126216172
25111193,1927.0,1,206307,246247,0.59,-0.22,9.97,-0.03,-0.01,-0.01,32.53,23.192705,51.22671666942767,1071.165804121474,9.989864863950864,0.033166247903554,0.9711618569000737,1.018783798501191
25152193,1914.0,1,206870,247197,0.5549999999999999,-0.25,9.99,-0.03,-0.01,-0.01,32.53,23.233705,37.12489126526016,1510.3104894678706,10.008527613989981,0.033166247903554,0.7033041477556028,1.438098977121986
25192193,1904.0,1,207117,248225,0.57,-0.23,9.94,-0.03,-0.01,-0.01,32.53,23.273705,20.10611411886357,1581.269763823271,9.958985892147854,0.033166247903554,0.3800402774252508,1.5058540970038685
25232193,1910.0,1,207506,247001,0.58,-0.24,9.99,-0.04,-0.01,-0.01,32.53,23.313705,26.16212497673344,1042.058596829665,10.009700295213639,0.042426406871192854,0.49507142753888594,0.9909909224127784
25272193,1929.0,1,205011,240634,0.57,-0.22,9.95,-0.03,-0.01,-0.01,32.53,23.353705,37.03613722476566,25.75227489937101,9.968741144196693,0.033166247903554,0.7016183054420859,0.020575746882427057
25312193,1925.0,1,204040,239977,0.595,-0.22,9.96,-0.03,-0.01,-0.01,32.53,23.393705,34.177237064427295,-998.6832830522046,9.980181611574011,0.033166247903554,0.6473148074428351,-0.9576015903410016
25352193,1923.0,1,203882,240375,0.59,-0.23,9.95,-0.03,-0.01,-0.01,32.53,23.433705,21.45519256664526,-1542.3160912891205,9.97013039032088,0.033166247903554,0.4056654041107783,-1.476686747685391
25392879,1922.0,1,204158,241118,0.57,-0.22,9.96,-0.03,-0.01,-0.01,32.63,23.474391,25.45103861946474,-1429.77259733536,9.978722363108416,0.033166247903554,0.48156466815115506,-1.3692251368666124
25431193,1946.0,1,204568,242558,0.58,-0.23,9.97,-0.03,-0.01,-0.01,32.63,23.512705,34.19160255436846,-882.3339596280264,9.989504492215818,0.033166247903554,0.6475876733389935,-0.846506001661533
25471193,1941.0,1,205385,243978,0.59,-0.23,9.97,-0.03,-0.01,-0.01,32.63,23.552705,38.02164181655457,-304.27266411927303,9.990090089683877,0.033166247903554,0.7203375133986617,-0.2945469697793088
25511193,1957.0,1,205721,244322,0.58,-0.22,9.97,-0.03,-0.01,-0.01,32.63,23.592705,37.69292274001215,35.350611842618015,9.989279253279488,0.033166247903554,0.7140936452276151,0.029740672484670185
25551193,1946.0,1,205644,244413,0.57,-0.23,9.96,-0.03,-0.01,-0.01,32.63,23.632705,32.79797215370576,168.98132758542735,9.97894784032866,0.033166247903554,0.6211163027315201,0.1573373150279398
25591193,1946.0,1,205705,245022,0.58,-0.23,9.96,-0.03,-0.01,-0.01,32.63,23.672705,24.069987799221398,326.05278135420343,9.979524036746444,0.033166247903554,0.4553322409071509,0.3073162328903525
25631193,1936.0,1,206112,246207,0.57,-0.24,9.95,-0.04,-0.01,-0.01,32.63,23.712705,9.172883018701022,661.1981899939007,9.969202575933542,0.042426406871192854,0.17236856457230695,0.6273282052015803
25671193,1942.0,1,206527,246994,0.57,-0.22,9.97,-0.03,-0.01,-0.01,32.63,23.752705,19.399471474984175,1055.6942592908274,9.988703619589481,0.033166247903554,0.36661792433631035,1.0040108687568976
25711193,1952.0,1,206818,247880,0.57,-0.22,9.96,-0.03,-0.01,-0.01,32.63,23.792705,13.285523742367124,1174.674306838899,9.978722363108416,0.033166247903554,0.25048628984565385,1.1176183916410172
25751193,1926.0,1,207254,247981,0.58,-0.23,9.96,-0.03,-0.01,-0.01,32.63,23.832705,-1.0247805883149768,747.4064734055368,9.979524036746444,0.033166247903554,-0.02133138093928632,0.7096437676199857
25791193,1986.0,1,205467,241469,0.58,-0.22,9.95,-0.04,-0.01,-0.01,32.63,23.872705,41.35598961178097,-163.9549799563184,9.969317930530654,0.042426406871192854,0.7836719212730008,-0.16056530778552916
25831193,1962.0,1,204064,240398,0.56,-0.23,9.98,-0.03,-0.01,-0.01,32.63,23.912705,25.8059878382828,-1149.7413591740244,9.99834486302608,0.033166247903554,0.4883067658505868,-1.1018386636444648
25871193,1923.0,1,204048,240780,0.56,-0.24,9.96,-0.03,-0.01,-0.01,32.63,23.952705,-24.477091056754933,-1722.087144986629,9.97861713866205,0.033166247903554,-0.4667972675304463,-1.6483402687397541
