timestamp_us,ecg,leads,ir,red,accX,accY,accZ,gyroX,gyroY,gyroZ,temp,time_sec,ecg_filtered,ppg_filtered,accel_magnitude,gyro_magnitude,ecg_norm,ppg_norm
2450963,1648.0,1,196612,244682,-1.85,-2.99,10.75,-0.01,0.02,-0.34,28.19,0.030439,-16.272120782647285,44.14014139562216,11.310397870985796,0.3407345007480164,-0.15130852830323327,0.06050886418057698
2491203,1744.0,1,195912,243947,-2.7,-2.56,8.77,-0.1,-0.17,-0.35,28.19,0.070679,53.21645291741071,4.439238793301058,9.526620597042793,0.4017461885320133,0.48327618789338517,0.009506091964564539
2531210,1733.0,1,196558,244679,-2.43,-2.3,9.43,-0.01,0.01,-0.46,28.19,0.110686,45.93908797096094,64.3566451041331,10.005988207068805,0.46021733996015407,0.4168177138838921,0.08648050880482468
2571196,1782.0,1,196745,245947,-2.41,-3.5,9.84,-0.09,-0.06,-0.42,28.19,0.150672,51.32380404097741,219.69559426790872,10.718381407656661,0.43370496884402876,0.4659921081352439,0.2860406326598321
2611209,1691.0,1,196745,245020,-2.39,-2.62,10.6,-0.06,0.01,-0.4,28.19,0.190685,-36.63368493310383,362.078895497647,11.177499720420483,0.40459856648287823,-0.3372547453533887,0.46895695455624303
2651196,1701.0,1,196417,245231,-2.54,-2.83,9.04,-0.07,-0.01,-0.37,28.19,0.230672,-49.32617416804313,377.7879974743148,9.807247320221917,0.37669616403674727,-0.4531653080561006,0.4891380511388496
2691209,1783.0,1,196574,245585,-2.04,-2.73,10.73,-0.07,0.08,-0.36,28.19,0.270685,5.897535408311213,248.880664943735,11.258214778551704,0.3753664875824692,0.051149577152228995,0.3235339744787248
2731196,1776.0,1,196165,243757,-2.46,-3.25,9.45,-0.08,-0.0,-0.35,28.19,0.310672,7.2546203655338735,68.09640702560158,10.291579081948504,0.3590264614203248,0.06354277112036369,0.09128488887984149
2771210,1904.0,1,195733,244493,-2.0,-2.71,8.73,-0.08,0.05,-0.47,28.19,0.350686,91.40620386701582,-39.58003153648825,9.35718974906462,0.47937459256827536,0.8320332709295343,-0.04704438096130944
2811196,1863.0,1,195897,244085,-2.37,-2.84,9.67,-0.07,0.1,-0.39,28.19,0.390672,60.888791525704775,-18.35042545724107,10.353327967373582,0.408656334834051,0.5533416469906494,-0.019771228661940473
2851196,1776.0,1,196150,244948,-2.52,-3.05,8.71,-0.05,0.07,-0.34,28.19,0.430672,-52.25335995742564,80.75669770023038,9.566451797819296,0.3507135583350037,-0.4798970031320138,0.10754925263838354
2891196,1813.0,1,196211,243610,-2.04,-2.27,10.02,-0.02,0.13,-0.3,28.19,0.470672,-31.25625709286755,154.98056346160982,10.47448805431559,0.327566787083184,-0.2881469087960629,0.2029028257382101
2931195,1808.0,1,195954,244133,-2.49,-3.82,8.67,-0.11,-0.01,-0.32,28.19,0.510671,-28.304658630211616,142.17310244665427,9.79598897508567,0.33852621759621515,-0.2611922718965387,0.1864493958664911
2971213,1861.0,1,195675,243498,-2.35,-2.93,9.82,-0.05,0.03,-0.34,28.19,0.550689,-20.46426077818933,65.12544055941612,10.51379094332772,0.34496376621320685,-0.18959205935986972,0.08746816140001312
3011196,1857.0,1,195725,244074,-2.28,-2.88,8.56,-0.07,0.04,-0.32,28.19,0.590672,10.447766194481812,-3.5840585837906755,9.314848361621353,0.33,0.09270327092258733,-0.0008012406581757684
3051196,1943.0,1,195936,244621,-2.16,-3.1,9.55,-0.01,0.06,-0.28,28.19,0.630672,35.41800355647031,-11.903674724204425,10.270253161436674,0.2865309756378881,0.32073689063849237,-0.011489246701377796
3091195,1995.0,1,195817,243367,-2.18,-3.28,10.13,-0.04,-0.01,-0.19,28.19,0.670671,132.44027183626986,30.484513068546093,10.868656770732988,0.1944222209522358,1.2067652734751568,0.04296581464316751
3131213,1984.0,1,195645,244016,-2.27,-2.34,9.07,-0.03,-0.07,-0.23,28.19,0.710689,65.26921475111027,64.07536610261376,9.638122223752925,0.24228082879171436,0.5933446213114866,0.08611915659610186
3171209,1808.0,1,195898,243378,-2.29,-2.64,9.66,-0.01,0.05,-0.26,28.19,0.750685,-80.27167868885581,24.066243851092427,10.272745494754554,0.26495282598983544,-0.7357663625642131,0.03472042218451607
3211197,1873.0,1,195593,242887,-2.06,-2.85,11.05,0.0,0.04,-0.19,28.19,0.790673,-40.35842985648111,-115.68161131221466,11.596059675596708,0.194164878389476,-0.37126992330636766,-0.1448102070297865
3251173,1817.0,1,195573,242934,-2.1,-2.52,9.05,-0.01,-0.0,-0.21,28.19,0.830649,-101.89957536889652,-323.7124065930401,9.626157073308123,0.21023796041628637,-0.9332770027433475,-0.4120622484230101
3291210,1797.0,1,195223,241119,-2.33,-2.17,9.88,-0.02,0.07,-0.11,28.19,0.870686,-107.91418507616665,-527.4369989850616,10.380375715743627,0.1319090595827292,-0.9882037222151886,-0.6737822169751299
3331191,2021.0,1,195136,241211,-2.13,-2.93,10.53,0.06,0.01,-0.17,28.19,0.910667,85.82417647457439,-655.6108322527215,11.135649958578977,0.18055470085267789,0.7810569869159334,-0.8384439851894733
3371175,2022.0,1,195033,241586,-2.24,-2.34,9.92,-0.04,-0.05,-0.23,28.19,0.950651,109.36484132763817,-677.4620880020605,10.4354971132189,0.23874672772626646,0.9960354406303852,-0.8665157555162317
3411207,2096.0,1,195714,242617,-2.05,-1.76,9.81,-0.0,0.06,-0.26,28.19,0.990683,169.96593085123197,-609.2193851977568,10.175273952086007,0.2668332812825267,1.549457725026813,-0.7788460352230351
3451201,2106.5,1,195280,241623,-1.7,-2.37,9.5,-0.02,-0.05,-0.3,28.19,1.030677,169.0614530141662,-487.10728615750213,9.937650627789246,0.3047950130825634,1.5411978373794135,-0.6219716277428098
3491892,1915.0,1,195641,243105,-1.24,-1.87,10.18,-0.03,-0.03,-0.29,28.05,1.071368,16.441066792930854,-336.1626082068241,10.424341705834474,0.29308701779505686,0.14743539099407232,-0.42805671593705924
3530207,2106.5,1,196057,243301,-1.89,-2.18,9.15,0.04,-0.1,-0.27,28.05,1.109683,132.53765078626287,-163.00813892120186,9.594112778157239,0.2906888370749727,1.207654559152707,-0.20560943196415557
3570189,1771.0,1,196075,243462,-1.09,-2.3,9.93,0.01,-0.04,-0.28,28.05,1.149665,-80.28478710998132,27.355259039263466,10.250999951224271,0.2830194339616981,-0.7358860715070908,0.03894573902775291
3610189,1679.0,1,196626,244558,-1.55,-2.17,10.14,-0.02,-0.01,-0.27,28.05,1.189665,-352.5528786903542,211.91398178488018,10.484798519761837,0.2709243436828813,-3.2222972960445952,0.2760437866706938
3650210,1795.0,1,196289,243650,-1.21,-1.48,9.25,0.01,-0.06,-0.26,28.05,1.229686,15.460691438598476,347.1830228482356,9.4454751071611,0.26702059845637377,0.13848239076873237,0.44982059367027566
3690189,2106.5,1,197226,245207,-1.13,-1.76,10.64,0.03,0.04,-0.25,28.05,1.269665,9.040617469036167,389.92974995347186,10.843620244180446,0.25495097567963926,0.07985288377206488,0.5047362616430472
3730167,1598.5,1,196483,244137,-0.55,-1.84,9.12,-0.07,-0.12,-0.25,28.05,1.309643,-126.2130489229977,329.650000606131,9.320005364805322,0.28600699292150183,-1.155312913016613,0.42729635162394847
3770212,2106.5,1,196946,244528,-0.86,-1.62,9.37,0.0,-0.02,-0.24,28.05,1.349688,-3.5680428071036943,208.33270935170884,9.54782174110933,0.2408318915758459,-0.03529213470954359,0.27144301413959665
3810188,1598.5,1,196561,244182,-0.45,-1.46,9.52,-0.01,-0.07,-0.23,28.05,1.389664,-150.6290631223502,106.81360330608344,9.641809996053645,0.24062418831031931,-1.3782852466872895,0.14102391780107842
3850213,2106.5,1,197141,245265,-0.53,-1.74,9.74,-0.03,-0.02,-0.22,28.05,1.429689,69.40105496040843,98.85237416561303,9.908385337682422,0.22293496809607954,0.6310774816505824,0.1307963227139291
3890209,2106.5,1,196618,243681,-0.49,-0.76,8.76,0.0,-0.11,-0.21,28.05,1.469685,269.0498893561388,197.99206759514715,8.80654869968934,0.23706539182259395,2.4543139098562525,0.25815864624095675
3930195,2106.5,1,197378,246192,-0.4,-1.48,9.81,0.01,0.06,-0.2,28.05,1.509671,162.70419308398937,333.04257268611036,9.929073471376874,0.20904544960366875,1.4831419618049226,0.4316547054567269
3970173,2106.5,1,197390,245069,-0.61,-1.96,10.17,-0.03,-0.06,-0.19,28.05,1.549649,207.79927379510804,378.25757603714044,10.3750951802863,0.20149441679609884,1.8949600129056745,0.4897413071584223
4010213,2007.0,1,197124,245979,-0.47,-0.81,8.68,-0.01,-0.09,-0.18,28.05,1.589689,92.52728145280804,232.00421065022064,8.730372271558641,0.20149441679609884,0.8422711944288009,0.30185320911255564
4050209,2096.0,1,197290,244214,-1.0,-1.43,9.5,-0.01,0.06,-0.18,28.05,1.629685,206.80488455626593,-101.60923543830397,9.658928512003802,0.19,1.8858790348495793,-0.12673177217845358
4090196,2106.5,1,196624,245007,-0.3,-1.83,10.14,-0.02,0.0,-0.17,28.05,1.669672,167.57956525524253,-488.0540229800453,10.308176366360833,0.17117242768623692,1.5276649171760013,-0.6231878772319551
4130193,1598.5,1,196587,242423,-0.57,-0.57,9.15,-0.0,-0.02,-0.17,28.05,1.709669,-268.17010172033054,-724.5500193158803,9.185439564876578,0.17117242768623692,-2.4516954873711168,-0.9270084616639651
4170210,1598.5,1,196293,245777,0.06,-1.14,9.25,-0.03,0.03,-0.15,28.05,1.749686,-342.2611878611526,-659.211033538802,9.320177036945168,0.15588457268119896,-3.128311344739528,-0.8430690751519121
4210173,1598.5,1,197851,245164,-0.79,-1.93,11.05,-0.05,0.06,-0.16,28.05,1.789649,-294.46756915620307,-290.7068310954696,11.245065584513059,0.17804493814764855,-2.6918496597896686,-0.36966079811284586
4250196,1923.0,1,196746,247248,0.37,0.01,8.59,0.0,-0.195,-0.13,28.05,1.829672,23.09631346391263,220.94559566123618,8.597970690808385,0.2343608329051593,0.2082125460721587,0.2876464786772939
4289191,2106.5,1,199017,249854,-0.04,-1.18,11.64,-0.06,0.13,-0.13,28.05,1.868667,166.14680516294104,643.0236943396766,11.699726492529646,0.19339079605813717,1.5145806414722645,0.829879821326928
4329197,1598.5,1,197952,248513,0.18,-0.5,9.68,-0.07,-0.12,-0.15,28.05,1.908673,-278.8247461555718,802.3519215626384,9.694575802994168,0.20445048300260873,-2.5489960096742217,1.0345648724964873
4369197,1598.5,1,198574,249391,0.23,-1.47,11.43,-0.05,0.03,-0.1,28.05,1.948673,-345.3774640994005,676.6720021828676,11.526434834761353,0.11575836902790226,-3.1567698547785272,0.87310697405872
4409179,1598.5,1,197669,247723,-0.34,-0.62,8.88,-0.14,-0.06,-0.13,28.05,1.988655,-313.86160815741613,388.86246942904,8.908108665704523,0.20024984394500786,-2.868960227472549,0.5033651526276315
4449209,1651.0,1,198109,248390,-0.36,-2.26,10.26,-0.05,0.11,-0.13,28.05,2.028685,-254.4281273529456,115.88577864553952,10.512126331052153,0.17748239349298847,-2.326200798970268,0.1526787181207808
4489196,2106.5,1,197397,246007,-0.14,-1.08,9.79,-0.04,-0.06,-0.13,28.05,2.068672,141.71235062320915,-19.029862835986968,9.85038577924743,0.14866068747318506,1.2914399066164275,-0.020644085136019626
4529895,2106.5,1,197954,248942,0.23,-1.25,9.98,-0.03,0.14,-0.12,28.13,2.109371,223.94640317206367,-1.5276953375336249,10.060606343556039,0.18681541692269404,2.0424190981546344,0.0018405185807211445
4570176,2079.0,1,197953,247304,-0.32,-0.72,10.63,-0.01,0.1,-0.05,28.13,2.149652,95.2897447988265,93.10657688059213,10.659160379692203,0.11224972160321825,0.8674986084494636,0.12341483839195376
4610196,1874.0,1,197635,249284,-0.12,-1.13,9.33,0.0,-0.09,-0.06,28.13,2.189672,-25.37848618085746,163.73588342351286,9.398946749503372,0.10816653826391967,-0.23446983086139883,0.2141505697547187
4650196,1968.0,1,198200,248794,-0.78,-0.82,10.61,-0.01,0.08,-0.11,28.13,2.229672,-6.556655344337531,144.32439851287114,10.670187439778179,0.13638181696985854,-0.06258479216065785,0.18921311296213333
4690196,2106.5,1,197464,249041,-0.49,-1.02,9.0,-0.06,-0.195,-0.11,28.13,2.269672,178.15593150416535,32.56464118046784,9.070859937183464,0.2317865397299852,1.6242505861153909,0.04563810401994017
4730211,2106.5,1,198100,249041,-0.32,-0.81,10.6,0.03,0.05,-0.19,28.13,2.309687,138.78310301140266,-117.21716786857417,10.635718123380292,0.19874606914351792,1.2646893825312526,-0.14678289873539596
4770173,2087.0,1,197148,247824,-0.41,-0.38,8.9,-0.1,-0.19,-0.11,28.13,2.349649,136.47732164057166,-227.17444506631142,8.917538898148974,0.24124676163629638,1.2436324872906612,-0.2880423058220564
4810210,2106.5,1,197883,248848,-0.17,-1.15,10.12,-0.02,0.12,-0.11,28.13,2.389686,146.36182106237948,-240.59664244051353,10.18654995570139,0.16401219466856726,1.3338998784074876,-0.3052854723609141
4850196,2106.5,1,197145,247707,0.06,-0.01,9.89,-0.03,-0.16,-0.1,28.13,2.429672,121.30156204148653,-156.87845161326027,9.89018705586502,0.19104973174542803,1.1050441613908955,-0.19773477358034217
4890196,2106.5,1,198010,250052,-0.11,-0.43,11.04,0.02,0.11,-0.14,28.13,2.469672,179.02781328604644,-33.61619773651527,11.048918499111123,0.17916472867168917,1.6322127995218743,-0.0393827904962001
4930176,1936.0,1,197722,248959,-0.89,-0.04,10.18,-0.02,-0.05,-0.09,28.13,2.509652,-106.7389157059275,50.5800347871066,10.218908943718013,0.10488088481701516,-0.9774709075946582,0.06878203668326163
4970210,1598.5,1,197737,249750,0.62,-0.25,10.82,0.0,-0.07,-0.07,28.13,2.549686,-284.40971610984985,48.804265679454375,10.840631900401378,0.09899494936611666,-2.5999991658002948,0.06650074982656123
5010173,1849.0,1,197704,249239,-0.59,-0.32,9.31,-0.07,-0.06,-0.1,28.13,2.589649,-235.48568798511874,-25.135185658031606,9.334163058357188,0.13601470508735444,-2.1532143370205676,-0.02848744306460636
5050214,1598.5,1,197429,248262,0.0,-0.07,9.8,-0.01,-0.05,-0.11,28.13,2.62969,-277.296967205015,-111.89320764267285,9.800249996811306,0.12124355652982141,-2.5350440011622175,-0.13994333809848292
5090201,2106.5,1,197422,248797,-0.03,-0.2,9.95,-0.0,-0.02,-0.17,28.13,2.669677,37.471762297240815,-149.44727241600478,9.952055064156346,0.17117242768623692,0.3394922605972096,-0.1881881206064666
5128210,2099.0,1,197551,248603,0.39,0.64,10.14,-0.04,-0.04,-0.12,28.13,2.707686,178.54618801632836,-107.9755908028785,10.167659514362192,0.132664991614216,1.627814493169863,-0.1349104721883269
5168176,2027.0,1,197847,249144,0.26,0.49,9.42,0.0,0.0,-0.12,28.13,2.747652,12.865233217289113,2.819437931480138,9.436318137917988,0.12,0.11478010374411889,0.007425173673655882
5208145,2106.5,1,197510,248464,0.45,0.13,9.89,-0.02,-0.08,-0.16,28.13,2.787621,132.0351605499542,142.63916061991117,9.901085799042447,0.18,1.2030657094034534,0.18704812932824977
5248173,2106.5,1,197744,249515,0.55,0.38,11.6,-0.03,0.0,-0.11,28.13,2.827649,138.50296708837837,247.01838375877387,11.619246963551468,0.11401754250991379,1.2621311205646712,0.32114154768606074
5288208,2106.5,1,197673,249072,0.05,0.81,9.1,0.01,-0.13,-0.08,28.13,2.867684,104.7069652396362,237.00738941230242,9.136115148135994,0.15297058540778355,0.9534987066323283,0.3082806696999008
5328162,2106.5,1,197513,248729,0.53,0.02,10.03,0.0,-0.1,-0.12,28.13,2.907638,161.6780216676603,54.843260535019574,10.044013142165834,0.1562049935181331,1.4737707420154493,0.07425889784947433
5368167,2106.5,1,197696,248657,1.0,1.36,11.07,0.01,0.13,-0.2,28.13,2.947643,98.73587835540006,-278.7628629592374,11.197968565771205,0.23874672772626646,0.8989694470137043,-0.35431667628494695
5408144,2063.0,1,196491,245559,-0.26,0.03,8.99,0.01,-0.195,-0.09,28.13,2.98762,131.79099084340686,-636.2441074448807,8.993808981738495,0.215,1.200835898721168,-0.8135640305990516
5448176,2091.0,1,196716,246572,1.52,1.25,9.61,0.07,0.11,-0.16,28.13,3.027652,88.63793907165066,-834.3971563428023,9.809434234450016,0.20639767440550294,0.8067528768160137,-1.068126374384611
5488144,1969.0,1,196548,245466,0.33,0.21,9.09,-0.04,-0.06,0.01,28.13,3.06762,40.9902623377639,-749.5088219133515,9.098411949345886,0.07280109889280519,0.37162396557781235,-0.959072420924902
5528167,2106.5,1,196886,247104,1.28,0.62,9.19,0.07,0.01,0.0,28.13,3.107643,129.18400974750818,-409.82287600656343,9.29940320665794,0.07071067811865477,1.1770283823083014,-0.5226862486102267
5568813,2047.0,1,197660,248057,0.41,1.4,10.21,0.02,0.15,0.09,28.25,3.148289,103.6365482344541,16.992943005530694,10.313689931348529,0.17606816861659008,0.9437234265355235,0.025633526718808905
5609125,2106.0,1,197952,247807,0.1,-0.08,10.09,0.0,-0.01,0.2,28.25,3.188601,169.84025358582812,338.2510874525442,10.09081265310183,0.2002498439450079,1.5483100129994671,0.43834595615389954
5649163,2019.0,1,197753,248635,0.64,0.08,10.1,-0.01,-0.0,0.12,28.25,3.228639,59.95950184154935,460.2037736997898,10.120573106301835,0.12041594578792295,0.544855172177831,0.5950155699433718
5689168,1598.5,1,197894,247016,0.36,0.7,9.78,-0.01,-0.06,0.05,28.25,3.268644,-310.9828167961744,422.5908786049261,9.811625757233099,0.07874007874011811,-2.842670480803575,0.5466952095696016
5729162,1598.5,1,197222,248338,-0.17,0.18,7.92,-0.01,-0.195,-0.17,28.25,3.308638,-347.33548144273584,329.58504874645485,7.923869004469975,0.25889186931999236,-3.1746508935445803,0.427212909568808
5769196,1677.0,1,198057,248996,1.01,0.96,10.72,0.0,0.11,-0.06,28.25,3.348672,-236.1628040770665,255.3187375310704,10.810185012292806,0.12529964086141668,-2.1593979079324637,0.3318048078391438
5809144,1793.0,1,197702,250312,0.18,0.59,7.92,-0.01,-0.18,-0.16,28.25,3.38862,-118.82593829209478,209.2471626984324,7.943985146008267,0.241039415863879,-1.087852217630076,0.2726177898421114
5849175,1814.0,1,197737,249429,0.85,1.17,11.92,0.03,0.165,0.06,28.25,3.428651,-104.51809216763634,169.14604090738067,12.007406047935582,0.17811513130556877,-0.9571898656948431,0.22110086588693642
5889127,1598.5,1,197067,248627,0.56,0.16,8.83,-0.06,-0.06,0.28,28.25,3.468603,-298.26841721189885,121.71179660731995,8.849186403280248,0.2925747767665559,-2.726559828041808,0.16016325997131575
5929168,1598.5,1,197693,249757,0.56,0.34,11.92,0.07,0.165,0.09,28.25,3.508644,-294.3619695895317,65.27780904280266,11.937989780528378,0.20056171120131577,-2.6908853016588505,0.08766390543961107
5969134,1598.5,1,197333,249196,-0.01,1.84,10.44,-0.13,-0.15,0.13,28.25,3.54861,-315.6733389157801,-9.484498931770865,10.600910338268124,0.23727621035409344,-2.885505345438039,-0.008381391116130558
6009176,1598.5,1,197359,249601,0.42,-0.18,10.18,-0.1,-0.06,-0.01,28.25,3.588652,-249.97997406731093,-121.27267296020861,10.190250242265888,0.11704699910719625,-2.285579299059396,-0.15199290628815668
6049193,2106.5,1,197182,249008,0.83,0.8,10.79,-0.11,-0.03,-0.02,28.25,3.628669,173.33786069783017,-275.1756875444023,10.851405438928175,0.11575836902790225,1.580250919228418,-0.34970832033862603
6089176,2106.5,1,196893,249101,0.31,0.72,9.67,-0.08,-0.14,-0.35,28.25,3.668652,283.4408450579826,-443.2342900794399,9.701721496724177,0.38535697735995383,2.5857352364655943,-0.5656090697471488
6129176,2106.5,1,196813,247800,0.86,1.6,9.91,-0.14,-0.06,0.02,28.25,3.708652,182.53645063020386,-572.7868056466785,10.075102977141226,0.15362291495737218,1.6642544362215945,-0.7320419971713471
6169167,2079.0,1,196651,247919,1.06,0.34,9.39,-0.11,0.03,-0.09,28.25,3.748643,246.94728398600148,-615.6676734703991,9.45575486145871,0.1452583904633395,2.252468127029331,-0.7871299924228781
6209163,2106.5,1,196865,247901,0.82,1.34,8.88,-0.12,0.06,0.19,28.25,3.788639,220.9581063786862,-551.0825891977317,9.017893323831238,0.23259406699226012,2.015129324144852,-0.7041591246139876
6249144,2106.5,1,197292,247516,0.64,1.41,10.08,-0.04,0.14,0.33,28.25,3.82862,237.56124060270557,-386.67395730197296,10.198240044242928,0.3606937759374287,2.1667527444930936,-0.4929474026307353
6289144,2106.5,1,196888,247578,0.13,0.85,8.52,-0.13,-0.03,0.41,28.25,3.86862,279.60493851803994,-149.29647900123737,8.563282081071485,0.43116122274620194,2.550704906536629,-0.18799440001874862
6329168,2106.5,1,197393,248068,0.19,0.84,9.99,-0.09,0.11,0.34,28.25,3.908644,182.49331847817547,116.7910872879381,10.027053405662103,0.3685105154537656,1.6638605440606757,0.15384174584677365
6369144,1742.0,1,197725,248467,0.42,0.41,9.97,-0.06,-0.06,0.18,28.25,3.94862,-20.457027828723923,349.2131665801003,9.987261887023891,0.19899748742132398,-0.18952600649765985,0.45242866934450493
6409168,1685.0,1,197757,249659,1.16,0.68,10.18,-0.14,-0.12,0.12,28.25,3.988644,-288.3725605048188,484.3740059635351,10.268417599610954,0.22,-2.636188719734262,0.6260664723096028
6449167,1598.5,1,197846,248962,-0.36,1.43,11.2,-0.05,0.12,0.11,28.25,4.028643,-128.9980989018969,492.2144751849735,11.296658798069453,0.170293863659264,-1.1807465930642391,0.6361389301016404
6489168,2106.5,1,197520,249261,1.24,0.75,9.98,-0.08,-0.16,0.1,28.25,4.068644,130.76219092349922,399.5959500528174,10.084666578524052,0.20493901531919198,1.191440674867305,0.5171541909480725
6529164,1750.0,1,197393,248855,0.41,1.19,10.35,-0.14,-0.06,0.11,28.25,4.10864,-7.045878958835365,275.8299939272682,10.42625052451743,0.18788294228055935,-0.0670524882440865,0.35815511398503835
6569854,2033.0,1,197305,249312,0.53,0.12,10.43,-0.06,-0.03,0.0,27.93,4.14933,115.60971463435966,188.17734205634807,10.444146686062965,0.0670820393249937,1.0530649772004586,0.24554990996026616
6608163,2027.0,1,197304,249215,0.62,1.35,10.53,-0.02,-0.03,0.09,27.93,4.187639,194.02798918887763,162.38019136215536,10.634274775460712,0.09695359714832658,1.7691976570508976,0.2124089455379325
6648167,1791.0,1,197207,248890,0.09,0.8,10.78,-0.03,0.01,0.1,27.93,4.227643,-55.951559226617285,176.4929496097523,10.81001850137177,0.10488088481701517,-0.5136697604173827,0.23053925863060648
6688144,1757.0,1,197198,248378,0.38,0.95,10.2,-0.02,-0.06,0.06,27.93,4.26762,-132.88782965662196,187.06458673671295,10.251190174804094,0.08717797887081347,-1.2162684573886238,0.24412038059495175
6728173,1607.0,1,196949,248668,0.65,0.43,10.11,0.0,-0.04,-0.08,27.93,4.307649,-217.56363535790126,165.13622198609048,10.13999506903233,0.08944271909999159,-1.9895462679478795,0.21594955023251441
6768163,1680.0,1,197166,248929,0.63,1.61,9.79,-0.01,-0.1,-0.02,27.93,4.347639,-211.8097330205403,119.05228390638761,9.941483792674008,0.10246950765959599,-1.937000384684568,0.15674664947633637
6808176,1659.0,1,196867,248344,0.06,0.75,9.46,0.01,-0.03,0.07,27.93,4.387652,-193.58109817819982,92.24397511001763,9.489873550263988,0.07681145747868609,-1.7705325403738024,0.12230667513283511
6848144,1598.5,1,196864,248828,0.66,1.23,9.23,0.02,-0.07,0.14,27.93,4.42762,-266.0551811246995,136.2902516004023,9.334955811357652,0.157797338380595,-2.432381574097404,0.17889184220838805
6888145,1822.0,1,196972,248655,-0.17,1.1,10.47,0.06,0.12,0.18,27.93,4.467621,-68.98531511041551,272.61688886389715,10.528998052996307,0.22449944320643647,-0.6326968441246598,0.3540273170103759
6928207,1888.0,1,197061,249119,0.09,1.84,9.25,0.04,-0.12,0.23,27.93,4.507683,43.67650610118683,467.2809840265417,9.431659451019211,0.26248809496813374,0.3961553258501452,0.6041074878233204
6968145,1989.0,1,197273,249106,0.6,1.44,11.86,0.04,0.06,0.17,27.93,4.547621,71.09478720385232,639.9221162876006,11.962156996127412,0.1846618531261939,0.64654501160246,0.8258953003581032
7008125,1935.0,1,197214,249394,-0.02,1.66,9.92,-0.01,-0.16,0.16,27.93,4.587601,98.8561150573296,705.6363257641027,10.057952077833738,0.2264950330581225,0.9000674746361984,0.9103167275195454
7048176,1719.0,1,197141,249439,0.37,2.25,10.39,0.0,-0.16,0.16,27.93,4.627652,-217.7254597552927,623.0842588373941,10.637269386454403,0.2262741699796952,-1.9910240834191768,0.8042641194063542
7088145,1598.5,1,196791,249368,0.37,2.28,11.27,0.05,-0.07,0.02,27.93,4.667621,-238.77867282259663,415.7328516786432,11.504268772938156,0.08831760866327848,-2.183286588288101,0.5378848712083767
7128170,2106.5,1,196469,249141,0.78,1.51,10.91,-0.0,-0.13,-0.0,27.93,4.707646,164.20538051426334,152.71291453800885,11.04158503114476,0.13,1.4968511307901762,0.19998963299106223
7168173,2106.5,1,196155,248713,0.54,2.72,11.07,0.03,-0.14,-0.04,27.93,4.747649,248.63969664572107,-93.58896566080446,11.412050648327845,0.14866068747318506,2.2679236062566277,-0.11642832903837592
7208167,2106.5,1,195941,248385,0.46,1.6,10.75,0.0,-0.07,-0.04,27.93,4.787643,180.40718836127988,-279.9151566542411,10.878147820286319,0.0806225774829855,1.6448095516789123,-0.35579699962774136
7248163,2106.5,1,195920,247913,0.71,2.09,10.47,-0.01,-0.195,-0.11,27.93,4.827639,211.05574384613294,-394.45985233694046,10.700144858832521,0.22410934831014973,1.9246988032289922,-0.5029497503089216
7288176,2106.5,1,195774,246767,1.34,1.76,10.66,0.02,0.165,-0.11,27.93,4.867652,202.69539733473601,-440.39778640869025,10.8870932759851,0.1993113142799475,1.8483503068396385,-0.5619650833104104
7328145,2106.5,1,195572,246437,0.82,2.76,9.19,-0.05,-0.17,-0.02,27.93,4.907621,183.33164739431203,-429.76890413451065,9.630477662089248,0.1783255450012701,1.6715163454248285,-0.5483104199146945
7367175,2106.5,1,195708,246198,1.27,2.13,9.98,0.01,0.11,0.17,27.93,4.946651,201.74290908034564,-399.9724436241725,10.283491624929736,0.20273134932713294,1.839651977655305,-0.5100316406266051
7407125,2106.5,1,195695,245381,1.35,2.65,8.52,-0.03,-0.13,0.23,27.93,4.986601,189.30473554181646,-428.8906787950192,9.024156470274658,0.26589471600616665,1.7260638810133784,-0.5471821854412094
7447167,2106.5,1,194896,244989,0.97,2.89,8.84,0.02,-0.04,0.35,27.93,5.026643,167.4624031876707,-609.1533733434217,9.350860922931108,0.352845575287547,1.5265949677808675,-0.7787612314188512
7487144,2106.5,1,195436,246378,1.43,2.18,8.2,-0.09,-0.04,0.2,27.93,5.06662,221.9489655319156,-972.3433602757124,8.604493012374407,0.22293496809607954,2.02417806469401,-1.2453424666162891
7527167,2029.0,1,195148,245089,0.88,2.48,9.09,-0.03,-0.05,0.23,27.93,5.106643,47.127055406532016,-1415.2251203231378,9.463239403079688,0.23727621035409344,0.4276664899892515,-1.8143017608819294
7567164,1598.5,1,194005,242776,1.92,1.6,9.82,-0.09,0.12,0.33,27.93,5.14664,-263.4709657860726,-1714.8234160655463,10.133054820733973,0.3624913792078372,-2.408781959514264,-2.199188315908571
7607833,1706.0,1,193423,243540,1.84,1.92,9.23,0.04,-0.07,0.16,27.93,5.187309,-287.3759802345662,-1661.8692263602902,9.605461987848372,0.17916472867168917,-2.6270877327044357,-2.1311593720209627
7648145,1598.5,1,194947,247063,1.59,2.46,10.0,0.05,0.02,0.04,27.93,5.227621,-282.1377968358802,-1216.0872259947437,10.420158348125042,0.0670820393249937,-2.579251506567616,-1.558474210416776
7688128,1598.5,1,196314,248700,1.9,1.85,10.19,-0.1,-0.03,0.02,27.93,5.267604,-361.16056280089026,-536.9436067684038,10.529415938218035,0.1063014581273465,-3.3009045329980014,-0.6859951219606308
7728164,1598.5,1,196140,248075,1.42,2.38,10.4,-0.06,0.08,-0.11,27.93,5.30764,-334.3650290809312,138.69267827079167,10.762936402302117,0.14866068747318506,-3.0562019113207493,0.18197818060887513
7768168,1598.5,1,195897,249175,1.96,2.54,9.5,0.09,-0.12,-0.11,27.93,5.347644,-308.4613161449764,645.1840772489762,10.027123216556182,0.18601075237738274,-2.8196435903390102,0.8326552120661785
7808168,1598.5,1,197008,250639,2.0,2.8,11.41,0.07,-0.01,0.13,27.93,5.387644,-382.14155743497423,937.4447140615622,11.91755427929741,0.14798648586948743,-3.492507523481915,1.2081152573042329
7848144,1598.5,1,197397,250783,1.73,2.22,10.11,-0.03,-0.05,0.2,27.93,5.42762,-276.7736789774556,1049.0661472525703,10.494446150226318,0.2083266665599966,-2.530265219649041,1.3515125646272403
7888167,2055.0,1,197295,250274,1.12,2.19,10.54,-0.05,0.01,0.29,27.93,5.467643,64.14567962605405,1042.5726762940778,10.823220407993176,0.2944486372867091,0.5830842550310064,1.3431705623431935
7928144,2064.0,1,197008,250204,1.46,2.27,9.69,-0.05,-0.11,0.34,27.93,5.50762,180.938374635607,985.7006424848684,10.058856793890644,0.36083237105337435,1.6496604598670184,1.2701084605847595
7968167,2106.5,1,196759,250500,1.3,1.98,10.1,-0.03,-0.03,0.26,27.93,5.547643,143.2579195763875,930.1617854820303,10.374025255415566,0.2634387974463898,1.3055543772882319,1.1987590582493115
8008167,2106.5,1,197182,251394,1.35,2.07,10.23,-0.07,0.03,0.21,27.93,5.587643,193.23586065156655,887.4677042767629,10.524271946315336,0.22338307903688676,1.7619637675597917,1.1439110231681928
8048144,2106.5,1,197144,251110,1.02,2.19,9.01,-0.04,0.04,0.34,27.93,5.62762,180.39455839950483,832.090582658884,9.328268864049749,0.34467375879228174,1.6446942121305257,1.072769398300199
8088144,2106.5,1,197177,251802,1.65,2.18,10.75,0.07,0.08,0.44,27.93,5.66762,171.58454880409613,741.212855298579,11.092222500473023,0.452658811910251,1.5642392949966135,0.9560210191891523
8128125,2106.5,1,196738,251884,1.65,2.47,9.7,-0.04,-0.07,0.57,27.93,5.707601,201.29984448401405,629.7005283160705,10.144624192152216,0.5756735185849702,1.8356058157304183,0.8127638779262263
8168164,2093.0,1,197112,251699,1.24,2.37,10.39,0.02,0.03,0.37,27.93,5.74764,160.44336138377997,534.9719273391511,10.728774394123498,0.3717526059088221,1.462495556698978,0.6910683762807577
8208125,2032.0,1,196383,251166,1.73,2.91,9.4,-0.07,-0.13,0.32,27.93,5.787601,127.14423086849858,462.5050319416857,9.991045991286398,0.3524202037341219,1.1584006794772232,0.5979719397543386
8248167,2038.0,1,196975,251928,1.33,1.88,10.08,0.01,0.05,0.22,27.93,5.827643,125.79276486477082,355.0652984728572,10.33971469625734,0.22583179581272428,1.1460587990102733,0.45994675911929234
8288125,1981.0,1,196783,251502,1.97,2.18,10.02,0.03,-0.05,0.35,27.93,5.867601,68.98452700467824,134.3780465519772,10.44192032147344,0.3548238999842034,0.627273658079301,0.17643527945735796
8328144,1968.0,1,196338,251588,1.69,3.29,9.18,-0.03,-0.11,0.45,27.93,5.90762,76.35259768106967,-210.6000817875395,9.897100585525035,0.46421977553740645,0.6945604764744608,-0.26674962934564744
8367168,2064.0,1,196067,250275,1.87,3.22,10.95,0.02,0.08,0.43,27.93,5.946644,154.8436032219353,-574.9667648281171,11.565803041726069,0.4378355855797927,1.411357351456165,-0.7348425370654859
8407125,2019.0,1,195575,250734,2.26,3.16,9.57,-0.04,-0.15,0.37,27.93,5.986601,134.0137797730831,-790.9131924071573,10.328509088924694,0.4012480529547776,1.2211348890010965,-1.0122635964051163
8447162,1998.0,1,195837,250265,1.83,3.01,11.21,0.07,0.09,0.37,27.93,6.026638,107.10789096850417,-750.8001124985395,11.750451055172308,0.3871692136521188,0.9754244807723947,-0.9607313101506894
8487125,1966.0,1,196141,251484,1.36,3.11,10.45,-0.01,-0.04,0.35,27.93,6.066601,77.41635996164904,-496.20954410063916,10.987456484555468,0.35242020373412186,0.7042749841838277,-0.6336650744428872
8527163,1874.0,1,196636,252000,1.96,2.16,11.9,0.06,0.165,0.37,27.93,6.106639,3.8601034566931554,-192.6099526938181,12.252232449639536,0.40954242759450454,0.03254330697077054,-0.24363815338010889
8567152,1856.0,1,197114,253001,1.43,2.69,11.51,0.02,-0.05,0.43,27.93,6.146628,-30.324935688504187,-9.80007731724032,11.906347046848584,0.43335897360040904,-0.27964187987394434,-0.008786806899031538
8607144,1794.0,1,196221,251310,1.31,3.75,10.47,-0.03,0.03,0.5,27.93,6.18662,-68.29008318806416,-10.109981145511307,11.198191818324958,0.5017967716117752,-0.6263478355230371,-0.009184932717995949
8647833,1802.0,1,196706,252680,1.53,2.47,10.88,-0.08,-0.17,0.31,27.93,6.227309,-67.9687032865465,-131.21937402613523,11.26126991062731,0.3624913792078372,-0.6234129246055071,-0.1647711882795733
8686168,1773.0,1,196553,251271,1.96,2.23,11.04,-0.02,-0.05,0.17,27.93,6.265644,-95.2294857300174,-259.7190612330586,11.432239500640282,0.1783255450012701,-0.8723642984653119,-0.32985157302781304
8726168,1618.0,1,196505,252936,0.8,1.91,7.92,-0.15,-0.19,0.03,27.93,6.305644,-228.45822633907514,-321.5843201799933,8.186238452427341,0.24392621835300934,-2.0890380341151955,-0.40932834819742
8766184,1697.0,1,196662,249780,1.7,2.85,10.02,0.04,0.08,0.31,27.93,6.34566,-180.84879014925494,-324.5903008088797,10.555230930680768,0.32264531609803354,-1.6542583438137832,-0.41319005751009125
8806125,1835.0,1,195963,251658,-0.11,1.74,7.92,-0.15,0.08,0.61,27.93,6.385601,7.786552699674442,-339.6238773259372,8.109630077876549,0.6332456079595026,0.06840049248838935,-0.43250332316482853
8846163,1829.0,1,196725,250791,2.67,2.77,9.52,0.09,0.165,0.42,27.93,6.425639,-52.64936619243772,-443.1037505740254,10.268018309294154,0.460135849505339,-0.48351341790175634,-0.5654413688581655
8886126,1621.0,1,196025,249982,1.0,3.49,9.66,-0.08,-0.13,0.6950000000000001,27.93,6.465602,-198.9523168804114,-652.5329645732794,10.319675382491447,0.7115651762136762,-1.8195836737368987,-0.8344899243526691
8926163,1688.0,1,195822,248500,1.36,1.91,9.38,0.01,0.165,0.56,27.93,6.505639,-187.15235124788583,-891.0325671085909,9.668614171638042,0.5838878316937253,-1.7118238300197461,-1.1408844923443506
8966125,1598.5,1,195906,249599,1.72,1.29,11.02,0.04,0.05,0.48,27.93,6.545601,-226.76767601156237,-1010.2053096671498,11.227773599427449,0.48425200051213,-2.073599562109259,-1.2939827809136466
9006123,1598.5,1,195495,248476,0.96,1.97,8.74,-0.03,0.06,0.41,27.93,6.585599,-264.35471929999574,-868.6615734724938,9.01055492186802,0.4154515615568197,-2.416852588150871,-1.112145027549386
9046144,1669.0,1,196399,249980,0.68,2.76,10.82,0.02,-0.05,0.38,27.93,6.62562,-165.23831102022956,-421.35372335192494,11.187153346584644,0.38379682124790976,-1.5117000649441519,-0.5374996443283054
9086144,1773.0,1,196815,252768,1.66,2.33,10.31,-0.07,-0.195,0.38,27.93,6.66562,-81.94391577548892,239.20358948916285,10.699560738647172,0.4328105821257147,-0.7510375940851681,0.3111020738725695
9126168,1802.0,1,197636,254060,1.51,2.81,10.58,-0.01,-0.0,0.4,27.93,6.705644,-36.976957337852696,917.1356563530206,11.05045700412431,0.4001249804748512,-0.3403895833554746,1.182024710834641
9166164,1867.0,1,197936,254019,1.24,3.5,10.11,-0.05,-0.07,0.39,27.93,6.74564,13.928382432305185,1398.3224875105498,10.77031568710964,0.39937451095431714,0.12448901280588408,1.800193586960834
9206167,1962.0,1,197785,254608,2.56,2.41,11.91,-0.09,-0.1,0.39,27.93,6.785643,118.2123008168499,1535.2523243157505,12.418123851854595,0.4125530268947254,1.076832358311512,1.9761039773644795
9246167,2074.0,1,197803,254362,1.32,2.38,10.6,-0.02,-0.03,0.4,27.93,6.825643,225.8977368754769,1296.1149404037615,10.943801898791845,0.4016217125604641,2.0602391004722866,1.6688900673390883
9286168,2064.0,1,197259,251702,0.98,1.9,10.83,0.03,0.08,0.41,27.93,6.865644,206.8113785373558,772.5549940391708,11.03898999003079,0.41880783182743847,1.8859383392924174,0.9962854932481274
9326125,1968.0,1,196311,251191,1.57,2.01,9.87,-0.08,-0.15,0.47,27.93,6.905601,132.6920880791191,151.83344457506,10.194209140487553,0.499799959983992,1.2090649139842848,0.1988597995804616
9366167,1989.0,1,195895,250740,1.15,2.51,9.99,-0.03,-0.01,0.41,27.93,6.945643,113.48823288228162,-343.7873537656945,10.364492269281694,0.4112177038990417,1.0336911460239866,-0.437852038850483
9407167,1975.0,1,195810,250495,1.41,3.29,9.08,-0.02,-0.08,0.39,27.93,6.986643,149.0143062581853,-540.8993472015162,9.760051229373747,0.398622628559895,1.358122948123405,-0.6910769643125956
9447167,2006.0,1,195566,249842,1.63,1.77,8.69,-0.1,-0.01,0.38,27.93,7.026643,125.28093466028089,-393.3825084027362,9.016978429607114,0.3930648801406709,1.1413846546472148,-0.5015657130787124
9487167,1955.0,1,195746,250395,1.17,3.5,8.48,-0.04,-0.08,0.36,27.93,7.066643,116.43395332964704,-12.778858717879045,9.248205231286772,0.3709447398198282,1.0605921036138588,-0.012613574032763884
9527168,1969.0,1,196300,252988,2.59,3.22,9.08,0.09,-0.05,0.4,27.93,7.106644,109.65363730180357,382.7951265342088,9.976116478870923,0.4130375285612677,0.9986727880609934,0.4955705865765457
9567145,1763.0,1,197237,252329,1.39,3.81,10.0,0.01,0.12,0.51,27.93,7.146621,-111.05300318186376,590.0779170681293,10.791116717003852,0.5240229002629561,-1.0168680894735274,0.7618616846858084
9607126,1629.0,1,195650,248745,1.53,1.48,9.34,-0.06,0.04,0.64,27.93,7.186602,-196.35181773591384,540.4094600613319,9.579504162533674,0.6440496875241848,-1.7958353519091454,0.6980538407077121
9647144,1837.0,1,196163,251034,1.28,1.7,11.42,0.0,0.09,0.47,27.93,7.22662,-67.49671005036413,331.6040766344409,11.61657436596521,0.4785394445602159,-0.6191025800714206,0.42980670499205637
9687813,1776.0,1,195684,250123,1.0,1.6,8.93,-0.09,-0.1,0.56,27.85,7.267289,-36.512279445243244,151.93478486458835,9.127151801082308,0.5759340239992773,-0.3361460441244461,0.19898998895562245
9726163,1906.0,1,196032,250781,1.24,1.1,11.59,0.04,0.165,0.44,27.85,7.305639,4.965107823947532,158.63932017845005,11.707933207872344,0.47161955006127554,0.04263444635459066,0.20760314042102787
9766126,1861.0,1,195932,250402,1.29,1.52,11.42,-0.06,-0.01,0.5,27.85,7.345602,26.600396816939124,388.86271359931493,11.592708915520998,0.5036864103785211,0.24021259473782525,0.5033654663071727
9806163,1916.0,1,195821,251931,0.94,1.57,10.09,-0.08,-0.11,0.46,27.85,7.385639,45.550048801170234,739.229565403613,10.254589216541051,0.47968739820845824,0.4132649238638143,0.9534731354857385
9846168,1925.0,1,196582,252160,1.17,1.19,11.92,-0.01,0.05,0.2,27.85,7.425644,58.42032773798853,1014.417569732601,12.036253569944428,0.20639767440550294,0.5307991006587733,1.3070003900663396
9886145,1856.0,1,196271,252303,1.54,1.17,9.74,-0.08,-0.195,0.37,27.85,7.465621,9.29593516966601,1027.5845541255942,9.930161126588027,0.4258227330709341,0.08218450035256214,1.3239156907710736
9926168,1963.0,1,196356,251228,1.18,0.83,11.31,-0.02,0.09,0.31,27.85,7.505644,85.2681705570062,708.3149993380679,11.401640232878778,0.3234192325759246,0.775979420366264,0.9137579535164075
9966144,1978.0,1,195162,248791,1.18,0.57,9.35,-0.09,-0.13,0.45,27.85,7.54562,128.3402195918109,148.85567656930613,9.441387609880234,0.47696960070847283,1.1693227077207942,0.19503433433019002
10006168,1965.0,1,194723,247596,1.16,0.77,10.89,-0.01,0.14,0.39,27.85,7.585644,99.799680174309,-454.45024865530604,10.978642903382914,0.4144876355212541,0.9086843157956666,-0.5800179356149914
10046145,2019.0,1,193895,246385,0.72,0.85,7.98,-0.1,-0.19,0.43,27.85,7.625621,151.2658507716363,-927.7456278836846,8.057375503226842,0.4806245936279166,1.3786845406269388,-1.188048857719642
10086168,2037.0,1,194196,246758,1.57,-0.35,10.76,0.0,0.165,0.37,27.85,7.665644,187.4245014577851,-1215.6603294988029,10.879568006129654,0.40512343797909295,1.7088931758302721,-1.5579257869977825
10126144,2106.5,1,193631,246009,0.92,0.06,8.08,-0.1,-0.16,0.52,27.85,7.70562,225.5708549807004,-1373.524992998374,8.132428911463045,0.5531726674375733,2.0572539441597977,-1.7607306338819275
10166167,2032.0,1,193647,245295,0.57,0.56,8.72,-0.03,0.165,0.45,27.85,7.745643,186.52410340623248,-1476.2462285855709,8.756534702723448,0.4802343178074637,1.7006705456684441,-1.8926940764484663
10206145,1951.0,1,193550,245108,1.26,-0.5,9.62,-0.04,-0.04,0.46,27.85,7.785621,67.25204435815048,-1535.2478900207245,9.71503988669115,0.46346520905025873,0.6114522510475797,-1.9684920583907584
10246176,1871.0,1,193338,244023,0.74,-0.32,9.21,-0.05,0.01,0.33,27.85,7.825652,18.793213116687184,-1497.5575789908416,9.245220386772834,0.33391615714128003,0.1689157010340607,-1.9200722436710953
10286167,1774.0,1,193342,245271,0.7,0.43,9.34,-0.04,-0.05,0.33,27.85,7.865643,-106.92639205587884,-1317.4899301895741,9.37605994008144,0.33615472627943227,-0.9791829822566158,-1.6887437681631596
10326167,1598.5,1,194177,247018,0.73,-0.6,10.18,-0.05,-0.02,0.27,27.85,7.905643,-266.51856315046143,-1022.412124864704,10.22376153869015,0.2753179979587241,-2.436613279191511,-1.3096645758904544
10366173,1598.5,1,194214,247743,0.85,-0.53,10.03,-0.05,-0.06,0.27,27.85,7.945649,-278.9362159202997,-704.643009629278,10.079895832795097,0.2810693864511039,-2.550013975726017,-0.9014344163905368
10406176,1598.5,1,194622,248067,0.36,0.08,9.81,-0.06,-0.12,0.25,27.85,7.985652,-279.80669204033256,-449.6401474976048,9.816929255118426,0.28372521918222215,-2.5579633523238354,-0.5738385170728076
10446169,1598.5,1,194367,248259,1.03,-0.33,10.07,-0.06,-0.17,0.23,27.85,8.025645,-282.80534323517276,-274.2795285152407,10.127916863797807,0.29223278392404917,-2.5853476849720205,-0.3485570468955135
10486181,1598.5,1,194710,249397,1.15,-0.26,11.01,-0.02,-0.03,0.06,27.85,8.065657,-283.7707892159266,-132.74447306342134,11.072949020021722,0.06999999999999999,-2.594164346922003,-0.16673044546787247
10526178,1598.5,1,194820,249675,0.83,0.16,9.56,-0.02,-0.11,-0.01,27.85,8.105654,-302.5431782859506,24.3128472738841,9.597296494325889,0.11224972160321824,-2.765597872694942,0.035037227530891175
10566181,1598.5,1,195053,249867,1.24,0.04,10.56,0.01,-0.0,0.07,27.85,8.145657,-275.13685117192455,199.42050384101324,10.632629025786613,0.07071067811865477,-2.515317353357827,0.25999372312076413
10606148,1598.5,1,195171,250020,0.91,0.02,9.65,-0.0,-0.03,0.13,27.85,8.185624,-331.9781760042769,350.52502384800107,9.692832403379313,0.13341664064126335,-3.0344046516908483,0.45411398008126264
10646168,1600.0,1,195220,249920,1.0,0.66,10.05,0.01,0.01,0.2,27.85,8.225644,-267.1490726946386,435.58243165581797,10.121170880881323,0.20049937655763422,-2.4423712290075192,0.5633851379479086
10686128,1978.0,1,195054,250053,1.46,0.2,9.87,0.0,-0.05,0.22,27.85,8.265604,28.991720445173485,455.34158712845493,9.979403789806282,0.22561028345356957,0.26205068041371676,0.588769238552532
10726836,2029.0,1,195174,250483,1.34,-0.15,11.0,-0.01,0.05,0.23,27.95,8.306312,148.50527448366842,459.9579210649781,11.082332786918105,0.23558437978779492,1.3534743596294008,0.5946997291158317
10765168,2106.5,1,195120,250427,0.76,0.87,9.22,-0.0,-0.05,0.22,27.95,8.344644,159.487064713921,518.6566442449189,9.292088032299308,0.22561028345356957,1.4537624482391374,0.6701085337393885
10805168,2106.5,1,195267,250969,1.19,0.26,10.35,0.02,0.04,0.22,27.95,8.384644,196.81678590843615,675.8615706382909,10.42142984431599,0.22449944320643647,1.7946655531463045,0.8720658326046137
10845128,2106.5,1,195502,251148,1.03,-0.23,10.24,-0.01,0.0,0.22,27.95,8.424604,168.51535426293918,918.603395079885,10.294241108503337,0.2202271554554524,1.5362107452200815,1.183910278644238
10885168,2106.5,1,195583,251319,0.66,0.43,9.6,0.03,-0.0,0.22,27.95,8.464644,171.04160726126372,1169.1212639944026,9.632263493073681,0.22203603311174516,1.5592810351486441,1.505744417587492
10925181,2106.5,1,195675,251240,0.87,0.39,10.11,0.0,0.02,0.21,27.95,8.504657,169.17413828145098,1307.7899195230018,10.154855981253501,0.21095023109728983,1.5422269036640104,1.683888625598832
10965129,2106.5,1,195286,250275,1.08,-0.02,10.26,0.0,-0.02,0.21,27.95,8.544605,157.63646559602734,1226.0143683246733,10.316704900306105,0.21095023109728983,1.4368623759899746,1.5788335881256192
11005168,2106.5,1,195461,249834,0.51,0.3,10.29,0.02,0.05,0.21,27.95,8.584644,162.40294805275929,895.7014375242262,10.306997622974402,0.21679483388678797,1.4803909268869528,1.1544886975730873
11045127,2106.5,1,194413,248197,0.88,0.64,10.63,-0.02,-0.06,0.33,27.95,8.624603,150.67765391290104,417.9284168153497,10.68554631265992,0.3360059523282289,1.3733129994253677,0.5407054596890605
11085168,2106.5,1,194247,247366,0.77,-0.84,10.97,-0.01,0.01,0.25,27.95,8.664644,156.61719670177362,1.708029424014856,11.02902534225033,0.2503996805109783,1.427554191528167,0.005997374524780206
11125168,2106.5,1,193414,246279,1.07,1.15,10.44,-0.03,-0.17,0.18,27.95,8.704644,145.65424890326798,-142.76311963372856,10.557509175937286,0.24939927826679853,1.3274381760891103,-0.17960115407761174
11165168,2106.5,1,193850,248803,1.24,0.33,10.46,-0.05,-0.15,0.1,27.95,8.744644,151.74362889344766,59.13439901457926,10.538410696115426,0.18708286933869708,1.3830477139904231,0.07977161781487765
11205168,2106.5,1,194002,248508,1.08,0.65,9.41,-0.05,-0.17,-0.04,27.95,8.784644,148.15440345112796,480.59857425579065,9.494050768770936,0.1816590212458495,1.3502701293113721,0.6212162681382764
11245176,2106.5,1,194803,249077,1.45,-0.18,10.44,0.03,0.09,0.0,27.95,8.824652,141.21812830032042,860.3898969766063,10.541750329048776,0.09486832980505137,1.2869265612445377,1.1091248307313937
11285145,2106.5,1,194273,247651,1.28,0.13,9.22,-0.03,-0.04,0.18,27.95,8.864621,161.91275801469692,961.4556724567966,9.309334025589585,0.18681541692269404,1.4759144052140674,1.2389615444525934
11325168,1959.0,1,193742,245750,0.89,-0.28,9.28,-0.03,0.09,0.28,27.95,8.904644,-18.76670447636352,706.241158160385,9.326784011651604,0.2956349099818897,-0.17408960727801018,0.9110937408092797
11365168,1760.0,1,193126,244656,0.83,-0.63,9.19,-0.04,0.09,0.28,27.95,8.944644,-171.23593386551246,199.32255089468597,9.248886419456127,0.2968164415931166,-1.5664716567105408,0.25986788538202404
11405168,1904.0,1,192946,243635,0.74,0.37,9.03,-0.02,0.02,0.17,27.95,8.984644,-71.77466655901621,-359.8595819228695,9.067822230282196,0.17233687939614087,-0.6581698061259136,-0.45849963469774346
11445146,1850.0,1,191868,241595,1.19,0.25,8.74,-0.06,-0.11,0.15,27.95,9.024622,-83.30892970274003,-803.4402693642853,8.824182681699195,0.19544820285692063,-0.763503197126152,-1.0283568237802416
11485168,1853.0,1,191346,240402,1.23,-0.26,9.38,-0.07,-0.02,0.13,27.95,9.064644,-99.50677378411403,-1084.4060953736264,9.463873414199918,0.1489966442575134,-0.9114254200479216,-1.3893067036351248
11525180,1901.0,1,190892,239670,0.84,-0.49,9.12,-0.11,-0.09,0.07,27.95,9.104656,-46.148292516074335,-1278.687232125746,9.171701041791538,0.1584297951775486,-0.42414420402645525,-1.6388948972057416
11565177,1685.0,1,190920,239656,1.05,0.05,8.84,-0.08,0.05,0.09,27.95,9.144653,-235.98575545290257,-1490.2601632364326,8.902280606676023,0.130384048104053,-2.157781061522534,-1.9106974332992548
11605146,1598.5,1,190817,238645,1.03,-0.91,9.79,-0.05,0.165,0.17,27.95,9.184622,-358.10663641191263,-1715.9472980301452,9.886005259962184,0.24212600025606504,-3.2730154152964372,-2.200632139400754
11645167,1764.0,1,190109,237060,1.08,-0.57,9.58,-0.06,0.03,0.38,27.95,9.224643,-132.48446659720088,-1787.3829244715623,9.657520385689072,0.38587562763149474,-1.2125848585038375,-2.2924037300871265
11685168,2010.0,1,190009,236540,0.75,-0.48,10.16,-0.03,0.165,0.26,27.95,9.264644,58.64276329307113,-1477.0043124311537,10.198946023977184,0.3093945700880997,0.5328304303591556,-1.8936679681023714
11725167,1937.0,1,190302,238984,0.66,-1.03,10.16,-0.1,0.0,0.17,27.95,9.304643,51.56893596210884,-711.8236315490858,10.233381650265956,0.1972308292331602,0.46823070596966443,-0.9106591845982966
11765854,1978.0,1,191989,241963,0.88,-0.99,10.84,-0.06,0.09,0.07,27.87,9.34533,48.2554056981903,292.62367954331,10.920627271361292,0.12884098726725127,0.43797082941479576,0.3797295484688586
11806163,1946.0,1,192660,243452,0.39,-0.44,9.54,-0.11,-0.15,0.15,27.87,9.385639,59.56886342277536,1127.3336572584676,9.558101275881103,0.2389560629069704,0.5412877774694117,1.4520609079415274
11846224,1893.0,1,192818,242650,0.52,-0.62,10.64,-0.07,0.165,0.16,27.87,9.4257,-4.831693718169774,1460.8421032817903,10.67072631080003,0.24026027553467927,-0.04683206871699319,1.8805109982336643
11886167,1810.0,1,191967,241187,0.58,-1.23,10.53,-0.08,-0.03,0.27,27.87,9.465643,-80.52299495219569,1262.7190891951873,10.6174479042753,0.2831960451701259,-0.7380614371520945,1.6259872394308088
11926176,1786.0,1,191402,240025,0.55,-1.15,11.0,-0.05,0.14,0.19,27.87,9.505652,-81.88122073672885,794.6801931157099,11.073617295175051,0.24124676163629638,-0.7504650494024951,1.0247091918234006
11966167,1807.0,1,190742,238625,0.02,-0.97,10.27,-0.09,0.03,0.14,27.87,9.545643,-78.53040918067309,393.0233265455559,10.315725859094938,0.16911534525287764,-0.7198647120073671,0.5087105033332003
12004167,1781.0,1,190976,239380,0.47,-1.81,11.08,-0.01,0.165,-0.04,27.87,9.583643,-70.03446344972386,237.19490851145983,11.236698803474265,0.1700735135169495,-0.642277894154869,0.3085215708702414
12044181,1891.0,1,191000,238335,-0.34,-1.11,10.17,-0.04,0.0,-0.02,27.87,9.623657,25.710416352695308,280.2749146690718,10.236044157778922,0.044721359549995794,0.23208510024124118,0.36386539423693326
12084196,1949.0,1,190493,237980,-0.02,-0.55,9.98,-0.03,0.04,0.09,27.87,9.663672,101.09159958425052,353.1470453705546,9.995163830573263,0.10295630140987,0.9204824038618482,0.45748242658233695
12124173,1921.0,1,190445,237369,0.12,-1.2,10.56,-0.06,0.04,0.09,27.87,9.703649,84.3295154332194,317.05412054020417,10.628640552770614,0.11532562594670795,0.7674074183288376,0.41111473458874487
12164167,1807.0,1,189937,236950,0.24,-1.2,10.06,-0.06,-0.07,0.13,27.87,9.743643,-39.945953335728014,141.74159138922977,10.134160053995595,0.15937377450509227,-0.3675030983174176,0.18589504423396105
12204176,1598.5,1,190223,236235,-0.29,-0.87,9.9,-0.04,0.08,0.1,27.87,9.783652,-215.43719082402913,-115.05906429143415,9.942384019942098,0.1341640786499874,-1.9701271155724154,-0.14401043619805814
12244176,1629.0,1,189270,235055,0.02,-1.05,9.75,-0.07,-0.11,0.07,27.87,9.823652,-207.57318122590843,-372.8796376187907,9.80639587208267,0.14798648586948743,-1.898311275452693,-0.47522617972244124
12284176,1791.0,1,189357,234727,0.34,-1.38,9.49,-0.05,-0.12,0.04,27.87,9.863652,-12.939604248989047,-579.7239359994413,9.595837639310078,0.13601470508735444,-0.12087526501795896,-0.7409539577572019
12324176,1980.0,1,189086,233434,0.17,-0.62,9.37,-0.03,-0.07,0.02,27.87,9.903652,162.66268550406136,-725.6093372636656,9.39202853487999,0.07874007874011811,1.4827629055885394,-0.9283693413531857
12364173,2019.0,1,188674,232909,0.34,-0.42,9.44,-0.01,-0.06,0.08,27.87,9.943649,218.02573548024418,-824.6904749926174,9.455453452902193,0.1004987562112089,1.9883502775291704,-1.0556564398132002
12404176,2014.0,1,188939,233510,0.33,-1.46,10.01,-0.02,0.06,0.07,27.87,9.983652,215.30235921964325,-885.1618760183634,10.12129438362505,0.09433981132056604,1.9634798152443962,-1.1333425600254632
12444167,2006.0,1,188699,233154,0.15,-0.7,9.37,-0.02,-0.17,0.09,27.87,10.023643,209.4459119083733,-889.0886400030593,9.397308125202663,0.19339079605813717,1.9099974690534338,-1.1383871770474896
12484176,1954.0,1,188972,233863,0.42,-1.08,10.0,0.01,0.01,0.07,27.87,10.063652,167.53288160240393,-800.2202738128183,10.066916111699749,0.07141428428542851,1.5272385919399203,-1.0242201747651525
12524156,1966.0,1,188819,233718,0.52,-1.19,9.84,-0.03,-0.12,0.06,27.87,10.103632,175.5369381737191,-601.1686041947607,9.925326191113317,0.1374772708486752,1.6003333713730674,-0.7685033950626877
12564176,1954.0,1,189142,234744,0.74,-1.05,10.49,0.05,0.1,0.07,27.87,10.143652,177.00045130257246,-331.75533350629956,10.568358434496817,0.1319090595827292,1.6136984904721035,-0.42239479862762497
12604144,1872.0,1,189357,235655,0.06,-0.23,9.55,-0.01,-0.16,0.06,27.87,10.18362,83.0309868405622,-81.82896806589069,9.552957657186596,0.1711724276862369,0.7555489737736019,-0.10132054963592035
12644176,1809.0,1,189932,236484,0.66,-1.0,10.61,0.03,0.03,0.06,27.87,10.223652,42.77582455329399,80.58574704354203,10.67743883148014,0.07348469228349534,0.38793010673829237,0.10732963653820086
12684144,1797.0,1,189980,237213,0.54,-0.63,10.05,-0.01,-0.195,0.05,27.87,10.26362,4.815453525857453,195.48392948933883,10.084195555422356,0.20155644370746376,0.04126777086789813,0.25493650296179204
12724176,1699.0,1,189986,236727,0.5,-0.24,9.97,0.02,-0.1,0.06,27.87,10.303652,-60.64832612562553,416.05479886335553,9.985414362959606,0.11832159566199232,-0.5565616537308632,0.5382984688308777
12764164,1703.0,1,190283,238915,0.7,-0.68,10.01,0.01,-0.07,0.06,27.87,10.34364,-89.24872003580322,886.2582035152586,10.057459917891793,0.09273618495495704,-0.8177466498561535,1.1423572073153891
12804854,1600.0,1,191176,241445,1.07,-0.74,10.75,0.02,-0.05,0.05,27.99,10.38433,-164.22542402398835,1566.9147131232123,10.828434789940788,0.07348469228349536,-1.5024501613582268,2.0167798688004437
12845164,1598.5,1,191903,243242,0.55,-0.22,9.99,0.01,-0.02,-0.01,27.99,10.42464,-189.01975538684664,2167.922368760549,10.007547152024815,0.024494897427831782,-1.7288773693636663,2.788879608385675
12885176,1598.5,1,191777,242874,0.63,-0.16,10.03,0.01,-0.05,0.06,27.99,10.464652,-176.98276343680828,2287.476151799073,10.051039747210234,0.07874007874011811,-1.6189529499411723,2.9424674102791237
12925163,1598.5,1,192255,242261,0.9,-0.68,10.06,0.02,0.01,0.02,27.99,10.504639,-188.42446471204062,1692.314114500591,10.12304302075221,0.03,-1.7234410458962017,2.177877392666333
12965145,1705.0,1,190346,235723,0.0,0.18,9.3,0.02,-0.12,0.11,27.99,10.544621,-79.22997952052957,532.0396993049737,9.301741772377902,0.16401219466856726,-0.7262533399779686,0.6873014151108671
13005144,1794.0,1,188774,233251,0.25,-0.11,9.14,0.01,-0.09,0.58,27.99,10.58462,-1.5653303550615283,-702.2491656602865,9.144080052143027,0.5870264048575669,-0.017002930523423554,-0.8983591039752464
13045168,1771.0,1,188352,232989,1.53,-0.42,9.41,-0.03,-0.03,0.51,27.99,10.624644,-19.788357384821968,-1476.1945012984536,9.542819289916372,0.5117616632769595,-0.18341956307425375,-1.8926276236761297
13085176,1840.0,1,188454,234107,1.62,-0.13,9.23,0.01,-0.05,0.14,27.99,10.664652,31.791565643646116,-1554.5216511206413,9.371990183520253,0.1489966442575134,0.28761947361324874,-1.9932525847941913
13125168,1858.0,1,189024,236552,0.99,-0.09,8.76,-0.01,-0.11,-0.1,27.99,10.704644,57.23897900565255,-1129.638279255581,8.816223681372882,0.1489966442575134,0.520010767985915,-1.4474153767419482
13165193,1858.0,1,189806,237855,1.17,0.07,9.29,0.01,-0.02,-0.12,27.99,10.744669,37.161616228437026,-648.7154646507817,9.363647793461691,0.12206555615733702,0.3366599394748783,-0.8295856761814848
13205168,1834.0,1,189606,237180,1.31,-0.29,9.65,0.02,-0.0,-0.12,27.99,10.784644,20.460526571449993,-483.28752712641216,9.74282813150268,0.1216552506059644,0.184141968881613,-0.6170644773504319
13245176,1813.0,1,189491,236746,1.21,0.44,9.6,0.04,0.01,0.02,27.99,10.824652,-22.480431852849254,-685.2923187455459,9.685953747566629,0.045825756949558406,-0.20800417060479848,-0.8765750601876943
13285125,1787.0,1,189222,237012,0.86,0.07,9.42,0.02,0.03,0.1,27.99,10.864601,-39.11537317094782,-983.2604561747686,9.459434443982367,0.1063014581273465,-0.3599180602301394,-1.2593673909606384
13325123,1770.0,1,189368,237326,1.23,0.27,10.07,0.01,0.13,0.17,27.99,10.904599,-81.1871866257029,-991.3274020603254,10.148433376635037,0.21424285285628553,-0.7441269794735134,-1.2697307977476644
13365125,1697.0,1,190119,239811,1.06,0.08,10.1,0.01,0.165,0.11,27.99,10.944601,-144.30420261957153,-476.2839576435105,10.155786527886454,0.1985572965166478,-1.3205252497061506,-0.6080671640496867
13405123,1703.0,1,190964,242322,0.65,0.5,9.83,-0.01,0.09,0.09,27.99,10.984599,-158.79444145399378,478.2264897291014,9.86414720084813,0.12767145334803703,-1.4528532514011312,0.6181689095428375
13445145,1691.0,1,191911,244221,1.14,0.11,10.65,-0.01,0.1,0.09,27.99,11.024621,-171.67298516213287,1490.8286419957492,10.711405136582222,0.13490737563232041,-1.5704629038791238,1.9190339663105984
13485173,1710.0,1,192649,245459,1.08,-0.09,10.45,-0.05,-0.02,0.09,27.99,11.064649,-155.87136358779483,2068.8023481210134,10.50604587844542,0.10488088481701516,-1.4261590707700942,2.6615425580076533
13523193,1766.0,1,192519,244281,1.01,0.59,10.07,-0.04,-0.07,0.07,27.99,11.102669,-118.98614133486407,1871.8900319036466,10.137706841293054,0.10677078252031312,-1.0893152265395465,2.4085741529524336
13563164,1795.0,1,191971,242550,0.94,0.17,9.83,-0.06,-0.14,0.08,27.99,11.14264,-76.06628746414333,920.9458956265813,9.876304977065056,0.17204650534085253,-0.6973618184106799,1.1869196314288786
13603168,1870.0,1,190418,236625,1.5,0.18,10.27,-0.05,-0.14,0.08,27.99,11.182644,-27.814834872453044,-374.6821868702225,10.380525034891058,0.16881943016134132,-0.2567190951747761,-0.47754187037058143
13643167,1872.0,1,189107,235221,0.94,0.1,9.11,-0.06,-0.09,0.08,27.99,11.222643,-11.785068095274697,-1413.7170636537749,9.15891369104437,0.1345362404707371,-0.11033179062451426,-1.8123643976041517
13683167,1984.0,1,188961,235425,0.99,0.67,9.35,-0.02,0.02,0.02,27.99,11.262643,85.32796956186094,-1725.5397336206693,9.42610736200262,0.034641016151377546,0.7765255178396182,-2.212955305257232
13723145,2106.5,1,189726,238976,1.36,0.29,9.74,-0.03,0.02,0.03,27.99,11.302621,207.5314805188872,-1220.785944889064,9.838765166422055,0.04690415759823429,1.8925144666648857,-1.5645105389072038
13763145,2106.5,1,191101,241813,1.21,0.01,9.87,-0.06,0.06,0.1,27.99,11.342621,210.51007862723634,-212.50882732267746,9.943897626182602,0.13114877048604,1.9197156701808666,-0.26920174774512384
13803145,2106.5,1,191891,243202,0.75,0.36,9.28,-0.05,0.02,0.11,27.99,11.382621,200.4548567841773,785.756781241897,9.317215249204024,0.1224744871391589,1.8278892049102702,1.0132455042657498
13843834,2106.5,1,192108,242804,0.74,0.06,9.63,-0.03,0.12,0.12,28.43,11.42331,209.53672503449687,1332.9842090140623,9.658576499671161,0.17233687939614084,1.9108267942043113,1.7162551090747444
13884147,2106.5,1,191921,243474,1.05,0.2,9.73,-0.04,0.05,0.14,28.43,11.463623,204.4359787906447,1245.4648564684996,9.788534108843878,0.15394804318340652,1.8642456739539874,1.603821151411695
13924147,2106.5,1,192089,242687,0.93,0.16,10.08,-0.03,0.14,0.15,28.43,11.503623,207.40280918882382,636.7331433480487,10.124075266413225,0.20736441353327723,1.8913394121901261,0.8217985053288264
13964146,2106.5,1,191128,240356,0.6,0.43,9.89,-0.08,-0.1,0.22,28.43,11.543622,213.7235674860063,-158.25995155450042,9.917509768081906,0.2545584412271571,1.9490619469406358,-0.199509552545075
14004168,2096.0,1,190520,239349,1.1,-0.53,10.23,-0.06,0.02,0.13,28.43,11.583644,200.22497123809208,-735.4886619300628,10.302611319466536,0.14456832294800961,1.825789840277318,-0.9410610665427998
14044168,2020.0,1,190036,239267,1.14,0.14,9.82,-0.08,-0.1,0.13,28.43,11.623644,136.2174564575534,-814.65311052363,9.886940881789473,0.1824828759089466,1.2412593421153575,-1.0427616847798238
14084168,1967.0,1,190521,241621,0.57,0.17,9.12,-0.05,-0.02,0.12,28.43,11.663644,82.3413667154966,-394.42974540603353,9.139376346337862,0.13152946437965904,0.7492512133211108,-0.5029110726759582
14124167,1941.0,1,191485,243240,0.87,0.16,10.15,-0.03,0.04,0.12,28.43,11.703643,65.72275880876681,239.99324223474392,10.188473879831072,0.13,0.5974864839485434,0.31211652131513884
14164147,1872.0,1,192257,245640,1.41,-0.1,10.14,-0.04,-0.03,0.12,28.43,11.743623,3.2957242243014204,696.3111177322062,10.238051572442874,0.13,0.027389273495274476,0.898336862329026
14204178,1786.0,1,192460,243481,0.72,-0.02,9.87,-0.06,-0.04,0.12,28.43,11.783654,-78.56177954329357,728.1245382990047,9.896246763293647,0.13999999999999999,-0.7201511929581265,0.9392067805481087
14244178,1755.0,1,191023,240172,1.07,-0.06,10.09,-0.04,-0.03,0.12,28.43,11.823654,-96.79968754132003,364.99492180743226,10.1467531752773,0.13,-0.8867037217365089,0.47270310176966135
14284175,1764.0,1,190606,239516,1.1,-0.75,10.31,-0.05,-0.01,0.11,28.43,11.863651,-86.0648079318179,-176.60593367957338,10.39560484050832,0.12124355652982141,-0.7886704744316345,-0.22307818413959765
14324177,1733.0,1,190546,239807,0.9,-0.13,10.18,-0.03,-0.01,0.12,28.43,11.903653,-103.13609617643945,-694.4838819747634,10.22053325418982,0.12409673645990857,-0.9445691787651614,-0.888383235190281
14364178,1711.0,1,190690,238852,0.46,-0.43,10.05,-0.03,0.03,0.12,28.43,11.943654,-121.31226294847833,-1115.6317364866966,10.06970704638422,0.12727922061357855,-1.1105578732858417,-1.4294215160599626
14404167,1710.0,1,189643,237598,1.11,-0.02,9.97,-0.06,-0.03,0.11,28.43,11.983643,-112.05224063050947,-1444.726278274115,10.031620008752325,0.12884098726725127,-1.0259933424323653,-1.8522011722417688
14444177,1712.0,1,189625,237146,0.82,-0.1,9.97,-0.02,0.01,0.1,28.43,12.023653,-101.53758786700101,-1649.9958013111707,10.004164132999819,0.10246950765959599,-0.9299712544177505,-2.1159058751604474
14484168,1711.0,1,189184,237257,0.92,0.44,9.32,-0.03,-0.06,0.08,28.43,12.063644,-97.62102548250436,-1633.4605623687553,9.375627978967596,0.1044030650891055,-0.8942043578347217,-2.0946634607557924
14524168,1725.0,1,189735,239118,1.09,-0.25,10.63,-0.01,0.06,0.08,28.43,12.103644,-71.57937782341314,-1312.1732627802257,10.688662217508794,0.1004987562112089,-0.6563863870649037,-1.6819135764281374
14564168,1731.0,1,190453,241074,0.89,-0.11,9.86,-0.06,-0.04,0.12,28.43,12.143644,-64.02487548178223,-709.7773473054219,9.900696945165022,0.13999999999999999,-0.5873970342950031,-0.9080303736059062
14604177,1668.0,1,191289,242778,0.71,-0.11,10.38,-0.01,0.02,0.13,28.43,12.183653,-115.11805533773821,42.45139190682761,10.404835414363843,0.1319090595827292,-1.0539910268329094,0.05833936928597324
14644168,1651.0,1,191985,244832,0.74,0.1,10.0,-0.07,-0.04,0.12,28.43,12.223644,-131.20184843042858,789.5370932027841,10.02784124325869,0.14456832294800961,-1.2008717114062573,1.0181019779781464
14684166,1682.0,1,192292,245480,1.22,-0.23,10.78,-0.03,0.01,0.12,28.43,12.263642,-90.55390470014939,1428.4452164570162,10.85125338382622,0.12409673645990857,-0.8296658791007105,1.8388915152767382
14724167,1698.0,1,192748,246539,0.92,0.25,10.29,-0.06,-0.04,0.13,28.43,12.303643,-74.49613766909873,1903.1841163230995,10.334069866224052,0.14866068747318506,-0.6830228701632255,2.4487768928080436
14764167,1703.0,1,192757,247001,0.77,0.29,10.42,-0.04,0.0,0.13,28.43,12.343643,-60.97099935772358,2146.0433158612886,10.452435122974933,0.13601470508735444,-0.5595083756235737,2.7607721277447226
14804146,1726.0,1,193094,247291,0.93,-0.06,11.01,-0.06,0.0,0.13,28.43,12.383622,-40.75450433764517,2056.8398758676676,11.049371022822973,0.14317821063276354,-0.37488696131476196,2.646174664396033
14844852,1721.0,1,192689,245212,1.12,-0.38,10.74,-0.06,-0.04,0.13,28.45,12.424328,-37.240150899672116,1569.9528342752983,10.804924803070126,0.14866068747318506,-0.34279312400739353,2.0206828682520337
14883177,1746.0,1,191470,241101,0.71,0.21,10.42,-0.07,-0.04,0.15,28.45,12.462653,-18.294757267945627,753.6253954500992,10.446272062319649,0.170293863659264,-0.1697796830794451,0.9719671039497813
14923167,1750.0,1,190060,238630,0.78,-0.15,10.26,-0.07,-0.03,0.15,28.45,12.502643,-6.0135420048946076,-164.59098445644773,10.290699684666732,0.16822603841260722,-0.057624963428805534,-0.20764287465677983
14963176,1761.0,1,189816,238121,0.84,-0.03,10.22,-0.07,-0.03,0.13,28.45,12.542652,-4.428421360317062,-889.5637319189497,10.254506326488858,0.15066519173319365,-0.04314929813858814,-1.1389975159360168
15003176,1777.0,1,189548,238086,0.93,0.27,9.86,-0.07,-0.07,0.13,28.45,12.582652,20.479954651691262,-1206.29900357001,9.907441647569769,0.16340134638368192,0.18431939032127828,-1.545899522034271
15043168,1797.0,1,189432,238194,1.04,0.04,9.48,-0.09,-0.1,0.12,28.45,12.622644,26.412572594563667,-1085.6738398329278,9.53695968325336,0.18027756377319948,0.23849734322949157,-1.3909353437326444
15083164,1783.0,1,189475,238466,1.28,-0.37,9.76,-0.07,-0.05,0.13,28.45,12.66264,23.17600648360088,-693.3668664435181,9.850527904635365,0.15588457268119896,0.20894032000086254,-0.8869482328359888
15123237,1843.0,1,189793,239716,0.91,-0.38,9.15,-0.08,-0.08,0.13,28.45,12.702713,64.5842181762875,-301.4810677497947,9.202988645000058,0.17233687939614087,0.5870890841219356,-0.3835021947023991
15163176,1870.0,1,190426,240744,0.69,-0.34,9.91,-0.04,0.05,0.14,28.45,12.742652,102.85215619730988,-136.34564905509038,9.939808851280793,0.15394804318340652,0.9365601884407743,-0.17135678761058562
15203168,1883.0,1,190148,239097,1.08,-0.83,10.0,-0.08,-0.05,0.24,28.45,12.782644,95.76087698187897,-233.25224228192192,10.092338678423351,0.25787593916455254,0.8718010896597405,-0.29585030228168285
15243173,1861.0,1,189615,238524,0.91,-0.66,10.16,-0.05,0.01,0.19,28.45,12.822649,82.29304810381939,-397.76814030399987,10.22200078262568,0.19672315572906002,0.7488099572865496,-0.5071998264167389
15283168,1872.0,1,189588,238618,0.7,-0.04,10.14,-0.04,-0.04,0.15,28.45,12.862644,75.13144393147755,-331.8337367310167,10.164211725461056,0.16031219541881397,0.6834086357565573,-0.4224955213202878
15323219,1855.0,1,190048,240323,0.68,-0.22,10.14,-0.04,-0.04,0.12,28.45,12.902695,62.06557902758934,137.44647081141352,10.16515617194345,0.132664991614216,0.5640883255184103,0.18037720856495884
15363176,1879.0,1,190679,241901,1.07,0.04,10.77,-0.02,-0.03,0.12,28.45,12.942652,70.44307017854378,890.7281870135929,10.823095675452564,0.12529964086141668,0.6405933904721851,1.148099685073604
15403164,1885.0,1,191345,244374,1.11,0.23,9.96,-0.07,-0.15,0.12,28.45,12.98264,77.74193867790162,1553.1567926919085,10.024300474347326,0.20445048300260873,0.707248239587581,1.999105407114961
15443168,1873.0,1,191776,244167,1.06,-0.39,10.08,-0.05,-0.07,0.12,28.45,13.022644,49.44902677360253,1730.047452290374,10.143081385851147,0.147648230602334,0.4488712357845719,2.2263524828052064
15483177,1849.0,1,191606,241570,1.08,-0.4,10.46,-0.02,-0.06,0.13,28.45,13.062653,28.683242799994105,1275.5174999102837,10.523212437274086,0.14456832294800961,0.25923359569754284,1.6424290426050991
15523193,1850.0,1,189320,236552,1.07,-0.35,8.85,-0.07,-0.14,0.12,28.45,13.102669,9.23442842391122,387.6851739282542,8.921317167324565,0.1972308292331602,0.08162280741916772,0.5018527100804435
15563176,1822.0,1,188952,236182,0.85,-0.01,9.48,0.02,0.01,0.02,28.45,13.142652,-11.306178729794699,-543.0066144281878,9.518035511595867,0.03,-0.10595846914299348,-0.6937841186419764
15603146,1859.0,1,188396,235389,1.08,-0.09,8.71,-0.03,-0.07,0.09,28.45,13.182622,1.4511900378559557,-1200.8838091227833,8.777163550942868,0.11789826122551596,0.010544587514628443,-1.5389427550392263
15643173,1847.0,1,188412,235350,1.36,-0.12,9.44,0.03,0.04,0.04,28.45,13.222649,-0.1443825127118768,-1509.507643106597,9.538217862892417,0.06403124237432849,-0.004026526846470574,-1.9354241968538166
15683144,1851.0,1,187870,234630,1.06,-0.11,8.45,-0.02,-0.06,0.13,28.45,13.26262,-22.305905549537908,-1587.8790117181609,8.516936068798449,0.14456832294800961,-0.20641035857559023,-2.0361059647620112
15723176,1835.0,1,187956,234609,0.79,-0.28,8.61,0.06,0.06,0.08,28.45,13.302652,-25.113203729003086,-1579.0425050304675,8.650699393690662,0.11661903789690602,-0.23204721401292824,-2.0247539221575357
15763145,1873.0,1,187890,234734,0.79,0.1,8.06,0.04,-0.01,0.09,28.45,13.342621,-16.17772740135737,-1512.9885948683689,8.099240705152553,0.09899494936611665,-0.1504465074861813,-1.939896089888062
15803145,1852.0,1,188296,235697,1.36,0.38,9.22,0.08,0.06,0.09,28.45,13.382621,-18.886944489850052,-1300.2302094123836,9.327507705705743,0.1345362404707371,-0.17518766514236042,-1.6665706297806695
15843126,1854.0,1,188409,236750,1.61,-0.12,8.87,0.02,-0.02,0.13,28.45,13.422602,-49.783823434880745,-832.7171464517838,9.015730696954074,0.13304134695650072,-0.45734466035317467,-1.0659681070361187
15883850,1821.0,1,189398,238939,1.29,-0.22,9.54,0.07,0.06,0.14,28.11,13.463326,-60.95239251697387,-95.88711041795712,9.629335387242465,0.1676305461424021,-0.5593384539209433,-0.11938069903214094
15922145,1856.0,1,190592,241674,0.39,-0.51,9.64,0.04,0.06,0.16,28.11,13.501621,-56.42494499288555,793.1623225239779,9.661356012486033,0.17549928774784243,-0.5179928218380349,1.022759220841155
15962145,1808.0,1,191142,243142,0.77,-0.14,10.35,0.05,0.04,0.29,28.11,13.541621,-89.09125995997101,1635.5722409775572,10.37954719628944,0.29698484809834996,-0.8163086903152715,2.104982504623261
16002144,1804.0,1,191815,243693,0.42,-0.12,10.81,0.05,0.05,0.28,28.11,13.58162,-108.3333556272774,2235.9468376637515,10.818821562443851,0.28879058156387305,-0.9920316785402494,2.8762689689586107
16042144,1822.0,1,191768,244018,1.07,0.15,11.92,0.06,0.01,0.24,28.11,13.62162,-93.24747175908435,2463.44942335063,11.968867949810457,0.24758836806279894,-0.8542641172949329,3.1685359401297735
16082125,1829.0,1,192084,244505,1.44,0.29,11.92,0.02,-0.08,0.13,28.11,13.661601,-78.39290390906532,2274.317018084681,12.010166526738919,0.15394804318340652,-0.7186089840637285,2.9255621951479207
16122144,1862.0,1,191697,242795,0.92,0.38,11.37,-0.01,-0.07,0.13,28.11,13.70162,-67.07272574460407,1714.6063552972237,11.413487635249796,0.14798648586948743,-0.6152306634955542,2.2065156856271755
16162168,1831.0,1,190650,238669,0.64,0.1,10.49,0.03,-0.11,0.08,28.11,13.741644,-74.93583574018325,910.1577458134998,10.509980970487055,0.1392838827718412,-0.6870382882498848,1.1730603609467851
16202145,1826.0,1,189475,238452,1.1,0.69,10.16,0.05,-0.08,-0.13,28.11,13.781621,-103.94113272523207,32.15476190917305,10.24264126092484,0.16062378404209013,-0.951920947014839,0.04511154221051947
16242168,1821.0,1,189569,236277,1.24,0.3,10.15,0.04,-0.05,-0.15,28.11,13.821644,-93.43306214811085,-757.0343866358469,10.229863146689697,0.16309506430300091,-0.855958968952956,-0.9687403286594694
16282167,1881.0,1,188523,235587,1.1,-0.2,8.42,-0.0,-0.15,-0.12,28.11,13.861643,-33.495197428646385,-1346.2073909388746,8.493903696181162,0.19209372712298547,-0.308593397217226,-1.7256363830210701
16322196,2003.0,1,188411,235334,1.15,0.95,8.18,0.04,0.0,-0.06,28.11,13.901672,71.62906743849905,-1683.08822094393,8.314890257844658,0.07211102550927978,0.6514241745067991,-2.158418891993159
16362144,2090.0,1,188548,236447,1.37,0.7,7.92,0.01,-0.05,-0.04,28.11,13.94162,200.20765960487924,-1759.722467956175,8.068041893793065,0.06480740698407861,1.8256317466906415,-2.2568690225471846
16402168,2106.5,1,188727,236457,1.62,0.43,8.58,0.04,0.03,-0.03,28.11,13.981644,161.93912747378926,-1604.3282530742265,8.74217936214992,0.05830951894845301,1.4761552168298964,-2.0572379001845724
16442145,1940.0,1,188973,237793,1.6,0.51,8.12,0.02,-0.04,0.05,28.11,14.021621,68.66982848931893,-1290.9158473941175,8.291833331658324,0.0670820393249937,0.6243997630283135,-1.6546046981968539
16482144,2106.5,1,189490,238113,0.81,0.26,7.92,0.01,0.05,0.15,28.11,14.06162,166.77456867058115,-946.4975981003378,7.965557105438388,0.1584297951775486,1.520313513887432,-1.212139052220799
16522125,2106.5,1,189899,239609,1.41,1.28,8.95,0.0,0.04,0.23,28.11,14.101601,238.05476595268107,-721.2762490599927,9.150355184363063,0.23345235059857505,2.1712597249572756,-0.9228027296099329
16562125,2106.5,1,190089,240489,1.97,0.11,10.05,-0.02,0.04,0.28,28.11,14.141601,189.65891875180898,-712.1438409235309,10.241850418747582,0.28354893757515653,1.729298358853791,-0.9110705496987289
16602144,2023.0,1,189928,239677,1.19,0.74,8.89,-0.05,-0.02,0.31,28.11,14.18162,149.99786547858395,-881.9586938655314,8.999766663641898,0.31464265445104544,1.3671050241037432,-1.1292275107696879
16642168,2000.0,1,190070,240061,1.06,0.47,9.91,0.0,0.11,0.22,28.11,14.221644,109.15221634808607,-1046.8873681910636,9.977604923026368,0.24596747752497686,0.9940937032321219,-1.341107318460061
16682125,1920.0,1,189944,240019,1.36,0.69,10.53,-0.05,0.03,0.21,28.11,14.261601,49.92546671555054,-970.4209225188187,10.639859021622419,0.21794494717703367,0.453222188599503,-1.2428727581565984
16722144,1863.0,1,190216,242511,2.02,0.55,11.19,-0.05,0.0,0.2,28.11,14.30162,-10.971378098624147,-519.2630913975026,11.384155655998384,0.20615528128088306,-0.10290099721342305,-0.663281399122726
16762149,1853.0,1,191731,244094,0.97,0.79,11.39,-0.06,0.01,0.21,28.11,14.341625,-2.4951064256004685,229.72680847036125,11.458494665530896,0.21863211109075445,-0.025493847122117073,0.2989274865971983
16802144,1878.0,1,192349,246274,1.34,0.65,11.61,-0.06,-0.0,0.16,28.11,14.38162,13.708154693913398,1021.7713406879351,11.705135625015199,0.17088007490635063,0.12247784536605133,1.3164475985774555
16842167,1802.0,1,193344,245793,1.44,0.34,11.92,-0.04,0.03,0.14,28.11,14.421643,-36.02315645500382,1579.5875211360883,12.011477844128922,0.14866068747318506,-0.3316792669635549,2.03306031327528
16882144,1791.0,1,192885,246638,1.3,0.4,10.27,-0.06,-0.04,0.13,28.11,14.46162,-61.34362072123625,1765.4237657614437,10.3596766358801,0.14866068747318506,-0.5629112346782744,2.2717995618270757
16922851,1758.0,1,193488,246311,0.62,1.09,10.5,0.01,0.07,0.15,27.99,14.502327,-68.92592184532633,1633.9236427738965,10.574615832265492,0.16583123951776998,-0.6321544519547859,2.1028645910962243
16961168,1741.0,1,192693,246464,1.47,1.03,9.74,-0.05,-0.06,0.13,27.99,14.540644,-93.48925368631319,1356.2831381662488,9.904009289171734,0.15165750888103102,-0.856472122258947,1.7461866697833037
17001163,1712.0,1,193147,246639,1.35,0.5,10.37,0.01,0.03,0.04,27.99,14.580639,-110.09202513315408,1092.5217170016927,10.469450797439185,0.05099019513592785,-1.0080922296473658,1.4073388652943177
17041125,1715.0,1,192601,246536,0.88,0.77,8.72,-0.08,-0.09,0.06,27.99,14.620601,-101.3585823311792,907.3144134581459,8.798050920516431,0.1345362404707371,-0.9283365370664142,1.1694076018670443
17081163,1734.0,1,192818,246138,1.12,1.02,10.04,0.01,0.03,0.11,27.99,14.660639,-82.97046196959934,771.0649906321477,10.153639741491716,0.11445523142259598,-0.7604122364265713,0.9943713225520426
17121125,1722.0,1,192459,246001,1.25,0.39,9.74,-0.05,-0.04,0.15,27.99,14.700601,-83.41129782769207,620.9937140601002,9.827624331444502,0.16309506430300091,-0.764438045030797,0.8015784479960154
17161163,1730.0,1,192550,246090,1.17,0.36,9.84,-0.01,-0.0,0.17,27.99,14.740639,-77.4080781045488,426.3884129473692,9.915850946842635,0.17029386365926402,-0.7096153413627028,0.5515738084516025
17201168,1733.0,1,192091,245342,0.94,1.41,9.13,-0.02,-0.06,0.18,27.99,14.780644,-70.27371625491352,215.2035223663783,9.285935601758178,0.19078784028338913,-0.6444628026282516,0.2802697784738038
17241167,1728.0,1,192324,246192,1.32,0.27,10.4,-0.01,0.02,0.18,27.99,14.820643,-68.04302757471324,52.74266091444826,10.48691088929433,0.18138357147217055,-0.6240916701143211,0.07156030922950736
17281144,1744.0,1,192130,245648,1.57,1.03,9.96,-0.05,-0.08,0.23,27.99,14.86062,-61.423921155372255,-8.394909521375645,10.13545262926131,0.2485960578931211,-0.5636445556473682,-0.0069816224241180565
17321167,1721.0,1,192050,246110,1.31,0.79,10.19,0.0,-0.06,0.27,27.99,14.900643,-67.7398602653249,24.866872652639085,10.304188468773267,0.27658633371878666,-0.6213230805355695,0.03574897029597578
17361144,1747.0,1,192312,246390,1.17,0.46,10.79,-0.03,-0.04,0.2,27.99,14.94062,-60.09941778702302,73.6985911267835,10.86299222129888,0.20615528128088306,-0.5515489038106596,0.09848187688000959
17402167,1753.0,1,192084,246003,1.53,0.16,10.52,-0.07,-0.13,0.2,27.99,14.981643,-35.422134491675884,26.211055538861704,10.631881301068029,0.2485960578931211,-0.32619060412709094,0.037475808958799185
17442168,1781.0,1,192396,244818,0.83,-0.3,11.06,-0.02,0.04,0.17,27.99,15.021644,-26.743073229391058,-187.12196177009346,11.09515660096783,0.17578395831246946,-0.2469315355534114,-0.23658786654381148
17482164,1771.0,1,191449,243293,1.13,1.06,9.69,-0.08,-0.1,0.16,27.99,15.06164,-22.365264862706944,-530.5966262957879,9.813083103693762,0.20493901531919198,-0.2069524406891704,-0.6778413123974856
17522168,1797.0,1,191368,244208,1.84,0.13,10.89,-0.01,-0.0,0.07,27.99,15.101644,-13.162982535088279,-865.7940117218677,11.045116567967947,0.07071067811865477,-0.12291520394231552,-1.1084611415620185
17562167,1791.0,1,191391,243132,1.55,0.74,9.58,-0.1,-0.1,0.11,27.99,15.141643,-8.671373152676018,-1029.9975972086038,9.732753978191374,0.17916472867168917,-0.08189685353686212,-1.319409445471434
17602168,1827.0,1,190957,243289,1.69,1.04,9.69,0.04,-0.03,0.07,27.99,15.181644,9.49568630057777,-943.4724426031912,9.891097006904744,0.08602325267042626,0.08400867097472427,-1.208252709426921
17642144,1840.0,1,191854,244743,1.64,0.89,10.15,-0.03,-0.0,0.11,27.99,15.22162,35.59409112637639,-672.598134011043,10.320087208933847,0.11401754250991379,0.3223449604926375,-0.8602671535648363
17682168,1887.0,1,191506,244649,2.34,0.57,9.89,-0.04,-0.08,0.17,27.99,15.261644,56.821959069571186,-399.9775592175812,10.179027458455941,0.19209372712298547,0.5162024515434334,-0.5100382125035214
17722167,1883.0,1,192186,245046,0.99,0.43,9.38,-0.04,0.01,0.17,27.99,15.301643,74.38697897904208,-311.1928824613156,9.441895996038085,0.17492855684535902,0.6766100204532877,-0.39597872397674516
17762145,1887.0,1,191722,244310,1.61,1.24,9.02,-0.05,-0.08,0.16,27.99,15.341621,43.32308998124679,-466.69819504643556,9.246085658266422,0.1857417562100671,0.39292785324235335,-0.5957525708236173
17802167,1840.0,1,191542,243830,1.54,0.57,9.88,-0.03,0.02,0.09,27.99,15.381643,22.423660800875506,-747.0822492652961,10.015532936394349,0.09695359714832658,0.2020697361604918,-0.9559550627813332
17842144,1904.0,1,191018,243663,1.69,0.61,8.4,-0.07,-0.1,0.12,27.99,15.42162,52.43068428647673,-918.089941726224,8.590005820719798,0.17117242768623692,0.4761003784457805,-1.1756444354169238
17882164,1881.0,1,191621,244474,1.32,1.24,9.39,-0.02,0.07,0.16,27.99,15.46164,46.42195971943191,-779.2663592985331,9.56305913398009,0.17578395831246946,0.4212274033500404,-0.9973011966323125
17922833,1911.0,1,191656,245535,1.56,1.28,8.96,-0.08,0.02,0.18,28.11,15.502309,57.567784551905575,-297.30092837748333,9.184421593110805,0.1979898987322333,0.5230134915006254,-0.37813207255750064
17961145,1936.0,1,192646,247717,2.03,0.44,10.42,-0.0,0.08,0.19,28.11,15.540621,81.30974285375197,366.7933049369243,10.625012941168588,0.20615528128088303,0.7398302006183226,0.4750134403035072
18001145,1904.0,1,193258,248535,1.18,1.14,9.41,-0.07,-0.0,0.22,28.11,15.580621,47.857719517887304,953.7574738996879,9.551968383532266,0.2308679276123039,0.43433907302054003,1.2290718582805995
18041167,1909.0,1,193387,248967,1.51,0.7,10.72,-0.02,0.08,0.28,28.11,15.620643,39.18964274512039,1257.9067502920914,10.848433066576943,0.29189039038652853,0.35518031718595017,1.6198049461122053
18081145,1905.0,1,193587,248677,1.34,0.36,11.04,-0.08,0.02,0.31,28.11,15.660621,40.473046884740626,1232.3035100068944,11.126850407909687,0.3207802986469088,0.366900641957932,1.5869130936186202
18121144,1885.0,1,192788,247911,1.29,0.82,10.4,-0.08,-0.04,0.28,28.11,15.70062,6.837399583862109,984.4815431102247,10.511731541473079,0.29393876913398137,0.05973262051241868,1.2685423136299545
18161168,1861.0,1,193112,247621,0.8,1.1,11.65,-0.03,0.06,0.21,28.11,15.740644,-15.022381433153813,682.631874882462,11.72913040254903,0.220454076850486,-0.13989563769129945,0.8807634757956873
18201144,1878.0,1,192415,247617,1.75,0.89,10.51,-0.13,-0.13,0.19,28.11,15.78062,-5.671575147741986,450.722389236517,10.691805273198723,0.2643860813280457,-0.05450204797033693,0.5828350687362162
18241167,1909.0,1,192973,247609,1.35,0.57,11.46,-0.05,-0.0,0.15,28.11,15.820643,22.82630973908572,320.3894629975882,11.553311213673767,0.15811388300841897,0.20574681353559962,0.4153995669342545
18281167,1915.0,1,192250,246600,1.33,1.19,9.59,-0.15,-0.13,0.16,28.11,15.860643,26.285590488669065,247.78482169548826,9.75464504736077,0.25495097567963926,0.23733771511596896,0.3221261716351815
18321168,1908.0,1,192435,247013,1.43,0.6,10.47,-0.01,-0.01,0.07,28.11,15.900644,13.53830348614101,157.50641541548669,10.584224109494281,0.07141428428542851,0.12092672732259947,0.20614772556190883
18361167,1899.0,1,192157,246512,1.84,0.54,9.85,-0.11,-0.1,0.13,28.11,15.940643,7.277706435840384,-19.700226241298168,10.034924015656522,0.197484176581315,0.06375359811814879,-0.021505284499810377
18400200,1895.0,1,192019,246159,1.56,0.52,9.69,-0.02,-0.06,0.18,28.11,15.979676,-7.9095101120483715,-318.10046159742524,9.828534987473972,0.19078784028338913,-0.07493935512130628,-0.40485272084205776
18440167,1882.0,1,191652,244926,1.36,0.99,9.31,-0.07,-0.04,0.18,28.11,16.019643,-9.295155934879373,-709.9340344543914,9.460750498771226,0.19723082923316018,-0.08759337310454642,-0.9082316657288616
18480168,1906.0,1,191413,243792,1.72,0.36,10.41,-0.02,0.02,0.19,28.11,16.059644,-5.184153164901785,-1093.0072704048998,10.557277111073669,0.19209372712298547,-0.05005080477769699,-1.4003564214539947
18520145,1875.0,1,190969,242972,1.23,0.42,8.61,-0.07,-0.06,0.18,28.11,16.099621,-14.742030741518352,-1319.5423659787898,8.707548449477613,0.20223748416156684,-0.13733541441121122,-1.6913804818946816
18560168,1891.0,1,191046,243192,0.97,0.96,9.15,0.0,0.06,0.2,28.11,16.139644,-24.800422864407366,-1269.8604955650062,9.25121613627095,0.208806130178211,-0.22919083136435126,-1.6275554060428417
18600145,1863.0,1,191476,245273,1.53,0.69,9.88,-0.04,0.01,0.19,28.11,16.179621,-27.88202519253879,-929.3443982566057,10.021546786798933,0.1944222209522358,-0.25733269174083623,-1.1901027586591897
18640144,1889.0,1,192086,246462,1.46,-0.09,9.42,-0.05,0.02,0.19,28.11,16.21962,-25.273966039964492,-408.8130946673613,9.53289567759975,0.19748417658131498,-0.23351533028074667,-0.5213890073825601
18680163,1867.0,1,192843,247073,1.03,0.56,9.48,-0.04,-0.01,0.2,28.11,16.259639,-28.505420549061615,113.73145372983092,9.552219637340842,0.2042057785666214,-0.2630256732532341,0.14991110993676077
18720167,1891.0,1,192970,247525,1.27,0.37,9.9,-0.06,-0.0,0.23,28.11,16.299643,-17.376888543334204,487.7634389769671,9.987982779320356,0.23769728648009425,-0.1613975069445965,0.6304207934608653
18760164,1890.0,1,193152,247650,1.36,0.18,10.43,-0.02,0.02,0.19,28.11,16.33964,-10.447369598418545,651.3639270524322,10.519833648874872,0.19209372712298547,-0.09811563801432771,0.8405943129730786
18800144,1878.0,1,193130,247916,1.38,1.02,10.03,-0.02,-0.05,0.19,28.11,16.37962,-24.316320348492543,625.3196560457312,10.175740759276446,0.19748417658131498,-0.22476990226314536,0.8071358791688756
18840167,1904.0,1,193195,247751,1.29,0.65,10.54,-0.04,-0.01,0.16,28.11,16.419643,1.4905341892340116,467.4206832619931,10.638524333759827,0.16522711641858306,0.010903886832585512,0.6042869559919876
18880168,1913.0,1,192815,246312,1.48,0.12,10.07,-0.04,-0.06,0.17,28.11,16.459644,14.828918319608064,237.35975971611418,10.178885007700991,0.1846618531261939,0.13271290171365843,0.30873335115455236
18920167,1883.0,1,192895,246878,1.08,0.41,10.4,0.01,0.01,0.19,28.11,16.499643,-18.611589195769838,-7.271085171169607,10.463961964762678,0.1905255888325765,-0.17267306091546458,-0.0055378729477266655
18960813,1892.0,1,192508,245451,0.98,0.79,9.16,-0.05,-0.05,0.18,28.11,16.540289,-3.5167910382043965,-205.41205589757712,9.246085658266422,0.19339079605813717,-0.03482409244748881,-0.2600847002036824
19001163,1908.0,1,192124,246279,1.89,0.31,10.39,0.01,-0.03,0.15,28.11,16.580639,9.46655644894739,-306.06603964918594,10.565050875409925,0.1532970971675589,0.08374265085594179,-0.3893923952286662
19041144,1874.0,1,192706,246628,1.17,0.89,9.34,-0.02,-0.05,0.13,28.11,16.62062,-20.352565770029734,-297.7075609479143,9.454977525092273,0.1407124727947029,-0.18857203633623587,-0.37865446341024894
19081167,1883.0,1,192255,247082,1.34,0.88,8.75,-0.01,-0.05,0.12,28.11,16.660643,-10.62071137308119,-220.04138656368593,8.895645001909642,0.130384048104053,-0.09969863267117762,-0.278878641165434
19121168,1886.0,1,193006,246986,1.56,0.68,10.48,0.02,0.04,0.17,28.11,16.700644,-7.8184004372637865,-135.20267372915288,10.617268952042235,0.17578395831246946,-0.07410732182378166,-0.16988843534713094
19161125,1869.0,1,192597,247246,1.43,0.08,9.14,-0.05,-0.08,0.16,28.11,16.740601,-20.21469935077947,-77.72432798100549,9.251535007770332,0.1857417562100671,-0.18731301031404973,-0.09604741956693612
19201164,1889.0,1,192723,246562,1.23,0.82,9.27,0.03,0.03,0.19,28.11,16.78064,-2.251763023147928,-28.277747785043854,9.387129486696132,0.19467922333931786,-0.02327158242792123,-0.03252461526555533
19241125,1875.0,1,192761,246719,1.25,0.32,9.13,-0.02,-0.0,0.18,28.11,16.820601,-12.375232669298558,64.7913857590807,9.220726652493285,0.18110770276274832,-0.11572130142858934,0.08703900942178638
19281167,1873.0,1,193113,248181,1.68,0.66,9.78,0.01,0.04,0.19,28.11,16.860643,-13.8786696900813,237.17739336473946,9.94516968181036,0.1944222209522358,-0.12945101416195212,0.3084990695924378
19321125,1889.0,1,193281,247904,1.26,0.84,9.34,-0.01,-0.03,0.19,28.11,16.900601,3.304451242526045,475.77878599065434,9.461965969078518,0.19261360284258222,0.027468970517222583,0.6150244048076481
19361167,1867.0,1,193605,248517,1.1,0.81,10.47,0.02,0.1,0.19,28.11,16.940643,-17.463780314523554,723.4750997333002,10.558740455186879,0.21563858652847825,-0.16219102143228803,0.93323376128267
19401125,1869.0,1,193409,248027,1.55,0.94,10.51,-0.03,0.01,0.25,28.11,16.980601,-12.153538186833382,910.9852721074493,10.665186355615171,0.2519920633670831,-0.11369673936397176,1.174123463604572
19440144,1890.0,1,193998,249274,1.34,0.57,11.06,0.04,0.06,0.24,28.11,17.01962,5.179925773735036,991.8388209602517,11.155451582074122,0.25059928172283336,0.044596210432354844,1.2779940273623498
19480125,1866.0,1,193729,248208,1.07,1.24,10.88,-0.03,-0.03,0.24,28.11,17.059601,-9.742631246337968,962.0229794056613,11.002586059649795,0.2437211521390788,-0.09167981463596482,1.239690349723832
19520167,1881.0,1,193539,248942,1.38,0.08,11.34,-0.02,-0.01,0.2,28.11,17.099643,-3.0170475892327384,855.5828999279005,11.42393977575162,0.2012461179749811,-0.030260326955543853,1.1029493999616191
19560164,1888.0,1,193232,248563,1.19,0.68,10.46,-0.05,-0.06,0.17,28.11,17.13964,14.22150045712488,720.1136563814715,10.549412305905957,0.18708286933869708,0.1271658301398419,0.9289153977606194
19600168,1893.0,1,193566,249052,1.29,0.55,10.76,-0.01,-0.05,0.18,28.11,17.179644,14.164855889598563,590.8466868010757,10.850999953921297,0.18708286933869706,0.12664853967187337,0.7628493042361443
19640167,1891.0,1,193087,248364,0.91,0.88,9.31,-0.09,-0.05,0.17,28.11,17.219643,14.515515611730663,481.63317961856853,9.395669215122465,0.19874606914351792,0.12985084025745292,0.6225454001779126
19680168,1872.0,1,193131,248705,1.89,0.45,10.45,0.01,-0.03,0.18,28.11,17.259644,1.8612927514343156,389.9407244455318,10.629068632763644,0.18275666882497066,0.014289734381952465,0.5047503603028265
19720145,1866.0,1,193004,247571,1.13,0.97,9.97,-0.04,-0.03,0.19,28.11,17.299621,-15.143458562137807,298.0878251063441,10.08061010058419,0.19646882704388502,-0.1410013402758115,0.3867492017573022
19760168,1869.0,1,192441,248053,1.21,0.87,9.1,-0.06,-0.07,0.18,28.11,17.339644,7.0794034577167855,166.8138494534307,9.221225515082038,0.20223748416156684,0.06194265234112527,0.2181047569399578
19800164,1904.0,1,192886,246749,1.33,0.3,11.23,0.0,0.09,0.19,28.11,17.37964,20.876728010302784,-59.135143368246666,11.31246215463283,0.2102379604162864,0.18794281062999965,-0.07216635172364455
19840125,1856.0,1,192123,246180,1.12,0.13,8.63,-0.14,-0.15,0.21,28.11,17.419601,-2.4480668946958426,-417.01140655978423,8.703344184852165,0.293598365118064,-0.025064271930403087,-0.5319211768446375
19880163,1879.0,1,191751,244872,1.23,1.23,9.3,-0.03,0.02,0.18,28.11,17.459639,-0.6685459624842456,-880.9388208660848,9.461278983308759,0.1835755975068582,-0.008813301078593882,-1.127917305034542
19920144,1869.0,1,191205,244625,1.76,0.71,9.28,-0.12,-0.13,0.16,28.11,17.49962,9.020279093713123,-1348.139456093188,9.472069467650666,0.23853720883753127,0.07966714932041266,-1.7281184595612187
19960167,1872.0,1,191047,243175,1.67,0.63,8.77,-0.05,-0.07,0.16,28.11,17.539643,-1.389605987158414,-1681.4964759676511,8.949787706979423,0.1816590212458495,-0.01539817750869108,-2.156374016407726
20000854,1853.0,1,190320,242050,1.45,0.77,8.21,-0.07,-0.1,0.04,27.91,17.58033,-8.793456471907353,-1785.8051467760142,8.372544416125843,0.1284523257866513,-0.08301174486879764,-2.290376797923402
20039168,1886.0,1,191295,241953,1.36,0.63,9.35,-0.01,0.07,0.08,27.91,17.618644,16.284865756584104,-1661.3814088941615,9.469371679261512,0.10677078252031312,0.14600892927465964,-2.130532684931322
20079144,1917.0,1,190877,242129,1.99,0.55,8.84,-0.07,-0.1,0.11,27.91,17.65862,57.148762920977155,-1391.6913525006057,9.077896232057293,0.16431676725154984,0.5191868951469469,-1.7840685087148374
20119167,1920.0,1,191866,245262,2.03,0.74,10.41,0.02,0.09,0.12,27.91,17.698643,50.092148015399225,-1075.1721276356973,10.631867192549011,0.15132745950421556,0.45474435835673993,-1.3774440526041107
20159125,1893.0,1,191612,243147,1.23,0.99,8.35,-0.07,-0.03,0.17,27.91,17.738601,36.36873297431378,-759.4940923984072,8.497970345912016,0.1862793601019716,0.32941915774626396,-0.9719002520995713
20199162,1886.0,1,191922,245718,2.52,0.25,10.64,0.09,0.04,0.16,27.91,17.778638,17.292533312009542,-431.4788180052634,10.937207138936339,0.18788294228055935,0.1552111677957772,-0.550507104169775
20239141,1827.0,1,192679,246365,1.05,0.42,9.39,-0.06,0.05,0.18,27.91,17.818617,-31.637729426853426,-61.16075188424096,9.45785387918422,0.19621416870348585,-0.2916305968315116,-0.07476860111769312
20279141,1831.0,1,192628,247209,1.11,1.69,9.63,0.04,0.05,0.24,27.91,17.858617,-30.32123710425506,349.72399226417645,9.839974593463136,0.2483948469674844,-0.2796081036009388,0.4530849145253261
20319125,1859.0,1,193663,248795,1.66,0.31,11.65,0.02,0.1,0.17,27.91,17.898601,-8.236729254661453,758.4025014191094,11.771754329750515,0.19824227601599012,-0.07792759125413469,0.9781041343853295
20359123,1856.0,1,193628,249321,1.22,0.87,11.24,-0.06,-0.02,0.28,27.91,17.938599,4.971693852914326,1106.7714089989558,11.339440021447267,0.2870540018881465,0.04269459139859165,1.4256450938041516
20399167,1905.0,1,193789,249165,1.07,0.94,10.86,0.03,0.03,0.18,27.91,17.978643,28.987416387709107,1344.232175677188,10.952995024193154,0.1849324200890693,0.2620113748280774,1.7307050949443141
20439125,1890.0,1,193936,250529,1.51,1.05,11.53,-0.06,-0.07,0.19,27.91,18.018601,44.55249351861164,1425.0078351535724,11.675765499529357,0.21118712081942875,0.404155032810282,1.8344755961376888
20480167,1935.0,1,193909,249344,1.14,0.35,11.92,0.01,0.06,0.13,27.91,18.059643,55.617116198203554,1298.9737068968514,11.979503328602569,0.14352700094407325,0.5051995653007458,1.672562654275621
20520125,1872.0,1,193491,249779,1.14,1.65,10.38,-0.07,-0.16,0.19,27.91,18.099601,25.40525384936103,929.9966855900049,10.571967650347782,0.2580697580112788,0.22929829011893083,1.1985469584824573
20560167,1878.0,1,193026,247776,1.04,0.77,11.74,-0.02,0.09,0.13,27.91,18.139643,-1.7225757428205914,343.82088704530645,11.811100710772049,0.15937377450509227,-0.018438929486289432,0.445501340573343
20600144,1852.0,1,192153,247442,1.33,1.19,9.13,-0.14,-0.195,0.14,27.91,18.17962,2.5827128825739525,-335.86338872442815,9.302789904109412,0.2778938646318051,0.020877899382342906,-0.4276723160342132
20640167,1851.0,1,192002,245182,1.57,0.74,10.13,0.06,0.07,-0.01,27.91,18.219643,-31.556613991996624,-911.6726118156934,10.277616455190378,0.09273618495495704,-0.2908898330991899,-1.1674002496627527
20680144,1808.0,1,190935,244548,0.63,1.49,8.32,-0.13,-0.195,0.09,27.91,18.25962,-42.79839324265156,-1204.2152638364003,8.47581264540457,0.2510478042126638,-0.3935521977940626,-1.5432225928960268
20720168,1872.0,1,191476,245347,1.83,0.6,10.47,0.08,0.11,0.12,27.91,18.299644,-15.18292160641425,-1157.9405645690208,10.645646997716955,0.18138357147217055,-0.14136172534948585,-1.4837746259382014
20760125,1846.0,1,191800,246806,1.26,1.41,8.94,-0.12,-0.18,0.17,27.91,18.339601,-9.165173278660369,-879.9223930607172,9.137795138872397,0.2751363298439521,-0.08640634331511284,-1.1266115252554154
20800167,1879.0,1,192056,247076,1.66,1.16,9.26,-0.02,-0.06,0.17,27.91,18.379643,-8.19620024518384,-570.3155165926363,9.478860691032441,0.18138357147217055,-0.07755747155520268,-0.7288671929618359
20840167,1872.0,1,192193,247157,1.48,0.29,9.34,-0.07,-0.08,0.11,27.91,18.419643,3.8592611116889195,-387.03408533690094,9.460977750740142,0.15297058540778355,0.03253561449361941,-0.4934100502515719
20880168,1889.0,1,192069,247518,2.21,0.84,9.44,-0.05,-0.1,0.15,27.91,18.459644,9.060492600367747,-341.2494685377361,9.731562053442396,0.18708286933869708,0.08003438777918209,-0.434591680175807
20920167,1889.0,1,192411,247393,1.34,1.13,9.63,0.01,0.02,0.1,27.91,18.499643,1.532936946872091,-297.65111914944396,9.788227623017358,0.10246950765959599,0.011291118005840867,-0.3785819540212388
20960125,1889.0,1,192438,248229,2.05,1.39,8.62,-0.06,-0.13,0.07,27.91,18.539601,16.713305929801873,-79.13819643493834,8.968779181137196,0.15937377450509227,0.14992153779792824,-0.0978637815630769
21000163,1915.0,1,192749,248513,2.07,1.8,10.83,0.01,-0.02,0.02,27.91,18.579639,12.763158828845313,393.6017772702795,11.172009667020522,0.03,0.11384793830493248,0.5094536247389474
21040833,1843.0,1,193285,250357,2.4,1.02,9.54,-0.03,0.06,0.02,27.85,18.620309,-32.72073627894111,1023.9346097960068,9.889994944386977,0.06999999999999999,-0.30152085013902025,1.3192266971452162
21079144,1759.0,1,194114,250821,1.87,1.78,9.63,-0.0,0.02,0.02,27.85,18.65862,-144.1751247293897,1586.729779359485,9.9700651953736,0.0282842712474619,-1.3193464824362702,2.0422357965866986
21119145,1598.5,1,194754,251911,2.0,1.16,10.61,0.02,0.01,0.09,27.85,18.698621,-293.96932904959317,1877.9528311515007,10.858991665896056,0.09273618495495704,-2.6872996231460102,2.4163628818921037
21159125,1655.0,1,194296,249925,1.4,1.52,9.05,-0.04,0.01,0.1,27.85,18.738601,-241.49323664091222,1852.199160142825,9.282935957982259,0.10816653826391968,-2.2080765734398895,2.3832777747513703
21199145,1820.0,1,193429,249024,1.98,1.21,9.66,0.03,-0.08,0.17,27.85,18.778621,-86.9226503497814,1630.8888758492528,9.934792398434906,0.1902629759044045,-0.7965044773238875,2.098965900738055
21239145,1883.0,1,193618,249916,1.43,2.83,10.12,0.0,0.12,0.26,27.85,18.818621,-19.117780219195012,1377.4174997493863,10.605102545473098,0.2863564212655271,-0.1772957070547862,1.7733374638232504
21279126,1920.0,1,193643,249809,1.66,1.56,10.01,-0.01,0.03,0.28,27.85,18.858602,19.839992524740293,1161.0629441020708,10.26592908605938,0.28178005607210743,0.1784751174705977,1.4953920924016073
21319144,1937.0,1,193522,249147,1.5,1.41,10.81,0.02,0.14,0.31,27.85,18.89862,7.637421709950719,931.112502940044,11.004280985143918,0.3407345007480164,0.06703859596712185,1.1999804215628507
21359126,1941.0,1,192624,248521,1.34,2.21,10.58,-0.04,-0.02,0.45,27.85,18.938602,65.00676720241468,600.5579990753888,10.891101872629784,0.4522167621838005,0.5909478934131077,0.7753251880417783
21399162,2106.5,1,192251,248005,1.46,1.86,11.64,-0.02,0.08,0.37,27.85,18.978638,146.6832188914751,139.1083109886274,11.877743893517826,0.3790778284204973,1.336834953043545,0.1825121337294286
21439144,2016.0,1,191602,246968,1.6,2.12,11.51,-0.08,-0.02,0.42,27.85,19.01862,154.93733317892702,-403.5937258143947,11.81247222218956,0.4280186911806539,1.4122133137387332,-0.5146838127076249
21478167,2091.0,1,191315,245924,1.47,1.37,11.37,-0.04,0.0,0.31,27.85,19.057643,124.76696872995471,-936.2520035811649,11.546198508600135,0.3125699921617557,1.1366910063729159,-1.1989767891681589
21518144,1853.0,1,190728,244226,1.58,2.72,10.71,-0.11,-0.12,0.35,27.85,19.09762,-19.832378216347067,-1371.8527789403445,11.162387737397408,0.38600518131237566,-0.1838215708489517,-1.7585823816481583
21558167,1918.0,1,190551,242917,1.66,0.85,11.33,-0.05,-0.04,0.24,27.85,19.137643,-28.241250044089885,-1650.6704508567143,11.482464892173631,0.2483948469674844,-0.26061321094470263,-2.116772580823078
21598168,1993.0,1,190031,241319,1.62,1.98,9.94,-0.1,-0.13,0.23,27.85,19.177644,95.73201591354395,-1746.4884316892849,10.263936866524462,0.2824889378365107,0.8715375241282681,-2.2398675819507385
21638167,2032.0,1,190223,242095,1.26,1.26,10.44,-0.0,-0.01,0.25,27.85,19.217643,107.86880504896124,-1665.9325182110304,10.590977292016067,0.2501999200639361,0.9823733130779922,-2.136379383031452
21678176,2039.0,1,190673,244219,1.78,1.41,9.52,-0.11,-0.12,0.21,27.85,19.257652,130.14128976801516,-1436.3715204064406,9.787078215688275,0.26570660511172844,1.185770470939394,-1.8414680204866745
21718167,2064.0,1,191104,244461,2.08,1.3,10.51,0.02,-0.07,0.17,27.85,19.297643,146.91094872143222,-1084.5703153152267,10.792427901079535,0.18493242008906932,1.338914631209579,-1.3895176729513306
21758144,2096.0,1,191202,246069,1.34,1.42,7.92,-0.15,-0.16,0.11,27.85,19.33762,191.87873837829179,-632.766952990532,8.157107330420509,0.24535688292770594,1.749570232813381,-0.8090970158721705
21798167,2106.5,1,191648,246382,2.49,1.6,10.59,0.09,0.0,0.06,27.85,19.377643,190.7390398848219,-133.0960399846655,10.99582648098814,0.10816653826391967,1.739162259149249,-0.16718209483671712
21838125,1914.0,1,192007,247531,1.57,0.97,8.91,-0.13,-0.12,0.16,27.85,19.417601,14.271033827292474,290.61709440801445,9.099115341614262,0.23853720883753127,0.1276181796122277,0.3771517379436759
21878191,1851.0,1,192360,248102,2.47,1.79,9.8,0.04,-0.0,0.18,27.85,19.457667,-54.06267007934483,462.800825120571,10.263771236733602,0.18439088914585774,-0.4964200153208335,0.5983519379694133
21918145,1865.0,1,192482,247281,1.61,1.58,9.59,0.04,-0.0,0.31,27.85,19.497621,-38.20886435559575,264.5997554014815,9.851730812400428,0.3125699921617557,-0.351639625248829,0.3437279030170766
21958144,1823.0,1,191678,246053,2.11,1.83,9.72,0.01,-0.01,0.37,27.85,19.53762,-65.40544596541051,-241.6085990348171,10.113327840033666,0.37027017163147236,-0.6000047031805993,-0.30658550808525903
21998144,1869.0,1,191116,243096,1.99,2.0,10.24,0.06,0.09,0.34,27.85,19.57762,-34.93435642894891,-794.4577717750346,10.621567680902853,0.3567912554982255,-0.32173610913574713,-1.0168172302585405
22038125,1856.0,1,190365,243577,1.76,1.67,9.34,-0.04,-0.08,0.3,27.85,19.617601,-23.065371889562687,-1073.5429423952694,9.649979274589143,0.31304951684997057,-0.21334596980177242,-1.3753510784330305
22078884,1840.0,1,190968,244665,1.58,2.17,9.67,-0.07,-0.05,0.23,27.59,19.65836,-53.33976947820164,-906.6058889472554,10.035646466471405,0.24556058315617352,-0.48981833034748906,-1.160891155526301
22119167,1808.0,1,191677,247601,1.9,1.43,9.95,-0.05,-0.05,0.18,27.59,19.698643,-70.65076498453466,-380.5659574642766,10.230219938984693,0.19339079605813717,-0.6479060933498559,-0.48510060560604357
22159167,1819.0,1,192229,248165,1.81,1.92,10.09,0.01,-0.01,0.24,27.59,19.738643,-59.39799552978688,231.83045648640908,10.429314454939021,0.24041630560342614,-0.5451433637291567,0.30162999141578856
22199145,1751.0,1,192659,249009,1.26,1.41,10.3,-0.01,-0.01,0.2,27.59,19.778621,-124.95425628592864,663.8041983232199,10.47213922749311,0.20049937655763422,-1.1438173458203016,0.8565760232199456
22239168,1598.5,1,192441,248460,1.85,1.36,9.73,-0.06,-0.05,0.22,27.59,19.818644,-272.8312290054133,811.6220658174383,9.99724962177098,0.23345235059857505,-2.49426191200559,1.0464739986081313
22279167,1627.0,1,192674,249084,1.28,1.87,10.52,-0.03,-0.06,0.15,27.59,19.858643,-236.76668086907713,753.3964469415488,10.761305682862094,0.16431676725154984,-2.1649126416832223,0.9716729794371031
22319167,1783.0,1,192481,248767,1.58,1.46,10.14,-0.03,0.0,0.24,27.59,19.898643,-89.79613713408928,647.4360633226305,10.365693416265021,0.24186773244895649,-0.8227457814465713,0.8355482831355882
22359145,1830.0,1,192586,249384,2.28,2.6,10.9,-0.03,-0.08,0.23,27.59,19.938621,-19.06692245014261,607.2716204190871,11.435401173548746,0.24535688292770594,-0.17683126288473003,0.7839500121060348
22399168,1902.0,1,192585,249058,2.3,1.87,11.59,-0.03,-0.02,0.25,27.59,19.978644,29.59212242404976,638.6556592523068,11.963068168325382,0.2525866188063018,0.26753368141779077,0.8242683141825123
22439167,1871.0,1,192525,249308,1.39,2.49,9.64,-0.12,-0.13,0.24,27.59,20.018643,28.929266472448305,659.2697328192501,10.052949815850072,0.2981610303175115,0.26148033719832386,0.8507507070165096
22479167,1898.0,1,192367,248637,2.36,1.79,10.95,0.04,0.02,0.23,27.59,20.058643,33.14049898877347,568.2376746980912,11.343553235208093,0.23430749027719963,0.2999382252929236,0.7338040629763102
22519125,1915.0,1,192256,248353,1.89,2.15,9.73,-0.09,-0.13,0.25,27.59,20.098601,72.53300913137551,317.94480710763463,10.142361657917746,0.2958039891549808,0.6596791659692561,0.4122589776949926
22559167,1923.0,1,191888,247434,1.99,1.73,9.87,-0.02,-0.01,0.25,27.59,20.138643,67.5560482074327,-47.77984181414342,10.216158769322254,0.25099800796022265,0.6142284800899563,-0.05757847536200736
22599167,1914.0,1,191466,246650,1.69,1.99,9.04,-0.05,-0.07,0.25,27.59,20.178643,70.61196744486544,-406.78675765178616,9.409452693966848,0.2643860813280457,0.6421357969155488,-0.5187858221030343
22639168,1931.0,1,191085,246024,2.32,1.89,9.92,0.04,0.03,0.26,27.59,20.218644,81.06153070940569,-618.3016479143104,10.361510507643178,0.26476404589747454,0.737563473517887,-0.7905137945477635
22679125,1907.0,1,191308,246505,2.0,2.24,10.18,0.01,-0.01,0.26,27.59,20.258601,64.75852960483583,-597.9963699819713,10.613670430157514,0.2603843313258308,0.5886809338682355,-0.7644281038636084
22719145,1923.0,1,191450,246852,1.77,2.14,10.2,-0.01,0.01,0.29,27.59,20.298621,75.51809126512589,-363.60908563647735,10.571305501214123,0.2903446228191595,0.686939583010569,-0.4633165298132982
22759145,1895.0,1,191766,247496,1.81,1.34,10.39,0.0,0.03,0.26,27.59,20.338621,52.31981500996082,-22.877222066077746,10.63126521162933,0.261725046566048,0.4750878961824884,-0.02558669282459194
22799125,1793.0,1,191996,248590,2.26,1.45,10.55,0.0,-0.03,0.27,27.59,20.378601,-49.59397279219753,287.53336107794723,10.886349250322626,0.2716615541441225,-0.455610903135378,0.3731901416499144
22839144,1775.0,1,192265,248983,1.47,1.91,10.69,-0.0,-0.03,0.27,27.59,20.41862,-75.631784787206,474.61303361630286,10.958334727503079,0.2716615541441225,-0.6933938457894385,0.6135267914308214
22879167,1759.0,1,192210,249145,1.92,2.65,10.29,-0.06,-0.07,0.27,27.59,20.458643,-71.24244949198548,531.4832826704775,10.797823854832972,0.2853068523537421,-0.653309484515421,0.6865866003583996
22917167,1767.0,1,192309,248617,2.01,1.12,10.76,-0.03,-0.05,0.18,27.59,20.496643,-100.71935503658834,526.3597724246861,11.003276784667374,0.189208879284245,-0.9224989748641159,0.6800045528762543
22957168,1839.0,1,191909,248834,1.89,2.46,9.28,-0.08,-0.195,0.15,27.59,20.536644,24.91690685774436,546.1362989413725,9.784789215920801,0.25869866640553063,0.2248385995456549,0.7054109696335276
22997167,2000.0,1,192387,248930,2.07,2.32,10.85,0.04,0.04,0.02,27.59,20.576643,116.26848002951871,633.1881169789492,11.286708997754836,0.060000000000000005,1.0590809655718936,0.8172442972239363
23037125,1847.0,1,192166,249175,2.33,2.59,9.52,-0.08,-0.13,0.23,27.59,20.616601,38.43644044208387,761.1671695691289,10.137425708729015,0.2760434748368452,0.3483019105032315,0.9816558354970334
23077163,1915.0,1,192536,248902,2.2,1.51,11.13,0.09,0.09,0.22,27.59,20.656639,30.875047786355587,866.561298326851,11.445392085900771,0.2541653005427767,0.2792496338915657,1.1170530781184371
23117813,1840.0,1,192360,249273,1.75,2.83,9.49,-0.07,-0.1,0.3,27.79,20.697289,17.619167761938755,906.1675394665591,10.05641586252279,0.3238826948140329,0.15819406438828842,1.1679342410838074
23158162,1886.0,1,192400,249074,2.07,1.6,10.59,0.01,0.02,0.26,27.79,20.737638,16.961412263192088,886.8120601989809,10.908391265443315,0.2609597670139978,0.15218729860977928,1.1430687333621183
23198125,1950.0,1,192172,248641,2.02,2.33,10.0,-0.03,-0.06,0.3,27.79,20.777601,103.57493489573243,837.4614285174531,10.464669129982084,0.30740852297878796,0.9431607601720523,1.079669191755169
23238162,1919.0,1,191891,248479,2.08,2.68,10.13,-0.01,-0.03,0.29,27.79,20.817638,66.81989943764927,749.2236758720908,10.682963072106915,0.2917190429162964,0.6075058099691403,0.9663123231694875
23278168,1869.0,1,191971,248049,1.91,1.6,10.67,-0.02,0.01,0.27,27.79,20.857644,2.0398502013583797,547.5817873557077,10.95705252337507,0.2709243436828813,0.015920359715751186,0.7072679530143767
23318145,1862.0,1,191462,245674,2.36,0.96,9.63,-0.06,-0.08,0.26,27.79,20.897621,18.788450014161715,141.19351819028392,9.961330232453896,0.2785677655436824,0.1688722033494286,0.18519094808774644
23358168,1871.0,1,190944,243344,1.47,1.17,9.01,-0.06,-0.02,0.25,27.79,20.937644,-7.792929297118203,-480.05007779338285,9.20379812903347,0.25787593916455254,-0.07387471385127875,-0.6129054058918469
23398167,1839.0,1,190079,241078,1.78,2.02,9.61,-0.0,0.06,0.29,27.79,20.977643,-4.538294495135362,-1184.8491526195983,9.980025050068763,0.29614185789921693,-0.04415268341999082,-1.5183434265709075
23438144,1857.0,1,189383,239451,2.12,0.32,8.77,-0.07,0.01,0.34,27.79,21.01762,-25.47193769313014,-1748.6878757581117,9.028272259962035,0.3472751070837068,-0.2353232503264418,-2.2426931536000256
23478145,1686.0,1,188987,238884,1.85,1.66,8.83,-0.02,0.07,0.43,27.79,21.057621,-164.43539385626147,-1990.7428873498843,9.173167391909951,0.4361192497471305,-1.5043676513760538,-2.5536552680794498
23518144,1689.0,1,189268,239422,1.22,1.11,8.79,-0.01,0.12,0.42,27.79,21.09762,-194.21074625572956,-1893.9584984611838,8.943410982393685,0.4369210454990695,-1.7762826230896693,-2.429318746313122
23558145,1716.0,1,189625,241551,1.81,1.18,10.4,0.01,0.16,0.32,27.79,21.137621,-139.52124348919605,-1605.5469074819537,10.622076068264622,0.3579106033634656,-1.2768462302542545,-2.0588034755013336
23598125,1801.0,1,190336,241683,1.52,0.24,10.5,0.02,0.11,0.26,27.79,21.177601,-89.4386230669513,-1314.8977188922195,10.612162833277672,0.2830194339616981,-0.8194808854967661,-1.6854136181245298
23638123,1867.0,1,189650,240907,0.86,1.01,9.57,-0.07,-0.14,0.36,27.79,21.217599,15.31739978561968,-1114.5874244788863,9.661500918594378,0.3925557285278104,0.1371738203362554,-1.4280799141324114
23678167,1899.0,1,190264,242808,1.27,-0.06,11.22,-0.03,0.06,0.2,27.79,21.257643,-5.500327374585125,-961.3623155655081,11.291806764198546,0.2109502310972899,-0.052938176189098185,-1.2312353888085505
23718167,1831.0,1,190149,243056,1.38,0.51,9.93,-0.13,-0.13,0.19,27.79,21.297643,-15.822108498544353,-755.3271334690648,10.038396286260072,0.2643860813280457,-0.1471989185877555,-0.9665470625452789
23758168,2032.0,1,190821,245021,1.21,1.07,10.33,-0.03,-0.01,0.18,27.79,21.337644,120.95714824755282,-448.9939230464878,10.455520073147964,0.18275666882497066,1.1018988999753854,-0.5730083284292172
23798167,2000.0,1,191427,245556,1.25,0.5,11.62,-0.05,0.05,0.17,27.79,21.377643,144.1666382695006,-87.92576596085985,11.697730549127893,0.1841195263952197,1.3138529933522316,-0.10915295580055996
23838144,2015.0,1,191212,245834,2.06,0.81,11.1,-0.06,-0.07,0.17,27.79,21.41762,114.14003777200031,234.20264556665285,11.318555561554664,0.19339079605813717,1.039643569551099,0.30467748432860486
23878167,1973.0,1,191705,246334,0.87,0.87,11.05,-0.07,0.0,0.16,27.79,21.457643,95.13309335356944,446.8514112859674,11.118286738522263,0.1746424919657298,0.8660680334982588,0.5778621186589162
23918144,1930.0,1,191683,246818,1.3,1.11,10.36,-0.08,-0.06,0.15,27.79,21.49762,45.560046268173394,538.6467900915785,10.500080952068894,0.18027756377319948,0.413356222899369,0.6957893819909957
23958167,1939.0,1,191921,246832,1.3,0.31,10.96,-0.03,0.01,0.15,27.79,21.537643,42.14590619522098,546.3132348690468,11.04118200194164,0.1532970971675589,0.38217755576192275,0.7056382748640004
23998145,1891.0,1,191773,247275,1.35,1.32,10.6,-0.05,-0.01,0.17,27.79,21.577621,13.656580764834,522.062886887698,10.766842619821281,0.1774823934929885,0.12200686106740588,0.6744844498076538
24038167,1887.0,1,191892,246889,1.29,0.41,10.67,-0.05,-0.03,0.17,27.79,21.617643,-15.619927240263099,505.04783392486513,10.755514864477664,0.1797220075561143,-0.14535255551574183,0.6526256301430344
24078168,1879.0,1,191797,246890,1.52,0.3,11.01,-0.08,-0.07,0.16,27.79,21.657644,-3.177160893960997,506.67812873320435,11.118475614939307,0.19209372712298547,-0.03172251635777359,0.654720029748695
24118854,1889.0,1,191918,247751,1.35,0.63,9.73,-0.09,-0.15,0.14,27.67,21.69833,-10.167818993829679,510.5380020009443,9.843388644161116,0.2240535650240808,-0.09556272130256231,0.6596787139133646
24157168,1886.0,1,191951,247180,1.24,1.36,9.62,-0.05,-0.1,0.07,27.67,21.736644,-5.27490741313066,485.86288102896845,9.794467826278261,0.1319090595827292,-0.05087959224287862,0.6279791934530248
24197167,1899.0,1,191714,247456,1.7,0.1,9.57,-0.06,-0.12,0.01,27.67,21.776643,4.399095518239896,410.66262436108275,9.720334356389188,0.1345362404707371,0.03746549929961645,0.53137127499241
24237167,1905.0,1,191969,247066,1.35,0.39,9.56,-0.02,-0.05,0.04,27.67,21.816643,6.590767786198079,294.47533000446504,9.662722183732699,0.0670820393249937,0.05748032548041459,0.3821083182323562
24277164,1893.0,1,191597,246202,1.29,1.05,8.94,-0.02,-0.06,0.13,27.67,21.85664,0.3514494733482,186.1368329044211,9.093415200022486,0.14456832294800961,0.0005015183183832969,0.2429285180860589
24317167,1867.0,1,191800,246644,1.42,0.02,9.91,-0.03,0.03,0.14,27.67,21.896643,-34.861943911827794,155.294056586823,10.011238684598425,0.14628738838327796,-0.3210748223344849,0.20330556263859478
24357144,1853.0,1,191770,246210,1.5,-0.33,9.73,-0.03,-0.04,0.14,27.67,21.93662,-41.11412303886555,251.41458017066563,9.850472069906093,0.14866068747318506,-0.3781710772391724,0.32678923299081397
24397176,1872.0,1,191976,247584,1.29,0.7,9.26,-0.02,-0.05,0.13,27.67,21.976652,-29.14887407710581,464.5398340113374,9.375590648060525,0.1407124727947029,-0.268901830335435,0.6005859998804439
24437164,1872.0,1,192449,248382,1.34,-0.09,9.67,-0.04,-0.01,0.13,27.67,22.01664,-27.06050836377925,719.9597834828313,9.762817216357172,0.13638181696985857,-0.249830422002514,0.9287177210357808
24477175,1902.0,1,192539,248861,1.79,-0.01,9.84,-0.02,-0.03,0.12,27.67,22.056651,4.588882110903945,919.7600869150526,10.001489889011536,0.12529964086141668,0.039198671598755716,1.1853962521694275
24517176,1903.0,1,192796,249250,1.14,0.28,9.42,-0.02,-0.0,0.13,27.67,22.096652,-1.4285816545713457,1006.5752611937894,9.49286047511497,0.13152946437965907,-0.015754111751212285,1.2969255693485529
24557168,1863.0,1,192736,248926,1.15,0.62,9.77,-0.01,0.02,0.12,27.67,22.136644,-32.40233836187708,999.9481229147779,9.856967079178057,0.12206555615733702,-0.2986131713498454,1.2884118479484585
24597145,1886.0,1,192702,248904,1.55,-0.26,10.36,-0.01,0.03,0.11,27.67,22.176621,-19.036124381272902,970.1718637131285,10.478535202975651,0.11445523142259598,-0.17655000824454345,1.2501590207843254
24637168,1874.0,1,192620,248416,0.85,0.08,9.74,-0.02,0.03,0.13,27.67,22.216644,-24.474060621086775,963.7254931350976,9.777346265730799,0.13490737563232041,-0.22621042062158886,1.2418775271995401
24677145,1867.0,1,192602,248573,0.92,0.59,9.86,0.0,0.01,0.16,27.67,22.256621,-33.98395863425155,941.1019271240365,9.920388097247002,0.16031219541881397,-0.31305687048242287,1.2128135888922884
24717125,1863.0,1,192729,248362,1.03,-0.46,10.52,-0.04,0.02,0.14,27.67,22.296601,-39.39751602683418,788.3331337637719,10.580307178905533,0.14696938456699069,-0.36249464994260605,1.0165552809259322
24757163,1839.0,1,192273,247449,0.99,0.13,10.04,-0.05,-0.02,0.13,27.67,22.336639,-59.98699751425657,406.3489463914176,10.089529225885615,0.1407124727947029,-0.5505222575134399,0.5258295990989456
24797167,1839.0,1,191893,245318,0.82,0.36,10.13,-0.03,0.01,0.14,27.67,22.376643,-61.38671185139401,-190.06890387822995,10.169508346031288,0.14352700094407325,-0.5633047522185796,-0.2403737305222862
24837144,1862.0,1,190583,243054,1.09,-0.2,9.77,-0.07,-0.02,0.18,27.67,22.41662,-40.5690771200827,-850.9390911315944,9.832649693749898,0.194164878389476,-0.3731935997739147,-1.0893773907782678
24877175,1905.0,1,190684,242457,0.75,-0.98,10.5,-0.03,0.03,0.1,27.67,22.456651,11.197625602598576,-1373.3031164166334,10.572270333282251,0.10862780491200216,0.09955114956434946,-1.7604455944995252
24917163,1918.0,1,190032,242079,1.0,0.53,9.1,-0.04,-0.09,0.09,27.67,22.496639,12.931549373849972,-1624.2904830928794,9.170109050605669,0.13341664064126332,0.11538571725940087,-2.0828828856591715
24957167,1914.0,1,190562,242796,0.73,-0.26,10.6,-0.01,0.06,0.08,27.67,22.536643,22.011206613250916,-1609.7158197475403,10.628287726628406,0.1004987562112089,0.19830311512251186,-2.064159174458612
24997163,2000.0,1,190228,242846,1.13,-0.34,9.32,-0.1,-0.07,0.07,27.67,22.576639,101.94867014422663,-1443.2028923728117,9.39440791109264,0.1407124727947029,0.9283093579796655,-1.8502441158770928
25037175,1971.0,1,191037,244693,0.95,-0.26,10.17,-0.04,-0.01,0.07,27.67,22.616651,73.11696596763734,-1251.8925842837257,10.217582884420366,0.08124038404635961,0.6650119863666042,-1.6044724727539876
25077176,1946.0,1,190548,243397,0.72,0.42,8.76,-0.09,-0.07,0.06,27.67,22.656652,59.75272708987043,-1096.288508038678,8.79956817122295,0.12884098726725127,0.542966860328502,-1.4045717466645709
25117167,2000.0,1,191060,245311,1.07,-1.34,10.38,-0.04,0.09,0.06,27.67,22.696643,100.27490529571455,-957.490038357884,10.520689140926084,0.11532562594670795,0.9130241746060999,-1.2262607696076722
25157853,1872.0,1,190966,244551,0.77,-0.57,9.41,-0.08,-0.09,0.05,27.67,22.737329,-11.803794148094202,-783.7168440256837,9.458641551512564,0.130384048104053,-0.1105028009976044,-1.0030186247992086
25196176,1719.0,1,191651,246600,0.72,-0.85,10.03,-0.04,0.02,-0.16,27.67,22.775652,-168.05283693960712,-544.6942817784704,10.09166983209419,0.1661324772583615,-1.5374029256689323,-0.6959522233398739
25236177,1598.5,1,191672,245497,0.73,-0.67,10.11,-0.06,0.01,-0.03,27.67,22.815653,-293.92449517369784,-251.4184146416019,10.158439840841703,0.06782329983125268,-2.6868901904739015,-0.31918793669716367
25276176,1598.5,1,192021,247432,0.8,-1.82,10.36,-0.03,0.01,-0.07,27.67,22.855652,-269.8631849245912,58.510012383124575,10.549028391278506,0.07681145747868609,-2.4671570901564985,0.07896948368060373
25316176,1872.0,1,192408,247080,0.57,0.13,9.63,-0.01,0.01,-0.07,27.67,22.895652,-24.535227649752553,341.932827776168,9.647730303029828,0.07141428428542851,-0.22676901118489512,0.4430757973105415
25356167,2032.0,1,192275,248133,0.88,-0.73,9.85,-0.05,-0.02,0.03,27.67,22.935643,171.29679349328794,559.2898271602749,9.91613836127754,0.061644140029689765,1.56161145112934,0.7223089835226715
25396174,2105.0,1,192799,248077,0.56,-0.91,10.3,-0.01,0.05,0.04,27.67,22.97565,220.76907046054623,678.7390699404233,10.355274018585892,0.06480740698407861,2.01340300716817,0.8757624851197585
25436167,2065.0,1,192659,248309,0.55,-0.45,9.54,-0.02,-0.03,0.04,27.67,23.015643,197.67899182422207,688.0816453851749,9.566430891403543,0.053851648071345036,1.8025394044464298,0.8877646617980216
25476176,2038.0,1,192951,245785,0.43,0.04,10.65,0.0,0.08,0.08,27.67,23.055652,175.7591023682935,607.8500786192242,10.658752272193965,0.1131370849898476,1.602362222950473,0.7846931431152616
25516125,2074.0,1,191845,246205,0.79,-1.61,10.32,-0.05,-0.05,0.09,27.67,23.095601,199.2378507073342,483.84631071595146,10.474664672437013,0.11445523142259598,1.8167752416388898,0.6253885552158385
25556173,2054.0,1,192590,246110,0.47,-0.37,10.42,-0.02,-0.01,0.03,27.67,23.135649,206.68824688491569,355.4824775981037,10.437154784710247,0.03741657386773942,1.8848138743544003,0.46048269887137694
25596176,2043.0,1,192114,246681,0.28,-0.31,9.27,-0.05,-0.07,0.02,27.67,23.175652,174.28643455819812,228.628328240775,9.27940730865932,0.08831760866327848,1.5889135013181208,0.2975162960886454
25636176,2020.0,1,192312,245244,0.75,-0.74,10.77,-0.03,0.03,0.02,27.67,23.215652,171.52801627242286,81.47668716833333,10.821413955671412,0.0469041575982343,1.5637230276643381,0.10847420538334797
25676168,2017.0,1,191324,245053,0.81,-0.96,9.29,-0.06,-0.12,0.05,27.67,23.255644,167.92673642175322,-103.33607707009541,9.374529321517961,0.14317821063276354,1.5308353595155257,-0.1289502031114127
25716178,1840.0,1,191870,244964,0.44,-0.37,9.67,-0.0,0.04,0.02,27.67,23.295654,-17.614619015818477,-310.2855880865109,9.68707386159515,0.044721359549995794,-0.1635685131457584,-0.39481314522921496
25756168,1598.5,1,191219,243897,0.87,-0.36,9.56,-0.03,-0.07,0.06,27.67,23.335644,-233.1409974632734,-485.1536702936853,9.606253171762651,0.09695359714832658,-2.131802114979624,-0.6194618655366978
25796177,1598.5,1,191418,244872,0.85,-1.07,9.77,-0.01,-0.0,0.02,27.67,23.375653,-258.0787551649337,-552.502336534883,9.865105169231597,0.022360679774997897,-2.3595391233976697,-0.7059830390666727
25836178,1598.5,1,191185,244460,0.76,0.14,9.2,-0.06,-0.06,0.06,27.67,23.415654,-234.18778168221462,-450.29667346837215,9.2323994714267,0.10392304845413264,-2.1413615753502335,-0.5746819398250901
25876168,1598.5,1,191556,245630,0.69,-0.38,9.44,-0.04,0.03,0.11,27.67,23.455644,-238.9289102120551,-168.34456523440093,9.472808453674126,0.12083045973594572,-2.184658588691551,-0.21246500747652983
25916168,1598.5,1,191656,246016,0.64,-1.06,10.01,-0.06,0.01,0.03,27.67,23.495644,-251.46105990972967,234.1720983374118,10.086292678680309,0.06782329983125268,-2.2991048959874756,0.30463824105521087
25956168,1598.5,1,192497,248470,0.73,-1.16,9.64,-0.1,0.01,0.01,27.67,23.535644,-214.6769966302303,651.7696433878535,9.736945106140837,0.10099504938362078,-1.9631848574278112,0.8411155267612658
25996168,1687.0,1,192650,247879,0.77,0.1,10.15,-0.04,-0.03,0.1,27.67,23.575644,-177.4689847617599,984.0900591964688,10.179656182799103,0.1118033988749895,-1.6233932284657395,1.268039383883507
26036168,1646.0,1,192420,248285,0.53,-1.0,10.46,-0.05,-0.0,0.15,27.67,23.615644,-157.6668164202614,1173.0457894117774,10.521050327795226,0.15811388300841897,-1.442555535188161,1.51078615877719
26076180,1934.0,1,192352,247592,0.51,-1.11,10.71,0.08,-0.05,0.05,27.67,23.655656,71.96350886173157,1195.857722270102,10.77943876090031,0.10677078252031312,0.6544783660716236,1.5400920873359043
26116168,2106.5,1,192411,247835,0.4,-0.06,10.25,-0.08,0.02,0.04,27.67,23.695644,292.3373717234136,1034.5812464107264,10.257977383480625,0.09165151389911681,2.666980246234927,1.332904169105147
26156168,2106.5,1,191953,244643,0.34,-0.59,10.93,0.01,0.01,0.01,27.67,23.735644,259.7772991553706,670.3492212835995,10.951191715973199,0.017320508075688773,2.369634606373051,0.8649842530917092
26196833,2106.5,1,191010,244428,0.68,-1.2,10.58,-0.09,-0.01,0.03,27.61,23.776309,272.0875244803025,118.18143926538114,10.66952669990567,0.09539392014169455,2.4820542521965168,0.15562789680449682
26235176,2106.5,1,190702,241677,0.31,-0.66,9.95,-0.02,-0.03,0.01,27.61,23.814652,275.843277380893,-534.5064884559087,9.976682815445221,0.03741657386773942,2.5163526017181717,-0.6828642160615697
26275176,1938.0,1,189424,239847,0.45,-0.1,8.49,-0.15,-0.02,0.03,27.61,23.854652,84.97742685557775,-1133.448393861606,8.5025055130826,0.15427248620541514,0.7733242858681332,-1.4523101371788718
26315176,1765.0,1,189196,238593,0.4,-1.02,9.75,0.03,-0.09,-0.1,27.61,23.894652,-58.32112696444974,-1515.0893798346044,9.81136585802405,0.13784048752090222,-0.5353091665866851,-1.942594916617041
26355173,1727.0,1,188883,238884,0.37,-1.04,7.92,-0.1,-0.01,-0.16,27.61,23.934649,-134.18052991867341,-1577.3908786891868,7.99655550846738,0.18894443627691185,-1.2280736763655178,-2.0226321184566447
26395200,1598.5,1,189715,239301,0.22,-0.55,9.16,0.09,-0.02,-0.03,27.61,23.974676,-233.3554630248411,-1316.8300644109124,9.17913394607574,0.09695359714832658,-2.1337606609717867,-1.6878960548418949
26435176,1598.5,1,189043,238435,0.43,-0.01,8.9,-0.08,-0.01,0.13,27.61,24.014652,-255.63553725280477,-817.2797354089896,8.910387196974103,0.15297058540778355,-2.337227127873526,-1.0461360451077695
26475180,1598.5,1,189827,241723,0.12,-2.12,10.07,0.01,0.03,0.04,27.61,24.054656,-256.42234676854207,-207.96106122574975,10.2914381890968,0.05099019513592785,-2.3444124429067594,-0.2633593445973489
26515146,1606.0,1,190537,243107,0.15,-0.38,9.31,-0.07,0.0,0.0,27.61,24.094622,-233.4611919558185,390.66996212612855,9.318959169349332,0.07,-2.134726200485487,0.5056871939987091
26555168,1733.0,1,191457,243796,-0.28,-0.79,10.51,0.03,0.05,0.09,27.61,24.134644,-145.26515335585066,916.0096506384913,10.543367583462127,0.10723805294763608,-1.3293008601092766,1.1805781590132043
26595168,1781.0,1,190532,243904,0.5,-0.22,9.88,-0.09,-0.04,0.06,27.61,24.174644,-52.22760095553306,1374.6490441369233,9.895089691357022,0.11532562594670795,-0.4796617663436453,1.7697808970517854
26635179,1954.0,1,191564,245997,0.25,-1.75,11.87,0.02,0.07,-0.04,27.61,24.214655,67.12558130206673,1791.442663168536,12.000912465308627,0.08306623862918075,0.6102973630094303,2.305225398792509
26675168,2007.0,1,191327,246411,-0.2,-0.17,9.6,-0.06,-0.05,-0.05,27.61,24.254644,163.00778258119834,2130.1725160090423,9.603587871207301,0.09273618495495704,1.4859144068943586,2.7403833018820403
26715214,2081.0,1,192172,246533,-0.09,-1.76,11.92,0.04,0.1,0.05,27.61,24.29469,202.12626682710848,2263.6819507815544,12.049568457002932,0.11874342087037919,1.843152883688883,2.9118995859977796
26755167,2106.5,1,190983,244718,-0.5,-0.56,10.72,-0.14,-0.01,0.25,27.61,24.334643,240.796985115376,2032.8072481677293,10.74625516168307,0.286705423736629,2.196302264708041,2.615300539225374
26795197,2106.5,1,190577,242845,-0.49,-1.08,11.92,0.01,-0.03,0.14,27.61,24.374673,241.81658669537035,1351.2623393366923,11.978852198770966,0.14352700094407325,2.205613487328139,1.7397365731290448
26835176,2106.5,1,189175,238626,-1.12,-0.83,10.93,-0.14,-0.05,0.15,27.61,24.414652,221.8231157348582,279.42989119171153,11.018538923105913,0.21118712081942875,2.0230287770702087,0.36277981337836435
26875197,2106.5,1,187626,234437,-0.46,-1.23,10.23,-0.04,-0.05,-0.04,27.61,24.454673,249.2524788683837,-973.8424840079492,10.313942020391622,0.0754983443527075,2.273519666330291,-1.2472683539696519
26915209,2069.0,1,186834,233153,-0.47,-1.4,8.85,-0.08,-0.17,-0.05,27.61,24.494685,179.24409795744432,-2111.4461170155237,8.972368695054834,0.19442222095223582,1.6341879580192862,-2.708719735757666
26955213,1878.0,1,186243,230664,-0.88,-0.41,8.09,-0.06,-0.05,-0.17,27.61,24.534689,15.685668877158205,-2843.660038328549,8.148042709755515,0.18708286933869708,0.14053693349996343,-3.649376934819385
26995215,1840.0,1,185141,228975,-0.38,-1.2,8.3,-0.04,-0.07,-0.19,27.61,24.574691,-41.76542232891244,-2998.2422657481284,8.394903215642216,0.20639767440550294,-0.3841188835204966,-3.8479649168786065
27035211,1744.0,1,185205,230898,-0.51,-1.46,8.08,-0.04,-0.03,-0.16,27.61,24.614687,-126.43076930725084,-2608.011901355562,8.226670043219189,0.1676305461424021,-1.1573011827550002,-3.3466455744382158
27075209,1666.0,1,186939,233395,-0.41,-2.1,9.18,-0.02,0.06,-0.03,27.61,24.654685,-210.5513896341619,-1908.8367698251564,9.426054317687756,0.06999999999999999,-1.9255089201429354,-2.4484324952609944
27115196,1703.0,1,187194,234765,-0.33,-1.45,9.29,-0.02,0.0,0.1,27.61,24.694672,-160.40812623927738,-1209.9305705688178,9.408267640750873,0.10198039027185571,-1.4675897706153562,-1.5505649067556893
