timestamp_us,ecg,leads,ir,red,accX,accY,accZ,gyroX,gyroY,gyroZ,temp,time_sec,ecg_filtered,ppg_filtered,accel_magnitude,gyro_magnitude,ecg_norm,ppg_norm
1953972,1555.25,1,198255.0,246180,1.07,-0.62,10.68,0.09,0.03,0.04,25.61,0.030471,7.709970526539869,-47.57797363328092,10.751358053753023,0.10295630140987,0.11141380479408916,-0.06540853782109358
1994166,1555.25,1,198145.0,245412,0.75,-0.19,10.01,0.03,0.03,0.03,25.61,0.070665,-1.3997282739446266,-32.08211469021056,10.039855576650492,0.05196152422706632,-0.012042975229009144,-0.043277544755752066
2034174,1555.25,1,198276.0,245753,0.87,-0.31,10.77,0.01,0.02,-0.02,25.61,0.110673,-11.33421045835807,-39.53673928242175,10.809528204320483,0.03,-0.14667741359477485,-0.053924146906756246
2074171,1555.25,1,198009.0,244926,1.12,-0.37,9.9,-0.04,-0.0,-0.04,25.61,0.15067,-20.214064175610527,-72.96637118326585,9.97002006016036,0.0565685424949238,-0.26701927900857136,-0.10166793151995757
2114198,1555.25,1,197814.0,244667,0.98,-0.36,10.47,-0.01,0.04,-0.03,25.61,0.190697,-30.869762842644267,-113.28835544719921,10.521924728869715,0.05099019513592785,-0.4114278127197453,-0.15925528807788356
2154181,1555.25,1,197757.0,244920,0.92,-0.5,9.74,-0.04,-0.0,-0.03,25.61,0.23068,-40.271270018946595,-135.76440182303338,9.796121681563578,0.05,-0.538839248462122,-0.19135529804230839
2194199,1555.25,1,197946.0,244744,0.97,-0.11,10.39,-0.03,0.02,-0.03,25.61,0.270698,-50.70361488684509,-124.87980058035461,10.435760633513976,0.04690415759823429,-0.6802208389723092,-0.17581004588779944
2234181,1555.25,1,197764.0,244596,0.71,-0.72,9.89,-0.07,0.03,-0.05,25.61,0.31068,-61.92812087708262,-74.87699665463,9.941559233842547,0.091104335791443,-0.8323379832659278,-0.10439666306124035
2274179,1555.25,1,197816.0,245080,0.81,-0.6,9.63,-0.03,0.03,-0.03,25.61,0.350678,-71.11031400999725,14.0319502480423,9.682613283613057,0.05196152422706632,-0.956777223527039,0.022581989401892384
2314182,1555.25,1,197822.0,244390,0.6,-0.31,10.14,0.01,0.05,-0.01,25.61,0.390681,-84.43203914142593,127.62867717243394,10.162465252093117,0.05196152422706632,-1.1373163747217525,0.1848194223215727
2354170,1555.25,1,197804.0,245121,0.64,-0.58,10.34,-0.02,0.0,-0.01,25.61,0.430669,-93.50273566701969,223.61870798133307,10.376010794134709,0.022360679774997897,-1.2602445867452885,0.3219111907726312
2394182,1555.25,1,197887.0,244184,0.5,-0.66,10.98,-0.0,-0.01,-0.01,25.61,0.470681,-105.97976997439284,238.894685914254,11.011176140630937,0.01414213562373095,-1.4293362892880876,0.34372815251330113
2434198,1555.25,1,197573.0,244847,0.57,-0.88,10.04,-0.13,-0.09,-0.03,25.61,0.510697,-119.1391191181586,133.73714486183135,10.094597565034476,0.1609347693943108,-1.6076748829200342,0.1935434599222358
2474202,1555.25,1,197994.0,244544,0.54,-0.64,10.71,0.01,0.02,-0.02,25.61,0.550701,-126.17612836879103,-54.03949374110137,10.742685883893284,0.03,-1.70304208683128,-0.07463680049585726
2514171,1555.25,1,197179.0,242737,0.82,-0.24,7.92,-0.19,-0.04,-0.05,25.61,0.59067,-146.08929626584643,-203.85999107135154,7.965952548189073,0.20049937655763422,-1.9729100201705296,-0.28860857189898637
2554202,1555.25,1,196845.0,244212,1.15,-0.98,9.29,0.09,0.04,-0.04,25.61,0.630701,-148.3571764608691,-189.35356009665347,9.41206672309541,0.1063014581273465,-2.003644865799099,-0.26789066755542196
2594171,1555.25,1,197685.0,244294,1.655,0.7699999999999999,12.959999999999997,0.13,0.05,-0.09,25.61,0.67067,-169.1886119440055,8.184656798127653,13.087915227414943,0.16583123951776998,-2.2859573773686535,0.014230957602590445
2634151,1555.25,1,197441.0,246827,1.13,0.55,9.31,-0.19,-0.17,-0.09,25.61,0.71065,-176.2672157788137,251.24784715403524,9.394439844929554,0.27037011669191546,-2.3818882808643975,0.36137078379544124
2672181,1731.0,1,198368.0,245567,1.27,-1.01,12.93,0.13,0.07,-0.09,25.61,0.74868,-10.783819826939533,322.594728430474,13.03141972311536,0.17291616465790582,-0.1392183903495498,0.46326751249977155
2712171,1925.25,1,196888.0,242988,0.66,-0.33,6.720000000000002,-0.19,-0.21000000000000002,-0.09,25.61,0.78867,163.31124238139964,78.63342653523114,6.760392000468615,0.2971531591620725,2.2201588260540746,0.11484501457365612
2752205,1925.25,1,197163.0,241916,0.62,-0.07,10.2,0.13,0.05,0.02,25.61,0.828704,165.80948624582788,-434.81050183648546,10.219065515006742,0.1407124727947029,2.2540156142937,-0.6184492197106353
2792152,1925.25,1,196252.0,240242,-0.41,-1.2,6.720000000000002,-0.19,-0.03,-0.04,25.61,0.868651,139.34955372203754,-986.2320727286375,6.838603658642606,0.196468827043885,1.8954243874529317,-1.4059826508245827
2832216,1925.25,1,196470.0,241804,0.68,-0.35,9.72,0.1,0.17,-0.0,25.61,0.908715,141.17797436278892,-1279.1260538336874,9.750041025554713,0.1972308292331602,1.9202035738759702,-1.8242901927640278
2872171,1925.25,1,196077.0,239828,0.59,-0.36,6.720000000000002,-0.16,0.19,-0.08,25.61,0.94867,125.94070774960662,-1121.2810861078576,6.75544965194768,0.2609597670139978,1.713704554137041,-1.5988579725190468
2912182,1925.25,1,196343.0,243310,1.655,-1.71,11.59,0.13,-0.18,0.06999999999999999,25.61,0.988681,111.30992440843073,-547.1762098592633,11.831788748959307,0.23280893453645632,1.5154247382971258,-0.7789285267416503
2952171,1925.25,1,197774.0,245994,0.81,-0.69,10.62,0.12,0.06,-0.09,25.61,1.02867,118.34503054378297,189.99381705565423,10.673171974628723,0.16155494421403513,1.6107661507426325,0.27388853964803234
2992859,1925.25,1,198856.0,247721,-0.13,-0.96,10.5,-0.19,-0.08,-0.09,26.05,1.069358,84.358484039533,768.8734428021066,10.544595772242765,0.22494443758403987,1.1501724815757843,1.1006372232885286
3033218,1776.0,1,198267.0,246359,-0.465,-0.82,12.959999999999997,0.09,0.08,-0.09,26.05,1.109717,-40.14425141368222,994.1472941174753,12.99423814619387,0.15033296378372907,-0.5371178624588734,1.4223705366582078
3073206,1738.0,1,197857.0,246642,0.12,-1.69,12.72,-0.17,-0.21000000000000002,0.06999999999999999,26.05,1.149705,-120.18441142246793,888.2017933873534,12.832338056644238,0.27910571473905726,-1.6218409299979126,1.2710604898530264
3113184,1781.0,1,198090.0,246345,0.21,0.36,12.959999999999997,-0.04,0.1,-0.02,26.05,1.189683,-49.16002397113613,624.1437948978671,12.966699657198816,0.10954451150103323,-0.6593017319524154,0.8939361397354669
3153171,1925.25,1,198226.0,246585,0.57,-2.1,11.75,-0.19,-0.21,0.06,26.05,1.22967,60.065463873411815,383.57127198737373,11.949786608973401,0.28948229652260254,0.8209477604921405,0.550353453818934
3193184,1925.25,1,197910.0,245871,-0.24,-1.49,12.959999999999997,-0.14,0.09,-0.03,26.05,1.269683,78.97389514267479,258.4432973250273,13.047578319366393,0.16911534525287764,1.0771992668171486,0.37164723626066243
3233202,1925.25,1,197765.0,245735,-0.01,-2.2699999999999996,11.32,-0.07,-0.21000000000000002,-0.01,26.05,1.309701,59.29330948727619,235.8963650828658,11.545362705432861,0.2215851980616034,0.8104833427017359,0.3394459879833513
3273221,1925.25,1,197703.0,245448,-0.17,-1.47,9.48,-0.19,-0.13,0.01,26.05,1.34972,65.75422761005004,231.02004689312182,9.5948006753658,0.23043437243605827,0.898043224197282,0.33248169097741587
3313202,1925.25,1,197693.0,245327,0.71,-1.41,9.03,-0.08,-0.16,-0.02,26.05,1.389701,60.47595183290012,137.502777964654,9.16695696510025,0.18,0.8265107898333502,0.19892149029740622
3353202,1925.25,1,197647.0,245016,-0.09,-1.13,6.720000000000002,-0.19,-0.21000000000000002,-0.08,26.05,1.429701,58.26747609721797,-104.1542939655641,6.81493947148469,0.29427877939124325,0.7965810074049827,-0.1462101350437003
3393216,1925.25,1,197553.0,244343,1.12,-0.85,8.92,-0.02,0.07,-0.01,26.05,1.469715,62.38465266295089,-436.85645874633434,9.03013288938762,0.07348469228349536,0.8523779522573098,-0.6213712299296366
3433182,1925.25,1,197404.0,243898,0.51,-1.33,7.21,-0.17,-0.03,0.0,26.05,1.509681,56.391861036502185,-675.1423215376939,7.349360516398688,0.1726267650163207,0.7711622311062005,-0.9616881362965969
3473206,1925.25,1,196757.0,242531,1.05,0.05,7.92,-0.05,-0.06,-0.02,26.05,1.549705,64.77109931630459,-603.5375403913963,7.989455550912089,0.0806225774829855,0.8847196384066123,-0.8594230782048885
3513181,1925.25,1,197410.0,244083,0.91,-2.2699999999999996,9.12,-0.03,-0.04,0.0,26.05,1.58968,61.00826023499396,-146.60835826331444,9.442213723486669,0.05,0.8337247584552602,-0.20684250179541475
3553182,1925.25,1,198806.0,245246,1.37,-0.73,8.49,-0.04,-0.02,-0.03,26.05,1.629681,64.88340309836941,521.917582259298,8.630753153694062,0.053851648071345036,0.8862416056661008,0.7479379339366192
3593203,1925.25,1,199234.0,245710,1.21,-0.84,8.95,-0.02,0.04,-0.09,26.05,1.669702,74.62798020369858,1043.5033491226848,9.070402416651644,0.1004987562112089,1.0183024057494976,1.4928602407182316
3633181,1925.25,1,198895.0,244759,1.06,-1.19,6.720000000000002,0.03,0.15,-0.02,26.05,1.70968,61.03769625045435,1086.512078235655,6.906381107352826,0.15427248620541514,0.8341236822577965,1.5542847728622822
3673182,1859.0,1,198556.0,243991,0.36,-0.64,8.4,0.09,0.19000000000000003,0.01,26.05,1.749681,28.359421971765858,557.0701484450144,8.432034155528546,0.21047565179849193,0.3912600258936638,0.7981423918723277
3713151,1744.0,1,197796.0,243391,0.61,-1.12,7.05,-0.01,0.12,-0.09,26.05,1.78965,-121.52178591948667,-331.5437958232491,7.164426006317603,0.15033296378372907,-1.639965343625964,-0.47096499421169274
3753182,1565.0,1,197097.0,240494,0.45,0.56,8.56,0.13,0.16,-0.05,26.05,1.829681,-250.29639509850273,-1165.5238949411355,8.590093131043458,0.21213203435596428,-3.385149124798697,-1.6620450019749626
3793151,1641.0,1,196378.0,241301,0.06,-1.92,8.32,0.08,0.04,-0.01,26.05,1.86965,-212.55887337302207,-1544.2437675409678,8.538875804226222,0.09,-2.873721357501739,-2.2029280149790296
3833171,1603.0,1,197055.0,242670,-0.12,-0.68,9.45,0.04,0.03,-0.09,26.05,1.90967,-209.33269165099261,-1284.6515237415963,9.475193929413791,0.10295630140987,-2.8299993842626296,-1.832181600182225
3873182,1600.0,1,197700.0,244349,-0.06,-0.95,11.1,0.08,-0.03,-0.07,26.05,1.949681,-228.77952982727567,-510.588487034895,11.140740549891644,0.11045361017187261,-3.093547507582193,-0.7266743959395088
3911202,1601.0,1,198617.0,245816,-0.1,-0.58,12.959999999999997,0.04,0.02,-0.09,26.05,1.987701,-212.80491301607665,418.8998426362631,12.973357314126513,0.1004987562112089,-2.8770557445934326,0.600809279140488
3951181,1622.0,1,199456.0,247506,0.33,-0.31,12.959999999999997,-0.01,-0.04,-0.06,26.05,2.02768,-183.49355296830106,1102.354394305259,12.967906538836557,0.07280109889280519,-2.479821301517927,1.5769105716878542
3991203,1737.0,1,199898.0,247977,-0.1,-0.79,12.959999999999997,0.04,-0.03,-0.03,26.05,2.067702,-68.63033926226834,1301.7169648905824,12.984440688762836,0.05830951894845301,-0.9231680226523707,1.8616377161024922
4031889,1806.0,1,199278.0,246981,0.38,0.14,12.959999999999997,-0.05,-0.1,-0.03,25.99,2.108388,12.46330974192246,1043.4574299186525,12.966325616765912,0.11575836902790226,0.17583217544948831,1.492794659481997
4072199,1785.0,1,198861.0,246525,-0.05,-1.33,12.959999999999997,-0.03,-0.08,-0.0,25.99,2.148698,-1.9026073740704688,559.8933824827138,13.028161804337552,0.08544003745317531,-0.01885811103121018,0.802174499620579
4112216,1773.0,1,198479.0,245432,0.34,-0.65,11.05,-0.14,-0.08,-0.07,25.99,2.188715,-12.985103808535087,119.54858541292884,11.074321649654214,0.17578395831246946,-0.16905070843560538,0.1732795357393644
4152203,1802.0,1,198333.0,245577,0.44,-0.8,10.7,-0.06,-0.09,-0.04,25.99,2.228702,31.39897323488818,-132.08724488942778,10.738882623438995,0.11532562594670795,0.43245273927297617,-0.1861036282318917
4192202,1825.0,1,198392.0,245375,0.48,-0.95,9.33,-0.12,-0.01,-0.09,25.99,2.268701,55.26888793603675,-219.0632865412833,9.390516492717534,0.15033296378372907,0.7559434356144501,-0.31032172944975656
4232203,1792.0,1,198195.0,245442,0.85,-0.39,8.32,-0.06,-0.17,-0.02,25.99,2.308702,26.043427739193106,-260.14238238498507,8.37239511728872,0.18138357147217055,0.35987312751560857,-0.3689903833519022
4272202,1819.0,1,198276.0,245230,0.53,-1.19,8.33,-0.07,-0.03,0.0,25.99,2.348701,74.80263222079665,-351.31548336003897,8.43124545959848,0.07615773105863909,1.0206693309495185,-0.4992026725084787
4311182,1841.0,1,197863.0,244778,0.82,-0.78,7.32,-0.06,-0.13,-0.02,25.99,2.387681,76.05222371692717,-498.3537398750933,7.406969690770984,0.14456832294800961,1.0376040887099305,-0.7092008821740221
4351202,1779.0,1,197924.0,244770,0.57,-1.19,8.03,-0.01,0.01,-0.01,25.99,2.427701,54.51987685885562,-635.0459590197217,8.137683945693638,0.017320508075688773,0.7457926613884683,-0.904423009910848
4391181,1925.25,1,197787.0,245199,1.03,-0.65,7.93,-0.04,-0.05,-0.04,25.99,2.46768,173.09200406760326,-691.2421087231075,8.022985728517781,0.0754983443527075,2.352710008085227,-0.9846816521683454
4431202,1925.25,1,198052.0,245062,0.46,-1.31,8.73,-0.03,0.04,-0.04,25.99,2.507701,204.56352746451284,-645.895642897963,8.839717190046297,0.06403124237432849,2.7792194927673566,-0.9199183935196334
4471182,1925.25,1,197880.0,245484,0.42,-0.91,7.64,-0.02,-0.05,-0.04,25.99,2.547681,196.6164878559869,-527.4899687498993,7.705459103778307,0.0670820393249937,2.6715193434789457,-0.7508128819700639
4511202,1925.25,1,198405.0,245753,0.97,-0.54,10.29,0.03,0.04,-0.03,25.99,2.587701,203.5616082332125,-375.0609182693669,10.349714971920724,0.05830951894845301,2.765641247772804,-0.5331156073927279
4551171,1826.0,1,198303.0,246242,0.32,-1.41,7.7,-0.04,-0.05,-0.09,25.99,2.62767,113.95672158058386,-203.753622485111,7.834570824237917,0.11045361017187261,1.5512947558909993,-0.2884566576067159
4591203,1851.0,1,198696.0,246085,0.44,-0.45,10.54,0.08,0.13,-0.02,25.99,2.667702,138.94769404488565,-8.504725144000925,10.558773603027957,0.15394804318340652,1.8899782906226332,-0.009604610169614626
4631171,1925.25,1,198276.0,246406,0.84,-0.3,9.31,0.02,-0.07,-0.08,25.99,2.70767,214.84759224942462,201.69422579593072,9.352630645973356,0.10816653826391968,2.918591556729188,0.2905989179267735
4671182,1881.0,1,199175.0,248427,0.56,-0.84,11.36,0.05,0.12,-0.01,25.99,2.747681,185.9304364266312,382.5364808651375,11.404770931500554,0.13038404810405296,2.526699461996221,0.5488755780048585
4711171,1818.0,1,199330.0,247085,0.58,-0.01,10.5,-0.03,-0.03,-0.09,25.99,2.78767,105.26873816022089,479.54917384804304,10.516011601362942,0.09949874371066199,1.4335531618533315,0.6874278998569432
4751203,1648.0,1,199028.0,247155,0.15,-1.47,11.71,0.03,-0.0,0.0,25.99,2.827702,-37.25034850936886,477.4977684097163,11.802859822941219,0.03,-0.497899009883087,0.6844981081173175
4791171,1584.0,1,198763.0,246204,0.33,-0.4,12.14,-0.03,-0.02,-0.02,25.99,2.86767,-124.1146568912092,415.0382221206544,12.151069911740283,0.0412310562561766,-1.675104540672435,0.5952941607358941
4831202,1555.25,1,198645.0,247258,0.58,-0.75,12.87,0.02,-0.06,-0.0,25.99,2.907701,-132.13967747555287,342.9386790473739,12.904875047825918,0.06324555320336758,-1.7838615064800707,0.492322489811991
4871182,1555.25,1,199011.0,247699,0.39,-0.51,12.06,-0.11,-0.01,-0.03,25.99,2.947681,-144.11678155610528,275.24872670624234,12.077077461041641,0.11445523142259596,-1.9461780370450406,0.3956485415424247
4911215,1555.25,1,198828.0,247297,0.85,-0.1,12.959999999999997,-0.01,-0.1,-0.05,25.99,2.987714,-139.04163862897266,194.11531976066726,12.988229286550185,0.11224972160321825,-1.877398506825285,0.2797748185641307
4951203,1555.25,1,198474.0,247449,0.77,-0.58,10.73,-0.08,-0.21,-0.06,25.99,3.027702,-139.9065878766668,102.60616998031207,10.773216789798672,0.23259406699226012,-1.889120502397525,0.1490825886822893
4991202,1555.25,1,198698.0,247464,0.43,-1.13,10.44,-0.07,-0.08,-0.04,25.99,3.067701,-144.21940941650047,57.97116449364321,10.50977640104679,0.11357816691600547,-1.9475688739390526,0.08533542884261522
5031203,1555.25,1,198570.0,247281,0.61,-0.51,9.31,-0.07,-0.18,0.0,25.99,3.107702,-143.02986084268647,133.04700671037313,9.343891052447049,0.19313207915827965,-1.9314478319792092,0.19255781319557402
5071869,1555.25,1,198662.0,246782,0.45,-0.99,9.1,-0.07,-0.06,0.04,25.91,3.148368,-148.4413478730561,329.02715789226187,9.164747677923271,0.1004987562112089,-2.0047855765675,0.4724542282755877
5110205,1555.25,1,198464.0,247803,0.92,-0.28,8.07,-0.11,-0.2,-0.02,25.91,3.186704,-150.0743742925333,525.1410807503942,8.127096652556805,0.22912878474779202,-2.0269167345626014,0.7525416944002811
5150202,1555.25,1,199459.0,248527,0.62,-0.64,9.22,-0.05,0.04,0.01,25.91,3.226701,-155.19589145367968,537.7311842049348,9.262958490676723,0.06480740698407861,-2.0963247393052544,0.7705227236073761
5190171,1555.25,1,199027.0,247431,0.59,0.11,7.86,-0.05,-0.08,0.01,25.91,3.26667,-158.04038907324312,265.8199928039664,7.882880184298123,0.09486832980505139,-2.134874039845904,0.38218254102107024
5230171,1555.25,1,197971.0,245935,1.54,-0.62,9.96,0.01,-0.11,0.01,25.91,3.30667,-164.7388506301145,-201.0917843482609,10.097405607382523,0.11090536506409417,-2.225653165811723,-0.2846550534772439
5270171,1555.25,1,197386.0,244962,0.69,-0.38,8.94,-0.06,-0.01,-0.02,25.91,3.34667,-167.66164494431706,-627.7715446837603,8.974636482888876,0.06403124237432849,-2.2652635615672967,-0.8940337818070664
5310212,1555.25,1,197359.0,245236,1.38,-0.84,8.75,-0.03,-0.16,-0.02,25.91,3.386711,-174.2618918880645,-806.2493433031547,8.897893009021855,0.16401219466856726,-2.3547116600037694,-1.1489335545834312
5351205,1555.25,1,197879.0,246067,0.79,0.03,9.54,-0.03,0.1,-0.01,25.91,3.427704,-180.2293934215997,-703.9157160468329,9.572700768330742,0.10488088481701516,-2.43558464386949,-1.002781940563114
5391171,1657.0,1,198054.0,246548,1.24,-0.94,8.46,-0.07,-0.03,-0.03,25.91,3.46767,-80.95421189143941,-459.60684977985113,8.601906765363132,0.0818535277187245,-1.0901840421206914,-0.6538630555229331
5431203,1826.0,1,198000.0,246272,1.47,0.4,11.29,0.02,0.03,-0.02,25.91,3.507702,77.27246435029723,-249.89551796722964,11.392321975787025,0.0412310562561766,1.0541410766772166,-0.3543559390010615
5471151,1898.0,1,197928.0,246436,0.78,-0.3,8.43,-0.1,-0.02,-0.07,25.91,3.54765,150.50644372899677,-156.52129050933337,8.471322210847609,0.12369316876852982,2.0466251840432443,-0.22100002837072935
5511202,1925.25,1,198034.0,246743,0.86,-0.6,9.68,-0.01,0.07,-0.01,25.91,3.587701,166.1756159433441,-136.89217960487588,9.736631861172528,0.07141428428542851,2.2589774900391175,-0.19296597624742745
5551182,1925.25,1,198449.0,246151,0.43,-0.41,10.49,0.01,0.09,-0.0,25.91,3.627681,166.45326753315146,-92.4417982692144,10.506812075981944,0.09055385138137416,2.262740289665828,-0.12948249432458586
5591171,1925.25,1,197906.0,246419,0.8,-0.08,9.48,-0.03,-0.09,0.04,25.91,3.66767,158.70178088696719,41.040520873894145,9.514031742642024,0.10295630140987,2.157690320101625,0.06115529414230583
5631181,1925.25,1,198699.0,247209,0.56,-0.45,10.78,-0.06,0.16,-0.02,25.91,3.70768,156.474080484394,249.56448726842217,10.803911328773482,0.17204650534085253,2.1275000004674323,0.35896663013788377
5671182,1925.25,1,198610.0,247443,0.68,0.09,10.0,-0.04,-0.06,-0.01,25.91,3.747681,151.80277469218396,462.5257327267372,10.023497393624643,0.07280109889280519,2.0641933660506253,0.6631152329187644
5711182,1925.25,1,198872.0,247319,0.51,-0.42,10.99,-0.05,0.07,-0.01,25.91,3.787681,150.36532456534056,611.4514769064677,11.009841052440311,0.08660254037844388,2.044712703957336,0.8758091289977767
5751182,1925.25,1,198846.0,247760,0.34,-0.52,10.43,-0.04,0.0,-0.0,25.91,3.827681,145.82977682594316,676.4243546325076,10.44848792888234,0.04,1.9832458945917766,0.9686025850864627
5791182,1925.25,1,198893.0,247332,0.69,0.04,10.63,-0.07,0.02,-0.01,25.91,3.867681,146.57733123694663,685.2102210263176,10.652445728563935,0.07348469228349536,1.9933769277352265,0.9811504502257088
5831171,1925.25,1,198793.0,248018,0.54,-0.19,10.89,-0.03,-0.0,-0.01,25.91,3.90767,144.4160270926514,670.0533060130044,10.90503553410075,0.03162277660168379,1.9640864258043529,0.9595035326663817
5871202,1905.0,1,198733.0,247321,1.23,-0.2,10.57,-0.1,-0.01,-0.04,25.91,3.947701,121.62551629898722,621.9572944555543,10.643204404689408,0.10816653826391968,1.6552240650073302,0.8908134069909339
5911203,1872.0,1,198806.0,247870,0.86,-0.42,10.58,-0.05,0.03,-0.02,25.91,3.987702,96.46824662245596,484.46942614731705,10.623201024173458,0.061644140029689765,1.3142868313556426,0.6944549430118281
5951182,1850.0,1,198313.0,246476,0.94,0.02,8.63,-0.1,-0.05,-0.03,25.91,4.027681,61.48157769492988,196.10065840016486,8.681065602793243,0.11575836902790226,0.8401392679590532,0.28261025452315025
5991181,1808.0,1,197979.0,246040,0.98,-0.45,9.61,-0.02,-0.01,0.04,25.91,4.06768,41.10893622433111,-251.551292700348,9.670315403336128,0.045825756949558406,0.564044440719387,-0.3567206958868227
6031181,1834.0,1,197530.0,244463,0.54,-0.77,7.06,-0.11,-0.02,-0.02,25.91,4.10768,45.06688961861442,-788.9035433156688,7.12236617985905,0.11357816691600546,0.6176835557155624,-1.1241604987208185
6071202,1814.0,1,196835.0,242921,1.34,0.24,8.77,0.06,0.01,0.06999999999999999,25.91,4.147701,53.04066891393706,-1300.3136007937717,8.875026760523035,0.09273618495495703,0.7257460875264965,-1.8545499838842168
6111820,1835.0,1,196193.0,241160,0.78,-0.67,7.45,-0.07,0.02,-0.0,26.05,4.188319,54.230120933138124,-1687.1510464021808,7.520624974029752,0.07280109889280519,0.7418658209555233,-2.4070264137243704
6150181,1755.0,1,196337.0,242344,0.69,-0.17,8.96,0.03,0.06,0.01,26.05,4.22668,-4.147410040172544,-1903.525922221537,8.988136625574848,0.06782329983125268,-0.04928020456184252,-2.7160503209414486
6190151,1700.0,1,196598.0,242438,0.74,-0.99,9.5,0.02,0.01,0.0,26.05,4.26665,-67.24531800674211,-1928.8296187774538,9.580067849446579,0.022360679774997897,-0.9043978889502857,-2.7521887457337657
6230150,1676.0,1,196590.0,242069,0.72,-0.85,9.4,-0.01,-0.03,-0.0,26.05,4.306649,-80.35338531587567,-1713.0134637185554,9.465775192766834,0.03162277660168379,-1.082041499101875,-2.4439627965595805
6270202,1664.0,1,197049.0,242898,1.02,-1.16,10.09,0.04,-0.02,-0.01,26.05,4.346701,-91.37840622319274,-1178.05572004107,10.207551126494542,0.0458257569495584,-1.2314551746486795,-1.6799427987606481
6310182,1662.0,1,197637.0,244167,0.49,0.48,10.73,0.0,0.06,-0.01,26.05,4.386681,-86.20240382862065,-310.18829164226855,10.751902157292914,0.0608276253029822,-1.1613087732120335,-0.44046532867701743
6349151,1667.0,1,198505.0,248043,0.96,-0.97,10.63,-0.01,0.06,-0.02,26.05,4.42565,-80.40820726657212,735.7221604280716,10.717247781030352,0.06403124237432849,-1.0827844590674898,1.0532909740084886
6389183,1648.0,1,200399.0,250579,0.15,-0.52,11.07,-0.04,0.06,-0.03,26.05,4.465682,-89.25518100794534,1648.5843713406707,11.083221553321039,0.07810249675906654,-1.2026807273174072,2.357029433008433
6429182,1643.0,1,200817.0,250404,0.54,-0.79,11.74,0.02,-0.02,0.04,26.05,4.505681,-96.26554045777534,2125.4790307385283,11.778934586795192,0.048989794855663564,-1.2976867668622583,3.0381244558017415
6469171,1616.0,1,200098.0,249293,0.35,0.04,11.5,-0.02,-0.07,0.05,26.05,4.54567,-113.28127577776218,2065.640351023553,11.505394386982134,0.08831760866327848,-1.5282880126706435,2.9526635974732964
6509171,1621.0,1,199486.0,248901,0.17,-0.68,11.83,-0.04,-0.05,0.03,26.05,4.58567,-106.54642384344743,1624.897635754735,11.85074681191021,0.07071067811865475,-1.4370157157535806,2.323200331767979
6549202,1647.0,1,199307.0,249109,0.15,-0.47,10.67,-0.08,-0.04,0.0,26.05,4.625701,-78.84646090845476,1088.2821662455394,10.68139972101035,0.08944271909999159,-1.0616193052233567,1.5568127905485374
6589181,1648.0,1,199279.0,248754,0.79,0.7699999999999999,12.53,-0.0,-0.01,0.01,26.05,4.66568,-66.4149136342061,680.4867601286429,12.578469700245734,0.01414213562373095,-0.8931440536484045,0.9744044621036628
6629171,1648.0,1,198637.0,247902,0.93,0.7699999999999999,10.22,-0.1,-0.1,0.01,26.05,4.70567,-75.27819375763431,462.2932761153756,10.291073802086933,0.14177446878757827,-1.0132613098218997,0.6627832412768079
6669171,1618.0,1,198647.0,248129,0.73,-0.2,10.99,-0.06,-0.03,0.01,26.05,4.74567,-86.81387009303057,357.51586234873247,11.016033769011422,0.06782329983125268,-1.1695955077957045,0.51314144174875
6709181,1651.0,1,198443.0,247156,1.08,0.47,9.03,-0.08,-0.07,0.02,26.05,4.78568,-66.68793032741007,251.09259430474847,9.10649218964141,0.10816653826391968,-0.896844040066586,0.3611490536065203
6749199,1633.0,1,198326.0,247252,1.39,0.39,10.05,-0.01,-0.12,0.03,26.05,4.825698,-68.24024233375592,77.03061717085428,10.153162069030515,0.12409673645990855,-0.9178813373573,0.11255590216895452
6789171,1600.0,1,198276.0,246395,1.34,-0.37,9.32,-0.1,-0.02,-0.02,26.05,4.86567,-108.51813607717996,-149.75632366545057,9.423104583946843,0.10392304845413264,-1.463736823535522,-0.21133838684061027
6829201,1615.0,1,197820.0,245243,1.12,0.23,8.48,-0.06,-0.07,-0.08,26.05,4.9057,-87.78378088842621,-361.96832469979574,8.556734190098464,0.12206555615733702,-1.18273996694103,-0.5144169280513617
6869181,1665.0,1,197680.0,244761,0.95,-0.58,8.37,-0.04,0.0,-0.07,26.05,4.94568,-32.33742985280035,-501.845072506823,8.443684030090182,0.0806225774829855,-0.4313179811203033,-0.7141871600270587
6909181,1686.0,1,197639.0,244820,1.3,0.7699999999999999,9.02,-0.03,-0.05,-0.05,26.05,4.98568,-21.121844811993952,-570.2090152511057,9.145671107141345,0.07681145747868609,-0.27932173563087553,-0.8118236930099375
6949208,1680.0,1,197769.0,244763,0.81,-0.56,9.01,-0.03,0.0,-0.05,26.05,5.025707,-6.645052588041892,-622.4202042359481,9.063652685314018,0.05830951894845301,-0.08312884361807973,-0.8863910639186349
6989181,1731.0,1,197518.0,244386,1.26,0.17,8.57,-0.04,-0.13,-0.07,26.05,5.06568,20.440287855106057,-711.0806992796124,8.663798243264901,0.15297058540778355,0.28393805839218234,-1.013014880526009
7029181,1710.0,1,197469.0,244249,1.22,-0.56,8.88,-0.01,-0.02,-0.04,26.05,5.10568,29.784770490691457,-823.216923671402,8.980890824411574,0.045825756949558406,0.4105766841511122,-1.1731664418886705
7069201,1762.0,1,197420.0,244393,1.16,-0.28,8.82,-0.01,-0.01,-0.0,26.05,5.1457,53.163937028760664,-870.9242795458832,8.900359543299361,0.01414213562373095,0.7274166460014737,-1.241301494350288
7109202,1771.0,1,197508.0,244675,1.15,-0.12,9.0,0.0,0.04,0.04,26.05,5.185701,90.31692958553774,-754.1441787083446,9.073968260909886,0.0565685424949238,1.230922736569242,-1.0745176063902595
7149837,1802.0,1,197615.0,246090,1.24,0.3,9.82,0.04,0.0,0.06999999999999999,25.79,5.226336,101.34533836644738,-452.6344232146221,9.902524930541706,0.08062257748298549,1.380382325375532,-0.6439051225983635
7190131,1794.0,1,198192.0,246417,0.93,0.55,10.31,-0.03,0.09,0.01,25.79,5.26663,107.61838086110127,-69.64139859260666,10.366460340926405,0.09539392014169455,1.4653960721853436,-0.09691924700903952
7230150,1819.0,1,198509.0,247574,0.96,-0.27,11.59,0.03,0.03,0.02,25.79,5.306649,129.40492105690495,224.60815157330444,11.632824248650884,0.0469041575982343,1.760652387385872,0.3233243018078383
7270150,1798.0,1,198715.0,247588,1.05,0.13,12.91,-0.0,0.02,0.02,25.79,5.346649,106.67790203168641,323.02829876482156,12.953281437535434,0.0282842712474619,1.452650481963055,0.46388673226022725
7310150,1769.0,1,198724.0,247848,0.13,-0.03,11.8,-0.13,-0.03,0.02,25.79,5.386649,86.83444099624775,283.8856917634608,11.80075421318485,0.13490737563232044,1.1837272324019628,0.40798374764420564
7350184,1815.0,1,198564.0,247756,0.87,-0.18,12.959999999999997,-0.06,-0.02,0.01,25.79,5.426683,125.54068857027843,303.68016991229604,12.99041569773654,0.06403124237432849,1.7082834001659886,0.436253975209734
7389181,1798.0,1,198567.0,248156,0.75,0.04,11.76,-0.18,-0.02,-0.03,25.79,5.46568,116.37626281978132,555.2944780159969,11.783959436454285,0.18357559750685817,1.5840849476488792,0.7956064014444791
7429181,1744.0,1,199071.0,249680,0.76,-0.36,11.81,-0.15,-0.0,0.01,25.79,5.50568,62.58442050621415,1011.09842091821,11.839902871223227,0.15033296378372907,0.8550852530387725,1.4465799251829108
7469181,1699.0,1,199949.0,249869,0.93,0.43,10.57,-0.13,0.04,0.04,25.79,5.54568,15.588637556112019,1410.288116327935,10.619543304681233,0.14177446878757827,0.21818735281670817,2.0166976846001217
7509150,1639.0,1,200143.0,249288,0.64,-0.78,8.95,-0.09,-0.19,0.06,25.79,5.585649,-35.479621407852534,1425.0811565435972,9.00669195653987,0.21863211109075448,-0.47390169986870834,2.037824920697901
7549182,1626.0,1,199190.0,246399,0.94,-0.34,8.33,-0.1,0.05,0.06999999999999999,25.79,5.625681,-54.40838149868962,908.0715163327393,8.389761617590812,0.1319090595827292,-0.7304287071634161,1.2994381811013866
7589171,1633.0,1,198197.0,245236,0.76,-1.37,7.64,-0.14,-0.05,0.06,25.79,5.66567,-40.97085271973803,23.331816233674722,7.798980702630312,0.16031219541881397,-0.5483201577096353,0.03586394236705382
7629182,1659.0,1,197532.0,244071,1.01,-0.93,8.03,-0.11,0.0,0.03,25.79,5.705681,-12.492706755797748,-842.9146936664956,8.146526867322049,0.11401754250991379,-0.16237762780415985,-1.2012985520715045
7669171,1675.0,1,197162.0,243269,0.86,-0.53,8.2,-0.06,-0.0,0.06999999999999999,25.79,5.74567,-2.964510205707631,-1319.9416669842474,8.261991285398453,0.09219544457292887,-0.033249267880914354,-1.8825825439600001
7709181,1644.0,1,197067.0,243892,0.79,-0.72,8.03,-0.07,-0.04,0.06999999999999999,25.79,5.78568,-17.8546792955608,-1265.3282338293354,8.100827118263911,0.10677078252031312,-0.2350443403738679,-1.8045843177973677
7749181,1680.0,1,197822.0,244581,1.18,-0.35,9.74,0.0,0.03,0.06,25.79,5.82568,-1.4356689591733103,-819.6636845988976,9.817458938034832,0.0670820393249937,-0.012530051845628021,-1.1680917500266705
7789150,1689.0,1,198355.0,245225,0.76,-1.05,8.51,-0.13,-0.02,0.0,25.79,5.865649,32.71551660300552,-292.3604877516606,8.608147303572354,0.13152946437965907,0.4502948445443258,-0.41500388083325324
7829181,1759.0,1,198547.0,245436,1.13,-0.16,9.22,-0.03,0.06,-0.02,25.79,5.90568,76.26827234456114,26.255940169929765,9.290365977721223,0.06999999999999999,1.0405320305091348,0.040040139813946496
7869181,1766.0,1,198563.0,246095,0.91,-1.58,8.77,-0.06,0.12,-0.02,25.79,5.94568,110.8313604487658,6.63129918898302,8.957533142556604,0.13564659966250536,1.5089391269954444,0.012012471579823138
7909182,1767.0,1,198053.0,245146,0.64,0.37,7.86,-0.09,0.1,-0.03,25.79,5.985681,83.18400148232405,-288.0283265177767,7.894688087568755,0.13784048752090222,1.1342556178153054,-0.4088167420255719
7949171,1707.0,1,198481.0,245775,0.42,-1.24,10.67,0.12,0.19000000000000003,0.02,25.79,6.02567,49.720819691652764,-663.7945341921627,10.750018604635063,0.2256102834535696,0.6807547103007633,-0.9454813675092991
7989151,1738.0,1,197632.0,243764,0.12,-0.06,7.68,-0.13,0.03,-0.03,25.79,6.06565,51.80181544111499,-898.6147558234063,7.681171785606673,0.13674794331177345,0.7089568539826924,-1.280848688263531
8029181,1703.0,1,197997.0,245057,0.28,-0.98,11.71,0.13,0.19000000000000003,0.06,25.79,6.10568,40.26851793354232,-842.0728242975155,11.754271563988985,0.2379075450674064,0.5526548944428644,-1.20009620470662
8069150,1689.0,1,198252.0,245009,0.24,-0.89,9.6,-0.08,0.06,-0.09,25.79,6.145649,-1.16779335085323,-484.5851643286337,9.644153669451768,0.1345362404707371,-0.008899738618568647,-0.6895367737784954
8109182,1623.0,1,198802.0,246962,0.42,-0.61,12.42,0.08,0.04,0.0,25.79,6.185681,-48.641213129404676,31.862746016725893,12.442061726257428,0.08944271909999159,-0.6522706854420925,0.0480477102087229
8149151,1633.0,1,199345.0,247919,-0.19,-1.35,10.15,-0.11,0.04,-0.08,25.79,6.22565,-63.68389241596843,480.4607591134863,10.241147396654341,0.14177446878757824,-0.856132611979175,0.6887298145983015
8189889,1623.0,1,199879.0,248214,0.21,-0.33,12.26,-0.01,0.0,-0.04,25.99,6.266388,-60.01625494666675,672.7327509701922,12.26623821715525,0.04123105625617661,-0.8064279266576396,0.9633302826377349
8228181,1616.0,1,199507.0,247202,0.08,-0.78,10.97,-0.08,-0.03,-0.02,25.99,6.30468,-90.77899105327779,568.8140626846906,10.997986179296646,0.08774964387392122,-1.2233317593310662,0.8149149041643596
8268202,1555.25,1,199071.0,246710,0.32,-0.23,10.88,-0.04,-0.05,0.0,25.99,6.344701,-141.4268367776954,299.0838891389988,10.887134609253255,0.06403124237432849,-1.9097232729462794,0.42968962415995293
8308182,1555.25,1,199351.0,247843,0.25,-1.43,12.44,-0.01,0.0,0.02,25.99,6.384681,-163.90196569925277,77.35585734538611,12.524416154056842,0.022360679774997897,-2.214311504459698,0.1130204061421501
8348171,1555.25,1,199012.0,246279,0.38,-0.03,9.53,-0.13,-0.09,-0.02,25.99,6.42467,-159.62247742506435,63.009167164733014,9.537620248258996,0.15937377450509227,-2.156314873171536,0.09253064161440679
8389202,1555.25,1,199361.0,248610,0.49,-1.35,12.49,0.05,-0.02,0.06999999999999999,25.99,6.465701,-174.9329264791283,263.2820415489586,12.572298914677459,0.08831760866327847,-2.3638056785560018,0.3785578705958229
8429171,1555.25,1,199752.0,248216,-0.33,-0.95,9.09,-0.19,0.0,-0.05,25.99,6.50567,-184.9320688932918,535.8251858955792,9.145463356222034,0.19646882704388502,-2.4993164075583,0.7678006005213392
8469202,1555.25,1,199924.0,249459,0.39,-1.16,10.83,0.03,-0.07,0.05,25.99,6.545701,-182.69415047608496,685.3843261954468,10.898926552647284,0.091104335791443,-2.4689876109873254,0.9813991050634169
8509171,1555.25,1,199647.0,248702,0.44,-0.61,9.22,-0.18,-0.03,-0.03,25.99,6.58567,-215.1672075225861,590.9109259777819,9.25062700577642,0.18493242008906927,-2.9090701151700316,0.8464733695648137
8547203,1584.0,1,199761.0,248781,0.17,-1.61,10.89,-0.02,-0.02,0.0,25.99,6.623702,-162.81803501019013,282.75866410031466,11.009682102585888,0.0282842712474619,-2.199621820906958,0.4063741407492817
8587197,1790.0,1,198979.0,247166,0.76,0.03,7.07,-0.18,-0.13,-0.05,25.99,6.663696,-6.842906413712093,-77.55672874842772,7.11079461101219,0.22759613353482083,-0.08581020518309605,-0.10822382311752952
8627181,1859.0,1,199054.0,247236,1.22,-0.53,10.89,0.02,0.07,-0.0,25.99,6.70368,94.41124275800095,-300.51107236847736,10.970934326665164,0.07280109889280519,1.2864098313403205,-0.4266444444377584
8667171,1920.0,1,198764.0,247086,0.51,-0.89,7.53,-0.17,-0.05,-0.05,25.99,6.74367,107.87997734630655,-285.6759405225339,7.59954603907365,0.1841195263952197,1.4689412892595992,-0.4054570935969828
8707203,1853.0,1,199190.0,248102,1.29,-0.69,10.22,0.02,0.03,-0.08,25.99,6.783702,60.9356715469563,-72.532627327567,10.324175511875028,0.08774964387392122,0.8327410194878693,-0.1010484639384655
8747171,1872.0,1,199779.0,249619,0.36,-1.3,8.74,-0.08,-0.05,-0.09,25.99,6.82367,52.9139989591279,207.79763587143407,8.843483476549272,0.130384048104053,0.7240294265161918,0.29931573230616
8787203,1921.0,1,199822.0,249224,0.17,-0.32,9.92,-0.04,-0.04,-0.09,25.99,6.863702,100.92697505792891,433.9516105402488,9.926615737500873,0.1063014581273465,1.374712567452608,0.6223060269056838
8827202,1925.25,1,199645.0,249507,0.3,-1.23,10.3,-0.01,0.0,-0.01,25.99,6.903701,98.59968680157799,559.9803560095067,10.377518971314869,0.01414213562373095,1.343172609808852,0.8022987141301066
8867181,1925.25,1,199622.0,249684,0.88,0.58,10.59,-0.04,-0.01,-0.01,25.99,6.94368,85.92173429516279,597.0445324883568,10.642316477158532,0.042426406871192854,1.1713580165926036,0.8552333101173037
8907181,1925.25,1,199976.0,250170,1.1,-0.86,12.48,0.03,0.09,-0.01,25.99,6.98368,86.81631595366287,550.0389521390634,12.557866060760484,0.09539392014169455,1.1834815975632793,0.7881005247348083
8947171,1925.25,1,199848.0,249448,0.42,-0.3,10.5,-0.07,0.0,-0.05,25.99,7.02367,76.20676402187374,387.2821088153662,10.512678060323164,0.08602325267042628,1.039698455258194,0.5556532248357345
8987181,1925.25,1,199199.0,247683,0.51,-1.13,11.05,0.02,-0.03,0.01,25.99,7.06368,75.14157845769948,73.98958605485328,11.119330015787822,0.03741657386773942,1.0252628100453087,0.10821273934158492
9027171,1925.25,1,198807.0,246855,0.3,-1.14,9.33,-0.03,-0.03,-0.01,25.99,7.10367,71.55134444222865,-370.01893221913343,9.404174604929452,0.04358898943540673,0.9766071145292446,-0.5259147056083731
9067202,1925.25,1,198265.0,245764,0.76,-0.93,8.38,-0.02,-0.05,0.0,25.99,7.143701,68.80069781200453,-844.4818248619946,8.465630514025522,0.05385164807134505,0.9393297046624337,-1.2035367093590408
9107181,1925.25,1,198241.0,245381,0.25,-0.79,9.57,0.02,0.07,0.01,25.99,7.18368,69.53312712834463,-1196.0003973005294,9.605805536236927,0.07348469228349536,0.9492557589667824,-1.7055711636965902
9147150,1925.25,1,197782.0,245079,1.06,-0.53,8.2,-0.09,-0.12,-0.08,25.99,7.223649,68.8305959455173,-1283.817998830014,8.28519764399136,0.16999999999999998,0.9397348911974696,-1.8309911702676402
9187202,1925.25,1,197932.0,245710,0.54,-0.76,8.6,-0.03,0.05,-0.01,25.99,7.263701,71.30905280747136,-1052.8536773294015,8.650387274567539,0.05916079783099616,0.9733235213272304,-1.501130798135305
9227869,1925.25,1,198568.0,247233,0.96,-0.41,9.48,-0.02,0.0,-0.01,25.93,7.304368,73.64744820562997,-575.2478732204969,9.537300456628175,0.022360679774997897,1.0050140055682835,-0.8190201273081282
9268181,1925.25,1,199080.0,247524,0.2,-1.27,8.77,-0.06,-0.0,-0.05,25.93,7.34468,78.12881957487288,-27.97889431003279,8.86373510434512,0.07810249675906655,1.065746604027522,-0.03741737642865904
9308202,1925.25,1,199522.0,248710,0.44,-1.63,10.55,0.03,-0.06,-0.01,25.93,7.384701,82.86231875475788,391.25372404625597,10.684240731095496,0.06782329983125268,1.1298960978570545,0.5613254363250069
9348182,1925.25,1,199516.0,247941,0.35,-0.26,9.62,-0.08,-0.05,-0.03,25.93,7.424681,88.48121759316581,562.5721399660617,9.629875388601869,0.09899494936611666,1.206044736034694,0.8060002677503422
9388202,1895.0,1,199447.0,248997,0.92,-1.26,10.76,0.03,-0.05,0.02,25.93,7.464701,68.04968446378244,496.25795642243213,10.872515808220285,0.061644140029689765,0.9291517951885295,0.7112911753709132
9428171,1849.0,1,199235.0,247798,0.64,0.39,8.99,-0.14,0.06,-0.03,25.93,7.50467,23.046161884052424,310.6878237290351,9.021186174777684,0.15524174696260024,0.31925347592743897,0.4462622192568908
9468171,1805.0,1,199188.0,248242,0.17,-0.98,10.92,0.03,0.15,0.01,25.93,7.54467,0.6629339524098624,155.53763666240084,10.965204056468808,0.1532970971675589,0.015910708237172735,0.22467865124218478
9508150,1808.0,1,198962.0,247441,0.57,-0.16,9.71,-0.1,0.01,-0.02,25.93,7.584649,-7.144580200728871,127.07218370776933,9.72803166113269,0.10246950765959599,-0.08989855927450516,0.1840246452748374
9548181,1760.0,1,198994.0,248544,0.23,-1.09,11.43,0.0,0.02,0.01,25.93,7.62468,-18.13331228208589,220.5060283262646,11.4841586544248,0.022360679774997897,-0.23882044011964407,0.317465700392651
9588150,1759.0,1,199091.0,248444,0.81,-0.39,10.52,-0.1,-0.04,-0.0,25.93,7.664649,-41.39417319006078,344.0618629039529,10.558342672976663,0.1077032961426901,-0.5540570962548625,0.49392660703017005
9628202,1698.0,1,199470.0,248908,0.08,-0.42,11.75,0.0,0.03,0.0,25.93,7.704701,-57.23645845289821,386.7600737658791,11.757776150276037,0.03,-0.7687554709863379,0.5549076608690963
9668151,1735.0,1,199027.0,248261,0.86,-0.95,10.06,-0.11,-0.1,-0.0,25.93,7.74465,-42.387663455987,295.60461892975894,10.141286900586138,0.14866068747318506,-0.5675211099288403,0.4247205737087309
9708202,1701.0,1,198789.0,247383,0.19,-0.62,10.48,-0.06,-0.01,0.01,25.93,7.784701,-38.874276658476326,105.64777209945053,10.500042857055394,0.06164414002968976,-0.5199068659789454,0.1534265670092399
9748182,1698.0,1,198453.0,247318,0.52,-1.15,10.36,-0.05,-0.04,0.01,25.93,7.824681,-49.26634174132081,-97.78739058625246,10.436594272079374,0.06480740698407861,-0.6607425753714687,-0.1371170028041185
9786181,1675.0,1,198555.0,247300,0.66,-0.12,10.69,-0.09,-0.02,-0.01,25.93,7.86268,-54.66175051898507,-246.8342853266275,10.711027028254573,0.09273618495495703,-0.7338624236987663,-0.3499839246074445
9826214,1666.0,1,198427.0,247131,0.54,-1.5,9.58,-0.09,-0.03,-0.0,25.93,7.902713,-51.07899601310693,-328.8663668853097,9.711745466186807,0.09486832980505137,-0.6853080922552901,-0.46714112349396264
9866202,1684.0,1,198251.0,246741,0.95,-0.58,9.4,-0.1,-0.07,0.01,25.93,7.942701,-34.61770349218979,-370.8594644162145,9.465669548426039,0.12247448713915891,-0.4622207856208867,-0.5271151432409779
9906181,1665.0,1,198271.0,246524,0.5,-1.3,9.47,-0.06,-0.02,0.01,25.93,7.98268,-29.052381608848346,-398.47569093070507,9.571880692946397,0.06403124237432849,-0.3867982349353605,-0.5665562945658875
9946182,1665.0,1,198212.0,246449,0.31,-1.56,9.12,-0.11,-0.03,-0.01,25.93,8.022681,-38.572761730075335,-412.5094094933923,9.257650889939628,0.11445523142259596,-0.5158206647768485,-0.5865990769203742
9986205,1625.0,1,198120.0,246155,0.35,-1.47,9.54,-0.05,-0.04,-0.0,25.93,8.062704,-55.168695678134135,-398.02690627419537,9.658933688560037,0.06403124237432849,-0.7407326636888647,-0.5659153458996963
10026260,1621.0,1,198220.0,246486,0.82,-0.97,9.56,-0.03,-0.04,-0.01,25.93,8.102759,-66.02678488969448,-346.88441317099796,9.644008502692229,0.05099019513592785,-0.8878840416456736,-0.4928742731608865
10066202,1607.0,1,198348.0,246198,0.94,-0.92,8.24,-0.1,0.01,-0.03,25.93,8.142701,-65.21839937455563,-264.86661581445725,8.344315430279467,0.10488088481701516,-0.8769286110763284,-0.37573747479425545
10106181,1626.0,1,198544.0,246877,0.34,-1.01,9.22,0.0,0.06,-0.01,25.93,8.18268,-48.27835563688397,-156.44617254982478,9.28138459498366,0.0608276253029822,-0.6473531553881374,-0.22089274583498383
10146171,1651.0,1,198532.0,246509,0.39,-0.3,9.18,-0.06,0.05,-0.08,25.93,8.22267,-15.444742810146806,-9.976738034029172,9.193176817618596,0.11180339887498948,-0.20238431449753808,-0.011706920675988762
10186182,1664.0,1,198643.0,247262,0.68,-0.65,10.61,0.01,-0.02,0.0,25.93,8.262681,-4.142893208405507,189.81441172097374,10.651619595160165,0.022360679774997897,-0.0492189913957349,0.2736323151797866
10226184,1651.0,1,198969.0,247529,0.57,-0.49,10.07,-0.05,0.04,-0.01,25.93,8.302683,-11.940619124110476,425.68421691833936,10.098014656356963,0.06480740698407861,-0.154895606412293,0.6104986381325208
10266869,1649.0,1,199188.0,248003,0.47,-1.2,10.4,-0.01,-0.0,-0.0,25.91,8.343368,-17.616243102147074,625.0702918352986,10.4795467459237,0.01,-0.23181299701943583,0.8952593511413455
10307202,1654.0,1,199162.0,247999,0.57,-1.19,9.62,-0.04,-0.05,-0.01,25.91,8.383701,-11.131306136367188,684.6985799320014,9.710066941066883,0.06480740698407861,-0.14392760651614434,0.9804197307766058
10347202,1677.0,1,199309.0,246957,-0.19,-1.41,11.25,-0.0,0.06,0.0,25.91,8.423701,10.896371273342647,536.1881391427146,11.339607576984312,0.06,0.15459665690359523,0.7683189658358989
10387182,1699.0,1,198568.0,245773,0.71,-1.28,9.45,-0.04,-0.06,0.0,25.91,8.463681,24.16668438334795,205.84284886301114,9.562687906650513,0.07211102550927978,0.33443906029594767,0.2965239298067591
10427182,1693.0,1,198493.0,245135,0.02,-0.96,10.99,0.0,0.07,0.0,25.91,8.503681,26.516287457241635,-180.60364135875164,11.031867475636208,0.07,0.3662814335937192,-0.25539414241136704
10467151,1700.0,1,197889.0,244548,0.53,-1.14,8.8,-0.06,-0.05,-0.0,25.91,8.54365,11.2075905890134,-458.16899819420564,8.889347557610739,0.07810249675906655,0.15881437424367456,-0.6518095337667132
10507202,1664.0,1,198178.0,244796,0.12,-1.2,10.64,-0.01,0.04,-0.0,25.91,8.583701,-7.815056497023374,-509.1603553857099,10.70812775418747,0.04123105625617661,-0.09898501168475717,-0.7246347560756828
10547182,1680.0,1,198084.0,244961,0.29,-0.74,8.53,-0.08,-0.05,-0.01,25.91,8.623681,-21.192139724913833,-319.9318474590292,8.566948114702225,0.09486832980505139,-0.2802743888185562,-0.4543809539421098
10587202,1625.0,1,198773.0,246170,0.54,-0.87,11.55,0.0,-0.0,0.01,25.91,8.663701,-60.38209512709939,22.940610731948333,11.595300772295646,0.01,-0.8113858787994691,0.035305227533778835
10627171,1619.0,1,198966.0,246340,0.44,-0.49,8.96,-0.06,-0.04,-0.01,25.91,8.70367,-90.6061560690792,383.6402417361789,8.98416941069123,0.07280109889280519,-1.2209894589881212,0.5504519555566003
10667202,1610.0,1,199077.0,246884,0.45,-1.0,10.23,-0.01,-0.01,-0.0,25.91,8.743701,-94.94934583138232,635.854287494442,10.28860534766496,0.01414213562373095,-1.2798493878207529,0.9106609196523898
10707205,1623.0,1,199216.0,247098,0.25,-1.24,9.63,-0.02,-0.0,-0.01,25.91,8.783704,-93.94328607619018,700.3408903521087,9.71272361389945,0.022360679774997897,-1.266215029472896,1.0027598840204583
10747202,1648.0,1,199168.0,246992,0.35,-0.89,10.05,-0.02,0.01,-0.0,25.91,8.823701,-76.49901176606592,560.9447845281622,10.095399942548092,0.022360679774997897,-1.0298061225117727,0.803676098948644
10787182,1678.0,1,198981.0,246768,0.33,-0.85,9.87,-0.02,0.03,-0.01,25.91,8.863681,-48.95635331265922,269.6990524369151,9.912028046772264,0.03741657386773942,-0.6565415393015446,0.3877225657562093
10827182,1731.0,1,198590.0,246016,0.76,-0.65,9.66,-0.04,-0.02,-0.01,25.91,8.903681,-8.877175630851799,-63.33764085451889,9.711627052147339,0.0458257569495584,-0.11337909991261445,-0.08791629858909401
10867203,1774.0,1,198154.0,245285,0.38,-0.74,9.26,-0.05,-0.02,-0.01,25.91,8.943702,34.3162345048404,-309.5247234523925,9.297289927715495,0.05477225575051661,0.4719881499119362,-0.4395176288391136
10907202,1805.0,1,198119.0,245959,0.58,-1.17,9.73,-0.05,-0.02,-0.01,25.91,8.983701,53.86548766446554,-382.7709583252311,9.817239937986644,0.05477225575051661,0.7369242251656362,-0.5441269907330584
10947205,1811.0,1,198398.0,246358,0.52,-0.71,10.26,-0.07,-0.02,-0.02,25.91,9.023704,59.17399362609105,-283.49170392442073,10.297674494758514,0.07549834435270751,0.8088663460973239,-0.4023375940465868
10987202,1825.0,1,198625.0,247413,0.66,-1.07,10.02,-0.05,-0.07,-0.01,25.91,9.063701,64.67041060670897,-90.28675569592434,10.098559303187757,0.08660254037844388,0.8833550813401707,-0.12640468931744064
11027203,1825.0,1,198923.0,247586,0.32,-1.34,10.69,-0.04,-0.03,-0.01,25.91,9.103702,65.09694720300149,91.68201957820561,10.778408973498824,0.05099019513592785,0.8891356055807181,0.13348085291004413
11067202,1835.0,1,198469.0,246303,0.71,-0.66,8.82,-0.09,-0.11,-0.02,25.91,9.143701,66.4033088994178,180.59648568909728,8.873111066587638,0.14352700094407325,0.9068397264432533,0.2604673878377294
11105203,1843.0,1,198823.0,246982,0.71,-1.75,11.59,0.02,0.03,-0.0,25.91,9.181702,80.40094513214703,135.2710034507051,11.742857403545356,0.03605551275463989,1.0965389838034962,0.1957340976867051
11145171,1861.0,1,198614.0,246397,0.87,-0.33,8.49,-0.11,-0.1,-0.03,25.91,9.22167,86.1747786613887,-48.21279805140114,8.540837195497874,0.15165750888103102,1.1747873333396703,-0.06631518616157882
11185203,1841.0,1,198479.0,245912,0.21,-0.99,9.65,-0.02,0.04,0.0,25.91,9.261702,79.88988723505284,-334.20778377904526,9.702922240232578,0.044721359549995794,1.0896130070217753,-0.4747696686858523
11225171,1852.0,1,197988.0,244950,0.61,-0.7,9.03,-0.09,0.04,-0.01,25.91,9.30167,75.46945873107401,-641.5004977000065,9.077609817567618,0.09899494936611665,1.029706320601526,-0.9136413017976129
11265181,1825.0,1,197776.0,244375,0.32,-0.72,9.87,-0.02,0.05,-0.0,25.91,9.34168,67.70038903319956,-860.1411548714923,9.901398891065847,0.05385164807134505,0.9244180613866775,-1.2259011697688373
11305869,1847.0,1,197646.0,244847,0.93,-0.35,8.95,-0.07,-0.01,-0.01,25.93,9.382368,74.73336666079247,-899.9938333109761,9.004993059408763,0.07141428428542851,1.0197306277945737,-1.2828182695836827
11346203,1840.0,1,198014.0,245283,-0.1,-1.27,10.03,-0.05,0.01,-0.0,25.93,9.422702,88.34578615715157,-741.196768501536,10.110578618457007,0.050990195135927854,1.2042093373710923,-1.0560262761223655
11386202,1839.0,1,198209.0,246194,0.64,-0.69,9.47,-0.08,-0.06,-0.01,25.93,9.462701,76.45264722448366,-445.65037456835995,9.516648569743447,0.1004987562112089,1.043030722232199,-0.6339305911621727
11426203,1806.0,1,198722.0,246679,0.26,-1.23,10.81,-0.02,0.08,-0.0,25.93,9.502702,62.237008404780084,-119.44552513796226,10.882858080486027,0.08246211251235322,0.8503770425563549,-0.1680488812713312
11466181,1810.0,1,198661.0,246908,0.35,-1.71,8.91,-0.08,-0.07,-0.01,25.93,9.54268,61.56327655606741,144.41796932519355,9.079355704013365,0.10677078252031312,0.841246470134284,0.2087976806143069
11506205,1790.0,1,198973.0,247337,0.4,-0.8,11.0,-0.01,0.0,-0.0,25.93,9.582704,56.31581610769524,304.4024582614493,11.036303729057115,0.01,0.7701316523512706,0.4372855384489848
11546179,1765.0,1,199083.0,247514,0.01,-1.46,9.85,-0.05,-0.04,-0.0,25.93,9.622678,34.067894440244615,374.2468866468302,9.9576201976175,0.06403124237432849,0.4686225869666395,0.5370364826159647
11586203,1715.0,1,199085.0,247296,0.71,-0.88,9.34,-0.05,-0.02,-0.01,25.93,9.662702,-6.544681335921768,401.6983102999385,9.40819323781139,0.05477225575051661,-0.08176858880998686,0.5762422645434244
11626202,1671.0,1,199213.0,247163,0.23,-1.06,10.01,-0.01,0.05,-0.0,25.93,9.702701,-40.78304019447922,437.3232779955767,10.068594738095282,0.050990195135927854,-0.5457748782087118,0.6271214004417128
11666182,1652.0,1,199019.0,247058,0.05,-1.13,8.81,-0.05,-0.03,-0.05,25.93,9.742681,-54.87640025095649,503.6339199338965,8.882313887720924,0.07681145747868609,-0.7367714073350423,0.721825434744475
11706202,1634.0,1,199248.0,247697,0.28,-1.1,11.48,0.02,-0.01,-0.06,25.93,9.782701,-59.294948322008366,575.7644933075454,11.535978502060413,0.06403124237432849,-0.7966526096861369,0.8248414227575303
11746184,1639.0,1,199342.0,247620,0.35,-0.89,9.42,-0.06,-0.01,-0.05,25.93,9.822683,-50.549620364861134,587.9448070591827,9.468421198911674,0.07874007874011811,-0.6781338690030799,0.8422371954063073
11786202,1653.0,1,199106.0,246868,0.38,-1.24,10.18,-0.0,0.0,-0.01,25.93,9.862701,-23.81468383995857,469.7206546683607,10.262280448321416,0.01,-0.31581572328010055,0.6733909309733696
11826182,1671.0,1,198857.0,245448,0.14,-1.37,10.23,-0.01,-0.03,0.0,25.93,9.902681,-0.0638198400352821,194.6377739962754,10.322276880611177,0.03162277660168379,0.0060615699670818765,0.28052098120717495
11866183,1648.0,1,198384.0,244698,0.42,-1.63,10.49,0.02,-0.06,0.01,25.93,9.942682,-13.973451296133584,-187.18130217869452,10.624189380842193,0.06403124237432849,-0.18244502596851217,-0.26478827580707803
11906171,1607.0,1,198148.0,244249,0.51,-1.46,10.21,0.01,-0.06,-0.02,25.93,9.98267,-47.21482502715657,-552.2271166896385,10.326461155691238,0.06403124237432849,-0.63293993850703,-0.7861421690732816
11946182,1583.0,1,197955.0,244315,0.4,-1.72,9.28,-0.03,-0.06,-0.02,25.93,10.022681,-64.92866278712013,-744.8692828601337,9.446523169928712,0.06999999999999999,-0.8730020327203276,-1.0612713154648823
11986203,1563.0,1,198037.0,244786,0.22,-1.26,9.86,-0.0,-0.02,-0.09,25.93,10.062702,-77.97227080136716,-645.2042823565166,9.942615350097778,0.09219544457292887,-1.0497720753518989,-0.91893100099079
12026206,1555.25,1,198312.0,246220,0.41,-1.27,10.75,0.05,-0.04,-0.05,25.93,10.102705,-80.28722893347198,-239.0551862809536,10.832520482325432,0.08124038404635961,-1.081144932252804,-0.33887391207655454
12066184,1555.25,1,198850.0,247906,0.33,-1.42,9.64,-0.02,-0.05,-0.09,25.93,10.142683,-75.66253749989272,347.8857667849302,9.749610248620199,0.10488088481701516,-1.0184700265841626,0.4993878590061559
12106203,1555.25,1,199631.0,249883,0.4,-1.26,11.16,0.04,-0.07,-0.09,25.93,10.182702,-72.10156822106009,887.1401400365075,11.23802473747055,0.12083045973594572,-0.9702109336597654,1.2695442497380587
12146182,1589.0,1,199957.0,249782,-0.2,-0.93,11.24,0.0,-0.06,-0.04,25.93,10.222681,-33.79460378574527,1154.165481699206,11.280181736124645,0.07211102550927978,-0.4510659448713557,1.6509065224793407
12186203,1647.0,1,199492.0,249661,0.35,-0.87,10.06,-0.01,-0.08,-0.0,25.93,10.262702,22.05964734449574,1048.5333890265101,10.103613215083008,0.0806225774829855,0.3058839989373589,1.5000440811648261
12226203,1662.0,1,199516.0,248481,0.45,-0.76,10.18,-0.01,-0.01,0.02,25.93,10.302702,44.944940539775914,648.4040939526167,10.218243488975979,0.024494897427831782,0.6160308731263879,0.9285843971903319
12266184,1682.0,1,198772.0,247151,0.68,-0.79,10.07,0.02,-0.08,0.04,25.93,10.342683,54.54931454123743,158.18170233405877,10.123803633022522,0.09165151389911681,0.7461916077815157,0.22845487295785397
12306858,1679.0,1,198240.0,245973,0.63,-0.54,9.68,-0.04,-0.03,-0.02,25.75,10.383357,63.21783242373353,-218.12212390914488,9.715497928567531,0.05385164807134504,0.8636694002732607,-0.3089775726810523
12345202,1647.0,1,198321.0,246232,0.7,-1.1,9.0,0.0,-0.07,-0.02,25.75,10.421701,14.31243113203763,-391.3237148892029,9.093954035511725,0.07280109889280519,0.20089190329508,-0.5563419313118417
12385181,1555.25,1,198382.0,246450,0.6,-0.46,8.37,-0.03,-0.09,-0.01,25.75,10.46168,-65.78853107339576,-410.52199319484686,8.404076391846994,0.09539392014169455,-0.8846551699087847,-0.5837606736745363
12425202,1555.25,1,198419.0,246984,1.02,-0.65,9.57,0.02,-0.06,0.03,25.75,10.501701,-83.82205109434929,-386.67275465643297,9.646128757175077,0.06999999999999999,-1.1290496732869415,-0.549699487737932
12465171,1555.25,1,198481.0,246307,0.67,-0.89,8.39,-0.04,-0.02,-0.02,25.75,10.54167,-77.62905336215604,-387.40007358135017,8.463633971291529,0.048989794855663564,-1.0451207119181787,-0.5507382355829381
12505202,1555.25,1,198233.0,245551,0.82,-0.77,8.69,0.03,-0.06,-0.01,25.75,10.581701,-91.84977740198161,-393.2499194352412,8.762499643366612,0.06782329983125268,-1.2378433076927566,-0.5590929126938623
12545182,1555.25,1,198279.0,245907,1.12,-0.45,9.82,0.03,-0.03,-0.01,25.75,10.621681,-94.03731189528129,-343.69148968448167,9.89390216244329,0.04358898943540673,-1.2674892894806369,-0.48831417953859274
12585182,1555.25,1,198680.0,246084,0.52,-0.91,8.36,-0.05,-0.03,-0.03,25.75,10.661681,-102.50655377380494,-217.05850861016486,8.425443608499197,0.06557438524302,-1.3822664467126298,-0.30745853053615435
12625202,1555.25,1,198977.0,246244,0.88,-0.26,9.35,-0.0,0.0,-0.05,25.75,10.701701,-113.51424323380006,-63.948348432990166,9.394918839457848,0.05,-1.5314452424103449,-0.08878850355906397
12665182,1555.25,1,199044.0,246286,0.71,-0.91,9.77,0.0,0.06,-0.08,25.75,10.741681,-115.35506752741256,31.612186323904204,9.837941857929431,0.1,-1.556392526053313,0.04768986397092073
12705171,1555.25,1,198839.0,246143,0.76,-0.75,8.72,-0.04,-0.02,-0.04,25.75,10.78167,-135.20954061589137,17.57702812936606,8.78512948111751,0.06,-1.825465013546367,0.02764502555212507
12745202,1555.25,1,198885.0,246314,0.77,-0.11,10.73,0.03,0.08,-0.04,25.75,10.821701,-130.344486301864,-94.08030763876755,10.758155046289303,0.09433981132056604,-1.7595326536075997,-0.13182259303278263
12785171,1653.0,1,198852.0,246520,0.28,-0.77,9.88,-0.06,-0.01,-0.03,25.75,10.86167,-58.912642527785074,-243.9379805858066,9.913914464024794,0.06782329983125268,-0.7914715116748097,-0.34584745818956397
12825202,1766.0,1,198744.0,246447,0.77,0.17,9.98,-0.05,-0.03,-0.04,25.75,10.901701,61.74126111339097,-361.6414470724993,10.011103835242146,0.07071067811865475,0.84365855870299,-0.513950085488488
12865182,1902.0,1,198939.0,247124,0.4,-0.6,10.27,-0.03,0.05,-0.01,25.75,10.941681,171.87572169391106,-392.6233350857464,10.295285328731788,0.05916079783099616,2.336226663383764,-0.55819803271693
12905182,1925.25,1,198891.0,247083,0.66,0.22,10.68,-0.06,-0.0,-0.0,25.75,10.981681,198.3844742644032,-311.1009681291185,10.702635189522251,0.06,2.695479510976039,-0.4417688018872204
12945182,1925.25,1,199113.0,248179,0.39,-0.66,11.21,-0.02,0.04,0.03,25.75,11.021681,180.2087014341017,-129.22803956743348,11.236182625785325,0.053851648071345036,2.4491571640790157,-0.18202014674268133
12985171,1925.25,1,199437.0,248413,0.8,-0.25,10.89,-0.11,-0.01,-0.01,25.75,11.06167,175.05187821522995,98.38589792599953,10.922206736735943,0.11090536506409417,2.3792706833408825,0.1430552486096299
13025209,1925.25,1,199798.0,249495,0.52,-0.88,11.5,-0.04,0.0,0.02,25.75,11.101708,165.7095738676432,288.38259501896084,11.545336720944956,0.044721359549995794,2.252661578253071,0.4144061689587394
13065171,1925.25,1,199925.0,249507,0.34,-1.22,10.19,-0.13,-0.05,-0.01,25.75,11.14167,155.19753344536505,364.5799508694315,10.268402991702263,0.1396424004376894,2.1101999348518543,0.5232302851383874
13105206,1925.25,1,200001.0,249250,0.62,-1.13,10.83,-0.05,0.03,0.02,25.75,11.181705,149.57480793342273,295.1735094134186,10.90642929652047,0.061644140029689765,2.0339994366947467,0.42410486845795503
13145171,1925.25,1,199600.0,248883,1.0,-1.07,9.32,-0.1,-0.1,0.01,25.75,11.22167,140.4341941131913,102.21508960312043,9.434368023349524,0.14177446878757827,1.9101236890552762,0.14852405255031903
13185182,1925.25,1,199540.0,248311,0.28,-1.18,10.11,-0.12,0.02,0.01,25.75,11.261681,132.61134667305166,-160.88811573276257,10.182480051539507,0.12206555615733702,1.8041066212329886,-0.22723667385726354
13225171,1925.25,1,199234.0,247694,0.81,-0.39,8.12,-0.17,-0.06,-0.01,25.75,11.30167,129.57817215043758,-435.76265939635766,8.169614433986464,0.1805547008526779,1.7630003269403478,-0.6198090792984168
13265205,1925.25,1,199538.0,247329,0.6,-0.72,10.08,-0.02,0.07,0.01,25.75,11.341704,117.1986513803147,-662.0054422891087,10.123477663332892,0.07348469228349536,1.5952301507818174,-0.9429262086991157
13305193,1881.0,1,199245.0,246552,0.7,-0.4,8.7,-0.08,-0.01,0.0,25.75,11.381692,76.42397300652337,-767.5822064775449,8.737276463521113,0.0806225774829855,1.0426421224884985,-1.0937096305603706
13345868,1828.0,1,199206.0,246445,0.61,-1.06,10.51,-0.0,0.1,0.03,25.79,11.422367,7.919807866056196,-685.5656583528894,10.58091678447572,0.1044030650891055,0.11425756975632059,-0.976574616331185
13384171,1751.0,1,199424.0,247440,0.79,-0.52,8.93,-0.06,-0.05,-0.0,25.79,11.46067,-61.45979944217732,-407.78483322437694,8.979944320540078,0.07810249675906655,-0.8259911810680187,-0.5798514958388482
13424202,1744.0,1,200148.0,248404,0.2,-1.45,10.0,-0.02,0.03,0.02,25.79,11.500701,-84.5390934844636,-25.993627691179178,10.106557277332376,0.0412310562561766,-1.138767200349293,-0.03458204332862774
13464171,1745.0,1,200702.0,248974,0.88,-0.84,8.95,-0.04,-0.06,0.01,25.79,11.54067,-73.97395839962903,301.4814628413631,9.03230313928845,0.07280109889280519,-0.9955860055974567,0.4331138091099842
13504182,1740.0,1,200870.0,249288,0.59,-1.14,10.29,0.01,0.02,0.01,25.79,11.580681,-94.14308180043614,452.72606840237916,10.36975409544508,0.024494897427831782,-1.2689227081039915,0.6491194741807805
13544151,1698.0,1,200599.0,249037,0.38,-0.97,8.87,-0.04,-0.01,0.0,25.79,11.62065,-125.84630801439535,431.7321249068366,8.930968592487602,0.04123105625617661,-1.698572283840911,0.6191361851213639
13584182,1725.0,1,200631.0,249406,0.9,-1.01,10.45,0.04,0.04,0.02,25.79,11.660681,-112.013665831371,362.8922176095127,10.537200766807093,0.060000000000000005,-1.5111090646357883,0.5208198854820255
13624151,1753.0,1,200827.0,249826,0.17,-0.89,9.13,-0.01,-0.01,0.0,25.79,11.70065,-74.69538242386348,392.59943297265033,9.174851497435803,0.01414213562373095,-1.0053629135956175,0.5632473610809959
13664182,1781.0,1,201056.0,249865,0.21,-1.15,10.73,0.04,0.01,0.01,25.79,11.740681,-55.7502000045313,578.8624334883579,10.793493410383869,0.042426406871192854,-0.7486133470439145,0.8292658624036502
13704151,1787.0,1,201350.0,249889,0.42,-1.19,9.46,0.02,-0.02,0.0,25.79,11.78065,-44.070925784071946,851.7178845854827,9.543799033927737,0.0282842712474619,-0.5903330767688965,1.2189546249469816
13744171,1776.0,1,201679.0,249957,0.28,-1.49,11.17,0.09,0.0,0.02,25.79,11.82067,-57.74455767065527,1064.1799142698408,11.272417664369964,0.09219544457292887,-0.775641351050035,1.5223902539667986
13784152,1714.0,1,201572.0,250210,0.47,-1.12,9.62,-0.01,-0.07,-0.01,25.79,11.860651,-119.02128596919987,1088.4398795239188,9.696375611536508,0.07141428428542851,-1.606077980380331,1.557038034691695
13824205,1671.0,1,201521.0,250549,0.76,-1.26,11.69,0.05,0.02,-0.09,25.79,11.900704,-159.25303809531798,890.8246262321043,11.782245117124324,0.10488088481701516,-2.1513081445119724,1.2748063871093183
13864171,1658.0,1,201106.0,250129,0.28,-0.54,9.47,-0.04,-0.08,-0.07,25.79,11.94067,-172.93286795169237,543.7662819922457,9.489515266861634,0.11357816691600547,-2.336700415136991,0.7791419752261682
13904203,1660.0,1,200811.0,250265,0.26,-1.46,11.72,0.04,-0.03,0.0,25.79,11.980702,-168.73485531067817,177.2452109745141,11.813449961802014,0.05,-2.2798079607862154,0.25568113896046646
13944171,1712.0,1,200489.0,249921,0.64,-0.16,9.22,-0.08,-0.07,-0.02,25.79,12.02067,-112.2970180806132,-93.84220417684097,9.24357073862693,0.10816653826391968,-1.5149491209395032,-0.13148253662906273
13984203,1742.0,1,200413.0,250131,0.7,-0.85,11.07,0.02,-0.02,-0.01,25.79,12.060702,-84.97884898599887,-222.44526426946206,11.124630330936846,0.030000000000000002,-1.1447268703017286,-0.3151518279892721
14024213,1750.0,1,200455.0,250235,0.4,-0.03,10.81,-0.06,-0.01,-0.03,25.79,12.100712,-68.22687964868655,-236.87473887585486,10.817439623127092,0.06782329983125268,-0.9177002431073958,-0.33575982420450656
14064203,1797.0,1,200458.0,250245,0.53,-0.8,10.25,-0.05,-0.01,-0.02,25.79,12.140702,-21.728386895883148,-208.45894785575575,10.294823942156563,0.05477225575051661,-0.28754173656235277,-0.29517674479455663
14104202,1811.0,1,200300.0,250484,0.73,-0.5,10.24,-0.05,-0.15,-0.02,25.79,12.180701,-6.5233948244041935,-206.76695080328932,10.278156449480617,0.15937377450509227,-0.08148010900100079,-0.29276025564269464
14144205,1856.0,1,200503.0,250170,0.35,-1.23,10.63,-0.06,-0.01,-0.05,25.79,12.220704,52.691421590073254,-269.0403199539513,10.706647467811761,0.07874007874011811,0.7210130056782122,-0.3816983071500015
14184202,1925.25,1,199993.0,249736,0.93,-0.48,9.12,-0.09,-0.2,-0.08,25.79,12.260701,107.52421863231704,-392.3396283581177,9.179852939998549,0.23345235059857505,1.4641199635213689,-0.5577928462961702
14224203,1879.0,1,200122.0,249473,0.66,-0.94,10.47,-0.04,0.0,-0.03,25.79,12.300702,89.83320837697232,-540.5054759691242,10.532810641039742,0.05,1.224367233017885,-0.7694014675443654
14264182,1925.25,1,199991.0,249585,0.85,-0.73,9.05,-0.05,-0.13,-0.07,25.79,12.340681,115.60898158158689,-656.7676079243158,9.119095349868868,0.15588457268119896,1.5736865719051518,-0.9354455987871059
14304203,1925.25,1,199880.0,248966,0.96,-0.48,9.2,-0.06,-0.05,-0.03,25.79,12.380702,142.38261013383251,-682.7713471688137,9.262397097943921,0.08366600265340755,1.9365290810799818,-0.9725838158428494
14344202,1925.25,1,199826.0,249553,0.78,-0.87,9.53,0.01,-0.03,0.02,25.79,12.420701,133.28618020996976,-588.1670387595611,9.601364486363384,0.03741657386773942,1.8132521239926491,-0.837471118892747
14384858,1925.25,1,199968.0,249930,1.07,-0.76,9.36,-0.05,-0.04,-0.01,25.73,12.461357,144.54305832141745,-400.01019787101325,9.451566007810557,0.06480740698407861,1.9658079828842643,-0.5687478582978137
14423202,1925.25,1,200331.0,250611,0.43,-1.25,9.5,0.02,0.02,0.03,25.73,12.499701,153.10837791184173,-204.09072590062686,9.59152751129871,0.04123105625617661,2.081887207857795,-0.28893810451317603
14463151,1923.0,1,200303.0,250251,0.73,-1.02,9.78,-0.03,-0.05,-0.0,25.73,12.53965,148.06137419150969,-101.12751699402116,9.86010649029715,0.05830951894845301,2.0134890267847116,-0.1418873298082082
14503202,1885.0,1,200315.0,250382,0.61,-0.89,9.91,-0.03,0.0,0.01,25.73,12.579701,128.34139063074397,-140.24010984229938,9.968565593905675,0.03162277660168379,1.7462391729924998,-0.19774744858399645
14543171,1872.0,1,200039.0,249656,1.0,-1.32,9.69,-0.04,-0.03,-0.01,25.73,12.61967,109.2006762140966,-281.1695701438995,9.83048828899155,0.05099019513592785,1.4868397108395577,-0.39902115145490374
14583202,1843.0,1,199841.0,249204,0.74,-1.07,10.46,-0.01,0.01,-0.01,25.73,12.659701,97.40656913488121,-420.21517107616404,10.540592962447606,0.017320508075688773,1.3270031986630935,-0.597604349798633
14623182,1807.0,1,199552.0,249231,1.23,-0.36,9.47,-0.05,-0.05,-0.01,25.73,12.699681,59.396205010578385,-462.6192459442096,9.556327746577134,0.07141428428542851,0.8118778070263968,-0.6581653222684168
14663202,1754.0,1,199999.0,250053,0.24,-1.13,10.44,-0.03,0.06,0.0,25.73,12.739701,19.05472759537182,-383.2627470764171,10.503718389218172,0.0670820393249937,0.26516061997833934,-0.5448293573125488
14703171,1742.0,1,199929.0,249912,0.81,-0.09,9.73,-0.06,-0.02,-0.02,25.73,12.77967,7.42788163218664,-228.16128010877853,9.764071896498919,0.066332495807108,0.10759086977287054,-0.32331537073743744
14743202,1700.0,1,200105.0,250158,0.23,-0.63,10.15,0.0,0.09,0.0,25.73,12.819701,-21.16453591759907,-63.49472187859504,10.172133502859664,0.09,-0.2799002955315995,-0.08814063975451747
14783151,1707.0,1,200111.0,250205,0.8,-0.15,10.15,-0.02,-0.01,-0.01,25.73,12.85965,-19.53725555748063,75.97533690637974,10.18258316931416,0.024494897427831782,-0.257847009483946,0.11104876401669857
14823202,1759.0,1,200113.0,250373,0.85,-0.7,10.33,-0.0,-0.0,0.01,25.73,12.899701,54.01910319738056,194.8862278319157,10.38852251285042,0.01,0.739006058985895,0.28087581988593513
14863182,1728.0,1,200171.0,251008,0.84,-0.69,9.71,-0.04,-0.06,0.02,25.73,12.939681,7.208915854581724,305.68823187720164,9.77066016193379,0.07483314773547883,0.10462339407137762,0.439121864339557
14903182,1555.25,1,200455.0,251237,0.56,-0.74,10.33,-0.04,-0.04,0.02,25.73,12.979681,-137.24952698341573,398.8086111310334,10.371600647923154,0.060000000000000005,-1.8531113884421189,0.5721152321212196
14943188,1555.25,1,200226.0,251474,0.78,-0.36,9.59,-0.03,-0.06,0.02,25.73,13.019687,-156.35061744319992,447.3460915039292,9.628400697935248,0.06999999999999999,-2.111973857415238,0.641435858069617
14983182,1555.25,1,200318.0,250978,0.5,-0.74,9.94,-0.04,0.02,-0.01,25.73,13.059681,-133.19240864821975,439.0979000090184,9.980040080079839,0.0458257569495584,-1.7981283668509627,0.6296558935354721
15023198,1555.25,1,200112.0,250904,0.55,-0.54,10.25,0.01,0.0,-0.01,25.73,13.099697,-143.64417427079934,400.41546125015475,10.278939634028404,0.01414213562373095,-1.9397731519948098,0.5744101154816043
15063171,1555.25,1,200034.0,250597,0.69,-0.23,10.42,-0.01,-0.01,-0.01,25.73,13.13967,-134.3305644050817,385.2008555701605,10.44535303376578,0.017320508075688773,-1.8135529212719557,0.5526808048294551
15103205,1555.25,1,200073.0,251267,0.57,-1.19,10.7,0.01,-0.05,-0.01,25.73,13.179704,-133.77716536473204,435.34674787554565,10.78104818651693,0.05196152422706632,-1.8060531273615568,0.6242985447006694
15143202,1555.25,1,200104.0,251117,0.77,-0.54,10.25,-0.03,-0.07,-0.02,25.73,13.219701,-134.778266544654,544.4689257929989,10.293055911632852,0.07874007874011811,-1.8196202859314885,0.7801454823656565
15183205,1555.25,1,200166.0,251862,0.85,-1.39,9.78,-0.01,-0.08,-0.03,25.73,13.259704,-131.05934028977356,654.3567590550936,9.914786936692083,0.08602325267042626,-1.7692205229287334,0.937085919473621
15223202,1555.25,1,200345.0,251507,0.97,-1.0,10.01,-0.06,-0.05,-0.02,25.73,13.299701,-133.3684008414867,687.2858211688886,10.106483067813452,0.0806225774829855,-1.8005134544335273,0.9841147965410965
15263202,1555.25,1,199843.0,250680,1.03,-0.55,9.43,0.0,-0.05,0.02,25.73,13.339701,-134.27258892439843,590.1954160181,9.502015575655514,0.05385164807134505,-1.8127672239264994,0.8454514871371227
15303171,1555.25,1,199734.0,250265,0.64,-0.57,10.42,-0.01,0.01,0.02,25.73,13.37967,-132.80146222709595,361.45396827524064,10.45518531638727,0.024494897427831782,-1.7928301690322892,0.5187657956661627
15343171,1614.0,1,199377.0,249522,0.76,-0.62,8.97,-0.05,-0.03,-0.01,25.73,13.41967,-81.56543927977528,48.91698821270548,9.023463858186611,0.05916079783099616,-1.098467539399642,0.07240436685876694
15382202,1714.0,1,199068.0,248822,0.81,-0.78,9.85,0.01,-0.0,0.02,25.73,13.458701,23.369358231021486,-272.1727599542508,9.913980028222772,0.022360679774997897,0.3236335088117212,-0.38617201900933845
15422858,1799.0,1,198703.0,247972,1.03,-0.86,8.82,-0.06,-0.04,-0.03,25.75,13.499357,96.29781911558052,-528.5720852767847,8.921485302347362,0.07810249675906654,1.3119771577114288,-0.7523583473386102
15463203,1827.0,1,198429.0,247674,1.0,-1.03,8.47,-0.05,-0.02,-0.0,25.75,13.539702,130.3295816603926,-676.7107784452328,8.590797401871377,0.05385164807134505,1.7731836052912024,-0.9639281869495846
15503202,1890.0,1,198318.0,247931,1.08,-0.69,9.24,-0.04,-0.04,0.01,25.75,13.579701,179.07450879934498,-717.9399728342618,9.328456463960155,0.05744562646538029,2.433786318820605,-1.0228112097278255
15543182,1912.0,1,198573.0,247573,0.5,-0.75,9.0,-0.09,0.02,-0.01,25.75,13.619681,207.2113264499538,-689.3802639506076,9.045026257562771,0.09273618495495703,2.8151030871704537,-0.9820225886146361
15583182,1925.25,1,198336.0,247468,0.57,-0.32,8.34,-0.06,-0.04,0.03,25.75,13.659681,203.91330449784078,-632.0883181581635,8.365578282462009,0.07810249675906654,2.7704075182421253,-0.9001989440079903
15623182,1923.0,1,198562.0,247459,0.71,-1.1,10.26,0.05,0.14,0.02,25.75,13.699681,209.7681055941263,-559.8468443719286,10.343195831076583,0.15000000000000002,2.84975315928403,-0.7970245694046271
15663151,1925.25,1,198405.0,247474,0.72,-0.52,8.5,-0.11,-0.03,0.04,25.75,13.73965,191.21925065943068,-455.4656916707923,8.546274041943658,0.12083045973594572,2.598374715988925,-0.6479487050031739
15703182,1872.0,1,198658.0,248198,0.67,-1.29,10.3,0.04,0.13,0.04,25.75,13.779681,149.70766949915424,-297.4500606847948,10.402067102263858,0.14177446878757827,2.035800007872047,-0.42227274561206646
15743151,1858.0,1,198761.0,248643,0.59,-0.18,9.15,-0.11,-0.07,0.04,25.75,13.81965,111.27028021549992,-90.92170872671194,9.170768779115523,0.13638181696985857,1.5148874708733564,-0.12731152134093826
15783182,1785.0,1,199123.0,249215,0.7,-0.84,10.53,-0.03,0.09,-0.0,25.75,13.859681,51.29954355571267,127.2844019138963,10.586618912570717,0.09486832980505137,0.7021499472971933,0.18432773267808428
15823182,1759.0,1,199164.0,249555,0.39,-0.38,9.58,-0.12,-0.07,-0.02,25.75,13.899681,1.7092678342605716,313.74220435745923,9.595462469313295,0.14035668847618202,0.030090871018788233,0.4506244476919139
15863203,1715.0,1,199470.0,249626,0.91,-0.37,10.92,-0.06,0.09,-0.02,25.75,13.939702,-32.65346030625068,448.30529649501506,10.964095949963225,0.10999999999999999,-0.4356009001307696,0.6428057827110293
15903184,1667.0,1,199128.0,248988,0.56,-0.36,9.69,-0.11,-0.05,-0.01,25.75,13.979683,-98.56287257847215,539.799848944554,9.712842014570194,0.12124355652982141,-1.3288207519123214,0.7734771648665036
15943203,1607.0,1,199397.0,249777,0.63,-0.3,11.53,-0.02,0.16,0.0,25.75,14.019702,-155.87367016182782,605.6213657490935,11.551095186171741,0.161245154965971,-2.1055101557178952,0.8674826367350345
15983171,1584.0,1,199689.0,250027,0.01,-0.72,10.6,-0.12,0.05,0.0,25.75,14.05967,-188.08796926860683,650.5918681030978,10.624429396442897,0.13,-2.542085911462135,0.9317089490290336
16023177,1563.0,1,199488.0,250049,0.71,-0.64,11.56,-0.09,-0.02,0.0,25.75,14.099676,-214.7868115808359,665.6467196747392,11.599452573289827,0.09219544457292887,-2.9039148999284654,0.9532101008500325
16063182,1584.0,1,199477.0,250258,0.41,-0.98,10.42,-0.11,-0.01,0.0,25.75,14.139681,-194.0546991689279,638.2450942819206,10.474010693139471,0.11045361017187261,-2.6229484379731103,0.9140754401787219
16101181,1625.0,1,199302.0,249754,0.71,-0.33,10.76,-0.11,-0.03,0.02,25.75,14.17768,-164.77404865993464,554.4213092091659,10.788447525014893,0.11575836902790225,-2.2261301777876312,0.7943593526116366
16141183,1632.0,1,199248.0,249730,0.5,-0.48,10.28,-0.09,0.04,0.02,25.75,14.217682,-153.5388529166397,392.44329590528884,10.303339264529727,0.1004987562112089,-2.0738681634471967,0.5630243680628151
16181171,1712.0,1,199082.0,248539,0.63,-0.53,9.91,-0.09,-0.0,0.01,25.75,14.25767,-84.65569979987552,128.50031930960506,9.944138977307185,0.09055385138137416,-1.140347476552316,0.18606429078378986
16221181,1779.0,1,198630.0,247690,0.46,-0.46,9.17,-0.08,0.03,0.02,25.75,14.29768,-15.52612229460753,-235.43407474081772,9.193046285100493,0.08774964387392122,-0.20348718840495272,-0.333702285600217
16261171,1809.0,1,198366.0,246909,0.35,-1.52,9.61,-0.02,0.06,0.06,25.75,14.33767,9.481662376303367,-641.2713598818391,9.735758830209384,0.08717797887081347,0.13542418930354577,-0.9133140500148302
16301171,1872.0,1,198004.0,246345,0.49,-1.29,9.43,-0.06,0.01,0.01,25.75,14.37767,69.71627210223171,-975.9223046466251,9.530430210646317,0.06164414002968976,0.951737782714078,-1.391258368242601
16341171,1913.0,1,197794.0,246237,0.81,-1.23,9.08,-0.02,-0.04,-0.01,25.75,14.41767,112.45187282683165,-1118.5804724267484,9.19866294631997,0.0458257569495584,1.5309006917590282,-1.5950009896394033
16382203,1894.0,1,198000.0,246946,0.38,-1.45,9.55,-0.02,-0.04,-0.06,25.75,14.458702,86.96348376990194,-1010.7675419868916,9.666922985107517,0.07483314773547883,1.1854760504111541,-1.4410239029425973
16422890,1872.0,1,198415.0,247420,0.28,-1.57,9.11,-0.04,-0.02,-0.06,25.67,14.499389,71.7441088037941,-700.587841333756,9.248535019126003,0.07483314773547883,0.9792195024800749,-0.9980291112770443
16461205,1885.0,1,198727.0,247771,0.6,-1.17,10.37,0.06,-0.03,-0.02,25.67,14.537704,76.59233136150398,-324.18541864011866,10.453028269358118,0.06999999999999999,1.0449237544997332,-0.46045585141358714
16501182,1861.0,1,199225.0,248819,0.43,-1.98,10.36,0.03,0.03,0.01,25.67,14.577681,61.982153470428244,-30.290878142619142,10.556273016552764,0.04358898943540673,0.8469231885643433,-0.040719322990906984
16541150,1834.0,1,199340.0,248738,0.51,-1.67,9.78,0.03,-0.03,-0.02,25.67,14.617649,28.284058564469536,104.02477436019952,9.934656511425041,0.0469041575982343,0.39023868327848554,0.1511086218185674
16581181,1821.0,1,199338.0,248918,0.43,-1.67,11.44,0.09,0.01,0.0,25.67,14.65768,23.590164699051225,109.37739330279346,11.569243709076233,0.09055385138137416,0.3266259299826358,0.15875316563734915
16621151,1883.0,1,199317.0,249361,0.11,-1.4,10.16,0.03,-0.05,-0.01,25.67,14.69765,83.65693321080855,87.76177192158454,10.256593001577084,0.05916079783099616,1.1406648997957753,0.12788200395163254
16661181,1925.25,1,199465.0,249790,0.3,-1.61,11.19,0.04,-0.04,-0.01,25.67,14.73768,131.075868944118,131.7968874731223,11.30920863721242,0.05744562646538029,1.783297466027852,0.19077240844504742
16701181,1925.25,1,199640.0,250241,0.46,-0.96,10.76,0.02,-0.05,-0.09,25.67,14.77768,133.34634191095859,258.86089337418525,10.812529768745147,0.10488088481701516,1.814067449509712,0.37224364174563634
16741181,1925.25,1,199862.0,250629,0.22,-1.24,11.55,0.02,-0.05,-0.09,25.67,14.81768,138.17142096571033,405.14018976011783,11.618455146877317,0.10488088481701516,1.8794580553357645,0.5811579139917588
16781184,1925.25,1,200024.0,250964,0.19,-0.58,11.11,0.02,-0.08,-0.06,25.67,14.857683,140.02049739600207,477.06663919673207,11.126751547509272,0.1019803902718557,1.9045171738752582,0.6838823747360397
16821181,1925.25,1,200029.0,250560,0.32,-1.55,12.47,0.03,-0.08,-0.01,25.67,14.89768,148.3920563914287,416.3376992470764,12.570035799471695,0.08602325267042626,2.0179705097082503,0.5971500578100138
16861184,1909.0,1,199475.0,250311,0.61,-1.07,9.83,-0.09,-0.21000000000000002,-0.02,25.67,14.937683,131.5160032349005,232.30421737239118,9.906861258743861,0.22934689882359433,1.7892622694212272,0.3343157272883966
16901202,1823.0,1,199618.0,250448,0.7,-1.48,10.57,-0.04,-0.08,-0.01,25.67,14.977701,55.845302533511784,-10.183389416853162,10.69604132377956,0.09,0.7637551417664464,-0.012002057611412802
16941205,1735.0,1,199565.0,250204,0.77,-0.55,9.35,-0.1,-0.2,-0.07,25.67,15.017704,-31.531336937056142,-225.2872061689413,9.397760371492774,0.23430749027719966,-0.42039362039699185,-0.3192106540731018
16981202,1627.0,1,199363.0,249533,0.48,-0.99,9.27,-0.03,-0.03,-0.02,25.67,15.057701,-132.0782091881729,-340.184461749746,9.335062934977996,0.0469041575982343,-1.7830284737970294,-0.4833054858489601
17021214,1555.25,1,199152.0,249841,1.08,-0.27,10.2,-0.01,-0.12,-0.03,25.67,15.097713,-199.4965582160105,-325.21237646445536,10.260570159596394,0.12409673645990855,-2.696697791272986,-0.46192253980900244
17061202,1555.25,1,199439.0,249860,0.59,-1.01,8.95,-0.07,-0.07,-0.07,25.67,15.137701,-194.15572423811537,-217.1355254049993,9.02611211984429,0.12124355652982141,-2.624317553463826,-0.3075685249649019
17101203,1555.25,1,199419.0,250431,0.93,-1.17,8.39,-0.05,-0.16,-0.09,25.67,15.177702,-191.35767189812373,-112.99466703691374,8.52208307868446,0.19026297590440447,-2.586397690272181,-0.15883584594206665
17141202,1555.25,1,199769.0,250357,1.17,-1.48,8.8,-0.04,-0.03,-0.05,25.67,15.217701,-180.76872285438094,-115.6236406065122,8.999961111027092,0.07071067811865477,-2.4428937631500656,-0.16259051330523133
17181205,1603.0,1,199521.0,250116,1.01,-0.94,8.16,-0.07,-0.09,-0.05,25.67,15.257704,-139.72139200525746,-256.0232442506284,8.275826242738546,0.12449899597988733,-1.8866106844047992,-0.3631074814862139
17221202,1610.0,1,199218.0,248371,1.11,-0.89,9.07,-0.03,0.02,-0.04,25.67,15.297701,-111.56746090815179,-457.087661377332,9.180909540998648,0.053851648071345036,-1.505061990604299,-0.6502651819703108
17261182,1663.0,1,198729.0,248435,0.95,-0.55,8.14,-0.06,-0.06,-0.03,25.67,15.337681,-76.63034307675774,-581.3662070516071,8.213683704647995,0.09,-1.0315859553129805,-0.827758255609709
17301202,1674.0,1,199109.0,248802,0.87,-0.41,9.48,-0.03,0.03,-0.09,25.67,15.377701,-36.76962409611688,-530.378806412161,9.528662025699097,0.09949874371066199,-0.49138411960642636,-0.7549386839991926
17341182,1715.0,1,199352.0,249263,0.79,-0.67,8.83,-0.02,-0.05,-0.03,25.67,15.417681,-18.474291947292194,-310.6760065290085,8.890551164016774,0.061644140029689765,-0.24344147671390398,-0.4411618770139608
17381202,1741.0,1,199671.0,249637,0.99,-0.78,9.54,-0.03,0.09,-0.07,25.67,15.457701,33.763911700220014,-13.123192352106665,9.622894574918712,0.11789826122551596,0.4645029414011857,-0.016200647609720745
17420182,1807.0,1,199826.0,249981,0.47,-1.17,8.7,-0.04,0.05,-0.02,25.67,15.496681,84.65035103357438,264.5568296850951,8.790893014933124,0.0670820393249937,1.1541279317030106,0.38037850716100235
17460869,1769.0,1,199619.0,250241,1.29,-0.42,9.4,-0.05,-0.01,-0.02,25.59,15.537368,57.802236287255795,476.186654176306,9.497394379512732,0.05477225575051661,0.7902759681128566,0.6826255910716942
17501237,1760.0,1,200160.0,250963,0.26,-0.64,9.51,-0.05,0.12,-0.0,25.59,15.577736,51.11373587055266,625.2261886310466,9.53505637109713,0.13,0.6996318378606683,0.8954820010065956
17541182,1792.0,1,199888.0,250556,0.82,0.06,9.54,-0.07,-0.04,-0.01,25.59,15.617681,74.54840046469776,727.3738924067404,9.575364222837687,0.08124038404635961,1.0172239224157131,1.0413680814236723
17581182,1744.0,1,200280.0,251195,0.38,-0.64,10.95,-0.01,0.16,0.03,25.59,15.657681,44.00670691233597,786.8152811107293,10.975267650494906,0.16309506430300091,0.6033157104091567,1.1262615336701853
17621171,1728.0,1,199898.0,250727,0.76,-0.35,10.26,-0.04,-0.04,0.01,25.59,15.69767,8.789998147163878,803.7422064562609,10.294061394804288,0.05744562646538029,0.12605059304565652,1.1504363579774908
17661182,1697.0,1,199961.0,251033,0.75,-1.07,10.82,-0.03,0.05,0.04,25.59,15.737681,-3.114711967049366,790.4503002878478,10.898614590855114,0.07071067811865475,-0.035284837466163683,1.1314530228607325
17701171,1712.0,1,199705.0,250927,0.56,-0.69,9.74,-0.11,-0.07,0.02,25.59,15.77767,-3.2186616488969877,768.5223162420401,9.780454999640865,0.1319090595827292,-0.03669358799528659,1.1001357487013865
17741182,1715.0,1,199730.0,250974,0.64,-1.06,10.05,-0.09,0.03,0.03,25.59,15.817681,8.269453962387342,747.4821930195588,10.125991309496568,0.09949874371066199,0.11899605586284186,1.0700865063301597
17781171,1712.0,1,199540.0,250074,0.79,-0.32,9.89,-0.08,-0.01,-0.0,25.59,15.85767,1.8523879862970976,710.2499864468741,9.926661070067821,0.0806225774829855,0.032030468969700285,1.016911931852252
17821202,1699.0,1,199391.0,250009,0.7,-0.65,10.27,-0.05,0.05,0.01,25.59,15.897701,-14.691750230006809,626.1755338252817,10.314329837657898,0.07141428428542851,-0.19217958200732396,0.8968378440087434
17861171,1713.0,1,199443.0,249205,0.23,-0.7,10.09,-0.05,0.05,0.02,25.59,15.93767,3.690572607757485,483.75784446490684,10.11686710400013,0.07348469228349536,0.05694197915502143,0.6934386709008918
17901171,1741.0,1,198815.0,248238,1.07,-0.57,10.18,-0.01,-0.03,0.04,25.59,15.97767,24.222449005302824,311.05665926175845,10.251936402455879,0.05099019513592785,0.33519479556409815,0.44678898557858626
17941181,1714.0,1,198597.0,247810,0.26,-1.55,9.48,-0.08,-0.01,0.03,25.59,16.01768,-0.00040282627725094617,159.1148770462152,9.609396443065506,0.08602325267042626,0.00692101224818459,0.2297876214785626
17981184,1718.0,1,198512.0,247663,0.97,-0.74,8.56,-0.08,-0.06,0.01,25.59,16.057683,1.0780919325716853,60.04590676028471,8.646507965647173,0.1004987562112089,0.021537026796568583,0.0882985499502675
18021189,1742.0,1,198530.0,247676,0.53,-0.58,9.19,-0.04,0.03,0.02,25.59,16.097688,21.607831651325114,-0.7803987964533795,9.22352427220745,0.05385164807134504,0.2997608864322799,0.0014271766748607398
18061171,1721.0,1,198285.0,246949,0.73,-0.4,8.83,-0.07,0.02,-0.01,25.59,16.13767,2.399758188970231,-73.17352784963093,8.86914877538989,0.07348469228349536,0.039448558654402235,-0.10196379009505223
18101182,1721.0,1,198048.0,246210,0.66,-1.21,9.28,-0.02,0.05,-0.01,25.59,16.177681,-3.0245055878806815,-205.8823784711324,9.381796203286447,0.05477225575051661,-0.03406233940628093,-0.2914969204367742
18141184,1725.0,1,197697.0,246011,0.65,-0.77,8.98,-0.02,-0.01,0.0,25.59,16.217683,1.249018585421748,-419.388394338531,9.036359886591503,0.022360679774997897,0.023853464984390154,-0.596423557542175
18181182,1728.0,1,197548.0,244811,0.37,-1.02,8.56,-0.05,0.02,-0.01,25.59,16.257681,2.8967943488937324,-702.882372489657,8.628493495390723,0.05477225575051661,0.04618450955718485,-1.0013061321434584
18221229,1753.0,1,196913.0,244037,0.8,-1.01,8.5,-0.03,-0.02,-0.01,25.59,16.297728,23.309468088924422,-1023.1952754089355,8.597098347698484,0.03741657386773942,0.3228218635246085,-1.4587730372882066
18261202,1746.0,1,196841.0,243180,0.79,-1.07,9.03,-0.02,0.05,-0.02,25.59,16.337701,19.40494253487326,-1328.7469408346208,9.127425704983853,0.057445626465380296,0.2699068151812513,-1.8951581265873956
18301181,1744.0,1,196646.0,242895,0.5,-0.81,9.15,0.03,0.07,-0.01,25.59,16.37768,10.253623127901161,-1549.7892903087563,9.19938041391919,0.07681145747868609,0.14588598291316607,-2.2108480616423676
18341171,1746.0,1,196250.0,242175,0.99,-0.73,9.37,0.02,0.01,-0.01,25.59,16.41767,16.491530190506793,-1612.5755703062484,9.450391526280802,0.024494897427831782,0.2304235660867916,-2.3005186460435296
18381171,1738.0,1,196478.0,243335,0.41,-1.24,9.63,0.02,0.06,0.03,25.59,16.45767,2.209481730166964,-1475.6319703165414,9.718158261728403,0.06999999999999999,0.03686988734676255,-2.1049374993094583
18421183,1734.0,1,196588.0,243764,0.92,-0.78,9.11,-0.03,-0.07,-0.02,25.59,16.497682,0.7298427870526631,-1165.13399024913,9.189499442298258,0.07874007874011811,0.016817472495905286,-1.6614881449419565
18459890,1759.0,1,197472.0,245588,0.66,-1.2,10.13,0.01,0.01,-0.01,25.63,16.536389,22.97347959983044,-770.8164707278966,10.222157306557165,0.017320508075688773,0.3182684685225517,-1.0983287665475385
18500171,1766.0,1,197483.0,245181,0.92,-0.33,9.16,-0.1,-0.01,-0.03,25.63,16.57667,28.10031037229335,-393.3423370703309,9.211997611810371,0.10488088481701516,0.3877484845751068,-0.5592249024111668
18540205,1765.0,1,198050.0,245269,0.04,-1.09,12.22,0.07,0.14,0.01,25.63,16.616704,30.780208724951166,-83.98514376022327,12.268581825133662,0.15684387141358122,0.4240670971499532,-0.11740480550578271
18580151,1783.0,1,197805.0,245420,0.85,-0.55,10.8,-0.05,-0.08,-0.02,25.63,16.65665,39.72843815910546,169.68855487186082,10.847349906774467,0.09643650760992956,0.5453356063557512,0.2448888166749195
18620202,1763.0,1,198619.0,246538,-0.02,-1.76,12.79,0.01,0.11,0.0,25.63,16.696701,31.99761551228246,401.8866704885457,12.910542203951001,0.11045361017187261,0.44056568016942615,0.5765112782227026
18660171,1774.0,1,198328.0,246764,0.69,-0.2,9.64,-0.14,-0.19,-0.02,25.63,16.73667,25.756390582775758,614.6316396818831,9.666731608977255,0.2368543856465402,0.3559831324834581,0.8803509979311442
18700205,1767.0,1,199031.0,247541,0.13,-1.61,11.98,-0.02,0.02,0.06999999999999999,25.63,16.776704,39.10362042593148,764.9530671862756,12.088399397769749,0.0754983443527075,0.5368679295281827,1.0950381915803644
18740171,1792.0,1,198912.0,246788,0.47,-0.47,9.11,-0.18,-0.12,-0.04,25.63,16.81667,40.82114282356892,803.3482689303521,9.134215894098409,0.21999999999999997,0.5601441968860664,1.1498737413012488
18780205,1744.0,1,198826.0,246423,0.84,-1.27,10.64,-0.01,0.05,0.06999999999999999,25.63,16.856704,17.38168101826205,723.5738981575867,10.748399880912508,0.08660254037844387,0.24248709939743354,1.035940976886562
18820171,1744.0,1,198472.0,246208,0.58,-0.71,9.13,-0.12,-0.04,0.06,25.63,16.89667,-6.640335388780604,575.787463530733,9.17591412339937,0.13999999999999999,-0.08306491502457948,0.8248742285446726
18860184,1703.0,1,198701.0,247752,0.37,-1.77,10.16,-0.05,0.07,0.02,25.63,16.936683,-25.23515377822816,433.9561622928049,10.319660847140279,0.08831760866327848,-0.33506626586544336,0.6223125276620874
18900171,1688.0,1,198638.0,247874,0.86,-0.57,9.32,-0.14,-0.1,-0.02,25.63,16.97667,-58.380741861261924,350.2270089608138,9.376934467084645,0.17320508075688776,-0.7842630687812208,0.5027315919704997
18940205,1631.0,1,198511.0,248646,0.4,-1.82,9.11,-0.04,-0.07,0.0,25.63,17.016704,-101.17826216285637,331.6067192126021,9.298628931191953,0.0806225774829855,-1.3642651264921761,0.4761383256787589
18980181,1629.0,1,198683.0,247775,0.51,-0.68,9.34,-0.1,-0.0,-0.01,25.63,17.05668,-110.9535373755169,346.33404579579815,9.37859797624357,0.1004987562112089,-1.4967419545438887,0.4971717103837407
19020202,1645.0,1,198547.0,247974,0.94,-1.95,8.98,-0.04,-0.02,0.01,25.63,17.096701,-91.2642587433761,346.3878177493157,9.237234434612992,0.0458257569495584,-1.2299082211637669,0.49724850681914823
19060181,1648.0,1,198815.0,247521,0.69,-1.53,10.37,-0.04,0.1,-0.01,25.63,17.13668,-85.88208278634907,292.60181491949965,10.504946453933023,0.10816653826391968,-1.1569677071330553,0.42043200635846173
19100184,1655.0,1,198469.0,246826,0.8,-2.2699999999999996,8.07,-0.11,-0.13,-0.01,25.63,17.176683,-83.23439966966325,175.4138354979281,8.421270687966278,0.1705872210923198,-1.1210856830105707,0.253065591276323
19140202,1681.0,1,198347.0,246304,0.68,-1.48,8.75,-0.02,0.06,0.0,25.63,17.216701,-48.7485643953972,26.53342063464647,8.90029774782844,0.06324555320336758,-0.6537255350393302,0.0404364339634334
19180171,1733.0,1,198530.0,246496,-0.14,-1.4,10.3,-0.01,0.12,0.01,25.63,17.25667,-4.487437837571156,-83.19549409225066,10.395652937646583,0.12083045973594571,-0.05388834121976874,-0.11627703766857185
19220182,1731.0,1,198425.0,245331,0.68,-1.48,10.41,-0.03,0.04,-0.09,25.63,17.296681,3.873911332275967,-64.5976739743082,10.536645576273314,0.10295630140987,0.059426628656428636,-0.08971586222339181
19260184,1723.0,1,198560.0,246571,0.99,-2.2699999999999996,12.45,0.1,-0.11,0.01,25.63,17.336683,-12.25753807029638,148.16070325190358,12.693915865484534,0.1489966442575134,-0.15919056648521487,0.21414300667088404
19300171,1707.0,1,198981.0,247551,-0.44,-2.2699999999999996,8.95,-0.09,-0.14,0.05,25.63,17.37667,-17.31863931453135,545.9349489517311,9.24386282892601,0.17378147196982768,-0.227779800516851,0.7822392384122706
19340205,1735.0,1,199661.0,248818,0.51,-1.99,12.09,0.01,-0.05,0.03,25.63,17.416704,1.9130721019680608,1012.9849704477504,12.26329074922388,0.05916079783099616,0.03285287437336609,1.4492742717634437
19380171,1751.0,1,199704.0,249231,0.45,-1.89,8.86,-0.12,-0.14,-0.01,25.63,17.45667,30.51288505696069,1347.5735556747647,9.07051266467337,0.1846618531261939,0.42044426394801326,1.927129528874754
19420205,1770.0,1,199919.0,249092,0.27,-0.89,10.64,0.01,0.08,0.01,25.63,17.496704,39.38188311407961,1340.393672126437,10.680571145776803,0.08124038404635961,0.5406390109032895,1.916875308466465
19459151,1769.0,1,199283.0,247345,0.85,-1.5,9.14,-0.02,-0.04,-0.0,25.63,17.53565,51.76324060774891,878.2829858917593,9.301188096152018,0.044721359549995794,0.7084340787711727,1.2568945723193221
19499890,1797.0,1,198777.0,246070,-0.16,-1.13,9.45,-0.0,0.02,0.06,25.47,17.576389,71.52147293116683,17.06617815346028,9.518665872904668,0.06324555320336758,0.9762022887879236,0.026915435968499154
19540181,1786.0,1,197373.0,242047,0.4,-1.55,7.33,-0.07,-0.02,-0.01,25.47,17.61668,69.14069925358216,-1025.0415399069443,7.502759492346799,0.07348469228349536,0.9439374841400772,-1.4614098492876144
19580203,1767.0,1,196005.25,240127,0.55,-1.43,7.38,-0.03,0.08,0.02,25.47,17.656702,50.31266606899136,-1958.4562959581851,7.537360280628756,0.08774964387392122,0.6887755515618018,-2.794501197702044
19620171,1728.0,1,196005.25,240025,1.27,-2.2699999999999996,8.32,0.03,0.02,0.02,25.47,17.69667,9.55096580500565,-2545.117349961672,8.71712108439478,0.0412310562561766,0.13636340566399108,-3.6323632204241334
19660151,1695.0,1,196005.25,239836,0.58,0.01,7.49,-0.01,0.05,-0.04,25.47,17.73665,-12.405106335885772,-2681.541324732834,7.512429700170245,0.06480740698407861,-0.16119044631683904,-3.827202244882153
19698171,1712.0,1,196005.25,241342,0.29,-1.78,9.33,0.04,0.01,-0.09,25.47,17.77467,-5.789375435245769,-2414.8918697382787,9.502704878086028,0.09899494936611665,-0.07153250565595923,-3.446376808806499
19738171,1677.0,1,196204.0,240063,-0.05,-0.64,7.38,-0.02,0.03,-0.09,25.47,17.81467,-24.98693986224334,-1917.1367707995626,7.407867439418716,0.09695359714832658,-0.33170241251578264,-2.7354891656418516
19778202,1703.0,1,196005.25,241181,0.41,-0.88,10.38,0.1,0.02,-0.0,25.47,17.854701,-9.37109416124642,-1430.624936472598,10.425300954888545,0.10198039027185571,-0.12007279996700239,-2.0406590131957647
19818171,1751.0,1,197143.0,244340,0.78,-0.62,9.64,0.04,-0.07,0.06999999999999999,25.47,17.89467,49.927252806110374,-1155.4848743815085,9.691356974129063,0.10677078252031312,0.6835523404045951,-1.6477073976379484
19858171,1773.0,1,197943.0,243987,0.47,-0.32,9.44,0.08,0.07,-0.02,25.47,17.93467,69.05321535630745,-1084.5494454679615,9.457108437572236,0.10816653826391968,0.9427518817949335,-1.5463983000822579
19898171,1778.0,1,197332.0,242526,0.32,-1.19,10.68,0.1,0.16,-0.03,25.47,17.97467,75.6524209495471,-911.1839409729916,10.75085577989027,0.19104973174542803,1.0321858676044817,-1.2987998422075893
19938171,1774.0,1,197100.0,243227,-0.07,-0.83,7.81,-0.03,0.12,-0.09,25.47,18.01467,78.61286742815358,-172.57381138733217,7.85429182039985,0.15297058540778355,1.0723065343448615,-0.2439260390899422
19978205,1767.0,1,198765.0,246937,0.24,-1.62,11.46,0.13,0.09,-0.07,25.47,18.054704,63.20962196085299,1386.4170618896078,11.576424318415423,0.17291616465790582,0.8635581301498536,1.9826053414665221
20018171,1761.0,1,201791.0,248739,-0.19,-0.63,9.02,-0.02,0.03,-0.09,25.47,18.09467,71.82655654362739,3496.0287443900406,9.04397036704566,0.09695359714832658,0.9803368536354675,4.99552651527851
20058209,1781.0,1,203509.0,250533,-0.25,-0.8,11.97,0.12,0.02,-0.01,25.47,18.134708,77.82934263043634,5391.137756005854,11.999308313398735,0.12206555615733702,1.0616880220632836,7.702097641682015
20098182,1774.0,1,203703.25,252567,-0.17,0.27,12.09,-0.02,-0.01,-0.09,25.47,18.174681,85.71384045112048,6223.084031440276,12.09420935820114,0.09273618495495704,1.168540590337992,8.890272967749342
20138206,1789.0,1,203703.25,253290,0.5,-1.0,12.959999999999997,0.06,-0.06,-0.09,25.47,18.214705,90.29392213128456,5574.527278247129,13.008135915649095,0.12369316876852982,1.2306109341396736,7.96401227706226
20178182,1712.0,1,201772.0,249755,-0.31,0.08,11.26,-0.16,-0.19,-0.09,25.47,18.254681,18.92712930145037,3714.2993713280016,11.264550590236611,0.2641968962724581,0.2634313778981133,5.3072579106712094
20218205,1675.0,1,198139.0,247447,0.24,-0.76,12.05,-0.0,-0.16,-0.03,25.47,18.294704,-18.30227532450479,1422.8682571298446,12.07632808431437,0.16278820596099708,-0.24111026699721705,2.0346644852706053
20258201,1702.0,1,197121.0,245796,0.1,-0.42,10.21,-0.16,-0.09,0.03,25.47,18.3347,3.383542545003323,-474.41693154666103,10.219124228621551,0.18601075237738274,0.0527810355554479,-0.6750146301521656
20298182,1647.0,1,196407.0,244265,1.11,-0.42,8.99,0.01,-0.18,0.06999999999999999,25.47,18.374681,-45.87693903347306,-1534.7995351577752,9.0679986766651,0.19339079605813717,-0.6148085929559142,-2.1894398797199397
20338171,1606.0,1,196005.25,242808,0.57,-0.7,8.88,-0.1,0.11,0.06999999999999999,25.47,18.41467,-94.91743149705697,-1817.6272798705095,8.925766073564779,0.16431676725154984,-1.2794168772582546,-2.593370948008529
20378171,1577.0,1,196005.25,242812,1.03,-0.42,6.76,-0.13,-0.21000000000000002,0.05,25.47,18.45467,-121.32216310482706,-1686.1594888903844,6.850905049699637,0.2519920633670831,-1.6372600083062372,-2.4056102836151543
20418182,1555.25,1,196005.25,242830,1.19,-0.49,8.44,-0.02,0.13,0.04,25.47,18.494681,-146.9770079668412,-1503.0071951340653,8.537552342445696,0.13747727084867523,-1.9849404978618241,-2.144034455007401
20458171,1575.0,1,196005.25,243094,0.67,-0.46,6.96,-0.12,-0.14,-0.02,25.47,18.53467,-131.11058332863652,-1441.7625291636564,7.007289062112394,0.1854723699099141,-1.7699149806397045,-2.056565584591127
20498202,1555.25,1,196341.0,242860,0.92,-1.64,8.74,0.02,0.07,0.04,25.47,18.574701,-149.3509952825359,-1486.2730390087381,8.940000000000001,0.08306623862918075,-2.0171133321377237,-2.1201349413034785
20538838,1555.25,1,196131.0,242450,0.9,-1.78,6.720000000000002,-0.19,-0.21000000000000002,0.06999999999999999,25.75,18.615337,-161.47629817720198,-1542.4462215561443,7.009764618016788,0.29171904291629647,-2.1814382878761736,-2.200360782154382
20579181,1555.25,1,196376.0,240941,0.85,-1.96,9.12,0.04,0.1,0.06999999999999999,25.75,18.65568,-149.42190086264034,-1547.8567566254314,9.36688315289563,0.1284523257866513,-2.01807426123067,-2.2080880410651718
20619150,1555.25,1,196077.0,241830,1.53,-1.16,7.09,-0.19,-0.18,-0.04,25.75,18.695649,-177.90019270662376,-1513.1976606964733,7.3453795000666915,0.26476404589747454,-2.404018768136789,-2.158588351214304
20659201,1563.0,1,196759.0,241869,0.64,-1.68,8.26,0.04,0.19000000000000003,-0.02,25.75,18.7357,-138.59159073009786,-1497.2658021172776,8.453378023015414,0.19519221295943137,-1.871299351884148,-2.1358346688899137
20699171,1680.0,1,196583.0,242900,1.15,-0.22,9.22,0.0,0.12,-0.09,25.75,18.77567,-70.72522972930798,-1557.724057427807,9.294046481484802,0.15,-0.9515584708138449,-2.222180397380061
20739171,1658.0,1,196050.0,242787,0.62,-0.74,10.17,0.06,0.19000000000000003,0.04,25.75,18.81567,-45.552354724415096,-1719.5197992817275,10.215718281158697,0.20322401432901577,-0.6104097500830645,-2.453255064110437
20779151,1757.0,1,196005.25,244530,0.29,-0.52,9.56,0.04,0.1,0.03,25.75,18.85565,-1.6317958568941064,-1967.323635447822,9.578522850627857,0.1118033988749895,-0.01518800967703747,-2.8071654217037048
20819151,1746.0,1,196481.0,246298,0.08,-1.59,12.05,0.05,0.16,0.04,25.75,18.89565,27.804179833034173,-2235.246232168965,12.15471102083468,0.17233687939614087,0.3837352538806411,-3.189809142962892
20859150,1806.0,1,196227.0,246455,-0.06,0.1,11.63,-0.0,0.02,0.06,25.75,18.935649,52.28381947265949,-2385.636191236622,11.630584680058007,0.06324555320336758,0.7154890859473179,-3.404594212538638
20899171,1795.0,1,196454.0,246866,0.27,-0.48,12.959999999999997,0.09,0.04,0.06999999999999999,25.75,18.97567,54.1981541889704,-2222.950400670134,12.97169611114907,0.12083045973594571,0.7414326001225184,-3.1722483893039333
20939150,1760.0,1,196866.0,247649,0.3,-0.11,12.959999999999997,-0.13,-0.16,-0.01,25.75,19.015649,14.586687905269178,-1590.783912376725,12.963938444778266,0.20639767440550294,0.20460869556936365,-2.269396071148367
20979201,1783.0,1,198068.0,249286,-0.4,-0.33,12.959999999999997,-0.07,-0.07,0.02,25.75,19.0557,24.8332077608437,-512.9039889243907,12.970370079531266,0.10099504938362078,0.34347194182122587,-0.7299813669468906
21017203,1835.0,1,199905.0,250906,-0.24,-0.79,12.959999999999997,-0.09,-0.04,-0.01,25.75,19.093702,89.81239775956286,746.0272174840943,12.98627352245439,0.09899494936611665,1.2240852026377447,1.068008528361729
21057216,1904.0,1,201157.0,251640,-0.05,-0.14,11.62,-0.19,-0.18,-0.04,25.75,19.133715,142.17588811602906,1789.1517019763412,11.620950907735562,0.26476404589747454,1.9337275356900798,2.5577859467932185
21097219,1911.0,1,202054.0,251649,1.41,0.1,11.93,-0.11,-0.21000000000000002,-0.04,25.75,19.173718,155.74977758757456,2308.863060190459,12.013450794838258,0.24041630560342617,2.1176840773111176,3.300031246448541
21137181,1925.25,1,201421.0,250423,0.14,-0.5,8.3,-0.19,-0.14,-0.07,25.75,19.21368,170.67657961471954,2252.829733927373,8.31622510517843,0.24617067250182342,2.3199756079834124,3.220005146603916
21177203,1925.25,1,201094.0,250275,1.01,0.12,7.62,-0.13,-0.21000000000000002,-0.02,25.75,19.253702,157.26674977019388,1812.7335430595679,7.687580893883329,0.24779023386727736,2.138242441001565,2.591465239009173
21217181,1834.0,1,200969.0,249845,0.36,-1.47,8.6,-0.08,0.01,0.06999999999999999,25.75,19.29368,88.15575182996072,1275.1942552333855,8.732153228156271,0.10677078252031312,1.2016339474879942,1.823758311956265
21257171,1875.0,1,201121.0,249817,0.93,-0.06,6.720000000000002,-0.14,-0.21000000000000002,-0.01,25.75,19.33367,100.82716181635432,879.788249655225,6.784312787600527,0.2525866188063018,1.3733598749346279,1.2590443713096946
21297202,1925.25,1,201277.0,250048,1.17,-2.2699999999999996,8.68,0.06,-0.0,-0.04,25.75,19.373701,182.7847997668121,772.7932787627583,9.047883730464267,0.07211102550927978,2.4840690543779997,1.1062354842678759
21337182,1925.25,1,201357.0,250548,1.38,-2.2699999999999996,8.67,-0.07,-0.17,-0.09,25.75,19.413681,154.61333559652718,1012.1029110252051,9.067866342199801,0.20469489490458723,2.102282748247385,1.4480145254637848
21377202,1823.0,1,201189.0,250769,0.49,-2.2699999999999996,8.44,-0.0,-0.02,-0.09,25.75,19.453701,78.56373820233195,1540.554327262225,8.753662090805197,0.09219544457292887,1.0716407235252277,2.2027422673126082
21417203,1858.0,1,202451.0,253219,1.46,0.7699999999999999,8.68,0.07,-0.08,-0.08,25.75,19.493702,97.03905216235667,2144.3488791529926,8.83554752123489,0.13304134695650072,1.322022522240586,3.0650741386775855
21457171,1841.0,1,203703.25,254134,1.11,-2.2699999999999996,11.95,0.13,0.11,0.05,25.75,19.53367,94.46276651551881,2502.9422030973496,12.214233500306106,0.17748239349298847,1.2871080934165056,3.5772126651475404
21497181,1773.0,1,203699.0,252963,1.18,-2.2699999999999996,6.720000000000002,-0.14,-0.17,-0.08,25.75,19.57368,20.639159716395692,2368.2456472320614,7.190528492398875,0.23430749027719966,0.28663321661527447,3.38484071889198
21537201,1711.0,1,202247.0,251631,0.46,-2.2699999999999996,10.03,0.13,0.19000000000000003,-0.01,25.75,19.6137,-32.01347967482548,1747.0620042220198,10.293949679301914,0.2304343724360583,-0.4269277321409891,2.497673963808257
21577858,1664.0,1,201752.0,251363,0.04,-1.43,7.15,-0.04,0.04,-0.09,25.47,19.654357,-85.11550875111021,912.5440439781358,7.291707618932619,0.1063014581273465,-1.1465789155700599,1.3058257894726595
21618182,1636.0,1,201445.0,250084,0.45,0.15,9.07,0.13,0.16,0.01,25.47,19.694681,-98.61838545307532,216.75883516359602,9.082395058573482,0.20639767440550294,-1.3295730754411705,0.31211400571072445
21658132,1679.0,1,201084.0,250470,0.37,-0.49,9.26,0.12,0.05,0.05,25.47,19.734631,-68.76576480512146,-143.1375500008396,9.280334045711932,0.1392838827718412,-0.9250033414504673,-0.20188553659134578
21698150,1643.0,1,201194.0,251212,0.32,-0.85,9.03,0.05,0.01,0.06999999999999999,25.47,19.774649,-85.19955972706742,-224.80614810954918,9.075560588746018,0.08660254037844387,-1.147717994158358,-0.3185236129342048
21738150,1631.0,1,201409.0,252122,0.16,-0.51,11.18,0.08,-0.01,0.06999999999999999,25.47,19.814649,-112.00192019958207,-253.50007482881324,11.192769987809095,0.10677078252031312,-1.5109498850721435,-0.3595039222913334
21778171,1601.0,1,201081.0,252401,0.24,-0.93,11.11,-0.05,-0.14,0.06999999999999999,25.47,19.85467,-126.68128539371955,-439.4722225693096,11.151439368978338,0.16431676725154984,-1.7098880936059944,-0.6251070312969254
21818184,1636.0,1,200676.0,252024,0.34,-0.25,12.959999999999997,-0.01,0.04,0.02,25.47,19.894683,-99.39960758897034,-840.6112160701936,12.966869321466918,0.045825756949558406,-1.3401603815083303,-1.1980087540101503
21858171,1701.0,1,200381.0,251602,0.69,-0.23,12.7,-0.13,-0.15,-0.09,25.47,19.93467,-29.829156515307066,-1350.400802177753,12.720809722655236,0.21794494717703367,-0.39732527110356364,-1.926083902111251
21898205,1687.0,1,199950.0,250749,0.29,-0.42,12.959999999999997,-0.11,0.01,-0.08,25.47,19.974704,-42.11900351717245,-1788.8628181319657,12.970046260518885,0.13638181696985854,-0.5638801672705075,-2.5522899014139053
21938181,1651.0,1,199786.0,250394,0.6,-0.16,11.77,-0.16,-0.17,-0.09,25.47,20.01468,-83.86418922260324,-2012.3460249777809,11.786369245870418,0.2501999200639361,-1.1296207391085862,-2.8714658386172314
21978205,1669.0,1,200049.0,250437,0.98,0.09,12.63,-0.09,-0.05,-0.08,25.47,20.054704,-57.33730042168107,-1970.5326976959773,12.668283230177641,0.130384048104053,-0.7701221050573195,-2.8117485645047
22018182,1691.0,1,200429.0,250448,0.84,-0.88,9.58,-0.19,-0.12,-0.04,25.47,20.094681,-47.97026196638786,-1697.380159479972,9.656935331667082,0.22825424421026655,-0.6431777975263687,-2.4216355058321963
22058205,1669.0,1,200607.0,250749,1.0,-0.52,9.67,-0.16,-0.1,0.06999999999999999,25.47,20.134704,-59.142484592889446,-1271.9529428526223,9.735466090537216,0.2012461179749811,-0.7945863853817358,-1.8140456448520923
22098182,1680.0,1,201112.0,251045,0.85,-0.51,7.57,-0.19,-0.1,0.06999999999999999,25.47,20.174681,-61.882506757564435,-787.874469655373,7.63462507265419,0.2258317958127243,-0.8317198099933928,-1.1226907885147948
22138184,1645.0,1,201845.0,251482,1.34,-0.1,8.67,-0.11,-0.03,0.06999999999999999,25.47,20.214683,-90.62203565702697,-336.6632670205091,8.773511269725478,0.13379088160259653,-1.2212046628976094,-0.4782765593195723
22178181,1648.0,1,202330.0,251315,1.14,-0.11,7.9,-0.12,0.04,0.02,25.47,20.25468,-95.4271912275808,11.491793462397721,7.982587299867131,0.12806248474865697,-1.286325260981388,0.01895416906521335
22216171,1676.0,1,202463.0,251851,1.61,-0.84,8.06,-0.1,-0.01,-0.01,25.47,20.29267,-70.70383088113545,229.1620649875969,8.26203969973517,0.10099504938362078,-0.9512684685920981,0.32982814432228896
22256202,1687.0,1,202468.0,251783,1.22,-0.53,8.08,-0.1,0.05,-0.01,25.47,20.332701,-59.8497342798492,331.85131911348157,8.18875448404701,0.11224972160321825,-0.8041711994284693,0.47648766021581385
22296181,1713.0,1,202513.0,252096,1.08,-1.26,7.47,-0.11,0.01,-0.01,25.47,20.37268,-43.67208400399705,347.54030149303424,7.652117354039992,0.11090536506409417,-0.5849278791893553,0.49889446977182217
22336181,1730.0,1,202564.0,251930,1.02,-0.54,8.19,-0.1,0.02,-0.01,25.47,20.41268,-25.40315206710964,284.78578124368,8.270918933226222,0.10246950765959599,-0.3373430181762437,0.4092692442480467
22376182,1754.0,1,202580.0,252392,0.83,-0.55,7.86,-0.05,0.08,-0.0,25.47,20.452681,-8.966494827018915,137.5140509000254,7.9228151562433915,0.09433981132056604,-0.11458957465986484,0.19893759016353477
22416182,1790.0,1,202457.0,252267,1.06,-0.71,8.92,-0.05,0.12,-0.01,25.47,20.492681,21.589050571877074,-75.90135524028705,9.010776881046384,0.13038404810405296,0.29950636082777915,-0.10585963925629256
22456184,1808.0,1,202058.0,251771,0.87,-1.18,8.65,0.0,0.14,0.02,25.47,20.532683,40.977364172351265,-286.8301938812831,8.773357396116952,0.14142135623730953,0.5622613453356406,-0.4071055838918399
22496151,1812.0,1,201741.0,251698,0.65,-1.0,8.42,-0.03,0.06,0.02,25.47,20.57265,30.139832864420143,-403.94247466963674,8.504051975382088,0.06999999999999999,0.415388572922404,-0.5743638871272616
22536171,1808.0,1,202105.0,252444,0.44,-0.85,10.37,0.05,0.15,0.03,25.47,20.61267,35.942635033393245,-376.3533887299568,10.41407701143025,0.1609347693943108,0.4940295122753461,-0.5349614976338277
22576151,1839.0,1,202358.0,252662,0.37,-0.95,9.39,0.01,0.06,-0.02,25.47,20.65265,47.30851795329852,-231.5578439434455,9.44518395797562,0.06403124237432849,0.6480626299604673,-0.3281663009728743
22616858,1796.0,1,202435.0,252622,0.35,-1.24,11.76,0.08,0.17,-0.01,25.75,20.693357,16.545007023030227,-50.6617262879841,11.830371929909896,0.1881488772222678,0.23114829669466047,-0.0698127150188335
22657171,1819.0,1,202568.0,252902,0.47,-1.48,11.07,0.01,0.04,-0.03,25.75,20.73367,21.714545966749814,94.13287697466933,11.178380920330099,0.05099019513592785,0.301207103925662,0.13698113696945313
22697171,1846.0,1,202629.0,252937,0.13,-1.92,11.27,-0.05,0.02,-0.04,25.75,20.77367,59.276695302871154,183.24978076504084,11.43311855969315,0.0670820393249937,0.81025818336834,0.2642567908738399
22737182,1862.0,1,202732.0,253386,0.19,-1.61,12.01,0.02,0.05,-0.03,25.75,20.813681,61.015616084140696,244.1003253750665,12.118923219494377,0.061644140029689765,0.8338244466524093,0.351162782063761
22777171,1879.0,1,202781.0,253350,0.03,-1.03,11.06,-0.05,0.02,-0.08,25.75,20.85367,87.90416532254221,312.3611424967217,11.107898090998136,0.09643650760992956,1.1982243879862582,0.44865203231467804
22817181,1918.0,1,202952.0,253793,0.28,-1.5,12.94,0.02,0.01,-0.01,25.75,20.89368,115.12046206336059,398.23000164274345,13.029658475954001,0.024494897427831782,1.5670660405330887,0.5712888692445357
22857171,1904.0,1,202963.0,253620,0.3,-1.45,10.46,-0.06,-0.08,-0.05,25.75,20.93367,110.26118513088248,481.91386485275825,10.564284168839837,0.11180339887498948,1.5012119770274588,0.690805122147059
22897201,1925.25,1,203042.0,253810,0.09,-1.65,11.05,-0.0,0.0,0.03,25.75,20.9737,124.94107752460911,534.1946055666327,11.172873399443851,0.03,1.7001573302940975,0.7654718259703464
22937171,1925.25,1,202948.0,253440,0.27,-1.3,9.35,-0.09,-0.04,0.0,25.75,21.01367,129.11505285450315,540.4466276780054,9.443802200385182,0.09848857801796104,1.7567240253529024,0.7744008862115036
22977181,1925.25,1,203008.0,253564,0.22,-1.18,10.64,0.0,0.02,0.05,25.75,21.05368,131.60788121450193,509.52968433842943,10.707492703709866,0.05385164807134505,1.7905074214032024,0.7302456921584698
23017151,1925.25,1,202833.0,253123,0.39,-1.11,8.7,-0.13,-0.05,-0.04,25.75,21.09365,129.6630743984467,464.09121873479864,8.779191306720682,0.14491376746189438,1.764150942167645,0.6653510405700589
23057202,1863.0,1,202817.0,253279,0.34,-1.47,9.43,0.04,-0.07,0.04,25.75,21.133701,76.1335921507141,422.16447744747524,9.549942408203307,0.09000000000000001,1.0387068128560155,0.605471789985046
23097171,1808.0,1,202749.0,253121,0.13,-1.49,8.71,-0.09,-0.05,-0.04,25.75,21.17367,19.074353473303578,384.12574542951444,8.837482673250342,0.11045361017187261,0.2654265944905211,0.5511453458946178
23137214,1759.0,1,202580.0,252893,0.21,-1.49,8.61,-0.01,-0.07,0.01,25.75,21.213713,-22.564705100899314,334.23135805803497,8.740497697499839,0.07141428428542851,-0.2988757175124696,0.4798868022427687
23177183,1731.0,1,202506.0,252747,0.69,-0.85,8.8,-0.04,-0.04,-0.04,25.75,21.253682,-46.67451312409227,255.89761353115034,8.86784077439373,0.06928203230275509,-0.6256175045581794,0.36801152231954937
23217202,1727.0,1,202462.0,252841,0.73,-1.38,10.47,0.02,-0.05,-0.06,25.75,21.293701,-48.039793210876766,149.66574075629228,10.585754578677895,0.0806225774829855,-0.6441201012999186,0.21629248252085623
23257183,1696.0,1,202117.0,252211,0.17,-0.87,8.32,-0.03,-0.05,-0.09,25.75,21.333682,-69.89396932131099,38.57072162233074,8.367090294720143,0.10723805294763608,-0.9402930343181248,0.05762795756096849
23297203,1680.0,1,201974.0,252381,0.36,-1.13,10.92,0.05,-0.03,-0.02,25.75,21.373702,-85.04539358213448,-46.345362782494796,10.984211396363419,0.061644140029689765,-1.1456286983145718,-0.06364813833041473
23337216,1690.0,1,201788.0,252962,0.77,-0.88,8.61,-0.02,-0.04,-0.02,25.75,21.413715,-65.16881767148372,-89.45686805674964,8.68903907230253,0.048989794855663564,-0.8762566681786121,-0.12521945411008215
23377201,1701.0,1,202067.0,253569,0.37,-1.01,11.07,0.05,0.02,-0.01,25.75,21.4537,-51.76034423774548,-101.06036425480642,11.122135586298164,0.05477225575051661,-0.6945418835946762,-0.14179142310104598
23417171,1689.0,1,201580.0,253155,0.98,-0.32,9.73,0.01,-0.07,-0.03,25.75,21.49367,-55.422438933478176,-105.20091464876567,9.78446217224023,0.07681145747868609,-0.7441714519455838,-0.14770490568965639
23457182,1693.0,1,201704.0,253596,0.17,-1.17,10.63,0.01,0.02,-0.03,25.75,21.533681,-47.56289072902364,-118.60961494402952,10.695545801874722,0.03741657386773942,-0.6376570067361906,-0.16685504472615234
23495171,1709.0,1,201476.0,252974,0.68,-0.39,10.0,-0.05,-0.03,-0.09,25.75,21.57167,-24.019641905211238,-141.55973955300888,10.030677943190081,0.10723805294763608,-0.3185933631702924,-0.19963212732841618
23535201,1711.0,1,201363.0,252916,0.56,-1.29,10.07,0.02,-0.01,-0.02,25.75,21.6117,-18.22382370199405,-165.32667242649632,10.167723442344407,0.03,-0.24004707216334958,-0.23357576533776997
23575181,1692.0,1,201264.0,251928,0.62,-0.74,9.65,-0.06,0.0,-0.06,25.75,21.65168,-30.31763560602233,-183.08199364423905,9.698169930455952,0.08485281374238571,-0.4039452545924919,-0.2589336943294053
23615181,1680.0,1,201257.0,251875,0.78,-1.51,10.94,0.05,-0.01,-0.01,25.75,21.69168,-37.7050424700226,-191.1195505096993,11.071228477454522,0.05196152422706632,-0.5040611293458374,-0.27041283310482217
23655871,1664.0,1,201118.0,251174,0.33,-1.1,9.2,-0.05,-0.04,-0.02,25.69,21.73237,-50.511678993556,-182.70929523989082,9.271402267186986,0.0670820393249937,-0.6776196786183503,-0.2584014111024866
23696202,1637.0,1,200991.0,251265,0.79,-1.38,10.76,0.01,-0.04,-0.02,25.69,21.772701,-68.11627935694267,-148.5039923450915,10.876860760348087,0.045825756949558406,-0.9162013619492627,-0.20954982282049373
23736184,1643.0,1,200865.0,250924,0.67,-1.2,8.71,-0.09,-0.06,-0.03,25.69,21.812683,-67.38797344787245,-89.6373644518418,8.817766157026394,0.11224972160321824,-0.9063311890297341,-0.1254772368172415
23776201,1634.0,1,200927.0,250951,0.8,-0.98,10.84,0.0,-0.02,-0.01,25.69,21.8527,-58.53660214830369,-29.724718578531267,10.913569535216238,0.022360679774997897,-0.7863753240371936,-0.03991074094116467
23816182,1652.0,1,200907.0,251093,0.88,-1.23,10.08,-0.03,-0.08,-0.02,25.69,21.892681,-56.233196142014094,-6.054311609305454,10.192825908451493,0.08774964387392122,-0.7551590242614804,-0.006104960028064016
23856202,1648.0,1,200858.0,250353,0.11,-1.37,9.11,-0.06,-0.05,-0.02,25.69,21.932701,-35.14847667355931,-41.08910447574879,9.213093942861974,0.0806225774829855,-0.4694139485705785,-0.05614121557359267
23896205,1680.0,1,200359.0,250089,1.26,-1.3,10.66,0.01,-0.09,-0.0,25.69,21.972704,-24.766646391182068,-120.72821051727267,10.812640750528985,0.09055385138137416,-0.328716943600401,-0.16988079658101643
23936182,1644.0,1,200369.0,249907,0.36,-1.33,9.39,-0.1,-0.03,-0.03,25.69,22.012681,-36.00728620326469,-202.6618274415618,9.490553197785681,0.10862780491200216,-0.48105273724106,-0.28689736950101413
23976205,1696.0,1,200100.0,249976,1.21,-0.54,9.65,-0.03,-0.08,-0.07,25.69,22.052704,-2.5897145488430837,-247.08261983900906,9.740544132644747,0.11045361017187261,-0.028169949016861665,-0.3503385928702102
24016202,1712.0,1,200302.0,250101,0.67,-1.07,10.19,-0.04,-0.01,-0.06,25.69,22.092701,29.780604492814668,-239.69057567845442,10.267906310441287,0.07280109889280519,0.41052022556837353,-0.3397813673135662
24056205,1713.0,1,200048.0,249877,0.74,-0.29,9.18,-0.05,-0.05,-0.07,25.69,22.132704,20.192507044487275,-189.1510235301684,9.214342081776646,0.099498743710662,0.2805800745882742,-0.2676014073495291
24096202,1709.0,1,200077.0,249792,0.67,-0.86,10.24,-0.02,0.02,-0.03,25.69,22.172701,23.866472724646428,-110.00266748031,10.297868711534441,0.04123105625617661,0.3303705213112436,-0.1545627093781646
24136182,1722.0,1,199961.0,250617,0.7,-0.92,9.23,-0.07,-0.02,-0.03,25.69,22.212681,30.322613558792412,-12.279062846585205,9.302112663260965,0.07874007874011811,0.4178656598680653,-0.014995072345930687
24176202,1707.0,1,200325.0,250114,0.67,-0.67,10.75,-0.04,0.03,-0.03,25.69,22.252701,21.342335509586682,95.7680390457788,10.791677348772062,0.05830951894845301,0.29616282029579694,0.1393164551076333
24216182,1712.0,1,199939.0,250242,0.67,-0.69,9.15,-0.03,-0.08,-0.01,25.69,22.292681,16.328999132105523,201.49134657039565,9.200407599666441,0.08602325267042626,0.22822090696891825,0.2903091683394861
24256202,1707.0,1,200387.0,250683,0.12,-0.94,10.23,-0.05,0.07,-0.01,25.69,22.332701,22.0260524029434,287.37294751720754,10.273796766531836,0.08660254037844388,0.30542871239057473,0.4129642029507993
24296184,1730.0,1,200089.0,250724,0.69,-0.97,8.92,-0.06,-0.08,0.0,25.69,22.372683,28.29414764789814,335.47926514835297,8.999077730523279,0.1,0.39037541290926253,0.48166904763255186
24336182,1717.0,1,200067.0,250694,0.85,-1.01,8.88,-0.08,0.04,0.0,25.69,22.412681,30.89593740790887,331.44643856026073,8.977583193710878,0.08944271909999159,0.4256354794716072,0.47590941484403154
24376171,1747.0,1,199943.0,250923,0.95,-0.71,9.28,-0.06,-0.01,0.02,25.69,22.45267,40.377122780363266,266.8368281490508,9.355479677707605,0.06403124237432849,0.5541267328622316,0.38363477261748147
24416182,1730.0,1,200034.0,249925,0.45,-0.34,9.43,-0.06,0.07,-0.01,25.69,22.492681,39.310241560290024,143.2691847431917,9.44685132729419,0.09273618495495704,0.5396681077219193,0.20715700075840102
24456182,1743.0,1,199405.0,249742,1.07,-0.7,9.22,-0.03,0.02,-0.02,25.69,22.532681,33.63137753598367,-21.708206484409764,9.308238286593227,0.0412310562561766,0.4627068072459267,-0.028461658046500905
24496182,1745.0,1,199522.0,249863,0.68,-0.79,9.76,-0.03,0.08,-0.01,25.69,22.572681,46.63654589325632,-193.54433009110807,9.81550304365497,0.08602325267042626,0.6389559066082214,-0.273875873153024
24536182,1757.0,1,199269.0,249369,1.03,-1.07,9.13,-0.06,-0.02,-0.01,25.69,22.612681,46.7289684175684,-329.6323981417088,9.250010810804493,0.06403124237432849,0.6402084383881491,-0.4682351598094381
24576202,1744.0,1,199096.0,248865,1.01,-1.2,9.61,-0.04,0.01,-0.01,25.69,22.652701,35.811359492382614,-395.4887108876819,9.737155642178058,0.042426406871192854,0.4922504352779704,-0.562290326808868
24616182,1747.0,1,199252.0,249235,0.36,-0.9,9.67,-0.03,0.08,0.01,25.69,22.692681,37.05201964641349,-379.90778741269787,9.718461812447481,0.08602325267042626,0.5090641533903044,-0.5400378456367488
24656858,1742.0,1,199122.0,248826,0.66,-0.93,9.93,-0.03,0.0,0.03,25.85,22.733357,23.247898311162537,-300.71398789479974,9.995268880825568,0.042426406871192854,0.32198745542004903,-0.4269342458693789
24695171,1706.0,1,199428.0,249567,0.33,-1.58,10.41,-0.01,0.1,0.01,25.85,22.77167,-4.1481563428788615,-196.50807419260383,10.534391297080244,0.10099504938362078,-0.04929031863158976,-0.2781086556272721
24735171,1709.0,1,199333.0,249323,0.99,-1.04,9.45,-0.08,-0.03,-0.02,25.85,22.81167,-18.301973971781596,-107.17734720630379,9.55846221941584,0.08774964387392122,-0.24110618299425804,-0.15052762209316053
24775205,1712.0,1,199584.0,249362,0.38,-1.93,10.59,0.0,0.09,-0.0,25.85,22.851704,-1.5969114641801785,-53.77171068734237,10.771137358700798,0.09,-0.01471524818493482,-0.07425435606812152
24815171,1757.0,1,199323.0,248865,0.73,-0.7,8.67,-0.05,-0.05,-0.01,25.85,22.89167,25.562357670449916,-30.161609511649086,8.728791439827166,0.07141428428542851,0.3533535528344604,-0.0405347031394954
24855202,1733.0,1,199711.0,249302,0.33,-1.53,11.77,0.03,0.12,-0.0,25.85,22.931701,11.846454446318766,-11.726827122510029,11.873613603280173,0.12369316876852982,0.1674724074480064,-0.014206376151364011
24895171,1722.0,1,199400.0,248939,0.42,-0.61,8.86,-0.08,-0.12,-0.01,25.85,22.97167,-9.98698209415876,25.06493324762533,8.890899841973251,0.1445683229480096,-0.12841945804184407,0.03833915853661753
24935205,1726.0,1,199661.0,249707,0.65,-1.77,11.26,0.01,0.06,-0.0,25.85,23.011704,-4.198906130397649,85.80340039657752,11.416785887455365,0.0608276253029822,-0.0499780916843709,0.12508508209021652
24975177,1734.0,1,199695.0,249530,0.5,-0.76,9.33,-0.07,-0.08,-0.01,25.85,23.051676,1.5746945283742364,156.0042452991802,9.374246636396975,0.10677078252031312,0.028267101936444168,0.22534505589537185
25015203,1739.0,1,199840.0,250013,0.38,-1.02,10.79,-0.0,0.05,0.06,25.85,23.091702,1.634647152272653,214.49862315481658,10.844763713424095,0.07810249675906655,0.029079593991619548,0.30888599902350117
25055171,1727.0,1,199865.0,250290,0.39,-1.03,10.7,-0.06,-0.02,0.0,25.85,23.13167,-7.990867428646444,248.926421916496,10.756532898662096,0.06324555320336758,-0.10136764276690567,0.358055353136035
25095182,1728.0,1,199833.0,250537,0.26,-0.86,10.32,-0.06,0.04,-0.02,25.85,23.171681,-13.941280096540394,257.0041195662096,10.359034704063887,0.07483314773547883,-0.1820090343075097,0.3695918204804078
25135182,1728.0,1,199556.0,251162,0.9,-0.94,10.0,-0.07,-0.11,-0.02,25.85,23.211681,-11.06809393345306,233.56538840424182,10.084324469194751,0.1319090595827292,-0.14307093987975347,0.33611691607455146
25175203,1717.0,1,200004.0,251510,0.58,-1.3,9.76,-0.05,0.02,-0.02,25.85,23.251702,-28.2233976316014,163.32369168417367,9.863265179442353,0.057445626465380296,-0.37556364916440105,0.2357985982116478
25215182,1695.0,1,199729.0,250494,0.31,-0.33,9.27,-0.1,-0.07,-0.03,25.85,23.291681,-48.42393915346969,35.531045292765754,9.281050587083339,0.12569805089976538,-0.6493261374346082,0.05328672962274125
25255203,1687.0,1,199388.0,249789,0.75,-1.02,10.38,-0.03,0.06,-0.02,25.85,23.331702,-60.95634828518055,-131.572117051441,10.456925934518233,0.06999999999999999,-0.8191682926166004,-0.18536792905883312
25295181,1677.0,1,199266.0,249803,0.28,-0.57,10.16,-0.05,0.01,-0.02,25.85,23.37168,-70.77925930787933,-285.85661831744216,10.179828092851077,0.05477225575051661,-0.9522906923661172,-0.4057151353771039
25335184,1693.0,1,199351.0,249740,0.69,-1.16,10.3,-0.04,-0.05,-0.02,25.85,23.411683,-57.30702374097486,-366.95050504923404,10.388055640975361,0.0670820393249937,-0.7697117883617139,-0.5215324160774713
25375202,1712.0,1,199189.0,249910,0.64,-0.72,9.53,-0.06,-0.07,-0.02,25.85,23.451701,-39.647946559457175,-342.50689990841425,9.578564610629298,0.09433981132056604,-0.5303918223828613,-0.48662236314972807
25415203,1727.0,1,199518.0,250201,0.33,-1.08,10.22,-0.04,0.0,-0.02,25.85,23.491702,-26.095530243903656,-227.3159342447917,10.28220307132669,0.044721359549995794,-0.34672629002061095,-0.32210805828561145
25455182,1744.0,1,199433.0,249870,0.58,-0.39,8.95,-0.06,0.01,-0.02,25.85,23.531681,-10.125090798967399,-74.16110324574396,8.977249021832913,0.06403124237432849,-0.13029113968162873,-0.10337423299616377
25495182,1743.0,1,199595.0,250163,0.47,-0.95,10.83,0.02,0.04,-0.01,25.85,23.571681,-13.59883583896764,55.655477723507936,10.88174158855098,0.0458257569495584,-0.17736814921314364,0.08202819379100262
25535171,1751.0,1,199915.0,250853,0.64,-1.25,9.75,-0.02,-0.01,-0.01,25.85,23.61167,-4.847710569978949,124.84155268701343,9.850614194049019,0.024494897427831782,-0.05877084199694303,0.18083888578689622
25575205,1778.0,1,199661.0,249904,0.64,-1.19,9.25,-0.04,-0.07,-0.01,25.85,23.651704,18.83627330818445,137.0863954291858,9.348165595452404,0.08124038404635961,0.26220007611524704,0.1983268179375951
25615202,1774.0,1,199518.0,250163,0.6,-1.1,9.43,0.02,-0.04,-0.01,25.85,23.691701,15.382364549187646,127.55041495460914,9.512880741394795,0.0458257569495584,0.21539189252781138,0.18470764919519603
25655182,1769.0,1,199754.0,250038,0.56,-0.69,9.64,-0.02,0.04,-0.02,25.85,23.731681,9.374907768849189,134.5969714487426,9.680872894527642,0.048989794855663564,0.13397742576310667,0.1947714535624876
25695869,1774.0,1,199680.0,250336,0.53,-1.13,10.24,0.03,0.01,-0.01,25.67,23.772368,12.064911236312419,176.13776137157595,10.31578402255495,0.033166247903554,0.17043298522971792,0.25409949320769587
25734171,1776.0,1,199741.0,250572,0.82,-0.95,9.9,0.02,-0.05,-0.01,25.67,23.81067,15.85629909637385,246.85079516104025,9.979223416679275,0.05477225575051661,0.2218147649431103,0.35509096881245605
25774181,1789.0,1,199895.0,251819,0.57,-1.62,10.71,-0.0,-0.04,-0.01,25.67,23.85068,26.710140927449537,329.0447372766978,10.846815200785898,0.04123105625617661,0.36890858140094396,0.47247933493385513
25814205,1795.0,1,199712.0,250489,0.53,-0.82,9.0,-0.04,-0.09,-0.02,25.67,23.890704,30.619927147001246,399.1056618363248,9.05280619476635,0.1004987562112089,0.42189492352005603,0.5725394762449569
25854202,1785.0,1,199637.0,251335,0.66,-1.74,11.0,0.05,0.0,0.04,25.67,23.930701,28.150230922438464,426.1025547501108,11.156307632904356,0.06403124237432849,0.38842501960802905,0.6110961030221999
25894150,1810.0,1,199848.0,251066,0.83,-1.24,10.05,-0.05,-0.04,-0.05,25.67,23.970649,36.71483344356412,378.3388336075056,10.160167321456868,0.08124038404635961,0.5044945266898272,0.5428805503854993
25934202,1785.0,1,199807.0,250514,0.56,-0.98,10.93,0.03,0.03,-0.03,25.67,24.010701,37.98399545868289,247.65903252740742,10.988125408822016,0.05196152422706632,0.5216945087250024,0.3562452833693926
25974171,1799.0,1,199120.0,250001,0.87,-1.49,9.78,-0.06,-0.18,-0.09,25.67,24.05067,16.047895957836662,72.24067511730905,9.931032171934596,0.21,0.2244113306580462,0.10571496648672811
26014201,1758.0,1,199295.0,250144,0.57,-1.52,9.54,-0.05,-0.01,-0.02,25.67,24.0907,19.165164429779374,-74.0162564614084,9.67713283984466,0.05477225575051661,0.26665728592421845,-0.10316736461981599
26054205,1825.0,1,198915.0,249484,0.93,-1.05,8.76,-0.07,-0.16,-0.09,25.67,24.130704,38.765421611992956,-128.53046522529567,8.871583849572747,0.19646882704388502,0.5322845796841394,-0.18102387974095335
26094201,1780.0,1,199202.0,249445,0.83,-0.96,9.67,0.01,0.08,-0.03,25.67,24.1707,40.889064456191875,-86.34212142465232,9.75291751221141,0.08602325267042626,0.5610646868211558,-0.12077101169921033
