timestamp_us,ecg,leads,ir,red,accX,accY,accZ,gyroX,gyroY,gyroZ,temp,time_sec,ecg_filtered,ppg_filtered,accel_magnitude,gyro_magnitude,ecg_norm,ppg_norm
1949953,1628,1,209614.0,243007,-3.53,-1.55,8.52,0.08,-0.16,-0.24,28.85,0.030464,-3.022383323151804,-118.29171534180585,9.351673647000306,0.29933259094191533,-0.019061643018382875,-0.1929932084839812
1990199,1564,1,209362.0,243477,-3.31,-2.04,8.97,-0.05,-0.04,0.01,28.85,0.07071,-77.83379943684957,-396.20763062444684,9.776430841569944,0.06480740698407861,-0.5812774952451751,-0.6212770393168902
2030188,1564,1,209704.0,244003,-3.24,-2.05,8.95,-0.32,0.01,-0.14,28.85,0.110699,-94.28225365263334,-377.7700060565397,9.736662672599888,0.349428104193123,-0.704889400822338,-0.5928636378268336
2070189,1564,1,210211.0,246591,-3.7,-1.97,8.72,-0.08,0.0,0.06,28.85,0.1507,-102.61440985777632,45.35229171032411,9.675189920616546,0.1,-0.7675064524049707,0.059191277466944345
2110172,1564,1,211257.0,248808,-3.06,-2.04,8.55,0.11,0.02,-0.05,28.85,0.190683,-116.47096871736335,731.558056200651,9.30740028149644,0.1224744871391589,-0.8716399851312284,1.1166723981744597
2150172,1564,1,211933.0,251190,-3.55,-1.9,8.75,0.01,0.06,0.05,28.85,0.230683,-132.49014844611656,1386.1683520585696,9.631977990008075,0.07874007874011811,-0.992025846688608,2.125463150325403
2190157,1564,1,212437.0,252477,-3.64,-2.41,9.22,-0.19,0.03,-0.01,28.85,0.270668,-135.7405585227893,1747.882426706435,10.201279331534845,0.19261360284258222,-1.0164530286118296,2.6828845898238156
2230189,1581,1,212813.0,252766,-4.22,-1.81,8.94,0.02,0.06,0.09,28.85,0.3107,-145.0211960296261,1739.9413771477762,10.050278603103497,0.11,-1.0861980193654377,2.670646992267168
2270161,1584,1,212303.0,252673,-3.2,-2.56,8.85,0.11,-0.05,-0.1,28.85,0.350672,-138.98421155648978,1490.5317521795714,9.752748330598918,0.15684387141358122,-1.040829430629115,2.286292934964089
2310190,1673,1,212308.0,252947,-3.99,-1.58,8.96,-0.03,0.16,-0.05,28.85,0.390701,-76.37011419237948,1216.9638382067774,9.934691741569036,0.17029386365926402,-0.5702777429365049,1.8647096151672389
2350187,1715,1,212195.0,253209,-3.57,-2.43,9.28,-0.15,-0.05,-0.01,28.85,0.430698,-37.50681940643201,1060.8725978642021,10.23563383479499,0.1584297951775486,-0.2782158955145055,1.6241643613792704
2390205,1771,1,212432.0,253360,-3.74,-1.87,8.53,-0.06,0.05,0.02,28.85,0.470716,2.472745303688146,994.2067034084829,9.499757891651765,0.0806225774829855,0.02223484065383297,1.5214285226117767
2430167,1821,1,212179.0,253529,-3.27,-2.19,8.7,0.06,0.01,-0.07,28.85,0.510678,38.7140828343904,861.7580839065656,9.548769554241007,0.09273618495495704,0.294592396814729,1.3173178580925409
2470172,1792,1,212260.0,253208,-3.39,-1.63,8.63,0.01,0.06,-0.07,28.85,0.550683,1.4451110443219444,523.4599387250128,9.414132992474666,0.09273618495495704,0.014512058478062436,0.7959816638890818
2510172,1825,1,211666.0,250357,-3.87,-2.19,9.58,-0.15,-0.07,0.09,28.85,0.590683,18.597823847758598,-14.535968321461494,10.561694939733869,0.18841443681416772,0.14341654321778982,-0.03309985095672031
2550189,1881,1,210674.0,248883,-4.23,-2.06,9.18,-0.1,0.0,0.21,28.85,0.6307,63.74092618084063,-580.91105000592,10.315468966556972,0.23259406699226012,0.48267182093880556,-0.9059152470286875
2590172,1872,1,210921.0,248969,-3.79,-2.13,8.9,-0.02,0.09,-0.04,28.85,0.670683,45.716457566963605,-945.877013506564,9.905099696620928,0.1004987562112089,0.34721599736122594,-1.4683480275073186
2628188,1903,1,210648.0,249117,-3.61,-2.24,8.99,0.08,-0.03,-0.03,28.85,0.708699,58.56032006109717,-971.236392828123,9.943329422281051,0.09055385138137417,0.44373900779386616,-1.5074282367581509
2668187,1871,1,211075.0,249732,-4.15,-1.84,8.9,-0.03,-0.0,0.0,28.85,0.748698,25.531959113537617,-694.5081536450094,9.99090086028282,0.03,0.19552731681925364,-1.08097468062965
2708187,1803,1,211412.0,251095,-4.45,-2.36,9.9,-0.11,0.08,0.17,28.85,0.788698,-66.1940237086998,-294.67504368608604,11.107749547050474,0.21771541057077243,-0.49380332658641274,-0.46480969470975436
2748167,1813,1,212042.0,251054,-4.23,-1.87,8.84,-0.02,-0.05,0.04,28.85,0.828678,-52.01866777635153,26.315168395643934,9.976742955494043,0.0670820393249937,-0.3872739995113691,0.02985401517680959
2788188,1866,1,211693.0,250921,-4.19,-2.37,9.65,0.09,-0.03,0.01,28.85,0.868699,-23.829539041912373,160.97998714450284,10.78403913197648,0.09539392014169455,-0.17542965999402535,0.2373799655835191
2828172,1856,1,211754.0,250632,-3.89,-1.71,9.1,0.16,-0.05,-0.03,28.85,0.908683,-30.427680801176784,140.56666793025184,10.043216616204193,0.17029386365926402,-0.22501540619431434,0.20592190912711533
2868189,1922,1,211778.0,251353,-3.84,-2.29,9.38,-0.05,-0.07,0.06,28.85,0.9487,17.68782914554524,93.0662774654224,10.391058656364134,0.10488088481701516,0.1365778349884308,0.13272117438816883
2908187,1943,1,212028.0,251612,-3.16,-2.0,8.73,-0.17,-0.17,-0.13,28.85,0.988698,33.7248759771569,154.56628386453949,9.497289086892112,0.273313007374329,0.25709796974878146,0.22749609330591056
2948205,1959,1,211992.0,251748,-3.87,-1.78,8.61,0.07,-0.09,-0.0,28.85,1.028716,43.542632819820184,382.9833666914576,9.606112637274247,0.1140175425099138,0.3308794701800067,0.5794994795146484
2988873,2022,1,212120.0,252177,-2.92,-1.97,8.38,0.01,-0.13,-0.11,29.55,1.069384,94.60310507198572,706.9426200507328,9.090198017645161,0.1705872210923198,0.7146044203764453,1.078738646589243
3029196,2021,1,212205.0,252537,-3.0,-1.95,8.32,-0.16,-0.06,-0.16,29.55,1.109707,91.36035018534733,935.8668923961296,9.05675990627995,0.2340939982143925,0.6902347680310971,1.43152363996039
3069206,2009,1,212243.0,252943,-3.58,-1.8,8.54,-0.13,-0.06,-0.03,29.55,1.149717,73.06883315763363,850.2758235727302,9.433345111888995,0.14628738838327796,0.5527720468519159,1.2996230584356214
3109206,2014,1,212264.0,252369,-3.02,-2.17,8.6,-0.0,-0.05,-0.14,29.55,1.189717,66.65145014886339,345.77141594026233,9.369594441596712,0.14866068747318506,0.5045447221364185,0.5221538006812529
3149206,1995,1,210956.0,246906,-3.6,-1.82,8.96,-0.02,0.01,-0.08,29.55,1.229717,56.72466832659477,-464.0078772827299,9.82618949542497,0.08306623862918075,0.4299438872371802,-0.725760977707731
3189188,2021,1,209253.0,244712,-3.45,-2.12,9.22,-0.1,-0.01,0.03,29.55,1.269699,58.70081453336964,-1284.9141561234344,10.070019860953602,0.10488088481701516,0.444794838889775,-1.9908230577225678
3229188,1975,1,209245.0,245123,-4.17,-1.97,9.46,-0.02,0.01,0.14,29.55,1.309699,34.26943668163409,-1813.6561976796347,10.52432420633268,0.14177446878757827,0.26119040211353667,-2.805643852889339
3269172,1968,1,209560.0,245722,-3.17,-2.14,8.74,-0.04,-0.06,0.0,29.55,1.349683,-2.2421063944647357,-1911.3542064078429,9.540235846141332,0.07211102550927978,-0.013197777832780777,-2.956201899917017
3309187,1914,1,209478.0,245449,-3.47,-1.9,8.89,0.01,0.06,-0.11,29.55,1.389698,-30.32974288564046,-1646.7940004420248,9.730518999518988,0.12569805089976535,-0.22427939220729282,-2.5484999574724805
3349172,1945,1,209515.0,246808,-3.66,-1.95,9.28,-0.05,-0.08,0.06,29.55,1.429683,-28.204380672639346,-1202.74222669056,10.164472440810687,0.11180339887498948,-0.20830706619147424,-1.8641915595276852
3389193,1943,1,210085.0,248123,-3.33,-2.54,8.96,-0.03,-0.04,0.09,29.55,1.469704,-2.796324257108032,-746.1346875591967,9.890505548251818,0.10295630140987,-0.017362784781610085,-1.160534031143659
3429188,1941,1,210578.0,249019,-3.22,-2.17,8.43,-0.14,-0.05,0.09,29.55,1.509699,-33.30897354986089,-355.0911090657868,9.281282239001246,0.17378147196982768,-0.24666863162924516,-0.5579142004317623
3469188,1889,1,210526.0,249295,-3.55,-2.47,9.01,0.09,-0.01,-0.08,29.55,1.549699,-55.254483286387604,-21.440292164941805,9.994173302479801,0.12083045973594571,-0.4115915016939071,-0.043739796718694594
3509217,1946,1,210953.0,250421,-3.61,-1.92,8.88,0.13,-0.04,0.12,29.55,1.589728,-26.694461435715013,305.2418491641721,9.77613931979286,0.18138357147217055,-0.19695986044829075,0.45969549165203155
3549172,1901,1,211374.0,251601,-3.77,-2.59,9.46,0.05,0.04,0.03,29.55,1.629683,-41.358757186813364,671.042950312197,10.50774000439676,0.07071067811865475,-0.30716362293929306,1.0234152655384683
3589161,1905,1,211895.0,252518,-3.7,-1.66,8.87,-0.13,-0.01,0.06,29.55,1.669672,-61.48673431089627,1084.5384214853752,9.753076437719535,0.14352700094407325,-0.45842753960168153,1.6606347074189491
3629187,1909,1,211848.0,252635,-3.26,-2.38,9.44,0.02,0.01,-0.21,29.55,1.709698,-32.18412632985541,1492.0110026617963,10.266722943568702,0.21118712081942875,-0.23821528358061053,2.28857254195473
3669172,1947,1,212124.0,252885,-3.95,-0.98,8.83,0.12,-0.08,0.0,29.55,1.749683,-10.002421801509776,1763.7993358791869,9.722746525545135,0.14422205101855956,-0.0715173842079592,2.70741342916212
3709172,1911,1,211835.0,253194,-2.77,-2.63,8.96,-0.27,0.01,-0.18,29.55,1.789683,-27.975886676752303,1722.8584620520235,9.740195069915181,0.32465366161495857,-0.20658990919459155,2.6443212731677
3749189,1897,1,212043.0,253178,-3.89,-1.05,8.71,-0.18,-0.18,0.07,29.55,1.8297,-49.87274392767929,1241.8112840087301,9.596806760584482,0.2640075756488817,-0.37114715058818504,1.903000906486956
3789187,1904,1,211375.0,249899,-3.05,-2.64,9.15,0.03,-0.09,-0.06,29.55,1.869698,-30.574466831557395,365.68497086109244,9.999729996354901,0.11224972160321824,-0.2261185190272542,0.5528416926586555
3829189,1937,1,209317.0,244990,-3.1,-1.69,8.59,0.25,0.01,-0.07,29.55,1.9097,0.07477972191097741,-650.6298325111891,9.287313928149516,0.2598076211353316,0.004213870951556214,-1.0133557555076496
3869167,1951,1,208410.0,244529,-2.79,-2.25,9.15,-0.03,-0.02,-0.16,29.55,1.949678,22.131226277277165,-1460.6197638347157,9.826957820200512,0.16401219466856726,0.1699704431620561,-2.261595138885608
3909206,1984,1,208715.0,245330,-3.59,-1.86,9.39,-0.23,0.09,0.09,29.55,1.989717,57.307004756199746,-1826.9779415402973,10.223492553917179,0.2628687885618983,0.4343202082462023,-2.826173398627002
3949172,1991,1,209059.0,245574,-3.54,-2.16,9.25,-0.06,-0.12,0.05,29.55,2.029683,68.22069149043698,-1741.000582242447,10.13704592077988,0.14317821063276354,0.5163377398873653,-2.6936775220683242
3987876,1971,1,209031.0,245968,-3.11,-2.09,8.57,0.24,-0.06,0.04,30.47,2.068387,54.27179845472881,-1373.8365560696316,9.353346994525543,0.25059928172283336,0.4115103058795344,-2.1278574051692836
4028173,1963,1,209447.0,247000,-3.62,-1.78,9.53,0.09,0.07,-0.17,30.47,2.108684,47.07794309171774,-929.8993213912754,10.348608602126182,0.20469489490458723,0.3574477077653007,-1.4437255182852569
4068172,1936,1,209729.0,248107,-3.85,-2.26,10.03,-0.09,0.13,0.04,30.47,2.148683,27.85676856334293,-534.4116175213093,10.978661120555637,0.16309506430300091,0.21299851030796876,-0.8342570440221713
4108172,1931,1,210322.0,248685,-4.18,-1.84,9.63,-0.13,-0.01,0.02,30.47,2.188683,22.551884149760305,-214.9246884932951,10.658090823407353,0.1319090595827292,0.17313173239516708,-0.34190997665108475
4148189,1942,1,210625.0,249596,-3.66,-2.18,9.56,0.03,0.01,0.08,30.47,2.2287,41.32922303406969,58.61526290113999,10.466212304363026,0.08602325267042626,0.31424545716878943,0.07963025126249773
4188158,1943,1,210918.0,249893,-3.5,-1.55,9.19,0.01,-0.03,-0.02,30.47,2.268669,41.38370939998429,333.38496415759505,9.95533023058502,0.03741657386773942,0.31465492807896256,0.5030655918807143
4228190,1920,1,211224.0,251115,-3.72,-2.09,9.61,0.02,-0.03,0.16,30.47,2.308701,26.079476949358764,651.94571157685,10.514684969127702,0.16401219466856726,0.19964197234465805,0.9939853620527794
4268172,1889,1,211880.0,252075,-3.45,-1.68,9.02,-0.12,0.04,0.02,30.47,2.348683,-6.402082081300149,1031.8598793830274,9.802310952015347,0.12806248474865697,-0.04446044331237031,1.5794541539722664
4308207,1841,1,212159.0,252601,-3.16,-1.69,9.01,-0.05,-0.02,-0.05,30.47,2.388718,-48.390902891266016,1432.297612451241,9.696483898816107,0.07348469228349536,-0.3600109555469689,2.1965508976189323
4348207,1839,1,212135.0,253018,-2.69,-1.73,8.3,-0.05,-0.08,-0.13,30.47,2.428718,-49.026367282640344,1727.268088700469,8.894886171278417,0.16062378404209013,-0.364786538912659,2.6511167522665438
4388206,1859,1,212398.0,253468,-2.97,-1.6,8.6,-0.2,0.03,-0.05,30.47,2.468717,-30.121111462715263,1733.4310555886152,9.238013855802555,0.2083266665599966,-0.22271150458619882,2.6606142258655896
4428188,1817,1,212573.0,253656,-3.24,-1.71,8.53,-0.24,-0.07,0.07,30.47,2.508699,-61.40646691103669,1317.8352702643242,9.28345840729628,0.2596150997149434,-0.4578243214437804,2.0201580834540285
4468192,1799,1,212089.0,249616,-2.82,-1.79,8.15,-0.14,0.02,-0.06,30.47,2.548703,-94.05178370673086,528.7176731565122,8.807894186467047,0.15362291495737218,-0.7031573943482017,0.8040841240937612
4508236,1811,1,210095.0,246134,-2.88,-1.93,8.28,0.06,-0.08,-0.04,30.47,2.588747,-57.35407843646337,-372.45492585379293,8.97650822981854,0.10770329614269009,-0.42737018545571537,-0.584672804609882
4548194,1877,1,209645.0,245803,-2.91,-2.07,8.59,-0.02,-0.01,-0.08,30.47,2.628705,-20.506490845477224,-1043.4640073963558,9.302746906156267,0.08306623862918075,-0.15045659477480655,-1.6187349945152432
4588208,1840,1,210009.0,247150,-3.59,-2.01,9.07,-0.16,0.06,0.19,30.47,2.668719,-23.0409604079759,-1269.7661595039635,9.959573284031801,0.25553864678361277,-0.16950340659905377,-1.9674791552510846
4628173,1870,1,210543.0,247876,-3.64,-2.25,9.29,-0.15,0.05,0.06,30.47,2.708684,-26.476072032909762,-1075.9514878792888,10.228206098823,0.16911534525287764,-0.1953186405570799,-1.6688000027793055
4668173,1852,1,210690.0,248685,-3.55,-1.89,8.9,0.17,0.03,0.12,30.47,2.748684,-15.406524213784033,-660.1424473488154,9.766503980442542,0.2102379604162864,-0.11212979607060987,-1.028015222273895
4708165,1877,1,211147.0,249389,-3.4,-1.79,9.23,0.12,0.09,-0.04,30.47,2.788676,-10.22490100752032,-235.60444616383066,9.997849768825295,0.15524174696260024,-0.07318933941089052,-0.37377862953778906
4748173,1841,1,211210.0,249845,-3.61,-2.09,9.65,-0.05,0.16,0.11,30.47,2.828684,-39.02543703370583,80.87426274959441,10.512977694259606,0.20049937655763422,-0.2896284705983242,0.11393260388562818
4788172,1826,1,211786.0,250351,-4.32,-1.92,9.74,-0.13,0.22,0.23,30.47,2.868683,-48.889813861932325,279.12535148572624,10.826652298841042,0.3438022687534217,-0.36376032524386326,0.41944852104479546
4828173,1866,1,212263.0,250815,-4.25,-2.35,9.84,0.08,0.14,0.2,30.47,2.908684,-25.992300316915493,410.13982850662165,10.973176386078919,0.2569046515733026,-0.19168304399013913,0.6213490925036622
4868162,1863,1,212331.0,250782,-3.9,-2.02,9.41,0.11,-0.08,-0.07,30.47,2.948673,-6.17046654357475,542.8404003864302,10.384531766045113,0.15297058540778355,-0.04271982759225952,0.8258480296034049
4908188,1904,1,212353.0,251591,-4.09,-2.09,9.59,-0.05,-0.03,-0.0,30.47,2.988699,9.587447994490267,729.5453306162565,10.633169800205392,0.05830951894845301,0.07570259790856,1.1135706764798845
4948207,1897,1,212850.0,252450,-4.11,-1.94,9.37,-0.21,-0.06,-0.05,30.47,3.028718,22.549362856373275,962.3620437458255,10.414057806638102,0.22405356502408078,0.17311278460372106,1.4723541368644808
4988207,1937,1,212987.0,252809,-3.73,-1.98,8.96,-0.1,-0.08,-0.05,30.47,3.068718,49.04884648041492,1136.069851444006,9.905296562950552,0.1374772708486752,0.3722592590751839,1.740047497465661
5028893,1927,1,212786.0,252793,-3.2,-1.92,8.29,0.06,-0.14,-0.14,30.17,3.109404,43.22864712962927,1068.5745976065157,9.09123203971827,0.20688160865577201,0.328519833889612,1.636033569917966
5067189,1936,1,212728.0,252680,-3.39,-1.7,8.7,-0.03,0.0,-0.1,30.17,3.1477,53.04106951822807,607.3258211507899,9.490632223408511,0.1044030650891055,0.402261245323812,0.9252236375449089
5107190,1980,1,212470.0,250196,-3.79,-1.98,9.18,-0.1,-0.05,0.04,30.17,3.187701,94.3773635905384,-228.19693178659838,10.127038066483209,0.11874342087037919,0.7129079488221312,-0.36236323927054065
5147189,1929,1,210852.0,245587,-3.68,-1.66,8.63,-0.14,0.03,0.03,30.17,3.2277,41.85888389739477,-1184.603005540451,9.527586263057398,0.14628738838327796,0.3182259156219875,-1.8362380142454973
5187173,1889,1,210006.0,245195,-3.34,-1.96,8.86,0.04,-0.03,-0.07,30.17,3.267684,10.854567590675327,-1881.4734886470428,9.669374333430264,0.08602325267042626,0.08522513819251559,-2.9101540575053386
5227189,1935,1,210195.0,245855,-3.38,-1.54,8.5,0.05,-0.05,-0.07,30.17,3.3077,40.04684980945097,-2040.9510560837527,9.276098317719578,0.099498743710662,0.30460828422373903,-3.1559178290556105
5267191,1898,1,210669.0,248025,-3.21,-2.13,8.98,-0.11,0.03,0.02,30.17,3.347702,26.657468855906863,-1669.2314926064766,9.771458437715427,0.11575836902790225,0.20398564379483167,-2.583077376648715
5307173,1915,1,211686.0,250013,-3.33,-1.55,8.32,-0.2,-0.02,0.05,30.17,3.387684,19.507212275697754,-1041.5928090924833,9.094712749724424,0.20712315177207982,0.15025069523065865,-1.6158513742050657
5347192,1877,1,212140.0,251320,-3.23,-1.87,8.45,-0.01,-0.02,0.01,30.17,3.427703,4.8553261922580555,-505.18641208234135,9.237548376057362,0.024494897427831782,0.040140192729120526,-0.7892193824346712
5387190,1904,1,212140.0,251213,-2.84,-1.95,8.03,-0.05,-0.1,-0.12,30.17,3.467701,15.999811421876494,-260.21375599117937,8.737791482977835,0.16401219466856726,0.12389219992915018,-0.4117029401203331
5427207,1915,1,211914.0,251189,-3.23,-2.21,8.58,-0.1,0.05,-0.04,30.17,3.507718,39.81204408658018,-275.7934879702671,9.430450678520089,0.11874342087037919,0.3028436939185522,-0.43571217071285845
5467190,1875,1,212346.0,251708,-3.69,-2.21,8.71,-0.18,0.02,0.14,30.17,3.547701,-6.092297855184912,-365.4801055537158,9.714128885288686,0.22891046284519195,-0.04213238147716725,-0.5739242199005459
5507174,1840,1,212462.0,252172,-3.61,-2.63,8.95,-0.04,0.03,0.08,30.17,3.587685,-32.64543488874278,-329.2316195065508,10.002574668554091,0.09433981132056604,-0.2416820671017273,-0.518063293582654
5547173,1853,1,212746.0,252599,-4.14,-2.06,8.71,0.06,0.04,0.1,30.17,3.627684,-25.72983923629948,-61.807212435148976,9.861404565273652,0.12328828005937953,-0.18971062069192704,-0.10594745846655992
5587161,1840,1,212933.0,252970,-4.15,-2.55,9.46,-0.08,0.15,0.02,30.17,3.667672,-26.1288422962215,404.7911328261859,10.640328942283693,0.1711724276862369,-0.19270917167556606,0.6131064559722251
5627173,1819,1,213499.0,253622,-4.67,-2.27,9.4,-0.14,0.2,0.24,30.17,3.707684,-56.38158905092414,912.6645333017893,10.738798815510048,0.34234485537247383,-0.4200618229480267,1.3957675184472382
5667175,1774,1,213885.0,254128,-4.81,-2.89,10.02,0.12,0.23000000000000004,0.16,30.17,3.747686,-88.84182445073081,1237.5572489726371,11.484276207058066,0.3047950130825634,-0.6640039892218066,1.8964452026874725
5707161,1839,1,214033.0,254093,-4.65,-2.35,9.93,0.3,0.11,-0.0,30.17,3.787672,-27.403595027497506,1194.487901069808,11.213826287222394,0.3195309061734091,-0.20228907579211905,1.8300729501572803
5746174,1882,1,213808.0,253091,-4.71,-2.23,10.36,0.06,0.1,-0.16,30.17,3.826685,18.66059443751749,750.2210208830713,11.596835775331131,0.1979898987322333,0.1438882709626896,1.1454330612719916
5786173,1858,1,212561.0,248488,-4.61,-2.08,9.6,-0.29,-0.09,0.03,30.17,3.866684,1.242685131642981,66.53677988186762,10.850737302137583,0.30512292604784713,0.012990805935046453,0.09183774803382738
5826190,1869,1,211766.0,248201,-4.7,-2.29,9.09,-0.35,-0.11,0.02,30.17,3.906701,8.857545732896686,-572.7191452345025,10.48628628256925,0.3674234614174767,0.07021730377349868,-0.8932910676838202
5866189,1882,1,212081.0,249286,-4.02,-2.07,8.66,-0.02,-0.19,0.03,30.17,3.9467,27.707107276472918,-910.1064758138845,9.769385855825329,0.19339079605813714,0.21187378961273284,-1.4132236460972316
5906191,1928,1,211909.0,249888,-3.55,-2.39,8.46,0.25,-0.14,-0.21,30.17,3.986702,78.43964597351018,-838.8103055967905,9.480833296709736,0.3552463933666322,0.5931342838110388,-1.3033522957168908
5946223,1959,1,212112.0,251298,-3.49,-1.98,8.59,0.23,-0.08,-0.16,30.17,4.026734,100.85838492983213,-432.3471939848794,9.480959867017685,0.2913760456866693,0.7616135224478642,-0.6769701097367455
5986194,1906,1,212666.0,253328,-3.64,-2.35,9.07,-0.09,-0.02,-0.14,30.17,4.066705,68.2977186635031,115.36513319693691,10.051716271363812,0.1676305461424021,0.5169166073918139,0.16708494713637861
6026224,1905,1,213225.0,254711,-3.56,-2.06,8.29,-0.34,-0.14,-0.05,30.17,4.106735,44.108070887531134,590.4973753707492,9.254258479208369,0.37107950630558945,0.33512879817877683,0.899290069766648
6066893,1825,1,213349.0,254863,-3.39,-2.18,7.91,-0.21,-0.12,-0.13,29.69,4.147404,-6.26475335736781,852.0006310084023,8.877646084407736,0.2745906043549196,-0.04342840315631315,1.302281082303191
6107207,1861,1,213391.0,254810,-3.57,-1.88,8.09,0.01,-0.11,-0.05,29.69,4.187718,0.768691675299049,882.8488150502143,9.040320790768433,0.12124355652982141,0.009428694042881195,1.3498198438823164
6147197,1862,1,213112.0,254754,-3.11,-2.66,8.45,0.04,-0.06,-0.15,29.69,4.227708,32.93129413596837,781.7750890817327,9.388833793395214,0.16643316977093237,0.25113411671226843,1.1940596294652588
6187190,1831,1,213226.0,255006,-3.45,-2.13,8.54,-0.03,-0.01,-0.04,29.69,4.267701,-29.056779724096675,699.1005752568241,9.453623643873284,0.05099019513592785,-0.21471293690008453,1.0666536208630886
6227208,1809,1,213091.0,254971,-3.44,-2.49,9.1,-0.03,0.01,-0.05,29.69,4.307719,-19.464407201934378,744.3117986728865,10.042096394677756,0.05916079783099616,-0.14262522392018145,1.136326622287211
6267189,1905,1,213053.0,254884,-3.78,-2.08,8.85,-0.05,-0.02,0.15,29.69,4.3477,44.56015663144078,909.8610343910711,9.845674177018047,0.15937377450509227,0.33852627125167606,1.3914471712228011
6307192,1855,1,213100.0,254975,-4.22,-2.51,9.73,-0.04,0.16,0.17,29.69,4.387703,22.20694244046991,1058.7895494406498,10.898687994433093,0.23685438564654024,0.17053945828605876,1.6209542682914309
6347173,1850,1,213197.0,254837,-4.23,-2.41,9.34,0.03,0.07,0.15,29.69,4.427684,-7.2619100433799195,1001.8519471633487,10.532644492244101,0.16822603841260722,-0.050922143084694144,1.5332102670277281
6387161,1829,1,212951.0,254563,-4.08,-2.82,9.88,0.16,0.02,-0.07,29.69,4.467672,-15.392615054298986,633.5384888445005,11.055007914967769,0.17578395831246946,-0.11202526723851612,0.9656188114765459
6427173,1851,1,212411.0,251609,-3.86,-2.32,9.35,0.11,-0.03,-0.06,29.69,4.507684,-1.1801049854505343,33.847574845877276,10.378077856713158,0.12884098726725127,-0.005216722824711618,0.041461871051546355
6467194,1831,1,210852.0,248476,-3.9,-2.57,9.73,-0.13,-0.01,-0.02,29.69,4.547705,-26.601228313406263,-557.7603869369217,10.79295140357817,0.1319090595827292,-0.19625920348926573,-0.8702387919561924
6507207,1724,1,210840.0,249168,-4.38,-2.55,9.04,-0.22,-0.01,0.09,29.69,4.587718,-128.52605018250492,-894.6339856834915,10.363807215497593,0.23790754506740638,-0.9622352211482488,-1.3893796811381547
6547194,1718,1,211249.0,250286,-4.07,-2.81,9.02,-0.04,-0.07,-0.02,29.69,4.627705,-147.98266868629153,-884.0503589642171,10.2869529016128,0.08306623862918075,-1.1084538054473783,-1.3730697256941617
6587208,1776,1,211362.0,251362,-3.5,-2.64,8.55,0.12,-0.16,-0.24,29.69,4.667719,-84.53194700021727,-628.0683846288741,9.60843899912988,0.31240998703626616,-0.6316147958378594,-0.9785873136990979
6627195,1800,1,211446.0,252231,-2.65,-2.3,7.71,-0.08,-0.25,-0.355,29.69,4.707706,-71.47388867885176,-327.1553363107516,8.470926749771833,0.44150311437180145,-0.5334820806862548,-0.5148636260857907
6667207,1746,1,211493.0,253065,-2.63,-2.15,7.55,-0.34,-0.23,-0.3,29.69,4.747718,-123.97610375604877,-144.3243248757215,8.279003563231507,0.5084289527554465,-0.9280418835452207,-0.23311090281042443
6707208,1757,1,211487.0,253278,-2.95,-2.16,7.56,-0.33,-0.22,-0.13,29.69,4.787719,-123.60064060692936,-132.91173859836923,8.397719928647298,0.4173727350941841,-0.9252202375274377,-0.2155234747367044
6745207,1843,1,211460.0,253261,-2.72,-2.44,7.97,-0.08,-0.04,-0.11,29.69,4.825718,-32.46402673057929,-250.06484737505824,8.767719201708047,0.14177446878757824,-0.24031876524833404,-0.39606290937051086
6786207,1877,1,211248.0,253184,-2.7,-2.39,7.46,0.14,-0.02,-0.0,29.69,4.866718,-16.48864595636697,-410.02915761723085,8.285752832422652,0.14142135623730953,-0.12026205755319945,-0.6425767785650358
6826189,1856,1,211106.0,252999,-2.59,-2.55,8.34,0.08,0.1,-0.06,29.69,4.9067,-24.89423146588391,-528.5534079292617,9.097593088284395,0.1414213562373095,-0.18343093826942705,-0.8252292183096618
6866173,1938,1,211150.0,253088,-3.49,-2.51,8.96,0.03,0.08,0.13,29.69,4.946684,36.40745371943419,-546.4929401004204,9.93789716187484,0.15556349186104046,0.277257830501142,-0.8528750318061656
6906161,1943,1,211244.0,253105,-3.28,-2.98,9.34,0.02,0.12,0.05,29.69,4.986672,48.84487373746581,-447.78167014637546,10.338007544976932,0.13152946437965904,0.3707263819360333,-0.7007554930625691
6946161,1943,1,211276.0,253276,-3.72,-2.66,9.23,0.18,0.06,0.13,29.69,5.026672,43.96714670046231,-280.432289620199,10.300820355680417,0.23,0.3340697377298762,-0.44286082119257764
6986161,1953,1,211166.0,253154,-3.53,-2.84,9.7,-0.01,0.14,-0.03,29.69,5.066672,38.38969652234318,-160.26253804645862,10.705909583029365,0.14352700094407325,0.29215459873052796,-0.257672572790543
7026201,1873,1,211338.0,253824,-4.28,-2.79,10.05,0.1,0.21,0.27,29.69,5.106712,-17.82781239461099,-222.30851152542922,11.27408532875284,0.3563705936241092,-0.13032603761750713,-0.35328885724228276
7066161,1883,1,211713.0,253360,-3.69,-2.88,9.28,-0.05,0.1,0.14,29.69,5.146672,-49.794570182943765,-520.3293467506596,10.393695204305349,0.17916472867168917,-0.37055966647411015,-0.8125554841588349
7106860,1853,1,210817.0,249467,-4.43,-2.98,10.31,0.22,0.23000000000000004,0.1,30.499999999999996,5.187371,-32.92634407856092,-945.6274631949917,11.610400509887675,0.3336165463522456,-0.24379312992818045,-1.4679634566441602
7145161,1911,1,210102.0,247792,-4.08,-2.04,9.14,0.19,0.05,0.14,30.499999999999996,5.225672,-30.125840323677497,-1259.5977103809298,10.215067302764089,0.24124676163629638,-0.22274704248581437,-1.9518090114969446
7185161,1830,1,209963.0,249223,-4.9,-2.91,10.77,0.21,0.23000000000000004,0.08,30.499999999999996,5.265672,-57.41924495844596,-1247.2988854897687,12.184867664443468,0.32155870381627055,-0.4278599188894124,-1.9328558405935343
7225161,1929,1,211404.0,251575,-4.19,-1.93,9.11,-0.06,0.09,0.16,30.499999999999996,5.305672,-10.820266914659749,-872.7114257944663,10.211420077540636,0.19313207915827965,-0.0776635783473713,-1.3555958011419809
7265173,2000,1,211680.0,252534,-4.26,-2.62,9.55,-0.05,0.02,-0.14,30.499999999999996,5.345684,108.27998074518332,-300.20732187043103,10.780282927641556,0.15000000000000002,0.8173876145980392,-0.4733352420560261
7305188,2090,1,212163.0,253125,-3.88,-1.39,8.46,0.13,-0.09,0.03,30.499999999999996,5.385699,156.62869069991078,227.25773184796677,9.41053133462718,0.1609347693943108,1.1807333789657595,0.33951764406694374
7345173,2045,1,212107.0,253840,-3.82,-2.31,8.96,0.11,-0.1,-0.09,30.499999999999996,5.425684,150.19960545260534,537.8276653219677,10.010499488037548,0.17378147196982768,1.1324181106668787,0.8181231270040878
7385188,2068,1,212519.0,254788,-3.53,-1.63,8.21,-0.14,-0.01,0.0,30.499999999999996,5.465699,143.74978751969329,600.0130360585712,9.08415653762087,0.14035668847618202,1.0839470340019381,0.9139542303568821
7425189,2017,1,212539.0,254903,-3.44,-2.04,8.65,-0.04,-0.01,-0.07,30.499999999999996,5.5057,120.94110010003851,501.7400026211362,9.529832107650165,0.08124038404635961,0.9125372906503777,0.7625100383776251
7465206,2016,1,212669.0,254827,-3.62,-1.37,8.04,0.18,-0.07,0.13,30.499999999999996,5.545717,103.00476571499325,391.24164528607776,8.923166478330435,0.23280893453645632,0.7777438052979923,0.5922259446002924
7505173,2006,1,212466.0,254524,-3.44,-2.25,9.01,0.22,-0.0,-0.08,30.499999999999996,5.585684,111.19394638433491,414.4066583508527,9.903342869960628,0.2340939982143925,0.8392863803249886,0.6279245138117256
7545187,2009,1,212731.0,254943,-4.08,-1.63,9.14,0.1,0.12,0.17,30.499999999999996,5.625698,105.97738424339397,651.166000183273,10.141148850105692,0.23086792761230393,0.8000833538068723,0.9927837835744631
7585213,1925,1,213017.0,255554,-4.41,-2.33,9.5,0.05,0.23000000000000004,0.15,30.499999999999996,5.665724,38.265391530631696,1063.8497674515386,10.729725066375186,0.2791057147390573,0.2912204333252788,1.6287523447432564
7625161,1908,1,213878.0,255924,-4.07,-1.69,8.76,0.09,0.14,0.28,30.499999999999996,5.705672,7.192063372516426,1497.6071157216072,9.806049153456248,0.3257299494980466,0.057701024397276146,2.2971964623825776
7665160,1882,1,213998.0,256539,-5.565,-1.91,10.07,0.35,0.2,0.18,30.499999999999996,5.745671,14.008198499026468,1756.985538420246,11.66285663977741,0.4414748010928823,0.10892501423887685,2.6969129895767625
7705160,1879,1,214328.0,256705,-3.35,-1.01,6.89,-0.3,-0.25,-0.24,30.499999999999996,5.785671,-28.707306857466335,1719.0192787514193,7.727528712337469,0.4583666654546336,-0.21208661065538267,2.6384048788885877
7745207,1835,1,213536.0,256279,-3.7,-2.25,8.52,-0.4,-0.22,-0.355,30.499999999999996,5.825718,-10.288212948356493,1397.184120429386,9.557347958508155,0.5782949074650408,-0.07366513546746088,2.1424390600088166
7785233,1935,1,213222.0,254504,-2.94,-0.8950000000000002,6.785000000000001,-0.13,-0.25,0.11,30.499999999999996,5.865744,23.24022244697011,902.8875012987736,7.448546838142325,0.30248966924508347,0.17830466885981036,1.3807005701720056
7825190,1867,1,212454.0,254241,-4.07,-1.59,8.0,0.2,-0.21,-0.17,30.499999999999996,5.905701,29.995727668643934,342.2894683391953,9.115536188288651,0.33615472627943227,0.22907301843434114,0.5167879264173489
7865188,1945,1,212327.0,253531,-2.245,-1.56,6.785000000000001,-0.26,-0.25,-0.3,30.499999999999996,5.945699,48.16317139848479,-252.27478823407057,7.315042720312713,0.469148164229596,0.36560331541243307,-0.3994685507352719
7905207,1887,1,211667.0,252944,-3.55,-1.46,8.43,-0.36,-0.23,-0.355,30.499999999999996,5.985718,32.648186394104975,-892.2708346563109,9.26277496218061,0.5554502678008176,0.2490065315303247,-1.3857379344115293
7945206,1990,1,210984.0,252223,-2.245,-1.52,6.79,-0.37,-0.25,-0.355,30.499999999999996,6.025717,124.99358935954531,-1541.5970058509354,7.311260151300869,0.5704603404269222,0.9429921840480764,-2.3863855575477393
7985207,2064,1,210228.0,250788,-2.63,-1.97,9.32,0.37000000000000005,-0.13,-0.355,30.499999999999996,6.065718,179.73943505205713,-2065.033371539561,9.882317541953405,0.5289848769104841,1.3544131127084076,-3.1930300120993587
8025213,1931,1,209985.0,252155,-2.58,-1.78,7.47,0.31,-0.16,0.325,30.499999999999996,6.105724,91.11544749668194,-2277.1393845885127,8.100969077832602,0.47678611556965456,0.6883942979401234,-3.519897135628121
8065172,2047,1,210072.0,251233,-2.245,-3.28,9.31,-0.39,0.23000000000000004,-0.355,30.499999999999996,6.145683,144.41802765053671,-2050.7373010109445,10.122970166902597,0.5753477209479498,1.088968930580975,-3.170998974957688
8105188,1991,1,211459.0,254419,-5.565,-2.13,10.825,-0.1,0.23000000000000004,0.325,30.499999999999996,6.185699,150.07194363978707,-1389.6816207391626,12.35664800825855,0.41051796550212033,1.1314587183893503,-2.1522755281456534
8145858,1805,1,212070.0,253857,-4.68,-2.89,10.64,-0.16,0.23000000000000004,0.02,30.499999999999996,6.226369,-96.76474293565971,-417.5245266495405,11.977650019932959,0.2808914381037628,-0.72354557524603,-0.6541275577257011
8186173,1564,1,212747.0,255343,-4.64,-2.28,10.07,0.37000000000000005,-0.2,0.325,30.499999999999996,6.266684,-300.5073765001645,678.6982929102154,11.319580380915188,0.5315308081381549,-2.254693417579492,1.0352125728315151
8226172,1564,1,213937.0,255929,-5.565,-1.85,10.825,0.2,0.23000000000000004,0.325,30.499999999999996,6.306683,-330.92743849304105,1685.7863535612614,12.311472292134681,0.4455614435742842,-2.483303460893262,2.587191099009342
8266162,1564,1,214712.0,257571,-5.565,-3.25,10.825,-0.31,0.23000000000000004,0.325,30.499999999999996,6.346673,-328.8916405104287,2376.070389941118,12.598108985081847,0.5046038049797088,-2.4680042197184062,3.6509570627646166
8304173,1564,1,214633.0,256305,-5.565,-1.62,10.825,0.06,0.09,-0.31,30.499999999999996,6.384684,-335.952437853497,2540.855291747238,12.279016654439394,0.3283291031876401,-2.5210668724771867,3.904899730773303
8344167,1564,1,214292.0,256722,-5.51,-2.28,9.71,0.37000000000000005,-0.25,0.325,30.499999999999996,6.424678,-346.8603697843375,2073.260897503923,11.394849713796141,0.5522906843320825,-2.6030411561508044,3.184310849640488
8384172,1564,1,213674.0,253484,-5.03,-2.12,9.28,-0.36,-0.2,-0.355,30.499999999999996,6.464683,-361.0862179279719,1059.3361910282226,10.766322491918956,0.5437140792732886,-2.7099499376336613,1.6217966732792133
8424206,1564,1,211494.0,248772,-4.05,-1.7,8.66,-0.14,-0.25,-0.2,30.499999999999996,6.504717,-353.07831757270446,-204.27396745247455,9.710205971038926,0.349428104193123,-2.6497697036979533,-0.32549662513842953
8464206,1564,1,210581.0,247342,-3.53,-1.46,7.2,-0.35,-0.25,-0.355,30.499999999999996,6.544717,-397.56050576301953,-1311.2100542470828,8.15061347384355,0.5576961538328913,-2.984058140429624,-2.0313464943603523
8504206,1564,1,210202.0,248541,-2.68,-2.31,7.9,-0.04,-0.25,-0.27,30.499999999999996,6.584717,-361.3797439685126,-1920.3627363729606,8.65612499909746,0.37013511046643494,-2.7121558174526257,-2.9700845439523897
8544206,1856,1,210303.0,249066,-2.71,-0.93,7.19,0.33,-0.25,-0.355,30.499999999999996,6.624717,-134.70394688573165,-1901.079853738441,7.739838499607082,0.5453668490108287,-1.008662780475491,-2.9403685529274983
8584188,2002,1,210262.0,250261,-2.245,-1.67,7.96,0.23,-0.22,-0.2,30.499999999999996,6.664699,52.402217839011904,-1370.0889420345316,8.437447777616168,0.37589892258425006,0.3974602061250463,-2.122082124204163
8624189,2186,1,211095.0,252855,-2.245,-1.25,7.56,-0.07,0.03,0.06,30.499999999999996,6.7047,182.50327865712737,-614.2528318481653,7.98474326450137,0.09695359714832658,1.3751836951751872,-0.9572967810429215
8664172,2260,1,212140.0,254095,-2.73,-1.37,8.37,-0.19,0.09,0.17,30.499999999999996,6.744683,273.2279374096615,52.881958511100876,8.909921436241735,0.2703701166919155,2.056989280315042,0.0707949113900048
8704172,2260,1,212236.0,254063,-2.6,-1.45,8.11,-0.08,0.08,-0.0,30.499999999999996,6.784683,251.68031238672137,431.1648083924582,8.639131900833554,0.1131370849898476,1.8950565567408186,0.6537497519604377
8744187,2260,1,212079.0,253647,-2.65,-1.47,8.01,0.06,0.04,-0.08,30.499999999999996,6.824698,238.50911463561684,502.05556353016965,8.564081970649276,0.10770329614269007,1.7960735865851583,0.7629963352305582
8784172,2260,1,211881.0,253739,-2.77,-1.54,7.98,-0.16,0.04,-0.04,30.499999999999996,6.864683,242.2329726948043,393.09086421190693,8.586320515797206,0.16970562748477142,1.8240587811059494,0.5950756934705482
8825187,2260,1,212075.0,253665,-3.19,-1.88,8.52,-0.39,0.04,-0.02,30.499999999999996,6.905698,218.20032254751888,271.96673335474395,9.289827770201123,0.39255572852781045,1.6434508259873122,0.40841669368978784
8865189,2260,1,211908.0,253446,-3.68,-2.18,8.54,-0.09,-0.09,0.09,30.499999999999996,6.9457,223.3003626367285,243.7240269916447,9.551251226933568,0.15588457268119896,1.6817781767326592,0.364893117639904
8905187,2260,1,211889.0,253145,-3.39,-2.23,8.51,0.29,-0.01,0.1,30.499999999999996,6.985698,215.13045824986744,305.34705427026523,9.427889477502374,0.3069201850644561,1.6203804650453184,0.45985761855223056
8945172,2260,1,211703.0,253103,-3.15,-2.41,9.16,0.21,0.09,-0.03,30.499999999999996,7.025683,198.04015393006702,366.3228976742668,9.981793426033219,0.23043437243605824,1.4919449867839658,0.5538247732391954
8985172,2243,1,211693.0,253436,-3.69,-2.33,9.37,0.09,0.15,0.12,30.499999999999996,7.065683,207.5186861226674,315.9482232764193,10.336435555838385,0.21213203435596426,1.5631771774221295,0.4761946076327057
9025223,2215,1,212134.0,252885,-4.48,-2.15,10.11,0.03,0.23000000000000004,0.26,30.499999999999996,7.105734,131.18420982761523,105.27898133856868,11.265211937642363,0.34842502780368695,0.9895153638389652,0.1515416280289744
9065161,2064,1,211264.0,247569,-4.88,-2.69,10.47,0.21,0.23000000000000004,0.325,30.499999999999996,7.145672,39.36706598041726,-204.58694026181675,11.860497460056218,0.4501388674620311,0.29949963550909187,-0.32597893358627533
9105161,2158,1,210638.0,246211,-5.28,-1.69,10.4,0.13,0.23000000000000004,0.21,30.499999999999996,7.185672,68.29439605255403,-471.9546785011975,11.785351076654443,0.3374907406137241,0.5168916376125556,-0.738007438890969
9145161,2119,1,210808.0,246771,-5.565,-1.54,10.72,0.04,0.15,0.09,30.499999999999996,7.225672,96.9784568670353,-570.1330522890925,12.176174481338546,0.17944358444926362,0.7324554450350699,-0.889305755103129
9185847,2144,1,211302.0,247718,-5.565,-1.23,10.12,-0.14,-0.0,-0.05,29.85,7.266358,69.21514236272772,-472.8418800252276,11.614496330017932,0.14866068747318506,0.5238111453341077,-0.7393746656186861
9224234,2094,1,211492.0,249368,-3.74,-1.75,8.35,-0.28,-0.23,-0.18,29.85,7.304745,67.97672520902621,-261.6705963147164,9.315181157658717,0.4045985664828782,0.5145043069977981,-0.41394801181420043
9264206,2166,1,211310.0,249627,-3.55,-1.41,8.35,-0.26,-0.25,-0.355,29.85,7.344717,118.5488295406184,-66.49940937861133,9.182216508011559,0.5060879370228063,0.8945591196546923,-0.11317839405340736
9304207,2166,1,211292.0,251518,-3.21,-1.33,7.49,0.02,-0.25,-0.19,29.85,7.384718,141.12214297906883,-0.21683057626624835,8.256700309445657,0.31464265445104544,1.0642000021784654,-0.01103326595564399
9344189,2119,1,211477.0,252256,-2.71,-1.53,7.26,-0.27,-0.22,-0.35,29.85,7.4247,97.18556597298792,-119.40051442411344,7.898898657407879,0.49376107582514034,0.7340118922801016,-0.1947019293325578
9384207,2034,1,211391.0,252933,-2.245,-1.92,7.26,-0.3,-0.15,-0.21,29.85,7.464718,25.89378512103586,-396.90822810562304,7.837986029586937,0.3957271787481876,0.198246478248497,-0.6223566988707695
9424214,1915,1,211096.0,252900,-2.26,-1.13,6.9,-0.21,-0.25,-0.3,29.85,7.504725,-90.2631707700746,-703.3065432815972,7.348094991220513,0.44339598554790727,-0.6746855599465849,-1.0945334867702992
9464206,1791,1,210773.0,253103,-2.245,-1.9,7.02,-0.06,-0.25,-0.25,29.85,7.544717,-185.72898579706813,-834.4477013977483,7.6112039126540285,0.3586084215408221,-1.3921214452980346,-1.2966292808191173
9504206,1808,1,211132.0,253808,-2.245,-1.74,7.24,0.15,-0.15,-0.08,29.85,7.584717,-184.75846163653304,-613.0172254185428,7.777224762085766,0.22671568097509268,-1.3848278516679842,-0.9553926430429717
9544188,1779,1,211522.0,254693,-2.245,-2.36,8.09,-0.04,-0.16,0.12,29.85,7.624699,-163.78546911953728,-20.273461819726677,8.721108014466969,0.2039607805437114,-1.2272135532864574,-0.04194164647719946
9584189,1808,1,212681.0,255968,-2.93,-2.03,8.43,-0.28,0.2,0.18,29.85,7.6647,-164.83036079042319,743.5177769401869,9.152633500801832,0.388329756778952,-1.2350660267691007,1.1351029907830585
9624172,1813,1,213363.0,256710,-3.54,-2.3,9.08,-0.08,0.14,0.13,29.85,7.704683,-106.44186978324994,1341.3626024543744,10.013391034010407,0.20712315177207982,-0.7962702261128988,2.0564150065215157
9664172,1927,1,213514.0,256829,-3.36,-1.56,8.42,0.01,0.06,-0.06,29.85,7.744683,-11.569863265816265,1489.9080379625284,9.198891237535097,0.08544003745317531,-0.08329687568732622,2.2853317567820173
9704172,1929,1,213292.0,255695,-3.15,-2.53,9.44,0.02,-0.02,-0.17,29.85,7.784683,18.44303885036108,1131.0026592826503,10.268252042095577,0.17233687939614087,0.14225331728591453,1.732238673461376
9744189,1903,1,212392.0,252347,-4.23,-2.28,9.85,0.02,0.1,0.23,29.85,7.8247,7.341397549144503,462.9489431543051,10.959644154807217,0.2515949125081825,0.05882328682380129,0.7027308654805797
9784161,1849,1,211805.0,251505,-4.45,-3.25,10.825,0.04,0.23000000000000004,0.16,29.85,7.864672,-57.41726877036461,-187.20239832363288,12.146836007784083,0.28301943396169815,-0.42784506762306784,-0.2991883908028991
9824161,1775,1,211759.0,251098,-4.48,-3.06,10.825,0.2,0.21,0.2,29.85,7.904672,-85.50297140256298,-553.9604655294811,12.10845262616161,0.35227829907617075,-0.6389121488390124,-0.864382902430803
9864161,1879,1,211870.0,250174,-5.565,-2.77,10.825,0.33,0.23000000000000004,0.28,29.85,7.944672,-13.749715044417398,-557.0383725071031,12.48289830127603,0.4901020301937139,-0.09967869665929857,-0.8691261276972748
9904161,1808,1,212090.0,249975,-5.43,-2.99,10.825,0.24,0.23000000000000004,0.325,29.85,7.984672,-36.930712709552566,-296.7909105967045,12.474198371037716,0.46489246068311324,-0.2738863916181031,-0.46807036290535114
9944161,1777,1,212512.0,250607,-5.565,-3.03,10.825,0.07,0.15,0.19,29.85,8.024672,-90.64552269221635,41.79495117991516,12.543155504098639,0.2519920633670831,-0.6775589758358226,0.053709218519757886
9984161,1791,1,212734.0,251892,-5.07,-2.53,10.36,0.11,-0.22,0.15,29.85,8.064672,-52.82912305392158,294.7139101552641,11.808276758274257,0.28809720581775866,-0.3933646582402221,0.4434713540565839
10024198,1835,1,212953.0,252494,-3.98,-2.33,9.41,-0.06,-0.25,-0.23,29.85,8.104709,-8.847125914010373,378.6619922136465,10.479379752638035,0.3449637662132068,-0.06283521114258851,0.5728400019027302
10064206,1847,1,212811.0,253701,-3.58,-2.07,8.85,-0.15,-0.25,-0.16,29.85,8.144717,3.091832623466729,300.87264162635836,9.76851063366366,0.3325657829663178,0.026887348562026247,0.45296230064317616
10104207,1763,1,213052.0,254913,-2.6,-1.89,7.45,-0.19,-0.25,-0.18,29.85,8.184718,-69.72305772087707,140.77810944192063,8.113852352612785,0.3619392214170772,-0.5203243974037087,0.20624775221718275
10144206,1706,1,212929.0,255404,-2.44,-2.07,8.03,-0.24,-0.25,-0.21,29.85,8.224717,-133.9395500331812,14.460845258899452,8.644038408059048,0.40521599178709616,-1.0029182557729646,0.011585846116492268
10184206,1742,1,212834.0,255771,-2.38,-1.97,7.15,-0.07,-0.19,-0.03,29.85,8.264717,-92.11061160351774,16.661934151779935,7.788953716642563,0.2046948949045872,-0.6885692768519602,0.014977846110763563
10224892,1778,1,212918.0,255919,-2.25,-2.21,7.42,0.02,-0.04,-0.04,29.65,8.305403,-57.987350195107936,150.2680309355945,8.062443798253728,0.06,-0.4321292909502086,0.22087224728246438
10263187,1797,1,212966.0,256293,-2.62,-2.38,8.27,0.05,0.12,-0.12,29.65,8.343698,-45.49494926879095,293.1490095872845,8.99564894824159,0.1769180601295413,-0.33824755206594614,0.4410597555360556
10303173,1808,1,213431.0,256638,-3.02,-1.94,8.54,0.22,0.17,0.06,29.65,8.383684,-28.289208371764833,259.0162591121311,9.263670978613176,0.28442925306655786,-0.20894455548968233,0.388459295013687
10343161,1823,1,213616.0,256034,-2.84,-1.92,8.5,0.14,0.15,-0.1,29.65,8.423672,-31.468416757504905,-60.316026858581175,9.165260498207347,0.22825424421026655,-0.23283664903432183,-0.1036494588339526
10383172,1838,1,212413.0,251946,-3.1,-1.51,8.55,-0.02,0.09,-0.18,29.65,8.463683,-4.038881035406911,-579.9309556115993,9.219143127210902,0.20223748416156684,-0.02670073284276933,-0.9044048672386327
10423188,1891,1,211653.0,252063,-3.15,-1.42,8.41,-0.18,0.09,-0.04,29.65,8.503699,22.62271534292935,-1050.623954883575,9.092139462194803,0.2051828452868319,0.17366403644313821,-1.6297688704819002
10463189,1862,1,212019.0,252799,-3.19,-2.19,8.76,-0.17,0.12,-0.04,29.65,8.5437,8.961222430385538,-1227.2061257985233,9.576523377510233,0.21189620100417092,0.07099644532518602,-1.9018917841312768
10503188,1946,1,212375.0,253681,-4.13,-1.66,8.84,0.28,0.03,0.15,29.65,8.583699,62.34244491691648,-1037.792353332341,9.897378440779153,0.31906112267087633,0.4721620835689717,-1.6099946612125429
10543161,1987,1,212912.0,254230,-3.03,-2.1,8.75,0.29,0.13,0.01,29.65,8.623672,119.66803951034191,-615.6314470097306,9.494914428261058,0.3179622619116929,0.9029701031601043,-0.9594213034260279
10583161,1936,1,213018.0,254646,-3.85,-1.97,9.85,0.08,0.19,-0.07,29.65,8.663672,34.99044781183556,-184.10337575542874,10.757597315385997,0.21771541057077243,0.26660887843826164,-0.29441262524086476
10623172,1847,1,213405.0,254783,-4.74,-1.49,9.95,0.12,0.18,0.13,29.65,8.703683,-35.834254355476,98.49013467608165,11.12160959573748,0.25238858928247926,-0.2656463889555218,0.14107963900401996
10663161,1947,1,213704.0,255175,-4.26,-1.79,9.54,0.15,0.18,0.15,29.65,8.743672,27.580696589161377,222.6777318664189,10.600155659234442,0.2782085548648711,0.210923799678183,0.3324596102176873
10703161,1964,1,213714.0,254779,-4.4,-1.67,10.06,0.11,0.21,-0.03,29.65,8.783672,63.899740064866954,302.2767010369535,11.106417064022043,0.23895606290697038,0.48386532438776597,0.4551260340244585
10743167,1968,1,213857.0,255130,-5.1,-1.27,10.03,0.24,0.07,0.21,29.65,8.823678,32.50902532624892,474.16726970612206,11.323594835563483,0.32649655434629016,0.24796072111226525,0.7200189285490816
10783161,1977,1,214324.0,255719,-5.07,-1.54,10.03,0.06,0.16,0.03,29.65,8.863672,55.965269441740254,790.6440762823303,11.34360612856423,0.17349351572897473,0.42423692280036635,1.2077272303653976
10823161,2047,1,214612.0,256200,-4.99,-1.24,9.89,0.18,0.1,0.06,29.65,8.903672,101.2672934020392,1166.7901530340548,11.146739433574288,0.21447610589527216,0.7646865136720279,1.7873891850978634
10864167,2061,1,214848.0,256956,-4.66,-0.96,9.11,0.26,-0.05,-0.01,29.65,8.944678,114.30519495534011,1413.681285988685,10.277611590247998,0.26495282598983544,0.8626677485399502,2.167862106603452
10904187,2081,1,214776.0,257329,-4.21,-0.8950000000000002,8.74,0.15,0.04,-0.21,29.65,8.984698,131.95497654260637,1342.9959973412467,9.742316203039193,0.2611512971440119,0.9953077587440183,2.058932158584222
10944172,2087,1,214501.0,257396,-3.94,-0.8950000000000002,8.51,0.04,-0.2,-0.07,29.65,9.024683,112.73621993785426,887.6665865795504,9.420441868617417,0.21563858652847825,0.8508767322432162,1.357244296866822
10984187,1983,1,213830.0,256028,-3.35,-1.01,7.89,-0.22,-0.23,-0.16,29.65,9.064698,33.172912239437146,165.11877308249444,8.63103122459883,0.35623026261113755,0.2529499027916105,0.2437580641343621
11024241,1963,1,212686.0,254407,-3.16,-0.8950000000000002,7.58,-0.38,-0.23,-0.21,29.65,9.104752,-32.684735719819315,-567.7048181704705,8.260933663938962,0.49132473986152986,-0.24197741708151294,-0.885563711724919
11064227,1936,1,212309.0,254857,-2.71,-0.8950000000000002,7.11,-0.29,-0.25,-0.23,29.65,9.144738,-20.15042123090107,-1051.873650964439,7.6614114234911055,0.4466542286825459,-0.14778069325856263,-1.6316947214154283
11104206,2001,1,212282.0,255323,-2.84,-0.8950000000000002,7.33,-0.2,-0.15,-0.17,29.65,9.184717,-2.061128464590596,-1169.0933116042138,7.9117333751839745,0.3023243291566195,-0.011837709191334485,-1.81233671615934
11144206,1925,1,212537.0,255887,-3.21,-0.8950000000000002,8.09,0.1,0.11,0.04,29.65,9.224717,-47.00175992789983,-990.3718322933601,8.749469983947598,0.15394804318340652,-0.3495713965119305,-1.536917009686136
11184161,1955,1,212810.0,256371,-2.96,-0.8950000000000002,7.98,0.05,-0.08,-0.05,29.65,9.264672,-41.707199195987045,-702.3873705026714,8.55821389076015,0.10677078252031312,-0.3097822021791442,-1.0931169905665632
11224188,1995,1,212929.0,256753,-3.49,-0.8950000000000002,8.45,-0.29,0.05,-0.25,29.65,9.304699,3.5046888840335746,-476.53948526745626,9.186056008973601,0.3861346915261565,0.029990007841045777,-0.7450728802619138
11262883,1993,1,212850.0,256899,-3.99,-0.8950000000000002,8.9,-0.22,0.12,-0.2,30.19,9.343394,6.692320588577364,-378.17390546703456,9.794443577865973,0.32062439083762795,0.053945403534018006,-0.5934860692072818
11303187,2014,1,212864.0,256894,-4.14,-0.8950000000000002,8.98,-0.02,0.03,0.04,30.19,9.383698,10.486502022247393,-364.4674306605384,9.928797762065658,0.053851648071345036,0.08245908579063946,-0.5723636317557567
11343172,1987,1,213019.0,257097,-4.31,-1.27,9.67,0.04,0.04,0.13,30.19,9.423683,5.535925000787621,-344.8895814034221,10.662921738435484,0.14177446878757827,0.04525496610248444,-0.5421930808149098
11383161,2000,1,213100.0,257085,-3.79,-1.35,9.12,0.04,-0.02,0.11,30.19,9.463672,-2.641899233109406,-246.25543448421067,9.967998796147599,0.11874342087037917,-0.016202264088610748,-0.3901923929430612
11423172,1979,1,213182.0,257261,-4.94,-1.41,10.37,0.14,0.19,0.15,30.19,9.503683,-4.2910496173856245,-48.121908057555686,11.572752481583626,0.27964262908219123,-0.028595806904815134,-0.08485764581948937
11463161,1979,1,213332.0,257415,-4.71,-1.33,9.96,0.15,0.12,0.17,30.19,9.543672,-13.154976910314435,209.93167154526344,11.097504223923504,0.25651510676761324,-0.0952091755048227,0.312817224725586
11503161,1985,1,213441.0,257545,-4.96,-1.68,10.43,0.04,0.14,0.14,30.19,9.583672,-1.9943898310171568,440.21385938489175,11.670856866571537,0.20199009876724155,-0.011336161169653974,0.667694841145058
11543161,1982,1,213572.0,257961,-4.66,-1.41,9.67,-0.1,-0.03,0.11,30.19,9.623672,4.110932208419859,541.6790435106496,10.826476804574977,0.15165750888103102,0.034545991740062384,0.8240583142817126
11583189,2015,1,213644.0,257648,-4.42,-1.58,9.43,-0.09,-0.02,-0.16,30.19,9.6637,26.718917294681653,457.2424735679649,10.533646092403142,0.18466185312619388,0.20444743543263827,0.6939368795280886
11623206,2032,1,213383.0,256832,-4.17,-1.2,9.13,0.11,-0.12,0.07,30.19,9.703717,67.9643314540142,223.68225167977562,10.108699223935789,0.1772004514666935,0.5144111665935879,0.334007630932422
11663172,1995,1,212661.0,254998,-3.95,-1.38,9.04,-0.09,-0.02,-0.2,30.19,9.743683,10.613155008390146,-33.51312223520627,9.961350310073428,0.22022715545545243,0.08341089662701097,-0.06234469707580115
11703206,1890,1,212498.0,256563,-3.81,-1.04,8.65,-0.14,-0.13,0.01,30.19,9.783717,-63.95415489051234,-174.33795640683311,9.50895367535251,0.19131126469708992,-0.4769704710957531,-0.2793635727098038
11743189,1929,1,212849.0,256979,-3.99,-1.12,8.58,-0.19,0.03,-0.2,30.19,9.8237,-44.763693393063456,-137.12958502759028,9.528425893084334,0.2774887385102322,-0.33275208537483103,-0.22202340988699817
11783188,1923,1,212756.0,257259,-3.64,-1.2,8.73,0.1,-0.05,0.03,30.19,9.863699,-24.956975264984763,25.301906863462715,9.534280256002548,0.11575836902790226,-0.18390246467964527,0.028292522988797062
11823172,1953,1,212885.0,257390,-3.61,-1.02,8.75,0.05,-0.11,-0.03,30.19,9.903683,-7.339458721026111,194.35258502307457,9.520241593573138,0.12449899597988733,-0.05150492975224837,0.2888089888179206
11863187,1911,1,212913.0,257688,-3.48,-1.22,8.48,-0.11,-0.07,0.12,30.19,9.943698,-28.788999246407464,275.833413058533,9.24711847009651,0.1772004514666935,-0.21270053775975906,0.41437546145038345
11903189,1843,1,212876.0,257481,-3.05,-1.35,8.16,-0.43,-0.13,-0.18,30.19,9.9837,-109.55263270725898,260.6557282740241,8.815361592129957,0.4839421453025144,-0.8196479446383609,0.3909858078709081
11943207,1807,1,212642.0,257233,-3.75,-1.43,8.74,-0.1,0.02,-0.09,30.19,10.023718,-116.67111876554291,215.58039845241996,9.617432089700452,0.13601470508735444,-0.8731441343073313,0.32152222600867386
11983189,1869,1,212586.0,256985,-3.55,-1.19,8.4,0.18,-0.09,-0.05,30.19,10.0637,-83.08560185114416,219.2092446858991,9.196662438080459,0.2073644135332772,-0.6207453562143078,0.3271144792079821
12023206,1839,1,212681.0,257111,-3.49,-1.6,9.17,0.17,0.05,0.09,30.19,10.103717,-65.82636866640522,296.99295308085095,9.941277583892324,0.19874606914351792,-0.4910403593326585,0.4469834855363889
12063161,1881,1,212827.0,256951,-3.64,-1.5,9.21,-0.16,0.14,0.05,30.19,10.143672,-68.28073347370132,404.3425763048152,10.016171923444606,0.21840329667841557,-0.5094851752911252,0.6124152055084928
12103167,1831,1,212766.0,257040,-4.52,-1.54,9.84,-0.03,0.19,0.03,30.19,10.183678,-64.25978072546869,463.98191847463505,10.937440285551276,0.19467922333931784,-0.4792672821733748,0.7043227377089004
12143172,1937,1,212629.0,256950,-4.1,-1.28,8.93,0.02,-0.07,-0.14,30.19,10.223683,1.9158190944095561,420.47397008495943,9.909253251380752,0.157797338380595,0.018049480188243962,0.6372745775160586
12183187,1931,1,212277.0,256853,-3.53,-1.62,8.87,-0.3,0.0,-0.25,30.19,10.263698,32.545700920517774,269.7693200961549,9.683088350314687,0.3905124837953327,0.24823634215459991,0.40503035805170673
12223189,1956,1,212166.0,256889,-4.17,-1.2,9.02,-0.23,0.06,-0.04,30.19,10.3037,42.136711437547014,53.05269282380772,10.009460524923409,0.241039415863879,0.3203138195191865,0.07105802242999812
12263187,1983,1,211988.0,256753,-3.26,-1.68,8.1,-0.01,-0.11,0.08,30.19,10.343698,78.97619603231554,-166.43009855940653,8.891569040388767,0.13638181696985854,0.5971665153105086,-0.2671771254200415
12303875,1969,1,211822.0,256096,-3.69,-1.65,8.84,0.06,-0.07,-0.16,29.49,10.384386,69.88006906403913,-325.9515768079551,9.720298349330642,0.1846618531261939,0.5288081411332247,-0.5130085659654127
12342187,1952,1,211343.0,256214,-3.53,-1.63,8.84,0.04,0.0,-0.07,29.49,10.422698,51.92224626015361,-384.5093928980631,9.657297758690058,0.0806225774829855,0.39385316799810666,-0.6032494065260355
12382172,1949,1,211544.0,256420,-3.9,-1.68,8.98,-0.08,0.12,-0.07,29.49,10.462683,51.19580443690922,-342.4963395255049,9.93341834415525,0.16031219541881397,0.38839387943006487,-0.538504962419309
12422187,1953,1,211756.0,256727,-3.78,-1.9,8.99,-0.07,-0.16,0.06,29.49,10.502698,66.5444815432006,-245.2697706044358,9.935718393754929,0.1846618531261939,0.503740841540136,-0.38867343026719464
12462189,1994,1,211772.0,256567,-3.56,-1.78,8.57,-0.15,0.01,-0.14,29.49,10.5427,90.06331393030217,-158.41236906444055,9.449174567124897,0.2054263858417414,0.6804874008326068,-0.2548213598310367
12502199,1957,1,211590.0,256641,-3.83,-1.43,8.6,-0.04,0.02,-0.04,29.49,10.58271,84.06626393701592,-128.60006657819503,9.522279138945676,0.06,0.635418924014872,-0.2088789491498295
12542189,1936,1,211620.0,256476,-3.72,-1.97,9.09,-0.08,-0.05,0.01,29.49,10.6227,29.004243228947608,-160.12923876452325,10.017354940302356,0.09486832980505139,0.22162190604814733,-0.2574671512080601
12582187,1811,1,211515.0,256490,-4.05,-2.0,8.85,-0.05,-0.06,0.09,29.49,10.662698,-56.68695847540899,-221.18512067132588,9.936045491039179,0.11916375287812986,-0.4223567070733296,-0.3515576496645205
12622188,1849,1,211534.0,256290,-3.63,-2.25,8.83,-0.08,-0.03,-0.04,29.49,10.702699,-53.833971771939076,-267.73769273605456,9.808582976149001,0.09433981132056604,-0.400916204617858,-0.4232977437096218
12662206,1877,1,211458.0,256326,-3.96,-2.27,9.08,0.05,-0.0,-0.09,29.49,10.742717,6.749133045795989,-266.142964534187,10.162721092305938,0.10295630140987,0.05437235527095243,-0.4208401791518724
12702222,1899,1,211503.0,256342,-3.56,-2.23,8.92,-0.0,-0.04,-0.1,29.49,10.782733,4.015111569135605,-206.65790241199855,9.859660237553827,0.1077032961426901,0.03382588931218909,-0.329170401056887
12742206,1861,1,211594.0,256496,-4.17,-1.96,9.27,-0.15,0.0,-0.08,29.49,10.822717,-14.877621169863808,-108.94459278220391,10.351975656849277,0.16999999999999998,-0.10815503271188623,-0.17858877449170787
12782189,1847,1,211650.0,256459,-3.78,-1.97,8.81,-0.19,0.02,-0.09,29.49,10.8627,-40.01896145322515,-18.84182000152699,9.787001583733396,0.21118712081942875,-0.29709491365267393,-0.03973540707685573
12822188,1831,1,211664.0,256392,-3.85,-1.97,9.23,-0.03,0.02,-0.11,29.49,10.902699,-51.65099668274174,8.021406086850222,10.192953448338711,0.11575836902790225,-0.38451091163025175,0.0016623134025923003
12862189,1840,1,211644.0,256354,-3.68,-1.76,8.94,0.05,-0.04,-0.1,29.49,10.9427,-39.501922094662945,-64.71033830891673,9.82667797376102,0.11874342087037917,-0.29320930716760135,-0.11042133636355943
12902205,1822,1,211598.0,255892,-4.0,-2.16,9.72,0.02,0.02,0.03,29.49,10.982716,-67.26513766568273,-225.95417541051742,10.73051722891306,0.04123105625617661,-0.5018528633742467,-0.3589070273749534
12942161,1835,1,211217.0,254528,-4.24,-2.05,9.54,-0.09,0.01,0.08,29.49,11.022672,-40.56305937829233,-411.9800290479833,10.639158801333872,0.12083045973594571,-0.30118386818030335,-0.6455831795801609
12982172,1917,1,211057.0,254593,-3.7,-2.46,9.38,0.02,-0.03,-0.06,29.49,11.062683,26.75737046505931,-535.4082112953168,10.379113642310697,0.06999999999999999,0.20473641515094543,-0.8357928502709142
13022191,1915,1,211264.0,254871,-3.47,-1.93,8.54,0.02,-0.09,-0.16,29.49,11.102702,34.060447437818404,-532.6047014919072,9.417929708805433,0.18466185312619388,0.25961982542989925,-0.8314724862602357
13062188,1930,1,211319.0,255107,-3.07,-2.44,8.73,-0.08,-0.06,-0.13,29.49,11.142699,47.962185392041974,-396.1592560952277,9.570339596900416,0.16401219466856726,0.3640928839199163,-0.6212024914858757
13102206,1927,1,211625.0,255608,-3.87,-2.0,9.02,-0.07,-0.03,0.1,29.49,11.182717,32.94663257676776,-171.49979726725445,10.016850802522717,0.12569805089976535,0.2512493867474293,-0.2749898121514134
13142187,1853,1,211819.0,256187,-3.61,-2.61,8.82,0.03,-0.01,0.09,29.49,11.222698,-18.781552072877655,73.83349745456532,9.881123417911548,0.09539392014169457,-0.1374934940549615,0.10308239428362052
13182172,1866,1,212076.0,256367,-3.57,-2.29,8.67,0.08,0.05,-0.05,29.49,11.262683,-37.46901071607558,283.13143574913096,9.651834022609382,0.10677078252031312,-0.2779317591329937,0.425622118959206
13222172,1850,1,212148.0,256636,-4.15,-2.3,9.53,0.09,0.08,-0.01,29.49,11.302683,-21.43078091958654,428.2197264205702,10.645816079568537,0.12083045973594571,-0.1574027342641376,0.6492112173905324
13262172,1919,1,212300.0,256978,-4.03,-2.44,9.41,0.0,0.04,0.01,29.49,11.342683,18.61907710764989,511.8180537946174,10.5234309994412,0.04123105625617661,0.14357626375568502,0.7780408738805829
13302157,1902,1,212535.0,257233,-4.1,-2.06,8.99,-0.05,-0.03,0.0,29.49,11.382668,18.574230136234597,561.4804924787546,10.093250219825128,0.05830951894845301,0.14323923393371613,0.8545734447717298
13342874,1911,1,212587.0,257216,-4.13,-2.02,9.37,-0.0,0.08,-0.06,29.19,11.423385,21.72043339880576,614.7753891382184,10.437154784710247,0.1,0.1668832904217912,0.9367038347565774
13381188,1919,1,212432.0,257220,-3.85,-2.0,8.83,0.06,0.02,-0.05,29.19,11.461699,21.14759333643151,691.1023167354684,9.838262041641299,0.0806225774829855,0.16257833563564034,1.0543278611237286
13421172,1859,1,212565.0,257346,-4.49,-1.81,9.68,0.05,0.08,-0.02,29.19,11.501683,-22.63943700821517,761.4730921169518,10.823058717386688,0.09643650760992956,-0.1664859149899871,1.1627731267660821
13461172,1918,1,212651.0,257572,-4.32,-1.97,9.5,-0.0,-0.01,0.13,29.19,11.541683,12.154053498951482,748.9443030359073,10.620419012449556,0.130384048104053,0.09499091479896078,1.14346556829873
13501188,1919,1,212738.0,257489,-4.37,-2.0,9.57,0.07,0.04,-0.01,29.19,11.581699,38.51630479979742,580.4475665724523,10.708958866295081,0.08124038404635961,0.29310607357628843,0.8838027573293754
13541172,1925,1,212511.0,256785,-3.67,-1.77,8.81,0.03,-0.06,-0.14,29.19,11.621683,14.343960459502231,259.0317517723697,9.706590544573311,0.15524174696260024,0.11144830154662314,0.3884831700619009
13581189,1920,1,211630.0,254556,-3.86,-1.86,9.28,-0.0,0.05,-0.17,29.19,11.6617,41.36483451551386,-111.74739733997068,10.221428471598282,0.17720045146669353,0.3145130812885998,-0.18290805167975765
13621187,1968,1,211421.0,254883,-3.25,-1.8,8.15,-0.12,-0.09,-0.02,29.19,11.701698,48.7610166214193,-386.001360180426,8.95684096096386,0.15132745950421556,0.3700961866742337,-0.6055486108106045
13661206,1923,1,211730.0,255389,-3.7,-1.75,8.46,-0.09,-0.06,-0.06,29.19,11.741717,49.84610570407558,-470.81032658094693,9.398090231531086,0.1236931687685298,0.3782507480371738,-0.736243929148364
13701206,1968,1,211981.0,255740,-3.47,-1.42,8.21,0.01,0.01,-0.06,29.19,11.781717,39.09073343325151,-376.99539068526406,9.025596933167357,0.061644140029689765,0.29742296664525586,-0.5916699126013653
13741172,1888,1,211911.0,255610,-3.31,-2.07,8.53,0.17,-0.0,-0.13,29.19,11.821683,16.908475327374724,-193.86877625425984,9.380932789440504,0.21400934559032697,0.1307209070778159,-0.30946164872339366
13781187,1983,1,211999.0,256484,-3.12,-1.47,7.86,0.04,-0.09,-0.08,29.19,11.861698,51.31060359271251,-28.240430191928315,8.583408413911108,0.1268857754044952,0.38925660745431145,-0.054219186362243495
13821189,1891,1,212166.0,256940,-3.49,-1.89,8.59,-0.19,0.03,-0.17,29.19,11.9017,13.473060524951999,41.018667179209,9.46257364568435,0.2567099530598687,0.10490339470829682,0.05251292184384204
13861188,1857,1,212242.0,257334,-2.94,-1.39,7.36,-0.16,-0.12,-0.07,29.19,11.941699,-70.75356638795294,-16.42502672858067,8.046446420625692,0.21189620100417092,-0.5280687810631043,-0.036010994676018655
13901205,1818,1,212150.0,257016,-2.74,-1.78,7.49,-0.17,-0.17,-0.28,29.19,11.981716,-69.17282559421075,-170.27689297723347,8.17166445713479,0.3690528417449187,-0.516189343690167,-0.27310524885269216
13941206,1877,1,212082.0,257204,-3.33,-1.35,7.92,-0.08,-0.03,-0.08,29.19,12.021717,-47.966520260528455,-328.1418368755815,8.696999482580184,0.11704699910719625,-0.3568216743542729,-0.516383878139706
13981206,1842,1,211909.0,256978,-2.99,-2.14,8.4,-0.05,0.01,-0.05,29.19,12.061717,-50.93358227663168,-368.7060857338369,9.169498350509695,0.07141428428542851,-0.3791194650745824,-0.5788956341800345
14021191,1859,1,212040.0,257341,-3.86,-1.58,8.51,-0.01,0.06,0.1,29.19,12.101702,-67.72827249034329,-215.38357046556447,9.477135643220477,0.11704699910719626,-0.5053333714794097,-0.3426171392070104
14061172,1843,1,212425.0,257762,-4.1,-2.34,9.47,0.15,0.2,0.05,29.19,12.141683,-52.94495265240324,91.13593995183287,10.581422399658754,0.25495097567963926,-0.3942351301522159,0.12974641727762404
14101161,1899,1,212975.0,258323,-4.18,-1.81,9.25,0.15,0.11,0.06,29.19,12.181672,-29.08542239828205,386.0335353466066,10.310722574097317,0.19544820285692063,-0.21492818968253033,0.584199958488604
14141161,1839,1,212820.0,257787,-3.87,-2.48,10.0,0.04,-0.01,-0.09,29.19,12.221672,-63.32351718987739,466.9646161253408,11.005784842527135,0.09899494936611665,-0.47223116083099387,0.7089192401249691
14181187,1829,1,212825.0,257858,-4.63,-1.73,9.8,-0.09,-0.07,0.1,29.19,12.261698,-95.25801294006109,229.09016973594922,10.975873541545567,0.15165750888103102,-0.712222336995016,0.3423415324276745
14221189,1831,1,212580.0,256548,-4.44,-2.58,10.16,-0.12,0.16,-0.02,29.19,12.3017,-81.91419361957605,-244.70261657090268,11.38400632466444,0.2009975124224178,-0.6119420971473276,-0.3877994144631452
14261188,1874,1,211770.0,254029,-4.65,-1.96,9.91,0.03,0.05,-0.01,29.19,12.341699,-44.773815864280834,-713.173332490639,11.12080033091144,0.05916079783099616,-0.332828156836618,-1.1097387558754226
14301172,1887,1,211461.0,254622,-4.84,-2.3,10.08,0.08,-0.07,-0.0,29.19,12.381683,-33.230469146790554,-920.4448950168862,11.415866151983387,0.1063014581273465,-0.24607866258215927,-1.4291557231663516
14341198,1907,1,212048.0,256000,-4.44,-2.28,9.75,-0.08,-0.01,-0.11,29.19,12.421709,-13.324166987370726,-759.124570990589,10.953287177829312,0.13638181696985854,-0.09648065716232741,-1.1805521615641916
14381892,1971,1,212518.0,257015,-3.73,-2.41,9.08,-0.07,-0.1,-0.08,29.05,12.462403,54.01537039345787,-333.7238314626393,10.107789075757369,0.14594519519326427,0.40958322137169406,-0.5249860412184284
14420206,2002,1,213095.0,257818,-3.56,-1.96,8.51,-0.04,-0.15,-0.17,29.05,12.500717,70.53069235531815,120.18793663258728,9.430551415479371,0.23021728866442678,0.5336976452649085,0.1745171545674421
14460206,1975,1,213256.0,257964,-3.17,-2.11,8.49,-0.16,-0.07,-0.2,29.05,12.540717,68.50393252121374,392.94054197006585,9.30489656041377,0.26551836094703507,0.5184663267498535,0.5948440385632371
14500206,2032,1,213266.0,257996,-3.11,-1.94,8.21,-0.09,-0.1,-0.06,29.05,12.580717,88.9481624362461,416.48350553821246,8.991095595087398,0.14730919862656236,0.6721069172090931,0.6311250504508469
14540225,1994,1,213265.0,257891,-3.46,-2.26,8.59,-0.06,-0.06,-0.09,29.05,12.620736,93.18152108802437,270.9492394262812,9.532434106774618,0.12369316876852982,0.7039210635764602,0.40684867914449613
14580206,2031,1,213215.0,257858,-3.49,-2.04,8.75,-0.01,0.02,-0.08,29.05,12.660717,87.32499341772976,103.79484718389433,9.638682482580283,0.08306623862918075,0.6599086271557894,0.14925449502837795
14620189,1959,1,213097.0,257924,-3.4,-2.43,8.93,0.07,0.03,-0.05,29.05,12.7007,52.29545305310401,34.51513270095965,9.859503030072053,0.091104335791443,0.39665785725618125,0.04249061471016883
14660172,1991,1,213383.0,258124,-3.69,-2.21,9.08,-0.09,0.06,-0.01,29.05,12.740683,57.75881886834209,104.33633425763064,10.047218520565778,0.10862780491200215,0.4377156399771048,0.15008895662461447
14700189,1987,1,213712.0,258705,-4.42,-2.1,9.57,-0.05,0.05,0.11,29.05,12.7807,69.25100500677325,280.96479488936353,10.748548739248475,0.1307669683062202,0.5240806569679274,0.42228320529347874
14740167,1933,1,213810.0,258814,-3.54,-2.31,8.7,-0.06,0.07,0.03,29.05,12.820678,10.913273488873854,488.82778503131266,9.67252293871666,0.09695359714832658,0.08566631934241206,0.742611595324108
14780172,1902,1,213928.0,258824,-4.33,-1.7,9.16,0.09,0.03,0.01,29.05,12.860683,-21.700848792001267,634.278798986508,10.2734852898128,0.09539392014169455,-0.15943232342226774,0.9667596704421111
14820157,1867,1,213876.0,259041,-4.2,-2.18,9.7,0.06,0.12,0.03,29.05,12.900668,-49.95190834741601,626.2943482651234,10.7927012374104,0.1374772708486752,-0.37174207973162854,0.9544551892878977
14860161,1849,1,214233.0,259179,-4.47,-2.07,9.77,0.09,0.12,0.17,29.05,12.940672,-74.49515435602714,413.4874142797345,10.941604087152852,0.22671568097509268,-0.556187217759388,0.6265079077427693
14900161,1872,1,214091.0,257704,-4.13,-2.03,8.98,-0.1,-0.05,-0.02,29.05,12.980672,-42.202504772999,32.21176454760188,10.090500483127684,0.11357816691600547,-0.3135044769542834,0.038940996705977456
14940206,1922,1,212968.0,255766,-3.98,-1.98,8.97,-0.02,0.06,-0.14,29.05,13.020717,-1.421199141872658,-382.9346302586983,10.011078862939799,0.15362291495737218,-0.007028571385548385,-0.6008226100068301
14980187,1936,1,212878.0,256498,-3.64,-1.73,8.25,0.11,-0.1,-0.01,29.05,13.060698,27.326608770244707,-663.9271544103549,9.181775427443213,0.1489966442575134,0.20901430234377114,-1.033847665648892
15020189,1946,1,213187.0,257235,-4.07,-2.05,9.26,-0.01,0.03,-0.05,29.05,13.1007,20.266845921257385,-712.2755862621201,10.320610447061743,0.05916079783099616,0.15595942391946443,-1.108355279173576
15060188,1919,1,213658.0,257917,-4.25,-1.3,8.9,0.06,-0.0,0.12,29.05,13.140699,16.543862108973872,-553.3240587730784,9.947989746677466,0.1341640786499874,0.12798079945834717,-0.8634021643420076
15100172,1948,1,213691.0,258280,-4.24,-1.67,9.38,0.06,0.1,0.01,29.05,13.180683,22.06181229998252,-300.54942432456744,10.42836995891496,0.11704699910719625,0.16944878964407095,-0.4738624409012087
15140161,1906,1,213813.0,258846,-4.29,-1.14,8.72,0.12,-0.03,-0.07,29.05,13.220672,5.251085471220403,-74.79116986908359,9.784789215920801,0.14212670403551894,0.043114366349364795,-0.12595645659652158
15180189,1959,1,214142.0,259415,-4.47,-1.74,9.85,0.01,0.16,-0.03,29.05,13.2607,37.353523938587756,51.21121445680963,10.955866008673162,0.16309506430300091,0.284367650127059,0.06822020218997413
15220172,1936,1,214220.0,259564,-4.16,-1.4,8.92,0.01,0.02,0.15,29.05,13.300683,33.59902942783338,60.07571357270648,9.941428468786565,0.15165750888103102,0.25615221937199145,0.08188088670280662
15260161,1904,1,214285.0,259374,-3.91,-1.57,8.83,-0.19,-0.02,-0.12,29.05,13.340672,-13.915907115447418,-26.032172036385635,9.783756947103704,0.22561028345356957,-0.10092764797851268,-0.050816138136804544
15300206,1915,1,214024.0,259153,-3.94,-1.27,8.52,0.07,-0.04,-0.06,29.05,13.380717,13.309914600272688,-158.2941111544345,9.472428410919767,0.1004987562112089,0.10367733550709808,-0.2546391178364673
15340189,1927,1,214087.0,259293,-4.26,-1.37,8.98,0.13,0.08,-0.03,29.05,13.4207,8.345965279731873,-270.86761942624935,10.033189921455689,0.15556349186104046,0.06637272155062639,-0.4281211342367153
15380172,1879,1,214146.0,259419,-3.95,-1.25,8.67,0.07,0.07,0.05,29.05,13.460683,-20.529680536340074,-300.2153626877247,9.609053023061117,0.11090536506409418,-0.15063086780008278,-0.4733476334011927
15420847,1891,1,214105.0,259401,-3.92,-1.24,8.58,-0.16,-0.08,-0.17,28.83,13.501358,-27.773710229149223,-217.13521479937808,9.514220935000406,0.24677925358506134,-0.20507053140849804,-0.34531652022223397
15461207,1807,1,214176.0,259768,-4.16,-1.03,8.48,-0.06,0.03,-0.11,28.83,13.541718,-96.37301407560109,-53.784998213613406,9.50141568399152,0.12884098726725127,-0.7206016906580819,-0.09358478166531486
15501189,1771,1,214590.0,260203,-3.93,-1.14,8.39,0.02,-0.02,-0.06,28.83,13.5817,-141.45346128101622,102.99653571641733,9.334698709653141,0.066332495807108,-1.0593861083442588,0.1480242528051459
15541188,1799,1,214862.0,260069,-3.42,-1.08,7.93,-0.06,-0.07,0.01,28.83,13.621699,-115.88035440905922,162.7274477575829,8.703315460213998,0.09273618495495704,-0.867201454971929,0.24007289925318107
15581189,1824,1,214576.0,259320,-3.2,-1.16,7.72,-0.3,-0.16,-0.18,28.83,13.6617,-79.49281074294584,95.67902398819685,8.437061099695795,0.3847076812334269,-0.5937451439512663,0.13674756160903445
15621206,1887,1,214166.0,259276,-4.26,-1.15,8.45,-0.11,-0.01,-0.13,28.83,13.701717,-38.99102009629095,-42.6192863208104,9.532712100971054,0.1705872210923198,-0.2893698236055934,-0.07637780070287936
15661206,1905,1,214363.0,259592,-3.95,-1.29,8.6,0.19,-0.01,-0.01,28.83,13.741717,3.1677627340955548,-148.6484073816464,9.551261696760276,0.19052558883257653,0.027457971524061632,-0.2397745536437769
15701188,1953,1,214424.0,259668,-4.16,-1.15,9.15,0.02,0.06,-0.03,28.83,13.781699,25.38276822561507,-136.80343667596003,10.116847335014995,0.06999999999999999,0.19440613122278838,-0.22152079719814233
15741172,1947,1,214499.0,259922,-4.33,-1.31,9.28,-0.23,-0.03,-0.01,28.83,13.821683,33.920945997633375,16.34828535052961,10.323923672712812,0.232163735324878,0.25857145707711615,0.014494495921915889
15781206,1968,1,214702.0,260244,-4.41,-1.49,9.06,-0.09,0.07,0.05,28.83,13.861717,49.09240985003675,268.59071261075036,10.185862751873305,0.12449899597988733,0.3725866424913805,0.4032140585843515
15821172,1971,1,214885.0,260394,-4.16,-1.64,8.77,0.22,-0.1,0.14,28.83,13.901683,38.55342849072594,535.4233764535495,9.844191180589698,0.2792848008753788,0.2933850621132981,0.8144179845837702
15861172,1955,1,215057.0,260483,-4.06,-1.52,9.25,0.07,-0.01,0.02,28.83,13.941683,46.131193159457055,723.3255088118369,10.215502924477091,0.07348469228349536,0.3503327800221519,1.1039855863032901
15901172,2018,1,215089.0,260549,-4.35,-1.76,9.39,-0.04,-0.02,0.09,28.83,13.981683,69.677162161492,766.9982384264941,10.497247258210127,0.1004987562112089,0.527283273899528,1.1712876834979504
15941187,1946,1,215091.0,260466,-4.4,-1.56,9.01,-0.08,-0.07,0.0,28.83,14.021698,38.15547197626078,662.6565162601446,10.147595774369416,0.1063014581273465,0.29039437603152146,1.0104913057890321
15979227,1991,1,214750.0,260261,-4.35,-1.8,9.53,0.07,-0.08,0.08,28.83,14.059738,37.06281123631697,476.3199080377545,10.629364985736448,0.13304134695650072,0.2821829128483003,0.7233362635427673
16019172,1977,1,214444.0,260039,-3.65,-1.48,8.46,-0.24,-0.11,-0.24,28.83,14.099683,60.71598198402533,308.15700851022103,9.331907629204226,0.35679125549822543,0.4599390393942571,0.4641879137968535
16059206,1997,1,214166.0,259872,-4.04,-1.53,8.95,-0.2,0.05,-0.11,28.83,14.139717,42.922159640677826,225.55050358702485,9.938058160425506,0.23366642891095848,0.32621654738938305,0.33688671068207876
16099187,1954,1,214344.0,259870,-4.41,-1.67,9.14,-0.0,0.01,0.07,28.83,14.179698,28.69873519914715,213.7379119724296,10.284775155539377,0.07071067811865477,0.21932598028896438,0.31868285221064724
16139172,1984,1,214271.0,259899,-3.4,-2.07,8.88,0.23,-0.13,0.16,28.83,14.219683,26.535785491334178,189.42316933205868,9.73135653442006,0.30886890422961,0.20307118019998294,0.2812124859916285
16179192,1934,1,214077.0,259361,-3.3,-1.72,8.35,-0.25,-0.01,-0.34,28.83,14.259703,5.581470020466982,70.89582717121479,9.141712093475707,0.4221374183841087,0.04559724183236505,0.09855528153659482
16219206,1937,1,213624.0,258942,-4.48,-1.8,9.98,-0.04,0.21,-0.08,28.83,14.299717,-28.153453023071,-153.97823764784056,11.086514330482778,0.22825424421026652,-0.20792433941805694,-0.24798811752612357
16259188,1907,1,213288.0,257900,-4.1,-1.66,9.24,0.07,-0.13,0.04,28.83,14.339699,-22.430095528768533,-418.26139068890564,10.244178834831029,0.15297058540778355,-0.16491269121763347,-0.6552631060560705
16299172,1937,1,212955.0,258018,-3.84,-2.53,9.69,-0.01,-0.05,0.02,28.83,14.379683,-31.48937723615106,-626.8778510715165,10.725791346096566,0.05477225575051661,-0.23299416928961578,-0.9767526354937791
16339188,1874,1,213022.0,257928,-4.09,-1.82,9.08,-0.13,0.11,-0.03,28.83,14.419699,-64.18982236995295,-719.2898875270996,10.123581382099914,0.17291616465790582,-0.4787415375944072,-1.1191647062383283
16379189,1927,1,212740.0,257868,-3.97,-2.48,9.48,0.08,-0.05,0.03,28.83,14.4597,-31.707475664407944,-694.6905789241616,10.572686508168111,0.09899494936611666,-0.23463320247574626,-1.0812558080969872
16419172,1949,1,212894.0,258119,-3.64,-1.93,8.9,0.15,-0.06,0.1,28.83,14.499683,-9.061645241128867,-591.4489413086352,9.807369677951373,0.19,-0.06444734699805402,-0.9221547216605658
16459858,1904,1,212887.0,258223,-3.31,-2.3,8.66,0.04,-0.09,-0.08,28.83,14.540369,-34.641583033484785,-450.49932006552734,9.552052135536112,0.1268857754044952,-0.25668333547314065,-0.7049435422322377
16500187,1904,1,212927.0,258173,-3.44,-1.62,8.68,-0.18,0.03,-0.19,28.83,14.580698,-75.2960473233977,-296.30443006562564,9.476307297676664,0.2634387974463898,-0.5622060146968548,-0.46732066944046197
16540189,1825,1,212941.0,258325,-4.44,-1.99,9.42,0.05,-0.05,-0.0,28.83,14.6207,-96.5392448488414,-143.83638616706563,10.602362944174285,0.07071067811865477,-0.7218509328285762,-0.2323589622130597
16580187,1936,1,213033.0,258149,-3.57,-1.9,8.4,-0.01,0.0,-0.06,28.83,14.660698,-51.94855275347772,-12.33603436607268,9.322816098154034,0.0608276253029822,-0.3867470775603264,-0.02970963078514395
16620188,1903,1,212956.0,258399,-4.32,-1.84,9.4,-0.04,0.06,-0.03,28.83,14.700699,-14.501658268996726,78.36294311567501,10.5075211158484,0.07810249675906654,-0.10532963100587651,0.11006252112276425
16660187,1966,1,213326.0,258653,-3.98,-1.52,8.57,0.02,0.07,-0.02,28.83,14.740698,-13.549625708341479,129.47562680974343,9.570564246688907,0.07549834435270751,-0.09817500374119568,0.18882999996392189
16700172,1933,1,212965.0,258193,-3.17,-1.96,8.7,-0.15,-0.06,-0.3,28.83,14.780683,9.04847634298781,173.6013102327234,9.464697565162872,0.3407345007480164,0.07165216787907076,0.256830124085257
16740206,2002,1,212714.0,258132,-4.47,-1.36,9.59,-0.0,0.08,-0.14,28.83,14.820717,39.79303958827397,246.09246765129942,10.667642663681606,0.161245154965971,0.302700873066249,0.3685430159833858
16780189,1940,1,212890.0,258621,-3.76,-1.52,8.39,0.05,-0.12,0.18,28.83,14.8607,10.866463585841382,333.75989450415545,9.318803571274588,0.22203603311174516,0.08531453787785513,0.5036433803278318
16819172,1930,1,212963.0,258312,-3.07,-2.44,8.76,-0.19,0.1,-0.12,28.83,14.899683,-18.070575699595338,358.62281632288864,9.59771326931577,0.24596747752497686,-0.13215043000962196,0.5419585210472712
16859189,1937,1,212776.0,258196,-3.95,-1.62,8.93,0.13,0.02,0.08,28.83,14.9397,13.431434644812258,233.71216034974034,9.898070519045618,0.15394804318340652,0.10459057173430195,0.34946427616883463
16899161,1959,1,212730.0,256357,-3.93,-1.34,8.57,0.16,0.09,-0.11,28.83,14.979672,17.603039811271724,-47.66025682388277,9.522888217342468,0.21400934559032697,0.13594063400621867,-0.0841462156782357
16939172,1936,1,211531.0,253999,-4.33,-2.03,9.89,0.19,0.06,0.08,28.83,15.019683,26.212328902742442,-376.23121286728895,10.985531393610417,0.21470910553583888,0.20064036908771773,-0.5904922722241056
16979158,1953,1,211545.0,254718,-4.12,-1.57,9.05,-0.07,-0.05,-0.05,28.83,15.059669,18.84007021888258,-589.7302299300834,10.066866443933783,0.099498743710662,0.1452370507962499,-0.9195060921549341
17019206,1856,1,211695.0,255567,-3.92,-1.92,8.86,-0.06,0.04,-0.04,28.83,15.099717,-43.00917562180522,-584.4894294315175,9.876861849798244,0.0824621125123532,-0.3195666952932444,-0.9114297280795837
17059187,1890,1,211930.0,255458,-4.09,-1.67,9.2,0.11,-0.04,-0.06,28.83,15.139698,-27.117807341944136,-380.2025707737603,10.20573368259235,0.13152946437965904,-0.20014135054460977,-0.5966123548975371
17099189,1925,1,211878.0,255988,-4.01,-1.77,8.98,0.19,-0.16,0.1,28.83,15.1797,29.190419634915266,-92.28567064057263,9.99266731158403,0.26776855677991773,0.22302104179751678,-0.15291645203723828
17139167,1959,1,212165.0,256741,-4.0,-1.81,9.16,-0.25,0.15,-0.13,28.83,15.219678,65.5430594908661,150.71743183839357,10.1578393371819,0.31921779399024736,0.4962150469242945,0.22156479898478343
17179189,1966,1,212259.0,256981,-4.0,-1.68,9.09,-0.0,-0.05,0.02,28.83,15.2597,74.06305860966987,276.06797349986346,10.072263896463397,0.05385164807134505,0.560243758241159,0.41473693209258367
17219187,1936,1,212127.0,256842,-3.86,-1.64,9.01,0.05,-0.04,-0.07,28.83,15.299698,61.17278486612651,284.7008659424358,9.938274498120888,0.09486832980505139,0.46337196226888705,0.4280406978834459
17259188,1996,1,212041.0,257245,-3.79,-1.53,9.02,0.02,-0.06,-0.01,28.83,15.339699,117.34035157596976,226.3426460716094,9.902797584521254,0.06403124237432849,0.8854772775497433,0.3381074461607157
17299187,2014,1,212083.0,257258,-3.51,-1.52,8.77,-0.23,-0.02,-0.11,28.83,15.379698,148.13561959055158,161.84030109241323,9.567831520255778,0.25573423705088844,1.1169070345410768,0.23870575706600877
17339206,1975,1,211960.0,257439,-3.39,-1.7,8.61,-0.13,-0.01,-0.03,28.83,15.419717,116.11559093329403,135.5015978606783,9.408198552326581,0.13379088160259653,0.8762730693651358,0.19811635538389807
17379206,1970,1,211862.0,257229,-3.24,-1.87,8.27,0.04,-0.14,-0.1,28.83,15.459717,109.9049205107599,161.98361301387155,9.076750519872187,0.17663521732655696,0.8295992120062797,0.2389266086810153
17419189,1931,1,211849.0,257220,-3.61,-1.71,8.75,0.05,-0.08,-0.01,28.83,15.4997,88.9258483082117,224.61273874399612,9.618664148414789,0.09486832980505139,0.6719392241328053,0.3354415630769684
17459873,1941,1,211917.0,257274,-3.82,-1.98,9.03,-0.16,0.09,0.0,28.77,15.540384,89.90598358644414,287.843784421596,10.0026846396355,0.1835755975068582,0.6793050463478468,0.4328841094774934
17500172,1974,1,212066.0,257354,-4.16,-2.11,9.33,0.01,0.08,0.08,28.77,15.580683,141.70402605205192,325.71194178484495,10.431040216584346,0.11357816691600547,1.0685729161636297,0.49124103907478406
17538161,1995,1,212149.0,257222,-4.02,-2.0,9.06,0.1,0.02,0.02,28.77,15.618672,154.97328330695757,348.5507510094361,10.111577522820067,0.10392304845413264,1.1682928140552216,0.5264369100864247
17578161,1883,1,212100.0,255771,-4.32,-2.03,9.67,-0.01,0.16,-0.04,28.77,15.658672,55.762786871228634,395.0668720568704,10.78388612699522,0.16522711641858306,0.42271524446763364,0.5981208310933295
17618193,1693,1,211532.0,254343,-5.29,-2.07,10.62,-0.1,0.23,0.12,28.77,15.698704,-137.9403089189108,481.16900757261595,12.043811688996136,0.2780287754891569,-1.0329843898383313,0.7308089947203554
17658173,1564,1,212098.0,256122,-5.45,-1.79,10.15,0.04,-0.01,0.24,28.77,15.738684,-261.20599301590994,551.6541501445167,11.658863580984212,0.2435159132377184,-1.9593392863903287,0.8394305065427228
17698167,1564,1,212516.0,256794,-4.09,-1.79,8.86,-0.24,-0.19,-0.31,28.77,15.778678,-260.80220868735546,499.6153044364778,9.921280159334277,0.43566041821583934,-1.9563048036577861,0.7592357606991993
17738205,1579,1,211791.0,256498,-3.03,-1.8,8.18,-0.24,-0.25,-0.355,28.77,15.818716,-248.58337507601092,255.9516893474388,8.906924272721756,0.4961098668641856,-1.8644789526195025,0.3837366231316456
17778206,1610,1,211252.0,256005,-2.4,-1.35,7.27,-0.1,-0.25,-0.355,28.77,15.858717,-210.7164657257362,-133.2931420672399,7.774020838665149,0.4455614435742842,-1.5799050490964899,-0.21611123862411893
17818206,1723,1,210883.0,255923,-2.245,-1.82,7.28,-0.04,-0.25,-0.1,28.77,15.898717,-112.21647055346003,-524.0355386249175,7.832676745532143,0.272213151776324,-0.8396669730526846,-0.8182669312779922
17858206,1758,1,210650.0,255788,-2.245,-2.16,7.65,-0.13,-0.04,-0.08,28.77,15.938717,-61.551797424590625,-774.3504878203813,8.260031779599883,0.157797338380595,-0.45891649591095135,-1.2040161433990384
17898205,1755,1,210691.0,255903,-2.67,-2.13,8.11,0.05,0.07,0.0,28.77,15.978716,-91.26131109393405,-835.7718907443059,8.79988068100926,0.08602325267042628,-0.6821866920193652,-1.2986699300043756
17938161,1744,1,210818.0,255869,-3.06,-2.09,8.51,0.14,0.14,-0.02,28.77,16.018672,-80.18433649360817,-760.7756475758648,9.281799394513975,0.198997487421324,-0.5989420344720195,-1.1830965621042662
17978172,1837,1,210907.0,256168,-3.43,-1.93,9.04,0.05,0.11,-0.01,28.77,16.058683,-20.246766513765294,-637.4270282724469,9.859584169730486,0.12124355652982141,-0.14850473843946416,-0.9930095023204049
18018172,1856,1,211005.0,256254,-3.18,-1.88,8.46,-0.32,0.04,-0.19,28.77,16.098683,18.480360422639475,-525.1844963548227,9.231381261761427,0.374299345444258,0.1425337929225881,-0.8200375388285832
18058189,1931,1,210781.0,256289,-3.57,-2.17,9.03,-0.24,0.06,-0.01,28.77,16.1387,65.2612197832418,-449.02094038982784,9.949608032480475,0.24758836806279894,0.4940969911562747,-0.7026652772027226
18098187,1935,1,210875.0,256112,-4.11,-1.91,8.97,0.06,-0.01,0.12,28.77,16.178698,75.32472966025563,-435.56363976308,10.049930348017345,0.1345362404707371,0.5697253521179132,-0.6819268309743656
18138172,1904,1,210868.0,256461,-3.53,-2.62,8.78,0.15,-0.04,0.21,28.77,16.218683,31.874912132896657,-523.0652013188151,9.8190478153434,0.2611512971440119,0.24319529214528818,-0.8167715877017345
18178172,1940,1,211020.0,256278,-3.28,-2.5,8.97,0.04,0.21,0.0,28.77,16.258683,51.64612920571811,-707.4640731562989,9.872654151746632,0.21377558326431947,0.39177811858535555,-1.1009404707666228
18218161,1942,1,210887.0,254670,-4.28,-2.57,9.99,0.15,0.15,0.09,28.77,16.298672,64.49535444543271,-875.6730646509383,11.16796310882159,0.23043437243605824,0.4883414306288159,-1.360159850788808
18258161,1952,1,210205.0,252130,-4.5,-2.32,9.94,0.37000000000000005,0.09,0.23,28.77,16.338672,31.206857173007343,-824.1549457332021,11.155088524973703,0.44485952839070453,0.2381747871459217,-1.2807675737939699
18298161,1936,1,210661.0,253205,-4.42,-2.47,10.27,0.34,0.18,0.3,28.77,16.378672,51.81746220745934,-392.2469307365554,11.450336239604495,0.48785243670601874,0.3930657045527449,-0.6151733812408836
18338161,1911,1,211889.0,254815,-5.26,-2.06,10.74,0.11,0.23000000000000004,0.32,28.77,16.418672,-39.84291255930639,388.40263032013667,12.13502369177745,0.4091454509095757,-0.2957718872474834,0.5878508651660375
18378161,1658,1,212951.0,256321,-5.565,-1.88,10.74,0.08,0.16,0.2,28.77,16.458672,-240.51322490280648,1269.4245891235203,12.2413734931992,0.2683281572999748,-1.803830904595244,1.9455545403243448
18418161,1713,1,213364.0,257110,-5.565,-1.65,10.825,0.12,0.07,-0.14,28.77,16.498672,-257.0790713845387,1922.3743427865031,12.283010624435688,0.1972308292331602,-1.9283250256987743,2.9517863049060318
18458173,1782,1,213412.0,257520,-4.52,-1.29,9.23,0.03,-0.21,-0.17,28.77,16.538684,-142.52131230965622,2128.2710996024293,10.357963120227838,0.2718455443813637,-1.06741112387405,3.2690846203893864
18498873,1931,1,213025.0,257622,-4.19,-1.62,9.3,-0.15,-0.19,-0.25,28.27,16.579384,-46.150563241276984,1878.1492918633617,10.328141168671158,0.3479942528261063,-0.3431745617045933,2.8836330499588274
18539206,2000,1,212785.0,257293,-3.64,-0.96,8.23,-0.15,-0.25,-0.23,28.27,16.619717,43.14826442384289,1335.6834686071816,9.050088397358337,0.37134889255254283,0.32791574919524785,2.04766314645832
18579207,2063,1,212020.0,256979,-2.8,-2.07,8.09,-0.03,-0.25,-0.33,28.27,16.659718,84.17982315997921,721.4618838315496,8.80755357633435,0.4150903516103452,0.6362723338102364,1.1011136369045607
18619206,2081,1,211572.0,256520,-2.44,-1.21,7.95,0.06,-0.25,-0.27,28.27,16.699717,94.91473920968956,208.48505688961092,8.403582569356953,0.372827037646145,0.716946384496545,0.310587911352756
18659187,2133,1,211231.0,256470,-2.29,-1.44,7.8,0.03,-0.25,-0.23,28.27,16.739698,151.2852195274364,-124.06696312039223,8.255767680839861,0.3410278580995987,1.1405766174025744,-0.2018931854432234
18699189,2211,1,211049.0,256346,-2.245,-1.61,7.33,-0.18,-0.08,-0.14,28.27,16.7797,204.66614701149362,-285.0050729299287,7.833327836877505,0.24166091947189144,1.5417400386709867,-0.4499077337505291
18739206,2163,1,210805.0,256039,-2.245,-1.82,7.94,-0.21,0.05,-0.24,28.27,16.819717,175.3741424139257,-340.7911038279782,8.44961685521894,0.32280024783137945,1.3216074682191163,-0.5358770996851183
18779189,2146,1,210844.0,256096,-3.44,-1.09,8.33,0.01,0.02,0.02,28.27,16.8597,128.7852223801788,-378.742459101841,9.07802842031242,0.03,0.971486714706164,-0.5943622418744758
18819157,2143,1,210925.0,256171,-3.19,-1.94,9.02,0.07,0.18,0.14,28.27,16.899668,149.3771457460098,-468.62256945733236,9.762177011302345,0.23853720883753127,1.1262372373605498,-0.7328724741495356
18859161,2171,1,210814.0,255662,-3.34,-1.76,8.65,-0.13,0.14,0.07,28.27,16.939672,148.64823910498362,-631.526448462598,9.437992371262016,0.20346989949375807,1.12075942542132,-0.9839163817536055
18899172,2046,1,210174.0,254449,-3.44,-1.69,8.97,-0.16,0.05,-0.09,28.27,16.979683,51.0863657561713,-834.9225047307075,9.754516902440633,0.19026297590440447,0.3875714359534685,-1.2973609790744158
18939189,2066,1,210123.0,254428,-3.32,-1.53,8.38,-0.11,0.06,-0.12,28.27,17.0197,40.738178868491836,-1019.8014852384852,9.142630912379653,0.17349351572897473,0.30980369658576545,-1.5822697362135196
18979187,2107,1,210086.0,254768,-3.52,-2.2,9.2,0.08,-0.02,0.05,28.27,17.059698,116.76549523075623,-1134.3547326681362,10.093086742914677,0.09643650760992956,0.8811571701808223,-1.758802640396519
19019172,2061,1,210355.0,255203,-3.39,-1.84,8.48,-0.16,0.02,-0.01,28.27,17.099683,37.81225258828197,-1142.2840020499314,9.316013095740045,0.16155494421403513,0.2878150453526315,-1.7710220840476232
19059188,1973,1,210223.0,255024,-3.24,-2.81,9.3,-0.14,0.03,-0.15,28.27,17.139699,-14.05916294772143,-1010.4134030175398,10.241274334769088,0.20736441353327723,-0.10200423099234024,-1.5678021811126481
19099189,2032,1,210384.0,255161,-4.46,-1.9,9.62,0.21,0.12,0.04,28.27,17.1797,25.720044696407815,-712.2840852210782,10.772464898991316,0.24515301344262524,0.19694080023873914,-1.108368376540443
19139161,1957,1,210674.0,255958,-4.14,-2.54,9.61,0.11,0.23000000000000004,0.15,28.27,17.219672,-37.495599781338164,-262.00012518343067,10.767697061117572,0.29580398915498085,-0.2781315788231303,-0.41445583406727093
19177161,1919,1,211680.0,256731,-4.84,-2.38,10.33,-0.16,0.23000000000000004,0.06,28.27,17.257672,-53.641241662372394,258.57229162217914,11.653278508642964,0.2865309756378881,-0.3994678170798502,0.38777511650174923
19217173,1895,1,212080.0,257249,-5.53,-2.32,10.78,-0.07,0.16,0.09,28.27,17.297684,-110.82723815995932,723.6819529807985,12.335789395089396,0.19646882704388502,-0.8292267419405501,1.1045348865260056
19257172,1708,1,212217.0,257112,-4.72,-1.6,9.41,0.06,-0.1,-0.21,28.27,17.337683,-230.67555503292468,1029.6650622112302,10.64830972502209,0.24020824298928625,-1.7298997556190554,1.576071819047837
19297188,1843,1,212258.0,257515,-4.24,-1.69,9.61,-0.11,-0.09,-0.13,28.27,17.377699,-159.6092205089371,1145.3387549061015,10.638881520159908,0.19261360284258222,-1.1958285950315417,1.7543313914928507
19337205,1807,1,212304.0,257517,-4.3,-1.89,9.3,-0.35,-0.04,-0.11,28.27,17.417716,-113.49113831569461,1104.8956022317725,10.41883390788048,0.36905284174491865,-0.8492462386177367,1.6920062513845335
19377206,1840,1,212305.0,257854,-4.13,-2.03,8.67,-0.37,-0.11,-0.05,28.27,17.457717,-139.08437648467307,958.8955033779819,9.81563548630449,0.38923000912057126,-1.0415821808561154,1.467012006001025
19417205,1855,1,211846.0,257067,-3.01,-2.5,8.21,0.02,-0.25,-0.25,28.27,17.497716,-60.65789604673805,732.8527079587327,9.094734740496833,0.3541186241925155,-0.45219873074804773,1.1186675282985545
19457194,1945,1,211709.0,256914,-3.29,-1.73,8.23,0.25,-0.18,-0.07,28.27,17.537705,-0.733953001453875,427.3928999116741,9.03049832512027,0.3159113799786263,-0.0018638425968578764,0.6479370319078331
19497189,1945,1,211384.0,256642,-2.96,-2.81,8.92,0.1,0.05,-0.07,28.27,17.5777,30.997305312016163,53.987483366117566,9.809388360137445,0.1319090595827292,0.23659998233359444,0.07249858647282982
19537853,1953,1,211100.0,254831,-3.8,-1.8,9.08,-0.17,0.09,-0.03,28.43,17.618364,41.22369325743374,-330.64530056613563,10.006318004141184,0.19467922333931786,0.3134523895276621,-0.5202418544583749
19578188,1931,1,210456.0,255122,-3.37,-2.36,8.95,-0.09,-0.07,-0.02,28.43,17.658699,19.196339829123374,-629.7888109568853,9.850329943712545,0.11575836902790225,0.147914455301461,-0.9812385860369093
19618206,1923,1,210608.0,255087,-3.78,-1.61,8.75,0.09,-0.04,-0.09,28.43,17.698717,42.83450963876666,-757.3304424208803,9.666591953734263,0.13341664064126332,0.32555784818166755,-1.1777873099864757
19658188,1949,1,210568.0,255824,-3.3,-1.99,8.78,0.1,-0.1,0.18,28.43,17.738699,41.18752160043457,-695.9484410606648,9.588456601560024,0.22891046284519195,0.313180555628203,-1.0831942433749142
19698167,1889,1,210926.0,256192,-3.49,-2.25,8.66,-0.14,0.1,0.0,28.43,17.778678,33.76287356270751,-512.639810300251,9.604072053040836,0.17204650534085256,0.25738352569802897,-0.8007054822438278
19738172,1966,1,211144.0,256950,-3.38,-1.81,8.41,-0.11,-0.06,0.04,28.43,17.818683,68.01349251648507,-316.0085798770803,9.242759328252575,0.13152946437965904,0.5147806172746368,-0.4976858565366126
19778187,1893,1,211241.0,256758,-3.33,-2.17,8.46,0.07,0.04,-0.18,28.43,17.858698,51.10054954754868,-188.8277743511543,9.347159996490914,0.19723082923316018,0.3876780286738218,-0.30169318535884565
19818172,1926,1,211114.0,257123,-3.14,-1.88,8.38,0.15,-0.08,0.01,28.43,17.898683,44.42285837607841,-146.02536448750422,9.14430970604124,0.170293863659264,0.33749446007020484,-0.23573229914388708
19858167,1919,1,211324.0,257110,-3.58,-2.11,8.99,-0.12,0.11,-0.12,28.43,17.938678,80.7498174225278,-141.07008864663857,9.903968901405134,0.20223748416156684,0.6104954711467458,-0.22809594439320158
19897190,1952,1,211452.0,257624,-3.77,-1.96,9.15,-0.2,0.1,0.03,28.43,17.977701,87.130153880087,-105.57555894746578,10.0884587524557,0.22561028345356957,0.6584443870385214,-0.1733969066007312
19937167,1904,1,211623.0,257501,-3.85,-2.03,8.7,0.06,0.02,-0.02,28.43,18.017678,65.99214358298862,5.393299140722822,9.727969983506322,0.066332495807108,0.49958996226061747,-0.0023877450821163135
19977172,1894,1,211717.0,257642,-4.28,-1.53,9.32,0.13,0.07,-0.04,28.43,18.057683,40.54782793890954,178.38726012613532,10.369267090783225,0.15297058540778355,0.30837318884167164,0.2642055381648725
20017167,1904,1,211626.0,257792,-3.82,-2.26,9.58,-0.0,0.11,0.05,28.43,18.097678,64.35387075505186,328.3699967326625,10.558238489445102,0.12083045973594572,0.48727816545224484,0.4953372490901692
20057172,1909,1,211961.0,257892,-4.45,-1.55,9.09,-0.2,0.07,-0.06,28.43,18.137683,62.953976698844755,327.8531900373449,10.238803641051039,0.22022715545545243,0.4767578107961913,0.494540821325154
20097187,1840,1,211615.0,257746,-3.25,-2.46,8.72,-0.07,-0.13,-0.07,28.43,18.177698,-6.548653261070062,89.68004085857733,9.62561686334959,0.16340134638368192,-0.04556194151982291,0.12750279607179454
20137206,1818,1,211738.0,257049,-3.71,-1.58,8.17,0.08,-0.11,-0.13,28.43,18.217717,-22.490588412423755,-334.71818271326674,9.110949456560496,0.1881488772222678,-0.16536730175576564,-0.5265183916143354
20177188,1823,1,211006.0,253866,-3.38,-2.62,9.01,0.11,0.04,0.13,28.43,18.257699,-34.53177501662591,-728.9924099983807,9.973409647658116,0.17492855684535902,-0.25585811639580325,-1.1341168311949597
20217161,1755,1,210464.0,251671,-4.7,-1.94,9.56,0.15,0.23000000000000004,0.19,28.43,18.297672,-86.99948925871647,-819.9398690059923,10.828074621094926,0.33391615714128003,-0.6501586417618471,-1.2742719069080048
20257161,1703,1,211038.0,253591,-5.02,-2.3,10.28,0.26,0.23000000000000004,0.31,28.43,18.337672,-161.3656698374778,-470.65780095204093,11.669138785703081,0.46540305112880387,-1.2090285009742108,-0.7360088786994481
20297161,1615,1,212144.0,255259,-5.565,-1.53,10.32,0.09,0.23000000000000004,-0.06,28.43,18.377672,-242.6285652044099,191.7261186221095,11.82423464753639,0.25416530054277675,-1.8197279148671548,0.28476145850424556
20337172,1607,1,212687.0,257174,-5.36,-1.32,10.23,0.02,-0.02,0.01,28.43,18.417683,-256.71907056697006,835.4815956672203,11.624323636237937,0.030000000000000002,-1.9256195807684968,1.2768243331623923
20377172,1617,1,213072.0,257920,-4.92,-1.5,9.6,-0.2,-0.06,-0.14,28.43,18.457683,-265.8700888891871,1139.6142409220674,10.891115645332208,0.2513961017995307,-1.9943904693846026,1.7455095981232798
20417206,1664,1,212821.0,258037,-4.41,-1.44,9.0,-0.28,-0.25,-0.19,28.43,18.497717,-201.85829629337724,1000.1716916772228,10.125299995555688,0.42071367935925263,-1.5133349514390126,1.5306209001840043
20457206,1872,1,212140.0,257453,-3.7,-1.72,8.16,-0.12,-0.25,-0.355,28.43,18.537717,-30.45572795182351,574.3753880421527,9.12326695871605,0.4504719747109691,-0.2252261835532059,0.874445193622334
20497207,1917,1,211964.0,257079,-3.34,-1.23,7.68,0.23,-0.25,-0.09,28.43,18.577718,33.57351642383287,147.01861884039354,8.464685463736972,0.35142566781611156,0.2559604863981735,0.2158647231229641
20537875,1924,1,211812.0,256730,-2.99,-2.06,8.89,0.3,-0.08,0.05,28.69,18.618386,15.541089937018478,-62.61629941729746,9.602905810222238,0.31448370387032776,0.12044485854809366,-0.10719430635520705
20578167,1927,1,212003.0,256896,-3.57,-1.47,8.9,0.11,-0.02,-0.07,28.69,18.658678,13.311586531528757,-12.936736612478256,9.701329805753437,0.1319090595827292,0.1036899002506202,-0.03063534624486805
20618189,1971,1,212138.0,257569,-3.84,-1.42,9.6,0.04,0.11,-0.1,28.69,18.6987,60.60135262026915,182.27916913572406,10.43657031787742,0.15394804318340652,0.4590775873755378,0.2702031856842116
20658172,2074,1,212199.0,257895,-3.57,-0.93,8.42,-0.23,0.05,-0.23,28.69,18.738683,133.48391949453776,359.9600635257546,9.192725384781165,0.3290896534380867,1.0067979297550822,0.5440192931129212
20698189,2038,1,212318.0,258273,-4.12,-0.93,9.03,-0.19,0.02,-0.07,28.69,18.7787,115.79336423790758,408.398795921373,9.968961831605133,0.20346989949375804,0.8738515010328163,0.6186660647812056
20736187,2023,1,212254.0,258351,-3.2,-1.35,7.67,-0.3,-0.08,-0.1,28.69,18.816698,69.63160068849324,307.53518697987295,8.419703082650837,0.32619012860600183,0.5269408745211793,0.46322965234989383
20776206,2000,1,212105.0,258269,-3.63,-1.61,8.52,-0.2,0.04,-0.05,28.69,18.856717,55.321355734013004,109.35503187943182,9.399968085052203,0.21000000000000002,0.4193978419119603,0.15782304785530576
20816187,2026,1,211925.0,257614,-3.55,-1.45,7.79,-0.0,-0.09,-0.1,28.69,18.896698,68.46191942054449,-109.99336048899463,8.68268967544044,0.13453624047073712,0.5181505937718605,-0.18020498366296517
20856206,2047,1,211591.0,257378,-3.59,-2.04,8.84,0.12,0.06,-0.07,28.69,18.936717,81.32284680723421,-293.84413812446337,9.756807879629484,0.15132745950421556,0.6148018487106204,-0.46352922318069417
20897212,2018,1,211693.0,257654,-3.55,-1.49,8.23,-0.04,0.04,-0.14,28.69,18.977723,53.3680918520647,-424.5773741900177,9.086005723088666,0.15099668870541502,0.40471885339576363,-0.6649963867376849
20937189,2045,1,211465.0,257633,-3.35,-2.2,9.03,-0.05,0.1,-0.14,28.69,19.0177,69.89594918813681,-514.6845533280457,9.87944330415434,0.17916472867168917,0.5289274819767329,-0.8038565445934674
20977188,2062,1,211598.0,257614,-3.98,-1.04,8.13,-0.13,0.02,-0.11,28.69,19.057699,84.09911524648835,-580.6372190684257,9.11147079235839,0.17146428199482247,0.6356658051449355,-0.9054932583750642
21017189,2000,1,211300.0,257688,-3.8,-2.26,9.15,-0.23,-0.02,-0.11,28.69,19.0977,25.528684470832278,-620.4748321803818,10.162189724660724,0.25573423705088844,0.1955027075265152,-0.9668852284516106
21057206,1990,1,211600.0,257926,-4.01,-1.21,7.79,-0.1,0.05,-0.0,28.69,19.137717,-0.5238384505968858,-611.1269187346609,8.844676364910137,0.1118033988749895,-0.0002848091095652517,-0.9524795756599876
21097213,1975,1,211519.0,257911,-3.82,-2.37,9.32,0.01,-0.05,-0.05,28.69,19.177724,3.3944605155001195,-525.2380701338027,10.347545602702121,0.07141428428542851,0.029161629775585545,-0.8201200989916829
21137187,1984,1,211825.0,257998,-4.22,-1.69,8.87,0.13,0.07,0.08,28.69,19.217698,-10.670207952617803,-353.5958045359225,9.967015601472689,0.16792855623746666,-0.07653586908037303,-0.5556098532638041
21177161,1973,1,211931.0,258253,-4.04,-2.59,9.75,0.18,0.0,0.16,28.69,19.257672,1.04200818280449,-117.43643699744236,10.867023511523291,0.2408318915758459,0.011482697043723825,-0.1916751771456899
21217161,1999,1,212450.0,258565,-4.34,-1.96,9.4,0.05,0.08,0.15,28.69,19.297672,11.618510531563675,136.4593314495298,10.537419038834889,0.1772004514666935,0.09096625169999731,0.1995922759332251
21257161,1982,1,212581.0,258697,-4.44,-2.28,9.68,-0.0,-0.04,0.05,28.69,19.337672,6.280344473150263,352.33540499214183,10.891023826987066,0.06403124237432849,0.050849358640549916,0.5322692716639967
21297187,2025,1,212634.0,258709,-4.37,-1.92,9.31,-0.05,-0.02,-0.06,28.69,19.377698,53.30002953776892,481.13630691774193,10.462284645334403,0.0806225774829855,0.4042073577708422,0.7307586011985381
21337206,2061,1,212592.0,258701,-4.46,-2.19,9.4,-0.01,-0.11,-0.02,28.69,19.417717,83.35250317206719,489.49898861873453,10.63238919528438,0.11224972160321824,0.6300549349661708,0.7436459572583553
21377206,2001,1,212758.0,258903,-4.69,-1.9,9.53,-0.09,-0.01,0.02,28.69,19.457717,45.62373112390036,368.9175993790794,10.790134382851772,0.09273618495495703,0.34651914815132023,0.5578233523953249
21417189,2010,1,212575.0,258640,-4.29,-2.38,9.62,-0.04,-0.04,-0.06,28.69,19.4977,39.23891152250715,149.49838428099926,10.79874529748711,0.08246211251235322,0.2985365409506211,0.21968617912482558
21457206,2005,1,212227.0,257006,-4.32,-1.68,9.09,0.08,-0.0,-0.05,28.69,19.537717,60.297524249434616,-95.99529648940424,10.203572903645075,0.09433981132056604,0.4567942844344491,-0.15863319110156499
21497188,2015,1,211824.0,256738,-3.85,-2.18,9.46,-0.03,-0.05,-0.13,28.69,19.577699,61.862705532591114,-277.036458133945,10.443490795706195,0.14247806848775008,0.46855679040896353,-0.4376276566351727
21537206,1978,1,212143.0,257195,-3.86,-1.81,8.91,-0.14,-0.13,-0.09,28.69,19.617717,38.43359252292583,-332.0501755539891,9.877438939320253,0.21118712081942875,0.29248448190423254,-0.5224068446894212
21577891,1919,1,212254.0,257569,-3.8,-2.12,9.11,-0.09,-0.01,-0.11,28.79,19.658402,-10.10934237764346,-262.13181541627677,10.095865490387636,0.14247806848775008,-0.07232090385715578,-0.4146587760159148
21616206,1918,1,212243.0,257853,-3.59,-2.11,9.01,0.14,-0.08,-0.01,28.79,19.696717,-17.62384828081398,-125.50817383309052,9.925739267178036,0.16155494421403513,-0.12879322532736426,-0.20411417104041063
21656189,1907,1,212443.0,258203,-3.74,-1.97,8.91,-0.04,-0.01,-0.15,28.79,19.7367,1.6183246451374258,-0.6856424804926929,9.861876089264152,0.15556349186104046,0.015813777350109248,-0.011755731087149592
21696207,1903,1,212519.0,258739,-3.75,-2.05,9.35,-0.08,-0.08,0.06,28.79,19.776718,-24.647056931282684,54.11676255776826,10.280442597476044,0.12806248474865697,-0.18157339501147843,0.07269781287334319
21736189,1853,1,212592.0,258563,-3.51,-2.18,8.69,-0.17,0.04,-0.1,28.79,19.8167,-35.873481115275524,24.85349273701067,9.622297023060554,0.2012461179749811,-0.26594118228168034,0.027601491963527562
21776187,1874,1,212424.0,258917,-3.64,-2.01,8.98,0.08,-0.11,0.09,28.79,19.856698,-37.10313245881654,-56.98692085969403,9.895963823701056,0.16309506430300091,-0.27518214461021123,-0.09851912195129456
21816172,1840,1,212495.0,258764,-3.42,-2.12,8.81,-0.03,0.07,-0.2,28.79,19.896683,-43.77677024836479,-133.0157995829261,9.685396223180547,0.21400934559032697,-0.3253352516119755,-0.21568383848219533
21856188,1877,1,212333.0,259270,-3.98,-2.05,9.45,0.05,0.0,0.14,28.79,19.936699,-10.230380432411929,-148.73838162900188,10.456835085244483,0.14866068747318506,-0.07323051787930057,-0.23991320894638712
21896161,1838,1,212736.0,259329,-3.45,-1.91,8.29,-0.13,0.03,-0.08,28.79,19.976672,-47.32371344052467,-83.66281447039519,9.180125271476419,0.15556349186104046,-0.35199091184636405,-0.13962815269846537
21936187,1807,1,212457.0,259432,-3.28,-2.05,8.58,-0.05,-0.03,-0.05,28.79,20.016698,-59.81456515050637,33.782901011444906,9.411551413024316,0.07681145747868609,-0.4458610082029552,0.041362205087698334
21976206,1948,1,212840.0,259501,-3.99,-1.43,8.46,0.08,0.04,-0.04,28.79,20.056717,65.94422652760963,137.34823083550546,9.4623781365997,0.09797958971132713,0.4992298604268926,0.20096211916031592
22016172,1947,1,212842.0,259741,-3.45,-2.15,8.63,0.0,0.02,0.03,28.79,20.096683,86.66066768518003,160.75514165623153,9.539491600709129,0.03605551275463989,0.6549161477016643,0.23703346622250052
22056161,1862,1,212892.0,259515,-3.94,-1.88,9.06,-0.05,0.09,0.01,28.79,20.136672,-8.155303173420549,84.98316159236964,10.056918016967227,0.10344080432788601,-0.05763608871053276,0.12026464476604694
22096167,1799,1,212767.0,258998,-4.6,-1.58,9.42,0.09,0.07,0.12,28.79,20.176678,-66.35950462744253,-38.413546673365204,10.601547056915797,0.16552945357246848,-0.4950469335195688,-0.06989652277440304
22136161,1792,1,212432.0,258350,-4.12,-2.05,9.12,0.04,0.12,-0.08,28.79,20.216672,-65.97523895824467,-114.05322180639041,10.215248406181809,0.14966629547095767,-0.49215913561501856,-0.1864614549985354
22176172,1818,1,212713.0,259045,-4.74,-1.64,9.73,0.08,0.1,0.09,28.79,20.256683,-54.33862146592969,-67.90611591234051,10.94669356472538,0.15652475842498528,-0.4047087014388208,-0.11534620679817408
22216161,1687,1,212914.0,259425,-3.92,-1.75,8.33,-0.27,-0.02,-0.17,28.79,20.296672,-165.7179040294169,97.90570905935839,9.371115195108851,0.31968734726291564,-1.2417360098334582,0.14017900673287936
22256207,1597,1,213149.0,259588,-4.5,-1.78,9.26,-0.04,0.09,-0.08,28.79,20.336718,-281.8796022870859,305.41414572690184,10.448253442561585,0.1268857754044952,-2.1147036874241674,0.45996101020590846
22296188,1595,1,213311.0,259847,-4.09,-1.54,8.64,0.26,-0.11,0.1,28.79,20.376699,-256.8471495456502,455.4075599440289,9.682422217606502,0.29949958263743875,-1.9265821080924224,0.6911091759210188
22336167,1685,1,213351.0,259723,-3.57,-1.8,8.53,-0.16,0.01,-0.24,28.79,20.416678,-204.19566607319578,492.1921609495138,9.420498925216222,0.28861739379323625,-1.530900537161019,0.7477962851075044
22376189,1663,1,213183.0,260005,-4.81,-1.54,9.6,-0.16,-0.0,-0.01,28.79,20.4567,-188.82855070218503,431.60089222322,10.847474360421415,0.16031219541881397,-1.4154150095050553,0.6544217813165579
22416206,1717,1,213270.0,259969,-3.9,-1.93,8.34,-0.05,-0.04,-0.06,28.79,20.496717,-184.8980045418725,339.15293874736545,9.406938928259288,0.08774964387392122,-1.38587653163587,0.5119543604528252
22456205,1767,1,213180.0,259906,-4.21,-1.81,9.37,0.21,-0.06,0.02,28.79,20.536716,-90.89233491646365,281.6944144423346,10.430584834993672,0.21931712199461306,-0.6794137962924265,0.42340758946874
22496167,1965,1,213200.0,260103,-3.53,-1.91,8.64,0.05,-0.15,-0.03,28.79,20.576678,57.524873669013836,287.33482519594793,9.526730813873142,0.1609347693943108,0.43595751659905235,0.4320997750982383
22536198,2009,1,213222.0,260213,-3.66,-2.03,8.79,-0.14,-0.03,-0.01,28.79,20.616709,130.97807630339273,334.81953269668696,9.735532856500459,0.14352700094407325,0.987966248195744,0.5052763415201864
22576206,2063,1,213401.0,260284,-3.55,-1.94,8.21,-0.13,-0.16,-0.05,28.79,20.656717,162.06020504062636,372.0047691806854,9.15260618621822,0.21213203435596428,1.2215517944239895,0.5625808521870113
22616892,2064,1,213293.0,260147,-3.48,-1.98,8.5,0.07,-0.08,-0.09,29.15,20.697403,155.38189148133344,347.8398081156253,9.395786289608763,0.1392838827718412,1.1713635485088298,0.5253413076782105
22655187,2054,1,213207.0,260154,-3.31,-1.59,8.09,-0.11,-0.09,-0.26,29.15,20.735698,161.7016284368867,238.30317575167064,8.884385178502788,0.2963106478005811,1.2188570526140805,0.3565392853915051
22695205,2113,1,213028.0,260073,-3.47,-1.92,8.75,-0.18,-0.02,-0.1,29.15,20.775716,180.13255605701002,54.34151958451976,9.606758037964733,0.20688160865577201,1.357367459415225,0.07304417591025618
22735247,2066,1,212919.0,259747,-3.68,-1.59,8.21,-0.21,-0.07,-0.08,29.15,20.815758,168.2178927755557,-167.32169800568929,9.136443509374969,0.2353720459187964,1.2678274811771761,-0.2685511295897348
22775206,2128,1,212696.0,259569,-3.14,-2.19,8.48,-0.0,-0.07,-0.07,29.15,20.855717,190.03488282840627,-382.206779382089,9.304090498270103,0.09899494936611666,1.4317845119723864,-0.5997009514598833
22815206,2096,1,212522.0,259327,-3.25,-1.76,8.24,-0.01,-0.09,-0.18,29.15,20.895717,175.983907444749,-557.083928694432,9.030930184648755,0.20149441679609884,1.3261899181214334,-0.8691963323072106
22855205,2097,1,212298.0,259475,-3.39,-2.22,8.9,-0.09,-0.05,-0.04,29.15,20.935716,166.45562367107738,-682.9356327561675,9.779084824256307,0.11045361017187261,1.254583838991317,-1.0631407844541594
22895206,2112,1,212481.0,259459,-3.23,-2.31,8.46,-0.21,-0.01,-0.1,29.15,20.975717,168.7536366014754,-773.593012115849,9.345619294621413,0.23280893453645632,1.271853653749647,-1.2028488313501045
22935205,1999,1,212288.0,259437,-3.18,-2.45,8.33,-0.1,-0.05,-0.09,29.15,21.015716,70.41381124742885,-846.9820158697572,9.246826482637166,0.14352700094407325,0.5328192711464274,-1.315945354220228
22975206,1988,1,212306.0,259377,-3.14,-2.35,7.97,-0.17,-0.03,-0.23,29.15,21.055717,36.314561520962634,-900.3850056293765,8.882736064974575,0.28757607689096815,0.27655973562148445,-1.3982423216642113
23015206,2023,1,212339.0,259596,-3.3,-2.64,8.61,-0.14,-0.01,-0.06,29.15,21.095717,83.09970068652869,-900.9586253981755,9.5912303694573,0.15264337522473748,0.6281550970505769,-1.399126301524713
23055206,2000,1,212506.0,259773,-3.46,-2.67,8.69,-0.15,0.05,-0.04,29.15,21.135717,53.89293225998911,-803.9971980631258,9.727106455673239,0.16309506430300091,0.408663085607273,-1.2497033672539326
23095189,1975,1,212572.0,259791,-3.07,-2.77,8.24,-0.05,-0.02,-0.08,29.15,21.1757,19.08142956313591,-588.7938927142707,9.219294983891121,0.09643650760992956,0.14705089227220935,-0.9180631446024995
23135206,1953,1,213029.0,260231,-3.8,-2.82,9.43,0.16,0.07,-0.12,29.15,21.215717,13.733706488084335,-284.144011264404,10.550701398485316,0.21189620100417092,0.10686217720305952,-0.4485807899937485
23175172,1901,1,213529.0,260525,-3.69,-2.97,9.17,0.22,-0.08,0.04,29.15,21.255683,-62.220146375723466,40.24526195476841,10.321138503091603,0.23748684174075835,-0.4639392102861874,0.05132106152172723
23215167,1822,1,213782.0,260888,-3.81,-3.335,9.91,-0.02,0.17,-0.03,29.15,21.295678,-120.2519093584749,312.36994835726114,11.128630868170623,0.17378147196982768,-0.9000541614052188,0.47068028763202563
23255189,1878,1,213937.0,260915,-4.09,-2.94,9.53,0.01,0.01,0.05,29.15,21.3357,-77.99254118318036,494.34373862251704,10.779267136498659,0.051961524227066326,-0.5824704565715815,0.7511119855674484
23295158,1847,1,213919.0,260790,-3.84,-3.335,9.84,0.07,0.01,-0.02,29.15,21.375669,-107.46064935141428,587.2348510380261,11.07670641481483,0.07348469228349536,-0.8039264643302887,0.8942623389222912
23335172,1773,1,214151.0,260855,-4.71,-2.81,10.21,0.09,0.12,0.18,29.15,21.415683,-169.34723332343495,608.9291480739811,11.589836064414373,0.23430749027719963,-1.269010810499535,0.9276944532088607
23375161,1825,1,214250.0,260484,-4.47,-3.335,10.42,-0.06,0.14,0.15,29.15,21.455672,-137.8977460994636,575.8020128768628,11.818609266745389,0.2137755832643195,-1.0326645256644955,0.8766437015730197
23415172,1839,1,214191.0,260150,-4.08,-2.97,9.57,-0.04,-0.05,-0.03,29.15,21.495683,-98.49517382700107,506.3967482052514,10.819066503169301,0.07071067811865475,-0.7365499498299368,0.7696863414545856
23455206,1888,1,214017.0,260447,-4.35,-2.84,9.65,0.19,-0.11,-0.03,29.15,21.535717,-67.64789550879586,432.16919244186204,10.959498163693446,0.22158519806160337,-0.5047293298033181,0.6552975634553954
23495189,1904,1,214149.0,260611,-3.22,-2.72,8.65,0.04,-0.05,-0.17,29.15,21.5757,-43.56156696704564,389.9039995144427,9.622333396842993,0.1816590212458495,-0.32371797576700334,0.5901645583180758
23535187,1904,1,213994.0,261034,-3.54,-2.68,9.1,-0.1,-0.02,-0.12,29.15,21.615698,-30.995978273412316,394.6731448280806,10.125413571800413,0.15748015748023622,-0.2292862229261571,0.5975140756087511
23575205,1963,1,214302.0,261059,-3.35,-2.15,8.27,-0.09,-0.02,-0.09,29.15,21.655716,-0.6697884738716757,420.12883237918135,9.178120722675203,0.12884098726725124,-0.0013816392590340044,0.6367427011798467
23615206,1937,1,214216.0,261248,-3.29,-2.49,8.76,0.1,-0.09,-0.03,29.15,21.695717,22.02421067609968,411.3286340853962,9.683067695725358,0.13784048752090222,0.1691662093894174,0.6231811077981994
23655875,1974,1,214328.0,261182,-3.41,-2.16,8.5,0.09,0.07,-0.11,29.03,21.736386,3.185939324677823,325.22515073419675,9.40976620325925,0.1584297951775486,0.02759457056062119,0.4904908670820259
23696167,1890,1,213946.0,261213,-3.17,-2.17,8.75,-0.0,-0.02,0.05,29.03,21.776678,-19.068867080079652,166.16630531361452,9.556165549005522,0.05385164807134505,-0.1396526972892128,0.2453723693691263
23736188,1936,1,213972.0,261151,-3.98,-1.93,8.98,-0.22,0.13,-0.11,29.03,21.816699,-24.71512233187592,-13.85828486416534,10.010279716371567,0.2782085548648711,-0.18208491383025774,-0.03205550318380593
23776187,1887,1,213783.0,261170,-3.18,-2.2,8.44,0.08,-0.11,0.03,29.03,21.856698,-31.792191076186107,-150.7049485814439,9.28364152690096,0.1392838827718412,-0.23526984792244143,-0.24294379763046697
23816172,1925,1,213859.0,260956,-3.18,-2.33,8.5,0.09,0.02,-0.1,29.03,21.896683,-15.040082559056863,-211.48452491402952,9.369701169194245,0.13601470508735444,-0.10937594755515435,-0.3366084938809408
23856167,1888,1,213767.0,261230,-3.17,-2.07,8.27,0.0,-0.12,0.08,29.03,21.936678,-42.559417504897745,-214.7101322254191,9.09542192534244,0.14422205101855956,-0.3161867145880435,-0.34157933354904546
23896172,1875,1,213909.0,261231,-3.32,-2.2,8.13,-0.23,0.07,-0.1,29.03,21.976683,-51.49083361335906,-215.20200306228955,9.053137577657814,0.2603843313258307,-0.38330726890797806,-0.34233733377395387
23936187,1947,1,213835.0,261341,-3.3,-1.95,8.12,-0.0,0.05,0.01,29.03,22.016698,19.413146700437217,-265.58374698389895,8.979248298159483,0.050990195135927854,0.14954378229801304,-0.4199783939084372
23975172,1945,1,213721.0,261044,-2.65,-2.15,7.4,0.06,-0.1,-0.14,29.03,22.055683,14.457359988895726,-379.627242287947,8.148926309643498,0.182208671582886,0.11230051122760534,-0.5957257418093991
24015187,1940,1,213655.0,260966,-3.66,-1.8,8.59,-0.12,0.11,-0.07,29.03,22.095698,30.405939426722764,-520.0024072875996,9.50913771064443,0.1772004514666935,0.2321558039922463,-0.812051652323413
24055189,2013,1,213493.0,260555,-3.08,-2.57,8.37,-0.1,0.04,0.01,29.03,22.1357,71.43914937063639,-617.2329849649832,9.281605464573463,0.10816653826391968,0.5405247976115812,-0.9618893621912207
24095167,1919,1,213654.0,260762,-4.09,-1.76,8.7,-0.01,-0.02,-0.1,29.03,22.175678,24.45040272335416,-607.9406280155902,9.773213391715132,0.10246950765959599,0.1873993040208568,-0.9475693250400363
24135205,1968,1,213567.0,261000,-3.1,-2.48,8.37,0.11,-0.04,-0.01,29.03,22.215716,27.824765635169825,-469.6981000419169,9.26376273444004,0.1174734012447073,0.2127580048547736,-0.7345299263989881
24175206,1953,1,214096.0,261081,-3.96,-1.99,8.91,-0.02,0.04,-0.08,29.03,22.255717,56.50608492446512,-232.37157538413683,9.95137176473676,0.09165151389911681,0.42830120942014516,-0.3687965964624003
24215189,1955,1,214165.0,261595,-3.64,-2.49,8.87,0.02,-0.03,0.2,29.03,22.2957,33.33831353188916,39.5533170886683,9.905887138464681,0.20322401432901577,0.25419291132461297,0.050254736127310254
24255167,1915,1,214642.0,261330,-4.0,-2.52,9.05,0.05,0.05,-0.05,29.03,22.335678,5.213219878206746,280.3966143890971,10.210430940954451,0.08660254037844388,0.04282980233825329,0.4214076076472944
24295172,1882,1,214498.0,261655,-4.15,-2.3,9.44,0.15,-0.09,0.1,29.03,22.375683,-17.376568651178292,449.8446295201598,10.565325361767142,0.20149441679609884,-0.12693489226890878,0.6825363917745314
24335167,1860,1,214755.0,261379,-4.08,-2.48,9.54,-0.04,0.13,-0.16,29.03,22.415678,-57.50159386825002,539.0026575929315,10.668101986764093,0.21,-0.42847877981880683,0.8199338552255919
24375218,1818,1,214801.0,261757,-4.87,-2.27,10.12,-0.04,0.06,0.18,29.03,22.455729,-70.85216809059213,560.85281469995,11.457931750538576,0.19390719429665315,-0.5288097834817198,0.8536061585212763
24415167,1888,1,214726.0,261164,-4.32,-2.75,10.02,-0.04,-0.06,-0.18,29.03,22.495678,-21.65088895492165,538.5311798677127,11.252790764961375,0.19390719429665315,-0.15905686986397471,0.8192072819161658
24455205,1887,1,214697.0,261455,-4.29,-2.09,9.57,0.13,-0.11,0.09,29.03,22.535716,-4.903045471975077,496.96086928124447,10.693787916355925,0.19261360284258222,-0.033195021688082346,0.7551451289848381
24495167,1921,1,214611.0,261279,-3.6,-2.75,9.02,-0.05,-0.07,-0.2,29.03,22.575678,27.898874507533765,453.49359936007335,10.093705959656246,0.21771541057077243,0.2133149410150294,0.688159656566843
24535205,1959,1,214578.0,261439,-3.96,-2.06,9.43,-0.09,-0.05,-0.02,29.03,22.615716,63.40272261984833,405.3511461304501,10.433125131042951,0.10488088481701516,0.4801301847401211,0.6139694675166476
24575231,1923,1,214418.0,261399,-3.5,-2.36,8.49,-0.24,-0.08,-0.25,29.03,22.655742,40.48405814033081,322.38243693899625,9.481545232713916,0.3556683848755748,0.30789395193483665,0.4861100875468495
24615205,1966,1,214131.0,261225,-3.33,-2.16,8.61,0.09,-0.02,-0.1,29.03,22.695716,76.41673685895434,159.09456885430038,9.480854391878403,0.13601470508735444,0.5779319038682653,0.23447443148616767
24655187,1962,1,214160.0,260901,-3.3,-1.81,8.18,-0.06,-0.1,-0.19,29.03,22.735698,81.63274300261732,-110.19114754437747,9.00436005499558,0.22293496809607954,0.617130752006935,-0.1805097844790047
24695891,1951,1,213679.0,259761,-3.39,-2.42,9.17,0.03,0.01,0.07,28.89,22.776402,70.2180683650423,-452.57613561438535,10.071613574795252,0.07681145747868609,0.531348242296084,-0.7081440301146739
24734161,1949,1,213236.0,258648,-3.19,-1.97,7.84,-0.17,-0.08,-0.1,28.89,22.814672,74.53159731002846,-769.9281911349466,8.690373985048055,0.21283796653792764,0.5637648770544026,-1.1972011390708714
24774206,1872,1,212825.0,259058,-3.33,-2.76,9.14,0.11,-0.04,-0.03,28.89,22.854717,-9.442580430893733,-943.6184443530049,10.111681363650657,0.12083045973594572,-0.06731011599084168,-1.4648674472451066
24814187,1885,1,213340.0,259273,-3.23,-1.78,7.9,0.06,-0.03,0.01,28.89,22.894698,25.23759359855317,-905.8964421143327,8.718445962440784,0.06782329983125268,0.19331512825940017,-1.4067357507964318
24854172,2002,1,213052.0,259524,-2.98,-2.92,8.98,-0.18,-0.01,-0.04,28.89,22.934683,114.70943106846934,-684.5989346214168,9.901878609637668,0.18466185312619388,0.8657056264822471,-1.0657040248283425
24894206,1938,1,213723.0,260036,-4.26,-1.85,8.88,-0.06,0.08,0.16,28.89,22.974717,88.4934628606073,-386.7848319022779,10.021202522651661,0.18867962264113208,0.6686898009091369,-0.6067559841632344
24934172,1955,1,213680.0,260137,-3.71,-2.78,9.37,0.1,0.02,0.07,28.89,23.014683,72.00264436118918,-134.11255962193755,10.454157067884525,0.12369316876852982,0.544759523176162,-0.21737400649770666
24974161,1904,1,213900.0,259935,-3.93,-1.93,9.0,0.07,0.14,-0.09,28.89,23.054672,48.958827824727535,5.072832451568195,10.008486399051558,0.18055470085267789,0.37158275917914296,-0.002881602014152387
25014172,1901,1,213759.0,260015,-4.16,-2.3,9.69,-0.11,0.11,-0.02,28.89,23.094683,33.188908193229395,45.809010293927464,10.793132075537665,0.15684387141358122,0.2530701141077527,0.05989510612101511
25054187,1824,1,213974.0,259978,-4.28,-2.06,9.02,-0.16,0.05,-0.06,28.89,23.134698,-42.63768733614274,66.19195762046937,10.194233664184866,0.17804493814764855,-0.31677492080258934,0.09130635781489042
25094189,1713,1,213894.0,260226,-4.18,-2.28,9.5,0.15,-0.03,0.06,28.89,23.1747,-146.1832025357519,153.1505483359833,10.626419905123267,0.16431676725154984,-1.0949306234527831,0.2253143663796219
25134167,1723,1,214052.0,260291,-3.79,-1.97,8.53,0.11,-0.02,-0.01,28.89,23.214678,-144.31703122314113,344.84268680087604,9.53970125318398,0.11224972160321824,-1.0809061449784538,0.520722577596321
25174189,1648,1,214253.0,260839,-4.35,-2.55,9.84,-0.08,0.21,-0.01,28.89,23.2547,-218.93296786308787,599.7153817623877,11.056699326652597,0.22494443758403984,-1.6416529478991781,0.9134955285869467
25214187,1613,1,214510.0,261294,-4.62,-1.93,9.55,0.04,-0.02,0.09,28.89,23.294698,-246.80738727220032,811.3142189399446,10.782940229826002,0.1004987562112089,-1.8511322129301178,1.2395810659842128
25254172,1766,1,214486.0,261207,-4.4,-2.04,9.12,-0.08,0.05,-0.23,28.89,23.334683,-110.83051986453815,865.7508565768969,10.329375586162021,0.2485960578931211,-0.8292514043040287,1.3234709421041397
25294186,1858,1,214400.0,261344,-4.29,-1.42,9.14,0.17,-0.04,0.02,28.89,23.374697,-6.640685226392373,711.0590263757113,10.196082581070046,0.17578395831246948,-0.046253571654682975,1.0850822569158902
25334172,1904,1,214073.0,260220,-4.13,-2.06,9.31,-0.12,0.02,-0.09,28.89,23.414683,33.37254854159423,393.711634361235,10.391178951399114,0.15132745950421556,0.25445019111100375,0.5960323346810761
25374187,1885,1,213402.0,259640,-4.04,-1.59,8.63,-0.07,-0.22,0.04,28.89,23.454698,-5.140623757142336,34.773235283928514,9.660569341400123,0.23430749027719963,-0.03498044809764116,0.04288836509761733
25414189,1883,1,213296.0,259658,-3.61,-1.7,7.96,-0.3,-0.08,-0.3,28.89,23.4947,29.57546223351367,-239.39243368718854,8.904139486778046,0.4317406628984581,0.22591467841021798,-0.3796161282862902
25454206,2026,1,213213.0,260225,-3.42,-1.59,7.81,0.01,-0.12,-0.16,28.89,23.534717,107.118347114289,-362.29723903926066,8.672981033070462,0.20024984394500786,0.8086578127082313,-0.5690192461697169
25494189,1852,1,213242.0,260296,-3.11,-1.48,7.5,-0.13,-0.13,-0.28,28.89,23.5747,3.765937841865351,-345.3278636707577,8.253029746705145,0.33496268448888455,0.031953321905941016,-0.5428684980836537
25534206,1836,1,213243.0,260698,-3.17,-1.76,8.05,-0.14,-0.03,-0.06,28.89,23.614717,-93.44499974738997,-248.06989283016637,8.828873087772868,0.15524174696260024,-0.6985973475192536,-0.39298857383289015
25574205,1814,1,213364.0,260596,-2.72,-1.66,7.12,-0.16,-0.16,-0.17,28.89,23.654716,-52.819889486107,-135.81801204235447,7.800538442953794,0.2830194339616981,-0.3932952669832771,-0.22000220321388456
25614206,1936,1,213280.0,260662,-3.3,-1.81,8.15,0.05,-0.0,0.01,28.89,23.694717,14.105443560548915,-54.95045871520925,8.977115349598668,0.050990195135927854,0.10965582135333647,-0.09538082090185977
25654172,1930,1,213437.0,260518,-3.4,-1.91,8.4,0.08,0.05,-0.01,28.89,23.734683,33.39268739001684,-27.03207017610643,9.261106845296625,0.09486832980505139,0.25460153672664587,-0.05235703659627852
25694167,1981,1,213534.0,260765,-3.37,-1.79,8.59,-0.12,-0.07,0.05,28.89,23.774678,65.57886891853097,-45.78545200854734,9.399420194884364,0.147648230602334,0.49648415863128004,-0.08125703753397849
25734874,2018,1,213457.0,260532,-3.46,-2.26,8.99,-0.25,0.05,-0.13,29.15,23.815385,101.83991968629897,-74.28853346078789,9.894407511316684,0.2861817604250837,0.7689898618926162,-0.12518186602929177
25773187,1975,1,213407.0,260486,-3.93,-1.57,8.42,0.01,0.0,0.02,29.15,23.853698,49.4787174576365,-59.31446184836203,9.423704154948839,0.022360679774997897,0.37548978578301806,-0.10210599163464303
25813166,1929,1,213358.0,260528,-3.99,-2.4,9.31,0.06,0.03,0.09,29.15,23.893677,10.273308308271286,28.647476188150335,10.409428418505984,0.11224972160321824,0.08085691206075966,0.03344823076910561
25853157,1901,1,213600.0,260715,-4.57,-1.99,9.27,-0.08,0.01,0.17,29.15,23.933668,-45.37747350517158,155.57961267568868,10.525108075454616,0.1881488772222678,-0.33736470904558574,0.22905768917454214
25893172,1823,1,213771.0,260791,-4.36,-2.67,9.7,-0.05,0.11,0.14,29.15,23.973683,-95.57980518786783,228.12108221133468,10.964875740289992,0.1849324200890693,-0.714640640406967,0.3408481148339675
25933167,1917,1,213794.0,260699,-4.33,-2.64,9.59,0.13,-0.03,-0.02,29.15,24.013678,-41.59940344717807,154.67168090160536,10.848345495973106,0.13490737563232044,-0.3089721055130023,0.22765851598237766
25973189,1894,1,213568.0,260037,-4.02,-2.32,9.25,-0.04,-0.05,-0.19,29.15,24.0537,-37.28725587099795,-79.5951613192814,10.349169048769085,0.20049937655763422,-0.27656585189008887,-0.13335967371522026
26013230,1926,1,212863.0,259019,-3.9,-2.29,9.1,-0.26,-0.03,-0.19,29.15,24.093741,-28.114030085468112,-388.1099528191569,10.161894508407375,0.3234192325759246,-0.2076280717945701,-0.6087980689499964
26053205,2001,1,212952.0,259071,-4.05,-1.96,8.66,-0.32,-0.07,-0.16,29.15,24.133716,47.73733552373853,-631.7391358411572,9.759082948720131,0.3645545226711637,0.3624031129344402,-0.9842441447936118
26093206,2005,1,212964.0,259365,-3.79,-2.57,9.32,0.16,-0.01,0.04,29.15,24.173717,60.49574682119363,-701.1592616914214,10.38418990581355,0.16522711641858306,0.45828394841758646,-1.091224406812132
26133172,1970,1,213222.0,259348,-3.55,-1.81,8.41,0.04,-0.06,-0.1,29.15,24.213683,1.8892133517485483,-572.2979897247452,9.306272078550036,0.12328828005937953,0.01784953516566142,-0.8926420436978717
26173186,1909,1,213055.0,259850,-3.78,-2.65,9.77,-0.11,0.02,-0.01,29.15,24.253697,-34.71679987256176,-307.3665282475604,10.805729961460262,0.11224972160321824,-0.25724859812261647,-0.4843679759309539
