timestamp_us,ecg,leads,ir,red,accX,accY,accZ,gyroX,gyroY,gyroZ,temp,time_sec,ecg_filtered,ppg_filtered,accel_magnitude,gyro_magnitude,ecg_norm,ppg_norm
1949986,1831.5,1,189404,232114,-1.36,-0.96,8.56,-0.0,-0.03,-0.05,28.33,0.030493,3.4112313570065442,-21.799242313724843,8.720366964755556,0.05830951894845301,0.10369674648208253,-0.06252982547062902
1990221,1831.5,1,189617,232589,-1.65,-0.97,9.77,-0.08,0.06,-0.05,28.33,0.070728,-1.2111967703278017,55.90305401934511,9.955716950576688,0.11180339887498948,-0.03098405272679239,0.1604339284057145
2030192,1831.5,1,189853,232891,-1.78,-1.15,10.6,-0.02,0.1,-0.0,28.33,0.110699,-7.069884590144113,139.61875194279446,10.809759479285374,0.10198039027185571,-0.20168497790119666,0.40065290710076557
2070194,1831.5,1,189968,233245,-1.51,-1.35,10.16,0.03,-0.05,0.01,28.33,0.150701,-11.10068129991358,224.7319381851874,10.359932432212094,0.05916079783099616,-0.31912778228143857,0.644881924833201
2110176,1831.5,1,190205,233888,-1.55,-1.15,9.25,0.0,0.0,-0.02,28.33,0.190683,-16.931227418963914,292.4628032915611,9.449206315876483,0.02,-0.4890087603099162,0.8392330399235043
2150176,1831.5,1,190445,234160,-1.57,-0.96,8.95,-0.04,0.05,-0.05,28.33,0.230683,-22.253882677752465,317.29863116857376,9.137231528203715,0.08124038404635961,-0.6440916397878845,0.9104984937827969
2190192,1831.5,1,190408,234078,-1.63,-0.8,9.84,-0.08,0.01,-0.04,28.33,0.270699,-26.271913788432432,283.5410563950007,10.006123125366786,0.09000000000000001,-0.7611625008862856,0.8136324299921718
2230194,1831.5,1,190424,233895,-1.73,-1.11,10.45,-0.01,0.08,-0.02,28.33,0.310701,-33.92326994296013,201.13378846388005,10.650234739197066,0.08306623862918075,-0.9840952828650497,0.5771679408880523
2270194,1831.5,1,190540,234020,-1.57,-1.36,10.13,0.03,-0.01,0.02,28.33,0.350701,-36.73631232079061,109.60042994275449,10.340763994986057,0.03741657386773942,-1.0660571404035735,0.3145164854754859
2310177,1831.5,1,190621,234336,-1.71,-1.17,9.31,-0.01,0.02,-0.02,28.33,0.390684,-43.9443407965107,64.36942585524879,9.537772276585345,0.03,-1.2760729608961983,0.18472785709675932
2350194,1831.5,1,190729,234551,-1.86,-0.96,9.17,-0.04,0.03,-0.04,28.33,0.430701,-50.51378924557903,107.09954070014201,9.405854559794129,0.06403124237432849,-1.467482874281322,0.3073402798821317
2390195,1831.5,1,190838,234867,-1.91,-1.07,10.02,-0.07,0.05,-0.04,28.33,0.470702,-50.929528917047314,231.60363427561379,10.25638337816991,0.09486832980505139,-1.4795960212408341,0.6645999927426918
2430192,1831.5,1,191074,235284,-1.98,-1.31,10.56,-0.03,0.06,0.02,28.33,0.510699,-67.28028748289053,369.3205573585344,10.823589977452029,0.06999999999999999,-1.9559978539263416,1.0597734122160014
2470178,1831.5,1,191306,235597,-1.65,-1.27,9.79,-0.02,0.01,0.03,28.33,0.550685,-57.180542306766654,417.90982713380464,10.008970976079409,0.03741657386773942,-1.6617278913318636,1.1991984549556176
2510176,1891.0,1,191513,235478,-1.83,-1.01,9.2,-0.07,0.04,-0.02,28.33,0.590683,-23.23438650243185,307.76782339654636,9.434458119044251,0.08306623862918075,-0.6726599668872896,0.8831502070704433
2550194,1872.0,1,191105,234043,-1.77,-0.88,9.25,-0.1,-0.05,-0.03,28.33,0.630701,-27.173619034367974,60.32315544616041,9.458847709948607,0.11575836902790226,-0.7874349230479833,0.173117239622316
2590211,1910.0,1,190662,233741,-1.88,-1.15,10.18,-0.13,0.04,-0.03,28.33,0.670718,-13.601449412523015,-215.21942774872974,10.415819698900322,0.1392838827718412,-0.3919910997337181,-0.6175416160513012
2630199,1952.0,1,190770,234038,-1.98,-1.27,10.52,-0.03,0.03,0.03,28.33,0.710706,35.23487022352159,-391.78153231369936,10.779782001506337,0.05196152422706632,1.0309222215374456,-1.1241797912908997
2670176,1946.0,1,190907,234279,-1.62,-1.19,9.26,-0.05,-0.09,0.02,28.33,0.750683,20.004904410635806,-405.51840524176976,9.475658288477904,0.10488088481701516,0.5871762267703677,-1.163597220364503
2710195,1934.0,1,191066,234522,-1.84,-0.78,9.01,-0.06,-0.06,0.13,28.33,0.790702,-5.455451335415765,-284.79615848306815,9.228981525607255,0.15524174696260024,-0.15464624522076276,-0.8171893716398231
2750193,1968.0,1,191210,234760,-1.74,-1.04,9.39,-0.05,-0.07,0.09,28.33,0.8307,42.46890997493098,-114.57640417366879,9.606315630875347,0.12449899597988733,1.2416959163121088,-0.3287503267749428
2790195,1999.0,1,191367,235049,-1.86,-1.42,10.32,-0.05,-0.03,0.06,28.33,0.870702,38.54054676000163,24.140150210631784,10.581984690973618,0.08366600265340755,1.127237652647437,0.06929149631017993
2830194,1940.0,1,191510,235109,-1.83,-1.34,10.15,-0.01,-0.02,0.06,28.33,0.910701,10.09046480616036,93.75086094388602,10.400336533016612,0.06403124237432849,0.29830539679622936,0.26903675620002276
2870198,2027.5,1,191543,235130,-1.55,-1.2,8.97,-0.1,-0.05,-0.01,28.33,0.950705,55.33169947322399,102.49609376584299,9.18168829791123,0.11224972160321825,1.616470974347386,0.2941308657762448
2910211,2007.0,1,191489,235200,-1.86,-0.94,9.03,-0.16,0.02,-0.06,28.33,0.990718,63.77248726893657,84.00645589003133,9.267367479494919,0.17204650534085253,1.8624049326401377,0.24107556029422844
2950195,2022.0,1,191589,235273,-1.86,-1.02,9.88,-0.12,0.04,-0.04,28.33,1.030702,46.852577793091505,75.9999835306598,10.10516699515649,0.132664991614216,1.3694201056239614,0.2181012954809902
2988880,1986.0,1,191703,235312,-1.75,-1.37,10.43,-0.09,0.03,-0.02,28.39,1.069387,26.9026504332297,108.39083819460292,10.664159601206276,0.09695359714832658,0.7881515413608219,0.31104560842869083
3029196,1954.0,1,191697,235441,-1.88,-1.6,10.2,0.0,-0.03,0.01,28.39,1.109703,-24.755300887635634,195.0860344527368,10.494493794366644,0.03162277660168379,-0.7169738987181012,0.55981414311784
3069176,1927.0,1,191776,235587,-1.6,-1.38,9.13,-0.03,-0.06,0.01,28.39,1.149683,-40.991578833541006,321.2054956982055,9.371301937297721,0.06782329983125268,-1.1900401811338317,0.9217090914423449
3109195,1964.0,1,191877,235752,-1.96,-1.0,9.35,-0.1,0.03,-0.03,28.39,1.189702,-24.19124631339344,432.8383159308566,9.6054203447845,0.10862780491200216,-0.70053939313712,1.242035179981401
3149193,1978.0,1,191946,235816,-1.9,-1.22,10.21,-0.09,0.01,-0.0,28.39,1.2297,7.374592881482861,450.46807075503204,10.456696419041725,0.09055385138137416,0.21917473401717477,1.2926230840848836
3189195,1991.0,1,191917,235705,-1.9,-1.24,10.54,0.02,-0.09,0.1,28.39,1.269702,-5.293920770483938,314.65320791456327,10.781428476783583,0.13601470508735444,-0.1499398301111296,0.902907553396973
3229176,1957.0,1,191721,234502,-1.73,-1.34,9.68,0.04,-0.16999999999999998,0.135,28.39,1.309683,-20.500738651885786,37.07100431038042,9.924258158673624,0.22073740054644114,-0.5930113780666165,0.10639608532449732
3269178,2027.5,1,190982,233288,-1.54,-1.22,9.01,-0.01,-0.16999999999999998,0.135,28.39,1.349685,34.589847405961294,-290.0162215350547,9.221718928703043,0.2173131381210073,1.0121285948581535,-0.8321681420039979
3309194,2015.0,1,190832,233201,-1.72,-1.21,9.16,0.05,-0.09,0.135,28.39,1.389701,21.246461900160238,-545.2020126086843,9.39830303831495,0.16977926846349645,0.6233507113370631,-1.5644139648274533
3349176,1968.0,1,190844,233135,-1.41,-1.42,9.86,0.02,-0.03,0.07,28.39,1.429683,-12.326453809788415,-653.8191850808882,10.061018835088223,0.07874007874011811,-0.3548423497621046,-1.8760867679841062
3389177,2027.5,1,190864,233193,-1.57,-1.44,10.35,0.06,0.03,-0.02,28.39,1.469684,17.908956837087555,-626.5812372428813,10.566976861903314,0.06999999999999999,0.5261079123413952,-1.797928523190183
3429178,1999.0,1,190919,233200,-1.61,-1.21,9.9,0.09,-0.01,-0.01,28.39,1.509685,26.25354653623725,-533.8059888474108,10.102781795129498,0.09110433579144298,0.7692390068208954,-1.5317135124986572
3469193,2027.5,1,190885,233446,-1.65,-1.11,9.22,-0.03,-0.08,-0.03,28.39,1.5497,16.402864936341704,-444.7079575855044,9.432019932124826,0.09055385138137417,0.4822258539757978,-1.276050135087098
3509211,1990.0,1,190980,233690,-1.84,-0.65,9.79,-0.09,0.06,-0.07,28.39,1.589718,10.654348052859916,-383.36429626217887,9.982594853042968,0.12884098726725127,0.31473491051368474,-1.100026855845264
3549193,2027.5,1,191000,233940,-1.62,-1.02,10.33,-0.07,-0.01,-0.01,28.39,1.6297,30.691903305374698,-328.44458580270907,10.505888824844854,0.07141428428542851,0.8985566339153523,-0.9424368567883921
3589223,2009.0,1,191029,234155,-1.58,-1.43,10.18,-0.06,-0.04,-0.01,28.39,1.66973,15.08292181072411,-245.02361565634607,10.400658632990508,0.07280109889280519,0.4437674961233082,-0.7030635881257591
3629211,1930.0,1,191166,234725,-1.51,-1.33,9.22,-0.04,-0.04,-0.01,28.39,1.709718,-48.84791846759503,-117.01667434406652,9.437022835619294,0.05744562646538029,-1.418945438635572,-0.3357525882696623
3669211,1965.0,1,191299,235210,-1.48,-0.88,8.88,-0.09,-0.02,-0.05,28.39,1.749718,-37.43824675471303,43.60758467142476,9.045396619275465,0.10488088481701516,-1.0865089652775748,0.1251525515242299
3709211,1953.0,1,191469,235786,-1.88,-0.91,10.19,-0.06,0.08,-0.04,28.39,1.789718,-16.94034251377744,211.29811454791448,10.40185560368918,0.10770329614269009,-0.48927434113032764,0.6063340840558834
3749196,1943.0,1,191625,236081,-1.59,-1.38,10.49,0.01,0.0,0.03,28.39,1.829703,-53.78235844359019,365.38532716188956,10.69918688499271,0.03162277660168379,-1.562717132063393,1.0484814203648152
3789165,1949.0,1,191618,236146,-1.67,-1.41,9.94,-0.02,-0.03,0.01,28.39,1.869672,-24.12923585006782,491.9489118756791,10.177455477672206,0.03741657386773942,-0.6987326330253466,1.4116507639177047
3829195,2027.5,1,191623,236227,-1.57,-1.06,8.93,-0.05,-0.05,-0.02,28.39,1.909702,47.96367718018041,568.9031916555642,9.128712943235755,0.07348469228349536,1.4017935139996849,1.632468113034724
3869211,2027.5,1,191615,236200,-1.59,-0.85,9.27,-0.11,0.02,-0.04,28.39,1.949718,45.699500722736396,557.5758422965442,9.443701604773416,0.11874342087037917,1.3358236197280497,1.5999647192646096
3909195,2004.0,1,191627,236104,-1.9,-1.05,10.48,-0.02,0.07,-0.0,28.39,1.989702,43.04767476536314,423.4190900888086,10.702471677140753,0.07280109889280519,1.258559024267951,1.2150070733299598
3949193,2027.5,1,191429,234970,-1.59,-1.52,10.33,0.0,-0.05,0.04,28.39,2.0297,42.90899014111392,176.79802804324513,10.561600257536734,0.06403124237432849,1.2545182570526825,0.5073374113814125
3989176,1951.0,1,190756,233937,-1.71,-1.32,9.57,-0.02,-0.02,0.0,28.39,2.069683,-0.9044684497440018,-106.86538218979696,9.810779785521639,0.0282842712474619,-0.022047101363084548,-0.3066238454625063
4029879,1951.0,1,190631,233965,-1.54,-1.0,8.84,-0.05,-0.03,-0.03,28.47,2.110386,-23.829019071293555,-318.64944024265816,9.02868761227234,0.06557438524302,-0.689985404385461,-0.9143300629496023
4068211,1872.0,1,190631,233951,-1.53,-0.91,9.25,-0.12,-0.03,-0.07,28.47,2.148718,-81.57138040571009,-381.6968315376921,9.419739911483756,0.14212670403551894,-2.372388496115426,-1.0952421298851158
4108211,1861.0,1,190701,234209,-1.77,-1.03,10.3,-0.06,0.07,-0.02,28.47,2.188718,-96.91775715627342,-297.3676287908736,10.501609400468102,0.09433981132056604,-2.8195262836137647,-0.8532627226712822
4148195,1949.0,1,190878,234279,-1.53,-1.51,10.51,-0.01,-0.02,0.03,28.47,2.228702,-8.075016653253682,-135.71049632141052,10.727585935335124,0.03741657386773942,-0.23097088259045534,-0.3893937921859332
4188194,1953.0,1,190933,234542,-1.59,-1.39,9.63,0.01,-0.05,0.01,28.47,2.268701,9.888632595820296,16.587309996462857,9.858858960346275,0.05196152422706632,0.29242473783390827,0.04761891150829939
4228178,1968.0,1,191025,234603,-1.42,-1.02,8.84,-0.04,-0.05,-0.02,28.47,2.308685,10.58579595818038,106.92402035227093,9.011237428899541,0.0670820393249937,0.3127375509778413,0.3068366309876992
4268211,1952.0,1,190955,234622,-1.61,-0.89,9.34,-0.11,-0.02,-0.05,28.47,2.348718,21.752639537158696,133.3814703981182,9.519443261031602,0.1224744871391589,0.6380988927721579,0.38275526735504317
4308212,1951.0,1,191001,234571,-1.79,-1.16,10.55,-0.01,0.08,0.02,28.47,2.388719,-8.377008651153693,127.75169518995246,10.763465984523759,0.08306623862918075,-0.23976983468044993,0.36660084370053425
4348176,1918.0,1,191012,234641,-1.49,-1.63,10.29,0.03,-0.06,0.05,28.47,2.428683,3.7422657007285354,128.08328299740865,10.524309953626412,0.08366600265340755,0.11334188725007406,0.3675523221738749
4388178,1949.0,1,191029,234820,-1.62,-1.28,9.35,-0.01,-0.04,0.01,28.47,2.468685,-16.02038628560969,160.18057668965946,9.575244122214325,0.042426406871192854,-0.4624701515066665,0.4596542731924051
4428193,1855.0,1,191108,234864,-1.49,-1.01,8.78,-0.04,-0.02,-0.03,28.47,2.5087,-44.024613015709754,229.32083400105006,8.962622384101653,0.053851648071345036,-1.2784118023747857,0.6580495850638127
4468211,1996.0,1,191091,234894,-1.66,-0.98,9.59,-0.08,0.01,-0.04,28.47,2.548718,30.383937666298326,314.07068427576223,9.781824983100034,0.09000000000000001,0.8895836315760826,0.9012360241969601
4508193,1981.0,1,191063,234832,-1.69,-1.18,10.47,-0.0,0.08,0.02,28.47,2.5887,85.21377378456202,363.425582262187,10.670960594060874,0.08246211251235322,2.4871262964866756,1.0428580076717757
4548178,1983.0,1,191014,234887,-1.53,-1.58,10.43,0.01,-0.04,0.05,28.47,2.628685,31.183130699997534,311.9603744684654,10.659371463646437,0.06480740698407861,0.9128692194826371,0.8951805712865328
4588177,1904.0,1,191089,235000,-1.62,-1.19,9.35,0.0,-0.0,-0.0,28.47,2.668684,-5.0392712276022325,120.73658763670642,9.563629018317261,0.0,-0.1425202655427432,0.34647126210858914
4628194,1965.0,1,190781,233294,-1.55,-0.97,8.84,-0.06,-0.03,-0.04,28.47,2.708701,38.673870085215455,-178.91601699423526,9.02712578842236,0.07810249675906654,1.1311222110436618,-0.5133703737286729
4668211,1921.0,1,189960,232136,-1.66,-0.96,9.82,-0.11,0.02,-0.05,28.47,2.748718,-8.136402125082387,-482.2986563118249,10.005478499302269,0.1224744871391589,-0.232759432715619,-1.3839152007851374
4708195,1831.5,1,190013,232642,-1.83,-1.31,10.72,0.02,0.05,0.03,28.47,2.788702,-72.59839252844529,-666.4588748124577,10.953693441027095,0.061644140029689765,-2.110948156685318,-1.9123558720309526
4748165,1937.0,1,190190,232944,-1.53,-1.57,10.06,0.04,-0.08,0.05,28.47,2.828672,-2.7751489517040873,-665.4169960297115,10.296086635222142,0.10246950765959599,-0.0765519499249452,-1.9093662408945773
4788176,1921.0,1,190287,233197,-1.67,-1.05,9.07,-0.04,-0.02,-0.03,28.47,2.868683,22.698781731602153,-505.20016620490486,9.282041801241794,0.053851648071345036,0.6656660465282873,-1.4496302035092479
4828212,1926.0,1,190390,233642,-1.65,-0.89,9.09,-0.08,0.0,-0.05,28.47,2.908719,-8.953076561116777,-276.45309773847805,9.281309174895533,0.09433981132056604,-0.25655436531568476,-0.7932492793874855
4868194,1911.0,1,190655,234047,-1.7,-1.0,10.08,-0.09,0.06,-0.03,28.47,2.948701,4.718583508484232,-74.88806642028062,10.271144045333996,0.11224972160321824,0.14178824899074263,-0.21486616648351153
4908193,1968.0,1,190730,234107,-1.79,-1.31,10.72,-0.01,0.04,0.03,28.47,2.9887,43.54025823311252,46.159118624448546,10.947081802928121,0.05099019513592785,1.272911120890343,0.1324740801682554
4948178,1982.0,1,190725,234174,-1.55,-1.54,9.84,-0.01,-0.1,0.02,28.47,3.028685,67.16943930743065,89.96787186701924,10.079667653251272,0.10246950765959599,1.96137980100276,0.2581816143926829
4988194,1947.0,1,190843,234570,-1.7,-1.1,9.19,-0.03,-0.0,-0.03,28.47,3.068701,26.650882762984796,102.3991638574937,9.410425070101775,0.042426406871192854,0.780815944114209,0.2938527291284448
5028241,1915.0,1,190926,234679,-1.51,-0.86,8.92,-0.08,-0.03,-0.05,28.47,3.108748,-1.2653114458834656,142.88381747080803,9.087689475328698,0.09899494936611665,-0.03256075820538438,0.41002188718415494
5068897,1921.0,1,190901,234780,-1.64,-1.02,9.95,-0.11,0.0,-0.05,28.39,3.149404,-3.2764804419226774,249.81918219600925,10.135704218257358,0.12083045973594572,-0.09115893221028214,0.7168688076286333
5107198,1870.0,1,191048,234927,-1.85,-1.33,10.71,0.01,0.06,0.02,28.39,3.187705,-43.87206119399541,409.8432604367081,10.94968036063154,0.06403124237432849,-1.2739669952943333,1.1760517517492017
5147165,1863.0,1,191159,235102,-1.51,-1.53,9.81,0.03,-0.08,0.04,28.39,3.227672,-66.89038997229714,549.2750589209729,10.042763563880213,0.09433981132056604,-1.9446376538562218,1.5761459402983045
5187176,1857.0,1,191226,235073,-1.6,-1.05,9.08,-0.05,-0.07,-0.03,28.39,3.267683,-56.965502757218246,566.7060081841393,9.279488132434892,0.091104335791443,-1.655462418381958,1.6261633794829116
5227211,1877.0,1,191222,235044,-1.58,-0.84,8.99,-0.1,-0.01,-0.03,28.39,3.307718,-55.453246692852716,400.4958615181956,9.166356964465217,0.10488088481701516,-1.6114007586337358,1.1492297496951362
5267211,1855.0,1,190947,233455,-1.87,-1.12,10.31,-0.06,0.03,-0.0,28.39,3.347718,-63.277186830906004,86.7179948619742,10.537903017204135,0.0670820393249937,-1.8393620122710266,0.24885621719238343
5307193,1892.0,1,190176,232385,-1.75,-1.42,10.62,0.03,0.01,0.03,28.39,3.3877,-40.43697236804141,-246.14827874799164,10.856486540313123,0.04358898943540673,-1.173880959191971,-0.7062907656558104
5347166,1939.0,1,190110,232640,-1.42,-1.41,9.44,-0.0,-0.1,0.01,28.39,3.427673,14.584097988140956,-454.37350562631127,9.649772018032342,0.1004987562112089,0.42923357818250774,-1.3037850538237694
5387193,1968.0,1,190277,233119,-1.69,-0.98,9.13,-0.04,0.02,-0.03,28.39,3.4677,35.63950983508544,-471.0708265267226,9.336669641794124,0.053851648071345036,1.0427119529893472,-1.3516973746086725
5427195,1943.0,1,190486,233406,-1.59,-0.95,9.56,-0.03,0.01,-0.02,28.39,3.507702,13.007058055622018,-339.3538874743288,9.737771819055938,0.03741657386773942,0.3832843513594948,-0.9737406787815986
5467193,1914.0,1,190487,233611,-1.72,-1.29,10.56,-0.03,-0.01,-0.01,28.39,3.5477,-19.334597516807424,-166.43277527331043,10.776646045964394,0.033166247903554,-0.559034252682242,-0.47755019123737863
5507212,1906.0,1,190623,234018,-1.79,-1.52,10.54,0.02,0.01,0.04,28.39,3.587719,-28.3487304868521,-45.826954146456934,10.798430441503987,0.045825756949558406,-0.821673410963929,-0.13147642139002044
5547164,1920.0,1,190640,234152,-1.48,-1.5,9.41,-0.01,-0.09,0.02,28.39,3.627671,-15.418798281631972,-9.126399368290977,9.643054495334972,0.09273618495495703,-0.44494205784284685,-0.026165589550400374
5587195,1904.0,1,190612,234186,-1.7,-0.92,8.83,-0.04,-0.03,-0.04,28.39,3.667702,-32.76879628600707,-29.083987579395924,9.039098406367751,0.06403124237432849,-0.9504581054983361,-0.0834331221184486
5627212,1914.0,1,190646,234236,-1.55,-0.87,9.24,-0.06,0.03,-0.04,28.39,3.707719,-25.530251821352405,-52.43620930750949,9.409410183428077,0.07810249675906654,-0.7395531597094077,-0.15044142513608996
5667195,1984.0,1,190725,234496,-1.86,-1.28,10.75,-0.02,0.06,0.01,28.39,3.747702,48.05687772796034,-31.24108116195745,10.984557342014288,0.06403124237432849,1.404509040107593,-0.08962281927448741
5707177,2027.0,1,190830,234631,-1.8,-1.53,10.62,0.07,-0.02,0.06,28.39,3.787684,81.03769940598144,59.032959565407964,10.879581793433054,0.09433981132056604,2.3654506274725886,0.16941507211396747
5747177,2007.0,1,190868,234876,-1.42,-1.42,9.33,-0.02,-0.12,-0.01,28.39,3.827684,74.15392972078949,207.8608114979075,9.543673297006766,0.12206555615733702,2.1648825326894423,0.5964708750207858
5787211,2027.5,1,190948,235156,-1.73,-0.87,8.99,-0.07,0.04,-0.04,28.39,3.867718,75.52627077674472,361.74940477328033,9.196189428236023,0.09000000000000001,2.2048675762881165,1.0380482807688836
5827195,1974.0,1,191103,235326,-1.56,-0.9,9.57,-0.08,0.03,-0.03,28.39,3.907702,43.123237941327424,434.86192869710766,9.737992606281852,0.09055385138137417,1.2607606612970808,1.2478418590635916
5868193,1968.0,1,191140,235434,-1.65,-1.16,10.45,-0.06,0.02,-0.01,28.39,3.9487,13.594261927811568,352.5012606312462,10.642866155317373,0.06403124237432849,0.4003933435658574,1.0115110864823893
5908198,1950.0,1,191123,234561,-1.75,-1.38,10.1,0.03,-0.02,0.05,28.39,3.988705,18.128591633774537,109.6670682992523,10.342963791873197,0.061644140029689765,0.532507274135029,0.31470770167909995
5948176,1967.0,1,190309,232837,-1.4,-1.23,8.84,-0.02,-0.09,-0.02,28.39,4.028683,14.123477137733618,-204.91870038489574,9.034295766688182,0.09433981132056603,0.4158127563641473,-0.5879840746518492
5988211,1956.0,1,190108,232959,-1.66,-0.75,8.88,-0.08,0.0,-0.06,28.39,4.068718,20.910895130670664,-453.12660456616453,9.064904853334093,0.1,0.613573512112365,-1.30020711913969
6028193,1985.0,1,190286,233210,-1.55,-0.95,9.85,-0.08,0.01,-0.02,28.39,4.1087,36.101882985375504,-533.162851223152,10.01636161487793,0.08306623862918075,1.0561838304741578,-1.529868053796263
6068195,1959.0,1,190369,233391,-1.82,-1.34,10.77,-0.03,0.01,0.02,28.39,4.148702,20.386584827831836,-438.14243301913166,11.00458540791065,0.03741657386773942,0.5982970105260651,-1.2572106146022601
6108863,1957.0,1,190563,233662,-1.75,-1.41,10.09,0.06,-0.02,0.06,28.47,4.18937,11.942954383507342,-244.83964237798304,10.337248183148164,0.08717797887081347,0.3522802277574369,-0.7025356838720556
6147178,1951.0,1,190680,233960,-1.41,-1.21,8.95,-0.02,-0.1,-0.02,28.47,4.227685,11.369035248646798,-52.99875511543868,9.14082600206349,0.10392304845413264,0.33555830463932473,-0.1520556287179976
6187211,1933.0,1,190766,234240,-1.69,-0.7,9.04,-0.06,0.06,-0.04,28.47,4.267718,-11.249353633909923,71.743988876276,9.22321527451246,0.0938083151964686,-0.32345955515303176,0.20588888234262584
6227194,1911.0,1,190897,234310,-1.59,-0.97,9.93,-0.05,0.03,0.0,28.47,4.307701,-25.504200134996672,117.92387040358675,10.103162871101306,0.05830951894845301,-0.7387941080070393,0.33840027807742434
6267177,1910.0,1,190865,234377,-1.84,-1.34,10.63,-0.04,-0.0,0.01,28.47,4.347684,-36.49691609688101,115.3866328366923,10.870975117256043,0.04123105625617661,-1.0590820022563578,0.33111977236410606
6307198,1881.0,1,190941,234565,-1.77,-1.35,9.92,0.02,-0.03,0.05,28.47,4.387705,-50.6613743635598,110.59711229351326,10.166700546391636,0.061644140029689765,-1.4717829696194076,0.3173764271867954
6347176,1903.0,1,190999,234738,-1.44,-1.2,8.84,-0.05,-0.06,-0.02,28.47,4.427683,-44.93063143423076,143.13860523172406,9.03654801348391,0.0806225774829855,-1.3048098947502615,0.41075299087473416
6387211,1911.0,1,190996,234762,-1.78,-0.76,9.06,-0.1,0.03,-0.06,28.47,4.467718,-18.830006170935352,224.53259111633966,9.264426587760303,0.12041594578792296,-0.5443322900202239,0.6443099060783881
6427193,1936.0,1,191029,234893,-1.69,-0.95,9.95,-0.07,0.05,-0.01,28.47,4.5077,-8.928905396697644,322.8461104854866,10.137114974192608,0.08660254037844388,-0.2558501052056081,0.9264167725393005
6467195,1897.0,1,191127,235110,-1.86,-1.47,10.83,0.0,-0.0,0.02,28.47,4.547702,-35.79197654691521,367.972821026031,11.086451190529818,0.02,-1.0385426191944758,1.0559061345921532
6507176,1906.0,1,191172,235244,-1.71,-1.49,9.98,0.02,-0.05,0.04,28.47,4.587683,-32.75477836164088,289.87852160924587,10.234480934566248,0.0670820393249937,-0.9500496739976442,0.8318175429284992
6547177,1939.0,1,191115,235039,-1.47,-1.26,8.95,-0.06,-0.09,-0.03,28.47,4.627684,2.176796900547968,73.9794553335359,9.157019165645554,0.11224972160321824,0.06772980127774691,0.21230346745139547
6587211,1936.0,1,190571,233266,-1.71,-0.82,9.01,-0.08,0.03,-0.05,28.47,4.667718,0.9913770239922153,-211.15387168775564,9.207420920105696,0.09899494936611665,0.03319096325265831,-0.6058756591397586
6627195,1913.0,1,190158,232970,-1.65,-1.0,9.87,-0.06,0.05,-0.04,28.47,4.707702,-23.430012842204153,-447.3437895963958,10.056808638927162,0.08774964387392122,-0.6783598092777076,-1.2836135537693034
6667241,1921.0,1,190326,233412,-1.74,-1.46,10.67,-0.01,0.03,0.0,28.47,4.747748,-16.63530762484868,-541.3691075829603,10.909083371209517,0.03162277660168379,-0.480386730226314,-1.5534155911227212
6707176,1952.0,1,190509,233896,-1.65,-1.48,9.98,0.04,-0.04,0.04,28.47,4.787683,21.234076864131808,-478.58936668953135,10.223174653697354,0.06928203230275509,0.622989856283271,-1.3732715367310397
6747176,1965.0,1,190664,234201,-1.45,-1.26,8.97,-0.07,-0.07,-0.03,28.47,4.827683,20.94806164575856,-314.3854003127322,9.173385416518812,0.10344080432788601,0.6146564096324468,-0.9020945642021826
6787211,1919.0,1,190723,234417,-1.7,-0.85,9.07,-0.09,0.01,-0.05,28.47,4.867718,-6.450882873655074,-123.00464761385557,9.267005988991267,0.10344080432788601,-0.18364951177995584,-0.3529348474994343
6827193,1937.0,1,190835,234615,-1.71,-1.09,10.13,-0.06,-0.01,0.0,28.47,4.9077,-10.04145096269306,44.889615755025204,10.330977688486216,0.0608276253029822,-0.2882656499922312,0.12883129046085584
6867225,1924.0,1,191053,234956,-1.73,-1.37,10.64,-0.01,0.04,0.03,28.47,4.947732,-3.227728207492157,170.0387446362415,10.86643455784831,0.05099019513592785,-0.08973846882708891,0.48794190734792103
6907176,1935.0,1,191246,235203,-1.62,-1.48,10.13,0.03,-0.03,0.06,28.47,4.987683,-7.321542278351352,253.1329347387451,10.364926434857125,0.07348469228349534,-0.2090173706699198,0.7263774932301321
6947178,1905.0,1,191284,235337,-1.4,-1.22,8.91,-0.09,-0.15,-0.03,28.47,5.027685,-31.251284746817017,307.610799667285,9.101455927487645,0.17748239349298847,-0.9062433202649598,0.8826996335124405
6987211,1911.0,1,191353,235536,-1.72,-0.82,9.26,-0.1,0.06,-0.03,28.47,5.067718,-23.000587763739524,357.04883132572843,9.45401502008538,0.12041594578792296,-0.6658479191682767,1.0245601658649797
7027196,1937.0,1,191365,235566,-1.68,-1.12,10.14,-0.03,0.04,0.01,28.47,5.107703,-7.893109656134839,421.76652498628687,10.339071525045178,0.05099019513592785,-0.22567077211198683,1.2102651012625723
7067176,1904.0,1,191397,235728,-1.84,-1.43,10.62,0.01,-0.03,0.01,28.47,5.147683,-26.727014846993686,493.46319240631686,10.872667565965584,0.033166247903554,-0.7744224959796395,1.4159959337191945
7107178,1936.0,1,191470,235800,-1.64,-1.33,9.68,0.06,-0.02,0.05,28.47,5.187685,-9.830794199192734,522.2250159621715,9.907618280898795,0.0806225774829855,-0.2821278755400538,1.4985268813356434
7147863,1938.0,1,191514,235791,-1.45,-1.17,8.82,-0.03,-0.07,-0.02,28.43,5.22837,2.079727660344618,441.80028150227014,9.0146436424298,0.07874007874011811,0.0649015554967304,1.2677511958549559
7186211,1946.0,1,191476,235493,-1.75,-0.82,9.23,-0.08,0.04,-0.05,28.43,5.266718,6.002316857307199,225.34723554424446,9.43015376332751,0.10246950765959599,0.1791915852088153,0.6466474969642677
7226193,1999.0,1,190946,233936,-1.59,-1.09,10.01,-0.05,0.03,0.0,28.43,5.3067,54.25203753609988,-74.65077154092714,10.193934471046987,0.05830951894845301,1.5850135393020663,-0.21418525794447046
7266176,1975.0,1,190535,233609,-1.82,-1.41,10.57,-0.01,-0.02,0.01,28.43,5.346683,41.23988638818201,-346.02150781536585,10.817827878090869,0.024494897427831782,1.2058866242365682,-0.9928731591691463
7306194,1922.0,1,190651,233963,-1.73,-1.37,9.7,0.04,-0.04,0.03,28.43,5.386701,-29.017138833992327,-488.3799415313434,9.947854039942483,0.06403124237432849,-0.84114840720203,-1.4013652150694578
7346176,1905.0,1,190725,234220,-1.41,-1.11,8.76,-0.07,-0.07,-0.04,28.43,5.426683,-26.519165028032187,-478.52832350398995,8.941912547100872,0.10677078252031312,-0.7683665057160769,-1.3730963756555095
7386211,1987.0,1,190784,234444,-1.71,-0.77,9.2,-0.12,0.04,-0.06,28.43,5.466718,34.93659634467029,-377.0368739289642,9.38919591871423,0.13999999999999999,1.0222316019582527,-1.0818705605701895
7426195,2014.0,1,190946,234632,-1.64,-1.06,10.19,-0.07,0.02,-0.02,28.43,5.506702,79.75634888441792,-276.55716159805775,10.37541806386615,0.07549834435270751,2.3281167182030456,-0.7935478866342429
7466194,2027.5,1,190930,234820,-1.81,-1.41,10.61,0.01,-0.02,0.01,28.43,5.546701,79.42724255856871,-237.6965512731275,10.855242972867995,0.024494897427831782,2.3185277528867525,-0.6820388583961079
7506178,1984.0,1,190988,234868,-1.65,-1.36,9.86,0.06,-0.02,0.04,28.43,5.586685,43.564575261518485,-258.345248498624,10.089187281441454,0.07483314773547883,1.2736196309482353,-0.7412895017273954
7546176,1949.0,1,190937,234993,-1.43,-1.16,8.89,-0.07,-0.07,-0.04,28.43,5.626683,7.171722210268899,-288.9769167444291,9.078689332717582,0.10677078252031312,0.2132638180694359,-0.8291858968391157
7586211,1936.0,1,190988,235370,-1.74,-0.85,9.34,-0.13,0.05,-0.06,28.43,5.666718,-10.030608792015494,-273.4045343802804,9.538642461063313,0.15165750888103102,-0.28794974844183635,-0.7845015439620096
7626194,1951.0,1,191213,235604,-1.77,-1.21,10.23,-0.07,0.02,0.0,28.43,5.706701,12.899933229246246,-184.32843296971345,10.452267696533609,0.07280109889280519,0.38016312224917415,-0.5289010934162879
7666178,1979.0,1,191347,236057,-1.73,-1.32,10.39,0.01,0.04,0.04,28.43,5.746685,32.35096599608424,-35.998677369817486,10.615432162658287,0.05744562646538029,0.9468957065774173,-0.10327455879818626
7706165,1949.0,1,191442,236468,-1.59,-1.32,9.67,0.06,-0.03,0.05,28.43,5.786672,9.466343853346707,124.37591433730309,9.888346676770592,0.08366600265340755,0.2801207746858535,0.35691417024696925
7746178,1955.0,1,191582,236688,-1.6,-1.15,8.88,-0.03,-0.07,-0.0,28.43,5.826685,12.213079690579749,236.8333715550459,9.095982629710768,0.07615773105863909,0.36015069999429444,0.6796065229308218
7786211,1963.0,1,191716,236745,-1.9,-0.95,8.55,0.01,0.15,-0.08,28.43,5.866718,20.889870990794673,254.38613641771076,8.809937570720919,0.170293863659264,0.6129609448894301,0.7299735072978322
7826177,1938.0,1,191767,236324,-1.49,-0.83,10.25,-0.11,0.15,0.11,28.43,5.906684,-3.4339533810348644,168.32661509990984,10.390933548050436,0.21610182784974308,-0.09574712281252962,0.4830290174262805
7866177,1899.0,1,191449,235297,-1.99,-1.38,10.77,-0.11,0.04,0.08,28.43,5.946684,-39.15358307992719,19.15843296680896,11.038903931097506,0.14177446878757824,-1.1364876476557222,0.05499665008488867
7906178,1888.0,1,191353,235355,-1.9,-1.41,9.73,-0.04,-0.13,0.06,28.43,5.986685,-60.30024756963012,-120.65664193472443,10.01354083229304,0.14866068747318506,-1.7526247936793502,-0.3461973354174491
7946193,1873.0,1,191362,235396,-1.49,-1.14,8.45,-0.16,-0.16,-0.02,28.43,6.0267,-53.900476796249826,-186.49734868736027,8.655761087275918,0.22715633383201095,-1.5661586726778078,-0.5351247137347279
7986212,1903.0,1,191449,235410,-1.75,-1.05,9.23,-0.03,0.06,-0.01,28.43,6.066719,-54.88375733530703,-156.91760042299072,9.452930762467268,0.06782329983125268,-1.5948079031685212,-0.4502467625932224
8026204,1921.0,1,191568,235579,-1.79,-1.41,10.93,-0.03,0.09,-0.14500000000000002,28.43,6.106711,1.1026376322294242,-59.55935230524585,11.16499440214817,0.17327723451163457,0.036432694054104896,-0.17088101028509867
8066198,1983.0,1,191701,235717,-1.68,-0.97,10.47,-0.04,0.03,0.05,28.43,6.146705,27.35333106073418,53.0525391335272,10.648201726113195,0.07071067811865477,0.8012827411173585,0.1522544854623807
8106177,1879.0,1,191795,235765,-2.01,-1.48,9.68,0.14500000000000002,-0.11,0.135,28.43,6.186684,-51.09649179162004,136.95786428105197,9.99664443700985,0.2266053838724932,-1.48446071416114,0.39301759219112303
8146178,1885.0,1,191807,235842,-1.64,-1.25,8.73,-0.14,-0.07,-0.07,28.43,6.226685,-50.71463329506784,177.3947010628293,8.97022853666505,0.17146428199482247,-1.4733347418185463,0.5090495416859401
8186897,1910.0,1,191931,236020,-2.01,-0.9,9.64,-0.11,0.11,-0.09,28.13,6.267404,-42.76783474620239,188.85069737731558,9.888361846130026,0.17972200755611428,-1.2417938394551091,0.5419220829519351
8227195,1883.0,1,191965,236087,-2.4999999999999996,-1.36,10.38,-0.03,0.04,-0.05,28.13,6.307702,-30.564635863697376,200.29903209581673,10.763085059591418,0.07071067811865477,-0.8862368609308338,0.574772639562622
8267194,1986.0,1,191977,236099,-1.66,-1.1,10.39,-0.04,-0.05,0.11,28.13,6.347701,19.886557377709817,235.15421734911388,10.579116220176429,0.12727922061357855,0.5837280232419632,0.674788254452796
8307205,1887.0,1,192080,236164,-2.01,-1.78,9.52,0.11,-0.07,0.08,28.13,6.387712,-22.98301366266122,293.8617172411943,9.891354811146954,0.15297058540778355,-0.6653358735694264,0.8432471697533771
8347176,1944.0,1,192093,236307,-1.71,-1.2,8.85,-0.14,-0.02,-0.08,28.13,6.427683,-13.88749623250427,347.17539821546694,9.093217252436014,0.16248076809271922,-0.400325467140843,0.9962287289087985
8387211,1931.0,1,192142,236404,-1.95,-0.74,9.85,-0.08,0.07,-0.07,28.13,6.467718,6.714746597790422,347.89670348892884,10.068396098684238,0.12727922061357858,0.19994920527024057,0.9982984866772497
8427193,1919.0,1,192128,236503,-1.87,-1.24,10.89,-0.05,0.05,-0.1,28.13,6.5077,-22.030064392215262,260.29947801048695,11.118749929735808,0.12247448713915891,-0.6375703862944107,0.7469416137978889
8467195,1967.0,1,192070,236063,-1.82,-1.65,10.34,0.01,-0.07,0.09,28.13,6.547702,30.450822793857764,90.40119545679595,10.627817273551518,0.11445523142259598,0.8915324217328453,0.25942501978453447
8507227,1968.0,1,191663,235153,-1.76,-1.52,9.22,0.05,-0.08,0.05,28.13,6.587734,33.15813616251807,-108.19134866449306,9.508753861574082,0.10677078252031312,0.970413719214546,-0.3104286553158105
8547176,1923.0,1,191497,235104,-1.53,-1.07,8.63,-0.09,-0.03,-0.07,28.13,6.627683,-11.534845198515995,-263.2723892961222,8.829648917142743,0.11789826122551596,-0.3317777444313389,-0.7554277429368759
8587211,1934.0,1,191614,235294,-1.78,-0.76,9.83,-0.04,0.06,-0.06,28.13,6.667718,-7.388507813388698,-327.6943963940343,10.01872746410441,0.09380831519646858,-0.21096850360910965,-0.940284217103724
8627195,1941.0,1,191683,235484,-1.6,-1.24,10.43,-0.1,0.05,-0.01,28.13,6.707702,15.728008474930542,-302.7702271050971,10.624617640178869,0.11224972160321825,0.46256298306242294,-0.8687652709571378
8667194,1999.0,1,191686,235551,-1.65,-1.28,10.13,0.06,-0.06,0.1,28.13,6.747701,50.6417065433346,-226.18649547807766,10.343007299620359,0.13114877048604,1.4798215817162155,-0.6490111955276908
8707201,1979.0,1,191749,235701,-1.7,-1.35,9.09,0.1,-0.1,0.06,28.13,6.787708,57.387397647816165,-141.31895344844636,9.345619294621411,0.15362291495737218,1.6763665671958916,-0.405487044425716
8747176,2023.0,1,191834,235870,-1.51,-0.93,8.68,-0.16,-0.04,-0.07,28.13,6.827683,76.96592773856506,-74.47826107185654,8.85931148566298,0.17916472867168917,2.246813961361798,-0.21369024578161136
8785211,2016.0,1,191921,235951,-1.74,-0.85,9.55,-0.11,0.08,-0.09,28.13,6.865718,87.61316190873544,-30.276346870407107,9.744362472732632,0.16309506430300091,2.557035768581012,-0.086854551291579
8825193,1931.0,1,191972,236001,-1.65,-1.18,10.56,-0.03,0.05,0.03,28.13,6.9057,-3.3736040484442755,1.9601877275190505,10.753069329265948,0.06557438524302,-0.0939887620287331,0.005646946155919462
8865178,1904.0,1,192012,235941,-1.43,-0.94,10.37,-0.06,0.06,0.06,28.13,6.945685,-38.05406619185203,39.29664697903912,10.51025213779384,0.10392304845413264,-1.1044517113144006,0.11278248144932213
8905176,1948.0,1,192089,235970,-1.82,-1.71,9.62,0.13,-0.07,0.07,28.13,6.985683,28.57687762639398,95.11228168987024,9.938858083301119,0.16340134638368192,0.8369324526527039,0.27294330072257617
8946178,1955.0,1,192117,235977,-1.77,-1.09,8.99,-0.08,-0.07,-0.06,28.13,7.026685,0.13890311825423807,167.2514066377188,9.227193506153428,0.12206555615733702,0.008352963879434645,0.47994374805531986
8986211,1899.0,1,192179,236174,-2.21,-1.06,10.1,-0.11,0.1,-0.11,28.13,7.066718,-11.104371895676579,230.26308812751725,10.393156402171575,0.1849324200890693,-0.3192353128634671,0.6607533470767404
9026232,2011.0,1,192210,236271,-1.85,-1.1,10.46,-0.09,-0.02,0.01,28.13,7.106739,52.611874143369484,242.59928568447387,10.679143224060628,0.09273618495495703,1.5372251236726693,0.6961515919892091
9066193,1919.0,1,192201,236369,-1.99,-1.6,10.36,0.1,-0.04,0.07,28.13,7.1467,7.109669659254144,172.1798924161381,10.670037488219053,0.1284523257866513,0.21145583167497006,0.4940858486358772
9106176,1920.0,1,192213,235825,-1.93,-1.31,9.25,-0.06,-0.09,0.08,28.13,7.186683,-32.935121859961605,25.301103025695888,9.539575462251976,0.1345362404707371,-0.9553042297888591,0.07262280580726921
9146194,1872.0,1,191713,234850,-1.65,-1.47,8.64,-0.01,-0.08,-0.01,28.13,7.226701,-46.05874848383129,-147.26105148830854,8.918127606173844,0.08124038404635961,-1.3376791361221063,-0.4225376664458154
9186897,1888.0,1,191628,234918,-1.92,-0.87,9.79,-0.04,0.09,-0.07,28.25,7.267404,-61.58709677337975,-278.2988271682711,10.014359689965204,0.12083045973594572,-1.7901189146149308,-0.7985455290702834
9225193,1946.0,1,191761,235323,-2.47,-1.16,11.22,-0.11,0.08,-0.14500000000000002,28.25,7.3057,27.86723106439817,-325.6509029155094,11.547073222249871,0.19880895352071043,0.8162559243233077,-0.9344204910815135
9265198,1985.0,1,191882,235401,-1.67,-1.13,10.38,-0.08,-0.01,0.08,28.25,7.345705,31.759613619047855,-292.52315000603915,10.574034234860411,0.11357816691600547,0.9296658419782553,-0.8393616769311284
9305194,1875.0,1,191777,235484,-1.82,-1.53,9.48,0.14500000000000002,-0.12,0.135,28.25,7.385701,-40.65504215259126,-214.59904284515702,9.77362266511246,0.2316246964380094,-1.1802347222051381,-0.6157614454067186
9345178,1908.0,1,191836,235774,-1.36,-0.88,8.35,-0.21500000000000002,-0.01,-0.09,28.25,7.425685,-45.27464841037532,-132.87628580763825,8.505674576422495,0.23329166294576412,-1.314833302364668,-0.38126113401174333
9385211,1858.0,1,191979,235813,-1.79,-0.56,9.03,0.02,0.06,0.01,28.25,7.465718,-65.6417279874099,-74.72681253638123,9.222721940945634,0.06403124237432849,-1.9082561700486336,-0.21440345465930452
9425164,1904.0,1,192038,235905,-1.77,-0.98,10.68,-0.0,0.0,0.02,28.25,7.505671,-36.249988967162984,-47.205018232346205,10.869944802067764,0.02,-1.0518874408136134,-0.13543072333696657
9465177,1952.0,1,192056,235929,-1.83,-1.28,10.18,-0.05,-0.03,0.03,28.25,7.545684,8.441460224555355,-36.7191348734153,10.422077528017146,0.06557438524302,0.25025938097256467,-0.10534188392358516
9505198,1886.0,1,192077,236089,-1.74,-1.29,9.29,0.06,-0.09,0.04,28.25,7.585705,-35.698611038573866,-15.702102507211256,9.539171871813611,0.11532562594670795,-1.0358222867337943,-0.04503431705808579
9545177,1899.0,1,192080,236243,-2.09,-1.51,8.68,-0.09,-0.06,-0.08,28.25,7.625684,-61.9851369394153,39.13408529408843,9.054866095089425,0.1345362404707371,-1.8017163621472987,0.11231601694024632
9585211,1904.0,1,192180,236234,-1.75,-0.51,9.5,-0.12,0.09,-0.08,28.25,7.665718,-10.615975859108694,123.02856998192792,9.673293131090363,0.16999999999999998,-0.30500522280615733,0.35304801738643027
9625193,2009.0,1,192246,236325,-1.77,-1.04,10.56,0.05,0.05,0.1,28.25,7.7057,48.42896621048093,193.5209956344579,10.757699568216246,0.12247448713915891,1.4153503496578597,0.5553233243601818
9665165,1970.0,1,192246,236430,-1.92,-1.23,10.28,0.01,0.0,0.05,28.25,7.745672,41.04036368331691,191.49244563684164,10.52984805208508,0.050990195135927854,1.2000732558917706,0.5495024780822851
9705164,1922.0,1,192338,236472,-2.1,-1.64,10.17,-0.15,-0.09,-0.14500000000000002,28.25,7.785671,-17.675407251196635,85.5208249794892,10.513253540174896,0.22721135535003528,-0.5106914629500171,0.24542098421184982
9745212,1957.0,1,192017,235163,-1.38,-0.97,8.35,-0.21500000000000002,-0.07,-0.11,28.25,7.825719,-1.8143743786762485,-93.8341934351729,8.518673605673596,0.25144581921360315,-0.048558461699618076,-0.26923135001104814
9785211,1989.0,1,191657,234693,-1.89,-0.83,9.47,0.14500000000000002,0.05,0.11,28.25,7.865718,76.85571995072172,-263.13127695559444,9.692362972980325,0.18874586088176876,2.243602905930128,-0.7550228264975022
9825165,1981.0,1,191726,234997,-2.38,-1.39,10.85,0.11,0.08,-0.07,28.25,7.905672,-2.7879428655508303,-337.56923951782056,11.194596911010239,0.15297058540778355,-0.07692471819617033,-0.9686197000395396
9865176,1831.5,1,191909,235080,-1.91,-1.28,10.46,-0.04,0.01,0.0,28.25,7.945683,-69.45572477583967,-285.2430515140508,10.709719884292026,0.04123105625617661,-2.019382210626365,-0.8184717140218547
9905178,2027.5,1,191931,235001,-1.94,-1.27,9.9,0.07,-0.16999999999999998,0.135,28.25,7.985685,44.09672779034646,-141.98289512823837,10.167915223879476,0.2280898945591409,1.2891246265715868,-0.40739219956613604
9946180,1966.0,1,192090,235576,-1.42,-1.19,8.68,-0.21500000000000002,-0.09,-0.14500000000000002,28.25,8.026687,48.517583793473165,19.520343414549362,8.875522519829467,0.2744995446262161,1.4179323447852206,0.056035138209478697
9986212,1968.0,1,192237,235663,-1.71,-0.6,9.53,-0.2,0.04,-0.02,28.25,8.066719,8.297217674286628,137.29432098631483,9.70077316506267,0.20493901531919198,0.24605667594071354,0.3939830417796489
10026211,1959.0,1,192216,235614,-1.74,-1.37,10.54,0.14500000000000002,-0.02,0.12,28.25,8.106718,13.697970162682452,190.93766195082023,10.770148559792478,0.18927493230747702,0.4034150255849583,0.5479105476109583
10066178,1911.0,1,192237,235789,-1.85,-1.52,10.35,0.11,-0.0,0.06,28.25,8.146685,-27.707293307416585,202.36048189324208,10.623342223613056,0.12529964086141668,-0.8029842567815618,0.5806878905520058
10106176,1933.0,1,192281,235899,-1.71,-1.24,9.21,-0.03,-0.07,0.01,28.25,8.186683,-23.650803126345146,214.26917685965643,9.449116360803268,0.07681145747868609,-0.6847928377870792,0.6148594332062737
10146221,1936.0,1,192342,235927,-1.59,-0.97,8.66,-0.07,-0.05,-0.09,28.25,8.226728,-4.965843988328494,262.32093571826795,8.858024610487373,0.12449899597988733,-0.14038086196595004,0.7527421090226009
10186897,1970.0,1,192385,235891,-1.8,-0.83,9.79,0.1,0.08,-0.01,28.17,8.267404,26.02583354697242,352.973378603364,9.988643551553933,0.1284523257866513,0.7626042757792005,1.0128658108638238
10225177,2010.0,1,192397,236023,-1.68,-1.03,10.49,-0.0,0.08,0.04,28.17,8.305684,50.56539464754813,453.8019351509304,10.673490525596582,0.08944271909999159,1.477598129705596,1.3021894798763012
10265176,1936.0,1,192438,236274,-1.91,-1.38,10.26,-0.02,-0.01,0.04,28.17,8.345683,10.350341811463679,502.641283394207,10.527112614577655,0.045825756949558406,0.30587727066989495,1.4423321131714315
10305198,1941.0,1,192459,236397,-1.77,-1.15,9.28,-0.14,-0.08,-0.03,28.17,8.385705,-29.55558767478185,438.83693365242937,9.51702684665752,0.16401219466856726,-0.856836854531647,1.2592479830565886
10345226,1920.0,1,192351,235737,-1.49,-1.02,8.72,-0.13,-0.05,-0.1,28.17,8.425733,-3.182885837615028,244.82530109368426,8.904992981468318,0.17146428199482247,-0.08843192472362126,0.7025390576787256
10385212,2025.0,1,191828,234745,-1.95,-0.89,9.96,-0.06,0.07,-0.06,28.17,8.465719,63.96668190361618,-30.907483685483715,10.188042010121475,0.11,1.8680630603341226,-0.08866557413311567
10425194,1962.0,1,191520,234720,-1.95,-1.21,10.56,-0.02,-0.03,-0.01,28.17,8.505701,23.76641445019821,-293.0910052046166,10.806488791462286,0.03741657386773942,0.6967729937519278,-0.8409911156055055
10465212,1935.0,1,191466,234854,-1.84,-1.32,10.15,-0.03,-0.02,-0.04,28.17,8.545719,-5.916162052304887,-452.08472198523145,10.399543259201339,0.053851648071345036,-0.16806968542263406,-1.2972174771045633
10505211,1999.0,1,191464,235090,-1.62,-1.43,9.19,-0.02,-0.04,-0.03,28.17,8.585718,46.12091764489461,-471.4234732574445,9.440624979311485,0.053851648071345036,1.3481021811924858,-1.3527092808532053
10545211,1935.0,1,191491,235219,-1.48,-1.0,8.88,-0.14,-0.02,-0.07,28.17,8.625718,5.009008817021291,-378.5380435605957,9.057858466547156,0.157797338380595,0.15025018968224924,-1.0861781091507232
10585211,1935.0,1,191548,235513,-2.09,-0.93,10.04,-0.08,0.01,-0.03,28.17,8.665718,-17.323162067158336,-238.73786041807628,10.297310328430429,0.08602325267042626,-0.5004283151850537,-0.68502685497871
10625195,1942.0,1,191692,235748,-1.92,-1.33,10.5,-0.04,-0.01,-0.01,28.17,8.705702,8.107298353576528,-116.09026808322587,10.756639809903461,0.042426406871192854,0.2405231153976763,-0.3330943010982487
10665211,1936.0,1,191736,235851,-1.84,-1.54,10.21,-0.01,0.01,0.01,28.17,8.745718,-5.0266820472011915,-44.16422552220897,10.48815045658671,0.017320508075688773,-0.14215346246196175,-0.12670528548753884
10705178,1919.0,1,191752,235826,-1.65,-1.24,9.18,0.0,-0.06,0.01,28.17,8.785685,-22.51443292883343,-16.968888298463586,9.409171058068823,0.0608276253029822,-0.6516831296029774,-0.04866931021406829
10745176,1870.0,1,191736,235828,-1.6,-1.03,8.86,-0.1,-0.03,-0.05,28.17,8.825683,-61.93937531737619,-0.302163517791417,9.062036195028135,0.11575836902790226,-1.8003830343681437,-0.0008447838192030502
10785211,1873.0,1,191788,235793,-1.95,-0.94,9.84,-0.09,0.04,-0.05,28.17,8.865718,-70.28448825092175,42.41970600106737,10.075301484322937,0.11045361017187261,-2.043529374001201,0.12174397931991267
10825193,1885.0,1,191783,235769,-1.87,-1.26,10.38,-0.03,-0.03,0.01,28.17,8.9057,-43.85939536171725,121.72857757790761,10.622094896958886,0.04358898943540673,-1.2735979588557176,0.3493177391309633
10865198,1922.0,1,191819,235778,-1.9,-1.56,10.31,-0.0,0.02,0.02,28.17,8.945705,-19.51604143500918,207.6441767861228,10.599042409576443,0.0282842712474619,-0.5643208707197397,0.5958492500387854
10905176,1922.0,1,191889,235965,-1.65,-1.25,9.12,0.02,-0.03,0.03,28.17,8.985683,-4.089736256594134,242.79956035314208,9.351973053853394,0.04690415759823429,-0.11485425857642295,0.6967262724560668
10945178,1936.0,1,191848,235889,-1.46,-1.02,8.62,-0.1,-0.03,-0.06,28.17,9.025685,-6.124236268573705,180.96350343937692,8.802067938842553,0.12041594578792296,-0.1741322138102859,0.5192900829861232
10985211,1943.0,1,191766,235268,-2.01,-0.87,9.81,-0.06,-0.01,-0.04,28.17,9.065718,21.978584246474025,26.363733943994788,10.051522272770429,0.07280109889280519,0.644682102546185,0.07567198439928145
11025230,1947.0,1,191309,234387,-1.85,-1.29,10.53,0.02,0.01,0.03,28.17,9.105737,3.8329668837584085,-159.33823794711154,10.768820733952255,0.03741657386773942,0.11598459092942759,-0.45719268896376924
11065164,1899.0,1,191163,234342,-1.73,-1.52,10.22,-0.01,-0.02,0.01,28.17,9.145671,-20.66557090561479,-293.7743200241478,10.476244556137472,0.024494897427831782,-0.597813992419092,-0.842951861226059
11105198,1969.0,1,191277,234600,-1.57,-1.31,9.15,-0.0,-0.06,-0.01,28.17,9.185705,31.24222956287037,-327.28600550620126,9.37568664152125,0.0608276253029822,0.9145911461118434,-0.939112355142144
11145211,1936.0,1,191331,234760,-1.48,-1.13,8.91,-0.05,0.01,-0.02,28.17,9.225718,9.758050883603339,-269.81918868908457,9.102494163689423,0.05477225575051661,0.28862006010199404,-0.774213532256065
11185198,1925.0,1,191364,234855,-1.94,-0.84,9.79,-0.07,0.03,-0.02,28.17,9.265705,-2.3510622717858976,-173.2332875668315,10.015652749571542,0.07874007874011811,-0.06419560139732454,-0.4970639999766496
11225880,1985.0,1,191355,235099,-1.82,-1.34,10.38,-0.02,-0.03,0.01,28.19,9.306387,51.325217179810494,-90.18125108057319,10.623201024173458,0.03741657386773942,1.499736603919368,-0.25874937227664235
11264198,1957.0,1,191458,235210,-1.89,-1.63,10.37,0.02,0.01,0.02,28.19,9.344705,34.949369377550134,-43.932119786509496,10.666109881301617,0.03,1.0226037618337964,-0.12603926699683743
11304165,1959.0,1,191457,235214,-1.72,-1.35,9.56,0.03,-0.08,0.03,28.19,9.384672,25.63708925969616,-25.201610966734865,9.806859844007153,0.09055385138137417,0.7512776764560772,-0.07229279159578138
11344178,1946.0,1,191426,235364,-1.59,-1.08,8.78,-0.07,-0.05,-0.03,28.19,9.424685,20.662663358248494,-8.23706038136582,8.987930796351293,0.091104335791443,0.6063409381105854,-0.023613665497300988
11384211,1911.0,1,191513,235527,-1.88,-0.88,9.57,-0.07,0.07,-0.02,28.19,9.464718,-17.331916874653405,30.08449087803251,9.792532869487854,0.10099504938362078,-0.5006833985390562,0.08634855346383576
11424198,1908.0,1,191593,235722,-1.99,-1.23,10.52,-0.04,-0.01,-0.01,28.19,9.504705,-21.398421253526188,98.09456473793473,10.776984736001067,0.042426406871192854,-0.6191665949557437,0.28150084734472464
11464211,1937.0,1,191641,235972,-2.0,-1.57,10.59,0.01,0.03,0.03,28.19,9.544718,9.355792273928738,184.48529378607796,10.890959553684882,0.04358898943540673,0.27689970241395173,0.529395725072942
11504166,1976.0,1,191627,236086,-1.71,-1.36,9.41,0.05,-0.06,0.04,28.19,9.584673,48.21975054495051,258.4668506901214,9.660320905642836,0.08774964387392122,1.4092545635765077,0.7416829601146884
11544176,1942.0,1,191650,236148,-1.49,-1.09,8.71,-0.08,-0.02,-0.05,28.19,9.624683,9.367520086074595,277.9143415932413,8.903499312068263,0.09643650760992956,0.2772414083462593,0.79748678805626
11584217,1872.0,1,191695,236091,-1.91,-0.82,9.68,-0.08,0.03,-0.04,28.19,9.664724,-52.56605766881,210.64478853941606,9.900651493714946,0.09433981132056604,-1.5272785366080996,0.6044593901763685
11624194,1887.0,1,191639,235435,-1.87,-1.18,10.32,-0.02,-0.04,0.02,28.19,9.704701,-48.588709234145135,62.06219905526951,10.554226641492972,0.048989794855663564,-1.411393021213025,0.17810735844170805
11664198,1872.0,1,191209,234436,-1.92,-1.53,10.47,-0.01,0.04,0.02,28.19,9.744705,-55.84496672379537,-113.87113256679432,10.753985307782413,0.045825756949558406,-1.6228140603401502,-0.3267265769967241
11704176,1895.0,1,191093,234549,-1.64,-1.23,9.3,0.02,-0.07,0.02,28.19,9.784683,-36.03777028068315,-238.85544999008243,9.523260996108425,0.07549834435270751,-1.0457041575878243,-0.6853642737375948
11744176,1953.0,1,191192,234793,-1.41,-1.04,8.64,-0.06,-0.03,-0.03,28.19,9.824683,14.401689114811148,-257.91749812187663,8.815855035105784,0.07348469228349534,0.42391884485056597,-0.7400620884561994
11784235,1937.0,1,191268,234894,-1.87,-0.75,9.5,-0.1,0.05,-0.04,28.19,9.864742,14.861262495376684,-173.71039606062448,9.711302693253877,0.11874342087037919,0.4373091471948416,-0.498433044468287
11824195,1968.0,1,191398,234982,-1.88,-1.14,10.41,-0.05,-0.02,-0.0,28.19,9.904702,16.99013250510164,-40.609893835406254,10.639647550553542,0.05385164807134505,0.49933670206931985,-0.11650626727559073
11864211,1939.0,1,191482,235307,-1.95,-1.48,10.37,-0.0,0.02,0.02,28.19,9.944718,23.88490317623844,73.85672153879564,10.655036367840328,0.0282842712474619,0.7002253257040403,0.21195128754302475
11904178,1997.0,1,191562,235410,-1.58,-1.25,9.24,0.03,-0.06,0.03,28.19,9.984685,37.44831698564539,129.2790501671383,9.457087289435368,0.07348469228349534,1.0954140363839087,0.37098353012405166
11944176,2002.0,1,191486,235424,-1.49,-1.02,8.81,-0.04,-0.03,-0.04,28.19,10.024683,87.7932826501617,128.52192971733334,8.993141831417983,0.06403124237432849,2.5622838340438223,0.36881100208316264
11984235,2000.0,1,191499,235462,-1.86,-0.81,9.66,-0.03,0.06,-0.02,28.19,10.064742,39.2255455299691,105.99980377787274,9.870729456326924,0.06999999999999999,1.1471960336660114,0.30418462703740085
12024222,1837.0,1,191600,235545,-1.86,-1.24,10.44,-0.02,-0.04,0.01,28.19,10.104729,-84.70220703492117,101.75994327431933,10.676647413865458,0.0458257569495584,-2.463609434763041,0.29201851022494335
12064198,1887.0,1,191545,235586,-1.94,-1.58,10.46,-0.02,0.0,0.01,28.19,10.144705,-66.96093925937907,137.18082321495038,10.755073221508072,0.022360679774997897,-1.9466932043387968,0.39365736428549164
12104176,1961.0,1,191599,235714,-1.71,-1.23,9.27,0.01,-0.07,0.04,28.19,10.184683,25.6257214624677,201.0145996417203,9.506308431773082,0.08124038404635961,0.7509464600533992,0.5768259331422977
12144177,1969.0,1,191583,235861,-1.58,-1.01,8.69,-0.08,-0.01,-0.04,28.19,10.224684,24.63489489141581,250.5093739308799,8.890028121440336,0.09000000000000001,0.7220773655449222,0.7188492862935306
12184211,1904.0,1,191644,235930,-1.99,-0.88,9.84,-0.06,0.04,-0.03,28.19,10.264718,-43.3816545634833,231.8234709016872,10.077703111324524,0.07810249675906654,-1.259678323817944,0.6652308054947208
12224198,1868.0,1,191637,235796,-1.9,-1.31,10.42,-0.02,-0.05,0.0,28.19,10.304705,-72.09492082080003,115.5105851208507,10.672511419530082,0.05385164807134505,-2.0962788162225117,0.3314754486810458
12264880,1911.0,1,191383,234718,-1.94,-1.53,10.46,0.01,0.01,0.02,28.43,10.345387,-40.34251654056121,-74.3466716529828,10.747841643790627,0.024494897427831782,-1.1711288587840185,-0.21331265500003743
12305169,1918.0,1,191026,234441,-1.58,-1.19,9.22,0.03,-0.03,0.02,28.43,10.385676,-25.52608614926972,-264.458379334658,9.429787908537499,0.0469041575982343,-0.7394317871255874,-0.7588308957847454
12345176,1927.0,1,190984,234633,-1.45,-0.95,8.77,-0.09,-0.01,-0.08,28.43,10.425683,-22.33184096420259,-374.56115819229973,8.939681202369579,0.12083045973594571,-0.6463630616542343,-1.0747665893849452
12385212,1934.0,1,191072,234807,-1.91,-0.85,9.97,-0.09,0.05,-0.05,28.43,10.465719,-14.384421634106737,-367.631699988014,10.186829732551733,0.11445523142259598,-0.41480407197609137,-1.0548827753090513
12425193,1955.0,1,191189,234945,-1.8,-1.29,10.39,-0.04,-0.01,0.02,28.43,10.5057,5.446114204337357,-268.9798710093625,10.62337987647999,0.045825756949558406,0.16298585615029262,-0.7718051424220832
12465198,1998.0,1,191252,235233,-1.87,-1.53,10.3,-0.02,0.0,0.01,28.43,10.545705,51.03258458625649,-142.5057635632603,10.579593564972145,0.022360679774997897,1.491210350943933,-0.40889255045095696
12505176,2007.0,1,191338,235345,-1.6,-1.14,9.03,0.03,-0.05,0.02,28.43,10.585683,50.719393195273355,-47.05557873292975,9.241239094407199,0.061644140029689765,1.482085089137586,-0.13500191243510506
12545176,1973.0,1,191343,235426,-1.52,-0.97,8.73,-0.1,-0.0,-0.05,28.43,10.625683,33.25599670199897,-4.984149718052851,8.914269459692141,0.1118033988749895,0.9732650205880299,-0.01427956333115989
12583211,2000.0,1,191405,235477,-1.91,-0.78,9.53,-0.08,0.05,-0.04,28.43,10.663718,35.758832628999045,1.9640484629830979,9.750764072625284,0.10246950765959599,1.046188586655772,0.0056580243879976715
12623195,1952.0,1,191401,235488,-1.93,-1.18,10.54,-0.01,-0.03,0.01,28.43,10.703702,17.213325762801787,14.725596615606518,10.780023191069674,0.033166247903554,0.5058397445173639,0.042276796492055214
12663195,1965.0,1,191490,235598,-1.96,-1.56,10.46,0.01,0.01,0.04,28.43,10.743702,-0.2139565048194012,69.90045529922256,10.75577984155496,0.042426406871192854,-0.0019280864116611354,0.20059893357489578
12703169,1938.0,1,191586,235656,-1.67,-1.24,9.3,0.03,-0.05,0.02,28.43,10.783676,0.2836187100304434,174.67097542572606,9.5297691472564,0.061644140029689765,0.01256945162602603,0.5012339156203393
12743176,1989.0,1,191543,235733,-1.48,-0.96,8.66,-0.07,-0.01,-0.05,28.43,10.823683,31.223823392506965,293.79751118783537,8.837850417380913,0.08660254037844388,0.914054857030298,0.843062932950167
12783211,2000.0,1,191664,235757,-1.98,-0.84,9.82,-0.07,0.04,-0.02,28.43,10.863718,54.369291139536514,360.3730627889439,10.052780709833474,0.08306623862918075,1.5884298842588616,1.0340989203261775
12823193,1984.0,1,191782,235895,-1.88,-1.26,10.4,-0.04,-0.02,0.02,28.43,10.9037,35.977448557674684,314.50891638417494,10.643401711858855,0.048989794855663564,1.0525582623289782,0.9024935143944443
12863199,1987.0,1,191689,235190,-1.91,-1.49,10.33,-0.01,0.01,0.02,28.43,10.943706,35.66413053976858,150.72337227341993,10.61023562415086,0.024494897427831782,1.0434293110731219,0.4325171884815215
12903176,1967.0,1,191142,234361,-1.6,-1.2,9.21,0.04,-0.06,0.02,28.43,10.983683,24.571173356906428,-65.21804352320069,9.424653839796983,0.07483314773547883,0.7202207510215313,-0.18711840731869622
12943176,1891.0,1,191003,234422,-1.52,-0.91,8.67,-0.07,-0.03,-0.05,28.43,11.023683,-59.651566246021765,-233.78104422464557,8.849146851533202,0.091104335791443,-1.7337245713959966,-0.6708034613607791
12983211,1831.5,1,191041,234610,-1.97,-0.9,9.83,-0.07,0.06,-0.04,28.43,11.063718,-111.1231240508886,-288.81560944218205,10.065773691078098,0.1004987562112089,-3.233419180100045,-0.8287230317330124
13023212,1934.0,1,191203,234675,-1.9,-1.29,10.57,-0.01,-0.01,0.02,28.43,11.103719,-10.550376290313137,-238.24385339164482,10.816607601276845,0.024494897427831782,-0.30309388917159025,-0.683609320796936
13063194,2027.5,1,191225,234710,-1.95,-1.49,10.53,-0.01,0.02,0.03,28.43,11.143701,81.41972348623811,-146.12909627644427,10.812192192150489,0.03741657386773942,2.3765814243240855,-0.41928956445697196
13103178,1920.0,1,191262,235033,-1.71,-1.25,9.49,0.02,-0.05,0.03,28.43,11.183685,-16.445321673512677,-78.20573344082149,9.723512739745859,0.061644140029689765,-0.47485122830837573,-0.22438608452867118
13143177,1849.0,1,191171,235122,-1.43,-0.95,8.56,-0.09,-0.04,-0.06,28.43,11.223684,-100.8399274698688,-59.62958684599522,8.730463905199999,0.11532562594670795,-2.933804108582992,-0.17108254560125116
13183211,1927.0,1,191232,235226,-1.97,-0.76,9.61,-0.09,0.03,-0.04,28.43,11.263718,-1.628080138939755,-71.89636946826457,9.83923777535638,0.10295630140987,-0.043130522875139334,-0.20628160702567186
13223202,2018.0,1,191251,235291,-1.9,-1.2,10.31,-0.01,-0.04,0.02,28.43,11.303709,65.38253143529091,-77.50697210036701,10.552066148390088,0.045825756949558406,1.9093157831959122,-0.2223810157098094
13263195,1911.0,1,191325,235434,-1.97,-1.49,10.41,-0.01,0.0,0.01,28.43,11.343702,-11.183091105808606,-45.84625979702524,10.699023319911028,0.01414213562373095,-0.3215289052875394,-0.131531818212571
13303863,1918.0,1,191375,235556,-1.68,-1.18,9.14,0.01,-0.04,0.03,28.23,11.38437,-35.51154910815174,32.8725882684287,9.367731849279206,0.05099019513592785,-1.0303719801856348,0.09434889180224083
13344178,1947.0,1,191390,235654,-1.48,-0.9,8.57,-0.13,-0.03,-0.08,28.23,11.424685,28.724507987573705,142.25433682380978,8.743300292223756,0.15556349186104046,0.8412338662135993,0.40821561665328643
13384211,1958.0,1,191471,235886,-2.01,-0.87,9.99,-0.07,0.06,-0.04,28.23,11.464718,6.503877292966593,240.34151342514457,10.227272363636358,0.1004987562112089,0.19380523813436412,0.6896730012384272
13424200,1861.0,1,191558,235979,-1.87,-1.28,10.58,0.03,-0.02,0.03,28.23,11.504707,-57.01420134924959,273.4525458233022,10.819967652447026,0.04690415759823429,-1.6568813188200942,0.7846838365240307
13464176,1917.0,1,191619,236052,-1.96,-1.44,10.52,-0.02,0.02,0.02,28.23,11.544683,-28.848601119991322,206.83879244984024,10.797481187758558,0.034641016151377546,-0.8362378291696178,0.5935382306300278
13504178,1902.0,1,191466,235181,-1.65,-1.21,9.24,-0.04,-0.06,0.01,28.23,11.584685,-19.71197744219748,54.86295268965037,9.463836431384474,0.07280109889280519,-0.5700297356961075,0.15744939760257762
13544194,1891.0,1,190965,234683,-1.59,-0.88,8.69,-0.12,-0.06,-0.08,28.23,11.624701,-46.02539741844858,-118.5827106657461,8.877984005392214,0.15620499351813308,-1.3367074069753297,-0.34024626932500296
13584211,1933.0,1,191007,234777,-2.03,-0.93,9.85,-0.06,0.02,-0.03,28.23,11.664718,4.324542256755477,-237.69530059313703,10.09991584123353,0.06999999999999999,0.13030731532510695,-0.6820352696179284
13624200,1933.0,1,191096,234867,-1.89,-1.41,10.51,0.03,-0.02,0.04,28.23,11.704707,7.418167434302869,-261.52430798567144,10.771271976883696,0.053851648071345036,0.22044433852746756,-0.7504116907807274
13664178,1898.0,1,191155,234964,-1.88,-1.66,10.32,0.01,0.0,0.02,28.23,11.744685,-40.68805102677403,-201.37965410008016,10.620376641155437,0.022360679774997897,-1.1811964811408007,-0.5778289173136126
13704165,1915.0,1,191196,235120,-1.61,-1.23,9.2,0.01,-0.07,0.01,28.23,11.784672,2.5121476955063518,-100.90020614772614,9.420456464524422,0.07141428428542851,0.07750070778751941,-0.28950700200176444
13744178,1984.0,1,191207,235219,-1.44,-0.94,8.61,-0.09,-0.0,-0.07,28.23,11.824685,35.45221392492664,-4.19446292393555,8.780051252697788,0.1140175425099138,1.0372548291198436,-0.012013587416519731
13784211,1936.0,1,191308,235295,-2.02,-0.91,10.13,-0.1,0.04,-0.05,28.23,11.864718,31.811274478814184,62.29538034210488,10.369445501086354,0.11874342087037919,0.9311710521598919,0.17877646318506946
13824196,1981.0,1,191384,235318,-1.98,-1.38,10.73,-0.01,-0.03,0.03,28.23,11.904703,31.507668047131645,91.98581785189761,10.998077104657886,0.04358898943540673,0.9223250613218387,0.2639720328634519
13864194,1927.0,1,191441,235339,-1.87,-1.57,10.25,-0.02,-0.01,0.01,28.23,11.944701,18.02242560387033,95.63286940645357,10.536806916708686,0.024494897427831782,0.5294139808782278,0.2744371071734665
13904198,1979.0,1,191378,235487,-1.65,-1.14,9.03,-0.02,-0.04,0.01,28.23,11.984705,41.595269296708935,97.35864412158234,9.250027026987542,0.0458257569495584,1.2162411939187978,0.279389151411395
13944194,1963.0,1,191391,235556,-1.51,-0.88,8.55,-0.11,-0.0,-0.06,28.23,12.024701,39.01987728287136,122.21175893534462,8.726797809047715,0.12529964086141668,1.1412036064983044,0.3507042094714978
13984211,1927.0,1,191422,235732,-1.98,-0.67,9.71,-0.08,0.01,-0.04,28.23,12.064718,4.342703804679069,174.66362527893224,9.932441794443097,0.09000000000000001,0.13083647699551895,0.5012128246565193
14024223,1916.0,1,191429,235696,-1.87,-1.18,10.38,-0.03,-0.02,0.01,28.23,12.10473,-17.637821074753354,224.19301660108178,10.612902524757306,0.03741657386773942,-0.5095963380193228,0.643335510053873
14064198,1907.0,1,191498,235880,-1.94,-1.53,10.32,0.01,0.01,0.03,28.23,12.144705,-14.417662764728245,218.13871492099096,10.611639835576781,0.033166247903554,-0.41577259802244293,0.6259629239991878
14104164,1959.0,1,191545,235790,-1.76,-1.19,9.39,0.06,-0.02,0.07,28.23,12.184671,32.523627730667855,121.33783330522928,9.627346467225536,0.09433981132056604,0.9519264436199253,0.3481965134535574
14144178,1981.0,1,191268,234776,-1.59,-0.92,8.89,-0.06,-0.03,-0.03,28.23,12.224685,44.85201194872718,-47.4072396830891,9.077808105484495,0.07348469228349534,1.3111308690221706,-0.136010990020189
14184210,1977.0,1,190850,234564,-1.89,-0.85,9.74,-0.1,0.0,-0.04,28.23,12.264717,66.37577587231682,-217.70288038449098,9.95802189192211,0.1077032961426901,1.9382553255540453,-0.6246677879712392
14224195,1984.0,1,190951,234742,-1.89,-1.4,10.54,-0.02,-0.03,0.01,28.23,12.304702,34.005875120023745,-312.48640244129047,10.799245344004367,0.03741657386773942,0.9951137593605903,-0.8966454627727357
14264194,1831.5,1,191051,234863,-1.85,-1.68,10.28,0.05,-0.03,0.03,28.23,12.344701,-74.91855311239863,-298.91985566000415,10.579380889258122,0.06557438524302,-2.178549225459527,-0.8577167780331155
14304864,1904.0,1,191122,235005,-1.66,-1.36,9.29,0.02,-0.08,0.02,28.23,12.385371,-41.88303368807817,-204.1785575227501,9.534636857269394,0.08485281374238571,-1.216013944048115,-0.5858602631464416
14343176,1926.0,1,191088,235261,-1.54,-1.15,8.74,-0.08,-0.01,-0.05,28.23,12.423683,4.360597620791589,-89.5023254463353,8.948837913382944,0.09486832980505139,0.13135783793149106,-0.25680122125464827
14383211,1893.0,1,191264,235414,-1.83,-0.88,9.54,-0.06,0.05,-0.02,28.23,12.463718,-34.83441624827811,-8.853482372595229,9.75371211385696,0.0806225774829855,-1.010642783273067,-0.025382464717176107
14423194,1895.0,1,191282,235396,-1.86,-1.27,10.48,-0.04,-0.0,0.0,28.23,12.503701,-47.10306010009258,18.998062233673906,10.719277027859668,0.04,-1.3681065909633114,0.054536472427867806
14463196,1878.0,1,191269,235442,-1.91,-1.56,10.47,0.0,0.01,0.02,28.23,12.543703,-36.76151839343621,13.444911217067425,10.756514305294258,0.022360679774997897,-1.0667915539878003,0.03860191894700936
14503165,1954.0,1,191265,235516,-1.61,-1.25,9.29,0.02,-0.06,0.04,28.23,12.583672,3.548589493900679,13.739361549062933,9.510977867706348,0.07483314773547883,0.10769886466437482,0.03944683286139921
14543178,1917.0,1,191315,235545,-1.57,-0.91,8.74,-0.1,0.0,-0.05,28.23,12.623685,-0.16418523419840717,50.56987728281211,8.926399050008913,0.1118033988749895,-0.0004779320079100739,0.14513058266974935
14583193,1923.0,1,191343,235704,-2.0,-0.8,9.82,-0.1,0.03,-0.05,28.23,12.6637,-21.907402268868463,122.31550397993938,10.053477010467573,0.11575836902790226,-0.6339964566734582,0.35100190189090535
14623195,1931.0,1,191390,235705,-1.96,-1.26,10.55,-0.03,-0.03,0.01,28.23,12.703702,2.003997627740018,190.4865097828692,10.804244536292208,0.04358898943540673,0.0626950568699614,0.5466159837990391
14663194,1909.0,1,191416,235841,-1.92,-1.49,10.38,0.0,-0.02,0.02,28.23,12.743701,-26.672403586680584,200.99235884139577,10.66071761186835,0.0282842712474619,-0.7728313218213484,0.5767621140202949
14703178,1879.0,1,191458,235729,-1.67,-1.36,9.3,0.04,-0.08,0.04,28.23,12.783685,-60.54139779698569,121.8684452541474,9.54612486823842,0.09797958971132713,-1.759651037128673,0.3497190840539847
14743176,1900.0,1,191224,234819,-1.46,-1.09,8.57,-0.07,-0.04,-0.05,28.23,12.823683,-30.747487705056226,-27.746476645566997,8.761540960356232,0.09486832980505139,-0.8915645007453713,-0.07959518588322011
14783211,1943.0,1,190908,234315,-1.93,-0.75,9.61,-0.08,0.05,-0.03,28.23,12.863718,-1.2730572408478236,-182.14056879027189,9.830539151033376,0.09899494936611666,-0.03278644259193847,-0.5226231012147593
14823193,1933.0,1,190918,234480,-1.78,-1.21,10.36,-0.04,-0.03,-0.0,28.23,12.9037,1.6343175114454724,-267.8044270978798,10.581214486059716,0.05,0.05192391838113185,-0.7684322512805927
14863212,1953.0,1,191038,234671,-1.85,-1.5,10.47,-0.03,0.01,-0.01,28.23,12.943719,9.415168141521496,-248.23652572903828,10.737476426050957,0.033166247903554,0.2786296999565473,-0.7122829101340031
14903194,1975.0,1,191054,234864,-1.61,-1.33,9.37,0.02,-0.03,0.06,28.23,12.983701,38.56526132209812,-142.17640425060006,9.599890624376926,0.06999999999999999,1.127957745396001,-0.4079474665578107
14943178,1986.0,1,191172,235073,-1.42,-1.07,8.7,-0.1,-0.04,-0.04,28.23,13.023685,47.80758565064946,-6.531118317053596,8.8798254487349,0.11489125293076059,1.397245572664989,-0.018718530288887206
14983211,1986.0,1,191264,235192,-1.95,-0.86,9.66,-0.11,0.03,-0.05,28.23,13.063718,40.66856725251295,99.13376325049477,9.892305090321466,0.12449899597988733,1.1892404556698317,0.2844827875487812
15023214,1974.0,1,191310,235301,-1.91,-1.31,10.43,-0.03,-0.01,0.01,28.23,13.103721,45.13707106211296,143.62147451305557,10.684058217737302,0.033166247903554,1.3194364582395652,0.4121385657248744
15063230,1985.0,1,191319,235371,-2.0,-1.62,10.48,0.01,-0.01,0.01,28.23,13.143737,28.970339001898324,136.6160781088094,10.791422519760776,0.017320508075688773,0.8483964908272266,0.39203684990186594
15103178,1915.0,1,191313,235461,-1.65,-1.35,9.22,0.02,-0.07,0.02,28.23,13.183685,-4.292468715500464,118.81740559831215,9.46326582105776,0.07549834435270751,-0.12076114751854061,0.3409642429875812
15143176,1947.0,1,191281,235595,-1.42,-0.98,8.63,-0.08,-0.01,-0.04,28.23,13.223683,-15.903506986838838,133.80646863901532,8.800778374666642,0.09000000000000001,-0.4590647124309682,0.38397478347815844
15183211,1938.0,1,191304,235670,-1.92,-0.89,9.82,-0.06,0.04,-0.04,28.23,13.263718,21.95200081454841,194.87482011696127,10.045441752357135,0.0824621125123532,0.6439075577055016,0.559208071696538
15223194,1990.0,1,191359,235723,-1.9,-1.33,10.48,-0.01,-0.04,0.01,28.23,13.303701,30.097047576626185,267.9682039259836,10.733559521426246,0.042426406871192854,0.8812246943470396,0.768946728167208
15263226,1880.0,1,191400,235922,-1.91,-1.53,10.44,-0.03,-0.01,-0.0,28.23,13.343733,-42.65595725741214,288.13644356169215,10.7229939848906,0.03162277660168379,-1.238534134990555,0.8268187169045784
15303211,1907.0,1,191456,235926,-1.59,-1.3,9.21,0.01,-0.02,0.03,28.23,13.383718,-40.5444269592614,205.11983825495795,9.436217462521729,0.03741657386773942,-1.1770117964544462,0.5886057576128908
15343863,1950.0,1,191210,235050,-1.41,-1.05,8.6,-0.09,-0.03,-0.05,28.51,13.42437,15.781020476507932,26.368451318269678,8.777847116463125,0.10723805294763608,0.4641075606185097,0.0756855207235139
15382211,1939.0,1,190747,234329,-1.9,-0.93,9.65,-0.08,0.01,-0.06,28.51,13.462718,5.095824665796984,-179.5711401174869,9.87913963865275,0.1004987562112089,0.15277968880587323,-0.5152502243599238
15422195,1934.0,1,190742,234354,-1.83,-1.27,10.36,-0.01,-0.02,0.01,28.51,13.502702,-8.201040455139829,-325.9868335049224,10.59676365689072,0.024494897427831782,-0.23464275933787276,-0.9353844310008224
15462195,1897.0,1,190797,234510,-1.84,-1.6,10.53,-0.01,0.01,0.0,28.51,13.542702,-28.406275811582322,-362.8917788307669,10.808630810606864,0.01414213562373095,-0.8233500731232755,-1.0412817536639813
15502178,1904.0,1,190839,234608,-1.57,-1.44,9.5,0.03,-0.05,0.04,28.51,13.582685,-40.11889034479587,-300.6388835823839,9.735938578277905,0.07071067811865475,-1.1646132020901663,-0.8626494626084737
15542177,1919.0,1,190880,234778,-1.36,-1.16,8.71,-0.06,-0.02,-0.03,28.51,13.622684,-2.14497827482225,-190.70755251665076,8.891529677170292,0.06999999999999999,-0.05819106078562886,-0.5472057318598466
15582211,1978.0,1,190951,234951,-1.82,-0.87,9.5,-0.08,0.03,-0.05,28.51,13.662718,35.18846560794226,-87.53061609679986,9.711812395222633,0.09899494936611665,1.029570159257397,-0.2511434770325074
15622193,2001.0,1,191024,234946,-1.8,-1.12,10.28,-0.04,-0.04,-0.02,28.51,13.7027,82.11239268798028,-20.679274473694115,10.496323165756664,0.060000000000000005,2.396763293919061,-0.059316120784687135
15662211,2011.0,1,191081,235030,-2.0,-1.65,10.84,-0.0,0.06,0.03,28.51,13.742718,72.01708632603084,11.763538306681726,11.145766012257749,0.0670820393249937,2.1026226622788093,0.0337772839818
15702177,1898.0,1,191130,235130,-1.69,-1.42,9.5,0.06,-0.05,0.06,28.51,13.782684,-21.7344020339064,33.82876670247366,9.753076437719537,0.09848857801796104,-0.6289558569569947,0.0970926090807678
15742178,1876.0,1,191134,235255,-1.41,-1.05,8.58,-0.1,-0.03,-0.05,28.51,13.822685,-55.59414731842473,73.7755906512495,8.758253250506062,0.11575836902790226,-1.6155060920944884,0.21171848557839468
15782211,1892.0,1,191192,235350,-1.89,-0.8,9.45,-0.1,0.04,-0.05,28.51,13.862718,-31.471543003798672,143.06144527158597,9.670294721465318,0.11874342087037919,-0.9126608474315205,0.41053158333373185
15822195,1929.0,1,191197,235458,-1.93,-1.15,10.21,-0.03,-0.01,0.0,28.51,13.902702,5.536088746498685,220.9839990941584,10.454257505915951,0.03162277660168379,0.16560738814882872,0.6341273576135438
15862194,1985.0,1,191275,235522,-1.97,-1.43,10.46,0.0,0.01,0.01,28.51,13.942701,59.33782487768825,258.4657031677159,10.73952512916656,0.01414213562373095,1.7331949463251544,0.7416796673432354
15902169,1971.0,1,191274,235634,-1.72,-1.39,9.37,0.03,-0.04,0.04,28.51,13.982676,51.35546504790595,207.313474474171,9.627429563492012,0.06403124237432849,1.5006179171463647,0.5949003124607722
15942176,1927.0,1,191253,235356,-1.53,-0.96,8.69,-0.1,-0.01,-0.04,28.51,14.022683,4.2445388193451885,59.78317329162877,8.875730955814287,0.10816653826391968,0.12797630517350322,0.17156778157689953
15982211,1918.0,1,190815,234274,-1.98,-0.76,9.63,-0.08,0.03,-0.03,28.51,14.062718,-3.701510205809073,-133.89185151718235,9.860775831545915,0.09055385138137417,-0.10354275878603253,-0.38417526079555725
16022197,1895.0,1,190589,234175,-1.91,-1.19,10.35,-0.04,-0.03,-0.0,28.51,14.102704,-20.69137178958937,-290.86950320288264,10.591822317240787,0.05,-0.5985657366492388,-0.83461660096533
16062212,1869.0,1,190705,234378,-1.95,-1.44,10.45,-0.03,0.01,0.0,28.51,14.142719,-58.06501462290368,-347.71226975301465,10.7274694126807,0.03162277660168379,-1.6874982083890493,-0.9977247355873451
16102176,1840.0,1,190850,234639,-1.7,-1.37,9.36,0.03,-0.04,0.06,28.51,14.182683,-68.54004170025877,-297.3527284478022,9.61126942708402,0.07810249675906654,-1.992702525178796,-0.8532199667093348
16142176,1873.0,1,190811,234799,-1.46,-0.98,8.62,-0.1,-0.05,-0.05,28.51,14.222683,-57.908040674453545,-184.61623289281533,8.79752237848816,0.12247448713915891,-1.68292455656584,-0.5297269242378773
16182211,1905.0,1,190874,235043,-1.94,-0.79,9.51,-0.11,0.03,-0.05,28.51,14.262718,-1.6004881802626676,-71.3045023109656,9.737956664516432,0.12449899597988733,-0.04232659322085363,-0.20458326695832263
16222198,1968.0,1,191040,235129,-1.94,-1.32,10.39,-0.02,-0.02,0.02,28.51,14.302705,39.2322912426227,-0.4453176299953933,10.651671230375072,0.034641016151377546,1.1473925792793545,-0.001255559043953384
16262194,1904.0,1,191029,235186,-1.88,-1.55,10.25,-0.0,-0.01,0.01,28.51,14.342701,-8.113330417107179,21.038907622022947,10.535625278074386,0.01414213562373095,-0.2320872067807602,0.060392599857062766
16302198,1909.0,1,191020,235215,-1.69,-1.41,9.51,0.05,-0.06,0.04,28.51,14.382705,-13.163737640872027,19.0566234710631,9.761367732034277,0.08774964387392122,-0.379237765424314,0.05470451164853601
16342176,1935.0,1,191058,235272,-1.4,-1.16,8.73,-0.05,-0.01,-0.02,28.51,14.422683,15.50672066147123,34.06026484484602,8.917314618202052,0.05477225575051661,0.4561154583522721,0.0977568841057618
16382897,1922.0,1,191083,235308,-1.81,-0.8,9.45,-0.09,0.02,-0.04,28.43,14.463404,2.647957833983653,95.58294538724819,9.654977990653318,0.1004987562112089,0.08145772290747953,0.2742938521185205
16421193,1933.0,1,191194,235306,-1.84,-1.13,10.19,-0.07,-0.01,-0.01,28.43,14.5017,12.369365698145558,200.35495654246222,10.416266125632543,0.07141428428542851,0.3647043077139381,0.5749331126135611
16461212,1943.0,1,191278,235278,-1.97,-1.51,10.55,-0.01,0.0,0.01,28.43,14.541719,18.127913866931276,306.4985752095058,10.838057944115265,0.01414213562373095,0.5324875264661387,0.8795081481643559
16501176,1920.0,1,191286,235467,-1.78,-1.49,9.84,0.06,-0.06,0.06,28.43,14.581683,3.4714758116783644,351.66618401990564,10.110098911484496,0.10392304845413264,0.10545205150351131,1.009114866231179
16541178,1909.0,1,191320,235519,-1.47,-1.22,8.81,-0.05,-0.03,-0.03,28.43,14.621685,-22.89671720537771,289.95740205714134,9.014732386488243,0.06557438524302,-0.6628215076310768,0.8320438873430173
16581211,1888.0,1,191233,234955,-1.87,-0.87,9.47,-0.09,0.03,-0.04,28.43,14.661718,-29.267120931138518,126.37730013956777,9.691991539410257,0.10295630140987,-0.8484319793212951,0.3626570699099981
16621195,1900.0,1,190765,233909,-1.84,-1.19,10.24,-0.01,0.01,0.02,28.43,14.701702,-30.518087275780985,-77.73869387625766,10.471833650321228,0.024494897427831782,-0.8848806038187866,-0.22304593244259174
16661176,1840.0,1,190640,233912,-1.93,-1.6,10.6,0.02,-0.0,0.02,28.43,14.741683,-88.2185158696678,-237.46404357948728,10.892423972651818,0.0282842712474619,-2.566061927496986,-0.6813716865025393
16701202,1870.0,1,190720,234146,-1.66,-1.6,9.78,0.06,-0.06,0.05,28.43,14.781709,-52.08479865604754,-293.37002344923326,10.048084394550036,0.09848857801796104,-1.513256393552584,-0.8417917477380883
16741177,1966.0,1,190765,234412,-1.47,-1.31,8.87,-0.06,-0.03,-0.03,28.43,14.821684,25.1466362974509,-241.02149430183093,9.085917675171837,0.07348469228349534,0.7369876550409376,-0.6915796546671337
16781212,1936.0,1,190820,234606,-1.85,-0.92,9.43,-0.09,0.04,-0.04,28.43,14.861719,17.13066219587385,-123.81636425161886,9.653693593645906,0.1063014581273465,0.5034312278346542,-0.3552640372039934
16821193,1997.0,1,190854,234899,-1.88,-1.16,10.3,-0.06,-0.01,-0.01,28.43,14.9017,53.39738459758133,-2.2448736841674912,10.534229919647663,0.06164414002968976,1.5601120508126671,-0.006419315999464958
16861212,1983.0,1,191018,234949,-1.99,-1.53,10.6,-0.02,0.02,-0.0,28.43,14.941719,56.4692831075692,76.80894014414555,10.893162993364232,0.0282842712474619,1.6496160376820757,0.22042256540192962
16901221,1964.0,1,191017,235040,-1.64,-1.42,9.51,0.05,-0.06,0.04,28.43,14.981728,25.535816523660525,97.49919222750759,9.754286237342024,0.08774964387392122,0.7483269560442891,0.2797924488012556
16941178,1986.0,1,190967,235181,-1.45,-1.09,8.62,-0.06,-0.01,-0.03,28.43,15.021685,49.6596589679912,77.21144381900108,8.80880241576572,0.06782329983125268,1.451208275318597,0.2215775342320672
16981211,1968.0,1,191001,235125,-1.86,-0.72,9.35,-0.08,0.06,-0.05,28.43,15.061718,31.78807783766294,54.32458215691128,9.560360871849975,0.11180339887498948,0.9304951861251693,0.15590456404397368
17021199,1966.0,1,190916,235062,-1.87,-1.13,10.23,-0.04,-0.0,-0.0,28.43,15.101706,26.003617233076415,64.13000959067395,10.460721772420868,0.04,0.7619569729269839,0.1840408613243327
17061211,1971.0,1,190964,235227,-1.94,-1.44,10.41,-0.02,0.04,0.0,28.43,15.141718,31.96623754945531,112.7502564778818,10.686687980847948,0.044721359549995794,0.935686114293231,0.32355479169646184
17101178,1941.0,1,190976,235422,-1.75,-1.34,9.71,0.03,-0.04,0.03,28.43,15.181685,-0.4004490624375314,166.42374754412097,9.957017625775302,0.05830951894845301,-0.007361803500303322,0.4775688120862792
17141177,1951.0,1,191005,235564,-1.6,-1.12,8.88,-0.08,-0.02,-0.04,28.43,15.221684,12.005144268890694,169.76149251452813,9.092238448259044,0.09165151389911681,0.354092215577563,0.487146343037152
17181211,1968.0,1,191076,235473,-1.95,-0.74,9.44,-0.12,0.04,-0.05,28.43,15.261718,19.305194006611867,86.71339191873739,9.667662592374642,0.13601470508735444,0.566789202065442,0.2488430092236181
17221193,1905.0,1,190750,234235,-1.87,-1.1,10.05,-0.1,-0.04,-0.02,28.43,15.3017,-25.687903932511837,-65.12379148318504,10.28150767154312,0.10954451150103323,-0.7441465707356086,-0.1868479547111914
17261211,1938.0,1,190460,233932,-2.07,-1.37,10.38,-0.04,0.02,-0.01,28.43,15.341718,-24.662536206246774,-217.81700577751502,10.672684760640127,0.0458257569495584,-0.7142710721768017,-0.6249952664016344
17301194,1936.0,1,190517,234154,-1.9,-1.45,9.71,0.09,-0.04,0.06,28.43,15.381701,17.92946329619564,-295.70846830080603,9.999829998554977,0.11532562594670795,0.5267053962233595,-0.8485018253927377
17341178,1983.0,1,190542,234477,-1.59,-1.24,8.81,-0.04,-0.04,-0.02,28.43,15.421685,7.598607212274841,-264.2266191282913,9.037798404478826,0.060000000000000005,0.22570169955870364,-0.7581658687771886
17381211,1919.0,1,190690,234737,-1.91,-0.81,9.35,-0.13,0.04,-0.05,28.43,15.461718,7.675175254454501,-147.57467954040368,9.57740570300747,0.1449137674618944,0.22793261474668353,-0.4234376100911913
17421884,1986.0,1,190742,234952,-1.92,-1.09,10.08,-0.09,-0.03,-0.03,28.31,15.502391,9.193302820502629,-7.16071254471577,10.318958280756833,0.09949874371066199,0.27216534876959086,-0.02052512673510692
17462211,1859.0,1,190818,235097,-2.04,-1.45,10.43,-0.02,-0.0,-0.01,28.31,15.542718,-58.66871943816807,97.24483921897755,10.726089688232147,0.022360679774997897,-1.7050879782602668,0.279062592615944
17502211,1913.0,1,190892,235122,-1.76,-1.45,9.52,0.06,-0.05,0.04,28.31,15.582718,-52.22385824017471,136.74430407778604,9.789305389045742,0.08774964387392122,-1.5173080857394565,0.3924047893931895
17542176,1923.0,1,190806,235135,-1.44,-1.17,8.73,-0.08,-0.02,-0.04,28.31,15.622683,-9.18153425993606,121.02337912780793,8.924987394949081,0.09165151389911681,-0.2632107944942051,0.3472941992732991
17582211,1941.0,1,190859,235246,-1.88,-0.79,9.47,-0.11,0.03,-0.05,28.31,15.662718,-9.984577139452137,87.20079714054306,9.687073861595152,0.12449899597988733,-0.28660855295207255,0.25024159978067056
17622194,1968.0,1,190831,235307,-1.89,-1.28,10.28,-0.05,-0.02,-0.01,28.31,15.702701,25.245038478967416,77.12013834392472,10.530379860194977,0.05477225575051661,0.7398547378998729,0.22131553667944376
17662212,1943.0,1,190765,235315,-1.98,-1.56,10.49,-0.01,0.0,0.01,28.31,15.742719,-0.924919771516664,110.79613769474777,10.78860973434483,0.01414213562373095,-0.022642978742968965,0.317947522928751
17702176,1885.0,1,190785,235509,-1.76,-1.58,9.57,0.06,-0.06,0.05,28.31,15.782683,-59.93048021350035,167.79602006003103,9.857935889424317,0.09848857801796104,-1.7418511133379688,0.48150649534569173
17742178,1892.0,1,190844,235647,-1.43,-1.23,8.69,-0.06,-0.01,-0.03,28.31,15.822685,-50.94957930807603,192.35400841036383,8.892350645358064,0.06782329983125268,-1.4801802169522245,0.5519746993582331
17782211,1899.0,1,190862,235668,-1.82,-0.82,9.42,-0.09,0.01,-0.05,28.31,15.862718,-44.43538852618155,128.50588014326712,9.629184804540829,0.10344080432788601,-1.2903803116780723,0.36876494844703095
17822198,1933.0,1,190777,234727,-1.84,-1.29,10.26,-0.04,-0.02,0.0,28.31,15.902705,-10.045862280708592,-33.90078202711871,10.503204272982602,0.044721359549995794,-0.28839417980806176,-0.09725472871693881
17862194,1983.0,1,190216,233948,-1.95,-1.55,10.47,-0.02,0.01,0.0,28.31,15.942701,41.72532278929763,-239.77882758357543,10.762244189758938,0.022360679774997897,1.2200304812455542,-0.6880138702644207
17902178,1979.0,1,190214,234159,-1.66,-1.53,9.5,0.07,-0.07,0.04,28.31,15.982685,34.876552410769264,-397.87408213204867,9.764553241188253,0.10677078252031312,1.0204821393851917,-1.1416621289087605
17941176,1947.0,1,190222,234138,-1.38,-1.36,8.83,-0.01,-0.03,-0.02,28.31,16.021683,10.193253927176041,-438.9565317522981,9.040071902368918,0.03741657386773942,0.30130029916940115,-1.2595466396380546
17981211,1968.0,1,190252,234345,-1.77,-0.88,9.36,-0.07,0.02,-0.04,28.31,16.061718,20.104041036796495,-358.06241336498397,9.56644657121964,0.08306623862918075,0.5900647086838535,-1.027424075012167
18021197,1987.0,1,190415,234542,-1.84,-1.19,10.02,-0.05,-0.0,-0.0,28.31,16.101704,56.92941973441044,-211.2465903686975,10.256807495512431,0.05,1.6630227509810431,-0.6061417118323155
18061211,2000.0,1,190494,234756,-1.96,-1.54,10.52,-0.04,0.01,-0.01,28.31,16.141718,47.97137256791329,-74.72000458761468,10.811271895572693,0.042426406871192854,1.4020177297022411,-0.21438391951189162
18101194,1928.0,1,190605,234749,-1.85,-1.64,9.97,0.09,-0.05,0.06,28.31,16.181701,2.524275710879383,1.8284907426297163,10.271952102692069,0.11916375287812986,0.0778540741911198,0.005269046717796616
18141178,1939.0,1,190531,234756,-1.49,-1.41,8.87,-0.01,-0.04,-0.01,28.31,16.221685,-12.527333159238479,18.80731356741336,9.10412543850314,0.042426406871192854,-0.36069524581223644,0.05398912645891404
18181211,1904.0,1,190611,234728,-1.89,-0.88,9.28,-0.08,0.04,-0.05,28.31,16.261718,-23.104358579838166,17.51139279452747,9.511303801267205,0.10246950765959599,-0.6688714245774958,0.05027053159254846
18221198,1927.0,1,190575,234666,-1.86,-1.07,10.06,-0.06,0.01,-0.01,28.31,16.301705,-17.748022887409043,48.024933373556976,10.286306431367871,0.06164414002968976,-0.5128072193556852,0.13782796390311758
18261193,1939.0,1,190662,234814,-2.04,-1.46,10.57,-0.05,0.01,-0.0,28.31,16.3417,5.12350478907715,134.19935171512856,10.863613579283829,0.050990195135927854,0.15358618725709366,0.38510214636984447
18301198,1930.0,1,190803,234979,-1.83,-1.53,9.79,0.05,-0.05,0.04,28.31,16.381705,-5.1206823323985695,254.73520272356626,10.07640312810082,0.08124038404635961,-0.1448922900191456,0.7309751396507768
18341179,1933.0,1,190778,235179,-1.55,-1.24,8.88,-0.05,-0.02,-0.03,28.31,16.421686,-8.350990632576874,350.96191847563114,9.099148311792703,0.061644140029689765,-0.23901176393511245,1.0070940033109363
18381211,1947.0,1,190827,235327,-1.87,-0.75,9.34,-0.08,0.01,-0.05,28.31,16.461718,19.91034971376776,359.45700247557744,9.554841704601913,0.09486832980505139,0.5844212456668574,1.0314703204535325
18421879,1978.0,1,190868,235227,-1.88,-1.05,10.16,-0.08,-0.0,-0.01,28.27,16.502386,32.041721997605805,253.48461112298756,10.38568726661842,0.0806225774829855,0.9378854574792572,0.7273866151027245
18460211,1948.0,1,190544,233880,-1.94,-1.44,10.53,-0.07,0.02,-0.0,28.27,16.540718,24.745177344938146,67.03633222877505,10.803615135684906,0.07280109889280519,0.7252905964638134,0.19238044246861646
18500194,1951.0,1,190165,233557,-1.93,-1.53,9.84,0.05,-0.08,0.05,28.27,16.580701,4.773846683345246,-119.19447714360291,10.143539816060269,0.10677078252031312,0.1433984175757528,-0.342001709728128
18540225,1906.0,1,190228,233919,-1.52,-1.28,8.76,-0.03,-0.01,-0.02,28.27,16.620732,-18.010653209415324,-224.38267106901858,8.982560882064758,0.03741657386773942,-0.5204593148972309,-0.6438351906918284
18580211,1935.0,1,190246,234083,-1.77,-0.74,9.05,-0.08,0.02,-0.05,28.27,16.660718,-8.049695290071934,-213.89835231391936,9.251108041742892,0.09643650760992956,-0.23023310985793638,-0.6137508408490272
18620195,1928.0,1,190338,234156,-1.9,-1.07,10.02,-0.09,-0.01,-0.01,28.27,16.700702,0.6552759139823101,-113.20716042370019,10.254525830090829,0.09110433579144298,0.023398195282195958,-0.3248213344430291
18660211,1945.0,1,190335,234390,-2.03,-1.45,10.45,-0.05,0.01,-0.01,28.27,16.740718,5.928511027316827,14.652945208652161,10.74364463299117,0.05196152422706632,0.1770411508709406,0.04206832607118752
18700198,1967.0,1,190461,234618,-1.81,-1.57,9.65,0.05,-0.03,0.04,28.27,16.780705,36.00834251279067,106.99087696945557,9.943012621937076,0.07071067811865475,1.0534584001896707,0.30702847348196816
18740177,1936.0,1,190490,234707,-1.5,-1.32,8.87,-0.04,-0.03,-0.02,28.27,16.820684,0.7924550759402964,131.96007893508718,9.092265944196749,0.05385164807134504,0.027395098783637665,0.3786766391640986
18780211,1855.0,1,190425,234718,-1.83,-0.84,9.19,-0.09,-0.0,-0.06,28.27,16.860718,-80.73122514568689,100.44741436800545,9.40800722788838,0.10816653826391967,-2.3479094174229216,0.2882522589578183
18820211,1831.5,1,190386,234772,-1.71,-1.06,9.58,-0.11,-0.01,-0.06,28.27,16.900718,-98.07004614394504,57.17730192689073,9.788978496247706,0.12569805089976535,-2.8530998076370993,0.16409033381769367
18860211,1884.0,1,190364,234954,-1.98,-1.42,10.53,-0.11,0.04,-0.03,28.27,16.940718,-59.03270385804997,53.87998299073734,10.808223720852562,0.12083045973594572,-1.7156931648026787,0.15462880381887664
18900195,1926.0,1,190385,235039,-2.0,-1.81,10.2,0.04,-0.03,0.04,28.27,16.980702,3.488603525926464,114.44396776897226,10.550644530074928,0.06403124237432849,0.10595109100829331,0.3284148311710424
18940177,1981.0,1,190429,235073,-1.61,-1.56,9.12,-0.04,-0.05,-0.01,28.27,17.020684,31.1138281345818,210.6680703545494,9.391490829468982,0.06480740698407861,0.9108499939500168,0.6045261964503675
18981211,1951.0,1,190427,235169,-1.78,-1.16,9.15,-0.07,-0.0,-0.05,28.27,17.061718,32.0845058213993,269.0304161824387,9.393428554047771,0.08602325267042628,0.9391320230121305,0.7719947054251454
19021215,1984.0,1,190467,235220,-1.81,-1.12,9.75,-0.04,0.0,-0.0,28.27,17.101722,32.86349366060714,214.58634022327848,9.979629251630543,0.04,0.96182890479556,0.6157695212922434
19061194,1911.0,1,190474,234556,-1.95,-1.53,10.36,-0.01,0.02,0.0,28.27,17.141701,-10.775750000218796,29.193251641100314,10.652370628174744,0.022360679774997897,-0.30966046209270726,0.08379117671635193
19101178,1947.0,1,189851,233173,-1.87,-1.7,9.97,0.03,-0.06,0.04,28.27,17.181685,-0.30979370578586796,-220.82195510985676,10.285319635286013,0.07810249675906654,-0.004720435035489006,-0.6336178530556401
19141176,1987.0,1,189580,233147,-1.47,-1.43,8.81,-0.05,-0.02,-0.02,28.27,17.221683,60.2784384321395,-418.261759563325,9.04554586523113,0.057445626465380296,1.7606010155533742,-1.2001637859693477
19181211,1985.0,1,189724,233339,-1.83,-0.85,9.17,-0.08,0.02,-0.05,28.27,17.261718,40.26709616154134,-470.63504029040405,9.389371650967917,0.09643650760992956,1.1775430434220187,-1.350446902747188
19221192,1925.0,1,189856,233566,-1.8,-1.08,9.93,-0.08,-0.02,-0.03,28.27,17.301699,-2.8097302806058964,-369.0013819801075,10.149448260866203,0.08774964387392122,-0.07755952449093126,-1.0588130251599044
19261211,1905.0,1,189938,233700,-2.01,-1.49,10.61,-0.03,0.02,-0.0,28.27,17.341718,-41.43903519565469,-186.01698267141802,10.90102288778443,0.03605551275463989,-1.203077437484926,-0.5337463219084425
19301193,1869.0,1,190086,233939,-1.75,-1.77,9.7,0.09,-0.06,0.06,28.27,17.3817,-56.42274201796494,-21.701232303954765,10.014259832858343,0.1236931687685298,-1.6396483379618498,-0.06224858951330128
19341178,1936.0,1,190108,234042,-1.49,-1.53,8.95,-0.03,-0.05,-0.03,28.27,17.421685,-13.365523951049354,58.33199483141858,9.201277085274631,0.06557438524302,-0.38511708702228215,0.16740368074201534
19381211,1902.0,1,190148,234147,-1.91,-0.98,9.3,-0.05,0.02,-0.03,28.27,17.461718,-21.059595118089636,53.42987782438918,9.544553420668775,0.061644140029689765,-0.6092944296226366,0.15333724433782936
19421881,1904.0,1,190084,234265,-1.8,-1.14,9.95,-0.05,0.03,-0.0,28.25,17.502388,-47.139201778122406,17.164575391524696,10.17556386644003,0.05830951894845301,-1.3691596284465821,0.04927535237993319
19460193,1914.0,1,190078,234336,-2.0,-1.5,10.61,-0.04,0.03,0.01,28.25,17.5407,-7.157082344396743,18.46787767018159,10.900555031740357,0.05099019513592785,-0.20422560436600137,0.053015128193498934
19500176,1953.0,1,190202,234471,-1.94,-1.75,10.23,0.06,-0.03,0.06,28.25,17.580683,0.531100727274735,96.52776467254117,10.558361615326499,0.09,0.019780180479804243,0.277004974756141
19540176,1910.0,1,190224,234647,-1.57,-1.56,8.91,-0.03,-0.02,-0.01,28.25,17.620683,-8.896373706199494,230.9155878718321,9.18077338790148,0.03741657386773942,-0.2549022496727124,0.6626256700229269
19580211,2004.0,1,190289,234785,-1.88,-0.96,9.1,-0.1,0.02,-0.05,28.25,17.660718,50.6343060753805,343.9632513717958,9.341627267237758,0.11357816691600547,1.479605958906921,0.987011596956906
19620193,1988.0,1,190329,234940,-1.91,-1.0,9.84,-0.08,0.01,-0.02,28.25,17.7007,70.83536798134293,341.6391918287569,10.073415508158094,0.08306623862918075,2.068191673474201,0.980342797392387
19660195,1969.0,1,190374,234863,-2.06,-1.4,10.56,-0.04,0.02,0.0,28.25,17.740702,16.6756178287321,177.10265023613215,10.849755757619615,0.044721359549995794,0.49017288452375685,0.5082115130598108
19700176,1941.0,1,190020,233300,-1.89,-1.75,9.89,0.06,-0.07,0.06,28.25,17.780683,23.164482189361813,-104.14806796404551,10.219916829407175,0.11,0.6792348696911863,-0.29882661669544247
19740178,1999.0,1,189368,232606,-1.66,-1.56,8.98,-0.02,-0.02,-0.01,28.25,17.820685,51.51018502328546,-379.21323003909026,9.264426587760303,0.030000000000000002,1.5051258963650067,-1.0881155308089763
19780210,1968.0,1,189419,233042,-1.89,-0.84,9.11,-0.07,0.01,-0.06,28.25,17.860717,45.742358141418286,-522.3326405450599,9.341830655711973,0.09273618495495704,1.3370723295491875,-1.4987911803701768
19820198,2003.0,1,189617,233384,-1.77,-0.98,9.61,-0.11,0.01,-0.04,28.25,17.900705,63.73342310003706,-484.4894636287286,9.820661892153705,0.1174734012447073,1.8612667443670297,-1.3902016382065332
19860194,1953.0,1,189737,233702,-1.99,-1.39,10.52,-0.1,0.03,-0.02,28.25,17.940701,25.45259841094267,-315.8908713383744,10.796416072012045,0.1063014581273465,0.7459022819075042,-0.9064144554675633
19900198,1911.0,1,189880,234138,-1.92,-1.64,9.95,0.05,-0.04,0.06,28.25,17.980705,-22.18899294663178,-119.97716013420062,10.265403060766781,0.08774964387392122,-0.6422009882499833,-0.3442475884976664
19940176,1936.0,1,189986,234286,-1.53,-1.58,8.94,-0.02,-0.08,-0.02,28.25,18.020683,8.5241975534492,17.015537368099128,9.20656830746397,0.08485281374238571,0.25267004681157185,0.04884769349800215
19981217,1921.0,1,190012,234477,-1.95,-0.93,9.29,-0.07,0.02,-0.03,28.25,18.061724,-12.800845800965867,69.1047826622225,9.537898091298732,0.07874007874011811,-0.3686644127017643,0.1983157815140896
20021197,1886.0,1,190071,234585,-1.9,-1.13,10.07,-0.04,-0.0,-0.01,28.25,18.101704,-35.84365656678126,68.16205073576906,10.309791462488464,0.04123105625617661,-1.0400483876319624,0.19561064847245926
20061211,1927.0,1,190069,234694,-2.08,-1.51,10.61,-0.05,0.01,0.01,28.25,18.141718,-9.844964228382212,71.97095867206909,10.916895163003078,0.05196152422706632,-0.28254073882391245,0.20654016345109721
20101176,1911.0,1,190213,234821,-1.94,-1.77,9.89,0.03,-0.03,0.06,28.25,18.181683,-6.85639396103779,127.25949907967988,10.232722023000528,0.07348469228349534,-0.19546463487809673,0.3651885058730999
20141178,1958.0,1,190252,234868,-1.71,-1.46,9.02,-0.04,-0.05,-0.02,28.25,18.221685,22.163755344149436,242.44542981287483,9.296026032665786,0.0670820393249937,0.6500773170824229,0.695710108477054
20181217,1934.0,1,190277,235007,-1.98,-0.82,9.24,-0.03,0.01,-0.02,28.25,18.261724,15.41597068497142,376.8815423092333,9.485272795233673,0.03741657386773942,0.4534713330080822,1.0814693680264202
20221195,1881.0,1,190426,235078,-1.85,-1.21,9.94,-0.03,-0.02,0.01,28.25,18.301702,-51.63583962173191,454.3354053287723,10.182838504071446,0.03741657386773942,-1.5001753547807506,1.3037202520548077
20259194,1838.0,1,190458,235187,-2.02,-1.48,10.48,-0.06,-0.0,-0.02,28.25,18.339701,-80.65863733355478,404.5787748421777,10.775026682101535,0.06324555320336758,-2.3457944717100903,1.1609455126059853
20299211,1876.0,1,190495,234832,-1.96,-1.68,9.99,0.06,-0.07,0.05,28.25,18.379718,-57.576169211444906,215.46927188885206,10.31814421298714,0.10488088481701516,-1.6732550251764144,0.6183030597829045
20339176,1919.0,1,189896,233415,-1.51,-1.62,8.98,-0.02,-0.04,-0.01,28.25,18.419683,4.98556313934628,-44.809955315246945,9.249048599720947,0.0458257569495584,0.14956706762598806,-0.12855818231864918
20379211,1951.0,1,189587,233082,-1.88,-0.96,9.06,-0.06,-0.0,-0.04,28.25,18.459718,12.309672205104498,-263.9385701203533,9.302666284458452,0.07211102550927978,0.36296505571717946,-0.7573393232162322
20419211,1846.0,1,189711,233280,-1.72,-1.06,9.45,-0.05,-0.0,-0.04,28.25,18.499718,-62.825295953280204,-358.47566158271906,9.663565594541177,0.06403124237432849,-1.8261955502131428,-1.0286098748952743
20459898,1831.5,1,189852,233377,-1.94,-1.37,10.64,-0.08,0.04,-0.03,28.39,18.540405,-109.80694876784185,-323.4445969716962,10.901839294357627,0.09433981132056604,-3.195070603521543,-0.9280895809456838
20500194,1838.0,1,189934,233636,-1.91,-1.85,10.18,0.04,-0.04,0.05,28.39,18.580701,-71.58917802622224,-218.79025753407,10.521549315571352,0.0754983443527075,-2.0815433045192404,-0.6277879749231184
20540178,1949.0,1,189945,233938,-1.5,-1.57,8.94,-0.02,-0.04,-0.02,28.39,18.620685,11.362282499244191,-112.5491491147362,9.199918477899681,0.048989794855663564,0.3353615540006242,-0.32293319627384526
20580211,1951.0,1,190037,234177,-1.83,-0.99,9.11,-0.06,0.03,-0.05,28.39,18.660718,35.35062751838014,-34.22106437628069,9.344575966837661,0.08366600265340755,1.0342949694864327,-0.0981737666120788
20620198,1965.0,1,190125,234282,-1.77,-1.03,9.75,-0.06,0.01,-0.02,28.39,18.700705,32.339344286245804,29.335614710123423,9.962745605504539,0.06403124237432849,0.9465570920817243,0.08419968207308796
20660194,1968.0,1,190239,234497,-2.11,-1.42,10.61,-0.03,0.04,0.01,28.39,18.740701,48.91130719547058,106.45649557310617,10.910572853888103,0.05099019513592785,1.4294040174618983,0.30549508659696517
20700178,1973.0,1,190406,234866,-1.95,-1.74,10.2,0.09,-0.01,0.09,28.39,18.780685,38.775873567067116,212.85793433139293,10.529487166999159,0.12767145334803703,1.1340942227395563,0.6108099269937056
20740176,1946.0,1,190578,235157,-1.6,-1.61,9.14,0.01,-0.1,0.02,28.39,18.820683,31.197076857373816,341.62658607702923,9.417627089665423,0.10246950765959599,0.9132755599534004,0.9803066256721384
20780178,1955.0,1,190665,235358,-1.72,-0.84,8.74,-0.07,-0.05,-0.04,28.39,18.860685,12.61624974665059,466.3010250725514,8.947155972709988,0.09486832980505139,0.37189761392630644,1.338055138170579
20820211,1904.0,1,190713,235523,-1.97,-1.08,9.94,-0.08,-0.01,-0.03,28.39,18.900718,-3.6873540327880745,545.5089819771939,10.190726176284004,0.08602325267042626,-0.10313029922069437,1.5653393272070677
20860211,1963.0,1,190653,235575,-2.0,-1.45,10.57,-0.04,0.02,0.0,28.39,18.940718,14.326561815707445,529.875117398828,10.85483302497095,0.044721359549995794,0.42172990769308855,1.5204785534785143
20900176,1930.0,1,190706,235559,-1.99,-1.64,10.02,0.02,-0.07,0.04,28.39,18.980683,23.47110891526927,382.109511805833,10.346501824288245,0.08306623862918075,0.6881688609543088,1.0964708256296338
20940178,1981.0,1,190620,235159,-1.61,-1.44,8.98,-0.05,-0.06,-0.02,28.39,19.020685,34.28206704520435,108.887462614148,9.236130142002116,0.0806225774829855,1.003160990857473,0.31247065311943967
20980210,1919.0,1,189999,233780,-1.92,-0.87,9.1,-0.08,0.01,-0.06,28.39,19.060717,5.960828696792286,-221.59741503596447,9.34094748941455,0.1004987562112089,0.17798277060706685,-0.6358430055191466
21019198,1881.0,1,189686,233663,-1.82,-0.93,9.45,-0.07,0.0,-0.03,28.39,19.099705,-58.50107056414707,-503.8853216473469,9.668495229351876,0.07615773105863909,-1.700203297802804,-1.445857307569849
21059193,1879.0,1,189730,233857,-2.02,-1.38,10.52,-0.07,0.04,-0.02,28.39,19.1397,-41.6748681906938,-652.9146092117827,10.800703680779321,0.08306623862918075,-1.2099487560596522,-1.8734911222830166
21099198,1966.0,1,189838,234138,-1.99,-1.74,10.33,0.04,-0.03,0.05,28.39,19.179705,31.31167354484161,-650.7711434508883,10.662860779359356,0.07071067811865477,0.9166144920102527,-1.8673405296376482
21139177,1958.0,1,189915,234408,-1.56,-1.57,8.95,-0.03,-0.04,-0.01,28.39,19.219684,35.1526384392098,-546.3662656106113,9.219598689747835,0.05099019513592785,1.0285262854349475,-1.567754744083947
21179211,1926.0,1,190017,234695,-1.81,-0.97,8.99,-0.07,0.01,-0.05,28.39,19.259718,-9.971543855383677,-414.7844089104028,9.221556267789078,0.08660254037844388,-0.28622881030030983,-1.1901856618763804
21219194,1920.0,1,190144,234882,-1.81,-0.9,9.53,-0.07,0.0,-0.03,28.39,19.299701,0.30877683902334874,-312.1790645440435,9.74202237730955,0.07615773105863909,0.013302468306010283,-0.8957635684850185
21259194,1977.0,1,190245,234968,-2.05,-1.32,10.53,-0.06,0.05,0.0,28.39,19.339701,37.68421202946592,-253.90328458837578,10.808598429028622,0.07810249675906655,1.1022871628351971,-0.7285434569545761
21299176,1968.0,1,190389,235201,-2.05,-1.7,10.3,0.05,-0.01,0.07,28.39,19.379683,49.574103665272645,-218.80595732213453,10.638726427538215,0.08660254037844388,1.448715503937566,-0.6278330248617576
21339176,1981.0,1,190427,235395,-1.68,-1.64,9.33,0.01,-0.08,0.02,28.39,19.419683,44.82241769076259,-168.86588060241343,9.62085755013554,0.08306623862918075,1.3102685996250338,-0.484531893495288
21379176,1977.0,1,190532,235560,-1.86,-0.9,8.87,-0.04,-0.02,-0.01,28.39,19.459683,50.333163264482494,-73.78052847744856,9.107496911885285,0.0458257569495584,1.47083174904784,-0.21168812891000388
21419211,1968.0,1,190703,235658,-1.87,-0.97,9.39,-0.05,-0.01,-0.01,28.39,19.499718,45.341137376038965,67.90488710767418,9.623403763741809,0.05196152422706632,1.3253822108816973,0.19487272732229516
21459897,1930.0,1,190914,235765,-2.07,-1.27,10.41,-0.05,0.02,-0.01,28.33,19.540404,-12.90920123957078,221.23082332043018,10.68952290796928,0.05477225575051661,-0.371821497391441,0.6348356102474335
21500198,1894.0,1,191029,235951,-2.04,-1.6,10.63,0.08,-0.07,0.09,28.33,19.580705,-12.47101687732973,328.9103703570841,10.941594947721288,0.1392838827718412,-0.3590543935053956,0.9438179332419039
21540176,1963.0,1,191072,236026,-1.73,-1.69,9.91,0.11,-0.09,0.12,28.33,19.620683,8.043020924294614,343.6604588504434,10.20083820085389,0.18601075237738274,0.23865030411574675,0.9861427454506771
21580178,1852.0,1,191193,235766,-1.62,-1.39,9.4,0.14500000000000002,0.01,-0.03,28.33,19.660685,-49.32565216481967,260.32109788327523,9.639320515472033,0.14840822079655833,-1.432864866775676,0.7470036511921835
21620176,1931.0,1,190871,234841,-1.35,-1.46,8.23,-0.12,-0.13,0.04,28.33,19.700683,-21.06826210083324,124.03778011736236,8.466817583956797,0.18138357147217055,-0.6095469540817483,0.3559439070945282
21660198,1952.0,1,190720,234815,-1.82,-0.96,8.47,-0.17,0.02,-0.06,28.33,19.740705,40.153128478832016,4.7428024436195795,8.71635818447131,0.18138357147217055,1.17422243828367,0.0136315521710866
21700194,1918.0,1,190907,235058,-2.21,-0.71,9.54,-0.14,0.12,-0.12,28.33,19.780701,-19.352800647109994,-45.34837994174718,9.818339981891032,0.22,-0.5595646259124403,-0.13010317109722236
21740198,1857.0,1,190921,235169,-2.04,-1.0,10.36,-0.09,0.09,-0.03,28.33,19.820705,-71.58382707678152,-19.601360277635322,10.606186873707252,0.1307669683062202,-2.081387397249868,-0.056223087414351815
21780193,1870.0,1,190960,235425,-2.4999999999999996,-1.09,11.73,-0.03,0.15,-0.01,28.33,19.8607,-54.11893960315282,47.878306850179904,12.042881714938497,0.1532970971675589,-1.5725238869376295,0.13740722472792186
21820198,1903.0,1,191075,235648,-1.9,-1.25,11.06,0.03,-0.01,0.06,28.33,19.900705,-34.56046548486956,110.25111979899938,11.291417094412907,0.06782329983125268,-1.0026608511059525,0.31638361501739465
21860176,1927.0,1,191079,235565,-1.95,-1.74,10.95,0.1,-0.06,0.13,28.33,19.940683,2.3902394355837604,136.23244476776244,11.257557461545554,0.1746424919657298,0.07394874301397383,0.3909360287695624
21900178,1918.0,1,191115,235652,-1.81,-1.38,10.06,0.11,-0.09,0.05,28.33,19.980685,-12.478346589332805,123.62372674806205,10.314266818344384,0.15066519173319362,-0.3592679547427694,0.3547557968599398
21940176,1865.0,1,191158,235764,-1.3000000000000003,-1.52,8.44,0.03,-0.16999999999999998,0.03,28.33,20.020683,-76.21207646566678,96.43156928456382,8.673753512753288,0.1752141546793523,-2.216237806918113,0.27672894578632673
21980178,1891.0,1,191131,235916,-1.3000000000000003,-1.3,7.9,-0.12,-0.13,-0.08,28.33,20.060685,-21.427986770907115,89.93856689544337,8.111103500757466,0.194164878389476,-0.6200280269564579,0.25809752490269167
22020210,1968.0,1,191223,235962,-1.3000000000000003,-0.74,7.91,-0.15,-0.04,-0.06,28.33,20.100717,6.942160670821217,128.69084743031013,8.050198755310332,0.16643316977093237,0.20657522697645486,0.36929570497045017
22060211,1840.0,1,191240,235970,-1.99,-1.13,8.92,-0.09,0.08,-0.04,28.33,20.140718,-61.6433291615728,205.36170186835983,9.208876152929847,0.1268857754044952,-1.7917573225630132,0.5892997759587454
22100194,1884.0,1,191315,236060,-2.4,-0.82,10.67,-0.05,0.15,0.01,28.33,20.180701,-81.19948213364775,274.2160602349003,10.967283164029276,0.1584297951775486,-2.361552728608395,0.7868747117926185
22140178,1836.0,1,191367,236112,-2.32,-1.29,11.42,0.07,0.07,0.06,28.33,20.220685,-75.44640208581343,271.6452350035071,11.724457343519145,0.11575836902790226,-2.193928831078638,0.7794978275665149
22178164,1970.0,1,191372,236135,-2.11,-1.49,10.98,0.02,0.03,0.0,28.33,20.258671,19.51797721313919,159.41122698641743,11.279742904871547,0.03605551275463989,0.5729889333590151,0.4574466537786467
22218169,2027.5,1,191211,235132,-1.72,-1.28,9.88,0.05,-0.09,0.09,28.33,20.298676,94.35398785826129,-37.998222918413475,10.109955489516263,0.13674794331177342,2.753439001081592,-0.10901217792401834
22258176,1983.0,1,190739,234540,-1.46,-1.57,8.57,0.03,-0.13,0.06,28.33,20.338683,48.93587498672739,-236.8142702810904,8.834104368865018,0.14628738838327796,1.4301198338402425,-0.6795071869881598
22298178,2007.0,1,190746,234592,-1.63,-1.13,8.37,-0.09,-0.05,-0.08,28.33,20.378685,60.070090867062866,-344.6274239562277,8.601784698537855,0.130384048104053,1.754530522772359,-0.9888728890983688
22338210,2000.0,1,190872,234785,-1.93,-0.8,9.31,-0.09,0.06,-0.07,28.33,20.418717,68.80747995523204,-321.6488885572739,9.54154075608337,0.12884098726725127,2.0091063675399314,-0.9229368646446015
22378195,1991.0,1,191014,234831,-2.17,-0.83,10.54,-0.08,0.11,-0.01,28.33,20.458702,44.66592060035414,-203.18470632524992,10.793025525773576,0.13638181696985854,1.3057088417165366,-0.58300844532063
22418195,1990.0,1,191131,235056,-2.29,-1.09,11.13,0.0,0.06,0.06,28.33,20.498702,51.6456147498587,-67.70204307704888,11.415301134880325,0.08485281374238571,1.5090718276610855,-0.19424614859907124
22458169,1991.0,1,191168,235283,-2.01,-1.38,10.0,0.06,-0.06,0.07,28.33,20.538676,49.41649022445884,19.221981381966792,10.292934469819576,0.11,1.4441232196250557,0.05517899982054831
22498863,1975.0,1,191210,235416,-1.59,-1.31,8.85,-0.01,-0.1,-0.04,28.47,20.57937,31.82115427511645,40.985300095912024,9.086622034617704,0.10816653826391968,0.9314589136096225,0.1176280066873289
22539211,1949.0,1,191167,235463,-1.62,-1.1,8.41,-0.06,-0.05,-0.06,28.47,20.619718,6.989787278353942,26.27899094093536,8.634958019585271,0.09848857801796104,0.20796289367227302,0.07542881760796949
22579211,1981.0,1,191197,235577,-1.89,-0.97,9.06,-0.1,0.05,-0.02,28.47,20.659718,38.844161317003,18.897204760644215,9.305729417944624,0.11357816691600547,1.1360838802278264,0.05424706578412089
22619195,1995.0,1,191289,235698,-2.36,-0.83,10.71,-0.11,0.14,-0.03,28.47,20.699702,50.37730512280122,47.66206810977826,10.998299868616058,0.18055470085267789,1.4721178827838683,0.1367867359705912
22659194,1905.0,1,191337,235737,-2.32,-1.04,10.99,0.01,0.03,0.05,28.47,20.739701,-37.43364017510531,112.74217560850042,11.280252656744883,0.05916079783099616,-1.0863747462467763,0.3235316039522524
22699165,1831.5,1,191343,235944,-2.06,-1.53,9.98,0.04,-0.05,0.06,28.47,20.779672,-110.27531036774229,187.57310041660563,10.30460576635516,0.08774964387392122,-3.208716962719715,0.538256067560577
22739176,1831.5,1,191383,236073,-1.71,-1.27,8.87,0.0,-0.08,-0.01,28.47,20.819683,-116.5869216124004,229.5678294240098,9.122165313126045,0.0806225774829855,-3.392614434634867,0.658758328940021
22779198,1888.0,1,191361,236130,-1.62,-1.04,8.28,-0.1,-0.07,-0.03,28.47,20.859705,-47.4505034253776,197.8422297495111,8.500847016621343,0.12569805089976538,-1.3782298299710667,0.5677229396243284
22819211,1950.0,1,191373,236058,-1.85,-0.92,9.16,-0.16,0.05,-0.08,28.47,20.899718,-1.0671189460694768,76.99476191338418,9.390127794657536,0.1857417562100671,-0.02678614721374828,0.22095577382917855
22859198,1930.0,1,191216,235044,-2.2,-0.79,10.43,-0.02,0.07,0.02,28.47,20.939705,-7.191154244588629,-104.78891797301155,10.688732385086643,0.07549834435270751,-0.20521833602607253,-0.3006655111736478
22899176,1953.0,1,190767,234516,-2.17,-1.27,10.82,0.05,0.01,0.05,28.47,20.979683,12.173683903851604,-282.2722771580223,11.108294198480701,0.07141428428542851,0.35900284957978323,-0.8099471911493203
22939169,1940.0,1,190789,234825,-2.03,-1.37,10.09,0.04,-0.05,0.01,28.47,21.019676,-12.214333468531255,-388.32044069577944,10.38296200513129,0.06480740698407861,-0.3515755694570111,-1.1142483218741723
22979176,1919.0,1,190899,235028,-1.55,-1.45,8.8,0.01,-0.12,0.03,28.47,21.059683,-1.4460723615698476,-393.83960415179195,9.052347761768766,0.12409673645990855,-0.037827476025485834,-1.130085349355765
23019178,2027.5,1,190956,235140,-1.53,-1.07,8.43,-0.13,-0.04,-0.05,28.47,21.099685,57.92296632901808,-320.6836268399659,8.634274723449561,0.1449137674618944,1.6919710971157789,-0.920167083233746
23058210,1939.0,1,190975,235294,-2.19,-0.87,9.5,-0.09,0.04,-0.05,28.47,21.138717,33.155282219384695,-219.68376275598857,9.787900694224478,0.11045361017187261,0.9703305656572573,-0.6303518538274577
23098195,2000.0,1,191142,235318,-2.04,-1.06,10.47,-0.03,0.04,0.03,28.47,21.178702,26.5372992259803,-135.2379501787949,10.719426290618356,0.05830951894845301,0.7775065315891605,-0.38803783918570606
23138177,1949.0,1,191150,235412,-2.19,-1.29,10.83,0.02,0.02,0.02,28.47,21.218684,40.283465595995935,-83.22706674044392,11.124257278578197,0.034641016151377546,1.178019989402402,-0.2387946075039647
23178169,1957.0,1,191192,235331,-1.69,-0.97,9.92,0.14500000000000002,-0.14,0.135,28.47,21.258676,-2.0430212469271503,-52.075865528814006,10.109569723781522,0.2425901894141641,-0.0552204025896317,-0.1494074325081303
23218176,1938.0,1,191239,235530,-1.38,-1.42,8.46,0.09,-0.06,-0.11,28.47,21.298683,10.73113655266299,-18.358883764399803,8.688636256628541,0.15427248620541512,0.3169722490376463,-0.05265784879763567
23258205,1984.0,1,191346,235680,-1.93,-0.72,8.99,-0.21,0.04,-0.08,28.47,21.338712,50.14391055790321,37.3382268676495,9.222982164137585,0.22825424421026652,1.4653176112240813,0.10716287018544607
23298194,1968.0,1,191459,235662,-1.93,-0.8,9.85,0.02,0.04,0.08,28.47,21.378701,17.875494819169077,121.6200507804556,10.069131044931336,0.09165151389911681,0.5251329504399321,0.34900632565545475
23338164,1923.0,1,191515,235666,-2.08,-1.05,10.88,0.03,0.05,-0.02,28.47,21.418671,10.811429951027216,224.34696991937088,11.126693129587066,0.061644140029689765,0.3193117076003318,0.6437772731855611
23378176,1989.0,1,191569,235878,-2.13,-0.99,10.54,0.01,-0.05,0.04,28.47,21.458683,27.04624174496726,316.60458262186467,10.79854619844727,0.06480740698407861,0.7923352716626315,0.9085069481445142
23418178,1915.0,1,191634,236001,-1.58,-1.48,9.04,-0.03,-0.09,0.03,28.47,21.498685,6.51681526078157,355.5877604997298,9.295611867972973,0.09949874371066199,0.19418220361602423,1.0203676792665468
23458205,1947.0,1,191665,236233,-1.82,-1.09,8.9,-0.1,-0.05,-0.08,28.47,21.538712,-5.64947510721995,304.09339840534125,9.149344238796571,0.13747727084867523,-0.16029939458994014,0.8726065857356969
23498897,1911.0,1,191674,235594,-1.83,-0.77,8.85,-0.1,0.02,-0.08,28.13,21.579404,-14.653905924614882,158.97367136429784,9.069966923864717,0.12961481396815722,-0.42265586731396804,0.45619110473258895
23539193,1897.0,1,191207,234612,-2.08,-0.99,10.59,-0.08,0.06,-0.04,28.13,21.6197,-31.721592057623766,-34.552045963946306,10.837647346172508,0.10770329614269009,-0.9199463704256893,-0.09912350556102245
23579195,1889.0,1,191051,234687,-2.15,-1.12,10.64,0.05,-0.03,0.07,28.13,21.659702,-59.18853900941836,-201.95299577755443,10.912676115417337,0.091104335791443,-1.7202336362070951,-0.5794740992283847
23619176,1879.0,1,191144,234968,-1.67,-1.41,9.4,0.03,-0.04,0.04,28.13,21.699683,-33.08766544207349,-282.0655318139483,9.650751266093227,0.06403124237432849,-0.9597487967971644,-0.8093539433279998
23659178,1935.0,1,191169,235028,-1.63,-1.01,8.77,-0.04,-0.03,-0.01,28.13,21.739685,-17.860379032942205,-260.29930083576863,8.97718775563929,0.05099019513592785,-0.5160808701425849,-0.7468965798308925
23699210,1831.5,1,191209,235241,-1.89,-0.98,8.97,-0.1,0.0,-0.06,28.13,21.779717,-89.6216628831241,-168.96135188828828,9.219186515089062,0.11661903789690602,-2.606944545024848,-0.4848058446819404
23739195,1831.5,1,191331,235559,-2.13,-0.86,10.18,-0.12,0.09,-0.06,28.13,21.819702,-100.44322480889592,-61.011099619218506,10.435942698194543,0.16155494421403513,-2.92224563109966,-0.17504674342399792
23779194,1851.0,1,191380,235680,-2.21,-0.97,10.79,0.0,-0.01,0.04,28.13,21.859701,-98.45510496189021,19.8050207632765,11.056631494266234,0.04123105625617661,-2.8643190257438365,0.056852008923874216
23819176,1840.0,1,191480,235758,-1.87,-1.37,9.85,0.01,-0.05,0.04,28.13,21.899683,-65.06671705482167,56.02672708851227,10.119105691710113,0.06480740698407861,-1.8915024359025316,0.16078880352596472
23859176,1987.0,1,191472,235887,-1.78,-1.14,8.96,-0.02,-0.02,-0.01,28.13,21.939683,17.751063474888774,58.05787412009418,9.205954594717488,0.030000000000000002,0.5215074721344489,0.1666171018930434
23899211,1915.0,1,191465,236003,-1.7,-1.04,8.62,-0.1,-0.03,-0.05,28.13,21.979718,15.321359053599588,54.1948855132557,8.847372491310626,0.11575836902790226,0.45071469303952044,0.15553240450816466
23939211,2004.0,1,191502,236083,-2.08,-0.95,9.83,-0.16,0.05,-0.1,28.13,22.019718,42.11673740115093,73.51688590341618,10.092462533990403,0.19519221295943134,1.2314348841468568,0.21097614224435346
23979198,1981.0,1,191570,236136,-2.34,-1.01,10.8,0.01,0.01,0.03,28.13,22.059705,61.60456753258392,127.06770467886216,11.096652648434121,0.033166247903554,1.7992396102879986,0.36463815920901316
24019165,1952.0,1,191564,236175,-1.91,-1.45,10.05,0.05,-0.05,0.05,28.13,22.099672,12.626479536161334,196.14665911836605,10.332139178311529,0.08660254037844388,0.37219567290939765,0.5628575648449001
24059178,1943.0,1,191574,236331,-1.92,-1.18,9.46,-0.01,-0.03,-0.0,28.13,22.139685,2.6183712298070847,237.94001347131876,9.724731358757424,0.03162277660168379,0.08059567651398053,0.6827819893905447
24097211,1979.0,1,191724,236516,-1.72,-1.21,8.87,-0.03,-0.09,-0.01,28.13,22.177718,49.5813842959943,211.62829052453924,9.115887230544265,0.09539392014169455,1.44892763512432,0.6072815113348982
24137211,2027.5,1,191660,236033,-1.61,-0.82,8.59,-0.14,-0.08,-0.08,28.13,22.217718,88.2902726239906,111.24887497808672,8.777961038874574,0.18000000000000002,2.576764320279673,0.31924663516837304
24177211,1985.0,1,191266,235100,-2.37,-0.78,10.36,-0.05,0.03,-0.03,28.13,22.257718,40.9878952272872,-21.653776118927425,10.656214149499812,0.06557438524302,1.1985445152825764,-0.06211241581371085
24217198,1943.0,1,191211,235067,-2.07,-1.24,10.59,0.06,-0.0,0.04,28.13,22.297705,24.59225250669073,-121.79648657566626,10.861427162210315,0.07211102550927978,0.7208349210337821,-0.3494680758199057
24257176,1989.0,1,191291,235159,-1.83,-1.27,9.67,0.03,-0.05,0.02,28.13,22.337683,22.244252669049146,-144.17733486059822,9.923240398176393,0.061644140029689765,0.6524227173251134,-0.41368906006412
24297178,1904.0,1,191380,235339,-1.66,-1.14,8.92,-0.06,-0.08,-0.01,28.13,22.377685,1.0682174955893395,-91.85105097875433,9.144484676568712,0.1004987562112089,0.03542981604629937,-0.2635407989279851
24337211,2027.5,1,191395,235403,-1.74,-0.96,8.98,-0.1,0.04,-0.03,28.13,22.417718,55.70281316560992,-7.020709218431907,9.197260461680969,0.1118033988749895,1.6272838820467677,-0.020123392569495923
24377195,1989.0,1,191424,235518,-2.05,-0.7,9.89,-0.03,0.04,-0.02,28.13,22.457702,77.82808962571805,61.57736889753679,10.124455540916756,0.05385164807134504,2.271934233394272,0.17671615693207468
24417193,2023.0,1,191454,235631,-1.89,-1.1,10.44,-0.01,0.06,0.05,28.13,22.4977,69.0981645658697,87.26115758469187,10.666569270388674,0.07874007874011811,2.0175758633546725,0.250414801756007
24457178,1952.0,1,191455,235683,-2.09,-1.35,10.61,0.02,0.03,0.06,28.13,22.537685,18.16749128940925,74.09200739415239,10.897830059236563,0.06999999999999999,0.5336406690879656,0.21262643126489722
24497164,1889.0,1,191449,235716,-1.77,-1.18,9.16,-0.01,-0.12,0.04,28.13,22.577671,-44.294434373897616,47.84885005561343,9.403770520381705,0.1268857754044952,-1.2862734186429703,0.1373226995876924
24537884,1934.0,1,191387,235806,-1.76,-1.2,8.63,-0.13,0.01,-0.07,28.07,22.618391,-12.988348934281914,38.7930146366465,8.88901006861844,0.14798648586948743,-0.37412757430288074,0.11133732779321835
24578193,1914.0,1,191445,235897,-2.14,-0.73,10.01,-0.07,0.06,-0.06,28.07,22.6587,-15.535114494045422,63.97465467930759,10.26219274814111,0.11,-0.448331090623293,0.1835950763751609
24618198,1904.0,1,191494,235878,-1.94,-1.07,10.52,-0.01,-0.0,-0.01,28.07,22.698705,-37.7518052653278,114.77156890622877,10.75076276363682,0.01414213562373095,-1.0956449236191697,0.32935487004741965
24658210,1877.0,1,191441,235989,-2.13,-1.32,10.41,0.01,-0.01,0.03,28.07,22.738717,-61.899530038890155,155.75281392111611,10.707352613975129,0.033166247903554,-1.799222087393227,0.44694897805007644
24698178,1855.0,1,191440,236162,-1.71,-1.33,9.07,0.03,-0.07,0.04,28.07,22.778685,-77.05535582336059,139.9550220721232,9.325121983116361,0.08602325267042626,-2.240807910491804,0.401617821316817
24738176,1929.0,1,191466,236133,-1.7,-1.08,8.75,-0.11,-0.01,-0.08,28.07,22.818683,-14.473142485160134,38.0909642858909,8.978802815520563,0.13638181696985854,-0.4173890759604051,0.10932282128566677
24778211,1936.0,1,191304,235344,-2.18,-0.67,9.97,-0.05,0.02,-0.04,28.07,22.858718,3.095968552633226,-134.42883187263388,10.22752169393935,0.0670820393249937,0.09451113119847285,-0.3857161052938474
24818193,1924.0,1,190869,234631,-2.06,-1.06,10.6,0.01,0.01,0.02,28.07,22.8987,-12.79499239237757,-315.9052936736747,10.85021658769999,0.024494897427831782,-0.368493865594259,-0.9064558398045773
24858165,1909.0,1,190881,234792,-2.1,-1.23,10.36,0.01,-0.01,0.0,28.07,22.938672,-31.509691241924592,-430.7914148930292,10.642015786494586,0.01414213562373095,-0.913772348802159,-1.2361171505277462
24898176,1890.0,1,190895,235026,-1.73,-1.38,9.23,-0.02,-0.08,0.03,28.07,22.978683,-40.92814605443112,-435.413564812734,9.491585747387,0.08774964387392122,-1.1881919798960363,-1.2493802321316554
24938198,1936.0,1,191038,235209,-1.69,-1.16,8.67,-0.12,-0.01,-0.05,28.07,23.018705,-3.8287644935774447,-342.49477263594326,8.909017903225921,0.130384048104053,-0.10725048743151479,-0.9827533280748219
24978210,1920.0,1,191095,235396,-2.16,-0.71,9.64,-0.08,0.04,-0.07,28.07,23.058717,-17.964902797575032,-208.20311987464706,9.904509074154054,0.11357816691600547,-0.5191263137426323,-0.5974085901848337
25018195,1909.0,1,191214,235621,-2.04,-0.97,10.42,-0.0,0.0,-0.02,28.07,23.098702,-17.5151050081074,-95.51496296098134,10.662030763414633,0.02,-0.5060208366861787,-0.2740542535873961
25058193,1970.0,1,191233,235689,-2.02,-1.33,10.41,-0.02,0.0,0.02,28.07,23.1387,17.097582553790346,-40.40601615215925,10.68725409073818,0.0282842712474619,0.5024674069789,-0.11592124809683299
25098212,1904.0,1,191296,235736,-1.74,-1.39,9.29,0.01,-0.08,0.05,28.07,23.178719,-9.241866219909856,-38.11207128148379,9.553208884976817,0.09486832980505139,-0.26496864910292445,-0.10933886142760524
25138176,1940.0,1,191259,235791,-1.59,-1.1,8.57,-0.09,-0.05,-0.06,28.07,23.218683,-19.625903344903975,-51.42340833618245,8.785385591993103,0.11916375287812986,-0.5675218485218061,-0.14753523166236404
25178211,1952.0,1,191273,235834,-1.97,-0.7,9.37,-0.08,0.02,-0.06,28.07,23.258718,37.456012474854774,-34.00976627519477,9.600406241404578,0.1019803902718557,1.0956382550431225,-0.09756745482943707
25218192,2010.0,1,191350,235894,-2.02,-0.99,10.41,-0.04,0.02,-0.01,28.07,23.298699,60.65599309429098,41.595880528509625,10.650286381126097,0.0458257569495584,1.771601589763042,0.11938004377915243
25258195,1925.0,1,191433,235908,-2.11,-1.15,10.61,-0.0,0.01,0.01,28.07,23.338702,-6.006591862464592,163.865938332928,10.87872694757985,0.01414213562373095,-0.1707044822802846,0.4702292768300431
25298217,1904.0,1,191587,235953,-1.85,-1.29,9.55,0.01,-0.09,0.05,28.07,23.378724,-25.843333413531074,282.2391922653125,9.81270095335632,0.10344080432788601,-0.748675222376616,0.8098967808918157
25338178,1942.0,1,191559,236112,-1.69,-1.24,8.58,-0.06,-0.02,0.0,28.07,23.418685,-6.30226396344569,332.0496858249556,8.832332647721099,0.06324555320336758,-0.17931929548385203,0.9528260783592418
25378193,1902.0,1,191651,236193,-2.04,-0.7,9.26,-0.02,0.01,-0.03,28.07,23.4587,-16.10184690973565,274.303807013338,9.507849388794503,0.03741657386773942,-0.46484361879682523,0.7871264978019683
25418194,1986.0,1,191507,235168,-2.0,-0.86,10.22,-0.01,0.06,0.03,28.07,23.498701,34.55288684338029,125.64854156863778,10.449306197063995,0.06782329983125268,1.0110516980475395,0.3605659251908303
25458176,1986.0,1,191083,234664,-2.21,-1.17,10.84,-0.03,0.04,0.01,28.07,23.538683,63.26173900854567,-45.90357644682372,11.124684265182541,0.05099019513592785,1.8475235798080152,-0.13169628613696677
25498178,1968.0,1,191082,234891,-1.89,-1.23,9.65,0.01,-0.1,0.07,28.07,23.578685,27.713232051184722,-161.20167268120963,9.909969727501695,0.12247448713915891,0.8117689513286782,-0.4625397433370034
25538863,1951.0,1,191115,235064,-1.45,-1.2,8.43,-0.09,-0.09,0.02,27.93,23.61937,15.098510727063937,-177.67217685288446,8.637557525134058,0.12884098726725127,0.44422170063522537,-0.5098012222334728
25577198,1927.0,1,191211,235185,-2.12,-0.96,9.07,-0.11,0.04,-0.11,27.93,23.657705,-0.6760149353601906,-108.8102295747975,9.363807986070624,0.1606237840420901,-0.015390794103845173,-0.31220451030949564
25617194,1917.0,1,191234,235313,-2.09,-1.02,9.92,-0.01,0.04,0.06,27.93,23.697701,-26.546212802575994,-5.179899586192285,10.188959711373876,0.07280109889280519,-0.7691545798174004,-0.014841260056750636
25657176,1910.0,1,191303,235606,-2.18,-1.38,11.03,0.01,0.05,-0.01,27.93,23.737683,-15.243958554105566,81.90384025128328,11.327740286570839,0.05196152422706632,-0.4398478619812667,0.23504218550482922
25697177,1967.0,1,191336,235726,-1.83,-1.09,9.94,0.03,-0.08,0.0,27.93,23.777684,28.27441897974214,125.9055519682006,10.16565787344823,0.08544003745317531,0.8281199041096948,0.36130340665760896
25737176,1964.0,1,191315,235777,-1.57,-1.44,8.7,-0.07,-0.08,-0.0,27.93,23.817683,29.70656610783659,128.9427775792775,8.957036340218789,0.1063014581273465,0.8698474798519458,0.3700186088533369
25777211,1919.0,1,191315,235822,-1.96,-0.86,8.97,-0.15,0.01,-0.08,27.93,23.857718,-6.429464192219659,111.60813857185381,9.221827367718396,0.170293863659264,-0.18302544904620266,0.3202775282471832
25817198,1935.0,1,191315,235859,-2.0,-0.89,9.91,-0.11,0.01,-0.07,27.93,23.897705,-11.83520273079341,100.10969001497348,10.148901418380218,0.1307669683062202,-0.34052907411807126,0.2872831719027241
25857193,1901.0,1,191290,235929,-2.04,-1.24,10.86,-0.02,-0.0,-0.02,27.93,23.9377,-12.799176013166251,114.59083659173506,11.11929853902664,0.0282842712474619,-0.3686157611383075,0.32883626561501594
25897211,1921.0,1,191292,236030,-1.81,-1.4,10.0,0.1,-0.1,0.09,27.93,23.977718,-31.610252842498642,157.25046061874633,10.258464797424612,0.1676305461424021,-0.9167023493044809,0.4512464177068504
25937176,1898.0,1,191257,236184,-1.52,-1.3,8.54,-0.03,-0.08,-0.01,27.93,24.017683,-14.535042777878683,203.67662493642945,8.77108887197023,0.08602325267042626,-0.41919262610005975,0.5844645124460283
25977211,1961.0,1,191256,236157,-1.98,-0.88,9.02,-0.15,0.02,-0.09,27.93,24.057718,15.081892977744973,208.62133475339223,9.276594202615527,0.17606816861659008,0.4437375196598423,0.5986531672818315
26017193,1915.0,1,191272,236197,-1.95,-0.92,9.99,-0.11,0.02,-0.06,27.93,24.0977,-8.475442661723859,133.067666820411,10.22002935416528,0.1268857754044952,-0.24263784492262758,0.38185482004566745
26057198,1904.0,1,191190,235327,-1.99,-1.14,10.76,-0.07,0.02,-0.04,27.93,24.137705,-25.432117003603782,-21.094627918635343,11.001695323903494,0.08306623862918075,-0.7366938668614682,-0.06050796153637613
26097194,1937.0,1,190676,234596,-1.94,-1.41,10.36,0.06,-0.08,0.06,27.93,24.177701,-2.739558921618067,-199.5111543746364,10.633969155494103,0.11661903789690602,-0.07551498546301914,-0.5724673291423175
26137177,1892.0,1,190584,234677,-1.52,-1.44,8.76,0.0,-0.09,0.02,27.93,24.217684,-21.40219564478079,-325.12888952525043,9.00675302203852,0.09219544457292887,-0.6192765670346367,-0.9329225937147876
26177176,1861.0,1,190625,234773,-1.85,-0.96,8.78,-0.11,-0.0,-0.08,27.93,24.257683,-88.67988611107195,-349.55821543712796,9.02399578900611,0.13601470508735444,-2.5795045838524318,-1.0030216058036063
26217210,1831.5,1,190698,234895,-1.98,-0.91,9.85,-0.09,0.03,-0.05,27.93,24.297717,-77.34916291981543,-282.7823973176456,10.088161378566463,0.10723805294763608,-2.249368384224166,-0.8114109613476947
26257193,1958.0,1,190750,234978,-2.0,-1.13,10.81,-0.04,0.03,-0.01,27.93,24.3377,12.582720975945232,-177.4915879499974,11.051380004325251,0.05099019513592785,0.37092070709061425,-0.5092830293151642
26297198,1951.0,1,190762,235132,-1.86,-1.48,10.26,0.09,-0.11,0.05,27.93,24.377705,32.19043993148783,-86.00691864251391,10.531742495902567,0.15066519173319362,0.9422185589662184,-0.24677128573042312
26337176,1949.0,1,190788,235214,-1.54,-1.35,8.84,-0.0,-0.1,-0.0,27.93,24.417683,18.887684441898053,-27.855817057833864,9.07412254711165,0.1,0.554624486832664,-0.07990893399517947
