timestamp_us,ecg,leads,ir,red,accX,accY,accZ,gyroX,gyroY,gyroZ,temp,time_sec,ecg_filtered,ppg_filtered,accel_magnitude,gyro_magnitude,ecg_norm,ppg_norm
1956979,1489.0,1,184990,223237,0.625,-0.23,9.919999999999998,-0.03,-0.01,-0.01,32.96,0.030475,9.305910517664152,47.676950683196,9.942329958314598,0.033166247903554,0.11922928961914314,0.04279723073429483
1997215,1535.0,1,185623,225003,0.63,-0.25,9.96,-0.03,-0.01,-0.01,32.96,0.070711,38.602831450020226,608.6183171945155,9.983035610474403,0.033166247903554,0.5231235604155408,0.5889559965168776
2037207,1582.0,1,186273,226265,0.64,-0.21500000000000002,9.95,-0.03,-0.01,-0.01,32.96,0.110703,73.08821425884123,946.2705726271571,9.972879473853075,0.033166247903554,0.9985471919590367,0.9177100341050033
2077210,1614.0,1,186467,226428,0.63,-0.22,9.95,-0.03,-0.01,-0.01,32.96,0.150706,87.03820739581289,1026.8054999921442,9.972351778793204,0.033166247903554,1.1908650918052717,0.9961226083203936
2117207,1640.0,1,186440,226450,0.65,-0.23,9.96,-0.03,-0.01,-0.01,32.96,0.190703,100.71787943629053,1031.993231790667,9.983836937770969,0.033166247903554,1.379456281175637,1.0011736267787286
2157209,1665.0,1,186556,227041,0.63,-0.25,9.97,-0.04,-0.01,-0.01,32.96,0.230705,113.08388581390896,1189.7053594712634,9.993012558783263,0.042426406871192854,1.5499369654797583,1.1547295350168518
2197206,1683.0,1,186893,228188,0.65,-0.25,9.97,-0.03,-0.01,-0.01,32.96,0.270702,114.30269049352687,1535.9252342601287,9.994293371719683,0.033166247903554,1.5667396946284669,1.491825407763957
2237209,1732.0,1,187342,229342,0.65,-0.23,9.96,-0.03,-0.01,-0.01,32.96,0.310705,158.15722609609242,1818.3935859317908,9.983836937770969,0.033166247903554,2.171328679225505,1.766849814113426
2277206,1761.0,1,187723,230010,0.64,-0.23,9.96,-0.03,-0.01,-0.01,32.96,0.350702,170.7688559759315,1661.1510718423922,9.983190872661908,0.033166247903554,2.345195587138207,1.6137511436450154
2317209,1775.0,1,187683,227601,0.64,-0.23,9.96,-0.03,-0.01,-0.01,32.96,0.390705,176.64271262912033,889.1478171625005,9.983190872661908,0.033166247903554,2.4261739621415037,0.8620926461118367
2357206,1851.0,1,185364,221641,0.64,-0.23,9.96,-0.04,-0.01,-0.01,32.96,0.430702,251.64123167073294,-258.09624940179725,9.983190872661908,0.042426406871192854,3.4601212574583777,-0.25491786666785166
2397209,1844.0,1,184299,221223,0.63,-0.25,9.94,-0.04,-0.01,-0.01,32.96,0.470705,220.24304808397804,-1235.3064561805363,9.963081852519329,0.042426406871192854,3.0272584834697964,-1.2063754561905324
2437207,1805.0,1,184539,222393,0.63,-0.24,9.94,-0.03,-0.01,-0.01,32.96,0.510703,201.76655559567192,-1561.440808417755,9.962835941638303,0.033166247903554,2.7725371945783843,-1.5239151242042785
2477209,1920.0,1,185183,224205,0.65,-0.24,9.94,-0.04,-0.01,-0.01,32.96,0.550705,281.24067031844334,-1150.7340518357132,9.964120633553168,0.042426406871192854,3.8681861089218743,-1.1240318054387528
2517207,1851.0,1,186062,226643,0.65,-0.25,9.95,-0.04,-0.01,-0.01,32.96,0.590703,238.5877501633276,-336.6628817351305,9.974342083566214,0.042426406871192854,3.2801628786594303,-0.3314140167267034
2557188,1841.0,1,186891,228211,0.65,-0.24,9.96,-0.04,-0.01,-0.01,32.96,0.630684,201.51986093209462,410.8916282810379,9.984072315443234,0.042426406871192854,2.769136203686373,0.3964400388315169
2597206,1795.0,1,187261,228812,0.625,-0.23,9.96,-0.04,-0.01,-0.01,32.96,0.670702,172.143105033008,826.1184190814449,9.98224047997242,0.042426406871192854,2.3641413091846335,0.800724274443933
2637209,1706.0,1,187308,228798,0.64,-0.22,9.97,-0.03,-0.01,-0.01,32.96,0.710705,67.45939770499933,972.655198630764,9.992942509591456,0.033166247903554,0.9209469976345257,0.943399340749273
2677207,1648.0,1,187266,228926,0.63,-0.25,9.93,-0.03,-0.01,-0.01,32.96,0.750703,26.367592699648995,1076.3458520474958,9.953105043151107,0.033166247903554,0.3544456695030093,1.0443574135073623
2717209,1633.0,1,187342,229248,0.63,-0.23,9.95,-0.03,-0.01,-0.01,32.96,0.790705,-13.014374848854551,1233.007189321926,9.9725774000506,0.033166247903554,-0.18848343564957956,1.1968902230303788
2757207,1584.0,1,187433,229648,0.64,-0.24,9.95,-0.03,-0.01,-0.01,32.96,0.830703,-26.233792045809917,1262.7889795320539,9.973449754222457,0.033166247903554,-0.3707294430523876,1.2258871677291097
2797209,1635.0,1,187590,229904,0.66,-0.23,9.97,-0.03,-0.01,-0.01,32.96,0.870705,-17.672759984134416,858.8044011703299,9.994468470108854,0.033166247903554,-0.25270503325865395,0.8325488762683321
2837207,1535.0,1,187266,225056,0.65,-0.23,9.95,-0.03,-0.01,-0.01,32.96,0.910703,-71.61997887438527,-87.64406228257518,9.973860837208427,0.033166247903554,-0.9964341331691964,-0.08895764034159874
2877224,1525.0,1,184243,219914,0.65,-0.23,9.98,-0.03,-0.01,-0.01,32.96,0.95072,-118.15981099257364,-1286.4812119449389,10.003789282067071,0.033166247903554,-1.6380432496959267,-1.2562015933166615
2917206,1428.0,1,183691,219685,0.665,-0.25,9.95,-0.03,-0.01,-0.01,32.96,0.990702,-194.20539721860703,-2186.647816214561,9.975330821581807,0.033166247903554,-2.6864256604948307,-2.1326459258932187
2957208,1367.0,1,183891,220565,0.665,-0.22,9.97,-0.03,-0.01,-0.01,32.96,1.030704,-252.01503325222052,-2360.126534091014,9.994574778348502,0.033166247903554,-3.483402955300389,-2.301552924202527
2997894,1423.0,1,184376,222332,0.66,-0.25,9.92,-0.04,-0.01,-0.01,32.96,1.07139,-224.12847495865984,-1806.5327623433793,9.945074157591787,0.042426406871192854,-3.098952276916654,-1.7625481205400184
3036188,1425.0,1,185311,225030,0.665,-0.24,9.96,-0.04,-0.01,-0.01,32.96,1.109684,-174.84799391079798,-922.982749948822,9.985060089954391,0.042426406871192854,-2.4195599270079855,-0.9022824794485276
3076212,1494.0,1,186099,226292,0.65,-0.25,9.96,-0.04,-0.01,-0.01,32.96,1.149708,-167.83269544954848,-179.58342172536078,9.984317703278478,0.042426406871192854,-2.322845365673448,-0.1784741033409446
3116188,1403.0,1,186264,226255,0.65,-0.24,10.000000000000004,-0.03,-0.01,-0.01,32.96,1.189684,-200.21354050921505,218.56628214532614,10.023976256955125,0.033166247903554,-2.7692553427950055,0.20918308125060595
3156206,1488.0,1,186182,225979,0.64,-0.24,9.96,-0.03,-0.01,-0.01,32.96,1.229702,-170.69751178324796,410.44683741216994,9.983426265566347,0.033166247903554,-2.362340400210926,0.3960069696259364
3196209,1474.0,1,186145,226261,0.66,-0.23,9.97,-0.03,-0.01,-0.01,32.96,1.269705,-153.6062386465157,655.7188253877994,9.994468470108854,0.033166247903554,-2.1267160724366487,0.6348152555381273
3236206,1472.0,1,186391,227209,0.665,-0.23,9.95,-0.03,-0.01,-0.01,32.96,1.309702,-177.4172335421069,1022.8885061307457,9.974849622926653,0.033166247903554,-2.454980071322287,0.9923088397865727
3276209,1506.0,1,186847,228589,0.65,-0.25,9.97,-0.03,-0.01,-0.01,32.96,1.349705,-150.41183092075,1279.7414967223604,9.994293371719683,0.033166247903554,-2.0826772131311446,1.2423929318219757
3316207,1531.0,1,187277,229192,0.665,-0.23,9.96,-0.03,-0.01,-0.01,32.96,1.389703,-120.02102491708754,1098.6656707960638,9.984824735567472,0.033166247903554,-1.6637023844075005,1.0660890335802828
3356209,1607.0,1,186475,222977,0.66,-0.23,9.96,-0.04,-0.01,-0.01,32.96,1.429705,-70.00071468622247,395.75579286797455,9.984492976611282,0.042426406871192854,-0.9741105746623215,0.3817030811353863
3396206,1643.0,1,183914,220123,0.66,-0.24,9.96,-0.03,-0.01,-0.01,32.96,1.469702,-25.223713619120428,-520.6893461354962,9.984728338818238,0.033166247903554,-0.3568042633197844,-0.5105907946729025
3436209,1669.0,1,183767,220396,0.66,-0.23,9.95,-0.03,-0.01,-0.01,32.96,1.509705,-22.093040767303247,-1151.840486495463,9.974517532191719,0.033166247903554,-0.31364406803829714,-1.1251090820032292
3476207,1685.0,1,184035,221213,0.665,-0.25,9.94,-0.03,-0.01,-0.01,32.96,1.549703,-8.046256319013095,-1188.0844444057175,9.965356240496371,0.033166247903554,-0.11999178031578422,-1.1603978955960863
3516209,1698.0,1,184455,222471,0.665,-0.23,9.94,-0.03,-0.01,-0.01,32.96,1.589705,-8.689509455319842,-726.5859822176121,9.96487456017385,0.033166247903554,-0.12885981996493298,-0.7110613952648537
3556207,1712.0,1,185129,223682,0.64,-0.23,10.0,-0.03,-0.01,-0.01,32.96,1.629703,-5.099224893846782,-147.14240510898918,10.023098323372869,0.033166247903554,-0.0793633091112544,-0.14688801136465918
3596209,1751.0,1,185254,223405,0.665,-0.22,9.96,-0.03,-0.01,-0.01,32.96,1.669705,24.06348969274953,219.24876707616164,9.984599391062218,0.033166247903554,0.3226807613080441,0.20984758051869978
3636207,1776.0,1,185022,223119,0.665,-0.23,9.94,-0.03,-0.01,-0.01,32.96,1.709703,37.82323366138109,330.36390966049726,9.96487456017385,0.033166247903554,0.5123758411898957,0.31803448338707974
3676209,1781.0,1,184975,223225,0.665,-0.23,9.96,-0.03,-0.01,-0.01,32.96,1.749705,31.615088138608872,391.3351223896346,9.984824735567472,0.033166247903554,0.4267888808841542,0.37739890947588195
3716207,1773.0,1,185156,223714,0.665,-0.23,9.96,-0.03,-0.01,-0.01,32.96,1.789703,16.06971561822521,597.8608352268423,9.984824735567472,0.033166247903554,0.21247670409002506,0.5784820086365877
3756209,1792.0,1,185344,224322,0.665,-0.24,9.97,-0.03,-0.01,-0.01,32.96,1.829705,20.93814913186024,908.1119313020257,9.995035017447414,0.033166247903554,0.27959407824857385,0.8805569951346576
3796207,1810.0,1,185647,225232,0.665,-0.24,9.97,-0.03,-0.01,-0.01,32.96,1.869703,37.04387890836528,1050.3108049700368,9.995035017447414,0.033166247903554,0.5016314725107496,1.019008473265442
3836209,1834.0,1,186051,225108,0.665,-0.25,9.94,-0.04,-0.01,-0.01,32.96,1.909705,43.79190789733405,761.3917651710609,9.965356240496371,0.042426406871192854,0.5946613937815002,0.737703375071167
3876185,1856.0,1,184407,219354,0.66,-0.24,9.96,-0.04,-0.01,-0.01,32.96,1.949681,70.33416813085073,44.16563769356024,9.984728338818238,0.042426406871192854,0.9605792616371893,0.03937845208257435
3916188,1903.0,1,183091,218231,0.665,-0.23,10.0,-0.04,-0.01,-0.01,32.96,1.989684,98.7002151985935,-791.4044410550005,10.024725682032402,0.042426406871192854,1.3516402854988832,-0.7741716802109057
3956206,1914.0,1,182988,218339,0.66,-0.24,9.98,-0.03,-0.01,-0.01,32.96,2.029702,117.90016444352531,-1343.6597969771979,10.004678905392216,0.033166247903554,1.6163353200902177,-1.311873339589599
3996209,1939.0,1,183178,218689,0.65,-0.24,9.94,-0.04,-0.01,-0.01,32.96,2.069705,128.79552262371087,-1401.5255648627856,9.964120633553168,0.042426406871192854,1.7665413010331341,-1.3682141592478265
4036894,1921.0,1,183316,219508,0.665,-0.23,9.93,-0.04,-0.01,-0.01,32.96,2.11039,116.31126829589523,-1057.0757298466146,9.95489954745903,0.042426406871192854,1.5944304225619077,-1.0328416800590414
4077223,1939.0,1,183871,221035,0.65,-0.23,9.97,-0.04,-0.01,-0.01,32.96,2.150719,131.0436264823847,-578.2596486606109,9.993813086104822,0.042426406871192854,1.7975341917457832,-0.566643935428768
4117186,1968.0,1,184354,221827,0.65,-0.24,9.98,-0.04,-0.01,-0.01,32.96,2.190682,159.92363834940295,-175.7504920449963,10.004024190294624,0.042426406871192854,2.1956808557093055,-0.17474218362787589
4157189,1955.0,1,184477,222122,0.665,-0.25499999999999995,10.000000000000004,-0.03,-0.01,-0.01,32.96,2.230685,153.3381438018636,134.8258747129555,10.025330418494947,0.033166247903554,2.104891672632579,0.12764950162919422
4197207,1941.0,1,184791,223321,0.66,-0.25,10.000000000000004,-0.04,-0.01,-0.01,32.96,2.270703,139.39826854286417,472.3232277023638,10.024874064046893,0.042426406871192854,1.9127132602415284,0.4562527189493493
4237209,1921.0,1,185174,224297,0.625,-0.21500000000000002,9.95,-0.03,-0.01,-0.01,32.96,2.310705,126.55434892641472,898.7522171634245,9.971928098417076,0.033166247903554,1.7356439511618793,0.8714439394265204
4277206,1898.0,1,185522,225002,0.64,-0.22,9.98,-0.03,-0.01,-0.01,32.96,2.350702,112.94076005078286,1277.5726478853242,10.00291957380444,0.033166247903554,1.5479637999084181,1.2402812390948523
4317210,1884.0,1,185747,225825,0.65,-0.21500000000000002,9.97,-0.03,-0.01,-0.01,32.96,2.390706,99.67890349731736,1328.3916835617754,9.99347912390875,0.033166247903554,1.3651327135141933,1.2897610304961014
4357207,1846.0,1,186164,226155,0.66,-0.25,9.96,-0.04,-0.01,-0.01,32.96,2.430703,82.34067836340762,858.3959743895606,9.984973710531241,0.042426406871192854,1.1261038471861207,0.8321512128407178
4397210,1806.0,1,184629,219731,0.64,-0.25,9.97,-0.04,-0.01,-0.01,32.96,2.470706,39.3735183193279,-22.220845759968277,9.993647982593744,0.042426406871192854,0.5337484316028608,-0.025258535011322445
4437207,1728.0,1,183053,218849,0.625,-0.25499999999999995,9.96,-0.03,-0.01,-0.01,32.96,2.510703,-14.937850466384827,-910.7397327202611,9.982847790084753,0.033166247903554,-0.21500092476493024,-0.8903621049170645
4477209,1727.0,1,183184,219578,0.63,-0.23,9.97,-0.03,-0.01,-0.01,32.96,2.550705,-13.09067560881729,-1371.7409198254916,9.992532211606825,0.033166247903554,-0.18953533594577507,-1.3392144349557644
4517236,1710.0,1,183664,220636,0.66,-0.24,9.98,-0.03,-0.01,-0.01,32.96,2.590732,-13.380987978876103,-1238.3781151201133,10.004678905392216,0.033166247903554,-0.19353765084019042,-1.2093661670838616
4557209,1649.0,1,184157,222308,0.66,-0.23,9.95,-0.03,-0.01,-0.01,32.96,2.630705,-60.49761572201053,-702.0889533707114,9.974517532191719,0.033166247903554,-0.8430986080697044,-0.6872099415495148
4597207,1627.0,1,184910,224030,0.65,-0.24,9.96,-0.03,-0.01,-0.01,32.96,2.670703,-74.318145953533,-125.99929878534,9.984072315443234,0.033166247903554,-1.0336317017271828,-0.12630209357729427
4637209,1616.0,1,185286,224632,0.66,-0.23,9.98,-0.03,-0.01,-0.01,32.96,2.710705,-65.19968048666118,247.63812575867226,10.004444012537629,0.033166247903554,-0.9079223833647582,0.23748878871810641
4677207,1594.0,1,185485,225170,0.64,-0.25499999999999995,9.96,-0.04,-0.01,-0.01,32.96,2.750703,-80.94987914662157,451.3493260054823,9.983798124962265,0.042426406871192854,-1.1250583416912674,0.43583154670516816
4717244,1568.0,1,185723,225919,0.64,-0.23,9.97,-0.03,-0.01,-0.01,32.96,2.79074,-89.58995008262548,690.9380724577102,9.993167665960579,0.033166247903554,-1.2441724000724805,0.6691063627016532
4757207,1563.0,1,186050,226924,0.65,-0.25,9.96,-0.04,-0.01,-0.01,32.96,2.830703,-84.30260506265608,1085.2127452451866,9.984317703278478,0.042426406871192854,-1.171279812956577,1.0529906356840317
4797209,1535.0,1,186478,228036,0.665,-0.25,9.95,-0.03,-0.01,-0.01,32.96,2.870705,-101.76300803560576,1478.9702405838843,9.975330821581807,0.033166247903554,-1.4119930518274315,1.4363713604990282
4837207,1520.0,1,186867,229020,0.64,-0.24,9.98,-0.03,-0.01,-0.01,32.96,2.910703,-104.15196775355517,1512.955144263401,10.003379428972991,0.033166247903554,-1.444927814680872,1.4694606531719554
4877209,1535.0,1,187113,228868,0.64,-0.25,9.97,-0.03,-0.01,-0.01,32.96,2.950705,-81.00210747204906,923.1568707615467,9.993647982593744,0.033166247903554,-1.1257783737199627,0.8952054522766035
4917207,1533.0,1,185589,221426,0.66,-0.22,9.92,-0.04,-0.01,-0.01,32.96,2.990703,-76.263255997847,-176.03930038447572,9.944365238666569,0.042426406871192854,-1.0604474481594057,-0.17502338094305842
4957209,1535.0,1,183434,219875,0.65,-0.23,9.96,-0.03,-0.01,-0.01,32.96,3.030705,-61.739920531541614,-1293.506395608787,9.983836937770969,0.033166247903554,-0.8602253155592365,-1.2630416409015026
4997207,1529.0,1,183547,220791,0.65,-0.24,9.96,-0.03,-0.01,-0.01,32.96,3.070703,-71.46288116601133,-1883.9439429851286,9.984072315443234,0.033166247903554,-0.9942683470610255,-1.8379192687582648
5037897,1503.0,1,184107,222409,0.65,-0.23,9.95,-0.03,-0.01,-0.01,32.71,3.111393,-82.18920428042543,-1733.077967484149,9.973860837208427,0.033166247903554,-1.1421439706675374,-1.6910290946734878
5076207,1578.0,1,184839,224574,0.66,-0.24,9.94,-0.03,-0.01,-0.01,32.71,3.149703,-15.306493954738643,-1081.1307772317657,9.964777970431653,0.033166247903554,-0.22008313095500343,-1.0562627999390468
5116209,1605.0,1,185648,226297,0.66,-0.22,9.96,-0.04,-0.01,-0.01,32.71,3.189705,20.090583362480835,-393.00739635117117,9.984267624618242,0.042426406871192854,0.26790933638898107,-0.3862736730089692
5156206,1600.0,1,186031,226683,0.65,-0.23,9.94,-0.03,-0.01,-0.01,32.71,3.229702,10.888199498275794,13.222531906890675,9.963884784560687,0.033166247903554,0.14104309918257427,0.00925079619042093
5196209,1612.0,1,186043,226831,0.64,-0.23,9.96,-0.04,-0.01,-0.01,32.71,3.269705,20.06493483191494,167.2001517739706,9.983190872661908,0.042426406871192854,0.2675557396893883,0.15917061285105769
5236207,1607.0,1,186184,227502,0.64,-0.23,9.97,-0.03,-0.01,-0.01,32.71,3.309703,13.092824783108217,327.71179472777186,9.993167665960579,0.033166247903554,0.1714365840082536,0.3154522601729506
5276209,1621.0,1,186502,228499,0.66,-0.25,9.98,-0.04,-0.01,-0.01,32.71,3.349705,19.65918256696784,667.460578120389,10.004923787815677,0.042426406871192854,0.2619619431415128,0.6462475754977678
5316207,1631.0,1,186900,229514,0.65,-0.23,9.96,-0.04,-0.01,-0.01,32.71,3.389703,21.479270728061163,1045.5363090745427,9.983836937770969,0.042426406871192854,0.28705410836622275,1.0143598006212142
5357209,1607.0,1,187256,230287,0.63,-0.25,9.98,-0.03,-0.01,-0.01,32.71,3.430705,-7.204206996644383,1080.728471219234,10.002989553128605,0.033166247903554,-0.10838308949745665,1.0486245366340061
5397207,1614.0,1,187415,229425,0.65,-0.24,9.95,-0.03,-0.01,-0.01,32.71,3.470703,-17.539115146962317,485.24652407077383,9.97409645030566,0.033166247903554,-0.2508625739715514,0.46883544508757385
5437209,1616.0,1,185623,222177,0.64,-0.24,9.96,-0.03,-0.01,-0.01,32.71,3.510705,-18.501813041093474,-620.1797407289386,9.983426265566347,0.033166247903554,-0.2641345544928185,-0.6074592988738314
5477207,1638.0,1,183657,220901,0.63,-0.23,9.97,-0.03,-0.01,-0.01,32.71,3.550703,-17.49630043505207,-1700.3867491297772,9.992532211606825,0.033166247903554,-0.2502723202419436,-1.6591993945759602
5517209,1648.0,1,183941,222282,0.665,-0.23,9.95,-0.03,-0.01,-0.01,32.71,3.590705,-14.993914515063159,-2146.278212410109,9.974849622926653,0.033166247903554,-0.21577383698021427,-2.0933401903827566
5557207,1648.0,1,184697,224363,0.65,-0.24,9.95,-0.03,-0.01,-0.01,32.71,3.630703,-32.70628092779905,-1696.958185318139,9.97409645030566,0.033166247903554,-0.45996070333618133,-1.6558611843964952
5597215,1642.0,1,185565,226628,0.665,-0.24,9.92,-0.03,-0.01,-0.01,32.71,3.670711,-54.59419221571517,-609.6258075360911,9.945160883565434,0.033166247903554,-0.7617126174469101,-0.5971834956065374
5637207,1653.0,1,186580,229504,0.665,-0.23,9.93,-0.04,-0.01,-0.01,32.71,3.710703,-55.54686648177441,540.8870801362908,9.95489954745903,0.042426406871192854,-0.7748464098643765,0.5230096943806791
5677210,1679.0,1,187697,231084,0.625,-0.24,10.000000000000004,-0.03,-0.01,-0.01,32.71,3.750706,-52.33613628043775,1262.201542535702,10.022386192918335,0.033166247903554,-0.7305825250559004,1.2253152115781523
5717207,1673.0,1,187703,230276,0.66,-0.23,9.94,-0.03,-0.01,-0.01,32.71,3.790703,-66.61793328544331,1442.375148809012,9.964542136997565,0.033166247903554,-0.9274747513863554,1.400740666542958
5757209,1689.0,1,187252,228932,0.665,-0.24,9.93,-0.03,-0.01,-0.01,32.71,3.830705,-75.67819611968943,1338.3385113313539,9.955135609322456,0.033166247903554,-1.0523816745101449,1.299445727511534
5797207,1703.0,1,186937,228595,0.665,-0.22,9.97,-0.04,-0.01,-0.01,32.71,3.870703,-69.5285131905779,1285.3034239569456,9.994574778348502,0.042426406871192854,-0.9676006933272596,1.2478082844687348
5837209,1739.0,1,187042,229400,0.64,-0.25499999999999995,9.97,-0.03,-0.01,-0.01,32.71,3.910705,-56.775891255032484,1376.2479250019355,9.993774312040472,0.033166247903554,-0.7917900356376074,1.3363561067738707
5877206,1774.0,1,187436,230870,0.65,-0.25,9.98,-0.04,-0.01,-0.01,32.71,3.950702,-30.816746738637672,1388.7099232574305,10.004269088744065,0.042426406871192854,-0.433911138768004,1.3484896914811924
5917188,1820.0,1,187841,230256,0.66,-0.22,9.94,-0.04,-0.01,-0.01,32.71,3.990684,-4.019002611923894,1024.1891822586522,9.964316333798319,0.042426406871192854,-0.06447110962508204,0.9935752389347018
5957186,1856.0,1,186098,223823,0.665,-0.24,9.98,-0.04,-0.01,-0.01,32.71,4.030682,21.4147728808052,237.44565688221851,10.005009994997506,0.042426406871192854,0.28616492581200376,0.22756492402532658
5997188,1900.0,1,184390,222154,0.64,-0.25,9.97,-0.04,-0.01,-0.01,32.71,4.070684,51.76633009143936,-659.7957874722914,9.993647982593744,0.042426406871192854,0.7045986614058817,-0.6460313359640896
6037207,1931.0,1,184312,222490,0.64,-0.24,9.96,-0.03,-0.01,-0.01,32.71,4.110703,70.57906133656498,-1224.7064643814954,9.983426265566347,0.033166247903554,0.9639554172056644,-1.1960548081087639
6077897,1949.0,1,184573,223188,0.665,-0.24,9.97,-0.03,-0.01,-0.01,32.89,4.151393,81.30473809474805,-1228.8546146778888,9.995035017447414,0.033166247903554,1.1118221299925306,-1.2000936413655248
6118207,1978.0,1,184860,224432,0.65,-0.23,9.96,-0.03,-0.01,-0.01,32.89,4.191703,97.61450743592167,-811.8225417061275,9.983836937770969,0.033166247903554,1.336672461879643,-0.7940516985461537
6158219,1997.0,1,185384,225429,0.65,-0.24,9.94,-0.03,-0.01,-0.01,32.89,4.231715,114.28461128349346,-325.74757962364555,9.964120633553168,0.033166247903554,1.5664904503693218,-0.32078636776861513
6198207,2012.0,1,185571,225468,0.65,-0.24,9.97,-0.04,-0.01,-0.01,32.89,4.271703,119.56150070632148,-31.31211880325813,9.994048228820992,0.042426406871192854,1.6392388941538183,-0.03411022390636038
6238209,2017.0,1,185458,225258,0.65,-0.25,9.96,-0.03,-0.01,-0.01,32.89,4.311705,123.47967961713846,85.70621448558462,9.984317703278478,0.033166247903554,1.6932558339437767,0.07982430169379359
6278207,2033.0,1,185461,225503,0.66,-0.25,9.96,-0.03,-0.01,-0.01,32.89,4.351703,136.97044487456753,232.94134964263762,9.984973710531241,0.033166247903554,1.8792427097904083,0.22317931970098331
6318209,2032.0,1,185620,226073,0.66,-0.25,9.97,-0.04,-0.01,-0.01,32.89,4.391705,133.10829849830085,552.7541774093831,9.994948724230655,0.042426406871192854,1.8259982477545225,0.5345640556509192
6359207,2018.0,1,185956,226859,0.66,-0.23,9.94,-0.03,-0.01,-0.01,32.89,4.432703,125.21860988300463,925.4093849800657,9.964542136997565,0.033166247903554,1.7172291372584647,0.897398605534573
6397209,2031.0,1,186268,227921,0.65,-0.23,9.98,-0.03,-0.01,-0.01,32.89,4.470705,134.3331796529219,1024.3335257901592,10.003789282067071,0.033166247903554,1.8428847486226576,0.9937157785520719
6437207,2001.0,1,186608,227522,0.65,-0.25,9.97,-0.03,-0.01,-0.01,32.89,4.510703,116.19340271066213,595.5885764882994,9.994293371719683,0.033166247903554,1.5928054997684977,0.5762696311899046
6477209,1968.0,1,184723,220827,0.65,-0.23,9.95,-0.04,-0.01,-0.01,32.89,4.550705,81.96766023042767,-279.0100371515579,9.973860837208427,0.042426406871192854,1.1209613311121063,-0.27528050915985924
6517186,1936.0,1,183208,219678,0.63,-0.24,9.98,-0.04,-0.01,-0.01,32.89,4.590682,63.20264138709287,-1184.478155013216,10.002744623352132,0.042426406871192854,0.8622623497512737,-1.1568866434737601
6557231,1903.0,1,183264,220160,0.65,-0.23,9.98,-0.03,-0.01,-0.01,32.89,4.630727,34.926095337297106,-1660.579439818486,10.003789282067071,0.033166247903554,0.4724352080597473,-1.620441135298711
6597207,1869.0,1,183608,221112,0.66,-0.22,9.94,-0.03,-0.01,-0.01,32.89,4.670703,12.207179648661981,-1532.778774121649,9.964316333798319,0.033166247903554,0.1592268710289459,-1.4960084262666011
6637209,1838.0,1,184058,222462,0.65,-0.23,9.96,-0.04,-0.01,-0.01,32.89,4.710705,-6.399550059220242,-1007.135179616633,9.983836937770969,0.042426406871192854,-0.09728989892863978,-0.9842172232004841
6677207,1793.0,1,184606,223494,0.66,-0.23,9.96,-0.04,-0.01,-0.01,32.89,4.750703,-43.80280485947582,-466.6520714304018,9.984492976611282,0.042426406871192854,-0.612940002836886,-0.4579775751438464
6717209,1758.0,1,184861,223843,0.64,-0.23,9.99,-0.04,-0.01,-0.01,32.89,4.790705,-59.57948953243838,-158.61411586199006,10.013121391454316,0.042426406871192854,-0.830441103593636,-0.15805740581534872
6757207,1743.0,1,184892,223926,0.65,-0.25,9.96,-0.04,-0.01,-0.01,32.89,4.830703,-68.6625464234946,-32.90846047091077,9.984317703278478,0.042426406871192854,-0.9556622709677024,-0.03566449686075994
6797209,1698.0,1,184996,224490,0.64,-0.23,9.96,-0.04,-0.01,-0.01,32.89,4.870705,-93.39097982129994,149.62462506548593,9.983190872661908,0.042426406871192854,-1.2965742937090852,0.14205825753523504
6837207,1687.0,1,185254,225478,0.65,-0.25499999999999995,10.000000000000004,-0.03,-0.01,-0.01,32.89,4.910703,-93.47392331645541,542.1483600446965,10.024346612123908,0.033166247903554,-1.2977177723214102,0.5242377355258089
6877209,1678.0,1,185726,226694,0.625,-0.23,9.94,-0.04,-0.01,-0.01,32.89,4.950705,-89.51623253757978,1009.721501380367,9.962285129426881,0.042426406871192854,-1.2431561125871888,0.9794888277624193
6917207,1645.0,1,186116,227690,0.65,-0.22,9.96,-0.03,-0.01,-0.01,32.89,4.990703,-101.09894583679481,1188.57707330124,9.983611570969696,0.033166247903554,-1.4028381335282873,1.1536309827993498
6957209,1635.0,1,186514,228045,0.64,-0.25,9.97,-0.03,-0.01,-0.01,32.89,5.030705,-108.42387826344354,782.7571932272824,9.993647982593744,0.033166247903554,-1.5038213818336326,0.7585057557017406
6997207,1609.0,1,185054,221083,0.66,-0.24,9.94,-0.03,-0.01,-0.01,32.89,5.070703,-105.40249327072401,-143.21142311805713,9.964777970431653,0.033166247903554,-1.4621678547873178,-0.14306062333329764
7037209,1615.0,1,183124,219654,0.63,-0.24,9.95,-0.03,-0.01,-0.01,32.89,5.110705,-100.6963412330548,-1143.644400823842,9.97281304346973,0.033166247903554,-1.3972877313811711,-1.1171289894268859
7077895,1591.0,1,183129,220357,0.66,-0.24,9.95,-0.03,-0.01,-0.01,32.67,5.151391,-98.24435029139437,-1688.7216724143248,9.974753129777197,0.033166247903554,-1.3634840051920631,-1.6478417299749453
7118209,1602.0,1,183637,221816,0.65,-0.22,9.97,-0.03,-0.01,-0.01,32.67,5.191705,-82.90591520397949,-1538.445978242765,9.99358794427707,0.033166247903554,-1.1520247167196243,-1.5015262814169117
7158207,1602.0,1,184314,223965,0.64,-0.24,9.99,-0.04,-0.01,-0.01,32.67,5.231703,-66.98732379704087,-880.3083556444101,10.013356080755344,0.042426406871192854,-0.9325672562152855,-0.860732692046021
7198209,1611.0,1,185265,225911,0.65,-0.23,9.96,-0.04,-0.01,-0.01,32.67,5.271705,-45.50783085017147,-132.04235636786558,9.983836937770969,0.042426406871192854,-0.6364458938071678,-0.13218589724710017
7238186,1616.0,1,185705,226595,0.64,-0.25,9.97,-0.04,-0.01,-0.01,32.67,5.311682,-32.56392043715172,399.08820998852684,9.993647982593744,0.042426406871192854,-0.4579980879919621,0.3849476783968665
7278188,1594.0,1,185842,226906,0.66,-0.24,9.98,-0.03,-0.01,-0.01,32.67,5.351684,-41.9272313512912,706.0370003998565,10.004678905392216,0.033166247903554,-0.5870829035136382,0.683807385556876
7318207,1605.0,1,186015,227537,0.63,-0.24,9.98,-0.04,-0.01,-0.01,32.67,5.391703,-20.98886337525604,979.1723276952065,10.002744623352132,0.042426406871192854,-0.29842161774666137,0.9497447225998196
7358209,1611.0,1,186342,228642,0.63,-0.24,9.95,-0.03,-0.01,-0.01,32.67,5.431705,-11.469601734168672,1330.3429855975114,9.97281304346973,0.033166247903554,-0.1671868286736274,1.2916609094765636
7397207,1585.0,1,186826,229843,0.65,-0.23,9.96,-0.04,-0.01,-0.01,32.67,5.470703,-20.606353171158176,1612.2069453320307,9.983836937770969,0.042426406871192854,-0.29314824173854775,1.5660968515512514
7437209,1615.0,1,187025,230150,0.65,-0.25,9.99,-0.04,-0.01,-0.01,32.67,5.510705,4.391067461078794,1514.6049982907664,10.014244854206432,0.042426406871192854,0.05147210254130505,1.471067028264082
7477207,1600.0,1,187110,228976,0.64,-0.23,9.95,-0.03,-0.01,-0.01,32.67,5.550703,7.580494228135105,864.9862392477149,9.973214125847294,0.033166247903554,0.09544229317372806,0.838567803122685
7517209,1597.0,1,185141,221942,0.65,-0.23,9.96,-0.03,-0.01,-0.01,32.67,5.590705,-0.8984134996467854,-144.7096094616112,9.983836937770969,0.033166247903554,-0.021449931158291552,-0.14451932767060968
7557207,1592.0,1,183587,221400,0.64,-0.24,9.98,-0.03,-0.01,-0.01,32.67,5.630703,6.543781926710152,-1037.2147092342223,10.003379428972991,0.033166247903554,0.08114993255410943,-1.0135040609201473
7597209,1594.0,1,184013,222800,0.625,-0.25,9.95,-0.03,-0.01,-0.01,32.67,5.670705,6.461970009434156,-1389.4140351803953,9.972744105811598,0.033166247903554,0.08002205414166677,-1.356421807144766
7637207,1597.0,1,184593,224421,0.64,-0.23,9.96,-0.03,-0.01,-0.01,32.67,5.710703,16.731732532152353,-1135.582239879205,9.983190872661908,0.033166247903554,0.22160342560874205,-1.109279292232242
7677209,1611.0,1,185158,225983,0.65,-0.24,9.95,-0.03,-0.01,-0.01,32.67,5.750705,28.55217448211201,-570.2927452217996,9.97409645030566,0.033166247903554,0.384562829871508,-0.5588869853997271
7717207,1611.0,1,185681,226782,0.665,-0.24,9.96,-0.03,-0.01,-0.01,32.67,5.790703,35.44339348340323,-68.41303868019135,9.985060089954391,0.033166247903554,0.4795668024681928,-0.07023341577471306
7757209,1620.0,1,185726,226702,0.66,-0.25,9.96,-0.04,-0.01,-0.01,32.67,5.830705,39.1424117453892,214.20605688911064,9.984973710531241,0.042426406871192854,0.5305623417959235,0.20493776188812202
7797186,1619.0,1,185798,227263,0.665,-0.23,9.99,-0.04,-0.01,-0.01,32.67,5.870682,44.94869024764949,404.9649617041077,10.014750371327285,0.042426406871192854,0.6106090684511203,0.39066955889171057
7837188,1636.0,1,186194,228470,0.64,-0.23,9.96,-0.04,-0.01,-0.01,32.67,5.910684,56.97348560385725,713.4356557141524,9.983190872661908,0.042426406871192854,0.7763857370329561,0.6910110626185945
7877186,1631.0,1,186660,229655,0.64,-0.23,9.98,-0.04,-0.01,-0.01,32.67,5.950682,53.33637418801597,1161.5766911348394,10.003144505604226,0.042426406871192854,0.7262436601062281,1.1273421471383738
7917188,1632.0,1,186939,230065,0.63,-0.23,9.93,-0.03,-0.01,-0.01,32.67,5.990684,55.53185134477652,1491.3343427017387,9.952622769903419,0.033166247903554,0.7565110266778673,1.4484096289453274
7957207,1646.0,1,186989,230210,0.65,-0.23,9.95,-0.03,-0.01,-0.01,32.67,6.030703,62.08439449641283,1343.82051489015,9.973860837208427,0.033166247903554,0.846845934028803,1.3047832627272176
7997209,1635.0,1,187012,228211,0.65,-0.24,9.96,-0.04,-0.01,-0.01,32.67,6.070705,58.32678911734076,573.912293425812,9.984072315443234,0.042426406871192854,0.7950426988688656,0.5551645875776091
8037207,1645.0,1,184619,221490,0.66,-0.23,9.98,-0.04,-0.01,-0.01,32.67,6.110703,56.50957019489636,-565.6623660118942,10.004444012537629,0.042426406871192854,0.7699900896457752,-0.554378631505067
8077188,1630.0,1,183447,221215,0.65,-0.22,9.97,-0.04,-0.01,-0.01,32.67,6.150684,47.72540606474852,-1547.3182025156718,9.99358794427707,0.042426406871192854,0.6488895284607397,-1.510164694177899
8117895,1649.0,1,183660,222055,0.65,-0.24,9.96,-0.04,-0.01,-0.01,32.67,6.191391,58.417059690936696,-1918.884614837745,9.984072315443234,0.042426406871192854,0.7962871903149492,-1.8719391420532647
8158209,1663.0,1,184081,223180,0.64,-0.24,9.98,-0.03,-0.01,-0.01,32.67,6.231705,71.64549389433765,-1600.5716056664805,10.003379428972991,0.033166247903554,0.9786575082980914,-1.5620146996775044
8198230,1649.0,1,184675,224956,0.65,-0.23,9.96,-0.03,-0.01,-0.01,32.67,6.271726,55.54586648893348,-895.2639673626162,9.983836937770969,0.033166247903554,0.7567042427650613,-0.8752941755185973
8238209,1648.0,1,185350,226405,0.66,-0.22,9.96,-0.04,-0.01,-0.01,32.67,6.311705,47.73599561945025,-224.8774919263677,9.984267624618242,0.042426406871192854,0.6490355185627094,-0.22257452979389794
8278207,1642.0,1,185731,226883,0.65,-0.24,9.98,-0.03,-0.01,-0.01,32.67,6.351703,42.535207125752635,180.44490258163705,10.004024190294624,0.033166247903554,0.5773362201593613,0.17206632207500383
8318209,1649.0,1,185871,227104,0.65,-0.22,9.96,-0.03,-0.01,-0.01,32.67,6.391705,40.499502400203525,399.12135407797274,9.983611570969696,0.033166247903554,0.549271514056599,0.3849799490334525
8358207,1648.0,1,185932,227690,0.625,-0.24,9.95,-0.03,-0.01,-0.01,32.67,6.431703,40.606992018172086,667.076498027734,9.972498433191152,0.033166247903554,0.5507533913148895,0.645873617145096
8398209,1640.0,1,186339,228663,0.65,-0.25499999999999995,9.96,-0.04,-0.01,-0.01,32.67,6.471705,21.954426026369163,1095.768052545558,9.98444415077775,0.042426406871192854,0.2936047115223791,1.0632677768467176
8437207,1635.0,1,186638,229516,0.64,-0.24,9.96,-0.03,-0.01,-0.01,32.67,6.510703,19.181023292032044,1500.7897715498389,9.983426265566347,0.033166247903554,0.25536992645414014,1.4576158769739602
8477209,1645.0,1,186996,230383,0.65,-0.23,9.96,-0.03,-0.01,-0.01,32.67,6.550705,15.996897414431887,1501.8706023516886,9.983836937770969,0.033166247903554,0.211472815135629,1.458668224424157
8517207,1622.0,1,187051,227838,0.64,-0.25499999999999995,9.95,-0.03,-0.01,-0.01,32.67,6.590703,-4.104675498732588,835.1338167802094,9.973821985578045,0.033166247903554,-0.06565221627531721,0.8095020875526708
8557209,1626.0,1,184555,221373,0.625,-0.23,9.97,-0.03,-0.01,-0.01,32.67,6.630705,-13.379076753079884,-374.4138327666942,9.99221822219671,0.033166247903554,-0.19351130223000462,-0.368170109347841
8597207,1613.0,1,183263,220057,0.63,-0.22,10.000000000000004,-0.03,-0.01,-0.01,32.67,6.670703,-26.69058972468709,-1621.082078151912,10.022240268522806,0.033166247903554,-0.37702696373169625,-1.5819846555535162
8637209,1616.0,1,183008,219741,0.66,-0.23,9.94,-0.03,-0.01,-0.01,32.67,6.710705,-33.11536359862234,-2319.5388515828104,9.964542136997565,0.033166247903554,-0.4656004136459817,-2.2620348570602844
8677207,1615.0,1,183142,220637,0.665,-0.24,9.96,-0.03,-0.01,-0.01,32.67,6.750703,-39.76247818234137,-2166.5128691100263,9.985060089954391,0.033166247903554,-0.5572391050937997,-2.1130415991021616
8717209,1600.0,1,183965,223594,0.665,-0.24,9.94,-0.04,-0.01,-0.01,32.67,6.790705,-60.82626245188594,-1295.001612923481,9.965110385740841,0.042426406871192854,-0.847629409501675,-1.2644974544533696
8757186,1600.0,1,185304,226758,0.66,-0.24,9.96,-0.04,-0.01,-0.01,32.67,6.830682,-68.44960085257303,-137.13248155370633,9.984728338818238,0.042426406871192854,-0.9527265530373001,-0.13714188133946167
8797188,1589.0,1,186223,228550,0.66,-0.24,9.93,-0.04,-0.01,-0.01,32.67,6.870684,-86.5981769994534,866.0885999845764,9.954802860930998,0.042426406871192854,-1.2029271098043983,0.8396411131251829
8837207,1573.0,1,186716,229472,0.64,-0.24,9.96,-0.04,-0.01,-0.01,32.67,6.910703,-107.91476392053923,1484.351140518482,9.983426265566347,0.042426406871192854,-1.4968026112688315,1.4416104564946701
8877188,1584.0,1,186828,229536,0.665,-0.23,9.92,-0.03,-0.01,-0.01,32.67,6.950684,-106.91059026041458,1712.761577855983,9.944924584932759,0.033166247903554,-1.4829588360425734,1.6640015476063152
8917207,1577.0,1,186697,228693,0.65,-0.23,9.96,-0.04,-0.01,-0.01,32.67,6.990703,-117.4138932612985,1625.3981858220156,9.983836937770969,0.042426406871192854,-1.6277598516950555,1.5789404606256876
8957209,1567.0,1,186298,227233,0.64,-0.23,9.96,-0.03,-0.01,-0.01,32.67,7.030705,-137.05043607294658,1236.8176947251982,9.983190872661908,0.033166247903554,-1.8984738683040023,1.2006003094178426
8997207,1565.0,1,185842,226147,0.66,-0.25,9.99,-0.03,-0.01,-0.01,32.67,7.070703,-144.06510245488136,513.8699341493272,10.014898901137245,0.033166247903554,-1.9951797156438342,0.4967045366794773
9037209,1576.0,1,185654,223142,0.66,-0.25499999999999995,9.98,-0.03,-0.01,-0.01,32.67,7.110705,-139.308092916399,-479.25267247464564,10.005049974887681,0.033166247903554,-1.9295984587208623,-0.4702461100127293
9077207,1584.0,1,183400,218969,0.65,-0.24,9.96,-0.03,-0.01,-0.01,32.67,7.150703,-137.95809416157448,-1471.693688118351,9.984072315443234,0.033166247903554,-1.9109870570682843,-1.4365331278289508
9117897,1599.0,1,182834,218846,0.665,-0.24,9.94,-0.03,-0.01,-0.01,32.63,7.191393,-127.50944690992384,-2069.869648486602,9.965110385740841,0.033166247903554,-1.7669395384823496,-2.018945236722586
9158207,1641.0,1,183236,220385,0.665,-0.21500000000000002,9.93,-0.03,-0.01,-0.01,32.63,7.231703,-89.3726428895268,-2006.143226124213,9.954564279766343,0.033166247903554,-1.2411765517886948,-1.9568982095945207
9198209,1669.0,1,184074,222416,0.66,-0.24,9.98,-0.03,-0.01,-0.01,32.63,7.271705,-68.41953276178704,-1343.5043169216174,10.004678905392216,0.033166247903554,-0.9523120272367805,-1.3117219569312157
9238207,1687.0,1,184939,224764,0.665,-0.24,9.96,-0.04,-0.01,-0.01,32.63,7.311703,-47.58834011686482,-445.1812053360129,9.985060089954391,0.042426406871192854,-0.66512828589528,-0.4370725351049462
9278209,1754.0,1,185779,226333,0.665,-0.23,9.96,-0.03,-0.01,-0.01,32.63,7.351705,8.960490206124405,280.36683979592976,9.984824735567472,0.033166247903554,0.11446724362906335,0.26935499636724214
9318207,1781.0,1,186102,227109,0.66,-0.25,9.96,-0.04,-0.01,-0.01,32.63,7.391703,44.67246086806523,657.1906725225101,9.984973710531241,0.042426406871192854,0.606800904989256,0.6362483147890677
9358209,1813.0,1,186264,227224,0.66,-0.23,9.96,-0.03,-0.01,-0.01,32.63,7.431705,66.05995425695917,821.9653414873862,9.984492976611282,0.033166247903554,0.9016539397643135,0.7966806437395738
9398207,1841.0,1,186324,227698,0.665,-0.22,9.919999999999998,-0.03,-0.01,-0.01,32.63,7.471703,105.46673226490726,1043.8364431097907,9.944698336299597,0.033166247903554,1.4449250877700957,1.0127047315663524
9437210,1874.0,1,186572,228581,0.65,-0.23,9.99,-0.03,-0.01,-0.01,32.63,7.510706,130.99049944380025,1430.7212620177515,10.013765525515364,0.033166247903554,1.796801769845264,1.3893938969758106
9477207,1878.0,1,186962,229647,0.65,-0.23,9.96,-0.04,-0.01,-0.01,32.63,7.550703,147.0495579229776,1773.0924893379738,9.983836937770969,0.042426406871192854,2.0181957425804877,1.7227425464356063
9517209,1904.0,1,187344,230749,0.66,-0.23,9.97,-0.04,-0.01,-0.01,32.63,7.590705,170.46542734944492,1682.5496142490422,9.994468470108854,0.042426406871192854,2.3410124484351154,1.6345857659568759
9557207,1904.0,1,187465,228551,0.65,-0.25,9.95,-0.04,-0.01,-0.01,32.63,7.630703,181.79735899789165,937.0125635219368,9.974342083566214,0.042426406871192854,2.497237134313596,0.9086960031770329
9597210,1891.0,1,184955,221381,0.66,-0.25,9.95,-0.04,-0.01,-0.01,32.63,7.670706,172.71939990618546,-261.4360526214853,9.974998746867088,0.042426406871192854,2.3720862464052765,-0.2581696553811106
9637225,1872.0,1,183418,220437,0.63,-0.24,9.97,-0.03,-0.01,-0.01,32.63,7.710721,162.47722159086587,-1368.2935204336054,9.992767384463626,0.033166247903554,2.2308851573357433,-1.3358578855738885
9677209,1855.0,1,183574,221301,0.625,-0.23,9.96,-0.03,-0.01,-0.01,32.63,7.750705,157.34560009294268,-1875.8681175590177,9.98224047997242,0.033166247903554,2.1601394114707655,-1.8300562671849778
9717207,1840.0,1,184000,222660,0.66,-0.24,9.94,-0.03,-0.01,-0.01,32.63,7.790703,147.53895353704078,-1668.2313695586133,9.964777970431653,0.033166247903554,2.024942666092668,-1.627891412194342
9757209,1810.0,1,184739,224593,0.64,-0.23,9.96,-0.03,-0.01,-0.01,32.63,7.830705,136.29588047939953,-1049.7870150280123,9.983190872661908,0.033166247903554,1.869943005732065,-1.0257450462090065
9797207,1776.0,1,185395,225708,0.63,-0.23,9.97,-0.03,-0.01,-0.01,32.63,7.870703,106.3899608967414,-445.7492649041836,9.992532211606825,0.033166247903554,1.4576529357201913,-0.43762562448498715
9837254,1715.0,1,185580,225932,0.665,-0.24,9.97,-0.04,-0.01,-0.01,32.63,7.91075,65.64188097745242,-57.1895909735658,9.995035017447414,0.042426406871192854,0.8958902827999616,-0.05930574184437141
9877207,1691.0,1,185656,226436,0.66,-0.23,9.96,-0.04,-0.01,-0.01,32.63,7.950703,50.55265739859437,231.1079146400025,9.984492976611282,0.042426406871192854,0.6878666830388054,0.22139420157997633
9917210,1663.0,1,186002,227494,0.65,-0.23,9.95,-0.04,-0.01,-0.01,32.63,7.990706,37.19319627460086,632.7310528750398,9.973860837208427,0.042426406871192854,0.5036899969847789,0.6124332844209978
9957186,1618.0,1,186514,228793,0.65,-0.23,9.97,-0.04,-0.01,-0.01,32.63,8.030682,10.337107783864859,1150.6438030153101,9.993813086104822,0.042426406871192854,0.1334456186607179,1.1166973756198506
9997188,1583.0,1,186902,229840,0.64,-0.24,9.98,-0.04,-0.01,-0.01,32.63,8.070684,-18.42437976838072,1477.379487589553,10.003379428972991,0.042426406871192854,-0.2630670411083947,1.434822528938517
10037206,1535.0,1,187229,230477,0.65,-0.24,9.96,-0.03,-0.01,-0.01,32.63,8.110702,-41.057843269281975,1223.5726275194297,9.984072315443234,0.033166247903554,-0.575097314098527,1.1877042921338974
10077209,1520.0,1,186876,225618,0.65,-0.23,9.96,-0.04,-0.01,-0.01,32.63,8.150705,-54.65426401531976,293.66769038579685,9.983836937770969,0.042426406871192854,-0.7625407814629425,0.28230532696453775
10117895,1463.0,1,183803,220374,0.625,-0.22,9.97,-0.04,-0.01,-0.01,32.55,8.191391,-85.63467805584834,-933.9141846484198,9.991993044433128,0.042426406871192854,-1.1896440858259065,-0.9129258358493874
10158209,1439.0,1,183259,220446,0.65,-0.24,9.97,-0.03,-0.01,-0.01,32.55,8.231705,-108.17634279468595,-1818.0145998204355,9.994048228820992,0.033166247903554,-1.5004087994028394,-1.7737273748431661
10198209,1423.0,1,183656,221946,0.665,-0.25,9.94,-0.03,-0.01,-0.01,32.55,8.271705,-102.14286661496625,-1903.458918802468,9.965356240496371,0.033166247903554,-1.4172298719107022,-1.856919962490236
10238209,1415.0,1,184436,224278,0.65,-0.24,9.94,-0.04,-0.01,-0.01,32.55,8.311705,-107.79378299788787,-1230.273150557931,9.964120633553168,0.042426406871192854,-1.4951347396980488,-1.2014747942840207
10278209,1394.0,1,185504,226975,0.665,-0.24,9.96,-0.04,-0.01,-0.01,32.55,8.351705,-110.92286313632131,-252.86724101986022,9.985060089954391,0.042426406871192854,-1.5382729774566892,-0.24982665939621274
10318209,1402.0,1,186293,228010,0.65,-0.24,9.96,-0.04,-0.01,-0.01,32.55,8.391705,-101.8994394819773,535.9414923113104,9.984072315443234,0.042426406871192854,-1.413873927967049,0.5181944386270171
10358207,1389.0,1,186313,228125,0.665,-0.25499999999999995,9.96,-0.04,-0.01,-0.01,32.55,8.431703,-100.24450417221678,946.1371444610662,9.985431888506376,0.042426406871192854,-1.3910585989536604,0.9175801221982276
10398209,1402.0,1,186397,228753,0.665,-0.25499999999999995,9.97,-0.04,-0.01,-0.01,32.55,8.471705,-88.92423276185592,1130.6817988759813,9.995406444962606,0.042426406871192854,-1.234994663871138,1.0972614341932299
10438209,1410.0,1,186686,229383,0.625,-0.21500000000000002,9.96,-0.03,-0.01,-0.01,32.55,8.511705,-69.99310458192946,1331.8656921500526,9.981906130594497,0.033166247903554,-0.9740056599673198,1.2931434878368604
10478209,1430.0,1,186787,229630,0.65,-0.23,9.98,-0.03,-0.01,-0.01,32.55,8.551705,-54.16781240087334,1582.822508547922,10.003789282067071,0.033166247903554,-0.7558344446247399,1.5374867887437311
10518209,1441.0,1,186885,230085,0.64,-0.23,9.94,-0.03,-0.01,-0.01,32.55,8.591705,-37.2234943537699,1635.8012283514033,9.96323742565638,0.033166247903554,-0.5222360744213116,1.5890693496815447
10558209,1458.0,1,187098,230450,0.66,-0.25,9.98,-0.03,-0.01,-0.01,32.55,8.631705,-26.105024336078355,1186.0119122976491,10.004923787815677,0.033166247903554,-0.368954220995973,1.15113342199996
10598209,1472.0,1,186303,224296,0.66,-0.23,9.94,-0.03,-0.01,-0.01,32.55,8.671705,-12.52233014903218,195.8653631447151,9.964542136997565,0.033166247903554,-0.18169999121550925,0.1870804041372861
10638209,1490.0,1,183473,220381,0.64,-0.24,9.97,-0.03,-0.01,-0.01,32.55,8.711705,-0.9243505790453964,-980.2519014019248,9.993402823863352,0.033166247903554,-0.021807505860236442,-0.9580424054271928
10678209,1503.0,1,183182,220655,0.66,-0.23,9.96,-0.03,-0.01,-0.01,32.55,8.751705,4.191476037925043,-1805.2527927143108,9.984492976611282,0.033166247903554,0.048720488045773946,-1.761301882208196
10718209,1526.0,1,183526,221518,0.665,-0.23,10.0,-0.03,-0.01,-0.01,32.55,8.791705,20.6262938038627,-1933.5490798942917,10.024725682032402,0.033166247903554,0.2752947670483846,-1.8862171515107535
10758207,1535.0,1,184005,222996,0.66,-0.23,9.97,-0.03,-0.01,-0.01,32.55,8.831703,15.64823165128212,-1430.026884119702,9.994468470108854,0.033166247903554,0.20666602658320074,-1.395964377502088
10798209,1535.0,1,184781,225042,0.665,-0.25499999999999995,9.94,-0.03,-0.01,-0.01,32.55,8.871705,6.125090507143903,-663.9650000469475,9.96548292858906,0.033166247903554,0.07537775376491614,-0.6500906764406551
10838207,1579.0,1,185421,226235,0.66,-0.24,9.93,-0.04,-0.01,-0.01,32.55,8.911703,34.71383219026818,1.1487791713113533,9.954802860930998,0.042426406871192854,0.4695088981862918,-0.00250477450931105
10878209,1599.0,1,185704,226885,0.66,-0.24,9.95,-0.04,-0.01,-0.01,32.55,8.951705,38.47261975931274,446.3962928568599,9.974753129777197,0.042426406871192854,0.5213284312963786,0.43100904183597655
10918186,1594.0,1,185963,227588,0.66,-0.22,9.93,-0.04,-0.01,-0.01,32.55,8.991682,19.139264306677326,781.7012377815158,9.954340761697884,0.042426406871192854,0.2547942272201495,0.7574776280623616
10958209,1605.0,1,186179,228177,0.65,-0.23,9.95,-0.03,-0.01,-0.01,32.55,9.031705,9.338091443805828,1123.323626385779,9.973860837208427,0.033166247903554,0.11967294346684801,1.090097173103594
10998209,1616.0,1,186423,228703,0.665,-0.24,9.98,-0.03,-0.01,-0.01,32.55,9.071705,2.309327090862384,1387.1385292645252,10.005009994997506,0.033166247903554,0.022772738169283924,1.3469597087504466
11038209,1641.0,1,186591,229238,0.66,-0.23,9.98,-0.03,-0.01,-0.01,32.55,9.111705,10.159889520663938,1303.853341732357,10.004444012537629,0.033166247903554,0.1310024458319894,1.265869352527588
11078209,1641.0,1,186793,228780,0.665,-0.23,9.94,-0.03,-0.01,-0.01,32.55,9.151705,-17.613319915486148,663.5484302033999,9.96487456017385,0.033166247903554,-0.2518855784347763,0.642438525202208
11118897,1626.0,1,184983,221258,0.64,-0.24,9.94,-0.04,-0.01,-0.01,32.71,9.192393,-42.35489667289389,-425.6808773214071,9.963473289972729,0.042426406871192854,-0.5929787986356015,-0.41808610315921496
11157209,1685.0,1,183043,219886,0.66,-0.22,9.98,-0.03,-0.01,-0.01,32.71,9.230705,-17.538717567715434,-1520.5955207367992,10.004219109955558,0.033166247903554,-0.2508570928501607,-1.4841462406102475
11197209,1685.0,1,183100,220499,0.66,-0.25,9.97,-0.03,-0.01,-0.01,32.71,9.270705,-26.601937566423157,-2116.1637984124177,9.994948724230655,0.033166247903554,-0.3758047841415881,-2.064019387598081
11237207,1698.0,1,183519,221837,0.65,-0.22,9.96,-0.03,-0.01,-0.01,32.71,9.310703,-43.34754842809931,-1987.9534152597062,9.983611570969696,0.033166247903554,-0.6066637301596057,-1.9391877584766724
11277219,1712.0,1,184140,223778,0.66,-0.23,9.96,-0.03,-0.01,-0.01,32.71,9.350715,-45.655602909178455,-1316.932445290273,9.984492976611282,0.033166247903554,-0.6384831143108006,-1.285850339180922
11317209,1713.0,1,185049,225910,0.665,-0.21500000000000002,9.95,-0.04,-0.01,-0.01,32.71,9.390705,-64.60117765207563,-509.62950062329674,9.974515025804513,0.042426406871192854,-0.899671281943464,-0.49982241149543
11357209,1727.0,1,185663,226956,0.665,-0.25,9.96,-0.04,-0.01,-0.01,32.71,9.430705,-72.2371602482112,114.00997545316822,9.985305453515181,0.042426406871192854,-1.0049427413436218,0.10738216795208239
11397207,1733.0,1,185940,227557,0.65,-0.23,9.96,-0.03,-0.01,-0.01,32.71,9.470703,-81.22563940171132,504.4111275967214,9.983836937770969,0.033166247903554,-1.1288600376920608,0.48749499995966555
11437209,1747.0,1,186175,228262,0.65,-0.23,9.95,-0.04,-0.01,-0.01,32.71,9.510705,-85.61030753003762,807.8472217633188,9.973860837208427,0.042426406871192854,-1.189308108001685,0.782934581666058
11477239,1773.0,1,186420,228915,0.665,-0.24,9.96,-0.03,-0.01,-0.01,32.71,9.550735,-75.76024251274617,1126.7053576783658,9.985060089954391,0.033166247903554,-1.0535127854610753,1.0933897849508079
11517209,1797.0,1,186635,229477,0.625,-0.24,10.000000000000004,-0.04,-0.01,-0.01,32.71,9.590705,-62.38868893017826,1345.6444888449157,10.022386192918335,0.042426406871192854,-0.8691693899173614,1.3065591691292537
11557206,1840.0,1,186878,230225,0.665,-0.24,9.97,-0.03,-0.01,-0.01,32.71,9.630702,-35.925394172437336,1198.7000893209033,9.995035017447414,0.033166247903554,-0.5043401587593709,1.1634872249404526
11597209,1863.0,1,187049,228897,0.64,-0.25,9.93,-0.03,-0.01,-0.01,32.71,9.670705,-18.485045520679954,536.1353315477523,9.953743014564923,0.033166247903554,-0.2639033934965445,0.5183831695790483
11637209,1895.0,1,185086,222426,0.64,-0.23,9.94,-0.03,-0.01,-0.01,32.71,9.710705,1.8783321825907786,-452.5976325362651,9.96323742565638,0.033166247903554,0.01683094057918062,-0.44429351570653347
11677234,1938.0,1,183651,221818,0.66,-0.23,9.94,-0.04,-0.01,-0.01,32.71,9.75073,40.44452946445053,-1294.5791074933925,9.964542136997565,0.042426406871192854,0.5485136441817832,-1.2640860833939154
11717209,1979.0,1,183951,223214,0.66,-0.23,9.96,-0.03,-0.01,-0.01,32.71,9.790705,77.74842344006768,-1555.795334036286,9.984492976611282,0.033166247903554,1.0627939362963013,-1.5184184261454128
11757209,2026.0,1,184693,225101,0.66,-0.23,9.98,-0.03,-0.01,-0.01,32.71,9.830705,121.06540302836608,-1157.3576702371627,10.004444012537629,0.033166247903554,1.6599720467302848,-1.1304808702913758
11797207,2047.5,1,185512,227484,0.64,-0.24,9.97,-0.04,-0.01,-0.01,32.71,9.870703,145.9122033973042,-407.0696471398173,9.993402823863352,0.042426406871192854,2.002515904489499,-0.39996533847236326
11837209,2047.5,1,186307,228557,0.65,-0.24,9.98,-0.04,-0.01,-0.01,32.71,9.910705,145.0207405424881,271.18521106965477,10.004024190294624,0.042426406871192854,1.9902259870432473,0.26041533295071806
11877207,2047.5,1,186446,228691,0.665,-0.24,9.96,-0.03,-0.01,-0.01,32.71,9.950703,152.88746418523087,660.5079317282845,9.985060089954391,0.033166247903554,2.0986784970042267,0.6394781535953489
11917209,2047.5,1,186488,228934,0.66,-0.23,9.96,-0.03,-0.01,-0.01,32.71,9.990705,157.45358337918327,849.3312160220325,9.984492976611282,0.033166247903554,2.1616280945564403,0.8233253398748549
11957207,2047.5,1,186605,229521,0.65,-0.23,9.95,-0.03,-0.01,-0.01,32.71,10.030703,166.12193765715807,1043.844244956023,9.973860837208427,0.033166247903554,2.281132073769518,1.0127123278089607
11997209,2047.5,1,186839,230136,0.665,-0.23,9.95,-0.04,-0.01,-0.01,32.71,10.070705,179.74991646485708,1289.1673114603245,9.974849622926653,0.042426406871192854,2.469010608024814,1.2515703461670773
12037209,2047.5,1,187057,230697,0.65,-0.25,9.94,-0.03,-0.01,-0.01,32.71,10.110705,184.82836865764568,1371.2130514841908,9.964366512729246,0.033166247903554,2.53902334929263,1.331453918291276
12077209,2047.5,1,187269,231240,0.65,-0.23,9.97,-0.04,-0.01,-0.01,32.71,10.150705,209.3462970324422,1005.6624412470874,9.993813086104822,0.042426406871192854,2.877033300073501,0.9755367368577729
12117186,2032.0,1,186746,226150,0.665,-0.25499999999999995,9.97,-0.03,-0.01,-0.01,32.71,10.190682,195.28311844528855,148.99707793329048,9.995406444962606,0.033166247903554,2.6831549988809416,0.14144724827891672
12157896,1941.0,1,184138,221874,0.65,-0.24,9.98,-0.04,-0.01,-0.01,32.71,10.231392,134.34505810051752,-869.2953415296157,10.004024190294624,0.042426406871192854,1.8430485077064502,-0.8500099061087124
12198209,1904.0,1,183718,222380,0.63,-0.23,9.97,-0.03,-0.01,-0.01,32.71,10.271705,102.27654778700588,-1546.9650867330718,9.992532211606825,0.033166247903554,1.4009444511570197,-1.5098208841265872
12238209,1834.0,1,184214,223582,0.65,-0.24,9.96,-0.03,-0.01,-0.01,32.71,10.311705,57.850859875478456,-1581.0898320031374,9.984072315443234,0.033166247903554,0.7884814259440935,-1.5430463331164828
12278209,1776.0,1,184768,225374,0.665,-0.24,9.96,-0.03,-0.01,-0.01,32.71,10.351705,14.528841890440658,-1078.865707579314,9.985060089954391,0.033166247903554,0.1912338549827821,-1.0540574221230221
12318209,1732.0,1,185582,227033,0.65,-0.25,9.94,-0.03,-0.01,-0.01,32.71,10.391705,-11.90551001205724,-424.51318359979564,9.964366512729246,0.033166247903554,-0.17319636313762193,-0.41694918190526337
12358209,1659.0,1,185893,227334,0.63,-0.23,9.93,-0.03,-0.01,-0.01,32.71,10.431705,-64.46330943144358,60.32431193966332,9.952622769903419,0.033166247903554,-0.8977705980945794,0.05511129353411735
12398209,1622.0,1,185882,227465,0.665,-0.22,9.96,-0.04,-0.01,-0.01,32.71,10.471705,-85.70039415163598,349.56976231757795,9.984599391062218,0.042426406871192854,-1.1905500634420874,0.33673420034364987
12438186,1589.0,1,186026,227843,0.64,-0.25499999999999995,9.97,-0.04,-0.01,-0.01,32.71,10.511682,-101.81685829855506,642.4941101673992,9.993774312040472,0.042426406871192854,-1.4127354442698425,0.6219390538995837
12478188,1520.0,1,186345,228997,0.63,-0.25,9.97,-0.04,-0.01,-0.01,32.71,10.551684,-151.63161104519781,1076.2979436260769,9.993012558783263,0.042426406871192854,-2.0994933899926416,1.044310767626215
12518209,1485.0,1,186873,230018,0.625,-0.22,9.96,-0.04,-0.01,-0.01,32.71,10.591705,-176.04787266384915,1503.0202665844588,9.982015077127464,0.042426406871192854,-2.4361017388634583,1.4597875913240153
12558209,1450.0,1,187108,230729,0.625,-0.23,9.99,-0.03,-0.01,-0.01,32.71,10.631705,-192.0239810693919,1555.990710735558,10.012173839881127,0.033166247903554,-2.65635214229389,1.5113620946993798
12598207,1419.0,1,187256,229359,0.66,-0.25,9.98,-0.03,-0.01,-0.01,32.71,10.671703,-213.78290259242848,969.4165425115377,10.004923787815677,0.033166247903554,-2.9563257730434933,0.9402460335865802
12638209,1403.0,1,185144,222292,0.66,-0.22,9.95,-0.03,-0.01,-0.01,32.71,10.711705,-217.949700915646,-129.2423257878166,9.974291954820652,0.033166247903554,-3.0137702387672927,-0.1294596564364714
12678209,1403.0,1,183414,220734,0.65,-0.22,9.93,-0.03,-0.01,-0.01,32.71,10.751705,-206.10281300013867,-1234.1406709473433,9.953682735550696,0.033166247903554,-2.8504462441779514,-1.2052403931302198
12718209,1427.0,1,183366,221161,0.64,-0.24,9.94,-0.04,-0.01,-0.01,32.71,10.791705,-179.31627268308168,-1797.4599171381237,9.963473289972729,0.042426406871192854,-2.4811606734008733,-1.7537143738504901
12758209,1438.0,1,183705,222353,0.65,-0.24,9.99,-0.03,-0.01,-0.01,32.71,10.831705,-156.6580590433462,-1609.928933321602,10.014000199720389,0.033166247903554,-2.168789189151727,-1.5711254317936412
12798209,1447.0,1,184322,224414,0.65,-0.25,9.95,-0.03,-0.01,-0.01,32.71,10.871705,-148.6691438712696,-910.2733338612799,9.974342083566214,0.033166247903554,-2.058652117910341,-0.889907997161083
12838209,1472.0,1,185268,226279,0.65,-0.23,9.96,-0.04,-0.01,-0.01,32.71,10.911705,-119.97356377814855,-153.22936011948707,9.983836937770969,0.042426406871192854,-1.6630480739375642,-0.15281455562468307
12878209,1503.0,1,185624,226408,0.66,-0.23,9.96,-0.04,-0.01,-0.01,32.71,10.951705,-86.07987106144144,345.8593364209786,9.984492976611282,0.042426406871192854,-1.1957816217387367,0.3331215560474772
12918209,1515.0,1,185540,226199,0.65,-0.24,9.98,-0.04,-0.01,-0.01,32.71,10.991705,-84.29276643561074,590.1077977843579,10.004024190294624,0.042426406871192854,-1.1711441753206189,0.5709332885502292
12958209,1535.0,1,185465,226356,0.65,-0.23,9.96,-0.04,-0.01,-0.01,32.71,11.031705,-55.374163780370274,777.272340970569,9.983836937770969,0.042426406871192854,-0.7724654896369831,0.7531654468604493
12998209,1598.0,1,185702,227077,0.63,-0.22,9.96,-0.04,-0.01,-0.01,32.71,11.071705,-12.899311343897935,1016.0453563798279,9.982329387472646,0.042426406871192854,-0.18689714299660648,0.9856460289383177
13038209,1610.0,1,186024,227898,0.64,-0.24,9.95,-0.03,-0.01,-0.01,32.71,11.111705,5.560610712884584,1162.7205407498236,9.973449754222457,0.033166247903554,0.06759570201251264,1.1284558526542392
13078209,1664.0,1,186299,228643,0.66,-0.23,9.96,-0.04,-0.01,-0.01,32.71,11.151705,41.45600793311501,942.1770087003995,9.984492976611282,0.042426406871192854,0.5624581252236905,0.9137243486922928
13118209,1677.0,1,185892,223592,0.64,-0.24,9.97,-0.03,-0.01,-0.01,32.71,11.191705,46.552386824093105,243.38612515559396,9.993402823863352,0.033166247903554,0.6327180081863543,0.2333488419426939
13158896,1685.0,1,183346,220281,0.64,-0.24,9.95,-0.03,-0.01,-0.01,32.75,11.232392,47.91532179723301,-699.8352299464758,9.973449754222457,0.033166247903554,0.6515077515996728,-0.6850156109522706
13197209,1754.0,1,183070,220361,0.65,-0.23,9.94,-0.03,-0.01,-0.01,32.75,11.270705,93.49528195833886,-1433.7086935538957,9.963884784560687,0.033166247903554,1.279883846640668,-1.3995491594712484
13237210,1765.0,1,183273,221048,0.65,-0.25,9.94,-0.03,-0.01,-0.01,32.75,11.310706,104.52364494295661,-1614.6288682314091,9.964366512729246,0.033166247903554,1.4319234632281832,-1.5757015083728445
13277209,1788.0,1,183589,222035,0.65,-0.23,9.94,-0.03,-0.01,-0.01,32.75,11.350705,99.99460010083614,-1250.726753605315,9.963884784560687,0.033166247903554,1.369484981445882,-1.2213893794137318
13317207,1794.0,1,184220,223807,0.65,-0.25,9.97,-0.03,-0.01,-0.01,32.75,11.390703,101.09772674801724,-652.5420945305372,9.994293371719683,0.033166247903554,1.3846929459206474,-0.6389688010523336
13357209,1808.0,1,184819,224761,0.65,-0.22,9.98,-0.03,-0.01,-0.01,32.75,11.430705,94.50367866283219,-156.98450295545928,10.003564364765191,0.033166247903554,1.2937858417539156,-0.15647073842572545
13397207,1833.0,1,184921,224878,0.65,-0.22,9.96,-0.03,-0.01,-0.01,32.75,11.470703,104.59990508347424,126.56383295421367,9.983611570969696,0.033166247903554,1.4329748035351157,0.11960519111976856
13437209,1834.0,1,184974,225145,0.66,-0.25,9.98,-0.04,-0.01,-0.01,32.75,11.510705,93.52940680574726,338.7040777070448,10.004923787815677,0.042426406871192854,1.2803542998460364,0.3261548613065246
13477207,1834.0,1,185202,225988,0.64,-0.23,9.96,-0.03,-0.01,-0.01,32.75,11.550703,72.68741361673491,658.9936610483751,9.983190872661908,0.033166247903554,0.9930216596530299,0.6380037887954347
13517209,1842.0,1,185567,227068,0.64,-0.22,9.96,-0.03,-0.01,-0.01,32.75,11.590705,71.86452474981623,1060.9208616094395,9.982965491275626,0.033166247903554,0.9816771193985101,1.0293389209468087
13557209,1847.0,1,185991,228100,0.63,-0.25499999999999995,9.96,-0.03,-0.01,-0.01,32.75,11.630705,58.30364806230432,1266.3967619490165,9.983162074212759,0.033166247903554,0.7947236708190927,1.229399873529923
13597209,1854.0,1,186300,228508,0.63,-0.23,9.94,-0.03,-0.01,-0.01,32.75,11.670705,51.95605391934543,963.7020532876907,9.962600062232749,0.033166247903554,0.7072142389029761,0.9346821394473678
13637209,1852.0,1,185367,222251,0.65,-0.23,9.93,-0.04,-0.01,-0.01,32.75,11.710705,43.351277482350405,110.96222891060806,9.953908779971815,0.042426406871192854,0.5885867588203231,0.10441473928755866
13677209,1856.0,1,183070,220089,0.64,-0.25,9.93,-0.03,-0.01,-0.01,32.75,11.750705,21.06285204819359,-951.9496896537349,9.953743014564923,0.033166247903554,0.28131326210325047,-0.9304860475614072
13717210,1844.0,1,182916,220275,0.65,-0.23,9.96,-0.03,-0.01,-0.01,32.75,11.790706,22.327203645030288,-1704.9259406186407,9.983836937770969,0.033166247903554,0.29874391180919385,-1.6636189638379437
13757209,1861.0,1,183124,220924,0.65,-0.24,9.96,-0.03,-0.01,-0.01,32.75,11.830705,-2.961880908643689,-1804.2688831920234,9.984072315443234,0.033166247903554,-0.049897380171559313,-1.7603439018515745
13797209,1790.0,1,183570,222466,0.65,-0.21500000000000002,9.95,-0.03,-0.01,-0.01,32.75,11.870705,-43.01814396548752,-1299.5312905434357,9.97352620691398,0.033166247903554,-0.6021224824451836,-1.2689077605673467
13837209,1844.0,1,184386,224660,0.65,-0.24,9.96,-0.03,-0.01,-0.01,32.75,11.910705,-37.16154758083682,-547.2463905710666,9.984072315443234,0.033166247903554,-0.5213820615801749,-0.5364479759714966
13877207,1835.0,1,185104,225933,0.65,-0.23,9.95,-0.03,-0.01,-0.01,32.75,11.950703,-13.456125431939777,83.38421221394806,9.973860837208427,0.033166247903554,-0.19457351351274638,0.07756349161535593
13917209,1911.0,1,185373,226406,0.64,-0.22,9.96,-0.04,-0.01,-0.01,32.75,11.990705,28.497789598000885,464.4319704310339,9.982965491275626,0.042426406871192854,0.38381306701550255,0.44856942156911345
13957207,1924.0,1,185560,226999,0.63,-0.25,9.95,-0.04,-0.01,-0.01,32.75,12.030703,56.8506756535327,729.482965607482,9.973058708340185,0.042426406871192854,0.7746926500547238,0.7066354745245662
13997209,1919.0,1,185802,227734,0.665,-0.25499999999999995,9.96,-0.04,-0.01,-0.01,32.75,12.070705,46.73580934994282,1064.5278184795761,9.985431888506376,0.042426406871192854,0.6352467144451708,1.0328508229565976
14037207,1930.0,1,186133,228607,0.63,-0.21500000000000002,9.96,-0.03,-0.01,-0.01,32.75,12.110703,48.42120711689212,1460.8696695990423,9.98222044437008,0.033166247903554,0.6584820060874425,1.4187477975043352
14077209,1881.0,1,186401,229322,0.63,-0.23,9.95,-0.03,-0.01,-0.01,32.75,12.150705,21.78945572826184,1657.7474423439435,9.9725774000506,0.033166247903554,0.2913303920329363,1.610437210679766
14117209,1840.0,1,186708,230014,0.64,-0.23,9.94,-0.03,-0.01,-0.01,32.75,12.190705,-43.29040363451314,1349.226056577082,9.96323742565638,0.033166247903554,-0.6058759185397913,1.3100463510861353
14157209,1819.0,1,186299,224967,0.63,-0.23,9.96,-0.03,-0.01,-0.01,32.75,12.230705,-31.948763300763257,492.64889559515774,9.982554783220577,0.033166247903554,-0.44951738643289774,0.47604274042534794
14197897,1866.0,1,183536,220954,0.64,-0.24,9.96,-0.03,-0.01,-0.01,32.63,12.271393,-1.4101206141697997,-564.5011828631611,9.983426265566347,0.033166247903554,-0.02850444628494246,-0.5532480492495564
14238209,1803.0,1,183297,221256,0.64,-0.24,9.94,-0.03,-0.01,-0.01,32.63,12.311705,-47.00038056719885,-1287.2652854770345,9.963473289972729,0.033166247903554,-0.6570225366898116,-1.2569650040011604
14278209,1791.0,1,183650,222481,0.66,-0.25,9.95,-0.03,-0.01,-0.01,32.63,12.351705,-45.58579761459654,-1335.7472436666296,9.974998746867088,0.033166247903554,-0.637520762034328,-1.3041693073889329
14318209,1848.0,1,184229,224145,0.63,-0.22,9.97,-0.03,-0.01,-0.01,32.63,12.391705,-2.1992517880326354,-802.4233669731874,9.99230704091903,0.033166247903554,-0.03938359501070595,-0.7849002221566622
14358209,1775.0,1,185008,225988,0.64,-0.24,9.96,-0.03,-0.01,-0.01,32.63,12.431705,-27.16605427928757,-106.3841395199082,9.983426265566347,0.033166247903554,-0.38358183036813537,-0.10720385655180142
14398209,1780.0,1,185450,226292,0.64,-0.25499999999999995,9.98,-0.03,-0.01,-0.01,32.63,12.471705,-59.81289565090618,351.8290616162793,10.003750546669984,0.033166247903554,-0.8336588954645167,0.3389339598732179
14438207,1743.0,1,185340,225934,0.64,-0.23,9.96,-0.03,-0.01,-0.01,32.63,12.511703,-33.384421036848394,479.5180733327249,9.983190872661908,0.033166247903554,-0.4693097030305409,0.46325795736475317
14478209,1805.0,1,185263,226051,0.65,-0.24,9.97,-0.03,-0.01,-0.01,32.63,12.551705,-6.86552947867634,497.5426985682726,9.994048228820992,0.033166247903554,-0.1037140012519488,0.48080757602376806
14518209,1749.0,1,185424,226658,0.64,-0.25,9.96,-0.03,-0.01,-0.01,32.63,12.591705,-13.466450812549342,678.7924113549839,9.983671669280797,0.033166247903554,-0.19471586164829363,0.6572807786504462
14558209,1782.0,1,185689,227479,0.64,-0.24,9.94,-0.03,-0.01,-0.01,32.63,12.631705,11.105959166273962,1052.2346588968478,9.963473289972729,0.033166247903554,0.1440451853921817,1.020881627482518
14598207,1776.0,1,186034,228325,0.64,-0.24,9.97,-0.03,-0.01,-0.01,32.63,12.671703,23.718108780708267,1330.6880904564682,9.993402823863352,0.033166247903554,0.3179192584887551,1.2919969197177152
14638209,1733.0,1,186312,228995,0.65,-0.24,9.97,-0.03,-0.01,-0.01,32.63,12.711705,2.8833149596612286,1136.9057768844295,9.994048228820992,0.033166247903554,0.030685870482736355,1.1033213904565615
14678209,1746.0,1,186021,224064,0.66,-0.24,9.99,-0.03,-0.01,-0.01,32.63,12.751705,11.868887100817192,347.0899434932747,10.014654262629339,0.033166247903554,0.15456309007247257,0.3343197326839207
14718209,1711.0,1,183158,219913,0.65,-0.24,9.96,-0.03,-0.01,-0.01,32.63,12.791705,11.132386925682031,-747.8475356350526,9.984072315443234,0.033166247903554,0.14440952472461702,-0.7317626386859081
14758209,1707.0,1,182733,219868,0.65,-0.23,9.94,-0.03,-0.01,-0.01,32.63,12.831705,2.018369557076393,-1620.3077658144816,9.963884784560687,0.033166247903554,0.01876152889536244,-1.581230748824955
14798209,1668.0,1,182950,220551,0.65,-0.23,9.97,-0.03,-0.01,-0.01,32.63,12.871705,-10.494706345712144,-1881.0489392097634,9.993813086104822,0.033166247903554,-0.15374669061500468,-1.8351005576000505
14838207,1648.0,1,183305,221546,0.65,-0.25499999999999995,9.95,-0.03,-0.01,-0.01,32.63,12.911703,-25.081840475562615,-1534.1099698914434,9.974468657527577,0.033166247903554,-0.3548483666576341,-1.497304540766353
14878209,1638.0,1,183839,223130,0.65,-0.22,9.95,-0.03,-0.01,-0.01,32.63,12.951705,-19.093002642283526,-913.7310983189095,9.973635244984647,0.033166247903554,-0.2722848339514137,-0.8932746384560387
14918209,1626.0,1,184327,223923,0.64,-0.22,9.98,-0.03,-0.01,-0.01,32.63,12.991705,-21.5123637749498,-387.573956605235,10.00291957380444,0.033166247903554,-0.3056387178878034,-0.38098342179421124
14958219,1617.0,1,184488,224257,0.66,-0.24,9.96,-0.04,-0.01,-0.01,32.63,13.031715,-14.898390855778871,-87.4202769240331,9.984728338818238,0.042426406871192854,-0.21445692525425125,-0.08873975244365016
14998209,1617.0,1,184684,224747,0.64,-0.22,9.98,-0.03,-0.01,-0.01,32.63,13.071705,-10.957134872392077,125.79222323784697,10.00291957380444,0.033166247903554,-0.1601218394919151,0.11885391578955419
15038209,1598.0,1,184889,225555,0.65,-0.21500000000000002,9.97,-0.03,-0.01,-0.01,32.63,13.111705,-10.960305931191748,459.7327553660644,9.99347912390875,0.033166247903554,-0.16016555645741135,0.4439940458645319
15078207,1597.0,1,185238,226453,0.65,-0.23,9.93,-0.03,-0.01,-0.01,32.63,13.151703,-9.990815731757461,935.0237604415943,9.953908779971815,0.033166247903554,-0.14679993561115012,0.9067596114245402
15118209,1573.0,1,185596,227333,0.66,-0.24,9.96,-0.03,-0.01,-0.01,32.63,13.191705,-22.602602124905182,1300.606124373036,9.984728338818238,0.033166247903554,-0.32066900125328757,1.2627077097408836
15158209,1571.0,1,185924,228321,0.64,-0.24,9.95,-0.03,-0.01,-0.01,32.63,13.231705,-11.080390796499486,1210.3857978467777,9.973449754222457,0.033166247903554,-0.16182107477004012,1.1748649776376372
15198896,1586.0,1,185963,224633,0.625,-0.25,9.95,-0.04,-0.01,-0.01,32.61,13.272392,-2.898467611264507,530.5797316689612,9.972744105811598,0.042426406871192854,-0.0490231494780712,0.5129739775420029
15237209,1559.0,1,183156,219932,0.66,-0.25,9.97,-0.03,-0.01,-0.01,32.61,13.310705,-3.537042526975437,-487.07001630582187,9.994948724230655,0.033166247903554,-0.05782669407326753,-0.477857441808576
15277209,1535.0,1,182711,219930,0.64,-0.25,9.94,-0.03,-0.01,-0.01,32.61,13.350705,-41.290140419527155,-1338.4629291376662,9.963719185123594,0.033166247903554,-0.5782998174715944,-1.3068134258541826
15317207,1489.0,1,182890,220617,0.65,-0.23,9.96,-0.03,-0.01,-0.01,32.61,13.390703,-71.40733984494214,-1613.2144558164478,9.983836937770969,0.033166247903554,-0.9935026412920096,-1.5743243702529242
15357209,1535.0,1,183235,221562,0.64,-0.23,9.95,-0.04,-0.01,-0.01,32.61,13.430705,-16.440914598397377,-1268.4255373244177,9.973214125847294,0.042426406871192854,-0.23572252185566617,-1.2386217435233646
15397209,1579.0,1,183783,223303,0.65,-0.24,9.97,-0.03,-0.01,-0.01,32.61,13.470705,6.603261079013877,-615.0438216758131,9.994048228820992,0.033166247903554,0.08196992619449124,-0.6024587277291864
15437209,1583.0,1,184455,224301,0.65,-0.21500000000000002,9.96,-0.03,-0.01,-0.01,32.61,13.510705,54.89727079786814,-51.58158669697401,9.983502641858719,0.033166247903554,0.7477625493943015,-0.053845526433167624
15477209,1616.0,1,184598,224402,0.665,-0.22,9.95,-0.03,-0.01,-0.01,32.61,13.550705,39.086155615913505,228.18586259200725,9.974624053065858,0.033166247903554,0.5297867815094048,0.21854915495770455
15517209,1449.0,1,184625,224823,0.65,-0.24,9.96,-0.03,-0.01,-0.01,32.61,13.590705,-79.17157582824423,332.9219580705724,9.984072315443234,0.033166247903554,-1.1005422321762368,0.3205251190325622
15557209,1557.0,1,184874,225512,0.65,-0.23,9.97,-0.04,-0.01,-0.01,32.61,13.630705,-2.5129021797868463,520.6366938924036,9.993813086104822,0.042426406871192854,-0.04370765338377074,0.5032929706411422
15597209,1607.0,1,185160,226270,0.66,-0.22,9.95,-0.03,-0.01,-0.01,32.61,13.670705,55.98270441106263,927.7228588293025,9.974291954820652,0.033166247903554,0.7627265935241032,0.8996511119418427
15637209,1558.0,1,185494,227309,0.665,-0.23,9.94,-0.03,-0.01,-0.01,32.61,13.710705,21.89810736165691,1399.945078290097,9.96487456017385,0.033166247903554,0.29282828911032077,1.3594287642120555
15677209,1595.0,1,185899,228450,0.64,-0.24,9.96,-0.03,-0.01,-0.01,32.61,13.750705,25.45928814970429,1573.0885925565965,9.983426265566347,0.033166247903554,0.3419235684703441,1.5280093925996077
15717209,1489.0,1,186325,228463,0.65,-0.25,9.97,-0.03,-0.01,-0.01,32.61,13.790705,-44.53861543392983,1159.9775289934007,9.994293371719683,0.033166247903554,-0.6230840611868936,1.1257851280387017
15757209,1584.0,1,184687,221367,0.64,-0.22,9.95,-0.04,-0.01,-0.01,32.61,13.830705,17.809973607017998,220.235312650039,9.972988518994693,0.042426406871192854,0.2364683117065372,0.21080812745851307
15797207,1611.0,1,182888,220114,0.64,-0.22,9.99,-0.04,-0.01,-0.01,32.61,13.870703,58.48773634089712,-823.7639770089721,10.012896683777377,0.042426406871192854,0.797261555302451,-0.8056784388010865
15837209,1504.0,1,182890,220458,0.65,-0.23,9.97,-0.03,-0.01,-0.01,32.61,13.910705,-50.64848991342308,-1460.9019438114117,9.993813086104822,0.033166247903554,-0.7073162336820934,-1.4260257805317174
15877209,1584.0,1,183160,221269,0.625,-0.23,9.97,-0.03,-0.01,-0.01,32.61,13.950705,13.320663667733985,-1439.9330130996236,9.99221822219671,0.033166247903554,0.17457762467861832,-1.4056094482712589
15917209,1613.0,1,183567,222713,0.65,-0.23,9.97,-0.03,-0.01,-0.01,32.61,13.990705,58.208284909888874,-914.0510944758553,9.993813086104822,0.033166247903554,0.7934089718787292,-0.8935862016898569
15957209,1588.0,1,184312,224401,0.64,-0.22,9.96,-0.03,-0.01,-0.01,32.61,14.030705,11.621617423480515,-283.0323010468857,9.982965491275626,0.033166247903554,0.15115417190497812,-0.27919677352521827
15997209,1618.0,1,184756,224983,0.64,-0.25,9.96,-0.04,-0.01,-0.01,32.61,14.070705,51.280936253814986,121.15204554359508,9.983671669280797,0.042426406871192854,0.6979069073287547,0.11433602163197767
16037209,1619.0,1,184774,224959,0.65,-0.25499999999999995,9.96,-0.03,-0.01,-0.01,32.61,14.110705,42.549137811908615,256.27668554031743,9.98444415077775,0.033166247903554,0.577528271888608,0.2458996947951985
16077209,1598.0,1,184867,225587,0.65,-0.24,9.93,-0.04,-0.01,-0.01,32.61,14.150705,17.201148886075362,341.6942979008193,9.954144865331225,0.042426406871192854,0.22807491032228563,0.32906627962571017
16117209,1605.0,1,185192,226476,0.64,-0.24,9.95,-0.03,-0.01,-0.01,32.61,14.190705,27.381361740829234,617.5252896183449,9.973449754222457,0.033166247903554,0.3684217289185654,0.5976282417037727
16157209,1603.0,1,185580,227432,0.65,-0.22,9.98,-0.03,-0.01,-0.01,32.61,14.230705,9.393228180436436,1087.0765156909474,10.003564364765191,0.033166247903554,0.12043307153924615,1.0548052898121263
16197209,1595.0,1,185890,228257,0.64,-0.23,9.96,-0.04,-0.01,-0.01,32.61,14.270705,15.02620753512247,1454.7629656977117,9.983190872661908,0.042426406871192854,0.19809065521929026,1.4128020247999735
16237897,1602.0,1,186231,229213,0.63,-0.23,9.96,-0.03,-0.01,-0.01,32.77,14.311393,-3.352994704385495,1330.6482973924367,9.982554783220577,0.033166247903554,-0.05528936732591874,1.2919581753283091
16278209,1520.0,1,186340,226158,0.625,-0.24,9.99,-0.04,-0.01,-0.01,32.77,14.351705,-63.60235154137461,560.3218858614891,10.012408551392616,0.042426406871192854,-0.8859012292964487,0.5419323307590829
16318209,1572.0,1,183576,220499,0.63,-0.23,9.99,-0.03,-0.01,-0.01,32.77,14.391705,-42.66169190326781,-588.328948865415,10.012487203487453,0.033166247903554,-0.5972083501349482,-0.5764478773386915
16358209,1604.0,1,182858,220298,0.625,-0.22,9.98,-0.03,-0.01,-0.01,32.77,14.431705,14.126098017727355,-1560.6696958531625,10.001971055746962,0.033166247903554,0.18568153284070996,-1.5231643329242976
16398209,1625.0,1,183122,221214,0.65,-0.24,9.94,-0.03,-0.01,-0.01,32.77,14.471705,4.677031778511893,-1886.9078669983928,9.964120633553168,0.033166247903554,0.055414474155376994,-1.8408050838854775
16438209,1583.0,1,183536,222533,0.66,-0.23,9.96,-0.03,-0.01,-0.01,32.77,14.511705,-16.13714992250246,-1495.6675734040002,9.984492976611282,0.033166247903554,-0.23153475029606918,-1.4598752244905975
16478209,1601.0,1,184325,224839,0.65,-0.24,9.97,-0.04,-0.01,-0.01,32.77,14.551705,-21.42898402818972,-726.9578410400361,9.994048228820992,0.042426406871192854,-0.3044892250078312,-0.7114234544168886
16518209,1587.0,1,185171,226259,0.64,-0.24,9.97,-0.03,-0.01,-0.01,32.77,14.591705,-23.620861681920665,-55.024017681970925,9.993402823863352,0.033166247903554,-0.33470696798063804,-0.057197238341580955
16558209,1621.0,1,185341,226341,0.64,-0.25,9.95,-0.04,-0.01,-0.01,32.77,14.631705,-1.5606174829651505,250.0261759682692,9.973695403409911,0.042426406871192854,-0.030579231659814653,0.23981390615990233
16598209,1631.0,1,185343,226469,0.64,-0.25,9.97,-0.03,-0.01,-0.01,32.77,14.671705,9.435479700090392,272.24819760319735,9.993647982593744,0.033166247903554,0.121015560967404,0.26145030638620176
16638209,1642.0,1,185522,227243,0.65,-0.22,9.95,-0.04,-0.01,-0.01,32.77,14.711705,17.456745829153622,320.1587104979622,9.973635244984647,0.042426406871192854,0.2315986301418783,0.3080982238920098
16678207,1666.0,1,185873,228224,0.63,-0.24,9.96,-0.04,-0.01,-0.01,32.77,14.751703,37.96716853737392,630.4531215069729,9.982790191123923,0.042426406871192854,0.5143601613822982,0.6102153838367381
16718209,1655.0,1,186243,229243,0.63,-0.22,9.98,-0.03,-0.01,-0.01,32.77,14.791705,23.784096665536783,1132.3422557797762,10.002284738998386,0.033166247903554,0.31882898305283974,1.0988781327420496
16758209,1632.0,1,186563,230077,0.64,-0.25,9.97,-0.04,-0.01,-0.01,32.77,14.831705,2.2382678365091975,1457.791254364073,9.993647982593744,0.042426406871192854,0.021793098507266788,1.4157505083656259
16798209,1616.0,1,186909,230927,0.66,-0.23,9.96,-0.03,-0.01,-0.01,32.77,14.871705,-24.12121201437452,1210.9724952167685,9.984492976611282,0.033166247903554,-0.3416049158276418,1.175436213653756
16838209,1583.0,1,186720,226685,0.63,-0.25,9.96,-0.03,-0.01,-0.01,32.77,14.911705,-48.47320504153482,308.2116113675224,9.983035610474403,0.033166247903554,-0.6773272427183564,0.29646596906947037
16878209,1619.0,1,183913,221425,0.63,-0.22,9.96,-0.03,-0.01,-0.01,32.77,14.951705,-27.414146168544214,-887.0585617457265,9.982329387472646,0.033166247903554,-0.3870020837433338,-0.8673050086073788
16918209,1629.0,1,183323,221576,0.64,-0.24,9.96,-0.04,-0.01,-0.01,32.77,14.991705,-7.482039661316717,-1774.4037226410153,9.983426265566347,0.042426406871192854,-0.11221335622618034,-1.7312657838873362
16958209,1659.0,1,183747,223153,0.65,-0.24,9.95,-0.03,-0.01,-0.01,32.77,15.031705,8.876569300005114,-1926.024780180948,9.97409645030566,0.033166247903554,0.11331029019836378,-1.8788911411821232
16998207,1662.0,1,184432,225101,0.625,-0.24,9.96,-0.03,-0.01,-0.01,32.77,15.071703,20.24967867049736,-1369.0663731229236,9.982475895287703,0.033166247903554,0.270102661877582,-1.336610371120738
17038209,1652.0,1,185361,227364,0.65,-0.23,9.98,-0.04,-0.01,-0.01,32.77,15.111705,-4.460970001786495,-521.910111126503,10.003789282067071,0.042426406871192854,-0.07056417643768331,-0.5117793885984058
17078209,1613.0,1,185973,228303,0.65,-0.23,9.97,-0.03,-0.01,-0.01,32.77,15.151705,-29.47148875274098,141.22426552841665,9.993813086104822,0.033166247903554,-0.4153650944754553,0.1338792743637325
17118209,1647.0,1,186121,228498,0.625,-0.24,9.94,-0.03,-0.01,-0.01,32.77,15.191705,-21.115695147938737,418.8673623786229,9.962521016289,0.033166247903554,-0.3001701505177253,0.40420558680320345
17158209,1655.0,1,186175,228958,0.65,-0.25,9.96,-0.04,-0.01,-0.01,32.77,15.231705,15.127469232061951,463.5024882564254,9.984317703278478,0.042426406871192854,0.1994866728874749,0.4476644342253233
17198209,1682.0,1,186510,229820,0.65,-0.23,9.96,-0.03,-0.01,-0.01,32.77,15.271705,1.7122849874543191,583.964089344597,9.983836937770969,0.033166247903554,0.01454177473297188,0.5649514864954861
17238897,1617.0,1,186743,230648,0.65,-0.24,9.94,-0.03,-0.01,-0.01,32.67,15.312393,-24.399292628233827,940.7951409325825,9.964120633553168,0.033166247903554,-0.3454386008424133,0.9123788975638808
17277209,1709.0,1,187048,231313,0.64,-0.23,9.99,-0.03,-0.01,-0.01,32.67,15.350705,23.382866418540846,1371.7001348015544,10.013121391454316,0.033166247903554,0.3132975281123683,1.3319281654039448
17317222,1696.0,1,187259,232018,0.64,-0.23,9.94,-0.03,-0.01,-0.01,32.67,15.390718,43.92616592885267,1487.6273141278225,9.96323742565638,0.033166247903554,0.5965123067106771,1.4448002924415093
17357209,1717.0,1,187538,231994,0.625,-0.23,9.97,-0.04,-0.01,-0.01,32.67,15.430705,33.49751826831801,984.2550272202094,9.99221822219671,0.042426406871192854,0.4527405072110133,0.9546934767212778
17397207,1712.0,1,186480,225727,0.665,-0.25,9.97,-0.04,-0.01,-0.01,32.67,15.470703,43.82409002942026,-64.25791256059227,9.99528013614426,0.042426406871192854,0.5951050642546413,-0.06618779053001932
17438209,1703.0,1,184017,222376,0.625,-0.25,10.0,-0.03,-0.01,-0.01,32.67,15.511705,22.278716159190747,-1182.8783430029912,10.022630642700548,0.033166247903554,0.29807545187850254,-1.1553289916314244
17478207,1679.0,1,183877,223328,0.64,-0.23,9.94,-0.03,-0.01,-0.01,32.67,15.551703,-3.4373282442548225,-1798.9256186550676,9.96323742565638,0.033166247903554,-0.0564520094229448,-1.7551414494403657
17518209,1671.0,1,184494,224990,0.64,-0.23,9.98,-0.04,-0.01,-0.01,32.67,15.591705,-11.973877543907461,-1643.1190008367676,10.003144505604226,0.042426406871192854,-0.1741388940775303,-1.603440834779628
17558207,1659.0,1,185229,227144,0.63,-0.23,9.96,-0.04,-0.01,-0.01,32.67,15.631703,-33.017527537040664,-920.9618437807343,9.982554783220577,0.042426406871192854,-0.4642516225958451,-0.9003148306274223
17598209,1648.0,1,186123,229032,0.64,-0.25,9.97,-0.03,-0.01,-0.01,32.67,15.671705,-42.16066278924069,-121.50614843643713,9.993647982593744,0.033166247903554,-0.590301044444873,-0.12192735212384351
17638209,1678.0,1,186451,229361,0.65,-0.23,9.94,-0.03,-0.01,-0.01,32.67,15.711705,-21.28005799741542,363.6902472450276,9.963884784560687,0.033166247903554,-0.30243609557688966,0.35048256528986715
17678209,1695.0,1,186426,229177,0.65,-0.24,9.96,-0.03,-0.01,-0.01,32.67,15.751705,-3.5212866575670794,498.6991420305939,9.984072315443234,0.033166247903554,-0.05760947993666439,0.4819335434987769
17718209,1709.0,1,186459,229542,0.63,-0.24,9.95,-0.03,-0.01,-0.01,32.67,15.791705,0.7813382355292742,548.9997023117674,9.97281304346973,0.033166247903554,0.0017075229565753068,0.53090852299119
17758209,1703.0,1,186671,230195,0.64,-0.23,9.94,-0.03,-0.01,-0.01,32.67,15.831705,-1.6369624381784573,783.6847042647852,9.96323742565638,0.033166247903554,-0.031631741242171725,0.7594088238541978
17798209,1712.0,1,186935,230941,0.65,-0.23,9.96,-0.03,-0.01,-0.01,32.67,15.871705,-8.468186106363929,1189.5219003512661,9.983836937770969,0.033166247903554,-0.12580860400803562,1.1545509106319674
17838209,1697.0,1,187204,231645,0.625,-0.24,9.97,-0.03,-0.01,-0.01,32.67,15.911705,-12.022639069783501,1438.1636858132088,9.992453402443266,0.033166247903554,-0.17481113198888268,1.3966401890790971
17878209,1698.0,1,187460,232147,0.64,-0.24,9.95,-0.04,-0.01,-0.01,32.67,15.951705,-34.86917657405942,1147.8401952437537,9.973449754222457,0.042426406871192854,-0.4897788935095465,1.1139676518881623
17918209,1694.0,1,186954,227055,0.64,-0.24,9.95,-0.03,-0.01,-0.01,32.67,15.991705,-22.36126228435037,235.61460990625764,9.973449754222457,0.033166247903554,-0.31734183321607073,0.22578213099884625
17958209,1767.0,1,184114,222061,0.64,-0.24,9.96,-0.03,-0.01,-0.01,32.67,16.031705,26.761185801926597,-942.1745898626374,9.983426265566347,0.033166247903554,0.3598718369627895,-0.920968552942476
17998209,1719.0,1,183569,222241,0.66,-0.24,9.96,-0.03,-0.01,-0.01,32.67,16.071705,-10.97121405455129,-1804.598802220825,9.984728338818238,0.033166247903554,-0.16031593842213152,-1.7606651264578095
18038209,1707.0,1,183946,223384,0.63,-0.24,9.96,-0.03,-0.01,-0.01,32.67,16.111705,-34.95455282894098,-1952.3675017187816,9.982790191123923,0.033166247903554,-0.490955910721981,-1.9045396476774399
18078209,1776.0,1,184452,224766,0.64,-0.23,9.97,-0.03,-0.01,-0.01,32.67,16.151705,28.977640878185262,-1429.6809209331284,9.993167665960579,0.033166247903554,0.39042841008681967,-1.395627531553
18118209,1764.0,1,185151,226741,0.64,-0.23,9.95,-0.03,-0.01,-0.01,32.67,16.191705,21.470272331359247,-638.2001746142683,9.973214125847294,0.033166247903554,0.2869300543442097,-0.6250048366381242
18158209,1750.0,1,185785,227731,0.65,-0.23,9.97,-0.03,-0.01,-0.01,32.67,16.231705,-12.450636528152554,-0.8844784051187408,9.993813086104822,0.033166247903554,-0.18071160602674527,-0.004484449239608796
18198207,1757.0,1,185951,227897,0.63,-0.24,9.96,-0.04,-0.01,-0.01,32.67,16.271703,11.356874061910823,336.7775813986674,9.982790191123923,0.042426406871192854,0.147504357400025,0.3242791343430954
18238227,1755.0,1,186007,228325,0.625,-0.23,9.97,-0.03,-0.01,-0.01,32.67,16.311723,-18.600930140238265,540.3936794092443,9.99221822219671,0.033166247903554,-0.26550100622933276,0.5225292963422961
18278896,1706.0,1,186232,229285,0.64,-0.24,9.97,-0.04,-0.01,-0.01,32.67,16.352392,-46.6668376746601,854.6626815321854,9.993402823863352,0.042426406871192854,-0.6524242356030759,0.8285163042013889
18317209,1793.0,1,186596,230162,0.65,-0.22,9.98,-0.03,-0.01,-0.01,32.67,16.390705,13.455454120755238,1314.960927892734,10.003564364765191,0.033166247903554,0.17643587769636834,1.276684218234328
18357209,1801.0,1,186872,230849,0.65,-0.23,9.97,-0.03,-0.01,-0.01,32.67,16.430705,37.84780536556207,1653.8906359248751,9.993813086104822,0.033166247903554,0.5127145925066403,1.6066820434564941
18397209,1808.0,1,187166,231512,0.66,-0.24,9.97,-0.03,-0.01,-0.01,32.67,16.470705,25.973303810152338,1498.0542754195928,9.994703597405978,0.033166247903554,0.34900990975630863,1.4549524699237901
18437209,1810.0,1,186932,227687,0.63,-0.24,9.98,-0.03,-0.01,-0.01,32.67,16.510705,36.36996877461181,705.0424822938276,10.002744623352132,0.033166247903554,0.49234078825477884,0.6828390761866555
18477209,1797.0,1,184200,221833,0.665,-0.25,9.97,-0.03,-0.01,-0.01,32.67,16.550705,12.238780153169998,-449.48831798132494,9.99528013614426,0.033166247903554,0.1596625230469355,-0.4412661415438514
18517209,1774.0,1,183315,221538,0.65,-0.23,9.96,-0.03,-0.01,-0.01,32.67,16.590705,-7.096529988546167,-1417.5991861690236,9.983836937770969,0.033166247903554,-0.1068986288345842,-1.383864189176747
18557209,1793.0,1,183585,222511,0.63,-0.23,9.97,-0.03,-0.01,-0.01,32.67,16.630705,4.262039920578257,-1753.4776546817081,9.992532211606825,0.033166247903554,0.04969329839654722,-1.710891184808616
18597209,1789.0,1,183918,223501,0.64,-0.23,9.98,-0.03,-0.01,-0.01,32.67,16.670705,2.8401798635890847,-1408.332286794763,10.003144505604226,0.033166247903554,0.030091199861410067,-1.3748415022667853
18637209,1805.0,1,184433,225335,0.63,-0.23,9.98,-0.03,-0.01,-0.01,32.67,16.710705,12.568730415599447,-714.4119541749876,10.002509685074042,0.033166247903554,0.16421129528654116,-0.6992081918334248
18677210,1811.0,1,185159,226618,0.64,-0.22,9.97,-0.03,-0.01,-0.01,32.67,16.750706,21.03330706105927,-97.24352689317556,9.992942509591456,0.033166247903554,0.28090594793320994,-0.09830412832929342
18717209,1809.0,1,185381,226798,0.665,-0.23,9.97,-0.03,-0.01,-0.01,32.67,16.790705,13.475829912687209,236.4352409393414,9.994799897946931,0.033166247903554,0.1767167831759327,0.22658113577715203
18757207,1809.0,1,185427,226931,0.64,-0.24,9.95,-0.03,-0.01,-0.01,32.67,16.830703,16.87390312306027,395.74178481682566,9.973449754222457,0.033166247903554,0.22356342295030665,0.38168944224122864
18797209,1818.0,1,185567,227453,0.64,-0.23,9.95,-0.03,-0.01,-0.01,32.67,16.870705,19.579491622699713,632.4546659552615,9.973214125847294,0.033166247903554,0.2608633049638501,0.612164181181343
18837209,1809.0,1,185859,228486,0.66,-0.24,9.96,-0.03,-0.01,-0.01,32.67,16.910705,16.03193013832762,1053.583532325486,9.984728338818238,0.033166247903554,0.2119557845406579,1.0221949537782125
18877209,1798.0,1,186272,229652,0.63,-0.23,9.98,-0.03,-0.01,-0.01,32.67,16.950705,-1.9436243280417562,1465.9407167659951,10.002509685074042,0.033166247903554,-0.035859454477748985,1.4236852063446803
18917207,1776.0,1,186631,230667,0.65,-0.24,9.96,-0.03,-0.01,-0.01,32.67,16.990703,-18.321174103618475,1498.9984080779445,9.984072315443234,0.033166247903554,-0.2616442234407138,1.4558717216641768
18957209,1797.0,1,186840,229067,0.64,-0.24,9.98,-0.04,-0.01,-0.01,32.67,17.030705,-1.6037630986539324,922.4236185206698,10.003379428972991,0.042426406871192854,-0.031174047307060238,0.8944915235796075
18997209,1792.0,1,184602,222196,0.65,-0.22,9.96,-0.03,-0.01,-0.01,32.67,17.070705,-4.848870983794829,-109.23841067835104,9.983611570969696,0.033166247903554,-0.0759118709831682,-0.109982908527945
19037209,1776.0,1,183291,221521,0.64,-0.22,9.93,-0.03,-0.01,-0.01,32.67,17.110705,-19.15174059348862,-1114.5857136335535,9.953034713091279,0.033166247903554,-0.2730946092184061,-1.0888360916685782
19077207,1807.0,1,183377,222152,0.63,-0.25,9.96,-0.04,-0.01,-0.01,32.67,17.150703,7.950527630569299,-1618.3243647900954,9.983035610474403,0.042426406871192854,0.1005436610475584,-1.5792996167669509
19117209,1799.0,1,183683,223033,0.64,-0.23,9.96,-0.04,-0.01,-0.01,32.67,17.190705,7.558066839118361,-1483.1513655827646,9.983190872661908,0.042426406871192854,0.0951331038922435,-1.4476888588131316
19157209,1783.0,1,184151,224610,0.65,-0.23,9.96,-0.03,-0.01,-0.01,32.67,17.230705,-16.67449375594162,-967.4953286677699,9.983836937770969,0.033166247903554,-0.23894269928411993,-0.9456220092217344
19197209,1787.0,1,184779,225672,0.65,-0.24,9.98,-0.03,-0.01,-0.01,32.67,17.270705,-1.420044218217374,-480.2565919231594,10.004024190294624,0.033166247903554,-0.028641255433921684,-0.471223572969964
19237207,1797.0,1,184910,225646,0.66,-0.24,9.95,-0.03,-0.01,-0.01,32.67,17.310703,-0.9531889706657476,-252.15418127854076,9.974753129777197,0.033166247903554,-0.022205078737650284,-0.24913239106176924
19277209,1763.0,1,184874,225713,0.65,-0.25,9.96,-0.03,-0.01,-0.01,32.67,17.350705,-24.52108469871481,-190.5503251773766,9.984317703278478,0.033166247903554,-0.3471176550887376,-0.18915199377905126
19317897,1765.0,1,185072,226298,0.66,-0.24,9.92,-0.03,-0.01,-0.01,32.69,17.391393,-27.105969443077225,-20.70738039149185,9.944827801425221,0.033166247903554,-0.38275348662637726,-0.023784954300306926
19358209,1779.0,1,185434,227359,0.64,-0.24,9.95,-0.04,-0.01,-0.01,32.69,17.431705,-11.44623563651999,414.7991911822399,9.973449754222457,0.042426406871192854,-0.16686469813325555,0.40024462494113344
19398207,1783.0,1,185914,228796,0.65,-0.23,9.98,-0.04,-0.01,-0.01,32.69,17.471703,1.1562919662468205,953.5040858014075,10.003789282067071,0.042426406871192854,0.0068767236381150915,0.92475292105073
19438209,1789.0,1,186440,230167,0.64,-0.23,9.98,-0.04,-0.01,-0.01,32.69,17.511705,-6.36986910138991,1192.296909818221,10.003144505604226,0.042426406871192854,-0.09688071023447292,1.1572527897159313
19478209,1777.0,1,186915,230001,0.63,-0.23,9.93,-0.04,-0.01,-0.01,32.69,17.551705,5.514827028152637,808.4643225999098,9.952622769903419,0.042426406871192854,0.066964517322426,0.7835354199201023
19518209,1815.0,1,185350,223159,0.63,-0.23,9.98,-0.03,-0.01,-0.01,32.69,17.591705,18.70900786262788,-134.10902949701685,10.002509685074042,0.033166247903554,0.2488626102722102,-0.1341981069233329
19558207,1755.0,1,183435,221711,0.64,-0.24,9.96,-0.03,-0.01,-0.01,32.69,17.631703,-12.256864372327755,-1167.3163371340413,9.983426265566347,0.033166247903554,-0.1780402173249016,-1.140177094435204
19598209,1766.0,1,183506,222447,0.66,-0.23,9.97,-0.03,-0.01,-0.01,32.69,17.671705,-22.615034951053584,-1730.6878560270964,9.994468470108854,0.033166247903554,-0.32084040313073203,-1.6887019703047053
19638209,1775.0,1,184001,223919,0.64,-0.24,9.96,-0.03,-0.01,-0.01,32.69,17.711705,4.469100947970566,-1562.8282557496614,9.983426265566347,0.033166247903554,0.052547890620148655,-1.5252660078574045
19678209,1792.0,1,184706,226178,0.63,-0.23,9.96,-0.03,-0.01,-0.01,32.69,17.751705,17.28474846309643,-852.183981796387,9.982554783220577,0.033166247903554,0.22922743383415137,-0.8333494854824268
19718209,1781.0,1,185644,228119,0.65,-0.25,9.92,-0.04,-0.01,-0.01,32.69,17.791705,5.4863273065167935,-43.29639563380394,9.944415518269539,0.042426406871192854,0.0665716134293996,-0.04577867667759244
19758209,1771.0,1,186177,228814,0.63,-0.23,9.97,-0.03,-0.01,-0.01,32.69,17.831705,8.83808943923761,515.8403975827242,9.992532211606825,0.033166247903554,0.11277979775033749,0.49862307209343154
19798207,1786.0,1,186328,229105,0.66,-0.23,10.000000000000004,-0.04,-0.01,-0.01,32.69,17.871703,11.456728963286277,790.9161008599625,10.024395243604477,0.042426406871192854,0.14888098065233213,0.7664496499994857
19838209,1730.0,1,186420,229564,0.64,-0.24,9.98,-0.04,-0.01,-0.01,32.69,17.911705,-26.436143387457268,985.2259648120124,10.003379428972991,0.042426406871192854,-0.3735191064360597,0.9556388269993097
19878212,1732.0,1,186646,230246,0.625,-0.24,9.96,-0.03,-0.01,-0.01,32.69,17.951708,-33.43909428159688,1262.8364384258657,9.982475895287703,0.033166247903554,-0.4700634412943929,1.225933375929141
19918209,1744.0,1,186952,230970,0.65,-0.24,9.97,-0.03,-0.01,-0.01,32.69,17.991705,-11.602754855513972,1528.1711537822073,9.994048228820992,0.033166247903554,-0.16902250905021704,1.484275672129484
19958209,1744.0,1,187093,231573,0.64,-0.24,9.98,-0.03,-0.01,-0.01,32.69,18.031705,-9.023355181908226,1471.1346884140173,10.003379428972991,0.033166247903554,-0.13346229599339476,1.4287423002125048
19998209,1743.0,1,187339,230780,0.65,-0.24,9.93,-0.04,-0.01,-0.01,32.69,18.071705,-10.466841203152367,856.4300372312126,9.954144865331225,0.042426406871192854,-0.15336253517898446,0.8302370844199753
20038209,1721.0,1,185613,223798,0.64,-0.25,9.96,-0.03,-0.01,-0.01,32.69,18.111705,-21.20002523371222,-195.72235776621724,9.983671669280797,0.033166247903554,-0.3013327449957703,-0.19418772675213644
20078213,1743.0,1,183648,222131,0.625,-0.24,9.94,-0.03,-0.01,-0.01,32.69,18.151709,-4.690854962131033,-1210.884840274452,9.962521016289,0.033166247903554,-0.07373342479111256,-1.182597428043603
20118207,1735.0,1,183738,223161,0.64,-0.23,9.94,-0.03,-0.01,-0.01,32.69,18.191703,2.973941143175042,-1676.7931766233503,9.96323742565638,0.033166247903554,0.03193526445112935,-1.636227588234322
20158209,1712.0,1,184379,224835,0.65,-0.25,9.93,-0.03,-0.01,-0.01,32.69,18.231705,-29.057004030482485,-1414.2990368117523,9.954390990914511,0.033166247903554,-0.40965091020880917,-1.3806510093196875
20198209,1695.0,1,185074,226936,0.65,-0.24,9.94,-0.04,-0.01,-0.01,32.69,18.271705,-24.63542701507546,-684.9189652488407,9.964120633553168,0.042426406871192854,-0.3486940052654093,-0.670492437580313
20238209,1719.0,1,185861,228394,0.625,-0.23,9.98,-0.04,-0.01,-0.01,32.69,18.311705,-15.345221341628307,45.32604838429578,10.00219600887725,0.042426406871192854,-0.2206170358566061,0.040508282236828536
20278209,1703.0,1,186169,228613,0.625,-0.23,9.99,-0.03,-0.01,-0.01,32.69,18.351705,-4.03629581014568,469.0283803748703,10.012173839881127,0.033166247903554,-0.06470951773976592,0.45304470139661007
20318896,1730.0,1,186102,228552,0.64,-0.24,9.96,-0.03,-0.01,-0.01,32.61,18.392392,6.503966291373757,622.0612437267534,9.983426265566347,0.033166247903554,0.08060102480241707,0.6020446589006401
20357209,1664.0,1,186110,228779,0.65,-0.25,9.96,-0.03,-0.01,-0.01,32.61,18.430705,-34.31782241867773,755.745926338166,9.984317703278478,0.033166247903554,-0.48217779491448864,0.7322063221653371
20397209,1676.0,1,186318,229461,0.625,-0.24,9.95,-0.03,-0.01,-0.01,32.61,18.470705,-30.889741157680913,1030.4084290424307,9.972498433191152,0.033166247903554,-0.43491745706745083,0.9996305886562796
20437209,1696.0,1,186524,230112,0.63,-0.25,9.95,-0.04,-0.01,-0.01,32.61,18.510705,4.359255932976334,1310.988698921229,9.973058708340185,0.042426406871192854,0.05103354130220663,1.272816670212374
20477209,1697.0,1,186870,230993,0.65,-0.23,9.96,-0.03,-0.01,-0.01,32.61,18.550705,7.194114769177848,1256.8390281092757,9.983836937770969,0.033166247903554,0.09011557470435143,1.2200940165736844
20518209,1708.0,1,186996,228877,0.63,-0.24,9.94,-0.03,-0.01,-0.01,32.61,18.591705,27.02088039589715,639.8750352294677,9.962835941638303,0.033166247903554,0.3634520479652933,0.6193889999706159
20558209,1709.0,1,184548,222200,0.66,-0.23,9.95,-0.04,-0.01,-0.01,32.61,18.631705,31.85492972498614,-391.3831889765362,9.974517532191719,0.042426406871192854,0.4300953936354485,-0.38469226869817175
20598207,1693.0,1,183356,221475,0.64,-0.24,9.93,-0.03,-0.01,-0.01,32.61,18.671703,27.576280294924796,-1355.8366806344447,9.95349687295877,0.033166247903554,0.37110892213770563,-1.3237293233810634
20638209,1700.0,1,183490,222180,0.63,-0.23,9.96,-0.03,-0.01,-0.01,32.61,18.711705,33.35787409386697,-1774.089073441995,9.982554783220577,0.033166247903554,0.450815339643367,-1.730959426701985
20678209,1678.0,1,183795,223216,0.64,-0.25,9.96,-0.03,-0.01,-0.01,32.61,18.751705,27.60108846075003,-1509.9915520990512,9.983671669280797,0.033166247903554,0.3714509333705213,-1.4738217204922026
20718209,1699.0,1,184332,224903,0.65,-0.22,9.96,-0.04,-0.01,-0.01,32.61,18.791705,45.585158041778016,-834.7059215934952,9.983611570969696,0.042426406871192854,0.6193835637705594,-0.8163320281177587
20758207,1695.0,1,185181,226430,0.64,-0.24,9.97,-0.04,-0.01,-0.01,32.61,18.831703,55.18215217501111,-178.84632717253626,9.993402823863352,0.042426406871192854,0.7516899913377844,-0.17775643358922094
20798209,1673.0,1,185469,226647,0.65,-0.24,9.96,-0.03,-0.01,-0.01,32.61,18.871705,35.538798713144566,203.3338314376725,9.984072315443234,0.033166247903554,0.48088208149650813,0.19435205438218855
20838209,1669.0,1,185312,226559,0.65,-0.22,9.98,-0.03,-0.01,-0.01,32.61,18.911705,37.158343640776884,380.51028538868735,10.003564364765191,0.033166247903554,0.5032095103440097,0.36685934158306605
20878209,1671.0,1,185396,226972,0.63,-0.25,9.99,-0.03,-0.01,-0.01,32.61,18.951705,47.462015541107064,596.2404160495987,10.012966593372814,0.033166247903554,0.6452583644989542,0.5769042926920535
20918209,1664.0,1,185683,227904,0.64,-0.24,9.95,-0.03,-0.01,-0.01,32.61,18.991705,41.588440459530474,970.6343642744364,9.973449754222457,0.033166247903554,0.5642838713084002,0.9414317618474581
20958209,1666.0,1,186143,228706,0.65,-0.23,9.95,-0.04,-0.01,-0.01,32.61,19.031705,49.9617379219342,1325.0515498967607,9.973860837208427,0.042426406871192854,0.6797201275807724,1.286508920045808
20998209,1673.0,1,186410,229607,0.66,-0.25499999999999995,9.95,-0.03,-0.01,-0.01,32.61,19.071705,62.84361484718972,1301.0980815781659,9.975125312496079,0.033166247903554,0.8573127250837004,1.2631867022987737
21038209,1666.0,1,186510,227146,0.63,-0.22,9.97,-0.04,-0.01,-0.01,32.61,19.111705,50.91496903024016,685.1361849374583,9.99230704091903,0.042426406871192854,0.692861596756957,0.6634573734909311
21078209,1651.0,1,183974,221405,0.64,-0.24,9.97,-0.04,-0.01,-0.01,32.61,19.151705,52.169401443514346,-348.9104532956398,9.993402823863352,0.042426406871192854,0.7101554982557722,-0.3433388255688886
21118209,1660.0,1,183082,220845,0.65,-0.23,9.98,-0.03,-0.01,-0.01,32.61,19.191705,44.16274904454865,-1310.9061179718278,10.003789282067071,0.033166247903554,0.5997738974156319,-1.27998282487918
21158209,1603.0,1,183165,221351,0.63,-0.24,9.98,-0.03,-0.01,-0.01,32.61,19.231705,7.5685344745192324,-1735.219695854379,10.002744623352132,0.033166247903554,0.09527741318593887,-1.6931143816449254
21198209,1605.0,1,183386,222126,0.66,-0.24,9.96,-0.03,-0.01,-0.01,32.61,19.271705,-8.171087935863497,-1504.120111994153,9.984728338818238,0.033166247903554,-0.12171273846618307,-1.4681050116300958
21238209,1603.0,1,183981,223996,0.64,-0.24,9.97,-0.03,-0.01,-0.01,32.61,19.311705,-0.2654174052279027,-890.2914110211691,9.993402823863352,0.033166247903554,-0.01272329751093366,-0.8704526619552109
21278209,1643.0,1,184778,225427,0.63,-0.25,9.99,-0.03,-0.01,-0.01,32.61,19.351705,34.373180043370795,-304.732780965714,10.012966593372814,0.033166247903554,0.46481258724003155,-0.30032537632922957
21318896,1658.0,1,184999,225739,0.64,-0.21500000000000002,9.95,-0.04,-0.01,-0.01,32.59,19.392392,40.473078654930596,25.562029361585306,9.972879473853075,0.042426406871192854,0.5489072300639787,0.02126510838520064
21357209,1616.0,1,185015,225796,0.63,-0.22,9.95,-0.04,-0.01,-0.01,32.59,19.430705,6.012169967968682,188.1501486448422,9.972351778793204,0.042426406871192854,0.07382100454429269,0.17956851023791998
21397210,1624.0,1,185181,226559,0.63,-0.24,9.96,-0.03,-0.01,-0.01,32.59,19.470706,-6.828169998176336,431.2719657922694,9.982790191123923,0.033166247903554,-0.10319895463088165,0.4162832892064953
21437209,1585.0,1,185562,227774,0.65,-0.23,9.95,-0.03,-0.01,-0.01,32.59,19.510705,-37.14301081023349,868.7427817203085,9.973860837208427,0.033166247903554,-0.5211265092829545,0.8422253486754431
21477209,1587.0,1,186078,229126,0.64,-0.22,9.96,-0.03,-0.01,-0.01,32.59,19.550705,-55.45778293711614,1307.5754927821306,9.982965491275626,0.033166247903554,-0.7736182830795589,1.2694934129816136
21518213,1596.0,1,186547,230193,0.63,-0.23,9.95,-0.03,-0.01,-0.01,32.59,19.591709,-45.25944229554725,1366.9790903355533,9.9725774000506,0.033166247903554,-0.6330215505331508,1.3273315355729305
21558209,1585.0,1,186824,228563,0.65,-0.23,9.98,-0.03,-0.01,-0.01,32.59,19.631705,-73.24303023593916,807.665749490482,10.003789282067071,0.033166247903554,-1.0188099025428277,0.7827578917685509
21598209,1562.0,1,184473,222094,0.63,-0.23,9.99,-0.03,-0.01,-0.01,32.59,19.671705,-98.66140224866393,-211.59619163461036,10.012487203487453,0.033166247903554,-1.3692335819668553,-0.20964323428177126
21638209,1584.0,1,183388,221651,0.63,-0.24,9.96,-0.03,-0.01,-0.01,32.59,19.711705,-97.48575240346717,-1193.1079638996052,9.982790191123923,0.033166247903554,-1.353025795557014,-1.1652890292697
21678209,1569.0,1,183561,222476,0.63,-0.22,9.96,-0.03,-0.01,-0.01,32.59,19.751705,-110.23450948131098,-1644.6622959549038,9.982329387472646,0.033166247903554,-1.5287831714056588,-1.6049434591309069
21718238,1561.0,1,183956,223624,0.65,-0.23,9.95,-0.03,-0.01,-0.01,32.59,19.791734,-147.2958803042333,-1421.7734350807432,9.973860837208427,0.033166247903554,-2.039719982062344,-1.3879284332667716
21758209,1535.0,1,184582,225667,0.65,-0.25,9.97,-0.03,-0.01,-0.01,32.59,19.831705,-166.16961901088126,-787.9708868621024,9.994293371719683,0.033166247903554,-2.2999178011343253,-0.7708286111627024
21798209,1561.0,1,185394,227255,0.665,-0.24,9.95,-0.04,-0.01,-0.01,32.59,19.871705,-171.17482083808497,-166.1181015148104,9.975085212668612,0.042426406871192854,-2.3689206955632267,-0.16536363742398133
21838209,1535.0,1,185796,227679,0.63,-0.24,9.95,-0.03,-0.01,-0.01,32.59,19.911705,-193.8912305314441,193.98571378367197,9.97281304346973,0.033166247903554,-2.682094484351332,0.18525028955415948
21878209,1572.0,1,185805,227925,0.64,-0.23,9.98,-0.03,-0.01,-0.01,32.59,19.951705,-179.5583368468257,360.24982321426063,10.003144505604226,0.033166247903554,-2.484497827128634,0.34713280744601505
21918227,1604.0,1,185996,228644,0.63,-0.25,9.97,-0.03,-0.01,-0.01,32.59,19.991723,-153.51678685982424,573.7332235299334,9.993012558783263,0.033166247903554,-2.125482868980197,0.5549902367467369
21958209,1631.0,1,186398,229723,0.64,-0.25,9.99,-0.03,-0.01,-0.01,32.59,20.031705,-140.46501502985095,953.9372060052997,10.013600750978641,0.033166247903554,-1.945548060198089,0.9251746271507176
21998209,1669.0,1,186785,230819,0.65,-0.25,9.95,-0.04,-0.01,-0.01,32.59,20.071705,-109.53877808030124,1319.8039804478885,9.974342083566214,0.042426406871192854,-1.5191916540059363,1.2813996408507666
22038209,1719.0,1,187196,231779,0.64,-0.23,9.98,-0.04,-0.01,-0.01,32.59,20.111705,-76.42258650964492,1302.4444359556492,10.003144505604226,0.042426406871192854,-1.0626440162228832,1.2644975759283752
22078209,1777.0,1,187444,230581,0.64,-0.23,9.94,-0.04,-0.01,-0.01,32.59,20.151705,-12.899718121015692,675.8012345464529,9.96323742565638,0.042426406871192854,-0.18690275092201722,0.6543684289263654
22118209,1838.0,1,185386,223888,0.64,-0.23,9.97,-0.04,-0.01,-0.01,32.59,20.191705,20.30292636079996,-380.2515706781976,9.993167665960579,0.042426406871192854,0.27083674711118105,-0.3738540041772386
22158209,1822.0,1,183879,222963,0.63,-0.24,9.95,-0.04,-0.01,-0.01,32.59,20.231705,23.709649685580235,-1341.2696029018728,9.97281304346973,0.042426406871192854,0.31780263940560216,-1.3095461347797999
22198209,1918.0,1,184119,224190,0.65,-0.24,9.97,-0.04,-0.01,-0.01,32.59,20.271705,89.68521732003323,-1702.2510198878329,9.994048228820992,0.042426406871192854,1.2273573957440467,-1.6610145358315191
22238209,1944.0,1,184891,226151,0.66,-0.25,9.95,-0.03,-0.01,-0.01,32.59,20.311705,135.2425457518228,-1340.7927099597155,9.974998746867088,0.033166247903554,1.8554214844199306,-1.3090818094933285
22278209,1997.0,1,185711,228481,0.65,-0.24,9.97,-0.04,-0.01,-0.01,32.59,20.351705,171.99033230707332,-571.5836525231159,9.994048228820992,0.042426406871192854,2.3620351483057673,-0.5601438731611192
22318896,2047.5,1,186472,229931,0.64,-0.22,9.98,-0.03,-0.01,-0.01,32.63,20.392392,230.8119625379116,136.97682329583404,10.00291957380444,0.033166247903554,3.1729640341089604,0.12974376583116057
22357209,2047.5,1,186780,230157,0.625,-0.24,9.94,-0.04,-0.01,-0.01,32.63,20.430705,233.3273193755227,525.1026320914802,9.962521016289,0.042426406871192854,3.2076413375042687,0.5076412170720279
22397209,2047.5,1,186813,230438,0.63,-0.23,9.95,-0.03,-0.01,-0.01,32.63,20.470705,233.2318824609845,680.284327764071,9.9725774000506,0.033166247903554,3.206325621661861,0.6587333782861362
22437209,2047.5,1,186870,230885,0.64,-0.23,9.99,-0.04,-0.01,-0.01,32.63,20.510705,246.74012466717076,859.972433689077,10.013121391454316,0.042426406871192854,3.3925534388514524,0.8336861273910302
22477209,2047.5,1,187233,231696,0.66,-0.23,9.96,-0.03,-0.01,-0.01,32.63,20.550705,247.98065207389254,1176.2947764249739,9.984492976611282,0.033166247903554,3.4096556426461007,1.1416723637646429
22517207,2047.5,1,187498,232462,0.625,-0.25,9.96,-0.03,-0.01,-0.01,32.63,20.590703,263.3194798201719,1433.7400246442305,9.98272132236496,0.033166247903554,3.621120344406376,1.3923331055432269
22558209,2032.0,1,187825,233071,0.64,-0.23,9.95,-0.03,-0.01,-0.01,32.63,20.631705,257.0318555282627,1278.645352211667,9.973214125847294,0.033166247903554,3.5344376710194374,1.2413256742281866
22598209,1986.0,1,187798,230276,0.65,-0.23,9.98,-0.04,-0.01,-0.01,32.63,20.671705,222.98799303151364,542.3294180650644,10.003789282067071,0.042426406871192854,3.065100942768538,0.5244140220877256
22638209,1921.0,1,185336,224124,0.65,-0.23,9.97,-0.03,-0.01,-0.01,32.63,20.711705,178.1642178190827,-532.797420129671,9.993813086104822,0.033166247903554,2.4471497920122154,-0.5223797821561945
22678209,1869.0,1,184161,223660,0.63,-0.22,9.96,-0.04,-0.01,-0.01,32.63,20.751705,131.62256893147986,-1413.4014279095422,9.982329387472646,0.042426406871192854,1.805515629073285,-1.3797770552855335
22718209,1814.0,1,184565,225006,0.63,-0.23,9.97,-0.04,-0.01,-0.01,32.63,20.791705,108.42119995978875,-1660.1205339685137,9.992532211606825,0.042426406871192854,1.485656077145084,-1.6199943230869638
22758207,1774.0,1,185192,226690,0.64,-0.23,9.99,-0.03,-0.01,-0.01,32.63,20.831703,67.49395212445143,-1244.274376494133,10.013121391454316,0.033166247903554,0.9214233730215371,-1.2151070430951894
22798209,1677.0,1,185933,228662,0.65,-0.25499999999999995,9.96,-0.03,-0.01,-0.01,32.63,20.871705,9.104911614882239,-525.6002777661026,9.98444415077775,0.033166247903554,0.11645827127706483,-0.5153723075338559
22838207,1637.0,1,186452,229472,0.63,-0.24,9.97,-0.03,-0.01,-0.01,32.63,20.911703,-31.657571405551508,68.90940210510098,9.992767384463626,0.033166247903554,-0.4455029461970134,0.0634701390905593
22878209,1554.0,1,186548,229527,0.64,-0.23,9.96,-0.04,-0.01,-0.01,32.63,20.951705,-79.94767424863643,371.5067638826916,9.983190872661908,0.042426406871192854,-1.1112417082848116,0.35809309169139875
22918209,1506.0,1,186570,229645,0.65,-0.23,9.94,-0.03,-0.01,-0.01,32.63,20.991705,-119.37114481856398,533.6241803256091,9.963884784560687,0.033166247903554,-1.6547429838921932,0.5159381952304655
22958209,1453.0,1,186693,230045,0.64,-0.23,9.97,-0.03,-0.01,-0.01,32.63,21.031705,-150.27106326077376,793.9077122505548,9.993167665960579,0.033166247903554,-2.0807365569267233,0.7693624228529994
22998209,1396.0,1,186986,230921,0.65,-0.23,9.94,-0.04,-0.01,-0.01,32.63,21.071705,-186.87795827951103,1178.4219558352202,9.963884784560687,0.042426406871192854,-2.5854078568169445,1.1437434851877673
23038209,1367.0,1,187311,231567,0.64,-0.24,9.94,-0.03,-0.01,-0.01,32.63,21.111705,-205.5291430937786,1411.4125804865034,9.963473289972729,0.033166247903554,-2.8425374953697706,1.3705940610150897
23078207,1331.5,1,187555,232060,0.63,-0.23,9.97,-0.03,-0.01,-0.01,32.63,21.151703,-215.82668626629976,1133.7833027026531,9.992532211606825,0.033166247903554,-2.9845018574357667,1.1002812034653378
23118209,1331.5,1,186982,226723,0.64,-0.24,9.97,-0.04,-0.01,-0.01,32.63,21.191705,-209.45078522529917,250.5029502165099,9.993402823863352,0.042426406871192854,-2.89660217993823,0.24027811588042186
23158209,1331.5,1,184118,222281,0.64,-0.23,9.96,-0.03,-0.01,-0.01,32.63,21.231705,-188.87723319273903,-908.3191446859371,9.983190872661908,0.033166247903554,-2.612970332923706,-0.8880053071263851
23198209,1331.5,1,183658,222295,0.63,-0.23,9.97,-0.03,-0.01,-0.01,32.63,21.271705,-180.32637650376023,-1780.9799043320425,9.992532211606825,0.033166247903554,-2.495086203221007,-1.7376686621387138
23238209,1331.5,1,183864,223028,0.66,-0.24,9.95,-0.03,-0.01,-0.01,32.63,21.311705,-168.87508647398957,-1972.162704676626,9.974753129777197,0.033166247903554,-2.337216014509666,-1.9238131836676828
23278209,1331.5,1,184223,224173,0.65,-0.23,9.95,-0.04,-0.01,-0.01,32.63,21.351705,-157.78172544321723,-1517.1819873701231,9.973860837208427,0.042426406871192854,-2.184280319507787,-1.4808226647754035
23318895,1331.5,1,184970,226168,0.65,-0.24,9.95,-0.04,-0.01,-0.01,32.55,21.392391,-154.27708164258217,-799.9549825046954,9.97409645030566,0.042426406871192854,-2.135964472408125,-0.7824968875208642
23357226,1341.0,1,185627,227157,0.64,-0.24,9.97,-0.04,-0.01,-0.01,32.55,21.430722,-134.64562691021652,-218.7467552010075,9.993402823863352,0.042426406871192854,-1.8653206012617773,-0.21660535760735514
23397209,1373.0,1,185619,227172,0.63,-0.24,9.94,-0.04,-0.01,-0.01,32.55,21.470705,-103.29390230644779,105.49781312461535,9.962835941638303,0.042426406871192854,-1.433098321784495,0.09909432835056206
23437209,1393.0,1,185609,227434,0.65,-0.22,9.97,-0.03,-0.01,-0.01,32.55,21.510705,-78.32609092772117,343.8417212218909,9.99358794427707,0.033166247903554,-1.08888617766612,0.33115711146780347
23477207,1418.0,1,185854,228234,0.65,-0.24,9.95,-0.04,-0.01,-0.01,32.55,21.550703,-54.535676634172376,710.1749643635231,9.97409645030566,0.042426406871192854,-0.7609059078205974,0.6878363009233867
23517209,1441.0,1,186323,229446,0.65,-0.23,9.96,-0.03,-0.01,-0.01,32.55,21.590705,-34.16370982821972,1186.640190001939,9.983836937770969,0.033166247903554,-0.4800531623468786,1.1517451425754592
23557209,1457.0,1,186723,230562,0.65,-0.23,9.98,-0.04,-0.01,-0.01,32.55,21.630705,-18.691507042066725,1481.8142205874672,10.003789282067071,0.042426406871192854,-0.266749720788773,1.439140392525187
23597209,1488.0,1,187207,230984,0.64,-0.25499999999999995,9.94,-0.04,-0.01,-0.01,32.55,21.670705,2.9843640437939145,1272.8348811379346,9.96384589403108,0.042426406871192854,0.03207895702055542,1.2356683276680966
23637209,1509.0,1,186137,224237,0.66,-0.23,9.97,-0.04,-0.01,-0.01,32.55,21.710705,22.31006535967152,519.1317328961698,9.994468470108854,0.042426406871192854,0.29850763935982405,0.5018276701849359
23677209,1535.0,1,183767,222027,0.64,-0.22,9.96,-0.03,-0.01,-0.01,32.55,21.750705,36.12560812548677,-445.84404235938314,9.982965491275626,0.033166247903554,0.4889719746372122,-0.43771790425083457
23717209,1568.0,1,183681,222293,0.64,-0.22,9.97,-0.03,-0.01,-0.01,32.55,21.790705,62.697370339477445,-1142.6030946379203,9.992942509591456,0.033166247903554,0.855296563762966,-1.1161151249924588
23757209,1600.0,1,183939,223153,0.63,-0.23,9.95,-0.03,-0.01,-0.01,32.55,21.830705,84.3605819830893,-1293.153963264702,9.9725774000506,0.033166247903554,1.153950715511772,-1.262698496277913
23797209,1615.0,1,184251,223741,0.65,-0.23,9.98,-0.03,-0.01,-0.01,32.55,21.870705,85.28870482341797,-984.4561511088388,10.003789282067071,0.033166247903554,1.166746036176,-0.9621358596954181
23837209,1628.0,1,184499,224597,0.65,-0.23,9.96,-0.03,-0.01,-0.01,32.55,21.910705,92.36521910377068,-530.6401976500281,9.983836937770969,0.033166247903554,1.2643045332495524,-0.5202794093947279
23877209,1650.0,1,184691,225282,0.65,-0.23,9.95,-0.03,-0.01,-0.01,32.55,21.950705,93.61956145063293,-187.72084737690153,9.973860837208427,0.033166247903554,1.2815971930715422,-0.18639708177652292
23917209,1648.0,1,184980,225689,0.65,-0.23,9.97,-0.03,-0.01,-0.01,32.55,21.990705,87.79728507251073,25.388662083140844,9.993813086104822,0.033166247903554,1.2013299159216209,0.021096309889537545
23957209,1680.0,1,185162,226224,0.665,-0.23,9.97,-0.03,-0.01,-0.01,32.55,22.030705,98.18843584411059,266.9988552056156,9.994799897946931,0.033166247903554,1.3445847744550847,0.25633930096532487
23997209,1692.0,1,185222,226827,0.665,-0.23,9.95,-0.04,-0.01,-0.01,32.55,22.070705,102.97221037674447,648.5235845866847,9.974849622926653,0.042426406871192854,1.4105350199083075,0.6278096323659843
24037209,1709.0,1,185609,227687,0.665,-0.23,9.96,-0.03,-0.01,-0.01,32.55,22.110705,103.45536833590599,1053.2732760171154,9.984824735567472,0.033166247903554,1.4171959496369158,1.0218928737167796
24077209,1703.0,1,185962,228838,0.66,-0.24,9.98,-0.04,-0.01,-0.01,32.55,22.150705,84.40873460040807,1174.7405528828938,10.004678905392216,0.042426406871192854,1.1546145588659527,1.1401590989883759
24117209,1689.0,1,186342,229039,0.66,-0.25,9.97,-0.03,-0.01,-0.01,32.55,22.190705,59.668228630530386,769.6508791258789,9.994948724230655,0.033166247903554,0.8135361007948962,0.7457448349336749
24157209,1723.0,1,184921,222499,0.64,-0.23,10.0,-0.04,-0.01,-0.01,32.55,22.230705,77.20474080109932,-83.60263587323018,10.023098323372869,0.042426406871192854,1.055298599038239,-0.08502271845581114
24197207,1725.0,1,183110,221049,0.665,-0.23,9.98,-0.03,-0.01,-0.01,32.55,22.270703,72.74396256198713,-970.5105374771052,10.004775109916265,0.033166247903554,0.9938012567669957,-0.9485577576264657
24237209,1739.0,1,183094,221765,0.665,-0.24,9.96,-0.03,-0.01,-0.01,32.55,22.310705,67.06155950732783,-1418.058562666836,9.985060089954391,0.033166247903554,0.9154623062871144,-1.3843114596332566
24277209,1759.0,1,183585,223123,0.665,-0.23,9.95,-0.03,-0.01,-0.01,32.55,22.350705,88.76171859114378,-1237.5328536235638,9.974849622926653,0.033166247903554,1.2146258241721597,-1.208543180933651
24317209,1738.0,1,184377,225130,0.665,-0.24,9.94,-0.04,-0.01,-0.01,32.55,22.390705,39.08636877557287,-634.2719640671725,9.965110385740841,0.042426406871192854,0.5297897201788091,-0.6211801470141817
24357897,1669.0,1,185059,226472,0.66,-0.24,9.95,-0.03,-0.01,-0.01,32.61,22.431393,-13.853766611672121,1.0718318952116956,9.974753129777197,0.033166247903554,-0.20005548872432022,-0.0025796939783569693
24398209,1722.0,1,185293,226782,0.665,-0.25,9.97,-0.04,-0.01,-0.01,32.61,22.471705,-0.8487944662190594,419.4958506887938,9.99528013614426,0.042426406871192854,-0.020765871445320827,0.40481751243444464
24438209,1709.0,1,185447,226923,0.65,-0.22,9.97,-0.04,-0.01,-0.01,32.61,22.511705,13.276216393044917,668.5696305975767,9.99358794427707,0.042426406871192854,0.17396486405299222,0.6473274008918124
24478209,1748.0,1,185611,227854,0.665,-0.23,9.99,-0.04,-0.01,-0.01,32.61,22.551705,10.712444984113906,954.6764768695971,10.014750371327285,0.042426406871192854,0.13862010594377994,0.92589441586114
24518209,1699.0,1,185952,228967,0.65,-0.23,9.97,-0.04,-0.01,-0.01,32.61,22.591705,-14.113618900899121,1356.505882413877,9.993813086104822,0.042426406871192854,-0.20363787375087097,1.3171343302074894
24558209,1712.0,1,186434,229901,0.66,-0.25,9.95,-0.03,-0.01,-0.01,32.61,22.631705,-29.355796392049335,1666.460225508258,9.974998746867088,0.033166247903554,-0.41377013226880716,1.6189203841157855
24598207,1714.0,1,186697,230658,0.65,-0.23,9.96,-0.03,-0.01,-0.01,32.61,22.671703,-18.416506585187204,1527.0389135982628,9.983836937770969,0.033166247903554,-0.2629584995455412,1.4831732700989857
24638209,1724.0,1,186705,228336,0.665,-0.23,9.97,-0.03,-0.01,-0.01,32.61,22.711705,-16.660876419906774,761.9247266751515,9.994799897946931,0.033166247903554,-0.23875496747364464,0.7382222913334746
24678209,1721.0,1,184127,221536,0.66,-0.23,9.96,-0.03,-0.01,-0.01,32.61,22.751705,-26.539815818833244,-396.3627565366846,9.984492976611282,0.033166247903554,-0.37494835905851,-0.38954060871220203
24718209,1703.0,1,183082,221062,0.66,-0.23,9.98,-0.03,-0.01,-0.01,32.61,22.791705,-38.23805516063214,-1412.7373512408087,10.004444012537629,0.033166247903554,-0.5362230493055448,-1.3791304791629055
24758209,1717.0,1,183179,222050,0.65,-0.22,9.98,-0.03,-0.01,-0.01,32.61,22.831705,-38.21403544810489,-1822.4151355333242,10.003564364765191,0.033166247903554,-0.5358919078760978,-1.7780119423527456
24798209,1713.0,1,183765,223287,0.65,-0.24,9.95,-0.03,-0.01,-0.01,32.61,22.871705,-31.73646640886167,-1553.334583471351,9.97409645030566,0.033166247903554,-0.44659061134465855,-1.5160225242353749
24838209,1727.0,1,184385,225367,0.665,-0.22,9.94,-0.03,-0.01,-0.01,32.61,22.911705,-30.096732215251752,-928.0109728478544,9.964648764507457,0.033166247903554,-0.4239848485084499,-0.9071781925775038
24878209,1709.0,1,185106,226461,0.65,-0.22,9.95,-0.04,-0.01,-0.01,32.61,22.951705,-39.99067885087617,-365.64804566540687,9.973635244984647,0.042426406871192854,-0.560385133402574,-0.35963532879826754
24918207,1704.0,1,185268,226691,0.64,-0.25,9.99,-0.03,-0.01,-0.01,32.61,22.991703,-52.94938219909957,-56.78428125961051,10.013600750978641,0.033166247903554,-0.739036878116028,-0.05891111333888206
24958209,1710.0,1,185397,226787,0.66,-0.23,9.97,-0.04,-0.01,-0.01,32.61,23.031705,-41.86087372495211,118.3333245377913,9.994468470108854,0.042426406871192854,-0.5861680816057698,0.1115915829481457
24998211,1714.0,1,185439,227709,0.65,-0.22,9.96,-0.03,-0.01,-0.01,32.61,23.071707,-42.92290020287408,382.3970067951279,9.983611570969696,0.033166247903554,-0.6008094294408259,0.3686963418405544
25038209,1702.0,1,186019,228874,0.65,-0.23,9.96,-0.04,-0.01,-0.01,32.61,23.111705,-51.40451961756055,770.0387827891901,9.983836937770969,0.042426406871192854,-0.7177390377289098,0.7461225160936761
25078209,1731.0,1,186409,230088,0.65,-0.24,9.95,-0.03,-0.01,-0.01,32.61,23.151705,-26.538868243682415,1030.017652422488,9.97409645030566,0.033166247903554,-0.3749352955636993,0.9992501102512513
25118209,1728.0,1,186822,230933,0.65,-0.22,9.94,-0.04,-0.01,-0.01,32.61,23.191705,-25.82742010885491,827.8901989780418,9.963658966464077,0.042426406871192854,-0.365127103559868,0.8024493622683202
25158209,1727.0,1,186530,226006,0.66,-0.24,9.96,-0.04,-0.01,-0.01,32.61,23.231705,-33.31109036671403,79.05480673241627,9.984728338818238,0.042426406871192854,-0.4682987490941422,0.07334817982783057
25198220,1744.0,1,183902,222370,0.65,-0.24,9.97,-0.04,-0.01,-0.01,32.61,23.271716,-8.09760796495437,-899.1217715901466,9.994048228820992,0.042426406871192854,-0.1206997262340442,-0.8790503142548842
25238186,1765.0,1,183686,223073,0.63,-0.23,9.98,-0.03,-0.01,-0.01,32.61,23.311682,-1.4882618659035858,-1580.5201100188344,10.002509685074042,0.033166247903554,-0.029581720035348053,-1.5424916251302963
25278209,1745.0,1,184195,224491,0.65,-0.23,9.97,-0.03,-0.01,-0.01,32.61,23.351705,-4.393535594834541,-1614.3726672533833,9.993813086104822,0.033166247903554,-0.06963450977799121,-1.5754520591107564
25318209,1756.0,1,184852,226371,0.65,-0.23,9.94,-0.03,-0.01,-0.01,32.61,23.391705,-17.384080203801684,-1065.0201051039915,9.963884784560687,0.033166247903554,-0.24872522563175817,-1.0405766955963474
25358897,1730.0,1,185782,228296,0.65,-0.23,9.96,-0.04,-0.01,-0.01,32.75,23.432393,-20.364601059297797,-311.4948923980075,9.983836937770969,0.042426406871192854,-0.2898153900317495,-0.3069092844779811
25397209,1802.0,1,186304,229206,0.66,-0.24,9.95,-0.04,-0.01,-0.01,32.75,23.470705,25.067783386440944,277.98384001006343,9.974753129777197,0.042426406871192854,0.336526191345401,0.2670347962543438
25437209,1795.0,1,186379,229622,0.65,-0.22,9.96,-0.04,-0.01,-0.01,32.75,23.510705,37.59600247140142,601.3619186110768,9.983611570969696,0.042426406871192854,0.5092431783414365,0.581890827265757
25477207,1808.0,1,186648,230163,0.65,-0.23,9.96,-0.04,-0.01,-0.01,32.75,23.550703,30.060282313762468,805.3954582421636,9.983836937770969,0.042426406871192854,0.4053539605965829,0.7805474299624265
25517209,1808.0,1,186825,230674,0.63,-0.25,9.97,-0.03,-0.01,-0.01,32.75,23.590705,40.911597275683455,1046.4085593146926,9.993012558783263,0.033166247903554,0.5549527513311644,1.0152090642752332
25557209,1807.0,1,186986,231297,0.66,-0.23,9.95,-0.03,-0.01,-0.01,32.75,23.630705,26.12479705035745,1269.4435709430832,9.974517532191719,0.033166247903554,0.351098431342741,1.2323663893533572
25597209,1798.0,1,187287,232064,0.64,-0.21500000000000002,9.95,-0.03,-0.01,-0.01,32.75,23.670705,22.167574692515238,1221.6578848542058,9.972879473853075,0.033166247903554,0.2965432293715096,1.185840009067498
25637209,1808.0,1,187519,231811,0.64,-0.23,9.95,-0.03,-0.01,-0.01,32.75,23.710705,21.49594418800609,700.6869631398013,9.973214125847294,0.033166247903554,0.28728397262266314,0.6785983389055026
25677209,1793.0,1,186104,225378,0.66,-0.23,9.97,-0.03,-0.01,-0.01,32.75,23.750705,7.701832214581072,-189.51313978161048,9.994468470108854,0.033166247903554,0.09711508731030818,-0.1881421415387674
25717209,1794.0,1,184136,223760,0.64,-0.25499999999999995,9.98,-0.03,-0.01,-0.01,32.75,23.790705,2.8333160806741535,-1033.5766716944415,10.003750546669984,0.033166247903554,0.029996574129179308,-1.009961897315857
25757209,1793.0,1,184453,225131,0.66,-0.24,9.96,-0.04,-0.01,-0.01,32.75,23.830705,-5.119400635777176,-1385.6177438120747,9.984728338818238,0.042426406871192854,-0.07964145665425279,-1.35272556020693
25797209,1794.0,1,185110,227274,0.64,-0.25,9.95,-0.03,-0.01,-0.01,32.75,23.870705,-0.052634324368880235,-1094.3163806596247,9.973695403409911,0.033166247903554,-0.009789819706907846,-1.0691009205059898
25837209,1808.0,1,185971,229195,0.66,-0.25,9.919999999999998,-0.03,-0.01,-0.01,32.75,23.910705,-3.0343105752713737,-383.85603670347433,9.945074157591785,0.033166247903554,-0.05089591266083214,-0.3773634809839035
25877207,1793.0,1,186558,230623,0.63,-0.24,9.96,-0.03,-0.01,-0.01,32.75,23.950703,-7.551929130862562,362.7910159559478,9.982790191123923,0.033166247903554,-0.11317686895858461,0.349607031623931
25917209,1808.0,1,186998,230986,0.63,-0.23,9.96,-0.04,-0.01,-0.01,32.75,23.990705,-8.896976067856235,900.781343621968,9.982554783220577,0.042426406871192854,-0.13172000368111458,0.8734195919071127
25957207,1795.0,1,187122,231287,0.63,-0.24,9.99,-0.04,-0.01,-0.01,32.75,24.030703,-20.151813536242113,1236.160015922381,10.012721907653283,0.042426406871192854,-0.2868818509865514,1.1999599625568829
25997188,1799.0,1,187257,231429,0.65,-0.23,9.97,-0.04,-0.01,-0.01,32.75,24.070684,-15.763747377868985,1484.128788722808,9.993813086104822,0.042426406871192854,-0.2263869346322158,1.4413939643806188
26037207,1765.0,1,187301,231947,0.625,-0.23,9.95,-0.04,-0.01,-0.01,32.75,24.110703,-67.08150497859029,1640.9504051897904,9.972262782337816,0.042426406871192854,-0.9338656602261531,1.594082829226368
26077209,1723.0,1,187382,232043,0.63,-0.24,9.97,-0.04,-0.01,-0.01,32.75,24.150705,-91.55130776115006,1511.3535680534328,9.992767384463626,0.042426406871192854,-1.2712121402270065,1.4679012836221874
26117209,1813.0,1,187352,231609,0.65,-0.24,9.96,-0.03,-0.01,-0.01,32.75,24.190705,-25.41092796448884,882.151812711259,9.984072315443234,0.033166247903554,-0.3593852444979699,0.8552810087739396
26157209,1800.0,1,186279,224743,0.65,-0.24,9.97,-0.03,-0.01,-0.01,32.75,24.230705,-25.995492103516526,-213.6769533628642,9.994048228820992,0.033166247903554,-0.3674441837705115,-0.2116691612774189
26197209,1799.0,1,183489,221601,0.63,-0.23,9.98,-0.03,-0.01,-0.01,32.75,24.270705,-30.81997564804981,-1410.7002252816656,10.002509685074042,0.033166247903554,-0.43395565327570584,-1.3771470379941628
26237209,1842.0,1,183195,221764,0.64,-0.24,9.97,-0.03,-0.01,-0.01,32.75,24.310705,-2.3596463836230557,-2219.0405375955006,9.993402823863352,0.033166247903554,-0.041594832784643106,-2.164184995368132
26277209,1808.0,1,183474,222629,0.66,-0.24,9.97,-0.03,-0.01,-0.01,32.75,24.350705,-9.286821433737083,-2357.9795903803756,9.994703597405978,0.033166247903554,-0.13709450396185577,-2.2994625593315967
