timestamp_us,ecg,leads,ir,red,accX,accY,accZ,gyroX,gyroY,gyroZ,temp,time_sec,ecg_filtered,ppg_filtered,accel_magnitude,gyro_magnitude,ecg_norm,ppg_norm
2449965,1609,1,193949.0,226080,0.58,-0.23,9.930000000000001,-0.03,-0.01,-0.01,32.27,0.030473,-4.919831466715688,-25.684789838232433,9.949582905830779,0.033166247903554,-0.21371562430672034,-0.03408111348253756
2490204,1654,1,194228.0,226249,0.58,-0.23,9.97,-0.03,-0.01,-0.01,32.27,0.070712,26.376358303060716,-51.77404867519612,9.989504492215818,0.033166247903554,1.0448960135235121,-0.06339967022645097
2530196,1682,1,194299.0,226347,0.6,-0.25,9.96,-0.03,-0.01,-0.01,32.27,0.110704,38.840804945226076,69.90044554092508,9.981187304123694,0.033166247903554,1.5461678206779255,0.07333555039653109
2570198,1692,1,194481.0,226896,0.57,-0.22,9.95,-0.03,-0.01,-0.01,32.27,0.150706,37.039626191482135,401.9733690367231,9.968741144196693,0.033166247903554,1.4737313816752464,0.44651207148783906
2610217,1712,1,193925.0,227655,0.59,-0.24,9.97,-0.03,-0.01,-0.01,32.27,0.190725,42.0210820536303,844.9859331339104,9.990325320028372,0.033166247903554,1.6740662584624568,0.9443602119780421
2649211,1739,1,195237.0,228722,0.59,-0.23,9.98,-0.03,-0.01,-0.01,32.27,0.229719,57.26648037569687,1138.0096522859235,10.000069999755002,0.033166247903554,2.287177180036715,1.2736540639405565
2689200,1770,1,195582.0,229463,0.59,-0.22,9.96,-0.03,-0.01,-0.01,32.27,0.269708,76.53045635831705,1005.3800068484252,9.979884768873838,0.033166247903554,3.0618997434211805,1.1246076763070716
2729199,1792,1,194966.0,224641,0.59,-0.22,9.94,-0.03,-0.01,-0.01,32.27,0.309707,85.73260224578647,383.78550074735324,9.959924698510527,0.033166247903554,3.4319744391646734,0.42607293016055814
2769197,1791,1,192948.0,222403,0.6,-0.22,9.98,-0.03,-0.01,-0.01,32.27,0.349705,77.08560349150957,-469.1149541887587,10.000439990320427,0.033166247903554,3.0842256127261707,-0.532398544296406
2809199,1797,1,192593.0,222167,0.6,-0.23,9.97,-0.03,-0.01,-0.01,32.27,0.389707,70.47252367640124,-1121.3517200029667,9.990685662155526,0.033166247903554,2.8182731348550916,-1.265368413179655
2849197,1808,1,192817.0,222958,0.59,-0.26,9.96,-0.04,-0.01,-0.01,32.27,0.429705,76.418984162702,-1269.623267841733,9.980846657473505,0.042426406871192854,3.05741676310544,-1.4319928395761492
2889199,1818,1,193175.0,223949,0.6,-0.23,9.96,-0.03,-0.01,-0.01,32.27,0.469707,76.56578475398446,-939.9374226420853,9.980706387826466,0.033166247903554,3.0633205147757754,-1.0614988665370952
2929197,1809,1,193781.0,225470,0.6,-0.22,9.96,-0.03,-0.01,-0.01,32.27,0.509705,63.17665268672011,-419.7245780675508,9.980480950335009,0.033166247903554,2.5248614383108494,-0.4768946852576343
2969200,1810,1,194262.0,226120,0.6,-0.22,9.97,-0.03,-0.01,-0.01,32.27,0.549708,58.67476370682704,0.7471992569744073,9.990460449849147,0.033166247903554,2.3438128856277674,-0.004377403730370754
3009196,1821,1,194312.0,226240,0.58,-0.23,9.95,-0.04,-0.01,-0.01,32.27,0.589704,65.79309039957441,242.77201300735732,9.969543620447226,0.042426406871192854,2.6300844376370023,0.2676049580422913
3049199,1818,1,194343.0,226472,0.58,-0.23,9.94,-0.03,-0.01,-0.01,32.27,0.629707,60.613640200650586,432.16738758291086,9.959563243435928,0.033166247903554,2.4217869948529884,0.4804434702908955
3089202,1802,1,194498.0,226975,0.59,-0.23,9.97,-0.03,-0.01,-0.01,32.27,0.66971,43.50629063608932,698.4706509978193,9.990090089683877,0.033166247903554,1.7337955999650285,0.779709439796221
3129199,1794,1,194858.0,227818,0.58,-0.23,9.97,-0.03,-0.01,-0.01,32.27,0.709707,33.504755705537974,981.6475909292465,9.989504492215818,0.033166247903554,1.3315725705049333,1.09793768973732
3169197,1788,1,195214.0,228654,0.6,-0.23,9.95,-0.04,-0.01,-0.01,32.27,0.749705,32.315008678924514,1041.3095768427095,9.97072715502736,0.042426406871192854,1.2837255493568278,1.1649845663998386
3209199,1786,1,195584.0,228033,0.59,-0.24,9.97,-0.03,-0.01,-0.01,32.27,0.789707,25.448658058511747,675.2260444852656,9.990325320028372,0.033166247903554,1.0075874998419239,0.753587643110196
3249197,1764,1,193800.0,223419,0.59,-0.23,9.98,-0.03,-0.01,-0.01,32.27,0.829705,15.870877246879168,-53.726086269556184,10.000069999755002,0.033166247903554,0.6224062211372102,-0.06559332874830258
3289199,1766,1,192789.0,221929,0.59,-0.21,10.0,-0.03,-0.01,-0.01,32.27,0.869707,9.153261099470745,-808.0082765407624,10.019590810008161,0.033166247903554,0.3522496965314695,-0.9132396852272961
3329197,1733,1,192700.0,222409,0.6,-0.22,9.97,-0.03,-0.01,-0.01,32.27,0.909705,-4.701414938292532,-1209.7356200375289,9.990460449849147,0.033166247903554,-0.2049317567947288,-1.3646923688583155
3369199,1741,1,193128.0,223386,0.62,-0.23,9.96,-0.03,-0.01,-0.01,32.27,0.949707,-7.972861034495428,-1112.9484244437472,9.98192867135405,0.033166247903554,-0.33649665844903853,-1.255924967536815
3409197,1729,1,193479.0,224686,0.6,-0.23,9.97,-0.03,-0.01,-0.01,32.27,0.989705,3.0208394021802163,-677.2643218079088,9.990685662155526,0.033166247903554,0.10562742803582344,-0.7663123968856342
3449200,1716,1,194047.0,225652,0.59,-0.22,9.98,-0.03,-0.01,-0.01,32.27,1.029708,-21.17609150133271,-197.91215004070798,9.999844998798732,0.033166247903554,-0.8674794919748087,-0.227626574643609
3489884,1653,1,194292.0,225852,0.58,-0.23,9.97,-0.03,-0.01,-0.01,32.13,1.070392,-61.117968319648796,138.54581191227172,9.989504492215818,0.033166247903554,-2.47378720451503,0.15047775983000075
3530199,1671,1,194425.0,225908,0.58,-0.24,9.96,-0.04,-0.01,-0.01,32.13,1.110707,-51.374574820095766,358.3399212780032,9.979759516140659,0.042426406871192854,-2.081945624415086,0.3974777266625993
3570197,1668,1,194470.0,226283,0.59,-0.24,9.98,-0.03,-0.01,-0.01,32.13,1.150705,-34.52611641131951,590.8634887752635,10.000304995348891,0.033166247903554,-1.4043658299168007,0.6587827890473846
3610199,1662,1,194659.0,226890,0.6,-0.23,9.96,-0.03,-0.01,-0.01,32.13,1.190707,-44.357241915610594,865.5218812763034,9.980706387826466,0.033166247903554,-1.7997356517287797,0.9674380757328287
3650196,1650,1,194996.0,227668,0.57,-0.23,9.96,-0.03,-0.01,-0.01,32.13,1.230704,-41.13789603640505,1020.0631342346695,9.97894784032866,0.033166247903554,-1.6702660191768344,1.1411082640064736
3690199,1648,1,195413.0,228251,0.59,-0.24,9.96,-0.03,-0.01,-0.01,32.13,1.270707,-42.58764702971172,825.5273986442061,9.980345685395873,0.033166247903554,-1.7285693936628188,0.9224931228761659
3730197,1634,1,194773.0,224360,0.59,-0.23,9.97,-0.03,-0.01,-0.01,32.13,1.310705,-46.76964212990416,224.29873173580975,9.990090089683877,0.033166247903554,-1.8967530524778717,0.24684507564813224
3770199,1641,1,193099.0,221765,0.58,-0.23,9.97,-0.03,-0.01,-0.01,32.13,1.350707,-34.60481355194689,-550.0449238631696,9.989504492215818,0.033166247903554,-1.407530724358783,-0.6233459308438788
3810197,1632,1,192503.0,221610,0.6,-0.23,9.97,-0.03,-0.01,-0.01,32.13,1.390705,-40.05209559501557,-1108.0744622587704,9.990685662155526,0.033166247903554,-1.6265993274182815,-1.2504477120202468
3850199,1623,1,192955.0,222605,0.6,-0.23,9.96,-0.03,-0.01,-0.01,32.13,1.430707,-40.148048550767335,-1188.8491430130734,9.980706387826466,0.033166247903554,-1.6304581839654133,-1.3412205881669323
3890197,1630,1,193390.0,223638,0.57,-0.23,9.96,-0.04,-0.01,-0.01,32.13,1.470705,-33.59413884654911,-838.9328268745768,9.97894784032866,0.042426406871192854,-1.3668852989689246,-0.9479920401871607
3930199,1616,1,193898.0,225032,0.57,-0.21,9.97,-0.03,-0.01,-0.01,32.13,1.510707,-39.9844718355559,-332.7579848123272,9.988488374123484,0.033166247903554,-1.623879761513426,-0.37916346893171843
3970197,1633,1,194378.0,225681,0.6,-0.25,9.96,-0.03,-0.01,-0.01,32.13,1.550705,-21.547282245513678,76.79211925962245,9.981187304123694,0.033166247903554,-0.8824073472159027,0.08108026741761765
4010200,1637,1,194417.0,225840,0.57,-0.21,9.98,-0.04,-0.01,-0.01,32.13,1.590708,-16.940150340421017,344.51179156319733,9.998469882937089,0.042426406871192854,-0.6971263313662208,0.3819379672451595
4050180,1621,1,194483.0,226345,0.6,-0.23,9.930000000000001,-0.03,-0.01,-0.01,32.13,1.630688,-26.718554094584757,597.5746794560515,9.950768814518806,0.033166247903554,-1.0903758884186494,0.6663246830514845
4090200,1647,1,194879.0,226981,0.6,-0.23,9.95,-0.04,-0.01,-0.01,32.13,1.670708,-6.577135066192906,930.1569434921738,9.97072715502736,0.042426406871192854,-0.28036596139453973,1.0400735902587337
4130197,1636,1,195200.0,227830,0.59,-0.22,9.98,-0.03,-0.01,-0.01,32.13,1.710705,-10.549687979165338,1235.0733376301396,9.999844998798732,0.033166247903554,-0.4401266659705336,1.3827321785900164
4170198,1637,1,195415.0,228706,0.59,-0.23,9.97,-0.03,-0.01,-0.01,32.13,1.750706,-16.094632730482576,1247.5498279759754,9.990090089683877,0.033166247903554,-0.6631228852059272,1.3967529943002355
4210198,1648,1,195796.0,227581,0.57,-0.22,9.97,-0.03,-0.01,-0.01,32.13,1.790706,-2.981181746919378,780.2234918217986,9.988703619589481,0.033166247903554,-0.1357506350552704,0.8715815515205305
4250203,1633,1,193815.0,223171,0.59,-0.21,9.96,-0.03,-0.01,-0.01,32.13,1.830711,-20.502022174571916,-61.95981206219681,9.979669333199373,0.033166247903554,-0.8403710322675237,-0.07484621547743178
4290197,1643,1,192808.0,221523,0.6,-0.24,9.930000000000001,-0.04,-0.01,-0.01,32.13,1.870705,-16.615708873140168,-899.9926699537622,9.951004974373193,0.042426406871192854,-0.6840785511246548,-1.0166097991384107
4330200,1648,1,192771.0,221840,0.57,-0.23,9.97,-0.03,-0.01,-0.01,32.13,1.910708,-6.996029825618717,-1337.9453639100288,9.988928871505694,0.033166247903554,-0.2972122875165962,-1.5087717646870231
4370197,1641,1,193014.0,222854,0.57,-0.22,9.97,-0.04,-0.01,-0.01,32.13,1.950705,-31.108636906140788,-1241.2878153633155,9.988703619589481,0.042426406871192854,-1.2669280296955703,-1.4001500579722534
4410200,1631,1,193551.0,224100,0.57,-0.24,9.96,-0.04,-0.01,-0.01,32.13,1.990708,-26.692252274214955,-800.3281756670382,9.979183333319416,0.042426406871192854,-1.089318130990123,-0.904608950461223
4450197,1657,1,194054.0,225251,0.57,-0.23,9.96,-0.03,-0.01,-0.01,32.13,2.030705,-28.9076425104216,-340.3612597089897,9.97894784032866,0.033166247903554,-1.1784125528394531,-0.3877078682912563
4490887,1639,1,194263.0,225783,0.58,-0.21,9.95,-0.04,-0.01,-0.01,32.21,2.071395,-25.97887733642243,-56.344791212096766,9.969102266503237,0.042426406871192854,-1.060628951717917,-0.06853617392199009
4529196,1727,1,194359.0,226059,0.59,-0.23,9.96,-0.04,-0.01,-0.01,32.21,2.109704,31.14496279183611,102.96728023737941,9.980110219832245,0.042426406871192854,1.2366708317979822,0.11049535916871582
4569197,1731,1,194484.0,226496,0.59,-0.25,9.96,-0.03,-0.01,-0.01,32.21,2.149705,51.16380392107498,317.5617518316726,9.980591164855918,0.033166247903554,2.0417511500885803,0.35165208315557583
4609196,1741,1,194762.0,227390,0.58,-0.22,9.97,-0.03,-0.01,-0.01,32.21,2.189704,40.31982251455974,662.2795492703787,9.989279253279488,0.033166247903554,1.6056481835915106,0.7390386458786349
4649199,1750,1,195193.0,228100,0.58,-0.22,9.97,-0.03,-0.01,-0.01,32.21,2.229707,51.04068020837966,973.425116961172,9.989279253279488,0.033166247903554,2.0367995908466674,1.0886974475704252
4689197,1754,1,195433.0,229186,0.6,-0.24,9.95,-0.03,-0.01,-0.01,32.21,2.269705,48.729603088825954,951.0571332252291,9.970962842173266,0.033166247903554,1.9438570128526356,1.063560781001729
4729197,1750,1,195701.0,226604,0.57,-0.23,9.98,-0.03,-0.01,-0.01,32.21,2.309705,34.63963982466343,425.52497685795083,9.998909940588524,0.033166247903554,1.3772132178306162,0.4729788697450111
4769196,1745,1,193496.0,223049,0.58,-0.25,9.97,-0.03,-0.01,-0.01,32.21,2.349704,30.343244229242107,-445.21650353312197,9.9899849849737,0.033166247903554,1.2044288138217296,-0.5055419714049529
4809198,1765,1,192803.0,222103,0.59,-0.24,9.99,-0.03,-0.01,-0.01,32.21,2.389706,39.75436288148158,-1239.9210925205625,10.01028471123574,0.033166247903554,1.5829075854499859,-1.3986141637765286
4849196,1775,1,192886.0,222877,0.57,-0.24,9.96,-0.03,-0.01,-0.01,32.21,2.429704,46.15560889870783,-1563.0015047838915,9.979183333319416,0.033166247903554,1.840340927756593,-1.7616850911257145
4889197,1773,1,193230.0,223950,0.58,-0.25,9.94,-0.04,-0.01,-0.01,32.21,2.469705,42.639989022114975,-1315.7854516487737,9.960045180620417,0.042426406871192854,1.698956301595481,-1.4838689244364884
4929197,1788,1,193905.0,225497,0.57,-0.23,9.96,-0.03,-0.01,-0.01,32.21,2.509705,44.57994835229353,-727.7894441431772,9.97894784032866,0.033166247903554,1.776973958308377,-0.8230914596959955
4969197,1789,1,194520.0,226495,0.59,-0.21,9.95,-0.03,-0.01,-0.01,32.21,2.549705,53.79421586401746,-142.1773811265672,9.969689062352947,0.033166247903554,2.147536138869299,-0.16499302130161175
5009196,1790,1,194829.0,226879,0.6,-0.23,9.98,-0.04,-0.01,-0.01,32.21,2.589704,36.33066221267709,248.7265261697802,10.00066497789022,0.042426406871192854,1.4452195941033232,0.2742965138709118
5050198,1727,1,195074.0,227191,0.57,-0.22,9.98,-0.03,-0.01,-0.01,32.21,2.630706,-15.600134418658302,500.8611641040388,9.998684913527379,0.033166247903554,-0.6432360767884219,0.5576400820257956
5090197,1727,1,195257.0,227706,0.58,-0.23,10.01,-0.03,-0.01,-0.01,32.21,2.670705,-31.460673843208852,784.8568719995023,10.029426703456185,0.033166247903554,-1.2810855929388718,0.8767884460706994
5130198,1737,1,195504.0,228436,0.58,-0.23,9.95,-0.03,-0.01,-0.01,32.21,2.710706,-14.322729477305316,1152.0155667779227,9.969543620447226,0.033166247903554,-0.5918637935412974,1.2893936141267155
5170197,1745,1,195801.0,229400,0.6,-0.24,9.95,-0.04,-0.01,-0.01,32.21,2.750705,-15.320889371046357,1417.1949070997537,9.970962842173266,0.042426406871192854,-0.632005921638025,1.587396542654675
5210176,1742,1,196173.0,230300,0.57,-0.22,9.99,-0.03,-0.01,-0.01,32.21,2.790684,-16.549289152014257,1283.526307563013,10.008666244810044,0.033166247903554,-0.681407406982014,1.4371826004002133
5250197,1744,1,196153.0,226453,0.56,-0.22,9.96,-0.03,-0.01,-0.01,32.21,2.830705,-17.20219955960057,620.7376192842635,9.978156142294026,0.033166247903554,-0.7076649368440744,0.692354704446616
5290198,1747,1,193752.0,223373,0.57,-0.23,10.01,-0.03,-0.01,-0.01,32.21,2.870706,-17.30285073983447,-351.5879837115608,10.028853374140036,0.033166247903554,-0.7117127377979807,-0.40032422304378346
5330197,1754,1,193070.0,222864,0.57,-0.22,9.97,-0.03,-0.01,-0.01,32.21,2.910705,-5.517654191179848,-1166.2801356064836,9.988703619589481,0.033166247903554,-0.23775774074022332,-1.3158580154530455
5370198,1771,1,193118.0,223957,0.59,-0.23,9.95,-0.03,-0.01,-0.01,32.21,2.950706,-0.8778928106049549,-1432.5847026895133,9.97013039032088,0.033166247903554,-0.05116449366110616,-1.6151254499930054
5410197,1740,1,193691.0,225057,0.58,-0.23,9.96,-0.03,-0.01,-0.01,32.21,2.990705,-12.097770334830336,-1106.8112781031132,9.979524036746444,0.033166247903554,-0.5023845473130498,-1.2490281724090573
5450198,1750,1,194315.0,226742,0.57,-0.23,9.96,-0.03,-0.01,-0.01,32.21,3.030706,-34.3851317369442,-481.9682063479985,9.97894784032866,0.033166247903554,-1.3986959719171592,-0.5468427569560844
5490884,1699,1,194920.0,227522,0.58,-0.23,9.97,-0.03,-0.01,-0.01,32.31,3.071392,-39.01090733930818,75.88665786819503,9.989504492215818,0.033166247903554,-1.584726765120905,0.08006272907550209
5529198,1850,1,195083.0,227703,0.57,-0.22,9.98,-0.04,-0.01,-0.01,32.31,3.109706,48.873556508361084,403.78234711822637,9.998684913527379,0.042426406871192854,1.9496462622937079,0.44854496275786265
5569196,1850,1,195125.0,227963,0.57,-0.23,9.97,-0.03,-0.01,-0.01,32.31,3.149704,128.22073793531283,600.6833875862337,9.988928871505694,0.033166247903554,5.140682829608779,0.6698181834335606
5609197,1855,1,195254.0,228433,0.57,-0.24,9.96,-0.03,-0.01,-0.01,32.31,3.189705,40.129885025729216,842.0260351546594,9.979183333319416,0.033166247903554,1.5980096328394566,0.9410339412931151
5651198,1722,1,195521.0,229277,0.57,-0.24,9.96,-0.03,-0.01,-0.01,32.31,3.231706,7.481209427714406,1136.5002310814796,9.979183333319416,0.033166247903554,0.28500624905089583,1.271957808347038
5689203,1888,1,195747.0,230008,0.57,-0.23,9.96,-0.03,-0.01,-0.01,32.31,3.269711,73.72897666563287,1260.6032275199343,9.97894784032866,0.033166247903554,2.949235071769601,1.4114221283535306
5731198,1719,1,196178.0,230351,0.58,-0.24,9.96,-0.03,-0.01,-0.01,32.31,3.311706,-6.965172454528798,947.66988432815,9.979759516140659,0.033166247903554,-0.29597132346786315,1.0597542624028153
5771200,1725,1,195149.0,224953,0.59,-0.23,9.96,-0.03,-0.01,-0.01,32.31,3.351708,-71.6874424753896,168.72781090458884,9.980110219832245,0.033166247903554,-2.898850551715467,0.184395651312884
5811197,1712,1,193125.0,222835,0.58,-0.23,9.97,-0.03,-0.01,-0.01,32.31,3.391705,-39.206541556379115,-762.736490350865,9.989504492215818,0.033166247903554,-1.592594416236731,-0.8623642103584479
5851199,1738,1,192861.0,222716,0.57,-0.23,9.96,-0.03,-0.01,-0.01,32.31,3.431707,-37.136362163313905,-1383.241084402129,9.97894784032866,0.033166247903554,-1.5093398125397515,-1.5596741364179723
5891197,1760,1,193155.0,223672,0.59,-0.24,9.96,-0.03,-0.01,-0.01,32.31,3.471705,-14.524313661095372,-1414.1902748978532,9.980345685395873,0.033166247903554,-0.5999707292924888,-1.594454181470133
5931199,1753,1,193637.0,224902,0.59,-0.23,9.98,-0.03,-0.01,-0.01,32.31,3.511707,-11.561129080351213,-949.464894682281,10.000069999755002,0.033166247903554,-0.4808029128330751,-1.0722056379092573
5971197,1755,1,194285.0,226314,0.6,-0.24,9.96,-0.03,-0.01,-0.01,32.31,3.551705,-31.681428368366674,-343.8807255665285,9.980941839325586,0.033166247903554,-1.2899634856315998,-0.3916629695111623
6011200,1748,1,194640.0,226745,0.58,-0.22,9.96,-0.04,-0.01,-0.01,32.31,3.591708,-20.471017814551818,83.84397580005488,9.979298572545067,0.042426406871192854,-0.8391241568928589,0.08900499450253115
6051198,1766,1,194747.0,226719,0.59,-0.24,9.98,-0.03,-0.01,-0.01,32.31,3.631706,-23.770901719013757,274.5523597054664,10.000304995348891,0.033166247903554,-0.9718327171424326,0.30331903883824046
6091205,1766,1,194649.0,226847,0.6,-0.24,9.96,-0.03,-0.01,-0.01,32.31,3.671713,-16.143729228781865,401.8144416355692,9.980941839325586,0.033166247903554,-0.6650973563664987,0.44633347223908265
6131196,1783,1,194749.0,227369,0.59,-0.23,9.96,-0.04,-0.01,-0.01,32.31,3.711704,-6.879027097779455,638.7403368695633,9.980110219832245,0.042426406871192854,-0.2925068905976846,0.7125857773324982
6171199,1776,1,195091.0,228016,0.58,-0.22,9.96,-0.03,-0.01,-0.01,32.31,3.751707,-23.41978467749551,937.886929204586,9.979298572545067,0.033166247903554,-0.9577121485381943,1.0487603845504097
6211197,1777,1,195417.0,228759,0.59,-0.22,9.96,-0.03,-0.01,-0.01,32.31,3.791705,-16.48588154114046,1032.7012959390418,9.979884768873838,0.033166247903554,-0.6788573982569953,1.1553107625666632
6251199,1791,1,195797.0,228375,0.59,-0.23,9.96,-0.03,-0.01,-0.01,32.31,3.831707,-22.31865975246118,673.1169590567229,9.980110219832245,0.033166247903554,-0.9134291653524411,0.7512174975571578
6291197,1773,1,194032.0,223478,0.58,-0.22,9.95,-0.04,-0.01,-0.01,32.31,3.871705,-34.39398992950483,-112.451813294976,9.969317930530654,0.042426406871192854,-1.3990522141411796,-0.13158805749402425
6331199,1791,1,192753.0,221505,0.59,-0.23,9.98,-0.04,-0.01,-0.01,32.31,3.911707,-27.30716125752912,-976.2914768442133,10.000069999755002,0.042426406871192854,-1.1140473906315946,-1.1023527829958597
6371197,1803,1,192699.0,221747,0.59,-0.23,9.98,-0.03,-0.01,-0.01,32.31,3.951705,-30.110911347065475,-1484.1775457640158,10.000069999755002,0.033166247903554,-1.2268033688582445,-1.6731043947653463
6411199,1808,1,192939.0,222603,0.59,-0.22,9.98,-0.03,-0.01,-0.01,32.31,3.991707,-9.872030450213327,-1424.6990497028664,9.999844998798732,0.033166247903554,-0.41287390265728346,-1.6062637201141845
6451197,1807,1,193169.0,223778,0.6,-0.25,9.97,-0.03,-0.01,-0.01,32.31,4.031705,-53.930311460674865,-935.5627782877559,9.991166098108868,0.033166247903554,-2.184727461524485,-1.0565827338275249
6491886,1731,1,194034.0,225119,0.59,-0.22,9.95,-0.03,-0.01,-0.01,32.25,4.072394,-93.75794207410256,-357.43657443552627,9.969904713687086,0.033166247903554,-3.7864406338312704,-0.40689674547855503
6530197,1893,1,194429.0,225581,0.58,-0.23,9.95,-0.03,-0.01,-0.01,32.25,4.110705,15.268480398759289,44.855787005606686,9.969543620447226,0.033166247903554,0.5981801511519071,0.04519089335631891
6570199,1901,1,194417.0,225698,0.6,-0.22,9.96,-0.03,-0.01,-0.01,32.25,4.150707,54.46838441582567,259.05541157224457,9.980480950335009,0.033166247903554,2.174648589023995,0.285903896612827
6610197,1898,1,194385.0,226113,0.58,-0.23,9.97,-0.03,-0.01,-0.01,32.25,4.190705,15.11269360773847,463.2767807215844,9.989504492215818,0.033166247903554,0.5919150093042441,0.515403547681544
6650199,1907,1,194785.0,226872,0.57,-0.23,9.95,-0.03,-0.01,-0.01,32.25,4.230707,31.670267283526346,792.4983267549169,9.968966847171274,0.033166247903554,1.2577965455513005,0.885375751147195
6690198,1907,1,195096.0,227589,0.57,-0.22,9.98,-0.03,-0.01,-0.01,32.25,4.270706,19.100355083921606,1149.8244488470589,9.998684913527379,0.033166247903554,0.7522833218231785,1.286931282184283
6730199,1909,1,195437.0,228576,0.6,-0.24,9.96,-0.03,-0.01,-0.01,32.25,4.310707,10.176930836444235,1244.9128221824494,9.980941839325586,0.033166247903554,0.3934177318011717,1.393789583017659
6770197,1922,1,195671.0,228236,0.6,-0.22,9.96,-0.04,-0.01,-0.01,32.25,4.350705,21.682714203308972,843.0967636137466,9.980480950335009,0.042426406871192854,0.8561358120025665,0.9422372032669889
6810199,1936,1,194022.0,223266,0.6,-0.22,10.01,-0.04,-0.01,-0.01,32.25,4.390707,21.923402605049343,9.760071433000771,10.030378856254632,0.042426406871192854,0.8658153680683257,0.005751071209058402
6850197,1956,1,192689.0,221422,0.59,-0.26,9.97,-0.04,-0.01,-0.01,32.25,4.430705,38.523877508929196,-879.2336226087531,9.9908257916951,0.042426406871192854,1.5334222256836054,-0.993281221222969
6890199,1959,1,192594.0,221813,0.59,-0.23,9.96,-0.03,-0.01,-0.01,32.25,4.470707,33.47912432823094,-1388.5309688058696,9.980110219832245,0.033166247903554,1.3305417757018096,-1.565618796518476
6930197,1946,1,192886.0,222736,0.58,-0.24,9.98,-0.03,-0.01,-0.01,32.25,4.510705,12.14845558003523,-1327.852750846853,9.999719996079891,0.033166247903554,0.4727048272849239,-1.4974298997978663
6970199,1951,1,193222.0,223979,0.61,-0.23,9.97,-0.03,-0.01,-0.01,32.25,4.550707,14.235636868959434,-858.33700285389,9.991291207846961,0.033166247903554,0.5566431814368541,-0.9697980423458861
7010197,1968,1,193847.0,225452,0.58,-0.23,9.97,-0.03,-0.01,-0.01,32.25,4.590705,21.134378668187686,-328.07641747737443,9.989504492215818,0.033166247903554,0.8340838788114531,-0.37390242267440593
7050199,1969,1,194167.0,226077,0.59,-0.23,9.95,-0.03,-0.01,-0.01,32.25,4.630707,20.668711265824044,11.460447021103562,9.97013039032088,0.033166247903554,0.8153565379982572,0.007661917296227613
7090197,1978,1,194297.0,226397,0.59,-0.23,10.0,-0.03,-0.01,-0.01,32.25,4.670705,21.548491103244046,175.00848861219876,10.020029940075029,0.033166247903554,0.8507378783547296,0.19145374395213904
7130200,1983,1,194279.0,226717,0.59,-0.23,9.94,-0.03,-0.01,-0.01,32.25,4.710708,23.67329579238655,370.86031678920943,9.960150601271046,0.033166247903554,0.9361893000627375,0.4115478820681432
7170197,1983,1,194559.0,227561,0.57,-0.22,9.99,-0.04,-0.01,-0.01,32.25,4.750705,19.54893037719756,755.8714415012124,10.008666244810044,0.042426406871192854,0.7703232841544863,0.8442152329287895
7210199,1990,1,195068.0,228547,0.6,-0.23,9.96,-0.04,-0.01,-0.01,32.25,4.790707,21.543547602326864,1231.6990198132864,9.980706387826466,0.042426406871192854,0.8505390698789451,1.3789401916652961
7250197,2000,1,195461.0,229692,0.6,-0.22,9.95,-0.03,-0.01,-0.01,32.25,4.830705,30.79024557922302,1471.9783263403178,9.970501491900995,0.033166247903554,1.2224054782447937,1.6489609893745807
7290199,1994,1,195892.0,230181,0.6,-0.22,9.96,-0.03,-0.01,-0.01,32.25,4.870707,19.900521286734765,1180.963780339016,9.980480950335009,0.033166247903554,0.7844629098966011,1.3219250036625254
7330197,1986,1,194547.0,224295,0.57,-0.21,9.94,-0.03,-0.01,-0.01,32.25,4.910705,10.575457979147506,372.23417464241874,9.958544070294613,0.033166247903554,0.4094449512003193,0.4130917944375632
7370199,1993,1,192701.0,222592,0.58,-0.24,9.96,-0.03,-0.01,-0.01,32.25,4.950707,17.99048097016501,-585.5180131114967,9.979759516140659,0.033166247903554,0.7076484801259444,-0.6632098375385168
7410197,2004,1,192551.0,222658,0.6,-0.23,9.97,-0.03,-0.01,-0.01,32.25,4.990705,21.426834910616584,-1214.9608176580607,9.990685662155526,0.033166247903554,0.8458453370907156,-1.3705643353213364
7450200,2004,1,192842.0,223567,0.59,-0.24,9.98,-0.03,-0.01,-0.01,32.25,5.030708,31.524656500128856,-1265.918217965995,10.000304995348891,0.033166247903554,1.2519406433496003,-1.4278291829656
7490197,2000,1,193264.0,224831,0.58,-0.23,9.97,-0.03,-0.01,-0.01,32.25,5.070705,11.923802342462146,-861.4013599666528,9.989504492215818,0.033166247903554,0.46367014346667884,-0.9732417019935438
7530913,1936,1,193591.0,226143,0.58,-0.21,9.96,-0.03,-0.01,-0.01,32.19,5.111421,-34.504202078969534,-352.41998959124663,9.979083124215371,0.033166247903554,-1.4034845202770696,-0.4012592136369343
7571197,1950,1,193915.0,226512,0.58,-0.22,9.97,-0.03,-0.01,-0.01,32.19,5.151705,-38.5203183890295,-26.21256934173063,9.989279253279488,0.033166247903554,-1.564997176095727,-0.034674220914921304
7611199,1938,1,194011.0,226491,0.6,-0.23,9.96,-0.04,-0.01,-0.01,32.19,5.191707,-33.53655600587754,91.02015866059774,9.980706387826466,0.042426406871192854,-1.3645695399598665,0.09706943687386572
7651197,1946,1,194077.0,226730,0.6,-0.23,9.98,-0.04,-0.01,-0.01,32.19,5.231705,-38.253423968525865,195.99986364022772,10.00066497789022,0.042426406871192854,-1.554263715371309,0.21504340679913694
7691199,1947,1,194243.0,227295,0.58,-0.22,9.96,-0.03,-0.01,-0.01,32.19,5.271707,-26.62371356508742,483.40502121372975,9.979298572545067,0.033166247903554,-1.0865617693504361,0.5380232382105824
7731216,1961,1,194493.0,228123,0.59,-0.24,9.94,-0.03,-0.01,-0.01,32.19,5.311724,-17.983010161994002,923.1412733574266,9.960386538684128,0.033166247903554,-0.7390661175738342,1.032189528690425
7771199,1959,1,194893.0,228971,0.6,-0.23,9.96,-0.03,-0.01,-0.01,32.19,5.351707,-14.769721431970536,1231.3393725211542,9.980706387826466,0.033166247903554,-0.6098400801211237,1.3785360276525096
7811197,1961,1,195433.0,229725,0.6,-0.22,9.96,-0.03,-0.01,-0.01,32.19,5.391705,-14.041873336056614,1080.914924542666,9.980480950335009,0.033166247903554,-0.580568846439683,1.2094922176581577
7851199,1955,1,194731.0,224631,0.59,-0.21,9.96,-0.03,-0.01,-0.01,32.19,5.431707,-16.942919914988625,393.6688728018152,9.979669333199373,0.033166247903554,-0.6972377129372131,0.43717965443397466
7891197,1951,1,192627.0,222303,0.59,-0.23,9.96,-0.03,-0.01,-0.01,32.19,5.471705,-20.47240741905237,-539.8794785842163,9.980110219832245,0.033166247903554,-0.8391800414081703,-0.6119222186525658
7931199,1957,1,192184.0,222051,0.6,-0.23,9.98,-0.03,-0.01,-0.01,32.19,5.511707,-13.444165586804397,-1239.080992092344,10.00066497789022,0.033166247903554,-0.556531353864256,-1.397670076701107
7971196,1961,1,192420.0,222923,0.59,-0.24,9.96,-0.03,-0.01,-0.01,32.19,5.551704,-5.650670582414455,-1373.5313962685354,9.980345685395873,0.033166247903554,-0.2431071452288085,-1.5487625944577563
8011199,1950,1,192915.0,224073,0.6,-0.21,9.94,-0.03,-0.01,-0.01,32.19,5.591707,-20.232549139346922,-980.5486843953727,9.960306220192228,0.033166247903554,-0.8295338696381244,-1.1071369427122884
8051197,1940,1,193445.0,225412,0.61,-0.22,9.94,-0.03,-0.01,-0.01,32.19,5.631705,-21.74782630945564,-389.7017061746073,9.961129454032811,0.033166247903554,-0.8904724533720163,-0.443155617440139
8091199,1955,1,193874.0,225966,0.6,-0.22,9.95,-0.03,-0.01,-0.01,32.19,5.671707,-13.89974946825555,58.571879416150736,9.970501491900995,0.033166247903554,-0.5748531744890798,0.06060474762317692
8131196,1949,1,193938.0,225916,0.59,-0.25,9.98,-0.03,-0.01,-0.01,32.19,5.711704,-11.273793319232547,255.4414728506997,10.000549984875832,0.033166247903554,-0.4692473804961,0.281842628788441
8171199,1968,1,194015.0,226123,0.59,-0.23,9.96,-0.03,-0.01,-0.01,32.19,5.751707,4.138363206324926,340.46033400572,9.980110219832245,0.033166247903554,0.1505699106765431,0.37738502501568677
8211197,1963,1,193971.0,226481,0.59,-0.23,9.98,-0.03,-0.01,-0.01,32.19,5.791705,-0.001263539893951526,504.03164378187165,10.000069999755002,0.033166247903554,-0.015909856905132108,0.5612029999653527
8251199,1953,1,194202.0,226978,0.6,-0.24,9.96,-0.03,-0.01,-0.01,32.19,5.831707,-4.366584711452134,760.7490750561375,9.980941839325586,0.033166247903554,-0.19146618084766448,0.8496966142531787
8291197,1972,1,194541.0,227834,0.59,-0.23,9.96,-0.03,-0.01,-0.01,32.19,5.871705,6.7030271582885455,899.0188598476407,9.980110219832245,0.033166247903554,0.2537107697015729,1.0050812710850083
8331199,1962,1,194859.0,228396,0.59,-0.23,9.96,-0.03,-0.01,-0.01,32.19,5.911707,6.701641931378507,661.6486814437795,9.980110219832245,0.033166247903554,0.25365506123601095,0.7383296899712386
8371197,1968,1,193932.0,223665,0.61,-0.26,9.98,-0.03,-0.01,-0.01,32.19,5.951705,5.8498388147152545,4.272801677976746,10.00200479903904,0.033166247903554,0.21939883631984625,-0.0004154063703619842
8411199,1966,1,192360.0,221350,0.61,-0.24,9.98,-0.03,-0.01,-0.01,32.19,5.991707,5.990761219687953,-806.004975843498,10.001504886765792,0.033166247903554,0.22506619008509443,-0.9109884183156944
8451197,1968,1,192035.0,221371,0.6,-0.23,9.99,-0.03,-0.01,-0.01,32.19,6.031705,13.123268627952262,-1356.3914438899285,10.01064433490672,0.033166247903554,0.5119080355937512,-1.5295010788455081
8491199,1960,1,192349.0,222294,0.6,-0.23,9.96,-0.03,-0.01,-0.01,32.19,6.071707,-6.609393310935751,-1384.0444404513278,9.980706387826466,0.033166247903554,-0.28166326316028145,-1.560576930938169
8531884,1925,1,192800.0,223333,0.61,-0.23,9.95,-0.03,-0.01,-0.01,32.03,6.112392,-25.347408252158612,-951.0423608919066,9.97133391277215,0.033166247903554,-1.0352337089030241,-1.0739783610390146
8570199,1984,1,193423.0,224655,0.59,-0.22,9.96,-0.03,-0.01,-0.01,32.03,6.150707,15.732004109591097,-362.51099750130993,9.979884768873838,0.033166247903554,0.616821280987673,-0.412599274689006
8610197,1982,1,193798.0,225198,0.6,-0.22,9.96,-0.03,-0.01,-0.01,32.03,6.190705,29.225944811825567,85.62270522266641,9.980480950335009,0.033166247903554,1.1594953551468514,0.09100389297008815
8650199,1975,1,194078.0,225423,0.61,-0.23,9.96,-0.04,-0.01,-0.01,32.03,6.230707,10.498632836153702,314.63030442156304,9.981312538939957,0.042426406871192854,0.4063553412586211,0.3483577846179215
8690197,1971,1,194083.0,225636,0.59,-0.23,9.96,-0.03,-0.01,-0.01,32.03,6.270705,12.414948456920705,466.8978667342276,9.980110219832245,0.033166247903554,0.48342213947897356,0.5194728474803507
8730199,1975,1,194340.0,226170,0.6,-0.24,9.96,-0.04,-0.01,-0.01,32.03,6.310707,13.965319718690974,718.2024446934986,9.980941839325586,0.042426406871192854,0.5457720717670901,0.8018836118085867
8770196,1983,1,194542.0,226756,0.59,-0.22,9.98,-0.03,-0.01,-0.01,32.03,6.350704,21.249875614715787,1064.729592266351,9.999844998798732,0.033166247903554,0.8387287190333291,1.1913034839065526
8810199,1979,1,194926.0,227677,0.59,-0.22,9.98,-0.03,-0.01,-0.01,32.03,6.390707,17.29971530563716,1274.9923231084936,9.999844998798732,0.033166247903554,0.6798685583276719,1.4275922893436566
8850196,1968,1,195238.0,228347,0.6,-0.23,9.94,-0.04,-0.01,-0.01,32.03,6.430704,6.750983845321343,1066.2791565676832,9.960747963883033,0.042426406871192854,0.2556394020640195,1.193044851462483
8890199,1970,1,194645.0,223858,0.6,-0.22,9.95,-0.04,-0.01,-0.01,32.03,6.470707,5.565728875509226,369.7595779896235,9.970501491900995,0.042426406871192854,0.2079730340564258,0.41031089510896734
8930196,1964,1,192749.0,221219,0.6,-0.21,9.99,-0.04,-0.01,-0.01,32.03,6.510704,3.4126978795973577,-549.5519825875931,10.01020479310988,0.042426406871192854,0.12138645952456856,-0.6227919738744715
8970199,1979,1,192316.0,221097,0.58,-0.23,9.96,-0.03,-0.01,-0.01,32.03,6.550707,13.576994993487762,-1243.8133469332208,9.979524036746444,0.033166247903554,0.5301551541169425,-1.4029881968823517
9010197,1975,1,192498.0,221979,0.6,-0.24,9.94,-0.03,-0.01,-0.01,32.03,6.590705,12.91641712646787,-1393.1150622879536,9.960983887146892,0.033166247903554,0.5035892687091531,-1.5707703037235585
9050199,1963,1,192917.0,222993,0.59,-0.23,9.94,-0.03,-0.01,-0.01,32.03,6.630707,-1.0580013701056825,-1019.3058034824278,9.960150601271046,0.033166247903554,-0.058407762912987174,-1.150691372613321
9090197,1964,1,193553.0,224571,0.59,-0.23,9.97,-0.04,-0.01,-0.01,32.03,6.670705,-0.3843969319275636,-432.11091821770543,9.990090089683877,0.042426406871192854,-0.0313179992254016,-0.4908141920865215
9130199,1963,1,194140.0,225555,0.57,-0.22,9.98,-0.03,-0.01,-0.01,32.03,6.710707,0.5438390240495389,34.234354270414705,9.998684913527379,0.033166247903554,0.006012058696649375,0.033254752115419346
9170197,1957,1,194293.0,225831,0.57,-0.23,9.98,-0.04,-0.01,-0.01,32.03,6.750705,-8.194979548071986,270.6998127388442,9.998909940588524,0.042426406871192854,-0.34542940547740003,0.29898962811962415
9210199,1943,1,194417.0,226222,0.59,-0.23,9.97,-0.03,-0.01,-0.01,32.03,6.790707,-18.945388327238646,430.0773837177693,9.990090089683877,0.033166247903554,-0.7777692430239606,0.4780947681948308
9250197,1946,1,194614.0,226834,0.58,-0.22,9.97,-0.03,-0.01,-0.01,32.03,6.830705,-18.111181790316955,729.1303770797546,9.989279253279488,0.033166247903554,-0.7442206844471061,0.8141641908684318
9290199,1947,1,194989.0,227691,0.59,-0.23,9.97,-0.04,-0.01,-0.01,32.03,6.870707,-14.81748552938735,1188.2129317313897,9.990090089683877,0.042426406871192854,-0.6117609672745277,1.330071446525111
9330197,1943,1,195474.0,228933,0.58,-0.22,9.96,-0.04,-0.01,-0.01,32.03,6.910705,-19.142962485741275,1541.7663476475395,9.979298572545067,0.042426406871192854,-0.7857149110766917,1.7273872902337792
9370213,1951,1,195976.0,230018,0.57,-0.24,9.97,-0.04,-0.01,-0.01,32.03,6.950721,-10.04126027401352,1422.7453317975112,9.989164129195196,0.042426406871192854,-0.4196796712594594,1.5936339924216827
9410197,1957,1,195673.0,225580,0.57,-0.23,9.95,-0.03,-0.01,-0.01,32.03,6.990705,-2.6328595893483606,686.5406698997604,9.968966847171274,0.033166247903554,-0.12174246586732676,0.7663027796084775
9450199,1954,1,193159.0,222320,0.6,-0.23,9.97,-0.03,-0.01,-0.01,32.03,7.030707,-5.756676699546111,-407.26054834804125,9.990685662155526,0.033166247903554,-0.24737030102140103,-0.46288787253547603
9490196,1954,1,192481.0,221736,0.58,-0.23,9.98,-0.03,-0.01,-0.01,32.03,7.070704,-2.0340666747282574,-1336.577484516255,9.999484986738068,0.033166247903554,-0.09766133214033983,-1.5072345707837462
9530199,1950,1,192769.0,222620,0.59,-0.24,9.95,-0.03,-0.01,-0.01,32.03,7.110707,-8.176748676467517,-1679.5948527697715,9.970366091573567,0.033166247903554,-0.3446962303740418,-1.8927102271883647
9570893,1939,1,192991.0,223802,0.6,-0.22,9.95,-0.03,-0.01,-0.01,32.09,7.151401,-12.643651594824323,-1396.4655877884154,9.970501491900995,0.033166247903554,-0.5243377790564671,-1.5745355533468266
9611199,1954,1,193670.0,225389,0.59,-0.25,9.98,-0.03,-0.01,-0.01,32.09,7.191707,-1.3045593334937648,-806.3682516089044,10.000549984875832,0.033166247903554,-0.06832337003330334,-0.9113966599299279
9651197,1949,1,194253.0,226436,0.58,-0.23,9.97,-0.03,-0.01,-0.01,32.09,7.231705,1.384223321044529,-303.0981522967334,9.989504492215818,0.033166247903554,0.03980906287602523,-0.345832377080563
9691199,1955,1,194474.0,226748,0.6,-0.23,9.97,-0.04,-0.01,-0.01,32.09,7.271707,4.764311336954565,-56.108506727646535,9.990685662155526,0.042426406871192854,0.17574312210208753,-0.06827064242075612
9731196,1958,1,194536.0,226999,0.59,-0.22,9.96,-0.03,-0.01,-0.01,32.09,7.311704,13.8957586408719,67.83499146610777,9.979884768873838,0.033166247903554,0.5429745944151457,0.07101443683508787
9771199,1951,1,194736.0,227658,0.59,-0.21,9.98,-0.04,-0.01,-0.01,32.09,7.351707,7.452723486527394,316.27278124508945,9.999629993154747,0.042426406871192854,0.28386065473554106,0.3502035652992375
9811197,1937,1,195081.0,228534,0.61,-0.24,9.97,-0.03,-0.01,-0.01,32.09,7.391705,-2.993157586597501,764.2114134689018,9.991526409913552,0.033166247903554,-0.13623225698121585,0.8535875168600953
9851199,1936,1,195612.0,229580,0.57,-0.23,9.98,-0.03,-0.01,-0.01,32.09,7.431707,-0.5166728103087126,1180.5927821619173,9.998909940588524,0.033166247903554,-0.03663762315276892,1.3215080837655238
9891197,1936,1,196018.0,230633,0.57,-0.2,9.98,-0.03,-0.01,-0.01,32.09,7.471705,1.8229508027667758,1183.1180212449692,9.99826484946263,0.033166247903554,0.05745298433718767,1.3243458939850885
9931199,1927,1,196321.0,228459,0.6,-0.23,9.98,-0.04,-0.01,-0.01,32.09,7.511707,-2.922168695437735,572.4444408771923,10.00066497789022,0.042426406871192854,-0.1333773585022761,0.6380838529701608
9971197,1921,1,193702.0,223557,0.6,-0.2,10.0,-0.04,-0.01,-0.01,32.09,7.551705,-5.4243332175951045,-441.10614411174595,10.019980039900279,0.042426406871192854,-0.234004732330208,-0.5009228365078453
10011199,1922,1,192923.0,222723,0.59,-0.24,9.99,-0.04,-0.01,-0.01,32.09,7.591707,-1.5138939102704003,-1338.540500801474,10.01028471123574,0.042426406871192854,-0.0767419965967766,-1.5094405669259547
10051197,1929,1,193123.0,223695,0.58,-0.23,9.95,-0.04,-0.01,-0.01,32.09,7.631705,11.39839721268289,-1657.02753012773,9.969543620447226,0.042426406871192854,0.44254038243888455,-1.867349547777209
10091199,1935,1,193709.0,225071,0.58,-0.23,9.96,-0.03,-0.01,-0.01,32.09,7.671707,18.80021760404302,-1313.842410986882,9.979524036746444,0.033166247903554,0.7402129538996993,-1.4816853764768703
10131200,1922,1,194286.0,226813,0.61,-0.23,9.96,-0.04,-0.01,-0.01,32.09,7.711708,13.064829309456107,-624.5302451942031,9.981312538939957,0.042426406871192854,0.5095578323611148,-0.7070509580230518
10171199,1921,1,195035.0,228079,0.59,-0.22,9.94,-0.03,-0.01,-0.01,32.09,7.751707,13.694922995519551,-22.074323032419606,9.959924698510527,0.033166247903554,0.534897761983112,-0.03002374732354711
10211199,1914,1,195308.0,228270,0.59,-0.23,9.99,-0.04,-0.01,-0.01,32.09,7.791707,13.437867424218211,275.17243668806896,10.010049949925325,0.042426406871192854,0.5245599816977493,0.3040158682236069
10251199,1905,1,195251.0,228237,0.56,-0.24,9.96,-0.03,-0.01,-0.01,32.09,7.831707,7.353480846461281,381.5522332219322,9.97861713866205,0.033166247903554,0.2798694998162021,0.42356323139611385
10291197,1904,1,195433.0,228784,0.57,-0.25,9.97,-0.03,-0.01,-0.01,32.09,7.871705,12.678551136221254,571.4498583166036,9.989409391951058,0.033166247903554,0.49402321911107955,0.6369661621449307
10331199,1904,1,195782.0,229556,0.57,-0.25,9.96,-0.03,-0.01,-0.01,32.09,7.911707,15.261566374179456,973.9579329534014,9.979428841371634,0.033166247903554,0.5979020958402401,1.0892962149022174
10371199,1886,1,196130.0,230519,0.58,-0.21,9.96,-0.03,-0.01,-0.01,32.09,7.951707,5.806321566391891,1400.1766630567934,9.979083124215371,0.033166247903554,0.21764874100188433,1.568271800293333
10411199,1890,1,196682.0,231596,0.56,-0.21,9.98,-0.03,-0.01,-0.01,32.09,7.991707,8.725967577362761,1465.6606254878545,9.997904780502763,0.033166247903554,0.33506560467713314,1.6418612909089583
10451199,1877,1,196986.0,230879,0.55,-0.25,9.96,-0.04,-0.01,-0.01,32.09,8.031707,9.552670961080436,923.4507351088951,9.978306469536802,0.042426406871192854,0.3683124154689547,1.0325372952550942
10491199,1862,1,194600.0,224410,0.59,-0.23,9.95,-0.03,-0.01,-0.01,32.09,8.071707,-12.42928266282577,-75.89716499927255,9.97013039032088,0.033166247903554,-0.5157166902086745,-0.09050871763968789
10531197,1845,1,193408.0,223362,0.59,-0.22,9.97,-0.03,-0.01,-0.01,32.09,8.111705,-9.90977582912847,-1041.8119836039195,9.989864863950864,0.033166247903554,-0.4143918757244966,-1.1759833413543344
10571886,1872,1,193594.0,223995,0.57,-0.24,9.97,-0.03,-0.01,-0.01,32.21,8.152394,5.865082937966413,-1489.013295579159,9.989164129195196,0.033166247903554,0.22001189596300305,-1.6785387080296914
10611199,1829,1,193950.0,225226,0.58,-0.23,9.95,-0.03,-0.01,-0.01,32.21,8.191707,-15.788068785256106,-1279.5484220113626,9.969543620447226,0.033166247903554,-0.6507940697162601,-1.4431465177060199
10651199,1828,1,194504.0,226698,0.57,-0.23,9.96,-0.03,-0.01,-0.01,32.21,8.231707,-27.23519395155777,-678.757236944886,9.97894784032866,0.033166247903554,-1.11115314409535,-0.7679901033099846
10691200,1825,1,195195.0,227862,0.59,-0.26,9.97,-0.04,-0.01,-0.01,32.21,8.271708,-12.125666907967615,-102.19059789620607,9.9908257916951,0.042426406871192854,-0.5035064395262696,-0.12005672086961569
10731199,1834,1,195411.0,228041,0.58,-0.24,9.97,-0.03,-0.01,-0.01,32.21,8.311707,-9.174854413750387,214.02568425996347,9.989739736349492,0.033166247903554,-0.38483618050760465,0.23530044238600278
10771200,1813,1,195391.0,228024,0.57,-0.22,9.95,-0.03,-0.01,-0.01,32.21,8.351708,-16.988629434179032,348.28631767541447,9.968741144196693,0.033166247903554,-0.6990759729054674,0.38617969977937894
10811199,1809,1,195509.0,228407,0.56,-0.23,9.97,-0.03,-0.01,-0.01,32.21,8.391707,-22.862497469823005,542.4251957691783,9.98836322927836,0.033166247903554,-0.9353002137196018,0.6043488608567864
10851197,1810,1,195817.0,229093,0.58,-0.24,9.96,-0.03,-0.01,-0.01,32.21,8.431705,-12.497371829402757,911.3714679706452,9.979759516140659,0.033166247903554,-0.518454972986686,1.0189628705759268
10891199,1818,1,196145.0,229952,0.6,-0.25,9.98,-0.03,-0.01,-0.01,32.21,8.471707,-3.2136062723230894,1274.7465948856163,10.001144934456255,0.033166247903554,-0.14509784999556277,1.427316145169112
10931198,1808,1,196509.0,230911,0.58,-0.22,9.97,-0.03,-0.01,-0.01,32.21,8.511706,-7.601718244926558,1272.9092626339266,9.989279253279488,0.033166247903554,-0.3215707317568611,1.4252513900829207
10971200,1808,1,196827.0,229259,0.57,-0.23,9.96,-0.03,-0.01,-0.01,32.21,8.551708,-2.2693251651559723,685.7606586982436,9.97894784032866,0.033166247903554,-0.10712251818659281,0.7654262195338709
11011200,1813,1,194239.0,223831,0.59,-0.22,9.97,-0.03,-0.01,-0.01,32.21,8.591708,3.3004344589932395,-321.99638746351224,9.989864863950864,0.033166247903554,0.1168716592017693,-0.3670698136654617
11051199,1803,1,193336.0,222763,0.57,-0.23,9.97,-0.03,-0.01,-0.01,32.21,8.631707,3.315979800108156,-1263.992292302566,9.988928871505694,0.033166247903554,0.11749683266170817,-1.4256648684789117
11091200,1808,1,193320.0,223403,0.59,-0.22,9.98,-0.03,-0.01,-0.01,32.21,8.671708,4.8000930855052175,-1670.1054675984303,9.999844998798732,0.033166247903554,0.17718212555519344,-1.8820462570330823
11131199,1794,1,193816.0,224520,0.59,-0.22,9.95,-0.03,-0.01,-0.01,32.21,8.711707,2.54767818396564,-1415.4017181684942,9.969904713687086,0.033166247903554,0.08659871494980068,-1.5958155757701502
11171199,1793,1,194345.0,226079,0.58,-0.24,9.98,-0.03,-0.01,-0.01,32.21,8.751707,-1.407853022825934,-769.3165195699086,9.999719996079891,0.033166247903554,-0.07247744247676224,-0.8697587078886656
11211204,1781,1,195058.0,227378,0.57,-0.22,9.98,-0.03,-0.01,-0.01,32.21,8.791712,-5.178998978892973,-146.59205750239477,9.998684913527379,0.033166247903554,-0.2241383386810066,-0.1699541411494218
11251199,1781,1,195358.0,227631,0.59,-0.22,9.95,-0.03,-0.01,-0.01,32.21,8.831707,-3.0925308604983743,214.10976758186226,9.969904713687086,0.033166247903554,-0.14022866548784232,0.23539493344302023
11291199,1787,1,195384.0,227688,0.59,-0.22,9.99,-0.03,-0.01,-0.01,32.21,8.871707,5.450067969007216,382.18283513290544,10.009825173298482,0.033166247903554,0.20332159999891608,0.42427188847315944
11331200,1791,1,195463.0,228084,0.58,-0.23,9.96,-0.03,-0.01,-0.01,32.21,8.911708,15.494587646850993,588.730842540503,9.979524036746444,0.033166247903554,0.607273309646262,0.656386166359126
11371199,1785,1,195712.0,228767,0.58,-0.23,9.96,-0.03,-0.01,-0.01,32.21,8.951707,11.065351654694888,944.2874017448414,9.979524036746444,0.033166247903554,0.4291465789664832,1.0559531000864093
11411199,1776,1,196064.0,229609,0.57,-0.2,9.96,-0.03,-0.01,-0.01,32.21,8.991707,4.5923861007420985,1276.2217646370555,9.978301458665198,0.033166247903554,0.16882895444380305,1.4289739097048832
11451199,1771,1,196498.0,230595,0.57,-0.23,9.96,-0.04,-0.01,-0.01,32.21,9.031707,8.788326080793446,1244.9325214971334,9.97894784032866,0.042426406871192854,0.33757342236078397,1.3938117206904455
11491200,1761,1,196705.0,228156,0.58,-0.24,9.98,-0.03,-0.01,-0.01,32.21,9.071708,-9.303607490548018,654.3634476373265,9.999719996079891,0.033166247903554,-0.3900141309883512,0.7301426984556135
11531199,1747,1,194059.0,223429,0.57,-0.23,9.95,-0.03,-0.01,-0.01,32.21,9.111707,-3.2435466618395816,-319.07289676383124,9.968966847171274,0.033166247903554,-0.14630193659408602,-0.36378445671053505
11571886,1789,1,193350.0,222491,0.58,-0.24,9.98,-0.04,-0.01,-0.01,32.19,9.152394,22.389547257906127,-1203.8303460174795,9.999719996079891,0.042426406871192854,0.8845619020494198,-1.35805614693545
11610199,1740,1,193438.0,223249,0.59,-0.25,9.97,-0.03,-0.01,-0.01,32.19,9.190707,-3.347176445474312,-1567.5074709281967,9.990570554277669,0.033166247903554,-0.15046952544972556,-1.7667488004826393
11651199,1745,1,193850.0,224350,0.6,-0.22,9.96,-0.03,-0.01,-0.01,32.19,9.231707,-11.922111595874345,-1320.946461276216,9.980480950335009,0.033166247903554,-0.49532023262289215,-1.4896687577918029
11691199,1745,1,194361.0,225768,0.58,-0.23,9.96,-0.03,-0.01,-0.01,32.19,9.271707,3.448068567034861,-739.3168340916286,9.979524036746444,0.033166247903554,0.12280893169048983,-0.8360456964730884
11731197,1741,1,194961.0,226939,0.58,-0.23,9.96,-0.03,-0.01,-0.01,32.19,9.311705,-3.2830168163934865,-205.76234053873236,9.979524036746444,0.033166247903554,-0.14788927346269348,-0.23644845252849428
11771199,1741,1,195231.0,227110,0.6,-0.23,9.96,-0.04,-0.01,-0.01,32.19,9.351707,1.1377670413872973,89.17019665383003,9.980706387826466,0.042426406871192854,0.02989754508185286,0.09499048873630278
11811197,1733,1,195248.0,227289,0.58,-0.24,9.99,-0.03,-0.01,-0.01,32.19,9.391705,-0.5728871797701974,246.17027316282312,10.009700295213639,0.033166247903554,-0.038898347545673784,0.27142385086025983
11851199,1728,1,195387.0,227754,0.58,-0.22,9.97,-0.04,-0.01,-0.01,32.19,9.431707,-6.901499584902719,489.812546957984,9.989279253279488,0.042426406871192854,-0.29341064706236597,0.545223879987912
11891199,1727,1,195715.0,228660,0.58,-0.21,9.96,-0.03,-0.01,-0.01,32.19,9.471707,1.0507653374542083,892.7253258314158,9.979083124215371,0.033166247903554,0.02639867324196535,0.9980087307983134
11931199,1728,1,196097.0,229673,0.58,-0.25,9.96,-0.03,-0.01,-0.01,32.19,9.511707,0.7200982582186848,1241.8001235946042,9.980005010018782,0.033166247903554,0.013100522980393273,1.3902915982437434
11971200,1722,1,196557.0,230748,0.59,-0.23,9.96,-0.03,-0.01,-0.01,32.19,9.551708,2.1223783330867314,1184.081846238508,9.980110219832245,0.033166247903554,0.06949480083688847,1.3254290201076377
12011200,1725,1,196655.0,227489,0.57,-0.23,9.98,-0.04,-0.01,-0.01,32.19,9.591708,6.408613512593245,545.6792666210155,9.998909940588524,0.042426406871192854,0.24187059223798962,0.6080057167879764
12051199,1718,1,193965.0,223435,0.56,-0.23,9.99,-0.03,-0.01,-0.01,32.19,9.631707,3.8181982384159827,-457.9278907841998,10.008326533442043,0.033166247903554,0.13769411468987344,-0.5198267592842684
12091199,1713,1,193355.0,222856,0.58,-0.23,9.98,-0.03,-0.01,-0.01,32.19,9.671707,3.316515204639869,-1328.9019136674963,9.999484986738068,0.033166247903554,0.11751836455998455,-1.498608926763824
12131199,1709,1,193498.0,223687,0.57,-0.24,9.97,-0.03,-0.01,-0.01,32.19,9.711707,0.8196647768879086,-1637.8094345261552,9.989164129195196,0.033166247903554,0.017104703043755075,-1.8457526588074686
12171199,1699,1,194017.0,224846,0.57,-0.24,9.97,-0.03,-0.01,-0.01,32.19,9.751707,-2.4843130355037313,-1319.7903435181738,9.989164129195196,0.033166247903554,-0.11576849833952949,-1.4883695371315446
12211199,1697,1,194546.0,226471,0.58,-0.23,9.96,-0.03,-0.01,-0.01,32.19,9.791707,-3.8703953999865632,-673.9489657933244,9.979524036746444,0.033166247903554,-0.17151136696867134,-0.7625866699860202
12251199,1695,1,195225.0,227581,0.56,-0.21,9.96,-0.04,-0.01,-0.01,32.19,9.831707,-0.06446173583921298,-92.15030174649073,9.977940669296446,0.042426406871192854,-0.01845144377215058,-0.10877364862020165
12291199,1698,1,195502.0,227809,0.58,-0.24,9.99,-0.03,-0.01,-0.01,32.19,9.871707,6.174965988447094,238.46253793954,10.009700295213639,0.033166247903554,0.2324741930212211,0.2627620611972007
12331199,1692,1,195555.0,227895,0.58,-0.23,9.97,-0.03,-0.01,-0.01,32.19,9.911707,1.8872563995562968,419.8924205175262,9.989504492215818,0.033166247903554,0.06003910658057564,0.46664912217678745
12371199,1686,1,195700.0,228506,0.57,-0.24,9.98,-0.03,-0.01,-0.01,32.19,9.951707,3.363949925284643,667.2515489607008,9.999144963445625,0.033166247903554,0.11942600545428901,0.7446260738681528
12411199,1687,1,196000.0,229267,0.57,-0.23,9.95,-0.03,-0.01,-0.01,32.19,9.991707,2.62562216549335,1040.6161176665478,9.968966847171274,0.033166247903554,0.08973332024748261,1.1642052716589286
12451200,1669,1,196325.0,230093,0.58,-0.22,9.98,-0.03,-0.01,-0.01,32.19,10.031708,-6.988357182150882,1329.9879049369522,9.999259972617974,0.033166247903554,-0.2969037234890715,1.4893951598881328
12491199,1675,1,196792.0,231158,0.58,-0.23,9.95,-0.03,-0.01,-0.01,32.19,10.071707,-1.1030734347423938,1212.5528471746165,9.969543620447226,0.033166247903554,-0.060220386926009534,1.3574241281985835
12531199,1671,1,196686.0,226944,0.59,-0.23,9.99,-0.04,-0.01,-0.01,32.19,10.111707,-1.371861612948459,559.3622196722503,10.010049949925325,0.042426406871192854,-0.07103000725647052,0.6233823297444377
12571886,1671,1,194110.0,223602,0.58,-0.23,9.96,-0.03,-0.01,-0.01,32.25,10.152394,4.152143515128471,-387.03981965070346,9.979524036746444,0.033166247903554,0.15112410136750656,-0.44016424571951496
12610199,1693,1,193587.0,223325,0.58,-0.23,9.98,-0.03,-0.01,-0.01,32.25,10.190707,23.845089432692834,-1147.5649123189055,9.999484986738068,0.033166247903554,0.9430981754429449,-1.2948262437434386
12651242,1670,1,193903.0,224230,0.58,-0.24,9.95,-0.03,-0.01,-0.01,32.25,10.23175,10.154308147925969,-1352.8523054059126,9.969779335572076,0.033166247903554,0.3925079348176553,-1.5255238699444573
12691200,1658,1,194319.0,225455,0.57,-0.25,9.98,-0.03,-0.01,-0.01,32.25,10.271708,-6.134319910911465,-999.3517802313293,9.999389981393865,0.033166247903554,-0.26255764952192145,-1.1282674637314087
12731199,1659,1,194921.0,226991,0.6,-0.23,9.96,-0.03,-0.01,-0.01,32.25,10.311707,2.8772470534466073,-401.91974235962124,9.980706387826466,0.033166247903554,0.09985269946506206,-0.4568859878361731
12771197,1664,1,195441.0,227638,0.6,-0.23,9.98,-0.03,-0.01,-0.01,32.25,10.351705,6.0284511665340235,91.30031908455804,10.00066497789022,0.033166247903554,0.2265819338890088,0.09738427522702128
12811199,1659,1,195529.0,227624,0.59,-0.22,9.97,-0.03,-0.01,-0.01,32.25,10.391707,4.566610911150763,360.2683802145977,9.989864863950864,0.033166247903554,0.16779237606715142,0.399644887988039
12851215,1658,1,195535.0,227647,0.58,-0.22,9.98,-0.04,-0.01,-0.01,32.25,10.431723,5.757246769839323,535.9294506325163,9.999259972617974,0.042426406871192854,0.21567514260158124,0.5970490799939664
12891200,1663,1,195672.0,228155,0.57,-0.24,9.96,-0.04,-0.01,-0.01,32.25,10.471708,9.129237692588125,790.7043317145071,9.979183333319416,0.042426406871192854,0.35128356807604977,0.8833596975015456
12931200,1655,1,195976.0,228926,0.59,-0.22,9.96,-0.03,-0.01,-0.01,32.25,10.511708,7.485894490312164,1103.8973573932687,9.979884768873838,0.033166247903554,0.28519466413761657,1.2353193891333745
12971199,1650,1,196322.0,229660,0.57,-0.24,9.95,-0.03,-0.01,-0.01,32.25,10.551707,-4.380721676361779,1228.1522289738566,9.969202575933542,0.033166247903554,-0.19203471486697377,1.3749543832092397
13011199,1633,1,196598.0,230112,0.58,-0.24,9.96,-0.03,-0.01,-0.01,32.25,10.591707,-11.07926354359271,902.0667430752804,9.979759516140659,0.033166247903554,-0.46142414574049884,1.0085064177293344
13051199,1645,1,195347.0,224722,0.59,-0.23,9.95,-0.03,-0.01,-0.01,32.25,10.631707,-10.425136019402824,122.15805368476238,9.97013039032088,0.033166247903554,-0.4351176681588239,0.13206154408001422
13091199,1635,1,193629.0,222722,0.59,-0.23,9.98,-0.03,-0.01,-0.01,32.25,10.671707,-8.067250489694018,-784.3706853835783,10.000069999755002,0.033166247903554,-0.34029263705459156,-0.8866762607175341
13131199,1646,1,193353.0,222755,0.57,-0.25,9.99,-0.03,-0.01,-0.01,32.25,10.711707,-9.689084812187994,-1372.101594992977,10.0093706095838,0.033166247903554,-0.4055165370864967,-1.5471558140546815
13171199,1634,1,193609.0,223665,0.59,-0.24,9.98,-0.03,-0.01,-0.01,32.25,10.751707,-11.667371919519347,-1397.3831118858884,10.000304995348891,0.033166247903554,-0.48507558866987216,-1.575566647502616
13211199,1649,1,194067.0,224773,0.57,-0.24,9.97,-0.03,-0.01,-0.01,32.25,10.791707,-5.716563079337098,-970.4237307862479,9.989164129195196,0.033166247903554,-0.2457570864543254,-1.0957587342022774
13251199,1649,1,194579.0,226026,0.59,-0.23,9.97,-0.03,-0.01,-0.01,32.25,10.831707,-2.1540652632499104,-422.94646855873145,9.990090089683877,0.033166247903554,-0.10248721098206416,-0.48051537758081064
13291199,1655,1,194986.0,226421,0.59,-0.22,9.95,-0.03,-0.01,-0.01,32.25,10.871707,0.5137944308218612,-25.663544357977067,9.969904713687086,0.033166247903554,0.004803781428125491,-0.03405723826161576
13331199,1654,1,194984.0,226495,0.58,-0.25,10.01,-0.03,-0.01,-0.01,32.25,10.911707,-2.408444560042539,196.74744126769085,10.029905283700339,0.033166247903554,-0.11271736186373683,0.21588351870987488
13371199,1648,1,195073.0,226773,0.6,-0.24,9.98,-0.03,-0.01,-0.01,32.25,10.951707,-10.331522993843777,408.18406383598625,10.000899959503645,0.033166247903554,-0.43135291454862884,0.45349151881630584
13411197,1646,1,195261.0,227364,0.58,-0.24,9.98,-0.03,-0.01,-0.01,32.25,10.991705,-12.547728919129792,731.1329351641189,9.999719996079891,0.033166247903554,-0.5204801402560548,0.8164146232473782
13451199,1654,1,195580.0,228135,0.58,-0.23,9.97,-0.03,-0.01,-0.01,32.25,11.031707,-13.332322138684802,1063.204386502497,9.989504492215818,0.033166247903554,-0.5520334432095115,1.1895894899593449
13491199,1648,1,195919.0,229022,0.59,-0.23,9.98,-0.03,-0.01,-0.01,32.25,11.071707,-10.47585422167286,1121.1644940628519,10.000069999755002,0.033166247903554,-0.4371573579771845,1.2547238317591964
13531199,1648,1,196271.0,227795,0.58,-0.23,9.96,-0.03,-0.01,-0.01,32.25,11.111707,-30.078282494547373,691.0622531498246,9.979524036746444,0.033166247903554,-1.2254911626820157,0.7713840391382237
13571887,1619,1,194185.0,223235,0.58,-0.23,9.99,-0.03,-0.01,-0.01,32.19,11.152395,-41.775862592496935,-136.90922795309578,10.00946552019637,0.033166247903554,-1.6959225651637568,-0.15907278229761154
13610199,1685,1,193206.0,221822,0.59,-0.24,9.96,-0.04,-0.01,-0.01,32.19,11.190707,-0.533694676146361,-976.6469092724304,9.980345685395873,0.042426406871192854,-0.037322176722978245,-1.1027522104338114
13650200,1685,1,193095.0,222394,0.57,-0.22,9.95,-0.03,-0.01,-0.01,32.19,11.230708,16.266606652482018,-1410.1866900134542,9.968741144196693,0.033166247903554,0.6383209263772834,-1.5899550375371507
13690199,1686,1,193391.0,223204,0.6,-0.23,9.96,-0.03,-0.01,-0.01,32.19,11.270707,-2.5001560596777748,-1283.334821671552,9.980706387826466,0.033166247903554,-0.1164056434600877,-1.447401593482075
13730197,1683,1,193854.0,224532,0.59,-0.23,9.99,-0.03,-0.01,-0.01,32.19,11.310705,2.477853616264859,-783.5995141470815,10.010049949925325,0.033166247903554,0.08379064105450693,-0.8858096348084656
13770199,1703,1,194458.0,225760,0.58,-0.23,9.96,-0.03,-0.01,-0.01,32.19,11.350707,12.691140628213025,-252.1890958383598,9.979524036746444,0.033166247903554,0.4945295197582758,-0.2886218572309455
13810199,1701,1,194720.0,225994,0.59,-0.25,9.97,-0.04,-0.01,-0.01,32.19,11.390707,9.268149094768418,92.7633614608122,9.990570554277669,0.042426406871192854,0.35687004709146897,0.09902841127530888
13850199,1701,1,194787.0,226058,0.59,-0.24,9.97,-0.03,-0.01,-0.01,32.19,11.430707,6.536660840242923,287.8620693526379,9.990325320028372,0.033166247903554,0.24702016021921983,0.3182762087591712
13890199,1709,1,194858.0,226466,0.57,-0.22,9.95,-0.03,-0.01,-0.01,32.19,11.470707,9.25601796973889,514.550539373539,9.968741144196693,0.033166247903554,0.35638218018963663,0.5730239121351786
13930199,1711,1,195123.0,227244,0.61,-0.22,9.99,-0.03,-0.01,-0.01,32.19,11.510707,9.390630971927346,859.1008522664877,10.011023923655362,0.033166247903554,0.36179579419198,0.9602222592715396
13970199,1714,1,195466.0,228115,0.61,-0.23,9.95,-0.03,-0.01,-0.01,32.19,11.550707,8.948532625669444,1166.7424095826925,9.97133391277215,0.033166247903554,0.3440163096042729,1.3059433282879547
14010199,1718,1,195821.0,229000,0.58,-0.22,9.96,-0.03,-0.01,-0.01,32.19,11.590707,8.251448498158856,1137.895449753418,9.979298572545067,0.033166247903554,0.31598228367697456,1.2735257255523147
14050199,1711,1,195921.0,226353,0.58,-0.21,9.99,-0.04,-0.01,-0.01,32.19,11.630707,1.0513055695731153,599.6969819939542,10.009025926632422,0.042426406871192854,0.026420399287116147,0.6687096817122012
14090199,1711,1,193727.0,222632,0.6,-0.23,9.98,-0.03,-0.01,-0.01,32.19,11.670707,-5.298569754079589,-288.5784563647096,10.00066497789022,0.033166247903554,-0.22894701252601227,-0.3295154501893983
14130196,1715,1,192923.0,221661,0.58,-0.23,9.99,-0.03,-0.01,-0.01,32.19,11.710704,-1.1624197027934953,-1099.1272668484396,10.00946552019637,0.033166247903554,-0.06260706415989577,-1.2403930432396602
14170198,1727,1,193019.0,222284,0.59,-0.23,9.94,-0.03,-0.01,-0.01,32.19,11.750706,6.644401380345482,-1432.1755272527744,9.960150601271046,0.033166247903554,0.2513530677915708,-1.614665627299873
14210199,1730,1,193365.0,223244,0.6,-0.22,9.96,-0.03,-0.01,-0.01,32.19,11.790707,6.850948274503536,-1194.33310989599,9.980480950335009,0.033166247903554,0.2596595845483189,-1.3473833540486038
14250199,1735,1,193950.0,224810,0.61,-0.23,9.98,-0.04,-0.01,-0.01,32.19,11.830707,11.460521977056517,-628.5121732724813,10.00126991936524,0.042426406871192854,0.4450388000422192,-0.7115257644958128
14290209,1746,1,194519.0,225813,0.6,-0.21,9.97,-0.03,-0.01,-0.01,32.19,11.870717,17.661908523467474,-90.43837142710011,9.990245242235048,0.033166247903554,0.6944345678789255,-0.10684981757063701
14330199,1744,1,194764.0,226093,0.57,-0.24,9.99,-0.04,-0.01,-0.01,32.19,11.910707,15.395221459317236,225.16718105473183,10.009125835955905,0.042426406871192854,0.6032771861258971,0.24782102060675082
14370197,1749,1,194793.0,226316,0.59,-0.23,9.97,-0.03,-0.01,-0.01,32.19,11.950705,19.47762586884164,385.8062879180602,9.990090089683877,0.033166247903554,0.76745569277334,0.4283438480008075
14410199,1763,1,194997.0,226777,0.6,-0.24,9.99,-0.04,-0.01,-0.01,32.19,11.990707,26.460030662061737,585.2470556192503,10.01087908227844,0.042426406871192854,1.0482609919946324,0.6524711603724578
14450197,1748,1,195179.0,227311,0.58,-0.23,9.97,-0.03,-0.01,-0.01,32.19,12.030705,20.481219637570703,903.0437679819241,9.989504492215818,0.033166247903554,0.8078163502932579,1.009604377634775
14490216,1760,1,195484.0,228031,0.58,-0.22,9.96,-0.04,-0.01,-0.01,32.19,12.070724,15.088515230478224,1177.389708852266,9.979298572545067,0.042426406871192854,0.590942648539964,1.3179085377925706
14530200,1759,1,195813.0,228730,0.59,-0.23,9.96,-0.03,-0.01,-0.01,32.19,12.110708,32.705668271220745,1116.4824983272465,9.980110219832245,0.033166247903554,1.299436366325636,1.2494623040743003
14570199,1771,1,195934.0,226199,0.59,-0.24,9.97,-0.03,-0.01,-0.01,32.19,12.150707,21.57251063225288,566.6332086835229,9.990325320028372,0.033166247903554,0.8517038508570728,0.6315533132608164
14610887,1699,1,193747.0,222544,0.58,-0.23,9.97,-0.03,-0.01,-0.01,32.25,12.191395,-30.817689519486564,-299.53312491875676,9.989504492215818,0.033166247903554,-1.2552272517563676,-0.34182607478857435
14651199,1712,1,193038.0,221659,0.57,-0.24,9.930000000000001,-0.04,-0.01,-0.01,32.25,12.231707,-36.16580723925202,-1061.2613345177633,9.949241177094866,0.042426406871192854,-1.4703078494936488,-1.1978401101480844
14691226,1722,1,193155.0,222488,0.58,-0.23,9.96,-0.03,-0.01,-0.01,32.25,12.271734,-15.753886385278339,-1345.4759415098413,9.979524036746444,0.033166247903554,-0.6494193858733555,-1.5172344683634391
14731199,1728,1,193583.0,223548,0.6,-0.22,9.97,-0.04,-0.01,-0.01,32.25,12.311707,-16.388451305457195,-1089.3304126671542,9.990460449849147,0.042426406871192854,-0.6749391312280191,-1.229383545920445
14771197,1734,1,194082.0,224836,0.59,-0.23,9.96,-0.03,-0.01,-0.01,32.25,12.351705,-11.523934854990605,-550.8226778147425,9.980110219832245,0.033166247903554,-0.4793071050288883,-0.6242199542687867
14811199,1735,1,194608.0,225603,0.58,-0.24,9.97,-0.03,-0.01,-0.01,32.25,12.391707,-8.216288270696726,-75.89540628367652,9.989739736349492,0.033166247903554,-0.34628635983766193,-0.09050674123233493
14851198,1744,1,194740.0,225778,0.57,-0.24,9.96,-0.04,-0.01,-0.01,32.25,12.431706,-5.684318811006104,169.5237218168954,9.979183333319416,0.042426406871192854,-0.24446034676578027,0.18529007914586246
14891199,1745,1,194831.0,226012,0.59,-0.23,9.97,-0.04,-0.01,-0.01,32.25,12.471707,-1.3185785852501848,284.7695597530887,9.990090089683877,0.042426406871192854,-0.068887170085134,0.3148009119428806
14931200,1747,1,194940.0,226402,0.59,-0.22,9.97,-0.04,-0.01,-0.01,32.25,12.511708,-4.150651231686081,482.20311724178,9.989864863950864,0.042426406871192854,-0.18278217194338578,0.5366725639724773
14971199,1744,1,195161.0,227129,0.57,-0.23,9.96,-0.03,-0.01,-0.01,32.25,12.551707,-7.597131295712881,837.695083877442,9.97894784032866,0.033166247903554,-0.3213862624107541,0.9361669099385747
15011199,1749,1,195506.0,227919,0.57,-0.24,9.98,-0.03,-0.01,-0.01,32.25,12.591707,-3.956535902477989,1165.321839428405,9.999144963445625,0.033166247903554,-0.17497560461938222,1.3043469216235315
15051199,1756,1,195900.0,228747,0.57,-0.23,9.96,-0.03,-0.01,-0.01,32.25,12.631707,-0.8044580346631777,1141.5932777726491,9.97894784032866,0.033166247903554,-0.04821123116168732,1.2776812663934158
15091200,1744,1,196029.0,226287,0.57,-0.25,9.98,-0.03,-0.01,-0.01,32.25,12.671708,-12.510093754295164,591.9272792764325,9.999389981393865,0.033166247903554,-0.518966599572637,0.659978254291034
15131200,1748,1,193781.0,222379,0.58,-0.24,9.95,-0.03,-0.01,-0.01,32.25,12.711708,-14.298940016417276,-308.80968850128295,9.969779335572076,0.033166247903554,-0.5909070734884202,-0.3522508805480034
15171199,1754,1,192929.0,221241,0.58,-0.23,9.97,-0.04,-0.01,-0.01,32.25,12.751707,-6.559975109235861,-1117.9303396632604,9.989504492215818,0.042426406871192854,-0.27967585433391406,-1.2615235383881156
15211199,1764,1,193074.0,222103,0.6,-0.22,9.96,-0.03,-0.01,-0.01,32.25,12.791707,-5.95916864739204,-1437.5238971748022,9.980480950335009,0.033166247903554,-0.2555137435299176,-1.6206760121876278
15251197,1762,1,193470.0,223157,0.58,-0.23,9.96,-0.03,-0.01,-0.01,32.25,12.831705,-2.1831429946539798,-1192.7923040464032,9.979524036746444,0.033166247903554,-0.10365660480975007,-1.3456518290553194
15291199,1776,1,193991.0,224492,0.57,-0.23,9.97,-0.04,-0.01,-0.01,32.25,12.871707,-3.1732393283543527,-644.8061792176989,9.988928871505694,0.042426406871192854,-0.14347444772722154,-0.7298366234157945
15331199,1770,1,194485.0,225345,0.58,-0.23,9.98,-0.03,-0.01,-0.01,32.25,12.911707,-0.3107816336269044,-147.68395317287124,9.999484986738068,0.033166247903554,-0.02835747681532115,-0.1711811903873228
15371199,1782,1,194728.0,225416,0.59,-0.25,9.96,-0.04,-0.01,-0.01,32.25,12.951707,-3.3967976269468774,128.13331911336934,9.980591164855918,0.042426406871192854,-0.15246509733702826,0.13877642086602512
15411200,1777,1,194668.0,225573,0.59,-0.23,9.96,-0.03,-0.01,-0.01,32.25,12.991708,-6.968169403538465,278.6386016659277,9.980110219832245,0.033166247903554,-0.29609184915898723,0.3079110710433641
15451199,1779,1,194842.0,226048,0.59,-0.23,9.98,-0.03,-0.01,-0.01,32.25,13.031707,-6.203280860734512,504.9201604203178,10.000069999755002,0.033166247903554,-0.26533099204833127,0.5622014961528062
15491200,1797,1,195126.0,226727,0.59,-0.22,9.96,-0.03,-0.01,-0.01,32.25,13.071708,-8.0556411704915,863.2800219624287,9.979884768873838,0.033166247903554,-0.3398257551637588,0.9649187216984174
15531205,1801,1,195457.0,227646,0.58,-0.22,9.96,-0.03,-0.01,-0.01,32.25,13.111713,17.573885706401967,1156.0569213617202,9.979298572545067,0.033166247903554,0.6908946308205096,1.2939352028482574
15571199,1794,1,195797.0,228529,0.57,-0.25,9.97,-0.03,-0.01,-0.01,32.25,13.151707,-30.22619031196139,1074.938707709474,9.989409391951058,0.033166247903554,-1.2314394427024522,1.2027762717038164
15611886,1727,1,195696.0,225041,0.59,-0.22,9.98,-0.04,-0.01,-0.01,32.11,13.192394,-64.48993919952844,485.6768357981399,9.999844998798732,0.042426406871192854,-2.6093948239428655,0.5405762553438369
15650199,1901,1,193453.0,221955,0.58,-0.23,9.96,-0.03,-0.01,-0.01,32.11,13.230707,69.42054813090247,-399.65564872980235,9.979524036746444,0.033166247903554,2.775966749508585,-0.4543416473482276
15690199,1911,1,192860.0,221247,0.57,-0.22,9.96,-0.04,-0.01,-0.01,32.11,13.270707,97.50574570411618,-1135.0842218941148,9.978722363108416,0.042426406871192854,3.905444707574428,-1.2808007080734098
15731197,1831,1,193059.0,222092,0.59,-0.22,9.98,-0.03,-0.01,-0.01,32.11,13.311705,0.38175232747551674,-1356.8681805335798,9.999844998798732,0.033166247903554,-0.0005064409720398287,-1.5300368253926269
15771199,1835,1,193463.0,223051,0.57,-0.23,9.97,-0.03,-0.01,-0.01,32.11,13.351707,-3.911405516229594,-1035.4620633744096,9.988928871505694,0.033166247903554,-0.17316063513683969,-1.1688474354349052
15811199,1839,1,194000.0,224428,0.58,-0.24,9.97,-0.03,-0.01,-0.01,32.11,13.391707,4.473081402790688,-458.07045500956536,9.989739736349492,0.033166247903554,0.1640309811954916,-0.5199869699424995
15851199,1856,1,194490.0,225257,0.59,-0.23,9.96,-0.03,-0.01,-0.01,32.11,13.431707,-0.2664599394377154,23.082020876500657,9.980110219832245,0.033166247903554,-0.026575029797801533,0.020721995953973598
15891200,1846,1,194614.0,225320,0.59,-0.22,9.97,-0.04,-0.01,-0.01,32.11,13.471708,-2.873622931722717,254.82380714003207,9.989864863950864,0.042426406871192854,-0.1314250357553683,0.28114850913942585
15931200,1853,1,194628.0,225413,0.59,-0.24,9.99,-0.04,-0.01,-0.01,32.11,13.511708,-13.231177692935841,350.2883833343264,10.01028471123574,0.042426406871192854,-0.5479658050255026,0.3884295787810272
15971199,1867,1,194744.0,225780,0.59,-0.22,9.95,-0.03,-0.01,-0.01,32.11,13.551707,-0.635952407311432,523.6778476692145,9.969904713687086,0.033166247903554,-0.04143458693806345,0.5832809879631364
16011200,1882,1,194954.0,226293,0.59,-0.23,9.930000000000001,-0.03,-0.01,-0.01,32.11,13.591708,5.47350207788557,844.33577819082,9.95017085280449,0.033166247903554,0.20426402916915845,0.9436295816174614
16051199,1886,1,195229.0,227030,0.58,-0.22,9.96,-0.03,-0.01,-0.01,32.11,13.631707,2.409519603699371,1125.9099657857207,9.979298572545067,0.033166247903554,0.08104251151837985,1.2600566924147258
16091199,1892,1,195568.0,227890,0.59,-0.23,9.97,-0.03,-0.01,-0.01,32.11,13.671707,0.8991720203171825,1058.9587503274959,9.990090089683877,0.033166247903554,0.020302176685371487,1.1848183339104645
16131204,1895,1,195557.0,224800,0.57,-0.23,9.96,-0.04,-0.01,-0.01,32.11,13.711712,-0.919220578129958,488.9678383596661,9.97894784032866,0.042426406871192854,-0.05282653653454068,0.5442746143484923
16171199,1905,1,193448.0,221394,0.59,-0.24,9.96,-0.04,-0.01,-0.01,32.11,13.751707,-2.331077146041053,-400.7453388746548,9.980345685395873,0.042426406871192854,-0.10960594388067173,-0.4555662180631256
16211199,1906,1,192611.0,220605,0.56,-0.25,9.97,-0.03,-0.01,-0.01,32.11,13.791707,-2.4972868708916187,-1178.8448818460024,9.988843776934345,0.033166247903554,-0.11629025579072752,-1.3299780112681157
16251199,1919,1,192832.0,221365,0.59,-0.24,9.96,-0.03,-0.01,-0.01,32.11,13.831707,-1.8593858847922358,-1468.2541063015938,9.980345685395873,0.033166247903554,-0.09063634677515088,-1.655209970613448
16291199,1916,1,193195.0,222402,0.59,-0.23,9.98,-0.03,-0.01,-0.01,32.11,13.871707,-7.732580461293262,-1206.531677568305,10.000069999755002,0.033166247903554,-0.3268335036688096,-1.3610918461422357
16331203,1920,1,193714.0,223780,0.59,-0.23,9.97,-0.04,-0.01,-0.01,32.11,13.911711,-11.380523144363133,-651.4150165040481,9.990090089683877,0.042426406871192854,-0.4735396410236952,-0.7372634948421531
16371199,1921,1,194201.0,224818,0.58,-0.23,9.95,-0.03,-0.01,-0.01,32.11,13.951707,-17.624273006208035,-146.7719907542213,9.969543620447226,0.033166247903554,-0.7246390974632145,-0.17015634632844814
16411199,1936,1,194502.0,225106,0.58,-0.23,9.99,-0.03,-0.01,-0.01,32.11,13.991707,-7.6431833031139655,142.225106497055,10.00946552019637,0.033166247903554,-0.3232382959294294,0.1546124731898417
16451200,1940,1,194580.0,225440,0.59,-0.23,10.0,-0.03,-0.01,-0.01,32.11,14.031708,-7.325099130569299,311.5186039927009,10.020029940075029,0.033166247903554,-0.3104461814797356,0.3448609215539391
16491200,1936,1,194762.0,225976,0.61,-0.24,9.95,-0.04,-0.01,-0.01,32.11,14.071708,-25.54115021028887,565.9948997472219,9.971569585576786,0.042426406871192854,-1.043025260687205,0.6308359951918734
16531199,1946,1,195042.0,226748,0.57,-0.23,9.98,-0.04,-0.01,-0.01,32.11,14.111707,-3.0913171374682635,971.3946868587277,9.998909940588524,0.042426406871192854,-0.14017985424461954,1.0864156932076405
16571199,1955,1,195407.0,227712,0.58,-0.22,9.96,-0.04,-0.01,-0.01,32.11,14.151707,-25.70091180902637,1330.371537531893,9.979298572545067,0.042426406871192854,-1.0494502539189232,1.4898262780764213
16611886,1904,1,195851.0,228668,0.59,-0.23,9.99,-0.03,-0.01,-0.01,32.11,14.192394,-47.918328355400924,1309.3291556161348,10.010049949925325,0.033166247903554,-1.9429487671083379,1.4661792947688628
16650199,2016,1,195980.0,226409,0.58,-0.23,9.98,-0.03,-0.01,-0.01,32.11,14.230707,24.748463303685018,729.9518930447406,9.999484986738068,0.033166247903554,0.9794283765219446,0.8150873931175255
16690199,2002,1,193621.0,222232,0.59,-0.21,9.95,-0.03,-0.01,-0.01,32.11,14.270707,38.78774076753591,-225.08240605214138,9.969689062352947,0.033166247903554,1.5440337848069763,-0.2581599331263436
16730199,2011,1,192811.0,221314,0.58,-0.23,9.99,-0.04,-0.01,-0.01,32.11,14.310707,20.473133080296797,-1093.26441802335,10.00946552019637,0.042426406871192854,0.8074911402542791,-1.233804497852704
16770199,2015,1,192919.0,222155,0.57,-0.23,9.97,-0.03,-0.01,-0.01,32.11,14.350707,35.68866390717005,-1452.351052142449,9.988928871505694,0.033166247903554,1.4194009067575948,-1.6373384550337942
16810199,1999,1,193356.0,223164,0.59,-0.23,9.96,-0.03,-0.01,-0.01,32.11,14.390707,12.677343685299887,-1212.8659583474782,9.980110219832245,0.033166247903554,0.49397466010779767,-1.3682101767784802
16850199,1995,1,193833.0,224654,0.58,-0.23,9.99,-0.03,-0.01,-0.01,32.11,14.430707,4.0612488033727,-644.5925649301287,10.00946552019637,0.033166247903554,0.14746866781873896,-0.7295965682018624
16890199,1994,1,194402.0,225774,0.61,-0.23,9.94,-0.03,-0.01,-0.01,32.11,14.470707,8.244564380619165,-135.10076217075962,9.961355329471989,0.033166247903554,0.3157054311107234,-0.15704046673854605
16930199,1993,1,194641.0,225971,0.6,-0.23,9.97,-0.04,-0.01,-0.01,32.11,14.510707,-1.5046470244220758,107.55652530337025,9.990685662155526,0.042426406871192854,-0.07637012263294896,0.11565265561472847
16970199,1994,1,194610.0,226106,0.58,-0.23,9.99,-0.03,-0.01,-0.01,32.11,14.550707,5.3887749775670875,173.81440568796705,10.00946552019637,0.033166247903554,0.20085663308404667,0.19011185884187964
17010199,1988,1,194755.0,226744,0.6,-0.22,9.95,-0.04,-0.01,-0.01,32.11,14.590707,-4.490218890826724,315.09165937376355,9.970501491900995,0.042426406871192854,-0.19643826908393672,0.3488762455458345
17050199,1979,1,195052.0,227445,0.59,-0.23,9.96,-0.03,-0.01,-0.01,32.11,14.630707,-12.548279020134041,672.7936141264985,9.980110219832245,0.033166247903554,-0.5205022631895819,0.7508541293701242
17090199,1995,1,195366.0,228390,0.6,-0.23,9.96,-0.03,-0.01,-0.01,32.11,14.670707,7.009405120074538,1100.9488132097276,9.980706387826466,0.033166247903554,0.26603210565701085,1.2320058776036944
17130199,1999,1,195763.0,229512,0.6,-0.24,9.99,-0.03,-0.01,-0.01,32.11,14.710707,6.961208455519573,1242.9524795007349,10.01087908227844,0.033166247903554,0.26409382232732387,1.3915865914144658
17170197,1984,1,196302.0,229534,0.59,-0.23,9.96,-0.04,-0.01,-0.01,32.11,14.750705,0.7975922711386886,821.5028028502937,9.980110219832245,0.042426406871192854,0.01621703228202958,0.9179703673278958
17210199,1997,1,194409.0,223442,0.61,-0.23,9.95,-0.03,-0.01,-0.01,32.11,14.790707,8.662974357961769,-91.62642575049352,9.97133391277215,0.033166247903554,0.33253226117347606,-0.10818492786690617
17250199,1986,1,192950.0,221872,0.6,-0.21,9.96,-0.03,-0.01,-0.01,32.11,14.830707,6.54600338760225,-1069.75421884471,9.980265527529816,0.033166247903554,0.24739588131881468,-1.2073842337514078
17290199,1989,1,192835.0,222210,0.59,-0.24,9.97,-0.03,-0.01,-0.01,32.11,14.870707,8.652877258698798,-1617.8225176090705,9.990325320028372,0.033166247903554,0.3321261949163953,-1.8232917847201144
17330199,1990,1,193259.0,223282,0.6,-0.23,9.94,-0.03,-0.01,-0.01,32.11,14.910707,14.251012078497208,-1519.4119322317645,9.960747963883033,0.033166247903554,0.5572615128631612,-1.7127000523287594
17370199,1981,1,193748.0,224697,0.6,-0.23,9.98,-0.03,-0.01,-0.01,32.11,14.950707,10.47946461697617,-959.0293962703637,10.00066497789022,0.033166247903554,0.4055844696633632,-1.08295402230338
17410197,1974,1,194425.0,226221,0.6,-0.23,9.97,-0.03,-0.01,-0.01,32.11,14.990705,4.587709187575253,-336.10588908449296,9.990685662155526,0.033166247903554,0.1686408670956557,-0.38292577287412144
17450199,1959,1,194859.0,226640,0.59,-0.24,9.95,-0.03,-0.01,-0.01,32.11,15.030707,-2.506689286804213,55.8851051231142,9.970366091573567,0.033166247903554,-0.11666838457184645,0.05758540755450186
17492199,1959,1,194877.0,226573,0.57,-0.25,9.98,-0.03,-0.01,-0.01,32.11,15.072707,-0.3228679417050302,220.42231430325396,9.999389981393865,0.033166247903554,-0.028843541352807475,0.2424888398052627
17532199,1955,1,194909.0,226881,0.58,-0.21,9.94,-0.03,-0.01,-0.01,32.11,15.112707,1.7340277532954194,378.6736695094207,9.959121447196033,0.033166247903554,0.05387684341526348,0.42032836243821664
17572199,1946,1,195136.0,227533,0.6,-0.25,9.98,-0.04,-0.01,-0.01,32.11,15.152707,-1.3353015906685073,704.2389060999025,10.001144934456255,0.042426406871192854,-0.06955970464585312,0.7861916827599109
17612886,1943,1,195577.0,228325,0.58,-0.24,9.98,-0.03,-0.01,-0.01,32.13,15.193394,-0.5738747106915906,1108.2044287991102,9.999719996079891,0.033166247903554,-0.03893806221763627,1.2401595847940245
17651200,1929,1,195929.0,229355,0.6,-0.24,9.98,-0.03,-0.01,-0.01,32.13,15.231708,-7.066335514545833,1272.5400024621592,10.000899959503645,0.033166247903554,-0.3000397102456977,1.424836423319515
17691199,1920,1,196356.0,229633,0.58,-0.23,9.96,-0.03,-0.01,-0.01,32.13,15.271707,-11.060925428405099,920.4270470298203,9.979524036746444,0.033166247903554,-0.4606866577152541,1.0291393386064889
17731199,1922,1,194745.0,223721,0.59,-0.23,9.95,-0.04,-0.01,-0.01,32.13,15.311707,-4.094393731638788,94.34794123457685,9.97013039032088,0.042426406871192854,-0.18051971300523295,0.10080912847784414
17771227,1917,1,193181.0,222243,0.59,-0.24,9.96,-0.04,-0.01,-0.01,32.13,15.351735,0.1674059718926939,-815.0815565105606,9.980345685395873,0.042426406871192854,-0.009126621883761258,-0.9211884875085744
17811200,1915,1,193072.0,222601,0.59,-0.23,9.98,-0.03,-0.01,-0.01,32.13,15.391708,-0.8616816547063738,-1334.3168041228791,10.000069999755002,0.033166247903554,-0.05051254370723865,-1.5046940660186536
17851199,1904,1,193482.0,223685,0.61,-0.22,9.95,-0.03,-0.01,-0.01,32.13,15.431707,0.7767845950723913,-1244.7759687721853,9.971108263377747,0.033166247903554,0.015380228075322773,-1.4040699709252626
17891199,1904,1,193940.0,224969,0.58,-0.22,9.95,-0.03,-0.01,-0.01,32.13,15.471707,0.3389845203863677,-709.8430653275501,9.969317930530654,0.033166247903554,-0.0022263966638622406,-0.8029236991267203
17931199,1881,1,194550.0,226252,0.59,-0.23,9.97,-0.04,-0.01,-0.01,32.13,15.511707,-10.653393783233042,-102.74927912952732,9.990090089683877,0.042426406871192854,-0.4442973120737921,-0.12068455501175243
17971199,1872,1,194936.0,226542,0.6,-0.22,9.95,-0.04,-0.01,-0.01,32.13,15.551707,-17.42334191596185,297.8442779440848,9.970501491900995,0.042426406871192854,-0.7165584266069177,0.3294940034403779
18011199,1866,1,194958.0,226525,0.58,-0.23,9.98,-0.04,-0.01,-0.01,32.13,15.591707,-15.514854660844934,487.29062962500325,9.999484986738068,0.042426406871192854,-0.639806454957623,0.5423898026807522
18051199,1861,1,194967.0,226688,0.58,-0.24,9.97,-0.04,-0.01,-0.01,32.13,15.631707,-13.900020258262254,656.9955025747983,9.989739736349492,0.042426406871192854,-0.5748640646152056,0.7331005460709712
18091199,1858,1,195169.0,227316,0.59,-0.22,9.96,-0.03,-0.01,-0.01,32.13,15.671707,-12.970989045000001,946.5785939016076,9.979884768873838,0.033166247903554,-0.5375020245227523,1.0585278933252338
18131200,1851,1,195390.0,227986,0.59,-0.24,9.96,-0.03,-0.01,-0.01,32.13,15.711708,-11.055823679766936,1254.8920765676235,9.980345685395873,0.033166247903554,-0.46048148512854264,1.4050040578243999
18171200,1856,1,195751.0,228887,0.59,-0.24,9.95,-0.03,-0.01,-0.01,32.13,15.751708,-2.8973951264208644,1290.466548675226,9.970366091573567,0.033166247903554,-0.13238106142890727,1.44498189642991
18211200,1857,1,196094.0,228148,0.58,-0.22,9.96,-0.03,-0.01,-0.01,32.13,15.791708,5.644422857788469,833.0481828671404,9.979298572545067,0.033166247903554,0.2111378014818685,0.9309448209629826
18251199,1855,1,193941.0,222944,0.59,-0.23,9.95,-0.03,-0.01,-0.01,32.13,15.831707,9.110515853255563,-23.985202635173287,9.97013039032088,0.033166247903554,0.3505306481506886,-0.03217115336578946
18291199,1849,1,192880.0,221456,0.59,-0.24,9.95,-0.03,-0.01,-0.01,32.13,15.871707,7.3219681980251545,-883.6501408834123,9.970366091573567,0.033166247903554,0.27860218304849566,-0.9982444109576911
18331199,1830,1,192800.0,221972,0.57,-0.22,9.98,-0.03,-0.01,-0.01,32.13,15.911707,-3.5068831102708033,-1318.282379113016,9.998684913527379,0.033166247903554,-0.15689230945092802,-1.486674918658222
18371199,1821,1,193192.0,222946,0.6,-0.22,9.96,-0.04,-0.01,-0.01,32.13,15.951707,-10.591914680049738,-1173.1244993057928,9.980480950335009,0.042426406871192854,-0.4418248604648554,-1.3235495664759467
18411199,1815,1,193586.0,224141,0.57,-0.22,9.98,-0.03,-0.01,-0.01,32.13,15.991707,-7.920736892757273,-645.9561980022959,9.998684913527379,0.033166247903554,-0.3344004271861865,-0.7311289901788166
18451197,1806,1,194180.0,225227,0.59,-0.23,9.96,-0.03,-0.01,-0.01,32.13,16.031705,-14.435958911622732,-96.0714535662669,9.980110219832245,0.033166247903554,-0.59641744319722,-0.1131801560203554
18491199,1792,1,194428.0,225469,0.6,-0.23,9.99,-0.03,-0.01,-0.01,32.13,16.071707,-22.25639017578475,237.60677985624164,10.01064433490672,0.033166247903554,-0.9109249239587044,0.26180037838048925
18531197,1796,1,194431.0,225436,0.58,-0.22,9.97,-0.03,-0.01,-0.01,32.13,16.111705,-12.645702828199829,376.90100461709716,9.989279253279488,0.033166247903554,-0.5244202717246579,0.4183362791614048
18571199,1795,1,194473.0,225634,0.59,-0.22,9.97,-0.04,-0.01,-0.01,32.13,16.151707,-11.5197794104075,506.81979242501035,9.989864863950864,0.042426406871192854,-0.4791399891291213,0.5643362623824709
18611197,1786,1,194664.0,226109,0.59,-0.24,9.95,-0.03,-0.01,-0.01,32.13,16.191705,-11.512279137992945,742.0493900926288,9.970366091573567,0.033166247903554,-0.47883835719829204,0.8286823041831981
18651886,1817,1,194725.0,226611,0.59,-0.23,9.97,-0.03,-0.01,-0.01,32.19,16.232394,18.606994674083474,968.792572794303,9.990090089683877,0.033166247903554,0.7324422754199312,1.0834914925115333
18692197,1825,1,195003.0,227393,0.61,-0.24,9.96,-0.03,-0.01,-0.01,32.19,16.272705,37.17363710966161,911.9677622551558,9.981547976140776,0.033166247903554,1.479120782188784,1.0196329734686822
18732199,1818,1,195326.0,226431,0.61,-0.23,9.94,-0.03,-0.01,-0.01,32.19,16.312707,28.274110211427086,384.8658917866455,9.961355329471989,0.033166247903554,1.121216251071762,0.42728705073749945
18772199,1803,1,193205.0,221684,0.59,-0.23,10.0,-0.03,-0.01,-0.01,32.19,16.352707,23.935795691587217,-496.3023639910138,10.020029940075029,0.033166247903554,0.9467460301469307,-0.5629511798461022
18812199,1799,1,192095.0,220318,0.62,-0.22,9.930000000000001,-0.03,-0.01,-0.01,32.19,16.392707,17.867786732814782,-1341.1965314956108,9.951768687022424,0.033166247903554,0.7027141927203627,-1.5124253579890605
18852200,1781,1,192246.0,220949,0.6,-0.22,9.95,-0.04,-0.01,-0.01,32.19,16.432708,10.1458544165682,-1753.0412340446057,9.970501491900995,0.042426406871192854,0.39216795845796903,-1.9752477155278356
18892178,1783,1,192548.0,221676,0.57,-0.24,9.95,-0.04,-0.01,-0.01,32.19,16.472686,10.648866963756438,-1608.373534687652,9.969202575933542,0.042426406871192854,0.4123971764721423,-1.8126732177579372
18932197,1776,1,192882.0,223085,0.62,-0.23,9.94,-0.03,-0.01,-0.01,32.19,16.512705,12.166614044922833,-1112.4791960120283,9.961972696208315,0.033166247903554,0.4734350904703401,-1.255397658559309
18972199,1770,1,193601.0,224205,0.59,-0.22,9.99,-0.03,-0.01,-0.01,32.19,16.552707,7.362292227721831,-599.2804511556928,10.009825173298482,0.033166247903554,0.28022385947089073,-0.6786757740472872
19012199,1759,1,193840.0,224565,0.6,-0.23,9.96,-0.03,-0.01,-0.01,32.19,16.592707,0.7208386410288277,-258.8866040672067,9.980706387826466,0.033166247903554,0.013130298311772277,-0.2961483751852259
19052199,1757,1,194058.0,225147,0.6,-0.21,9.96,-0.04,-0.01,-0.01,32.19,16.632707,4.57257219354297,-20.011340167011618,9.980265527529816,0.042426406871192854,0.1680321157750973,-0.02770541085491999
19092196,1759,1,194285.0,225883,0.61,-0.25,9.96,-0.04,-0.01,-0.01,32.19,16.672704,6.104648439385785,324.0082539320258,9.98179342603322,0.042426406871192854,0.22964629332342046,0.3588965257367189
19132178,1749,1,194698.0,226871,0.59,-0.23,9.96,-0.04,-0.01,-0.01,32.19,16.712686,5.431387451662953,859.1941465588229,9.980110219832245,0.042426406871192854,0.20257034188401024,0.9603271014221275
19172176,1758,1,195262.0,228323,0.59,-0.22,9.98,-0.04,-0.01,-0.01,32.19,16.752684,12.23048720901184,1392.9517986575925,9.999844998798732,0.042426406871192854,0.47600382194400664,1.5601526506394938
19212199,1743,1,195854.0,229352,0.59,-0.24,9.97,-0.03,-0.01,-0.01,32.19,16.792707,5.619952680842665,1554.2847495045937,9.990325320028372,0.033166247903554,0.21015370566348562,1.7414552052129948
19252200,1731,1,196149.0,228639,0.6,-0.22,9.96,-0.03,-0.01,-0.01,32.19,16.832708,-5.6563013519649665,1096.008567742773,9.980480950335009,0.033166247903554,-0.24333359298932974,1.2264541343381266
19292199,1726,1,194063.0,223059,0.59,-0.23,9.930000000000001,-0.03,-0.01,-0.01,32.19,16.872707,-6.909125293892887,146.74163137246114,9.95017085280449,0.033166247903554,-0.293717323566833,0.15968804822523822
19332197,1717,1,192873.0,221653,0.6,-0.23,9.97,-0.03,-0.01,-0.01,32.19,16.912705,-10.43323748254543,-825.0039421772132,9.990685662155526,0.033166247903554,-0.4354434776541569,-0.9323390544534115
19372199,1715,1,192843.0,222205,0.59,-0.23,9.96,-0.03,-0.01,-0.01,32.19,16.952707,-12.937318849921551,-1328.2934865324726,9.980110219832245,0.033166247903554,-0.5361479395786906,-1.4979251892305272
19412199,1710,1,193207.0,223451,0.59,-0.22,9.97,-0.03,-0.01,-0.01,32.19,16.992707,-10.077793202879304,-1188.1588691950253,9.989864863950864,0.033166247903554,-0.4211488842778091,-1.340444873064033
19452199,1711,1,193797.0,224869,0.58,-0.21,9.97,-0.04,-0.01,-0.01,32.19,17.032707,-10.206990181824933,-628.0378606025758,9.98906402021731,0.042426406871192854,-0.4263446867850687,-0.7109927419590716
19492200,1701,1,194455.0,226166,0.57,-0.22,9.98,-0.04,-0.01,-0.01,32.19,17.072708,-13.926883258714076,-48.96518864933975,9.998684913527379,0.042426406871192854,-0.5759443905348915,-0.06024313279591643
19532199,1699,1,194814.0,226523,0.59,-0.22,9.99,-0.03,-0.01,-0.01,32.19,17.112707,-14.328049419016915,290.9756086071164,10.009825173298482,0.033166247903554,-0.592077741009026,0.3217751382564513
19572197,1697,1,194850.0,226590,0.57,-0.23,9.97,-0.03,-0.01,-0.01,32.19,17.152705,-13.60310043486152,432.2470465979724,9.988928871505694,0.033166247903554,-0.5629230983830938,0.48053298940555655
19612199,1698,1,194874.0,226881,0.58,-0.23,9.930000000000001,-0.03,-0.01,-0.01,32.19,17.192707,-8.124004303020596,593.8814013004643,9.949582905830779,0.033166247903554,-0.3425750557921294,0.6621742552508211
19652884,1706,1,195135.0,227531,0.59,-0.23,9.96,-0.03,-0.01,-0.01,32.19,17.233392,0.7251960329199336,900.0712264960137,9.980110219832245,0.033166247903554,0.013305535750740944,1.0062638984447405
19691199,1703,1,195513.0,228352,0.58,-0.24,9.96,-0.03,-0.01,-0.01,32.19,17.271707,2.0820985094489424,1204.964290200336,9.979759516140659,0.033166247903554,0.06787490221110656,1.3488962685286245
19731200,1701,1,195922.0,229281,0.56,-0.23,9.97,-0.03,-0.01,-0.01,32.19,17.311708,2.50354767032208,1187.1667686351705,9.98836322927836,0.033166247903554,0.08482395647396695,1.3288957905859533
19771199,1693,1,196240.0,227586,0.59,-0.23,9.98,-0.03,-0.01,-0.01,32.19,17.351707,-4.082182247715159,646.8378014923408,10.000069999755002,0.033166247903554,-0.18002861437966483,0.7216855366437275
19811222,1678,1,193847.0,222895,0.58,-0.21,9.96,-0.03,-0.01,-0.01,32.19,17.39173,-13.710537256924558,-261.7559434687442,9.979083124215371,0.033166247903554,-0.567243791591269,-0.2993728780577389
19851199,1682,1,193006.0,221949,0.59,-0.24,9.94,-0.03,-0.01,-0.01,32.19,17.431707,-10.810051240625175,-1092.6628443098616,9.960386538684128,0.033166247903554,-0.45059746875347345,-1.2331284620494347
19891199,1678,1,193145.0,222839,0.58,-0.24,9.98,-0.03,-0.01,-0.01,32.19,17.471707,-8.36675235404864,-1429.3271814704872,9.999719996079891,0.033166247903554,-0.3523374429814976,-1.6114647166122165
19931199,1682,1,193606.0,224070,0.58,-0.26,9.94,-0.03,-0.01,-0.01,32.19,17.511707,-5.4485623720861005,-1183.3857760949543,9.96030120026498,0.033166247903554,-0.2349791351582035,-1.3350809720895775
19971199,1681,1,194241.0,225622,0.59,-0.24,9.96,-0.03,-0.01,-0.01,32.19,17.551707,-1.0708871228166765,-614.9581142715559,9.980345685395873,0.033166247903554,-0.058925978019796175,-0.6962939999442666
20011199,1680,1,194821.0,226583,0.59,-0.22,9.97,-0.04,-0.01,-0.01,32.19,17.591707,-2.125834793563294,-79.40174279858759,9.989864863950864,0.042426406871192854,-0.10135189074179317,-0.09444708797495785
20051198,1676,1,195034.0,226910,0.58,-0.24,9.930000000000001,-0.03,-0.01,-0.01,32.19,17.631706,-1.420886064011191,258.68673727353337,9.949819093832813,0.033166247903554,-0.07300158095600698,0.2854895882411583
20091199,1678,1,195120.0,227109,0.59,-0.24,9.99,-0.04,-0.01,-0.01,32.19,17.671707,0.13489041566415005,497.8199894904027,10.01028471123574,0.042426406871192854,-0.010434271721675088,0.5542224743798585
20131176,1671,1,195338.0,227879,0.57,-0.24,9.98,-0.04,-0.01,-0.01,32.19,17.711684,-1.1604401221192913,815.5910308758245,9.999144963445625,0.042426406871192854,-0.06252745308605882,0.9113268431414215
20171199,1667,1,195750.0,228785,0.58,-0.21,9.96,-0.03,-0.01,-0.01,32.19,17.751707,-7.018908742592243,1213.2977483269626,9.979083124215371,0.033166247903554,-0.29813238901699163,1.3582612323432486
20211200,1666,1,196080.0,229513,0.56,-0.22,9.98,-0.03,-0.01,-0.01,32.19,17.791708,-1.607704436820579,1438.1313827979545,9.99811982324677,0.033166247903554,-0.0805146929325159,1.6109245107970886
20251230,1678,1,196414.0,230127,0.58,-0.21,9.96,-0.03,-0.01,-0.01,32.19,17.831738,8.843356877815342,1176.8147154220298,9.979083124215371,0.033166247903554,0.3397865480505355,1.3172623723488872
20291200,1661,1,195849.0,225146,0.59,-0.24,9.98,-0.03,-0.01,-0.01,32.19,17.871708,-3.7405209920968168,362.811779135687,10.000304995348891,0.033166247903554,-0.1662883208908959,0.40250310584912724
20331199,1660,1,193409.0,222176,0.59,-0.22,9.95,-0.03,-0.01,-0.01,32.19,17.911707,-3.354314782419936,-688.1398851556853,9.969904713687086,0.033166247903554,-0.1507566017366668,-0.7785341247287437
20371199,1682,1,192864.0,221915,0.58,-0.23,9.98,-0.04,-0.01,-0.01,32.19,17.951707,19.52543977075776,-1463.9133000467993,9.999484986738068,0.042426406871192854,0.7693785828709653,-1.6503318644437468
20411199,1679,1,193257.0,222968,0.6,-0.23,9.95,-0.04,-0.01,-0.01,32.19,17.991707,20.465880974312622,-1619.2626964974086,9.97072715502736,0.042426406871192854,0.8071994886168878,-1.8249102272647262
20451196,1674,1,193749.0,224228,0.57,-0.24,9.97,-0.04,-0.01,-0.01,32.19,18.031704,15.034026783910782,-1204.439693331224,9.989164129195196,0.042426406871192854,0.5887513340866211,-1.358740918546112
20491200,1680,1,194352.0,225778,0.56,-0.24,9.95,-0.04,-0.01,-0.01,32.19,18.071708,23.901871166391093,-573.9753924076846,9.96863581439306,0.042426406871192854,0.9453817170297812,-0.6502384847610008
20531199,1680,1,194887.0,226593,0.58,-0.24,9.97,-0.03,-0.01,-0.01,32.19,18.111707,26.04352036713057,-78.31574196820057,9.989739736349492,0.033166247903554,1.0315105598067906,-0.09322666323354942
20571199,1680,1,194988.0,226625,0.57,-0.23,9.96,-0.04,-0.01,-0.01,32.19,18.151707,24.468157685224142,186.27138385918914,9.97894784032866,0.042426406871192854,0.9681555693163606,0.2041107471833612
20611200,1682,1,195021.0,226858,0.58,-0.22,9.97,-0.03,-0.01,-0.01,32.19,18.191708,33.05535949829075,370.5616999806737,9.989279253279488,0.033166247903554,1.3134995941905974,0.4112123028207429
20651199,1680,1,195224.0,227425,0.57,-0.23,9.97,-0.04,-0.01,-0.01,32.19,18.231707,24.8521996606368,642.3675179739275,9.988928871505694,0.042426406871192854,0.9836002513439625,0.7166619266663414
20691884,1643,1,195510.0,228247,0.57,-0.24,9.96,-0.03,-0.01,-0.01,32.31,18.272392,-2.9365309605123615,957.93274055926,9.979183333319416,0.033166247903554,-0.13395495322232043,1.0712874429598696
20732199,1648,1,195905.0,229158,0.57,-0.25,9.96,-0.03,-0.01,-0.01,32.31,18.312707,-5.569210183370298,1054.2283961551227,9.979428841371634,0.033166247903554,-0.2398311232269773,1.1795024620381278
20772199,1654,1,196329.0,229186,0.61,-0.23,9.96,-0.03,-0.01,-0.01,32.31,18.352707,8.106711616677615,682.9081270767485,9.981312538939957,0.033166247903554,0.3101615264283887,0.7622206048887313
20812200,1654,1,194623.0,223784,0.56,-0.22,9.95,-0.03,-0.01,-0.01,32.31,18.392708,3.0106835093121243,-122.74805578245974,9.968174356420537,0.033166247903554,0.10521899732747303,-0.14315875681916906
20852200,1642,1,193260.0,222022,0.6,-0.25,9.95,-0.04,-0.01,-0.01,32.31,18.432708,-6.14488206576239,-1004.4953310549671,9.97120855262791,0.042426406871192854,-0.26298241851500753,-1.134047677252629
20892199,1643,1,193119.0,222428,0.6,-0.23,9.96,-0.03,-0.01,-0.01,32.31,18.472707,-5.880373131951491,-1518.2019179668314,9.980706387826466,0.033166247903554,-0.25234489283365547,-1.7113402639151032
20932197,1645,1,193501.0,223437,0.58,-0.24,9.99,-0.04,-0.01,-0.01,32.31,18.512705,-6.2744052981138,-1451.7393490247525,10.009700295213639,0.042426406871192854,-0.2681913416716631,-1.6366510360205258
20972199,1644,1,193955.0,224687,0.57,-0.23,9.97,-0.03,-0.01,-0.01,32.31,18.552707,-4.9238762658308435,-949.4628468897486,9.988928871505694,0.033166247903554,-0.2138782904739589,-1.0722033366433632
21012200,1651,1,194598.0,226153,0.58,-0.22,9.98,-0.03,-0.01,-0.01,32.31,18.592708,-3.0530802384070035,-353.8463789713699,9.999259972617974,0.033166247903554,-0.13864211413928829,-0.40286215982415247
21052199,1647,1,195089.0,226870,0.57,-0.23,9.97,-0.03,-0.01,-0.01,32.31,18.632707,-5.141276668341845,79.89874320238057,9.988928871505694,0.033166247903554,-0.22262129333412078,0.0845714256339909
21092200,1650,1,195200.0,227026,0.59,-0.22,9.94,-0.03,-0.01,-0.01,32.31,18.672708,-6.321106901878222,349.83196291235595,9.959924698510527,0.033166247903554,-0.27006949944216596,0.3879166631737175
21132199,1648,1,195319.0,227472,0.57,-0.23,9.97,-0.03,-0.01,-0.01,32.31,18.712707,-10.032762721950705,625.9449088634799,9.988928871505694,0.033166247903554,-0.41933793260060015,0.6982065462319387
21172200,1653,1,195652.0,228324,0.58,-0.23,9.98,-0.04,-0.01,-0.01,32.31,18.752708,-6.446767792718805,1009.2819651006953,9.999484986738068,0.042426406871192854,-0.27512309417032704,1.12899261438241
21212200,1663,1,195978.0,229179,0.57,-0.23,9.98,-0.03,-0.01,-0.01,32.31,18.792708,-1.8950732521843694,1359.522649219934,9.998909940588524,0.033166247903554,-0.09207155458331161,1.5225856802317284
21252239,1654,1,196378.0,230231,0.59,-0.22,9.97,-0.03,-0.01,-0.01,32.31,18.832747,-11.024587211372344,1366.8974293134215,9.989864863950864,0.033166247903554,-0.45922527525330353,1.5308733019689336
21292199,1663,1,196724.0,228860,0.59,-0.23,9.96,-0.03,-0.01,-0.01,32.31,18.872707,-8.771466702296657,827.805639536675,9.980110219832245,0.033166247903554,-0.36861348784347475,0.9250533617583652
21332200,1662,1,194378.0,223655,0.58,-0.22,9.97,-0.03,-0.01,-0.01,32.31,18.912708,-11.037517405336684,-119.71124269957066,9.989279253279488,0.033166247903554,-0.4597452776153367,-0.1397460505691473
21372200,1654,1,193333.0,222344,0.56,-0.24,9.98,-0.03,-0.01,-0.01,32.31,18.952708,-25.198141197441814,-1034.2899607720751,9.998579899165682,0.033166247903554,-1.0292307656184512,-1.1675302513450474
21412197,1662,1,193392.0,222930,0.58,-0.23,9.97,-0.03,-0.01,-0.01,32.31,18.992705,-20.764794368700763,-1474.4498470418037,9.989504492215818,0.033166247903554,-0.8509387129999606,-1.6621726128869438
21452245,1662,1,193724.0,223876,0.59,-0.24,9.94,-0.04,-0.01,-0.01,32.31,19.032753,-24.941286493945263,-1309.2938407648867,9.960386538684128,0.042426406871192854,-1.0189010634588485,-1.4765737895594107
21492200,1664,1,194235.0,225292,0.57,-0.22,9.94,-0.03,-0.01,-0.01,32.31,19.072708,-31.152121840647574,-774.0449307415305,9.958759962967276,0.033166247903554,-1.2686768254768823,-0.8750723962578936
21532199,1665,1,194874.0,226526,0.58,-0.23,9.97,-0.04,-0.01,-0.01,32.31,19.112707,-28.135657182500424,-241.81230844543313,9.989504492215818,0.042426406871192854,-1.1473662904955908,-0.2769606432462844
21572200,1682,1,195145.0,226853,0.57,-0.23,9.99,-0.03,-0.01,-0.01,32.31,19.152708,-29.164018524796564,77.26833999429353,10.008891047463749,0.033166247903554,-1.188723003975089,0.08161543419714687
21612199,1680,1,195142.0,226987,0.58,-0.23,9.98,-0.03,-0.01,-0.01,32.31,19.192707,-18.12490424212859,256.9832984525586,9.999484986738068,0.033166247903554,-0.7447725483537586,0.2835752997577394
21652200,1689,1,195286.0,227466,0.58,-0.23,9.96,-0.04,-0.01,-0.01,32.31,19.232708,-38.53439151968908,510.3592692565972,9.979524036746444,0.042426406871192854,-1.5655631429485342,0.5683138515113587
21692886,1661,1,195662.0,228439,0.58,-0.23,9.97,-0.04,-0.01,-0.01,32.13,19.273394,-45.72285129788865,920.8034908151133,9.989504492215818,0.042426406871192854,-1.8546551762430765,1.02956237816269
21731197,1751,1,196109.0,229443,0.57,-0.23,9.98,-0.03,-0.01,-0.01,32.13,19.311705,12.578905260158395,1297.5874049068489,9.998909940588524,0.033166247903554,0.49001584760045497,1.4529841639069871
21771200,1753,1,196502.0,230333,0.57,-0.23,9.96,-0.03,-0.01,-0.01,32.13,19.351708,30.467569423844278,1301.7947820797,9.97894784032866,0.033166247903554,1.2094286920162605,1.4577123252992346
21811197,1764,1,196666.0,227749,0.58,-0.2,9.98,-0.03,-0.01,-0.01,32.13,19.391705,20.859246063126797,749.674225695249,9.998839932712196,0.033166247903554,0.8230191101855099,0.8372509330076285
21851197,1768,1,194231.0,223661,0.59,-0.22,9.96,-0.04,-0.01,-0.01,32.13,19.431705,26.289367694381543,-175.3536205825372,9.979884768873838,0.042426406871192854,1.041397587891799,-0.20227577682632628
21891200,1764,1,193554.0,222923,0.55,-0.23,9.97,-0.03,-0.01,-0.01,32.13,19.471708,16.22064580112468,-1008.8962479712112,9.987807567229156,0.033166247903554,0.6364725588019182,-1.1389933345110612
21931197,1769,1,193663.0,223674,0.55,-0.23,9.95,-0.03,-0.01,-0.01,32.13,19.511705,11.901938952769063,-1331.772158464167,9.967843297323649,0.033166247903554,0.4627908825434624,-1.5018344471002196
21971196,1761,1,194122.0,224829,0.58,-0.24,9.94,-0.04,-0.01,-0.01,32.13,19.551704,3.8578299873235102,-1059.1436280939708,9.959799194762914,0.042426406871192854,0.1392879502580215,-1.1954602765031002
22011198,1773,1,194618.0,226231,0.58,-0.24,9.97,-0.03,-0.01,-0.01,32.13,19.591706,6.313349124202297,-456.9881707158854,9.989739736349492,0.033166247903554,0.23803942720538818,-0.5187707217663595
22051197,1792,1,195241.0,227447,0.57,-0.24,9.95,-0.03,-0.01,-0.01,32.13,19.631705,22.58885083867252,102.72752522954231,9.969202575933542,0.033166247903554,0.8925771207728207,0.11022592756677432
22091199,1790,1,195604.0,227746,0.57,-0.25,9.97,-0.04,-0.01,-0.01,32.13,19.671707,15.86598510798185,425.6673823867947,9.989409391951058,0.042426406871192854,0.6222094782430962,0.47313890206345094
22131196,1794,1,195579.0,227769,0.59,-0.26,9.99,-0.03,-0.01,-0.01,32.13,19.711704,13.948078292238257,587.9248255801232,10.010784185067621,0.033166247903554,0.5450786883186314,0.6554803815632785
22171198,1806,1,195627.0,228128,0.58,-0.24,9.930000000000001,-0.04,-0.01,-0.01,32.13,19.751706,23.366167485063457,782.1671587081894,9.949819093832813,0.042426406871192854,0.9238377881135974,0.8737658032179829
22211196,1814,1,195922.0,228903,0.56,-0.22,9.98,-0.04,-0.01,-0.01,32.13,19.791704,26.43882856501008,1068.0469038986919,9.99811982324677,0.042426406871192854,1.0474083257022841,1.1950314084879992
22251200,1815,1,196192.0,229589,0.5499999999999999,-0.21,9.96,-0.03,-0.01,-0.01,32.13,19.831708,23.41040686738816,1258.9041642172315,9.977384426792424,0.033166247903554,0.9256169248664704,1.4095127569849113
22291197,1810,1,196505.0,230218,0.57,-0.22,9.96,-0.03,-0.01,-0.01,32.13,19.871705,16.2508905751966,1062.4831800158165,9.978722363108416,0.033166247903554,0.6376888865693076,1.1887790133783136
22331200,1815,1,196229.0,226250,0.57,-0.24,9.97,-0.03,-0.01,-0.01,32.13,19.911708,16.23875134387742,364.46769851817197,9.989164129195196,0.033166247903554,0.6372006936638764,0.4043639929936078
22371197,1817,1,193917.0,223260,0.58,-0.23,9.94,-0.03,-0.01,-0.01,32.13,19.951705,16.46142126433294,-604.190886281406,9.959563243435928,0.033166247903554,0.6461556161429924,-0.6841940170824843
22411200,1819,1,193355.0,222744,0.58,-0.24,9.98,-0.03,-0.01,-0.01,32.13,19.991708,15.838485301891444,-1388.5231798344923,9.999719996079891,0.033166247903554,0.6211035424650327,-1.565610043437343
22451196,1823,1,193574.0,223640,0.57,-0.22,9.97,-0.03,-0.01,-0.01,32.13,20.031704,14.734957646796706,-1630.5643915291691,9.988703619589481,0.033166247903554,0.5767239307746967,-1.8376108328726408
22491199,1815,1,193995.0,224572,0.6,-0.21,9.97,-0.03,-0.01,-0.01,32.13,20.071707,9.686647861130464,-1315.7399456399507,9.990245242235048,0.033166247903554,0.3737004479049744,-1.4838177857471835
22531197,1839,1,194507.0,226142,0.58,-0.21,9.96,-0.03,-0.01,-0.01,32.13,20.111705,22.545432755602583,-742.5856320273595,9.979083124215371,0.033166247903554,0.890831013497587,-0.8397191023893702
22571199,1838,1,195103.0,227034,0.59,-0.23,9.96,-0.04,-0.01,-0.01,32.13,20.151707,31.79481228466582,-260.99354358135935,9.980110219832245,0.042426406871192854,1.2628052635141211,-0.2985161092051038
22611196,1855,1,195257.0,227243,0.58,-0.23,9.98,-0.03,-0.01,-0.01,32.13,20.191704,30.732191146424025,-9.2545337019744,9.999484986738068,0.033166247903554,1.2200707536254085,-0.015617139482424682
22651200,1863,1,195366.0,227536,0.57,-0.25,9.97,-0.04,-0.01,-0.01,32.13,20.231708,55.24582625122345,139.79573971780198,9.989409391951058,0.042426406871192854,2.2059142909821516,0.15188240223556856
22691197,1862,1,195542.0,228089,0.56,-0.22,9.96,-0.03,-0.01,-0.01,32.13,20.271705,32.43349551478984,395.4480574173925,9.978156142294026,0.033166247903554,1.2884906313571227,0.4391790644377496
22731888,1775,1,195821.0,228911,0.57,-0.23,9.95,-0.03,-0.01,-0.01,32.17,20.312396,-37.93189785345186,795.0488198379467,9.968966847171274,0.033166247903554,-1.5413331793132328,0.8882419412772812
22772200,1789,1,196229.0,229943,0.56,-0.26,9.96,-0.03,-0.01,-0.01,32.17,20.352708,-41.66187477058896,1107.761505529495,9.979118197516252,0.033166247903554,-1.6913384160938643,1.2396618370007828
22812200,1797,1,196727.0,231111,0.58,-0.23,9.97,-0.03,-0.01,-0.01,32.17,20.392708,-25.095691705062436,1000.4971477051911,9.989504492215818,0.033166247903554,-1.025110643509433,1.119120422577172
22852200,1798,1,196482.0,226410,0.57,-0.23,9.99,-0.04,-0.01,-0.01,32.17,20.432708,-32.181084808066174,342.006772190561,10.008891047463749,0.042426406871192854,-1.3100577339905464,0.3791228795080872
22892200,1799,1,194064.0,223744,0.62,-0.26,9.96,-0.03,-0.01,-0.01,32.17,20.472708,-32.29629238416741,-623.0937734064585,9.982664974845145,0.033166247903554,-1.3146909368537032,-0.705436681439604
22932198,1792,1,193634.0,223446,0.55,-0.2,9.96,-0.03,-0.01,-0.01,32.17,20.512706,-40.93204019847681,-1406.3488464520626,9.977178960006682,0.033166247903554,-1.661987294027296,-1.585642150194046
22972200,1799,1,193794.0,224207,0.56,-0.23,9.98,-0.03,-0.01,-0.01,32.17,20.552708,-38.61515210115376,-1618.9998877490427,9.99834486302608,0.033166247903554,-1.5688110209955783,-1.8246148883572504
23012200,1811,1,194301.0,225296,0.58,-0.23,9.97,-0.03,-0.01,-0.01,32.17,20.592708,-28.751452421214633,-1239.2254252293717,9.989504492215818,0.033166247903554,-1.1721311918994874,-1.397832387602697
23052200,1824,1,194873.0,226861,0.56,-0.25,9.96,-0.03,-0.01,-0.01,32.17,20.632708,-19.149781091663904,-588.2268045032454,9.978862660644248,0.033166247903554,-0.7859891290192313,-0.6662539199565994
23092228,1845,1,195520.0,227747,0.57,-0.24,9.97,-0.03,-0.01,-0.01,32.17,20.672736,-2.373175783211603,-55.67368096636591,9.989164129195196,0.033166247903554,-0.11129898814802267,-0.06778199443594794
23132200,1846,1,195604.0,227858,0.57,-0.24,9.96,-0.03,-0.01,-0.01,32.17,20.712708,-5.38746192331184,189.13996405332617,9.979183333319416,0.033166247903554,-0.23252191156422466,0.20733439687467073
23172200,1845,1,195657.0,228028,0.57,-0.23,9.930000000000001,-0.03,-0.01,-0.01,32.17,20.752708,-8.993304675186428,275.5817179457253,9.949004975373166,0.033166247903554,-0.3775349526110923,0.30447580983604616
23212200,1854,1,195824.0,228521,0.58,-0.23,9.98,-0.03,-0.01,-0.01,32.17,20.792708,-8.091858098362012,454.58439859711797,9.999484986738068,0.033166247903554,-0.34128225984498695,0.5056352326769462
23252200,1847,1,195942.0,229087,0.57,-0.23,9.96,-0.03,-0.01,-0.01,32.17,20.832708,-14.858926691374853,822.7839228626536,9.97894784032866,0.033166247903554,-0.613427570434413,0.9194100628751269
23292222,1857,1,196340.0,229999,0.61,-0.23,9.95,-0.04,-0.01,-0.01,32.17,20.87273,-15.07750912148969,1183.7922725626602,9.97133391277215,0.042426406871192854,-0.6222181098704127,1.3251036033412995
23332200,1856,1,196734.0,231084,0.56,-0.22,9.96,-0.04,-0.01,-0.01,32.17,20.912708,-17.654274359300807,1179.1868570446948,9.978156142294026,0.042426406871192854,-0.7258456357808497,1.3199281348837033
23372200,1859,1,196955.0,228058,0.57,-0.23,9.96,-0.03,-0.01,-0.01,32.17,20.952708,-21.085888015836844,598.6669520058824,9.97894784032866,0.033166247903554,-0.8638518568712029,0.6675521558184251
23412200,1870,1,194279.0,223838,0.58,-0.26,9.97,-0.03,-0.01,-0.01,32.17,20.992708,-18.21671398355834,-392.5996888803984,9.990240237351653,0.033166247903554,-0.748464780854894,-0.44641230905156326
23452200,1872,1,193580.0,222810,0.59,-0.23,9.96,-0.03,-0.01,-0.01,32.17,21.032708,-17.098788824527965,-1322.6818552352772,9.980110219832245,0.033166247903554,-0.7035061572738964,-1.4916189567828795
23492200,1879,1,193540.0,223379,0.59,-0.22,9.99,-0.03,-0.01,-0.01,32.17,21.072708,-21.7885253839685,-1735.9818527185191,10.009825173298482,0.033166247903554,-0.8921092126455135,-1.9560767439586357
23532199,1889,1,193841.0,224313,0.6,-0.23,9.96,-0.03,-0.01,-0.01,32.17,21.112707,-14.725743439203773,-1502.3381655659518,9.980706387826466,0.033166247903554,-0.6080714554447065,-1.6935129148193284
23572198,1894,1,194360.0,225742,0.59,-0.23,9.96,-0.03,-0.01,-0.01,32.17,21.152706,-13.435667474133496,-864.9578145301555,9.980110219832245,0.033166247903554,-0.5561895926599091,-0.9772383703381221
23612199,1908,1,195016.0,227042,0.58,-0.22,9.95,-0.04,-0.01,-0.01,32.17,21.192707,-16.833077310841766,-212.12477399235726,9.969317930530654,0.042426406871192854,-0.6928202684838846,-0.24359842054426578
23652198,1921,1,195418.0,227635,0.57,-0.23,9.96,-0.03,-0.01,-0.01,32.17,21.232706,10.65799883919147,225.06641336210424,9.97894784032866,0.033166247903554,0.4127644251622319,0.24770778000713403
23692200,1926,1,195586.0,228080,0.58,-0.22,9.96,-0.04,-0.01,-0.01,32.17,21.272708,-19.96224198816614,511.08982156340466,9.979298572545067,0.042426406871192854,-0.8186631620929707,0.5691348307271877
23732887,1871,1,195838.0,228830,0.57,-0.21,9.930000000000001,-0.03,-0.01,-0.01,32.31,21.313395,-46.81199144973151,884.8525427140527,9.948562710261218,0.033166247903554,-1.8984561782315494,0.9891614638061248
23771200,2000,1,196250.0,229929,0.58,-0.25,9.96,-0.03,-0.01,-0.01,32.31,21.351708,41.61234406615723,1486.2901591407804,9.980005010018782,0.033166247903554,1.6576283984021332,1.6650443240791781
23811197,2003,1,196802.0,231342,0.56,-0.23,9.98,-0.04,-0.01,-0.01,32.31,21.391705,68.27357968387867,2160.572985998012,9.99834486302608,0.042426406871192854,2.7298401172805833,2.422789089624263
23851200,2000,1,197435.0,232774,0.55,-0.25,9.97,-0.03,-0.01,-0.01,32.31,21.431708,37.9995445761103,2519.982290751222,9.988288141618662,0.033166247903554,1.5123355842682076,2.8266856572326904
23891197,2010,1,197946.0,233182,0.59,-0.22,9.97,-0.04,-0.01,-0.01,32.31,21.471705,54.672954412429014,2238.9573929686385,9.989864863950864,0.042426406871192854,2.1828756026115883,2.5108758266974647
23931200,2007,1,196230.0,226058,0.57,-0.23,9.96,-0.03,-0.01,-0.01,32.31,21.511708,41.974788359097495,1345.9314461295978,9.97894784032866,0.033166247903554,1.672204505222661,1.5073121739388815
23971196,2007,1,194227.0,224492,0.57,-0.22,9.99,-0.03,-0.01,-0.01,32.31,21.551704,35.77079899597916,250.92140250363613,10.008666244810044,0.033166247903554,1.4227040621707563,0.2767630694270572
24011200,2019,1,194095.0,224694,0.58,-0.24,9.99,-0.03,-0.01,-0.01,32.31,21.591708,46.68323676871343,-532.6868817234858,10.009700295213639,0.033166247903554,1.8615600787943956,-0.6038393305753221
24051196,2013,1,194233.0,225143,0.57,-0.22,9.96,-0.03,-0.01,-0.01,32.31,21.631704,31.850798493054036,-740.819456096056,9.978722363108416,0.033166247903554,1.2650568121516312,-0.8377343112695746
24091199,2007,1,194338.0,225597,0.58,-0.22,9.96,-0.03,-0.01,-0.01,32.31,21.671707,25.313726152658266,-497.12354380359307,9.979298572545067,0.033166247903554,1.0021610607683147,-0.563874004334238
24131199,2006,1,194627.0,226354,0.57,-0.22,9.95,-0.03,-0.01,-0.01,32.31,21.711707,17.7928434796567,-152.51117906530234,9.968741144196693,0.033166247903554,0.6997002651050365,-0.17660592464778446
24171199,2000,1,194762.0,226379,0.61,-0.21,9.97,-0.03,-0.01,-0.01,32.31,21.751707,9.79224676067456,9.420626422413331,9.990850814620345,0.033166247903554,0.37794722698210725,0.005369610092568349
24211198,2000,1,194575.0,226158,0.6,-0.22,9.96,-0.04,-0.01,-0.01,32.31,21.791706,6.185918932719855,-39.80990156462816,9.980480950335009,0.042426406871192854,0.23291467805251767,-0.04995461499718032
24251198,1995,1,194592.0,226334,0.58,-0.22,9.97,-0.03,-0.01,-0.01,32.31,21.831706,-2.482868340812864,-115.17762901819619,9.989279253279488,0.033166247903554,-0.11571039830996,-0.13465127149539155
24291198,1998,1,194730.0,226728,0.6,-0.22,9.97,-0.03,-0.01,-0.01,32.31,21.871706,0.13846717253315907,-27.645356177737202,9.990460449849147,0.033166247903554,-0.010290428402276142,-0.03628435642762028
24331198,2002,1,194904.0,227165,0.61,-0.22,9.96,-0.03,-0.01,-0.01,32.31,21.911706,-1.156930857288812,214.26205544593054,9.981087115139314,0.033166247903554,-0.06238632403525868,0.2355660713205658
24371198,1995,1,194993.0,227527,0.62,-0.23,10.01,-0.03,-0.01,-0.01,32.31,21.951706,-6.516514112069583,370.4553195502179,10.031819376364389,0.033166247903554,-0.2779280212198009,0.4110927547451823
24411198,1998,1,195194.0,228247,0.63,-0.22,9.95,-0.03,-0.01,-0.01,32.31,21.991706,-7.530272275725999,137.5779883017178,9.972351778793204,0.033166247903554,-0.31869745136799005,0.14939014014630464
24451198,1998,1,195089.0,224468,0.63,-0.22,9.94,-0.03,-0.01,-0.01,32.31,22.031706,-8.364457233090638,-601.05325641689,9.962374215015213,0.033166247903554,-0.35224514209857166,-0.6806680150676675
24491198,2003,1,192870.0,221352,0.63,-0.24,9.97,-0.03,-0.01,-0.01,32.31,22.071706,-1.2775535423561672,-1642.9668003869094,9.992767384463626,0.033166247903554,-0.06723730162482833,-1.8515483973749212
24531229,2007,1,192137.0,220679,0.6,-0.23,9.95,-0.04,-0.01,-0.01,32.31,22.111737,-4.059965750983793,-2570.9863048116995,9.97072715502736,0.042426406871192854,-0.17913515285787546,-2.8944370692979273
24571198,2000,1,192296.0,221334,0.61,-0.22,10.0,-0.03,-0.01,-0.01,32.31,22.151706,-2.728301318277323,-3018.3877748104874,10.02100294381755,0.033166247903554,-0.12558076285006803,-3.3972173693225924
24611196,2011,1,192591.0,222238,0.62,-0.23,9.97,-0.03,-0.01,-0.01,32.31,22.191704,-0.44435399289777655,-2882.505034170221,9.991906724944943,0.033166247903554,-0.03372924018675605,-3.2445152221716853
24651198,1995,1,193185.0,223582,0.63,-0.22,9.98,-0.03,-0.01,-0.01,32.31,22.231706,-9.78091853058616,-2332.5050904732802,10.002284738998386,0.033166247903554,-0.40920973384851206,-2.6264369295227015
24691199,1999,1,193793.0,224866,0.63,-0.22,10.01,-0.03,-0.01,-0.01,32.31,22.271707,-6.8699850787722365,-1640.1700524142584,10.032218099702577,0.033166247903554,-0.2921432555853817,-1.848405471213354
24732199,1970,1,194620.0,225924,0.63,-0.19,9.930000000000001,-0.02,-0.01,-0.01,32.31,22.312707,-39.14100426415128,-988.6232197030145,9.951778735482417,0.024494897427831782,-1.5899587599694145,-1.1162109345446058
24772863,1936,1,195469.0,227145,0.63,-0.26,10.0,-0.03,-0.01,-0.01,32.27,22.353371,-62.878068407257395,-395.6650704012198,10.02319809242539,0.033166247903554,-2.5445716185381566,-0.4498571199073095
24811177,1990,1,196164.0,228021,0.63,-0.23,9.930000000000001,-0.03,-0.01,-0.01,32.27,22.391685,-19.747548358426663,218.28252367966454,9.95262276990342,0.033166247903554,-0.8100290151586025,0.24008418840409235
24851175,1990,1,196756.0,229218,0.63,-0.21,10.01,-0.04,-0.01,-0.01,32.27,22.431683,-6.147847256457997,889.6514715594712,10.032003787878072,0.042426406871192854,-0.26310166700964316,0.994554398444232
24891177,1985,1,197559.0,230716,0.63,-0.24,9.97,-0.04,-0.01,-0.01,32.27,22.471685,-18.69923250057238,1515.187087973364,9.992767384463626,0.042426406871192854,-0.7678698082863464,1.6975180809228405
24931216,1982,1,198347.0,232390,0.63,-0.22,9.95,-0.03,-0.01,-0.01,32.27,22.511724,-15.00187210503668,1884.830404102546,9.972351778793204,0.033166247903554,-0.6191762817801941,2.1129154138507937
24971198,1977,1,198520.5,231692,0.63,-0.19,9.98,-0.03,-0.01,-0.01,32.27,22.551706,-18.00463307163951,1832.2571211142179,10.001669860578284,0.033166247903554,-0.7399357073201832,2.0538346714602405
25011198,1978,1,198086.0,228530,0.63,-0.21,9.930000000000001,-0.03,-0.01,-0.01,32.27,22.591706,-17.857838743150126,1387.655675618087,9.9521806655627,0.033166247903554,-0.7340322075151482,1.554200979692196
25051198,1978,1,197400.0,226755,0.63,-0.22,10.01,-0.04,-0.01,-0.01,32.27,22.631706,-10.915840761211358,798.2537682928665,10.032218099702577,0.042426406871192854,-0.454851913871225,0.8918435944987884
25091174,1983,1,197109.0,226735,0.63,-0.23,10.01,-0.04,-0.01,-0.01,32.27,22.671682,-6.455273804612737,382.3655602586401,10.032442374616462,0.042426406871192854,-0.2754651730508547,0.4244772311009768
25131177,1971,1,197361.0,227580,0.63,-0.19,10.0,-0.04,-0.01,-0.01,32.27,22.711685,-14.922242001304692,323.3745769992404,10.021626614477313,0.042426406871192854,-0.6159738671726659,0.3581844130152622
25171175,1966,1,197766.0,228837,0.63,-0.24,9.95,-0.03,-0.01,-0.01,32.27,22.751683,-13.88008566445151,563.6877556925705,9.97281304346973,0.033166247903554,-0.5740623723980318,0.6282432755479238
25211198,1981,1,198315.0,229999,0.63,-0.22,9.94,-0.03,-0.01,-0.01,32.27,22.791706,-1.2166292964917569,876.1308291424991,9.962374215015213,0.033166247903554,-0.06478716422998708,0.9793601867422681
25251198,1967,1,198520.5,230575,0.63,-0.2,9.98,-0.03,-0.01,-0.01,32.27,22.831706,-4.156752652891156,1046.6970412788496,10.001864826121176,0.033166247903554,-0.1830275474920549,1.171038884874881
25291198,1974,1,198520.5,230739,0.63,-0.21,9.96,-0.04,-0.01,-0.01,32.27,22.871706,-0.8343766616917595,1020.5134519632098,9.982114004558355,0.042426406871192854,-0.04941444255716654,1.1416143215361068
25331196,1968,1,198520.5,231025,0.63,-0.22,9.96,-0.04,-0.01,-0.01,32.27,22.911704,3.8879902227159735,902.9402389501611,9.982329387472646,0.042426406871192854,0.14050087820688356,1.0094880339006982
25371198,1974,1,198520.5,231630,0.63,-0.21,9.96,-0.04,-0.01,-0.01,32.27,22.951706,8.950850135027167,828.5811270642179,9.982114004558355,0.042426406871192854,0.3441095108619937,0.9259248382239308
25411175,1975,1,198520.5,232373,0.63,-0.22,9.94,-0.04,-0.01,-0.01,32.27,22.991683,19.008596162526022,815.268853966925,9.962374215015213,0.042426406871192854,0.7485931331071463,0.9109647875520246
25451208,1968,1,198520.5,233225,0.63,-0.21,9.96,-0.04,-0.01,-0.01,32.27,23.031716,12.332170122139054,731.1514659754876,9.982114004558355,0.042426406871192854,0.48009311520212666,0.8164354477808776
25491175,1959,1,198520.5,233963,0.63,-0.23,9.96,-0.04,-0.01,-0.01,32.27,23.071683,13.85646329515589,412.35073599338057,9.982554783220577,0.042426406871192854,0.5413942876814968,0.4581739367739509
25531177,1966,1,198504.0,228662,0.63,-0.22,9.98,-0.04,-0.01,-0.01,32.27,23.111685,19.61083467186543,-161.73327996227144,10.002284738998386,0.042426406871192854,0.7728128353194621,-0.18696952639421685
25571175,1953,1,196838.0,226616,0.63,-0.24,9.930000000000001,-0.04,-0.01,-0.01,32.27,23.151683,19.305085252314925,-795.3278129511336,9.952858885767446,0.042426406871192854,0.760516776900308,-0.8989896487040306
25611198,1963,1,196642.0,226794,0.63,-0.24,9.98,-0.04,-0.01,-0.01,32.27,23.191706,28.77882006242105,-1192.5230436490779,10.002744623352132,0.042426406871192854,1.1415137280765197,-1.3453492399213312
25651196,1951,1,196994.0,227428,0.63,-0.21,10.01,-0.03,-0.01,-0.01,32.27,23.231704,26.673563315463483,-1179.4689532569319,10.032003787878072,0.033166247903554,1.0568484489536183,-1.3306793295074695
25691198,1936,1,197367.0,227999,0.63,-0.21,9.930000000000001,-0.03,-0.01,-0.01,32.27,23.271706,17.896295418733207,-839.8229921140091,9.9521806655627,0.033166247903554,0.703860701740794,-0.9489923890374997
25731198,1936,1,197830.0,229026,0.63,-0.22,9.930000000000001,-0.03,-0.01,-0.01,32.27,23.311706,19.7943090108168,-440.5343893991291,9.952396696273718,0.033166247903554,0.7801914631954475,-0.5002803106664555
25772198,1930,1,198066.0,229985,0.63,-0.21,9.94,-0.04,-0.01,-0.01,32.27,23.352706,29.112195620550317,-210.95478728983812,9.962158400667999,0.042426406871192854,1.1549208028775184,-0.24228361425782458
25812862,1933,1,198047.0,230402,0.63,-0.23,9.98,-0.04,-0.01,-0.01,32.09,23.39337,27.29816219414908,-165.3670919482634,10.002509685074042,0.042426406871192854,1.0819673986875118,-0.1910531273724506
25851177,1891,1,197891.0,230918,0.63,-0.23,9.930000000000001,-0.04,-0.01,-0.01,32.09,23.431685,4.627359231490349,-120.33743159364131,9.95262276990342,0.042426406871192854,0.17023543841820735,-0.14044974839122598
25891175,1885,1,197968.0,231980,0.6,-0.23,9.98,-0.04,-0.01,-0.01,32.09,23.471683,-5.4691377715474205,106.01030230239472,10.00066497789022,0.042426406871192854,-0.23580659809875712,0.11391504294140038
25931177,1875,1,198520.5,234074,0.61,-0.25,9.97,-0.04,-0.01,-0.01,32.09,23.511685,-0.4410650838906752,481.6611861493275,9.991771614683755,0.042426406871192854,-0.03359697299440601,0.5360635532840308
25971198,1872,1,198520.5,235566,0.6,-0.23,10.01,-0.03,-0.01,-0.01,32.09,23.551706,0.0694984564964524,727.0442986837945,10.030603172292281,0.033166247903554,-0.013064083255744518,0.8118199001315269
26011198,1866,1,198520.5,236130,0.6,-0.23,9.98,-0.03,-0.01,-0.01,32.09,23.591706,0.42464875225779053,515.143126681232,10.00066497789022,0.033166247903554,0.0012186872256559358,0.5736898492058671
26051196,1855,1,198520.5,232002,0.59,-0.23,9.97,-0.03,-0.01,-0.01,32.09,23.631704,1.220754300610898,-238.53417007256104,9.990090089683877,0.033166247903554,0.03323497149122769,-0.27327674074449004
26091198,1853,1,195959.0,226391,0.63,-0.22,9.97,-0.03,-0.01,-0.01,32.09,23.671706,-0.6590626648496511,-1240.8796210666153,9.99230704091903,0.033166247903554,-0.04236399206069427,-1.3996913378635245
26131198,1840,1,195273.0,226046,0.62,-0.22,9.98,-0.03,-0.01,-0.01,32.09,23.711706,1.2419420196555637,-1981.4877809083755,10.001659862242867,0.033166247903554,0.0340870595557769,-2.2319711084395215
26171243,1846,1,195576.0,227122,0.6,-0.24,9.97,-0.03,-0.01,-0.01,32.09,23.751751,7.237153430204996,-2080.952762742436,9.990920878477619,0.033166247903554,0.2751912613157354,-2.343747749246295
26211196,1826,1,196062.0,228382,0.6,-0.22,9.95,-0.03,-0.01,-0.01,32.09,23.791704,-0.781182645269503,-1547.6035198776326,9.970501491900995,0.033166247903554,-0.0472751850748822,-1.7443811616796063
26251197,1815,1,196695.0,230238,0.61,-0.23,9.98,-0.04,-0.01,-0.01,32.09,23.831705,-7.790955378566044,-737.4210953636192,10.00126991936524,0.042426406871192854,-0.32918111693347146,-0.8339153054253353
26291196,1817,1,197392.0,231563,0.61,-0.23,9.96,-0.03,-0.01,-0.01,32.09,23.871704,1.4130692668832268,-62.82611369091825,9.981312538939957,0.033166247903554,0.040969135185270594,-0.07581974690727174
26331177,1810,1,197629.0,231523,0.59,-0.23,9.96,-0.04,-0.01,-0.01,32.09,23.911685,1.4261931152052105,306.2203401572596,9.980110219832245,0.042426406871192854,0.04149692557613534,0.33890684482549155
26371179,1799,1,197535.0,231586,0.59,-0.23,9.99,-0.04,-0.01,-0.01,32.09,23.951687,-4.389696796307278,514.6393040587323,10.010049949925325,0.042426406871192854,-0.19239565945791037,0.5731236640091569
26411198,1793,1,197619.0,232145,0.59,-0.22,9.96,-0.04,-0.01,-0.01,32.09,23.991706,-4.222675090534266,822.8702897458908,9.979884768873838,0.042426406871192854,-0.1856786928174799,0.919507120150031
26451198,1783,1,197931.0,233031,0.6,-0.25,9.94,-0.03,-0.01,-0.01,32.09,24.031706,-7.624990141313925,1309.7019663761712,9.961229843749214,0.033166247903554,-0.32250663736847024,1.4665982516081957
26491198,1776,1,198369.0,234064,0.6,-0.23,9.96,-0.03,-0.01,-0.01,32.09,24.071706,-11.69341968874369,1736.8524718104654,9.980706387826466,0.033166247903554,-0.48612312914449357,1.9466209463895148
26531197,1765,1,198520.5,235045,0.6,-0.23,9.97,-0.03,-0.01,-0.01,32.09,24.111705,-14.153525143765764,1711.2899677865607,9.990685662155526,0.033166247903554,-0.5850590500587584,1.9178943455525632
26571223,1755,1,198520.5,232911,0.6,-0.21,9.98,-0.03,-0.01,-0.01,32.09,24.151731,-23.261695371194058,1029.0852312309814,10.000224997468807,0.033166247903554,-0.9513544084365648,1.1512471056036404
26611196,1744,1,195807.0,226041,0.6,-0.23,9.95,-0.04,-0.01,-0.01,32.09,24.191704,-26.581422644109683,-92.25787199177303,9.97072715502736,0.042426406871192854,-1.084860992172489,-0.1088945337844746
26651177,1749,1,194704.0,224641,0.57,-0.22,9.97,-0.03,-0.01,-0.01,32.09,24.231685,-19.101183698829463,-1113.2207433208484,9.988703619589481,0.033166247903554,-0.7840347299489424,-1.2562309937256242
26691198,1742,1,194645.0,225191,0.6,-0.23,9.95,-0.03,-0.01,-0.01,32.09,24.271706,-22.86949530907874,-1539.0820470028766,9.97072715502736,0.033166247903554,-0.9355816397331749,-1.7348049108715045
26731199,1731,1,195058.0,226258,0.58,-0.25,9.98,-0.03,-0.01,-0.01,32.09,24.311707,-27.27965521486011,-1252.4264986676267,9.99996499993875,0.033166247903554,-1.1129412040424749,-1.4126674744519903
26771199,1735,1,195538.0,227512,0.6,-0.22,9.95,-0.03,-0.01,-0.01,32.09,24.351707,-25.090904793501267,-547.2145377701607,9.970501491900995,0.033166247903554,-1.0249181324515542,-0.6201652028748077
26812199,1726,1,196136.0,228822,0.6,-0.23,9.94,-0.03,-0.01,-0.01,32.09,24.392707,-24.881969851660358,136.65807614287436,9.960747963883033,0.033166247903554,-1.0165155776586285,0.1483563623377049
26852884,1740,1,196513.0,229239,0.58,-0.21,9.97,-0.04,-0.01,-0.01,32.25,24.433392,-14.424081668146373,543.5044703741032,9.98906402021731,0.042426406871192854,-0.5959397864289471,0.6055617268084218
26891199,1739,1,196474.0,229200,0.58,-0.24,9.95,-0.03,-0.01,-0.01,32.25,24.471707,-7.495796914282783,737.7605802732035,9.969779335572076,0.033166247903554,-0.3173109857486916,0.8238626305067455
