timestamp_us,ecg,leads,ir,red,accX,accY,accZ,gyroX,gyroY,gyroZ,temp,time_sec,ecg_filtered,ppg_filtered,accel_magnitude,gyro_magnitude,ecg_norm,ppg_norm
1951958,1823.625,1,177692,225436,1.15,-1.61,9.25,-0.05,-0.02,-0.04,27.3,0.030471,-4.975287898790033,-7.550947892641151,9.459233584175834,0.0670820393249937,-0.15158454647230482,-0.004475771429551007
1992199,1823.625,1,177455,225028,1.04,-1.55,9.63,-0.04,-0.09,-0.04,27.3,0.070712,-16.878907310673338,78.54113289684152,9.809230346974221,0.1063014581273465,-0.5212548523905194,0.06317799166719082
2032187,1823.625,1,177423,224584,0.85,-1.18,9.28,-0.03,-0.04,-0.03,27.3,0.1107,-13.182884189734239,173.8347239117159,9.393258220660178,0.05830951894845301,-0.40647379710624404,0.13806258002930305
2072207,1823.625,1,177321,224574,1.07,-1.14,9.8,-0.05,-0.06,-0.03,27.3,0.15072,-37.965277646722924,248.05809977083558,9.923935711198457,0.08366600265340755,-1.176098115024615,0.19638955552536694
2112187,1827.0,1,177413,224716,1.63,-1.3,9.67,-0.04,-0.04,-0.03,27.3,0.1907,-22.77458778808233,250.92092307912736,9.892209055615433,0.06403124237432849,-0.7043468961015346,0.1986392487388531
2152190,1892.0,1,177295,223905,1.23,-1.24,9.43,-0.06,-0.1,-0.03,27.3,0.230703,16.62013002347023,176.80096801598248,9.590380597244303,0.12041594578792296,0.5190673345668426,0.1403935444348198
2192187,1872.0,1,176704,222941,1.3,-0.87,9.62,-0.03,-0.06,-0.01,27.3,0.2707,2.4995446944229966,95.280348565486,9.746348034007404,0.06782329983125268,0.08054851791834552,0.07633217403665783
2232188,1886.0,1,176324,222244,1.35,-0.71,10.21,-0.04,0.05,-0.01,27.3,0.310701,3.214294724207967,91.5247020732562,10.323308578164271,0.06480740698407861,0.10274528455067687,0.07338087333942268
2272170,1888.0,1,176188,223091,1.29,-1.15,9.89,-0.03,0.04,-0.0,27.3,0.350683,-2.3508160228138353,162.65727963738456,10.039855576650494,0.05,-0.07008082162225304,0.12927900597663564
2312171,1872.0,1,176673,223197,1.08,-0.85,10.64,-0.03,0.02,-0.02,27.3,0.390684,-20.165246938358557,186.75199635365405,10.72839689795265,0.0412310562561766,-0.623313069600048,0.14821336372077717
2352171,1872.0,1,176342,222757,0.9,-1.14,9.43,-0.02,-0.04,-0.01,27.3,0.430684,-30.781307061561204,22.98160817304237,9.541200134155032,0.0458257569495584,-0.9529978534963423,0.019517635349137138
2392194,1823.625,1,175915,221052,1.07,-0.66,9.5,-0.02,-0.04,0.05,27.3,0.470707,-85.94804126045429,-341.64152081452175,9.582823174826926,0.0670820393249937,-2.6662165647275615,-0.267014256572924
2432171,1823.625,1,174822,218156,0.91,-1.61,11.27,-0.04,0.01,0.09,27.3,0.510684,-82.43517488474582,-753.2965354605792,11.420731149974593,0.09899494936611665,-2.557123494559208,-0.5905052279033837
2472161,1880.0,1,174071,217585,1.46,-1.07,9.27,-0.02,0.0,0.06,27.3,0.550674,-48.54412554160294,-1015.5697857074605,9.44507278955541,0.06324555320336758,-1.5046272625256298,-0.7966074869741464
2512160,1873.0,1,174840,219474,0.75,-1.19,10.26,-0.02,0.06,-0.0,27.3,0.590673,-37.79598150673453,-1058.8883939532434,10.355974121250014,0.06324555320336758,-1.170840574969377,-0.8306485605905107
2552171,1967.0,1,174839,219172,1.06,-0.96,9.16,-0.01,0.0,-0.01,27.3,0.630684,29.454269073936498,-982.8065052515135,9.270965429770516,0.01414213562373095,0.9176351940404466,-0.7708611094454303
2592171,1974.625,1,174785,218634,1.28,-0.78,9.79,-0.04,-0.01,-0.01,27.3,0.670684,50.77134551043522,-932.0460237805104,9.904085015790201,0.042426406871192854,1.5796431006184748,-0.7309719865827462
2630192,1967.0,1,174318,218148,1.33,-1.02,8.81,-0.02,-0.05,0.01,27.3,0.708705,30.404126049739883,-941.4789798351541,8.968020963401012,0.05477225575051661,0.9471332741347457,-0.7383846889866217
2670172,1974.625,1,174294,217607,1.11,-1.09,9.35,-0.03,-0.04,0.0,27.3,0.748685,37.147227462895806,-908.5592906555169,9.478538916942842,0.05,1.1565422174138316,-0.7125154007483285
2710171,1974.625,1,174328,219215,1.37,-0.94,9.77,-0.03,0.0,0.0,27.3,0.788684,36.95677534510579,-709.7315094312842,9.91026740305225,0.03,1.1506276724162048,-0.5562705117336547
2750159,1974.625,1,175183,220414,1.42,-0.82,9.93,-0.04,0.01,-0.0,27.3,0.828672,35.095003771364034,-333.22897402731326,10.06447713495341,0.04123105625617661,1.0928098236257868,-0.2604034226592478
2790171,1974.625,1,175431,221427,1.56,-1.1,10.23,-0.03,-0.0,-0.0,27.3,0.868684,26.42536584591198,101.02665902112992,10.406560430805175,0.03,0.8235717378631845,0.08084779873385944
2830188,1974.625,1,175754,221769,1.13,-1.04,9.83,-0.03,0.0,0.0,27.3,0.908701,44.86902548310486,440.78933169594296,9.949241177094864,0.03,1.3963448637853795,0.347843591557881
2870159,1974.625,1,175880,221821,0.89,-0.67,9.82,-0.03,0.03,0.01,27.3,0.948672,13.566471274885254,614.4129798203421,9.882985378922706,0.04358898943540673,0.4242350886171509,0.4842823098521093
2910159,1867.0,1,175782,221588,1.22,-0.68,9.74,-0.05,0.04,0.0,27.3,0.988672,-53.19762415145324,654.0953738691188,9.839634139539946,0.06403124237432849,-1.6491429930080765,0.5154659362840478
2950159,1968.0,1,175652,221488,1.43,-0.8,9.33,-0.04,0.02,0.0,27.3,1.028672,4.243548542833884,624.9234106115821,9.472792618863775,0.044721359549995794,0.13470905631064242,0.492541724519226
2990845,1971.0,1,175638,221703,1.05,-1.21,9.26,-0.04,-0.0,0.01,27.3,1.069358,51.12640118221097,547.268854603408,9.397563514017875,0.04123105625617661,1.5906694560706922,0.4315184238000096
3031170,1974.625,1,176012,222100,1.02,-0.75,9.41,-0.03,0.03,0.01,27.3,1.109683,20.691840438930257,397.7867398068619,9.494788043974442,0.04358898943540673,0.6455154662494522,0.31405085316044673
3071159,1948.0,1,175839,221360,1.42,-0.86,10.51,-0.03,0.03,0.01,27.3,1.149672,22.73978590935953,180.8996290613316,10.640305446743529,0.04358898943540673,0.7091149986573548,0.14361439635096687
3111160,1974.625,1,174926,219117,1.58,-1.02,9.77,-0.03,0.03,0.01,27.3,1.189673,35.13031337234681,-23.29312711604549,9.949356763127955,0.04358898943540673,1.0939063733847723,-0.01684645237999628
3151159,1974.625,1,174837,220357,1.19,-1.18,9.28,-0.03,0.02,0.02,27.3,1.229672,46.17029802176757,-105.16750407779577,9.430106043942454,0.0412310562561766,1.436756254708227,-0.08118581613876223
3191158,1974.625,1,175485,221218,1.41,-0.66,9.62,-0.02,0.02,0.02,27.3,1.269671,47.78356383771165,-22.830559694576227,9.745157771939866,0.034641016151377546,1.4868566861040837,-0.016482952898262584
3231158,1974.625,1,175843,222496,0.98,-1.07,10.09,-0.04,0.09,0.02,27.3,1.309671,47.65461638744789,158.5830241457665,10.193792228606585,0.1004987562112089,1.482852186150163,0.126077332683368
3271159,1974.625,1,175820,221790,1.51,-0.7,9.74,-0.04,-0.06,0.02,27.3,1.349672,58.11396749332711,329.44605035895626,9.881179079441887,0.07483314773547883,1.8076703266861813,0.2603466707155797
3311170,1974.625,1,175769,222155,1.21,-1.18,10.46,-0.04,0.03,0.02,27.3,1.389683,52.354647983770484,430.5311689027108,10.59566420758982,0.05385164807134504,1.62881301183847,0.33978241671976606
3351158,1974.625,1,175851,222341,1.19,-0.82,10.11,-0.04,0.0,0.02,27.3,1.429671,66.47431392632963,485.24314653206176,10.212766520390055,0.044721359549995794,2.0673032766765846,0.3827767448757018
3391159,1968.0,1,176183,223082,0.74,-0.67,10.38,-0.04,0.07,0.03,27.3,1.469672,53.47658031761822,550.9431716827374,10.427890486574935,0.08602325267042626,1.6636549413997421,0.4344058133827415
3431158,1872.0,1,176202,223384,1.18,-0.48,10.11,-0.05,0.02,0.02,27.3,1.509671,-31.092500081413398,649.5071225503011,10.189941118573747,0.057445626465380296,-0.9626620417459709,0.5118603495110826
3471159,1823.625,1,176343,223480,1.2,-0.75,9.96,-0.06,-0.01,0.02,27.3,1.549672,-80.1603848394715,741.57295633978,10.060024850863938,0.06403124237432849,-2.486479238989614,0.5842084685410774
3511170,1823.625,1,176461,223520,0.92,-1.06,10.56,-0.05,0.0,0.03,27.3,1.589683,-76.70148127103481,757.3776068190908,10.652868158388143,0.05830951894845301,-2.3790619992373814,0.5966282412954226
3551159,1823.625,1,176373,223105,0.93,-0.83,10.17,-0.05,0.0,0.03,27.3,1.629672,-70.47659818113821,649.3708049101256,10.246106577622546,0.05830951894845301,-2.1857464742257227,0.5117532269830897
3591158,1823.625,1,176039,222633,1.09,-0.89,11.24,-0.05,0.02,0.03,27.3,1.669671,-71.4283473361404,423.13812019345215,11.327744700512984,0.061644140029689765,-2.215303316486307,0.33397273525600985
3631157,1823.625,1,175697,222254,1.43,-1.05,10.54,-0.06,0.02,0.02,27.3,1.70967,-67.18326143095992,130.2820001019579,10.688264592533251,0.066332495807108,-2.083470959375614,0.10383753131607514
3671158,1829.0,1,175617,222261,1.11,-1.02,10.29,-0.06,0.0,0.03,27.3,1.749671,-55.704278163770006,-159.46153621324697,10.399836537176919,0.0670820393249937,-1.7269878503998717,-0.12385171007435676
3711158,1823.625,1,175741,221475,1.03,-0.79,9.26,-0.05,-0.0,0.03,27.3,1.789671,-69.82866719752147,-382.6842606898889,9.350540091353013,0.05830951894845301,-2.1656247921860245,-0.2992668839331457
3751170,1824.0,1,175184,220508,0.99,-1.01,10.23,-0.06,0.02,0.04,27.3,1.829683,-50.13238828468027,-500.5179959447471,10.327298775575345,0.07483314773547883,-1.5539512163413716,-0.3918641999305336
3791158,1873.0,1,174920,219980,1.36,-0.92,9.32,-0.07,-0.02,0.03,27.3,1.869671,-21.795082266257705,-518.7355509623154,9.463529996782384,0.07874007874011811,-0.6739280719294501,-0.40618010610980426
3831170,1823.625,1,175368,221809,1.02,-1.26,9.67,-0.06,0.01,0.04,27.3,1.909683,-47.68763127641513,-495.7453856117946,9.804942631142724,0.07280109889280519,-1.4780285881163076,-0.38811373826370305
3869159,1872.0,1,175652,221233,1.17,-0.72,9.47,-0.05,-0.04,0.04,27.3,1.947672,-17.435212918010222,-509.67128745711,9.569127441935342,0.0754983443527075,-0.5385310821600083,-0.39905713347162264
3909171,1885.0,1,175350,220991,0.92,-0.68,9.83,-0.05,-0.03,0.05,27.3,1.987684,7.576455326348275,-592.8431312297657,9.896347811187722,0.07681145747868609,0.2382134298651836,-0.464416085924795
3949171,1831.0,1,174944,220229,1.41,-0.27,8.83,-0.06,-0.06,0.17,27.3,2.027684,-49.773769275189984,-692.7626393078045,8.945943214664398,0.19000000000000003,-1.5428142004171213,-0.5429358599419243
3989173,1823.625,1,175096,220532,1.18,-1.03,10.17,-0.08,-0.03,0.09,27.3,2.067686,-62.463890953243336,-705.0950465289571,10.28990767694249,0.12409673645990857,-1.9369095591936456,-0.5526270388390004
4029860,1823.625,1,175354,221443,1.31,-1.08,9.97,-0.06,0.0,0.11,27.3,2.108373,-51.808057159358164,-551.1932258132623,10.11352559694195,0.12529964086141668,-1.6059895925768737,-0.4316863295034116
4070161,1823.625,1,175880,221893,1.16,-0.93,10.6,-0.06,0.02,0.05,27.3,2.148674,-68.53494448966364,-228.9403377288539,10.703761021248559,0.0806225774829855,-2.1254478634184846,-0.17845025543274298
4110159,1840.0,1,176055,223119,1.07,-1.21,10.4,-0.06,0.07,0.05,27.3,2.188672,-35.75946723929553,199.4238725620455,10.5246852684534,0.10488088481701516,-1.1075960418402828,0.15817130762377185
4150160,1941.0,1,176559,223804,1.4,-0.87,10.75,-0.06,-0.0,0.04,27.3,2.228673,45.94696662497902,654.2517527766522,10.875633314892516,0.07211102550927978,1.42982063429604,0.5155888235631864
4190171,1974.625,1,177172,225191,0.85,-1.37,10.97,-0.04,0.05,0.06,27.3,2.268684,93.9151644813731,1068.771360534956,11.087844695882064,0.08774964387392122,2.9194867402382787,0.8413308788726519
4230164,1968.0,1,177311,225026,1.35,-0.94,9.81,-0.03,-0.08,0.05,27.3,2.308677,72.14879732526869,1380.7815182666668,9.946969387707998,0.09899494936611665,2.2435259818413287,1.0865179053841185
4270171,1942.0,1,177402,225093,0.86,-0.95,10.46,-0.04,0.02,0.06,27.3,2.348684,53.51586859346952,1508.3007320391187,10.538201933916431,0.07483314773547883,1.6648750500448866,1.1867263635806378
4310206,1974.625,1,177071,225306,1.44,-0.83,9.52,-0.04,-0.05,0.06,27.3,2.388719,78.39791004025628,1353.4096065538656,9.66400020695364,0.08774964387392122,2.437593964791178,1.0650082286108162
4350171,1967.0,1,177557,224825,1.3,-1.0,10.88,-0.06,-0.0,0.05,27.3,2.428684,70.7233950416824,857.1864752431177,11.002926883334272,0.07810249675906655,2.199259706182025,0.6750610713233605
4390171,1951.0,1,175974,221407,1.59,-0.23,8.59,-0.02,-0.16999999999999998,0.07,27.3,2.468684,51.925562205953185,71.89209726662455,8.738941583509986,0.18493242008906927,1.6154876302664982,0.057952978202265394
4430171,1968.0,1,175274,218792,1.19,-0.78,9.31,-0.06,-0.11,0.1,27.3,2.508684,67.38425678376001,-822.337573137906,9.418099595990691,0.16031219541881397,2.095561812407203,-0.6447597651865121
4470171,1957.0,1,174207,218325,1.2,-0.54,10.41,-0.05,0.02,0.26,27.3,2.548684,50.50730361185502,-1592.1822882142583,10.492840416207615,0.26551836094703507,1.5714432039277317,-1.2497270455384686
4510196,1935.0,1,174195,217309,1.3,-1.17,9.15,-0.06,-0.03,0.07,27.3,2.588709,34.29140556353416,-2064.898214761164,9.31565349291181,0.09695359714832658,1.067853851408863,-1.621201529758022
4550171,1974.625,1,174147,218360,1.56,-1.02,11.31,-0.05,0.03,0.08,27.3,2.628684,57.817652070685554,-2188.4490002006546,11.462552071855553,0.09899494936611665,1.7984681664737305,-1.7182914768459405
4590160,1950.0,1,174477,218214,1.0,-1.36,9.47,-0.02,0.0,0.08,27.3,2.668673,50.72804988608503,-2002.08042250872,9.61927751964772,0.08246211251235322,1.5782985426193779,-1.5718374071077725
4630160,1959.0,1,174238,218879,1.39,-0.45,9.85,0.0,-0.05,0.08,27.3,2.708673,32.46242283716175,-1567.8419702897534,9.957765813675275,0.09433981132056604,1.0110542696528928,-1.2305996869305327
4670160,1937.0,1,175530,222042,1.26,-1.12,10.61,-0.03,0.13,0.08,27.3,2.748673,38.04518548805423,-934.3989142808347,10.74309545708312,0.15556349186104046,1.1844285607499305,-0.7328209591600353
4710163,1960.0,1,176190,223876,1.48,-0.87,9.21,0.0,-0.03,0.08,27.3,2.788676,26.435829054221344,-153.59714597230922,9.368639175461931,0.08544003745317531,0.823896675790278,-0.1192432947075892
4750159,1909.0,1,177129,225026,1.31,-1.55,10.83,-0.02,-0.02,-0.03,27.3,2.828672,8.052505283017721,681.4632474881955,11.018507158413067,0.04123105625617661,0.2529972974457168,0.5369724398010679
4790193,1920.0,1,177693,226786,1.02,-0.76,9.29,-0.01,0.0,0.0,27.3,2.868706,-16.891364587586065,1416.2668364751667,9.376678516404409,0.01,-0.5216417166885025,1.114403342575034
4830161,1823.625,1,178285,227030,1.14,-0.52,9.34,-0.01,-0.04,-0.11,27.3,2.908674,-82.08041317373238,1855.1415932114235,9.423672320279392,0.1174734012447073,-2.546106268142553,1.459284411183172
4870194,1823.625,1,178325,227133,1.08,-0.67,10.19,-0.04,-0.03,0.08,27.3,2.948707,-112.67652284776904,1825.910201901591,10.268953208579733,0.09433981132056604,-3.496277206220194,1.4363134990559656
4910171,1823.625,1,177733,225635,1.66,-0.66,9.32,-0.03,-0.1,0.08,27.3,2.988684,-89.3645783454031,1269.0627981598461,9.48965752806707,0.13152946437965907,-2.772318101215961,0.9987259533919278
4950173,1823.625,1,177011,224054,1.15,-0.77,10.42,-0.03,-0.07,0.09,27.3,3.028686,-108.34186559185385,303.8478840820237,10.511507979352915,0.11789826122551596,-3.36166318519016,0.2402308567971622
4990171,1823.625,1,175783,220009,1.59,-0.93,9.53,-0.04,-0.04,0.32,27.3,3.068684,-99.01077098453153,-782.6634937766511,9.706384496814454,0.32496153618543844,-3.0718833729595123,-0.6135826726877144
5030860,1888.0,1,174846,218615,0.96,-0.95,11.0,-0.05,-0.0,0.18,27.3,3.109373,-36.316945291908134,-1640.9680799536768,11.0826034847413,0.18681541692269404,-1.1249086822331922,-1.2880643974360988
5069171,1897.0,1,174470,219293,1.3,-1.02,10.32,-0.04,0.03,0.25,27.3,3.147684,-35.69838603960794,-2011.3375685667638,10.451449660214607,0.25495097567963926,-1.1056991477114415,-1.579111952694541
5109165,1887.0,1,174893,219661,1.58,-1.15,9.72,-0.05,-0.07,0.09,27.3,3.187678,-30.83557782256497,-1831.6316202112957,9.914499483080323,0.12449899597988733,-0.9546832475037018,-1.4378935787671518
5149171,1935.0,1,175468,222612,1.15,-1.35,10.26,-0.03,0.06,0.1,27.3,3.227684,-0.9462709167643465,-1233.3442126549708,10.41213714853968,0.12041594578792296,-0.02646227157764114,-0.967741223714256
5189165,1936.0,1,176419,223614,1.29,-1.12,9.96,-0.03,0.02,0.09,27.3,3.267678,15.173613931911031,-439.63775255392835,10.105449025154696,0.09695359714832658,0.4741453635612433,-0.34402266182546787
5229160,1966.0,1,176963,225550,0.68,-0.92,10.32,-0.03,0.07,0.09,27.3,3.307673,40.001951200492364,351.3379376341492,10.38321722781528,0.11789826122551596,1.2451964796910513,0.2775499784051461
5269160,1974.625,1,177585,225943,1.39,-0.54,8.87,-0.02,-0.02,-0.23,27.3,3.347673,40.16803847981742,1019.0504689239917,8.994476082574236,0.23173260452512937,1.2503543676604805,0.8022586971904326
5309188,1974.625,1,178173,227593,0.96,-1.18,10.17,-0.06,-0.0,0.09,27.3,3.387701,65.87620098659383,1499.952233052567,10.28313668099379,0.10816653826391967,2.048728708240278,1.1801658603674483
5349171,1974.625,1,178560,226864,1.64,-0.13,9.48,-0.07,-0.07,-0.09,27.3,3.427684,28.109481907077534,1748.2527838315718,9.621689040911685,0.13379088160259653,0.8758724438914152,1.3752879492419163
5389191,1827.0,1,178435,227401,0.78,-0.93,9.97,-0.04,-0.04,0.1,27.3,3.467704,-72.28417578321542,1732.3906574536475,10.043614887081244,0.11489125293076058,-2.241881313723676,1.3628230101866419
5429174,1933.0,1,178280,225714,1.12,-0.89,9.04,-0.05,0.0,0.09,27.3,3.507687,-11.195155504352098,1468.909594023107,9.15249146407687,0.10295630140987,-0.34474431418325374,1.1557716149555832
5469159,1943.0,1,177686,225177,0.85,-1.13,10.63,-0.05,-0.02,0.09,27.3,3.547672,39.27548325853255,1050.8169808797165,10.723632779986454,0.10488088481701516,1.2226358099441705,0.8272217838594328
5509170,1942.0,1,177264,224272,1.47,-1.13,9.32,-0.05,-0.04,0.09,27.3,3.587683,12.032292536117211,631.3107165070986,9.502641737958976,0.11045361017187261,0.37659072902619906,0.49756106283604934
5549170,1974.625,1,177117,224756,0.82,-1.51,10.22,-0.05,0.02,0.09,27.3,3.627683,61.50601585284481,363.2275049012289,10.363440548389324,0.10488088481701516,1.9130113588012108,0.2868931602615202
5589158,1971.0,1,177121,224266,1.19,-1.03,9.82,-0.04,-0.01,0.09,27.3,3.667671,56.02416688883791,329.1373165199325,9.94532050765585,0.09899494936611665,1.7427709711172041,0.2601040583194833
5629171,1958.0,1,177007,224660,0.81,-1.02,10.41,-0.04,0.03,0.09,27.3,3.707684,38.98835046645576,502.39650312683136,10.49116771384387,0.10295630140987,1.21371881895064,0.39625637172098815
5669160,1966.0,1,177312,226175,1.16,-0.9,9.88,-0.04,0.03,0.09,27.3,3.747673,62.92817545434694,761.9077591648688,9.988493379884677,0.10295630140987,1.9571769320408074,0.6001881721367138
5709159,1951.0,1,177846,226369,1.15,-1.5,10.44,-0.06,-0.02,0.09,27.3,3.787672,29.3302860009622,956.1725517813811,10.609717244111645,0.11,0.9137848642433317,0.7528473265815064
5749179,1941.0,1,177657,227027,0.98,-1.35,10.67,-0.04,-0.03,0.09,27.3,3.827692,47.88763819106444,981.0355141621405,10.799620363697976,0.10295630140987,1.4900887449183766,0.7723853950236458
5789170,1970.0,1,177552,224858,1.1,-0.72,10.22,-0.05,-0.11,0.09,27.3,3.867683,48.947761576456244,818.0476744578575,10.304212730723293,0.15066519173319362,1.5230111799046309,0.6443046169324934
5829173,1826.0,1,176698,224987,1.13,-0.69,11.27,-0.02,-0.04,0.12,27.3,3.907686,-61.44468032885914,506.72662171812,11.347506333992504,0.12806248474865697,-1.905257681703756,0.3996591099829681
5869174,1823.625,1,176762,223497,1.35,-0.78,9.26,-0.07,-0.04,0.09,27.3,3.947687,-90.93753706958493,86.27428323208206,9.390340781888588,0.12083045973594572,-2.8211667843471213,0.06925493528353986
5909174,1823.625,1,176275,222966,0.88,-0.64,11.59,-0.03,-0.04,0.28,27.3,3.987687,-63.65228377147995,-424.6142408035426,11.640966454723594,0.28442925306655786,-1.9738154381089252,-0.33221673152942743
5949210,1823.625,1,175858,220292,1.86,-0.82,8.1,-0.07,-0.16999999999999998,0.33,27.3,4.027723,-80.67986052832372,-986.3218104106893,8.351167583038913,0.37775653535048204,-2.5026117051052026,-0.7736235426480053
5989173,1834.0,1,174999,219122,0.62,-1.18,10.78,-0.07,0.04,0.4,27.3,4.067686,-54.340460023038176,-1491.3122424540281,10.862099244621179,0.40804411526206336,-1.6846340879133255,-1.1704603102378417
6029160,1899.0,1,174680,217950,1.62,-1.02,7.82,-0.02,-0.06,0.32,27.3,4.107673,3.42382730714065,-1786.463856088448,8.050912991704731,0.32619012860600183,0.1092523788513593,-1.4023993824885324
6069859,1910.0,1,174813,218782,1.19,-1.2,10.08,-0.05,-0.03,0.22,27.3,4.148372,23.094855544561952,-1769.1086673422105,10.220689800595652,0.22759613353482083,0.7201417877477817,-1.3887611498291514
6108171,1906.0,1,175066,219596,1.65,-1.32,8.77,-0.04,-0.03,0.1,27.3,4.186684,15.834770184855309,-1476.962098381753,9.020964471718088,0.1118033988749895,0.49467776012305364,-1.15918353264614
6148212,1906.0,1,175503,221463,1.4,-1.39,9.9,-0.05,-0.0,0.1,27.3,4.226725,22.272485193024554,-1084.3982208519064,10.094657002593006,0.1118033988749895,0.694602841238167,-0.8506949547514459
6188171,1924.0,1,176061,221986,1.09,-1.25,9.08,-0.02,-0.02,0.1,27.3,4.266684,37.74870267825693,-794.5945207307484,9.230222099169662,0.10392304845413265,1.1752212022814763,-0.622958434821134
6228171,1907.0,1,175972,220857,1.0,-1.12,10.46,-0.01,-0.03,0.1,27.3,4.306684,25.756387247153352,-707.4800545963617,10.5672134453696,0.10488088481701517,0.8027964161144934,-0.5545012503727019
6268171,1893.0,1,175676,220843,1.15,-1.1,10.0,-0.01,-0.0,0.11,27.3,4.346684,10.717614682557217,-766.8893953408952,10.125833299042602,0.11045361017187261,0.3357630322145674,-0.6011869086540068
6308171,1887.0,1,175764,221692,1.41,-1.19,10.75,-0.02,-0.04,0.11,27.3,4.386684,6.782722378038529,-824.891852549242,10.90718570484614,0.11874342087037917,0.21356382610465752,-0.6467669952661285
6348171,1877.0,1,175941,222258,1.1,-0.94,9.44,-0.01,-0.04,0.11,27.3,4.426684,-1.7383367009525095,-764.5473001666962,9.550246070128244,0.1174734012447073,-0.051060101079471926,-0.599346419370762
6388171,1884.0,1,176191,222741,1.21,-1.07,9.77,-0.01,-0.06,0.11,27.3,4.466684,4.184119390583156,-581.7923864855416,9.90262086520533,0.12569805089976535,0.1328634669875282,-0.45573207619808803
6428171,1879.0,1,176242,223503,1.28,-1.03,9.74,-0.0,-0.09,0.12,27.3,4.506684,2.287111829360154,-373.13123009469575,9.87759586134197,0.15,0.07395135452647264,-0.29175982332064304
6468171,1851.0,1,176704,223697,0.96,-1.37,9.25,-0.02,-0.02,0.12,27.3,4.546684,-28.31116998575933,-256.21986672542147,9.400053191338866,0.12328828005937953,-0.8762870400138459,-0.19988733507119844
6508171,1851.0,1,176375,223126,1.27,-0.46,9.71,-0.01,-0.07,0.11,27.3,4.586684,-25.796928790482905,-293.8747968040609,9.803499375223115,0.1307669683062202,-0.7982065604848919,-0.22947771894394906
6548173,1888.0,1,176251,222365,1.42,-1.15,10.42,-0.06,-0.02,0.12,27.3,4.626686,9.56976854760301,-471.9698234947314,10.579002788542972,0.13564659966250536,0.30011634214717814,-0.36943018186444637
6588171,1895.0,1,175762,222124,1.66,-0.93,10.02,-0.02,-0.07,0.12,27.3,4.666684,16.063842107509412,-724.5498863312216,10.199063682515174,0.14035668847618202,0.5017916542080981,-0.5679152408547689
6628171,1887.0,1,176108,221677,1.28,-1.54,9.95,-0.03,-0.0,0.12,27.3,4.706684,9.158985904461732,-959.9233689569999,10.149507377208018,0.12369316876852982,0.28735936965826153,-0.7528788482713153
6668171,1886.0,1,175796,221943,1.34,-1.04,10.65,-0.01,-0.03,0.12,27.3,4.746684,4.314178387432525,-1060.2061224516212,10.784233862449387,0.12409673645990857,0.1369024863386279,-0.8316840715322554
6708172,1883.0,1,176260,222629,0.76,-1.47,9.47,-0.02,0.05,0.13,27.3,4.786685,3.6441617955568266,-883.2769328115061,9.613500923180899,0.1407124727947029,0.11609492941676373,-0.6926477586560408
6748158,1903.0,1,176121,223638,1.4,-1.21,9.57,-0.01,-0.07,0.12,27.3,4.826671,19.68312492897878,-316.37731446477994,9.74725602413315,0.1392838827718412,0.614189517540444,-0.24716087847427967
6788172,1903.0,1,177333,226241,1.02,-2.34,10.95,-0.03,0.06,0.04,27.3,4.866685,19.439920262693036,626.9736005436321,11.243598178519187,0.07810249675906654,0.6066367270591863,0.49415282582720116
6828159,1893.0,1,178435,229037,1.29,0.16,8.26,0.03,-0.05,-0.13,27.3,4.906672,8.602401276607425,1752.0020876330054,8.3616565344434,0.14247806848775008,0.2700744748267891,1.3782342656607303
6868160,1883.0,1,180351,231110,1.69,-1.59,11.91,-0.05,-0.04,-0.2,27.3,4.946673,-5.483386934480996,2748.1899034742073,12.133931761799223,0.21000000000000002,-0.16736370736962983,2.1610688060127234
6908194,1841.0,1,179686,229884,1.04,-0.04,6.8962499999999975,0.01,-0.05,0.01,27.3,4.986707,-45.959082561480784,3348.053886522353,6.974343271054269,0.05196152422706632,-1.424348013315133,2.632460081810125
6948165,1823.625,1,180479,231270,1.16,-1.52,11.61,-0.03,0.06,0.1,27.3,5.026678,-68.72672895226084,3456.727590453043,11.76639706962161,0.12041594578792296,-2.1314037847652214,2.717859167918293
6988165,1823.625,1,180167,227749,1.36,-1.02,10.82,0.02,-0.02,-0.05,27.3,5.066678,-67.5997067340314,3152.551353849799,10.952734818299948,0.05744562646538029,-2.0964037873884918,2.47882827376283
7028173,1823.625,1,178755,228162,0.8,-1.54,11.22,-0.03,-0.1,0.14,27.3,5.106686,-72.0392857403675,2576.309991545474,11.353413583587978,0.1746424919657298,-2.2342761833911706,2.026000368404047
7068174,1823.625,1,178809,227519,1.28,-1.02,9.68,-0.01,-0.01,0.12,27.3,5.146687,-72.20340414293406,1822.4123412961326,9.817392729233154,0.12083045973594572,-2.239372927329659,1.4335647743117492
7108859,1823.625,1,177933,225733,1.73,0.11,8.76,0.02,-0.16999999999999998,0.28,27.23,5.187372,-75.3564148521162,933.1402287542185,8.929871219676127,0.3281767816284388,-2.337290576835757,0.7347478299569847
7147143,1846.0,1,176939,223601,2.17,-0.36,9.06,-0.06,-0.11,0.35,27.23,5.225656,-54.600433347682255,-12.355203168180545,9.323202239574126,0.3717526059088221,-1.6927076338766491,-0.008251100650160582
7187174,1897.0,1,175920,221016,1.3,-1.02,8.77,-0.06,-0.16,0.23,27.23,5.265687,-4.425582547626688,-828.5280470783441,8.92430949709836,0.2865309756378881,-0.13451328954631722,-0.64962442699492
7227174,1945.0,1,175135,220642,1.09,-1.1,10.05,-0.04,0.01,0.18,27.23,5.305687,39.288260687879564,-1278.236609834258,10.168608557713293,0.18466185312619388,1.2230326166675813,-1.0030190283132518
7267165,1974.625,1,175527,221881,1.98,-0.71,12.2,-0.08,0.04,0.11,27.23,5.345678,70.89474739376104,-1231.2053213133795,12.380004038771553,0.14177446878757824,2.2045811024919137,-0.9660604181536664
7307162,1974.625,1,175919,223631,1.14,-1.45,10.69,-0.05,0.07,0.12,27.23,5.385675,66.61295496386506,-790.1228295028731,10.847958333253313,0.147648230602334,2.0716088137561206,-0.6194444444959122
7347165,1974.625,1,176334,223719,1.58,-0.88,10.25,-0.05,-0.07,0.11,27.23,5.425678,64.21938054494343,-260.7513175842965,10.408328396049003,0.1396424004376894,1.9972756754841214,-0.20344828632338735
7387174,1974.625,1,177139,225398,0.16,-1.69,12.43,-0.08,0.1,0.12,27.23,5.465687,72.367177716724,29.629447198677756,12.545381620341407,0.17549928774784243,2.2503078473666354,0.02474170848596106
7427165,1974.625,1,176499,223839,1.35,-1.03,8.27,-0.02,-0.12,0.06,27.23,5.505678,50.01128909049014,-66.00063258043598,8.442529241880065,0.13564659966250536,1.556039331079631,-0.050407302932625186
7467174,1930.0,1,176193,223729,1.11,-1.53,12.64,-0.1,0.05,0.11,27.23,5.545687,41.054441385652325,-442.4921874228302,12.780555543480887,0.15684387141358122,1.2778818634605955,-0.3462657631493629
7507165,1974.625,1,175673,221684,1.92,-0.57,7.62,-0.05,-0.1,0.11,27.23,5.585678,34.06938051431573,-846.741581917555,7.878813362429649,0.15684387141358122,1.060958799994152,-0.6639371739963463
7547174,1919.0,1,175565,222624,1.29,-2.35,12.67,-0.1,-0.02,0.12,27.23,5.625687,40.78397825817779,-1065.8500448319187,12.950501920775118,0.15748015748023622,1.2694825536697183,-0.8361192365805568
7587225,1974.625,1,175825,222764,1.1,-1.73,9.74,-0.1,0.03,0.11,27.23,5.665738,28.621304808188462,-1051.3406266294696,9.95341649887113,0.15165750888103102,0.8917672504945852,-0.824717296556127
7627162,1840.0,1,175923,222620,0.72,-1.2,10.73,-0.02,-0.1,0.1,27.23,5.705675,-40.49910460487744,-900.362216420577,10.820873347378205,0.14282856857085702,-1.2547868360223406,-0.7060738916885919
7667174,1923.0,1,176033,223878,0.72,-1.84,10.41,-0.07,0.06,0.12,27.23,5.745687,-12.965385789961653,-738.2300628664724,10.595852962362208,0.15132745950421556,-0.3997193220849418,-0.57866553767592
7707165,1933.0,1,176225,223969,1.2,-1.75,9.11,-0.08,-0.06,0.1,27.23,5.785678,39.49844002049815,-615.7245290066464,9.353854820340114,0.14142135623730953,1.229559795964765,-0.4823969809191289
7747174,1929.0,1,176480,223962,0.85,-2.19,9.71,-0.09,-0.03,0.11,27.23,5.825687,9.454986757513254,-501.4673866651442,9.990130129282603,0.1452583904633395,0.2965517608221098,-0.3926102598967348
7787207,1919.0,1,176135,224162,1.57,-1.73,7.87,-0.06,-0.13,0.09,27.23,5.86572,14.095297149736405,-356.10405328057715,8.209427507445328,0.16911534525287764,0.44065792743359816,-0.2783793523664616
7827173,1936.0,1,177008,225649,0.8,-1.78,10.41,-0.09,0.02,0.11,27.23,5.905686,27.597660973136925,-202.97575404019233,10.59134080275014,0.14352700094407325,0.8599776983792822,-0.1580464996207121
7867160,1920.0,1,176949,225635,1.37,-0.97,8.77,-0.02,-0.06,0.09,27.23,5.945673,12.148423374459846,-118.44398056165785,8.929204891814276,0.11,0.38019720543066166,-0.09161887323950775
7907173,1893.0,1,177344,226109,1.17,-2.31,10.25,-0.09,-0.0,0.1,27.23,5.985686,-10.837448447789669,-148.3656976542399,10.572014945127536,0.13453624047073712,-0.33363561921804596,-0.115132264263001
7947174,1883.0,1,176909,224597,1.49,-1.37,7.86,-0.05,-0.11,0.1,27.23,6.025687,-23.40321936837106,-239.3054301332551,8.116440106352044,0.15684387141358122,-0.7238692296502027,-0.18659545879608022
7987174,1898.0,1,177045,224814,1.44,-1.86,11.29,-0.08,-0.03,0.09,27.23,6.065687,-1.7493160430442969,-267.3356539725592,11.532445534230803,0.12409673645990857,-0.051401067688821,-0.20862245716553526
8027174,1907.0,1,177055,225561,1.13,-1.42,9.78,-0.01,-0.01,0.1,27.23,6.105687,0.30351799682721203,-149.87183282052214,9.946944254392903,0.10099504938362079,0.01235028064150686,-0.11631583086746594
8067174,1877.0,1,177536,226778,1.15,-1.57,10.17,-0.04,-0.02,0.1,27.23,6.145687,-15.982533840967118,66.93067296657689,10.354530409439146,0.10954451150103323,-0.49341771787725763,0.05405414080468158
8107174,1882.0,1,178403,227976,0.82,-2.11,10.56,-0.06,0.04,0.08,27.23,6.185687,-26.996621025649997,239.38124464916103,10.799912036678817,0.10770329614269007,-0.8354633460251951,0.18957102012183846
8147848,1855.0,1,178160,227355,1.69,-2.14,9.86,-0.05,-0.08,0.09,27.03,6.226361,-31.532782655506086,253.45023675599433,10.230117301380272,0.130384048104053,-0.9763351430291672,0.20062685998860944
8186171,1919.0,1,178087,227267,1.45,-2.58,9.99,-0.1,-0.06,0.09,27.03,6.264684,9.728827949194065,121.9840282877887,10.419165033725111,0.14730919862656236,0.305055977363223,0.09731673388440445
8226172,1923.0,1,177633,226362,1.28,-1.68,8.44,-0.05,-0.11,0.09,27.03,6.304685,38.17099111413292,-48.368089552384966,8.700252869888324,0.15066519173319362,1.1883354904550514,-0.03655111688306462
8266173,1915.0,1,178039,227482,0.27,-1.69,10.78,-0.07,0.06,0.1,27.03,6.344686,10.497263656889212,-184.30443902201242,10.915008016488123,0.13601470508735444,0.32891996808007684,-0.14337401509761882
8306164,1919.0,1,177867,227458,1.32,-1.26,10.36,-0.05,-0.04,0.09,27.03,6.384677,29.350162001889238,-328.0117883038663,10.519486679491541,0.11045361017187261,0.9144021191377375,-0.25630360019324344
8346173,1923.0,1,178320,228294,1.17,-2.42,11.44,-0.06,0.03,0.07,27.03,6.424686,27.89800830336717,-579.8785772882998,11.751548834089913,0.09695359714832658,0.8693050706352444,-0.4542281469997781
8386165,1823.625,1,177702,225759,1.81,-1.49,8.88,-0.07,-0.12,-0.04,27.03,6.464678,-74.83494174860651,-955.9892385924401,9.18425827162978,0.14456832294800961,-2.3210960804366105,-0.749787289544486
8426192,1823.625,1,177434,225774,0.2,-2.49,11.11,-0.05,-0.01,0.08,27.03,6.504705,-62.785469908578875,-1311.9703903084496,11.387370196845275,0.09486832980505139,-1.9468962856406515,-1.0295280541333975
8466171,1907.0,1,176722,225228,1.07,-1.94,8.79,-0.03,-0.06,0.07,27.03,6.544684,2.946822727423812,-1425.4777147395057,9.06491036911011,0.09695359714832658,0.09443886517901529,-1.1187255455447307
8506194,1823.625,1,177887,228248,0.26,-2.35,11.12,-0.02,0.06,0.08,27.03,6.584707,-61.83401826114625,-1169.7814055477884,11.368575108605299,0.1019803902718557,-1.9173486825627435,-0.9177916458395097
8546165,1823.625,1,178563,229011,1.65,-1.84,8.14,-0.01,-0.07,-0.12,27.03,6.624678,-79.14461620680312,-616.640926586785,8.506920711985037,0.1392838827718412,-2.454934253537056,-0.4831171138770106
8586194,1823.625,1,179304,229931,0.75,-2.57,10.68,-0.01,-0.03,-0.02,27.03,6.664707,-66.35169567222337,22.543014390214314,11.010440499816527,0.03741657386773942,-2.0576464468650437,0.01917297507833116
8626194,1823.625,1,179576,230627,0.85,-1.99,8.27,0.02,-0.0,0.04,27.03,6.704707,-78.81508276563852,552.5569748714803,8.5484209068108,0.044721359549995794,-2.444700498257213,0.4356739887783734
8666162,1823.625,1,180067,230922,0.63,-2.43,8.81,0.0,-0.03,0.06,27.03,6.744675,-65.84151944017181,906.3097790936235,9.160671372776124,0.0670820393249937,-2.041802778040549,0.7136636504543946
8706164,1823.625,1,180263,231691,0.79,-2.05,8.77,-0.0,-0.05,0.07,27.03,6.784677,-87.06262342620542,1136.3765802672335,9.040989990039806,0.08602325267042628,-2.700830232716046,0.8944571069522665
8746171,1878.0,1,180607,232286,1.34,-2.21,8.95,-0.01,-0.07,0.05,27.03,6.824684,-4.836391001586264,1325.801774827424,9.315696431292723,0.08660254037844388,-0.14727106359757935,1.0433131587494828
8786173,1971.0,1,180936,232528,0.7,-1.77,9.09,-0.02,-0.06,0.05,27.03,6.864686,50.65073621232564,1510.231480289736,9.28714164853751,0.0806225774829855,1.5758975443648668,1.1882436039998363
8826171,1823.625,1,181011,232669,0.92,-1.83,9.71,0.01,-0.01,0.05,27.03,6.904684,-58.11280737632845,1665.0808868818817,9.92367875336561,0.051961524227066326,-1.8017854140661456,1.3099289550006206
8866165,1908.0,1,181125,232706,0.46,-1.96,9.56,0.01,0.01,0.06,27.03,6.944678,-12.107158212223778,1741.5826858899616,9.76968781486901,0.061644140029689765,-0.37306681915855555,1.3700463843751407
8906141,1974.625,1,180814,232287,1.02,-2.36,9.87,-0.01,-0.05,0.04,27.03,6.984654,83.6410701731461,1703.980110828832,10.19935782292199,0.06480740698407861,2.6004218025468644,1.3404971426599388
8946173,1974.625,1,180716,232113,1.17,-2.37,10.59,-0.01,-0.06,0.04,27.03,7.024686,61.864160437551384,1542.9790721578156,10.914847685606977,0.07280109889280519,1.9241336413280916,1.2139776529613118
8986173,1974.625,1,180573,231624,1.22,-2.48,10.75,0.0,-0.05,0.03,27.03,7.064686,73.0235388148849,1276.7868696231808,11.09960810118988,0.05830951894845301,2.2706913290249733,1.0047957625559152
9026165,1974.625,1,180229,230866,0.85,-2.42,9.94,0.02,-0.05,0.04,27.03,7.104678,67.2230487584749,954.6978420706955,10.265597888092051,0.0670820393249937,2.0905554510677162,0.7516884550512998
9066160,1974.625,1,179727,229316,0.94,-2.67,9.68,0.01,-0.07,0.03,27.03,7.144673,66.14195366602348,652.3783410481628,10.085380508438936,0.07681145747868609,2.0569817337196774,0.5141166399186557
9106165,1974.625,1,179343,229515,0.85,-2.41,10.04,0.01,-0.05,0.04,27.03,7.184678,72.32200124567362,438.39049973362444,10.360125481865554,0.06480740698407861,2.2489048791352397,0.34595851678910605
9146161,1974.625,1,179008,228446,1.72,-2.25,9.52,-0.02,-0.12,0.02,27.03,7.224674,56.85152002872572,322.8100191125721,9.932336079694444,0.12328828005937952,1.7684646595443894,0.25513187648911356
9186859,1974.625,1,179188,229149,0.35,-1.85,10.1,-0.0,-0.0,0.03,26.91,7.265372,84.05889260374848,235.64171957714746,10.27399630134253,0.03,2.613397397649147,0.18663238812460559
9225223,1974.625,1,178707,227299,1.41,-1.2,8.88,0.01,-0.09,0.02,26.91,7.303736,42.60299243035037,71.23998225083399,9.070970179644513,0.09273618495495703,1.3259725591234643,0.057440526483297165
9265165,1872.0,1,178527,227264,0.65,-1.59,10.3,0.01,0.06,0.04,26.91,7.343678,-4.077356753182528,-225.56782552318836,10.442250715243338,0.07280109889280519,-0.12369903788834861,-0.17580003325538748
9305141,1946.0,1,177775,225091,1.54,-1.33,8.3,0.02,-0.06,0.03,26.91,7.383654,4.608252754233416,-604.4270510046688,8.545788436417087,0.06999999999999999,0.146035049920883,-0.47351908072984905
9345165,1823.625,1,177250,224838,0.38,-2.42,10.32,-0.02,0.03,0.11,26.91,7.423678,-47.12337976095066,-938.840495749931,10.606752566172174,0.11575836902790225,-1.4605055958969548,-0.7363112883253845
9385164,1920.0,1,176877,224507,1.38,-1.98,8.97,-0.01,-0.04,0.03,26.91,7.463677,-16.563957777576434,-1118.5145504011073,9.289009635047215,0.05099019513592785,-0.5114740045475094,-0.8775045992145168
9425217,1962.0,1,177038,225001,1.09,-2.35,9.92,-0.01,0.0,0.03,26.91,7.50373,84.07204045859135,-1124.351491767834,10.25265819190321,0.03162277660168379,2.6138057080422934,-0.8820914444250503
9465159,1974.625,1,176944,224925,1.03,-2.3,7.47,0.01,-0.07,0.03,26.91,7.543672,53.623398328220325,-1022.7812766624745,7.88364129067273,0.07681145747868609,1.668214416716922,-0.8022744948588533
9505164,1847.0,1,177011,224719,0.8,-1.95,10.12,-0.01,-0.04,0.02,26.91,7.583677,-42.64589787436796,-893.9075897603041,10.337161118992002,0.045825756949558406,-1.3214561151059339,-0.7010016506770195
9545171,1829.0,1,176770,225265,1.19,-2.46,10.18,-0.0,-0.01,0.02,26.91,7.623684,-75.29744014388856,-768.0638408348993,10.540403218093697,0.022360679774997897,-2.335459100401775,-0.6021098234737297
9585173,1855.0,1,176702,225239,1.32,-1.97,9.48,-0.0,-0.1,0.01,26.91,7.663686,-43.094454228209756,-627.9914615243964,9.772087801488482,0.1004987562112089,-1.3353861609859896,-0.49203670781234815
9625173,1869.0,1,176951,225628,0.74,-1.81,10.57,0.02,-0.0,0.01,26.91,7.703686,-22.483527361597787,-461.6986657404039,10.74935346893012,0.022360679774997897,-0.6953079312979544,-0.36135879519254444
9665164,1882.0,1,176951,225744,0.81,-1.41,9.6,0.01,-0.05,0.01,26.91,7.743677,-19.746038524805765,-302.456021345747,9.73674483592951,0.05196152422706632,-0.6102944324007734,-0.2362211049429793
9705159,1879.0,1,177250,225896,0.64,-1.6,10.69,0.01,0.04,0.01,26.91,7.783672,-3.2740574016538266,-214.65976843135752,10.828005356481865,0.042426406871192854,-0.09875234673934655,-0.1672281518050949
9745141,1899.0,1,176571,224297,1.58,-1.77,10.25,-0.01,-0.08,-0.0,26.91,7.823654,-2.966340613503405,-245.02571389934783,10.52101706110203,0.0806225774829855,-0.0891961138596077,-0.1910906309328031
9785192,1871.0,1,176512,224197,0.76,-2.34,10.68,-0.03,0.0,-0.0,26.91,7.863705,-5.290762192791462,-388.1360353956027,10.959726273954109,0.03,-0.161381690915315,-0.3035510535224377
9825174,1893.0,1,176254,222826,0.52,-1.57,9.36,-0.0,-0.07,0.0,26.91,7.903687,-5.332100920186698,-589.4697420065463,9.504993424511138,0.07,-0.1626654769196971,-0.4617651745604983
9865171,1870.0,1,176170,223217,0.59,-2.34,10.37,-0.01,0.02,0.01,26.91,7.943684,-5.150923260811188,-770.4903086431632,10.647093500106026,0.024494897427831782,-0.15703895288113207,-0.6040166153267872
9905164,1890.0,1,175882,221777,0.88,-1.62,9.71,-0.02,-0.03,-0.0,26.91,7.983677,0.074152773222512,-854.710510963122,9.883465991240119,0.03605551275463989,0.005227278011541696,-0.6701993996603054
9945190,1859.0,1,175771,223030,0.98,-2.44,9.7,-0.02,-0.01,0.0,26.91,8.023703,-19.473903430261405,-791.1378212323507,10.0500746265886,0.022360679774997897,-0.6018431991942692,-0.6202420557207953
9985172,1863.0,1,175954,222896,1.5,-2.16,8.68,-0.02,-0.11,-0.01,26.91,8.063685,-16.88114580772557,-575.2741817437906,9.069619617161461,0.11224972160321824,-0.5213243695568083,-0.4506098736055779
10025199,1871.0,1,176422,224509,0.71,-2.32,9.87,-0.03,0.02,-0.01,26.91,8.103712,-10.30822748552155,-255.25202911775548,10.163828019009372,0.03741657386773942,-0.3172005108488483,-0.199126778982593
10065173,1823.625,1,176621,224873,1.02,-1.28,8.6,-0.02,-0.03,-0.02,26.91,8.143686,-50.47472412128761,88.9126079673213,8.754358914278075,0.0412310562561766,-1.5645825536738698,0.07132821072273632
10105193,1823.625,1,176978,225221,1.2,-2.23,9.85,-0.04,-0.01,-0.02,26.91,8.183706,-55.6983311982642,382.8289974833681,10.170319562334312,0.045825756949558406,-1.7268031656849334,0.30229660647090245
10145192,1839.0,1,176888,225660,1.29,-2.24,8.66,-0.04,-0.05,-0.02,26.91,8.223705,-35.10428965492048,585.1664548227366,9.037549446614387,0.0670820393249937,-1.087249314541114,0.46129950521495316
10185193,1853.0,1,177286,225662,0.87,-1.92,9.23,-0.04,-0.04,-0.02,26.91,8.263706,-21.62993523290918,688.7130344223118,9.467639621362867,0.060000000000000005,-0.6687993835677836,0.5426695418253749
10225879,1887.0,1,177185,225889,0.84,-1.75,9.35,-0.03,0.02,-0.02,26.71,8.304392,11.616044218117272,702.7710217471009,9.549376943026179,0.0412310562561766,0.3636640184410666,0.5537167338013
10266171,1897.0,1,177081,225485,1.13,-2.1,9.4,-0.05,-0.01,-0.03,26.71,8.344684,24.567661590641254,635.5066173419116,9.697778096038288,0.05916079783099616,0.7658802008113587,0.5008583287222113
10306193,1887.0,1,177053,225259,0.8,-2.16,9.65,-0.04,0.02,-0.03,26.71,8.384706,12.909593519746098,488.0001178294944,9.921093689709819,0.053851648071345036,0.4038355620285615,0.3849432563749082
10346171,1879.0,1,176617,224535,0.97,-1.92,9.53,-0.02,-0.02,-0.03,26.71,8.424684,4.907543920532505,261.18666641257425,9.769759464797483,0.04123105625617661,0.15532962270384287,0.20670638059493224
10386190,1875.0,1,176596,224112,0.49,-1.81,9.7,-0.02,0.03,-0.02,26.71,8.464703,3.600003182768347,-29.431174787459412,9.879585011527558,0.0412310562561766,0.114723571064854,-0.021669916039258597
10426171,1881.0,1,176206,223891,0.89,-2.31,9.73,-0.02,0.02,-0.02,26.71,8.504684,4.360996262762027,-341.41037331431795,10.039975099570716,0.034641016151377546,0.13835642884944271,-0.2668326138704154
10464171,1891.0,1,176084,221842,1.0,-2.38,9.95,-0.04,-0.01,-0.03,26.71,8.542684,20.424821209733285,-608.17537137742,10.279440646260865,0.05099019513592785,0.6372231077047267,-0.47646462434063586
10504189,1918.0,1,175396,222328,1.09,-2.49,9.94,-0.02,-0.02,-0.03,26.71,8.582702,40.32926237699163,-761.2362367140082,10.304940562662164,0.04123105625617661,1.2553612219060237,-0.5967444854835537
10544192,1879.0,1,176032,222760,0.83,-2.2,9.52,-0.01,0.01,-0.03,26.71,8.622705,7.040615229183236,-756.7130626962776,9.806084845645586,0.033166247903554,0.2215727623683297,-0.5931900384236766
10584172,1872.0,1,176110,223410,0.83,-2.02,10.07,-0.01,0.03,-0.03,26.71,8.662685,-6.702142904140245,-583.7763193674417,10.304086567959336,0.04358898943540673,-0.20521252263785117,-0.4572911107104506
10624171,1899.0,1,176382,224272,0.78,-2.41,9.53,-0.03,0.01,-0.04,26.71,8.702684,26.219360124841447,-254.02802251533987,9.860902595604522,0.05099019513592785,0.8171741712665053,-0.19816491754366272
10664171,1906.0,1,176745,225373,0.74,-2.12,9.84,-0.01,-0.0,-0.03,26.71,8.742684,24.30698957635433,204.22194235496,10.092948033156615,0.03162277660168379,0.7577849568413132,0.16194177610489985
10704188,1914.0,1,177186,226754,0.78,-2.35,9.27,-0.02,-0.01,-0.03,26.71,8.782701,40.803040533564484,732.7383490437635,9.594988275136139,0.03741657386773942,1.270074538084699,0.5772659667037834
10744187,1905.0,1,177986,227766,0.51,-2.06,9.93,-0.03,0.02,-0.06,26.71,8.8227,21.575192278388503,1231.7944385338565,10.154240493508118,0.06999999999999999,0.6729482103104691,0.9694393482823799
10784173,1823.625,1,178234,227833,0.88,-1.83,9.58,-0.03,-0.03,-0.2,26.71,8.862686,-54.260749770879215,1580.9178522989105,9.792839220573367,0.20445048300260876,-1.682158663231064,1.243791094805298
10824193,1823.625,1,178240,228257,0.6,-2.23,10.43,-0.02,-0.01,-0.05,26.71,8.902706,-56.44284611913722,1690.7950101170745,10.682593318103988,0.05477225575051661,-1.749924289524381,1.330135891406863
10864224,1823.625,1,178257,227594,0.62,-1.88,10.55,-0.01,0.01,-0.06,26.71,8.942737,-63.06709238110863,1549.5053595979189,10.734118501302286,0.061644140029689765,-1.9556421520843978,1.219106207182851
10904173,1823.625,1,177570,226567,0.78,-1.53,9.71,-0.02,-0.02,-0.05,26.71,8.982686,-52.98304254169662,1227.3758046698506,9.860699772328534,0.05744562646538029,-1.6424790997350807,0.9659670520397362
10944192,1909.0,1,177425,226668,0.47,-2.26,10.32,-0.03,0.04,-0.05,26.71,9.022705,18.121972860301405,838.5751872880236,10.575013002356073,0.07071067811865477,0.5657074934733194,0.6604357578834628
10984173,1902.0,1,177103,225146,0.52,-2.12,9.97,-0.02,-0.06,-0.06,26.71,9.062686,20.299631355556212,488.1354867858453,10.206159904685014,0.08717797887081347,0.6333353009721547,0.385049633398435
11024215,1900.0,1,176525,224980,0.27,-2.04,9.81,-0.01,0.01,-0.05,26.71,9.102728,14.365377362369104,235.35766819197363,10.023502381902246,0.051961524227066326,0.4490453456945278,0.18640917194788378
11064173,1915.0,1,176585,224350,0.28,-2.21,10.41,-0.02,0.02,-0.06,26.71,9.142686,21.354209236015027,85.87368677915471,10.645684571693828,0.066332495807108,0.6660855187163991,0.0689401344647513
11104172,1899.0,1,176238,224620,0.52,-2.82,10.29,-0.03,0.01,-0.07,26.71,9.182685,20.367987834040886,7.215121076546531,10.682083130176435,0.07681145747868609,0.6354581309651646,0.007127852536215813
11144171,1950.0,1,176292,223833,0.31,-2.54,9.16,-0.03,-0.06,-0.07,26.71,9.222684,48.35822427147416,-44.79449270077246,9.510693980987929,0.09695359714832658,1.5047029302586983,-0.03374287630407991
11184192,1919.0,1,176209,224327,0.11,-2.56,10.13,-0.03,0.0,-0.07,26.71,9.262705,39.44385405998002,-104.17968040407854,10.449047803508224,0.07615773105863909,1.2278646133463227,-0.08040955439447432
11224171,1951.0,1,175850,222852,0.77,-2.53,9.4,-0.04,-0.05,-0.08,26.71,9.302684,50.52091344738575,-190.2328681312122,9.764927035057662,0.10246950765959599,1.5718658612632912,-0.14803275414552702
11264890,1969.0,1,175633,222776,0.79,-3.17,10.38,-0.06,-0.05,-0.08,26.67,9.343403,81.14144343574887,-319.2497056076864,10.881975923516832,0.11180339887498948,2.5227951791878778,-0.24941809038182497
11305187,1949.0,1,175509,222170,0.4,-2.66,8.53,-0.05,-0.06,-0.09,26.67,9.3837,53.778643760559795,-514.0998848831048,8.944076251911094,0.11916375287812986,1.6730356080268562,-0.40253725938287477
11345190,1936.0,1,175293,220722,0.35,-2.01,9.71,-0.06,-0.04,-0.09,26.67,9.423703,39.103830477899265,-793.2269457862735,9.922031042080045,0.11532562594670795,1.2173050837395782,-0.6218837530331914
11385187,1919.0,1,174532,219913,0.39,-2.36,9.27,-0.05,-0.0,-0.09,26.67,9.4637,27.863622564844402,-1144.2178940810957,9.573640895709426,0.10295630140987,0.8682372116892295,-0.8977030647199817
11425189,1916.0,1,174148,218602,0.61,-2.25,9.15,-0.03,-0.06,-0.09,26.67,9.503702,11.499730098240942,-1507.5416116894341,9.442303744320027,0.11224972160321824,0.3600518501761466,-1.1832138398469882
11465193,1875.0,1,173982,218877,0.09,-2.44,9.66,-0.03,0.06,-0.04,26.67,9.543706,-12.697885432309464,-1788.3518313023133,9.96379947610348,0.07810249675906654,-0.39141202195841074,-1.4038830105607087
11505171,1844.0,1,173605,218031,0.83,-1.97,8.46,-0.03,-0.07,-0.09,26.67,9.583684,-68.0512942106795,-1890.5523478010198,8.72590396463312,0.11789826122551596,-2.110427965654363,-1.4841952700410583
11545193,1837.0,1,173789,218489,0.25,-2.83,10.05,-0.04,0.03,-0.09,26.67,9.623706,-48.01492824763177,-1754.2820935296381,10.443845077364946,0.10295630140987,-1.4881928891821645,-1.3771099793259676
11585171,1904.0,1,173746,219656,0.54,-2.4,8.77,-0.02,-0.02,-0.09,26.67,9.663684,-12.663244645992066,-1379.3480194843132,9.108485055155988,0.09433981132056604,-0.3903362424301761,-1.0824754346646026
11625191,1823.625,1,174814,220895,0.34,-2.55,10.15,-0.06,0.05,-0.1,26.67,9.703704,-64.69569959757628,-823.8274850602254,10.470940740926768,0.12688577540449522,-2.0062190150619883,-0.6459305830747926
11665173,1823.625,1,174815,222329,0.19,-2.83,8.99,-0.04,0.02,-0.1,26.67,9.743686,-89.11845170340497,-179.23021619432967,9.42682873505189,0.10954451150103323,-2.7646745679431106,-0.13938653720260125
11705171,1840.0,1,175760,223857,-0.05,-2.66,10.23,-0.06,0.05,-0.11,26.67,9.783684,-60.92986927293296,461.02376251613015,10.570288548568577,0.13490737563232041,-1.8892700770980237,0.3637444197937992
11745193,1849.0,1,176043,224975,0.17,-1.92,9.68,-0.04,0.03,-0.14,26.67,9.823706,-52.005728784758105,1019.5137028356567,9.870040526765834,0.14866068747318506,-1.6121283414484981,0.8026227204203368
11785173,1869.0,1,176391,225317,0.55,-2.21,10.31,-0.05,-0.01,-0.27,26.67,9.863686,-48.49795955096309,1434.2365552727827,10.558536830451462,0.27477263328068174,-1.5031935644803267,1.1285244915506492
11823194,1877.0,1,176640,225300,-0.16,-3.215,10.01,-0.05,0.0,-0.17,26.67,9.901707,-13.174169213999152,1654.2254320778293,10.51484308014152,0.17720045146669353,-0.4062031510418342,1.3013984100203386
11863193,1916.0,1,176455,224758,0.05,-2.49,9.9,-0.04,-0.04,-0.13,26.67,9.941706,-11.683824066235317,1649.5505905400412,10.208457278159125,0.14177446878757827,-0.35992005615830763,1.2977247780322156
11903194,1854.0,1,176461,224153,-0.26,-2.25,11.08,-0.04,0.07,-0.13,26.67,9.981707,-35.34696653380047,1436.2360152310907,11.30913347697338,0.15297058540778355,-1.0947857144335102,1.1300957277096586
11943193,1947.0,1,175868,222892,0.21,-2.58,10.13,-0.03,0.04,-0.14,26.67,10.021706,21.31310695007249,1092.881698097885,10.455496162306217,0.14866068747318506,0.6648090754689657,0.8602775119509423
11983173,1935.0,1,175484,221565,-0.09,-2.54,9.48,-0.03,-0.0,-0.14,26.67,10.061686,35.99467104827028,740.8130406962274,9.814789860205872,0.14317821063276354,1.1207492482638532,0.5836113038256824
12023226,1885.0,1,175220,222318,-0.15,-2.67,10.07,-0.03,0.05,-0.14,26.67,10.101739,-30.935395413596673,485.0867792462476,10.419035463995696,0.15165750888103102,-0.957783111346448,0.38265386672926205
12063194,1887.0,1,175136,221060,-0.28,-3.03,8.86,-0.05,0.01,-0.15,26.67,10.141707,-24.053444378872133,351.1338289388538,9.367972032409147,0.1584297951775486,-0.7440621533510098,0.27738958361400073
12103192,1922.0,1,174801,221176,-0.36,-3.215,9.5,-0.05,-0.01,-0.14,26.67,10.181705,15.100600567343124,266.5881718015627,10.035727427546046,0.1489966442575134,0.47187791263879597,0.21095104703348624
12143211,1930.0,1,174890,221030,-0.55,-2.35,9.49,-0.05,0.01,-0.15,26.67,10.221724,11.224444196306642,112.48170415695392,9.792093749551217,0.1584297951775486,0.3515027677448457,0.08984951994648226
12183192,1902.0,1,174835,220398,-0.34,-2.32,10.57,-0.05,0.02,-0.16,26.67,10.261705,0.2692056108397276,-183.4099992100954,10.82695247980705,0.16881943016134132,0.011284699679458074,-0.14267113721866853
12223193,1952.0,1,174063,218113,0.13,-2.66,8.34,-0.05,-0.04,-0.15,26.67,10.301706,30.118248911088575,-578.9820606795716,8.754890062130992,0.16309506430300091,0.9382552778175286,-0.4535236371110289
12263192,1968.0,1,173679,217855,-0.39,-2.19,9.6,-0.05,0.01,-0.15,26.67,10.341705,69.1824903313273,-933.9214719416034,9.854349293586056,0.1584297951775486,2.1514064696194435,-0.7324457705176596
12303880,1951.0,1,173648,217507,-0.1,-2.09,9.26,-0.06,0.05,-0.17,26.65,10.382393,29.103836890382116,-1101.5077374868076,9.493455640597896,0.18708286933869708,0.9067524223375129,-0.8641401308292296
12344188,1872.0,1,173725,218484,-0.4,-2.49,10.47,-0.04,0.04,-0.17,26.65,10.422701,-25.57292525866268,-1021.5399126450824,10.769447525291167,0.17916472867168917,-0.7912500667270289,-0.8012989934378244
12384193,1886.0,1,174403,220088,-0.27,-2.24,10.21,-0.03,0.06,-0.17,26.65,10.462706,-32.11223766344358,-741.7052908262439,10.45631866385106,0.18275666882497066,-0.994330284056295,-0.5813964770020639
12424193,1871.0,1,174527,220251,0.12,-2.49,9.33,-0.04,0.01,-0.17,26.65,10.502706,-28.060157870586533,-364.81549645287,9.657297758690058,0.17492855684535902,-0.8684917869740459,-0.28522506810714826
12464172,1926.0,1,174942,221667,-0.02,-2.98,9.76,-0.04,-0.01,-0.17,26.65,10.542685,15.614365214677264,16.50795803868604,10.20482238943922,0.17492855684535902,0.4878330207263728,0.014430445115788315
12504213,1968.0,1,175259,221725,-0.24,-2.02,8.87,-0.04,-0.01,-0.17,26.65,10.582726,66.3468700000911,341.7439446893471,9.100269226786645,0.17492855684535902,2.0633454690913573,0.27001072833838796
12544205,1974.0,1,175485,223062,-0.29,-2.38,9.73,-0.02,0.06,-0.17,26.65,10.622718,71.67985946366913,564.5897535159717,10.021047849401779,0.18138357147217055,2.2289629824076367,0.4451297104701344
12584186,1974.625,1,176055,223096,-0.4,-2.86,10.21,-0.04,0.05,-0.17,26.65,10.662699,73.55028621912766,640.5091399333154,10.61054664001813,0.1816590212458495,2.2870496203421213,0.5047894624011904
12624187,1974.625,1,175834,222658,-0.49,-2.86,9.7,-0.03,0.01,-0.17,26.65,10.7027,76.74673065986033,544.9470979449089,10.12470740317961,0.17291616465790585,2.386316116805929,0.4296939171380499
12664185,1974.625,1,175498,220655,-0.19,-2.6,9.07,-0.03,-0.03,-0.18,26.65,10.742698,79.2515189697347,298.26629486239904,9.437213571812393,0.1849324200890693,2.464103034274683,0.23584467503334602
12705204,1974.625,1,175182,221263,-0.58,-3.215,10.61,-0.04,0.03,-0.18,26.65,10.783717,77.3745245584109,-39.93468017557971,11.101564078993553,0.18681541692269404,2.4058124359085955,-0.029923888514971506
12743186,1925.0,1,175164,219872,-0.39,-2.49,9.17,-0.02,-0.03,-0.18,26.65,10.821699,38.45546036365425,-406.91281258961413,9.510052576090207,0.1835755975068582,1.197169764372604,-0.3183064134156457
12783204,1898.0,1,174602,219468,-0.48,-2.41,9.78,-0.01,0.02,-0.18,26.65,10.861717,0.19509321014026665,-765.1163829405396,10.083992264971249,0.18138357147217055,0.0089831178755613,-0.5997936218406174
12823186,1878.0,1,174587,219265,-0.38,-2.47,10.0,0.0,0.02,-0.19,26.65,10.901699,-0.09712946242617695,-1092.8066747230005,10.307536078035332,0.191049731745428,-9.194081255786155e-05,-0.8573025723277465
12863171,1883.0,1,174402,218693,-0.45,-1.98,9.36,0.01,0.01,-0.18,26.65,10.941684,-13.581003235811266,-1349.3388427346015,9.577708494206743,0.18055470085267789,-0.4188374979658533,-1.0588933151951279
12903185,1823.625,1,174194,219257,-0.12,-1.94,10.11,-0.0,0.03,-0.18,26.65,10.981698,-49.540325119630026,-1457.5802102382668,10.295149343258698,0.18248287590894657,-1.5355645253884893,-1.1439526582520905
12943191,1837.0,1,174526,219422,-0.23,-2.55,9.14,-0.01,0.02,-0.18,26.65,11.021704,-54.61165909405203,-1333.9885270720545,9.491838599554884,0.18138357147217055,-1.6930562526413362,-1.0468305724925375
12983187,1831.0,1,174633,221092,-0.06,-1.95,9.44,0.0,0.02,-0.18,26.65,11.0617,-42.25486485630974,-951.783351736379,9.6394865008464,0.18110770276274832,-1.3093124728734378,-0.7464821763405498
13023184,1838.0,1,175703,223061,-0.28,-2.19,9.63,-0.0,0.06,-0.19,26.65,11.101697,-45.13927030483717,-384.71260258580253,9.879848176971143,0.19924858845171275,-1.3988885091741987,-0.30086081639298357
13063186,1840.0,1,176262,224416,-0.22,-2.75,10.19,0.0,0.0,-0.18,26.65,11.141699,-37.314367484247285,212.82014143012896,10.556846119935631,0.18,-1.1558839137332468,0.16869850120616106
13103170,1851.0,1,176694,225061,0.0,-2.32,9.86,-0.0,-0.03,-0.19,26.65,11.181683,-22.82484238341485,682.1757007439785,10.129264534012329,0.19235384061671346,-0.7059075669351319,0.5375323071354643
13143185,1850.0,1,176952,225462,-0.02,-2.24,10.16,-0.01,0.01,-0.19,26.65,11.221698,-32.1649049910983,940.0671626664451,10.404018454424232,0.1905255888325765,-0.9959658829823307,0.7401912243039108
13183187,1833.0,1,177127,225991,-0.34,-2.62,9.96,-0.01,0.02,-0.19,26.65,11.2617,-34.829705144790175,1008.9855740445473,10.304445642537011,0.19131126469708992,-1.0787220140329223,0.7943493981292032
13223187,1855.0,1,177209,225847,-0.04,-1.63,10.12,-0.0,-0.01,-0.19,26.65,11.3017,-28.818964240238902,986.0357767968609,10.250507304519127,0.1902629759044045,-0.8920567358434672,0.7763147527602541
13263204,1823.625,1,177149,225917,-0.17,-2.17,10.07,-0.01,0.04,-0.19,26.65,11.341717,-45.11684413773653,976.514658911809,10.302557934804348,0.1944222209522358,-1.3981920581397855,0.7688327701213801
13303875,1823.625,1,177134,225713,0.29,-2.21,10.54,-0.02,0.01,-0.19,26.67,11.382388,-56.80447366587668,1033.0502367380182,10.773105401879254,0.19131126469708992,-1.7611547364335096,0.8132601385124926
13342171,1835.0,1,177422,226231,-0.16,-2.15,10.17,-0.04,0.03,-0.19,26.67,11.420684,-41.1642824844641,1133.660907633627,10.396008849553755,0.19646882704388502,-1.2754441253499342,0.8923230491932076
13382187,1857.0,1,177441,225846,0.39,-1.92,10.09,-0.05,-0.02,-0.19,26.67,11.4607,-18.037074272006898,1208.448194421791,10.278453191020525,0.19748417658131498,-0.5572220586734368,0.9510931629669317
13422192,1863.0,1,177760,225862,-0.59,-2.47,10.37,-0.05,0.04,-0.19,26.67,11.500705,-21.807851897871114,1192.401475064548,10.676417938615929,0.20049937655763422,-0.6743246364920134,0.9384831651608683
13462187,1843.0,1,176899,225185,0.5,-1.74,8.77,-0.05,-0.06,-0.2,26.67,11.5407,-30.935120746835228,1063.4933931280077,8.954914851633152,0.2147091055358389,-0.9577745814916017,0.837183292319887
13502189,1871.0,1,177291,224920,-0.13,-2.26,10.52,-0.08,0.03,-0.19,26.67,11.580702,-17.603165472505218,842.4257671812754,10.760803873317272,0.2083266665599966,-0.54374689678341,0.6634616601208606
13542187,1885.0,1,176684,224690,-0.08,-2.11,9.15,-0.05,-0.04,-0.19,26.67,11.6207,4.13449521773343,568.4938305991359,9.390473896454854,0.20049937655763422,0.13132237410446918,0.44819765241872855
13582205,1913.0,1,176788,223432,0.28,-1.94,10.04,-0.08,-0.01,-0.19,26.67,11.660718,26.121863035911964,282.27563342293934,10.229545444446687,0.20639767440550294,0.8141463712803333,0.22327872923595313
13622188,1897.0,1,176128,224047,0.14,-2.79,9.94,-0.06,0.02,-0.19,26.67,11.700701,4.730477106230925,24.787378684737863,10.325081113482838,0.20024984394500786,0.14983076213497387,0.020936664478007416
13662171,1872.0,1,176023,222926,0.79,-1.96,8.88,-0.07,-0.07,-0.2,26.67,11.740684,-13.90329468479226,-162.67660238886677,9.127984443457384,0.223159136044214,-0.4288463511068307,-0.12637820639540168
13702186,1914.0,1,175971,223366,0.17,-2.3,9.79,-0.06,0.02,-0.18,26.67,11.780699,13.813950965131896,-251.27233056224358,10.057981904935005,0.19078784028338913,0.4319206411904037,-0.19599941139196161
13743170,1911.0,1,175933,223242,0.41,-2.31,8.89,-0.06,-0.04,-0.19,26.67,11.821683,19.148669777386537,-243.06586913065485,9.194362403125082,0.20322401432901577,0.597591859924523,-0.18955052558894733
13783186,1941.0,1,176072,223558,0.22,-1.95,10.35,-0.06,0.03,-0.19,26.67,11.861699,39.57156524862352,-179.72839328897248,10.534391297080244,0.20149441679609884,1.2318307208419883,-0.13977801984342164
13823170,1968.0,1,175894,223430,0.6,-2.04,9.45,-0.04,-0.0,-0.18,26.67,11.901683,65.02730161767225,-134.1950885109468,9.686284117245373,0.18439088914585774,2.0223658955070567,-0.1039965706530262
13863185,1940.0,1,175930,222824,0.32,-1.24,10.0,-0.05,0.01,-0.18,26.67,11.941698,39.202458655220376,-187.23097215235686,10.081666528902849,0.18708286933869706,1.220368009999305,-0.14567377341777404
13903170,1920.0,1,175675,222629,-0.01,-2.06,10.76,-0.04,0.15,0.09,26.67,11.981683,7.441264663000772,-393.81930092086867,10.955423314505012,0.17944358444926362,0.23401504514304883,-0.30801713560497457
13943171,1885.0,1,175311,221717,0.75,-1.32,8.77,-0.05,0.01,0.01,26.67,12.021684,-18.320958177970994,-749.3094566286304,8.900438191460013,0.05196152422706632,-0.5660381545793794,-0.5873720606681267
13983159,1918.0,1,175122,220654,0.24,-2.34,10.29,-0.07,0.02,-0.08,26.67,12.061672,-0.019291579516732847,-1175.1415624984375,10.555439356085563,0.10816653826391968,0.0023253369070603516,-0.922003819423597
14023180,1950.0,1,174237,218584,0.51,-2.25,9.38,-0.06,0.01,0.04,26.67,12.101693,42.07965835090388,-1543.7680738785482,9.659554855168016,0.07280109889280519,1.3097202695842607,-1.2116816904123424
14063159,1957.0,1,174181,218313,0.51,-2.09,9.98,-0.07,0.01,-0.15,26.67,12.141672,34.9445680322361,-1737.7803532440273,10.209240912036506,0.16583123951776998,1.0881379987143704,-1.3641424123008823
14103170,1941.0,1,174292,219065,0.27,-2.2,9.8,-0.04,0.08,-0.16,26.67,12.181683,29.666160698550968,-1704.6334223841775,10.047532035281103,0.18330302779823363,0.9242155490553711,-1.338094550671659
14143177,1955.0,1,174689,219779,0.4,-2.32,9.76,-0.06,0.04,-0.16,26.67,12.22169,28.85449372332146,-1465.592244453787,10.039920318408907,0.17549928774784243,0.8990089989587452,-1.1502487572633948
14183170,1922.0,1,174863,221207,0.49,-2.49,10.42,-0.05,0.05,-0.16,26.67,12.261683,8.152620971265934,-1078.8736268938767,10.724579245825916,0.17492855684535902,0.2561064187827937,-0.846353561589441
14223172,1938.0,1,175258,222300,0.58,-2.04,9.47,-0.04,0.0,-0.16,26.67,12.301685,9.766016980843997,-599.762436675352,9.704581392311573,0.16492422502470644,0.3062108933791961,-0.46985348559172085
14263171,1935.0,1,175947,223551,-0.01,-2.31,9.77,-0.06,0.05,-0.16,26.67,12.341684,17.350232407652957,-75.4844236924874,10.039377470739906,0.17804493814764855,0.541740872956604,-0.05785995306339185
14303189,1934.0,1,176194,224592,0.38,-2.26,9.77,-0.04,0.0,-0.17,26.67,12.381702,7.127942782458141,432.2140642411659,10.035183107447516,0.1746424919657298,0.22428474451570884,0.3411048868180653
14343866,1925.0,1,176860,225267,0.38,-1.58,9.55,-0.03,-0.0,-0.38,26.77,12.422379,2.4284044065030344,836.5957729132999,9.687275158681103,0.38118237105091834,0.07833923592700189,0.658880274150815
14382189,1929.0,1,177002,226142,0.35,-1.93,9.48,-0.02,0.04,-0.15,26.77,12.460702,5.235359043424326,1054.8273652928644,9.680795421864879,0.15652475842498528,0.16551001511819208,0.8303732653258573
14422171,1919.0,1,177146,225311,0.6,-1.79,9.14,-0.03,-0.02,-0.27,26.77,12.500684,-6.837704936105251,1060.0981254889273,9.332936301079098,0.2723967694375247,-0.2094224403186341,0.8345151882341457
14462189,1910.0,1,176786,225507,0.28,-1.7,9.32,-0.01,0.04,-0.14,26.77,12.540702,-12.104178952023444,909.3839306953691,9.47791116227621,0.14594519519326427,-0.37297429738080384,0.7160794118377967
14502171,1926.0,1,176683,224728,0.68,-2.11,10.02,-0.03,0.01,-0.14,26.77,12.580684,1.0964581008150416,712.7328602882812,10.262304809349603,0.14352700094407325,0.036975262394819276,0.5615450480724001
14542194,1920.0,1,176457,225133,0.32,-2.13,9.96,-0.02,0.01,-0.14,26.77,12.620707,-3.220513134645156,560.318263191756,10.19023552230271,0.14177446878757827,-0.09708951421082149,0.44177304407510154
14582171,1911.0,1,176418,224653,0.8,-2.13,9.49,-0.03,-0.05,-0.14,26.77,12.660684,-9.54149063342769,465.2303410267495,9.758944615069808,0.15165750888103102,-0.29338927857865743,0.36705007652082366
14622189,1913.0,1,176454,224809,0.35,-1.74,9.89,-0.03,0.0,-0.13,26.77,12.700702,-11.691379659708517,371.6756625781249,10.047994824839432,0.13341664064126335,-0.36015469727492827,0.2935319782902565
14662171,1899.0,1,176400,224538,0.44,-2.45,9.67,-0.02,-0.01,-0.13,26.77,12.740684,-17.554934660966726,222.90582526379976,9.98523910580012,0.1319090595827292,-0.5422490751344485,0.17662413685690445
14702189,1909.0,1,176108,223141,0.7,-2.04,9.81,-0.03,-0.01,-0.14,26.77,12.780702,-14.07656652578294,28.35339221304317,10.044286933376606,0.14352700094407325,-0.43422735769396115,0.02373894585198968
14742186,1890.0,1,175775,223110,0.29,-2.33,9.28,-0.03,0.02,-0.13,26.77,12.820699,-25.324543448175874,-132.59090355590754,9.57242915878723,0.13490737563232041,-0.7835364985516624,-0.10273595355658309
14781171,1891.0,1,175867,222839,0.44,-1.88,9.82,-0.04,-0.04,-0.13,26.77,12.859684,-27.340371404499283,-175.33909083141432,10.008016786556665,0.14177446878757827,-0.8461386123716528,-0.136328773107828
14821187,1904.0,1,176096,223894,0.24,-2.01,9.49,-0.03,0.02,-0.13,26.77,12.8997,-11.271290828497913,-84.72375016820384,9.703494216002811,0.13490737563232041,-0.3471087184534431,-0.06512049548296753
14861171,1898.0,1,176230,223645,0.78,-1.54,9.88,-0.01,-0.03,-0.13,26.77,12.939684,-15.342196950112639,66.9710024435855,10.029675966849577,0.13379088160259653,-0.4735318725606152,0.0540858329284906
14901187,1904.0,1,176360,224567,0.76,-1.5,9.85,-0.0,0.03,-0.12,26.77,12.9797,-10.080105549226737,171.37854506679506,9.992502189141616,0.12369316876852982,-0.3101161188619394,0.13613244034428565
14941171,1906.0,1,176419,223823,1.04,-1.84,9.78,-0.01,-0.03,-0.13,26.77,13.019684,-3.5040936574398054,157.70440687949548,10.005778330544805,0.13379088160259653,-0.10589618846565299,0.1253868886397357
14981186,1900.0,1,176123,223356,0.78,-2.05,9.78,-0.02,-0.02,-0.12,26.77,13.059699,-11.93870730662,29.29360769379247,10.022938690823166,0.12328828005937953,-0.36783552809891495,0.024477795637140573
15021197,1903.0,1,175996,222831,0.7,-2.0,10.05,-0.02,-0.02,-0.12,26.77,13.09971,-3.158614382056842,-157.02555270272768,10.270954191310562,0.12328828005937953,-0.09516723074278363,-0.12193744049442608
15061186,1913.0,1,175866,222600,0.65,-1.48,9.56,-0.03,-0.05,-0.12,26.77,13.139699,3.4520311708897613,-338.53034605891355,9.695694920943007,0.13341664064126332,0.11012825790792602,-0.2645694012745236
15101188,1905.0,1,175750,223041,0.65,-1.43,9.65,-0.01,0.01,-0.09,26.77,13.179701,1.278909345437581,-474.83599455134885,9.777008745009898,0.09110433579144299,0.04264133798754542,-0.3716825058399034
15141171,1903.0,1,175972,223319,0.91,-1.59,10.28,-0.03,-0.0,-0.1,26.77,13.219684,-2.7686896243174646,-540.9453376180564,10.441963416905844,0.1044030650891055,-0.083058005851512,-0.42363322875543835
15181188,1898.0,1,175663,223109,1.22,-1.06,8.37,-0.0,-0.03,-0.06,26.77,13.259701,-5.768965787192446,-512.243855224007,8.524605562722535,0.0670820393249937,-0.17623244033165855,-0.40107873509462844
15221186,1905.0,1,175787,223245,1.06,-1.43,9.95,-0.03,-0.05,-0.1,26.77,13.299699,5.074037158001705,-375.1127398000377,10.107967154675562,0.11575836902790226,0.1605001178195646,-0.2933169536275165
15261188,1904.0,1,175947,224218,1.21,-1.59,9.24,-0.01,0.0,-0.1,26.77,13.339701,-1.5345232687762753,-156.9201466161428,9.45356017593372,0.1004987562112089,-0.044730616641519,-0.12185460920093923
15301171,1891.0,1,176420,224930,1.16,-1.6,9.85,-0.02,0.0,-0.1,26.77,13.379684,-3.649566748580426,69.31665194888757,10.046297825567386,0.10198039027185571,-0.1104138969242363,0.05592911531270592
15341171,1920.0,1,176743,225498,0.73,-1.87,9.3,-0.02,0.03,-0.1,26.77,13.419684,14.609620215410313,232.690464733676,9.514189403201936,0.1063014581273465,0.45663037736245443,0.1843132027339474
15381857,1899.0,1,176637,224006,1.09,-1.7,10.0,-0.03,-0.05,-0.1,26.53,13.46037,5.583434455393068,328.9496293929183,10.201867476104558,0.11575836902790226,0.17631959660536897,0.25995656809377515
15422187,1902.0,1,176460,224449,0.82,-1.46,9.92,-0.04,0.02,-0.09,26.53,13.5007,0.4952492095925298,432.39152916817307,10.060337966489993,0.1004987562112089,0.018304548299482293,0.3412443441295813
15462170,1908.0,1,176947,225680,0.63,-1.46,9.63,-0.03,0.01,-0.09,26.53,13.540683,12.328953253315413,628.9913212385518,9.760399581984336,0.09539392014169457,0.38580361245987943,0.4957384118257936
15502170,1906.0,1,177211,225774,0.62,-0.86,9.27,-0.02,-0.0,-0.08,26.53,13.580683,9.270953396018095,923.0494590763099,9.330428714694731,0.08246211251235322,0.29083655213733306,0.7268181976958905
15542186,1903.0,1,177429,226182,0.62,-1.14,9.11,-0.03,-0.01,-0.09,26.53,13.620699,5.734454871388096,1200.0457001376135,9.201961747366699,0.09539392014169457,0.18100957882414234,0.9444902286144272
15582188,1904.0,1,177580,225783,0.56,-0.65,9.25,-0.04,-0.01,-0.08,26.53,13.660701,8.92827276033734,1283.5596680336457,9.289703978060873,0.09,0.2801945069709788,1.0101180325598662
15622186,1899.0,1,177307,225446,0.76,-1.19,9.58,-0.04,0.04,-0.04,26.53,13.700699,3.4317559358211946,1050.4990889225405,9.683496269426659,0.06928203230275509,0.10949860468305238,0.8269719747368757
15662170,1893.0,1,176888,224101,0.69,-0.65,9.54,-0.04,-0.03,-0.08,26.53,13.740683,-3.9011869554776726,525.2560210736091,9.586980755170002,0.09433981132056604,-0.1182280344264864,0.4142200728825235
15702186,1901.0,1,176093,222617,0.47,-1.16,9.93,-0.06,0.0,0.1,26.53,13.780699,8.45403850644426,-114.75652130982684,10.008566330898747,0.11661903789690602,0.26546702655955534,-0.08872115613980977
15742159,1899.0,1,175518,221805,0.45,-1.41,9.93,-0.06,0.02,0.08,26.53,13.820672,0.6935974446761698,-631.6752232368221,10.039696210543426,0.1019803902718557,0.02446430947838128,-0.4949315192736567
15781165,1875.0,1,175334,221633,0.42,-0.89,9.97,-0.04,0.02,-0.02,26.53,13.859678,-17.779522487751294,-859.0359665409168,10.018452974386815,0.048989794855663564,-0.5492237143395693,-0.6735984735851321
15821171,1899.0,1,175420,222563,0.57,-0.91,10.06,-0.05,0.07,-0.07,26.53,13.899684,3.5385056403264277,-784.7114333529431,10.117143865736022,0.11090536506409418,0.11281374729268032,-0.6151920055980165
15861171,1903.0,1,175995,223431,0.4,-1.0,10.29,-0.06,0.05,-0.07,26.53,13.939684,5.317938317577821,-533.9069015521691,10.346211867152151,0.10488088481701516,0.1680745380991899,-0.418102212640989
15901171,1878.0,1,175957,223434,0.64,-0.73,9.65,-0.05,-0.01,-0.07,26.53,13.979684,-12.018918091885176,-277.83126727126563,9.698711254594603,0.08660254037844388,-0.3703264969799695,-0.21687022779849272
15941186,1890.0,1,176019,223312,0.7,-0.97,10.54,-0.08,0.03,-0.07,26.53,14.019699,-12.730505314364711,-142.84702212823777,10.607662324942286,0.11045361017187261,-0.39242504172669573,-0.11079552198403465
15981202,1872.0,1,175946,223543,0.75,-0.88,9.92,-0.06,-0.0,-0.07,26.53,14.059715,-15.741954261957005,-174.25407629178994,9.987156752549748,0.09219544457292887,-0.4859464502322622,-0.135476135839137
16021195,1899.0,1,176051,223564,0.31,-1.05,10.52,-0.09,0.05,-0.07,26.53,14.099708,-3.7624843665888563,-348.7121977562377,10.576814265174557,0.12449899597988733,-0.11392058585206453,-0.2725706085435327
16061171,1898.0,1,175863,222845,0.44,-0.65,10.33,-0.06,0.04,-0.06,26.53,14.139684,6.650488336568983,-598.1035708639945,10.359777989899204,0.09380831519646858,0.20945726012069724,-0.46854989862319013
16101171,1906.0,1,175485,221863,0.29,-1.35,9.88,-0.08,0.05,-0.07,26.53,14.179684,7.911002068221323,-828.586107184914,9.976021250979771,0.11747340124470732,0.24860287463260375,-0.6496700523841454
16141170,1911.0,1,175280,221786,0.65,-0.89,10.18,-0.08,0.01,-0.07,26.53,14.219683,13.235967862581639,-947.3875635696313,10.239482408793913,0.10677078252031312,0.4139712106061215,-0.7430278329383523
16181179,1905.0,1,175553,222896,0.33,-1.21,9.9,-0.09,0.04,-0.07,26.53,14.259692,11.81445993514682,-902.9457274204735,9.979128218436719,0.12083045973594572,0.3698258752910993,-0.708104092835341
16221170,1920.0,1,175717,223143,0.68,-0.64,9.58,-0.08,-0.01,-0.06,26.53,14.299683,17.515921830177742,-716.0202440049658,9.625403887629858,0.1004987562112089,0.5468864053692922,-0.5612123897220204
16261186,1904.0,1,175956,223636,0.61,-0.95,9.86,-0.09,0.02,-0.06,26.53,14.339699,12.684320857529842,-472.8416595523473,9.924424416559381,0.11,0.3968396550632095,-0.3701152970290499
16301170,1901.0,1,176224,224244,0.5,-0.7,9.97,-0.09,0.0,-0.06,26.53,14.379683,-2.8415965490769213,-276.42099561819936,10.0070425201455,0.10816653826391967,-0.0853221512552603,-0.21576199364450707
16341170,1898.0,1,176457,224113,0.45,-1.03,9.77,-0.1,0.01,-0.06,26.53,14.419683,5.277537936385125,-183.45282013146706,9.834444569979537,0.11704699910719625,0.16681989270454572,-0.1427047871948742
16381170,1916.0,1,176348,224470,0.38,-1.15,9.81,-0.1,0.02,-0.06,26.53,14.459683,13.713923931060892,-167.0051005721471,9.884482788694612,0.11832159566199232,0.42881427303415987,-0.12977967129171883
16421856,1904.0,1,176599,224361,0.29,-0.99,10.23,-0.1,0.02,-0.06,26.55,14.500369,7.182609904224424,-131.8173982646036,10.28188212342468,0.11832159566199232,0.22598244761992903,-0.10212810968462564
16460171,1894.0,1,176644,225623,0.21,-1.4,9.8,-0.08,0.05,-0.05,26.55,14.538684,-4.260128540150204,23.73973669881138,9.901722072447804,0.10677078252031312,-0.12937506801529552,0.020113395693281643
16500171,1893.0,1,177042,225882,0.24,-1.27,8.4,-0.08,-0.01,-0.17,26.55,14.578684,-10.044510573116304,337.8670076759816,8.498852863769322,0.1881488772222678,-0.309010706696732,0.26696411387817315
16540188,1894.0,1,177489,227567,-0.05,-1.19,10.5,-0.08,0.01,-0.06,26.55,14.618701,1.1340965258686668,755.3518114684726,10.56733646667882,0.1004987562112089,0.03814413445149503,0.595036309987962
16580186,1911.0,1,178266,228280,0.58,-0.84,9.0,-0.07,-0.02,-0.25,26.55,14.658699,1.6541354848941434,1158.2125726120873,9.057703903307946,0.2603843313258307,0.054294093083440444,0.9116164907136297
16620187,1874.0,1,178441,228454,0.41,-0.88,9.5,-0.05,-0.0,-0.06,26.55,14.6987,-15.116724081179624,1431.2766373428442,9.549476425438202,0.07810249675906655,-0.46652974811840425,1.126198498444413
16660186,1889.0,1,178267,227892,-0.16,-1.34,8.15,-0.06,0.05,-0.05,26.55,14.738699,-23.186791717269067,1511.2289596746155,8.260974518784089,0.09273618495495704,-0.717148007035158,1.1890274534942344
16700188,1876.0,1,178311,228448,0.18,-0.97,9.48,-0.05,0.03,-0.05,26.55,14.778701,-14.24234838799435,1390.991956229028,9.531196147388847,0.07681145747868609,-0.4393757608475602,1.0945415766055016
16740165,1907.0,1,178550,227884,0.09,-0.69,9.59,-0.04,0.05,-0.05,26.55,14.818678,-2.5463001383038155,1098.2997407648156,9.615211906141226,0.08124038404635961,-0.07615163674787705,0.8645351738830876
16780171,1892.0,1,177789,226667,-0.06,-1.02,9.77,-0.02,0.02,-0.05,26.55,14.858684,-4.335915030581512,682.0823483818076,9.823283565081484,0.05744562646538029,-0.1317286391546955,0.5374589480234888
16820186,1909.0,1,177300,226562,-0.27,-1.04,8.76,-0.03,0.01,-0.05,26.55,14.898699,5.519387956089666,211.8136806412083,8.825650117696712,0.05916079783099616,0.17433061424872176,0.16790759385259973
16860187,1918.0,1,177455,225267,0.23,-0.39,11.36,-0.03,-0.03,-0.05,26.55,14.9387,14.4391832752131,-230.72982537017373,11.369019306870756,0.06557438524302,0.4513374094304009,-0.1798564889891886
16900186,1898.0,1,176473,225322,0.43,-0.04,10.26,-0.01,-0.0,0.03,26.55,14.978699,-0.6192591927584117,-578.8787319639545,10.269084671965656,0.03162277660168379,-0.016306828945508892,-0.4534424382785306
16940171,1901.0,1,176776,225211,-0.15,-1.96,10.18,-0.05,0.04,-0.04,26.55,15.018684,-6.754695781170278,-812.5268852086821,10.368051890302246,0.0754983443527075,-0.2068445672669982,-0.6370502296416254
16980186,1887.0,1,176428,225474,0.32,-0.68,11.98,-0.0,-0.01,-0.05,26.55,15.058699,-10.488947457982515,-964.2554519539309,12.00354947505112,0.050990195135927854,-0.32281282128935884,-0.7562831302227118
17020188,1899.0,1,176690,225007,0.08,-1.63,11.11,-0.06,0.02,-0.05,26.55,15.098701,-9.536042274933578,-1083.8003733997377,11.229220810011707,0.0806225774829855,-0.2932200782470961,-0.8502251481266541
17060171,1899.0,1,176246,225006,0.57,-0.9,11.13,-0.02,-0.04,-0.05,26.55,15.138684,0.4341428943487586,-1179.4449823137302,11.180867587088223,0.0670820393249937,0.016406874199859357,-0.9253855769792257
17100187,1902.0,1,176852,225596,-0.05,-1.81,11.34,-0.08,0.06,-0.05,26.55,15.1787,-6.363603272211073,-1184.0695846670565,11.48364924577549,0.11180339887498948,-0.19469907752755453,-0.9290197294954557
17140186,1897.0,1,176609,225860,0.49,-1.45,9.3,-0.04,-0.03,-0.05,26.55,15.218699,-2.538741845937526,-986.6736641186791,9.425104773953445,0.07071067811865477,-0.07591691181635947,-0.7739000399423762
17180189,1917.0,1,177251,227017,0.08,-2.18,10.23,-0.07,0.03,-0.11,26.55,15.258702,8.44607356602325,-523.887276498183,10.46000478011363,0.13379088160259653,0.265219673056375,-0.410228487978925
17220171,1895.0,1,177889,228517,0.14,-0.55,9.34,-0.05,-0.03,-0.17,26.55,15.298684,-5.229747002709569,129.50684539613155,9.357227153382565,0.1797220075561143,-0.15948684673366095,0.1032283912842581
17260188,1895.0,1,178834,229646,0.33,-1.55,9.55,-0.06,0.01,-0.07,26.55,15.338701,-13.462794755789607,750.0263941400434,9.680593990040075,0.09273618495495704,-0.4151664998047301,0.5908514358505855
17300171,1899.0,1,178959,229725,0.35,-1.2,7.65,-0.05,-0.04,-0.07,26.55,15.378684,-2.481508954405267,1067.3379050051792,7.751451476981586,0.09486832980505139,-0.07413952799810727,0.8402044261265696
17340188,1917.0,1,179041,229083,0.26,-1.48,8.57,-0.05,0.0,-0.05,26.55,15.418701,9.541887140722974,927.0875137758858,8.700741347724342,0.07071067811865477,0.2992504770809208,0.7299914233109713
17380171,1922.0,1,178475,228139,0.35,-1.09,9.24,-0.05,-0.03,-0.05,26.55,15.458684,18.48120091929874,407.9927367287964,9.310649816205096,0.07681145747868609,0.5768634236042325,0.32207103447783203
17420188,1921.0,1,178017,227529,0.56,-1.7,9.45,-0.04,0.01,-0.04,26.55,15.498701,15.358273119005746,-195.50683669618516,9.61800914950698,0.05744562646538029,0.4798800074390344,-0.15217719828722248
17460857,1909.0,1,177554,227125,0.65,-1.94,8.85,-0.02,0.04,-0.05,26.59,15.53937,3.0177082375215845,-531.9895815330186,9.083424464374655,0.0670820393249937,0.09664023497221051,-0.41659552453255044
17501170,1905.0,1,177585,227051,0.35,-1.6,8.96,-0.04,-0.02,-0.05,26.59,15.579683,1.4127726951447876,-404.14516784248224,9.108463097581282,0.0670820393249937,0.046798502604896944,-0.31613151439657966
17541186,1918.0,1,178300,229225,-0.08,-1.38,10.11,-0.06,0.03,-0.05,26.59,15.619699,9.934642309390588,105.12853430057685,10.204062916309365,0.08366600265340755,0.3114476011932201,0.08407117649245563
17581188,1920.0,1,179111,230318,0.19,-1.07,8.97,-0.03,-0.01,-0.04,26.59,15.659701,17.70777141367942,685.5118696332423,9.035590738850448,0.05099019513592785,0.5528443490643458,0.540153969634677
17619218,1922.0,1,179440,230472,0.4,-1.45,9.35,-0.03,-0.02,-0.04,26.59,15.697731,13.228806520121097,1003.5093329570915,9.470216470598759,0.053851648071345036,0.41374881306747624,0.7900460021165395
17659188,1904.0,1,179234,230483,0.66,-1.98,9.82,-0.03,-0.01,-0.04,26.59,15.737701,1.5281962654077803,916.9220689866285,10.039342607959945,0.05099019513592785,0.05038301459682918,0.7220031090869592
17699187,1910.0,1,178840,228707,0.8,-1.4,11.53,-0.05,-0.04,-0.04,26.59,15.7777,1.9825057956485783,548.5134494678022,11.642203399700591,0.0754983443527075,0.06449172701567703,0.4324964641184105
17739187,1902.0,1,178361,229043,0.35,-2.11,11.3,-0.05,0.02,-0.04,26.59,15.8177,-1.4412985106807517,176.0672243112442,11.500634765090142,0.0670820393249937,-0.041835495111514416,0.1398169464211712
17779171,1898.0,1,178458,228744,0.49,-1.91,10.13,-0.05,-0.0,-0.04,26.59,15.857684,-9.194497638447006,32.59074803092148,10.320130813124416,0.06403124237432849,-0.28261331186067473,0.02706878831868914
17819211,1901.0,1,178624,229862,0.4,-1.52,10.75,-0.02,0.05,-0.04,26.59,15.897724,-2.573039519243728,164.08773741379397,10.864294730906375,0.0670820393249937,-0.0769820358718824,0.13040310299737945
17859171,1904.0,1,178985,229911,0.42,-0.85,10.67,-0.02,0.06,-0.04,26.59,15.937684,-3.6556241197738792,429.63335385008514,10.712039955115925,0.07483314773547883,-0.11060201031938639,0.3390768864744982
17899171,1890.0,1,179207,230503,0.18,-1.41,11.11,-0.03,0.04,-0.04,26.59,15.977684,-12.32695183954994,614.5057961062469,11.20056248587543,0.06403124237432849,-0.37989257312809394,0.4843552476991277
17939171,1901.0,1,178771,229408,0.5,-1.42,8.61,-0.06,-0.07,-0.04,26.59,16.017684,-8.030263630757382,559.0156177050601,8.740623547550827,0.1004987562112089,-0.2464576917176648,0.4407493858205001
17979187,1899.0,1,178666,228841,0.39,-1.37,9.8,-0.05,-0.02,-0.03,26.59,16.0577,-1.8649972950578786,226.15936959613384,9.902979349670483,0.061644140029689765,-0.05499358206122878,0.17918087047823153
18019186,1910.0,1,178141,228112,0.89,-0.93,9.57,-0.01,0.04,-0.03,26.59,16.097699,0.16902860620437607,-301.39743485728184,9.656184546703734,0.05099019513592785,0.008173674144438738,-0.2353892356368679
18059171,1903.0,1,177994,227699,0.33,-1.41,10.33,-0.04,0.07,-0.03,26.59,16.137684,2.3554920726143584,-864.1376038771662,10.431006662829814,0.08602325267042626,0.07607492254119838,-0.6776074946308202
18099171,1904.0,1,177103,225815,0.58,-1.39,8.48,-0.04,-0.04,-0.03,26.59,16.177684,-5.0180126527561475,-1287.4747594019093,8.612717341234415,0.06403124237432849,-0.15291137592832446,-1.010278645882845
18139188,1889.0,1,177012,225270,0.33,-1.53,9.83,-0.07,-0.0,-0.02,26.59,16.217701,-13.113517933627007,-1456.6782863715175,9.953828409210196,0.07280109889280519,-0.40431960818031426,-1.1432438991763103
18179186,1902.0,1,176802,226000,0.83,-1.0,8.58,-0.03,-0.06,-0.02,26.59,16.257699,-4.937941872797049,-1378.467426719764,8.677862640074455,0.06999999999999999,-0.1504247549520993,-1.081783438214625
18219187,1904.0,1,177549,227312,0.64,-1.65,9.24,-0.04,0.03,-0.02,26.59,16.2977,-0.12946669141854916,-1177.1815577522757,9.407959396170883,0.05385164807134504,-0.0010961827091211776,-0.9236069094448398
18259171,1904.0,1,177650,227469,0.62,-1.08,9.19,-0.02,0.03,-0.02,26.59,16.337684,-1.3958092906969966,-1003.864952720203,9.273990511101463,0.0412310562561766,-0.0404228143725294,-0.7874094749067742
18299171,1905.0,1,177647,227165,0.36,-1.28,10.87,-0.06,-0.01,-0.02,26.59,16.377684,0.30972527949004297,-917.0458907810562,10.95102278328376,0.06403124237432849,0.012543049580221316,-0.719184428016864
18339187,1904.0,1,177622,227544,0.63,-1.08,10.49,-0.04,0.01,-0.01,26.59,16.4177,-1.9639079714925274,-838.6849702101817,10.564251038289463,0.042426406871192854,-0.05806528141173659,-0.6576060446425805
18379171,1904.0,1,177624,228047,1.07,-1.95,8.66,-0.02,-0.02,-0.01,26.59,16.457684,0.7205614494420939,-633.5928264190513,8.94108494535199,0.030000000000000002,0.025301684359558055,-0.4964384299002139
18419186,1906.0,1,178240,228744,0.82,-1.25,9.62,-0.03,0.04,-0.01,26.59,16.497699,-1.7885501357627007,-248.42725477737298,9.735466090537216,0.05099019513592785,-0.05261949366127415,-0.19376366471959836
18459171,1895.0,1,178609,229323,0.63,-1.07,10.98,-0.02,0.03,-0.01,26.59,16.537684,-6.929735888112381,213.81259552825978,11.04998642533103,0.03741657386773942,-0.2122804878590702,0.1694784016781164
18499857,1908.0,1,179158,230267,0.23,-1.44,11.25,-0.06,0.04,-0.01,26.43,16.57837,-0.30389841480292074,555.4461631643985,11.344117418292178,0.07280109889280519,-0.006513209775777042,0.4379444003948486
18540170,1903.0,1,179168,229761,0.8,-1.62,10.22,-0.06,-0.07,-0.01,26.43,16.618683,0.1956740231076149,634.6768935648067,10.37847773038031,0.09273618495495704,0.009001155188406378,0.5002063066623745
18580186,1903.0,1,178863,228920,0.72,-1.28,9.21,-0.06,-0.05,-0.01,26.43,16.658699,-3.5335361664609337,478.2881794734824,9.326355129416852,0.07874007874011811,-0.10681053400546207,0.3773113212338068
18620188,1904.0,1,178570,228403,0.74,-1.61,10.62,-0.04,0.04,0.0,26.43,16.698701,-1.2708086499217006,259.8293937613763,10.766805468661538,0.0565685424949238,-0.03654088371627485,0.20563979466089763
18660158,1915.0,1,178192,228701,0.81,-1.56,10.09,-0.02,0.05,-0.0,26.43,16.738671,10.50733379333976,161.65452218081256,10.241962702529237,0.05385164807134505,0.329232699048155,0.12849100881373396
18700170,1919.0,1,178744,229151,0.24,-1.55,10.19,-0.06,0.03,-0.0,26.43,16.778683,12.382118957505762,239.25198659782473,10.310004849659382,0.0670820393249937,0.387454688611792,0.18946944523244955
18740170,1904.0,1,178664,229331,0.86,-1.01,10.13,-0.05,-0.06,-0.0,26.43,16.818683,-0.5282160558364609,401.7294349241816,10.216486675956663,0.07810249675906655,-0.01347945828511186,0.31714914232925046
18780188,1915.0,1,179113,229932,0.45,-1.72,9.83,-0.07,0.0,0.01,26.43,16.858701,9.200242936498258,516.4790326608671,9.989484471182685,0.07071067811865477,0.2886406185899096,0.4073228497078336
18820159,1919.0,1,178545,229018,1.06,-1.43,7.5,-0.02,-0.09,0.01,26.43,16.898672,13.176697495588103,536.9239743633661,7.70833963963706,0.09273618495495703,0.4121305524045907,0.42338910376724925
18860170,1904.0,1,178793,228875,0.71,-1.44,8.9,-0.04,0.01,0.0,26.43,16.938683,-1.2560428724452068,539.8900466758238,9.043655234472398,0.04123105625617661,-0.036082328272927386,0.42571993317356244
18900158,1902.0,1,178575,229737,0.9,-0.75,10.9,-0.01,0.04,0.01,26.43,16.978671,-3.2625599944823835,648.4523679683608,10.962777932622735,0.042426406871192854,-0.09839529147075397,0.5110314914331106
18940158,1904.0,1,179260,230305,0.53,-1.56,11.28,-0.06,0.05,0.01,26.43,17.018671,-3.3513153891148355,917.2594383825146,11.399688592237947,0.07874007874011811,-0.10115161563993198,0.7222682241704381
18980158,1901.0,1,179261,231315,0.53,-1.74,9.69,-0.04,-0.05,0.01,26.43,17.058671,-1.4757234241094037,1279.7028398722941,9.859239321570401,0.06480740698407861,-0.04290457064543763,1.00708722024426
19020170,1904.0,1,179927,231249,0.58,-1.52,9.86,-0.06,-0.02,0.0,26.43,17.098683,-5.910684449210466,1591.828329706419,9.993317767388366,0.06324555320336758,-0.18063355391986868,1.2523648782129133
19058171,1903.0,1,179839,231458,0.87,-0.97,10.79,-0.02,-0.03,0.01,26.43,17.136684,1.3100195596413897,1724.7332493538104,10.86838994515747,0.03741657386773942,0.04360747458885698,1.3568055871115947
19098171,1920.0,1,179453,230620,1.13,-1.35,10.23,-0.02,-0.01,0.02,26.43,17.176684,11.891218230336277,1628.2887362251765,10.380380532523844,0.03,0.3722096261052525,1.28101656931401
19138171,1909.0,1,179339,230091,0.55,-1.12,10.95,-0.02,0.01,0.01,26.43,17.216684,2.628148068329606,1330.2304402170744,11.02086203524933,0.024494897427831782,0.08454233248257051,1.0467933380686327
19178159,1923.0,1,178980,229090,0.67,-1.13,11.74,-0.05,-0.06,0.01,26.43,17.256672,21.403944717858465,897.0421251219925,11.813272196982512,0.07874007874011811,0.6676300683320983,0.7063808474310542
19218171,1918.0,1,178467,228173,0.84,-1.41,10.55,-0.06,-0.11,0.02,26.43,17.296684,4.933257716017189,403.35587685218576,10.67690029924416,0.1268857754044952,0.15612817197816295,0.3184272496287693
19258193,1862.0,1,177976,227625,1.19,-1.48,8.86,-0.02,-0.11,0.03,26.43,17.336706,-34.7798633397832,-75.91020291323251,9.061241636773627,0.11575836902790225,-1.0771741625209652,-0.0581945432634155
19298171,1911.0,1,177541,226093,1.22,-1.09,7.8,-0.02,-0.16999999999999998,0.03,26.43,17.376684,-3.777897170595983,-473.0378257757993,7.969723960087952,0.17378147196982766,-0.11439923488940557,-0.37026945038540166
19338171,1904.0,1,177167,225869,1.26,-1.34,9.73,-0.03,0.01,0.18,26.43,17.416684,5.600522036123679,-752.9916902548615,9.902328009109779,0.18275666882497066,0.176850256312935,-0.5902656713130483
19378159,1913.0,1,176961,225510,1.59,-0.91,8.06,-0.0,-0.06,0.04,26.43,17.456672,1.9046058264547845,-940.0857820647036,8.265579229551914,0.07211102550927978,0.062072521188738274,-0.737289872006423
19418171,1917.0,1,176964,225952,1.02,-1.01,9.33,-0.02,-0.02,0.06,26.43,17.496684,14.551948037742259,-1108.5675724098605,9.439777539751665,0.066332495807108,0.4548393513875954,-0.8696879628133842
19458171,1899.0,1,176850,225243,1.23,-1.1,9.35,-0.04,-0.12,0.04,26.43,17.536684,-9.550837178148711,-1324.9556650170052,9.494493140763229,0.132664991614216,-0.2936795381985886,-1.0397322760644123
19498171,1894.0,1,176617,224624,0.92,-1.13,9.87,-0.02,0.02,0.05,26.43,17.576684,-8.903082593200532,-1581.8354083789998,9.976983512064153,0.05744562646538029,-0.27356333427000257,-1.2415961541632592
19538845,1908.0,1,176122,223552,1.42,-1.42,7.53,0.01,-0.14,0.07,26.43,17.617358,-2.107298975864458,-1785.7699922779943,7.793182918422999,0.15684387141358122,-0.06251833007012822,-1.4018541233029793
19579158,1893.0,1,176192,224505,1.47,-0.94,8.3,0.03,-0.07,0.1,26.43,17.657671,-7.824161337502524,-1821.2715349591062,8.481420871528545,0.12569805089976535,-0.24005712604417653,-1.4297523101755893
19619158,1915.0,1,176589,225234,1.66,-0.97,9.75,0.01,-0.0,0.06,26.43,17.697671,3.2810748080829386,-1641.8575624623163,9.937756286003395,0.0608276253029822,0.10481915915814796,-1.2887633797160758
19659158,1890.0,1,176917,226259,1.35,-1.21,9.98,0.01,0.07,0.06,26.43,17.737671,-10.944775806075663,-1310.913183498252,10.1433229269308,0.09273618495495704,-0.33696870103107585,-1.0286972690202316
19699136,1889.0,1,177308,226743,1.16,-1.37,8.44,0.02,-0.09,0.06,26.43,17.777649,-21.39233388858315,-959.3719180914159,8.628794817354274,0.11,-0.6614206058528392,-0.7524455014886893
19739159,1889.0,1,177605,227176,1.5,-0.99,9.73,0.02,-0.09,0.07,26.43,17.817672,-14.123318800653784,-698.2971073625577,9.894594483858347,0.11575836902790225,-0.435679262963767,-0.547285012468024
19779158,1905.0,1,177777,227565,1.65,-0.61,9.17,0.049999999999999996,-0.02,0.07,26.43,17.857671,-4.244253194904073,-556.4352248874519,9.337210504213772,0.08831760866327847,-0.12888205462746527,-0.43580565105153113
19819159,1905.0,1,177874,227321,2.05,-0.58,9.1,0.049999999999999996,-0.01,0.07,26.43,17.897672,2.195242655389113,-485.55996530874984,9.34606334239181,0.08660254037844387,0.07109833104922463,-0.38010972667629683
19859158,1906.0,1,177930,227748,1.58,-0.71,9.87,0.03,0.06,0.08,26.43,17.937671,-6.07196791423968,-420.0245267122777,10.020848267487139,0.1044030650891055,-0.18564225806218856,-0.32860999526559503
19899139,1925.0,1,178081,227909,1.38,-0.86,11.55,0.0,0.06,0.07,26.43,17.977652,26.198953698856855,-336.3311299987853,11.663897290357113,0.09219544457292887,0.8165404438702067,-0.2628411907240749
19939137,1967.0,1,178347,228312,0.95,-0.74,12.49,-0.02,0.09,0.08,26.43,18.01765,50.29902481249359,-262.7199434396823,12.547916161658078,0.12206555615733702,1.5649750462345047,-0.20499529211097034
19979159,1922.0,1,178387,228111,1.34,-1.03,9.95,-0.0,-0.05,0.09,26.43,18.057672,26.143770969707948,-234.0827178728762,10.0925219841227,0.10295630140987,0.8148267284312274,-0.18249129341006615
20019170,1943.0,1,178325,227966,1.62,-0.66,10.38,-0.0,-0.07,0.09,26.43,18.097683,25.245143321106465,-236.9706828567843,10.526366894612785,0.1140175425099138,0.7869195897475556,-0.18476074371329163
20059170,1915.0,1,178498,228440,1.49,-0.62,10.83,0.01,0.11,0.1,26.43,18.137683,17.346315125718366,-199.43370364271817,10.949584467001475,0.1489966442575134,0.5416192206455698,-0.15526304920030234
20099137,1914.0,1,178510,228620,1.56,-0.81,10.03,0.01,0.01,0.09,26.43,18.17765,-0.7313771533295153,-40.58006669022358,10.182858144941429,0.09110433579144299,-0.01978868428287546,-0.030431052774066547
20139139,1889.0,1,178883,229696,1.18,-1.05,11.19,-0.04,0.05,0.09,26.43,18.217652,-12.410637083086367,260.0740498486373,11.300929165338573,0.11045361017187261,-0.38249144230464605,0.2058320528200215
20179159,1867.0,1,179469,230405,1.28,-0.57,10.85,-0.04,-0.03,0.09,26.43,18.257672,-45.26375642958534,634.567928273474,10.940100547984008,0.10295630140987,-1.4027544613880514,0.5001206784380595
20219170,1843.0,1,179710,230466,1.0,-0.95,10.02,-0.05,-0.04,0.1,26.43,18.297683,-59.71159390135668,968.5673182794458,10.114489606500172,0.11874342087037917,-1.8514361869407463,0.762587509285999
20259170,1866.0,1,179965,230975,1.15,-0.68,9.35,-0.04,-0.03,0.1,26.43,18.337683,-46.602449346217185,1183.2010026303365,9.444966913653007,0.1118033988749895,-1.4443279528529926,0.9312531554232212
20299170,1875.0,1,179996,230873,1.47,-0.61,8.64,-0.03,-0.08,0.11,26.43,18.377683,-27.334840874659267,1291.5727043996892,8.785362826884272,0.1392838827718412,-0.8459668601854389,1.016414919091387
20337171,1899.0,1,180131,231159,1.43,-0.3,9.78,-0.02,0.02,0.11,26.43,18.415684,-13.170663313588399,1383.5988905694062,9.888543876628145,0.11357816691600547,-0.40609427430170014,1.088731881821637
20377159,1904.0,1,180406,231719,1.21,-0.84,9.3,-0.02,-0.0,0.12,26.43,18.455672,-1.3144798156726627,1547.3254117970582,9.415927994626978,0.1216552506059644,-0.03789710426099815,1.217393138213786
20417171,1931.0,1,180312,231195,1.44,-0.59,9.69,-0.04,-0.1,0.1,26.43,18.495684,24.811125087456862,1783.546405689275,9.814163234835663,0.1469693845669907,0.773441029348761,1.403022745637716
20457171,1967.0,1,180417,231517,1.25,-0.83,11.41,-0.07,-0.1,0.11,26.43,18.535684,52.61542332787516,1982.6393056915554,11.508236181100907,0.16431676725154984,1.6369114647455638,1.5594759730133407
20497171,1959.0,1,180798,233075,1.11,-0.57,10.21,-0.05,-0.04,0.11,26.43,18.575684,63.87329841161724,1995.9947239984747,10.285966167550816,0.12727922061357855,1.986527995835375,1.5699710649882184
20537171,1968.0,1,180974,230862,1.87,-1.29,9.57,-0.06,-0.11,0.1,26.43,18.615684,42.585506238465825,1758.420426537519,9.835949369532155,0.16031219541881397,1.3254295204324884,1.3832779906553945
20577857,1905.0,1,179646,229520,1.82,-1.34,10.63,-0.01,-0.14,0.11,26.49,18.65637,18.854290643387042,1355.045623545697,10.867607832453286,0.1783255450012701,0.5884498317097353,1.0662938602853282
20618171,1933.0,1,179069,228375,1.66,-1.27,11.26,-0.08,0.04,0.24,26.49,18.696684,3.3597033115841475,955.9500581769485,11.452340372168477,0.25612496949731395,0.10726098982640389,0.7526724843722488
20658158,1869.0,1,178807,229777,1.4,-0.84,12.806250000000002,-0.06,0.1,0.24,26.49,18.736671,-18.45337732178268,668.2281154760532,12.909904688358473,0.26683328128252665,-0.5701504689695241,0.5265718724376993
20698159,1901.0,1,179335,229963,1.57,-1.21,7.58,-0.04,-0.08,0.12,26.49,18.776672,-20.584175311326536,450.8313212545105,7.834883534552381,0.14966629547095767,-0.6363230100588543,0.35573489092461996
20738170,1882.0,1,178760,228066,2.51,0.46,9.66,0.02,-0.16999999999999998,0.12,26.49,18.816683,-18.05933573958851,177.63264833733504,9.991361268616004,0.20904544960366872,-0.5579133949171734,0.14104710400635107
20778139,1890.0,1,177827,226410,1.74,-1.37,11.2,-0.09,-0.03,0.4,26.49,18.856652,-15.287959993114775,-224.1447212487724,11.416851580011015,0.4110960958218894,-0.47184752834632876,-0.17468171483910105
20818170,1905.0,1,177133,225835,2.7650000000000006,0.31,10.42,-0.08,0.15,0.4,26.49,18.896683,-10.557020584374172,-704.8340807949922,10.78506954080501,0.43462627624201466,-0.324926851702066,-0.5524219640658027
20858140,1881.0,1,176927,224704,1.81,-0.85,8.93,-0.03,-0.16999999999999998,0.14,26.49,18.936653,-10.588002759123821,-1146.9818126705984,9.151147469033596,0.22226110770892868,-0.3258890120015024,-0.8998750356115919
20898210,1900.0,1,176632,223853,1.76,-0.18,11.56,-0.08,0.15,0.31,26.49,18.976723,-23.27820122358919,-1466.842640278304,11.694597043079337,0.3535533905932738,-0.7199867554020168,-1.1512313561518557
20938159,1849.0,1,176375,222640,2.42,-0.91,9.01,-0.03,0.01,0.14,26.49,19.016672,-39.34463358893381,-1660.0469636231355,9.37361189723577,0.14352700094407325,-1.218934408380749,-1.3030571617424942
20978158,1926.0,1,175921,221836,1.95,-0.23,8.77,-0.01,-0.05,0.15,26.49,19.056671,5.9341505919079784,-1767.899987897317,8.987118559360392,0.1584297951775486,0.1872111865487179,-1.3878113329345558
21018170,1930.0,1,175985,221941,1.45,-1.51,10.73,-0.1,0.04,0.14,26.49,19.096683,36.525050166120415,-1816.9478758253185,10.932314485048442,0.17663521732655696,1.1372203234859461,-1.4263546479508418
21058158,1921.0,1,175794,221523,1.46,-0.32,10.35,-0.07,0.02,0.14,26.49,19.136671,8.849703752796554,-1789.8622676163427,10.457365825101462,0.157797338380595,0.2777545239667929,-1.4050699571372696
21098192,1916.0,1,175991,221999,1.61,-0.75,10.74,-0.06,-0.02,0.15,26.49,19.176705,16.944465309297346,-1643.5639442170843,10.885871577416298,0.16278820596099705,0.5291396596457247,-1.290104306151249
21138170,1922.0,1,176178,223625,1.74,-0.96,9.23,-0.06,0.02,0.15,26.49,19.216683,15.654022473106664,-1353.03456049767,9.441509413224138,0.16278820596099705,0.48906458823102933,-1.061797522082942
21178158,1889.0,1,176519,224204,1.72,-0.76,9.31,-0.02,0.0,0.14,26.49,19.256671,-12.462194423314317,-948.7064133983039,9.49800505369417,0.14142135623730953,-0.38409257025362675,-0.7440642250553853
21218158,1885.0,1,176829,225219,1.27,-0.58,11.15,-0.06,0.05,0.15,26.49,19.296671,-17.678679250136838,-524.0823327488337,11.237072572516384,0.16911534525287764,-0.5460919987488051,-0.41038176908505053
21258159,1891.0,1,177161,226075,1.14,-1.12,10.95,-0.08,0.01,0.15,26.49,19.336672,-12.212751368005792,-205.945308938927,11.066006506414135,0.170293863659264,-0.3763460448167481,-0.16038006574873986
21298158,1897.0,1,177256,225683,1.47,-0.77,8.56,-0.07,-0.1,0.04,26.49,19.376671,-1.103938915770013,-97.02504376133348,8.719369243242312,0.1284523257866513,-0.031358696388379945,-0.07478722434933184
21338170,1904.0,1,176876,225481,1.76,-0.69,9.63,-0.06,-0.09,0.15,26.49,19.416683,-2.172959424025374,-217.2695908341916,9.813796411175444,0.18493242008906927,-0.06455743407022264,-0.16927902924872007
21378170,1887.0,1,177119,224860,1.07,-1.15,10.47,-0.09,0.08,0.17,26.49,19.456683,-5.943489704289597,-477.39432898869956,10.587176205202217,0.2083266665599966,-0.1816523305004372,-0.373692922481708
21418158,1900.0,1,176247,223632,2.27,-0.57,9.25,-0.03,-0.13,0.17,26.49,19.496671,-8.173953624360383,-708.3702610176019,9.541504074306104,0.2161018278497431,-0.25092002557215454,-0.5552008015251134
21458170,1883.0,1,176489,225300,0.7,-1.38,11.27,-0.11,0.15,0.16,26.49,19.536683,-7.191635381666456,-741.1530440160409,11.375732943419514,0.24535688292770594,-0.22041385154888285,-0.5809625047420628
21498158,1917.0,1,176765,225158,1.43,-0.44,8.03,-0.01,-0.09,0.15,26.49,19.576671,9.906278114398948,-495.3260007352603,8.168194414924267,0.1752141546793523,0.31056674300405324,-0.3877841729329175
21538170,1886.0,1,177112,225981,1.84,-0.96,10.22,-0.07,-0.14,0.16,26.49,19.616683,-4.014283858743737,-20.932609222295287,10.428595303299481,0.22383029285599393,-0.1217402911092758,-0.014991485966071414
21578857,1903.0,1,177630,228237,1.62,-0.69,8.47,-0.05,0.11,0.16,26.37,19.65737,-2.203068805594983,536.5198805437124,8.65109241656798,0.20049937655763422,-0.06549248952778661,0.42307155461182155
21617158,1909.0,1,178734,228829,1.3,-1.99,9.43,0.0,-0.07,-0.01,26.37,19.695671,20.144028333579854,1025.8704578206903,9.724967866270818,0.07071067811865477,0.6285030046137567,0.8076180509069247
21657170,1893.0,1,178329,227950,2.17,0.505,10.13,-0.01,-0.09,0.05,26.37,19.735683,-12.650888280186734,1372.3539946317428,10.372117671912521,0.10344080432788601,-0.3899525119554993,1.0798953022101574
21697159,1891.0,1,179010,228983,0.8,-1.2,12.01,-0.1,0.06,0.14,26.37,19.775672,4.866643484203783,1594.32336411855,12.096284553531303,0.182208671582886,0.15405944795390647,1.2543255517788048
21737158,1956.0,1,178952,229104,1.63,-0.81,9.64,0.02,-0.09,0.15,26.37,19.815671,50.12815614797664,1750.1532196090538,9.810331289003447,0.17606816861659008,1.5596686709802052,1.3767813692021649
21777158,1904.0,1,179334,229151,1.95,-1.2,10.72,-0.04,-0.04,0.16,26.37,19.855671,17.116747139540106,1868.412620250943,10.96179273659195,0.16970562748477142,0.5344899211658816,1.469713185945598
21817170,1914.0,1,179402,230001,0.83,-1.24,10.25,-0.02,0.06,0.16,26.37,19.895683,13.059381006826817,1921.392333481211,10.358040355202329,0.17204650534085253,0.40848725528721636,1.5113462483009887
21857159,1947.0,1,179704,228859,1.21,-1.16,12.11,-0.04,-0.1,0.15,26.37,19.935672,53.326179907282004,1853.406819166737,12.225457046671098,0.1846618531261939,1.6589842136340585,1.4579211732271447
21897171,1953.0,1,179056,228750,0.85,-0.98,12.0,-0.03,-0.02,0.16,26.37,19.975684,60.710519189087584,1623.6268659281438,12.069917149674225,0.16401219466856726,1.8883069823529446,1.2773531305195127
21937170,1922.0,1,178781,228018,1.29,-0.57,10.72,-0.05,-0.13,0.16,26.37,20.015683,20.305236744760098,1221.7608442730184,10.81237254260137,0.21213203435596426,0.6335093779373273,0.9615546461947229
21977170,1855.0,1,178511,227197,1.96,0.16,11.4,0.01,-0.1,0.17,26.37,20.055683,-31.567497897329005,659.9313349137497,11.568370671792982,0.197484176581315,-0.9774132347944241,0.520052011127804
22017137,1875.0,1,177784,226406,2.14,-0.66,8.34,0.0,-0.16999999999999998,0.18,26.37,20.09565,-29.99218168897689,-22.759552006267647,8.635438610748153,0.24758836806279894,-0.9284913393179866,-0.016427152907382787
22057159,1869.0,1,177463,225406,1.49,-0.76,10.11,-0.03,-0.01,0.17,26.37,20.135672,-18.379132280843077,-729.7222776796855,10.247428945838072,0.17291616465790585,-0.5678447679850276,-0.5719798625449831
22097170,1872.0,1,176849,224253,1.64,-0.42,9.5,-0.03,-0.01,0.29,26.37,20.175683,-31.327199792086144,-1289.8220947054156,9.64966320655804,0.2917190429162964,-0.9699507083977875,-1.0121232530183184
22137170,1878.0,1,176537,224440,1.23,-1.3,9.77,-0.06,0.03,0.25,26.37,20.215683,-14.061731289031654,-1506.710643113551,9.932562609920966,0.2588435821108957,-0.4337666451729658,-1.1825608395865914
22177158,1921.0,1,176817,225766,1.39,-0.84,8.13,-0.02,-0.05,0.17,26.37,20.255671,19.756976663981913,-1272.8882723918155,8.290633268936698,0.1783255450012701,0.6164830042965768,-0.9988161428564906
22217170,1907.0,1,177697,227458,1.31,-0.79,8.24,-0.01,-0.05,0.17,26.37,20.295683,11.29959424815363,-672.1704830442752,8.380799484536066,0.1774823934929885,0.3538365741019535,-0.5267539202242576
22257170,1884.0,1,178717,228764,1.98,-0.52,9.91,-0.01,0.01,0.17,26.37,20.335683,-18.716664797559076,20.64092643247424,10.119234160745565,0.17058722109231983,-0.5783269368442894,0.01767825678482428
22297158,1856.0,1,178989,228836,1.41,-1.45,9.73,-0.01,-0.02,0.17,26.37,20.375671,-40.24703505828453,464.0177351049743,9.937982692679636,0.17146428199482247,-1.2469587441473062,0.3660971740818399
22337170,1845.0,1,178933,228064,1.18,-0.91,9.05,-0.01,-0.07,0.17,26.37,20.415683,-62.148139439116136,426.2663127632685,9.171859135420693,0.1841195263952197,-1.9271038056003296,0.3364309636679452
22377170,1856.0,1,178651,227036,1.25,-1.11,10.14,-0.03,-0.13,0.17,26.37,20.455683,-40.85495676469181,-92.16278581730332,10.27687695751973,0.2161018278497431,-1.2658379266384363,-0.07096631487607802
22417170,1895.0,1,178391,225935,1.76,-0.81,10.73,-0.02,-0.11,0.18,26.37,20.495683,-14.375714017709882,-859.7635527998912,10.903513195296275,0.2118962010041709,-0.4435174686281953,-0.6741702328915132
22457170,1870.0,1,177076,224143,1.78,-0.57,6.8962499999999975,0.04,-0.16999999999999998,0.25,26.37,20.535683,-32.82770200268082,-1539.2884581066128,7.145037722958499,0.30495901363953815,-1.016549233772998,-1.2081614727405219
22497158,1884.0,1,177048,224521,1.86,-0.84,9.61,0.02,-0.06,0.19,26.37,20.575671,-21.63615405679421,-1872.1919826362973,9.824321859548373,0.20024984394500786,-0.6689925109224549,-1.4697671393252822
22537211,1905.0,1,177259,225671,2.17,-0.42,9.33,0.049999999999999996,0.03,0.18,26.37,20.615724,-9.405225936831641,-1814.2896336767278,9.588232370984759,0.189208879284245,-0.2891575394467572,-1.4242657208053324
22577137,1887.0,1,177723,226822,1.93,-0.68,9.94,0.0,0.02,0.23,26.37,20.65565,-12.15749759196804,-1531.9748569126314,10.148443230367896,0.2308679276123039,-0.37463012299631243,-1.2024142235391515
22617830,1942.0,1,178166,227282,1.51,-0.99,10.19,-0.0,-0.01,0.18,26.29,20.696343,16.50269736517596,-1260.7966210164684,10.348734222116247,0.18027756377319948,0.5154204297713906,-0.9893141571907421
22656171,1915.0,1,178180,227358,1.65,-0.76,11.27,-0.01,-0.07,0.18,26.29,20.734684,18.682567095440312,-1133.4826056979136,11.41547195695386,0.19339079605813717,0.5831169078059808,-0.8892669501506645
22696171,1938.0,1,178146,227263,1.86,-0.67,11.74,-0.02,-0.03,0.18,26.29,20.774684,7.105847602528714,-1107.0201320861677,11.905297140348914,0.1835755975068582,0.22359857238257802,-0.8684719373659165
22736192,1917.0,1,178291,228307,1.39,-0.96,9.41,0.01,-0.02,0.19,26.29,20.814705,17.53125252201875,-1033.2537263594704,9.560428860673563,0.19131126469708992,0.5473625043898259,-0.810504062832423
22776158,1943.0,1,178652,228685,2.1,-0.4,10.05,0.0,-0.08,0.18,26.29,20.854671,12.565350563659418,-800.0782002304168,10.274847930748173,0.19697715603592209,0.3931449985550928,-0.6272676761632755
22816158,1924.0,1,179077,229740,1.86,-0.32,11.74,-0.01,0.07,0.19,26.29,20.894671,17.207124614243913,-421.7844496834348,11.890735889758885,0.2027313493271329,0.5372966194956785,-0.3299929960093025
22856163,1967.0,1,179657,230897,1.28,-0.58,9.44,0.0,0.1,0.19,26.29,20.934676,40.57778667460963,-11.432708556972253,9.544024308435095,0.21470910553583888,1.2630792150600083,-0.007526176460706784
22896136,1966.0,1,179883,231047,1.53,-0.84,10.15,-0.02,-0.04,0.18,26.29,20.974649,50.64180313023792,329.2653275027251,10.298980532072095,0.1854723699099141,1.5756201249452855,0.26020465322466174
22936171,1974.625,1,180325,231567,1.06,-1.06,10.73,-0.05,-0.03,0.18,26.29,21.014684,52.800751007570874,602.6284861644616,10.834209708142076,0.189208879284245,1.642666868852304,0.47502169801999994
22976170,1957.0,1,180350,231862,1.41,-0.68,9.2,-0.03,-0.09,0.18,26.29,21.054683,35.48135865519542,911.0137864421847,9.332229101345508,0.20346989949375804,1.104808185061668,0.717360201819474
23016170,1931.0,1,180956,232719,1.33,-1.29,8.58,-0.02,-0.07,0.14,26.29,21.094683,10.775807001869662,1360.487259545955,8.777778762306555,0.157797338380595,0.33757021133698173,1.070570062572974
23056170,1919.0,1,181554,233771,1.32,-0.5,8.09,-0.01,-0.07,0.09,26.29,21.134683,-2.954429660615979,1953.521441649188,8.212216509566709,0.11445523142259598,-0.08882621581050873,1.5365942740493856
23096170,1903.0,1,182314,235040,1.24,-0.87,9.58,0.01,-0.03,0.07,26.29,21.174683,-20.299941717870393,2560.0108832647356,9.699015413947954,0.07681145747868609,-0.6274960545078163,2.0131920357420734
23136159,1903.0,1,182839,235388,1.15,-0.77,9.22,-0.0,-0.04,0.15,26.29,21.214672,-14.005658243325916,2990.012853697122,9.323293409520051,0.15524174696260024,-0.4320252806986352,2.3511006002928645
23176170,1918.0,1,182560,235362,1.32,-1.08,9.58,-0.01,-0.06,0.18,26.29,21.254683,-10.272763098743317,3110.477869261037,9.730632045247626,0.19,-0.31609915417270795,2.44576565600612
23216170,1878.0,1,182740,234859,0.89,-1.22,11.78,-0.05,-0.05,0.18,26.29,21.294683,-32.87112021825508,2920.065596751934,11.876400969990865,0.19339079605813717,-1.0178975988776262,2.2961339284777402
23256171,1902.0,1,182316,233992,1.0,-0.88,10.34,-0.02,-0.1,0.18,26.29,21.334684,-28.727464566611165,2535.7422734700885,10.425449630591478,0.20688160865577201,-0.8892151873050776,1.9941210275531889
23296170,1885.0,1,181638,233367,1.34,-1.65,9.91,-0.04,-0.15,0.18,26.29,21.374683,-21.62279962243196,2110.051949332438,10.135393430942877,0.23769728648009425,-0.6685777851432411,1.6596006851745888
23336172,1900.0,1,181533,233065,1.48,-0.94,10.17,-0.0,-0.1,0.17,26.29,21.414685,-29.702594742511415,1740.123390491343,10.32002422477777,0.1972308292331602,-0.9194981338578939,1.3688996258779482
23376170,1871.0,1,181319,232730,1.66,-0.83,9.81,0.03,-0.1,0.18,26.29,21.454683,-32.290528605188186,1427.4953668535861,9.98401722754924,0.2080865204668481,-0.9998671602530741,1.1232270616346733
23416159,1891.0,1,180698,232101,2.38,-1.65,9.84,0.0,-0.16,0.16,26.29,21.494672,-36.21370914350033,1106.4386313236453,10.257314463347607,0.2262741699796952,-1.121702654113238,0.8709309604489136
23456159,1868.0,1,180959,231850,1.01,-1.26,9.71,-0.01,-0.04,0.16,26.29,21.534672,-31.257966944042266,705.2736621975926,9.843363246370624,0.16522711641858306,-0.9678006624974271,0.5556833844223705
23496171,1893.0,1,180098,229799,2.04,-0.72,10.22,0.0,-0.16999999999999998,0.16,26.29,21.574684,-30.798198228221377,181.69482529042656,10.446453943803132,0.23345235059857503,-0.9535224135087658,0.14423928561842647
23536158,1872.0,1,179237,228457,1.23,-1.68,11.74,-0.07,-0.03,0.36,26.29,21.614671,-23.573611323070892,-495.22695713157617,11.923208460812887,0.36796738985948196,-0.7291608005447667,-0.38770634147108674
23576171,1925.0,1,178296,227348,1.63,-0.58,7.56,-0.01,0.05,0.4,26.29,21.654684,7.16859564153668,-1376.0346965083172,7.7554432497440144,0.40323690307311905,0.22554723068332025,-1.079871725175583
23616158,1927.0,1,177833,225354,1.84,0.17,9.17,-0.02,-0.16999999999999998,0.31,26.29,21.694671,33.15285587214559,-2498.067643657178,9.354325202813937,0.3541186241925155,1.0324958650556926,-1.9615991790486866
23656845,1974.625,1,176833,223746,1.79,-0.6,11.12,-0.09,0.03,0.4,26.27,21.735358,65.36765491780234,-3769.893713472282,11.279117873309064,0.4110960958218894,2.0329356646021406,-2.9610386029595874
23695159,1974.625,1,175412,220215,1.18,-0.74,6.8962499999999975,0.01,-0.16999999999999998,0.22,26.27,21.773672,81.81056598430352,-4872.74749847675,7.035500270947331,0.2782085548648711,2.543574971338662,-3.8276944906652566
23735158,1974.625,1,175212,220257,1.74,-0.85,10.46,-0.1,0.12,0.19,26.27,21.813671,73.74446472157213,-5324.128751838208,10.637748822001768,0.24596747752497686,2.293079889281141,-4.182403542893868
23776158,1974.625,1,175183,222746,1.87,-0.92,8.89,-0.07,0.07,0.15,26.27,21.854671,84.61505659352314,-4733.565250374129,9.131013087275695,0.17972200755611428,2.6306692294447305,-3.7183208670513537
23816158,1974.625,1,177694,228652,1.25,-2.34,12.27,-0.07,0.05,-0.2,26.27,21.894671,80.24874714194367,-3092.256206199161,12.553525401256811,0.21771541057077243,2.4950722404240944,-2.428530537617032
23856170,1942.0,1,180079,233233,1.43,-0.56,8.57,-0.04,-0.01,-0.33,26.27,21.934683,55.897456184450554,-865.5988490336662,8.706514802146724,0.33256578296631784,1.738835933946306,-0.6787557853067749
23896189,1919.0,1,182431,235913,1.41,-1.57,10.04,-0.07,-0.07,-0.29,26.27,21.974702,31.16537466426677,1209.9756933197107,10.259366452174325,0.3064310689208912,0.97077406761736,0.9522935178383988
23936187,1877.0,1,183782,237762,1.15,-0.86,10.73,-0.02,-0.0,-0.03,26.27,22.0147,-7.082475203082444,2497.042911395451,10.825663951924613,0.03605551275463989,-0.2170238509772118,1.9637098974029648
23976188,1849.0,1,183931,237591,1.15,-1.03,8.67,-0.03,0.01,0.12,26.27,22.054701,-30.471162187111297,2744.842537427782,8.806378370249599,0.12409673645990857,-0.9433662157020082,2.158438344448475
24016159,1840.0,1,183429,235610,1.24,-1.0,11.11,-0.05,0.0,0.1,26.27,22.094672,-44.46318162471148,2128.056806216277,11.223622409899576,0.1118033988749895,-1.377892381814784,1.6737494467219898
24056159,1833.0,1,182578,235095,1.15,-1.41,12.16,-0.05,0.02,0.14,26.27,22.134672,-38.05308754490237,1066.4483849377168,12.295373113492733,0.15000000000000002,-1.1788250765309813,0.8395054143317328
24096158,1871.0,1,182212,234313,0.62,-1.36,11.81,-0.07,0.02,0.14,26.27,22.174671,-13.876811148079163,-9.690356615369549,11.90420513936147,0.157797338380595,-0.4280238972984745,-0.006156983563899279
24136159,1823.625,1,181298,232497,0.82,-1.95,10.55,-0.09,-0.09,0.13,26.27,22.214672,-41.47959576491118,-803.9276720053997,10.75999070631569,0.18193405398660253,-1.2852362694709554,-0.6302927076077949
24176205,1823.625,1,181108,233250,0.11,-2.2,9.75,-0.11,-0.03,0.13,26.27,22.254718,-60.798410962674595,-1182.8675080488747,9.99572908796552,0.17291616465790582,-1.8851876016687281,-0.9280751013019584
24214171,1824.0,1,181322,233090,0.61,-1.02,10.18,-0.09,-0.04,0.13,26.27,22.292684,-37.489257049371155,-1152.3052681943227,10.249141427456252,0.16309506430300091,-1.1613151592060906,-0.9040583681034473
24254171,1855.0,1,181560,234609,0.5,-2.27,9.1,-0.08,0.02,0.13,26.27,22.332684,-28.971087398954428,-832.1654087629903,9.392172272696024,0.15394804318340652,-0.89678096405287,-0.6524827759098678
24294159,1857.0,1,182352,235362,0.92,-1.17,7.42,-0.05,-0.03,-0.22,26.27,22.372672,-3.532113158418494,-422.0861899774203,7.567806815716162,0.22759613353482083,-0.10676634208364646,-0.3302301126660128
24334188,1888.0,1,183083,236195,0.41,-2.07,10.58,-0.04,0.05,-0.07,26.27,22.412701,6.564222879814086,-127.00262538288315,10.788391909826043,0.09486832980505139,0.20677826168456429,-0.09834451541071043
24374179,1841.0,1,183202,236182,0.92,-1.46,9.03,-0.03,0.05,0.01,26.27,22.452692,-25.121521459136105,-55.879794066699525,9.193416122421523,0.05916079783099616,-0.7772315926067083,-0.04245404167015197
24414161,1823.625,1,183100,235644,0.44,-1.96,9.7,-0.07,-0.04,0.02,26.27,22.492674,-49.23987862927551,-162.17028724548692,9.905816473163632,0.08306623862918075,-1.5262340736865028,-0.12598032862954453
24454173,1823.625,1,183059,235286,0.48,-1.19,10.4,-0.06,-0.08,0.08,26.27,22.532686,-56.37329202881083,-285.5874228883051,10.478859670784795,0.12806248474865697,-1.7477642673530445,-0.22296524966165063
24494173,1823.625,1,183066,235783,0.59,-1.71,10.65,-0.06,-0.04,0.09,26.27,22.572686,-37.03230218904544,-274.3687556203047,10.802532110574816,0.11532562594670795,-1.1471242953047474,-0.21414928133273559
24534173,1887.0,1,183676,236906,0.21,-1.78,8.13,-0.04,-0.02,0.08,26.27,22.612686,-7.595914758613162,-93.18647212284417,8.325226723639425,0.09165151389911681,-0.2329688632458394,-0.0717707585620169
24574173,1899.0,1,183856,237277,1.09,-1.55,8.69,-0.03,-0.1,0.08,26.27,22.652686,42.79726011529669,167.44792570230805,8.894194735893745,0.13152946437965907,1.3320055976505896,0.1330436406675916
24614173,1934.0,1,184634,237963,0.9,-1.79,8.83,-0.03,-0.01,0.09,26.27,22.692686,36.994117496069265,376.63399579051946,9.054446421510264,0.09539392014169457,1.1517873435962604,0.29742838661759513
24654174,1823.625,1,183673,237311,1.47,-2.24,7.36,-0.03,-0.11,0.07,26.27,22.732687,-45.68450090562943,461.12120583120293,7.832502792849805,0.13379088160259653,-1.4158208014473903,0.3638209937003983
24694860,1823.625,1,184409,237306,0.18,-2.88,10.57,-0.04,0.05,0.04,26.27,22.773373,-60.27741587028083,439.13427815495976,10.956810667342939,0.0754983443527075,-1.8690079500415242,0.3465430003868081
24735164,1823.625,1,184021,237332,0.21,-2.1,10.46,-0.0,-0.03,0.06,26.27,22.813677,-69.84089458587363,386.2113131823815,10.670787224942686,0.0670820393249937,-2.166004517228999,0.30495453253008303
24775173,1823.625,1,184325,237180,0.38,-2.31,12.25,-0.05,-0.0,0.05,26.27,22.853686,-46.68957295556091,383.973320158684,12.471687937083738,0.07071067811865477,-1.44703360146325,0.30319584986788056
24814174,1926.0,1,184175,237918,-0.48,-2.43,9.84,-0.01,-0.03,0.06,26.27,22.892687,17.842129883998982,489.17499032846223,10.146965063505442,0.06782329983125268,0.5570168897939454,0.385866506748057
24854194,1883.0,1,184146,237447,0.9,-1.92,10.75,-0.02,-0.12,0.04,26.27,22.932707,8.252297998302351,717.4766566260895,10.957139225180995,0.12806248474865697,0.2592019173704574,0.565272866829645
24894174,1973.0,1,184628,238744,0.05,-2.43,10.8,-0.01,-0.03,0.06,26.27,22.972687,70.53273032987329,1026.3422739026805,11.070112917219951,0.06782329983125268,2.193338559016322,0.8079888182660533
24934173,1974.625,1,184243,237844,1.19,-1.96,8.0,-0.0,-0.14,0.03,26.27,23.012686,78.97312584373671,1309.451724253711,8.322121123848174,0.14317821063276354,2.4554574561112488,1.0304647940916634
24974174,1862.0,1,184546,238103,-0.06,-2.08,9.28,-0.0,-0.07,0.06,26.27,23.052687,-26.63603609266125,1435.109411816682,9.510436372743365,0.09219544457292887,-0.824265277784339,1.1292104086442645
25014194,1941.0,1,184274,237878,0.78,-1.78,8.91,0.01,-0.04,0.05,26.27,23.092707,26.90304904495165,1335.2861412606337,9.119479151793703,0.06480740698407861,0.838406326252721,1.0507662609850306
25054164,1974.625,1,184164,236811,0.39,-2.1,9.21,0.03,0.01,0.05,26.27,23.132677,90.17496666256619,1090.6783572744757,9.454427534229664,0.05916079783099616,2.803333827075354,0.8585460600366506
25094142,1974.625,1,183197,235226,0.49,-2.09,7.92,0.02,-0.03,0.04,26.27,23.172655,56.59226507972825,921.1937235475073,8.205766265255184,0.053851648071345036,1.7604134229422654,0.7253599045441335
25134161,1968.0,1,182886,234208,0.33,-1.64,9.67,0.01,-0.01,0.03,26.27,23.212674,74.71503734117215,1043.843209342887,9.813633374036346,0.033166247903554,2.323221299619344,0.8217415830893161
25174165,1974.625,1,182946,237052,0.37,-1.47,10.83,0.03,0.05,0.02,26.27,23.252678,63.8861587918837,1483.6184388656084,10.935570401218218,0.061644140029689765,1.9869273786233177,1.1673302704704223
25214142,1916.0,1,184096,236975,1.24,-0.58,10.69,0.02,-0.08,-0.23,26.27,23.292655,8.631424907077264,1998.65217495476,10.777295579133012,0.24433583445741233,0.27097581197336584,1.5720593703908647
25254173,1914.0,1,183653,234780,0.23,-1.63,12.1,0.04,-0.12,0.01,26.27,23.332686,12.686903796328405,2207.3654469165695,12.211461828953977,0.1268857754044952,0.3969198689664598,1.7360725772615142
25294164,1935.0,1,182221,232621,0.22,-1.58,11.06,0.01,-0.09,0.02,26.27,23.372677,17.60319698812202,1836.863854392388,11.174453006747132,0.09273618495495703,0.5495967603646907,1.444921210750941
25334165,1904.0,1,181646,231670,-0.27,-2.52,12.46,-0.01,-0.02,0.07,26.27,23.412678,6.117881643174182,912.7020891858228,12.715144513531886,0.07348469228349534,0.19291700690285732,0.7186869212204485
25374193,1909.0,1,180306,228202,1.02,-0.58,9.68,0.02,-0.16,0.03,26.27,23.452706,-8.31923822496324,-238.79340614643522,9.750856372647482,0.16401219466856726,-0.255431880403169,-0.18619309484824087
25414164,1825.0,1,178587,225929,0.26,-2.13,11.02,-0.06,-0.05,0.4,26.27,23.492677,-77.89532638382882,-1174.1854015294293,11.22697198713883,0.40755367744629667,-2.4161372007197937,-0.9212524391911014
25454173,1823.625,1,177595,225269,0.87,-2.31,9.22,-0.03,-0.09,0.09,26.27,23.532686,-85.61019783269755,-1590.2980169815796,9.544705338563366,0.1307669683062202,-2.655724740436992,-1.2482463281668283
25494173,1912.0,1,177640,226406,0.76,-1.77,8.5,-0.03,-0.16999999999999998,0.02,26.27,23.572686,1.931485422005271,-1495.2732257904759,8.71553211226945,0.17378147196982766,0.06290727471758402,-1.1735729708428217
25534173,1936.0,1,178181,227452,1.29,-1.57,8.79,-0.02,-0.07,0.02,26.27,23.612686,34.05087525753944,-1177.7950211264108,9.02181245648567,0.07549834435270751,1.0603841139514552,-0.9240889875338076
25574173,1919.0,1,177849,225801,0.61,-1.87,8.41,-0.02,-0.09,0.01,26.27,23.652686,7.831378415762272,-997.5274143802269,8.636961271187918,0.09273618495495703,0.24613013932879532,-0.7824292454415614
25614173,1894.0,1,176714,224135,1.16,-1.41,8.3,0.03,-0.14,0.01,26.27,23.692686,-6.835217095451462,-1155.3457427407754,8.498452800363134,0.14352700094407325,-0.20934517971547306,-0.9064476650373938
25654165,1911.0,1,176281,223130,1.21,-1.05,10.6,-0.01,-0.03,0.04,26.27,23.732678,5.433354511835151,-1603.0540410008557,10.720382455864156,0.05099019513592785,0.17165882102715635,-1.2582703979667753
25694173,1902.0,1,175638,221660,1.18,-1.06,8.12,0.01,0.08,0.33,26.27,23.772686,-0.4399684635177783,-2119.658638092241,8.27347569042177,0.3397057550292606,-0.010738904062047028,-1.6642339280128282
25734831,1879.0,1,175195,220047,1.18,-1.04,8.68,-0.0,-0.08,0.14,26.15,23.813344,-20.803687789588786,-2458.064919752067,8.821360439297331,0.161245154965971,-0.6431400328637888,-1.930163827719237
25773174,1885.0,1,174818,218484,1.43,-1.06,10.11,-0.02,0.01,0.39,26.15,23.851687,-15.082389085642395,-2458.756111884215,10.265505345573592,0.3906404996924922,-0.4654634650103206,-1.9307069874191054
25814199,1878.0,1,174886,217812,1.39,-1.51,9.23,-0.04,-0.01,0.38,26.15,23.892712,-20.974018181607487,-2095.4667540810674,9.455427013096765,0.38223029707232786,-0.6484296919116801,-1.6452232132670914
25854173,1872.0,1,175259,217772,0.74,-1.85,9.07,-0.05,-0.04,0.15,26.15,23.932686,-20.5316059870281,-1466.1203599897767,9.286280202535352,0.16309506430300091,-0.6346904546550821,-1.150663766437664
25894173,1894.0,1,175992,218102,1.16,-1.9,11.13,-0.06,-0.03,-0.02,26.15,23.972686,-6.834723178355283,-744.2958858873119,11.350440520085554,0.06999999999999999,-0.20932984097876406,-0.5834322450185164
25934194,1888.0,1,176643,219333,0.84,-1.48,10.91,-0.06,0.15,-0.01,26.15,24.012707,2.958049618858625,-103.43917801202527,11.041924651074197,0.16186414056238646,0.09478751950402461,-0.07982764519974775
25974173,1923.0,1,176723,219921,0.93,-1.9,9.7,-0.04,-0.09,-0.0,26.15,24.052686,23.09360972339506,356.53261875006814,9.92798569700823,0.09848857801796104,0.7201030984150713,0.2816321160693392
26014211,1890.0,1,177115,221105,0.53,-1.86,11.27,-0.05,-0.04,-0.01,26.15,24.092724,8.21831614341424,637.8261453954203,11.434745296682388,0.06480740698407861,0.2581466011462495,0.5026810840789094
26054194,1883.0,1,177088,222358,0.83,-1.35,9.63,-0.03,-0.08,-0.01,26.15,24.132707,-12.353194615793416,809.102306122795,9.75952355394463,0.08602325267042626,-0.3807075500511955,0.6372750757179738
26094194,1878.0,1,177231,223452,1.1,-1.86,9.57,-0.03,-0.1,-0.01,26.15,24.172707,-2.8260503183080545,932.90666621599,9.81093777372989,0.10488088481701516,-0.08483935861166612,0.7345642894444929
26134194,1889.0,1,177385,223881,1.28,-1.89,8.85,-0.02,-0.14,-0.05,26.15,24.212707,-2.2057470742336056,1012.1491320012458,9.139638942540344,0.15000000000000002,-0.06557566392648943,0.796835417732663
26174194,1873.0,1,177328,223513,1.36,-1.7,9.15,-0.01,-0.16999999999999998,0.0,26.15,24.252707,-5.421356796012719,995.9679951773863,9.405429283132163,0.170293863659264,-0.16543734367550622,0.7841197906125076
26214173,1872.0,1,177372,223463,0.88,-1.42,8.52,0.01,-0.1,0.01,26.15,24.292686,-17.80880435611327,837.5519837735036,8.682234735366235,0.10099504938362078,-0.5501330711377564,0.6596316935893222
26254165,1866.0,1,177095,222654,1.27,-1.44,8.42,0.01,-0.12,0.01,26.15,24.332678,-8.744675784460277,553.367928888453,8.636139183686192,0.12083045973594571,-0.2686439655116164,0.4363112609925365
26294165,1915.0,1,176915,223203,1.1,-0.94,9.11,0.02,0.02,0.01,26.15,24.372678,25.72863363598754,229.04247878760532,9.224191021439223,0.030000000000000002,0.8019345197806977,0.1814465049527752
26334142,1879.0,1,176535,222639,1.36,-1.19,7.37,0.03,-0.06,0.01,26.15,24.412655,6.489186246079869,-40.48365377541648,7.588319972167753,0.06782329983125268,0.20444797755939229,-0.030355288587186505
26374165,1869.0,1,176551,223065,1.1,-1.02,8.16,0.01,-0.01,0.01,26.15,24.452678,-18.572132256310724,-229.06726138038596,8.296746350226696,0.017320508075688773,-0.5738384374316589,-0.17854999588010328
26414161,1870.0,1,176732,222711,1.11,-0.93,8.48,0.02,0.01,0.01,26.15,24.492674,-2.5749266184256103,-402.5450626264102,8.60275537255361,0.024494897427831782,-0.0770406402767887,-0.3148741032825109
