timestamp_us,ecg,leads,ir,red,accX,accY,accZ,gyroX,gyroY,gyroZ,temp,time_sec,ecg_filtered,ppg_filtered,accel_magnitude,gyro_magnitude,ecg_norm,ppg_norm
1947964,1358,1,187364.0,217141,0.65,-0.22,9.919999999999998,-0.03,-0.01,-0.0,31.99,0.030475,-3.9327963609167447,49.37692709483554,9.943706552387795,0.03162277660168379,-0.0582564544899307,0.06012465413555532
1988203,1441,1,187711.0,218057,0.68,-0.23,9.96,-0.03,-0.01,-0.0,31.99,0.070714,16.70099302208466,457.08222091583747,9.985834967592846,0.03162277660168379,0.22039371431374874,0.6528748795247991
2028195,1556,1,188122.0,219272,0.66,-0.22,9.95,-0.03,-0.01,-0.0,31.99,0.110706,63.633865689166996,777.6775347822921,9.974291954820652,0.03162277660168379,0.8542013319245947,1.1189785760750528
2068196,1616,1,188541.0,220061,0.67,-0.23,9.96,-0.04,-0.01,-0.01,31.99,0.150707,66.47653408374286,963.4548569041694,9.98515898721698,0.042426406871192854,0.8925903070807534,1.3890745282956278
2108196,1685,1,188719.0,220189,0.67,-0.22,9.95,-0.03,-0.01,-0.0,31.99,0.190707,67.38519230996054,1033.1556014032421,9.97495864653082,0.03162277660168379,0.9048613331836465,1.4904103035180178
2148196,1767,1,188737.0,220231,0.66,-0.2,9.96,-0.04,-0.01,-0.0,31.99,0.230707,93.60363112545733,1064.8747690122543,9.983846953955174,0.04123105625617661,1.2589297142307936,1.5365258287131744
2188196,1837,1,188696.0,220297,0.66,-0.23,9.94,-0.03,-0.01,-0.0,31.99,0.270707,100.93941386157648,1135.9331749250816,9.964542136997565,0.03162277660168379,1.3579962046259466,1.6398354662356174
2228196,1899,1,188793.0,220596,0.67,-0.23,9.97,-0.04,-0.01,-0.01,31.99,0.310707,107.99348745041694,1240.3619401288577,9.99513381601267,0.042426406871192854,1.4532583380033133,1.7916612459097836
2268195,1974,1,188917.0,221084,0.65,-0.22,9.96,-0.03,-0.01,-0.01,31.99,0.350706,126.5217327720173,1259.6066762800242,9.983611570969696,0.033166247903554,1.7034740686510847,1.8196405777066593
2308197,2042,1,189064.0,221327,0.66,-0.23,9.96,-0.03,-0.01,-0.01,31.99,0.390708,143.55015227428038,1039.3231099647255,9.984492976611282,0.033166247903554,1.9334353171978247,1.49937705510382
2348199,2102,1,188789.0,218829,0.66,-0.23,9.97,-0.03,-0.01,-0.0,31.99,0.43071,152.02131852386725,530.9671822667123,9.994468470108854,0.03162277660168379,2.047834658084576,0.7602939593291304
2388196,2143,1,187559.0,216082,0.67,-0.23,9.95,-0.04,-0.01,-0.01,31.99,0.470707,148.80081782834534,-123.99781888462832,9.975184208825418,0.042426406871192854,2.0043432253776574,-0.19193957292657618
2428195,2186,1,187018.0,215606,0.64,-0.21,9.97,-0.04,-0.01,-0.01,31.99,0.510706,145.35313273238063,-659.958102947944,9.99272735543205,0.042426406871192854,1.9577837681621084,-0.9711557959999308
2468199,2219,1,187071.0,216119,0.65,-0.23,9.95,-0.03,-0.01,-0.0,31.99,0.55071,141.3974311955232,-863.5822239787423,9.973860837208427,0.03162277660168379,1.9043637743586261,-1.2671986619252464
2508196,2242,1,187327.0,216950,0.66,-0.22,9.97,-0.04,-0.01,-0.01,31.99,0.590707,124.70451435173234,-714.1394231220622,9.994243343045035,0.042426406871192854,1.6789333403259852,-1.0499283560618944
2548231,2242,1,187733.0,217981,0.67,-0.22,9.95,-0.03,-0.01,-0.01,31.99,0.630742,94.2737776228386,-371.6700738059028,9.97495864653082,0.033166247903554,1.2679797452819161,-0.5520226700857263
2588196,2242,1,188125.0,218641,0.68,-0.21,9.96,-0.03,-0.01,-0.0,31.99,0.670707,62.97689015947475,-35.02975607045195,9.985394333725635,0.03162277660168379,0.8453291689471318,-0.06259163439159003
2628196,2242,1,188241.0,218897,0.66,-0.22,9.96,-0.03,-0.01,-0.0,31.99,0.710707,38.540606128128545,198.16454399757126,9.984267624618242,0.03162277660168379,0.515327997379546,0.2764424081378997
2668195,2242,1,188253.0,218975,0.65,-0.22,10.0,-0.03,-0.01,-0.0,31.99,0.750706,16.22966909826913,352.61005502929817,10.023517346720162,0.03162277660168379,0.2140286938856249,0.5009860009287402
2708196,2242,1,188327.0,219254,0.64,-0.23,9.95,-0.04,-0.01,-0.0,31.99,0.790707,-2.098195873953354,477.4007381819154,9.973214125847294,0.04123105625617661,-0.03348098906811102,0.6824153487597426
2748210,2242,1,188441.0,219631,0.67,-0.23,9.95,-0.03,-0.01,-0.0,31.99,0.830721,-15.82007111222987,539.8828046254549,9.975184208825418,0.03162277660168379,-0.2187888247000262,0.7732561093005024
2788197,2242,1,188465.0,220074,0.68,-0.23,9.98,-0.04,-0.01,-0.0,31.99,0.870708,-27.55986634060785,427.0657761948278,10.005783327656061,0.04123105625617661,-0.3773295494009929,0.6092348909266285
2828195,2242,1,188479.0,218865,0.65,-0.21,10.000000000000004,-0.04,-0.01,-0.01,31.99,0.910706,-33.81216360213454,62.52619227852279,10.02330284886175,0.042426406871192854,-0.46176404928836995,0.07924196759569282
2868196,2242,1,187393.0,215837,0.65,-0.23,9.98,-0.04,-0.01,-0.0,31.99,0.950707,-38.13766430724663,-475.64506321003853,10.003789282067071,0.04123105625617661,-0.5201780167505402,-0.7031887190387333
2908196,2242,1,186546.0,214899,0.65,-0.21,9.93,-0.03,-0.01,-0.0,31.99,0.990707,-38.81054779004573,-964.2596397469566,9.953466732751961,0.03162277660168379,-0.5292650095751177,-1.4135704696811102
2948196,2242,1,186555.0,215399,0.67,-0.21,9.98,-0.04,-0.01,-0.01,31.99,1.030707,-34.630407117616755,-1181.0775207337063,10.004668910063941,0.042426406871192854,-0.4728140648468049,-1.7287953386516335
2988882,2242,1,186826.0,216157,0.67,-0.21,9.96,-0.03,-0.01,-0.01,32.05,1.071393,-31.714536345523868,-1060.6579070271378,9.984718323518196,0.033166247903554,-0.43343652406785516,-1.5537209546599648
3027208,2242,1,187108.0,217156,0.67,-0.24,9.96,-0.04,-0.01,-0.01,32.05,1.109719,-18.91871812406067,-722.093864893712,9.985394333725635,0.042426406871192854,-0.2606346774846335,-1.0614930750499707
3067195,2242,1,187382.0,217854,0.66,-0.22,9.98,-0.03,-0.01,-0.0,32.05,1.149706,-12.83722891397895,-353.55146361646183,10.004219109955558,0.03162277660168379,-0.1785068645312317,-0.5256805782946735
3107198,2198,1,187602.0,218146,0.64,-0.22,9.96,-0.03,-0.01,-0.0,32.05,1.189709,-37.58202446024663,-66.65238787704483,9.982965491275626,0.03162277660168379,-0.512674347197329,-0.10856680914364626
3147194,2170,1,187605.0,218273,0.67,-0.21,9.95,-0.03,-0.01,-0.01,32.05,1.229705,-54.8558743754325,151.80077017955708,9.974743104461387,0.033166247903554,-0.7459500245540692,0.20903553901691765
3187198,2153,1,187723.0,218508,0.66,-0.23,9.95,-0.04,-0.01,-0.0,32.05,1.269709,-49.48936699537857,361.9378986607197,9.974517532191719,0.04123105625617661,-0.6734777239222643,0.5145474667686913
3227195,2128,1,187775.0,218895,0.66,-0.23,9.98,-0.04,-0.01,-0.0,32.05,1.309706,-57.730576144105946,554.344595681889,10.004444012537629,0.04123105625617661,-0.7847715962117213,0.7942816638815939
3267198,2083,1,187886.0,219274,0.64,-0.24,9.96,-0.03,-0.01,-0.01,32.05,1.349709,-79.5645272952117,616.9355941427582,9.983426265566347,0.033166247903554,-1.0796294170887282,0.8852807973422124
3307195,2047,1,187990.0,219256,0.65,-0.22,9.98,-0.03,-0.01,-0.0,32.05,1.389706,-93.01980497492332,429.2720351526092,10.003564364765191,0.03162277660168379,-1.261336971002252,0.6124425031757501
3347197,2023,1,187359.0,216280,0.65,-0.22,9.97,-0.03,-0.01,-0.0,32.05,1.429708,-93.64680412185785,2.3584821048842657,9.99358794427707,0.03162277660168379,-1.2698043162334194,-0.00823402132839743
3387195,2006,1,186227.0,214225,0.64,-0.22,9.96,-0.03,-0.01,-0.01,32.05,1.469706,-84.09191941072173,-475.7246558396519,9.982965491275626,0.033166247903554,-1.1407698384534348,-0.7033044363224126
3427198,1990,1,186043.0,214260,0.65,-0.22,9.94,-0.03,-0.01,-0.01,32.05,1.509709,-75.82853981198711,-750.2968993650076,9.963658966464077,0.033166247903554,-1.0291765640753794,-1.1024966020899227
3467195,1968,1,186187.0,214979,0.65,-0.24,9.98,-0.03,-0.01,-0.01,32.05,1.549706,-69.83258989565194,-680.6677612438037,10.004024190294624,0.033166247903554,-0.9482039213236012,-1.0012649331846801
3507197,1949,1,186522.0,216127,0.66,-0.22,9.96,-0.04,-0.01,-0.01,32.05,1.589708,-62.76676772274014,-334.0467872098877,9.984267624618242,0.042426406871192854,-0.8527831285321098,-0.49732332733090023
3547195,1919,1,186864.0,217157,0.63,-0.23,9.97,-0.03,-0.01,-0.01,32.05,1.629706,-65.13448660773408,85.30701670494422,9.992532211606825,0.033166247903554,-0.884758121333323,0.11236230971036393
3587198,1904,1,187068.0,217580,0.66,-0.22,9.96,-0.04,-0.01,-0.01,32.05,1.669709,-52.95679007037579,402.17685316504407,9.984267624618242,0.042426406871192854,-0.7203037337853739,0.5730496488922758
3627195,1911,1,187093.0,217578,0.64,-0.22,9.96,-0.03,-0.01,-0.01,32.05,1.709706,-18.175732363777687,585.0064802965557,9.982965491275626,0.033166247903554,-0.2506009845124574,0.8388600377502984
3667198,1904,1,187089.0,217517,0.65,-0.23,9.98,-0.04,-0.01,-0.01,32.05,1.749709,0.4313731490244772,716.1144597921628,10.003789282067071,0.042426406871192854,0.000679718021107177,1.029473909029755
3707195,1887,1,186980.0,217459,0.65,-0.21,9.95,-0.03,-0.01,-0.01,32.05,1.789706,12.85679431641583,855.0114267116676,9.973419674314322,0.033166247903554,0.16847951676300832,1.2314119502943486
3747198,1886,1,186932.0,217476,0.65,-0.21,9.96,-0.03,-0.01,-0.01,32.05,1.829709,34.13022000527664,929.786959902001,9.983396215717375,0.033166247903554,0.4557676900210475,1.3401258051888365
3787195,1871,1,187082.0,217648,0.66,-0.21,9.95,-0.03,-0.01,-0.0,32.05,1.869706,49.24593907638638,772.7535768728303,9.974076398343858,0.03162277660168379,0.6598987680586893,1.1118197846517506
3827198,1863,1,186901.0,215187,0.66,-0.23,9.94,-0.03,-0.01,-0.01,32.05,1.909709,61.83755732054285,285.9327777473252,9.964542136997565,0.033166247903554,0.8299429845677617,0.4040459519859795
3867195,1847,1,185471.0,211411,0.66,-0.21,9.94,-0.04,-0.01,-0.0,32.05,1.949706,72.79379511475966,-413.79638989692097,9.964100561515826,0.04123105625617661,0.977902113845628,-0.613268829348825
3907198,1837,1,184478.0,209917,0.65,-0.21,9.97,-0.03,-0.01,-0.0,32.05,1.989709,84.97564281015566,-1023.6456398100797,9.993372804013669,0.03162277660168379,1.1424125609406854,-1.4999099542447727
3947195,1826,1,184388.0,210398,0.66,-0.25,9.96,-0.03,-0.01,-0.01,32.05,2.029706,94.29106919463923,-1256.0175162643052,9.984973710531241,0.033166247903554,1.2682132602854714,-1.8377483002997934
3987198,1797,1,184799.0,211548,0.66,-0.24,9.97,-0.03,-0.01,-0.01,32.05,2.069709,90.45242490534199,-1040.176259201218,9.994703597405978,0.033166247903554,1.2163740726629035,-1.5239433149060717
4027894,1786,1,185324.0,212692,0.65,-0.22,9.97,-0.04,-0.01,-0.01,31.99,2.110405,92.658020482561,-547.4221587892738,9.99358794427707,0.042426406871192854,1.2461596621393105,-0.8075432374302856
4068196,1760,1,185719.0,213471,0.65,-0.23,9.98,-0.03,-0.01,-0.0,31.99,2.150707,93.00807254762097,-29.607162831659274,10.003789282067071,0.03162277660168379,1.2508869599326764,-0.05470789235242061
4108196,1726,1,186008.0,214045,0.65,-0.23,9.96,-0.03,-0.01,-0.0,31.99,2.190707,67.73324949705065,370.2851266651609,9.983836937770969,0.03162277660168379,0.9095616910353114,0.526683245616783
4148197,1690,1,186034.0,214335,0.64,-0.2,9.96,-0.04,-0.01,-0.01,31.99,2.230708,54.981006153637686,666.3270670074395,9.982544765739847,0.042426406871192854,0.7373483038426029,0.9570895452700727
4188213,1682,1,186130.0,214658,0.65,-0.21,9.97,-0.03,-0.01,-0.0,31.99,2.270724,55.7352113831553,913.3496874055153,9.993372804013669,0.03162277660168379,0.7475335107678435,1.3162281587154163
4228196,1641,1,186229.0,215049,0.65,-0.21,9.94,-0.03,-0.01,-0.01,31.99,2.310707,30.09030178667258,1063.2189229051567,9.963443179945374,0.033166247903554,0.40121038730405456,1.5341184448305827
4268196,1605,1,186452.0,215692,0.64,-0.21,9.97,-0.04,-0.01,-0.01,31.99,2.350707,6.062411114358361,957.3438989549423,9.99272735543205,0.042426406871192854,0.07672438681436661,1.3801899939109974
4308197,1575,1,186411.0,214134,0.66,-0.22,9.96,-0.03,-0.01,-0.01,31.99,2.390708,-17.466689413038154,482.5048558870269,9.984267624618242,0.033166247903554,-0.24102567412010661,0.6898360689857752
4348196,1535,1,185039.0,209819,0.66,-0.21,9.96,-0.03,-0.01,-0.01,31.99,2.430707,-44.63747459316047,-259.31079672462374,9.984052283516949,0.033166247903554,-0.6079550701915272,-0.3886669623628312
4388223,1534,1,183804.0,208169,0.64,-0.23,9.97,-0.03,-0.01,-0.01,31.99,2.470734,-43.002335952224605,-953.3047068231347,9.993167665960579,0.033166247903554,-0.5858732484836078,-1.3976434286096975
4428196,1519,1,183786.0,208707,0.65,-0.21,9.95,-0.04,-0.01,-0.0,31.99,2.510707,-50.830622950192726,-1274.3769122791648,9.973419674314322,0.04123105625617661,-0.6915907903726665,-1.8644404632193072
4468196,1498,1,184134.0,210108,0.63,-0.2,9.99,-0.03,-0.01,-0.01,31.99,2.550707,-67.13589642498732,-1116.3410135821139,10.01184298718273,0.033166247903554,-0.9117862727344611,-1.6346769158924093
4508196,1505,1,184784.0,211758,0.65,-0.24,9.94,-0.03,-0.01,-0.0,31.99,2.590707,-61.97249350977181,-642.345552897341,9.964120633553168,0.03162277660168379,-0.842056807767085,-0.945549449527624
4548196,1488,1,185270.0,212656,0.65,-0.22,9.98,-0.04,-0.01,-0.01,31.99,2.630707,-72.12617415682946,-122.51757746935016,10.003564364765191,0.042426406871192854,-0.9791777589294601,-0.18978749532092742
4588196,1490,1,185536.0,213101,0.65,-0.23,9.98,-0.03,-0.01,-0.01,31.99,2.670707,-77.5890287601655,278.4770064638384,10.003789282067071,0.033166247903554,-1.0529511860549492,0.39320623473011834
4628196,1510,1,185634.0,213385,0.64,-0.24,9.98,-0.03,-0.01,-0.01,31.99,2.710707,-53.92212389735345,570.1274214092706,10.003379428972991,0.033166247903554,-0.7333401387251679,0.8172278302644418
4668196,1509,1,185795.0,213714,0.63,-0.23,9.98,-0.03,-0.01,-0.01,31.99,2.750707,-61.41474744774456,818.4866672796388,10.002509685074042,0.033166247903554,-0.8345246947146219,1.178309722499563
4708197,1492,1,185982.0,214139,0.65,-0.24,9.95,-0.03,-0.01,-0.01,31.99,2.790708,-83.6234343527738,982.8860568638424,9.97409645030566,0.033166247903554,-1.1344431556490275,1.4173249541062292
4748196,1520,1,186155.0,214728,0.64,-0.23,9.96,-0.04,-0.01,-0.0,31.99,2.830707,-56.69017860843089,891.9146827454582,9.983190872661908,0.04123105625617661,-0.7707214891975624,1.285064462692753
4788197,1553,1,186312.0,213851,0.68,-0.24,9.96,-0.03,-0.01,-0.01,31.99,2.870708,-38.779080991275926,405.0235234189253,9.986070298170347,0.033166247903554,-0.5288400644219923,0.577188335488133
4828196,1535,1,185067.0,209109,0.63,-0.22,9.96,-0.04,-0.01,-0.01,31.99,2.910707,-54.45919561113998,-390.9037922778498,9.982329387472646,0.042426406871192854,-0.7405930538794531,-0.5799859836166151
4868197,1562,1,183553.0,207046,0.65,-0.23,9.98,-0.03,-0.01,-0.01,31.99,2.950708,-46.105627008373524,-1160.6589544024564,10.003789282067071,0.033166247903554,-0.6277818170258084,-1.6991094111485991
4908196,1587,1,183567.0,208170,0.65,-0.21,9.95,-0.04,-0.01,-0.01,31.99,2.990707,-23.486830286868553,-1529.787789469537,9.973419674314322,0.042426406871192854,-0.32232500501745237,-2.235774506009357
4948197,1611,1,184117.0,210018,0.65,-0.22,9.99,-0.04,-0.01,-0.01,31.99,3.030708,-12.501525487367399,-1350.1987418388278,10.01354083229304,0.042426406871192854,-0.1739733387325073,-1.974675496323015
4988196,1623,1,184832.0,212113,0.66,-0.22,9.96,-0.03,-0.01,-0.01,31.99,3.070707,-13.924441725799147,-786.7049388631156,9.984267624618242,0.033166247903554,-0.19318919107415938,-1.1554291343517158
5028884,1646,1,185475.0,213496,0.66,-0.23,9.97,-0.04,-0.01,-0.0,32.03,3.111395,4.779850271751409,-158.05707755973285,9.994468470108854,0.04123105625617661,0.05940397180674617,-0.24145728476948972
5067195,1710,1,185847.0,214234,0.65,-0.22,9.96,-0.04,-0.01,-0.01,32.03,3.149706,46.82215061214216,310.9228489403804,9.983611570969696,0.042426406871192854,0.6271665804721249,0.44037825023344873
5107198,1730,1,186102.0,214592,0.65,-0.21,9.98,-0.03,-0.01,-0.01,32.03,3.189709,65.42580706829327,607.5165923049576,10.003349439062898,0.033166247903554,0.8784007050262311,0.8715867993811528
5147195,1763,1,186224.0,214974,0.66,-0.22,9.97,-0.04,-0.01,-0.0,32.03,3.229706,76.68118170256886,838.501288467379,9.994243343045035,0.04123105625617661,1.030399544578859,1.2074083665444497
5187198,1776,1,186453.0,215581,0.66,-0.23,9.96,-0.03,-0.01,-0.0,32.03,3.269709,83.57163564010273,1041.5474654584193,9.984492976611282,0.03162277660168379,1.123452067176068,1.502610977351618
5227195,1786,1,186785.0,216233,0.64,-0.23,9.95,-0.03,-0.01,-0.0,32.03,3.309706,77.8146964843288,1096.2767636023032,9.973214125847294,0.03162277660168379,1.0457071586780453,1.5821802257814042
5267198,1803,1,186975.0,216264,0.65,-0.23,9.97,-0.03,-0.01,-0.01,32.03,3.349709,82.6087272226141,830.1898959140191,9.993813086104822,0.033166247903554,1.1104484163150812,1.1953246877598775
5307195,1811,1,186336.0,212989,0.66,-0.23,9.98,-0.04,-0.01,-0.01,32.03,3.389706,79.43114114756263,221.9068924860208,10.004444012537629,0.042426406871192854,1.0675365265130674,0.31096068060354287
5347198,1814,1,185017.0,210105,0.68,-0.23,9.96,-0.04,-0.01,-0.01,32.03,3.429709,68.27659229079327,-502.72245120809447,9.985834967592846,0.042426406871192854,0.9168992943414387,-0.7425557031864698
5387195,1815,1,184525.0,209935,0.65,-0.22,9.97,-0.03,-0.01,-0.01,32.03,3.469706,58.70499782072119,-994.9688090501596,9.99358794427707,0.033166247903554,0.7876391586824408,-1.4582175893086071
5428211,1810,1,184895.0,211261,0.66,-0.23,9.95,-0.03,-0.01,-0.01,32.03,3.510722,41.017535858366436,-1030.643511545377,9.974517532191719,0.033166247903554,0.548777834180451,-1.5100839453879034
5468196,1805,1,185457.0,212949,0.66,-0.23,9.95,-0.03,-0.01,-0.01,32.03,3.550707,24.832791250999662,-661.9552543854466,9.974517532191719,0.033166247903554,0.33021004068525617,-0.9740593932370956
5508196,1805,1,186068.0,214216,0.65,-0.22,9.97,-0.03,-0.01,-0.01,32.03,3.590707,13.625984624792936,-145.70782449852106,9.99358794427707,0.033166247903554,0.17886709052820385,-0.22350308440378178
5548196,1806,1,186473.0,214993,0.65,-0.19,9.95,-0.03,-0.01,-0.01,32.03,3.630707,3.95846676445095,273.3324968953214,9.97301860020325,0.033166247903554,0.04831155205226391,0.38572679001239935
5588196,1810,1,186640.0,215198,0.66,-0.22,9.97,-0.03,-0.01,-0.0,32.03,3.670707,-2.469270308046592,524.2808750252847,9.994243343045035,0.03162277660168379,-0.0384921846260144,0.7505729422502647
5628196,1827,1,186672.0,215448,0.66,-0.23,9.96,-0.04,-0.01,-0.01,32.03,3.710707,4.352722595711389,685.4693475516768,9.984492976611282,0.042426406871192854,0.053635802091525284,0.9849199200015875
5668196,1838,1,186761.0,215887,0.66,-0.23,9.92,-0.04,-0.01,-0.01,32.03,3.750707,7.035780479033613,822.3507586091171,9.944591494878008,0.042426406871192854,0.08986930812477478,1.183927606400473
5708196,1837,1,186986.0,216532,0.66,-0.24,9.97,-0.03,-0.01,-0.01,32.03,3.790707,-5.522186384492916,863.935608189974,9.994703597405978,0.033166247903554,-0.07972046142261957,1.2443865441072097
5748196,1840,1,187270.0,216958,0.65,-0.23,9.99,-0.03,-0.01,-0.0,32.03,3.830707,-7.378628286935642,652.6354618302252,10.013765525515364,0.03162277660168379,-0.1047908854677565,0.9371837403228909
5788196,1840,1,186914.0,214195,0.65,-0.24,9.97,-0.03,-0.01,-0.01,32.03,3.870707,-19.581144770372532,127.01250851838388,9.994048228820992,0.033166247903554,-0.2695804553729607,0.17299664545985027
5828196,1827,1,185535.0,210961,0.65,-0.23,9.97,-0.04,-0.01,-0.01,32.03,3.910707,-38.01005165864541,-548.6721639908474,9.993813086104822,0.042426406871192854,-0.5184546645628171,-0.8093605816644661
5868196,1827,1,184883.0,210467,0.65,-0.23,9.98,-0.04,-0.01,-0.01,32.03,3.950707,-43.49771334399382,-1057.3299322118469,10.003789282067071,0.042426406871192854,-0.5925631003220556,-1.548882514120315
5908196,1841,1,185135.0,211654,0.65,-0.24,10.0,-0.03,-0.01,-0.01,32.03,3.990707,-45.00958468928006,-1156.847919003223,10.023976256955121,0.033166247903554,-0.6129802519054929,-1.6935686636378402
5948196,1845,1,185679.0,213073,0.65,-0.22,9.96,-0.04,-0.01,-0.01,32.03,4.030707,-31.015077793469754,-856.9949458245784,9.983611570969696,0.042426406871192854,-0.42399064672640946,-1.257621620199866
5988196,1851,1,186224.0,214429,0.66,-0.21,9.96,-0.03,-0.01,-0.0,32.03,4.070707,-55.69873403946346,-385.9441108204768,9.984052283516949,0.03162277660168379,-0.7573324702745593,-0.5727752548223812
6028910,1810,1,186581.0,215052,0.65,-0.24,9.96,-0.04,-0.01,-0.01,31.81,4.111421,-72.55422310608422,12.375397697592154,9.984072315443234,0.042426406871192854,-0.9849583700306056,0.006329265107342183
6067198,1919,1,186751.0,215360,0.66,-0.22,9.94,-0.03,-0.01,-0.0,31.81,4.149709,-1.3997012805169247,257.65370899857953,9.964316333798319,0.03162277660168379,-0.024048129560013884,0.36293188104145
6107195,1921,1,186674.0,215560,0.68,-0.23,9.96,-0.03,-0.01,-0.0,31.81,4.189706,25.689416234122593,433.3463506511956,9.985834967592846,0.03162277660168379,0.341778380931343,0.6183660255501108
6147198,1923,1,186830.0,216024,0.66,-0.21,9.95,-0.03,-0.01,-0.01,31.81,4.229709,-2.733930692065313,628.3306016788846,9.974076398343858,0.033166247903554,-0.04206630566183433,0.9018476493986306
6187195,1920,1,187139.0,216774,0.68,-0.22,9.96,-0.04,-0.01,-0.0,31.81,4.269706,7.852239974203001,790.0465696976413,9.985609645885424,0.04123105625617661,0.10089523128059327,1.1369615366719283
6227198,1937,1,187464.0,217447,0.64,-0.2,9.95,-0.03,-0.01,-0.01,31.81,4.309709,9.285342808949036,744.9166648430179,9.972567372547552,0.033166247903554,0.12024864908488642,1.0713485518032115
6267195,1923,1,187292.0,215476,0.66,-0.24,9.95,-0.03,-0.01,-0.01,31.81,4.349706,-4.574405647086214,375.30376553973804,9.974753129777197,0.033166247903554,-0.06692110316781329,0.5339796907921034
6307198,1930,1,186070.0,212288,0.66,-0.22,9.96,-0.03,-0.01,-0.01,31.81,4.389709,-1.115619962959859,-220.74309707817,9.984267624618242,0.033166247903554,-0.0202117374353341,-0.3325945664321152
6347195,1947,1,185312.0,211085,0.66,-0.22,9.94,-0.03,-0.01,-0.01,31.81,4.429706,8.363819154568311,-755.841543732126,9.964316333798319,0.033166247903554,0.10780388108404039,-1.1105577905221622
6387198,1963,1,185349.0,211787,0.64,-0.24,9.99,-0.03,-0.01,-0.01,31.81,4.469709,25.646090938593176,-957.3330025571686,10.013356080755344,0.033166247903554,0.3411932920420143,-1.40350004425946
6427195,1968,1,185670.0,212904,0.67,-0.22,9.97,-0.04,-0.01,-0.01,31.81,4.509706,22.77751682340532,-766.5875082451347,9.99490870393522,0.042426406871192854,0.30245447162536965,-1.1261810188286048
6468197,1928,1,186203.0,214048,0.65,-0.22,9.99,-0.04,-0.01,-0.0,31.81,4.550708,-17.586493335945924,-356.2269887236876,10.01354083229304,0.04123105625617661,-0.24264357293267738,-0.5295704422095603
6508196,1913,1,186599.0,214718,0.67,-0.21,9.96,-0.03,-0.01,-0.01,31.81,4.590707,-35.88334078806873,38.00218493180021,9.984718323518196,0.033166247903554,-0.48973437804234804,0.043587265283685554
6548197,1931,1,186706.0,214922,0.67,-0.22,9.97,-0.04,-0.01,-0.01,31.81,4.630708,-22.519722878103078,306.1071056939631,9.99490870393522,0.042426406871192854,-0.30926464864268993,0.4333767887906061
6588196,1923,1,186699.0,214956,0.65,-0.22,9.98,-0.04,-0.01,-0.0,31.81,4.670707,-29.001582325161856,501.8825164536685,10.003564364765191,0.04123105625617661,-0.39679928397111963,0.7180086555145041
6628196,1924,1,186798.0,215206,0.66,-0.22,9.98,-0.04,-0.01,-0.0,31.81,4.710707,-34.730058986632045,709.1008119515802,10.004219109955558,0.04123105625617661,-0.47415981911458804,1.0192769814908857
6668196,1945,1,186909.0,215740,0.68,-0.21,9.98,-0.04,-0.01,-0.01,31.81,4.750707,-11.018616650215169,881.4302783619517,10.005343572311748,0.042426406871192854,-0.15394731296850725,1.2698215086384848
6708196,1961,1,187157.0,216335,0.65,-0.23,9.95,-0.04,-0.01,-0.01,31.81,4.790707,0.6381986570498102,831.5175511418067,9.973860837208427,0.042426406871192854,0.003472804722459491,1.1972549249862203
6748196,1957,1,187240.0,215156,0.68,-0.24,9.93,-0.03,-0.01,-0.01,31.81,4.830707,-3.346299326746147,403.09178384184406,9.956148853849061,0.033166247903554,-0.050336072317709354,0.5743798385491382
6788197,1967,1,185952.0,210918,0.68,-0.22,9.96,-0.03,-0.01,-0.0,31.81,4.870708,7.446965594132622,-329.9583227198253,9.985609645885424,0.03162277660168379,0.09542218062943891,-0.49137923417167717
6828196,1968,1,184622.0,208702,0.63,-0.21,9.99,-0.04,-0.01,-0.01,31.81,4.910707,5.557972364415298,-1044.5702175627841,10.012047742594918,0.042426406871192854,0.0699121653550088,-1.5303315562378428
6868197,1956,1,184495.0,209355,0.65,-0.24,9.95,-0.03,-0.01,-0.01,31.81,4.950708,-2.869809742033689,-1377.9885270960956,9.97409645030566,0.033166247903554,-0.043901291931577095,-2.01507821300198
6908196,1963,1,184939.0,210787,0.64,-0.21,9.95,-0.03,-0.01,-0.01,31.81,4.990707,3.692623041426401,-1191.29018841389,9.972772934344789,0.033166247903554,0.04472145054830963,-1.7436432230450898
6948197,1964,1,185590.0,212607,0.65,-0.21,9.97,-0.03,-0.01,-0.01,31.81,5.030708,4.366238577264225,-653.707556358108,9.993372804013669,0.033166247903554,0.05381832942430634,-0.9620683179708673
6988195,1963,1,186150.0,213735,0.65,-0.23,9.95,-0.03,-0.01,-0.01,31.81,5.070706,12.075427019925018,-81.69101679905306,9.973860837208427,0.033166247903554,0.1579274981772119,-0.13043101061015758
7028196,1963,1,186410.0,214198,0.65,-0.22,9.97,-0.04,-0.01,-0.0,31.81,5.110707,3.873163442619703,310.75772498086474,9.99358794427707,0.04123105625617661,0.047159568546637276,0.44013818157183593
7068883,1929,1,186376.0,214298,0.65,-0.21,9.97,-0.03,-0.01,-0.01,31.83,5.151394,-11.884511504427417,528.3369152662729,9.993372804013669,0.033166247903554,-0.16564083870989404,0.7564698947879699
7107198,1969,1,186389.0,214604,0.65,-0.23,9.96,-0.03,-0.01,-0.01,31.83,5.189709,15.990119181991506,693.5770171298147,9.983836937770969,0.033166247903554,0.2107936785731851,0.9967074121991568
7147195,1952,1,186531.0,215154,0.67,-0.22,9.99,-0.03,-0.01,-0.0,31.83,5.229706,20.333509716339627,849.6059206733798,10.014858960564547,0.03162277660168379,0.26944924024008227,1.2235530508120558
7187198,1943,1,186726.0,215795,0.66,-0.22,9.99,-0.03,-0.01,-0.01,31.83,5.269709,2.6434657475435026,872.286026103048,10.01419492520492,0.033166247903554,0.030553046886938336,1.2565269606656517
7227195,1940,1,186947.0,215553,0.65,-0.22,9.96,-0.03,-0.01,-0.01,31.83,5.309706,18.234487517418028,587.246378790573,9.983611570969696,0.033166247903554,0.24110287694270255,0.8421165574896784
7267198,1933,1,186099.0,211961,0.67,-0.21,9.98,-0.03,-0.01,-0.01,31.83,5.349709,9.873086599791343,-18.970818491474827,10.004668910063941,0.033166247903554,0.1281858681526765,-0.039244037454009756
7307195,1910,1,184649.0,209171,0.66,-0.21,9.93,-0.04,-0.01,-0.0,31.83,5.389706,1.0219244749571317,-710.03535027092,9.954124773178203,0.04123105625617661,0.008654851604371187,-1.0439615703850902
7347198,1920,1,184315.0,209453,0.65,-0.2,9.96,-0.04,-0.01,-0.01,31.83,5.429709,17.48687889657696,-1140.4563446127331,9.983190872661908,0.042426406871192854,0.23100675429021153,-1.669737456239505
7387195,1897,1,184608.0,210859,0.65,-0.21,9.97,-0.03,-0.01,-0.01,31.83,5.469706,4.844816031369904,-1108.1267157702437,9.993372804013669,0.033166247903554,0.06028130556004436,-1.6227344001753137
7427198,1891,1,185206.0,212401,0.65,-0.23,9.96,-0.03,-0.01,-0.01,31.83,5.509709,11.188397073106017,-689.126007938345,9.983836937770969,0.033166247903554,0.14594855238945184,-1.0135621187021886
7468199,1898,1,185786.0,213648,0.66,-0.21,9.96,-0.04,-0.01,-0.0,31.83,5.55071,28.7558499004577,-140.4119063961677,9.984052283516949,0.04123105625617661,0.38318920678059243,-0.21580351146129467
7508196,1870,1,186169.0,214264,0.67,-0.22,9.96,-0.03,-0.01,-0.01,31.83,5.590707,12.927741942587199,323.53804212291516,9.984933650255268,0.033166247903554,0.16943763296948464,0.4587190927871373
7548196,1856,1,186320.0,214444,0.66,-0.23,9.97,-0.03,-0.01,-0.01,31.83,5.630707,16.51888926502035,666.8345659405943,9.994468470108854,0.033166247903554,0.21793448388816544,0.9578273824077587
7588196,1834,1,186413.0,214673,0.66,-0.22,9.99,-0.03,-0.01,-0.01,31.83,5.670707,1.1031597403672921,966.1156258044781,10.01419492520492,0.033166247903554,0.009751897813343407,1.3929429386137413
7628196,1779,1,186641.0,215183,0.64,-0.24,9.98,-0.03,-0.01,-0.0,31.83,5.710707,-27.943030499034563,1228.97736465337,10.003379428972991,0.03162277660168379,-0.38250401132087086,1.775109560706454
7668222,1778,1,186900.0,215701,0.67,-0.24,9.98,-0.03,-0.01,-0.01,31.83,5.750733,-24.456444562710747,1299.3839534569952,10.005343572311748,0.033166247903554,-0.33541921551959447,1.8774715413202236
7708196,1723,1,187081.0,215739,0.64,-0.22,9.97,-0.04,-0.01,-0.01,31.83,5.790707,-52.95824334008279,971.5897612105307,9.992942509591456,0.042426406871192854,-0.7203233595478384,1.400901616229474
7748197,1686,1,186513.0,212102,0.67,-0.22,9.99,-0.04,-0.01,-0.01,31.83,5.830708,-78.9982146898673,222.1121725082414,10.014858960564547,0.042426406871192854,-1.0719816166704068,0.3112591309334338
7788196,1670,1,184642.0,207562,0.65,-0.22,9.98,-0.03,-0.01,-0.01,31.83,5.870707,-74.32788158915143,-672.9341308629129,10.003564364765191,0.033166247903554,-1.0089108407345042,-0.9900212451069806
7828196,1648,1,183936.0,207615,0.65,-0.23,9.95,-0.04,-0.01,-0.01,31.83,5.910707,-78.42838289949425,-1282.5101266342572,9.973860837208427,0.042426406871192854,-1.0642862912200093,-1.8762650941848218
7868215,1637,1,184404.0,209249,0.64,-0.23,9.96,-0.03,-0.01,-0.0,31.83,5.950726,-69.38994254137287,-1324.575143687602,9.983190872661908,0.03162277660168379,-0.9422261652410479,-1.9374221326566339
7908196,1643,1,185116.0,210988,0.66,-0.23,9.96,-0.04,-0.01,-0.0,31.83,5.990707,-48.94739132676273,-862.0936859167347,9.984492976611282,0.04123105625617661,-0.6661585830342748,-1.2650345220793144
7948195,1632,1,185828.0,212686,0.65,-0.23,9.97,-0.03,-0.01,-0.0,31.83,6.030706,-29.520214644860467,-220.5978189254725,9.993813086104822,0.03162277660168379,-0.40380318329123766,-0.33238335098051164
7988196,1648,1,186314.0,213623,0.68,-0.24,9.95,-0.03,-0.01,-0.01,31.83,6.070707,-11.75127899280703,284.36448177310274,9.97609643096938,0.033166247903554,-0.1638415927660664,0.4017658545570618
8028196,1641,1,186431.0,213989,0.66,-0.22,9.94,-0.04,-0.01,-0.01,31.83,6.110707,24.849545825330146,558.9652542047359,9.964316333798319,0.042426406871192854,0.3304363037762844,0.8009994976266389
8068882,1683,1,186456.0,214217,0.63,-0.22,9.99,-0.04,-0.01,-0.01,31.85,6.151393,59.331494353577945,708.2562418563354,10.01226248157728,0.042426406871192854,0.7960997163335368,1.0180490869261094
8107195,1635,1,186538.0,214761,0.65,-0.23,9.96,-0.04,-0.01,-0.01,31.85,6.189706,57.50593873133232,832.383483314743,9.983836937770969,0.042426406871192854,0.771446397795822,1.1985138772207358
8147198,1661,1,186794.0,215424,0.68,-0.22,9.98,-0.03,-0.01,-0.0,31.85,6.229709,79.92188230960467,860.9247681904408,10.005558455178802,0.03162277660168379,1.0741637681265048,1.2400091761520176
8187195,1659,1,187044.0,216007,0.65,-0.22,9.97,-0.03,-0.01,-0.0,31.85,6.269706,112.58826562189358,601.2954341624559,9.99358794427707,0.03162277660168379,1.515308778149426,0.8625420483145428
8227198,1664,1,186799.0,213250,0.66,-0.24,9.97,-0.03,-0.01,-0.01,31.85,6.309709,127.19145413912172,-36.99107005262932,9.994703597405978,0.033166247903554,1.7125183585064816,-0.06544312865132637
8267195,1671,1,185163.0,208763,0.65,-0.24,9.96,-0.04,-0.01,-0.0,31.85,6.349706,152.87856963880853,-867.7867873103215,9.984072315443234,0.04123105625617661,2.0594114539630066,-1.2733115476302606
8307198,1655,1,184319.0,208415,0.64,-0.24,9.95,-0.03,-0.01,-0.01,31.85,6.389709,156.9675178841304,-1499.1913035575865,9.973449754222457,0.033166247903554,2.1146308854323954,-2.191291213309238
8347195,1643,1,184669.0,210083,0.65,-0.22,9.97,-0.04,-0.01,-0.01,31.85,6.429706,153.54982172714026,-1611.1979856649255,9.99358794427707,0.042426406871192854,2.0684764155292785,-2.354134294010994
8387198,1626,1,185451.0,212360,0.66,-0.23,9.96,-0.03,-0.01,-0.01,31.85,6.469709,158.26593986204134,-1193.756664940903,9.984492976611282,0.033166247903554,2.1321654980334794,-1.7472291576391745
8427195,1594,1,186314.0,214286,0.66,-0.21,9.99,-0.03,-0.01,-0.01,31.85,6.509706,131.8718318977844,-532.7799017575682,10.013980227661726,0.033166247903554,1.7757247830903615,-0.7862553089012995
8467198,1535,1,186945.0,215465,0.66,-0.22,9.97,-0.03,-0.01,-0.01,31.85,6.549709,89.90309925993884,30.584645756361283,9.994243343045035,0.033166247903554,1.2089556736001565,0.032803132517420064
8508196,1485,1,187084.0,215932,0.66,-0.21,9.95,-0.04,-0.01,-0.0,31.85,6.590707,45.32628946536053,342.19227341840303,9.974076398343858,0.04123105625617661,0.6069656395145249,0.4858399076807455
8548175,1415,1,187121.0,216302,0.67,-0.23,9.97,-0.04,-0.01,-0.01,31.85,6.630686,-14.147610921249797,475.4185895095205,9.99513381601267,0.042426406871192854,-0.19620299202122804,0.6795335635827443
8588196,1360,1,187303.0,217176,0.68,-0.21,9.97,-0.04,-0.01,-0.01,31.85,6.670707,-64.58993831299027,569.0552729422567,9.995368927658449,0.042426406871192854,-0.8774042382711491,0.8156690664830909
8628196,1338,1,187661.0,218282,0.66,-0.21,9.96,-0.04,-0.01,-0.0,31.85,6.710707,-81.93317210772905,644.8131542788688,9.984052283516949,0.04123105625617661,-1.111616914130239,0.9258111272261226
8668196,1338,1,188045.0,219365,0.65,-0.21,9.98,-0.04,-0.01,-0.01,31.85,6.750707,-80.18099653057659,586.1554898888246,10.003349439062898,0.042426406871192854,-1.0879545605370864,0.8405305475648971
8708196,1338,1,188000.0,217631,0.67,-0.22,9.98,-0.03,-0.01,-0.0,31.85,6.790707,-80.1208630461683,288.0729812341793,10.004883807421253,0.03162277660168379,-1.0871424845160464,0.4071575282113512
8748196,1338,1,187008.0,215504,0.68,-0.23,9.98,-0.04,-0.01,-0.01,31.85,6.830707,-82.84424805906549,-185.33763240561998,10.005783327656061,0.042426406871192854,-1.1239205905379288,-0.28111964696766784
8788196,1338,1,186595.0,215443,0.64,-0.23,9.95,-0.03,-0.01,-0.01,31.85,6.870707,-86.6634162997366,-603.3485826191946,9.973214125847294,0.033166247903554,-1.175496762766835,-0.8888529501880361
8828196,1338,1,186794.0,216345,0.65,-0.22,9.97,-0.03,-0.01,-0.01,31.85,6.910707,-94.26278252561377,-735.4511698294992,9.99358794427707,0.033166247903554,-1.2781228312187187,-1.0809128511266504
8868197,1338,1,187215.0,217637,0.65,-0.21,9.97,-0.03,-0.01,-0.0,31.85,6.950708,-102.47440568246806,-525.1302763287406,9.993372804013669,0.03162277660168379,-1.3890171578175303,-0.7751337530475961
8908196,1338,1,187827.0,219343,0.65,-0.22,9.97,-0.03,-0.01,-0.0,31.85,6.990707,-113.7074501493473,-113.46055868934815,9.99358794427707,0.03162277660168379,-1.5407144383690987,-0.1766197734282659
8948196,1338,1,188388.0,220508,0.64,-0.23,9.96,-0.04,-0.01,-0.01,31.85,7.030707,-127.92074434339276,295.4801611184716,9.983190872661908,0.042426406871192854,-1.7326586689179435,0.4179265999218612
8988196,1338,1,188668.0,221134,0.66,-0.23,9.97,-0.04,-0.01,-0.01,31.85,7.070707,-140.63499575922995,591.9836826095296,9.994468470108854,0.042426406871192854,-1.9043589919887083,0.8490039782540915
9028196,1338,1,188800.0,221505,0.64,-0.22,9.95,-0.03,-0.01,-0.01,31.85,7.110707,-162.14917167101845,798.2242729614998,9.972988518994693,0.033166247903554,-2.194898390167827,1.1488508486977531
9068883,1338,1,188928.0,222165,0.66,-0.22,9.98,-0.04,-0.01,-0.01,31.89,7.151394,-175.1140488430799,967.5863434174536,10.004219109955558,0.042426406871192854,-2.369983302854301,1.3950811698552466
9107198,1392,1,189244.0,222920,0.67,-0.23,9.96,-0.03,-0.01,-0.01,31.89,7.189709,-149.1725086408976,1063.7105697943834,9.98515898721698,0.033166247903554,-2.019654314698561,1.5348332351676663
9147195,1440,1,189488.0,223718,0.66,-0.2,9.97,-0.04,-0.01,-0.01,31.89,7.229706,-115.18894167038552,957.0917045737046,9.993823092290558,0.042426406871192854,-1.5607213239079523,1.379823336233047
9187198,1485,1,189621.0,222178,0.69,-0.22,9.97,-0.04,-0.01,-0.01,31.89,7.269709,-101.88354463776733,556.6664162879595,9.996269304095405,0.042426406871192854,-1.3810378416197497,0.7976572876677445
9227195,1523,1,188344.0,219354,0.64,-0.22,9.98,-0.03,-0.01,-0.01,31.89,7.309706,-81.03099183064839,-53.75679420737887,10.00291957380444,0.033166247903554,-1.0994333698556726,-0.08981830091952063
9267198,1584,1,187725.0,218586,0.65,-0.21,9.96,-0.03,-0.01,-0.01,31.89,7.349709,-51.65374215661968,-625.1539529220431,9.983396215717375,0.033166247903554,-0.7027066499735877,-0.9205551094623868
9307208,1626,1,187673.0,219108,0.64,-0.22,9.96,-0.03,-0.01,-0.01,31.89,7.389719,-31.713684212622923,-910.3461965673872,9.982965491275626,0.033166247903554,-0.43342501639118536,-1.3351873677677208
9347198,1680,1,188031.0,220175,0.67,-0.21,9.95,-0.03,-0.01,-0.01,31.89,7.429709,-6.680678797443052,-840.275345953693,9.974743104461387,0.033166247903554,-0.09536538734651599,-1.233313506613692
9387195,1729,1,188476.0,221507,0.65,-0.23,9.96,-0.04,-0.01,-0.01,31.89,7.469706,15.965022413281327,-550.2893303257041,9.983836937770969,0.042426406871192854,0.21045475784913817,-0.8117117302122185
9427198,1780,1,188887.0,222329,0.65,-0.23,9.96,-0.03,-0.01,-0.01,31.89,7.509709,40.08561564651012,-243.14379893387536,9.983836937770969,0.033166247903554,0.5361926652846565,-0.36516225999676183
9467196,1841,1,188999.0,222454,0.66,-0.21,9.97,-0.03,-0.01,-0.0,31.89,7.549707,74.32035790178622,-25.67396839579942,9.994028216890325,0.03162277660168379,0.9985176668300353,-0.048989541564021924
9507198,1877,1,189036.0,222791,0.64,-0.21,9.99,-0.04,-0.01,-0.01,31.89,7.589709,82.85167036623945,132.51203053820225,10.012681958396561,0.042426406871192854,1.1137292556570135,0.18099223189491787
9547195,1906,1,189255.0,223343,0.66,-0.21,9.94,-0.03,-0.01,-0.0,31.89,7.629706,88.46531059403553,296.64759834847564,9.964100561515826,0.03162277660168379,1.1895389757255512,0.419623901113924
9587198,1959,1,189482.0,224088,0.65,-0.22,9.97,-0.03,-0.01,-0.0,31.89,7.669709,113.13596995574426,437.9485236159227,9.99358794427707,0.03162277660168379,1.522705282119159,0.6250569837090204
9627195,1985,1,189694.0,224813,0.64,-0.2,9.95,-0.03,-0.01,-0.01,31.89,7.709706,118.83329351939439,417.82740168760625,9.972567372547552,0.033166247903554,1.5996451085016148,0.5958035015029974
9667198,2015,1,189853.0,223854,0.65,-0.24,9.98,-0.03,-0.01,-0.01,31.89,7.749709,123.23453165136425,111.43580596659693,10.004024190294624,0.033166247903554,1.659081876302925,0.15035015524173062
9707195,2053,1,188712.0,220673,0.64,-0.24,9.97,-0.03,-0.01,-0.0,31.89,7.789706,141.27615378184834,-444.8832658225265,9.993402823863352,0.03162277660168379,1.9027259767071478,-0.6584650850531725
9747198,2077,1,187977.0,219662,0.64,-0.2,9.96,-0.03,-0.01,-0.01,31.89,7.829709,145.70847482487503,-1028.9864028678883,9.982544765739847,0.033166247903554,1.9625825054283805,-1.5076747258929337
9787195,2096,1,187911.0,219878,0.66,-0.23,9.96,-0.03,-0.01,-0.01,31.89,7.869706,144.6964224518193,-1364.2427786845908,9.984492976611282,0.033166247903554,1.948915187256447,-1.9950936908666348
9827198,2111,1,188137.0,220812,0.64,-0.21,9.95,-0.03,-0.01,-0.01,31.89,7.909709,145.31593787420275,-1294.9635755323168,9.972772934344789,0.033166247903554,1.9572814681086614,-1.8943707816828095
9867196,2114,1,188581.0,222303,0.68,-0.23,9.97,-0.04,-0.01,-0.0,31.89,7.949707,132.0976795564629,-862.5582651101315,9.995809121827007,0.04123105625617661,1.7787747554946804,-1.2657099595233965
9907198,2115,1,189214.0,223938,0.65,-0.23,9.97,-0.03,-0.01,-0.01,31.89,7.989709,118.95253740281281,-239.75181896011645,9.993813086104822,0.033166247903554,1.6012554442294147,-0.36023076431977874
9947196,2112,1,189857.0,225521,0.66,-0.22,9.98,-0.03,-0.01,-0.01,31.89,8.029707,109.83929094720004,397.77161256110037,10.004219109955558,0.033166247903554,1.4781850951011033,0.5666450046542545
9987198,2119,1,190412.0,226348,0.67,-0.23,9.96,-0.03,-0.01,-0.01,31.89,8.069709,97.1734987355715,948.5783870487202,9.98515898721698,0.033166247903554,1.3071391920780666,1.367446084923771
10027195,2110,1,190632.0,226767,0.64,-0.21,9.96,-0.03,-0.01,-0.01,31.89,8.109706,96.25332545139113,1364.1605785645886,9.982750122085598,0.033166247903554,1.2947126602275123,1.9716482903455577
10067198,2107,1,190783.0,227295,0.64,-0.22,9.99,-0.03,-0.01,-0.01,31.89,8.149709,67.01092735655554,1580.8135894184973,10.012896683777377,0.033166247903554,0.8998070510783187,2.2866334596852878
10107883,2027,1,190899.0,227498,0.65,-0.24,9.98,-0.03,-0.01,-0.0,32.05,8.190394,6.185242612072497,1501.6036846879929,10.004024190294624,0.03162277660168379,0.07838317168112742,2.1714726079778273
10148199,2029,1,191010.0,227072,0.65,-0.23,9.96,-0.03,-0.01,-0.01,32.05,8.23071,-18.359947502073233,1071.5703649110744,9.983836937770969,0.033166247903554,-0.2530887282045848,1.5462603502862091
10188196,2000,1,189859.0,222695,0.66,-0.21,9.98,-0.03,-0.01,-0.01,32.05,8.270707,-26.10498044747518,379.29389086831554,10.004004198319791,0.033166247903554,-0.35768196106002187,0.5397808116597761
10228199,2002,1,188759.0,220883,0.65,-0.21,9.96,-0.03,-0.01,-0.01,32.05,8.31071,-42.56595753144789,-334.82423505795,9.983396215717375,0.033166247903554,-0.5799801515659913,-0.4984536349186393
10268196,1973,1,188438.0,220625,0.65,-0.23,9.97,-0.03,-0.01,-0.01,32.05,8.350707,-55.50336174409374,-805.7038454341997,9.993813086104822,0.033166247903554,-0.7546940541274417,-1.1830510620598795
10308199,1969,1,188557.0,220968,0.66,-0.24,9.95,-0.04,-0.01,-0.01,32.05,8.39071,-66.60767607422075,-910.0436059663637,9.974753129777197,0.042426406871192854,-0.9046528913097238,-1.334747440571102
10348196,1954,1,188756.0,221438,0.67,-0.23,9.919999999999998,-0.03,-0.01,-0.01,32.05,8.430707,-71.8976477345297,-727.1785688745287,9.945260177592136,0.033166247903554,-0.9760916110112114,-1.068885570257526
10388197,1939,1,189030.0,222043,0.66,-0.23,9.98,-0.04,-0.01,-0.0,32.05,8.470708,-84.68007976465758,-445.29951123079144,10.004444012537629,0.04123105625617661,-1.1487126830209418,-0.6590702514890898
10428196,1932,1,189277.0,222494,0.66,-0.23,9.94,-0.03,-0.01,-0.0,32.05,8.510707,-86.57810079975583,-203.9811484693358,9.964542136997565,0.03162277660168379,-1.1743446148007033,-0.3082248833143593
10468199,1935,1,189328.0,222567,0.64,-0.23,9.97,-0.03,-0.01,-0.0,32.05,8.55071,-74.62262207703078,-12.881601213728908,9.993167665960579,0.03162277660168379,-1.0128911802240854,-0.030391111165020666
10508196,1922,1,189378.0,222909,0.65,-0.22,9.95,-0.04,-0.01,-0.0,32.05,8.590707,-86.24967141851047,191.6825830088187,9.973635244984647,0.04123105625617661,-1.169909321756591,0.2670184838100144
10548196,1904,1,189654.0,223411,0.68,-0.22,9.95,-0.04,-0.01,-0.01,32.05,8.630707,-90.43561955811006,419.2289329461316,9.975635318113829,0.042426406871192854,-1.226438693751819,0.5978411448251999
10588196,1915,1,189785.0,223982,0.65,-0.22,9.96,-0.03,-0.01,-0.01,32.05,8.670707,-80.18565594097022,559.7881371304195,9.983611570969696,0.033166247903554,-1.0880174838067105,0.8021958618805749
10628199,1897,1,190081.0,224342,0.67,-0.22,9.98,-0.03,-0.01,-0.01,32.05,8.71071,-83.61123346357608,457.59749287319295,10.004883807421253,0.033166247903554,-1.134278388054894,0.6536240176240293
10668195,1902,1,189670.0,221581,0.64,-0.23,9.98,-0.03,-0.01,-0.01,32.05,8.750706,-76.97093750758,66.10391153509725,10.003144505604226,0.033166247903554,-1.0446041379838413,0.08444350392071541
10708199,1908,1,188636.0,219224,0.65,-0.22,9.98,-0.03,-0.01,-0.01,32.05,8.79071,-61.48244168704062,-463.8396150682113,10.003564364765191,0.033166247903554,-0.8354388753751274,-0.6860251399708555
10748196,1904,1,188170.0,218795,0.65,-0.21,9.97,-0.03,-0.01,-0.01,32.05,8.830707,-57.476748718335024,-861.6142877851465,9.993372804013669,0.033166247903554,-0.7813437694696136,-1.264337539835383
10788199,1903,1,188307.0,219275,0.66,-0.2,9.98,-0.04,-0.01,-0.01,32.05,8.87071,-56.23950304537513,-926.3776192185192,10.00379927827423,0.042426406871192854,-0.764635315718219,-1.3584949615953859
10828196,1899,1,188676.0,220237,0.65,-0.23,9.95,-0.04,-0.01,-0.01,32.05,8.910707,-47.8609413922291,-665.8924153331002,9.973860837208427,0.042426406871192854,-0.6514865588105544,-0.9797835108153677
10868199,1905,1,189147.0,221182,0.66,-0.22,9.95,-0.03,-0.01,-0.01,32.05,8.95071,-41.72196512969231,-267.3334292425173,9.974291954820652,0.033166247903554,-0.5685824087252137,-0.4003308217859671
10908196,1907,1,189434.0,221655,0.67,-0.22,9.97,-0.03,-0.01,-0.01,32.05,8.990707,-31.516821410857315,64.61284308720887,9.99490870393522,0.033166247903554,-0.4307664716166447,0.08227568522433944
10948201,1917,1,189498.0,221791,0.67,-0.23,9.96,-0.03,-0.01,-0.0,32.05,9.030712,-13.909774759103028,254.88158421435793,9.98515898721698,0.03162277660168379,-0.19299112019779974,0.3589015738181745
10988196,1925,1,189526.0,221896,0.67,-0.23,9.95,-0.03,-0.01,-0.0,32.05,9.070707,-10.822896246441223,368.2586000757494,9.975184208825418,0.03162277660168379,-0.1513041957718733,0.523736940746976
11028199,1913,1,189606.0,222067,0.69,-0.21,9.97,-0.03,-0.01,-0.01,32.05,9.11071,-2.1433553376322645,490.1487136936194,9.996054221541618,0.033166247903554,-0.03409084758433581,0.7009492394703613
11068196,1931,1,189670.0,222435,0.68,-0.22,9.94,-0.03,-0.01,-0.01,32.05,9.150707,-2.8540741400741534,601.2832481048983,9.965661041797478,0.033166247903554,-0.04368878961022141,0.862524331379116
11108886,1893,1,189871.0,222987,0.68,-0.22,9.96,-0.03,-0.01,-0.01,32.05,9.191397,-11.866595948738215,572.7571984629614,9.985609645885424,0.033166247903554,-0.16539889708083386,0.8210511824870476
11147241,1962,1,189964.0,221936,0.66,-0.23,10.0,-0.03,-0.01,-0.01,32.05,9.229752,33.87910818546093,294.11888266754397,10.024395243604474,0.033166247903554,0.45237653633223973,0.41594747892237005
11187198,1966,1,189034.0,219032,0.66,-0.22,9.96,-0.03,-0.01,-0.01,32.05,9.269709,64.17514586903577,-185.1286378050528,9.984267624618242,0.033166247903554,0.8615110805456976,-0.2808157961262174
11227195,1959,1,188212.0,218119,0.67,-0.23,9.97,-0.04,-0.01,-0.01,32.05,9.309706,39.69812315067868,-645.3812865342579,9.99513381601267,0.042426406871192854,0.530959751088947,-0.9499630095789051
11267198,1939,1,188250.0,218653,0.66,-0.22,9.95,-0.03,-0.01,-0.01,32.05,9.349709,36.391681403711445,-844.8859909035456,9.974291954820652,0.033166247903554,0.48630772262097316,-1.2400167819320027
11307196,1950,1,188546.0,219623,0.65,-0.22,9.95,-0.03,-0.01,-0.0,32.05,9.389707,39.07326342430309,-700.3872457779996,9.973635244984647,0.03162277660168379,0.522521297783001,-1.029934487098631
11347198,1936,1,188926.0,220715,0.66,-0.22,9.96,-0.03,-0.01,-0.01,32.05,9.429709,32.45712079626075,-341.3955980100162,9.984267624618242,0.033166247903554,0.4331732276872576,-0.5080075380196913
11387196,1941,1,189253.0,221577,0.67,-0.22,9.98,-0.03,-0.01,-0.01,32.05,9.469707,36.398530909972294,5.11291752237946,10.004883807421253,0.033166247903554,0.4864002221633684,-0.004229432133003744
11427197,1942,1,189434.0,221823,0.65,-0.23,9.96,-0.03,-0.01,-0.0,32.05,9.509708,38.64524184848441,194.6549544505765,9.983836937770969,0.03162277660168379,0.5167410563479621,0.27133992350860225
11467195,1941,1,189403.0,221780,0.65,-0.22,9.96,-0.03,-0.01,-0.01,32.05,9.549706,40.844139889658884,257.36975788504986,9.983611570969696,0.033166247903554,0.5464361985723042,0.3625190532241636
11507198,1936,1,189395.0,221826,0.66,-0.24,9.96,-0.04,-0.01,-0.01,32.05,9.589709,34.582823513103094,331.6033780259582,9.984728338818238,0.042426406871192854,0.4618798995389404,0.47044503735254595
11547195,1924,1,189413.0,222290,0.67,-0.23,9.96,-0.04,-0.01,-0.0,32.05,9.629706,26.539374591716758,503.67821582943805,9.98515898721698,0.04123105625617661,0.35325669135816296,0.7206193677761557
11588197,1929,1,189718.0,223103,0.67,-0.22,9.95,-0.04,-0.01,-0.01,32.05,9.670708,31.786551745484445,698.9728178553585,9.97495864653082,0.042426406871192854,0.42411749024005474,1.0045522014248411
11628196,1919,1,189995.0,223879,0.67,-0.22,9.95,-0.03,-0.01,-0.01,32.05,9.710707,23.345241490952645,728.4117360513029,9.97495864653082,0.033166247903554,0.3101213413170997,1.0473525419166738
11668199,1906,1,189922.0,221681,0.67,-0.25,9.96,-0.03,-0.01,-0.01,32.05,9.75071,14.25820648071339,458.2182477824185,9.985639689073505,0.033166247903554,0.18740496612650484,0.6545265141526039
11708196,1914,1,188807.0,219396,0.67,-0.22,9.98,-0.04,-0.01,-0.01,32.05,9.790707,21.59925995018352,-47.10608437379438,10.004883807421253,0.042426406871192854,0.28654263543652936,-0.08014903782040954
11748199,1908,1,188222.0,218842,0.68,-0.24,9.95,-0.04,-0.01,-0.01,32.05,9.83071,21.178874420980097,-543.8511002102152,9.97609643096938,0.042426406871192854,0.2808655154223229,-0.8023513848600697
11788196,1904,1,188138.0,219123,0.66,-0.22,9.96,-0.03,-0.01,-0.0,32.05,9.870707,17.881594115031195,-780.7693457163155,9.984267624618242,0.03162277660168379,0.23633720814965936,-1.1467995574761964
11828197,1903,1,188315.0,219960,0.65,-0.23,9.97,-0.03,-0.01,-0.01,32.05,9.910708,20.748132061813216,-675.3515632095056,9.993813086104822,0.033166247903554,0.2750485310155892,-0.9935358758709736
11868196,1906,1,188647.0,221061,0.66,-0.23,9.97,-0.03,-0.01,-0.01,32.05,9.950707,27.818581717114036,-348.01637774223315,9.994468470108854,0.033166247903554,0.37053181590317136,-0.5176332866621584
11908199,1902,1,189018.0,221876,0.66,-0.24,9.97,-0.03,-0.01,-0.01,32.05,9.99071,26.665886227654678,0.08548780114953883,9.994703597405978,0.033166247903554,0.354965174858473,-0.011538658050722525
11948196,1889,1,189169.0,222301,0.65,-0.23,9.97,-0.03,-0.01,-0.0,32.05,10.030707,17.62066056810793,246.66197744906404,9.993813086104822,0.03162277660168379,0.2328134163949267,0.34695133957648233
11988199,1877,1,189165.0,222482,0.66,-0.21,9.97,-0.04,-0.01,-0.01,32.05,10.07071,13.008185541922142,406.86528500245157,9.994028216890325,0.042426406871192854,0.17052398807943472,0.5798660161812557
12028196,1870,1,189154.0,222870,0.66,-0.22,9.99,-0.03,-0.01,-0.01,32.05,10.110707,3.8282213860992167,552.8928066278978,10.01419492520492,0.033166247903554,0.04655264601760657,0.7921709522915974
12068199,1857,1,189234.0,223322,0.67,-0.22,9.97,-0.03,-0.01,-0.01,32.05,10.15071,7.096320885204462,685.4241570315643,9.99490870393522,0.033166247903554,0.0906868794436353,0.9848542188900539
12108883,1865,1,189360.0,223950,0.67,-0.22,9.95,-0.03,-0.01,-0.01,31.91,10.191394,5.703020764949473,692.7075444540138,9.97495864653082,0.033166247903554,0.07187097963499019,0.9954433125360873
12147198,1812,1,189546.0,223889,0.65,-0.21,9.96,-0.03,-0.01,-0.0,31.91,10.229709,-25.392985810358493,449.8302223728536,9.983396215717375,0.03162277660168379,-0.34806678945304,0.6423314212081567
12187195,1804,1,188649.0,220597,0.68,-0.21,9.98,-0.03,-0.01,-0.01,31.91,10.269706,-43.23336156340825,-31.392317254201526,10.005343572311748,0.033166247903554,-0.5889931468386491,-0.05730327362991046
12227198,1788,1,187692.0,219157,0.66,-0.21,9.93,-0.03,-0.01,-0.01,31.91,10.309709,-40.6304353348153,-555.5809057642574,9.954124773178203,0.033166247903554,-0.5538417832418843,-0.819404989488964
12267196,1798,1,187435.0,219212,0.66,-0.21,9.96,-0.03,-0.01,-0.0,31.91,10.349707,-32.55506408864173,-864.5462527913321,9.984052283516949,0.03162277660168379,-0.4447874782312682,-1.268600233856258
12307198,1795,1,187602.0,220027,0.66,-0.22,9.95,-0.03,-0.01,-0.01,31.91,10.389709,-26.271811565658272,-827.4790893545958,9.974291954820652,0.033166247903554,-0.35993494127516945,-1.2147094215105354
12347195,1786,1,187884.0,221214,0.67,-0.23,9.94,-0.04,-0.01,-0.01,31.91,10.429706,-27.459515104894052,-530.6511766946942,9.965209480989348,0.042426406871192854,-0.3759743504963097,-0.7831604208045944
12387198,1792,1,188307.0,222014,0.65,-0.23,9.95,-0.03,-0.01,-0.01,31.91,10.469709,-19.337654246184844,-188.46693466513128,9.973860837208427,0.033166247903554,-0.26629222389944907,-0.2856692435702834
12427196,1787,1,188402.0,222129,0.65,-0.22,9.96,-0.03,-0.01,-0.01,31.91,10.509707,-12.609154691815597,39.85711772829432,9.983611570969696,0.033166247903554,-0.175426823375149,0.04628409519947888
12467198,1773,1,188371.0,222134,0.65,-0.23,9.96,-0.03,-0.01,-0.0,31.91,10.549709,-24.181133388555708,163.12231863137305,9.983836937770969,0.03162277660168379,-0.33170126028956576,0.22549559116310214
12507195,1763,1,188316.0,222294,0.64,-0.23,9.96,-0.03,-0.01,-0.0,31.91,10.589706,-26.32699862983763,303.74258290407454,9.983190872661908,0.03162277660168379,-0.3606802180861282,0.42993908160876165
12547198,1775,1,188424.0,222784,0.64,-0.23,9.95,-0.03,-0.01,-0.01,31.91,10.629709,-5.656766092446437,531.9872249014636,9.973214125847294,0.033166247903554,-0.08153790065507062,0.7617769680386542
12587212,1773,1,188672.0,223490,0.66,-0.23,9.96,-0.04,-0.01,-0.01,31.91,10.669723,-6.929996057459717,749.1210008185152,9.984492976611282,0.042426406871192854,-0.09873230630162307,1.0774611069621893
12627198,1746,1,188902.0,224201,0.66,-0.22,9.95,-0.03,-0.01,-0.01,31.91,10.709709,-19.493216319181492,741.6865107469168,9.974291954820652,0.033166247903554,-0.26839302066030374,1.066652329807756
12667195,1765,1,188824.0,222005,0.66,-0.22,9.97,-0.04,-0.01,-0.01,31.91,10.749706,-3.360678370176843,373.2464490972454,9.994243343045035,0.042426406871192854,-0.050530254918143364,0.530988621498998
12707198,1744,1,187349.0,218952,0.66,-0.21,9.96,-0.04,-0.01,-0.01,31.91,10.789709,-10.029260958904883,-258.2012703049836,9.984052283516949,0.042426406871192854,-0.14058650341126677,-0.38705385592226155
12747196,1722,1,186669.0,217950,0.67,-0.22,9.96,-0.04,-0.01,-0.01,31.91,10.829707,-32.230736200359246,-852.3840270664297,9.984933650255268,0.042426406871192854,-0.4404075740294686,-1.2509179468000693
12787230,1733,1,186585.0,218161,0.66,-0.22,9.95,-0.03,-0.01,-0.01,31.91,10.869741,-12.481299098929924,-1114.5227422659032,9.974291954820652,0.033166247903554,-0.17370019033267753,-1.6320333869786643
12827196,1741,1,186741.0,219000,0.65,-0.23,9.94,-0.03,-0.01,-0.01,31.91,10.909707,1.4845521815617233,-962.6212123591495,9.963884784560687,0.033166247903554,0.014902433478247863,-1.411188410340392
12867198,1731,1,187197.0,220202,0.65,-0.23,9.96,-0.03,-0.01,-0.01,31.91,10.949709,-6.947037111067699,-561.0490395872421,9.983836937770969,0.033166247903554,-0.0989624381681608,-0.8273549415870982
12907195,1733,1,187550.0,221014,0.66,-0.23,9.94,-0.03,-0.01,-0.0,31.91,10.989706,6.891065129043352,-164.95910950285366,9.964542136997565,0.03162277660168379,0.08791499154458858,-0.25149193737747083
12947198,1747,1,187691.0,221231,0.67,-0.23,9.96,-0.03,-0.01,-0.01,31.91,11.029709,16.94227375365387,80.72659756849221,9.98515898721698,0.033166247903554,0.22365210351860432,0.10570297877535492
12987218,1723,1,187642.0,221253,0.66,-0.19,9.95,-0.04,-0.01,-0.01,31.91,11.069729,7.719421516701807,218.6347805492039,9.973675350641807,0.042426406871192854,0.09910157695389739,0.3062034573900062
13027198,1729,1,187669.0,221415,0.67,-0.22,9.96,-0.03,-0.01,-0.0,31.91,11.109709,7.919787302229874,379.9056638592116,9.984933650255268,0.03162277660168379,0.10180742796960435,0.5406702496527002
13067195,1718,1,187825.0,221959,0.65,-0.22,9.95,-0.03,-0.01,-0.01,31.91,11.149706,10.745184683553255,610.3715900635689,9.973635244984647,0.033166247903554,0.1399631657562771,0.8757375930807941
13107198,1729,1,188080.0,222615,0.65,-0.22,9.99,-0.04,-0.01,-0.0,31.91,11.189709,17.24958605427166,787.7455399344879,10.01354083229304,0.04123105625617661,0.22780221976012904,1.133616140054794
13147882,1723,1,188307.0,223129,0.67,-0.23,9.97,-0.04,-0.01,-0.01,31.95,11.230393,22.326220805337442,714.6437235017256,9.99513381601267,0.042426406871192854,0.2963599191764316,1.0273356506336608
13188199,1716,1,187868.0,219933,0.65,-0.22,9.94,-0.03,-0.01,-0.01,31.95,11.27071,12.240881526052425,310.5478514245802,9.963658966464077,0.033166247903554,0.16016188785745714,0.439833052843619
13228196,1707,1,186670.0,217673,0.65,-0.22,9.97,-0.03,-0.01,-0.0,31.95,11.310707,12.67917280041939,-274.3534695793867,9.99358794427707,0.03162277660168379,0.16608081701392843,-0.41053704317917716
13268199,1712,1,186186.0,217130,0.65,-0.24,9.98,-0.04,-0.01,-0.01,31.95,11.35071,14.442553238864605,-738.989302744358,10.004024190294624,0.042426406871192854,0.1898944872863731,-1.0860568340832721
13308196,1699,1,186235.0,217720,0.65,-0.22,9.95,-0.04,-0.01,-0.0,31.95,11.390707,10.33500750009832,-845.6549595610476,9.973635244984647,0.04123105625617661,0.13442390492116868,-1.2411347618845803
13348199,1715,1,186554.0,218566,0.65,-0.22,9.96,-0.03,-0.01,-0.01,31.95,11.43071,22.676882133164572,-586.6379945100806,9.983611570969696,0.033166247903554,0.30109544479309075,-0.8645579385259777
13388196,1705,1,186982.0,219738,0.66,-0.21,9.98,-0.04,-0.01,-0.01,31.95,11.470707,20.57727942798378,-166.53531222730265,10.004004198319791,0.042426406871192854,0.2727412420162963,-0.2537835301881015
13428199,1695,1,187288.0,220297,0.65,-0.24,9.95,-0.03,-0.01,-0.01,31.95,11.51071,7.033493890700324,173.30697759163786,9.97409645030566,0.033166247903554,0.08983842876407043,0.24030275453748795
13468196,1696,1,187329.0,220314,0.67,-0.23,9.95,-0.04,-0.01,-0.01,31.95,11.550707,14.757305567077998,333.7246995923821,9.975184208825418,0.042426406871192854,0.19414507779885876,0.4735291617327726
13508199,1699,1,187266.0,220260,0.66,-0.23,9.97,-0.03,-0.01,-0.0,31.95,11.59071,13.98716394193196,395.59326775484425,9.994468470108854,0.03162277660168379,0.18374465692287192,0.5634779759341155
13548196,1683,1,187296.0,220428,0.65,-0.23,9.97,-0.03,-0.01,-0.01,31.95,11.630707,4.004471347494161,498.401843618491,9.993813086104822,0.033166247903554,0.048932823530458525,0.7129482120058568
13588199,1687,1,187412.0,220802,0.67,-0.22,9.98,-0.04,-0.01,-0.0,31.95,11.67071,3.7937882440386055,675.0988808772507,10.004883807421253,0.04123105625617661,0.04608764171473553,0.9698426164889269
13628196,1677,1,187570.0,221345,0.65,-0.24,9.94,-0.03,-0.01,-0.01,31.95,11.710707,-1.2046988442335076,793.8377304351175,9.964120633553168,0.033166247903554,-0.021414708195721614,1.142473389021367
13668199,1680,1,187810.0,221546,0.66,-0.23,9.93,-0.03,-0.01,-0.01,31.95,11.75071,-2.3308448131590453,665.1047350510528,9.954566791176802,0.033166247903554,-0.03662280974769348,0.9553124343185362
13708196,1680,1,187234.0,218408,0.66,-0.23,9.95,-0.03,-0.01,-0.01,31.95,11.790707,1.3958220965531796,225.20407614288465,9.974517532191719,0.033166247903554,0.013704173056632612,0.3157543548220921
13748199,1680,1,186185.0,216234,0.64,-0.23,9.96,-0.04,-0.01,-0.01,31.95,11.83071,-3.204543498243756,-369.8331292783275,9.983190872661908,0.042426406871192854,-0.04842172276184746,-0.5493519927625472
13788196,1668,1,185644.0,215927,0.64,-0.22,9.96,-0.03,-0.01,-0.01,31.95,11.870707,-11.31273356365513,-834.1882424455606,9.982965491275626,0.033166247903554,-0.15791923136201277,-1.2244636534695306
13828199,1670,1,185751.0,216352,0.65,-0.22,9.98,-0.03,-0.01,-0.01,31.95,11.91071,-16.329434640262956,-956.0447955005701,10.003564364765191,0.033166247903554,-0.22566755310198353,-1.4016271595196264
13868196,1666,1,185994.0,217187,0.64,-0.23,9.97,-0.04,-0.01,-0.0,31.95,11.950707,-14.693431859391133,-741.953158606892,9.993167665960579,0.04123105625617661,-0.2035740615677149,-1.090365893242336
13908197,1677,1,186416.0,218232,0.66,-0.24,9.97,-0.03,-0.01,-0.01,31.95,11.990708,-13.378940913239694,-384.47866826403646,9.994703597405978,0.033166247903554,-0.18582244468159126,-0.5706446928238256
13948196,1675,1,186642.0,218636,0.65,-0.21,9.97,-0.04,-0.01,-0.0,31.95,12.030707,-9.797807908274045,-92.69770918576862,9.993372804013669,0.04123105625617661,-0.13746083267617915,-0.14643330317759257
13988199,1679,1,186700.0,218714,0.67,-0.21,9.94,-0.03,-0.01,-0.0,31.95,12.07071,-14.14575610153092,63.643509836332804,9.964767935080074,0.03162277660168379,-0.19617794350405204,0.08086640133315127
14028196,1668,1,186699.0,218869,0.65,-0.23,9.95,-0.04,-0.01,-0.01,31.95,12.110707,-25.101434825225862,169.5381740072558,9.973860837208427,0.042426406871192854,-0.3441295227826234,0.2348234065674048
14068199,1678,1,186853.0,219260,0.66,-0.22,9.94,-0.04,-0.01,-0.0,31.95,12.15071,-16.56071878114212,339.4516770297316,9.964316333798319,0.04123105625617661,-0.2287909427858332,0.48185543862501834
14108196,1676,1,187002.0,219793,0.65,-0.22,9.97,-0.03,-0.01,-0.01,31.95,12.190707,-27.730439837252998,570.6522207015174,9.99358794427707,0.033166247903554,-0.3796330687764868,0.817990819863738
14148886,1655,1,187229.0,220540,0.66,-0.21,9.96,-0.03,-0.01,-0.0,31.95,12.231397,-42.95125536339125,711.5757014393567,9.984052283516949,0.03162277660168379,-0.5851834277998349,1.0228751474306617
14187195,1701,1,187486.0,220739,0.66,-0.23,9.98,-0.03,-0.01,-0.01,31.95,12.269706,-11.702063194126334,582.5415183670087,10.004444012537629,0.033166247903554,-0.16317695524575315,0.8352763051830281
14227198,1713,1,186845.0,217784,0.65,-0.21,9.96,-0.03,-0.01,-0.01,31.95,12.309709,6.712126846997918,148.79878761062713,9.983396215717375,0.033166247903554,0.08549850945436828,0.20467104860848787
14267196,1722,1,185852.0,215877,0.65,-0.22,9.94,-0.03,-0.01,-0.01,31.95,12.349707,3.1161749377865178,-411.2067613306204,9.963658966464077,0.033166247903554,0.0369367747234152,-0.6095038477809795
14307198,1724,1,185498.0,215636,0.68,-0.23,9.98,-0.03,-0.01,-0.01,31.95,12.389709,5.795437404123662,-814.731938611578,10.005783327656061,0.033166247903554,0.07311902533460228,-1.1961767299058201
14347196,1729,1,185607.0,216295,0.65,-0.23,9.95,-0.04,-0.01,-0.01,31.95,12.429707,3.8717437012050113,-875.1720115110094,9.973860837208427,0.042426406871192854,0.04714039556888132,-1.2840486986455961
14387198,1740,1,185956.0,217212,0.65,-0.21,9.96,-0.04,-0.01,-0.01,31.95,12.469709,9.82537506304306,-625.7206063717723,9.983396215717375,0.042426406871192854,0.12754154502220272,-0.9213789495378901
14427195,1744,1,186255.0,218293,0.65,-0.22,9.95,-0.04,-0.01,-0.01,31.95,12.509706,9.983099407823572,-268.3909267288153,9.973635244984647,0.042426406871192854,0.12967154230393063,-0.4018682849556921
14467198,1746,1,186540.0,218752,0.67,-0.22,9.96,-0.04,-0.01,-0.01,31.95,12.549709,5.237094681580108,-1.8624457933117124,9.984933650255268,0.042426406871192854,0.065578854646651,-0.014370698975035656
14507196,1760,1,186584.0,218928,0.66,-0.22,9.94,-0.03,-0.01,-0.0,31.95,12.589707,14.595855414481443,123.973961639244,9.964316333798319,0.03162277660168379,0.19196476513600527,0.16857899532196244
14547198,1763,1,186618.0,219045,0.65,-0.23,9.98,-0.04,-0.01,-0.01,31.95,12.629709,12.29580530645138,211.86413281559678,10.003789282067071,0.042426406871192854,0.16090360913780097,0.29635982025565794
14587196,1763,1,186697.0,219494,0.64,-0.22,9.97,-0.03,-0.01,-0.0,31.95,12.669707,4.921125713558739,385.8305225880104,9.992942509591456,0.03162277660168379,0.06131183395347614,0.5492842200870326
14627198,1773,1,186919.0,220117,0.66,-0.2,9.96,-0.03,-0.01,-0.01,31.95,12.709709,12.15465867083681,642.273340248521,9.983846953955174,0.033166247903554,0.15899748646154294,0.9221185694846565
14667195,1791,1,187170.0,220764,0.65,-0.22,9.94,-0.03,-0.01,-0.01,31.95,12.749706,19.918964973936728,817.8081046647535,9.963658966464077,0.033166247903554,0.26385099745960644,1.1773231811202631
14707198,1797,1,187445.0,221099,0.68,-0.22,9.96,-0.03,-0.01,-0.01,31.95,12.789709,25.05710520333116,713.3230017171846,9.985609645885424,0.033166247903554,0.33323930106598326,1.025415493727857
14747196,1796,1,186839.0,218140,0.65,-0.23,9.95,-0.03,-0.01,-0.0,31.95,12.829707,12.69032570612848,276.60335712663704,9.973860837208427,0.03162277660168379,0.16623143205611982,0.39048219340968826
14787198,1778,1,185828.0,216089,0.67,-0.21,9.96,-0.03,-0.01,-0.01,31.95,12.869709,-6.75358051720458,-317.26592555132436,9.984718323518196,0.033166247903554,-0.0963498927197444,-0.472926147110066
14827196,1798,1,185378.0,215742,0.66,-0.23,9.98,-0.03,-0.01,-0.01,31.95,12.909707,3.6433970410131282,-769.4894456719081,10.004444012537629,0.033166247903554,0.04405667525812523,-1.1304000566724957
14867198,1820,1,185482.0,216193,0.66,-0.22,9.95,-0.03,-0.01,-0.0,31.95,12.949709,21.588443693431554,-866.5705318552313,9.974291954820652,0.03162277660168379,0.2863965666891066,-1.2715432711176378
14907195,1835,1,185759.0,217102,0.64,-0.24,9.97,-0.03,-0.01,-0.01,31.95,12.989706,28.950339184745815,-622.7178590787292,9.993402823863352,0.033166247903554,0.3858156982549135,-0.9170133473205206
14947198,1840,1,186147.0,218131,0.66,-0.22,9.98,-0.03,-0.01,-0.01,31.95,13.029709,29.92056819211808,-243.8825083763687,10.004219109955558,0.033166247903554,0.3989182104335651,-0.36623624700446383
14987196,1854,1,186450.0,218588,0.63,-0.21,9.96,-0.03,-0.01,-0.0,31.95,13.069707,33.12071084998426,46.013930143127354,9.982114004558355,0.03162277660168379,0.442134716876385,0.05523529598563747
15027198,1856,1,186482.0,218615,0.64,-0.22,9.96,-0.04,-0.01,-0.01,31.95,13.109709,37.718081455469225,168.690537037821,9.982965491275626,0.042426406871192854,0.504220166693316,0.23359105316828185
15067195,1859,1,186449.0,218784,0.66,-0.24,9.96,-0.03,-0.01,-0.0,31.95,13.149706,21.059380800280582,216.1704706463701,9.984728338818238,0.03162277660168379,0.27925180710336944,0.30262067278438126
15107198,1850,1,186486.0,219036,0.66,-0.22,9.96,-0.04,-0.01,-0.01,31.95,13.189709,23.936839412770023,326.9484942831077,9.984267624618242,0.042426406871192854,0.3181106087133311,0.46367744460957133
15147195,1872,1,186592.0,219440,0.64,-0.24,9.99,-0.03,-0.01,-0.01,31.95,13.229706,19.75870097813409,526.4866349725636,10.013356080755344,0.033166247903554,0.261686703317865,0.7537798290033176
15187885,1798,1,186828.0,220095,0.67,-0.23,9.98,-0.03,-0.01,-0.01,31.83,13.270396,-40.29486761140922,675.6299464060503,10.00510869506174,0.033166247903554,-0.5493100900547276,0.9706147163774081
15228196,1799,1,187143.0,220553,0.65,-0.22,9.96,-0.04,-0.01,-0.01,31.83,13.310707,-61.32770946315223,581.2327782531925,9.983611570969696,0.042426406871192854,-0.8333492853582113,0.833373568060902
15268199,1810,1,186598.0,217566,0.67,-0.22,9.96,-0.03,-0.01,-0.0,31.83,13.35071,-45.052714166994335,179.18792400095455,9.984933650255268,0.03162277660168379,-0.6135626963621276,0.24885288219699042
15308196,1815,1,185508.0,215407,0.65,-0.22,9.97,-0.03,-0.01,-0.01,31.83,13.390707,-50.04463975640446,-375.16345695704825,9.99358794427707,0.033166247903554,-0.6809764361422997,-0.5571015927330284
15348199,1827,1,185099.0,215060,0.65,-0.22,9.94,-0.03,-0.01,-0.01,31.83,13.43071,-43.97253781646433,-800.3360056264489,9.963658966464077,0.033166247903554,-0.5989753941063,-1.1752469243552204
15388196,1840,1,185233.0,215632,0.68,-0.23,9.98,-0.03,-0.01,-0.01,31.83,13.470707,-31.70449867580766,-891.3005386046084,10.005783327656061,0.033166247903554,-0.4333009697928309,-1.3074974696446908
15428199,1849,1,185499.0,216416,0.66,-0.24,9.94,-0.04,-0.01,-0.01,31.83,13.51071,-32.744223156473524,-657.9112044380414,9.964777970431653,0.042426406871192854,-0.44734198749777737,-0.9681798730195774
15468195,1843,1,185895.0,217470,0.64,-0.22,9.98,-0.03,-0.01,-0.01,31.83,13.550706,-38.750149748366546,-288.32135448357064,10.00291957380444,0.033166247903554,-0.528449360825539,-0.43084452274995033
15508199,1856,1,186125.0,217898,0.67,-0.23,9.97,-0.04,-0.01,-0.01,31.83,13.59071,-32.00096146198585,16.792507129650936,9.99513381601267,0.042426406871192854,-0.4373045681566204,0.012751165070631119
15548196,1870,1,186199.0,217989,0.64,-0.22,9.95,-0.03,-0.01,-0.0,31.83,13.630707,-22.200285262564723,190.75513845231282,9.972988518994693,0.03162277660168379,-0.30495078540410625,0.2656701006071555
15588199,1872,1,186236.0,218105,0.66,-0.23,9.97,-0.03,-0.01,-0.01,31.83,13.67071,-20.983843096323124,310.90264935287223,9.994468470108854,0.033166247903554,-0.2885232737788117,0.44034888267254213
15628196,1889,1,186361.0,218447,0.66,-0.2,9.97,-0.03,-0.01,-0.01,31.83,13.710707,-10.748010176198912,478.26310858571065,9.993823092290558,0.033166247903554,-0.1502928926260122,0.683669122647317
15668197,1888,1,186471.0,218802,0.65,-0.23,9.97,-0.04,-0.01,-0.0,31.83,13.750708,-10.114950675434534,682.449136745241,9.993813086104822,0.04123105625617661,-0.14174370500582203,0.9805289281175728
15708196,1891,1,186657.0,219368,0.64,-0.23,9.96,-0.03,-0.01,-0.01,31.83,13.790707,-13.16988264242882,777.8099226674436,9.983190872661908,0.033166247903554,-0.18299920550967036,1.1191710507619201
15748199,1903,1,186809.0,219238,0.65,-0.24,9.97,-0.04,-0.01,-0.01,31.83,13.83071,1.2789750739635644,600.9569140953593,9.994048228820992,0.042426406871192854,0.012126205870652374,0.8620498843688905
15788196,1915,1,186136.0,216384,0.64,-0.21,9.95,-0.03,-0.01,-0.0,31.83,13.870707,7.825877695068624,132.23737110193574,9.972772934344789,0.03162277660168379,0.10053922039987276,0.18059291296229754
15828199,1907,1,185114.0,214387,0.65,-0.23,9.95,-0.03,-0.01,-0.0,31.83,13.91071,4.930124562410976,-445.7753278921312,9.973860837208427,0.03162277660168379,0.061433359413737954,-0.6597620267432441
15868196,1916,1,184756.0,214207,0.66,-0.23,9.94,-0.03,-0.01,-0.01,31.83,13.950707,7.127811962646468,-856.5638833845269,9.964542136997565,0.033166247903554,0.09111215246945446,-1.2569949117357626
15908199,1913,1,184879.0,214701,0.65,-0.23,9.96,-0.04,-0.01,-0.01,31.83,13.99071,12.96814795176166,-920.3216818394052,9.983836937770969,0.042426406871192854,0.1699832981921035,-1.3496904199305702
15948196,1923,1,185113.0,215454,0.66,-0.2,9.97,-0.03,-0.01,-0.01,31.83,14.030707,16.05107082690226,-668.864961547541,9.993823092290558,0.033166247903554,0.21161680348872947,-0.9841052046106005
15988197,1921,1,185504.0,216474,0.66,-0.23,9.96,-0.04,-0.01,-0.01,31.83,14.070708,22.980050763733097,-296.110701177184,9.984492976611282,0.042426406871192854,0.3051896026094681,-0.442169215066311
16028196,1927,1,185756.0,216956,0.63,-0.22,9.95,-0.03,-0.01,-0.01,31.83,14.110707,27.775905875473057,3.499352384247355,9.972351778793204,0.033166247903554,0.369955497600393,-0.006575345011260227
16068203,1919,1,185822.0,217053,0.66,-0.22,9.96,-0.03,-0.01,-0.01,31.83,14.150714,22.271731238730165,171.14007018053616,9.984267624618242,0.033166247903554,0.29562406176065004,0.23715235429546394
16108196,1916,1,185916.0,217331,0.65,-0.24,9.97,-0.04,-0.01,-0.01,31.83,14.190707,29.18527896666783,289.3735232347823,9.994048228820992,0.042426406871192854,0.38898845574875524,0.4090483463480518
16148199,1919,1,185993.0,217599,0.65,-0.22,9.96,-0.03,-0.01,-0.0,31.83,14.23071,25.902626155804125,464.17670055268195,9.983611570969696,0.03162277660168379,0.3446576863058624,0.6631893259337417
16188883,1893,1,186173.0,218138,0.66,-0.23,9.96,-0.04,-0.01,-0.01,31.89,14.271394,18.85993983491996,690.1612088005332,9.984492976611282,0.042426406871192854,0.249549332928831,0.9917412732067183
16227198,1918,1,186323.0,218636,0.65,-0.23,9.98,-0.04,-0.01,-0.01,31.89,14.309709,35.08748576007171,820.3921785701503,10.003789282067071,0.042426406871192854,0.4686951392264453,1.1810800869369409
16267235,1894,1,186510.0,218772,0.64,-0.23,9.98,-0.04,-0.01,-0.0,31.89,14.349746,29.84052074438723,677.8107140790776,10.003144505604226,0.04123105625617661,0.3978372051752251,0.9737852676292543
16307198,1887,1,186033.0,215889,0.65,-0.23,9.97,-0.03,-0.01,-0.01,31.89,14.389709,20.785874521175316,221.99057932354918,9.993813086104822,0.033166247903554,0.2755582261800159,0.31108235033057086
16347195,1875,1,184917.0,213715,0.66,-0.23,9.93,-0.04,-0.01,-0.01,31.89,14.429706,20.470186957135546,-375.52769394588904,9.954566791176802,0.042426406871192854,0.27129500572273174,-0.5576311457226574
16387198,1854,1,184503.0,213408,0.68,-0.23,9.96,-0.03,-0.01,-0.01,31.89,14.469709,6.243709192650302,-826.5778263558428,9.985834967592846,0.033166247903554,0.07917273690567124,-1.2133991028716993
16427196,1850,1,184600.0,213949,0.64,-0.22,9.96,-0.04,-0.01,-0.01,31.89,14.509707,9.083955986798216,-923.8323884265222,9.982965491275626,0.042426406871192854,0.11752900942270238,-1.35479452859025
16467198,1845,1,184879.0,214778,0.65,-0.22,9.97,-0.03,-0.01,-0.01,31.89,14.549709,13.736771165351271,-679.2729691935215,9.99358794427707,0.033166247903554,0.18036321359385787,-0.9992370877907008
16507196,1831,1,185308.0,215784,0.66,-0.21,9.95,-0.03,-0.01,-0.01,31.89,14.589707,8.316375969131943,-293.66711951881456,9.974076398343858,0.033166247903554,0.10716318191894572,-0.4386165666197313
16547198,1825,1,185596.0,216274,0.67,-0.24,9.96,-0.03,-0.01,-0.01,31.89,14.629709,8.972791678204509,9.567820326494532,9.985394333725635,0.033166247903554,0.11602778476737563,0.0022474144550754522
16587196,1809,1,185681.0,216374,0.67,-0.22,9.97,-0.03,-0.01,-0.0,31.89,14.669707,6.071190164454788,146.96511364562568,9.99490870393522,0.03162277660168379,0.07684294398997298,0.20200512625595105
16627198,1811,1,185724.0,216527,0.66,-0.22,9.99,-0.04,-0.01,-0.01,31.89,14.709709,11.369843568912568,207.64484716754274,10.01419492520492,0.042426406871192854,0.1483989067934269,0.29022553022614545
16667196,1803,1,185803.0,216712,0.66,-0.22,9.96,-0.03,-0.01,-0.0,31.89,14.749707,18.463982661791405,338.61098075033703,9.984267624618242,0.03162277660168379,0.24420210702265815,0.48063317608232536
16707198,1791,1,186014.0,217228,0.66,-0.23,9.96,-0.03,-0.01,-0.0,31.89,14.789709,9.69484646091121,582.6182303198538,9.984492976611282,0.03162277660168379,0.12577881417608328,0.8353878343390829
16747195,1771,1,186261.0,217823,0.66,-0.23,9.97,-0.04,-0.01,-0.01,31.89,14.829706,2.6777541259361914,807.6773122204154,9.994468470108854,0.042426406871192854,0.03101609622071696,1.1625943326216965
16787198,1761,1,186554.0,218402,0.67,-0.23,9.98,-0.03,-0.01,-0.01,31.89,14.869709,-1.1409060746743973,797.1018891767962,10.00510869506174,0.033166247903554,-0.020553215152628694,1.1472190493283578
16827196,1747,1,186445.0,216404,0.67,-0.24,9.98,-0.03,-0.01,-0.01,31.89,14.909707,-6.727702217502897,435.77437188159377,10.005343572311748,0.033166247903554,-0.09600041776648319,0.621896051167586
16867198,1747,1,185312.0,213511,0.65,-0.22,9.97,-0.04,-0.01,-0.01,31.89,14.949709,2.866209684931344,-163.80388416206918,9.99358794427707,0.042426406871192854,0.03356110491258878,-0.2498123906766963
16907196,1756,1,184611.0,212767,0.66,-0.21,9.96,-0.03,-0.01,-0.0,31.89,14.989707,16.45447695721738,-713.5146388774904,9.984052283516949,0.03162277660168379,0.21706462425602643,-1.0490200014062097
16947198,1746,1,184757.0,213292,0.64,-0.23,9.96,-0.04,-0.01,-0.0,31.89,15.029709,16.568221577220875,-946.6955256676239,9.983190872661908,0.04123105625617661,0.21860069487185793,-1.3880345427822613
16987195,1742,1,185043.0,214019,0.65,-0.22,10.000000000000004,-0.03,-0.01,-0.0,31.89,15.069706,17.10509416152252,-799.5775004536532,10.023517346720165,0.03162277660168379,0.22585092087081884,-1.17414415694222
17027198,1744,1,185355.0,215033,0.67,-0.22,9.98,-0.03,-0.01,-0.01,31.89,15.109709,25.054826497899725,-433.56901283552236,10.004883807421253,0.033166247903554,0.33320852816037017,-0.6420156395595801
17067195,1739,1,185774.0,215761,0.66,-0.22,9.95,-0.03,-0.01,-0.01,31.89,15.149706,28.395552000236012,-93.67147212628538,9.974291954820652,0.033166247903554,0.3783235435302399,-0.14784902725872362
17107198,1730,1,185939.0,216003,0.66,-0.21,9.99,-0.04,-0.01,-0.01,31.89,15.189709,18.606923263357807,74.29394856825253,10.013980227661726,0.042426406871192854,0.24613245641297374,0.0963507476355356
17147195,1712,1,185982.0,216147,0.66,-0.21,9.96,-0.03,-0.01,-0.01,31.89,15.229706,12.818394752754822,107.88025761350767,9.984052283516949,0.033166247903554,0.16796094769663303,0.14518085251346802
17187197,1710,1,186092.0,216440,0.63,-0.23,9.95,-0.03,-0.01,-0.01,31.89,15.269708,5.590736946647065,160.03170412549036,9.9725774000506,0.033166247903554,0.07035463649786079,0.22100224149922082
17227883,1674,1,186242.0,216828,0.66,-0.23,9.98,-0.03,-0.01,-0.0,31.95,15.310394,-18.687577713386332,340.34091253801716,10.004444012537629,0.03162277660168379,-0.25751322881341576,0.4831482708642577
17268197,1664,1,186507.0,217448,0.67,-0.24,9.96,-0.03,-0.01,-0.0,31.95,15.350708,-33.146111561502984,593.0417216620294,9.985394333725635,0.03162277660168379,-0.4527693120586241,0.8505422287903114
17308196,1639,1,186717.0,217975,0.68,-0.23,9.97,-0.03,-0.01,-0.0,31.95,15.390707,-51.4063713737666,714.5016270089476,9.995809121827007,0.03162277660168379,-0.6993660173287718,1.0271290608998562
17348199,1602,1,186969.0,217830,0.65,-0.23,9.97,-0.04,-0.01,-0.0,31.95,15.43071,-89.3552296929582,509.3275987651024,9.993813086104822,0.04123105625617661,-1.2118485080757764,0.7288328324016491
17388196,1567,1,186339.0,214926,0.66,-0.22,9.96,-0.03,-0.01,-0.01,31.95,15.470707,-122.63515073535174,-31.34214728916826,9.984267624618242,0.033166247903554,-1.6612790728694526,-0.057230333056089266
17428199,1535,1,185249.0,213058,0.67,-0.24,9.99,-0.03,-0.01,-0.01,31.95,15.51071,-153.8791845080371,-679.9129918019265,10.015318267533988,0.033166247903554,-2.0832158835669086,-1.000167597036315
17468196,1520,1,184997.0,213244,0.66,-0.23,9.97,-0.03,-0.01,-0.01,31.95,15.550707,-168.91952214647807,-1107.4549578281983,9.994468470108854,0.033166247903554,-2.286328968808951,-1.621757751901207
17508199,1522,1,185278.0,214048,0.66,-0.24,9.96,-0.04,-0.01,-0.0,31.95,15.59071,-167.17566241346907,-1105.983513664057,9.984728338818238,0.04123105625617661,-2.26277891700057,-1.6196184643492397
17548196,1519,1,185671.0,215179,0.64,-0.23,9.97,-0.03,-0.01,-0.0,31.95,15.630707,-169.7762355719952,-724.0923672990192,9.993167665960579,0.03162277660168379,-2.2978985034303223,-1.0643986364178024
17588199,1535,1,186270.0,216529,0.67,-0.21,9.97,-0.04,-0.01,-0.01,31.95,15.67071,-155.58196570696677,-215.11247095605984,9.994693592101761,0.042426406871192854,-2.106211188002282,-0.3244083717627159
17628196,1561,1,186692.0,217415,0.65,-0.21,9.95,-0.03,-0.01,-0.01,31.95,15.710707,-128.4218323691498,152.59615161840875,9.973419674314322,0.033166247903554,-1.7394256403341455,0.2101919197024153
17668199,1593,1,186778.0,217541,0.67,-0.24,10.0,-0.04,-0.01,-0.01,31.95,15.75071,-99.4318485541749,275.31130961140155,10.02529301317423,0.042426406871192854,-1.3479287740186645,0.3886037251448006
17708199,1641,1,186756.0,217718,0.66,-0.21,9.98,-0.03,-0.01,-0.01,31.95,15.79071,-49.01156261769421,255.80632662418517,10.004004198319791,0.033166247903554,-0.6670251878405223,0.3602460284528321
17748199,1705,1,186893.0,218082,0.65,-0.23,9.96,-0.03,-0.01,-0.0,31.95,15.83071,10.549453077489453,287.8872549645234,9.983836937770969,0.03162277660168379,0.13731989727768995,0.40688750648274546
17788195,1747,1,187034.0,218650,0.66,-0.21,9.97,-0.03,-0.01,-0.01,31.95,15.870706,56.806801698268984,477.6118140689834,9.994028216890325,0.033166247903554,0.7620048624256639,0.682722225519819
17828199,1790,1,187258.0,219148,0.67,-0.22,9.96,-0.03,-0.01,-0.01,31.95,15.91071,94.54993313542523,738.8867560089863,9.984933650255268,0.033166247903554,1.2717091029277652,1.0625818522419885
17868195,1830,1,187505.0,219711,0.66,-0.22,9.95,-0.03,-0.01,-0.01,31.95,15.950706,139.3479390179506,848.3314828509532,9.974291954820652,0.033166247903554,1.8766862920192502,1.221700184739584
17908218,1872,1,187786.0,219306,0.65,-0.21,9.97,-0.03,-0.01,-0.01,31.95,15.990729,178.04537291235494,626.2010284564782,9.993372804013669,0.033166247903554,2.399277963708422,0.898751528188788
17948196,1876,1,186929.0,216306,0.66,-0.21,9.96,-0.03,-0.01,-0.0,31.95,16.030707,184.15997636676076,104.14103193865678,9.984052283516949,0.03162277660168379,2.4818529698360607,0.13974450695911717
17988199,1872,1,185984.0,214537,0.67,-0.23,9.94,-0.03,-0.01,-0.01,31.95,16.07071,182.2249422330683,-464.54342020533,9.965209480989348,0.033166247903554,2.4557211925853686,-0.6870483806792295
18028196,1884,1,185840.0,214735,0.65,-0.2,9.98,-0.03,-0.01,-0.01,31.95,16.110707,191.12560790526055,-774.4209390576585,10.003144505604226,0.033166247903554,2.5759207325721785,-1.1375698036937165
18068199,1875,1,186212.0,215584,0.66,-0.21,9.96,-0.03,-0.01,-0.01,31.95,16.15071,190.62607941491572,-684.4589929213199,9.984052283516949,0.033166247903554,2.5691748219896313,-1.0067768886716677
18108217,1882,1,186608.0,216585,0.66,-0.22,9.95,-0.03,-0.01,-0.0,31.95,16.190728,189.86936684453522,-306.1842030808276,9.974291954820652,0.03162277660168379,2.5589557545387396,-0.45681477060443765
18148199,1863,1,187007.0,217355,0.67,-0.21,9.97,-0.03,-0.01,-0.01,31.95,16.23071,183.24591322539902,99.71347605308775,9.994693592101761,0.033166247903554,2.4695089527527276,0.13330741921738493
18188196,1828,1,187186.0,217534,0.67,-0.21,9.98,-0.03,-0.01,-0.0,31.95,16.270707,139.5793692584658,323.60211404492213,10.004668910063941,0.03162277660168379,1.8798116547138484,0.45881224498993267
18228884,1792,1,187171.0,217467,0.66,-0.22,9.97,-0.03,-0.01,-0.0,31.91,16.311395,114.49510960444353,343.662054090192,9.994243343045035,0.03162277660168379,1.5410598599190963,0.48797677673218864
18267195,1817,1,187092.0,217598,0.65,-0.22,9.96,-0.04,-0.01,-0.01,31.91,16.349706,135.10517357580898,303.4886744429048,9.983611570969696,0.042426406871192854,1.8193896275674386,0.4295699318825561
18307198,1793,1,187203.0,217866,0.67,-0.22,9.96,-0.04,-0.01,-0.01,31.91,16.389709,115.42591319668317,361.6567857145258,9.984933650255268,0.042426406871192854,1.5536299493624983,0.5141387652758689
18347195,1747,1,187299.0,218033,0.67,-0.23,9.94,-0.03,-0.01,-0.0,31.91,16.429706,71.69990014818575,536.7042112087836,9.965209480989348,0.03162277660168379,0.963129547768142,0.768634849795886
18387198,1732,1,187356.0,218247,0.66,-0.2,9.98,-0.04,-0.01,-0.01,31.91,16.469709,54.278923764875614,671.1952160235828,10.00379927827423,0.042426406871192854,0.7278669927508161,0.9641671978546238
18427195,1683,1,187478.0,218643,0.67,-0.22,9.97,-0.03,-0.01,-0.01,31.91,16.509706,10.341741749129092,550.6334770062042,9.99490870393522,0.033166247903554,0.13451484796582033,0.7888861822314975
18467198,1627,1,187338.0,216593,0.66,-0.23,9.93,-0.04,-0.01,-0.01,31.91,16.549709,-49.53192714764057,92.85133719256585,9.954566791176802,0.042426406871192854,-0.6740524798913201,0.12333076593896944
18507195,1600,1,186076.0,213640,0.66,-0.23,9.99,-0.03,-0.01,-0.01,31.91,16.589706,-75.50711705906961,-544.8246100734465,10.014419603751383,0.033166247903554,-1.0248358924374499,-0.8037667409998954
18547198,1584,1,185445.0,213078,0.66,-0.22,9.96,-0.03,-0.01,-0.0,31.91,16.629709,-91.91469174329008,-1042.9871818780182,9.984267624618242,0.03162277660168379,-1.2464129072335546,-1.5280300291957236
18587196,1557,1,185583.0,213912,0.65,-0.24,9.98,-0.03,-0.01,-0.01,31.91,16.669707,-125.421047822054,-1136.0291963018162,10.004024190294624,0.033166247903554,-1.6989013767066137,-1.6633009610580622
18627198,1527,1,186026.0,215016,0.66,-0.22,9.97,-0.03,-0.01,-0.01,31.91,16.709709,-152.41172015626736,-798.0221890260409,9.994243343045035,0.033166247903554,-2.0633984287240823,-1.1718829373474788
18667196,1531,1,186537.0,216255,0.66,-0.21,9.98,-0.03,-0.01,-0.01,31.91,16.749707,-160.58992465347183,-251.44857819261847,10.004004198319791,0.033166247903554,-2.173841451154776,-0.3772363239150712
18707198,1517,1,186963.0,216971,0.65,-0.23,9.98,-0.03,-0.01,-0.01,31.91,16.789709,-172.3868308206691,202.1186708694796,10.003789282067071,0.033166247903554,-2.3331534337399416,0.2821911919532267
18747196,1522,1,187080.0,217097,0.67,-0.21,9.93,-0.04,-0.01,-0.01,31.91,16.829707,-180.9430656725524,392.49614334362144,9.954792815523586,0.042426406871192854,-2.448701588349165,0.5589751617184707
18787198,1535,1,187076.0,216991,0.68,-0.23,9.98,-0.04,-0.01,-0.01,31.91,16.869709,-170.66578020444956,374.8248988993941,10.005783327656061,0.042426406871192854,-2.309911408931627,0.5332834812669951
18827195,1572,1,186950.0,216863,0.66,-0.21,9.97,-0.04,-0.01,-0.01,31.91,16.909706,-146.2279200045553,345.4548981661763,9.994028216890325,0.042426406871192854,-1.979888951907268,0.4905833377610333
18867198,1603,1,186959.0,217050,0.68,-0.22,9.97,-0.03,-0.01,-0.01,31.91,16.949709,-123.54654218935968,451.84662992034157,9.995584024958221,0.033166247903554,-1.673587010000708,0.6452630143131871
18907196,1621,1,187047.0,217474,0.65,-0.23,9.96,-0.04,-0.01,-0.0,31.91,16.989707,-118.05393808820486,647.8135889002697,9.983836937770969,0.04123105625617661,-1.599411829109337,0.930173367121104
18947198,1648,1,187339.0,218143,0.67,-0.21,9.97,-0.03,-0.01,-0.01,31.91,17.029709,-102.84439808416397,715.3995607423502,9.994693592101761,0.033166247903554,-1.3940137410080895,1.0284345392218834
18987196,1690,1,187468.0,217161,0.66,-0.21,9.95,-0.04,-0.01,-0.01,31.91,17.069707,-75.42290938373125,446.79275804860754,9.974076398343858,0.042426406871192854,-1.0236987051514863,0.637915344963635
19027198,1712,1,186453.0,213738,0.67,-0.23,9.96,-0.03,-0.01,-0.01,31.91,17.109709,-66.2295235773726,-158.15745676959676,9.98515898721698,0.033166247903554,-0.8995461096554012,-0.24160322302482506
19067196,1748,1,185307.0,211764,0.66,-0.22,9.95,-0.04,-0.01,-0.01,31.91,17.149707,-48.40847923703313,-850.794745387206,9.974291954820652,0.042426406871192854,-0.6588808144195962,-1.2486073388981263
19107198,1782,1,185099.0,211813,0.67,-0.23,9.96,-0.03,-0.01,-0.01,31.91,17.189709,-26.239350790294033,-1294.3235903092339,9.98515898721698,0.033166247903554,-0.35949657290924075,-1.8934403267905686
19147196,1813,1,185251.0,212672,0.67,-0.23,9.94,-0.04,-0.01,-0.0,31.91,17.229707,-17.634337129361814,-1296.2172593989617,9.965209480989348,0.04123105625617661,-0.24328968213075464,-1.8961934742153397
19187198,1861,1,185680.0,213921,0.68,-0.23,9.96,-0.04,-0.01,-0.0,31.91,17.269709,20.16124442629613,-923.6951187841072,9.985834967592846,0.04123105625617661,0.26712287394552364,-1.3545949564661846
19227195,1895,1,186114.0,215081,0.66,-0.24,9.98,-0.03,-0.01,-0.01,31.91,17.309706,29.621753038301858,-422.17147017673364,10.004678905392216,0.033166247903554,0.39488284438875204,-0.6254451017660566
19267885,1859,1,186484.0,215831,0.67,-0.21,9.94,-0.03,-0.01,-0.01,31.91,17.350396,-17.574774439035505,-20.50256418470129,9.964767935080074,0.033166247903554,-0.24248531443048624,-0.04147099555011338
19308195,1887,1,186687.0,216069,0.67,-0.19,9.96,-0.04,-0.01,-0.01,31.91,17.390706,-11.376852591049518,216.90782550347026,9.984317703278478,0.042426406871192854,-0.1587851303723852,0.3036926904019152
19348199,1936,1,186848.0,216576,0.65,-0.23,9.98,-0.03,-0.01,-0.0,31.91,17.43071,22.564025069659365,386.0411426729922,10.003789282067071,0.03162277660168379,0.2995713602338909,0.549590434170432
19388196,1963,1,187024.0,217103,0.66,-0.24,9.98,-0.03,-0.01,-0.01,31.91,17.470707,32.283530266988784,607.0006151704815,10.004678905392216,0.033166247903554,0.4308289646250299,0.8708366360465294
19428199,1993,1,187145.0,217507,0.63,-0.24,9.99,-0.04,-0.01,-0.01,31.91,17.51071,46.28211313506441,875.5572342410172,10.012721907653283,0.042426406871192854,0.6198736140007313,1.2612828698737566
19468196,2011,1,187392.0,218260,0.65,-0.22,9.98,-0.04,-0.01,-0.01,31.91,17.550707,47.31760051771581,1031.5946563128537,10.003564364765191,0.042426406871192854,0.6338574115773218,1.488140893313709
19508199,2053,1,187753.0,218594,0.67,-0.22,9.96,-0.03,-0.01,-0.01,31.91,17.59071,78.61262417498317,882.1260147678468,9.984933650255268,0.033166247903554,1.0564828180378882,1.2708330184659407
19547196,2122,1,187095.0,215435,0.66,-0.23,9.96,-0.03,-0.01,-0.01,31.91,17.629707,127.60814977461887,383.8488652864847,9.984492976611282,0.033166247903554,1.718145648143677,0.5464031492990744
19587198,2113,1,185868.0,213219,0.66,-0.23,9.97,-0.03,-0.01,-0.01,31.91,17.669709,114.77569711331242,-275.5008303354794,9.994468470108854,0.033166247903554,1.5448490697079165,-0.4122051558014168
19627196,2119,1,185529.0,213238,0.68,-0.23,9.98,-0.03,-0.01,-0.0,31.91,17.709707,100.24512893237406,-782.0656078409955,10.005783327656061,0.03162277660168379,1.348620194765175,-1.1486841532325247
19667198,2127,1,185682.0,213826,0.65,-0.21,9.98,-0.04,-0.01,-0.01,31.91,17.749709,108.21881021628957,-909.6243475757026,10.003349439062898,0.042426406871192854,1.4563012219632243,-1.3341378936524648
19707195,2133,1,185852.0,214785,0.68,-0.23,9.95,-0.04,-0.01,-0.01,31.91,17.789706,97.02119081156509,-668.1714453378376,9.975860865108332,0.042426406871192854,1.3050823411552066,-0.9830969226583104
19747198,2123,1,186296.0,216051,0.66,-0.21,9.96,-0.04,-0.01,-0.0,31.91,17.829709,89.10836253506248,-272.5917521848977,9.984052283516949,0.04123105625617661,1.1982231068170663,-0.40797573627813416
19787195,2131,1,186667.0,216766,0.65,-0.23,9.93,-0.04,-0.01,-0.01,31.91,17.869706,84.04716075502566,33.015989781117035,9.953908779971815,0.042426406871192854,1.1298738228257028,0.03633798904372628
19827198,2113,1,186761.0,217138,0.67,-0.21,9.96,-0.04,-0.01,-0.0,31.91,17.909709,70.91806011172635,152.41816824255278,9.984718323518196,0.04123105625617661,0.9525711450388612,0.2099331551296882
19867195,2114,1,186718.0,217425,0.65,-0.2,9.97,-0.04,-0.01,-0.01,31.91,17.949706,62.71865920614164,182.3540449483003,9.993167665960579,0.042426406871192854,0.8418418745194838,0.2534560083608924
19907198,2100,1,186873.0,217963,0.66,-0.22,9.96,-0.03,-0.01,-0.01,31.91,17.989709,56.13674407627292,297.8452474307207,9.984267624618242,0.033166247903554,0.7529560315971776,0.4213651263915866
19947195,2093,1,187085.0,218488,0.66,-0.21,9.97,-0.04,-0.01,-0.01,31.91,18.029706,45.1507353666739,572.1594917105466,9.994028216890325,0.042426406871192854,0.6045948593187405,0.8201821949669442
19987198,2076,1,187323.0,219255,0.64,-0.23,9.99,-0.04,-0.01,-0.01,31.91,18.069709,35.888668396743356,879.3261719760803,10.013121391454316,0.042426406871192854,0.4795147551877796,1.2667624128814015
20027196,2063,1,187737.0,220276,0.66,-0.23,9.96,-0.03,-0.01,-0.01,31.91,18.109707,26.393181846908455,969.3180578941924,9.984492976611282,0.033166247903554,0.3512824232165938,1.3975988564341397
20067197,2037,1,187905.0,218667,0.67,-0.23,9.96,-0.03,-0.01,-0.01,31.91,18.149708,6.3086484988211895,669.1465756257132,9.98515898721698,0.033166247903554,0.08004971341689893,0.961188742396766
20107196,2011,1,186578.0,215673,0.66,-0.23,9.93,-0.03,-0.01,-0.0,31.91,18.189707,-8.191615724179043,47.93136097526784,9.954566791176802,0.03162277660168379,-0.1157699200221061,0.05802298987910592
20147198,2001,1,185794.0,214734,0.66,-0.22,9.96,-0.04,-0.01,-0.01,31.91,18.229709,-13.619775991496036,-601.853437492472,9.984267624618242,0.042426406871192854,-0.18907481553622754,-0.8866792045333046
20187195,1968,1,185751.0,215178,0.67,-0.23,9.95,-0.03,-0.01,-0.01,31.91,18.269706,-29.84456893932464,-962.9309225072751,9.975184208825418,0.033166247903554,-0.4081834440968024,-1.411638688428239
20227198,1949,1,185980.0,215850,0.67,-0.21,9.96,-0.04,-0.01,-0.01,31.91,18.309709,-42.71571099522032,-910.4213191557894,9.984718323518196,0.042426406871192854,-0.5820025056370035,-1.3352965861955464
20267883,1938,1,186240.0,216853,0.66,-0.22,9.97,-0.03,-0.01,-0.01,31.91,18.350394,-35.52636103652763,-574.4346913412962,9.994243343045035,0.033166247903554,-0.48491352491740675,-0.8468159302336695
20308199,1939,1,186701.0,217659,0.66,-0.23,9.97,-0.04,-0.01,-0.0,31.91,18.39071,-24.85145296963108,-212.04376705711942,9.994468470108854,0.04123105625617661,-0.3407536287591665,-0.3199468772584322
20348195,1910,1,186887.0,217952,0.68,-0.22,9.95,-0.03,-0.01,-0.0,31.91,18.430706,-35.62512476445437,-4.815999043294587,9.975635318113829,0.03162277660168379,-0.48624728523392613,-0.01866477948161626
20388199,1888,1,186958.0,218069,0.66,-0.21,9.95,-0.03,-0.01,-0.01,31.91,18.47071,-45.905513088725634,57.53474693966574,9.974076398343858,0.033166247903554,-0.6250793673470407,0.07198505826813187
20428196,1883,1,186988.0,218404,0.66,-0.23,9.98,-0.03,-0.01,-0.0,31.91,18.510707,-30.8744802754644,125.66828267116652,10.004444012537629,0.03162277660168379,-0.4220919396397778,0.1710423167180166
20468199,1879,1,187152.0,218896,0.66,-0.21,9.96,-0.03,-0.01,-0.01,31.91,18.55071,-24.292245706671466,321.607728914141,9.984052283516949,0.033166247903554,-0.33320178283656,0.45591266960128807
20508195,1849,1,187359.0,219570,0.67,-0.22,9.99,-0.03,-0.01,-0.0,31.91,18.590706,-31.361743516915954,594.1214961382917,10.014858960564547,0.03162277660168379,-0.4286722134790639,0.8521120797926754
20548199,1829,1,187670.0,220387,0.66,-0.22,9.98,-0.03,-0.01,-0.01,31.91,18.63071,-42.0482588829153,726.4007555636412,10.004219109955558,0.033166247903554,-0.572988861060628,1.0444288390475172
20588196,1799,1,187924.0,220421,0.65,-0.23,9.99,-0.03,-0.01,-0.01,31.91,18.670707,-49.51268095956942,505.5611070760403,10.013765525515364,0.033166247903554,-0.6737925686624465,0.7233568456252829
20628199,1799,1,187086.0,216959,0.67,-0.2,9.97,-0.03,-0.01,-0.01,31.91,18.71071,-37.49154925738413,-77.81094113019049,9.994488481158003,0.033166247903554,-0.5114525197335403,-0.12478988756833766
20668196,1779,1,185938.0,215079,0.68,-0.22,10.0,-0.03,-0.01,-0.01,31.91,18.750707,-40.52037978284935,-775.2290342910134,10.025507468452657,0.033166247903554,-0.552355531852774,-1.1387446685752045
20708199,1753,1,185628.0,214981,0.68,-0.23,9.96,-0.03,-0.01,-0.0,31.91,18.79071,-49.014032852185906,-1233.9486193890366,9.985834967592846,0.03162277660168379,-0.6670585472610979,-1.8056630078222065
20748196,1755,1,185851.0,215758,0.66,-0.23,9.96,-0.03,-0.01,-0.01,31.91,18.830707,-36.53080924504856,-1240.931027533807,9.984492976611282,0.033166247903554,-0.4984781522218557,-1.815814516925224
20788199,1731,1,186280.0,216844,0.65,-0.23,9.97,-0.04,-0.01,-0.01,31.91,18.87071,-40.27179560213304,-858.4415017006404,9.993813086104822,0.042426406871192854,-0.5489985128082939,-1.2597247234329338
20828195,1719,1,186844.0,218203,0.66,-0.2,9.96,-0.03,-0.01,-0.01,31.91,18.910706,-44.203135044640895,-347.7355669878146,9.983846953955174,0.033166247903554,-0.6020895073389374,-0.5172250245166921
20868199,1712,1,187273.0,218850,0.66,-0.22,9.97,-0.04,-0.01,-0.01,31.91,18.95071,-33.430734436482666,44.51654592586422,9.994243343045035,0.042426406871192854,-0.45661301767596524,0.053058294985825344
20908196,1701,1,187394.0,219075,0.66,-0.22,9.97,-0.03,-0.01,-0.01,31.91,18.990707,-34.87360924786707,258.1856652702901,9.994243343045035,0.033166247903554,-0.47609840168817513,0.3637052759537371
20948199,1690,1,187497.0,219417,0.67,-0.21,9.97,-0.03,-0.01,-0.01,31.91,19.03071,-33.304017077540664,416.7099358101621,9.994693592101761,0.033166247903554,-0.45490175597778026,0.5941788521281708
20988196,1686,1,187701.0,219967,0.66,-0.22,9.96,-0.03,-0.01,-0.01,31.91,19.070707,-25.58452845221057,663.4631154609086,9.984267624618242,0.033166247903554,-0.3506534878289163,0.9529257339327214
21028199,1680,1,187950.0,220622,0.68,-0.21,9.97,-0.03,-0.01,-0.0,31.91,19.11071,-23.81939186493916,983.994863315924,9.995368927658449,0.03162277660168379,-0.32681610154591334,1.4189370138080417
21068196,1677,1,188282.0,221444,0.67,-0.19,9.98,-0.03,-0.01,-0.01,31.91,19.150707,-14.333790834095582,1175.5395421626183,10.004269088744065,0.033166247903554,-0.19871726912173346,1.6974179491287784
21108199,1682,1,188631.0,221577,0.66,-0.21,9.96,-0.03,-0.01,-0.01,31.91,19.19071,-4.656627942018668,1004.9700957923117,9.984052283516949,0.033166247903554,-0.06803147877246248,1.4494322611506703
21148196,1669,1,187813.0,217996,0.66,-0.23,9.98,-0.03,-0.01,-0.0,31.91,19.230707,-6.223389312800721,429.33546308828255,10.004444012537629,0.03162277660168379,-0.08918989579125626,0.6125347191065613
21188203,1665,1,186534.0,215576,0.65,-0.23,9.95,-0.03,-0.01,-0.01,31.91,19.270714,-7.024345440329578,-317.43756548809137,9.973860837208427,0.033166247903554,-0.10000645284713683,-0.4731756891512079
21228196,1655,1,186075.0,215170,0.67,-0.22,9.99,-0.03,-0.01,-0.01,31.91,19.310707,-7.492298028372285,-863.1334014292837,10.014858960564547,0.033166247903554,-0.10632594488177208,-1.266546132582647
21268886,1657,1,186274.0,215894,0.65,-0.22,9.96,-0.03,-0.01,-0.01,31.97,19.351397,-3.7683425262187025,-954.8578456892285,9.983611570969696,0.033166247903554,-0.05603557843326349,-1.399901489583863
21307196,1662,1,186608.0,216853,0.67,-0.22,9.96,-0.03,-0.01,-0.0,31.97,19.389707,10.211948810276633,-624.0550549929991,9.984933650255268,0.03162277660168379,0.13276205192581816,-0.9189574554583979
21347198,1673,1,187163.0,218096,0.66,-0.21,9.96,-0.03,-0.01,-0.01,31.97,19.429709,19.421801739404557,-132.0974557459148,9.984052283516949,0.033166247903554,0.2571370286071619,-0.20371538660341904
21387236,1662,1,187515.0,218620,0.66,-0.23,9.96,-0.03,-0.01,-0.01,31.97,19.469747,19.512013582079163,243.55095917840598,9.984492976611282,0.033166247903554,0.25835529950848646,0.3424283255046262
21427198,1670,1,187611.0,218658,0.67,-0.21,9.95,-0.04,-0.01,-0.01,31.97,19.509709,20.27301518577862,402.14550157006164,9.974743104461387,0.042426406871192854,0.2686322884509741,0.5730040677696517
21467195,1662,1,187547.0,218776,0.67,-0.23,9.96,-0.03,-0.01,-0.0,31.97,19.549706,26.45981733690887,444.665394844471,9.98515898721698,0.03162277660168379,0.3521823059377109,0.6348224368315901
21507198,1680,1,187611.0,219023,0.69,-0.21,9.96,-0.03,-0.01,-0.01,31.97,19.589709,32.91668614881398,528.3854410376124,9.98608031211446,0.033166247903554,0.4393794538286747,0.756540444918995
21547195,1667,1,187703.0,219463,0.68,-0.21,9.96,-0.04,-0.01,-0.0,31.97,19.629706,34.266680132686034,685.5136252949428,9.985394333725635,0.04123105625617661,0.457610523483762,0.984984294054852
21587197,1677,1,187848.0,220087,0.68,-0.23,9.95,-0.04,-0.01,-0.01,31.97,19.669708,33.49234326029087,767.1632857227277,9.975860865108332,0.042426406871192854,0.4471534476554326,1.1036922317613787
21627196,1673,1,188090.0,220484,0.66,-0.22,9.98,-0.03,-0.01,-0.01,31.97,19.709707,37.98446103425931,568.4813321217217,10.004219109955558,0.033166247903554,0.5078175046915832,0.8148346315226227
21667198,1675,1,187491.0,217320,0.69,-0.25,9.97,-0.04,-0.01,-0.01,31.97,19.749709,36.3070840548644,31.716853950155514,9.996974542330294,0.042426406871192854,0.48516527296720313,0.03444921529395061
21707196,1666,1,186178.0,214939,0.67,-0.23,9.98,-0.03,-0.01,-0.0,31.97,19.789707,25.129990594096654,-655.4135349332744,10.00510869506174,0.03162277660168379,0.33422358592336665,-0.9645485879115933
21747198,1670,1,185758.0,214872,0.64,-0.23,9.96,-0.03,-0.01,-0.01,31.97,19.829709,34.69262731420795,-1166.2516758924744,9.983190872661908,0.033166247903554,0.4633627511443929,-1.7072404974356536
21787196,1687,1,185905.0,215656,0.65,-0.22,9.97,-0.04,-0.01,-0.01,31.97,19.869707,40.75479313641493,-1265.2693281760044,9.99358794427707,0.042426406871192854,0.5452296103198333,-1.851199225953769
21827198,1669,1,186234.0,216687,0.65,-0.24,9.96,-0.04,-0.01,-0.0,31.97,19.909709,31.479033972226087,-968.8248087342463,9.984072315443234,0.04123105625617661,0.4199645991817033,-1.420207628891861
21867195,1690,1,186697.0,217999,0.66,-0.21,9.99,-0.03,-0.01,-0.0,31.97,19.949706,42.17414447665525,-507.2555061557655,10.013980227661726,0.03162277660168379,0.5643973202934321,-0.7491461727797185
21907198,1692,1,187117.0,218785,0.66,-0.22,9.94,-0.03,-0.01,-0.0,31.97,19.989709,45.477307320271194,-130.64818862039587,9.964316333798319,0.03162277660168379,0.6090050686267505,-0.20160834156789953
21947195,1687,1,187295.0,219041,0.65,-0.22,9.98,-0.03,-0.01,-0.01,31.97,20.029706,39.67070222778289,75.68114988459746,10.003564364765191,0.033166247903554,0.5305894436940309,0.09836755709419501
21987198,1703,1,187304.0,219253,0.64,-0.21,9.96,-0.03,-0.01,-0.01,31.97,20.069709,44.844076712763055,218.19907603576505,9.982750122085598,0.033166247903554,0.6004535702859193,0.3055699999577429
22027196,1696,1,187468.0,219842,0.64,-0.23,9.97,-0.04,-0.01,-0.01,31.97,20.109707,45.28125255165439,450.44180767503127,9.993167665960579,0.042426406871192854,0.6063574359812974,0.6432205863262082
22067198,1711,1,187742.0,220574,0.66,-0.22,9.97,-0.03,-0.01,-0.01,31.97,20.149709,44.23817379446679,785.1727216249345,9.994243343045035,0.033166247903554,0.5922711202604777,1.1298755984037874
22107198,1712,1,188074.0,221560,0.67,-0.25,9.98,-0.04,-0.01,-0.01,31.97,20.189709,49.50534388510145,1033.5033527801315,10.005588438467775,0.042426406871192854,0.6634019148823402,1.4909158885819223
22147198,1718,1,188494.0,222169,0.67,-0.22,9.94,-0.03,-0.01,-0.01,31.97,20.229709,47.11728883386395,940.3997887518477,9.964983692911895,0.033166247903554,0.6311522911807429,1.3555554716368912
22187198,1707,1,187885.0,218426,0.65,-0.21,9.99,-0.03,-0.01,-0.01,31.97,20.269709,25.55022185098116,413.6054146481143,10.01332612072532,0.033166247903554,0.3398986225583687,0.589665284003305
22227198,1697,1,186462.0,216096,0.66,-0.21,9.96,-0.03,-0.01,-0.01,31.97,20.309709,21.998854854158868,-354.2976249847046,9.984052283516949,0.033166247903554,0.29193898728344464,-0.5267653994287274
22267198,1721,1,185907.0,215757,0.66,-0.22,9.97,-0.03,-0.01,-0.01,31.97,20.349709,19.33246190145199,-990.9367490407801,9.994243343045035,0.033166247903554,0.2559305337426323,-1.452355500894342
22307885,1665,1,185985.0,216325,0.66,-0.22,9.96,-0.04,-0.01,-0.01,32.03,20.390396,-20.80879330029309,-1198.6298036140442,9.984267624618242,0.042426406871192854,-0.2861593039666063,-1.754314064533039
22348196,1683,1,186297.0,217256,0.65,-0.21,9.96,-0.03,-0.01,-0.01,32.03,20.430707,-35.08934133082351,-949.8974251120168,9.983396215717375,0.033166247903554,-0.47901176773143345,-1.392689686205959
22388199,1677,1,186764.0,218445,0.65,-0.23,9.96,-0.03,-0.01,-0.01,32.03,20.47071,-29.15669837638672,-473.3153077537029,9.983836937770969,0.033166247903554,-0.39889405740588085,-0.6998015590170852
22428196,1679,1,187196.0,219145,0.65,-0.22,9.97,-0.03,-0.01,-0.01,32.03,20.510707,-51.992630683327214,-59.01203596585763,9.99358794427707,0.033166247903554,-0.7072831891356322,-0.09745873577289017
22468199,1670,1,187370.0,219259,0.65,-0.21,9.96,-0.03,-0.01,-0.0,32.03,20.55071,-63.43606342710857,150.43062652085757,9.983396215717375,0.03162277660168379,-0.8618216700011568,0.20704352916367708
22508195,1677,1,187372.0,219321,0.66,-0.22,9.97,-0.03,-0.01,-0.01,32.03,20.590706,-67.4970808779719,224.8963679495605,9.994243343045035,0.033166247903554,-0.9166639084864442,0.3153069873149459
22548199,1670,1,187445.0,219512,0.67,-0.22,9.94,-0.04,-0.01,-0.01,32.03,20.63071,-92.85713275397512,332.85442816966537,9.964983692911895,0.042426406871192854,-1.259140154848636,0.47226390079605385
22588196,1680,1,187658.0,220161,0.66,-0.21,9.96,-0.03,-0.01,-0.0,32.03,20.670707,-82.94055027214011,553.7376534921173,9.984052283516949,0.03162277660168379,-1.1252211091887354,0.7933992492422997
22627197,1741,1,187791.0,220781,0.66,-0.23,9.97,-0.03,-0.01,-0.0,32.03,20.709708,-49.48328927593686,776.9192794266386,9.994468470108854,0.03162277660168379,-0.67339564701836,1.1178761718635353
22667195,1728,1,188131.0,221620,0.65,-0.22,9.98,-0.03,-0.01,-0.01,32.03,20.749706,-60.23459179073081,778.676657177911,10.003564364765191,0.033166247903554,-0.8185872162933091,1.1204311694903704
22707198,1746,1,188125.0,219328,0.67,-0.22,9.95,-0.03,-0.01,-0.01,32.03,20.789709,-69.70714557236968,421.1647551536653,9.97495864653082,0.033166247903554,-0.9465098514070565,0.6006555773754255
22747198,1744,1,186818.0,216453,0.65,-0.21,9.95,-0.04,-0.01,-0.01,32.03,20.829709,-73.95773062145166,-195.5292091055225,9.973419674314322,0.042426406871192854,-1.003912116180431,-0.2959368678315972
22787197,1744,1,186107.0,215533,0.66,-0.22,9.95,-0.03,-0.01,-0.01,32.03,20.869708,-97.40885409728985,-770.1886098738111,9.974291954820652,0.033166247903554,-1.3206091316380786,-1.1314165500674624
22827211,1759,1,186146.0,215968,0.67,-0.2,9.96,-0.04,-0.01,-0.01,32.03,20.909722,-88.8210788331368,-1007.3269704369644,9.984513007653403,0.042426406871192854,-1.2046350377580806,-1.4761847412157425
22867198,1794,1,186457.0,216813,0.68,-0.22,9.98,-0.03,-0.01,-0.01,32.03,20.949709,-75.41579408273772,-823.4216494511669,10.005558455178802,0.033166247903554,-1.0236026161691798,-1.2088104340465249
22907198,1795,1,186872.0,217956,0.67,-0.23,9.96,-0.03,-0.01,-0.01,32.03,20.989709,-81.38405386458817,-384.6133275732519,9.98515898721698,0.033166247903554,-1.1042013159430035,-0.5708404698644918
22947198,1825,1,187334.0,218726,0.66,-0.23,9.93,-0.03,-0.01,-0.01,32.03,21.029709,-72.98673757287027,42.70463525812195,9.954566791176802,0.033166247903554,-0.9907992859643144,0.05042401362385476
22987196,1856,1,187510.0,219027,0.65,-0.22,9.96,-0.03,-0.01,-0.0,32.03,21.069707,-48.324962274428565,295.2032770676485,9.983611570969696,0.03162277660168379,-0.6577529549025797,0.41752404669034954
23027228,1911,1,187552.0,219190,0.66,-0.23,9.98,-0.04,-0.01,-0.0,32.03,21.109739,-14.272719167115033,407.003173493822,10.004444012537629,0.04123105625617661,-0.19789252336139962,0.5800664880308419
23067195,1930,1,187703.0,219452,0.67,-0.23,9.97,-0.04,-0.01,-0.01,32.03,21.149706,-0.40063985564812216,530.8074997802221,9.99513381601267,0.042426406871192854,-0.010556248378252895,0.7600618018582997
23107198,1968,1,187778.0,219769,0.66,-0.2,9.96,-0.03,-0.01,-0.01,32.03,21.189709,16.074789410088602,760.9529736085716,9.983846953955174,0.033166247903554,0.21193711242888483,1.0946632494028132
23147195,2008,1,187952.0,220334,0.67,-0.24,9.95,-0.04,-0.01,-0.01,32.03,21.229706,56.2042272950424,1011.0145393966137,9.975419790665454,0.042426406871192854,0.7538673625191179,1.4582200923687159
23187198,2054,1,188298.0,221215,0.67,-0.23,9.97,-0.03,-0.01,-0.0,32.03,21.269709,75.93999730131057,1057.971055181877,9.99513381601267,0.03162277660168379,1.0203901781609084,1.5264887308608823
23227218,2067,1,188391.0,219499,0.66,-0.23,9.96,-0.04,-0.01,-0.01,32.03,21.309729,98.3866212885725,728.9889370461374,9.984492976611282,0.042426406871192854,1.3235218737997168,1.0481917167445907
23267198,2099,1,187089.0,216002,0.66,-0.22,9.97,-0.03,-0.01,-0.01,32.03,21.349709,99.17774447132203,76.09640727443883,9.994243343045035,0.033166247903554,1.3342056412999934,0.09897128708042151
23307883,2047,1,186110.0,214608,0.66,-0.23,9.95,-0.04,-0.01,-0.01,31.95,21.390394,62.670935065814135,-621.4208604450056,9.974517532191719,0.042426406871192854,0.8411973811832658,-0.9151276807762772
23348199,2081,1,185979.0,214496,0.67,-0.21,9.95,-0.03,-0.01,-0.01,31.95,21.43071,68.0655681665703,-1042.1460631605114,9.974743104461387,0.033166247903554,0.9140495071915891,-1.5268071524832123
23388196,2080,1,186077.0,214974,0.67,-0.22,9.98,-0.03,-0.01,-0.01,31.95,21.470707,80.3342141137953,-1042.430347480044,10.004883807421253,0.033166247903554,1.0797321261584762,-1.5272204647384895
23428199,2098,1,186353.0,215915,0.68,-0.24,9.96,-0.03,-0.01,-0.01,31.95,21.51071,79.29868428855764,-730.301752449759,9.986070298170347,0.033166247903554,1.0657477554135935,-1.07342627109268
23468196,2102,1,186802.0,216902,0.67,-0.23,9.96,-0.03,-0.01,-0.0,31.95,21.550707,92.03715454128992,-346.2857524884524,9.98515898721698,0.03162277660168379,1.2377751431288486,-0.5151171836711257
23508199,2111,1,187059.0,217174,0.67,-0.23,9.96,-0.03,-0.01,-0.01,31.95,21.59071,89.138624317797,-66.50890938419275,9.98515898721698,0.033166247903554,1.1986317787633942,-0.1083582101623097
23548196,2094,1,187071.0,217331,0.67,-0.21,9.96,-0.04,-0.01,-0.01,31.95,21.630707,82.66061799556593,104.8748790513744,9.984718323518196,0.042426406871192854,1.1111491781758323,0.14081142477464986
23588199,2091,1,187111.0,217688,0.67,-0.22,9.96,-0.03,-0.01,-0.01,31.95,21.67071,67.66229869296403,275.0874810759617,9.984933650255268,0.033166247903554,0.9086035319124999,0.3882783077002855
23628196,2065,1,187346.0,218214,0.67,-0.22,9.94,-0.03,-0.01,-0.0,31.95,21.710707,59.162763745064844,502.589679851434,9.964983692911895,0.03162277660168379,0.7938210843444337,0.7190367786950597
23667198,2096,1,187454.0,218867,0.66,-0.23,9.94,-0.03,-0.01,-0.0,31.95,21.749709,76.66405603327107,692.6699141942804,9.964542136997565,0.03162277660168379,1.0301682700149808,0.9953886030553017
23707195,2070,1,187796.0,219582,0.67,-0.21,9.95,-0.03,-0.01,-0.01,31.95,21.789706,72.01458467375834,656.0646500949409,9.974743104461387,0.033166247903554,0.9673792226360529,0.9421693319931939
23747198,2061,1,187708.0,217544,0.67,-0.22,9.95,-0.03,-0.01,-0.01,31.95,21.829709,53.64684693040407,288.36158545520505,9.97495864653082,0.033166247903554,0.7193310756028254,0.4075771210389499
23787196,2023,1,186411.0,214429,0.67,-0.23,9.95,-0.04,-0.01,-0.01,31.95,21.869707,34.165209848864755,-295.21653531703,9.975184208825418,0.042426406871192854,0.4562402123309958,-0.44086921473966734
23827198,2000,1,185634.0,213834,0.68,-0.23,9.98,-0.03,-0.01,-0.0,31.95,21.909709,10.381669996920106,-808.3497842879055,10.005783327656061,0.03162277660168379,0.13505406123297556,-1.1868979114279647
23867196,1975,1,185870.0,214568,0.67,-0.21,9.96,-0.04,-0.01,-0.01,31.95,21.949707,-1.0531551527250234,-996.7435212648612,9.984718323518196,0.042426406871192854,-0.019368177893596888,-1.4607977889803025
23907198,1955,1,186135.0,215357,0.67,-0.22,9.95,-0.04,-0.01,-0.01,31.95,21.989709,-14.83238248681443,-818.8984325298211,9.97495864653082,0.042426406871192854,-0.20545052812788908,-1.2022342676580913
23947196,1933,1,186501.0,216272,0.67,-0.22,9.96,-0.03,-0.01,-0.01,31.95,22.029707,-25.469158127270532,-449.5985680229941,9.984933650255268,0.033166247903554,-0.34909546278936826,-0.6653205183390907
23987198,1915,1,186792.0,216725,0.67,-0.22,9.96,-0.04,-0.01,-0.01,31.95,22.069709,-34.193999989614845,-116.35237564384725,9.984933650255268,0.042426406871192854,-0.4669205802508517,-0.1808240974278369
24027196,1882,1,186923.0,216884,0.67,-0.22,9.98,-0.03,-0.01,-0.01,31.95,22.109707,-55.85259536385513,79.03122121612456,10.004883807421253,0.033166247903554,-0.7594102991802579,0.10323812308126447
24067198,1856,1,186953.0,217199,0.66,-0.22,9.99,-0.03,-0.01,-0.0,31.95,22.149709,-70.9466520286748,204.47163145897574,10.01419492520492,0.03162277660168379,-0.9632488360342434,0.28561208920644754
24107196,1840,1,187119.0,217660,0.66,-0.23,9.97,-0.03,-0.01,-0.01,31.95,22.189707,-76.53999603857835,383.5906900243403,9.994468470108854,0.033166247903554,-1.0387844646871496,0.5460277962017629
24147198,1825,1,187297.0,218125,0.68,-0.24,9.96,-0.04,-0.01,-0.0,31.95,22.229709,-78.10626733990718,634.4151958693109,9.986070298170347,0.04123105625617661,-1.0599362635354594,0.9106938543227214
24187196,1823,1,187483.0,218654,0.65,-0.22,9.96,-0.03,-0.01,-0.01,31.95,22.269707,-72.30602686544223,810.4163978908849,9.983611570969696,0.033166247903554,-0.9816065899446702,1.1665766052905526
24227198,1808,1,187738.0,219142,0.69,-0.2,9.94,-0.03,-0.01,-0.01,31.95,22.309709,-71.20401527864223,708.07370345928,9.965926951367845,0.033166247903554,-0.9667244125130052,1.0177836999477292
24267195,1793,1,187485.0,216679,0.65,-0.21,9.95,-0.03,-0.01,-0.01,31.95,22.349706,-80.7243216328541,258.45500106563134,9.973419674314322,0.033166247903554,-1.0952919249278283,0.3640968550080527
24307198,1773,1,186139.0,213807,0.67,-0.22,9.97,-0.04,-0.01,-0.01,31.95,22.389709,-84.12169513774596,-367.4917566886292,9.99490870393522,0.042426406871192854,-1.141171946433096,-0.5459479429469145
24347883,1777,1,185639.0,213475,0.67,-0.23,9.97,-0.04,-0.01,-0.01,31.97,22.430394,-74.47310992121308,-849.1703849270264,9.99513381601267,0.042426406871192854,-1.0108720849099146,-1.2462457310321573
24388199,1777,1,185828.0,214192,0.67,-0.22,9.93,-0.04,-0.01,-0.01,31.97,22.47071,-60.796978882889526,-939.6829574114231,9.955008789549108,0.042426406871192854,-0.8261820043981124,-1.377839184818022
24428195,1781,1,186267.0,215338,0.68,-0.21,9.97,-0.03,-0.01,-0.01,31.97,22.510706,-48.34460279384134,-636.3067825931253,9.995368927658449,0.033166247903554,-0.6580181914012264,-0.9367698665466159
24468198,1778,1,186738.0,216492,0.66,-0.22,9.94,-0.03,-0.01,-0.01,31.97,22.550709,-42.55780168901376,-159.14640922102038,9.964316333798319,0.033166247903554,-0.5798700105332986,-0.24304103067011396
24508195,1782,1,187105.0,217171,0.67,-0.22,9.96,-0.03,-0.01,-0.01,31.97,22.590706,-27.23463720100585,232.1785115123011,9.984933650255268,0.033166247903554,-0.3729374742000784,0.3258942725514884
24548199,1797,1,187253.0,217386,0.65,-0.23,9.95,-0.03,-0.01,-0.01,31.97,22.63071,-6.986020974697907,424.0606221190673,9.973860837208427,0.033166247903554,-0.0994888979463209,0.6048657895616645
24588195,1785,1,187291.0,217558,0.66,-0.21,9.96,-0.03,-0.01,-0.01,31.97,22.670706,-7.41970420068897,490.4059145950417,9.984052283516949,0.033166247903554,-0.10534559745442432,0.7013231759744952
24628199,1792,1,187334.0,217725,0.67,-0.22,9.98,-0.03,-0.01,-0.01,31.97,22.71071,3.981169176552118,571.825679587265,10.004883807421253,0.033166247903554,0.04861813805286798,0.8196968757564468
24667196,1797,1,187317.0,218139,0.64,-0.22,9.96,-0.03,-0.01,-0.0,31.97,22.749707,19.018784930398912,707.4596692248991,9.982965491275626,0.03162277660168379,0.2516944654513773,1.016890974402238
24707198,1778,1,187511.0,218683,0.66,-0.22,9.99,-0.04,-0.01,-0.01,31.97,22.789709,3.867347106396635,772.5095291466388,10.01419492520492,0.042426406871192854,0.04708102150710453,1.1114649711457742
24747196,1765,1,187834.0,219057,0.66,-0.23,9.97,-0.04,-0.01,-0.01,31.97,22.829707,0.6038648335170658,586.1119460302803,9.994468470108854,0.042426406871192854,0.0030091416722319553,0.8404672404841266
24787198,1767,1,187329.0,216133,0.66,-0.23,9.96,-0.03,-0.01,-0.01,31.97,22.869709,4.281360570906614,100.81448424716048,9.984492976611282,0.033166247903554,0.05267208961540567,0.13490814127099293
24827196,1744,1,186035.0,213693,0.65,-0.2,9.97,-0.03,-0.01,-0.01,31.97,22.909707,-7.899028420489656,-503.4635908961163,9.993167665960579,0.033166247903554,-0.11181865832947553,-0.743633223453628
24867198,1755,1,185679.0,213623,0.68,-0.24,9.98,-0.04,-0.01,-0.01,31.97,22.949709,2.6395358566109883,-924.277086975887,10.006018189070016,0.042426406871192854,0.03049997545389234,-1.3554410621755655
24907196,1765,1,185944.0,214475,0.65,-0.21,9.96,-0.03,-0.01,-0.0,31.97,22.989707,23.592775548461663,-959.9135137030113,9.983396215717375,0.03162277660168379,0.31346417891368633,-1.4072517702892655
24947198,1763,1,186388.0,215687,0.68,-0.22,9.96,-0.04,-0.01,-0.01,31.97,23.029709,21.005455210498802,-655.6000394591246,9.985609645885424,0.042426406871192854,0.2785235659443359,-0.9648197411230165
24987196,1751,1,186792.0,216728,0.66,-0.21,9.94,-0.03,-0.01,-0.0,31.97,23.069707,18.312329964776524,-247.9976807723112,9.964100561515826,0.03162277660168379,0.24215410464954373,-0.37221916996911253
25027198,1759,1,187068.0,217198,0.66,-0.22,9.97,-0.03,-0.01,-0.01,31.97,23.109709,27.22715661052562,34.483732334007875,9.994243343045035,0.033166247903554,0.36254488229991555,0.0384718949365975
25067195,1759,1,187094.0,217293,0.64,-0.21,9.93,-0.04,-0.01,-0.0,31.97,23.149706,34.45556554791858,139.58638895908527,9.952818696228722,0.04123105625617661,0.46016133719335933,0.19127742468494266
25107198,1766,1,187136.0,217416,0.67,-0.23,9.96,-0.04,-0.01,-0.01,31.97,23.189709,43.49687948968824,191.3501912089554,9.98515898721698,0.042426406871192854,0.5822602696442588,0.2665352295641841
25147196,1760,1,187197.0,217805,0.65,-0.21,9.96,-0.03,-0.01,-0.0,31.97,23.229707,44.48366534883535,334.52669568221705,9.983396215717375,0.03162277660168379,0.5955863747585696,0.4746951592565126
25187197,1753,1,187376.0,218363,0.68,-0.21,9.96,-0.03,-0.01,-0.01,31.97,23.269708,38.10327009941117,565.6959332604922,9.985394333725635,0.033166247903554,0.5094219683916559,0.8107850255258028
25227196,1747,1,187671.0,219146,0.68,-0.21,9.97,-0.03,-0.01,-0.0,31.97,23.309707,41.98849396168958,705.6661262975981,9.995368927658449,0.03162277660168379,0.5618901924763627,1.0142833973348926
25267198,1747,1,188046.0,219323,0.65,-0.22,9.96,-0.03,-0.01,-0.0,31.97,23.349709,38.742157045503646,549.07505251228,9.983611570969696,0.03162277660168379,0.5180498530749122,0.7866204366451003
25307196,1732,1,187354.0,216182,0.65,-0.23,9.97,-0.04,-0.01,-0.01,31.97,23.389707,37.6646806122788,66.62085155674819,9.993813086104822,0.042426406871192854,0.5034990120041279,0.08519506716747777
25347198,1744,1,186104.0,213995,0.66,-0.24,9.99,-0.03,-0.01,-0.01,31.97,23.429709,43.42567531168162,-526.5164389670468,10.014654262629339,0.033166247903554,0.5812986888190994,-0.7771490524041036
25387883,1711,1,185909.0,214184,0.66,-0.24,9.96,-0.04,-0.01,-0.01,31.89,23.470394,25.828926300821664,-911.9288697134289,9.984728338818238,0.042426406871192854,0.34366240247066987,-1.3374883677259053
25428199,1708,1,186256.0,215118,0.67,-0.23,9.98,-0.03,-0.01,-0.01,31.89,23.51071,16.890000598336744,-902.4099755464952,10.00510869506174,0.033166247903554,0.22294617775370254,-1.323649139370476
25468195,1702,1,186616.0,216111,0.66,-0.23,9.96,-0.03,-0.01,-0.01,31.89,23.550706,24.890927423506078,-566.8266472359891,9.984492976611282,0.033166247903554,0.33099514389542356,-0.8357548281912417
25508199,1695,1,187071.0,217121,0.67,-0.23,9.96,-0.04,-0.01,-0.01,31.89,23.59071,13.516320714123639,-147.1799161745296,9.98515898721698,0.042426406871192854,0.17738612808100324,-0.2256433133533985
25548195,1669,1,187322.0,217527,0.66,-0.19,9.97,-0.04,-0.01,-0.0,31.89,23.630706,0.4036772742833732,145.17839949054945,9.993627969861596,0.04123105625617661,0.00030569752353768934,0.1994074773311555
25588199,1675,1,187380.0,217590,0.66,-0.22,9.98,-0.03,-0.01,-0.0,31.89,23.67071,1.863836386575936,275.1380944710801,10.004219109955558,0.03162277660168379,0.020024498349126483,0.3883518929635107
25628196,1665,1,187418.0,217707,0.67,-0.24,9.98,-0.03,-0.01,-0.01,31.89,23.710707,5.235637755356518,358.6981424510519,10.005343572311748,0.033166247903554,0.06555917950455266,0.5098372845547466
25668198,1670,1,187517.0,218053,0.67,-0.23,9.93,-0.04,-0.01,-0.01,31.89,23.750709,4.542895875583765,505.96119396662374,9.955234803860732,0.042426406871192854,0.05620400784155795,0.7239385196878051
25708195,1664,1,187650.0,218518,0.66,-0.22,9.96,-0.03,-0.01,-0.01,31.89,23.790706,11.385594726466003,680.7162712899783,9.984267624618242,0.033166247903554,0.148611619186175,0.9780095681662958
25748208,1673,1,187909.0,219245,0.69,-0.22,9.94,-0.04,-0.01,-0.0,31.89,23.830719,15.869876733481656,708.8913686232273,9.966348378418246,0.04123105625617661,0.20916985766696608,1.0189724782578669
25788195,1650,1,188068.0,218788,0.65,-0.23,9.97,-0.04,-0.01,-0.0,31.89,23.870706,1.3713317957353566,437.34907497077216,9.993813086104822,0.04123105625617661,0.013373442412335098,0.6241854637044795
25828199,1648,1,187130.0,215465,0.67,-0.21,9.95,-0.04,-0.01,-0.01,31.89,23.91071,-0.6869024907342434,-96.89978259381715,9.974743104461387,0.042426406871192854,-0.014422098228142697,-0.15254256885913278
25868195,1655,1,186093.0,214138,0.66,-0.22,9.97,-0.03,-0.01,-0.01,31.89,23.950706,8.20842539290392,-649.9592216766972,9.994243343045035,0.033166247903554,0.10570535729303505,-0.9566187291111846
25908199,1648,1,186107.0,214774,0.66,-0.22,9.96,-0.03,-0.01,-0.01,31.89,23.99071,4.978380820935529,-937.132239888883,9.984267624618242,0.033166247903554,0.062085038770064924,-1.3741307748235867
25948195,1648,1,186387.0,215677,0.65,-0.23,9.96,-0.03,-0.01,-0.01,31.89,24.030706,3.199423796416954,-841.3257271127038,9.983836937770969,0.033166247903554,0.038061013615239656,-1.2348406235733793
25988199,1647,1,186797.0,216714,0.66,-0.23,9.96,-0.03,-0.01,-0.01,31.89,24.07071,4.365043880136558,-483.1116933413173,9.984492976611282,0.033166247903554,0.053802195569777035,-0.7140442236404388
26028196,1648,1,187170.0,217495,0.68,-0.21,9.97,-0.03,-0.01,-0.01,31.89,24.110707,5.7428231059535655,-100.4919154385847,9.995368927658449,0.033166247903554,0.07240849258686266,-0.15776506065807147
26068199,1650,1,187392.0,217874,0.65,-0.2,9.97,-0.04,-0.01,-0.01,31.89,24.15071,2.9153612607903225,146.31211428353433,9.993167665960579,0.042426406871192854,0.03422487513219538,0.2010557505060531
26108195,1639,1,187457.0,218013,0.67,-0.21,10.0,-0.03,-0.01,-0.0,31.89,24.190706,-2.577300052537493,275.6567793756082,10.024619693534513,0.03162277660168379,-0.03995107838418211,0.38910599304198557
26148199,1654,1,187475.0,218135,0.66,-0.23,9.96,-0.04,-0.01,-0.01,31.89,24.23071,0.2189491791208204,413.8202822850028,9.984492976611282,0.042426406871192854,-0.0021889734234398638,0.5899776734721807
26188196,1646,1,187627.0,218734,0.66,-0.23,9.96,-0.03,-0.01,-0.01,31.89,24.270707,0.20095455406985913,626.6135569675389,9.984492976611282,0.033166247903554,-0.002431982849141383,0.8993512907418298
26228198,1648,1,187867.0,219286,0.67,-0.22,9.96,-0.03,-0.01,-0.01,31.89,24.310709,-12.694394125440184,812.5766970060265,9.984933650255268,0.033166247903554,-0.17657794409889685,1.1697173979337074
26268195,1631,1,188116.0,219882,0.67,-0.19,9.97,-0.03,-0.01,-0.01,31.89,24.350706,-25.028143572960172,766.7024644029601,9.994293371719683,0.033166247903554,-0.3431397569457921,1.1030222577745403
26308208,1635,1,188037.0,217915,0.65,-0.22,9.95,-0.03,-0.01,-0.0,31.89,24.390719,-33.11325791366483,371.229475567389,9.973635244984647,0.03162277660168379,-0.45232563812428317,0.5280562055295566
26348196,1609,1,186774.0,214846,0.67,-0.22,9.95,-0.03,-0.01,-0.01,31.89,24.430707,-61.67145072423889,-257.2658073618859,9.97495864653082,0.033166247903554,-0.837991358544511,-0.3856938150330012
26388886,1584,1,185976.0,214253,0.66,-0.23,9.94,-0.03,-0.01,-0.01,31.85,24.471397,-94.26865158632725,-812.0717575627577,9.964542136997565,0.033166247903554,-1.2782020902790965,-1.1923091742469605
26429196,1590,1,186092.0,214786,0.68,-0.23,9.95,-0.03,-0.01,-0.01,31.85,24.511707,-96.8843242625886,-1009.9542537616328,9.975860865108332,0.033166247903554,-1.313525588995035,-1.4800044678821869
26469197,1603,1,186470.0,215738,0.67,-0.22,9.93,-0.03,-0.01,-0.01,31.85,24.551708,-89.99822727058726,-793.4583335817516,9.955008789549108,0.033166247903554,-1.220531905013728,-1.1652476878566198
