timestamp_us,ecg,leads,ir,red,accX,accY,accZ,gyroX,gyroY,gyroZ,temp,time_sec,ecg_filtered,ppg_filtered,accel_magnitude,gyro_magnitude,ecg_norm,ppg_norm
1949961,1617.375,1,197606.0,228489,0.76,-0.5300000000000002,9.884999999999998,-0.04,-0.01,-0.0,32.89000000000001,0.030471,-18.58374313177588,63.60690224103077,9.92832941637212,0.04123105625617661,-0.2803207235389443,0.04210743763644146
1990201,1617.375,1,197231.0,230297,0.77,-0.5300000000000002,9.93,-0.04,-0.01,0.0,32.89000000000001,0.070711,-30.928548938854544,-142.01525613607083,9.973900941958467,0.04123105625617661,-0.47300824747124925,-0.09366346692308841
2030193,1617.375,1,198248.0,232052,0.79,-0.5300000000000002,9.96,-0.04,-0.0,0.0,32.89000000000001,0.110703,-42.78929778606761,89.55361593695038,10.005328580311593,0.04,-0.6581402263025353,0.05923987519398076
2070197,1617.375,1,198826.0,233370,0.74,-0.5300000000000002,9.97,-0.03,-0.01,-0.0,32.89000000000001,0.150707,-54.87654520660003,805.3033417364239,10.011463429489218,0.03162277660168379,-0.846807574579818,0.5318445228497555
2110194,1617.375,1,199394.0,234077,0.72,-0.56,10.0,-0.03,0.01,-0.0,32.89000000000001,0.190704,-67.3661491236023,1540.290869595289,10.041513830095539,0.03162277660168379,-1.0417552223008066,1.0171517596036885
2150176,1617.375,1,200024.0,233846,0.75,-0.54,9.96,-0.03,0.02,0.0,32.89000000000001,0.230686,-77.79791258803635,1580.5011711849154,10.002784612296718,0.03605551275463989,-1.2045824634597304,1.0437023466733117
2190173,1617.375,1,199587.0,230076,0.74,-0.5300000000000002,9.96,-0.03,-0.01,-0.0,32.89000000000001,0.270683,-91.45029946010312,472.47152864208056,10.001504886765792,0.03162277660168379,-1.4176797501449538,0.31207795349426287
2230197,1617.375,1,197357.0,224456,0.74,-0.5300000000000002,9.97,-0.03,-0.04,-0.0,32.89000000000001,0.310707,-101.06219714235432,-1549.6182361138792,10.011463429489218,0.05,-1.5677098756590895,-1.0230940854938122
2270193,1617.375,1,195497.0,220598,0.76,-0.5300000000000002,9.93,-0.03,-0.04,-0.0,32.89000000000001,0.350703,-113.03219082457612,-3553.687847768137,9.973133910662185,0.05,-1.7545470345547032,-2.346367540660817
2310196,1617.375,1,194474.0,219836,0.79,-0.5300000000000002,9.95,-0.03,-0.04,-0.0,32.89000000000001,0.390706,-125.70177915228028,-4406.119580909473,9.995373929973805,0.05,-1.9523040217652345,-2.9092223827522687
2350191,1617.375,1,195196.0,226056,0.81,-0.54,9.94,-0.03,-0.01,-0.0,32.89000000000001,0.430701,-131.93732817597075,-3496.389717177046,9.987557258909707,0.03162277660168379,-2.0496334184775304,-2.3085339769956823
2390196,1617.375,1,198289.0,233201,0.78,-0.5300000000000002,9.94,-0.04,0.02,0.0,32.89000000000001,0.470706,-149.08641722342443,-1194.9973779085537,9.984633193062226,0.044721359549995794,-2.3173100071488295,-0.7889403587056998
2430172,1617.375,1,201406.0,238370,0.75,-0.54,10.005000000000003,-0.05,0.0,0.0,32.89000000000001,0.510682,-152.19844681513865,1309.3453465517962,10.047592995339732,0.05,-2.365885034233308,0.8646600105866206
2470176,1617.375,1,203067.0,239075,0.77,-0.54,9.98,-0.04,-0.02,0.0,32.89000000000001,0.550686,-165.03872716489587,2715.643732379103,10.024215680042005,0.044721359549995794,-2.566306317958374,1.7932292145642155
2510192,1617.375,1,202236.0,235622,0.76,-0.5300000000000002,10.005000000000003,-0.03,-0.04,-0.0,32.89000000000001,0.590702,-178.42302158700082,2384.7635241698326,10.047811950867715,0.05,-2.775219004968609,1.5747512765638283
2550196,1617.375,1,200240.0,231847,0.78,-0.54,9.94,-0.03,-0.05,-0.0,32.89000000000001,0.630706,-171.0028717847445,667.2315750320236,9.985169002075027,0.05830951894845301,-2.6593994193916775,0.440676679814039
2590192,1617.375,1,198651.0,229372,0.79,-0.55,9.97,-0.02,-0.05,0.0,32.89000000000001,0.670702,-207.07354583066916,-1386.5587450082724,10.01636161487793,0.05385164807134505,-3.222419119911636,-0.9154270189716164
2630176,1696.0,1,197906.0,229284,0.86,-0.5300000000000002,9.91,-0.03,-0.05,0.0,32.89000000000001,0.710686,-96.24812748303515,-2678.3088922945476,9.961355329471989,0.05830951894845301,-1.4925680567282529,-1.768360804640381
2670172,1992.375,1,198194.0,231328,0.85,-0.54,9.9,-0.04,0.0,-0.0,32.89000000000001,0.750682,149.14425781130038,-2641.3175263692656,9.951085367938514,0.04,2.3377109977299724,-1.7439356587698793
2710176,1992.375,1,198712.0,232997,0.87,-0.5300000000000002,9.92,-0.05,0.03,0.0,32.89000000000001,0.790686,187.7827760515732,-1447.2521777461525,9.972171278111905,0.05830951894845301,2.9408116478724167,-0.9555024774177459
2750173,1992.375,1,200632.0,237439,0.8,-0.55,9.97,-0.05,0.03,0.0,32.89000000000001,0.830683,146.62990235609817,196.04455359320335,10.017155284810155,0.05830951894845301,2.298464942788323,0.12955511284685073
2790176,1992.375,1,202716.0,239585,0.77,-0.55,10.005000000000003,-0.04,0.0,0.0,32.89000000000001,0.870686,168.88683899679413,1487.0518824093501,10.049648003786006,0.04,2.645868869479073,0.9819984205612505
2830173,1992.375,1,203065.0,238006,0.76,-0.5300000000000002,9.97,-0.03,-0.02,0.0,32.89000000000001,0.910683,152.6068293380486,1955.080702441931,10.012961599846472,0.03605551275463989,2.3917575614713833,1.2910346487444742
2870196,1992.375,1,202179.0,236163,0.79,-0.55,9.95,-0.03,-0.02,-0.0,32.89000000000001,0.950706,154.645616333048,1636.8155303731548,9.9964543714259,0.03605551275463989,2.4235805665498877,1.0808863328109117
2910193,1992.375,1,201360.0,235172,0.8,-0.54,9.96,-0.03,-0.01,-0.0,32.89000000000001,0.990703,157.70708822607426,932.1308793188151,10.006657783695815,0.03162277660168379,2.4713664489586105,0.6155878783155573
2950196,1992.375,1,201153.0,234629,0.79,-0.56,9.95,-0.03,-0.0,-0.0,32.89000000000001,1.030706,150.33295964572793,283.89918899818036,9.997009552861295,0.03,2.35626519912845,0.18756492761013044
2990879,1992.375,1,201260.0,234175,0.79,-0.54,9.98,-0.03,0.0,0.0,32.81,1.071389,161.11401442342643,-69.23298981854411,10.025771790740103,0.03,2.5245444562474297,-0.04560583436142355
3029176,1992.375,1,200985.0,233327,0.77,-0.56,9.96,-0.04,-0.01,0.0,32.81,1.109686,153.88275786273363,-126.52473634172917,10.005403540087727,0.04123105625617661,2.4116732662607756,-0.08343518267019204
3069193,1992.375,1,200767.0,232682,0.79,-0.56,9.98,-0.03,-0.01,0.0,32.81,1.149703,164.41770097170618,-7.815070233606,10.026868903102304,0.03162277660168379,2.576111017178787,-0.005052002206240168
3109214,1992.375,1,200657.0,232581,0.78,-0.55,9.97,-0.03,-0.01,-0.0,32.81,1.189724,164.7124959425997,161.58425003138376,10.01557786650376,0.03162277660168379,2.5807124109873953,0.10680121014049113
3149192,1992.375,1,200847.0,233485,0.79,-0.56,9.96,-0.03,-0.01,-0.0,32.81,1.229702,165.44034053165151,289.0089432720314,10.006962576126686,0.03162277660168379,2.592073186836255,0.19093886340242652
3189196,1992.375,1,201440.0,233148,0.81,-0.56,9.96,-0.04,-0.0,0.0,32.81,1.269706,183.88233789199427,315.06155550408357,10.008561335177,0.04,2.8799305143037235,0.20814122503894508
3229192,1992.375,1,200903.0,230775,0.78,-0.56,10.0,-0.04,-0.01,0.0,32.81,1.309702,164.16746132957562,229.9765184761868,10.045994226556175,0.04123105625617661,2.5722050782936083,0.15196015713782587
3269196,1992.375,1,200533.0,229794,0.76,-0.55,9.96,-0.03,-0.02,0.0,32.81,1.349706,205.49625423676568,91.59502232391706,10.004084165979414,0.03605551275463989,3.217297670015956,0.06058780186647373
3309193,1991.0,1,200173.0,229405,0.8,-0.55,9.96,-0.03,-0.02,-0.0,32.81,1.389703,167.48871798028526,0.19916381485213408,10.007202406267199,0.03605551275463989,2.6240458873245593,0.00023974171230881848
3349196,1699.0,1,200198.0,229403,0.78,-0.55,9.95,-0.03,-0.02,-0.0,32.81,1.429706,-75.38829269865558,36.75790030246142,9.995669062148865,0.03605551275463989,-1.1669712043310871,0.02437922532463996
3389192,1617.375,1,200330.0,230796,0.8,-0.55,9.96,-0.03,-0.01,-0.0,32.81,1.469702,-188.69159996464325,225.846558861589,10.007202406267199,0.03162277660168379,-2.9354991238148815,0.14923317305647057
3429196,1617.375,1,200905.0,231705,0.81,-0.56,9.98,-0.04,-0.01,-0.0,32.81,1.509706,-156.09294341976837,559.5698993129649,10.028464488644312,0.04123105625617661,-2.4266734272980717,0.36958841182706526
3469192,1617.375,1,200803.0,231714,0.78,-0.56,9.96,-0.03,-0.02,-0.0,32.81,1.549702,-165.41142522813243,1039.417643213824,10.006178091559235,0.03605551275463989,-2.5721236850439086,0.686428594589802
3509196,1617.375,1,201196.0,233131,0.8,-0.5300000000000002,9.94,-0.03,-0.0,0.0,32.81,1.589706,-156.91463509693557,1660.1925489379355,9.986215499377128,0.03,-2.439499042960518,1.0963220182520905
3549192,1617.375,1,201584.0,233798,0.78,-0.56,9.98,-0.03,-0.0,-0.0,32.81,1.629702,-148.84845594192697,2326.5415947429224,10.026085976092565,0.03,-2.3135957186585876,1.5363077348469107
3589196,1617.375,1,201950.0,234517,0.78,-0.54,9.95,-0.03,0.0,-0.0,32.81,1.669706,-152.091560097334,2792.5060954811693,9.99512381113911,0.03,-2.3642166615333324,1.843980907121649
3629173,1617.375,1,201983.0,233543,0.78,-0.57,10.005000000000003,-0.03,-0.01,0.0,32.81,1.709683,-142.85509056576223,2730.021296383263,10.051533465098748,0.03162277660168379,-2.220046516475708,1.8027226217223455
3669196,1617.375,1,201161.0,230555,0.78,-0.56,9.97,-0.03,-0.02,-0.0,32.81,1.749706,-144.43902429422792,1925.8112165689854,10.016131987948242,0.03605551275463989,-2.2447698108701735,1.2717082074488129
3709193,1617.375,1,199233.0,224098,0.82,-0.54,9.96,-0.03,-0.02,-0.0,32.81,1.789703,-142.80939105638907,471.47109401502064,10.008276574915383,0.03605551275463989,-2.219333202273472,0.31141737335377284
3749196,1617.375,1,196952.0,219626,0.8,-0.55,9.96,-0.03,-0.03,-0.0,32.81,1.829706,-140.67837715659667,-1214.8311867237444,10.007202406267199,0.042426406871192854,-2.186070646488198,-0.8020364869875586
3789192,1617.375,1,195852.0,217966,0.79,-0.55,9.92,-0.03,-0.02,-0.0,32.81,1.869702,-143.9694576118894,-2576.7997621488626,9.96659420263512,0.03605551275463989,-2.2374404415180016,-1.7013350204072675
3829196,1617.375,1,195143.0,216523,0.82,-0.54,9.94,-0.03,-0.01,-0.0,32.81,1.909706,-144.0842799823762,-3200.529652728215,9.988373240923668,0.03162277660168379,-2.239232680181525,-2.113179600355057
3869193,1617.375,1,194913.0,217583,0.82,-0.56,9.97,-0.04,-0.01,0.0,32.81,1.949703,-145.96990594240765,-3008.7532482462652,10.01932632465876,0.04123105625617661,-2.268665026301753,-1.9865509523766776
3909196,1617.375,1,195606.0,219321,0.81,-0.55,9.96,-0.04,-0.01,-0.0,32.81,1.989706,-153.00681232925032,-2261.887597775327,10.008006794562043,0.04123105625617661,-2.378502644569238,-1.4934006725176694
3949193,1617.375,1,196264.0,221421,0.8,-0.56,9.96,-0.03,-0.0,0.0,32.81,2.029703,-151.76341161184322,-1384.0084872511086,10.00775699145418,0.03,-2.3590946596047893,-0.9137431012203249
3989196,1617.375,1,197032.0,222710,0.79,-0.56,9.97,-0.04,-0.01,-0.0,32.81,2.069706,-163.72577980004593,-726.3689139835152,10.016915692966574,0.04123105625617661,-2.5458127937393606,-0.47950818976232096
4029885,1617.375,1,197108.0,222630,0.79,-0.57,9.94,-0.03,-0.02,-0.0,32.69,2.110395,-163.67420283719116,-407.91575519570046,9.987622339676244,0.03605551275463989,-2.5450077395797615,-0.26923574748415396
4068195,1754.0,1,196837.0,222086,0.8,-0.56,9.97,-0.03,-0.02,-0.0,32.69,2.148705,-38.1501984602485,-321.75877860441955,10.017709319001026,0.03605551275463989,-0.5857294831658926,-0.2123468852222397
4108192,1929.0,1,196669.0,221739,0.8,-0.55,9.95,-0.03,-0.01,-0.0,32.69,2.188702,131.62521261901634,-285.56765275841116,9.99724962177098,0.03162277660168379,2.0642598400111773,-0.18845013240181246
4148195,1992.375,1,196734.0,222596,0.81,-0.55,9.94,-0.03,-0.01,-0.0,32.69,2.228705,186.85062633170705,-209.59722428756882,9.988102922977916,0.03162277660168379,2.926261915437403,-0.1382873781798435
4188192,1992.375,1,197035.0,223658,0.82,-0.56,9.97,-0.03,-0.01,-0.0,32.69,2.268702,177.98325268187637,-147.1491243412996,10.01932632465876,0.03162277660168379,2.7878529117584074,-0.09705332497931501
4228195,1992.375,1,196989.0,222069,0.8,-0.55,9.97,-0.04,-0.01,-0.0,32.69,2.308705,170.0572045232655,-200.18186086502547,10.017155284810155,0.04123105625617661,2.664136863234162,-0.13207047812041012
4268192,1992.375,1,196247.0,220303,0.8,-0.55,9.96,-0.04,-0.01,-0.0,32.69,2.348702,161.20023110951686,-385.0841591359542,10.007202406267199,0.04123105625617661,2.525890194691925,-0.2541602007919316
4308195,1992.375,1,195991.0,220074,0.79,-0.54,9.98,-0.03,-0.01,-0.0,32.69,2.388705,152.27171409256863,-592.623020181236,10.025771790740103,0.03162277660168379,2.3865268168252034,-0.39119669101151094
4348218,1992.375,1,195952.0,219955,0.79,-0.55,9.95,-0.03,-0.01,-0.0,32.69,2.428728,143.31360084452405,-675.1138908053182,9.9964543714259,0.03162277660168379,2.246701477500618,-0.4456648485823247
4388196,1992.375,1,195969.0,220668,0.83,-0.55,9.98,-0.03,-0.01,-0.0,32.69,2.468706,136.05884028689076,-569.8281872089494,10.029546350658139,0.03162277660168379,2.133463418480643,-0.3761454187344498
4428193,1992.375,1,196408.0,221676,0.8,-0.56,9.97,-0.03,-0.01,-0.0,32.69,2.508703,124.99558687854008,-342.7197420380335,10.017709319001026,0.03162277660168379,1.9607793812260141,-0.22618726598802158
4468195,1992.375,1,196653.0,221750,0.83,-0.55,9.97,-0.03,-0.01,-0.0,32.69,2.548705,120.56516459336834,-122.21312406101536,10.019595800230666,0.03162277660168379,1.8916258349130595,-0.0805882545760471
4508192,1992.375,1,196450.0,221330,0.83,-0.55,9.96,-0.03,-0.01,-0.0,32.69,2.588702,110.23744804519865,5.537325248085417,10.00964534836275,0.03162277660168379,1.7304226405784506,0.003764493189460857
4548227,1992.375,1,196351.0,221527,0.82,-0.56,9.96,-0.03,-0.01,-0.0,32.69,2.628737,102.8704533408755,46.77668112672845,10.009375604901637,0.03162277660168379,1.6154327419455814,0.03099455776658308
4588192,1992.375,1,196625.0,222246,0.83,-0.56,9.98,-0.03,-0.01,-0.0,32.69,2.668702,102.29876936403156,68.3065504011669,10.030099700401786,0.03162277660168379,1.6065094448365522,0.04521058316729915
4628196,1992.375,1,196810.0,222399,0.81,-0.55,9.97,-0.03,-0.01,-0.0,32.69,2.708706,83.59496204291742,131.6214484321733,10.017958873942337,0.03162277660168379,1.3145655797701752,0.0870169772136007
4668193,1992.375,1,196731.0,222430,0.83,-0.54,9.98,-0.03,-0.02,-0.0,32.69,2.748703,98.33202068752918,253.14630196463656,10.029002941469306,0.03605551275463989,1.5445932841061252,0.16725900667575389
4708196,1981.0,1,196824.0,223020,0.84,-0.55,9.94,-0.03,-0.01,0.0,32.69,2.788706,58.10628654353544,408.62604471590123,9.990580563711,0.03162277660168379,0.9167181087736134,0.2699212172110024
4748195,1820.0,1,197164.0,223363,0.84,-0.57,9.95,-0.03,0.0,0.0,32.69,2.828705,-80.76765363082946,561.7952838283112,10.001649863897455,0.03,-1.2509365379748452,0.37105781799917253
4788175,1797.0,1,197202.0,222750,0.8,-0.55,9.93,-0.04,0.0,0.0,32.69,2.868685,-129.35933306353814,690.9264328719047,9.977344336044537,0.04,-2.009394025271411,0.4563222323542967
4828173,1792.0,1,197364.0,223004,0.79,-0.54,9.97,-0.03,-0.01,-0.0,32.69,2.908683,-118.7630567389465,796.4747641626175,10.015817490349951,0.03162277660168379,-1.8439989368596283,0.5260150734721675
4868195,1814.0,1,197434.0,222989,0.79,-0.55,9.96,-0.03,-0.02,-0.0,32.69,2.948705,-109.12317797219046,885.5129693844389,10.00640794691082,0.03605551275463989,-1.6935320603771553,0.5848063912889635
4908192,1839.0,1,197419.0,222874,0.83,-0.55,9.93,-0.03,-0.02,-0.0,32.69,2.988702,-77.60229720079089,945.3453409599683,9.979794587064404,0.03605551275463989,-1.2015291432860122,0.6243132969399265
4948195,1815.0,1,197305.0,223279,0.82,-0.56,9.96,-0.03,-0.01,-0.0,32.69,3.028705,-105.21359636517954,933.5564690261234,10.009375604901637,0.03162277660168379,-1.632508208626142,0.616529185447141
4988193,1811.0,1,197430.0,223337,0.84,-0.54,9.97,-0.03,-0.01,-0.0,32.69,3.068703,-103.48693557151509,806.3145983070197,10.019885228883613,0.03162277660168379,-1.6055571169523133,0.5325122486455315
5028195,1853.0,1,197256.0,222319,0.82,-0.54,9.97,-0.03,-0.01,0.0,32.69,3.108705,-63.76902753451596,572.529760199607,10.018228386296652,0.03162277660168379,-0.9856084944286645,0.37814571931489976
5068879,1805.0,1,196853.0,221205,0.82,-0.57,9.97,-0.03,-0.02,-0.0,32.69,3.149389,-103.99578675420295,322.812915441469,10.019890218959487,0.03605551275463989,-1.6134996699559356,0.2132593949802179
5109196,1770.0,1,196558.0,221009,0.84,-0.57,9.96,-0.03,-0.02,-0.0,32.69,3.189706,-137.50761687898418,185.87865758003005,10.01159827400201,0.03605551275463989,-2.1365789042587884,0.1228426412520561
5149192,1770.0,1,196529.0,221383,0.84,-0.58,9.95,-0.03,-0.01,-0.0,32.69,3.229702,-133.82665729883092,227.62208435643404,10.00222475252381,0.03162277660168379,-2.079123566501436,0.1504055403947295
5189195,1767.0,1,196695.0,222069,0.82,-0.5300000000000002,9.98,-0.03,-0.01,-0.0,32.69,3.269705,-125.45191887182936,377.5468536946892,10.027646782770123,0.03162277660168379,-1.9484040042581539,0.24939983998574375
5229192,1807.0,1,196918.0,222631,0.82,-0.55,9.97,-0.03,-0.01,0.0,32.69,3.309702,-89.38157168994684,464.59563709011803,10.018772379887668,0.03162277660168379,-1.3853894056915124,0.3068775561797787
5269196,1822.0,1,197070.0,222327,0.8,-0.55,9.97,-0.03,-0.01,-0.0,32.69,3.349706,-54.24035357078882,352.5959828718579,10.017155284810155,0.03162277660168379,-0.8368773907464999,0.2329249506649582
5309192,1875.0,1,196346.0,219485,0.83,-0.56,9.95,-0.03,-0.01,-0.0,32.69,3.389702,-7.838617291154919,63.1138540764766,10.000249996875077,0.03162277660168379,-0.11260227377742141,0.04178188130622258
5349196,1901.0,1,195748.0,218817,0.82,-0.55,9.96,-0.03,-0.01,0.0,32.69,3.429706,38.85560310339813,-232.38195775492957,10.008821109401447,0.03162277660168379,0.6162381673266861,-0.15333198182289065
5389193,1917.0,1,195685.0,219102,0.82,-0.54,9.97,-0.03,-0.01,-0.0,32.69,3.469703,54.897982593539865,-355.5396595527913,10.018228386296652,0.03162277660168379,0.8666403551168975,-0.2346521698247234
5429196,1955.0,1,195852.0,219888,0.84,-0.55,9.96,-0.03,-0.01,0.0,32.69,3.509706,104.00480355259779,-273.8161999320641,10.010479508994562,0.03162277660168379,1.63313858009198,-0.18069072848973164
5469193,1954.0,1,196111.0,220692,0.82,-0.55,9.97,-0.03,0.0,-0.0,32.69,3.549703,118.6737942321944,-123.47287112190176,10.018772379887668,0.03,1.8621038256219469,-0.08142005694269225
5509175,1913.0,1,196162.0,219535,0.82,-0.56,9.96,-0.03,-0.02,-0.0,32.69,3.589685,72.05028560757134,-83.86917656961526,10.009375604901637,0.03605551275463989,1.1343671099286408,-0.055270008350156614
5549193,1913.0,1,195604.0,218519,0.83,-0.56,9.97,-0.03,-0.03,-0.0,32.69,3.629703,104.84437095851511,-219.8990614650198,10.020149699480543,0.042426406871192854,1.6462432143121242,-0.14508961079546648
5589196,1943.0,1,195324.0,218392,0.85,-0.55,9.94,-0.03,-0.01,-0.0,32.69,3.669706,118.60557572530314,-431.5042106057394,9.991426324604511,0.03162277660168379,1.8610390170389153,-0.28481104322786294
5629192,1911.0,1,195260.0,218594,0.85,-0.55,9.96,-0.03,-0.0,-0.0,32.69,3.709702,119.83343787219238,-546.3281255641198,10.011323588816817,0.03,1.880204463665757,-0.3606284887892258
5669196,1992.375,1,195346.0,218893,0.85,-0.54,9.94,-0.03,-0.0,-0.0,32.69,3.749706,198.60112993999363,-468.4868524388889,9.990880842047911,0.03,3.1096730991062502,-0.30923042864000916
5709192,1992.375,1,195465.0,218997,0.84,-0.57,9.98,-0.03,-0.01,-0.0,32.69,3.789702,205.2396231637398,-259.37569757210235,10.031495401982697,0.03162277660168379,3.2132919686061294,-0.17115576356581338
5749196,1992.375,1,195439.0,219177,0.84,-0.56,9.96,-0.03,-0.01,-0.0,32.69,3.829706,235.56657854398674,-88.76488849643577,10.011033912638595,0.03162277660168379,3.686659150880837,-0.05850261344492602
5789192,1992.375,1,195525.0,219713,0.84,-0.56,9.96,-0.03,-0.01,-0.0,32.69,3.869702,211.11870677838937,-92.62955301763199,10.011033912638595,0.03162277660168379,3.3050573703792567,-0.061054424990934796
5829196,1712.0,1,195599.0,218892,0.82,-0.55,9.95,-0.04,-0.01,0.0,32.69,3.909706,-21.49038046014419,-242.23822770994002,9.998869936147784,0.04123105625617661,-0.32568982521013845,-0.1598400094495655
5869193,1617.375,1,195258.0,218226,0.81,-0.54,9.98,-0.04,-0.02,-0.0,32.69,3.949703,-141.04544967550618,-332.46351450412715,10.027367550858003,0.044721359549995794,-2.1918002056143298,-0.2194151491080254
5909196,1617.375,1,195185.0,218737,0.84,-0.56,9.94,-0.04,-0.02,-0.0,32.69,3.989706,-113.18886981137918,-124.96979884499189,9.99113607153861,0.044721359549995794,-1.7569926044965156,-0.08240846807808871
5949193,1658.0,1,195620.0,220678,0.84,-0.54,9.97,-0.03,-0.0,-0.0,32.69,4.029703,-67.50157547309706,440.0354573725389,10.019885228883613,0.03,-1.0438690642167625,0.2906606375231575
5989196,1703.0,1,196458.0,223089,0.85,-0.55,9.98,-0.03,0.0,-0.0,32.69,4.069706,-29.780364922744816,1134.5948701708064,10.031221261641077,0.03,-0.45508648032964133,0.7492734664626002
6029172,1617.375,1,197390.0,224349,0.82,-0.54,9.97,-0.03,-0.0,-0.0,32.69,4.109682,-85.15708342173716,1557.3071102700212,10.018228386296652,0.03,-1.3194502409121334,1.028387466916779
6069882,1617.375,1,197202.0,221908,0.81,-0.55,9.99,-0.03,-0.01,-0.0,32.35,4.150392,-107.22679149602924,1413.1512564781817,10.037863318455775,0.03162277660168379,-1.6639317555833217,0.9332023427971551
6108193,1617.375,1,196071.0,218853,0.83,-0.57,9.94,-0.03,-0.01,-0.0,32.35,4.188703,-80.52449959340152,741.5147815859997,9.99086582834541,0.03162277660168379,-1.2471411968298862,0.48972537294622276
6148196,1617.375,1,195074.0,217128,0.85,-0.56,9.96,-0.03,-0.01,-0.0,32.35,4.228706,-90.56688486476783,-101.97673568376264,10.011877945720274,0.03162277660168379,-1.4038907142021437,-0.06722630576331873
6188213,1621.0,1,194690.0,217047,0.81,-0.55,9.94,-0.03,-0.01,-0.0,32.35,4.268723,-82.02811562410048,-701.7221163820527,9.988102922977916,0.03162277660168379,-1.270610828870122,-0.4632340779095059
6228196,1617.375,1,194783.0,217362,0.83,-0.55,9.97,-0.03,-0.01,-0.0,32.35,4.308706,-78.05072371329027,-870.4018302902624,10.019595800230666,0.03162277660168379,-1.2085285400938226,-0.5746121391015273
6268193,1617.375,1,194902.0,218015,0.83,-0.54,9.98,-0.03,-0.01,-0.0,32.35,4.348703,-88.64931046702657,-748.5104714526939,10.029002941469306,0.03162277660168379,-1.3739596915168883,-0.49412810869359686
6308196,1617.375,1,195131.0,218436,0.84,-0.55,9.97,-0.03,-0.01,-0.0,32.35,4.388706,-78.59837875253933,-659.8615698850926,10.020429132527209,0.03162277660168379,-1.217076774479287,-0.43559384541654006
6348193,1617.375,1,194904.0,216907,0.83,-0.58,9.97,-0.04,-0.0,-0.0,32.35,4.428703,-84.98667674089101,-854.8646334335019,10.021287342452565,0.04,-1.3167903982295586,-0.5643530343036235
6388234,1617.375,1,194284.0,215360,0.83,-0.55,9.97,-0.03,-0.01,-0.0,32.35,4.468744,-91.69163570559725,-1335.1926767130674,10.019595800230666,0.03162277660168379,-1.421446717751096,-0.8815103554604955
6428193,1617.375,1,193948.0,214836,0.82,-0.56,9.97,-0.03,-0.01,-0.0,32.35,4.508703,-79.27276301680457,-1868.2594102289113,10.01932632465876,0.03162277660168379,-1.227603099161176,-1.2334906730063684
6468196,1617.375,1,193848.0,214729,0.81,-0.55,9.96,-0.03,-0.02,-0.0,32.35,4.548706,-108.16301990556047,-2156.1235905162434,10.008006794562043,0.03605551275463989,-1.6785451514428347,-1.4235654220332763
6508192,1617.375,1,193936.0,215806,0.84,-0.54,9.97,-0.03,-0.01,-0.0,32.35,4.588702,-82.17440500014779,-2029.6822708534617,10.019885228883613,0.03162277660168379,-1.2728942295236987,-1.340077083617759
6548196,1732.0,1,194556.0,217739,0.83,-0.55,9.98,-0.04,-0.01,-0.0,32.35,4.628706,-1.938558730550673,-1543.288474546715,10.029546350658139,0.04123105625617661,-0.020509478405416667,-1.0189145872315484
6588192,1717.0,1,195165.0,219670,0.83,-0.55,9.95,-0.04,-0.01,-0.0,32.35,4.668702,-0.5234487584999972,-921.3115444038538,9.999694995348607,0.04123105625617661,0.0015786808469551539,-0.6082274750683493
6628196,1779.0,1,196006.0,221732,0.84,-0.55,9.95,-0.04,-0.01,-0.0,32.35,4.708706,45.67784919003179,-401.70777090776426,10.000529985955744,0.04123105625617661,0.7227251973078715,-0.26513665792631225
6668193,1835.0,1,196527.0,222317,0.81,-0.57,9.97,-0.03,-0.01,-0.0,32.35,4.748703,92.97996764351174,-85.61145458287473,10.019076803777882,0.03162277660168379,1.4610541936479562,-0.05642042260376345
6708196,1792.0,1,196585.0,222107,0.82,-0.56,9.96,-0.03,-0.01,-0.0,32.35,4.788706,55.368760721251235,99.35851456952308,10.009375604901637,0.03162277660168379,0.8739886336696613,0.0657139826878701
6748193,1792.0,1,196503.0,222378,0.83,-0.55,9.96,-0.03,-0.01,-0.0,32.35,4.828703,34.90950880793062,295.6986345426207,10.00964534836275,0.03162277660168379,0.5546443965635182,0.19535602078566042
6788196,1712.0,1,196836.0,224429,0.85,-0.56,9.96,-0.03,-0.01,-0.0,32.35,4.868706,-41.953772780361966,564.7029020961794,10.011877945720274,0.03162277660168379,-0.6450986890723078,0.372977698451056
6828192,1685.0,1,197919.0,227269,0.83,-0.55,9.98,-0.04,-0.01,-0.0,32.35,4.908702,-73.73093983087527,831.3939350646444,10.029546350658139,0.04123105625617661,-1.1411019257563224,0.5490719631442534
6868196,1779.0,1,198371.0,225615,0.8,-0.57,9.96,-0.03,-0.01,-0.0,32.35,4.948706,-0.3370015082113558,981.8379802643062,10.0083215376006,0.03162277660168379,0.004488897464660438,0.6484091370343003
6908192,1712.0,1,197540.0,224017,0.83,-0.55,9.98,-0.03,-0.01,-0.0,32.35,4.988702,-44.56367688546103,1010.2939629419852,10.029546350658139,0.03162277660168379,-0.6858361431539208,0.6671984277351269
6948196,1709.0,1,197666.0,225090,0.84,-0.55,9.98,-0.03,-0.0,0.0,32.35,5.028706,-91.34042148950428,1055.496725862505,10.030378856254634,0.03,-1.415964687597979,0.697045502869187
6988192,1755.0,1,198408.0,226771,0.81,-0.55,9.99,-0.03,-0.0,-0.0,32.35,5.068702,-4.261133141928596,1279.4422431614632,10.037863318455775,0.03,-0.056762062647796784,0.8449151959786694
7028196,1855.0,1,199060.0,227540,0.8,-0.58,9.99,-0.03,-0.01,0.0,32.35,5.108706,44.55724811859023,1700.9297261567995,10.038749922176565,0.03162277660168379,0.705233966652129,1.1232204976954565
7068193,1851.0,1,198958.0,227255,0.83,-0.55,9.95,-0.03,-0.02,-0.0,32.35,5.148703,82.26141258355744,2135.790870221535,9.999694995348607,0.03605551275463989,1.293750481713469,1.410356336330035
7108882,1992.375,1,199028.0,228722,0.83,-0.55,9.96,-0.03,-0.0,-0.0,32.39,5.189392,183.07585835281944,2304.6256520912743,10.00964534836275,0.03,2.8673423417610207,1.521836787836268
7149192,1992.375,1,199712.0,229230,0.8,-0.56,9.98,-0.03,0.0,0.0,32.39,5.229702,210.50071472199804,2044.4910367942487,10.027661741403127,0.03,3.295411260021847,1.3500716808804816
7189175,1992.375,1,199266.0,226685,0.82,-0.54,9.96,-0.03,-0.02,-0.0,32.39,5.269685,190.46252618541598,1473.7945350867114,10.008276574915383,0.03605551275463989,2.98263931418948,0.973244684814768
7229193,1992.375,1,197914.0,223864,0.83,-0.55,9.94,-0.03,-0.03,-0.0,32.39,5.309703,201.29132626910635,954.8712998951759,9.989744741483637,0.042426406871192854,3.151663817927543,0.630603222459812
7269196,1992.375,1,197437.0,224462,0.88,-0.55,9.93,-0.03,-0.02,-0.0,32.39,5.349706,196.36532317609584,827.7200379171239,9.984077323418523,0.03605551275463989,3.0747748531508923,0.5466461139900842
7309192,1992.375,1,197905.0,226387,0.83,-0.55,9.92,-0.03,0.01,0.0,32.39,5.389702,201.99945362278663,1103.0755705929657,9.969844532388658,0.03162277660168379,3.1627168315222285,0.7284614885680875
7349175,1992.375,1,199035.0,228783,0.8,-0.54,9.98,-0.03,0.02,0.0,32.39,5.429685,198.24017396342595,1398.070766857215,10.026564715793741,0.03605551275463989,3.1040390118261154,0.9232447986628102
7389172,1897.0,1,199279.0,225533,0.78,-0.56,9.97,-0.03,-0.0,-0.0,32.39,5.469682,115.30602255732921,1216.331101843227,10.016131987948242,0.03,1.8095369731869722,0.8032433410959543
7429196,1759.0,1,197380.0,220130,0.83,-0.56,9.95,-0.03,-0.02,-0.0,32.39,5.509706,-32.76301324844589,352.34555309365766,10.000249996875077,0.03605551275463989,-0.5016420219575722,0.2327595935955487
7467195,1617.375,1,195699.0,216738,0.8,-0.55,9.95,-0.03,-0.02,-0.0,32.39,5.547705,-154.28813483639746,-931.7943851398765,9.99724962177098,0.03605551275463989,-2.398502542916715,-0.6151492230954909
7507196,1617.375,1,194698.0,215704,0.83,-0.54,9.98,-0.03,-0.02,-0.0,32.39,5.587706,-166.57156073445705,-2100.6719071700004,10.029002941469306,0.03605551275463989,-2.5902320005276125,-1.3869510548527668
7547192,1617.375,1,194594.0,216015,0.84,-0.56,9.96,-0.03,-0.01,-0.0,32.39,5.627702,-146.86443412071364,-2721.5547914600256,10.011033912638595,0.03162277660168379,-2.28262753186556,-1.7969157760234702
7587195,1617.375,1,194615.0,216088,0.83,-0.56,9.95,-0.03,-0.01,-0.0,32.39,5.667705,-153.2416830998866,-2708.4591034331374,10.000249996875077,0.03162277660168379,-2.3821686939138154,-1.7882687828040953
7627192,1617.375,1,194683.0,217181,0.85,-0.54,9.96,-0.03,-0.01,0.0,32.39,5.707702,-141.44839869494314,-2285.904462946551,10.01077919045266,0.03162277660168379,-2.1980897536266393,-1.5092588442960302
7667195,1617.375,1,195203.0,218383,0.84,-0.54,9.97,-0.04,-0.0,0.0,32.39,5.747705,-137.54776507315145,-1770.7096628550103,10.019885228883613,0.04,-2.137205569128641,-1.1690792421321796
7707195,1617.375,1,195556.0,219051,0.82,-0.56,9.97,-0.03,-0.01,-0.0,32.39,5.787705,-136.35228566465955,-1373.0213158283116,10.01932632465876,0.03162277660168379,-2.1185455779765503,-0.9064883470907238
7747195,1617.375,1,195729.0,219155,0.84,-0.54,9.98,-0.03,-0.01,-0.0,32.39,5.827705,-122.67004711487407,-1142.2154445421531,10.02983549217035,0.03162277660168379,-1.9049823426198995,-0.7540888091736961
7787193,1617.375,1,195663.0,218951,0.8,-0.55,9.95,-0.03,-0.02,-0.0,32.39,5.867703,-129.84188812644697,-1041.4744844443421,9.99724962177098,0.03605551275463989,-2.01692612757306,-0.6875702423683082
7827234,1625.0,1,195615.0,219079,0.82,-0.5300000000000002,9.98,-0.03,-0.03,-0.0,32.39,5.907744,-105.05519754963527,-1042.8459946599896,10.027646782770123,0.042426406871192854,-1.6300357942327512,-0.6884758411814944
7867192,1694.0,1,195680.0,219972,0.83,-0.55,9.94,-0.03,-0.01,-0.0,32.39,5.947702,-42.26957594483346,-1143.350460268663,9.989744741483637,0.03162277660168379,-0.6500279954350784,-0.7548382522935126
7907195,1759.0,1,195828.0,218880,0.83,-0.55,9.96,-0.04,-0.0,0.0,32.39,5.987705,29.86312913773461,-1295.202577670418,10.00964534836275,0.04,0.4758764986582454,-0.855105166626283
7947195,1847.0,1,195338.0,218163,0.85,-0.54,9.98,-0.03,0.0,-0.0,32.39,6.027705,126.7139301418363,-1342.6580768277947,10.030677943190081,0.03,1.9876006462863722,-0.8864397080870567
7987175,1929.0,1,195450.0,218638,0.81,-0.56,9.96,-0.03,-0.0,-0.0,32.39,6.067685,193.2944089681491,-1067.9074596529458,10.008561335177,0.03,3.0268415875989554,-0.7050237550762626
8027218,1940.0,1,195854.0,220983,0.82,-0.54,9.97,-0.03,-0.02,-0.0,32.39,6.107728,233.74860385145652,-342.59786999935545,10.018228386296652,0.03605551275463989,3.6582827594211698,-0.22610679471458284
8067196,1992.375,1,197369.0,225722,0.83,-0.56,9.96,-0.04,-0.0,0.0,32.39,6.147706,251.43854516962435,741.9695403344215,10.010199798205829,0.04,3.9344013994690332,0.49002564703689905
8107192,1936.0,1,198996.0,228715,0.83,-0.56,9.97,-0.03,-0.01,-0.0,32.39,6.187702,231.5247956974127,1894.8231348999875,10.020149699480543,0.03162277660168379,3.623571797288621,1.2512469891055618
8147882,1921.0,1,199749.0,228906,0.82,-0.57,9.94,-0.03,-0.01,-0.0,32.53,6.228392,182.88310107260958,2785.4857709542166,9.9900400399598,0.03162277660168379,2.8643336331896583,1.8393454348610294
8188193,1744.0,1,199316.0,227138,0.8,-0.55,9.97,-0.03,-0.01,-0.0,32.53,6.268703,27.02194310479265,3201.2056045747627,10.017155284810155,0.03162277660168379,0.431529012737915,2.113842397150889
8228200,1617.375,1,199115.0,228373,0.83,-0.57,9.91,-0.04,-0.01,-0.0,32.53,6.30871,-114.5881346777578,3082.373204650772,9.961019024176192,0.04123105625617661,-1.7788334407673754,2.0353781763879155
8268193,1617.375,1,199613.0,227953,0.81,-0.58,9.98,-0.03,0.0,0.0,32.53,6.348703,-117.09240881081517,2463.137795061947,10.029601188482022,0.03,-1.817922138434037,1.6265012714923952
8308175,1617.375,1,198412.0,222652,0.78,-0.5300000000000002,9.97,-0.03,-0.02,-0.0,32.53,6.388685,-116.08335041904347,1428.0230682681597,10.014499488242036,0.03605551275463989,-1.8021719544253008,0.9430220983872183
8348192,1617.375,1,196465.0,218560,0.82,-0.5300000000000002,9.96,-0.03,-0.03,-0.0,32.53,6.428702,-130.5055674619991,130.39363354219185,10.007742003069424,0.042426406871192854,-2.0272853612338473,0.086206259440963
8388196,1617.375,1,195278.0,216803,0.84,-0.55,9.96,-0.03,-0.01,-0.0,32.53,6.468706,-129.19714243277693,-1180.6638562098506,10.010479508994562,0.03162277660168379,-2.0068624252175264,-0.7794760323805788
8428193,1617.375,1,194729.0,215594,0.85,-0.55,9.98,-0.04,-0.0,-0.0,32.53,6.508703,-140.60611318736355,-2185.261769163043,10.031221261641077,0.04,-2.1849426931190923,-1.4428051620657576
8468196,1617.375,1,194362.0,215520,0.81,-0.56,9.96,-0.04,-0.01,0.0,32.53,6.548706,-148.22288874248986,-2573.942461102406,10.008561335177,0.04123105625617661,-2.303831369458077,-1.699448364072473
8508193,1617.375,1,194751.0,217584,0.82,-0.54,9.95,-0.03,-0.01,-0.0,32.53,6.588703,-153.8969411723114,-2160.1071928204956,9.998324859695247,0.03162277660168379,-2.392396481817922,-1.426195767383809
8548196,1617.375,1,195736.0,220672,0.83,-0.56,9.96,-0.04,-0.01,-0.0,32.53,6.628706,-165.8121819176034,-993.4903360038654,10.010199798205829,0.04123105625617661,-2.5783790134306206,-0.6558866374022795
8588192,1617.375,1,197240.0,225707,0.84,-0.56,9.94,-0.03,-0.01,0.0,32.53,6.668702,-174.1538622743565,580.6971991284225,9.99113607153861,0.03162277660168379,-2.7085825790837825,0.38353862336790717
8628196,1617.375,1,199131.0,229272,0.83,-0.56,9.97,-0.03,-0.0,-0.0,32.53,6.708706,-179.5125291956756,1992.6538366323412,10.020149699480543,0.03,-2.7922249041866083,1.3158439322206887
8668192,1617.375,1,199966.0,230026,0.8,-0.55,9.95,-0.03,-0.02,-0.0,32.53,6.748702,-198.9530241450455,2672.4116608742065,9.99724962177098,0.03605551275463989,-3.0956675742741844,1.7646833734908163
8708196,1617.375,1,199611.0,227954,0.82,-0.57,10.0,-0.03,-0.02,-0.0,32.53,6.788706,-192.29006407390034,2332.638792590874,10.04974129020245,0.03605551275463989,-2.9916668068070615,1.5403336728762969
8748192,1735.0,1,198386.0,223906,0.85,-0.56,9.95,-0.03,-0.02,-0.0,32.53,6.828702,-104.27933098798063,1134.881992565869,10.001929813790936,0.03605551275463989,-1.6179254533328256,0.7494630514159176
8788196,1860.0,1,196658.0,220343,0.83,-0.54,9.95,-0.03,0.0,-0.0,32.53,6.868706,34.261889672160095,-382.0175334055399,9.999149963871929,0.03,0.5445358432437691,-0.2521353288002647
8828173,1992.375,1,195878.0,220033,0.81,-0.5300000000000002,9.95,-0.03,0.03,0.0,32.53,6.908683,136.93526530764711,-1574.7994550704514,9.996974542330294,0.042426406871192854,2.1471433555975983,-1.0397210721115449
8867176,1992.375,1,195665.0,220289,0.81,-0.54,9.99,-0.03,0.01,0.0,32.53,6.947686,146.92542900940865,-2002.3026568695059,10.037320359538198,0.03162277660168379,2.3030777572766437,-1.3219985118021913
8907173,1992.375,1,195898.0,222953,0.82,-0.57,9.94,-0.03,0.0,0.0,32.53,6.987683,127.30257260398766,-1594.6343514462724,9.9900400399598,0.03,1.9967886448896652,-1.0528179185022482
8947176,1992.375,1,197025.0,226195,0.82,-0.5300000000000002,9.99,-0.04,0.0,0.0,32.53,7.027686,128.13777238767256,-621.2466415543315,10.037599314577166,0.04,2.009825105796548,-0.410096672396141
8987176,1992.375,1,198535.0,229046,0.79,-0.56,9.98,-0.04,-0.01,-0.0,32.53,7.067686,120.50166411616127,482.19169855565195,10.026868903102304,0.04123105625617661,1.8906346690808247,0.3184961151946065
9027209,1992.375,1,199420.0,229704,0.79,-0.56,9.98,-0.03,-0.03,-0.0,32.53,7.107719,115.41829723530152,1305.5089737831865,10.026868903102304,0.042426406871192854,1.8112894454442818,0.862126879891307
9067196,1992.375,1,199241.0,228965,0.85,-0.55,9.96,-0.03,-0.02,-0.0,32.53,7.147706,114.5269526807139,1575.5569200252583,10.011323588816817,0.03605551275463989,1.7973766324054938,1.0404376914551468
9107196,1992.375,1,198795.0,228314,0.81,-0.5300000000000002,9.94,-0.03,-0.01,-0.0,32.53,7.187706,110.13811940426993,1179.3171899771057,9.987021578028155,0.03162277660168379,1.7288722403392551,0.7788033082949483
9147883,1992.375,1,198361.0,227345,0.81,-0.54,9.96,-0.03,0.01,0.0,32.41,7.228393,110.94838411249418,171.80223451352614,10.007462215766793,0.03162277660168379,1.741519494803796,0.11354807539502006
9188176,1992.375,1,197787.0,224759,0.78,-0.54,9.98,-0.03,-0.01,-0.0,32.41,7.268686,110.60177470027519,-1181.1347339188883,10.024988778048582,0.03162277660168379,1.7361093400831915,-0.7797869497106835
9228193,1992.375,1,196301.0,220079,0.8,-0.55,9.98,-0.03,-0.03,-0.0,32.41,7.308703,112.16607696438483,-2394.9827746266874,10.027108257119796,0.042426406871192854,1.760526211005547,-1.581282507317202
9268196,1992.375,1,195088.0,218874,0.81,-0.5300000000000002,9.95,-0.03,-0.04,-0.0,32.41,7.348706,115.30680859837115,-2923.239022634178,9.996974542330294,0.05,1.8095492423392332,-1.930086494189404
9308193,1992.375,1,195341.0,222416,0.82,-0.54,9.93,-0.04,-0.02,-0.0,32.41,7.388703,118.75243238560631,-2474.5031678153164,9.978421718889216,0.044721359549995794,1.8633312723152649,-1.6337892789577821
9348196,1992.375,1,197258.0,227519,0.81,-0.54,9.97,-0.04,-0.01,-0.0,32.41,7.428706,124.21200182417232,-1264.0850796676048,10.017414836174051,0.04123105625617661,1.948548563967641,-0.834558495563123
9388193,1992.375,1,199051.0,231422,0.81,-0.56,9.97,-0.04,-0.01,-0.0,32.41,7.468703,129.59471015352617,64.42479639979078,10.018512863693893,0.04123105625617661,2.0325661464425515,0.04264748755443303
9428196,1992.375,1,200389.0,232345,0.82,-0.56,9.97,-0.04,-0.02,-0.0,32.41,7.508706,137.5978661143411,856.3471747131649,10.01932632465876,0.044721359549995794,2.157485754724217,0.565548416584437
9468199,1992.375,1,199600.0,229252,0.82,-0.5300000000000002,10.0,-0.04,-0.03,-0.0,32.41,7.548709,143.45141726895224,886.604476922609,10.047551940647034,0.05,2.248852625602522,0.5855271062496494
9508195,1992.375,1,198649.0,228615,0.82,-0.55,9.92,-0.03,-0.04,-0.0,32.41,7.588705,154.80705504408303,457.4608314653057,9.969017002693898,0.05,2.426100430044081,0.30216649283338276
9548192,1992.375,1,198683.0,229899,0.84,-0.56,9.95,-0.03,-0.03,-0.0,32.41,7.628702,159.65842067007952,84.87929202357967,10.001084941145134,0.042426406871192854,2.5018243940150278,0.05615345109002457
9588196,1899.0,1,199047.0,231519,0.85,-0.56,9.94,-0.04,-0.01,0.0,32.41,7.668706,80.95069883057492,66.48918782884891,9.99198178541174,0.04123105625617661,1.2732918214807256,0.04401059109298327
9628195,1735.0,1,199547.0,233104,0.84,-0.54,9.97,-0.04,-0.01,-0.0,32.41,7.708705,-79.59664468947541,301.4477523969498,10.019885228883613,0.04123105625617661,-1.2326585012897546,0.1991521239763977
9668196,1617.375,1,199736.0,233218,0.86,-0.56,9.98,-0.04,-0.01,-0.0,32.41,7.748706,-180.73683332213733,475.1319558153303,10.032626774678704,0.04123105625617661,-2.811334814407532,0.31383461535735074
9708193,1617.375,1,199359.0,232334,0.84,-0.5300000000000002,9.96,-0.03,-0.02,-0.0,32.41,7.788703,-177.59030673939722,397.85516511473855,10.009400581453418,0.03605551275463989,-2.7622213309157377,0.2628092790916207
9748196,1617.375,1,199071.0,232062,0.86,-0.56,9.98,-0.04,-0.03,-0.0,32.41,7.828706,-162.19022800096204,186.13961641274298,10.032626774678704,0.05,-2.521844682886972,0.12301495058413331
9788192,1617.375,1,199088.0,232724,0.89,-0.55,9.95,-0.04,-0.02,-0.0,32.41,7.868702,-157.4977490327318,146.9814253946932,10.00485382202059,0.044721359549995794,-2.4486007479378915,0.09715906492766052
9828196,1617.375,1,199366.0,234413,0.85,-0.56,9.96,-0.04,-0.01,-0.0,32.41,7.908706,-145.7124715060663,487.7436306223427,10.011877945720274,0.04123105625617661,-2.264646785359876,0.3221620179586717
9868192,1617.375,1,200039.0,236318,0.85,-0.5300000000000002,9.96,-0.04,-0.02,-0.0,32.41,7.948702,-139.0581206519171,1107.6988831874323,10.010244752252564,0.044721359549995794,-2.1607803973825463,0.7315142302471287
9908196,1617.375,1,200860.0,237707,0.91,-0.58,9.94,-0.04,-0.01,-0.0,32.41,7.988706,-131.29990490304192,1646.516362100335,9.998404872778456,0.04123105625617661,-2.039684010274847,1.0872917256390697
9948192,1617.375,1,201104.0,236241,0.84,-0.57,9.98,-0.04,-0.01,-0.0,32.41,8.028702,-123.99667788263991,1751.320808666598,10.031495401982697,0.04123105625617661,-1.9256894482486193,1.1564933847621413
9988196,1617.375,1,200186.0,233674,0.85,-0.57,9.99,-0.04,-0.02,-0.0,32.41,8.068706,-119.59265764136858,1347.2619606094886,10.042285596416784,0.044721359549995794,-1.8569480059853698,0.8896960914695298
10028192,1617.375,1,199628.0,232700,0.85,-0.59,9.99,-0.04,-0.03,-0.0,32.41,8.108702,-113.04670445088246,694.5741977985838,10.043440645515858,0.05,-1.7547735747498228,0.4587308265818092
10068195,1617.375,1,199092.0,231518,0.87,-0.57,9.96,-0.03,-0.02,-0.0,32.41,8.148705,-111.25970581074868,188.7166860800524,10.014159974755746,0.03605551275463989,-1.72688068209368,0.12471657205627953
10108193,1617.375,1,198580.0,231957,0.9,-0.57,9.94,-0.03,-0.01,-0.0,32.41,8.188703,-107.12758039649664,66.43815416100567,9.996924527073313,0.03162277660168379,-1.6623831900234993,0.043976893911216695
10148883,1617.375,1,199238.0,234002,0.87,-0.56,9.95,-0.03,0.01,0.0,32.21,8.229393,-105.9337646388465,251.42027059805892,10.003649334118023,0.03162277660168379,-1.6437491664537587,0.16611931997181126
10187176,1617.375,1,199752.0,234428,0.84,-0.58,9.98,-0.03,-0.0,-0.0,32.21,8.267686,-107.42911501850729,452.92508419991424,10.032068580307852,0.03,-1.6670897816542707,0.29917156994211425
10227196,1617.375,1,199526.0,232657,0.87,-0.56,9.98,-0.03,-0.02,-0.0,32.21,8.307706,-103.29932821189824,418.04036067232477,10.033488924596469,0.03605551275463989,-1.6026287924277332,0.2761374256357223
10267196,1617.375,1,198659.0,230225,0.88,-0.57,9.94,-0.03,-0.03,-0.0,32.21,8.347706,-113.47220009276143,114.54837539518064,9.995143820876216,0.042426406871192854,-1.761415048334659,0.07574374388048756
10307196,1617.375,1,197971.0,228952,0.89,-0.57,9.93,-0.03,-0.03,-0.0,32.21,8.387706,-104.9843847484458,-297.5200135513318,9.986085319082749,0.042426406871192854,-1.6289304918458896,-0.1963421944698537
10347196,1712.0,1,198111.0,229277,0.9,-0.56,9.95,-0.03,-0.0,-0.0,32.21,8.427706,-27.723320097431806,-639.9845699269442,10.006303013600975,0.03,-0.4229784925490605,-0.4224691983184475
10387196,1831.0,1,198200.0,229534,0.87,-0.57,9.95,-0.03,-0.01,-0.0,32.21,8.467706,100.03551996803324,-849.1695438156249,10.004214112062975,0.03162277660168379,1.5711828525052145,-0.56059260558782
10427193,1961.0,1,198192.0,228693,0.9,-0.57,9.95,-0.03,0.0,-0.0,32.21,8.507703,212.21318794601564,-962.0306971715439,10.006867641774821,0.03,3.3221409008516045,-0.6351140530899068
10467176,1992.375,1,197443.0,225851,0.87,-0.57,9.94,-0.03,0.01,0.0,32.21,8.547686,245.69747369651697,-1022.9005723108615,9.994268357413663,0.03162277660168379,3.8447902007058157,-0.6753060152467009
10507176,1992.375,1,197013.0,225837,0.85,-0.54,9.93,-0.03,0.01,-0.0,32.21,8.587686,233.79127269431456,-1038.052868038907,9.980931820226004,0.03162277660168379,3.6589487685757773,-0.6853109724623397
10547176,1992.375,1,197977.0,227375,0.87,-0.5300000000000002,9.97,-0.04,0.03,0.0,32.21,8.627686,226.2772326465199,-1007.6958551455706,10.021910995413998,0.05,3.5416636695499584,-0.6652664445146524
10587176,1962.0,1,197889.0,226152,0.84,-0.57,9.98,-0.03,-0.02,-0.0,32.21,8.667686,190.04374791253892,-958.5563104481397,10.031495401982697,0.03605551275463989,2.9761026906298724,-0.6328199393039737
10627196,1898.0,1,197567.0,226299,0.88,-0.55,9.91,-0.03,-0.02,-0.0,32.21,8.707706,112.93063432049841,-917.2926492317628,9.964185867395289,0.03605551275463989,1.772460028852182,-0.6055738260786133
10667196,1847.0,1,197943.0,226657,0.84,-0.55,9.99,-0.03,-0.01,-0.0,32.21,8.747706,56.580726889432405,-859.0568677155297,10.04032867987896,0.03162277660168379,0.89290596324828,-0.5671211379218752
10707196,1835.0,1,197918.0,227167,0.85,-0.57,9.96,-0.03,-0.02,-0.0,32.21,8.787706,32.859450012702816,-706.2138179426639,10.012442259508916,0.03605551275463989,0.5226454522835214,-0.4661999177232151
10747192,1787.0,1,198229.0,228068,0.89,-0.57,9.98,-0.03,-0.01,0.0,32.21,8.827702,-24.967476259767395,-400.4936607272397,10.035805896887405,0.03162277660168379,-0.3799630953267596,-0.264334989279578
10787195,1747.0,1,198620.0,228786,0.84,-0.55,9.98,-0.03,-0.01,-0.0,32.21,8.867705,-72.05143628744851,7.027713229694749,10.030378856254634,0.03162277660168379,-1.114886901860777,0.004748586178294521
10827196,1757.0,1,198933.0,229483,0.86,-0.55,9.96,-0.03,-0.01,0.0,32.21,8.907706,-75.85109196838775,336.3948313562629,10.012177585320789,0.03162277660168379,-1.1741949425377454,0.2222274411477967
10867196,1723.0,1,199150.0,229708,0.87,-0.57,9.95,-0.03,-0.01,-0.0,32.21,8.947706,-113.91653212435638,375.97440654765205,10.004214112062975,0.03162277660168379,-1.7683505352357771,0.24836156389132716
10907193,1728.0,1,199013.0,229273,0.86,-0.57,9.98,-0.03,-0.02,-0.0,32.21,8.987703,-124.50728672131687,48.29732080442596,10.033189921455689,0.03605551275463989,-1.933659436141519,0.031998625743398436
10947196,1775.0,1,198596.0,226993,0.87,-0.5300000000000002,9.96,-0.03,-0.01,-0.0,32.21,9.027706,-77.52144961491985,-482.4710872436101,10.011962844517553,0.03162277660168379,-1.2002672100178142,-0.31846412321843015
10987193,1837.0,1,197681.0,225406,0.86,-0.54,9.96,-0.03,-0.01,-0.0,32.21,9.067703,-36.778383322035516,-873.9858331880478,10.01163323339404,0.03162277660168379,-0.5643171040320272,-0.5769786316975435
11027199,1873.0,1,197757.0,226780,0.84,-0.56,9.99,-0.04,-0.02,-0.0,32.21,9.107709,10.41611425523133,-827.4206911695082,10.040881435411933,0.044721359549995794,0.17233206028113038,-0.5462319869648028
11067193,1925.0,1,198580.0,229235,0.87,-0.56,9.94,-0.04,-0.02,-0.0,32.21,9.147703,29.094742216501224,-308.5791995333794,9.993703017400506,0.044721359549995794,0.46388290592068043,-0.20364449932029188
11107196,1904.0,1,199493.0,231668,0.87,-0.56,9.96,-0.04,-0.01,-0.0,32.21,9.187706,33.94461987751974,416.7062015482648,10.013595757768535,0.04123105625617661,0.5395836445536363,0.27525648949280057
11147192,1945.0,1,200271.0,233239,0.86,-0.55,9.97,-0.04,-0.02,-0.0,32.21,9.227702,32.501898168554476,975.3245782009785,10.022125523061463,0.044721359549995794,0.5170644994031718,0.6441083822086647
11187882,1845.0,1,200296.0,233286,0.87,-0.55,9.98,-0.03,-0.02,-0.0,32.17,9.268392,-35.530016217380386,1155.3098167033443,10.0329357617798,0.03605551275463989,-0.5448315997548674,0.7629514039515501
11228193,1856.0,1,200053.0,232711,0.91,-0.57,9.96,-0.03,-0.02,-0.0,32.17,9.308703,-63.31330297887575,1029.9245725122664,10.017714310160777,0.03605551275463989,-0.9784951839729333,0.6801603849456143
11268196,1887.0,1,199740.0,232472,0.9,-0.57,9.97,-0.03,-0.03,-0.0,32.17,9.348706,-6.9936843432366125,842.8133267921529,10.026754210610731,0.042426406871192854,-0.09941388992047605,0.5566121093843296
11308229,1950.0,1,199800.0,233364,0.9,-0.55,9.92,-0.03,-0.0,-0.0,32.17,9.388739,30.841417726149164,766.7888481534632,9.975915998042485,0.03,0.49114640316210884,0.5064136662062765
11348195,1941.0,1,200123.0,233838,0.9,-0.56,9.98,-0.03,-0.0,-0.0,32.17,9.428705,35.682490700214764,754.1097426968975,10.036134714121767,0.03,0.5667097112550893,0.49804173960833403
11388192,1939.0,1,200036.0,233356,0.88,-0.56,9.95,-0.03,-0.01,-0.0,32.17,9.468702,22.170775735114823,608.3551544666035,10.004523976681748,0.03162277660168379,0.3558081433088948,0.40180098207559634
11428196,1904.0,1,199764.0,232457,0.88,-0.55,9.99,-0.03,-0.01,-0.0,32.17,9.508706,-7.053096460740488,206.94782934452633,10.043754278157147,0.03162277660168379,-0.10034124139058442,0.13675447123848972
11468193,1873.0,1,199120.0,229646,0.89,-0.57,9.94,-0.04,-0.01,-0.0,32.17,9.548703,-40.69947555216571,-333.3345419943113,9.996029211641991,0.04123105625617661,-0.6255206227217053,-0.21999028260128264
11508233,1875.0,1,198373.0,228892,0.89,-0.57,9.93,-0.04,-0.01,-0.0,32.17,9.588743,-36.67437750549781,-708.6266750694924,9.986085319082749,0.04123105625617661,-0.5626936987248561,-0.4677931107782244
11548195,1938.0,1,198687.0,230364,0.89,-0.56,9.92,-0.04,-0.01,-0.0,32.17,9.628705,29.311448692387234,-669.0137358788112,9.975575171387362,0.04123105625617661,0.4672654325404696,-0.4416369580141973
11588196,1992.375,1,199380.0,231809,0.88,-0.57,9.96,-0.04,0.0,0.0,32.17,9.668706,83.81794075803161,-250.72514450448782,10.015033699394127,0.04,1.3180460084765,-0.16544386255183668
11626172,1992.375,1,199733.0,232695,0.88,-0.57,9.95,-0.03,-0.0,-0.0,32.17,9.706682,90.69109629177417,201.37032518724038,10.005088705253941,0.03,1.4253276735018876,0.1330716833979377
11666195,1992.375,1,199843.0,232410,0.88,-0.56,9.96,-0.03,-0.01,-0.0,32.17,9.746705,90.80362787704746,260.82006860416885,10.014469531632717,0.03162277660168379,1.4270841557721923,0.17232594229325332
11706195,1992.375,1,199400.0,230986,0.87,-0.54,9.95,-0.03,-0.02,-0.0,32.17,9.786705,98.30544532649945,-255.00029711306794,10.00254967495788,0.03605551275463989,1.5441784747851484,-0.16826671657388453
11746195,1992.375,1,198704.0,229223,0.88,-0.56,9.98,-0.03,-0.02,-0.0,32.17,9.826705,102.10271112772556,-1093.7969036835334,10.03436096620009,0.03605551275463989,1.6034492123233217,-0.7221183778655526
11786195,1992.375,1,198088.0,228525,0.89,-0.56,9.96,-0.03,-0.01,-0.0,32.17,9.866705,105.78199087970721,-1669.2750999498128,10.015353213941085,0.03162277660168379,1.6608783299897243,-1.1021026941378618
11826195,1992.375,1,198195.0,229674,0.89,-0.54,9.96,-0.03,0.0,-0.0,32.17,9.906705,116.5640659437903,-1426.2355875994554,10.014254839976862,0.03,1.8291735125481339,-0.9416253667138454
11866172,1957.0,1,199089.0,232554,0.89,-0.56,9.97,-0.04,-0.01,-0.0,32.17,9.946682,78.62036281136953,-248.44286771419775,10.025298000558388,0.04123105625617661,1.2369180879049837,-0.1639368907997718
11906195,1822.0,1,200694.0,236929,0.88,-0.56,9.96,-0.04,-0.0,0.0,32.17,9.986705,-38.58089875078021,1386.8182472583376,10.014469531632717,0.04,-0.5924521950364909,0.9158148369477329
11947193,1725.0,1,203034.0,240183,0.88,-0.54,9.96,-0.04,0.01,0.0,32.17,10.027703,-143.3194304652053,2668.7499262352276,10.01337106073674,0.04123105625617661,-2.227294302053295,1.7622655551578361
11987175,1661.0,1,203589.0,237523,0.85,-0.56,9.99,-0.03,-0.0,0.0,32.17,10.067685,-185.3439973985715,2987.315343033629,10.041722959731562,0.03,-2.883247086832986,1.9726121206324603
12027208,1667.0,1,202091.0,233376,0.87,-0.57,9.98,-0.03,-0.02,-0.0,32.17,10.107718,-189.3712857124024,2350.4360187155485,10.034052022986527,0.03605551275463989,-2.9461081982575665,1.552085059539431
12067195,1677.0,1,200708.0,230885,0.88,-0.56,9.96,-0.03,-0.03,-0.0,32.17,10.147705,-157.0817712560028,1342.8884839531315,10.014469531632717,0.042426406871192854,-2.442107836744196,0.8868083147513485
12107195,1733.0,1,200098.0,231206,0.88,-0.56,9.95,-0.03,-0.02,-0.0,32.17,10.187705,-109.49412071330123,651.5096018020554,10.004523976681748,0.03605551275463989,-1.6993220290022033,0.43029556844092154
12147195,1751.0,1,200546.0,233095,0.89,-0.56,9.96,-0.04,-0.0,-0.0,32.17,10.227705,-74.2889648891546,552.0939725454949,10.015353213941085,0.04,-1.1498120236268266,0.3646521085237086
12187879,1778.0,1,201359.0,234243,0.87,-0.56,9.96,-0.03,0.0,0.0,32.53,10.268389,-48.13278818071327,775.9347920072601,10.013595757768535,0.03,-0.7415456641353386,0.5124526703675077
12226175,1806.0,1,201305.0,233718,0.87,-0.56,9.97,-0.03,-0.01,0.0,32.53,10.306685,-14.97929855525143,825.4589260911073,10.023542288033706,0.03162277660168379,-0.2240596926684977,0.5451531173191442
12266195,1810.0,1,200570.0,231996,0.89,-0.57,9.95,-0.03,-0.02,-0.0,32.53,10.346705,1.5420718145094836,422.97850873878406,10.00597321603451,0.03605551275463989,0.033818964822602174,0.2793980510231987
12306195,1806.0,1,199535.0,230417,0.89,-0.56,9.94,-0.03,-0.02,-0.0,32.53,10.386705,-12.913118488966967,-296.94822335370884,9.995463971222145,0.03605551275463989,-0.19180911479854465,-0.1959646453138568
12346193,1805.0,1,199013.0,229826,0.9,-0.5300000000000002,9.94,-0.03,-0.01,-0.0,32.53,10.426703,10.525311248270972,-969.7266315897106,9.994723607984364,0.03162277660168379,0.17403649359004456,-0.6401956259399935
12386195,1856.0,1,198981.0,229943,0.9,-0.57,9.96,-0.03,-0.01,-0.0,32.53,10.466705,42.64544636695413,-1340.0754187254727,10.016810869732941,0.03162277660168379,0.6753930480075466,-0.8847343966095009
12426192,1835.0,1,199227.0,231304,0.87,-0.54,9.95,-0.04,0.0,0.0,32.53,10.506702,44.71442567826075,-1443.4602314607325,10.00254967495788,0.04,0.7076873187148458,-0.9529986812253703
12466175,1858.0,1,199548.0,230474,0.86,-0.57,9.99,-0.03,-0.0,-0.0,32.53,10.546685,57.03130580019144,-1505.6124452906986,10.043136960133522,0.03,0.8999389563959316,-0.994037362847397
12506192,1821.0,1,198858.0,228517,0.88,-0.57,9.97,-0.03,-0.01,-0.0,32.53,10.586702,25.61196322512782,-1703.9895309631936,10.024978802970109,0.03162277660168379,0.4095209280379355,-1.125024395462056
12546195,1790.0,1,198393.0,227777,0.86,-0.54,9.94,-0.03,-0.01,-0.0,32.53,10.626705,2.6638627529204406,-2027.7558418283745,9.991736585799286,0.03162277660168379,0.05132876786609421,-1.3388050757107797
12586193,1840.0,1,198234.0,227728,0.89,-0.57,9.95,-0.03,-0.02,-0.0,32.53,10.666703,39.242163146673306,-2331.7421856947935,10.00597321603451,0.03605551275463989,0.6222719031953498,-1.539525179060712
12626195,1827.0,1,198394.0,228594,0.89,-0.56,9.94,-0.03,-0.01,-0.0,32.53,10.706705,44.62462049039668,-2475.458406569468,9.995463971222145,0.03162277660168379,0.7062855680873973,-1.634420016572566
12666192,1841.0,1,198927.0,230523,0.88,-0.56,9.95,-0.03,-0.01,-0.0,32.53,10.746702,42.1093507528919,-2383.750549270813,10.004523976681748,0.03162277660168379,0.6670252423021391,-1.573865945751951
12706195,1835.0,1,199713.0,232173,0.88,-0.56,9.95,-0.04,-0.0,-0.0,32.53,10.786705,46.34343278873738,-1998.0764484742385,10.004523976681748,0.04,0.733114154218882,-1.319207975309377
12746192,1827.0,1,200001.0,232931,0.89,-0.55,9.95,-0.03,-0.02,-0.0,32.53,10.826702,34.54497953505098,-1240.5726971919578,10.00485382202059,0.03605551275463989,0.5489545344393408,-0.8190334302575945
12786195,1829.0,1,200661.0,235951,0.86,-0.55,9.95,-0.04,-0.02,-0.0,32.53,10.866705,29.978669062974234,-102.10368537570193,10.002229751410432,0.044721359549995794,0.47767993748568977,-0.06731012977647076
12826193,1819.0,1,202376.0,240192,0.9,-0.56,9.93,-0.04,-0.0,0.0,32.53,10.906703,28.925843970853485,1208.4127780563592,9.986415773439438,0.04,0.4612466080915391,0.798014926067032
12866195,1826.0,1,204213.0,242445,0.88,-0.55,9.96,-0.04,0.01,0.0,32.53,10.946705,20.7822841089609,2250.4624663897953,10.013915318195975,0.04123105625617661,0.33413546431941044,1.4860732068362617
12906175,1802.0,1,204664.0,241850,0.85,-0.56,9.99,-0.03,-0.01,-0.0,32.53,10.986685,5.413225986947152,2581.1407176315156,10.041722959731562,0.03162277660168379,0.09424301068483062,1.7044177940325198
12946196,1807.0,1,204075.0,240644,0.89,-0.56,9.93,-0.03,-0.02,-0.0,32.53,11.026706,1.116954291271994,2083.2026840292906,9.985519515778837,0.03605551275463989,0.027183393213537653,1.3756327167317441
12986192,1808.0,1,203065.0,237033,0.88,-0.56,9.97,-0.03,-0.02,-0.0,32.53,11.066702,-0.6056587203317896,1101.8184757428364,10.02441519491287,0.03605551275463989,0.00029548253379464674,0.727631437438062
13026202,1808.0,1,201770.0,234890,0.87,-0.57,9.96,-0.03,-0.02,-0.0,32.53,11.106712,1.1794225611384648,232.31338433036808,10.014159974755746,0.03605551275463989,0.028158447534603056,0.15350317367534608
13066192,1830.0,1,201718.0,236197,0.92,-0.56,9.93,-0.03,-0.02,-0.0,32.53,11.146702,11.78254775883889,-97.54296372426379,9.988238082865266,0.03605551275463989,0.19366043859205598,-0.06429871646894005
13106196,1829.0,1,202442.0,237991,0.91,-0.55,9.96,-0.03,-0.01,-0.0,32.53,11.186706,14.711558769732274,83.14453397778267,10.016596228260378,0.03162277660168379,0.2393787664523354,0.05500800221949074
13146222,1828.0,1,202883.0,238833,0.91,-0.57,9.95,-0.03,-0.01,-0.0,32.53,11.226732,6.87998815699279,361.83157398777024,10.007771979816486,0.03162277660168379,0.11713739842656462,0.2390231483001067
13186196,1795.0,1,202885.0,238257,0.88,-0.57,9.94,-0.03,-0.01,-0.0,32.53,11.266706,-32.57904250202538,309.0488806897083,9.995143820876216,0.03162277660168379,-0.49877046057720464,0.20417109699042568
13226879,1765.0,1,202190.0,236373,0.9,-0.57,9.96,-0.03,-0.02,-0.0,32.49,11.307389,-56.189559385965126,-171.62122894696995,10.016810869732941,0.03605551275463989,-0.8673021416927972,-0.1132120882420457
13267196,1786.0,1,201263.0,234884,0.92,-0.57,9.92,-0.03,-0.03,-0.0,32.49,11.347706,-52.961707069916216,-789.889526628624,9.978862660644248,0.042426406871192854,-0.8169192616282135,-0.521450415761065
13307195,1749.0,1,201020.0,235058,0.91,-0.56,9.91,-0.03,-0.0,-0.0,32.49,11.387705,-76.67242117178981,-1130.351228695236,9.967436982494547,0.03,-1.1870149004220636,-0.7462549486105204
13347195,1744.0,1,201432.0,236485,0.89,-0.55,9.95,-0.03,0.0,-0.0,32.49,11.427705,-98.1969912173076,-990.7774987387681,10.00485382202059,0.03,-1.5229874682043811,-0.6540953695140708
13387172,1723.0,1,202003.0,237506,0.89,-0.55,9.97,-0.03,-0.0,0.0,32.49,11.467682,-112.74788105532217,-518.1124121167852,10.024744385768647,0.03,-1.7501093020926912,-0.3419978462175655
13427195,1730.0,1,202400.0,238109,0.89,-0.55,9.96,-0.03,-0.01,-0.0,32.49,11.507705,-109.60059064829568,-53.26702540829855,10.014799049406834,0.03162277660168379,-1.7009838962253838,-0.03506361728106
13467195,1739.0,1,202658.0,238633,0.91,-0.56,9.97,-0.03,-0.01,-0.0,32.49,11.547705,-105.63453968926926,161.27723978182982,10.027093297661093,0.03162277660168379,-1.6390786260229204,0.10659849337290161
13507195,1722.0,1,202422.0,236832,0.9,-0.56,9.99,-0.04,-0.02,-0.0,32.49,11.587705,-115.99689554659092,161.50128973295375,10.046078837038857,0.044721359549995794,-1.8008224981790784,0.10674643202295131
13547192,1768.0,1,201960.0,236673,0.89,-0.57,9.93,-0.03,-0.01,-0.0,32.49,11.627702,-78.23692163767359,193.24425669794263,9.986085319082749,0.03162277660168379,-1.2114348650349718,0.12770609596313762
13587195,1783.0,1,202367.0,238128,0.89,-0.56,9.94,-0.04,-0.01,-0.0,32.49,11.667705,-55.913459444429755,474.1311832466501,9.995463971222145,0.04123105625617661,-0.8629925547358441,0.31317381207632067
13627193,1803.0,1,203091.0,239519,0.9,-0.57,9.99,-0.04,-0.01,-0.0,32.49,11.707703,-39.22587123003535,1001.1981594363162,10.04664122978421,0.04123105625617661,-0.6025194372413778,0.6611925309027652
13667195,1874.0,1,203624.0,240262,0.91,-0.57,9.95,-0.03,-0.01,-0.0,32.49,11.747705,36.61804505581934,1563.4048359248402,10.007771979816486,0.03162277660168379,0.5813125859460917,1.032413753453429
13707195,1904.0,1,203828.0,240252,0.89,-0.55,9.97,-0.03,-0.01,-0.0,32.49,11.787705,67.0113982208283,1926.574302626307,10.024744385768647,0.03162277660168379,1.0557161575281993,1.272212067952355
13747195,1913.0,1,203460.0,239522,0.92,-0.57,9.94,-0.03,-0.02,0.0,32.49,11.827705,82.22126821583561,2010.7624091194389,9.998744921238865,0.03605551275463989,1.2931238765698132,1.3278008987570775
13787196,1961.0,1,203039.0,238860,0.91,-0.56,9.97,-0.03,-0.01,-0.0,32.49,11.867706,131.31725273459986,1908.1322512339464,10.027093297661093,0.03162277660168379,2.0594529577866987,1.2600349075760784
13827195,1969.0,1,202869.0,238833,0.9,-0.55,9.97,-0.03,-0.01,-0.0,32.49,11.907705,147.0413162900494,1751.0693577504944,10.025637136860679,0.03162277660168379,2.3048866179027954,1.1563273534423597
13867193,1983.0,1,202725.0,238486,0.91,-0.55,9.96,-0.03,-0.01,-0.0,32.49,11.947703,165.80843350348152,1572.4748385883556,10.016596228260378,0.03162277660168379,2.5978186740012403,1.0384026141662148
13907195,1991.0,1,202392.0,236952,0.92,-0.55,9.96,-0.03,-0.02,-0.0,32.49,11.987705,178.39351840429094,1285.4480546658674,10.017509670571824,0.03605551275463989,2.7942566646761757,0.8488807922305653
13947192,1953.0,1,201410.0,234622,0.91,-0.56,9.98,-0.03,-0.02,-0.0,32.49,12.027702,152.59484719449378,782.9139282119871,10.037036415197466,0.03605551275463989,2.3915705346676357,0.5170609462607224
13987195,1936.0,1,200442.0,232778,0.94,-0.54,9.92,-0.03,-0.02,-0.0,32.49,12.067705,135.26355891544256,53.23766176391461,9.979058071782127,0.03605551275463989,2.121050035824921,0.035260699083141014
14027198,1905.0,1,199519.0,229244,0.92,-0.56,9.95,-0.03,0.0,-0.0,32.49,12.107708,122.75960929786713,-785.7133943697916,10.008121701897913,0.03,1.925878469026896,-0.5186929441985787
14067175,1890.0,1,198386.0,227040,0.92,-0.55,9.95,-0.03,0.0,-0.0,32.49,12.147685,104.69506962259717,-1545.909651733337,10.007567136921939,0.03,1.6439128005990693,-1.0206453325969664
14107172,1829.0,1,197933.0,226043,0.89,-0.57,9.96,-0.03,-0.01,-0.0,32.49,12.187682,65.67422359019244,-2061.705436916217,10.015917331927216,0.03162277660168379,1.0348444749218535,-1.3612217611054187
14147195,1779.0,1,197534.0,225372,0.91,-0.55,9.95,-0.03,-0.02,-0.0,32.49,12.227705,11.06024063014132,-2250.674146248209,10.006652787021242,0.03605551275463989,0.18238609581806273,-1.4859965071831187
14187196,1738.0,1,197368.0,225344,0.91,-0.55,9.93,-0.03,-0.02,-0.0,32.49,12.267706,-5.306361451234444,-2121.7259870653843,9.986766243384292,0.03605551275463989,-0.07307681542816104,-1.4008529197812658
14227882,1741.0,1,197452.0,226048,0.94,-0.57,9.92,-0.03,-0.01,-0.0,32.53,12.308392,-8.6614016855062,-1749.7302815923,9.980726426468166,0.03162277660168379,-0.12544494543668563,-1.1552267001998378
14266193,1701.0,1,197884.0,227357,0.92,-0.56,9.96,-0.04,-0.0,0.0,32.53,12.346703,-22.937367952626715,-1241.8894779649625,10.018063685163915,0.04,-0.34827555409439487,-0.819902891594196
14306195,1690.0,1,198354.0,228339,0.91,-0.55,9.98,-0.04,-0.0,0.0,32.53,12.386705,-39.63868872082584,-706.9888992533025,10.036483447901462,0.04,-0.6089630201846391,-0.4667116986104656
14346193,1632.0,1,198659.0,228647,0.9,-0.57,9.96,-0.03,-0.01,-0.0,32.53,12.426703,-75.62970325882382,-233.05284366436527,10.016810869732941,0.03162277660168379,-1.1707393318996275,-0.15377496319950512
14386195,1617.375,1,198744.0,228634,0.91,-0.56,9.95,-0.03,-0.01,-0.0,32.53,12.466705,-90.98623726307876,117.74607862342397,10.007207402667339,0.03162277660168379,-1.4104362991670587,0.077855165447298
14426195,1617.375,1,198693.0,228628,0.89,-0.55,9.96,-0.03,-0.01,-0.0,32.53,12.506705,-76.79746021904528,297.64043024018343,10.014799049406834,0.03162277660168379,-1.1889666090829398,0.1966381752013552
14466196,1617.375,1,198536.0,228432,0.91,-0.56,9.95,-0.03,-0.01,-0.0,32.53,12.546706,-71.63361963110268,268.1568917006396,10.007207402667339,0.03162277660168379,-1.1083652879749766,0.17717039639422735
14506195,1617.375,1,198494.0,228330,0.9,-0.55,9.95,-0.03,-0.01,-0.0,32.53,12.586705,-64.4500894657373,25.80036006318019,10.005748347824863,0.03162277660168379,-0.9962390494347502,0.017144036462813803
14546195,1617.375,1,198126.0,225874,0.91,-0.57,9.94,-0.03,-0.01,-0.0,32.53,12.626705,-56.95682486908569,-355.374526131427,9.997829764503894,0.03162277660168379,-0.8792782301345003,-0.23454313335623866
14586201,1617.375,1,197214.0,224293,0.92,-0.56,9.96,-0.03,-0.01,-0.0,32.53,12.666711,-53.26203255431358,-719.3695238580558,10.018063685163915,0.03162277660168379,-0.8216069800797354,-0.47488654034379946
14626196,1617.375,1,196951.0,224452,0.91,-0.56,9.96,-0.03,-0.01,-0.0,32.53,12.706706,-47.15868716916853,-899.4393761090853,10.017150293371863,0.03162277660168379,-0.7263411226538613,-0.5937854319661031
14666195,1617.375,1,197158.0,225171,0.9,-0.56,9.94,-0.04,-0.01,-0.0,32.53,12.746705,-45.033491338577825,-825.0254653443809,9.996359337278747,0.04123105625617661,-0.6931693799089921,-0.5446504357376949
14706195,1617.375,1,197398.0,225944,0.9,-0.56,9.96,-0.03,-0.01,-0.0,32.53,12.786705,-41.58984979464882,-570.025262417497,10.016246802071123,0.03162277660168379,-0.6394182903592793,-0.3762755461465047
14746192,1617.375,1,197770.0,226946,0.9,-0.56,9.96,-0.03,-0.01,-0.0,32.53,12.826702,-40.85695280363277,-288.0470989555975,10.016246802071123,0.03162277660168379,-0.6279786526117708,-0.19008729376445754
14786213,1617.375,1,197897.0,227217,0.92,-0.56,9.97,-0.03,-0.01,-0.0,32.53,12.866723,-40.65070192148134,-83.47495696433982,10.028005783803676,0.03162277660168379,-0.624759325194905,-0.0550097078415646
14826193,1617.375,1,198029.0,227630,0.91,-0.55,9.94,-0.03,-0.01,-0.0,32.53,12.906703,-40.44474456889099,68.52716125065751,9.99670945861687,0.03162277660168379,-0.6215445794203274,0.04535625100206653
14866196,1617.375,1,198148.0,228182,0.91,-0.55,9.96,-0.03,-0.01,-0.0,32.53,12.946706,-44.976894456201336,277.99886875553045,10.016596228260378,0.03162277660168379,-0.6922859708624796,0.18366898651672786
14906193,1617.375,1,198372.0,229300,0.92,-0.57,9.96,-0.03,-0.01,0.0,32.53,12.986703,-43.89931003761988,605.9362273519839,10.018627650531784,0.03162277660168379,-0.6754661782558246,0.40020378104917215
14946196,1617.375,1,198992.0,230670,0.9,-0.56,9.94,-0.04,-0.01,-0.0,32.53,13.026706,-53.56684195138538,960.0907054298068,9.996359337278747,0.04123105625617661,-0.8263646869980076,0.6340495602295004
14986211,1617.375,1,199117.0,231082,0.91,-0.57,9.97,-0.03,-0.01,-0.0,32.53,13.066721,-52.66897371823629,1127.4480267929644,10.027656755194606,0.03162277660168379,-0.8123500472080671,0.7445544546702264
15027198,1664.0,1,199353.0,231132,0.89,-0.57,9.98,-0.04,-0.01,-0.0,32.53,13.107708,-17.79013607691995,937.8028905045434,10.035805896887405,0.04123105625617661,-0.2679334749450691,0.6193330685004875
15067195,1670.0,1,198795.0,228656,0.9,-0.57,9.96,-0.03,-0.01,-0.0,32.53,13.147705,-14.824864445836681,429.9030420409388,10.016810869732941,0.03162277660168379,-0.2216491625541434,0.2839702729933715
15107195,1664.0,1,197941.0,227180,0.9,-0.57,9.95,-0.03,-0.01,-0.0,32.53,13.187705,-30.52950241021992,-131.62944202291234,10.006867641774821,0.03162277660168379,-0.4667796126317853,-0.08680578491128589
15147193,1697.0,1,197676.0,227214,0.92,-0.57,9.97,-0.03,-0.02,-0.0,32.53,13.227703,-6.89376597567422,-426.756754148861,10.028569190068941,0.03605551275463989,-0.09785428476006798,-0.2816763302057126
15187196,1723.0,1,197972.0,228342,0.92,-0.57,9.95,-0.03,-0.01,-0.0,32.53,13.267706,12.786393756127364,-311.6312395561446,10.008686227472614,0.03162277660168379,0.20932926341196179,-0.20565974046897573
15227879,1739.0,1,198717.0,230422,0.91,-0.56,10.0,-0.04,-0.0,0.0,32.35,13.308389,13.861546657442085,80.50211096895347,10.056922988668054,0.04,0.22611110296784806,0.053263228383007136
15266195,1746.0,1,199342.0,231262,0.91,-0.55,9.98,-0.03,-0.0,0.0,32.35,13.346705,17.043961966755013,455.93705163713406,10.036483447901462,0.03,0.27578476617963754,0.3011603514366904
15306195,1778.0,1,199360.0,230975,0.9,-0.57,9.97,-0.03,-0.01,-0.0,32.35,13.386705,30.669740282493883,594.6409006568965,10.026754210610731,0.03162277660168379,0.48846672540533154,0.3927455541013015
15346195,1808.0,1,199128.0,230524,0.91,-0.55,9.92,-0.03,-0.01,-0.0,32.35,13.426705,57.43650570378418,504.16342506274253,9.976823141661878,0.03162277660168379,0.9062636379940919,0.3330038959033927
15386195,1814.0,1,199087.0,230815,0.9,-0.56,9.97,-0.03,-0.02,-0.0,32.35,13.466705,45.53721815877216,373.69741426123164,10.026190702355507,0.03605551275463989,0.7205301165893132,0.24685808146101726
15426195,1801.0,1,199264.0,231777,0.91,-0.56,9.93,-0.04,-0.01,-0.0,32.35,13.506705,25.190406171321833,383.9388845264699,9.987321963369359,0.04123105625617661,0.40294093106078616,0.2536204542174632
15466196,1835.0,1,199748.0,232419,0.91,-0.57,9.96,-0.03,-0.01,-0.0,32.35,13.546706,48.54041198561374,541.2285722673374,10.017714310160777,0.03162277660168379,0.767406348700722,0.35747775904790285
15506195,1854.0,1,199656.0,232381,0.91,-0.55,9.95,-0.03,-0.01,-0.0,32.35,13.586705,50.34115654928863,668.2933291202671,10.006652787021242,0.03162277660168379,0.7955137986380965,0.44137774877527536
15546195,1855.0,1,199805.0,232758,0.91,-0.55,9.96,-0.03,-0.01,-0.0,32.35,13.626705,52.10562101686639,549.1968246334119,10.016596228260378,0.03162277660168379,0.8230549600494114,0.3627391415761247
15586195,1891.0,1,199559.0,230502,0.9,-0.56,9.94,-0.03,-0.01,-0.0,32.35,13.666705,61.91259832508972,109.45342189780733,9.996359337278747,0.03162277660168379,0.9761300431502155,0.07237958093965079
15626192,1849.0,1,198671.0,228516,0.9,-0.56,9.96,-0.03,-0.01,-0.0,32.35,13.706702,27.18131969601651,-507.09061806054996,10.016246802071123,0.03162277660168379,0.4340166890299217,-0.33472023099995113
15666195,1879.0,1,198203.0,227837,0.89,-0.57,9.98,-0.03,-0.01,-0.0,32.35,13.746705,31.096391355770336,-1022.1786992274019,10.035805896887405,0.03162277660168379,0.4951262338801882,-0.6748293673878707
15706196,1904.0,1,198076.0,228058,0.91,-0.56,9.94,-0.03,-0.01,-0.0,32.35,13.786706,60.46176945370217,-1204.1311260879154,9.997264625886423,0.03162277660168379,0.9534843549760955,-0.7949713101465294
15746195,1892.0,1,198471.0,229420,0.91,-0.56,9.95,-0.03,-0.01,-0.0,32.35,13.826705,30.735810972226105,-1009.8088274433104,10.007207402667339,0.03162277660168379,0.4894980091539751,-0.666661625668462
15786196,1875.0,1,198920.0,230918,0.92,-0.55,9.95,-0.03,-0.01,-0.0,32.35,13.866706,10.806169855078783,-586.5777456468375,10.007567136921939,0.03162277660168379,0.17842035757029787,-0.38720503759086783
15826195,1895.0,1,199401.0,231720,0.89,-0.56,9.95,-0.04,-0.01,-0.0,32.35,13.906705,22.77356722262663,-146.71958817502096,10.005408537386167,0.04123105625617661,0.3652169911264538,-0.09676970518708557
15866193,1893.0,1,199630.0,232120,0.91,-0.57,9.94,-0.03,-0.01,-0.0,32.35,13.946703,12.153316004519908,177.83253288732456,9.997829764503894,0.03162277660168379,0.19944768355398435,0.11752984015926761
15906196,1875.0,1,199763.0,232605,0.91,-0.57,9.96,-0.03,-0.02,-0.0,32.35,13.986706,-6.813941482166163,390.6595231626083,10.017714310160777,0.03605551275463989,-0.09660832072923664,0.2580580459344649
15946193,1881.0,1,199876.0,233249,0.91,-0.54,9.94,-0.03,-0.01,-0.0,32.35,14.026703,-11.886588430452958,569.7930659258095,9.996164264356603,0.03162277660168379,-0.1757862191525291,0.376338698807047
15986195,1872.0,1,200278.0,233995,0.91,-0.56,9.97,-0.03,-0.01,-0.0,32.35,14.066705,-17.827680589453355,758.0530268982874,10.027093297661093,0.03162277660168379,-0.2685194994861079,0.5006454631913544
16026201,1887.0,1,200217.0,233520,0.91,-0.56,9.97,-0.03,-0.01,-0.0,32.35,14.106711,-13.206919557990867,902.1380573420757,10.027093297661093,0.03162277660168379,-0.19639499499816818,0.5957838231387474
16066196,1893.0,1,200128.0,233630,0.91,-0.56,9.96,-0.03,-0.01,-0.0,32.35,14.146706,-3.7082515523870607,889.2210760030249,10.017150293371863,0.03162277660168379,-0.0481322481183995,0.5872548287228576
16106195,1879.0,1,200152.0,232879,0.91,-0.56,9.92,-0.03,-0.01,-0.0,32.35,14.186705,-22.726309416200024,648.9052934146916,9.977379415457749,0.03162277660168379,-0.3449811849950028,0.42857596142825766
16146196,1885.0,1,199528.0,230279,0.91,-0.56,9.96,-0.03,-0.01,-0.0,32.35,14.226706,-19.256460366089193,235.5058117246554,10.017150293371863,0.03162277660168379,-0.290821027894651,0.1556111116450862
16186195,1893.0,1,198786.0,228980,0.9,-0.57,9.96,-0.03,-0.01,-0.0,32.35,14.266705,-3.0068349924913806,-183.08797159100754,10.016810869732941,0.03162277660168379,-0.03718398191773438,-0.12078349996838858
16226208,1893.0,1,198571.0,228738,0.93,-0.57,9.99,-0.03,-0.02,-0.0,32.35,14.306718,-20.036973002331173,-431.680202048639,10.049373114776861,0.03605551275463989,-0.3030038884131295,-0.28492724917369
16266879,1894.0,1,198556.0,229073,0.91,-0.55,9.96,-0.03,-0.01,-0.0,32.19,14.347389,8.538454729044876,-449.1060993784093,10.016596228260378,0.03162277660168379,0.14302406058126382,-0.2964334499737293
16305195,1952.0,1,198568.0,229504,0.89,-0.57,9.95,-0.03,-0.01,-0.0,32.19,14.385705,33.7532204498504,-325.10952217578006,10.00597321603451,0.03162277660168379,0.5365961304221043,-0.21455935828069442
16345192,1872.0,1,198720.0,229478,0.91,-0.54,9.96,-0.03,-0.01,-0.0,32.19,14.425702,-5.6751935846019785,-220.2132186172179,10.01605211647783,0.03162277660168379,-0.07883384001290644,-0.14529704661398152
16385195,1887.0,1,198602.0,228924,0.91,-0.56,9.96,-0.03,-0.01,-0.0,32.19,14.465705,-26.076028571386882,-233.35300063281613,10.017150293371863,0.03162277660168379,-0.39726625937919924,-0.1539731547924641
16425243,1845.0,1,198204.0,228370,0.9,-0.54,9.96,-0.03,-0.02,-0.0,32.19,14.505753,-32.63952411316465,-325.62778042997877,10.015148526107838,0.03605551275463989,-0.49971450555255603,-0.2149015606606488
16465195,1865.0,1,198070.0,228284,0.91,-0.56,9.95,-0.03,-0.01,0.0,32.19,14.545705,-32.85890001367105,-362.18730206552345,10.007207402667339,0.03162277660168379,-0.5031386986698556,-0.2390415627007907
16505195,1872.0,1,198216.0,228801,0.93,-0.56,9.94,-0.03,-0.01,-0.0,32.19,14.585705,-9.15938694459953,-237.5261726047868,9.999104959945164,0.03162277660168379,-0.13321789448335747,-0.15672867169778626
16545195,1904.0,1,198315.0,229200,0.9,-0.56,9.96,-0.03,-0.01,-0.0,32.19,14.625705,22.919804371892937,17.7617208467575,10.016246802071123,0.03162277660168379,0.36749957658299337,0.011836177978808312
16585192,1904.0,1,198340.0,229229,0.92,-0.55,9.92,-0.03,-0.01,-0.0,32.19,14.665702,24.203682711243424,236.40096081771566,9.977740225121117,0.03162277660168379,0.3875393683874064,0.1562021724677119
16625215,1846.0,1,198399.0,229440,0.91,-0.57,9.96,-0.03,-0.01,-0.0,32.19,14.705725,-24.33786683757688,227.28739011756463,10.017714310160777,0.03162277660168379,-0.3701356519062422,0.1501845440783752
16665193,1843.0,1,198200.0,227100,0.93,-0.57,9.95,-0.04,-0.01,-0.0,32.19,14.745703,-27.671468414150752,-77.37652707416626,10.009610382027864,0.04123105625617661,-0.4221691503350729,-0.05098295630312756
16705195,1871.0,1,197159.0,224760,0.91,-0.57,9.99,-0.03,-0.01,-0.0,32.19,14.785705,5.999380921645158,-552.3937324441913,10.047541987968998,0.03162277660168379,0.10339218198592122,-0.36463356751862763
16745192,1872.0,1,196686.0,224015,0.91,-0.56,9.97,-0.03,-0.01,-0.0,32.19,14.825702,13.132908608332846,-948.4340219982982,10.027093297661093,0.03162277660168379,0.2147379421648472,-0.6261362614849372
16785196,1882.0,1,196626.0,224048,0.9,-0.56,9.94,-0.03,-0.01,0.0,32.19,14.865706,22.625063130762076,-1054.6260243917357,9.996359337278747,0.03162277660168379,0.36289902143115177,-0.6962541142287217
16825192,1854.0,1,196638.0,224985,0.92,-0.55,9.96,-0.03,-0.01,-0.0,32.19,14.905702,3.9520912630992453,-832.6680381959754,10.017509670571824,0.03162277660168379,0.07143646058840664,-0.549696774310409
16865195,1833.0,1,197142.0,226521,0.91,-0.56,9.96,-0.04,-0.01,-0.0,32.19,14.945705,-18.048262412503508,-422.1614248795329,10.017150293371863,0.04123105625617661,-0.27196251559930074,-0.2786420657248324
16905193,1840.0,1,197468.0,227238,0.91,-0.54,9.96,-0.04,-0.01,-0.0,32.19,14.985703,-4.606414324273306,-21.38651921456429,10.01605211647783,0.04123105625617661,-0.06215148530264899,-0.014013137129009331
16945196,1831.0,1,197530.0,227689,0.91,-0.56,9.95,-0.03,-0.01,-0.0,32.19,15.025706,-11.12341114479273,254.6555519015366,10.007207402667339,0.03162277660168379,-0.16387394254053705,0.16825555408463544
16985193,1826.0,1,197530.0,227834,0.92,-0.55,9.96,-0.03,-0.01,-0.0,32.19,15.065703,-14.59813136832799,425.95937856773014,10.017509670571824,0.03162277660168379,-0.21811013278069413,0.28136629897976373
17025216,1831.0,1,197564.0,228027,0.92,-0.57,9.97,-0.03,-0.01,-0.0,32.19,15.105726,-3.49494324670813,577.0160025295377,10.028569190068941,0.03162277660168379,-0.04480276283545564,0.3811079544359361
17065193,1827.0,1,197711.0,228003,0.89,-0.56,9.97,-0.03,-0.01,-0.0,32.19,15.145703,-10.366158751515528,736.1656881907279,10.025298000558388,0.03162277660168379,-0.15205414634992157,0.4861934031693199
17105195,1831.0,1,197696.0,227457,0.92,-0.58,9.97,-0.03,-0.01,-0.0,32.19,15.185705,2.166201537396531,817.635380437264,10.02914253563085,0.03162277660168379,0.04356087674856386,0.5399872836431011
17145196,1843.0,1,197511.0,227184,0.94,-0.57,9.96,-0.03,-0.0,-0.0,32.19,15.225706,8.594805732399504,684.4786491611568,10.02048402024573,0.03,0.1439036317529122,0.4520648048779886
17185195,1815.0,1,197333.0,225823,0.9,-0.56,9.97,-0.03,0.0,-0.0,32.19,15.265705,-11.009748657612992,285.68471035590215,10.026190702355507,0.03,-0.16209980825597076,0.18874389514826734
17225173,1837.0,1,196415.0,223257,0.91,-0.56,9.97,-0.03,-0.01,0.0,32.19,15.305683,5.696793577089495,-250.8346299533039,10.027093297661093,0.03162277660168379,0.09866915862639221,-0.16551615504472358
17265196,1838.0,1,195855.0,222316,0.91,-0.55,9.98,-0.03,-0.01,-0.0,32.19,15.345706,12.40635219290275,-664.1215038866326,10.036483447901462,0.03162277660168379,0.20339727315196734,-0.43840665069646645
17305882,1815.0,1,195735.0,222463,0.89,-0.56,9.96,-0.03,-0.01,-0.0,32.13,15.386392,-14.383255310232862,-729.4807084514407,10.015353213941085,0.03162277660168379,-0.21475617677411662,-0.4815628863623769
17346196,1808.0,1,195957.0,223494,0.92,-0.56,9.96,-0.03,-0.01,-0.0,32.13,15.426706,-17.938090465793007,-424.28302918512185,10.018063685163915,0.03162277660168379,-0.270242864439922,-0.280042946534375
17386195,1804.0,1,196567.0,225305,0.91,-0.56,9.97,-0.04,-0.0,-0.0,32.13,15.466705,-25.193454979142803,49.07080892741114,10.027093297661093,0.04,-0.3834903504799247,0.03250935465974
17426195,1798.0,1,197126.0,225947,0.91,-0.56,9.99,-0.03,-0.01,-0.0,32.13,15.506705,-29.94245271522587,412.93882535708747,10.046979645644754,0.03162277660168379,-0.45761647520205306,0.27276891676557474
17466193,1798.0,1,196980.0,225225,0.89,-0.57,9.96,-0.03,-0.02,-0.0,32.13,15.546703,-29.994982652068327,521.9529693403728,10.015917331927216,0.03605551275463989,-0.45843640413578235,0.3447502102954735
17506195,1796.0,1,196636.0,224740,0.93,-0.56,9.94,-0.03,-0.02,-0.0,32.13,15.586705,-38.22420075021867,459.0487299681165,9.999104959945164,0.03605551275463989,-0.58688456962432,0.3032149713523173
17546192,1802.0,1,196658.0,225078,0.91,-0.56,9.94,-0.03,-0.0,-0.0,32.13,15.626702,-22.28583233589694,440.99530876523835,9.997264625886423,0.03,-0.3381058692323309,0.29129442083162044
17586195,1818.0,1,196869.0,225820,0.92,-0.56,9.96,-0.03,-0.01,-0.0,32.13,15.666705,-24.832811525561553,613.888904510384,10.018063685163915,0.03162277660168379,-0.37786114130653137,0.4054548793743132
17626195,1801.0,1,197203.0,226206,0.9,-0.56,9.97,-0.03,-0.01,-0.0,32.13,15.706705,-21.702272784014248,908.9304549231122,10.026190702355507,0.03162277660168379,-0.3289972087255091,0.6002687967961778
17666195,1845.0,1,197347.0,226273,0.9,-0.56,9.93,-0.03,-0.01,-0.0,32.13,15.746705,-1.746619365841742,1076.3247379315785,9.986415773439438,0.03162277660168379,-0.017513536508161686,0.7107980967584544
17706192,1808.0,1,197325.0,225590,0.91,-0.54,9.96,-0.03,-0.01,-0.0,32.13,15.786702,-21.04249387963891,872.0944965433189,10.01605211647783,0.03162277660168379,-0.31869885608929716,0.5759462654648528
17746195,1838.0,1,196523.0,222532,0.92,-0.56,9.94,-0.03,-0.01,-0.0,32.13,15.826705,-4.922491595885655,255.39494370746078,9.99817983434985,0.03162277660168379,-0.06708507014716222,0.16874376943606717
17786192,1863.0,1,195608.0,219928,0.89,-0.56,9.97,-0.03,-0.01,-0.0,32.13,15.866702,22.0599207843416,-552.5586734012941,10.025298000558388,0.03162277660168379,0.35407783128018055,-0.364742476904277
17826195,1849.0,1,194983.0,218636,0.92,-0.5300000000000002,9.93,-0.03,-0.01,-0.0,32.13,15.906705,11.368273749271841,-1193.0382026622647,9.986601023371266,0.03162277660168379,0.18719412114806594,-0.7876467286928707
17866195,1872.0,1,194846.0,219277,0.9,-0.56,9.93,-0.03,0.0,-0.0,32.13,15.946705,22.635241558019793,-1389.2390853596276,9.986415773439438,0.03,0.36305789439978847,-0.9171968293699856
17906175,1871.0,1,195294.0,220655,0.89,-0.54,9.96,-0.04,0.0,-0.0,32.13,15.986685,32.45627941986786,-1108.711863006843,10.014254839976862,0.04,0.5163524457778104,-0.7319666234767116
17946172,1891.0,1,195723.0,221538,0.88,-0.54,9.96,-0.03,-0.01,-0.0,32.13,16.026682,41.333430633466335,-564.8725685433742,10.01337106073674,0.03162277660168379,0.65491406543003,-0.37287325762988976
17986196,1907.0,1,196191.0,223169,0.88,-0.55,9.93,-0.04,-0.01,-0.0,32.13,16.066706,61.75707777085735,-67.09407854383441,9.984077323418523,0.04123105625617661,0.9737025549431161,-0.044193525878563795
18026201,1925.0,1,196688.0,223985,0.89,-0.57,10.0,-0.03,-0.01,-0.0,32.13,16.106711,79.0354440122342,175.0842312547892,10.055694903884067,0.03162277660168379,1.243397004631207,0.11571515539184365
18066226,1936.0,1,196769.0,223665,0.9,-0.56,9.96,-0.03,-0.02,-0.0,32.13,16.146736,84.9188401580991,163.58272363182806,10.016246802071123,0.03605551275463989,1.3352297198132896,0.1081207885877373
18106192,1902.0,1,196475.0,223110,0.89,-0.55,9.96,-0.03,-0.01,-0.0,32.13,16.186702,57.46262873665006,64.3235291047533,10.014799049406834,0.03162277660168379,0.9066713870181909,0.04258062145226753
18146196,1885.0,1,196288.0,223198,0.89,-0.54,9.95,-0.03,-0.01,-0.0,32.13,16.226706,33.340147129071326,35.41494379910232,10.004309071595099,0.03162277660168379,0.5301485542813945,0.02349248033234795
18186195,1866.0,1,196387.0,224196,0.92,-0.56,9.96,-0.03,-0.01,-0.0,32.13,16.266705,19.426426820238575,68.61307625486356,10.018063685163915,0.03162277660168379,0.3129721679620335,0.04541298009161775
18226196,1844.0,1,196769.0,224958,0.91,-0.55,9.97,-0.03,-0.0,-0.0,32.13,16.306706,-4.662354419475676,-9.564432837140304,10.026539781998574,0.03,-0.06302464269382492,-0.006207094366341317
18266223,1833.0,1,196733.0,223094,0.89,-0.56,9.98,-0.03,-0.01,0.0,32.13,16.346733,-15.517843053652145,-355.7441665452183,10.035242896910868,0.03162277660168379,-0.23246572250370948,-0.23478720439283468
18306882,1839.0,1,195936.0,221118,0.9,-0.55,9.96,-0.03,-0.01,-0.0,32.21,16.387392,-7.0737336518338285,-898.5314072222136,10.01569268697877,0.03162277660168379,-0.10066336304359685,-0.5931859063213213
18345192,1859.0,1,195381.0,220302,0.91,-0.56,9.95,-0.03,-0.02,-0.0,32.21,16.425702,11.538219185137596,-1306.6052423238289,10.007207402667339,0.03605551275463989,0.18984676435301545,-0.8626342680937589
18385195,1862.0,1,195469.0,221525,0.92,-0.55,9.96,-0.03,-0.01,-0.0,32.21,16.465705,16.782572339649494,-1204.3771374264725,10.017509670571824,0.03162277660168379,0.2717047894820964,-0.7951337497504681
18425193,1851.0,1,196221.0,224600,0.91,-0.54,9.93,-0.04,0.0,0.0,32.21,16.505703,6.902720592743093,-478.0168422218176,9.986220506277638,0.04,0.11749222432063938,-0.3155230157010708
18465175,1837.0,1,197765.0,228435,0.87,-0.54,9.98,-0.04,0.01,0.0,32.21,16.545685,-7.388581718073541,587.3618114402127,10.032392536179993,0.04123105625617661,-0.10557776147535002,0.3879392212862057
18505175,1814.0,1,199026.0,230344,0.9,-0.57,9.98,-0.04,-0.0,0.0,32.21,16.585685,-26.748384587632046,1472.28578218626,10.036697664072582,0.04,-0.40776092555669236,0.9722484655956533
18545195,1809.0,1,199175.0,229866,0.89,-0.55,9.98,-0.03,-0.02,-0.0,32.21,16.625705,-33.11820735899656,1771.0534861201436,10.034689830782016,0.03605551275463989,-0.5071861734612031,1.1695227366977237
18585193,1799.0,1,198674.0,228615,0.9,-0.54,9.96,-0.03,-0.02,-0.0,32.21,16.665703,-39.084357688760385,1450.3528812440147,10.015148526107838,0.03605551275463989,-0.600310581606279,0.9577663211417372
18625196,1799.0,1,198020.0,227372,0.91,-0.57,9.96,-0.03,-0.02,-0.0,32.21,16.705706,-40.144382847141884,824.7044884553818,10.017714310160777,0.03605551275463989,-0.6168562953474671,0.5446549673092199
18665193,1811.0,1,197668.0,226958,0.92,-0.56,9.94,-0.03,-0.01,0.0,32.21,16.745703,-24.156815520396112,294.0611628119182,9.99817983434985,0.03162277660168379,-0.36730965929384807,0.19427480940346878
18705195,1802.0,1,197724.0,227736,0.9,-0.54,9.96,-0.04,-0.01,0.0,32.21,16.785705,-34.44998774409905,71.97253926859243,10.015148526107838,0.04123105625617661,-0.5279736584032394,0.04763121053822047
18745196,1782.0,1,198083.0,229356,0.88,-0.56,9.95,-0.03,-0.0,0.0,32.21,16.825706,-50.1420783755081,107.84794606776745,10.004523976681748,0.03,-0.7729082597522311,0.0713194962317896
18785195,1791.0,1,198473.0,228888,0.89,-0.56,9.98,-0.04,-0.01,0.0,32.21,16.865705,-42.248298857544256,216.98652616887216,10.035242896910868,0.04123105625617661,-0.64969588577452,0.1433829540790438
18825196,1793.0,1,198065.0,227712,0.91,-0.56,9.94,-0.04,-0.02,-0.0,32.21,16.905706,-37.378027202038325,259.74410174219133,9.997264625886423,0.044721359549995794,-0.5736768214941396,0.17161548873474697
18865196,1808.0,1,198006.0,228055,0.9,-0.55,9.99,-0.03,-0.02,-0.0,32.21,16.945706,-20.957676882439674,206.7599836889594,10.045526367493144,0.03605551275463989,-0.31737496509958857,0.13663043803713054
18905192,1825.0,1,198152.0,228490,0.91,-0.56,9.95,-0.03,-0.01,-0.0,32.21,16.985702,-4.505141915157082,73.99767173020304,10.007207402667339,0.03162277660168379,-0.0605707451873144,0.04896839164912723
18945195,1822.0,1,198218.0,228562,0.9,-0.55,9.94,-0.03,-0.01,-0.0,32.21,17.025705,-3.1873101169562705,-152.16797523617097,9.995804119729437,0.03162277660168379,-0.04000098085704322,-0.10036723789232126
18985192,1839.0,1,198241.0,228124,0.91,-0.56,9.97,-0.03,-0.01,-0.0,32.21,17.065702,11.455421284451484,-492.61604961574966,10.027093297661093,0.03162277660168379,0.18855438902372096,-0.3251627724732527
19025218,1839.0,1,197875.0,226918,0.91,-0.55,9.97,-0.03,-0.0,-0.0,32.21,17.105728,15.383970703325586,-883.3410897026707,10.026539781998574,0.03,0.2498743054321656,-0.5831558435768555
19065192,1822.0,1,197377.0,226072,0.9,-0.55,9.96,-0.03,-0.0,-0.0,32.21,17.145702,-1.8648138509131957,-1140.3959964809935,10.01569268697877,0.03,-0.019358409811702268,-0.7528874400653646
19105195,1824.0,1,197512.0,227057,0.89,-0.5300000000000002,9.94,-0.04,-0.0,-0.0,32.21,17.185705,0.2957023917703417,-1061.0029197932959,9.993828095379667,0.04,0.014364641949833218,-0.7004647346394048
19145192,1829.0,1,198249.0,228904,0.88,-0.55,9.96,-0.04,-0.01,0.0,32.21,17.225702,9.121362788391108,-594.2192631268579,10.013915318195975,0.04123105625617661,0.15212255207565456,-0.3922506793089511
19185195,1821.0,1,199145.0,231093,0.91,-0.56,9.94,-0.04,-0.01,-0.0,32.21,17.265705,-2.5283667977379367,75.14936071541315,9.997264625886423,0.04123105625617661,-0.029715670696950715,0.049728844007605334
19225195,1818.0,1,199929.0,232380,0.86,-0.54,9.98,-0.04,-0.02,-0.0,32.21,17.305705,0.5965110052359756,623.0649142397726,10.031530292034212,0.044721359549995794,0.019059901463187943,0.41151373582752354
19265196,1837.0,1,200235.0,232869,0.9,-0.57,9.92,-0.03,-0.02,-0.0,32.21,17.345706,15.393582237265614,798.7801374504685,9.97703863879458,0.03605551275463989,0.25002432988010254,0.5275372956835737
19305192,1817.0,1,200107.0,230893,0.88,-0.58,9.94,-0.03,-0.01,-0.0,32.21,17.385702,0.07927133620910938,583.3593528042702,9.995719083687776,0.03162277660168379,0.01098641430900345,0.3852964252288498
19345882,1814.0,1,199133.0,229377,0.91,-0.55,9.93,-0.03,-0.01,0.0,32.39,17.426392,-4.480784317059361,168.6645343429099,9.986766243384292,0.03162277660168379,-0.060190552469848016,0.11147627343669278
19386195,1831.0,1,199405.0,230118,0.88,-0.58,9.96,-0.03,0.0,-0.0,32.39,17.466705,14.397185983711394,-212.98534994954844,10.015607819798058,0.03,0.23447178657134538,-0.14052453437701118
19426175,1827.0,1,199380.0,229852,0.87,-0.55,9.95,-0.03,-0.01,-0.0,32.39,17.506685,10.57065974346799,-452.83931947046284,10.003094521196926,0.03162277660168379,0.17474432888450978,-0.29889846966235817
19466195,1808.0,1,199194.0,230091,0.89,-0.57,9.99,-0.03,-0.02,-0.0,32.39,17.546705,-6.266588367273069,-587.794872001862,10.045750345295268,0.03605551275463989,-0.0880647990186798,-0.38800869779699143
19506196,1799.0,1,199368.0,230823,0.91,-0.55,9.94,-0.04,-0.02,-0.0,32.39,17.586706,-17.417448397794857,-685.3984195997984,9.99670945861687,0.044721359549995794,-0.26211626994298526,-0.452455652591075
19546192,1805.0,1,199411.0,231183,0.9,-0.57,9.96,-0.03,-0.02,-0.0,32.39,17.626702,-5.241428539074256,-720.8135368347771,10.016810869732941,0.03605551275463989,-0.07206329101462298,-0.47584001223414696
19584195,1845.0,1,199408.0,231518,0.88,-0.57,9.96,-0.03,-0.02,-0.0,32.39,17.664705,28.23095595780641,-573.8061304025032,10.015033699394127,0.03605551275463989,0.4504002446301145,-0.3787720274129013
19624192,1842.0,1,199741.0,233022,0.92,-0.56,9.96,-0.03,-0.0,-0.0,32.39,17.704702,35.331827150318375,-156.87408533029947,10.018063685163915,0.03,0.5612362763368905,-0.1034746501939894
19664195,1834.0,1,200601.0,235165,0.91,-0.55,9.98,-0.03,0.0,-0.0,32.39,17.744705,18.579731986980963,443.52185632530905,10.036483447901462,0.03,0.2997562832007573,0.2929626829019678
19704176,1818.0,1,201535.0,236475,0.89,-0.56,9.98,-0.04,-0.0,-0.0,32.39,17.784686,13.15181297491497,957.0321481381368,10.035242896910868,0.04,0.2150330165179917,0.632030015772742
19744195,1823.0,1,201590.0,236167,0.87,-0.5300000000000002,9.97,-0.03,-0.02,0.0,32.39,17.824705,11.046344546170399,1086.0559599883024,10.021910995413998,0.03605551275463989,0.1821691947136989,0.7172235561133165
19784195,1814.0,1,201234.0,235366,0.9,-0.56,9.93,-0.03,-0.02,-0.0,32.39,17.864705,9.720012626492425,711.8801073314756,9.986415773439438,0.03605551275463989,0.16146675374305328,0.4701578002603803
19824195,1826.0,1,200635.0,232453,0.93,-0.57,9.95,-0.03,-0.01,-0.0,32.39,17.904705,18.31064634471903,-20.794478995714066,10.009610382027864,0.03162277660168379,0.2955561809923082,-0.01362221702252207
19864195,1822.0,1,199507.0,229807,0.9,-0.57,9.94,-0.03,-0.0,0.0,32.39,17.944705,18.933649169880574,-814.060281821344,9.996924527073313,0.03,0.30528050340444157,-0.537410200067891
19904223,1833.0,1,199076.0,229072,0.87,-0.55,9.96,-0.03,-0.01,-0.0,32.39,17.984733,28.1006067471133,-1428.7915309770303,10.013041495969144,0.03162277660168379,0.4483656507249934,-0.9433130386414004
19944192,1853.0,1,198921.0,228570,0.91,-0.56,9.94,-0.03,-0.01,0.0,32.39,18.024702,53.705905489141664,-1814.4742326758783,9.997264625886423,0.03162277660168379,0.8480334698266347,-1.1979766882009086
19984195,1853.0,1,198747.0,228543,0.89,-0.56,9.95,-0.03,-0.01,-0.0,32.39,18.064705,48.33812741545212,-2040.13467796846,10.005408537386167,0.03162277660168379,0.7642489306284344,-1.3469787365331278
20024205,1814.0,1,198949.0,229634,0.9,-0.57,9.93,-0.03,-0.01,-0.0,32.39,18.104715,20.432339838425964,-2088.98968200845,9.986981525966693,0.03162277660168379,0.3286732564841921,-1.3792373614941797
20064195,1808.0,1,199439.0,230972,0.89,-0.55,9.97,-0.03,-0.01,-0.0,32.39,18.144705,3.129709062970099,-1723.4751377187688,10.024744385768647,0.03162277660168379,0.058600066695679555,-1.137890608305926
20104196,1781.0,1,200191.0,233420,0.89,-0.56,9.96,-0.04,-0.01,-0.0,32.39,18.184706,-8.378431696392509,-600.2523874066122,10.015353213941085,0.04123105625617661,-0.12102812532614138,-0.39623430999956993
20144195,1774.0,1,201818.0,237891,0.91,-0.55,9.94,-0.04,0.01,0.0,32.39,18.224705,-27.953640260221572,1391.327245071367,9.99670945861687,0.04123105625617661,-0.4265735123957233,0.918792097358594
20184175,1743.0,1,204314.0,243638,0.91,-0.59,9.94,-0.04,0.01,0.0,32.39,18.264685,-46.64124677266376,3828.703998627408,9.998989948989847,0.04123105625617661,-0.718264502385936,2.528175294162574
20224175,1748.0,1,207081.0,246515,0.9,-0.6099999999999999,10.0,-0.04,0.01,0.0,32.39,18.304685,-47.00279888611188,5801.995062567745,10.058931354771241,0.04123105625617661,-0.7239078946435009,3.8311258848234884
20264172,1745.0,1,207960.0,245475,0.76,-0.5300000000000002,10.005000000000003,-0.04,-0.03,0.0,32.39,18.344682,-48.125395890956355,6377.484359771406,10.047811950867715,0.05,-0.7414302794114547,4.211117530968812
20304195,1744.0,1,206446.0,240707,0.86,-0.57,9.98,-0.03,-0.04,-0.0,32.39,18.384705,-43.637666551128625,5190.091759232849,10.033189921455689,0.05,-0.6713822391195681,3.427090319530079
20344193,1758.0,1,203670.0,233023,0.9,-0.57,9.95,-0.03,-0.04,-0.0,32.39,18.424703,-37.00730689147882,2716.33322895195,10.006867641774821,0.05,-0.5678903247416216,1.793684484434569
20384882,1749.0,1,200384.0,227374,0.9,-0.57,9.98,-0.03,-0.02,-0.0,32.35,18.465392,-35.820512509147136,-1.8298772360605065,10.036697664072582,0.03605551275463989,-0.5493658963689101,-0.0011000202133762624
20425192,1789.0,1,198920.0,225480,0.91,-0.55,9.94,-0.03,-0.02,-0.0,32.35,18.505702,-3.0023794695987727,-1982.6301685651938,9.99670945861687,0.03605551275463989,-0.03711443658122467,-1.3090089023501068
20465195,1809.0,1,198551.0,225335,0.91,-0.56,9.95,-0.03,-0.0,-0.0,32.35,18.545705,21.70202235194938,-2814.895166001957,10.007207402667339,0.03,0.34849146857552254,-1.8585477868121216
20505193,1796.0,1,198624.0,226264,0.89,-0.57,9.95,-0.03,0.0,-0.0,32.35,18.585703,9.690359013186145,-2713.459908566658,10.00597321603451,0.03,0.16100389661812736,-1.791570780224329
20545175,1788.0,1,199305.0,227936,0.89,-0.56,9.95,-0.03,-0.01,-0.0,32.35,18.625685,-2.8718397822148756,-2166.3660152346965,10.005408537386167,0.03162277660168379,-0.03507686956478145,-1.4303284250086508
20585195,1779.0,1,199725.0,228922,0.88,-0.57,9.95,-0.03,-0.01,-0.0,32.35,18.665705,-3.724241563029873,-1524.320165908191,10.005088705253941,0.03162277660168379,-0.04838183289166892,-1.0063899427956424
20625195,1803.0,1,200044.0,229844,0.92,-0.56,9.94,-0.03,-0.01,-0.0,32.35,18.705705,11.237126384760094,-864.4119024990675,9.99817983434985,0.03162277660168379,0.18514706902485425,-0.5706570307568064
20665195,1788.0,1,200540.0,231927,0.91,-0.57,9.94,-0.04,-0.01,-0.0,32.35,18.745705,5.07281976628495,-172.30253625676556,9.997829764503894,0.04123105625617661,0.0889296802999215,-0.11366195079802728
20705195,1767.0,1,201614.0,234387,0.9,-0.56,9.92,-0.04,-0.0,0.0,32.35,18.785705,-23.52305965360144,402.7284485923808,9.976472322419383,0.04,-0.35741749487598307,0.26602707483482585
20745193,1762.0,1,202210.0,234374,0.88,-0.56,9.98,-0.04,-0.01,0.0,32.35,18.825703,-22.61228170375646,509.13920117649167,10.03436096620009,0.04123105625617661,-0.3432013499847334,0.33628936683308924
20785195,1787.0,1,201306.0,231021,0.89,-0.56,9.98,-0.03,-0.03,-0.0,32.35,18.865705,-2.960790263677597,-165.7495614890547,10.035242896910868,0.042426406871192854,-0.036465279256557244,-0.10933506638639591
20825195,1787.0,1,199689.0,227310,0.89,-0.56,9.92,-0.03,-0.02,-0.0,32.35,18.905705,1.6767703216303327,-1586.9930127955088,9.975575171387362,0.03605551275463989,0.03592144599728469,-1.0477723948638997
20865196,1781.0,1,198065.0,221779,0.92,-0.57,9.96,-0.03,-0.01,-0.0,32.35,18.945706,-10.224715997114512,-3276.5475476473903,10.018627650531784,0.03162277660168379,-0.14984639561251678,-2.1633736963481525
20905195,1776.0,1,195997.0,219495,0.91,-0.55,9.96,-0.03,-0.01,-0.0,32.35,18.985705,-9.095668630541669,-4524.771622103912,10.016596228260378,0.03162277660168379,-0.13222332848071444,-2.987567513879914
20944195,1807.0,1,196583.0,223493,0.92,-0.57,9.92,-0.04,0.0,0.0,32.35,19.024705,13.938358848356934,-4748.551081516668,9.978862660644248,0.04,0.22731004858971526,-3.1353275601031037
20984173,1805.0,1,198409.0,227433,0.88,-0.55,9.99,-0.04,0.0,0.0,32.35,19.064683,19.483615649359344,-3747.9459327508416,10.043754278157147,0.04,0.3138648165830065,-2.4746348252972035
21024191,1792.0,1,199859.0,230442,0.88,-0.55,9.97,-0.03,-0.01,-0.0,32.35,19.104701,-1.7872417746469151,-1746.6942334643968,10.023861531366043,0.03162277660168379,-0.018147603296344482,-1.1532220183899344
21064196,1783.0,1,201359.0,234891,0.91,-0.57,9.91,-0.04,-0.02,-0.0,32.35,19.144706,-4.549035170718858,715.0019559781184,9.968003812198308,0.044721359549995794,-0.06125586594690357,0.47221913556586476
21104196,1823.0,1,203784.0,240549,0.91,-0.56,9.92,-0.04,-0.0,0.0,32.35,19.184706,29.948933443309034,2934.2043566057732,9.977379415457749,0.04,0.4772158003404465,1.937543299614959
21144195,1838.0,1,205812.0,242984,0.89,-0.58,9.99,-0.04,-0.01,0.0,32.35,19.224705,47.433569538367834,4240.1387489741965,10.046322710325406,0.04123105625617661,0.7501298735681046,2.7998428452801027
21184195,1815.0,1,206107.0,241742,0.88,-0.57,9.97,-0.04,-0.02,0.0,32.35,19.264705,23.06783371217605,4248.348436387706,10.024978802970109,0.044721359549995794,0.3698101359789241,2.805263645718541
21224195,1801.0,1,204557.0,237292,0.88,-0.55,9.98,-0.03,-0.03,-0.0,32.35,19.304705,7.9313093446544025,3072.330784113182,10.033807851458986,0.042426406871192854,0.13354725368665515,2.028747234804979
21264195,1806.0,1,202146.0,232682,0.94,-0.56,9.96,-0.03,-0.03,-0.0,32.35,19.344705,14.311684190394955,1308.1196846718158,10.019920159362549,0.042426406871192854,0.233137206740493,0.8638507144317583
21304195,1807.0,1,200462.0,230482,0.94,-0.55,9.93,-0.03,-0.03,-0.0,32.35,19.384705,12.947233205110836,-265.943966450326,9.989544534161706,0.042426406871192854,0.21183977314857427,-0.17549274657399264
21344195,1801.0,1,200028.0,231019,0.92,-0.56,9.92,-0.03,-0.0,-0.0,32.35,19.424705,8.264275799431735,-1091.1003204028445,9.978296447791076,0.03,0.13874445830260568,-0.7203378423720588
21384879,1797.0,1,200539.0,231365,0.89,-0.57,9.94,-0.04,0.01,-0.0,32.21,19.465389,3.481952260228175,-1053.6831471400376,9.996029211641991,0.04123105625617661,0.06409815800325913,-0.6956315388294456
21425175,1794.0,1,200770.0,231515,0.9,-0.57,10.005000000000003,-0.04,0.0,0.0,32.21,19.505685,-0.46802273124191707,-414.9720806098703,10.061556788091993,0.04,0.0024438142577731603,-0.27389499088432895
21465172,1801.0,1,201252.0,232686,0.9,-0.59,9.96,-0.03,-0.01,-0.0,32.21,19.545682,8.359979206816945,430.2002813699409,10.017968856010684,0.03162277660168379,0.1402382730202391,0.2841665380889614
21505196,1803.0,1,201757.0,233927,0.89,-0.57,9.95,-0.03,-0.01,-0.0,32.21,19.585706,7.909234991348779,1153.216134830753,10.00597321603451,0.03162277660168379,0.13320269966552764,0.7615689601335046
21545232,1798.0,1,202125.0,235191,0.89,-0.56,9.96,-0.04,-0.01,-0.0,32.21,19.625742,4.508148959364859,1551.0628816212125,10.015353213941085,0.04123105625617661,0.08011585031161186,1.024264445455393
21585195,1802.0,1,202378.0,235192,0.93,-0.56,9.95,-0.03,-0.02,-0.0,32.21,19.665705,9.121517239010803,1522.2972968485888,10.0090459085769,0.03605551275463989,0.15212496286347446,1.0052707266091956
21625195,1781.0,1,201767.0,233112,0.91,-0.57,9.97,-0.03,-0.02,-0.0,32.21,19.705705,-15.722129838338024,1054.622594028083,10.027656755194606,0.03605551275463989,-0.23565439272893426,0.6964683195986656
21665195,1752.0,1,200580.0,230275,0.91,-0.57,9.95,-0.03,-0.02,-0.0,32.21,19.745705,-36.83808144293111,243.95953858964398,10.007771979816486,0.03605551275463989,-0.5652489196700008,0.16119304966391462
21705195,1776.0,1,199421.0,227672,0.89,-0.55,9.96,-0.03,-0.01,-0.0,32.21,19.785705,-23.836433260523496,-704.3252399390185,10.014799049406834,0.03162277660168379,-0.36230887877680734,-0.46495290258676314
21745219,1769.0,1,198561.0,225974,0.89,-0.55,9.96,-0.03,-0.01,-0.0,32.21,19.825729,-17.32325453893586,-1528.4740646685468,10.014799049406834,0.03162277660168379,-0.26064601745648913,-1.009132733731179
21785195,1778.0,1,198042.0,225161,0.91,-0.59,9.93,-0.03,-0.02,-0.0,32.21,19.865705,-21.881296108828465,-1996.2978661042018,9.989049003784094,0.03605551275463989,-0.33179154682395046,-1.3180335895373405
21825195,1767.0,1,197867.0,225228,0.92,-0.56,9.94,-0.03,-0.0,-0.0,32.21,19.905705,-20.018590639106268,-1975.8315235505427,9.99817983434985,0.03,-0.3027169619025642,-1.304519803554998
21865193,1787.0,1,198139.0,226906,0.93,-0.55,9.94,-0.04,-0.0,-0.0,32.21,19.945703,-10.11679589277704,-1464.54680185122,9.998549894859753,0.04,-0.14816189299560406,-0.9669219994055256
21905196,1777.0,1,199061.0,228271,0.9,-0.55,9.93,-0.04,0.01,0.0,32.21,19.985706,-12.064327407884566,-582.0775110086308,9.985860003024277,0.04123105625617661,-0.1785605101379667,-0.38423356344439524
21945172,1786.0,1,199557.0,228765,0.88,-0.57,9.96,-0.04,0.01,0.0,32.21,20.025682,-8.41851990399762,461.82022943278906,10.015033699394127,0.04123105625617661,-0.12165385387813558,0.30504497348961
21984175,1808.0,1,200382.0,230876,0.89,-0.56,9.97,-0.04,-0.01,-0.0,32.21,20.064685,18.1314155784635,1423.5506958124195,10.025298000558388,0.04123105625617661,0.29275860498325795,0.9400690214492291
22024204,1815.0,1,201311.0,232580,0.88,-0.55,9.97,-0.04,-0.02,-0.0,32.21,20.104714,21.79378914816915,2105.7212500591772,10.023861531366043,0.044721359549995794,0.3499238375426106,1.3905015718366212
22064196,1809.0,1,201492.0,232503,0.9,-0.55,9.94,-0.04,-0.02,-0.0,32.21,20.144706,19.040524722619356,2432.9649069095444,9.995804119729437,0.044721359549995794,0.30694870183121015,1.6065783198515888
22104192,1808.0,1,201002.0,231209,0.91,-0.57,9.95,-0.03,-0.02,-0.0,32.21,20.184702,16.569770572904737,2467.857284345334,10.007771979816486,0.03605551275463989,0.2683832106607468,1.6296175179812065
22144196,1791.0,1,200333.0,230482,0.9,-0.57,9.94,-0.03,-0.02,-0.0,32.21,20.224706,-0.9829003901576595,2336.9132072798875,9.996924527073313,0.03605551275463989,-0.005592804768477356,1.5431560396551027
22184192,1793.0,1,200473.0,231075,0.91,-0.55,9.97,-0.04,0.0,-0.0,32.21,20.264702,5.460727770134782,2115.534383768289,10.026539781998574,0.04,0.09498445620676384,1.3969811168952149
22224176,1801.0,1,200396.0,229203,0.89,-0.59,9.99,-0.03,-0.01,-0.0,32.21,20.304686,5.665863060811824,1767.243337180188,10.046904996067196,0.03162277660168379,0.09818637058673954,1.1670069214170788
22264210,1787.0,1,199192.0,226161,0.87,-0.54,9.97,-0.03,-0.02,-0.0,32.21,20.34472,2.3371263109921068,1181.1349415191114,10.022444811521789,0.03605551275463989,0.04622880623384876,0.7800035572032881
22304195,1812.0,1,197982.0,222634,0.91,-0.56,9.96,-0.03,-0.02,-0.0,32.21,20.384705,16.50502910253006,262.0087028439507,10.017150293371863,0.03605551275463989,0.267372674422495,0.1731107893505906
22344196,1797.0,1,196434.0,218575,0.92,-0.55,9.94,-0.03,-0.01,-0.0,32.21,20.424706,10.064245729751086,-991.4457040821461,9.997624717901747,0.03162277660168379,0.16683981714793977,-0.6545365809312546
22384882,1798.0,1,195202.0,215755,0.91,-0.56,9.96,-0.03,0.0,-0.0,32.05,20.465392,7.258118758155449,-2434.0901771583117,10.017150293371863,0.03,0.12303956087445725,-1.6071048576835212
22425172,1791.0,1,194325.0,213090,0.87,-0.56,9.95,-0.03,0.01,-0.0,32.05,20.505682,-1.661908794083958,-3741.7410162013393,10.003649334118023,0.03162277660168379,-0.016191306691185736,-2.470537761346064
22465175,1776.0,1,193221.0,211491,0.89,-0.5300000000000002,9.94,-0.03,-0.01,-0.0,32.05,20.545685,-9.930016357564725,-4444.260818403719,9.993828095379667,0.03162277660168379,-0.14524648981116103,-2.9344067809537333
22505196,1806.0,1,193218.0,213230,0.92,-0.57,9.94,-0.03,-0.01,-0.0,32.05,20.585706,10.505092273791673,-4096.770498263134,9.998744921238865,0.03162277660168379,0.17372089979377497,-2.704961299671295
22545195,1790.0,1,194341.0,218429,0.89,-0.58,9.97,-0.04,-0.01,0.0,32.05,20.625705,3.3871887688575897,-2565.272507622913,10.026435059381775,0.04123105625617661,0.06261901424055141,-1.693723653099247
22585195,1776.0,1,197008.0,225507,0.89,-0.56,9.95,-0.04,0.0,-0.0,32.05,20.665705,-16.657422102104018,-244.4041556340486,10.005408537386167,0.04,-0.2502531764825653,-0.16127015684120827
22625175,1770.0,1,199594.0,230381,0.88,-0.54,9.99,-0.05,-0.02,0.0,32.05,20.705685,-21.841823259998968,2012.035222218116,10.043211637718285,0.05385164807134505,-0.3311754232799779,1.328641328539094
22665195,1763.0,1,200991.0,232032,0.9,-0.58,9.95,-0.04,-0.02,-0.0,32.05,20.745705,-25.2892547665177,3288.080171521925,10.00744223066014,0.044721359549995794,-0.38498566957290914,2.171205079415911
22705196,1776.0,1,200565.0,229419,0.9,-0.56,9.98,-0.03,-0.02,-0.0,32.05,20.785706,-19.74721150786985,3105.7090625838673,10.036134714121767,0.03605551275463989,-0.29848106109844935,2.0507866837455633
22745191,1775.0,1,198888.0,225670,0.91,-0.56,9.96,-0.02,-0.03,-0.0,32.05,20.825701,-12.910445914048038,1693.0719882349902,10.017150293371863,0.03605551275463989,-0.1917673991286751,1.1180320870987777
22785196,1791.0,1,197416.0,221978,0.9,-0.56,9.95,-0.03,-0.01,-0.0,32.05,20.865706,-3.6985776651218556,-163.3369624225911,10.006303013600975,0.03162277660168379,-0.047981250410289444,-0.10774204372688025
22825192,1792.0,1,195851.0,218202,0.89,-0.55,9.97,-0.03,0.01,0.0,32.05,20.905702,-0.19069966771205216,-1579.002123988687,10.024744385768647,0.03162277660168379,0.006772492673293452,-1.0424960656487035
22865175,1789.0,1,195247.0,219202,0.88,-0.57,9.96,-0.04,-0.01,0.0,32.05,20.945685,-1.7874116207914135,-2040.9618937235543,10.015033699394127,0.04123105625617661,-0.01815025438973098,-1.347524941437412
22905196,1791.0,1,196450.0,224424,0.92,-0.55,9.93,-0.04,-0.03,-0.0,32.05,20.985706,-5.927844815165782,-1604.9574790280076,9.987682413853577,0.05,-0.08277742088380795,-1.059634209026177
22945195,1775.0,1,197810.0,225652,0.93,-0.56,9.99,-0.04,-0.01,0.0,32.05,21.025705,-13.750883745333011,-747.8088380693224,10.048810874924456,0.04123105625617661,-0.20488561963859014,-0.49366482497027947
22984198,1790.0,1,198045.0,225029,0.9,-0.57,9.98,-0.04,-0.02,-0.0,32.05,21.064708,-8.09475917226668,-39.235437496271366,10.036697664072582,0.044721359549995794,-0.11660033949170646,-0.025798655769817304
23024206,1787.0,1,197659.0,224156,0.92,-0.57,9.97,-0.03,-0.03,-0.0,32.05,21.104716,-3.5648723530045032,124.4501267873525,10.028569190068941,0.042426406871192854,-0.04589427181126477,0.08228180258899136
23064196,1799.0,1,197510.0,224245,0.95,-0.55,9.92,-0.03,-0.02,-0.0,32.05,21.144706,3.045252844357713,-383.77936555882656,9.980551086989134,0.03605551275463989,0.05728180702441161,-0.2532986545187658
23104196,1801.0,1,197443.0,223351,0.93,-0.56,9.95,-0.03,-0.0,-0.0,32.05,21.184706,7.0715139081541,-1421.914870195377,10.0090459085769,0.03,0.12012688431538969,-0.9387724265690292
23144195,1793.0,1,196747.0,220785,0.88,-0.55,9.97,-0.03,-0.01,-0.0,32.05,21.224705,-0.5193530437317266,-2584.858375126647,10.023861531366043,0.03162277660168379,0.0016426100127730956,-1.706656067429264
23184229,1807.0,1,195939.0,219368,0.91,-0.55,9.96,-0.03,-0.0,-0.0,32.05,21.264739,10.716590250428492,-3269.7513740892814,10.016596228260378,0.03,0.1770221280246373,-2.1588862294388917
23224192,1803.0,1,195748.0,220388,0.92,-0.56,9.95,-0.04,-0.01,-0.0,32.05,21.304702,11.345755382443349,-2920.930511309563,10.008121701897913,0.04123105625617661,0.1868426366115742,-1.928562199953789
23264196,1797.0,1,196897.0,225905,0.92,-0.58,9.93,-0.04,-0.0,0.0,32.05,21.344706,-1.5646693309549426,-1406.929881396572,9.989379360100406,0.04,-0.014673515996730852,-0.928877940974257
23304192,1796.0,1,199935.0,234040,0.88,-0.56,9.95,-0.05,0.0,0.0,32.05,21.384702,7.861699019913164,758.1842578371754,10.004523976681748,0.05,0.13246072050629346,0.5007321140825797
23344175,1822.0,1,203345.0,238988,0.87,-0.56,10.005000000000003,-0.05,-0.03,0.0,32.05,21.424685,19.11869597505363,2628.0176520856826,10.058355978985832,0.05830951894845301,0.3081688607636099,1.7353703131776004
23384213,1792.0,1,203646.0,237964,0.91,-0.57,9.99,-0.03,-0.04,-0.0,32.05,21.464723,9.745658251144935,3407.172488893208,10.047541987968998,0.05,0.16186705100096202,2.2498409218912925
23424882,1786.0,1,202594.0,236324,0.95,-0.56,9.96,-0.03,-0.05,-0.0,32.11,21.505392,-21.715935483058814,2974.6248452888453,10.020863236268621,0.05830951894845301,-0.3292104669727648,1.96423267178454
23465195,1771.0,1,201445.0,233601,0.96,-0.56,9.93,-0.04,-0.04,-0.0,32.11,21.545705,-6.623095514528482,1924.5365869066068,9.99200180144099,0.0565685424949238,-0.0936294454410176,1.270866578202211
23505195,1865.0,1,201141.0,234391,0.96,-0.56,9.9,-0.04,-0.02,0.0,32.11,21.585705,56.51626134813657,1102.5993473584292,9.96218851457851,0.044721359549995794,0.8918997339300246,0.7281470416240635
23545193,1847.0,1,201857.0,235951,0.98,-0.58,9.92,-0.04,-0.02,-0.0,32.11,21.625703,68.83949319421366,1019.9691076819045,9.985148972348886,0.044721359549995794,1.0842505143613161,0.6735868596213156
23585195,1851.0,1,202221.0,237080,0.99,-0.57,9.97,-0.03,-0.01,-0.0,32.11,21.665705,47.30175565266986,1572.4803629129046,10.035232932025046,0.03162277660168379,0.748072417853372,1.0384062618399237
23625196,1806.0,1,202834.0,238373,0.97,-0.57,9.95,-0.03,0.0,-0.0,32.11,21.705706,23.761227432813676,2204.7954560143558,10.013406013939512,0.03,0.38063317533878666,1.4559195922835348
23665175,1809.0,1,203085.0,237985,0.94,-0.57,9.98,-0.03,-0.01,-0.0,32.11,21.745685,11.153348640695626,2337.853070751716,10.040363539235022,0.03162277660168379,0.18383939952266087,1.5437766250761478
23705201,1795.0,1,202564.0,236373,0.95,-0.58,9.93,-0.03,-0.01,-0.0,32.11,21.785711,10.672317043624945,1755.294618225112,9.992186947810774,0.03162277660168379,0.17633107668459705,1.1591172640296532
23745195,1775.0,1,201765.0,234421,0.96,-0.57,9.95,-0.03,-0.01,-0.0,32.11,21.825705,-20.61857409099935,727.8627987940492,10.012442259508914,0.03162277660168379,-0.31208197967217083,0.4807110620989699
23785195,1746.0,1,200922.0,232821,0.97,-0.56,9.94,-0.03,-0.01,-0.0,32.11,21.865705,-36.54579987075067,-171.09627973649114,10.00290457817128,0.03162277660168379,-0.5606867569827436,-0.11286546786943095
23825196,1754.0,1,200658.0,232944,0.95,-0.57,9.93,-0.03,-0.0,0.0,32.11,21.905706,-41.80363307958029,-441.1522585182427,9.991611481637985,0.03,-0.6427551894952656,-0.2911815832642724
23865192,1723.0,1,200934.0,233858,0.94,-0.59,9.93,-0.03,0.0,-0.0,32.11,21.945702,-57.5999238155928,-1.8074213291786996,9.99182665982552,0.03,-0.8893162287537151,-0.0010851927316782245
23903215,1774.0,1,201387.0,235620,0.97,-0.57,9.97,-0.03,-0.02,-0.0,32.11,21.983725,-20.341264086622594,710.7811240970415,10.03327962333354,0.03605551275463989,-0.30775350509427396,0.4694321491485909
23943195,1794.0,1,202343.0,237027,0.95,-0.57,9.94,-0.04,-0.0,-0.0,32.11,22.023705,12.79137083941927,996.2215182064293,10.001549879893615,0.04,0.209406949677012,0.657906488742801
23983195,1789.0,1,202194.0,233124,0.94,-0.59,9.97,-0.04,-0.0,0.0,32.11,22.063705,-2.2039898090527412,368.2135134613153,10.031580134754446,0.04,-0.024652537283015002,0.24323709927701598
24024204,1766.0,1,200060.0,228008,0.94,-0.6,9.98,-0.03,-0.04,-0.0,32.11,22.104714,-16.179639062354674,-1059.5002871912513,10.042111331786758,0.05,-0.2427955597047168,-0.6994725566114606
24064196,1777.0,1,198201.0,225253,0.99,-0.57,9.94,-0.02,-0.05,-0.0,32.11,22.144706,-12.671039238801328,-2586.814316242115,10.005428526554972,0.05385164807134505,-0.18803054978595785,-1.7079475619676359
24104192,1787.0,1,197449.0,224801,1.02,-0.55,9.92,-0.02,-0.02,-0.0,32.11,22.184702,5.985190197510647,-3375.1689107071475,9.987457133825407,0.0282842712474619,0.10317068190410403,-2.22849270772902
24144196,1791.0,1,197721.0,227476,0.98,-0.55,9.96,-0.03,0.0,-0.0,32.11,22.224706,0.6198830566635782,-3020.1025772638554,10.023198092425393,0.03,0.019424710986252362,-1.9940448366886785
24184172,1774.0,1,199053.0,231543,0.98,-0.55,9.93,-0.04,0.01,0.0,32.11,22.264682,-5.280418759897755,-1819.512284873109,9.993387813949782,0.04123105625617661,-0.07267188131774026,-1.2013032796025107
24224175,1808.0,1,200740.0,234756,0.95,-0.59,9.94,-0.04,0.01,0.0,32.11,22.304685,17.596985574158822,-532.695561551663,10.00270963289448,0.04123105625617661,0.2844167974365122,-0.351627000029233
24264175,1786.0,1,201445.0,234630,0.94,-0.57,9.99,-0.03,-0.0,-0.0,32.11,22.344685,6.09145891359451,180.59721937890595,10.05030347800503,0.03,0.10482940834287255,0.11935534373703434
24304196,1774.0,1,200822.0,233001,0.96,-0.56,9.93,-0.03,-0.02,-0.0,32.11,22.384706,-14.078625880761772,203.13420570455037,9.99200180144099,0.03605551275463989,-0.21000127893295037,0.13423636163719102
24344196,1775.0,1,200200.0,232221,0.96,-0.57,9.91,-0.03,-0.02,-0.0,32.11,22.424706,-7.630991282490227,-51.06367518422507,9.972692715610965,0.03605551275463989,-0.10936148229485257,-0.0336087602007483
24384195,1764.0,1,199977.0,232765,0.96,-0.56,9.92,-0.03,-0.02,-0.0,32.11,22.464705,-21.178709176905627,-62.334071079499054,9.982063914842461,0.03605551275463989,-0.3208250125280624,-0.04105052551204836
24424195,1748.0,1,200667.0,235333,0.98,-0.57,9.93,-0.04,0.0,0.0,32.11,22.504705,-36.96687835002328,332.0753808944176,9.994508492167087,0.04,-0.5672592839888545,0.21937533755626995
24464862,1762.0,1,201676.0,236237,0.95,-0.59,9.96,-0.04,0.0,0.0,32.33,22.545372,-21.725573697776145,825.4864891791211,10.022584497024708,0.04,-0.32936090787544353,0.5451713170376066
24503172,1779.0,1,201480.0,235392,0.94,-0.58,9.98,-0.04,-0.02,0.0,32.33,22.583682,-6.743446861564383,945.9829782908636,10.040936211330097,0.044721359549995794,-0.09550798475744554,0.6247343245075772
24543195,1767.0,1,200719.0,232889,1.02,-0.58,9.92,-0.03,-0.03,-0.0,32.33,22.623705,-16.69769065109151,485.22726006568155,9.989154118342555,0.042426406871192854,-0.2508817199459462,0.320500475694057
24583195,1758.0,1,199507.0,229896,0.97,-0.59,9.94,-0.02,-0.02,-0.0,32.33,22.663705,-27.68902621521814,-322.6519188069206,10.004628928650977,0.0282842712474619,-0.42244320642524086,-0.21293661958817153
24623195,1761.0,1,198565.0,228405,0.96,-0.57,9.94,-0.02,-0.01,-0.0,32.33,22.703705,-22.784497511339755,-1000.9481554804132,10.002504686327319,0.022360679774997897,-0.34588943095286007,-0.6608109845853082
24663193,1777.0,1,198515.0,229632,0.99,-0.55,9.95,-0.03,0.01,-0.0,32.33,22.743703,-8.982692038702176,-1204.8322469436937,10.014244854206432,0.03162277660168379,-0.13045990019483733,-0.7954342554513831
24703174,1796.0,1,199192.0,231633,0.97,-0.57,9.96,-0.04,0.01,0.0,32.33,22.783684,12.935065701593867,-942.4525286323646,10.023342755787613,0.04123105625617661,0.2116498530994652,-0.6221867223335182
24743175,1814.0,1,199823.0,232233,0.96,-0.57,9.95,-0.04,-0.0,-0.0,32.33,22.823685,27.229547529842282,-488.2436961919892,10.012442259508914,0.04,0.43476946732629457,-0.32227573741787113
24783195,1811.0,1,199755.0,231708,0.96,-0.57,9.96,-0.03,-0.02,-0.0,32.33,22.863705,29.08273373460998,-121.43729132407839,10.022379956876511,0.03605551275463989,0.46369546800728023,-0.08007597752715216
24823199,1823.0,1,199425.0,230953,0.96,-0.57,9.94,-0.03,-0.02,-0.0,32.33,22.903709,35.82191130382843,50.70525614742999,10.002504686327319,0.03605551275463989,0.5688858986585444,0.03358856897821727
24863196,1828.0,1,199195.0,230974,0.96,-0.57,9.94,-0.03,-0.01,-0.0,32.33,22.943706,46.88839816325268,63.56812649370304,10.002504686327319,0.03162277660168379,0.7416204061830872,0.042081834275737494
24903196,1838.0,1,199533.0,232577,0.94,-0.57,9.95,-0.04,-0.0,-0.0,32.33,22.983706,51.28050941196233,-26.387191311938153,10.010544440738474,0.04,0.8101759634413314,-0.017315046706385208
24943196,1821.0,1,200254.0,233797,0.95,-0.57,9.96,-0.04,-0.0,0.0,32.33,23.023706,40.41088259980827,-170.95071715333978,10.021427044089082,0.04,0.6405142037317392,-0.11276935389153837
24983193,1826.0,1,199946.0,231767,0.96,-0.57,9.96,-0.04,-0.01,0.0,32.33,23.063703,40.25386301836648,-245.72318007098997,10.022379956876511,0.04123105625617661,0.638063317518563,-0.16214109965375875
25023195,1833.0,1,199472.0,231230,0.93,-0.57,9.96,-0.04,-0.01,-0.0,32.33,23.103705,52.94388515638116,-19.355684248060218,10.019550888138651,0.04123105625617661,0.8361392518534774,-0.012672190693131018
25063193,1812.0,1,199857.0,234340,0.98,-0.57,9.9,-0.04,-0.01,0.0,32.33,23.143703,27.936053238753267,688.7667107645458,9.964702705048456,0.04123105625617661,0.44579716900273847,0.4548961826210011
25103195,1782.0,1,201648.0,238461,0.96,-0.57,9.97,-0.05,0.03,0.0,32.33,23.183705,1.6050813973853986,1765.5986997607686,10.03231777806106,0.05830951894845301,0.03480246838661981,1.1659209785796463
25143173,1783.0,1,202848.0,240111,0.92,-0.59,9.98,-0.04,-0.01,0.0,32.33,23.223683,2.461374496047021,2744.1560317820863,10.03966632911672,0.04123105625617661,0.048168170489994944,1.8120556908135101
25183195,1771.0,1,203193.0,240827,0.95,-0.54,9.95,-0.04,-0.03,0.0,32.33,23.263705,-11.283739931856326,3071.2087679488395,10.009825173298482,0.05,-0.16637648146072317,2.0280063752071347
25223195,1759.0,1,203141.0,240443,0.93,-0.59,9.97,-0.04,-0.04,0.0,32.33,23.303705,-17.015863064976724,2538.5366559020695,10.030648034897846,0.0565685424949238,-0.25584800743342956,1.676286623517771
25263195,1759.0,1,202225.0,238081,0.96,-0.6099999999999999,9.99,-0.03,-0.05,-0.0,32.33,23.343705,-24.144438133434033,1514.4213444151105,10.054541262534059,0.05830951894845301,-0.36711646321739727,1.000070289095063
25303193,1733.0,1,200969.0,236247,0.98,-0.58,9.9,-0.02,-0.05,-0.0,32.33,23.383703,-41.49166925888718,722.2261489067691,9.965279725125633,0.05385164807134505,-0.6378858106564872,0.47698922073750594
25343195,1749.0,1,200693.0,237027,1.02,-0.56,9.91,-0.03,0.0,-0.0,32.33,23.423705,-30.17258821102635,671.1199308109345,9.97808097782334,0.03,-0.4612086126198244,0.4432441345354501
25383173,1764.0,1,201525.0,239656,1.03,-0.54,9.93,-0.03,0.03,-0.0,32.33,23.463683,-14.14268446790354,1177.1234911325414,9.99786977310667,0.042426406871192854,-0.21100115618787416,0.7773548239545035
25423175,1757.0,1,202843.0,240851,0.97,-0.58,10.005000000000003,-0.04,0.02,0.0,32.33,23.503685,-14.286013573648857,1419.496877284925,10.068630741069018,0.044721359549995794,-0.2132383505937724,0.9373923128068233
25463176,1743.0,1,202687.0,237309,0.98,-0.59,9.99,-0.03,-0.02,-0.0,32.33,23.543686,-40.01486193378498,580.5485939595505,10.055277221439496,0.03605551275463989,-0.6148346301643759,0.3834405003914769
25503882,1719.0,1,200199.0,230125,0.98,-0.5300000000000002,9.92,-0.02,-0.02,-0.0,32.35,23.584392,-46.69043113093717,-1399.8122583122768,9.982369458199791,0.0282842712474619,-0.7190322108748348,-0.9241782231418224
25544195,1779.0,1,198188.0,226338,0.99,-0.58,9.94,-0.02,-0.03,-0.0,32.35,23.624705,-3.789791835477992,-3602.942413286825,10.00600319808064,0.03605551275463989,-0.049404993554420976,-2.378889993332939
25584196,1776.0,1,197294.0,225141,1.0,-0.57,9.93,-0.03,-0.02,-0.0,32.35,23.664706,9.13443042603021,-4720.16091279033,9.996489383778687,0.03605551275463989,0.15232652213234668,-3.1165817259041284
25624193,1779.0,1,197150.0,226633,0.98,-0.56,9.94,-0.03,0.01,-0.0,32.35,23.704703,2.429583493187102,-4063.8191167445134,10.003879247571913,0.03162277660168379,0.0476719512930198,-2.6832037278678493
25664175,1776.0,1,198595.0,234738,0.98,-0.5300000000000002,9.91,-0.04,0.01,0.0,32.35,23.744685,4.063718196983298,-2190.978253677356,9.972432000269542,0.04123105625617661,0.07317882234203905,-1.44657971768532
25704176,1757.0,1,203832.0,244106,0.99,-0.57,9.91,-0.05500000000000001,0.03,0.0,32.35,23.784686,-13.087519326979235,-542.9538829298663,9.975625293684603,0.06264982043070834,-0.19453130145530304,-0.3584004994602949
25744175,1744.0,1,205297.0,240678,0.78,-0.59,10.005000000000003,-0.04,-0.04,0.0,32.35,23.824685,-30.39383578025716,-287.67722507621244,10.05268745162208,0.0565685424949238,-0.46466202022763625,-0.18984306857212707
25784196,1727.0,1,201290.0,234197,0.87,-0.57,10.005000000000003,-0.014999999999999996,-0.05,0.0,32.35,23.864706,-41.565372207362266,-1311.8726231125688,10.05891768531784,0.05220153254455275,-0.639036224755349,-0.8661122835955471
25824175,1729.0,1,200113.0,233454,1.07,-0.5300000000000002,9.94,-0.03,-0.05,0.0,32.35,23.904685,-42.84650167132753,-2296.4164504933697,10.011463429489217,0.05830951894845301,-0.6590331099316745,-1.516199837762953
25864172,1735.0,1,200458.0,237220,1.2750000000000001,-0.56,9.884999999999998,-0.04,0.03,0.0,32.35,23.944682,-36.10598709845689,-1882.94512491599,9.982607374829481,0.05,-0.5538218102665712,-1.2431875499524372
25904175,1749.0,1,203967.0,246331,1.17,-0.6099999999999999,9.884999999999998,-0.05500000000000001,0.03,0.0,32.35,23.984685,-18.896040953225608,82.05140305962739,9.972673914251883,0.06264982043070834,-0.28519531572654244,0.05428621535210583
25944175,1783.0,1,208501.25,251641,0.94,-0.6099999999999999,10.005000000000003,-0.05,0.03,0.0,32.35,24.024685,10.280865510497598,2342.8771836741917,10.06755804552425,0.05830951894845301,0.17022099056120402,1.5470940124699846
25984175,1801.0,1,208501.25,247867,0.78,-0.5300000000000002,9.98,-0.03,-0.01,0.0,32.35,24.064685,33.77809194727392,3250.4756336164087,10.024455097410533,0.03162277660168379,0.5369843444879974,2.1463750602814375
26024205,1821.0,1,207322.0,238417,1.02,-0.57,9.97,-0.02,-0.05,-0.0,32.35,24.104715,50.51611467216704,2102.815389053932,10.038236896985447,0.05385164807134505,0.7982446838392193,1.3885828516932266
26063195,1819.0,1,203584.0,232592,1.06,-0.6099999999999999,9.94,-0.02,-0.05,-0.0,32.35,24.143705,48.95786424387983,-314.87108662928534,10.014953819164619,0.05385164807134505,0.7739222747721649,-0.20779898932827498
26103192,1822.0,1,201849.0,232325,1.04,-0.57,9.884999999999998,-0.03,-0.04,-0.0,32.35,24.183702,55.17105085344889,-2362.969259073675,9.955888960811082,0.05,0.870902621181561,-1.5601442019951084
26143195,1839.0,1,202811.0,237610,1.02,-0.5300000000000002,9.92,-0.04,0.0,-0.0,32.35,24.223705,66.81981086449956,-2747.2299183858095,9.986375718948292,0.04,1.0527257100570406,-1.8138688866945554
26183172,1822.0,1,205461.0,242983,1.02,-0.6099999999999999,9.95,-0.05,0.02,0.0,32.35,24.263682,55.98010282100558,-1329.3995562167543,10.020728516430328,0.05385164807134505,0.8835309462275222,-0.8776851976262687
26223175,1835.0,1,207268.0,245155,1.03,-0.6099999999999999,9.96,-0.04,0.0,0.0,32.35,24.303685,64.04047039817142,942.7800543730674,10.031679819451975,0.04,1.009343558811329,0.6226194557551686
