timestamp_us,ecg,leads,ir,red,accX,accY,accZ,gyroX,gyroY,gyroZ,temp,time_sec,ecg_filtered,ppg_filtered,accel_magnitude,gyro_magnitude,ecg_norm,ppg_norm
1949968,1726.0,1,189527.0,235626,1.99,-0.13,9.75,0.18,0.33,0.32,33.73,0.030468,8.340346794955993,11.456751176218834,9.951859122797106,0.4936598018878993,0.12063502503824475,0.006212701190765951
1990162,1728.0,1,189431.0,234917,1.94,0.01,9.96,0.22,0.16,0.33,33.73,0.070662,14.545388687539543,-86.93329038907467,10.147181874786714,0.4276680956068619,0.21498180423138505,-0.06251574707306594
2030128,1742.0,1,189448.0,235071,2.07,0.23,9.69,0.18,0.17,0.33,33.73,0.110628,43.91654249015846,124.89656739725295,9.91130162995759,0.4125530268947254,0.6615660192026844,0.08545387657976106
2070128,1776.0,1,190192.0,235805,1.97,0.4,9.78,0.08,0.13,0.3,33.73,0.150628,75.1526360664297,683.7167680812935,9.984452914406477,0.33660065359413666,1.1365063781097051,0.47580684971078385
2110126,1778.0,1,190474.0,236319,1.95,0.46,9.78,0.03,0.15,0.32,33.73,0.190626,91.67946567698564,1304.7629131746014,9.983110737640848,0.354682957019364,1.3877944710867147,0.9096265450116751
2150127,1818.0,1,191628.0,237208,1.78,0.46750000000000025,9.9,0.01,0.24,0.33,33.73,0.230627,139.51212684317693,1604.9977188854107,10.069605565760757,0.4081666326391711,2.115083279025441,1.1193497241364996
2190125,1855.0,1,192303.0,238303,1.64,0.46750000000000025,10.04,0.05,0.2,0.3,33.73,0.270625,170.27235259165684,1416.6112843464857,10.18379871413413,0.3640054944640259,2.5827881353120183,0.9877560474408347
2230130,1743.0,1,189259.0,238579,1.6,0.46750000000000025,9.9,0.05,0.2,0.28,33.73,0.31063,95.3607359298703,912.1735632322226,10.039350389840967,0.3477067730142742,1.4437676615520856,0.6353908967978223
2270129,1744.0,1,189197.0,239198,1.47,0.45,10.03,0.03,0.22,0.21,33.73,0.350629,55.41957899205444,425.0099879689217,10.147132599902298,0.3056141357987225,0.8364680526913164,0.29509226447853565
2310128,1739.0,1,190036.0,239528,1.47,0.33,10.07,0.0,0.08,0.09,33.73,0.390628,122.53025029815029,150.35579703891614,10.182077391181036,0.12041594578792295,1.8568762621487656,0.10323792585372016
2350126,1775.0,1,190297.0,237026,1.64,0.19,10.04,-0.08,-0.1,-0.01,33.73,0.430626,87.74212276245045,33.01693587328704,10.17483660802472,0.1284523257866513,1.3279277322320866,0.0212731485179252
2390179,1629.0,1,189706.0,235046,1.83,0.18,9.91,-0.0,-0.15,-0.03,33.73,0.470679,31.68324508410933,-70.44734546336225,10.079156710757106,0.15297058540778355,0.47556047255971423,-0.05099981116246576
2430178,1777.0,1,189150.0,234384,1.75,0.39,9.63,-0.04,-0.09,0.05,33.73,0.510678,107.08686702603984,-172.78206559416347,9.795483653194466,0.11045361017187261,1.6220618166072567,-0.1224837378506769
2470169,1715.0,1,188879.0,234631,1.73,0.46750000000000025,9.84,-0.05,-0.11,0.07,33.73,0.550669,117.88624718422184,-136.588680643634,10.001852640886087,0.1396424004376894,1.7862648554980307,-0.09720155333798255
2510166,1701.0,1,189826.0,235506,1.69,0.46750000000000025,9.79,-0.09,-0.03,0.06,33.73,0.590666,63.6334763191815,135.03125577979569,9.945790881071249,0.11224972160321824,0.9613591929693266,0.09253326586640352
2550170,1654.0,1,190019.0,236856,1.44,0.46750000000000025,10.06,-0.18,0.02,0.02,33.73,0.63067,46.35847784462596,517.453396939278,10.17328640361609,0.18220867158288595,0.6986952988562569,0.35966680830099246
2590148,1632.0,1,190373.0,237815,1.12,0.15,10.33,-0.15,0.06,-0.05,33.73,0.670648,27.50308925352748,696.8755575674022,10.391621625136281,0.16911534525287764,0.4120017978612882,0.4849986659558305
2630170,1600.0,1,189534.0,238068,1.31,0.07,10.08,-0.03,0.04,-0.08,33.73,0.71067,-12.71546755146914,412.2272039038009,10.165008607964875,0.09433981132056604,-0.19951563651463036,0.28616309950095636
2670187,1506.0,1,189596.0,237508,1.25,0.02,10.0,-0.01,0.05,0.01,33.73,0.750687,-79.57155086721363,-287.89129669357277,10.077842030911182,0.05196152422706632,-1.2160528717987038,-0.2028910505059434
2710151,1509.0,1,189492.0,236511,1.48,-0.01,9.78,0.01,-0.12,0.1,33.73,0.790651,-95.7695812989061,-998.773800288612,9.891354811146954,0.15652475842498528,-1.4623416200389445,-0.6994641852735707
2750170,1502.25,1,186417.0,236244,1.76,-0.19,9.58,-0.12,-0.25,0.08,33.73,0.83067,-79.17480345489693,-1205.3337035403952,9.742181480551467,0.28861739379323625,-1.2100203838391892,-0.8437525847718187
2790184,1502.25,1,188997.0,236851,1.92,-0.59,9.55,-0.29,-0.32,0.02,33.73,0.870684,-87.75452561037201,-665.2748607008901,9.758944615069808,0.43231932642434573,-1.3404738385867878,-0.46650499295239645
2830184,1502.25,1,190201.0,237415,2.24,-1.13,9.63,-0.35,-0.33,-0.04,33.73,0.910684,-80.34590114770731,375.19647739270425,9.95145215533894,0.48270073544588676,-1.2278267576477588,0.2602960063409127
2870204,1502.25,1,191442.0,238538,2.35,-1.26,9.43,-0.21,-0.18,-0.14,33.73,0.950704,-76.61168759478961,1327.4651710840187,9.79974489463884,0.31,-1.1710485718375632,0.9254847653495953
2909200,1502.25,1,190736.0,239289,2.23,-1.27,9.25,-0.18,0.1,-0.23,33.73,0.9897,-79.03692503697148,1655.2645700865064,9.599390605658257,0.3087069808086626,-1.2079239621104239,1.1544626545428516
2949183,1502.25,1,190399.0,239432,2.02,-1.34,9.38,-0.19,0.24,-0.36,33.73,1.029683,-73.3395593878426,1204.1062990437383,9.688157719607997,0.4725462940284264,-1.121296327972544,0.8393148266035207
2989868,1502.25,1,190112.0,235631,1.77,-1.4,9.66,-0.11,0.3,-0.41,33.91,1.070368,-75.09238614368853,245.01712033884485,9.920105846209506,0.519807656734681,-1.147947809422699,0.16936175055693017
3030183,1502.25,1,188373.0,233337,1.72,-1.43,10.01,-0.11,0.26,-0.4,33.91,1.110683,-75.1032718041968,-738.7920749569776,10.256870867862185,0.48959166659574593,-1.1481133243420376,-0.5178590118766334
3070184,1502.25,1,188503.0,232570,1.87,-1.3,9.93,-0.16,0.14,-0.37,33.91,1.150684,-72.82905341380686,-1335.2367635537526,10.187826068401442,0.42673176586703737,-1.1135341572663806,-0.9344938386365879
3110183,1502.25,1,188186.0,232288,2.14,-1.33,9.8,-0.31,0.06,-0.36,33.91,1.190683,-77.21492032262336,-1384.8329285394716,10.118720274817365,0.47885279575251516,-1.1802206396431052,-0.9691382742428418
3150183,1502.25,1,189304.0,232805,2.17,-1.21,9.76,-0.41,0.11,-0.39,33.91,1.230683,-75.48311014794585,-1000.8507671644127,10.071275986686096,0.5764546816532935,-1.1538887123196133,-0.7009150100541907
3190183,1502.25,1,188466.0,234043,1.91,-0.91,9.5,-0.44,0.07,-0.38,33.91,1.270683,-77.92244247644055,-469.44910398506653,9.73273856630291,0.585576638878294,-1.1909784133335988,-0.3297147225647404
3230181,1505.0,1,189584.0,234521,2.04,-0.91,9.67,-0.37,0.19,-0.26,33.91,1.310681,-78.97480618417183,-99.59815459689064,9.924646089407924,0.4905099387372288,-1.2069794537911769,-0.07136254142976614
3270182,1565.0,1,190632.0,234023,1.7,-0.92,10.21,-0.25,0.25,-0.02,33.91,1.350682,-17.460918387913125,-73.04414093377083,10.391366608872964,0.3541186241925155,-0.27166954135337273,-0.052813752088807286
3310184,1589.0,1,189633.0,233330,1.79,-0.82,10.03,-0.19,0.04,0.14,33.91,1.390684,0.42460670412784607,-344.5563777547251,10.22141868822523,0.23937418407171648,0.0002773231197003599,-0.2424733398323767
3350170,1522.0,1,188702.0,233502,2.0,-0.91,9.92,-0.32,-0.24,0.15,33.91,1.43067,-68.23795467241446,-657.4564461808388,10.16043798268559,0.42720018726587655,-1.043727154073417,-0.4610435916835501
3390182,1534.0,1,190022.0,233972,2.1,-1.68,10.64,-0.51,-0.44,0.16,33.91,1.470682,-55.42800594973566,-695.1142203327455,10.974607054468967,0.6923149572268391,-0.8489537062005583,-0.48734869676690173
3430183,1563.0,1,190570.0,234803,2.31,-2.43,10.825,-0.35,-0.6100000000000001,0.11,33.91,1.510683,-37.1547020916661,-290.96663985322766,11.332326548418907,0.7118286310622804,-0.5711107207588233,-0.20503927160514485
3470183,1519.0,1,189768.0,235352,2.39,-2.77,10.49,-0.07,-0.6100000000000001,0.01,33.91,1.550683,-74.33020828194779,434.0309393964291,11.10968496403026,0.6140846847137617,-1.1363590034690274,0.3013936744953669
3510183,1567.0,1,192137.0,235205,2.66,-2.43,9.77,0.31,-0.31,0.0,33.91,1.590683,-35.21244398894149,1102.6866403476317,10.413135934962147,0.43840620433565947,-0.5415789626295401,0.7684700982678269
3550168,1712.0,1,192303.0,234604,2.64,-2.19,9.28,0.41,0.1,-0.06,33.91,1.630668,104.27414636944803,1286.686129253535,9.893639370828108,0.42626282971894225,1.5792947991860478,0.896999359488321
3590169,1790.0,1,192037.0,233655,2.25,-1.87,9.39,0.37,0.11,-0.15,33.91,1.670669,196.47502944347613,776.5284162024767,9.83521733364342,0.4141255848169731,2.9811961090216843,0.5406386198238661
3630169,1713.0,1,190287.0,231119,2.2,-1.14,8.82,0.34,-0.13,-0.24,33.91,1.710669,86.03481714561693,-264.57546976490164,9.161440934700174,0.4360045871318329,1.3019683932243795,-0.18660423347342686
3670180,1633.0,1,189645.0,230194,2.34,-0.66,8.785,0.32,-0.21,-0.31,33.91,1.75068,46.88071654090805,-1380.5511540735558,9.115230386556338,0.49254441424099005,0.7066358639349763,-0.9661473240391792
3710179,1773.0,1,189949.0,229939,1.95,-0.56,8.84,0.22,0.23,-0.26,33.91,1.790679,137.87498262768688,-2081.2912098380125,9.069823592551291,0.41097445176069036,2.090190734143386,-1.4556356493087819
3750169,1685.0,1,189042.0,230061,1.3,-0.82,10.06,0.25,0.5900000000000001,-0.2,33.91,1.830669,92.35051201913843,-2102.155592376136,10.176738180772855,0.6712674578735365,1.3979976352502195,-1.4702100575823736
3790169,1761.0,1,190157.0,231512,1.06,-0.82,10.05,0.22,0.42,-0.21,33.91,1.870669,133.0175157488449,-1508.2470550468086,10.138959512691626,0.5185556864985669,2.016333641316365,-1.055346809921289
3830169,1806.0,1,191523.0,234195,1.16,-0.84,9.83,0.01,0.14,-0.3,33.91,1.910669,200.3747114383428,-603.0750454416126,9.933785783879175,0.33120990323358385,3.040490218950725,-0.4230565227916205
3870170,1767.0,1,192574.0,236467,1.25,-1.05,9.87,-0.14,-0.06,-0.36,33.91,1.95067,144.84384115259743,280.481503771387,10.004094161891919,0.39089640571384127,2.196151236563816,0.19413470525005994
3910203,1770.0,1,193300.0,238011,1.44,-1.05,9.69,-0.2,-0.12,-0.38,33.91,1.990703,163.49264375733776,961.5545298396856,9.852522519639322,0.4458699361921591,2.4797036270269404,0.6698850097660214
3950203,1759.0,1,193683.0,238621,1.64,-1.16,9.91,-0.27,-0.15,-0.39,33.91,2.030703,128.87247231211137,1444.6728359315944,10.111542908972893,0.49749371855331,1.953308845571006,1.0073578980512963
3990891,1710.0,1,194296.0,239608,2.27,-1.19,9.88,-0.28,-0.26,-0.56,33.79,2.071391,114.65070979749808,1803.7329379971493,10.207026991244808,0.6779380502671317,1.7370689698487756,1.2581723428449
4029204,1774.0,1,194862.0,240400,2.3,-1.07,9.45,-0.41,-0.21,-0.73,33.79,2.109704,133.6025501108791,2038.2329961503503,9.784549044284054,0.8631917515824626,2.025229005558984,1.421977793663339
4069204,1591.0,1,195191.0,240652,2.48,-1.3,9.9,-0.42,-0.06,-0.81,33.79,2.149704,0.08152924764061738,2036.9472040951384,10.288362357537764,0.9143850392476902,-0.004939120796984918,1.4210796286525433
4109240,1600.0,1,194900.0,239698,2.34,-0.84,9.73,-0.22,0.13,-0.82,33.79,2.18974,-36.85578886272249,1676.0431605555534,10.042614201491563,0.858894638474359,-0.566565787638749,1.1689771344366278
4149182,1599.0,1,194174.0,238442,2.06,-0.46,9.8,-0.17,0.38,-0.79,33.79,2.229682,-2.575480510760931,954.9812637706124,10.024729422782444,0.8929725639682331,-0.04533857616400677,0.6652933827094061
4189180,1592.0,1,193467.0,237825,1.7,-0.52,10.31,-0.2,0.52,-0.84,33.79,2.26968,-31.34037555169771,46.69738313440675,10.462146051360591,1.0079682534683323,-0.4827047129156092,0.030829358647056902
4229182,1570.0,1,192794.0,235535,1.12,-0.93,10.78,-0.22,0.29,-1.05,33.79,2.309682,-46.078532678002524,-779.9275523618094,10.877853648583436,1.1113055385446435,-0.70679629524179,-0.5465933988699537
4269183,1502.25,1,192051.0,234513,1.4,-1.15,10.57,-0.24,-0.2,-1.31,33.79,2.349683,-112.51914890048954,-1300.4796805744093,10.724150315992405,1.3467367968537876,-1.7170164124808702,-0.91021495490665
4309246,1502.25,1,192592.0,234693,1.83,-1.15,9.75,-0.27,-0.11,-1.31,33.79,2.389746,-121.65110028753826,-1431.4829921031057,9.986686137052672,1.342050669684271,-1.8558664341295799,-1.0017247680498396
4349202,1535.0,1,192859.0,235547,1.64,-1.24,9.53,-0.21,0.27,-1.31,33.79,2.429702,-81.1767258909028,-1226.3332286819807,9.749261510494012,1.353920233987217,-1.2404593296676434,-0.8584213942803575
4389181,1503.0,1,193444.0,235889,1.02,-1.02,9.42,-0.18,0.43,-1.26,33.79,2.469681,-124.08109566287536,-806.9465993478224,9.529805874203314,1.3434656675925887,-1.8928141680991606,-0.5654670281862286
4429181,1502.25,1,193471.0,236326,0.75,-0.91,9.81,-0.04,0.37,-1.17,33.79,2.509681,-121.0523304030383,-311.75318042398374,9.880622450028136,1.2277621919573838,-1.8467622232220047,-0.21955930488771225
4469181,1535.0,1,193890.0,237751,0.84,-0.59,9.35,-0.07,0.35,-1.13,33.79,2.549681,-95.24077489655919,111.77049118477102,9.40617882032869,1.185031645147082,-1.4543011939238888,0.07628491155520616
4509179,1515.0,1,194581.0,238805,0.76,-0.71,9.46,-0.24,0.29,-1.1,33.79,2.589679,-119.47230404983512,327.06307003317,9.51700057791319,1.162626337221035,-1.8227381473099344,0.22667335160022584
4549181,1502.25,1,194763.0,239268,0.48,-1.02,9.73,-0.32,0.21,-1.03,33.79,2.629681,-131.21857614632484,295.3103669262854,9.795085502434372,1.0988175462741756,-2.0013385434095388,0.2044931189465979
4589178,1517.0,1,194962.0,239648,0.42,-1.04,9.67,-0.22,0.11,-0.9,33.79,2.669678,-132.9904430661417,169.7669600751674,9.734829222949934,0.9330058949438638,-2.028279527844051,0.11679721593281282
4629180,1535.0,1,195095.0,240341,0.71,-1.16,9.62,-0.27,0.01,-0.88,33.79,2.70968,-103.46867964158737,249.05145461535034,9.715662612503584,0.9205433178292045,-1.5794053149982676,0.17217985623297877
4669178,1575.0,1,193385.0,240890,1.15,-1.7,9.56,-0.37,-0.08,-0.98,33.79,2.749678,-90.29991895205538,730.8564302677843,9.77783718416297,1.0505712731652241,-1.3791761822171384,0.5087353431051964
4709201,1558.0,1,195892.0,242371,1.29,-1.93,9.88,-0.44,-0.18,-1.09,33.79,2.789701,-93.34876458340163,1440.8622028865182,10.1490590696872,1.1891593669479295,-1.4255334462862823,1.0046960545158694
4749201,1648.0,1,196395.0,243467,1.66,-1.81,9.62,-0.46,-0.26,-1.11,33.79,2.829701,-26.182336000967794,1835.0916291962367,9.92854974303901,1.2293494214420895,-0.4042774553746324,1.2800773461502164
4789203,1650.0,1,196108.0,242734,2.05,-1.69,9.65,-0.39,-0.07,-1.01,33.79,2.869703,-24.89879631286136,1378.6420994934883,10.009050904056787,1.0849423947841654,-0.3847614170245691,0.9612334124741918
4829203,1573.0,1,195000.0,239222,2.0,-1.46,9.71,-0.37,0.21,-0.9,33.79,2.909703,-104.16046882496858,24.665760932006243,10.020763443969727,0.9954898291795854,-1.5899238711115922,0.015439597827603218
4869182,1630.0,1,192169.0,235834,1.78,-1.42,10.08,-0.41,0.25,-0.84,33.79,2.949682,-73.70240459025794,-1647.5278921598222,10.333982775290464,0.9675742865537508,-1.1268133376537337,-1.1526387274301604
4909180,1687.0,1,189717.0,234913,1.8,-1.34,10.32,-0.37,0.15,-0.83,33.79,2.98968,6.0608481389743325,-2805.9227291660013,10.561155239840005,0.9210320298447823,0.08597557227548229,-1.961812891376776
4949181,1775.0,1,191430.0,234665,1.85,-1.19,10.3,-0.29,0.22,-0.78,33.79,3.029681,45.79573698352364,-2950.333906667364,10.532264713726104,0.8607554821202129,0.6901389041236385,-2.062688508296146
4989183,1808.0,1,192500.0,236134,1.99,-1.27,10.03,-0.33,0.24,-0.78,33.79,3.069683,115.97767567150338,-2209.5396504093087,10.304072010617936,0.8802840450672726,1.7572452971772416,-1.545221100971307
5029868,1861.0,1,193598.0,238053,1.8,-1.76,10.61,-0.36,0.15,-0.77,33.77,3.110368,115.90120519882235,-1137.271159319295,10.904572435451103,0.8631338250816034,1.7560825745194857,-0.7962088194193023
5070184,1727.0,1,192467.0,239200,1.82,-1.79,10.31,-0.18,-0.01,-0.69,33.77,3.150684,14.168013070391986,-255.37369097795826,10.621327600634489,0.7131619731870172,0.20924386166141615,-0.18017651002466728
5110203,1767.0,1,193759.0,239749,2.1,-1.59,9.75,-0.04,-0.02,-0.55,33.77,3.190703,15.969679339039258,247.37479614689266,10.099534642744684,0.5518151864528559,0.2366379409553787,0.17100865909785978
5150201,1803.0,1,194139.0,240203,2.08,-1.5,9.61,-0.07,-0.06,-0.46,33.77,3.230701,64.89554614890092,491.56195952502827,9.946280711904325,0.46914816422959604,0.9805487851771054,0.34158084870089805
5190203,1821.0,1,194413.0,240337,2.07,-1.64,9.8,-0.08,-0.09,-0.44,33.77,3.270703,66.43973210576354,694.2026446185256,10.149605903679218,0.4561797891182818,1.004027912961786,0.48313155464661656
5230201,1883.0,1,194510.0,240260,1.89,-1.6,9.64,-0.01,-0.02,-0.35,33.77,3.310701,125.64639722865154,977.1165600075974,9.952974429787309,0.3507135583350036,1.904256832896689,0.6807555630075884
5270203,1919.0,1,194468.0,239937,1.91,-1.5,9.49,0.09,-0.02,-0.29,33.77,3.350703,155.28458296342114,1295.1377547366817,9.795825641567943,0.3043024810940588,2.3549012304060386,0.9029030779492818
5310180,1843.0,1,194164.0,239432,2.05,-1.26,9.33,0.13,0.02,-0.19,33.77,3.39068,77.86507223889822,1480.32713004512,9.635299683974546,0.23108440016582688,1.1777485842171684,1.0322635111538043
5350170,1826.0,1,194083.0,239685,2.14,-1.23,9.33,0.09,0.08,-0.12,33.77,3.43067,47.75853929053618,1372.5124491215963,9.650979224928422,0.16999999999999998,0.7199830339563212,0.9569516645273695
5390170,1866.0,1,194782.0,239879,2.16,-1.4,9.36,0.0,0.12,-0.09,33.77,3.47067,100.67019065255177,980.0196333859384,9.707481650768132,0.15,1.5244971652409376,0.6827834484044759
5430169,1907.0,1,194494.0,237512,1.98,-2.01,9.91,-0.11,0.14,-0.06,33.77,3.510669,116.63080332905834,548.521713230929,10.303814827528686,0.18788294228055938,1.7671760102907053,0.38136897586718954
5470179,1861.0,1,191342.0,236711,1.95,-2.32,9.85,-0.08,-0.14,-0.1,33.77,3.550679,94.1395800093787,417.3855794440005,10.305697453350744,0.18973665961010278,1.4252001595133448,0.28976638232104496
5510203,1831.0,1,192883.0,237608,2.17,-2.37,9.62,-0.12,-0.18,-0.16,33.77,3.590703,39.62208357535201,720.8507678478153,10.142494762138158,0.2690724809414742,0.5962693823703809,0.5017460823930759
5550215,1796.0,1,194098.0,239477,2.4,-2.13,9.52,-0.09,-0.12,-0.26,33.77,3.630715,20.74582732373716,1209.233302230507,10.046258009826344,0.3001666203960727,0.3092585915660768,0.8428961948768179
5590203,1867.0,1,195116.0,238617,2.37,-1.96,9.56,-0.02,0.07,-0.29,33.77,3.670703,85.40142986417641,1417.7763041762817,10.042514625331647,0.29899832775452106,1.292337829721297,0.9885698493645317
5630183,1808.0,1,193575.0,235241,1.92,-1.45,9.79,0.16,0.28,-0.23,33.77,3.710683,24.921946959918948,1063.407638030559,10.08131935809991,0.3961060464067672,0.3727558965028743,0.741032515808708
5670169,1751.0,1,191429.0,233291,1.38,-0.92,9.71,0.2,0.45,-0.13,33.77,3.750669,-24.332267210619165,288.7859118078485,9.85062942151414,0.5093132631298738,-0.3761474226243673,0.19993558782939022
5710169,1813.0,1,191774.0,232192,0.71,-0.54,9.83,0.15,0.34,-0.02,33.77,3.790669,38.67644260059329,-474.8405110487273,9.870390063214321,0.37215588131856797,0.5818910458843399,-0.333480785019325
5750181,1753.0,1,191559.0,232253,0.81,-0.67,9.78,0.06,0.08,-0.08,33.77,3.830681,-32.140645395043826,-867.3130179374065,9.836330616647652,0.12806248474865697,-0.49487270203029154,-0.6076348147924958
5790169,1674.0,1,191293.0,233946,0.71,-0.84,9.74,-0.05,-0.04,-0.1,33.77,3.870669,-73.64937508104141,-840.181819335954,9.801902876482709,0.11874342087037917,-1.1260070315105386,-0.5886828441484115
5830203,1725.0,1,191909.0,235436,0.87,-0.97,9.87,-0.06,-0.05,-0.05,33.77,3.910703,-75.25080738819025,-608.4302029452488,9.955636594412232,0.09273618495495704,-1.1503565819069541,-0.42679726382168787
5870203,1603.0,1,191442.0,235536,0.87,-0.86,9.88,-0.01,0.06,0.08,33.77,3.950703,-122.30744813737695,-427.54039819185965,9.955445745922178,0.1004987562112089,-1.865846109808585,-0.30044021193247145
5910170,1697.0,1,192162.0,234576,0.63,-0.86,10.07,0.02,0.14,0.22,33.77,3.99067,-99.54022572304817,-423.7109875458909,10.126272759510284,0.2615339366124404,-1.5196737320631322,-0.2977652516694678
5950185,1600.0,1,190465.0,233584,0.51,-0.64,9.9,0.04,0.0,0.33,33.77,4.030685,-126.47450664953243,-595.1736672577717,9.933765650547631,0.33241540277189324,-1.9292056416436771,-0.417537168870414
5990149,1662.0,1,191205.0,232509,0.64,-0.44,9.53,-0.0,-0.02,0.36,33.77,4.070649,-107.14677353253244,-913.2246088090346,9.561595055219605,0.36055512754639896,-1.6353302093322442,-0.6397054628756853
6030866,1731.0,1,191145.0,229882,0.73,-0.63,9.85,-0.1,-0.01,0.33,33.95,4.111366,-11.220439522075951,-1366.9490330701599,9.897085429559553,0.3449637662132068,-0.1767839480234852,-0.9566458271926727
6069179,1766.0,1,190439.0,226949,0.95,-0.73,9.74,-0.12,-0.04,0.31,33.95,4.149679,26.454916869549514,-1892.321061258981,9.813409193547368,0.33481338085566414,0.39606448588508464,-1.323634230533044
6109178,1791.0,1,189757.0,225602,1.07,-0.96,10.25,-0.18,0.02,0.32,33.95,4.189678,42.446287842893135,-2292.7345924036913,10.350314004898596,0.3676955262170047,0.6392110064623151,-1.6033353082193949
6149183,1716.0,1,189397.0,226177,1.09,-0.91,10.23,-0.08,-0.06,0.29,33.95,4.229683,-12.220000961574103,-2295.3697871554377,10.328073392458053,0.30675723300355934,-0.1919821375046918,-1.60517607221623
6189178,1680.0,1,190294.0,228643,1.37,-0.95,10.1,-0.09,-0.1,0.24,33.95,4.269678,-56.84937093669046,-1743.1755184527558,10.236669380223237,0.2751363298439521,-0.8705653586113772,-1.219451514889649
6229180,1707.0,1,191537.0,231016,1.41,-1.35,10.49,-0.16,-0.18,0.16,33.95,4.30968,-25.183721741340477,-759.9504916601801,10.670084348307656,0.2891366458960192,-0.38909366762860775,-0.5326388119925387
6269177,1751.0,1,192548.0,232496,1.71,-1.57,10.39,-0.11,-0.42,0.04,33.95,4.349677,29.837975699510014,272.7009850847921,10.646177717847848,0.43600458713183277,0.4475034140910619,0.18869977537799
6309178,1755.0,1,193091.0,233395,2.1,-1.45,9.86,0.01,-0.44,-0.02,33.95,4.389678,21.136891555791767,929.3122696979364,10.184895679387196,0.4405678154382138,0.3152046675782452,0.647362806575461
6349177,1658.0,1,193314.0,232797,2.19,-1.24,9.58,0.09,-0.33,0.01,33.95,4.429677,-59.36960303763014,992.1372101307314,9.905054265373813,0.34219877264537346,-0.9088851291558785,0.6912479457574408
6389169,1728.0,1,192826.0,232053,2.21,-0.97,9.22,0.19,-0.13,0.03,33.95,4.469669,1.935319471852201,563.5002333808656,9.530655801150308,0.232163735324878,0.023247495825722653,0.39183192954437157
6429169,1767.0,1,192182.0,230692,1.95,-0.85,9.22,0.17,0.13,0.03,33.95,4.509669,44.11652423538795,-30.06218881320549,9.462209044403956,0.2161018278497431,0.6646067131877446,-0.022789546126495648
6469145,1705.0,1,191588.0,230095,1.82,-0.91,9.78,0.23,0.27,-0.0,33.95,4.549645,-15.104987800578389,-462.57776735090295,9.989439423711422,0.35468295701936403,-0.23584795194826258,-0.3249148841171564
6509168,1770.0,1,191619.0,230502,1.81,-0.74,9.71,0.17,0.24,-0.05,33.95,4.589668,45.95736998457556,-596.3962639381714,9.904938162351142,0.29832867780352595,0.692596510909307,-0.4183911899823028
6549168,1778.0,1,191937.0,231594,1.74,-0.9,10.16,0.12,0.35,-0.03,33.95,4.629668,52.34863344424754,-502.512510435521,10.347134869131647,0.3712142238654117,0.7897747625365161,-0.35281052152472053
6589169,1731.0,1,192206.0,232613,1.54,-0.67,9.96,0.03,0.29,-0.07,33.95,4.669669,10.856793281943437,-321.34745394251553,10.10059899213903,0.29983328701129897,0.15889723586117696,-0.22626119789087634
6629169,1735.0,1,192438.0,232070,1.57,-0.58,9.64,-0.05,0.35,-0.02,33.95,4.709669,0.7561720459137877,-106.42654696804281,9.78421688230591,0.35411862419251544,0.005318726970166809,-0.07613238199838138
6669179,1653.0,1,192033.0,231838,1.21,-0.75,9.89,-0.17,0.59,0.04,33.95,4.749679,-71.28101285927296,198.58916790818532,9.991931745163196,0.6153048025166064,-1.089996420872497,0.13693040815823146
6709169,1677.0,1,192471.0,233922,0.63,-0.72,10.56,-0.09,-0.08,-0.1,33.95,4.789669,-57.30780220849684,637.6359769567771,10.60324950192157,0.15652475842498528,-0.8775357408787462,0.44361801008461044
6749195,1712.0,1,193427.0,235689,1.11,-0.49,9.43,-0.01,-0.43,-0.01,33.95,4.829695,-28.399460885104787,1118.7087949562094,9.507738953084482,0.430232495285979,-0.43798852381033565,0.779662062480587
6789199,1683.0,1,194098.0,235910,1.43,-0.29,9.61,0.01,0.19,0.33,33.95,4.869699,-47.554178862570275,1439.4408074543028,9.720138887896614,0.3809199390948182,-0.7292332855397953,1.0037031664057385
6829146,1759.0,1,193788.0,235048,0.58,-0.85,10.75,-0.08,0.48,0.58,33.95,4.909646,2.477641775458275,1452.3694988658685,10.799138854556876,0.757099729229908,0.031493429296533385,1.012734252119928
6869170,1759.0,1,192739.0,234078,0.14,-1.0,10.69,-0.07,0.12,0.58,33.95,4.94967,23.04021148843489,1208.4121691082842,10.737583527032513,0.5964059020499378,0.34414437637112427,0.8423226083185588
6909170,1751.0,1,192717.0,234801,0.41,-0.88,9.83,-0.23,-0.35,0.4,33.95,4.98967,-11.745959193864843,941.6849408512435,9.87782364693762,0.5791372894228104,-0.18477439986800523,0.6560054951617968
6949182,1726.0,1,193014.0,235748,0.61,-1.31,9.7,-0.42,-0.57,0.27,33.95,5.029682,-26.54681362481232,918.7947702322427,9.80704848565561,0.7577598564189053,-0.4098192857914102,0.640016012058527
6989179,1767.0,1,193262.0,236788,0.65,-1.86,10.01,-0.32,-0.6100000000000001,0.21,33.95,5.069679,3.0810885101837826,1282.1479730769247,10.202068417727848,0.7201388754955533,0.0406687510464183,0.8938293188314079
7029178,1776.0,1,194018.0,237369,0.97,-1.99,9.62,-0.19,-0.6100000000000001,0.23,33.95,5.109678,6.7845294801363645,1977.4637842157026,9.871443663416207,0.6790434448545984,0.09697904411060665,1.3795286436066982
7069864,1725.0,1,193861.0,238044,1.48,-1.95,9.4,-0.16,-0.49,0.19,34.09,5.150364,-46.967538805923105,2764.259661996469,9.713542093386945,0.5493632677928149,-0.7203135069390263,1.929129588173494
7110181,1726.0,1,194937.0,239019,1.64,-2.07,9.6,-0.2,-0.33,0.1,34.09,5.190681,-49.770129913102465,3283.146560897014,9.956630956302439,0.39862262855989505,-0.7629265060025373,2.2915879306897953
7150177,1793.0,1,194332.0,238449,1.6,-2.03,10.09,-0.09,-0.21,0.13,34.09,5.230677,2.582971326702681,3181.6405064866985,10.415805297719423,0.2628687885618983,0.03309495013810032,2.2206828523097295
7190176,1829.0,1,194451.0,234449,1.73,-1.53,9.69,0.11,-0.04,0.29,34.09,5.270676,53.77598088138979,2286.8352196206674,9.961420581423113,0.31272991542223777,0.8114773772513194,1.5956340375497151
7230167,1837.0,1,191669.0,228279,1.51,-1.13,9.89,0.15,0.23,0.49,34.09,5.310667,27.9182975743383,742.552363490534,10.068222285984751,0.5616938667993447,0.4183149813080453,0.516905309583598
7270146,1779.0,1,189898.0,224888,1.28,-1.16,10.12,0.09,0.2,0.57,34.09,5.350646,-1.3646017582994787,-1002.4713829825288,10.26637229015196,0.6107372593840988,-0.02692733700304448,-0.7020470596868461
7310146,1887.0,1,188841.0,222474,1.08,-1.36,10.21,0.16,0.17,0.63,34.09,5.390646,71.39853468138891,-2386.6440993037727,10.356645209719218,0.671863081289633,1.079425800641495,-1.668933966211434
7350145,1876.0,1,188116.0,221603,1.1,-1.45,10.08,0.32,0.17,0.73,34.09,5.430645,78.34513539922699,-3007.466910688669,10.242992726737631,0.8149846624323674,1.1850478762719785,-2.1025976560977533
7390146,1872.0,1,187923.0,222142,1.38,-1.46,9.66,0.22,0.03,0.77,34.09,5.470646,61.30654827163608,-2815.070034385189,9.866691441410337,0.8013738203859669,0.9259785830555578,-1.9682025633751685
7430146,1920.0,1,188653.0,224296,1.65,-1.6,9.44,0.09,-0.13,0.79,34.09,5.510646,101.32940109171513,-2119.37273766343,9.7157655385461,0.8056674251823764,1.534520366183367,-1.482236759271928
7470164,1865.0,1,189337.0,225700,1.56,-1.81,9.83,0.07,-0.08,0.87,34.09,5.550664,58.456374156248174,-1404.747855281718,10.116254247496945,0.8764701934464172,0.8826420911218111,-0.9830494586524365
7510169,1856.0,1,189755.0,226507,1.42,-1.83,9.77,0.13,0.0,0.95,34.09,5.590669,24.88150938000372,-1046.0444217388558,10.040826659194948,0.9588534820294495,0.37214104885326743,-0.7324841577124102
7550146,1863.0,1,189749.0,226056,1.05,-1.7,9.89,0.16,-0.01,0.99,34.09,5.630646,51.485426255231374,-1086.3656205262178,10.089826559460773,1.0028958071504737,0.7766498200349385,-0.7606497462283359
7588201,1844.0,1,189415.0,225560,1.13,-1.49,9.6,0.26,-0.03,1.08,34.09,5.668701,12.23558228456702,-1226.9147684612985,9.780439662919045,1.1112605455067683,0.179861526487472,-0.8588276175728813
7630168,1801.0,1,189536.0,226489,1.2,-1.27,9.62,0.18,-0.02,1.08,34.09,5.710668,-23.027723643395717,-1064.5738188902928,9.777387176541593,1.0950799057603058,-0.3563120232805255,-0.7454275073972196
7668169,1855.0,1,189965.0,227821,1.02,-1.48,9.81,0.06,-0.01,1.08,34.09,5.748669,29.487835695072555,-439.9165753044077,9.973309380541647,1.0817116066678771,0.4421795851375733,-0.3090853495383876
7708168,1879.0,1,190615.0,229657,0.6,-1.96,10.3,0.02,0.04,1.1,34.09,5.788668,41.4245046713818,355.4770342853827,10.50198076555085,1.100908715561831,0.6236749387073063,0.24652137321918838
7748145,1794.0,1,191450.0,231026,0.53,-2.1,10.25,0.03,-0.17,1.02,34.09,5.828645,-25.53275596785785,708.9688368176807,10.476325691768082,1.0345047124107265,-0.3944006833861391,0.4934461907669799
7788184,1817.0,1,191145.0,227823,0.56,-1.77,9.74,0.19,-0.28,1.06,34.09,5.868684,-28.719410766504183,123.07491270260523,9.915346690862606,1.1126994203287788,-0.4428533162381417,0.08418139515334985
7828169,1805.0,1,189595.0,223867,1.02,-1.26,9.07,0.17,-0.17,1.11,34.09,5.908669,-14.384730902948947,-1333.0066906975146,9.213734313512628,1.1357376457615553,-0.22489654828985992,-0.9329360646537116
7868168,1776.0,1,188189.0,219783,0.73,-1.24,9.33,-0.05,0.04,1.14,34.09,5.948668,-68.69253258464605,-2926.032189509863,9.440307198391375,1.1417968295629481,-1.050638946556664,-2.0457130168357307
7908168,1775.0,1,186604.0,217806,0.38,-1.75,10.5,-0.21,-0.02,1.16,34.09,5.988668,-52.814099994985526,-3666.3038531572665,10.651614901037307,1.1790250209389113,-0.8092096380357316,-2.5628153772652453
7948177,1830.0,1,187115.0,222777,0.79,-2.01,10.825,-0.17,-0.23,0.95,34.09,6.028677,-3.6285451254854584,-2976.9470089152783,11.038334339926472,0.9921189444819608,-0.061350273812700216,-2.081278572817788
7988177,1826.0,1,190030.0,229586,1.17,-1.77,9.67,-0.1,-0.45,0.74,34.09,6.068677,-17.827828389585914,-1125.4855058805877,9.900035353472228,0.8718371407550839,-0.27724835572897794,-0.7879761806305473
8028177,1808.0,1,192935.0,233655,1.69,-1.64,9.2,-0.06,-0.44,0.73,34.09,6.108677,-9.530122835126875,941.592262742739,9.496615186475651,0.8544588931013591,-0.15108292327767722,0.6559407566731835
8068177,1812.0,1,193887.0,234324,1.31,-1.66,9.65,0.01,-0.03,0.77,34.09,6.148677,-46.33002840676941,2250.8608756723597,9.878977679901904,0.7706490770772388,-0.710620252017706,1.570504859865246
8108855,1739.0,1,193581.0,232827,0.77,-1.73,10.4,0.1,-0.1,0.72,33.99,6.189355,-70.5250997206952,2429.9770188829966,10.57098860088308,0.7337574531137656,-1.0785028691432441,1.6956229550100677
8149168,1852.0,1,192674.0,231954,1.12,-1.39,9.81,0.19,-0.29,0.65,33.99,6.229668,-6.031716219953469,1841.5781563112885,9.97108820540667,0.7366817494685205,-0.09789014840792364,1.28460838339897
8189168,1799.0,1,192616.0,232764,1.6,-1.13,9.46,0.16,-0.17,0.64,33.99,6.269668,-20.197402138920044,1187.7534830613874,9.660667678789082,0.6812488532100439,-0.3132773874712932,0.8278918853248028
8229169,1811.0,1,193139.0,233319,1.79,-1.26,9.72,0.22,0.06,0.62,33.99,6.309669,-30.65375356211694,961.8183353201802,9.963438161598637,0.6606057825965498,-0.47226472324889,0.6700692859491537
8269146,1831.0,1,193233.0,233612,1.64,-0.97,9.91,0.36,0.25,0.66,33.99,6.349646,-7.725324862444172,1166.4219064761417,10.091511284242811,0.7922752047110903,-0.1236412268693996,0.8129911277440459
8309146,1805.0,1,193307.0,234062,1.56,-0.48,9.58,0.33,0.29,0.6,33.99,6.389646,-19.322866348192772,1431.0752890051785,9.718045070897746,0.7436396977031282,-0.29998019519240426,0.9978595963372248
8349146,1853.0,1,193699.0,234323,1.1,-0.43,9.97,0.22,0.35,0.6,33.99,6.429646,1.9594244100205294,1353.795570050023,10.039711151223425,0.7286288492778747,0.023614007981192512,0.9438773529967929
8389146,1792.0,1,193112.0,230996,0.91,-0.62,10.38,0.13,0.15,0.57,33.99,6.469646,-27.679739936094066,790.2858747738882,10.43824218918109,0.6035726965329031,-0.42704526917443186,0.5502486247046913
8429147,1808.0,1,192146.0,228826,0.77,-0.8,10.23,0.01,-0.26,0.53,33.99,6.509647,-41.934666635823135,-80.97081934861114,10.290082604138803,0.5904235767650204,-0.6437894016131203,-0.058350778993881344
8469168,1853.0,1,191554.0,227647,0.95,-0.83,9.95,-0.05,-0.3,0.59,33.99,6.549668,27.13166038587511,-908.7201721232536,10.029651040789005,0.6637770710110436,0.40635427477135694,-0.6365589763127036
8509175,1874.0,1,191376.0,227419,1.36,-0.98,9.67,-0.12,-0.29,0.49,33.99,6.589675,31.046406179568574,-1394.6522334079618,9.814219276131952,0.5818934610390462,0.4658774276184509,-0.9759973585150339
8549177,1847.0,1,191401.0,227829,1.29,-1.05,9.69,-0.15,-0.38,0.29,33.99,6.629677,13.653149945828902,-1441.2165762874395,9.83171907653997,0.5009990019950139,0.20141544110137086,-1.0085239738067626
8589177,1872.0,1,191722.0,228933,1.39,-1.17,9.6,-0.12,-0.16,0.26,33.99,6.669677,34.0806916882184,-1153.7990665674843,9.770414525494811,0.3280243893371345,0.5120133070934461,-0.8077540672934254
8629178,1851.0,1,192104.0,229808,1.63,-1.36,9.82,-0.08,-0.06,0.18,33.99,6.709678,13.405120511150338,-733.0292793686241,10.046835322627718,0.20591260281974,0.19764418883392246,-0.5138335231976155
8669178,1807.0,1,192555.0,230971,1.58,-1.26,9.54,-0.05,-0.06,0.1,33.99,6.749678,-28.509678458257724,-341.25908184867967,9.751697288164763,0.12688577540449522,-0.439664366329609,-0.24017007796274126
8709176,1819.0,1,193121.0,232231,1.74,-1.29,9.63,-0.09,-0.03,0.07,33.99,6.789676,-21.3745460993741,-15.812080436981745,9.87059268737192,0.11789826122551596,-0.33117569391918994,-0.012835410314495298
8749177,1831.0,1,193580.0,233055,1.6,-1.15,9.62,-0.12,0.0,0.09,33.99,6.829677,-1.4292820952859846,331.6043854755146,9.819719955273673,0.15,-0.027910792324933202,0.22984559910071903
8789168,1853.0,1,193900.0,234100,1.39,-1.11,10.04,-0.14,-0.05,0.09,33.99,6.869668,8.47484935553032,825.4030124804497,10.196362096355738,0.17378147196982768,0.12268011733626541,0.5747790176554616
8829177,1849.0,1,194432.0,236085,1.37,-1.07,10.38,-0.12,-0.14,0.07,33.99,6.909677,21.853221368073893,1489.3029572843527,10.524552247007946,0.1972308292331602,0.32609636046264345,1.0385334005473088
8869177,1849.0,1,195034.0,238446,1.24,-1.02,10.73,0.12,-0.0,0.09,33.99,6.949677,0.34796726465645234,2154.0840933386935,10.849465424618856,0.15,-0.0008879686540644479,1.5029033224337818
8909168,1818.0,1,195638.0,240361,1.24,-0.62,9.93,0.1,-0.05,0.05,33.99,6.989668,-5.711010076305719,2502.458598897971,10.026310388173707,0.12247448713915891,-0.09301385712022378,1.7462535517949478
8949168,1858.0,1,195733.0,239215,1.24,-0.58,9.91,-0.0,-0.1,0.03,33.99,7.029668,11.545614278551053,2256.916830944976,10.00410415779444,0.1044030650891055,0.16937066111688928,1.5747351295350263
8989175,1840.0,1,194217.0,235175,1.44,-0.45,9.8,-0.04,-0.08,0.03,33.99,7.069675,11.92286799596833,1390.946910647334,9.915447544110151,0.09433981132056604,0.17510675021880182,0.9698286987788743
9029177,1866.0,1,192997.0,233107,1.48,-0.68,9.84,-0.01,0.19,0.08,33.99,7.109677,31.50766014843002,197.62922633085432,9.9738859026961,0.20639767440550294,0.4728907285929607,0.1362598596557175
9069165,1856.0,1,191985.0,231226,0.93,-0.89,10.36,0.11,0.23,0.17,33.99,7.149665,17.281106219565586,-854.4890808711372,10.439664745574927,0.3064310689208913,0.2565780000987103,-0.5986769031870531
9109834,1818.0,1,191271.0,230274,0.94,-0.73,10.03,0.17,-0.02,0.16,33.95,7.190334,-1.3905225655538191,-1385.4882546494273,10.100366329990214,0.23430749027719963,-0.027321459189625717,-0.9695960395402997
9148168,1855.0,1,191224.0,231378,1.24,-0.87,9.63,0.07,-0.22,0.08,33.95,7.228668,9.784085509388849,-1305.8272359704931,9.74840499774194,0.24433583445741233,0.14258686679228508,-0.9139503856324702
9188168,1792.0,1,191785.0,232717,1.52,-1.24,9.56,-0.1,-0.26,0.01,33.95,7.268668,-20.077717797401494,-823.7308223183678,9.759180293446782,0.2787471972953271,-0.31145760408584605,-0.577191320418733
9228177,1809.0,1,192295.0,233539,1.64,-1.56,9.43,-0.17,-0.32,-0.1,33.95,7.308677,-30.53018385833896,-268.1387229279209,9.69783996568308,0.37589892258425006,-0.47038586348305395,-0.18909327460776756
9268198,1802.0,1,192466.0,233231,1.75,-1.68,9.22,-0.14,-0.25,-0.12,33.95,7.348698,-13.258448076319558,134.24649085549962,9.533797774234568,0.31064449134018135,-0.207771578145817,0.0919850836048587
9308198,1821.0,1,192428.0,232961,1.74,-1.7,9.33,-0.12,0.01,-0.09,33.95,7.388698,-3.9396139759270916,364.79417040318845,9.641913710462255,0.15033296378372907,-0.06608003142828679,0.25302967728586306
9348177,1840.0,1,192412.0,232851,1.59,-1.6,9.55,-0.06,0.05,-0.09,33.95,7.428677,18.68267292168033,537.5798840451807,9.81277738461441,0.11916375287812986,0.27788862240521345,0.3737257740843614
9388175,1834.0,1,192473.0,232825,1.49,-1.43,9.35,-0.09,0.1,-0.09,33.95,7.468675,22.922422201241442,725.4509643058702,9.575359001102779,0.16186414056238646,0.34235340701708333,0.5049594600809092
9428180,1835.0,1,192474.0,232841,1.61,-1.49,9.57,-0.12,0.19,-0.1,33.95,7.50868,13.17674904167649,845.9147457497636,9.818202483143237,0.24596747752497689,0.19417183313069755,0.5891070896470364
9468177,1840.0,1,192529.0,232523,1.38,-1.58,9.75,-0.04,0.23,-0.04,33.95,7.548677,36.418179407137025,707.2068901816258,9.973128897191694,0.2368543856465402,0.5475544753081333,0.4922154172426149
9508175,1888.0,1,191934.0,230754,1.42,-1.6,9.68,0.1,0.35,0.12,33.95,7.588675,72.43343000722702,172.03513654633264,9.91356646217697,0.383275357934736,1.0951612368375925,0.11838160645416727
9548145,1854.0,1,190388.0,226422,1.21,-1.7,10.22,0.07,0.48,0.17,33.95,7.628645,53.97850779731319,-706.688455245337,10.430843685915345,0.5140038910358559,0.8145567701946823,-0.49543365325973526
9588145,1840.0,1,188979.0,224314,1.03,-1.53,10.39,-0.03,0.12,0.02,33.95,7.668645,31.69981819746096,-1692.6051781443678,10.552435737781112,0.12529964086141668,0.47581246439038954,-1.184126588075151
9628168,1838.0,1,188721.0,223602,1.29,-1.36,9.93,-0.13,-0.02,-0.09,33.95,7.708668,43.9475881837395,-2496.47636205622,10.105374807497245,0.15937377450509227,0.6620380645567518,-1.7456551553499888
9668198,1834.0,1,188485.0,222103,0.99,-1.27,9.96,-0.25,0.12,0.01,33.95,7.748698,28.483793235839457,-2915.2933958389117,10.089330998634152,0.27748873851023215,0.42691326238880595,-2.038211641559452
9708169,1794.0,1,187821.0,220980,1.15,-1.27,10.03,-0.22,-0.04,0.15,33.95,7.788669,9.934494018840619,-2893.1904781655016,10.175278865957432,0.2692582403567252,0.14487380678006767,-2.02277207867657
9748177,1808.0,1,187914.0,221701,1.47,-1.27,9.78,-0.11,-0.07,0.29,33.95,7.828677,3.216263219411099,-2504.9273387723374,9.971068147395242,0.3179622619116929,0.042724063269081895,-1.7515584206273704
9788177,1781.0,1,188673.0,223935,1.71,-1.25,9.49,-0.12,0.04,0.41,33.95,7.868677,3.9746425008278883,-1896.4368960272934,9.723512739745859,0.42906875905849867,0.05425511234934704,-1.3265092667911464
9828169,1791.0,1,189473.0,225819,1.45,-1.59,9.92,-0.24,0.11,0.44,33.95,7.908669,-6.555832695161492,-1198.9692142687097,10.150714260582848,0.5131276644266999,-0.10585926484806256,-0.8393067946829461
9868168,1753.0,1,190388.0,227680,1.2,-1.87,10.11,-0.24,-0.14,0.35,33.95,7.948668,-27.962056042399986,-443.969863027263,10.351280114072848,0.44687805943008657,-0.4313378454060521,-0.311916694775434
9908178,1775.0,1,190990.0,228970,1.3,-1.96,9.65,-0.21,-0.2,0.3,33.95,7.988678,-5.196968441114938,452.7309073111656,9.932477032442613,0.4172529209005013,-0.08519792718921206,0.3144561730665296
9948177,1792.0,1,191661.0,231043,1.51,-2.08,9.45,-0.23,-0.2,0.18,33.95,8.028677,-1.918849056397914,1584.9745864224324,9.793314045817176,0.3539774004085572,-0.03535458831855743,1.1053629547270323
9988177,1753.0,1,193041.0,233894,1.41,-2.41,10.05,-0.2,-0.21,0.05,33.95,8.068677,-8.059831403366973,2884.1219671659446,10.430661532232747,0.29427877939124325,-0.12872735123430126,2.0128570681965314
10028178,1782.0,1,194380.0,236285,1.7,-2.51,9.94,-0.06,-0.08,0.04,33.95,8.108678,-21.789750092597924,4035.7065927497647,10.392001732101471,0.10770329614269009,-0.33748881156560245,2.8172740915223993
10068178,1658.0,1,195338.0,237376,1.5,-2.6,10.33,0.0,0.1,0.02,33.95,8.148678,-94.86450719356594,4599.892311062753,10.75727195900522,0.10198039027185571,-1.4485800970310145,3.2113750425473544
10108146,1712.0,1,195066.0,235152,1.32,-2.36,10.36,0.25,-0.01,0.12,33.95,8.188646,-89.48557767670604,4276.539776014521,10.70708176862398,0.27748873851023215,-1.3667942389807721,2.9855034236061897
10148856,1712.0,1,193180.0,230309,1.86,-1.55,9.7,0.35,0.08,0.21,33.91,8.229356,-46.713225360694615,3111.7945925874474,9.99760471313004,0.4159326868617084,-0.7164467071851847,2.1718933487838155
10189146,1717.0,1,191436.0,227525,1.68,-1.05,9.68,0.23,0.22,0.26,33.91,8.269646,-73.23117142951641,1483.576323832909,9.880652812441088,0.41097445176069036,-1.1196483044864143,1.0345331722250932
10229147,1695.0,1,190576.0,225791,1.19,-1.18,10.12,0.19,0.19,0.34,33.91,8.309647,-75.94598452169583,-107.74779942176656,10.25782140612713,0.43335897360040904,-1.1609266513199203,-0.07705531718028139
10269148,1694.0,1,189526.0,223920,1.13,-1.26,10.27,0.25,-0.01,0.43,33.91,8.349648,-84.93099893457617,-1274.0255825076238,10.408525351844997,0.49749371855331,-1.2975425171809403,-0.8917359596605423
10309169,1670.0,1,188758.0,223270,1.01,-1.11,10.32,0.26,-0.15,0.37,33.91,8.389669,-111.59200050486591,-1860.2255335321133,10.428547358093553,0.47644516998286385,-1.702919253029662,-1.3012145244145894
10349169,1695.0,1,188664.0,224131,0.86,-0.99,10.23,0.3,-0.22,0.32,33.91,8.429669,-77.98018553285009,-1940.6194138748763,10.313709323032136,0.4907137658554119,-1.191856388291273,-1.3573721045717189
10389169,1741.0,1,188906.0,224768,0.74,-1.05,10.21,0.28,-0.15,0.32,33.91,8.469669,-46.16189177412153,-1750.2616411783881,10.29049075603297,0.4508880127038199,-0.7080637584388845,-1.2244013879803783
10429170,1752.0,1,188865.0,225478,0.3,-0.92,10.19,0.25,-0.16,0.27,33.91,8.50967,-21.763718190426236,-1586.8388047835092,10.235843883139289,0.4012480529547776,-0.33709300019660826,-1.1102455468240306
10469169,1827.0,1,189398.0,225574,0.41,-0.66,9.62,0.31,-0.18,0.28,33.91,8.549669,39.64347238058807,-1683.0044334943523,9.65132633372222,0.4548626166217664,0.5965945961110365,-1.1774201747890567
10509168,1839.0,1,189194.0,224240,0.4,-0.55,8.95,0.31,-0.06,0.41,33.91,8.589668,59.50988785738793,-2076.4267798025953,8.975800799928662,0.5174939613174244,0.8986606170655572,-1.4522376963990828
10549168,1856.0,1,188526.0,222470,0.24,-0.64,9.31,0.23,0.18,0.65,33.91,8.629668,70.87108004289564,-2561.2949582603655,9.335057578826175,0.7126008700527947,1.0714059279035202,-1.7909329239623182
10589144,1890.0,1,187887.0,222438,-0.17,-0.63,10.03,0.09,-0.01,0.63,33.91,8.669644,104.17627489192601,-2794.5148805831955,10.051203907990324,0.6364746656387825,1.5778066772943788,-1.9538441608157193
10629176,1854.0,1,188450.0,224613,-0.23,-0.68,9.75,-0.08,-0.27,0.49,33.91,8.709676,70.15398304392002,-2517.0084282233615,9.776389926757219,0.5651548460377916,1.060502570054594,-1.7599974304915387
10669197,1839.0,1,189540.0,227799,0.54,-1.1,9.47,-0.24,-0.5,0.3,33.91,8.749697,48.179358032460314,-1733.7711037596002,9.548952822168513,0.6305553108173778,0.7263815230579187,-1.2128822440731384
10709177,1838.0,1,190887.0,230843,1.06,-1.57,9.69,-0.31,-0.42,0.16,33.91,8.789677,55.22048507473192,-711.6188042815523,9.873428988958192,0.5459853477887479,0.8334408580032715,-0.4988776526042552
10749174,1841.0,1,191549.0,230150,1.73,-1.84,9.91,-0.32,-0.42,-0.05,33.91,8.829674,45.02866538086137,196.21073054933092,10.226759017401358,0.5303772242470447,0.6784756895354817,0.13526899704013257
10789197,1868.0,1,191816.0,230815,2.19,-1.72,9.52,-0.26,-0.23,-0.22,33.91,8.869697,86.98377062404624,752.2538973891135,9.918916271448206,0.41097445176069036,1.316397095857466,0.5236821272373018
10829197,1873.0,1,192293.0,231271,2.38,-1.47,9.44,-0.2,0.07,-0.35,33.91,8.909697,73.73812496237115,922.43553082647,9.845755430641164,0.40914545090957566,1.1149989380132304,0.6425591945001696
10868225,1808.0,1,192125.0,231188,2.23,-1.22,9.51,-0.12,0.38,-0.38,33.91,8.948725,24.924610706406717,826.0373631380421,9.843850872499035,0.5506359959174482,0.37279639838925294,0.5752221309589816
10908177,1855.0,1,192084.0,231029,1.81,-0.89,9.63,-0.1,0.47,-0.33,33.91,8.988677,59.71771748239758,626.7128363676785,9.838958278191855,0.5829236656715868,0.9018206369461667,0.43598786285717767
10948177,1843.0,1,191858.0,230795,1.55,-0.85,10.04,-0.15,0.48,-0.23,33.91,9.028677,51.14992568422159,450.9173861883491,10.194439660913197,0.5529918625079396,0.7715485815839838,0.3131893731883921
10988177,1821.0,1,191675.0,230606,1.24,-0.78,10.07,-0.16,0.31,-0.28,33.91,9.068677,34.87969830291278,364.6309962689467,10.175996265722587,0.4473253849269008,0.5241620889961968,0.2529156951707546
11028176,1824.0,1,191533.0,230793,1.12,-0.92,10.01,-0.3,0.03,-0.46,33.91,9.108676,23.974378548504447,390.1519369570968,10.114390737953523,0.55,0.35834825361669614,0.2707428514949629
11068200,1744.0,1,191835.0,231096,1.09,-1.17,10.06,-0.34,-0.13,-0.56,33.91,9.1487,-38.064784354794085,532.4171866631225,10.186294713977208,0.6679071791798619,-0.5849483920934125,0.3701194723257719
11108196,1788.0,1,191990.0,232099,1.05,-1.27,10.25,-0.28,-0.03,-0.65,33.91,9.188696,-10.744441491616566,792.3594858839089,10.381613554741865,0.7083784299369935,-0.16954646568999804,0.5516971053804494
11148876,1805.0,1,192544.0,232787,0.8,-1.33,10.18,-0.23,0.07,-0.72,33.93,9.229376,17.709201950717564,1152.9445807292566,10.297635650963768,0.7590783885739337,0.2630871347862289,0.8035768041946967
11189174,1755.0,1,192434.0,232348,0.8,-1.27,10.21,-0.1,0.08,-0.79,33.93,9.269674,-35.54491779495087,1539.1304487067234,10.319738368776605,0.800312438988674,-0.5466341795492778,1.0733394247328596
11229174,1750.0,1,192157.0,232554,0.9,-1.04,9.99,-0.09,0.12,-0.84,33.93,9.309674,-44.51373652953608,1789.3398608724583,10.084230263138581,0.8532877591996735,-0.6830037924259595,1.2481183389967037
11269196,1749.0,1,192658.0,232982,1.05,-0.92,9.44,-0.07,0.31,-0.87,33.93,9.349696,-35.95311929526011,1703.7835931655443,9.542667341996156,0.9262289133902051,-0.55284082528716,1.1883546736379589
11309174,1745.0,1,192457.0,230771,0.51,-1.06,10.15,0.04,0.5900000000000001,-0.81,33.93,9.389674,-51.24202015547586,1191.3775383249217,10.217935212164932,1.0028958071504737,-0.7853063877338308,0.8304233985828777
11349162,1733.0,1,190989.0,227368,0.33,-0.81,10.2,0.22,0.5,-0.75,33.93,9.429662,-52.957771929153026,422.13317874081554,10.237431318450932,0.9278469701410896,-0.8113941493547211,0.29308272539253377
11389163,1769.0,1,190254.0,225896,0.6,-0.72,10.04,0.22,0.35,-0.66,33.93,9.469663,-24.40437073901366,-176.43341242361055,10.083650132764424,0.7787810988975015,-0.3772437465155263,-0.12503431510085952
11429163,1786.0,1,190085.0,226056,0.64,-1.18,10.16,0.06,0.08,-0.6,33.93,9.509663,-3.5125962154068047,-147.23191642210872,10.248297419571703,0.6082762530298219,-0.05958728713086151,-0.10463617850861257
11496169,1776.0,1,190783.0,227850,1.08,-2.05,10.11,-0.29,-0.35,-0.54,33.93,9.576669,-16.203247671560984,675.3563199309311,10.372126107987697,0.7058328414008518,-0.252546837038487,0.4699668214007713
11528198,1762.0,1,192004.0,231139,1.14,-2.38,9.86,-0.31,-0.53,-0.6,33.93,9.608698,-28.112035064970502,1998.5237414311127,10.207036788412198,0.8584870412533903,-0.43361825510690777,1.3942396667640296
11568195,1762.0,1,193564.0,233295,1.53,-2.71,9.44,-0.36,-0.56,-0.71,33.93,9.648695,-34.47439798393248,3214.2369638804444,9.939748487763662,0.9732933781753578,-0.5303570781242652,2.2434524730958287
11608198,1760.0,1,194077.0,232660,1.67,-2.87,9.15,-0.29,-0.42,-0.78,33.93,9.688698,-27.304207849928478,3772.878800315636,9.733873843439724,0.932148056909416,-0.4213353572307669,2.633680853352877
11648197,1791.0,1,193394.0,230923,1.83,-2.82,8.93,-0.22,-0.11,-0.81,33.93,9.728697,-12.813449267832905,3517.163639029613,9.541813244871229,0.8465222974027324,-0.20100543457220446,2.455056005216586
11688217,1767.0,1,192300.0,229073,1.76,-2.74,9.04,-0.13,0.14,-0.91,33.93,9.768717,-19.09221153305921,2724.99954355229,9.608683572685697,0.9298386956886662,-0.2964731215432721,1.9017051966761898
11728177,1792.0,1,191536.0,227198,1.6,-2.48,8.91,-0.15,0.21,-0.98,33.93,9.808677,-16.36433870424674,1835.8806344182801,9.386080118984708,1.0134100848126586,-0.2549962032722531,1.2806284903892104
11768177,1811.0,1,190703.0,225519,1.63,-2.32,9.07,-0.27,0.32,-1.05,33.93,9.848677,18.983637075523767,1086.5667527701632,9.502852203417667,1.1303981599418853,0.28246473954660706,0.757209864592129
11808177,1835.0,1,189931.0,223781,1.18,-2.39,9.85,-0.32,0.45,-1.11,33.93,9.888677,28.606969584054713,350.688600022083,10.204263814700205,1.2397580409095963,0.42878614123927306,0.24317650567675977
11848179,1801.0,1,189201.0,222358,1.01,-2.24,10.01,-0.25,0.27,-1.18,33.93,9.928679,-5.094238918978715,-690.2845748847985,10.30717226013032,1.2360420704814217,-0.08363593942033214,-0.4839750419536593
11888193,1793.0,1,188315.0,218185,1.11,-2.07,9.9,-0.22,0.31,-1.16,33.93,9.968693,-7.053518897713703,-2187.8067867843206,10.174821865762565,1.2206965224821442,-0.11342651275267189,-1.5300400321404368
11928177,1833.0,1,185605.0,212882,1.21,-2.05,10.24,-0.19,0.37,-1.1,33.93,10.008677,10.081360312533358,-3884.8181611373975,10.513049034414326,1.176010204037363,0.14710688788118081,-2.715454293480695
11968177,1813.0,1,184276.0,209396,1.16,-1.97,10.38,-0.11,0.36,-1.08,33.93,10.048677,16.235541884357048,-5212.9205375208385,10.628776975739026,1.1437219941926446,0.24068034313300202,-3.643174355513268
12008180,1859.0,1,184233.75,209103,1.1,-1.95,10.52,-0.02,0.31,-1.06,33.93,10.08868,24.683673327409235,-5667.125262392107,10.755598542154685,1.104581368664165,0.3691329798194574,-3.9604502244718853
12048177,1827.0,1,184741.0,215371,1.07,-1.71,10.28,0.03,0.22,-1.05,33.93,10.128677,24.175275887974106,-5157.14542622974,10.476039327913961,1.0732194556566703,0.3614028690819177,-3.604213737245454
12088182,1872.0,1,186915.0,218622,0.84,-1.53,10.09,-0.02,0.11,-0.94,33.93,10.168682,35.07217738675912,-4056.2441578180124,10.239853514577247,0.9466255859631092,0.5270887060823206,-2.8352005864642265
12128177,1843.0,1,187529.0,220046,0.92,-1.49,10.04,-0.06,-0.04,-0.81,33.93,10.208677,25.873759604994476,-2928.6499982840987,10.19157004587615,0.813203541556479,0.38722807235804646,-2.047541636196413
12168884,1830.0,1,188318.0,221788,0.93,-1.61,9.84,-0.13,-0.1,-0.76,33.87,10.249384,-4.859045786108873,-2169.6419466494085,10.014120031235894,0.7774959806970065,-0.08005986129568068,-1.5173513366630131
12209197,1808.0,1,188983.0,223498,1.2,-1.76,9.96,-0.12,-0.13,-0.77,33.87,10.289697,-25.33283247642943,-1824.0542487937212,10.185244228785091,0.7900632886041472,-0.39136087514183643,-1.2759477775748784
12249198,1773.0,1,189605.0,224698,1.32,-1.71,9.76,-0.18,-0.15,-0.8,33.87,10.329698,-60.39534747357579,-1670.5190656569036,9.996204279625342,0.8336066218546971,-0.924481427373047,-1.1686987641277802
12289197,1797.0,1,189916.0,225881,1.48,-1.74,9.64,-0.18,-0.09,-0.77,33.87,10.369697,-50.88198947128811,-1454.5682293748066,9.906947057494554,0.7958643100428615,-0.7798321724018735,-1.0178505111661638
12329198,1815.0,1,190557.0,227062,1.66,-1.58,9.47,-0.15,-0.04,-0.67,33.87,10.409698,-17.64643663586408,-1078.0406748585008,9.743351579410444,0.6877499545619761,-0.27449031992001666,-0.75483451748648
12369197,1847.0,1,191298.0,229198,1.5,-1.33,9.26,-0.24,0.06,-0.62,33.87,10.449697,-14.93721198254019,-620.3102695799836,9.474518457420409,0.6675327707311455,-0.2332969445042487,-0.43509585311067
12409177,1835.0,1,192787.0,230070,0.94,-1.79,9.97,-0.43,0.05,-0.62,33.87,10.489677,4.058040159470481,-206.42221642906532,10.17293467982568,0.7561745830163825,0.055523161884126496,-0.14598241037344173
12449177,1875.0,1,193085.0,229976,0.97,-1.71,9.95,-0.19,-0.14,-0.5,33.87,10.529677,0.61750703383931,142.57218650386304,10.142361657917744,0.5529014378711634,0.0032103451892731803,0.09780083623109602
12489197,1820.0,1,193197.0,229815,1.36,-1.51,9.69,-0.24,-0.14,-0.43,33.87,10.569697,-11.84147404882034,529.5207107386951,9.900797947640381,0.5119570294468082,-0.1862266896488239,0.368096195451889
12529197,1857.0,1,194282.0,232458,1.54,-2.05,10.03,-0.34,-0.01,-0.48,33.87,10.609697,-21.799616585687023,1049.5065575754863,10.352535921212734,0.5883026432033092,-0.3376388301893285,0.731322186656811
12569197,1808.0,1,195700.0,235726,1.59,-2.35,9.91,-0.2,0.08,-0.43,33.87,10.649697,-33.03068751618823,1645.3423497075232,10.308186067393235,0.4809365862564419,-0.5084056658571067,1.1475316806441698
12609174,1896.0,1,196597.0,238329,1.56,-1.93,9.39,0.06,0.13,-0.41,33.87,10.689674,24.014517489202102,2113.698979510743,9.71239414356728,0.43428101501216926,0.3589585604994868,1.4746930873104303
12649163,1890.0,1,197225.0,239867,1.45,-1.44,9.17,0.12,0.26,-0.27,33.87,10.729663,33.93101371754733,2273.695142799728,9.394945449548922,0.39357337308308854,0.5097374748438912,1.5864552926726594
12689168,1858.0,1,197197.0,240263,1.37,-1.41,9.71,0.16,0.37,-0.2,33.87,10.769668,-3.0687412311343554,2139.0255613536333,9.907022761657512,0.45,-0.052838535241695496,1.4923844780466935
12729167,1891.0,1,197261.0,240883,1.07,-1.41,10.12,0.12,0.31,-0.24,33.87,10.809667,24.605045220165362,1924.3519662451527,10.27362642887116,0.41,0.3679374506351374,1.3424284170439866
12769163,1872.0,1,197558.0,241345,0.9,-1.38,10.2,-0.05,-0.14,-0.34,33.87,10.849663,16.320323898152925,1873.5233697356,10.33220208861596,0.37107950630558945,0.2419694415909367,1.3069230903874092
12809197,1870.0,1,197998.0,242469,1.24,-1.19,9.7,-0.1,-0.25,-0.32,33.87,10.889697,4.11700841871466,2063.148239726861,9.851076083352519,0.41821047332652966,0.05641976587659332,1.43938185206078
12849197,1873.0,1,199574.0,244115,1.22,-1.32,9.72,-0.14,-0.29,-0.21,33.87,10.929697,16.599738797756125,2351.8152366563063,9.884796406603426,0.3844476557348217,0.2462179053873931,1.641024563541648
12889200,1840.0,1,199983.0,243329,1.56,-1.47,9.91,-0.03,-0.31,-0.04,33.87,10.9697,-18.286919037168303,2501.348472630684,10.13916170104807,0.31400636936215165,-0.2842287637112127,1.7454780947007769
12928197,1863.0,1,199145.0,242485,1.48,-1.34,9.9,0.08,-0.22,0.02,33.87,11.008697,5.798229660501487,2339.7458731651,10.099306906911979,0.2349468024894146,0.08198249567270698,1.6325937446184515
12968169,1919.0,1,199042.0,243032,1.55,-1.05,9.95,0.07,-0.34,-0.01,33.87,11.048669,69.58849876554358,1828.7701507349461,10.1245987574817,0.3472751070837068,1.051904462052625,1.2756616004256918
13008177,1889.0,1,199228.0,243387,2.01,-0.9,9.87,0.05,-0.26,0.04,33.87,11.088677,35.05164745120124,1033.3446890668058,10.11271476904199,0.26776855677991773,0.5267765513329314,0.7200326280188206
13048168,1826.0,1,198986.0,241172,1.98,-1.01,10.18,0.07,-0.06,0.07,33.87,11.128668,-15.847728831583474,86.06860226269164,10.419832052389328,0.11575836902790226,-0.2471412236558522,0.05833135736454514
13088168,1855.0,1,197604.0,238059,1.81,-0.91,10.15,0.1,-0.08,0.04,33.87,11.168668,9.50110095556877,-813.1636815734437,10.350202896561981,0.1341640786499874,0.13828412691131128,-0.5698098499525153
13128169,1882.0,1,197184.0,238332,2.19,-1.06,10.06,0.02,-0.09,0.01,33.87,11.208669,45.689351429098394,-1420.106276966649,10.350038647270841,0.09273618495495703,0.6885213269039433,-0.9937777851516828
13168168,1878.0,1,197619.0,240171,2.12,-1.1,9.79,-0.08,-0.03,-0.13,33.87,11.248668,45.733259162223504,-1539.3048882394219,10.07712756692104,0.15556349186104046,0.6891889377394119,-1.0770416547227186
13208883,1862.0,1,198269.0,242123,2.11,-1.03,9.24,-0.12,-0.13,-0.29,33.99,11.289383,29.948155368417066,-1138.5006122578072,9.533656171689852,0.3397057550292606,0.4491786802816692,-0.797067629836831
13249197,1831.0,1,199130.0,244276,2.58,-1.24,9.05,-0.1,-0.02,-0.43,33.99,11.329697,14.579489698194003,-388.40009067134093,9.491917614476014,0.44192759587968705,0.21550030524687774,-0.27309951202363697
13289197,1830.0,1,200277.0,246003,2.36,-1.06,9.11,0.0,0.21,-0.49,33.99,11.369697,3.099075055724136,413.2947989053482,9.47023230971659,0.5331041174104736,0.04094223391243591,0.286908847207363
13329168,1802.0,1,200924.0,246758,2.11,-0.84,9.08,-0.06,0.25,-0.43,33.99,11.409668,0.8929177517523443,986.7830441437907,9.359706191969916,0.5009990019950139,0.007397925972800569,0.68750789733206
13369177,1827.0,1,201300.0,247192,2.13,-0.81,9.54,-0.12,0.3,-0.38,33.99,11.449677,8.41290741568732,1194.4127214328146,9.808394364012898,0.498798556533597,0.12173829895335533,0.8325435666596809
13409177,1805.0,1,201372.0,247004,1.75,-0.91,10.04,-0.03,0.46,-0.26,33.99,11.489677,16.160807564865735,1076.3036425560315,10.231920640818124,0.5292447448959696,0.23954401843749532,0.7500407687349039
13449177,1804.0,1,201152.0,246801,1.44,-0.79,10.13,-0.04,0.35,-0.13,33.99,11.529677,-2.355344613909341,789.0825157757945,10.26229019273963,0.37549966711037175,-0.0419914411708386,0.5494080417012944
13489177,1759.0,1,200942.0,246994,1.73,-0.91,10.2,-0.02,0.22,-0.1,33.99,11.569677,-20.95251938853164,496.52870892029284,10.385615051599014,0.24248711305964282,-0.32475883782204557,0.3450502748076583
13529182,1826.0,1,201065.0,247070,1.78,-0.99,10.07,-0.04,0.16,-0.05,33.99,11.609682,33.973091576640606,282.1843740306456,10.2739184345604,0.17233687939614087,0.5103772627050398,0.19532421212140122
13569177,1837.0,1,200835.0,246865,1.81,-1.0,9.91,0.01,0.08,0.02,33.99,11.649677,64.44212961946192,129.95906904812225,10.12344802920428,0.08306623862918075,0.9736546513539912,0.08899018856074986
13609145,1792.0,1,200781.0,246981,1.73,-0.78,9.55,-0.02,0.05,0.06,33.99,11.689645,13.762650728334762,-30.882864923975035,9.736724295162105,0.0806225774829855,0.2030803849208323,-0.02336281344830033
13649165,1790.0,1,200810.0,247008,1.61,-0.61,9.33,-0.1,0.09,0.12,33.99,11.729665,23.88883054079418,-260.0210416814483,9.487523386005433,0.18027756377319948,0.3570475083302702,-0.18342282639273932
13689169,1785.0,1,200605.0,245511,1.36,-0.54,9.76,-0.12,0.24,0.19,33.99,11.769669,20.73941371158311,-569.2844232296691,9.869083037445778,0.3287856444554719,0.30916107350573113,-0.3994527414175159
13729175,1734.0,1,199894.0,244377,1.03,-0.38,10.07,-0.08,0.26,0.34,33.99,11.809675,-29.480096542133758,-934.9423726050919,10.129669293713393,0.43543082114154485,-0.45441943523477024,-0.6548759840149909
13769169,1744.0,1,199782.0,244288,0.99,-0.4,10.21,-0.12,0.29,0.54,33.99,11.849669,-4.3715926932612295,-1333.1952079989508,10.265680688585634,0.6245798587850876,-0.07264820636827751,-0.9330677497449309
13809168,1725.0,1,199610.0,244218,1.06,-0.95,10.51,-0.31,0.21,0.73,33.99,11.889668,-39.108757231226704,-1748.1937269130956,10.605951159608457,0.8204267182387467,-0.6008218511548479,-1.2229568867246097
13849168,1613.0,1,199413.0,244283,0.7,-1.88,10.825,-0.43,-0.09,0.7,33.99,11.929668,-122.60932911989434,-2133.279680049627,11.00931537380958,0.8264381404557753,-1.87043616719953,-1.491951183161703
13889177,1627.0,1,199199.0,244477,0.59,-2.0,10.58,-0.2,-0.39,0.59,33.99,11.969677,-133.50493190206,-2373.3116978584026,10.783529106929699,0.7349829930005184,-2.0361022573985026,-1.6596208767117953
13929177,1603.0,1,199137.0,244719,0.73,-1.92,9.57,-0.04,-0.29,0.55,33.99,12.009677,-130.45954214847197,-2320.4748242501432,9.787961994204922,0.6230569797378086,-1.9897975394590088,-1.622712707181264
13968177,1658.0,1,199333.0,245553,0.84,-1.9,9.16,-0.05,-0.38,0.38,33.99,12.048677,-91.38741240018318,-1909.0258475745852,9.392614119615477,0.5397221507405454,-1.3957113653795814,-1.335303033836562
14008177,1644.0,1,200311.0,247144,1.12,-2.09,9.09,-0.14,-0.4,0.26,33.99,12.088677,-95.17806017792047,-1252.7744760923758,9.394179048751413,0.4971921157862422,-1.453347625549332,-0.876891412950596
14048177,1606.0,1,201411.0,248305,1.23,-2.35,9.1,-0.21,-0.24,0.28,33.99,12.128677,-133.16256808279311,-610.1958931447482,9.47868134288731,0.4243819034784589,-2.030896664234224,-0.4280306523394244
14088177,1680.0,1,201967.0,248682,1.02,-2.59,9.56,-0.25,-0.09,0.38,33.99,12.168677,-61.79873257161206,-212.96810541247098,9.957012604190075,0.4636809247747852,-0.9458196981308359,-0.15055491369978935
14128176,1724.0,1,201924.0,248140,0.85,-2.52,9.9,-0.07,-0.05,0.46,33.99,12.208676,-14.966647331108474,-96.99190561161222,10.250995073650168,0.4679743582719036,-0.23374450479149905,-0.06954199693463547
14168175,1687.0,1,201540.0,247858,0.68,-2.32,9.92,0.09,0.14,0.44,33.99,12.248675,-50.137362099422866,-94.47730228694623,10.21034769241479,0.470425339453563,-0.7685102191498726,-0.06778546973174089
14208834,1701.0,1,201972.0,248107,0.63,-2.25,9.86,0.1,0.09,0.35,34.15,12.289334,-45.323594812088324,-1.8459136184112779,10.133064689421458,0.37496666518505345,-0.6953175723946358,-0.0030796163503553787
14249144,1744.0,1,202449.0,248813,0.53,-2.25,9.83,0.09,0.09,0.45,34.15,12.329644,11.389128963352649,229.9495390409862,10.098133490898206,0.4676537180435969,0.16699132416226872,0.1588365849485415
14289141,1796.0,1,203181.0,248754,0.55,-2.29,9.65,0.02,-0.07,0.49,34.15,12.369641,44.975366187392616,454.98993981608993,9.933232102392454,0.4953786430600334,0.6776652828815992,0.3160341762482639
14329163,1794.0,1,202938.0,246457,0.74,-2.48,9.98,0.04,-0.08,0.58,34.15,12.409663,56.799733504540036,467.9619099099813,10.310111541588675,0.5868560300448484,0.857453105700794,0.3250954934435244
14369163,1857.0,1,202423.0,245492,0.9,-2.37,9.66,0.16,0.01,0.72,34.15,12.449663,109.62737328647849,185.54455974035415,9.987116701030383,0.7376313442364011,1.6606898528625604,0.12781835105040124
14409145,1882.0,1,202216.0,245607,0.85,-2.34,9.62,0.12,-0.02,0.82,34.15,12.489645,131.118474477272,-275.5392055480723,9.936926084056376,0.8289752710425082,1.9874589889563388,-0.19426273768344812
14449163,1853.0,1,202210.0,245716,0.77,-2.32,9.52,0.09,-0.03,0.88,34.15,12.529663,112.55779933489258,-666.3745116887327,9.82881986812252,0.8850988645343525,1.7052465640206274,-0.46727313274402416
14489163,1893.0,1,202005.0,246022,0.58,-2.26,9.76,0.12,0.05,0.9,34.15,12.569663,128.6969656720461,-754.184446799779,10.035018684586491,0.9093404203047394,1.9506402920779249,-0.5286110535977827
14529142,1879.0,1,202325.0,247238,0.27,-2.09,9.63,0.12,-0.07,0.88,34.15,12.609642,138.46541733277692,-455.3393029448943,9.857885168736752,0.8908984229416954,2.0991682098338686,-0.3198585957111005
14569164,1899.0,1,202886.0,248198,0.62,-2.33,9.49,-0.03,-0.27,0.85,34.15,12.649664,130.5134991789956,116.48192190579529,9.791496310574804,0.8923564310296642,1.9782604256151293,0.07957598977213788
14609174,1879.0,1,203611.0,248827,0.78,-2.68,9.62,-0.07,-0.2,0.77,34.15,12.689674,126.46532280998396,714.7421676895899,10.016745978610018,0.7986238163240563,1.9167084798533245,0.49747903866324467
14649176,1857.0,1,204187.0,248875,0.67,-2.59,10.18,-0.05,-0.19,0.74,34.15,12.729676,93.68017479246177,1111.4612333006266,10.525654373956993,0.7656369897020389,1.4182149685491316,0.7745994193679292
14689174,1818.0,1,204459.0,248931,0.58,-2.43,10.03,0.02,-0.24,0.73,34.15,12.769674,46.56852020569872,1248.8994557118617,10.336450067600577,0.7687002016391046,0.7018889630739028,0.8706042142454179
14729168,1798.0,1,204449.0,248664,0.7,-2.09,9.49,0.01,-0.29,0.72,34.15,12.809668,40.193403224618216,1279.9523256518114,9.742597189661492,0.776273147803014,0.6049562163565376,0.8922955920633144
14769164,1808.0,1,204237.0,248543,0.71,-1.94,9.45,0.05,-0.17,0.76,34.15,12.849664,22.268426389740874,1445.564053963907,9.673169077401676,0.7803845206050668,0.3324094937463879,1.007980441059218
14809168,1779.0,1,204547.0,249977,1.03,-1.89,9.9,0.06,-0.18,0.7,34.15,12.889668,15.55255703256216,1864.2710183041013,10.131288170810265,0.7252585745787498,0.23029565562886617,1.3004600404022484
14849163,1831.0,1,205709.0,251384,1.42,-1.75,9.42,0.01,-0.22,0.6,34.15,12.929663,44.127653553378885,2400.7158019530693,9.685829856031955,0.6391400472509917,0.6647759328844425,1.6751831015258034
14889168,1753.0,1,205950.0,251561,1.28,-1.77,9.8,-0.04,0.05,0.68,34.15,12.969668,-30.1532066167898,2734.4916951622954,10.040483056108407,0.6830080526611675,-0.4646539781573822,1.9083357544080692
14929168,1680.0,1,205479.0,251062,1.43,-1.47,10.05,0.11,0.05,0.6,34.15,13.009668,-99.11315148147523,2586.9594357259602,10.257109729353587,0.6120457499239742,-1.5131801289793367,1.8052799664583556
14968145,1730.0,1,204955.0,248515,1.06,-1.3,9.89,0.01,0.17,0.52,34.15,13.048645,-76.436130689019,1927.8599170724701,10.0312362149438,0.5471745608121782,-1.1683792540615834,1.3448788278082442
15008146,1679.0,1,203744.0,246065,0.81,-1.51,10.67,0.02,0.07,0.55,34.15,13.088646,-97.06528566283592,1001.0766970345074,10.806715504722051,0.554797260267208,-1.482042620554249,0.697492450317017
15048145,1682.0,1,202696.0,245235,0.84,-1.26,9.9,0.03,-0.1,0.49,34.15,13.128645,-138.98848392503882,157.2448140167631,10.015148526107838,0.5009990019950139,-2.119478885769769,0.10805011456121662
15088168,1631.0,1,202167.0,245510,0.6,-1.31,9.98,-0.08,-0.11,0.48,34.15,13.168668,-153.93047929909864,-371.99372292128845,10.083476583004495,0.49889878733065685,-2.3466697996532506,-0.2616391632000358
15128177,1729.0,1,202258.0,245469,0.68,-1.47,10.0,-0.01,-0.23,0.44,34.15,13.208677,-97.29209887535303,-592.0550899035758,10.130315888460734,0.4965883607174054,-1.485491283182138,-0.41535874736621753
15168216,1757.0,1,201723.0,244583,0.45,-1.35,9.67,0.07,-0.03,0.52,34.15,13.248716,-43.29344550174945,-687.855956003763,9.774144463839278,0.5255473337388366,-0.6644494409577506,-0.48227857751007996
15208855,1728.0,1,201318.0,244167,0.31,-1.36,9.65,0.0,-0.06,0.55,34.03,13.289355,-102.47763798916408,-860.077892817414,9.750292303310706,0.5532630477449222,-1.5643366676674348,-0.6025808589796835
15249168,1723.0,1,200989.0,243221,0.25,-1.51,9.93,0.01,-0.03,0.63,34.03,13.329668,-91.30530847364174,-1186.6887574921577,10.047263308981208,0.6307931515164064,-1.3944629868573424,-0.8307285206544371
15289169,1821.0,1,200244.0,242108,0.29,-1.41,9.85,0.1,0.02,0.72,34.03,13.369669,-17.129756391471595,-1593.105833977833,9.954632087626342,0.7271863585079137,-0.2666342703114846,-1.114623258073031
15329146,1772.0,1,199738.0,241756,0.25,-1.24,9.88,0.01,-0.02,0.71,34.03,13.409646,-53.454503523392155,-1920.056740401179,9.96064756930994,0.7103520254071216,-0.818946882575741,-1.3430084492919798
15369169,1793.0,1,199700.0,242039,0.15,-1.46,10.12,-0.02,0.01,0.67,34.03,13.449669,-54.90121451204213,-2020.141519233411,10.225874045772322,0.6703730304837748,-0.8409439173363908,-1.4129207232836856
15409168,1839.0,1,199702.0,242293,0.25,-1.58,10.24,0.11,0.04,0.61,34.03,13.489668,3.4694171132869984,-1822.7188980631458,10.364193166860602,0.6211280061307813,0.04657323220957532,-1.2750149943161224
15449146,1860.0,1,199831.0,242881,0.49,-1.64,10.02,0.16,0.06,0.52,34.03,13.529646,2.898514192363472,-1353.0390901491007,10.165141415641987,0.5473572873361604,0.0378927345185816,-0.9469293073376785
15487145,1888.0,1,200128.0,243743,0.75,-1.69,9.71,0.15,0.07,0.43,34.03,13.567645,40.846121639399406,-722.3805373242591,9.88446761338212,0.4607602413403309,0.6148807069918486,-0.5063950517321334
15527144,1933.0,1,200504.0,244746,0.8,-1.77,9.89,0.07,0.1,0.39,34.03,13.607644,71.35679928885064,-98.02345764505345,10.078938436164794,0.408656334834051,1.078791219935593,-0.07026256752728806
15567145,1913.0,1,201219.0,245709,0.89,-1.76,10.08,0.08,0.02,0.31,34.03,13.647645,49.42043873132658,352.6018314899797,10.27112944130294,0.3207802986469088,0.7452519785171728,0.24451295627548028
15607145,1924.0,1,201170.0,243645,0.74,-1.45,9.74,0.05,0.0,0.29,34.03,13.687645,64.17443528661832,530.7229497217231,9.875105062732244,0.2942787793912432,0.969584397107644,0.36893599609056404
15647143,1909.0,1,200208.0,241439,0.41,-1.36,10.1,-0.08,-0.11,0.26,34.03,13.727643,27.839778589388583,443.5546525198357,10.199397041001982,0.2934280150224242,0.4171211113126832,0.30804627890805286
15687175,1893.0,1,199941.0,241105,0.3,-1.21,9.89,-0.06,-0.28,0.22,34.03,13.767675,33.14358901087245,178.8064567663315,9.968259627437481,0.36110940170535577,0.49776479420483327,0.12311158038256728
15727176,1959.0,1,199806.0,240650,0.33,-1.2,9.76,-0.04,-0.2,0.26,34.03,13.807676,71.22767364314156,-157.1683037246916,9.839029423677927,0.33045423283716613,1.0768278828631312,-0.11157704843600019
15767177,1840.0,1,199232.0,239615,0.21,-1.05,10.15,0.03,-0.06,0.32,34.03,13.847677,-31.781336245858572,-481.69450369200024,10.206326469401223,0.3269556544854363,-0.4894094575353956,-0.3382685081596924
15807170,1830.0,1,198346.0,238844,0.09,-1.06,10.27,0.05,0.0,0.36,34.03,13.88767,-49.17496774163237,-738.5581948308775,10.324950363076812,0.363455636907725,-0.7538771498583164,-0.517695639467283
15847145,1901.0,1,198059.0,238753,0.12,-0.92,10.3,0.07,-0.11,0.28,34.03,13.927645,11.107904770378905,-885.7014309240466,10.341701987584056,0.30886890422961005,0.1627153503175191,-0.6204796827334
15887168,1883.0,1,198160.0,238774,0.41,-0.85,9.84,0.07,-0.14,0.26,34.03,13.967668,14.184956651620837,-890.134057432933,9.885150479380675,0.3034798181098704,0.20950148640345861,-0.623576007695177
15927168,1968.0,1,198074.0,238584,0.52,-1.02,10.06,0.08,-0.08,0.32,34.03,14.007668,71.1352892691878,-729.5044133324753,10.124939505992122,0.33941125496954283,1.0754231916005743,-0.5113712966435021
15967168,1954.0,1,197993.0,238718,0.63,-1.06,9.77,-0.0,-0.2,0.28,34.03,14.047668,83.31594249902284,-398.73561635179675,9.847507298804098,0.3440930106817051,1.2606282910338307,-0.2803191922952152
16008177,1932.0,1,198375.0,239613,0.75,-1.47,9.78,-0.18,-0.25,0.17,34.03,14.088677,45.637778900563646,72.83373644177162,9.918255895065421,0.35185224171518364,0.6877371739447319,0.04908639947672656
16048177,1904.0,1,198736.0,240566,0.88,-2.01,10.24,-0.19,-0.4,0.05,34.03,14.128677,22.495550849686463,601.379565484802,10.472444795748508,0.4456455991031439,0.33586288884714616,0.41829179962224167
16088177,1872.0,1,199109.0,240876,1.31,-1.89,9.37,-0.08,-0.38,-0.05,34.03,14.168677,3.1894711874021695,1050.7740699692379,9.648061981558783,0.39153543900903787,0.042316694234055194,0.7322075827659276
16128197,1931.0,1,198998.0,240847,1.47,-1.87,9.34,-0.09,-0.03,-0.03,34.03,14.208697,42.884834769433226,1274.2356374735225,9.638122223752923,0.09949874371066199,0.6458790500888314,0.8883023108180651
16168193,1910.0,1,198888.0,240365,1.12,-2.06,10.0,-0.05,0.12,-0.04,34.03,14.248693,54.33567769851361,1183.0101212557906,10.271221933148947,0.13601470508735444,0.819987487728317,0.824578502270317
16208177,1917.0,1,198319.0,239402,0.95,-2.13,10.47,0.1,0.24,-0.0,34.03,14.288677,33.00761794696637,805.2856667804446,10.726616428305807,0.26,0.4956973735225755,0.5607264374232347
16248856,1874.0,1,197830.0,238441,0.75,-1.88,10.22,0.14,0.08,-0.04,33.91,14.329356,25.302948465302663,295.84003373759043,10.418507570664813,0.1661324772583615,0.37854897018762335,0.20486310738708138
16287168,1847.0,1,197114.0,236769,0.78,-1.67,9.96,0.08,-0.13,-0.09,33.91,14.367668,-24.175643992027965,-122.14163216698978,10.129111510887814,0.1772004514666935,-0.37376598886827855,-0.08710984885249161
16327177,1814.0,1,196686.0,236428,0.71,-1.57,9.59,0.04,-0.21,-0.09,33.91,14.407677,-31.411932311801923,-261.87352745057376,9.743567108610685,0.23194827009486402,-0.48379272327270245,-0.1847168442660658
16367174,1856.0,1,197002.0,237191,0.93,-1.47,9.43,-0.02,-0.22,-0.12,33.91,14.447674,3.9763303730019612,-65.01073061896119,9.58909276209173,0.2513961017995307,0.05428077620562234,-0.0472021696926648
16407198,1840.0,1,197525.0,238018,0.92,-1.53,9.81,-0.11,-0.13,-0.1,33.91,14.487698,-4.983955182389466,379.0534941074435,9.971128321308477,0.197484176581315,-0.08195909089542264,0.2629902502858731
16447197,1806.0,1,197808.0,238896,1.1,-1.66,9.93,-0.12,-0.11,-0.13,33.91,14.527697,-22.492252494108172,895.6607942523683,10.127709514001673,0.2083266665599966,-0.3481702606364228,0.6238562234663614
16487200,1829.0,1,198055.0,239243,1.16,-1.74,9.79,-0.19,-0.03,-0.07,33.91,14.5677,-15.146509244140782,1316.9411399636067,10.010859103993022,0.2046948949045872,-0.23647927959042464,0.9181334082724038
16527197,1812.0,1,198134.0,240019,1.21,-1.71,9.81,-0.23,-0.06,-0.07,33.91,14.607697,4.261225475178658,1539.3471484213678,10.03116643267372,0.24779023386727736,0.05861256570254716,1.0734907961002234
16567201,1779.0,1,198390.0,239791,1.33,-1.66,9.39,-0.26,-0.07,-0.01,33.91,14.647701,-55.16709234382113,1525.5004725241013,9.627907353106385,0.26944387170614964,-0.8449865519424821,1.0638184701931366
16607197,1703.0,1,197968.0,238805,1.38,-1.71,9.49,-0.2,0.03,0.14,33.91,14.687697,-96.43897649687337,1275.3341237819538,9.741077969095619,0.24596747752497689,-1.4725196787900146,0.889069637045562
16647169,1782.0,1,197283.0,237849,1.59,-1.64,9.39,-0.15,-0.03,0.24,33.91,14.727669,-27.831078675409326,802.2773208933269,9.663839816553253,0.28460498941515416,-0.4293463531749462,0.5586250159645877
16687177,1769.0,1,196621.0,236982,1.63,-1.54,9.19,-0.19,-0.17,0.28,33.91,14.767677,-33.63986718242259,135.53302201284208,9.459630013906462,0.3786819245752298,-0.5176681560149666,0.09288376490106022
16727177,1776.0,1,196063.0,236056,1.82,-1.58,9.29,-0.19,-0.22,0.35,33.91,14.807677,-5.666833343196099,-651.089262973975,9.59754656149164,0.454972526643093,-0.09234215617826087,-0.45659591979869907
16767177,1856.0,1,195227.0,235029,1.87,-1.55,9.31,-0.19,-0.11,0.41,33.91,14.847677,55.194161984277464,-1409.24321937022,9.621616288337423,0.46508063816933937,0.8330406191578649,-0.9861896077291972
16807228,1766.0,1,194740.0,234564,1.74,-1.64,9.75,-0.18,-0.01,0.42,33.91,14.887728,-2.6374283651358046,-1931.4293462465723,10.038909303305813,0.45705579528105755,-0.04628048447653253,-1.3509525617248561
16847177,1789.0,1,194497.0,234535,1.78,-2.05,10.12,-0.13,-0.13,0.39,33.91,14.927677,7.78285594439296,-2040.0949756330378,10.477848061505759,0.431161222746202,0.11215845596896377,-1.4268588218354208
16887177,1779.0,1,194551.0,235710,1.64,-2.66,10.48,-0.13,-0.27,0.23,33.91,14.967677,5.801361510677986,-1712.1456859370505,10.935977322580731,0.37775653535048204,0.08203011500907621,-1.1977762294160093
16927177,1718.0,1,195580.0,236757,1.87,-2.67,10.05,-0.07,-0.46,0.01,33.91,15.007677,-36.58443422714744,-1138.854422820424,10.565429475416511,0.4654030511288038,-0.5624398790101168,-0.7973147773180307
16967177,1777.0,1,196052.0,236759,2.44,-2.36,9.29,0.02,-0.33,-0.11,33.91,15.047677,0.4840762877043402,-640.2080220891602,9.890768423130732,0.34842502780368695,0.0011815496773172624,-0.4489950407940693
17007217,1729.0,1,196397.0,236785,2.44,-2.26,9.31,0.11,0.14,-0.08,33.91,15.087717,-12.915188438991388,-463.0872213170819,9.886217679173365,0.19519221295943137,-0.20255236419536385,-0.3252707532681426
17047168,1730.0,1,196290.0,236582,1.92,-2.16,9.51,0.21,0.57,0.01,33.91,15.127668,-34.198916323212906,-606.5594312816941,9.939421512341651,0.6075360071633614,-0.5261684186654574,-0.42549047269276313
17087145,1726.0,1,195933.0,236154,1.18,-2.32,10.16,0.21,0.5900000000000001,0.06,33.91,15.167645,-20.939162764786982,-822.0598856245908,10.488107550935965,0.6291263784010332,-0.3245557522582383,-0.5760241201179366
17127145,1750.0,1,195638.0,236307,0.98,-2.2,9.93,0.33,0.55,-0.08,33.91,15.207645,5.234827705228851,-806.0157174044621,10.217891171861247,0.6463745044476925,0.073416049097282,-0.5648167787253469
17167168,1782.0,1,196223.0,238433,0.86,-2.01,9.59,0.21,0.24,-0.27,33.91,15.247668,28.995544072407707,-437.662501081421,9.836045953532343,0.41785164831552357,0.4346943610526712,-0.30751080986798235
17207168,1751.0,1,197481.0,239882,0.84,-1.97,9.33,0.04,0.11,-0.25,33.91,15.287668,13.452227824947522,134.99566642487116,9.572638089889328,0.2760434748368452,0.1983604488383097,0.09250840561530738
17247167,1744.0,1,197931.0,240165,0.41,-2.04,9.41,-0.13,0.1,-0.15,33.91,15.327667,-0.9755189113778856,630.8183585852423,9.637312903501682,0.22226110770892868,-0.021011387669934368,0.43885569548370007
17287863,1712.0,1,197961.0,239809,0.07,-2.12,9.63,-0.24,0.09,-0.07,33.91,15.368363,-36.789162592390284,865.4833060185965,9.860841749059764,0.26570660511172844,-0.5655527446771843,0.6027763264990368
17328177,1713.0,1,197746.0,239559,-0.12,-2.56,10.36,-0.2,0.2,-0.08,33.91,15.408677,-14.60069490000297,872.2433917611318,10.67228185534846,0.2939387691339814,-0.2281802501401371,0.6074984528018962
17368192,1806.0,1,197807.0,240216,-0.15,-2.64,10.03,-0.07,0.08,-0.23,33.91,15.448692,41.784884583178105,827.0668357062773,10.372704565348421,0.25337718918639857,0.6291544639953672,0.5759412489816936
17408191,1728.0,1,198336.0,240974,0.05,-2.54,9.81,-0.12,-0.21,-0.32,33.91,15.488691,8.0064630787038,873.8037503223342,10.133617320582024,0.40112342240263155,0.1155583706338512,0.608588410900709
17448196,1747.0,1,198625.0,241114,0.61,-2.56,9.63,-0.12,-0.17,-0.37,33.91,15.528696,-18.564887168828818,1010.4125779725557,9.98311574609851,0.4244997055358225,-0.28845522960693043,0.7040138482129833
17488196,1729.0,1,198549.0,241013,0.76,-2.77,9.73,-0.11,0.07,-0.46,33.91,15.568696,-4.581836445417162,1108.5776290370218,10.14511705206007,0.47812132351527686,-0.07584493270869133,0.7725851337421525
17528176,1749.0,1,198348.0,240855,0.4,-2.46,9.56,-0.1,0.18,-0.59,33.91,15.608676,-2.0096378740330096,1016.524890372093,9.879534401984742,0.6248999919987197,-0.036735019374286894,0.7082834850567201
17568177,1737.0,1,198188.0,240908,0.62,-2.09,9.55,-0.06,0.31,-0.7,33.91,15.648677,-22.623200492935837,656.5554683783286,9.795662305326783,0.7679192665899195,-0.35016130632878856,0.4568338525281895
17608176,1750.0,1,197921.0,239701,0.5,-2.03,9.65,0.07,0.47,-0.85,33.91,15.688676,13.528872838570535,70.47453581542851,9.873874619418661,0.9738069623903908,0.19952582536625685,0.04743842580365904
17648167,1846.0,1,197084.0,238368,0.24,-1.8,9.5,0.09,0.57,-0.94,33.91,15.728667,67.22397997589816,-589.5001814269277,9.672000827129825,1.1029959202100432,1.0159522902532139,-0.41357406578399053
17688168,1755.0,1,196657.0,237889,0.14,-1.69,9.82,0.04,0.45,-1.06,33.91,15.768668,16.641951426198844,-1114.8925218845175,9.965344951380258,1.1522586515188333,0.2468597423973265,-0.7805766578643092
17728167,1793.0,1,196650.0,238029,-0.11,-1.71,10.06,0.1,0.38,-1.14,33.91,15.808667,11.887173554872493,-1326.3090437336677,10.204890984229083,1.2058192235986287,0.17456402132014337,-0.9282575537442647
17768176,1791.0,1,196763.0,238374,-0.17,-1.63,10.18,0.09,0.33,-1.16,33.91,15.848676,34.2895058922516,-1159.449985697519,10.311071719273414,1.2093800064495857,0.5151882973580337,-0.8117014068502845
17808176,1763.0,1,197134.0,239509,-0.21,-1.77,10.52,0.01,0.27,-1.23,33.91,15.888676,-11.500397774593624,-707.3111449583276,10.669929709234264,1.2593252161375947,-0.18104067342370403,-0.495868621037397
17848178,1777.0,1,197939.0,240770,-0.49,-1.83,10.61,-0.04,0.11,-1.31,33.91,15.928678,-1.0558057289181735,-184.29234071505786,10.77780589916148,1.3152186130069785,-0.02223213730832877,-0.13052401647606893
17888197,1775.0,1,198514.0,241240,-0.5,-1.68,10.33,0.01,0.05,-1.31,33.91,15.968697,2.806454283895052,182.19251826027892,10.477657180877793,1.3109919908222172,0.03649297670756795,0.12547684772571077
17928176,1742.0,1,198588.0,240963,-0.53,-1.57,9.99,-0.0,0.16,-1.21,33.91,16.008676,-49.80672685698051,275.2823845117528,10.126494951363972,1.2205326705991937,-0.7634829573276013,0.19050296169788214
17968197,1731.0,1,198194.0,240555,-0.51,-1.49,9.93,0.1,0.16,-1.17,33.91,16.048697,-48.1369056899597,148.8303441061739,10.0541086129005,1.1851160280748885,-0.7380935640464305,0.10217235040219125
18008177,1779.0,1,198271.0,240992,-0.17,-1.13,9.14,0.14,0.13,-1.17,33.91,16.088677,-18.12963869154241,-14.356007899178575,9.211156279208382,1.1854956769216831,-0.28183733843205017,-0.011818299187284513
18048176,1779.0,1,198625.0,241633,-0.18,-1.01,9.12,0.11,0.33,-1.09,33.91,16.128676,-13.030587231084851,-13.061558724151865,9.177521451895386,1.1441590798486023,-0.20430698641150233,-0.010914086913962685
18088176,1807.0,1,198787.0,242169,-0.48,-1.07,9.68,0.11,0.43,-0.96,33.91,16.168676,8.205333615343937,262.8364395193638,9.75077945602299,1.057638879769461,0.11858216885040058,0.1818090890976124
18128175,1829.0,1,199306.0,243547,-0.57,-1.3,10.06,0.03,0.31,-0.91,33.91,16.208675,24.427517089783752,774.251708893499,10.159650584542758,0.9618211892030659,0.3652381606693913,0.53904827025182
18168176,1815.0,1,199934.0,244442,-0.51,-1.7,10.26,-0.13,0.16,-0.85,33.91,16.248676,12.671901070731552,1341.7546724777787,10.4123820521531,0.874642784226795,0.18649569155657267,0.9354664183871667
18208197,1830.0,1,200289.0,245138,-0.13,-2.01,9.96,-0.16,-0.06,-0.85,33.91,16.288697,18.090334572549573,1719.2784050411938,10.161623885974132,0.8670063436907482,0.2688822020779205,1.199178272849945
18248214,1828.0,1,200671.0,245534,0.26,-2.07,9.66,-0.17,-0.18,-0.8,33.91,16.328714,18.054239421974994,1713.3837121250158,9.882717237683167,0.8374365647617735,0.26833338044864624,1.1950606498601033
18288883,1841.0,1,200570.0,243102,0.48,-2.15,9.66,-0.15,-0.09,-0.69,33.99,16.369383,27.428828509709497,1294.152374196865,9.9080018167136,0.7118286310622802,0.41087267381651943,0.9022147595547212
18327197,1871.0,1,199406.0,241216,0.15,-2.07,9.72,-0.06,0.09,-0.56,33.99,16.407697,50.974016079410404,622.0945471565807,9.939104587436436,0.570350769263968,0.7688739010692703,0.43276184682890195
18367177,1817.0,1,198718.0,240634,-0.08,-2.0,9.86,-0.03,0.08,-0.56,33.99,16.447677,5.875171198682833,-42.855458626245934,10.061113258481885,0.5664803615307419,0.0831523808143774,-0.03172603571916746
18407197,1803.0,1,198730.0,241090,-0.05,-2.01,9.89,-0.07,-0.0,-0.66,33.99,16.487697,-28.205314949836296,-490.46982982872737,10.092308952861085,0.6637017402418047,-0.43503656248547895,-0.3443983414110186
18447218,1792.0,1,198887.0,241213,0.03,-2.02,9.77,-0.05,-0.02,-0.71,33.99,16.527718,-12.84029113089628,-654.2332691907711,9.976682815445221,0.7120393247567159,-0.2014135612813246,-0.4587921041398637
18487197,1820.0,1,198853.0,241482,0.17,-2.11,9.83,-0.04,0.03,-0.77,33.99,16.567697,-22.653992610080895,-592.0948486968955,10.055341863904976,0.771621668954417,-0.35062949608922295,-0.4153865200973419
18527177,1798.0,1,199150.0,242122,0.24,-2.22,9.89,-0.05,0.04,-0.86,33.99,16.607677,1.087374198129409,-403.80563929274194,10.138939786782444,0.8623804264940154,0.010354608574887065,-0.28386075812697625
18567177,1852.0,1,199433.0,242526,0.23,-2.25,9.95,-0.03,0.12,-0.9,33.99,16.647677,2.4310872471329037,-177.46620134605016,10.203817912918673,0.9084602357836032,0.03078557431660095,-0.12575574969824452
18607177,1751.0,1,199582.0,242999,0.18,-2.06,9.88,-0.01,0.15,-0.96,33.99,16.687677,-42.59952223583108,0.8592225048297583,10.09407747146811,0.9716995420396163,-0.6538984364230618,-0.001189996169949068
18647219,1824.0,1,199902.0,243397,0.24,-1.87,9.61,-0.05,0.09,-1.0,33.99,16.727719,-22.13496543427889,24.380579107055496,9.793191512474367,1.0052860289489753,-0.3427377617225042,0.01524038961516532
18687177,1775.0,1,200037.0,243211,0.32,-1.61,9.55,-0.03,0.16,-0.95,33.99,16.767677,-22.566784813666132,-204.306247399414,9.690046439517204,0.9638464608017192,-0.3493035139516812,-0.14450434139746968
18727177,1803.0,1,199684.0,242238,0.13,-1.26,9.62,-0.03,0.21,-0.81,33.99,16.807677,-31.173572209066602,-690.6279839902594,9.703035607478723,0.8373171442171718,-0.48016849182180726,-0.48421492369943875
18767177,1810.0,1,199055.0,241354,-0.08,-1.18,10.03,-0.15,0.14,-0.74,33.99,16.847677,6.768032262283688,-1289.8754646496436,10.099490086138012,0.7679192665899196,0.09672820626019536,-0.9028075862952637
18807197,1818.0,1,198587.0,241170,-0.0,-1.12,10.03,-0.24,-0.05,-0.72,33.99,16.887697,-2.718306610240448,-1750.0333149167852,10.092338678423351,0.7605918747922568,-0.047510226686901295,-1.2242418951149603
18847231,1808.0,1,198778.0,242053,0.39,-1.4,10.2,-0.26,-0.07,-0.73,33.99,16.927731,2.6241917645826196,-1846.3584987616493,10.30301412209068,0.7780745465570763,0.033721701031684356,-1.2915279772129387
18887197,1814.0,1,199401.0,243477,0.42,-1.84,10.21,-0.24,-0.1,-0.73,33.99,16.967697,6.210975746910119,-1512.0136255260768,10.382971636289874,0.7749193506423748,0.08825824119567786,-1.0579778744090977
18927197,1777.0,1,200282.0,244602,0.47,-1.96,10.29,-0.23,-0.29,-0.76,33.99,17.007697,-28.442896768474835,-869.2912290133742,10.485542427552328,0.8453401682163223,-0.4386489602374081,-0.609016655631534
18967200,1796.0,1,201101.0,244716,1.16,-2.1,10.1,-0.13,-0.3,-0.74,33.99,17.0477,2.779283878611779,-148.98660832381975,10.381021144376886,0.8090117428072351,0.03607985456073556,-0.1058618843795231
19007197,1817.0,1,201722.0,245281,1.31,-1.88,9.7,-0.06,-0.15,-0.65,33.99,17.087697,12.372831163821141,432.10581861142424,9.96697045244943,0.6697760819856141,0.18194837617030357,0.30004891884561924
19047198,1776.0,1,202308.0,245739,1.41,-1.68,9.4,-0.03,0.08,-0.49,33.99,17.127698,-3.0750255930397654,753.0424423243771,9.6524867262276,0.4973932046178355,-0.0529340880703989,0.5242329499519259
19087177,1840.0,1,202484.0,246007,0.98,-1.68,9.84,0.01,0.28,-0.37,33.99,17.167677,40.76420196475808,797.3249425380385,10.030373871396819,0.4641120554348917,0.6136351299935374,0.5551656284680545
19127169,1807.0,1,202630.0,246261,0.51,-1.64,10.16,-0.05,0.16,-0.32,33.99,17.207669,37.226298904728964,610.746698396049,10.304139944701838,0.36124783736376886,0.5598418172988628,0.4248350279757315
19167177,1809.0,1,202370.0,245883,0.34,-1.7,10.4,-0.03,0.07,-0.22,33.99,17.247677,21.407178293331942,250.6435728242048,10.543509852036939,0.23280893453645632,0.3193143389691856,0.17329199941542212
19207177,1811.0,1,201965.0,245408,0.42,-1.71,10.27,0.1,-0.08,-0.09,33.99,17.287677,46.32232896306017,-242.32118951090604,10.419856045070873,0.15652475842498528,0.6981456602549055,-0.17105893920631807
19247177,1811.0,1,201503.0,244718,0.46,-1.4,9.64,0.07,-0.29,0.06,33.99,17.327677,37.64688318041578,-836.1299439301102,9.751984413441194,0.3043024810940588,0.566236741374679,-0.5858524854579212
19287169,1786.0,1,201075.0,244092,0.79,-1.25,8.93,0.03,-0.28,0.25,33.99,17.367669,25.405237869777036,-1465.6152419349505,9.051602068142413,0.37656340767525465,0.38010426603006986,-1.0255671867476646
19327854,1776.0,1,200921.0,243985,0.79,-1.54,9.16,-0.14,-0.08,0.39,34.07,17.408354,16.915839773418348,-1983.9107319965633,9.322086676275864,0.4220189569201839,0.2510241757510445,-1.3876124121319608
19368176,1774.0,1,201075.0,244434,0.82,-1.71,9.16,-0.08,-0.15,0.41,34.07,17.448676,16.014018234685828,-2161.503472711759,9.354255715982967,0.4438468204234429,0.23731210755564525,-1.5116663641183161
19408175,1774.0,1,201192.0,244867,1.26,-1.7,8.785,-0.05,-0.22,0.44,34.07,17.488675,30.256986117623583,-1779.6696002365973,9.036250605201252,0.4944694126030446,0.4538744078863877,-1.2449437453218553
19448176,1759.0,1,201907.0,246965,1.6,-2.5,9.19,-0.31,0.07,0.44,34.07,17.528676,0.2793193471653019,-792.0256074150926,9.65743754833548,0.5427706698044764,-0.0019317504730635496,-0.5550442597253258
19488168,1714.0,1,203738.0,250011,0.65,-2.62,10.37,-0.51,-0.04,0.19,34.07,17.568668,-13.903489931146899,567.3946215308929,10.715586778147056,0.5457105459856901,-0.2175793477791643,0.39455227857797587
19528176,1775.0,1,205816.0,251628,0.85,-2.88,10.39,-0.21,0.0,0.18,34.07,17.608676,14.023050929955959,1857.0046215506093,10.81522075595316,0.2765863337187866,0.2070397329396698,1.295384240398592
19568168,1727.0,1,206544.0,252038,1.04,-2.54,10.24,0.13,0.15,0.17,34.07,17.648668,11.1149644167283,2670.9518443185484,10.601452730640268,0.2613426869074396,0.16282269123589457,1.8639512284750452
19608145,1776.0,1,206451.0,250900,1.02,-2.36,9.67,0.17,0.24,0.09,34.07,17.688645,15.151769974541441,2873.843632480501,10.005943233898542,0.30757112998459396,0.2242017454311374,2.0056773375812327
19648145,1719.0,1,206170.0,249814,0.68,-2.28,9.76,0.01,0.12,0.05,34.07,17.728645,7.299043428284983,2635.771282724511,10.045815049063963,0.130384048104053,0.10480215549294691,1.8393765320022952
19688146,1714.0,1,205686.0,249975,0.48,-2.36,9.58,-0.15,-0.12,-0.1,34.07,17.768646,-42.22716351772384,2254.2484701969133,9.878076735883356,0.21656407827707716,-0.6482367750892528,1.5728711980770773
19728198,1702.0,1,206128.0,251054,1.01,-2.26,9.32,-0.05,0.03,-0.06,34.07,17.808698,-15.064254047081018,1937.05498276116,9.64313745624317,0.08366600265340755,-0.2352286010214755,1.351301861952897
19768176,1769.0,1,206234.0,251133,0.67,-1.93,8.8,0.1,0.5900000000000001,-0.05,34.07,17.848676,21.99237513843877,1724.7378833805224,9.034035643055656,0.6004997918400972,0.32821217374380757,1.2029918851690642
19808167,1710.0,1,205636.0,250366,-0.76,-2.04,10.01,0.11,0.5900000000000001,-0.16,34.07,17.888667,-21.041041155363118,1566.226182127094,10.243988481055608,0.6211280061307815,-0.32610479869283654,1.0922666218650683
19848176,1723.0,1,205238.0,250243,-1.01,-1.7,10.61,0.13,0.13,-0.2,34.07,17.928676,-14.093595220667206,1418.222475152311,10.79269197188542,0.2716615541441225,-0.22046987166027746,0.9888815134146227
19888177,1728.0,1,205307.0,250354,-0.29,-1.62,10.21,0.03,-0.26,-0.16,34.07,17.968677,-18.870770974549263,1262.908702540637,10.341789013512122,0.30675723300355934,-0.29310614935520124,0.880390100912086
19928198,1681.0,1,205381.0,250291,-0.06,-1.7,10.27,-0.08,-0.21,-0.03,34.07,18.008698,-54.71477604090327,1067.4062910854254,10.40992315053286,0.22671568097509268,-0.8381091469070938,0.7438256970619553
19968210,1743.0,1,205096.0,249822,-0.1,-1.78,10.51,-0.12,-0.2,0.13,34.07,18.04871,-12.68176981885464,774.5534876964657,10.660136021646252,0.26702059845637377,-0.19900326728436138,0.5392590719601723
20008198,1733.0,1,204728.0,249469,0.23,-1.79,10.06,-0.04,-0.3,0.18,34.07,18.088698,-15.032017541637394,355.25070241713286,10.220596851456378,0.35213633723318016,-0.23473844954245274,0.24636327349842405
20048177,1727.0,1,204323.0,248826,0.31,-1.69,9.8,-0.05,-0.17,0.24,34.07,18.128677,-31.08041655458755,-140.0116769646515,9.949482398597429,0.29832867780352595,-0.4787520733485924,-0.09959262078559836
20088176,1775.0,1,203575.0,247400,0.26,-1.9,10.16,-0.01,-0.12,0.25,34.07,18.168676,7.839498261228116,-605.7744157117626,10.339400369460504,0.27748873851023215,0.11301969433801036,-0.4249421153475888
20128177,1764.0,1,203052.0,247056,0.62,-1.97,10.13,0.02,-0.28,0.18,34.07,18.208677,0.18237891069464995,-977.612534940822,10.338384786803015,0.33346664001066134,-0.0034057160180044842,-0.6846823952924409
20168169,1775.0,1,202996.0,247130,0.91,-1.91,9.85,0.04,-0.26,0.18,34.07,18.248669,-8.236393578280444,-1306.267607913861,10.074656321681648,0.31874754901018454,-0.13141195398457955,-0.9142579988811801
20208167,1793.0,1,202944.0,246746,1.18,-1.72,9.77,0.13,-0.18,0.2,34.07,18.288667,14.89767732232163,-1718.4032109364978,9.99018017855534,0.2988310559496787,0.2203383028035808,-1.2021473016946884
20248168,1821.0,1,202355.0,244348,1.13,-1.6,9.68,0.19,-0.04,0.21,34.07,18.328668,25.48397200347048,-2278.5472899696997,9.876198661428393,0.2860069929215018,0.3813014073314714,-1.5934250442757532
20288163,1777.0,1,201146.0,242314,0.85,-1.4,9.85,0.11,0.06,0.16,34.07,18.368663,-19.06830084784344,-2874.87115865483,9.98523910580012,0.20322401432901577,-0.29610956297630975,-2.0099754746383223
20328835,1746.0,1,200892.0,242690,0.71,-1.65,9.96,0.06,0.07,0.03,34.13,18.409335,-63.80236820431721,-3241.85588307571,10.120681795215184,0.09695359714832658,-0.9762846928713684,-2.266325510116649
20367144,1792.0,1,201404.0,243699,0.52,-1.61,9.79,0.11,0.05,-0.06,34.13,18.447644,-19.67229186847409,-3111.5726020316497,9.935119526206012,0.13490737563232041,-0.3052931605159475,-2.175318660252308
20407168,1797.0,1,202198.0,245198,0.56,-1.54,9.5,0.14,-0.01,-0.05,34.13,18.487668,-30.293595467762263,-2381.161677494833,9.640290452055892,0.1489966442575134,-0.4667885706634713,-1.665104327178238
20447176,1719.0,1,202978.0,246544,0.53,-1.39,8.94,0.04,-0.25,0.0,34.13,18.527676,-107.60476804227777,-1189.1785902343904,9.06292447281781,0.25317977802344327,-1.6422939506946126,-0.8324677448491599
20487168,1730.0,1,204259.0,248538,0.5,-1.25,8.785,-0.1,-0.2,0.27,34.13,18.567668,-111.65375190941937,131.26790893176215,8.887560126378894,0.3505709628591621,-1.7038581743506018,0.08990445318344228
20527177,1758.0,1,205790.0,250036,1.58,-1.81,9.77,-0.47,-0.06,0.14,34.13,18.607677,-88.13774714746819,1190.1353468555624,10.061083440663833,0.494064773081425,-1.3463006675378837,0.8295556899125955
20567177,1775.0,1,206405.0,250726,1.53,-2.09,10.825,-0.28,-0.08,-0.13,34.13,18.647677,-73.41721783664319,1702.3779234495807,11.130571638509856,0.3189043743820395,-1.1224771136381861,1.1873727704207973
20607198,1798.0,1,205343.0,251147,1.14,-1.76,10.82,-0.17,0.06,0.12,34.13,18.687698,-71.01357855237384,1596.4751861688637,11.02132478425348,0.2165640782770772,-1.0859301202836422,1.113396474807935
20647169,1785.0,1,205383.0,251090,0.61,-1.86,10.71,-0.3,-0.03,0.53,34.13,18.727669,-66.35468297705773,1020.7847207719668,10.887414752823556,0.6097540487770459,-1.0150922758762397,0.7112591066602149
20687178,1838.0,1,204912.0,248969,0.34,-1.84,10.51,-0.29,-0.5,0.63,34.13,18.767678,-49.55282779935468,261.77924473008557,10.675265804653296,0.8549853799919622,-0.7596224582783038,0.18107060625703464
20727177,1819.0,1,203962.0,247660,0.27,-1.7,9.87,-0.28,-0.6100000000000001,0.73,34.13,18.807677,-37.52288049377226,-373.3462798245594,10.018972003154815,0.9916652661054536,-0.576708820982564,-0.26258396549579105
20767177,1917.0,1,203582.0,247487,0.42,-1.8,9.51,-0.31,-0.55,0.68,34.13,18.847677,20.1965860727793,-668.2524572698819,9.68795644085996,0.9279008567729637,0.30090745648513223,-0.46858493507343624
20807177,1929.0,1,203493.0,248006,0.38,-2.03,9.54,-0.2,-0.55,0.61,34.13,18.887677,65.07470933388912,-575.3826270996194,9.760988679432016,0.8453401682163223,0.9832729359155274,-0.403712523022548
20847178,1964.0,1,204002.0,249466,1.17,-2.27,9.29,-0.13,-0.6100000000000001,0.45,34.13,18.927678,65.1116029565377,-223.72495312701864,9.634619867955351,0.7690903718029501,0.9838338981990893,-0.1580689002767804
20887177,1954.0,1,204809.0,249754,1.58,-2.57,9.28,-0.08,-0.5,0.34,34.13,18.967677,84.93984303338777,165.43800381861618,9.7580582084757,0.6099180272790763,1.2853194676285402,0.11377330780774786
20927177,2001.0,1,204680.0,248706,1.7,-2.62,9.45,0.17,-0.18,0.39,34.13,19.007677,104.54018664196096,412.6188790824563,9.95273329292009,0.46195237849804394,1.5833399036803881,0.28643669657261306
20967168,2021.0,1,204446.0,248373,1.78,-2.53,9.01,0.26,-0.04,0.41,34.13,19.047668,149.4645811467842,469.83732542295826,9.526247949743906,0.487134478352744,2.266408930788494,0.32640552844306536
21007168,2053.0,1,204436.0,248553,1.56,-2.43,9.22,0.18,0.04,0.4,34.13,19.087668,166.5629207132737,404.92266051176216,9.661619946986116,0.44045431091090487,2.5263867513374625,0.2810606529055101
21047146,2016.0,1,204448.0,248563,1.54,-2.6,9.44,0.05,-0.03,0.39,34.13,19.127646,140.38442175501044,313.35774005781093,9.911871669871438,0.3943348830626071,2.128346399059557,0.21709976013543195
21087168,2032.0,1,204401.0,248535,1.1,-2.64,9.78,-0.05,0.07,0.47,34.13,19.167668,165.83627902612062,244.47975914427624,10.1896025437698,0.4778074926160116,2.5153382678627088,0.16898638735479765
21127169,2027.0,1,204229.0,248460,0.83,-2.48,9.88,0.01,-0.01,0.46,34.13,19.207669,147.09649048711898,192.51060665480708,10.220259292209763,0.46021733996015407,2.2304024492135968,0.1326843475206404
21167168,1951.0,1,203953.0,248067,0.63,-2.2,9.69,-0.01,0.0,0.45,34.13,19.247668,108.06587208341718,131.8445672008915,9.956555629332867,0.45011109739707594,1.6369474492228473,0.09030726659204794
21207169,1971.0,1,203677.0,247931,0.59,-2.3,10.1,0.04,0.14,0.45,34.13,19.287669,97.07497617406435,49.579957404435305,10.375360234709925,0.4729693436154187,1.4698324405822285,0.03284292479087073
21247146,1873.0,1,203608.0,248055,0.5,-2.22,10.2,0.16,0.19,0.46,34.13,19.327646,44.58415239496155,-43.7185354391954,10.450760737860186,0.5227810249043092,0.6717169328251845,-0.03232892122610309
21287146,1901.0,1,203588.0,248049,0.57,-2.1,10.0,0.18,0.09,0.57,34.13,19.367646,49.77888845857485,-113.9732928930075,10.23400703536987,0.6044832503882965,0.7507021556237858,-0.08140401445846135
21327145,1890.0,1,203371.0,247853,0.52,-2.06,9.87,0.1,-0.02,0.71,34.13,19.407645,66.62964893543965,-108.73784552604148,10.096083399021621,0.7172865536171719,1.0069155713377802,-0.07774689461407393
21367855,1843.0,1,203239.0,247887,0.48,-2.17,9.87,0.07,-0.15,0.82,34.13,19.448355,23.15825882495866,18.69686595233656,10.11712409729168,0.836540495134575,0.34593926932852054,0.01127014243073528
21408168,1806.0,1,203272.0,248098,0.58,-2.32,9.72,0.03,-0.39,0.88,34.13,19.488668,-10.613643032081361,262.9359512216227,10.009855143807028,0.9630160954002794,-0.16755769372129942,0.18187860106011938
21448169,1738.0,1,203305.0,248380,0.61,-2.58,9.69,-0.03,-0.5,0.99,34.13,19.528669,-55.367386733781956,533.3402653895942,10.04612363053531,1.1095043938624127,-0.8480319996462027,0.37076427100139453
21488177,1713.0,1,203476.0,248569,0.76,-2.72,9.63,0.09,-0.46,1.07,34.13,19.568677,-86.79342195307562,684.8404465811409,10.035581697141428,1.1681609478149833,-1.3258603942126181,0.47659177345320036
21528168,1686.0,1,203332.0,246962,0.82,-2.96,9.59,0.1,-0.31,1.16,34.13,19.608668,-90.2727716157844,617.8086047097154,10.069860972227968,1.2048651376813921,-1.3787634108313558,0.4297679851632814
21568169,1690.0,1,202748.0,245347,1.21,-3.16,9.76,0.16,-0.36,1.14,34.13,19.648669,-86.3503456196307,377.58424075770495,10.329922555372814,1.2061509026651682,-1.319123481598507,0.26196393195906403
21608168,1679.0,1,202065.0,244570,1.2,-3.07,9.62,0.18,-0.36,1.08,34.13,19.688668,-83.78356047259301,159.1492406042825,10.169036335857983,1.1525623627379127,-1.2800958786111294,0.10938041468214639
21648168,1660.0,1,201897.0,244911,1.28,-3.09,9.64,0.21,-0.5,1.07,34.13,19.728668,-95.43482979363301,188.02310208170562,10.203729710257912,1.1995832609702421,-1.4572517710259474,0.1295496885553686
21688169,1661.0,1,202155.0,245391,1.67,-3.07,9.22,0.17,-0.45,1.14,34.13,19.768669,-85.89731887879445,554.0450358568521,9.86013184496029,1.2373358476985947,-1.3122352744556427,0.3852271853699093
21728168,1663.0,1,202428.0,246435,1.91,-3.49,9.54,0.13,-0.2,1.08,34.13,19.808668,-78.46891787383166,1122.7382398374725,10.336333972932568,1.1060289327137875,-1.1992874940045555,0.7824767527647666
21768168,1639.0,1,202551.0,246840,1.96,-3.13,9.2,0.2,-0.09,0.95,34.13,19.848668,-90.7568787648538,1595.7502315874017,9.913551331384731,0.9749871794028884,-1.3861241911596343,1.1128900718971022
21808168,1627.0,1,202408.0,246568,2.03,-2.59,9.11,0.11,-0.02,0.8,34.13,19.888668,-104.54683879306158,1685.4223986635016,9.68612925786147,0.8077747210701757,-1.5957985715080716,1.1755288186396322
21848169,1597.0,1,201852.0,245081,1.58,-2.2,9.45,0.12,-0.04,0.76,34.13,19.928669,-120.04105125333132,1290.4692863202345,9.830508633839857,0.7704544113703289,-1.831385867624137,0.8996420102139033
21888169,1600.0,1,200618.0,242413,1.44,-2.0,9.62,0.09,-0.1,0.95,34.13,19.968669,-121.72031593414619,557.8470294944385,9.930659595414596,0.9594790253048786,-1.8569188481890295,0.38788299401541
21928177,1613.0,1,199486.0,240662,1.35,-2.01,10.05,0.16,-0.12,0.92,34.13,20.008677,-98.23310299613522,-211.2608260231103,10.337557738653748,0.9414881836751856,-1.4997991169631453,-0.14936232691644385
21968168,1671.0,1,198522.0,239608,1.26,-1.87,9.43,0.21,-0.23,0.77,34.13,20.048668,-42.46172488558775,-747.8879552783898,9.695844470699805,0.8306021911842034,-0.6518032473168696,-0.5242127620137276
22008168,1689.0,1,198099.0,239622,1.58,-1.44,9.5,0.15,-0.21,0.54,34.13,20.088668,-19.418806676289815,-963.4168012230855,9.73755616158387,0.5984981202978001,-0.30143895423180866,-0.6747662418396635
22048168,1693.0,1,198070.0,240018,1.71,-1.03,8.785,0.06,0.08,0.37,34.13,20.128668,-19.39830389689824,-958.0522658211771,9.008952491827227,0.383275357934736,-0.30112721238806467,-0.6710189500613093
22088146,1714.0,1,197680.0,239395,1.06,-1.17,9.56,-0.09,0.24,0.45,34.13,20.168646,10.103311957678555,-900.5379079935378,9.689483990388755,0.517880295048962,0.1474406595225803,-0.6308434149817636
22128181,1711.0,1,197180.0,238048,0.79,-1.74,10.76,0.09,0.24,0.56,34.13,20.208681,-8.91438265862346,-891.618684939592,10.928371333368938,0.6158733636065129,-0.1417206814945319,-0.6246130653400277
22168146,1686.0,1,196614.0,237435,0.96,-1.51,10.22,0.18,-0.0,0.49,34.13,20.248646,-14.399323512040345,-922.0523495238883,10.3754566164579,0.5220153254455274,-0.22511842683502228,-0.6458719093102537
22208168,1773.0,1,196494.0,237086,1.1,-1.66,10.08,0.01,0.1,0.42,34.13,20.288668,44.24693459353361,-936.1030098390854,10.274823599459019,0.43185645763378366,0.6665895841300299,-0.6556867245617023
22248146,1770.0,1,196229.0,236752,0.79,-1.87,10.73,0.13,-0.04,0.48,34.13,20.328646,63.85913849870882,-915.8697058360679,10.92034340119394,0.4988987873306569,0.964790354304362,-0.6415531439141634
22288168,1775.0,1,196009.0,236275,1.17,-1.56,10.05,0.18,-0.09,0.6,34.13,20.368668,43.54567259491066,-900.9146805913902,10.237431318450932,0.6328506932918696,0.6559269952086404,-0.6311066021456955
22328187,1779.0,1,195524.0,235686,0.95,-1.51,9.74,0.11,0.07,0.6,34.13,20.408687,56.14247095857266,-937.0578198800315,9.902030094884584,0.6140032573203501,0.8474595221972849,-0.6563536885293656
22368834,1838.0,1,195083.0,235423,0.73,-1.82,10.23,0.09,0.14,0.62,33.95,20.449334,106.5277083695318,-1017.7775435010756,10.41624692487654,0.6419501538281613,1.6135598887858584,-0.7127388801656366
22407146,1822.0,1,194755.0,234759,1.19,-2.11,10.41,0.13,-0.07,0.44,33.95,20.487646,82.13257018894116,-1078.0320756338028,10.688138285033554,0.4641120554348917,1.2426352834159455,-0.7548285106654606
22447168,1798.0,1,194329.0,234151,0.68,-1.59,9.7,0.13,-0.16,0.24,33.95,20.527668,56.46916834661189,-1040.8543011972836,9.852943722563323,0.3163858403911275,0.8524269095035903,-0.7288587000395645
22487169,1831.0,1,194177.0,234293,0.42,-1.38,9.69,0.03,-0.18,0.26,33.95,20.567669,87.08730742232915,-866.053791285101,9.796780083272258,0.3176476034853718,1.317971358145306,-0.6067552065267754
22527168,1831.0,1,194569.0,235405,1.06,-1.29,9.54,-0.03,-0.26,0.11,33.95,20.607668,63.42802863796546,-555.7583492575634,9.685003871966185,0.28390139133156783,0.9582353902052229,-0.3900043657443772
22567177,1815.0,1,194897.0,236626,1.28,-1.44,9.65,-0.06,-0.12,-0.07,33.95,20.647677,77.8476217605391,-127.56921876575521,9.840452225380702,0.15132745950421556,1.1774832521763758,-0.09090118381704863
22607198,1808.0,1,194575.0,237097,1.36,-1.47,9.95,-0.05,-0.06,-0.05,33.95,20.687698,12.396507550205449,387.6600411794903,10.149532008915484,0.09273618495495704,0.1823083722568669,0.2690021862070391
22647202,1627.0,1,194628.0,237140,1.38,-1.42,10.15,-0.02,0.02,-0.01,33.95,20.727702,-111.87825652636742,896.4472827547429,10.341339371667482,0.030000000000000002,-1.7072717351113043,0.6244056096998216
22687179,1774.0,1,194680.0,237623,1.29,-1.41,10.39,0.15,0.06,0.02,33.95,20.767679,-30.87615654406517,1205.9502000212929,10.564293634692289,0.16278820596099705,-0.47564632894841724,0.8406028477378079
22727147,1787.0,1,195046.0,237104,1.05,-1.02,9.54,0.1,-0.05,-0.08,33.95,20.807647,26.33030251690883,1100.2926156025846,9.65165788867384,0.13747727084867523,0.394169742381912,0.7667977988845289
22767178,1793.0,1,194329.0,235189,1.15,-1.38,9.99,-0.02,0.03,-0.12,33.95,20.847678,-2.098972685770183,524.648136519415,10.150221672456222,0.12529964086141668,-0.03809334247719806,0.36469255358108804
22807181,1774.0,1,193682.0,234509,1.08,-1.26,9.99,0.07,-0.07,-0.07,33.95,20.887681,-14.692942590866284,-286.6876882551078,10.12689982176184,0.12124355652982141,-0.22958286315574952,-0.2020502932608308
22847181,1709.0,1,189980.0,234432,1.18,-1.14,9.66,-0.01,-0.08,0.05,33.95,20.927681,-77.64482775717183,-908.9726213101674,9.798346799333038,0.09486832980505139,-1.1867573210230187,-0.6367353197780179
22887182,1728.0,1,192256.0,234549,1.11,-1.37,9.96,-0.14,-0.21,0.06,33.95,20.967682,-73.17315197513041,-1014.2271783571836,10.11487024138224,0.25942243542145693,-1.1187661269368308,-0.7102588417061776
22927182,1790.0,1,192356.0,235204,1.12,-1.39,9.74,-0.09,-0.26,0.06,33.95,21.007682,-3.2383579881643603,-597.100645486504,9.902227022241007,0.2816025568065745,-0.055417533901171656,-0.4188832220013202
22967182,1808.0,1,192591.0,236091,1.2,-1.37,9.57,-0.04,-0.1,0.08,33.95,21.047682,13.55201553595283,64.21881570424775,9.741755488617029,0.1341640786499874,0.19987770678747185,0.043068614294544276
23007180,1775.0,1,192881.0,236221,0.88,-1.42,9.76,-0.03,0.12,0.12,33.95,21.08768,-31.38907350193034,653.3038573814042,9.901939204014536,0.17233687939614084,-0.4834451583206995,0.454562502962513
23047169,1767.0,1,192748.0,236346,0.86,-1.53,9.83,0.01,0.1,0.07,33.95,21.127669,-17.21449805301243,1030.8789410731474,9.985459428589152,0.12247448713915891,-0.26792275521912223,0.718310227756378
23087146,1850.0,1,193154.0,236221,0.87,-1.65,9.54,-0.04,-0.03,-0.06,33.95,21.167646,42.756752955845755,1259.4045114033465,9.72064812653971,0.07810249675906654,0.6439315843352743,0.8779423164061102
23127202,1808.0,1,193327.0,236296,0.96,-1.92,9.76,-0.08,-0.01,-0.09,33.95,21.207702,22.839291100157823,1470.8186669038946,9.993277740561402,0.12083045973594572,0.34108941045206526,1.0256215593193132
23167199,1805.0,1,193554.0,236263,0.88,-2.07,9.84,-0.04,-0.01,-0.05,33.95,21.247699,15.485245012395104,1718.3655014576373,10.093805030809738,0.06480740698407861,0.22927218593862347,1.1985405818223354
23207199,1815.0,1,193493.0,235818,1.03,-2.03,9.83,0.02,-0.08,-0.0,33.95,21.287699,22.995473160567375,1919.392362012646,10.090128839613497,0.08246211251235322,0.343464136460765,1.3389639820515822
23247178,1819.0,1,193225.0,235261,1.05,-1.84,9.81,-0.0,-0.04,0.04,33.95,21.327678,50.53852791403713,1906.170217333207,10.036144678112208,0.0565685424949238,0.7622523654711294,1.329727910269514
23287178,1839.0,1,192926.0,234849,0.85,-1.58,10.01,0.03,-0.12,0.03,33.95,21.367678,54.584627849326985,1540.2145849604397,10.169513262688632,0.12727922061357855,0.8237727393536061,1.0740967270089747
23327169,1759.0,1,192597.0,233169,1.34,-1.16,9.44,0.01,-0.1,0.12,33.95,21.407669,-3.288366188747916,822.9405748965746,9.604936230917932,0.15652475842498528,-0.05617790147644012,0.5730589298153324
23367170,1805.0,1,191306.0,229770,1.49,-1.16,9.5,-0.04,0.5900000000000001,0.38,33.95,21.44767,50.97395495160719,-67.16058327414308,9.685850504731114,0.702922470831599,0.768872971629719,-0.048703907415668775
23407857,1799.0,1,190139.0,228116,0.51,-1.59,10.63,-0.02,0.5900000000000001,0.35,33.85,21.488357,32.95954358003767,-851.3188503164753,10.760348507367222,0.6862943974709397,0.494966409612905,-0.5964624003451583
23448169,1690.0,1,190027.0,227457,0.7,-1.48,10.21,-0.1,-0.07,0.09,33.85,21.528669,-29.161054419677402,-1305.8784759762084,10.340430358548915,0.15165750888103102,-0.4495684451525473,-0.9139861783410189
23488180,1790.0,1,190023.0,227782,1.22,-1.47,9.84,-0.15,-0.32,-0.02,33.85,21.56868,34.378561924741526,-1388.0266882347034,10.023716875490846,0.3539774004085572,0.5165423816621522,-0.9713692129078609
23528201,1695.0,1,190111.0,228328,1.2,-1.4,9.57,-0.16,-0.32,0.06,33.85,21.608701,-6.670537079833096,-1234.9730657137188,9.746019700369994,0.3627671429443411,-0.10760332869814417,-0.8644565842548397
23568180,1696.0,1,190401.0,229131,1.1,-1.53,9.62,-0.17,-0.43,0.13,33.85,21.64868,-25.87687822128611,-1039.6258943060704,9.802821022542439,0.4803123983409131,-0.3996330132916708,-0.7280006203180142
23608180,1702.0,1,190750.0,229555,1.5,-1.46,9.6,-0.17,-0.51,0.24,33.85,21.68868,6.065431435546225,-904.3695633118773,9.82555850829865,0.588727441181401,0.08604526064779801,-0.6335199432169566
23648180,1662.0,1,190610.0,229678,1.58,-1.5,9.42,-0.21,-0.29,0.29,33.85,21.72868,-22.868124489837857,-786.2180648675196,9.668650371173838,0.4607602413403309,-0.35388534085665135,-0.5509875139289944
23688182,1655.0,1,190652.0,230211,1.4,-1.8,9.89,-0.21,-0.35,0.29,33.85,21.768682,-22.614108379673663,-566.6019319425902,10.149487671799006,0.5006995106848018,-0.35002306204016087,-0.39757893934660377
23728178,1599.0,1,191820.0,231646,1.86,-1.78,9.47,-0.18,-0.59,0.19,33.85,21.808678,-67.01004469461878,-176.38078305237136,9.813709798032546,0.6454455825241969,-1.025056957554259,-0.12499755187806964
23768186,1595.0,1,192086.0,232850,2.11,-2.08,9.7,-0.19,-0.34,0.11,33.85,21.848686,-43.380290550972674,330.87806277168085,10.14241095598083,0.4047221268969613,-0.6657699075758526,0.2293382405146353
23808179,1683.0,1,192900.0,233695,2.26,-2.17,10.0,-0.02,-0.26,0.03,33.85,21.888679,22.190312031985922,806.9993916404734,10.479336811077312,0.26248809496813374,0.33122177604995634,0.5619235265646472
23848179,1586.0,1,193094.0,234086,2.6,-1.77,9.35,0.08,-0.04,-0.06,33.85,21.928679,-9.322222052883244,1098.9968528778068,9.864856815990793,0.10770329614269007,-0.14792182146144855,0.7658926690565981
23888179,1618.0,1,193226.0,234215,2.5,-1.98,9.34,0.02,0.07,-0.2,33.85,21.968679,-31.518774445756964,1125.6275816677353,9.86944780623516,0.21283796653792764,-0.48541724271919134,0.7844950462560439
23928169,1507.0,1,193401.0,233921,2.64,-1.99,9.19,0.05,-0.15,-0.4,33.85,22.008669,-59.073835336717906,899.7389558999323,9.766565414719752,0.4301162633521314,-0.904388023342011,0.6267049438993144
23968178,1603.0,1,193066.0,232346,2.69,-1.76,8.785,0.02,0.12,-0.43,33.85,22.048678,-22.081113530057472,505.35224721198546,9.354673965457055,0.44687805943008657,-0.341918951180261,0.35121378572133244
24008169,1565.0,1,192768.0,231638,2.24,-1.71,9.25,0.02,0.42,-0.44,33.85,22.088669,15.973408263212459,57.91356918398777,9.669756977297826,0.6086049621881175,0.2366946387169228,0.03866420707645387
24048168,1563.0,1,192670.0,231207,1.7,-1.64,9.49,0.11,0.5900000000000001,-0.37,33.85,22.128668,-34.699297445104285,-333.4194516060199,9.779555204609258,0.7050531894828929,-0.5337766424352159,-0.2346938568638544
24088168,1570.0,1,192675.0,230876,0.94,-1.57,10.2,0.07,0.5900000000000001,-0.34,33.85,22.168668,36.0796952936447,-596.57644176568,10.362842274202574,0.6845436436049933,0.5424078725181962,-0.41851704969634707
24128168,1657.0,1,192519.0,231046,0.46,-1.66,10.72,0.1,0.53,-0.3,33.85,22.208668,81.44731822262186,-719.5744649489086,10.857513527507116,0.617170964968379,1.2322161247580055,-0.5044349244976525
24168169,1531.0,1,192853.0,231554,0.44,-1.87,10.75,0.15,0.22,-0.27,33.85,22.248669,11.161764190222753,-758.8096559066746,10.920302193620834,0.3792097045171708,0.16353427513373214,-0.5318419033845644
24208168,1621.0,1,193001.0,231660,0.57,-1.78,10.18,0.21,0.1,-0.16,33.85,22.288668,64.7151297268904,-819.4142110187719,10.350154588217512,0.2823118842698621,0.9778055791480554,-0.5741760356230409
24248168,1619.0,1,193050.0,231727,0.42,-1.84,10.07,0.0,0.06,-0.02,33.85,22.328668,107.26631904121724,-1003.0358291709313,10.245335524032388,0.06324555320336758,1.624790358967614,-0.7024413425841817
24288168,1574.0,1,193097.0,231429,0.32,-2.06,10.09,-0.08,-0.06,0.06,33.85,22.368668,35.99343796625919,-1344.006229436591,10.303111180609477,0.11661903789690602,0.5410963421270222,-0.9406195783216365
24328177,1535.0,1,192665.0,231076,0.22,-2.11,9.86,-0.09,-0.04,0.09,33.85,22.408677,25.385565724961385,-1774.6298805142944,10.085638304044023,0.13341664064126332,0.37980515386687946,-1.241423347213591
24368177,1568.0,1,192524.0,231329,0.21,-2.04,9.91,-0.11,-0.06,-0.01,33.85,22.448677,44.0748898178845,-2148.4879063225453,10.119970355687807,0.12569805089976535,0.6639736677928814,-1.5025745935796087
24408884,1521.0,1,192782.0,231869,0.41,-1.74,9.52,-0.05,-0.03,-0.11,33.95,22.489384,10.285369853180033,-2311.0672915442187,9.686387355459207,0.12449899597988733,0.1502088239225299,-1.616141258337629
24447197,1502.25,1,192944.0,232874,0.54,-1.64,9.6,-0.03,0.18,-0.15,33.95,22.527697,-14.602333687076115,-2173.601248511167,9.754035062475426,0.23622023622035432,-0.22820516766443605,-1.5201170299063294
24487177,1503.0,1,193752.0,234648,0.29,-1.85,10.4,-0.04,0.22,-0.28,33.95,22.567677,-11.055957295471348,-1747.629747338424,10.567241835029613,0.35832945734337834,-0.17428301916864403,-1.2225629297712126
24527177,1505.0,1,194744.0,236346,0.36,-2.01,10.5,-0.06,-0.02,-0.38,33.95,22.607677,-12.336199801508641,-1129.1859873742458,10.696714448838952,0.38522720568516444,-0.19374892433443203,-0.7905610799439536
24567199,1502.25,1,195236.0,236414,0.64,-2.23,10.37,-0.16,-0.18,-0.45,33.95,22.647699,-17.93598510280466,-452.48941161213776,10.626354031369367,0.5103920062069938,-0.27889286316614786,-0.3178678595969083
24607198,1502.25,1,196135.0,237978,1.08,-2.41,9.67,-0.26,-0.3,-0.57,33.95,22.687698,-22.302030183354066,160.4305477708546,10.02414086094165,0.6946221994724903,-0.34527795746409823,0.11027544686128604
24647198,1502.25,1,197097.0,239058,1.0,-2.44,9.44,-0.29,-0.42,-0.62,33.95,22.727698,-28.10496537529381,640.7020600499136,9.801387656857573,0.8030566605165541,-0.4335107614811696,0.445759762744603
24687198,1502.25,1,197665.0,239759,1.38,-2.34,9.46,-0.2,-0.29,-0.61,33.95,22.767698,-34.79272560240005,996.5180573626725,9.842337120826537,0.7044146506142529,-0.5351972042749903,0.6943081013132487
24727199,1502.25,1,197904.0,240416,1.42,-2.26,9.47,-0.11,0.07,-0.65,33.95,22.807699,-43.335733861339904,1303.7037586832541,9.83894811450899,0.6629479617586889,-0.6650924294490111,0.9088866932593648
24767178,1502.25,1,198378.0,242030,1.29,-1.92,9.48,-0.05,0.14,-0.77,33.95,22.847678,-51.481011875637826,1653.106262731441,9.75811969592503,0.7842193570679061,-0.7889402228378386,1.152955010953824
24807178,1502.25,1,199109.0,243216,1.21,-1.64,9.45,-0.08,0.22,-0.85,33.95,22.887678,-63.65204670685393,2081.8757559167902,9.667274693521437,0.8816461875378353,-0.9739990758884918,1.4524635939433206
24847178,1502.25,1,199748.0,244263,1.28,-1.71,9.85,-0.13,0.23,-0.95,33.95,22.927678,-71.82275861344468,2543.3548669594,10.078938436164792,0.9860527369263775,-1.0982335879911833,1.77482084375791
24887179,1513.0,1,200396.0,245120,1.06,-1.64,9.74,-0.21,0.18,-1.04,33.95,22.967679,-77.96527064492145,2943.674806063334,9.93382101711119,1.0761505470890214,-1.1916296095422405,2.0544565445460496
24927178,1502.25,1,200779.0,245434,0.9,-1.67,9.79,-0.29,0.21,-1.08,33.95,23.007678,-94.55729898223031,3210.793632365444,9.9721111104921,1.1378049041905207,-1.4439090398837864,2.2410472008943034
24967178,1529.0,1,200864.0,245519,0.73,-1.82,10.08,-0.22,0.17,-1.08,33.95,23.047678,-92.4603643953877,3329.24183677627,10.268967815705725,1.1152129841424911,-1.4120254478191203,2.32378688835943
25007178,1557.0,1,200938.0,245675,0.79,-1.7,10.12,-0.14,0.06,-1.14,33.95,23.087678,-62.29664777774162,3308.329578377529,10.29215720828243,1.15013042738639,-0.9533904280022588,2.3091790373353613
25047178,1654.0,1,200944.0,245466,0.91,-1.63,10.05,-0.19,0.09,-1.17,33.95,23.127678,-4.28575573514612,3120.7514756391774,10.221912736860945,1.1887388274974449,-0.07134306763205454,2.1781500050839093
25087178,1671.0,1,200661.0,244780,0.69,-1.9,10.44,-0.23,0.3,-1.14,33.95,23.167678,30.688955160905035,2683.421036650551,10.633893924616702,1.2010412149464313,0.4604424357337837,1.8726613400518668
25127178,1692.0,1,200128.0,242770,0.48,-1.98,10.45,-0.15,0.21,-1.22,33.95,23.207678,-6.348897626670126,1916.5634008465477,10.646750678023787,1.2469963913339925,-0.10271284657204616,1.3369878662978802
25167178,1659.0,1,198866.0,239746,0.8,-1.68,9.46,-0.1,0.21,-1.21,33.95,23.247678,-5.265506613350909,843.3785929826411,9.641265477104135,1.232152587953294,-0.08624004034721948,0.5873355095005977
25207179,1749.0,1,197840.0,237920,0.76,-1.51,9.14,-0.06,0.44,-1.14,33.95,23.287679,16.242055435798523,-351.41379098228606,9.295014792887637,1.2234377793741698,0.2407793807559948,-0.24726345235531308
25247179,1698.0,1,197179.0,236505,0.72,-1.25,8.94,0.02,0.37,-1.05,33.95,23.327679,-0.5580759792491318,-1364.6838517260778,9.055633605662278,1.1134630662936242,-0.01466422727600343,-0.9550635288590388
25287169,1773.0,1,196498.0,235455,0.76,-1.03,9.13,-0.02,0.49,-0.9,33.95,23.367669,18.19489737825697,-1914.553268740934,9.219294983891123,1.0249390225764652,0.2704720646626812,-1.3391641062949136
25327179,1779.0,1,196285.0,235764,0.46,-1.29,9.73,-0.14,0.57,-0.81,33.95,23.407679,36.64831458363261,-1903.5222426172024,9.825914715689324,1.000299955013495,0.5510536479257033,-1.3314585977273747
25367179,1834.0,1,196822.0,237713,0.17,-1.88,10.45,-0.25,0.31,-0.91,33.95,23.447679,63.73802714889838,-1496.8549113580211,10.619124257677749,0.9933277404764251,0.9629488734608553,-1.0473890497082357
25407178,1847.0,1,197924.0,239332,0.43,-2.08,10.02,-0.31,-0.14,-0.98,33.95,23.487678,64.61270991016063,-1040.0730332391286,10.24264126092484,1.0373523991392701,0.9762483004058192,-0.7283129605156452
25447885,1820.0,1,198083.0,238873,0.96,-2.07,9.54,-0.23,-0.05,-0.89,33.93,23.528385,27.53195820502828,-848.5902356391798,9.809082525904245,0.9205976319760985,0.412440746161708,-0.5945563796778535
25486197,1857.0,1,197743.0,238048,0.86,-2.06,9.53,-0.21,0.07,-0.84,33.93,23.566697,50.36961351951194,-1018.1578695261809,9.787956885887882,0.86867715521936,0.7596840461336146,-0.7130045495070048
25526177,1856.0,1,197225.0,237260,0.8,-2.02,9.68,-0.22,0.13,-0.8,33.93,23.606677,31.38215609711473,-1406.9967476154563,9.92082657846613,0.8398214095865859,0.470982457348017,-0.9846203786149785
25566177,1857.0,1,196928.0,236879,0.87,-2.1,9.8,-0.27,0.21,-0.83,33.93,23.646677,37.729976029924394,-1799.0510278306667,10.060164014567556,0.8977193325310534,0.5675001563299412,-1.2584822642866451
25606190,1950.0,1,196849.0,236713,0.75,-2.1,9.93,-0.27,0.19,-0.82,33.93,23.68669,95.801646220308,-2096.9241086380066,10.177298266239424,0.8839683252243826,1.4504716397904323,-1.4665557064537533
25646177,1866.0,1,196773.0,236657,0.96,-1.92,9.84,-0.18,0.12,-0.78,33.93,23.726677,32.11552237822024,-2369.877088434838,10.071424924011497,0.8094442537939225,0.48213318731711763,-1.657221697157457
25686177,1872.0,1,196670.0,236642,1.09,-1.87,9.88,-0.13,0.14,-0.78,33.93,23.766677,2.0306513400591126,-2721.160033396706,10.114316585909304,0.8030566605165541,0.02469700331906242,-1.9026035602472942
25726178,1892.0,1,196247.0,235324,1.2,-2.09,9.93,-0.17,0.1,-0.87,33.93,23.806678,38.324876904348415,-3110.056645787953,10.218267954991198,0.8920762299265685,0.576545539489751,-2.174259718528048
25766177,1902.0,1,195788.0,234380,1.31,-2.27,9.99,-0.22,0.15,-0.9,33.93,23.846677,26.169663362024007,-3309.78071232056,10.328073392458053,0.938562730988185,0.391727246885821,-2.313773077353281
25806178,1903.0,1,196030.0,235518,1.23,-2.79,10.21,-0.26,0.09,-0.98,33.93,23.886678,33.70503146358099,-3059.435588352249,10.655566620316351,1.0178899744078433,0.5063014468225472,-2.1388993642515284
25846180,1927.0,1,197105.0,238178,1.21,-2.58,9.82,-0.32,-0.11,-1.06,33.93,23.92668,45.490600537478095,-2286.9705127882035,10.225111246338594,1.1126994203287788,0.6854993478728988,-1.599308922608217
25886199,1916.0,1,198476.0,240726,1.5,-2.37,9.38,-0.22,-0.02,-0.93,33.93,23.966699,41.80100512422334,-1207.6721617136177,9.790367715259729,0.9558765610684259,0.6293995745285107,-0.8453860692080338
25926201,1923.0,1,199570.0,242328,1.49,-2.28,9.63,-0.15,0.09,-0.76,33.93,24.006701,34.53979528780853,-206.55792968347777,10.007766983698213,0.7798717843338095,0.5189939120091159,-0.1460772102255021
25966180,1907.0,1,200073.0,242875,1.27,-2.06,9.86,-0.17,0.1,-0.58,33.93,24.04668,34.86421696750021,405.39738060852903,10.15264005074542,0.6126173356998641,0.5239266974937591,0.2813922593881519
26006180,1926.0,1,200154.0,243050,0.96,-1.98,10.18,-0.08,0.11,-0.4,33.93,24.08668,35.51864036343051,576.1401426846991,10.415104416183258,0.4224926034855522,0.5338771121248765,0.4006612921386698
26047179,1862.0,1,200280.0,243377,1.08,-2.1,10.27,-0.03,0.04,-0.29,33.93,24.127679,-8.179591826157598,514.7553239063382,10.537993167581767,0.2942787793912432,-0.1305482914246663,0.3577821219048251
26087178,1855.0,1,200435.0,243785,1.2,-1.96,9.81,-0.01,-0.23,-0.28,33.93,24.167678,-28.365903677331232,531.1184333405171,10.075599237762487,0.3624913792078372,-0.4374782912402809,0.36921225347394404
26127199,1856.0,1,200752.0,244367,1.71,-1.95,9.22,-0.08,-0.27,-0.23,33.93,24.207699,-14.0642905350325,835.8424203034019,9.57783900470247,0.36359317925395684,-0.22002429808434293,0.5820712627754993
26167202,1835.0,1,201318.0,245504,1.77,-2.19,9.45,-0.17,-0.19,-0.24,33.93,24.247702,-34.75102458126695,1426.225756875691,9.860603429810975,0.35014282800023194,-0.534563146181414,0.9944720500697086
26207199,1829.0,1,202100.0,246246,1.92,-2.19,8.96,-0.13,-0.42,-0.28,33.93,24.287699,-38.93714647884578,2113.0815613080185,9.421470161285871,0.5212485011968859,-0.5982125340797442,1.4742618018436493
26247203,1831.0,1,202826.0,246569,2.13,-1.94,8.785,-0.11,-0.5,-0.24,33.93,24.327703,-24.688117796344443,2654.822454975068,9.24536235093033,0.5654201977290871,-0.38155808015389986,1.8526843575256624
26287201,1802.0,1,203112.0,246251,2.57,-2.48,8.785,-0.28,0.03,-0.07,33.93,24.367701,-57.140472602289634,2903.936808214029,9.483223344411961,0.2901723625709382,-0.8749915180221407,2.0266983396927487
