timestamp_us,ecg,leads,ir,red,accX,accY,accZ,gyroX,gyroY,gyroZ,temp,time_sec,ecg_filtered,ppg_filtered,accel_magnitude,gyro_magnitude,ecg_norm,ppg_norm
2448958,1805.0,1,184866.0,220221,0.11,-0.81,9.909999999999997,-0.03,-0.01,-0.01,31.61,0.030442,-0.5751301359921764,21.87623182699567,9.943656269199973,0.033166247903554,-0.04319316311940569,0.05447431739303233
2489198,1810.0,1,184975.0,220325,0.13,-0.84,9.95,-0.03,-0.01,-0.0,31.61,0.070682,0.30704680899979264,217.39808737832303,9.986240533854568,0.03162277660168379,0.017501648308282818,0.5171841098134893
2529188,1826.0,1,185004.0,220642,0.13,-0.8,9.97,-0.03,-0.01,-0.01,31.61,0.110672,13.755730018111974,323.6070040642067,10.002889582515644,0.033166247903554,0.942786871371118,0.7685314881122077
2569191,1833.0,1,185152.0,220812,0.12,-0.82,9.96,-0.03,-0.01,-0.0,31.61,0.150675,14.8533527446054,281.05219245324685,9.994418442310689,0.03162277660168379,1.0183046059723895,0.6678239329824956
2609188,1831.0,1,184988.0,219510,0.11,-0.82,9.95,-0.03,-0.01,-0.01,31.61,0.190672,12.611827122990842,88.07562085053878,9.98433773467224,0.033166247903554,0.8640850067337509,0.21113765033385334
2649192,1840.0,1,184395.0,218262,0.13,-0.8,9.95,-0.03,-0.01,-0.01,31.61,0.230676,13.67252267004735,-188.22347001561934,9.982955474207024,0.033166247903554,0.9370621079561929,-0.4427344941389137
2689187,1840.0,1,184213.0,217980,0.13,-0.81,9.95,-0.03,-0.01,-0.0,31.61,0.270671,15.237263750891923,-436.9201200918948,9.98376181606913,0.03162277660168379,1.0447181347591643,-1.0312844289171652
2729191,1850.0,1,184172.0,218034,0.13,-0.8,9.96,-0.03,-0.01,-0.0,31.61,0.310675,17.054743094431448,-556.6817967309082,9.992922495446464,0.03162277660168379,1.1697628513050664,-1.3147049211240662
2769187,1840.0,1,184206.0,218145,0.11,-0.82,9.95,-0.03,-0.01,-0.01,31.61,0.350671,8.037522014388767,-504.9908846565357,9.98433773467224,0.033166247903554,0.5493674349864609,-1.1923764421490997
2809191,1842.0,1,184305.0,218598,0.12,-0.81,9.95,-0.03,-0.01,-0.0,31.61,0.390675,4.036389223317106,-314.5715813283355,9.98363661197662,0.03162277660168379,0.27408479284776127,-0.7417420306282368
2849188,1842.0,1,184539.0,219116,0.13,-0.81,9.92,-0.03,-0.01,-0.0,31.61,0.430672,3.1883972423993616,-73.03247195374729,9.953863571498255,0.03162277660168379,0.21574194715656825,-0.1701306839325296
2889191,1841.0,1,184720.0,219402,0.14,-0.81,9.95,-0.03,-0.01,-0.01,31.61,0.470675,-1.8979078547024977,119.75110681303448,9.983897034725468,0.033166247903554,-0.13420182601140843,0.2860988739433333
2929191,1851.0,1,184785.0,219548,0.13,-0.83,9.94,-0.03,-0.01,-0.0,31.61,0.510675,7.34288525663203,197.41864392924634,9.975439839926858,0.03162277660168379,0.5015756090244143,0.4699020087668794
2969191,1863.0,1,184762.0,219315,0.14,-0.81,9.96,-0.03,-0.01,-0.0,31.61,0.550675,14.531256410039775,157.68200607850534,9.993863116933312,0.03162277660168379,0.996143999306129,0.3758637673664109
3009188,1861.0,1,184637.0,219065,0.15,-0.8,9.97,-0.03,-0.01,-0.01,31.61,0.590672,14.28539677798342,62.03301428815095,10.003169497714213,0.033166247903554,0.9792285674417458,0.14950684674623724
3049191,1869.0,1,184574.0,218927,0.15,-0.8,9.94,-0.03,-0.01,-0.0,31.61,0.630675,15.614356582091904,-0.6319731081386868,9.973269273412805,0.03162277660168379,1.0706625650804809,0.001207807600938554
3089188,1859.0,1,184534.0,218976,0.13,-0.82,9.93,-0.03,-0.01,-0.0,31.61,0.670672,9.412427922577757,28.314712165469942,9.964647510072798,0.03162277660168379,0.6439625786275195,0.06971122220102989
3129191,1863.0,1,184539.0,219195,0.16,-0.83,9.95,-0.03,-0.01,-0.01,31.61,0.710675,6.728582332299759,132.84369420397744,9.985839974684152,0.033166247903554,0.459310845290236,0.31708297225207493
3169188,1857.0,1,184693.0,219934,0.14,-0.82,9.94,-0.03,-0.01,-0.01,31.61,0.750672,4.157463842106596,227.00743266539524,9.974748117120551,0.033166247903554,0.2824148690278572,0.5399249852544471
3209191,1851.0,1,184946.0,219920,0.14,-0.81,9.95,-0.03,-0.01,-0.01,31.61,0.790675,-6.4892556221712105,215.14271275221626,9.983897034725468,0.033166247903554,-0.45009195273421576,0.5118466813089697
3249168,1847.0,1,184550.0,218698,0.13,-0.81,9.94,-0.03,-0.01,-0.01,31.61,0.830652,-8.46740943265127,67.40556074665884,9.973795666645673,0.033166247903554,-0.5861912615901548,0.16222117911371445
3289191,1856.0,1,184204.0,218139,0.13,-0.84,9.98,-0.03,-0.01,-0.01,31.61,0.870675,-2.386739875185181,-151.1756141089263,10.016131987948242,0.033166247903554,-0.16783404398246698,-0.355059355889682
3329188,1856.0,1,184074.0,217895,0.14,-0.82,9.92,-0.03,-0.01,-0.0,31.61,0.910672,-0.3526681615660662,-325.9504620622873,9.954817929023111,0.03162277660168379,-0.027887517620194712,-0.7686705779639682
3369191,1856.0,1,184062.0,218119,0.11,-0.83,9.96,-0.03,-0.01,-0.01,31.61,0.950675,-3.8027695746573325,-375.51445554964573,9.995128813577143,0.033166247903554,-0.2652585528334108,-0.8859656244609266
3409188,1847.0,1,184139.0,218647,0.1,-0.7999999999999999,9.95,-0.03,-0.01,-0.01,31.61,0.990672,-8.280236545473922,-303.6341826243736,9.982609879184901,0.033166247903554,-0.5733135468005118,-0.7158582670476409
3449197,1852.0,1,184339.0,219068,0.11,-0.84,9.95,-0.03,-0.01,-0.01,31.61,1.030681,-9.674814082706687,-182.71253508970594,9.98600020028039,0.033166247903554,-0.6692621216574568,-0.42969266028140596
3489875,1843.0,1,184331.0,218913,0.14,-0.83,9.96,-0.03,-0.01,-0.01,31.49,1.071359,-9.875840134262612,-91.01838470700686,9.995503989294388,0.033166247903554,-0.6830929504503706,-0.21269501994031914
3528191,1858.0,1,184207.0,218851,0.13,-0.82,9.95,-0.03,-0.01,-0.01,31.49,1.109675,-5.251483896038954,-57.82068159227746,9.984578108262761,0.033166247903554,-0.36493180211521975,-0.13413141244110566
3568188,1856.0,1,184286.0,219140,0.12,-0.82,9.94,-0.03,-0.01,-0.01,31.49,1.149672,5.625293237676242,-52.874968103539516,9.974487455503667,0.033166247903554,0.3834032578968598,-0.12242719627922374
3608191,1871.0,1,184428.0,219519,0.11,-0.82,9.96,-0.03,-0.01,-0.0,31.49,1.189675,7.689161893111272,-16.30086277111112,9.994303377424563,0.03162277660168379,0.5253998489030854,-0.03587320650343991
3648239,1851.0,1,184543.0,219686,0.13,-0.81,9.99,-0.03,-0.01,-0.01,31.49,1.229723,1.7319983449669154,97.8573903729505,10.023627088035548,0.033166247903554,0.11553999000390144,0.23428657418411677
3688191,1858.0,1,184534.0,219889,0.14,-0.81,9.97,-0.03,-0.01,-0.01,31.49,1.269675,-2.8101924733890136,287.0008973023496,10.003829266835776,0.033166247903554,-0.19696808080178144,0.6819017657553967
3728188,1845.0,1,184684.0,220454,0.14,-0.83,9.95,-0.03,-0.01,-0.0,31.49,1.309672,-5.240165072838017,488.27477257069637,9.985539544761714,0.03162277660168379,-0.3641530537658504,1.1582239282188627
3768191,1852.0,1,184877.0,221085,0.1,-0.8,9.95,-0.03,-0.01,-0.0,31.49,1.349675,-4.192486963372571,601.8441260010226,9.982609879184901,0.03162277660168379,-0.2920715675607203,1.4269900556826884
3808187,1843.0,1,185068.0,221043,0.14,-0.8,9.96,-0.03,-0.01,-0.0,31.49,1.389671,-9.01714781568091,548.3453846878477,9.993057590147272,0.03162277660168379,-0.6240139089422121,1.3003832811204632
3848191,1843.0,1,184635.0,219396,0.13,-0.8,9.95,-0.03,-0.01,-0.0,31.49,1.429675,-8.807536081644303,328.3081658104141,9.982955474207024,0.03162277660168379,-0.6095923750961892,0.7796569634182231
3888188,1851.0,1,184085.0,218560,0.11,-0.8,9.97,-0.03,-0.01,-0.01,31.49,1.469672,-1.0913485811206083,34.21179034323936,10.002649648968017,0.033166247903554,-0.07870959931787148,0.08366687852307511
3928191,1843.0,1,184020.0,218511,0.11,-0.81,9.96,-0.03,-0.01,-0.01,31.49,1.509675,-6.971864219375309,-203.0168859371204,9.993487879614404,0.033166247903554,-0.48329599186374744,-0.477743666852244
3968188,1840.0,1,184009.0,218551,0.14,-0.8,9.97,-0.03,-0.01,-0.01,31.49,1.549672,-9.395901126572754,-294.5287960654933,10.0030245426071,0.033166247903554,-0.6500725822193769,-0.6943100288075352
4008192,1847.0,1,183980.0,218676,0.1,-0.84,9.95,-0.03,-0.01,-0.01,31.49,1.589676,-3.4359414176435257,-240.19547936239277,9.985895052522832,0.033166247903554,-0.24002034416936302,-0.5657282003346216
4048208,1839.0,1,184068.0,218993,0.12,-0.82,9.92,-0.03,-0.01,-0.0,31.49,1.629692,-6.729391794795358,-113.19543203134425,9.954556745531164,0.03162277660168379,-0.46661360385775785,-0.2651778328463628
4088191,1840.0,1,184199.0,219191,0.16,-0.81,9.990000000000002,-0.03,-0.01,-0.0,31.49,1.669675,-10.622931594986355,-3.203192361103236,10.024061053285742,0.03162277660168379,-0.7344937216735141,-0.004877079039748977
4128188,1840.0,1,184196.0,219252,0.09,-0.81,9.96,-0.03,-0.01,-0.01,31.49,1.709672,-3.9487979506248974,39.224614183670504,9.993287747283174,0.033166247903554,-0.27530547685784634,0.09552991384516633
4168191,1850.0,1,184189.0,219208,0.07,-0.82,9.95,-0.03,-0.01,-0.0,31.49,1.749675,1.6559471058243431,25.02864828743238,9.983977163435421,0.03162277660168379,0.11030757529979413,0.06193462898796082
4208188,1843.0,1,184129.0,219126,0.12,-0.81,9.93,-0.03,-0.01,-0.0,31.49,1.789672,-2.173832654023702,8.779311930643452,9.963704130492836,0.03162277660168379,-0.15318577674611702,0.02347996604801029
4248191,1842.0,1,184201.0,219513,0.16,-0.81,9.98,-0.03,-0.01,-0.01,31.49,1.829675,-2.0024447975279536,45.99167946525286,10.014095066455083,0.033166247903554,-0.14139409063364458,0.11154442722479549
4288188,1847.0,1,184325.0,219908,0.13,-0.8,9.96,-0.03,-0.01,-0.01,31.49,1.869672,-0.6158317839547308,151.44970943695114,9.992922495446464,0.033166247903554,-0.045993484372310225,0.3611148039976625
4328191,1847.0,1,184411.0,219966,0.1,-0.81,9.96,-0.03,-0.01,-0.0,31.49,1.909675,6.546390631685517,281.1262306499718,9.993382810640249,0.03162277660168379,0.44677584199498216,0.6679991471473836
4368188,1867.0,1,184329.0,219876,0.13,-0.82,9.97,-0.03,-0.01,-0.01,31.49,1.949672,18.848142703328673,348.8720037043519,10.00450898345341,0.033166247903554,1.2931508537851113,0.8283220558010747
4408191,1854.0,1,184402.0,220068,0.13,-0.83,9.93,-0.03,-0.01,-0.01,31.49,1.989675,13.786293275270806,274.4022939337682,9.965475402608748,0.033166247903554,0.9448896594120004,0.6520866991326598
4448188,1853.0,1,184405.0,219228,0.11,-0.8,9.95,-0.03,-0.01,-0.01,31.49,2.029672,7.346493139684852,40.58633588170133,9.98271506154513,0.033166247903554,0.501823835622023,0.09875247923282382
4488191,1846.0,1,183795.0,217613,0.13,-0.81,9.95,-0.03,-0.01,-0.01,31.49,2.069675,3.3297837186523878,-278.4258180321032,9.98376181606913,0.033166247903554,0.2254695030208636,-0.6562017283202524
4528874,1839.0,1,183408.0,217117,0.12,-0.82,9.98,-0.03,-0.01,-0.0,31.47,2.110358,-3.2004634134540257,-548.8947372613725,10.014349704299327,0.03162277660168379,-0.22381918051303978,-1.2962765533052638
4569191,1845.0,1,183477.0,217453,0.14,-0.8,9.97,-0.03,-0.01,-0.01,31.47,2.150675,0.03518256471754591,-656.5997468864534,10.0030245426071,0.033166247903554,-0.0012029314637403846,-1.5511644915653515
4609188,1840.0,1,183617.0,217776,0.13,-0.81,9.96,-0.03,-0.01,-0.0,31.47,2.190672,-0.4403866752888431,-576.6466679388182,9.993728033121574,0.03162277660168379,-0.03392265453841187,-1.3619525364163019
4649191,1843.0,1,183824.0,218240,0.11,-0.81,9.97,-0.03,-0.01,-0.01,31.47,2.230675,-2.344213043460181,-381.1051144133209,10.003454403354873,0.033166247903554,-0.1649081479399339,-0.8991961280023869
4689188,1842.0,1,184000.0,218730,0.11,-0.82,9.96,-0.03,-0.01,-0.0,31.47,2.270672,1.1744149395572276,-183.32257975152666,9.994303377424563,0.03162277660168379,0.07717759588481972,-0.4311363538165472
4729191,1846.0,1,184106.0,218829,0.13,-0.82,9.95,-0.03,-0.01,-0.0,31.47,2.310675,1.5842359738692982,-65.36118860069467,9.984578108262761,0.03162277660168379,0.10537376507500165,-0.15197630462858697
4769188,1843.0,1,184129.0,218940,0.14,-0.8,9.93,-0.03,-0.01,-0.01,31.47,2.350672,0.9236293118427767,-37.91450245280556,9.96315713014705,0.033166247903554,0.059923249725227376,-0.08702269412653592
4809191,1844.0,1,184144.0,219054,0.13,-0.8,9.96,-0.03,-0.01,-0.01,31.47,2.390675,0.5313496041808543,-49.009722089623146,9.992922495446464,0.033166247903554,0.0329339444405989,-0.11327994685429314
4849188,1847.0,1,184278.0,219411,0.1,-0.83,9.97,-0.03,-0.01,-0.01,31.47,2.430672,3.7745568857308442,-24.503791984782307,10.004988755615871,0.033166247903554,0.2560704200559018,-0.05528574564385894
4888191,1849.0,1,184430.0,219755,0.14,-0.83,9.97,-0.03,-0.01,-0.01,31.47,2.469675,6.128108871136527,86.61221115007734,10.005468504772779,0.033166247903554,0.41799756488823503,0.20767443648076656
4928188,1849.0,1,184580.0,220279,0.11,-0.81,9.97,-0.03,-0.01,-0.01,31.47,2.509672,4.6816587331667945,280.337211506042,10.003454403354873,0.033166247903554,0.31848009408828554,0.6661319037986847
4968191,1850.0,1,184733.0,220606,0.11,-0.81,9.95,-0.03,-0.01,-0.01,31.47,2.549675,7.673992099053562,489.0538461107365,9.983521422824714,0.033166247903554,0.5243561492292768,1.1600676349235468
5008188,1853.0,1,184904.0,220944,0.13,-0.82,9.94,-0.03,-0.01,-0.0,31.47,2.589672,7.4874776748252865,605.0375034530326,9.974612774438915,0.03162277660168379,0.5115237374650109,1.4345473029979474
5049191,1840.0,1,185025.0,221176,0.13,-0.83,9.95,-0.03,-0.01,-0.0,31.47,2.630675,-1.9327767944944536,537.0991134819559,9.985404348347641,0.03162277660168379,-0.13660085008177272,1.2737685591984103
5089194,1837.0,1,184936.0,219918,0.14,-0.84,9.96,-0.03,-0.01,-0.0,31.47,2.670678,-9.30795880005831,275.4974652982254,9.996339329974749,0.03162277660168379,-0.6440220467178456,0.6546784631750167
5129191,1834.0,1,184257.0,218370,0.14,-0.81,9.97,-0.03,-0.01,-0.0,31.47,2.710675,-8.392911740368234,-83.08452317068551,10.003829266835776,0.03162277660168379,-0.5810657327372578,-0.1939192395335084
5169188,1837.0,1,184011.0,218157,0.11,-0.83,9.95,-0.03,-0.01,-0.01,31.47,2.750672,-8.937700008306912,-382.22369263050575,9.985163994647257,0.033166247903554,-0.6185478063487555,-0.9018432852381865
5209191,1834.0,1,184068.0,218499,0.14,-0.8,9.98,-0.03,-0.01,-0.01,31.47,2.790675,-10.199832266707102,-499.08883270531277,10.012991560967182,0.033166247903554,-0.7053839902405251,-1.1784090152059352
5249188,1839.0,1,184227.0,218893,0.11,-0.81,9.96,-0.03,-0.01,-0.0,31.47,2.830672,-5.348720940747248,-415.78158881497035,9.993487879614404,0.03162277660168379,-0.3716218251608905,-0.9812593031242516
5289207,1840.0,1,184460.0,219285,0.14,-0.84,9.95,-0.03,-0.01,-0.0,31.47,2.870691,-6.753332860867304,-217.45040655673193,9.98637571894829,0.03162277660168379,-0.46826077736287347,-0.5119011338574793
5329188,1839.0,1,184705.0,219653,0.12,-0.81,9.96,-0.03,-0.01,-0.0,31.47,2.910672,-3.6767042372265677,-26.85429881710931,9.993602953890054,0.03162277660168379,-0.25658510934073614,-0.06084830807659619
5369191,1855.0,1,184691.0,219740,0.13,-0.82,9.95,-0.03,-0.01,-0.0,31.47,2.950675,6.3838440269578465,70.71932850829819,9.984578108262761,0.03162277660168379,0.4355924444031909,0.17006333460469092
5409188,1841.0,1,184776.0,219864,0.12,-0.82,9.94,-0.03,-0.01,-0.01,31.47,2.990672,-1.1397234183557814,64.67927549789437,9.974487455503667,0.033166247903554,-0.08203784501790017,0.1557693229875659
5449191,1847.0,1,184811.0,219902,0.14,-0.82,9.96,-0.03,-0.01,-0.01,31.47,3.030675,-2.1533482942396027,8.864981738851219,9.994678584126655,0.033166247903554,-0.15177642869936647,0.023682706857014686
5489196,1847.0,1,184873.0,220068,0.13,-0.82,9.96,-0.03,-0.01,-0.0,31.47,3.07068,4.380414803589521,-16.795650854646222,9.994543511336573,0.03162277660168379,0.29775415741172123,-0.03704414103031966
5529878,1843.0,1,184943.0,220304,0.12,-0.8,9.93,-0.03,-0.01,-0.0,31.41,3.111362,-5.926447055760431,49.250612598131546,9.962896165272426,0.03162277660168379,-0.41137006139244997,0.11925681451354332
5568187,1847.0,1,185088.0,220746,0.13,-0.8,9.96,-0.03,-0.01,-0.01,31.41,3.149671,3.434190933247749,212.91256067579602,9.992922495446464,0.033166247903554,0.2326528421882835,0.5065689429127341
5608191,1870.0,1,185201.0,221254,0.16,-0.82,9.97,-0.03,-0.01,-0.0,31.41,3.189675,21.93109887930518,407.88515339932815,10.004943777952978,0.03162277660168379,1.5052618648503857,0.9679788842842291
5648188,1856.0,1,185443.0,221684,0.12,-0.81,9.96,-0.03,-0.01,-0.01,31.41,3.229672,10.785638673929727,517.5035766733265,9.993602953890054,0.033166247903554,0.7384410934843558,1.2273949875916899
5688191,1847.0,1,185591.0,221717,0.12,-0.81,9.97,-0.03,-0.01,-0.0,31.41,3.269675,0.6429663233177274,438.59877672773365,10.003569362982395,0.03162277660168379,0.04061330600025908,1.0406638239534718
5728188,1850.0,1,185241.0,219749,0.15,-0.82,9.95,-0.03,-0.01,-0.0,31.41,3.309672,2.730586036251838,155.14034933171612,9.984858536804614,0.03162277660168379,0.18424399769829997,0.3698488415035467
5768191,1850.0,1,184644.0,218621,0.12,-0.8,9.96,-0.03,-0.01,-0.0,31.41,3.349675,5.188827220967356,-233.94427720848373,9.992797406132079,0.03162277660168379,0.353373882578078,-0.550934496362974
5808188,1855.0,1,184427.0,218383,0.13,-0.82,9.95,-0.03,-0.01,-0.0,31.41,3.389672,6.7990023019761034,-563.123133711909,9.984578108262761,0.03162277660168379,0.46415582203159506,-1.3299485862835687
5848191,1846.0,1,184398.0,218400,0.15,-0.82,9.96,-0.03,-0.01,-0.0,31.41,3.429675,1.0794939748084413,-695.2593119626372,9.994823660275353,0.03162277660168379,0.07064692186452519,-1.6426537999141577
5888187,1845.0,1,184514.0,218598,0.15,-0.82,9.94,-0.03,-0.01,-0.01,31.41,3.469671,-2.1492999961285126,-596.5615666171166,9.974893483140558,0.033166247903554,-0.15149790102773486,-1.4090818898460051
5929191,1843.0,1,184709.0,219317,0.14,-0.82,9.96,-0.03,-0.01,-0.01,31.41,3.510675,-3.5610169751241636,-344.206751142351,9.994678584126655,0.033166247903554,-0.24862568963729456,-0.8118747696733016
5969194,1835.0,1,185046.0,220024,0.12,-0.81,9.95,-0.03,-0.01,-0.01,31.41,3.550678,-10.2292304438197,-70.70120995776392,9.98363661197662,0.033166247903554,-0.7074066194038652,-0.16461366512561681
6009191,1836.0,1,185191.0,220420,0.15,-0.83,9.95,-0.03,-0.01,-0.01,31.41,3.590675,-11.959462968133575,113.359295780911,9.985684753686147,0.033166247903554,-0.8264486521677571,0.2709724137963333
6049188,1837.0,1,185200.0,220479,0.15,-0.82,9.96,-0.03,-0.01,-0.0,31.41,3.630672,-7.3813780371905375,172.6605357974685,9.994823660275353,0.03162277660168379,-0.5114710241976,0.4113110188129669
6089191,1840.0,1,185282.0,220508,0.14,-0.81,9.98,-0.03,-0.01,-0.0,31.41,3.670675,-7.5351909700457105,152.11687681863356,10.013795484230743,0.03162277660168379,-0.5220535348920611,0.36269368058829987
6129188,1837.0,1,185224.0,220395,0.13,-0.82,9.94,-0.03,-0.01,-0.0,31.41,3.710672,-8.434011162648359,136.41733385995528,9.974612774438915,0.03162277660168379,-0.5838934213310715,0.3255401243118299
6169191,1847.0,1,185251.0,220619,0.14,-0.8,9.96,-0.03,-0.01,-0.01,31.41,3.750675,1.5470879590939774,188.56729291488836,9.993057590147272,0.033166247903554,0.1028179379651449,0.44895495515517186
6209188,1853.0,1,185232.0,220853,0.14,-0.83,9.95,-0.03,-0.01,-0.01,31.41,3.790672,5.75646186319616,302.4215911096189,9.985539544761714,0.033166247903554,0.3924278136125308,0.718395415073633
6249191,1846.0,1,185376.0,221203,0.14,-0.83,9.95,-0.03,-0.01,-0.0,31.41,3.830675,2.4163820707832873,400.92014203342353,9.985539544761714,0.03162277660168379,0.16262639530888445,0.9514959240840185
6289188,1851.0,1,185498.0,221326,0.14,-0.82,9.95,-0.03,-0.01,-0.01,31.41,3.870672,3.261386809377928,388.2609737601143,9.984713315864406,0.033166247903554,0.22076371521466806,0.9215375283464082
6329191,1842.0,1,185353.0,220021,0.13,-0.82,9.93,-0.03,-0.01,-0.0,31.41,3.910675,-1.578076778871689,224.69072810391594,9.964647510072798,0.03162277660168379,-0.11219707181048968,0.5344424171613871
6369188,1843.0,1,184758.0,218755,0.13,-0.82,9.98,-0.03,-0.01,-0.01,31.41,3.950672,-3.2340602104458904,-33.512183804533954,10.01447452440716,0.033166247903554,-0.22613067966246964,-0.0766044422018772
6409191,1843.0,1,184574.0,218608,0.12,-0.82,9.95,-0.03,-0.01,-0.0,31.41,3.990675,-1.9661906749849958,-265.4485638781945,9.984452914406477,0.03162277660168379,-0.1388997643607661,-0.6254905704355712
6449188,1840.0,1,184532.0,218720,0.14,-0.7999999999999999,9.96,-0.03,-0.01,-0.01,31.41,4.030672,-4.153509013784922,-366.2427908665048,9.993057590147272,0.033166247903554,-0.28938983878341495,-0.8640238828135228
6489191,1846.0,1,184575.0,218829,0.14,-0.81,9.96,-0.03,-0.01,-0.0,31.41,4.070675,0.07063731232923404,-312.98361558912575,9.993863116933312,0.03162277660168379,0.0012363968736458192,-0.737984050245488
6529188,1842.0,1,184617.0,219382,0.13,-0.82,9.96,-0.03,-0.01,-0.01,31.41,4.110672,-1.1062096602658478,-167.74715847618074,9.994543511336573,0.033166247903554,-0.07973205904259313,-0.3942765361513831
6569878,1841.0,1,184833.0,219696,0.12,-0.83,9.97,-0.03,-0.01,-0.0,31.29,4.151362,-4.5311570654266555,-23.37231106400116,10.005208643501645,0.03162277660168379,-0.3153724689241716,-0.05260805367686084
6608188,1845.0,1,184778.0,219486,0.11,-0.81,9.95,-0.03,-0.01,-0.0,31.29,4.189672,1.7322543883551538,61.38807822203782,9.983521422824714,0.03162277660168379,0.11555760609016924,0.14798058139633966
6648191,1848.0,1,184703.0,219632,0.14,-0.82,9.95,-0.03,-0.01,-0.01,31.29,4.229675,3.7991826203650496,91.65250090276768,9.984713315864406,0.033166247903554,0.2577646995634047,0.21960247091267213
6688188,1849.0,1,184758.0,219861,0.14,-0.82,9.96,-0.03,-0.01,-0.01,31.29,4.269672,5.053514266118997,118.35784011917292,9.994678584126655,0.033166247903554,0.3440641921300701,0.28280165614184927
6728191,1855.0,1,184880.0,220042,0.14,-0.84,9.94,-0.03,-0.01,-0.01,31.29,4.309675,12.317081372805271,193.41147056027037,9.976412180739125,0.033166247903554,0.8438061524424628,0.4604188829417723
6768188,1856.0,1,184932.0,220172,0.12,-0.83,9.95,-0.03,-0.01,-0.0,31.29,4.349672,11.517563188025898,329.24940557747027,9.985279164850624,0.03162277660168379,0.7887983609402335,0.7818844425714072
6808191,1846.0,1,184990.0,220403,0.13,-0.81,9.95,-0.03,-0.01,-0.0,31.29,4.389675,4.386877210615275,482.4497722836223,9.98376181606913,0.03162277660168379,0.29819877861614486,1.1444388469240834
6848187,1847.0,1,184912.0,220521,0.12,-0.84,9.94,-0.03,-0.01,-0.0,31.29,4.429671,2.6992901888298277,567.5117064184918,9.976151562601682,0.03162277660168379,0.1820908065856418,1.3457410991732994
6888191,1845.0,1,184992.0,220488,0.15,-0.82,9.95,-0.03,-0.01,-0.01,31.29,4.469675,3.4869854284904145,499.0017653989562,9.984858536804614,0.033166247903554,0.23628516555760795,1.1836097584160237
6929223,1846.0,1,184873.0,219455,0.13,-0.83,9.97,-0.03,-0.01,-0.0,31.29,4.510707,2.8971904996335978,246.80991250813005,10.005333577647473,0.03162277660168379,0.19570658073832622,0.586788295300299
6969191,1847.0,1,184227.0,217570,0.13,-0.82,9.99,-0.03,-0.01,-0.01,31.29,4.550675,4.5861540335249655,-129.98765642087972,10.024440133992522,0.033166247903554,0.3119092584207635,-0.30491726064409036
7009188,1846.0,1,183668.0,216699,0.13,-0.81,9.93,-0.03,-0.01,-0.0,31.29,4.590672,4.737706027800359,-503.5606332244348,9.963829585054132,0.03162277660168379,0.3223362138816307,-1.1889916985796896
7049192,1840.0,1,183521.0,216659,0.13,-0.8,9.95,-0.03,-0.01,-0.0,31.29,4.630676,-3.607892223754015,-745.9184007465872,9.982955474207024,0.03162277660168379,-0.25185076187746824,-1.7625404304360204
7089187,1831.0,1,183599.0,216572,0.15,-0.81,9.96,-0.03,-0.01,-0.01,31.29,4.670671,-8.818632132288462,-795.9642599436798,9.994008204919586,0.033166247903554,-0.6103557964316283,-1.8809758301783843
7129225,1839.0,1,183656.0,216736,0.14,-0.83,9.95,-0.03,-0.01,-0.01,31.29,4.710709,-4.972309051235069,-677.3372356204658,9.985539544761714,0.033166247903554,-0.345724244428615,-1.6002405351635438
7169189,1837.0,1,183753.0,217170,0.12,-0.8,9.96,-0.03,-0.01,-0.0,31.29,4.750673,-2.792328233279732,-465.70710746344827,9.992797406132079,0.03162277660168379,-0.19573900007043035,-1.099409912452202
7209191,1837.0,1,183861.0,217694,0.13,-0.82,9.96,-0.03,-0.01,-0.0,31.29,4.790675,-5.956986277673673,-241.87065477652234,9.994543511336573,0.03162277660168379,-0.41347119578016556,-0.5696925656786087
7249188,1832.0,1,184146.0,218005,0.14,-0.83,9.95,-0.03,-0.01,-0.0,31.29,4.830672,-9.105643793231053,-61.59153157618033,9.985539544761714,0.03162277660168379,-0.6301025362862012,-0.14305527012637778
7289191,1838.0,1,184260.0,218387,0.14,-0.81,9.95,-0.03,-0.01,-0.0,31.29,4.870675,-3.400886268726377,54.26925484411597,9.983897034725468,0.03162277660168379,-0.23760850869216718,0.13113361931024486
7329188,1843.0,1,184267.0,218624,0.11,-0.83,9.98,-0.03,-0.01,-0.01,31.29,4.910672,0.6237005440600307,118.14972186841537,10.015058661835187,0.033166247903554,0.03928779772701349,0.282309136508505
7369191,1838.0,1,184411.0,218591,0.15,-0.81,9.98,-0.03,-0.01,-0.01,31.29,4.950675,-2.922598479423758,164.10244856796805,10.013940283424903,0.033166247903554,-0.2047017462283706,0.3910579849293007
7409188,1840.0,1,184337.0,218711,0.13,-0.82,9.95,-0.03,-0.01,-0.0,31.29,4.990672,-2.2851302040410673,222.78938563415107,9.984578108262761,0.03162277660168379,-0.1608431790949499,0.5299428190114802
7449191,1840.0,1,184291.0,218782,0.12,-0.82,9.95,-0.03,-0.01,-0.0,31.29,5.030675,-2.1376656527779496,291.97081844360105,9.984452914406477,0.03162277660168379,-0.15069744452095796,0.6936632702334002
7489188,1842.0,1,184428.0,219011,0.13,-0.82,9.93,-0.03,-0.01,-0.0,31.29,5.070672,0.8130589712348868,327.29875831650605,9.964647510072798,0.03162277660168379,0.052315880239106584,0.7772681627869238
7529191,1847.0,1,184546.0,219351,0.14,-0.83,9.96,-0.03,-0.01,-0.0,31.29,5.110675,3.1485476391387177,272.25096366661757,9.995503989294388,0.03162277660168379,0.213000247581326,0.6469954954995202
7569874,1837.0,1,184405.0,218043,0.11,-0.83,9.95,-0.03,-0.01,-0.0,31.13,5.151358,-3.713260435203296,111.07738786815109,9.985163994647257,0.03162277660168379,-0.2591002187587577,0.26557219327541787
7608191,1840.0,1,183934.0,216942,0.12,-0.82,9.94,-0.03,-0.01,-0.0,31.13,5.189675,-4.583542349683885,-102.96198057162071,9.974487455503667,0.03162277660168379,-0.3189766380963861,-0.24095998677835398
7648188,1839.0,1,183703.0,216791,0.13,-0.82,9.96,-0.03,-0.01,-0.0,31.13,5.229672,-2.6999615842387183,-277.0797542104267,9.994543511336573,0.03162277660168379,-0.18938406597520432,-0.6530162178832919
7688191,1843.0,1,183857.0,217151,0.13,-0.81,9.94,-0.03,-0.01,-0.0,31.13,5.269675,-1.3447135454564993,-343.744296959778,9.973795666645673,0.03162277660168379,-0.09614140687082214,-0.8107803545337822
7728187,1846.0,1,184002.0,217549,0.12,-0.81,9.95,-0.03,-0.01,-0.0,31.13,5.309671,2.5843632318918743,-302.1652309983132,9.98363661197662,0.03162277660168379,0.17418369677178167,-0.7123819380201083
7768191,1843.0,1,184032.0,217692,0.14,-0.81,9.95,-0.03,-0.01,-0.01,31.13,5.349675,-1.1758371907570169,-203.19759057914914,9.983897034725468,0.033166247903554,-0.084522515035949,-0.47817131115403705
7808188,1843.0,1,184073.0,218067,0.12,-0.7999999999999999,9.96,-0.03,-0.01,-0.01,31.13,5.389672,-1.904826131559157,-100.59927719263996,9.992797406132079,0.033166247903554,-0.13467781159639025,-0.23536856076126453
7848191,1847.0,1,184209.0,218138,0.13,-0.82,9.97,-0.03,-0.01,-0.01,31.13,5.429675,2.3495806968475157,-16.19662466995488,10.00450898345341,0.033166247903554,0.15803038221065158,-0.0356265231338887
7888188,1846.0,1,184274.0,218537,0.11,-0.81,9.98,-0.03,-0.01,-0.0,31.13,5.469672,0.05528300709859389,58.32702780671035,10.013420993846209,0.03162277660168379,0.00018000261411848725,0.1407364909683368
7928191,1850.0,1,184419.0,219033,0.12,-0.84,9.93,-0.03,-0.01,-0.01,31.13,5.509675,4.241286529614785,137.97477975011617,9.96618783688126,0.033166247903554,0.2881819685202588,0.32922587832899786
7968188,1859.0,1,184632.0,219228,0.11,-0.82,9.95,-0.03,-0.01,-0.0,31.13,5.549672,12.456384207700832,226.18497117980263,9.98433773467224,0.03162277660168379,0.8533903513305957,0.5379785993519643
8008191,1859.0,1,184639.0,219551,0.14,-0.83,9.96,-0.03,-0.01,-0.01,31.13,5.589675,11.507653954744994,312.5498045294543,9.995503989294388,0.033166247903554,0.7881165940353151,0.7423642113796393
8048188,1857.0,1,184754.0,219787,0.12,-0.81,9.92,-0.03,-0.01,-0.01,31.13,5.629672,10.267639271423288,378.29128376874394,9.95373799132768,0.033166247903554,0.7028021253235297,0.8979438836697275
8088191,1857.0,1,184704.0,219816,0.12,-0.8,9.95,-0.03,-0.01,-0.01,31.13,5.669675,7.392573728046749,400.2389398770709,9.982830260001418,0.033166247903554,0.5049942343010859,0.949883833673596
8128188,1849.0,1,184788.0,219992,0.12,-0.84,9.97,-0.03,-0.01,-0.01,31.13,5.709672,2.0707031096440964,356.2428592989455,10.006043174002398,0.033166247903554,0.1388432761965918,0.8457654615651953
8168191,1856.0,1,184788.0,220045,0.13,-0.81,9.96,-0.03,-0.01,-0.01,31.13,5.749675,4.450088568974438,238.89943249630093,9.993728033121574,0.033166247903554,0.30254779442014823,0.5680678481467133
8208188,1854.0,1,184635.0,219073,0.12,-0.82,9.96,-0.03,-0.01,-0.01,31.13,5.789672,6.45306416128312,71.23352288280405,9.994418442310689,0.033166247903554,0.44035487106115573,0.1712801948458158
8248191,1855.0,1,184350.0,218587,0.14,-0.82,9.95,-0.03,-0.01,-0.0,31.13,5.829675,1.8728057486085246,-94.45882470646315,9.984713315864406,0.03162277660168379,0.1252277049914289,-0.220836950025294
8288188,1847.0,1,184266.0,218743,0.14,-0.82,9.93,-0.03,-0.01,-0.0,31.13,5.869672,-1.4393420481949788,-202.86006637735267,9.964782988103654,0.03162277660168379,-0.10265195916081515,-0.47737254749199143
8328191,1853.0,1,184453.0,219030,0.14,-0.82,9.95,-0.03,-0.01,-0.01,31.13,5.909675,-1.617884814740145,-228.77275277193252,9.984713315864406,0.033166247903554,-0.11493591150025805,-0.5386958901376676
8368188,1841.0,1,184456.0,219226,0.13,-0.82,9.97,-0.03,-0.01,-0.0,31.13,5.949672,-8.299773133628731,-188.56828187492965,10.00450898345341,0.03162277660168379,-0.5746576870444029,-0.4435505043153499
8408191,1839.0,1,184588.0,219569,0.13,-0.81,9.95,-0.03,-0.01,-0.01,31.13,5.989675,-17.041333523582374,-121.72161213190378,9.98376181606913,0.033166247903554,-1.176087323654117,-0.28535535731463724
8448191,1840.0,1,184641.0,219743,0.13,-0.7999999999999999,9.95,-0.03,-0.01,-0.01,31.13,6.029675,-10.427230211289208,-62.02347893422539,9.982955474207024,0.033166247903554,-0.7210292362921328,-0.1440774897233329
8488191,1851.0,1,184695.0,219908,0.15,-0.82,9.96,-0.03,-0.01,-0.01,31.13,6.069675,-5.6780294163101095,-22.914829205048182,9.994823660275353,0.033166247903554,-0.39427863561064597,-0.051525405727375274
8528188,1840.0,1,184703.0,220214,0.16,-0.82,9.95,-0.03,-0.01,-0.01,31.13,6.109672,-12.617898511415403,-2.173846810767874,9.985013770646487,0.033166247903554,-0.8717497919942372,-0.002441094251339664
8568249,1840.0,1,184939.0,220476,0.14,-0.81,9.96,-0.03,-0.01,-0.01,31.13,6.149733,-15.93933503088233,7.729548590439561,9.993863116933312,0.033166247903554,-1.1002685311910751,0.02099566179533898
8608874,1840.0,1,184888.0,220621,0.12,-0.81,9.96,-0.03,-0.01,-0.0,31.11,6.190358,-15.676000695251536,16.401185017134914,9.993602953890054,0.03162277660168379,-1.0821508191671092,0.041517414105983114
8647191,1851.0,1,184906.0,220924,0.13,-0.82,9.93,-0.03,-0.01,-0.0,31.11,6.228675,-3.9148940093610247,36.8305456587585,9.964647510072798,0.03162277660168379,-0.2729728458212407,0.08986426103577194
8687188,1858.0,1,185087.0,221084,0.12,-0.82,9.95,-0.03,-0.01,-0.0,31.11,6.268672,0.3490984051793761,80.14216309109473,9.984452914406477,0.03162277660168379,0.020394847586321492,0.192362825480142
8727191,1851.0,1,185056.0,221268,0.14,-0.84,9.97,-0.03,-0.01,-0.0,31.11,6.308675,-4.652621605010004,141.75138376887617,10.006303013600977,0.03162277660168379,-0.3237293721135079,0.3381633531532175
8767212,1869.0,1,185199.0,221605,0.14,-0.82,9.92,-0.03,-0.01,-0.0,31.11,6.348696,11.858197134956086,191.91652223103813,9.954817929023111,0.03162277660168379,0.8122343771410255,0.4568810317427447
8807191,1869.0,1,185293.0,221821,0.15,-0.81,9.96,-0.03,-0.01,-0.01,31.11,6.388675,10.964288556246403,186.23678430999385,9.994008204919586,0.033166247903554,0.7507324155148677,0.44343971927648135
8847188,1854.0,1,185225.0,221572,0.15,-0.81,9.93,-0.03,-0.01,-0.01,31.11,6.428672,-1.815610157711809,95.98281156145103,9.964110597539552,0.033166247903554,-0.12853964766029727,0.2298503132336523
8887191,1867.0,1,185197.0,221156,0.12,-0.81,9.96,-0.03,-0.01,-0.01,31.11,6.468675,7.672504060518414,-63.27505214736472,9.993602953890054,0.033166247903554,0.5242537704278349,-0.14703938459701713
8927188,1863.0,1,184879.0,220777,0.11,-0.82,9.94,-0.03,-0.01,-0.0,31.11,6.508672,6.7963886320742875,-231.7328907194053,9.97437216069262,0.03162277660168379,0.4639759984681643,-0.5457011674318547
8967191,1866.0,1,184857.0,220684,0.15,-0.81,9.95,-0.03,-0.01,-0.01,31.11,6.548675,7.741678797604397,-340.0217165130567,9.984042267538735,0.033166247903554,0.5290130737023405,-0.8019707285156887
9007188,1867.0,1,184947.0,221010,0.12,-0.82,9.94,-0.03,-0.01,-0.01,31.11,6.588672,9.335972597340154,-353.15682413817683,9.974487455503667,0.033166247903554,0.6387023623247899,-0.8330554525507683
9047191,1855.0,1,185106.0,221530,0.15,-0.8,9.94,-0.03,-0.01,-0.01,31.11,6.628675,-1.9735474573046483,-288.4071271282895,9.973269273412805,0.033166247903554,-0.13940591963736987,-0.6798228700435538
9087187,1861.0,1,185260.0,221838,0.11,-0.81,9.95,-0.03,-0.01,-0.01,31.11,6.668671,3.4614816744582915,-194.99108765280636,9.983521422824714,0.033166247903554,0.23453047728280618,-0.45875031468876404
9127191,1865.0,1,185242.0,221848,0.13,-0.82,9.95,-0.03,-0.01,-0.0,31.11,6.708675,7.62124876626258,-116.68055810999547,9.984578108262761,0.03162277660168379,0.5207273458968051,-0.2734255142110095
9167188,1856.0,1,185438.0,221955,0.12,-0.82,9.96,-0.03,-0.01,-0.01,31.11,6.748672,0.5121135327215889,-68.42408164913262,9.994418442310689,0.033166247903554,0.03161048009882755,-0.1592247557168426
9207191,1856.0,1,185479.0,222207,0.12,-0.82,9.96,-0.03,-0.01,-0.01,31.11,6.788675,-2.1554731038597126,-39.34349995141023,9.994418442310689,0.033166247903554,-0.1519226181004208,-0.09040447021537394
9247189,1853.0,1,185522.0,222640,0.11,-0.81,9.94,-0.03,-0.01,-0.01,31.11,6.828673,-0.9162739635187029,-10.443678063519133,9.97355503318651,0.033166247903554,-0.06666425970494491,-0.022011959572368813
9287191,1859.0,1,185722.0,222950,0.13,-0.83,9.95,-0.03,-0.01,-0.01,31.11,6.868675,2.149373918275125,31.237475368193735,9.985404348347641,0.033166247903554,0.14425592036262985,0.07662805076228224
9327188,1855.0,1,185861.0,223048,0.14,-0.82,9.96,-0.03,-0.01,-0.01,31.11,6.908672,0.5546309308011074,88.79475439087248,9.994678584126655,0.033166247903554,0.03453572709545568,0.21283950678479646
9367191,1858.0,1,185786.0,223184,0.11,-0.81,9.94,-0.03,-0.01,-0.0,31.11,6.948675,4.62869189170915,155.41414179338,9.97355503318651,0.03162277660168379,0.31483591309665776,0.37049678161615224
9407187,1861.0,1,185946.0,223455,0.14,-0.8,9.95,-0.03,-0.01,-0.0,31.11,6.988671,5.294581879323988,212.12946803796282,9.983090703785075,0.03162277660168379,0.3606499274611301,0.504715724862629
9447191,1847.0,1,186065.0,223752,0.13,-0.81,9.94,-0.03,-0.01,-0.0,31.11,7.028675,-3.2159109175236584,229.1930637068923,9.973795666645673,0.03162277660168379,-0.22488198696230985,0.54509736295446
9487188,1855.0,1,186156.0,223788,0.12,-0.82,9.94,-0.03,-0.01,-0.0,31.11,7.068672,-0.07789251859832275,180.3847217401945,9.974487455503667,0.03162277660168379,-0.008982630194236334,0.42959059407629346
9527191,1854.0,1,185985.0,223233,0.13,-0.81,9.93,-0.03,-0.01,-0.01,31.11,7.108675,4.584761042892103,65.14517423131164,9.963829585054132,0.033166247903554,0.3118134190267937,0.15687188978563862
9567188,1859.0,1,185822.0,223151,0.13,-0.84,9.96,-0.03,-0.01,-0.0,31.11,7.148672,7.063112826933726,-81.11358568127172,9.996204279625342,0.03162277660168379,0.48232693679419714,-0.18925494216363736
9607191,1855.0,1,185853.0,223177,0.14,-0.81,9.96,-0.03,-0.01,-0.01,31.11,7.188675,4.709846247834513,-201.39125933921062,9.993863116933312,0.033166247903554,0.3204194282514425,-0.4738965606371818
9647875,1839.0,1,185801.0,223327,0.15,-0.83,9.97,-0.03,-0.01,-0.0,31.25,7.229359,-9.123759808201342,-247.16622221919118,10.005613424473284,0.03162277660168379,-0.6313489394241258,-0.5822247243226463
9688191,1840.0,1,185939.0,223536,0.14,-0.82,9.95,-0.03,-0.01,-0.01,31.25,7.269675,-10.73637268233784,-202.5818629892661,9.984713315864406,0.033166247903554,-0.7422986019121527,-0.47671416875684075
9728188,1844.0,1,186062.0,224027,0.13,-0.81,9.93,-0.03,-0.01,-0.0,31.25,7.309672,-1.605401615561469,-88.47474351493919,9.963829585054132,0.03162277660168379,-0.11407705271408687,-0.20667539781339644
9768191,1850.0,1,186295.0,224460,0.12,-0.81,9.98,-0.03,-0.01,-0.0,31.25,7.349675,0.4168432176734491,51.99076494465146,10.013535839053057,0.03162277660168379,0.025055770367033367,0.12574148764577953
9808188,1849.0,1,186389.0,224836,0.16,-0.82,9.98,-0.03,-0.01,-0.0,31.25,7.389672,4.09904155269727,174.2399450652869,10.014908886255531,0.03162277660168379,0.27839534680048234,0.4150487499857735
9848191,1856.0,1,186531.0,225180,0.15,-0.7999999999999999,9.95,-0.03,-0.01,-0.0,31.25,7.429675,8.889895978595504,248.59165104074535,9.983235948328577,0.03162277660168379,0.608011766282004,0.5910048462544072
9888188,1850.0,1,186619.0,225211,0.13,-0.8,9.95,-0.03,-0.01,-0.0,31.25,7.469672,4.658942148324893,267.54566713706447,9.982955474207024,0.03162277660168379,0.3169171663320259,0.6358602350738913
9928191,1845.0,1,186586.0,225377,0.14,-0.82,9.95,-0.03,-0.01,-0.01,31.25,7.509675,0.550152303765802,244.85593363726656,9.984713315864406,0.033166247903554,0.03422759228768729,0.5821641311362377
9968188,1846.0,1,186683.0,225422,0.15,-0.82,9.98,-0.03,-0.01,-0.0,31.25,7.549672,0.2863357696355571,207.489539058579,10.014754115803344,0.03162277660168379,0.016076704439799437,0.49373515919214434
10008191,1843.0,1,186652.0,225471,0.15,-0.8,9.97,-0.03,-0.01,-0.0,31.25,7.589675,0.12381151654090741,180.80298091596833,10.003169497714213,0.03162277660168379,0.004894844666649859,0.4305804200773538
10048188,1846.0,1,186545.0,225551,0.14,-0.8,9.94,-0.03,-0.01,-0.01,31.25,7.629672,0.8680965288624516,171.2726695298847,9.973123883718682,0.033166247903554,0.056102528938791196,0.40802658132248654
10088190,1839.0,1,186638.0,225637,0.12,-0.82,9.96,-0.03,-0.01,-0.0,31.25,7.669674,-3.814968075998843,158.71553442828676,9.994418442310689,0.03162277660168379,-0.26609782407352484,0.37830965090633306
10128189,1837.0,1,186730.0,225872,0.15,-0.83,9.93,-0.03,-0.01,-0.0,31.25,7.709673,-6.853517597149743,109.80673636864503,9.965756368685721,0.03162277660168379,-0.4751536050559058,0.26256514892266597
10168191,1840.0,1,186703.0,225444,0.13,-0.81,9.98,-0.03,-0.01,-0.01,31.25,7.749675,-3.5510393860943346,8.036797771206718,10.013660669305706,0.033166247903554,-0.24793921977645053,0.021722778486479456
10208224,1840.0,1,186367.0,224756,0.15,-0.82,9.96,-0.03,-0.01,-0.0,31.25,7.789708,-2.8254182834031907,-125.0810050592469,9.994823660275353,0.03162277660168379,-0.19801563443928066,-0.29330548646867255
10248192,1842.0,1,186320.0,224785,0.16,-0.81,9.97,-0.03,-0.01,-0.01,31.25,7.829676,-2.3087570861518536,-240.01457771926434,10.004129147507044,0.033166247903554,-0.1624687363739961,-0.5653000898223494
10288191,1838.0,1,186378.0,224850,0.15,-0.82,9.96,-0.03,-0.01,-0.01,31.25,7.869675,-4.404954248043985,-293.7547432086077,9.994823660275353,0.033166247903554,-0.30668956664910263,-0.6924782037375344
10328191,1840.0,1,186434.0,224919,0.14,-0.82,9.96,-0.03,-0.01,-0.01,31.25,7.909675,-5.158459324737818,-278.4089885192465,9.994678584126655,0.033166247903554,-0.35853160219465235,-0.6561619006479008
10368191,1840.0,1,186490.0,225254,0.16,-0.81,9.96,-0.03,-0.01,-0.01,31.25,7.949675,-2.2463013582292493,-221.5342469491086,9.994163296644698,0.033166247903554,-0.15817170883279685,-0.5215656950642381
10408225,1842.0,1,186485.0,225393,0.15,-0.83,9.96,-0.03,-0.01,-0.0,31.25,7.989709,-4.272199759946888,-163.34041053409504,9.995649053463213,0.03162277660168379,-0.29755590172283775,-0.3838478021370597
10448188,1838.0,1,186594.0,225497,0.13,-0.82,9.97,-0.03,-0.01,-0.01,31.25,8.029672,-4.5445055770349185,-131.7389678841459,10.00450898345341,0.033166247903554,-0.3162908622232747,-0.3090618047992512
10488191,1837.0,1,186631.0,225518,0.16,-0.82,9.94,-0.03,-0.01,-0.0,31.25,8.069675,-9.835314725877874,-130.68226315082538,9.975048872060727,0.03162277660168379,-0.6803047546877119,-0.306561073479851
10528188,1831.0,1,186556.0,225457,0.15,-0.84,9.94,-0.03,-0.01,-0.0,31.25,8.109672,-13.301250385982403,-143.9075127451135,9.976557522512461,0.03162277660168379,-0.918765204719605,-0.3378591218603061
10568191,1840.0,1,186585.0,225558,0.15,-0.83,9.97,-0.03,-0.01,-0.0,31.25,8.149675,-5.97064919861674,-147.68756587660684,10.005613424473284,0.03162277660168379,-0.4144112208113099,-0.3468047591389602
10608206,1833.0,1,186665.0,225818,0.14,-0.82,9.94,-0.03,-0.01,-0.01,31.25,8.18969,-14.429101992313099,-124.16603345258794,9.974748117120551,0.033166247903554,-0.9963627218087422,-0.29114017190067204
10648877,1827.0,1,186690.0,225889,0.14,-0.81,9.96,-0.03,-0.01,-0.0,31.11,8.230361,-17.806611813101195,-69.40070269765494,9.993863116933312,0.03162277660168379,-1.2287393700896216,-0.16153596599745793
10687188,1846.0,1,186740.0,225959,0.13,-0.82,9.95,-0.03,-0.01,-0.0,31.11,8.268672,-3.638406684034038,5.167889110934021,9.984578108262761,0.03162277660168379,-0.25395019263569396,0.014933398716505095
10727191,1847.0,1,186819.0,226128,0.17,-0.8,9.97,-0.03,-0.01,-0.0,31.11,8.308675,1.1957789518240451,76.79915007145858,10.00348939120745,0.03162277660168379,0.0786474650570243,0.18445145999103607
10767188,1857.0,1,186839.0,226372,0.16,-0.81,9.93,-0.03,-0.01,-0.01,31.11,8.348672,8.059441197246096,120.8699176828149,9.9642661546147,0.033166247903554,0.5508755005482816,0.28874658176021184
10807191,1863.0,1,186942.0,226380,0.14,-0.8,9.98,-0.03,-0.01,-0.01,31.11,8.388675,13.616345002181411,124.06858551295564,10.012991560967182,0.033166247903554,0.9331970183311161,0.2963163489534138
10847188,1857.0,1,186855.0,226029,0.13,-0.82,9.94,-0.03,-0.01,-0.0,31.11,8.428672,10.570065529866323,94.08707155977639,9.974612774438915,0.03162277660168379,0.7236094076167079,0.22536397353426377
10887191,1859.0,1,186738.0,225881,0.13,-0.83,9.95,-0.03,-0.01,-0.01,31.11,8.468675,5.99832700380025,56.101099310227745,9.985404348347641,0.033166247903554,0.4090684197666967,0.13546874783217439
10927191,1847.0,1,186706.0,226185,0.16,-0.82,9.95,-0.03,-0.01,-0.01,31.11,8.508675,2.0220091104631237,35.23042749619328,9.985013770646487,0.033166247903554,0.13549307177929537,0.08607752148810846
10967191,1863.0,1,186843.0,226418,0.12,-0.83,9.97,-0.03,-0.01,-0.01,31.11,8.548675,8.878326640654869,38.18465023402238,10.005208643501645,0.033166247903554,0.6072157822238892,0.09306880021718053
11007188,1859.0,1,186697.0,226457,0.12,-0.8,9.96,-0.03,-0.01,-0.01,31.11,8.588672,13.187770809868379,50.191866405097834,9.992797406132079,0.033166247903554,0.9037106098130946,0.12148432689270036
11047191,1862.0,1,186751.0,226543,0.13,-0.83,9.96,-0.03,-0.01,-0.01,31.11,8.628675,9.139420501859528,50.22352334554364,9.995368927658449,0.033166247903554,0.6251793469721021,0.12155924422765017
11087191,1855.0,1,186742.0,226516,0.14,-0.81,9.95,-0.03,-0.01,-0.0,31.11,8.668675,7.503317176056438,31.80927008463683,9.983897034725468,0.03162277660168379,0.5126135137800586,0.07798122436942942
11127191,1861.0,1,186644.0,226480,0.12,-0.82,9.96,-0.03,-0.01,-0.01,31.11,8.708675,9.79624307186191,12.447647225971526,9.994418442310689,0.033166247903554,0.6703695123397849,0.03216121888413788
11167191,1861.0,1,186707.0,226633,0.13,-0.83,9.99,-0.03,-0.01,-0.0,31.11,8.748675,12.89822402196214,23.247143299322254,10.025263088817171,0.03162277660168379,0.8837894502416187,0.05771863072566912
11207192,1856.0,1,186681.0,226842,0.13,-0.83,9.94,-0.03,-0.01,-0.01,31.11,8.788676,5.686484407438154,85.03049298451783,9.975439839926858,0.033166247903554,0.38761328234923625,0.20393124121499956
11247191,1847.0,1,186743.0,227160,0.14,-0.83,9.92,-0.03,-0.01,-0.01,31.11,8.828675,-0.4765827746876548,188.4241001355881,9.95564663896826,0.033166247903554,-0.036412988750726544,0.44861608408114645
11287191,1846.0,1,186983.0,227639,0.12,-0.83,9.97,-0.03,-0.01,-0.01,31.11,8.868675,-3.4319323690359633,294.50415254244547,10.005208643501645,0.033166247903554,-0.23974451690973922,0.699658500238264
11327191,1838.0,1,186965.0,227706,0.12,-0.83,9.99,-0.03,-0.01,-0.01,31.11,8.908675,-8.852923774810193,357.2107841171976,10.025138403034644,0.033166247903554,-0.6127151017707869,0.8480560918912482
11367191,1848.0,1,186962.0,227393,0.13,-0.82,9.96,-0.03,-0.01,-0.01,31.11,8.948675,0.44827576526668583,350.2309396641163,9.994543511336573,0.033166247903554,0.027218366612257974,0.8315380286348135
11407191,1853.0,1,186706.0,227124,0.13,-0.82,9.93,-0.03,-0.01,-0.0,31.11,8.988675,6.364339364804333,277.69750433125,9.964647510072798,0.03162277660168379,0.4342505007057402,0.6598849379264824
11447191,1847.0,1,186751.0,227056,0.13,-0.82,9.94,-0.03,-0.01,-0.01,31.11,9.028675,1.8436504709484578,164.5219401040858,9.974612774438915,0.033166247903554,0.12322178759612024,0.3920507273572602
11487191,1851.0,1,186655.0,226645,0.15,-0.8,9.96,-0.03,-0.01,-0.01,31.11,9.068675,5.049880711275876,40.005075290293725,9.993202689828722,0.033166247903554,0.34381419928309387,0.09737690427812624
11527191,1845.0,1,186442.0,226195,0.15,-0.81,9.96,-0.03,-0.01,-0.01,31.11,9.108675,1.8103436116603244,-71.97315565205982,9.994008204919586,0.033166247903554,0.12093023650173043,-0.1676237722387996
11567188,1843.0,1,186369.0,225995,0.12,-0.82,9.97,-0.03,-0.01,-0.01,31.11,9.148672,-1.5476227727446592,-156.01182115424805,10.004384039010098,0.033166247903554,-0.11010180036909585,-0.36650442095278296
11607191,1844.0,1,186253.0,225960,0.14,-0.81,9.92,-0.03,-0.01,-0.01,31.11,9.188675,2.6680190190787725,-207.10582210165262,9.953999196302961,0.033166247903554,0.17993931332577112,-0.48742028739461873
11647191,1841.0,1,186314.0,225957,0.14,-0.81,9.97,-0.03,-0.01,-0.0,31.11,9.228675,-2.4106996467574,-230.9229206306473,10.003829266835776,0.03162277660168379,-0.16948250444800267,-0.5437843428877177
11687877,1829.0,1,186288.0,225858,0.13,-0.82,9.96,-0.03,-0.01,-0.0,31.21,9.269361,-9.758088508598343,-238.05550897165628,9.994543511336573,0.03162277660168379,-0.6749915001057782,-0.5606638802743832
11728188,1835.0,1,186308.0,226015,0.14,-0.82,9.93,-0.03,-0.01,-0.01,31.21,9.309672,-8.101964333964228,-234.41993798467388,9.964782988103654,0.033166247903554,-0.5610482089657349,-0.5520601654008055
11768191,1833.0,1,186291.0,226126,0.14,-0.82,9.94,-0.03,-0.01,-0.0,31.21,9.349675,-2.7938506547099133,-217.42639279002793,9.974748117120551,0.03162277660168379,-0.19584374445549152,-0.5118443043793858
11808188,1838.0,1,186272.0,226067,0.14,-0.81,9.95,-0.03,-0.01,-0.0,31.21,9.389672,-4.83048090323622,-183.52230327328448,9.983897034725468,0.03162277660168379,-0.3359663010287149,-0.4316090070093755
11848191,1828.0,1,186402.0,226332,0.13,-0.83,9.91,-0.03,-0.01,-0.0,31.21,9.429675,-5.791341467632127,-139.77434606576895,9.945546742135397,0.03162277660168379,-0.4020746380186856,-0.32807782814842934
11888191,1845.0,1,186448.0,226567,0.13,-0.82,9.96,-0.03,-0.01,-0.0,31.21,9.469675,3.504721792988654,-105.50484799067199,9.994543511336573,0.03162277660168379,0.23750544829651268,-0.2469777777424597
11928191,1840.0,1,186439.0,226607,0.13,-0.82,9.95,-0.03,-0.01,-0.0,31.21,9.509675,6.44555291386489,-98.9219009961929,9.984578108262761,0.03162277660168379,0.4398380884040887,-0.2313989871835154
11968188,1845.0,1,186460.0,226579,0.13,-0.82,9.96,-0.03,-0.01,-0.0,31.21,9.549672,5.782406742996189,-119.64280735928169,9.994543511336573,0.03162277660168379,0.39421285185901456,-0.2804357879799952
12008191,1840.0,1,186434.0,226636,0.11,-0.81,9.97,-0.03,-0.01,-0.0,31.21,9.589675,5.596273698227195,-144.27855305094064,10.003454403354873,0.03162277660168379,0.3814066794501239,-0.33873720263754087
12048191,1839.0,1,186391.0,226763,0.14,-0.83,9.94,-0.03,-0.01,-0.0,31.21,9.629675,1.7438480787301813,-142.21168350684988,9.975575171387362,0.03162277660168379,0.11635526562441348,-0.3338458784681293
12088191,1840.0,1,186536.0,227029,0.14,-0.82,9.94,-0.03,-0.01,-0.0,31.21,9.669675,4.727951665862015,-101.2787589312358,9.974748117120551,0.03162277660168379,0.3216651023072395,-0.23697657973864497
12128188,1840.0,1,186592.0,227365,0.14,-0.82,9.990000000000002,-0.03,-0.01,-0.01,31.21,9.709672,3.6408235022573563,-43.229265628503114,10.024574803950541,0.033166247903554,0.24686940597636928,-0.0996002801915645
12168191,1835.0,1,186614.0,227517,0.11,-0.81,9.94,-0.03,-0.01,-0.01,31.21,9.749675,-1.1129853232040765,-14.736181371829232,9.97355503318651,0.033166247903554,-0.08019823262224514,-0.032170329383005604
12208191,1837.0,1,186653.0,227164,0.1,-0.82,9.96,-0.03,-0.01,-0.01,31.21,9.789675,0.7419297332480592,-56.498174198462195,9.994198317023733,0.033166247903554,0.04742210500374835,-0.13100164917274235
12248191,1831.0,1,186516.0,226898,0.1,-0.81,9.96,-0.03,-0.01,-0.0,31.21,9.829675,-6.3014497403136005,-168.23375108589724,9.993382810640249,0.03162277660168379,-0.43717068716604546,-0.39542807578259404
12288188,1826.0,1,186383.0,226914,0.12,-0.8,9.92,-0.03,-0.01,-0.0,31.21,9.869672,-10.932461092133437,-292.1437019983236,9.952929217069716,0.03162277660168379,-0.7557897151443256,-0.688665614388434
12328191,1831.0,1,186575.0,227543,0.06,-0.8,9.96,-0.03,-0.01,-0.0,31.21,9.909675,-7.513449223032485,-330.4644833985745,9.992257002299331,0.03162277660168379,-0.5205576771250139,-0.7793531784824902
12368187,1827.0,1,186601.0,227972,0.1,-0.81,9.97,-0.03,-0.01,-0.0,31.21,9.949671,-11.84928127884191,-197.03689303925418,10.003349439062898,0.03162277660168379,-0.8188680223493224,-0.4635917897403724
12408171,1827.0,1,186830.0,228857,0.1,-0.84,9.92,-0.03,-0.01,-0.0,31.21,9.989655,-12.543642642215996,118.54612745451445,9.956003214141708,0.03162277660168379,-0.866640900853925,0.2832472451712988
12448188,1833.0,1,187292.0,230334,0.11,-0.84,9.94,-0.03,-0.01,-0.01,31.21,10.029672,-8.588655016594702,515.4060291614585,9.976036287023017,0.033166247903554,-0.5945331003739303,1.222431062862806
12488171,1840.0,1,187674.0,231380,0.15,-0.82,9.98,-0.03,-0.01,-0.01,31.21,10.069655,-1.3361625897329457,814.350675823076,10.014754115803344,0.033166247903554,-0.09555309105944902,1.9298947630816885
12528188,1845.0,1,187955.0,231872,0.16,-0.82,9.990000000000002,-0.03,-0.01,-0.01,31.21,10.109672,1.0788370472423463,858.7854504008546,10.024874064046891,0.033166247903554,0.07060172447530284,2.0350513209670362
12568191,1834.0,1,187751.0,230656,0.2,-0.82,9.990000000000002,-0.03,-0.01,-0.0,31.21,10.149675,-10.635132187389841,621.5509443232421,10.02559225183231,0.03162277660168379,-0.7353331367811515,1.4736269791582233
12608188,1845.0,1,187077.0,228969,0.15,-0.88,9.91,-0.03,-0.01,-0.0,31.21,10.189672,-0.8723779143744347,231.4881301368484,9.950125627347626,0.03162277660168379,-0.0636441598934993,0.5505287235990369
12648191,1856.0,1,186678.0,228335,0.1,-0.85,9.95,-0.03,-0.01,0.0,31.21,10.229675,7.718421970244716,-112.08255155100285,9.986741210224684,0.03162277660168379,0.527412976625427,-0.26254415951815335
12688855,1829.0,1,186750.0,228520,0.18,-0.82,9.909999999999997,-0.03,-0.01,-0.0,31.91,10.270339,-20.031974829448544,-272.55758489334625,9.945496468251344,0.03162277660168379,-1.3818469630754981,-0.6423143348631241
12727191,1821.0,1,187013.0,229112,0.2,-0.84,9.96,-0.03,-0.01,-0.01,31.91,10.308675,-29.72268438134518,-248.4153146713887,9.99735965142797,0.033166247903554,-2.0485791784115275,-0.5851807483826703
12767188,1839.0,1,187103.0,229057,0.12,-0.85,9.990000000000002,-0.03,-0.01,-0.01,31.91,10.348672,-14.842229620915262,-134.5191274094779,10.026814050335233,0.033166247903554,-1.0247863885752826,-0.31564115641820323
12807191,1845.0,1,187090.0,229067,0.14,-0.82,9.990000000000002,-0.03,-0.01,-0.01,31.91,10.388675,-7.557897219541033,-24.640823470542642,10.024574803950541,0.033166247903554,-0.5236157515643197,-0.05561003578601436
12847188,1857.0,1,187134.0,229293,0.13,-0.81,9.97,-0.03,-0.01,-0.0,31.91,10.428672,-1.6158639824650423,50.276799134111364,10.003694317600873,0.03162277660168379,-0.11479687586283788,0.12168532337619188
12887191,1860.0,1,187243.0,229537,0.17,-0.84,9.93,-0.03,-0.01,-0.0,31.91,10.468675,4.527728703640634,105.80456816847365,9.966915270032148,0.03162277660168379,0.3078895270051321,0.253093868016952
12927191,1872.0,1,187332.0,230023,0.14,-0.83,9.92,-0.03,-0.01,-0.01,31.91,10.508675,9.952598772895955,149.1380541798442,9.95564663896826,0.033166247903554,0.6811269684757439,0.35564418527246927
12967191,1870.0,1,187495.0,230411,0.13,-0.86,9.98,-0.03,-0.01,-0.01,31.91,10.548675,10.414205449691545,153.34208674892923,10.017829106148698,0.033166247903554,0.7128860507788133,0.3655931857659692
13007188,1873.0,1,187510.0,229799,0.13,-0.85,9.96,-0.03,-0.01,-0.01,31.91,10.588672,8.128364832520075,85.54270487033743,9.997049564746591,0.033166247903554,0.5556175277227766,0.2051434098224147
13047191,1872.0,1,187183.0,229102,0.14,-0.83,9.98,-0.03,-0.01,-0.01,31.91,10.628675,8.655821240080954,-47.45453248105557,10.015433090985132,0.033166247903554,0.5919071489546316,-0.10959953241200156
13087188,1883.0,1,187091.0,229184,0.16,-0.82,9.95,-0.03,-0.01,-0.0,31.91,10.668672,14.425662127768058,-189.4557912146433,9.985013770646487,0.03162277660168379,0.9888789884863525,-0.4456508284003079
13127191,1893.0,1,187009.0,229383,0.12,-0.85,9.96,-0.03,-0.01,-0.01,31.91,10.708675,27.341158079917474,-274.4400535913755,9.996924527073315,0.033166247903554,1.8774803011378858,-0.6467692675254957
13167191,1899.0,1,187113.0,229439,0.14,-0.82,9.94,-0.03,-0.01,-0.0,31.91,10.748675,25.809276502261692,-277.73211994006624,9.974748117120551,0.03162277660168379,1.7720850468034912,-0.6545600658101263
13207191,1883.0,1,187181.0,229587,0.15,-0.84,9.94,-0.03,-0.01,-0.01,31.91,10.788675,15.584798500211283,-231.18092040827239,9.976557522512461,0.033166247903554,1.0686289342810218,-0.5443949090221931
13247191,1895.0,1,187272.0,229772,0.13,-0.84,9.95,-0.03,-0.01,-0.0,31.91,10.828675,17.941436481733298,-191.02065294059113,9.986240533854568,0.03162277660168379,1.2307683992758922,-0.44935413227054943
13287191,1889.0,1,187201.0,229757,0.14,-0.84,9.96,-0.03,-0.01,-0.0,31.91,10.868675,18.64935311981633,-189.83558785060816,9.996339329974749,0.03162277660168379,1.2794738966241186,-0.4465496313606918
13327191,1893.0,1,187164.0,229696,0.15,-0.85,9.92,-0.03,-0.01,-0.01,31.91,10.908675,14.11577179805747,-213.9074701792015,9.95747960078252,0.033166247903554,0.9675581693107622,-0.5035166422558452
13367191,1887.0,1,187236.0,229838,0.13,-0.84,9.96,-0.03,-0.01,-0.0,31.91,10.948675,12.130033632070402,-220.7254805036108,9.996204279625342,0.03162277660168379,0.830937047875259,-0.5196517189869465
13407188,1891.0,1,187254.0,230108,0.13,-0.84,9.97,-0.03,-0.01,-0.01,31.91,10.988672,11.79776137187415,-177.0720333885712,10.006168097728521,0.033166247903554,0.8080763255567371,-0.41634420179874726
13447191,1889.0,1,187395.0,230330,0.12,-0.86,9.91,-0.03,-0.01,-0.01,31.91,11.028675,9.227646317601252,-85.11600958128037,9.947969642092803,0.033166247903554,0.6312493868659089,-0.19872682819259085
13487191,1890.0,1,187447.0,230781,0.11,-0.83,9.92,-0.03,-0.01,-0.0,31.91,11.068675,10.512253560483389,22.286593073755448,9.955269961181363,0.03162277660168379,0.7196318761250042,0.05544545264934525
13527191,1899.5,1,187616.0,231174,0.17,-0.84,9.93,-0.03,-0.01,-0.0,31.91,11.108675,15.638794191384928,110.80114461462195,9.966915270032148,0.03162277660168379,1.0723439013432385,0.26491845327209396
13567191,1885.0,1,187686.0,231734,0.13,-0.86,9.94,-0.03,-0.01,-0.01,31.91,11.148675,4.6069349797475105,173.72756909458965,9.977980757648313,0.033166247903554,0.3133390119633227,0.41383619306535135
13607191,1887.0,1,187751.0,231784,0.13,-0.85,9.96,-0.03,-0.01,-0.01,31.91,11.188675,-0.2216417020196079,235.47627942870488,9.997049564746591,0.033166247903554,-0.0188727430907126,0.5599668282332898
13647191,1889.0,1,187763.0,231707,0.13,-0.86,9.96,-0.03,-0.01,-0.01,31.91,11.228675,7.552800770595862,322.574838904673,9.997904780502763,0.033166247903554,0.5160180432867347,0.7660888306130511
13687211,1879.0,1,187782.0,232121,0.12,-0.84,9.909999999999997,-0.03,-0.01,-0.0,31.91,11.268695,-11.314991824479893,424.38454815137624,9.94626060386515,0.03162277660168379,-0.7821082794605526,1.0070253197799233
13727874,1859.0,1,187999.0,232620,0.14,-0.83,9.99,-0.03,-0.01,-0.01,31.77,11.309358,-23.76151960529992,481.9860719662112,10.025397747720536,0.033166247903554,-1.6384440303265368,1.1433414827598085
13768191,1883.0,1,188037.0,232401,0.14,-0.86,9.93,-0.03,-0.01,-0.0,31.77,11.349675,-9.384692480616646,425.4575792889422,9.968154292545838,0.03162277660168379,-0.6493014141940416,1.0095646881463078
13808191,1872.0,1,187828.0,231167,0.11,-0.87,9.92,-0.03,-0.01,-0.0,31.77,11.389675,-13.449161826951128,234.67495995256886,9.958684652101402,0.03162277660168379,-0.9289416858309723,0.5580704756878424
13848191,1861.0,1,187313.0,230020,0.17,-0.82,9.98,-0.03,-0.01,-0.01,31.77,11.429675,-31.59287241422748,-30.57397406403284,10.015073639269959,0.033166247903554,-2.177250314779917,-0.06965105883058378
13888221,1851.0,1,187157.0,230104,0.13,-0.83,9.96,-0.03,-0.01,-0.01,31.77,11.469705,-38.483063684027556,-262.8030704345546,9.995368927658449,0.033166247903554,-2.6513035783516923,-0.6192299111414754
13928191,1859.0,1,187137.0,230055,0.1,-0.88,9.95,-0.03,-0.01,-0.01,31.77,11.509675,-32.9250092955317,-376.5120724577709,9.989339317492423,0.033166247903554,-2.268902899066582,-0.8883265222294758
13968188,1863.0,1,187213.0,230063,0.15,-0.86,9.96,-0.03,-0.01,-0.0,31.77,11.549672,-30.076756377438457,-357.93543040690713,9.998184835258849,0.03162277660168379,-2.0729397482005085,-0.8443642032192216
14008191,1859.0,1,187162.0,230257,0.13,-0.85,9.92,-0.03,-0.01,-0.01,31.77,11.589675,-33.19684667225008,-259.6152427870869,9.957198401156823,0.033166247903554,-2.28760563031861,-0.6116857976464767
14048191,1871.0,1,187384.0,230932,0.11,-0.85,9.97,-0.03,-0.01,-0.0,31.77,11.629675,-23.79214024996317,-153.11082991361425,10.006772706522318,0.03162277660168379,-1.640550766695222,-0.3596391165550613
14088191,1875.0,1,187401.0,230768,0.14,-0.85,9.92,-0.03,-0.01,-0.0,31.77,11.669675,-18.754462411653286,-81.28944822097355,9.957333980539168,0.03162277660168379,-1.293952606127279,-0.18967112744896272
14128189,1874.0,1,187437.0,230821,0.11,-0.87,9.99,-0.03,-0.01,-0.0,31.77,11.709673,-21.098796061809235,-43.09453113176527,10.028414630438851,0.03162277660168379,-1.4552455186518694,-0.09928142595994088
14168191,1888.0,1,187401.0,230857,0.14,-0.83,9.95,-0.03,-0.01,-0.01,31.77,11.749675,-7.2678224682112065,-14.01294060046452,9.985539544761714,0.033166247903554,-0.503658267488313,-0.030458753016033534
14208191,1899.5,1,187513.0,231148,0.12,-0.85,9.94,-0.03,-0.01,-0.01,31.77,11.789675,4.2857870069367445,21.472442564548597,9.976998546657205,0.033166247903554,0.2912436537012551,0.05351873498368144
14248191,1899.5,1,187494.0,231140,0.12,-0.86,9.94,-0.03,-0.01,-0.0,31.77,11.829675,3.815025196752827,55.203922577630266,9.977855481013943,0.03162277660168379,0.25885468745284523,0.1333455454999642
14288188,1899.5,1,187654.0,231151,0.13,-0.84,9.97,-0.03,-0.01,-0.0,31.77,11.869672,4.181551218128309,69.29042422222129,10.006168097728521,0.03162277660168379,0.2840721088296058,0.1666817791067902
14328191,1899.5,1,187520.0,230880,0.11,-0.86,9.93,-0.03,-0.01,-0.01,31.77,11.909675,4.382322253758751,61.49522183955815,9.967778087417477,0.033166247903554,0.2978853922268979,0.1482341407791627
14368191,1899.5,1,187483.0,230844,0.1,-0.85,9.96,-0.03,-0.01,-0.0,31.77,11.949675,4.7072607508489215,53.558131754779616,9.996704456969807,0.03162277660168379,0.3202415430177848,0.12945071989153595
14408191,1899.5,1,187532.0,231142,0.15,-0.83,9.95,-0.03,-0.01,-0.0,31.77,11.989675,5.589031297448114,70.96797625280678,9.985684753686147,0.03162277660168379,0.3809083937580465,0.17065176880261199
14448188,1899.5,1,187587.0,231302,0.13,-0.87,9.96,-0.03,-0.01,-0.01,31.77,12.029672,6.235380559999782,112.04827865061688,9.998769924345694,0.033166247903554,0.4253779832544668,0.2678698426668423
14488191,1899.5,1,187573.0,231239,0.12,-0.85,9.96,-0.03,-0.01,-0.01,31.77,12.069675,7.5065963613030755,137.33894608269458,9.996924527073315,0.033166247903554,0.512839125581989,0.32772115414644043
14528191,1899.5,1,187540.0,231317,0.11,-0.81,9.92,-0.03,-0.01,-0.01,31.77,12.109675,8.728420811059346,94.73688909283715,9.953622456171422,0.033166247903554,0.596902084829208,0.22690179105847802
14568191,1899.5,1,187599.0,230659,0.15,-0.86,9.97,-0.03,-0.01,-0.0,31.77,12.149675,10.376016717882493,-35.148260141061726,10.008146681578964,0.03162277660168379,0.7102586211129495,-0.08047627811466627
14608191,1899.5,1,187214.0,229903,0.11,-0.87,9.99,-0.03,-0.01,-0.01,31.77,12.189675,12.125670832089117,-210.37878830870633,10.028414630438851,0.033166247903554,0.8306368821050424,-0.49516588447886606
14648191,1899.5,1,187023.0,229864,0.11,-0.85,9.96,-0.03,-0.01,-0.0,31.77,12.229675,14.241458876830242,-344.8616905103699,9.996809491032627,0.03162277660168379,0.9762055881628611,-0.81342470821173
14688188,1899.5,1,187160.0,230233,0.15,-0.83,9.990000000000002,-0.03,-0.01,-0.0,31.77,12.269672,16.521930909788058,-364.537377685401,10.025542379342877,0.03162277660168379,1.1331047463104955,-0.8599879586617469
14728878,1899.5,1,187213.0,230536,0.11,-0.83,9.909999999999997,-0.03,-0.01,-0.01,31.81,12.310362,18.964630268329568,-260.9393359255654,9.945305425174228,0.033166247903554,1.3011653352692814,-0.6148193136389631
14767187,1899.5,1,187282.0,231094,0.12,-0.86,9.93,-0.03,-0.01,-0.01,31.81,12.348671,21.962093474480845,-99.23740211507383,9.967893458499644,0.033166247903554,1.507394329454164,-0.2321456323951935
14807191,1899.5,1,187611.0,231745,0.14,-0.85,9.98,-0.03,-0.01,-0.01,31.81,12.388675,24.507117339931007,27.579377217436026,10.017110361775995,0.033166247903554,1.6824949648418535,0.06797102451210728
14847191,1899.5,1,187624.0,231571,0.12,-0.84,9.97,-0.03,-0.01,-0.01,31.81,12.428675,28.18663174345509,64.79969842752396,10.006043174002398,0.033166247903554,1.9356498836312934,0.15605430835973547
14887190,1899.5,1,187493.0,231325,0.1,-0.86,9.97,-0.03,-0.01,-0.0,31.81,12.468674,31.01872371180083,31.466303759969154,10.007522170847288,0.03162277660168379,2.130501142146308,0.07716958171983043
14927188,1899.5,1,187352.0,231260,0.12,-0.85,9.94,-0.03,-0.01,-0.0,31.81,12.508672,34.7973701283872,-2.946256340484069,9.976998546657205,0.03162277660168379,2.3904764600330255,-0.004269030326060172
14967191,1899.5,1,187531.0,231701,0.11,-0.86,9.91,-0.03,-0.01,-0.01,31.81,12.548675,38.418257182550946,20.09968065750179,9.947854039942484,0.033166247903554,2.6395977482292703,0.05027004252799025
15007191,1885.0,1,187538.0,232008,0.13,-0.83,9.92,-0.03,-0.01,-0.0,31.81,12.588675,27.313297410067193,102.9982500979481,9.95551103660681,0.03162277660168379,1.8755634542826016,0.24645261122130044
15047191,1867.0,1,187791.0,232694,0.12,-0.84,9.93,-0.03,-0.01,-0.01,31.81,12.628675,13.486428207745647,201.30214083737246,9.96618783688126,0.033166247903554,0.9242585900664324,0.4790924496163567
15087192,1861.0,1,187834.0,232761,0.15,-0.86,9.990000000000002,-0.03,-0.01,-0.0,31.81,12.668676,11.151631838916359,273.6617471801383,10.028070602064988,0.03162277660168379,0.7636218537148204,0.6503341675106398
15127191,1852.0,1,187850.0,232717,0.13,-0.86,9.96,-0.03,-0.01,-0.0,31.81,12.708675,5.507443554439447,319.97086072892097,9.997904780502763,0.03162277660168379,0.37529506107594285,0.7599264187549387
15167188,1837.0,1,187728.0,232480,0.12,-0.85,9.96,-0.03,-0.01,-0.0,31.81,12.748672,-4.433662088995269,368.3972531038,9.996924527073315,0.03162277660168379,-0.3086646998725741,0.8745292896220762
15207191,1825.0,1,187812.0,233045,0.1,-0.85,9.93,-0.03,-0.01,-0.0,31.81,12.788675,-14.6849659545233,425.77187943144224,9.966814937581615,0.03162277660168379,-1.0139664633547545,1.0103084912024103
15247188,1813.0,1,187955.0,233436,0.12,-0.83,9.93,-0.03,-0.01,-0.0,31.81,12.828672,-20.749616531067563,447.29112754645314,9.965349968766777,0.03162277660168379,-1.431221556233573,1.0612345976484854
15287191,1810.0,1,188161.0,233341,0.14,-0.86,9.96,-0.03,-0.01,-0.01,31.81,12.868675,-22.239332532211087,364.6622984600526,9.998039807882343,0.033166247903554,-1.5337157693089778,0.8656903796033725
15327194,1798.0,1,187582.0,231263,0.12,-0.84,9.96,-0.03,-0.01,-0.01,31.81,12.908678,-29.758682033108713,149.93018444034533,9.99607923137867,0.033166247903554,-2.051055859193122,0.3575187911950293
15367191,1794.0,1,187230.0,230751,0.14,-0.85,9.96,-0.03,-0.01,-0.01,31.81,12.948675,-30.45949650293523,-147.99422641300268,9.997184603677178,0.033166247903554,-2.0992727190117644,-0.34753048278115434
15407191,1799.0,1,187026.0,230424,0.1,-0.86,9.96,-0.03,-0.01,-0.01,31.81,12.988675,-23.808789722386827,-429.581392740638,9.997559702247345,0.033166247903554,-1.6416962699809983,-1.0139170558439339
15447191,1795.0,1,186932.0,230271,0.14,-0.87,9.94,-0.03,-0.01,-0.0,31.81,13.028675,-23.007988308377954,-606.3146018694615,9.978982914105023,0.03162277660168379,-1.5866001907984515,-1.432162812970209
15487188,1793.0,1,186874.0,230340,0.14,-0.84,9.93,-0.03,-0.01,-0.01,31.81,13.068672,-24.62899900255448,-642.6782484696264,9.96644871556564,0.033166247903554,-1.6981276331827073,-1.5182187442755262
15527197,1789.0,1,187031.0,230586,0.12,-0.84,9.94,-0.03,-0.01,-0.01,31.81,13.108681,-24.985016562520173,-553.783764345935,9.976151562601682,0.033166247903554,-1.722622060054473,-1.3078466189690587
15567191,1794.0,1,187161.0,230935,0.14,-0.84,9.96,-0.03,-0.01,-0.01,31.81,13.148675,-18.38720004021999,-379.53090209944713,9.996339329974749,0.033166247903554,-1.2686845230004495,-0.8954706956156886
15607191,1793.0,1,187192.0,231212,0.13,-0.85,9.93,-0.03,-0.01,-0.0,31.81,13.188675,-18.531570442374864,-168.0461523581011,9.967161080267541,0.03162277660168379,-1.2786173764764712,-0.39498411636868536
15647188,1790.0,1,187423.0,232047,0.12,-0.84,9.95,-0.03,-0.01,-0.01,31.81,13.228672,-18.770961162118816,25.457009189753286,9.986115360839769,0.033166247903554,-1.2950877395650577,0.06294836110315095
15687191,1806.0,1,187742.0,232627,0.11,-0.86,9.96,-0.03,-0.01,-0.01,31.81,13.268675,-3.1649635688865887,146.35692259031177,9.997664727325077,0.033166247903554,-0.22137674945205524,0.3490625332271883
15727191,1801.0,1,187693.0,232509,0.11,-0.86,9.98,-0.03,-0.01,-0.0,31.81,13.308675,-6.668590807453487,169.8437412208175,10.01758953042098,0.03162277660168379,-0.4624304244148109,0.40464496897327973
15767878,1793.0,1,187656.0,232226,0.11,-0.85,9.99,-0.03,-0.01,-0.0,31.81,13.349362,-14.095034682121911,130.98231958680216,10.026699357216213,0.03162277660168379,-0.9733784979392396,0.3126779595219058
15808188,1808.0,1,187548.0,232121,0.12,-0.84,9.93,-0.03,-0.01,-0.0,31.81,13.389672,0.04247470877120388,115.60066004951297,9.96618783688126,0.03162277660168379,-0.0007012233758642731,0.27627668626520413
15848191,1803.0,1,187643.0,232557,0.12,-0.85,9.95,-0.03,-0.01,-0.0,31.81,13.429675,-3.6671139988046537,199.45299755820835,9.986961499875726,0.03162277660168379,-0.2559252896573166,0.47471638280558986
15888188,1797.0,1,187757.0,232906,0.13,-0.84,9.95,-0.03,-0.01,-0.0,31.81,13.469672,-11.559908417055208,375.2821775434239,9.986240533854568,0.03162277660168379,-0.7989588290994417,0.8908227211124122
15928191,1808.0,1,187848.0,233451,0.14,-0.84,9.94,-0.03,-0.01,-0.01,31.81,13.509675,0.026274252774652444,532.8869307873393,9.976412180739125,0.033166247903554,-0.0018158338033247257,1.263800271127661
15967191,1813.0,1,188070.0,233881,0.1,-0.83,9.95,-0.03,-0.01,-0.01,31.81,13.548675,3.1436534982949893,525.4003233727744,9.98505883808403,0.033166247903554,0.21266352493481278,1.2460829343472857
16007192,1808.0,1,188040.0,232379,0.09,-0.84,9.96,-0.03,-0.01,-0.0,31.81,13.588676,-2.08167742007269,283.2374905558888,9.995764102858772,0.03162277660168379,-0.1468453882577485,0.6729955227702411
16047188,1810.0,1,187068.0,230112,0.12,-0.85,9.95,-0.03,-0.01,-0.0,31.81,13.628672,-2.2497552987581964,-115.46106256194606,9.986961499875726,0.03162277660168379,-0.1584093440036965,-0.2705395323328993
16087191,1813.0,1,186714.0,229667,0.14,-0.85,9.95,-0.03,-0.01,-0.0,31.81,13.668675,0.3077224733224192,-484.9868429218651,9.987221835926144,0.03162277660168379,0.017548134808392624,-1.1450361283385562
16127188,1821.0,1,186731.0,229946,0.15,-0.85,9.96,-0.03,-0.01,-0.01,31.81,13.708672,5.786564909311359,-657.3655938595584,9.997329643459798,0.033166247903554,0.3944989385923133,-1.5529768971041187
16167191,1826.0,1,186864.0,230186,0.11,-0.85,9.97,-0.03,-0.01,-0.0,31.81,13.748675,9.842002064000447,-592.2040082486274,10.006772706522318,0.03162277660168379,0.6735177848204207,-1.3987695647994869
16207189,1823.0,1,186940.0,230663,0.13,-0.84,9.92,-0.03,-0.01,-0.01,31.81,13.788673,5.009235907318513,-387.767812139151,9.956349732708269,0.033166247903554,0.3410177889646061,-0.914963651653316
16247191,1822.0,1,187109.0,231204,0.1,-0.82,9.91,-0.03,-0.01,-0.01,31.81,13.828675,1.4460421069729952,-196.6498474887971,9.944370266638305,0.033166247903554,0.0958658644895805,-0.4626758319524092
16287188,1826.0,1,187200.0,231322,0.11,-0.83,9.96,-0.03,-0.01,-0.01,31.81,13.868672,5.502911130267256,-119.24321647367154,9.995128813577143,0.033166247903554,0.3749832249618808,-0.27949014118663584
16327191,1830.0,1,187104.0,230951,0.11,-0.85,9.99,-0.03,-0.01,-0.0,31.81,13.908675,4.972694789382606,-150.3688710443731,10.026699357216213,0.03162277660168379,0.33850371707113014,-0.35315016821916057
16367188,1834.0,1,186957.0,230791,0.13,-0.85,9.96,-0.03,-0.01,-0.0,31.81,13.948672,10.400991020394343,-204.70406792413903,9.997049564746591,0.03162277660168379,0.7119768825004182,-0.48173644620055567
16407191,1845.0,1,186956.0,230919,0.14,-0.84,9.96,-0.03,-0.01,-0.01,31.81,13.988675,16.807561684178573,-189.6954420251245,9.996339329974749,0.033166247903554,1.1527564795460936,-0.4462179710169656
16447191,1838.0,1,187126.0,231398,0.14,-0.85,9.96,-0.03,-0.01,-0.0,31.81,14.028675,10.08358889697691,-68.06342293492,9.997184603677178,0.03162277660168379,0.6901392430824617,-0.15837124336489922
16487191,1843.0,1,187372.0,232070,0.12,-0.84,9.96,-0.03,-0.01,-0.0,31.81,14.068675,12.990863552199665,129.49488677283006,9.99607923137867,0.03162277660168379,0.8901631588841262,0.3091578940711576
16527188,1845.0,1,187494.0,232297,0.1,-0.86,9.97,-0.03,-0.01,-0.01,31.81,14.108672,13.005606145030349,335.46282411110207,10.007522170847288,0.033166247903554,0.8911774666110435,0.7965887301908721
16567191,1842.0,1,187473.0,232309,0.13,-0.85,9.99,-0.03,-0.01,-0.01,31.81,14.148675,9.405074681293955,483.78053365563505,10.02693871528095,0.033166247903554,0.6434566669783471,1.147588143540919
16607191,1852.0,1,187445.0,232270,0.1,-0.86,9.97,-0.03,-0.01,-0.01,31.81,14.188675,18.666198209959454,528.7632315704101,10.007522170847288,0.033166247903554,1.280632858639079,1.2540413825200964
16647191,1852.0,1,187443.0,232242,0.12,-0.83,9.97,-0.03,-0.01,-0.01,31.81,14.228675,14.610862678197229,451.08265589033454,10.005208643501645,0.033166247903554,1.001621004187868,1.0702073914469417
16687192,1842.0,1,187398.0,231974,0.13,-0.85,9.93,-0.03,-0.01,-0.0,31.81,14.268676,9.952155875325577,269.14280512521276,9.967161080267541,0.03162277660168379,0.6810964966019679,0.6396399219272054
16727191,1850.0,1,187085.0,230407,0.11,-0.83,9.95,-0.03,-0.01,-0.0,31.81,14.308675,7.672938260813863,50.59367755796416,9.985163994647257,0.03162277660168379,0.5242836439188661,0.1224352280316587
16767875,1829.0,1,186585.0,229896,0.1,-0.83,9.909999999999997,-0.03,-0.01,-0.01,31.77,14.349359,-2.431213535395565,-104.00657827379425,9.945199847162446,0.033166247903554,-0.17089388411464468,-0.24343206635520065
16808191,1847.0,1,186658.0,230490,0.11,-0.85,9.98,-0.03,-0.01,-0.01,31.77,14.389675,2.9993001070702303,-114.88304028968811,10.016735995323028,0.033166247903554,0.20273184183079124,-0.26917162098172726
16848188,1842.0,1,186876.0,231198,0.11,-0.83,9.97,-0.03,-0.01,-0.01,31.77,14.429672,8.134901467583628,21.09210401551381,10.005093702709635,0.033166247903554,0.5560672559035075,0.052618649565725775
16888191,1846.0,1,187097.0,231485,0.11,-0.85,9.93,-0.03,-0.01,-0.01,31.77,14.469675,3.992850278425483,221.9831120089608,9.966920286628161,0.033166247903554,0.27108926222892193,0.5280347422867893
16928191,1840.0,1,187055.0,231568,0.14,-0.82,9.95,-0.03,-0.01,-0.01,31.77,14.509675,2.059289845109081,371.10749323399415,9.984713315864406,0.033166247903554,0.1380580301723564,0.8809431743743233
16967194,1842.0,1,187055.0,231458,0.13,-0.87,9.95,-0.03,-0.01,-0.0,31.77,14.548678,2.6769892145280205,387.73697788816906,9.988808737782497,0.03162277660168379,0.18055647332337973,0.9202974724945788
17007188,1845.0,1,186928.0,231034,0.11,-0.85,9.96,-0.03,-0.01,-0.0,31.77,14.588672,4.491195147034569,268.51140829715587,9.996809491032627,0.03162277660168379,0.3053759753400428,0.6381456976911407
17047191,1842.0,1,186696.0,230286,0.1,-0.84,9.97,-0.03,-0.01,-0.0,31.77,14.628675,3.2742247489382237,78.57244441024937,10.00582330445626,0.03162277660168379,0.22164698055633858,0.18864802744426823
17087188,1847.0,1,186397.0,229734,0.15,-0.81,9.909999999999997,-0.03,-0.01,-0.0,31.77,14.668672,6.536143600030756,-92.90061441009843,9.944179201925111,0.03162277660168379,0.44607083416462573,-0.2171493870122217
17127191,1845.0,1,186404.0,229767,0.14,-0.85,9.94,-0.03,-0.01,-0.0,31.77,14.708675,5.0590752573447215,-180.93457272578104,9.977259142670395,0.03162277660168379,0.34444679486721086,-0.4254850457719011
17167217,1840.0,1,186364.0,229651,0.14,-0.84,9.96,-0.03,-0.01,-0.0,31.77,14.748701,0.1552051772791376,-170.772973045528,9.996339329974749,0.03162277660168379,0.007054765450511488,-0.40143723963047795
17207191,1845.0,1,186373.0,229613,0.12,-0.84,9.93,-0.03,-0.01,-0.0,31.77,14.788675,4.496821053483406,-95.12579355747306,9.96618783688126,0.03162277660168379,0.3057630443208867,-0.22241535678566093
17247188,1850.0,1,186360.0,229641,0.14,-0.86,9.94,-0.03,-0.01,-0.01,31.77,14.828672,8.727484508356273,-13.079997996936399,9.978116054646788,0.033166247903554,0.5968376661019619,-0.028250909411023487
17287191,1851.0,1,186415.0,229739,0.12,-0.82,9.94,-0.03,-0.01,-0.0,31.77,14.868675,11.854612211390716,16.00997899636618,9.974487455503667,0.03162277660168379,0.8119877301831583,0.04059161040923978
17327191,1850.0,1,186354.0,229506,0.11,-0.83,9.96,-0.03,-0.01,-0.01,31.77,14.908675,5.201300181741443,-43.538648204441806,9.995128813577143,0.033166247903554,0.3542320369499711,-0.10033244564226276
17367206,1833.0,1,186149.0,228930,0.13,-0.83,9.97,-0.03,-0.01,-0.0,31.77,14.94869,-4.617053758259631,-186.98979106822244,10.005333577647473,0.03162277660168379,-0.3212822624223536,-0.4398149467151544
17407188,1843.0,1,185981.0,228533,0.14,-0.84,9.95,-0.03,-0.01,-0.0,31.77,14.988672,-4.951906963181098,-367.931879274649,9.98637571894829,0.03162277660168379,-0.34432055677366485,-0.8680211737788136
17447191,1829.0,1,185825.0,227695,0.17,-0.88,9.97,-0.03,-0.01,-0.01,31.77,15.028675,-9.80782791244902,-518.8550943432147,10.01020479310988,0.033166247903554,-0.6784136295939502,-1.2251866135138698
17487188,1838.0,1,185554.0,227558,0.11,-0.85,9.94,-0.03,-0.01,-0.01,31.77,15.068672,-10.675640372542926,-586.7601365495806,9.97688328086482,0.033166247903554,-0.7381201475652146,-1.3858864385795218
17527171,1841.0,1,185676.0,227890,0.08,-0.85,9.93,-0.03,-0.01,-0.01,31.77,15.108655,-2.7486452577109803,-561.4895116341584,9.96663433662538,0.033166247903554,-0.19273355997159639,-1.326082558466075
17567187,1842.0,1,185867.0,228092,0.13,-0.84,9.95,-0.03,-0.01,-0.01,31.77,15.148671,-5.400970658165459,-474.05756306112494,9.986240533854568,0.033166247903554,-0.3752166671751274,-1.1191715783044522
17607191,1836.0,1,185894.0,228211,0.13,-0.84,9.99,-0.03,-0.01,-0.01,31.77,15.188675,-14.883394368826412,-364.8430487320336,10.026095950069498,0.033166247903554,-1.0276185716493464,-0.8607113406393652
17647191,1829.0,1,185937.0,228533,0.11,-0.83,9.990000000000002,-0.03,-0.01,-0.0,31.77,15.228675,-17.507077981323366,-249.55655380469986,10.025023690745076,0.03162277660168379,-1.2081310901530677,-0.587881533525014
17687191,1838.0,1,186056.0,228960,0.12,-0.85,9.97,-0.03,-0.01,-0.0,31.77,15.268675,-19.400142486792955,-114.16081173824895,10.006887628029007,0.03162277660168379,-1.338376154742659,-0.2674624400711113
17727191,1829.0,1,186252.0,229433,0.11,-0.83,9.91,-0.03,-0.01,-0.01,31.77,15.308675,-19.584035072824264,57.94284482093021,9.945305425174231,0.033166247903554,-1.35102818095518,0.13982730754686945
17767878,1838.0,1,186435.0,229947,0.12,-0.84,9.96,-0.03,-0.01,-0.01,31.61,15.349362,-23.17435687746975,253.97351733208654,9.99607923137867,0.033166247903554,-1.5980465440338705,0.6037412343552627
17808191,1822.0,1,186603.0,230513,0.12,-0.83,9.98,-0.03,-0.01,-0.01,31.61,15.389675,-32.3509614671612,426.4223889858572,10.015173488262697,0.033166247903554,-2.2294077332824216,1.0118479464210717
17848191,1840.0,1,186761.0,230856,0.09,-0.83,9.99,-0.03,-0.01,-0.01,31.61,15.429675,-22.732097139612947,521.2384792864372,10.024824187984546,0.033166247903554,-1.5676185538855651,1.2362337744779435
17888188,1839.0,1,186755.0,230682,0.12,-0.86,9.99,-0.03,-0.01,-0.0,31.61,15.469672,-22.416862295309745,516.6990356850526,10.027666727609171,0.03162277660168379,-1.545930025819811,1.2254910112171395
17928191,1828.0,1,186597.0,230506,0.11,-0.87,9.92,-0.03,-0.01,-0.0,31.61,15.509675,-37.01969601471057,439.72972163927324,9.958684652101402,0.03162277660168379,-2.5506221614967335,1.043340247434529
17968188,1840.0,1,186500.0,230224,0.09,-0.85,9.94,-0.03,-0.01,-0.0,31.61,15.549672,-26.445443059819176,344.70731229676215,9.976682815445221,0.03162277660168379,-1.8231011208152024,0.8184661576393715
18007191,1846.0,1,186402.0,230143,0.1,-0.83,9.92,-0.03,-0.01,-0.0,31.61,15.588675,-23.734775552779375,272.4276076449713,9.955164488846982,0.03162277660168379,-1.6366040080568987,0.6474135300886761
18047188,1840.0,1,186500.0,230308,0.11,-0.83,9.94,-0.03,-0.01,-0.0,31.61,15.628672,-29.038526236838884,224.44967594346198,9.975199246130375,0.03162277660168379,-2.0015082933660056,0.5338719581975456
18087191,1857.0,1,186501.0,230180,0.12,-0.85,9.94,-0.03,-0.01,-0.0,31.61,15.668675,-18.000461745556,172.5237956716825,9.976998546657205,0.03162277660168379,-1.2420764734478618,0.41098741818510065
18127188,1856.0,1,186278.0,229173,0.15,-0.84,9.95,-0.03,-0.01,-0.01,31.61,15.708672,-15.432171500169401,89.59274481852671,9.98652091571434,0.033166247903554,-1.0653750837547424,0.21472798101235652
18167191,1871.0,1,186082.0,228916,0.12,-0.83,9.95,-0.03,-0.01,-0.0,31.61,15.748675,-7.175632682297334,-27.073480341311637,9.985279164850624,0.03162277660168379,-0.4973155017842599,-0.06136700936080856
18207191,1887.0,1,186107.0,229001,0.11,-0.86,9.96,-0.03,-0.01,-0.01,31.61,15.788675,12.312545123328812,-154.45661871619717,9.997664727325077,0.033166247903554,0.8434940531429678,-0.3628239761490388
18247191,1899.5,1,186077.0,229001,0.11,-0.84,9.98,-0.03,-0.01,-0.0,31.61,15.828675,20.57174820761064,-254.90595448212358,10.015892371626204,0.03162277660168379,1.411736939776139,-0.6005410905348686
18287189,1899.5,1,186031.0,228986,0.1,-0.87,9.94,-0.03,-0.01,-0.0,31.61,15.868673,21.901538963695295,-288.90456679218374,9.978501891566689,0.03162277660168379,1.5032281078881966,-0.681000079634641
18327191,1899.5,1,186048.0,229216,0.13,-0.84,9.95,-0.03,-0.01,-0.0,31.61,15.908675,21.090037007906922,-231.77290574834953,9.986240533854568,0.03162277660168379,1.4473958188452947,-0.5457958644962022
18367188,1899.5,1,186107.0,229406,0.12,-0.84,9.909999999999997,-0.03,-0.01,-0.01,31.61,15.948672,20.847799680405533,-96.1964505202156,9.94626060386515,0.033166247903554,1.4307296057948302,-0.2249491065784255
18407191,1899.5,1,186288.0,229816,0.11,-0.86,9.92,-0.03,-0.01,-0.01,31.61,15.988675,22.178463840811908,56.30725327526838,9.957816025615255,0.033166247903554,1.5222808651515158,0.13595661890981747
18447191,1899.5,1,186484.0,230379,0.11,-0.84,9.96,-0.03,-0.01,-0.01,31.61,16.028675,22.19068981687098,140.01068311648618,9.995964185610111,0.033166247903554,1.5231220266845138,0.3340439198793138
18487191,1899.5,1,186572.0,230398,0.1,-0.85,9.96,-0.03,-0.01,-0.01,31.61,16.068675,23.981954473257407,104.42597112266594,9.996704456969807,0.033166247903554,1.6463631419206948,0.24983136648688808
18527188,1899.5,1,186403.0,229871,0.11,-0.85,9.96,-0.03,-0.01,-0.0,31.61,16.108672,25.671574020315266,-15.134874902368265,9.996809491032627,0.03162277660168379,1.762610954080586,-0.033113852551987934
18567191,1899.5,1,186155.0,229572,0.09,-0.82,9.94,-0.03,-0.01,-0.0,31.61,16.148675,27.056600002209766,-109.73273695522693,9.974171644803391,0.03162277660168379,1.8579023706957656,-0.25698323528913486
18607187,1899.5,1,186125.0,229679,0.13,-0.86,9.94,-0.03,-0.01,-0.0,31.61,16.188671,30.58839889891494,-78.23183324754555,9.977980757648313,0.03162277660168379,2.100894288873802,-0.18243516712285407
18647191,1899.5,1,186444.0,230594,0.11,-0.85,9.95,-0.03,-0.01,-0.01,31.61,16.228675,32.13640673281414,83.5388782945221,9.986846349073364,0.033166247903554,2.207399048605368,0.2004012791980523
18687188,1899.5,1,186710.0,231218,0.12,-0.83,9.93,-0.03,-0.01,-0.0,31.61,16.268672,35.988341816216355,266.33250864542896,9.965349968766777,0.03162277660168379,2.47241671297079,0.6329892500770739
18727192,1899.5,1,186848.0,231437,0.1,-0.83,9.96,-0.03,-0.01,-0.01,31.61,16.308676,39.7449134458588,325.9206462922682,9.995023761852696,0.033166247903554,2.7308732595515086,0.7740068090785663
18767874,1899.5,1,186656.0,230279,0.12,-0.85,9.96,-0.03,-0.01,-0.0,31.61,16.349358,41.4007530069669,194.08800918236165,9.996924527073315,0.03162277660168379,2.844796968946201,0.46201993692374055
18808228,1899.5,1,186150.0,229176,0.12,-0.85,9.93,-0.03,-0.01,-0.0,31.61,16.389712,49.186176426086,-69.73784968317412,9.967035667639601,0.03162277660168379,3.380443257358834,-0.16233383696305856
18848189,1899.5,1,186028.0,229184,0.11,-0.87,9.97,-0.03,-0.01,-0.0,31.61,16.429673,47.786899965214985,-324.81560585735394,10.00849139481071,0.03162277660168379,3.2841713910287265,-0.7659848982606375
18888191,1882.0,1,186010.0,229255,0.09,-0.85,9.96,-0.03,-0.01,-0.01,31.61,16.469675,40.74305597558945,-448.8294868516261,9.996609425200127,0.033166247903554,2.7995466396073763,-1.0594683912967968
18928188,1872.0,1,186060.0,229517,0.1,-0.85,9.93,-0.03,-0.01,-0.01,31.61,16.509672,29.245889565757018,-410.9470577306954,9.966814937581615,0.033166247903554,2.0085280676995754,-0.9698182042857237
18968192,1833.0,1,186145.0,229726,0.12,-0.84,9.95,-0.03,-0.01,-0.01,31.61,16.549676,-1.2905430607800057,-273.1401845735036,9.986115360839769,0.033166247903554,-0.0924144138100182,-0.6436930788214896
19008224,1818.0,1,186310.0,230120,0.11,-0.84,9.96,-0.03,-0.01,-0.01,31.61,16.589708,-13.624244462055021,-135.4327901162398,9.995964185610111,0.033166247903554,-0.9409875770574657,-0.31780337342558596
19048191,1813.0,1,186323.0,230061,0.11,-0.85,9.96,-0.03,-0.01,-0.01,31.61,16.629675,-15.398395294098139,-72.41962459825902,9.996809491032627,0.033166247903554,-1.06305124104963,-0.16868035771787807
19088191,1786.0,1,186257.0,230016,0.12,-0.84,9.96,-0.03,-0.01,-0.01,31.61,16.669675,-35.24863428914056,-97.9971063555816,9.99607923137867,0.033166247903554,-2.4287710316633113,-0.22921042603784605
19128191,1783.5,1,186281.0,230116,0.12,-0.86,9.94,-0.03,-0.01,-0.01,31.61,16.709675,-37.940149560860455,-166.75605047856013,9.977855481013943,0.033166247903554,-2.613950448104839,-0.3919310419632671
19168192,1783.5,1,186316.0,230127,0.09,-0.83,9.95,-0.03,-0.01,-0.01,31.61,16.749676,-30.3179317989924,-201.27268729906254,9.984963695477314,0.033166247903554,-2.08953290087278,-0.47361595546427626
19208191,1783.5,1,186271.0,230192,0.11,-0.83,9.91,-0.03,-0.01,-0.0,31.61,16.789675,-29.997290793465563,-131.8230514136116,9.945305425174231,0.03162277660168379,-2.0674724225561394,-0.3092607916202148
19248188,1783.5,1,186402.0,230709,0.12,-0.87,9.93,-0.03,-0.01,-0.0,31.61,16.829672,-25.29897530037423,63.74109568127916,9.968761206890251,0.03162277660168379,-1.7442227904955758,0.15354908532167938
19288191,1783.5,1,186729.0,231851,0.14,-0.85,9.990000000000002,-0.03,-0.01,-0.01,31.61,16.869675,-23.13848627324943,337.3922669997465,10.02707335168144,0.033166247903554,-1.5955786042726818,0.8011548290342693
19328187,1783.5,1,187089.0,232428,0.1,-0.85,9.93,-0.03,-0.01,-0.01,31.61,16.909671,-21.391033005960093,584.5179940879873,9.966814937581615,0.033166247903554,-1.4753517641371239,1.3859871157385888
19368191,1783.5,1,187045.0,232328,0.12,-0.83,9.97,-0.03,-0.01,-0.0,31.61,16.949675,-18.80505731856637,695.1223384327905,10.005208643501645,0.03162277660168379,-1.2974335952323832,1.647736438177633
19406188,1783.5,1,187060.0,232237,0.11,-0.86,9.93,-0.03,-0.01,-0.01,31.61,16.987672,-18.50229364784168,615.5193911125768,9.967778087417477,0.033166247903554,-1.2766030985773644,1.4593530826354522
19446191,1783.5,1,186868.0,230908,0.09,-0.86,9.97,-0.03,-0.01,-0.01,31.61,17.027675,-17.022184934136575,380.46410560488636,10.00742724180396,0.033166247903554,-1.174769878177768,0.9030859479056317
19486188,1783.5,1,186372.0,230012,0.11,-0.82,9.97,-0.03,-0.01,-0.01,31.61,17.067672,-17.316300389668775,92.91380758114359,10.004269088744065,0.033166247903554,-1.1950053674555545,0.22258740039630545
19526196,1783.5,1,186195.0,229933,0.11,-0.86,9.95,-0.03,-0.01,-0.0,31.61,17.10768,-17.46550773493887,-135.40659513658412,9.987702438499056,0.03162277660168379,-1.2052710083070926,-0.3177413820253675
19566189,1783.5,1,186228.0,230021,0.12,-0.87,9.95,-0.03,-0.01,-0.01,31.61,17.147673,-18.16265562795631,-241.83716125583996,9.9886835969511,0.033166247903554,-1.2532356033286605,-0.5696133020077588
19606191,1783.5,1,186185.0,230023,0.11,-0.84,9.96,-0.03,-0.01,-0.0,31.61,17.187675,-20.128415345320075,-232.1482754339529,9.995964185610111,0.03162277660168379,-1.3884821840003263,-0.5466841909127897
19646188,1783.5,1,186223.0,230135,0.13,-0.85,9.96,-0.03,-0.01,-0.01,31.61,17.227672,-20.94997021508595,-157.29545914063004,9.997049564746591,0.033166247903554,-1.445006125349069,-0.36954219831300195
19686191,1783.5,1,186286.0,230190,0.11,-0.85,9.95,-0.03,-0.01,-0.01,31.61,17.267675,-24.89048102220651,-74.05324305059662,9.986846349073364,0.033166247903554,-1.7161179036886496,-0.17254637695569636
19726192,1783.5,1,186322.0,230377,0.11,-0.83,9.95,-0.03,-0.01,-0.01,31.61,17.307676,-25.750859844348298,-18.25303768819644,9.985163994647257,0.033166247903554,-1.7753129786253992,-0.04049310154333659
19766191,1789.0,1,186387.0,230487,0.1,-0.82,9.98,-0.03,-0.01,-0.01,31.61,17.347675,-25.665807980509744,0.6253353524142035,10.014130017130794,0.033166247903554,-1.769461310355717,0.004183275152381616
19806874,1783.5,1,186372.0,230446,0.1,-0.85,9.95,-0.03,-0.01,-0.01,31.83,17.388358,-32.68839230941731,-7.817619551175431,9.986741210224684,0.033166247903554,-2.252623372114161,-0.015797293770920616
19847191,1791.0,1,186326.0,230390,0.13,-0.85,9.909999999999997,-0.03,-0.01,-0.0,31.83,17.428675,-30.983159568729782,-24.328844062721956,9.947235796943788,0.03162277660168379,-2.135301353868386,-0.05487172483542975
19887188,1799.0,1,186370.0,230428,0.09,-0.83,9.96,-0.03,-0.01,-0.0,31.83,17.468672,-25.758722058918213,-28.456215584662864,9.994928714102969,0.03162277660168379,-1.775853908235308,-0.0646393040903128
19927191,1801.0,1,186345.0,230561,0.12,-0.87,9.97,-0.03,-0.01,-0.01,31.83,17.508675,-29.366943512369787,-7.785896019983411,10.008606296582956,0.033166247903554,-2.024103788205337,-0.015722218846476423
19967191,1815.0,1,186380.0,230666,0.09,-0.84,9.97,-0.03,-0.01,-0.0,31.83,17.548675,-19.092570018948614,32.45614232732839,10.00572835929499,0.03162277660168379,-1.3172148071897243,0.07951207175369943
20007191,1842.0,1,186418.0,230576,0.07,-0.85,9.93,-0.03,-0.01,-0.0,31.83,17.588675,2.3665245603425036,65.32873040502683,9.966559085261071,0.03162277660168379,0.15919613994839674,0.15730628234394242
20047188,1855.0,1,186405.0,230509,0.1,-0.84,9.97,-0.03,-0.01,-0.0,31.83,17.628672,11.271776305499463,51.07232537194496,10.00582330445626,0.03162277660168379,0.7718879343290764,0.12356796600627055
20087191,1866.0,1,186353.0,230238,0.12,-0.7999999999999999,9.96,-0.03,-0.01,-0.01,31.83,17.668675,16.888666874286656,-40.47124928826168,9.992797406132079,0.033166247903554,1.1583366120210608,-0.09307333124927436
20127191,1882.0,1,186170.0,229375,0.1,-0.82,9.95,-0.03,-0.01,-0.01,31.83,17.708675,28.62023202510401,-205.21252271352108,9.984232569406624,0.033166247903554,1.9654820930072856,-0.482939723498568
20167191,1895.0,1,185948.0,229049,0.1,-0.86,9.95,-0.03,-0.01,-0.0,31.83,17.748675,36.78235326131411,-395.5760026064865,9.987597308662378,0.03162277660168379,2.5270456343059235,-0.9334420267696556
20207188,1899.5,1,185856.0,228944,0.08,-0.86,9.990000000000002,-0.03,-0.01,-0.0,31.83,17.788672,36.9683354534086,-537.3095011862268,10.027267823290652,0.03162277660168379,2.5398414278733763,-1.268859658327682
20247191,1899.5,1,185800.0,228831,0.15,-0.87,9.98,-0.03,-0.01,-0.0,31.83,17.828675,32.908756373555185,-566.0795153312989,10.018972003154815,0.03162277660168379,2.260537612322251,-1.3369449740866934
20287188,1899.5,1,185860.0,229237,0.11,-0.86,9.92,-0.03,-0.01,-0.01,31.83,17.868672,28.87408583685343,-462.9011909791036,9.957816025615255,0.033166247903554,1.982947533837267,-1.092769606025285
20327191,1899.5,1,186129.0,229986,0.11,-0.81,9.94,-0.03,-0.01,-0.01,31.83,17.908675,25.607287095069896,-265.7409259792356,9.97355503318651,0.033166247903554,1.7581879380097354,-0.6261824562950978
20367191,1899.5,1,186379.0,230335,0.12,-0.83,9.94,-0.03,-0.01,-0.01,31.83,17.948675,22.264940945558614,-48.46851109410443,9.975314531381954,0.033166247903554,1.5282305916720402,-0.11199915076791192
20407192,1899.5,1,186521.0,230615,0.11,-0.86,9.97,-0.03,-0.01,-0.01,31.83,17.988676,19.712395465056264,119.98715907700411,10.007627091373859,0.033166247903554,1.3526124603218732,0.28665750046492483
20447197,1899.5,1,186584.0,230684,0.12,-0.83,9.990000000000002,-0.03,-0.01,-0.0,31.83,18.028681,17.435992374451597,209.78943437770164,10.025138403034646,0.03162277660168379,1.1959932501940054,0.4991779475837502
20487192,1899.5,1,186552.0,230837,0.15,-0.85,9.94,-0.03,-0.01,-0.0,31.83,18.068676,15.518476126554107,237.65939852386802,9.97740447210596,0.03162277660168379,1.0640658769653542,0.5651332613182443
20527189,1899.5,1,186711.0,231219,0.08,-0.86,9.95,-0.03,-0.01,-0.0,31.83,18.108673,14.5078938276733,248.20163493645018,9.98741708351063,0.03162277660168379,0.9945366261603594,0.5900818585395545
20567191,1899.5,1,186712.0,231325,0.14,-0.83,9.91,-0.03,-0.01,-0.0,31.83,18.148675,13.332251747394032,284.68337151211654,9.94568248035297,0.03162277660168379,0.913651068252637,0.6764172541937402
20607188,1899.5,1,186794.0,231474,0.12,-0.83,9.94,-0.03,-0.01,-0.01,31.83,18.188672,13.362513699862728,364.26783404634625,9.975314531381954,0.033166247903554,0.9157331261764449,0.8647568647977327
20647197,1899.5,1,186798.0,231597,0.11,-0.85,9.98,-0.03,-0.01,-0.01,31.83,18.228681,13.428894874702506,465.7741071908458,10.016735995323028,0.033166247903554,0.9203002290826372,1.1049752610666645
20687191,1899.5,1,186878.0,231939,0.08,-0.84,9.92,-0.03,-0.01,-0.01,31.83,18.268675,13.83828962998723,535.7560856678879,9.955822417058272,0.033166247903554,0.9484670697743505,1.2705902335871377
20727191,1899.5,1,187072.0,232127,0.11,-0.86,9.94,-0.03,-0.01,-0.01,31.83,18.308675,15.683689554548456,515.708493978278,9.977740225121117,0.033166247903554,1.0754327551345975,1.2231468571775155
20767192,1899.5,1,186853.0,230717,0.11,-0.84,9.94,-0.03,-0.01,-0.0,31.83,18.348676,16.180649790892996,379.6739236976979,9.976036287023017,0.03162277660168379,1.1096242039173196,0.9012159528341416
20807878,1899.5,1,186426.0,230069,0.12,-0.83,9.91,-0.03,-0.01,-0.01,31.35,18.389362,19.243390560990033,157.07749534962005,9.94542105694877,0.033166247903554,1.3203443712808247,0.37443317009077787
20846191,1899.5,1,186365.0,229970,0.12,-0.85,9.99,-0.03,-0.01,-0.01,31.35,18.427675,21.034630627805424,-78.21564554411803,10.026814050335231,0.033166247903554,1.4435837947255963,-0.18239685831654906
20886191,1899.5,1,186227.0,229580,0.13,-0.85,9.94,-0.03,-0.01,-0.01,31.35,18.467675,23.097502045237963,-245.64896980294577,9.977123834051575,0.033166247903554,1.585511774584304,-0.5786340896665321
20926191,1899.5,1,186087.0,229480,0.16,-0.88,9.990000000000002,-0.03,-0.01,-0.0,31.35,18.507675,28.349011693495218,-296.84777157082664,10.029960119561794,0.03162277660168379,1.946821815184563,-0.6997979711742608
20966191,1899.5,1,186213.0,230049,0.05,-0.88,9.95,-0.03,-0.01,-0.01,31.35,18.547675,27.490332271702442,-234.72864950815358,9.988963910236135,0.033166247903554,1.887743660990652,-0.5527907427807323
21006168,1899.5,1,186313.0,229983,0.12,-0.82,9.98,-0.03,-0.01,-0.0,31.35,18.587652,36.28065448317052,-108.04645042004462,10.014349704299327,0.03162277660168379,2.492528168273977,-0.2529925750611237
21046191,1899.5,1,186369.0,230362,0.14,-0.86,9.93,-0.03,-0.01,-0.01,31.35,18.627675,34.080808215296926,12.630373247228468,9.968154292545838,0.033166247903554,2.34117615759577,0.03259364685556443
21086191,1863.0,1,186490.0,230473,0.08,-0.84,9.96,-0.03,-0.01,-0.0,31.35,18.667675,6.0659802796529885,67.71359892485616,9.995679066476676,0.03162277660168379,0.4137230447188198,0.1629501629968172
21126191,1851.0,1,186470.0,230472,0.13,-0.8,9.94,-0.03,-0.01,-0.0,31.35,18.707675,-5.2631874045477485,37.707489993342286,9.972988518994693,0.03162277660168379,-0.36573701726623475,0.09193958264048654
21166188,1824.0,1,186389.0,230195,0.13,-0.85,9.97,-0.03,-0.01,-0.01,31.35,18.747672,-27.796758098246258,-46.31861228493417,10.007012541213287,0.033166247903554,-1.9160731848691752,-0.10691133473368339
21206191,1792.0,1,186260.0,229988,0.14,-0.83,9.94,-0.03,-0.01,-0.01,31.35,18.787675,-55.43719456266936,-121.71029361806548,9.975575171387362,0.033166247903554,-3.817767724168701,-0.2853285716278205
21246191,1795.0,1,186191.0,229919,0.13,-0.84,9.97,-0.03,-0.01,-0.01,31.35,18.827675,-50.105311446357554,-136.9001726175817,10.006168097728521,0.033166247903554,-3.4509278944314055,-0.32127598906071675
21286191,1785.0,1,186243.0,229987,0.12,-0.85,9.96,-0.03,-0.01,-0.0,31.35,18.867675,-56.62699339135497,-90.87881721324547,9.996924527073315,0.03162277660168379,-3.8996272830178786,-0.21236472824026917
21326191,1783.5,1,186323.0,230289,0.12,-0.83,9.94,-0.03,-0.01,-0.01,31.35,18.907675,-53.38959287477592,-37.49537611710691,9.975314531381954,0.033166247903554,-3.676890319662465,-0.08603081595904298
21366192,1800.0,1,186420.0,230276,0.12,-0.84,9.99,-0.03,-0.01,-0.0,31.35,18.947676,-37.28575715994629,-45.9364359697384,10.025971274644666,0.03162277660168379,-2.568927481228779,-0.10600690017329314
21406191,1783.5,1,186210.0,229285,0.1,-0.85,9.93,-0.03,-0.01,-0.0,31.35,18.987675,-47.193086896297956,-145.36592862233593,9.966814937581615,0.03162277660168379,-3.250563420042924,-0.3413105176437055
21446191,1790.0,1,185909.0,228860,0.1,-0.84,9.93,-0.03,-0.01,-0.0,31.35,19.027675,-41.63746882502913,-297.8675348044375,9.965967088045193,0.03162277660168379,-2.8683303622486176,-0.7022112790513346
21486189,1796.0,1,185869.0,228876,0.15,-0.85,9.93,-0.03,-0.01,-0.0,31.35,19.067673,-32.16264821756733,-421.30060522115957,9.967441998827985,0.03162277660168379,-2.216451560217233,-0.9943202621074407
21526195,1792.0,1,185913.0,228917,0.12,-0.83,9.93,-0.03,-0.01,-0.0,31.35,19.107679,-33.68998684955582,-443.0940369473681,9.965349968766777,0.03162277660168379,-2.321534254546328,-1.0458952343361394
21566191,1803.0,1,185945.0,229040,0.1,-0.85,9.93,-0.03,-0.01,-0.01,31.35,19.147675,-23.86229086582621,-345.51112115149624,9.966814937581615,0.033166247903554,-1.6453772115774132,-0.8149616101416943
21606191,1799.0,1,186008.0,229459,0.13,-0.84,9.97,-0.03,-0.01,-0.01,31.35,19.187675,-23.65906671528144,-175.1548321497266,10.006168097728521,0.033166247903554,-1.6313951509886735,-0.41180707327798627
21646191,1797.0,1,186218.0,229967,0.13,-0.84,9.98,-0.03,-0.01,-0.01,31.35,19.227675,-27.56803212495641,-14.660167366338433,10.016131987948242,0.033166247903554,-1.900336568880454,-0.03199043939268959
21686191,1802.0,1,186325.0,229933,0.11,-0.83,9.95,-0.03,-0.01,-0.01,31.35,19.267675,-21.12376553522599,66.97508486240001,9.985163994647257,0.033166247903554,-1.4569634477919156,0.16120244181457336
21726191,1818.0,1,186189.0,229755,0.1,-0.85,9.96,-0.03,-0.01,-0.0,31.35,19.307675,-4.536864594695588,59.34153982538184,9.996704456969807,0.03162277660168379,-0.3157651536510424,0.14313737164862633
21766191,1831.0,1,186210.0,229978,0.11,-0.86,9.97,-0.03,-0.01,-0.01,31.35,19.347675,6.530227046393499,23.51283786424389,10.007627091373859,0.033166247903554,0.44566376831536075,0.058347406862410835
21806191,1816.0,1,186314.0,230202,0.13,-0.85,9.93,-0.03,-0.01,-0.01,31.35,19.387675,-7.499539622190912,57.82263897639183,9.967161080267541,0.033166247903554,-0.5196006802267086,0.13954283591469696
21846878,1811.0,1,186307.0,230121,0.12,-0.85,9.96,-0.03,-0.01,-0.01,31.39,19.428362,-13.452406311456823,227.85631883862837,9.996924527073315,0.033166247903554,-0.9291649101811109,0.5419339061696958
21887191,1843.0,1,186324.0,230639,0.14,-0.82,9.909999999999997,-0.03,-0.01,-0.01,31.39,19.468675,15.025879558247674,502.01986705276136,9.944852940089156,0.033166247903554,1.0301746536761787,1.1907522089916804
21927191,1873.0,1,186784.0,232022,0.11,-0.85,9.94,-0.03,-0.01,-0.01,31.39,19.508675,49.15493193516155,746.3071743697592,9.97688328086482,0.033166247903554,3.378293599633613,1.7688672690235616
21967168,1883.0,1,187117.0,232267,0.08,-0.82,9.990000000000002,-0.03,-0.01,-0.01,31.39,19.548652,49.585156675842704,801.4436602564131,10.023916400289862,0.033166247903554,3.4078935678207287,1.8993498274437877
22007191,1859.0,1,186742.0,230544,0.1,-0.83,9.97,-0.03,-0.01,-0.0,31.39,19.588675,33.53879458877771,597.017306418531,10.004988755615871,0.03162277660168379,2.3038849825774514,1.4155672064018858
22047188,1867.0,1,185959.0,228654,0.15,-0.87,9.96,-0.03,-0.01,-0.0,31.39,19.628672,30.299298901059995,210.50732549610592,9.999049954870713,0.03162277660168379,2.0810038689833674,0.5008768637966753
22087197,1853.0,1,185509.0,228040,0.13,-0.86,9.909999999999997,-0.03,-0.01,-0.01,31.39,19.668681,22.08767129043494,-182.84317745450522,9.948095295080357,0.033166247903554,1.5160342308958235,-0.4300018303295683
22127188,1853.0,1,185579.0,228287,0.14,-0.84,9.97,-0.03,-0.01,-0.01,31.39,19.708672,15.673403984705503,-426.13745999616515,10.006303013600977,0.033166247903554,1.0747250958315648,-1.0057668600470926
22167191,1857.0,1,185600.0,228151,0.12,-0.83,9.97,-0.03,-0.01,-0.0,31.39,19.748675,18.510800399732116,-465.8765605993868,10.005208643501645,0.03162277660168379,1.2699413065172878,-1.0998109296435234
22207188,1857.0,1,185521.0,227972,0.1,-0.87,9.97,-0.03,-0.01,-0.0,31.39,19.788672,19.240646485724522,-352.6320341402837,10.008386483344855,0.03162277660168379,1.3201555756749894,-0.8318135173701474
22247191,1865.0,1,185479.0,228201,0.09,-0.83,9.93,-0.03,-0.01,-0.0,31.39,19.828675,20.17741326353868,-184.65226196928393,9.965033868482335,0.03162277660168379,1.3846062318091408,-0.43428309657442843
22287206,1856.0,1,185636.0,228823,0.11,-0.84,9.95,-0.03,-0.01,-0.01,31.39,19.86869,15.612255707300788,-50.573553389912405,9.98600020028039,0.033166247903554,1.0705180224238133,-0.1169808121836297
22327191,1861.0,1,185849.0,229115,0.12,-0.84,9.95,-0.03,-0.01,-0.0,31.39,19.908675,12.733230127363946,2.604963318478766,9.986115360839769,0.03162277660168379,0.872437676228245,0.008868138860658995
22367191,1863.0,1,185779.0,228721,0.11,-0.85,9.95,-0.03,-0.01,-0.0,31.39,19.948675,17.993370369457615,-19.759591446387013,9.986846349073364,0.03162277660168379,1.234341511835712,-0.04405841742455592
22407191,1875.0,1,185591.0,228356,0.12,-0.85,9.96,-0.03,-0.01,-0.0,31.39,19.988675,25.138687876633558,-67.55214434790508,9.996924527073315,0.03162277660168379,1.725947760617189,-0.15716128344405247
22447188,1872.0,1,185485.0,228542,0.14,-0.85,9.95,-0.03,-0.01,-0.0,31.39,20.028672,22.453578890541557,-75.29840900314473,9.987221835926144,0.03162277660168379,1.541209104161902,-0.17549310880727348
22487210,1855.0,1,185637.0,228859,0.11,-0.85,9.97,-0.03,-0.01,-0.01,31.39,20.068694,3.60932860510574,-3.3858372244251354,10.006772706522318,0.033166247903554,0.2447025200081929,-0.005309314947883315
22527191,1849.0,1,185763.0,229138,0.12,-0.84,9.97,-0.03,-0.01,-0.01,31.39,20.108675,-3.462374804601009,135.91766075414955,10.006043174002398,0.033166247903554,-0.24183899228285932,0.3243576291968285
22567191,1854.0,1,185887.0,229581,0.12,-0.85,9.95,-0.03,-0.01,-0.01,31.39,20.148675,0.5956663865104087,287.11396700246917,9.986961499875726,0.033166247903554,0.03735901471395945,0.6821693494345913
22607191,1847.0,1,185969.0,229768,0.1,-0.83,9.97,-0.03,-0.01,-0.01,31.39,20.188675,-6.682723610014797,386.1238771245677,10.004988755615871,0.033166247903554,-0.46340277785396283,0.9164800091354336
22647191,1846.0,1,185884.0,229399,0.12,-0.82,9.94,-0.03,-0.01,-0.0,31.39,20.228675,-9.466792671564061,393.3668945191958,9.974487455503667,0.03162277660168379,-0.6549500038970699,0.9336208810124721
22687188,1842.0,1,185744.0,229274,0.12,-0.85,9.95,-0.03,-0.01,-0.0,31.39,20.268672,-11.560168140200032,305.29413311971376,9.986961499875726,0.03162277660168379,-0.7989766983572907,0.7251933933020113
22727191,1840.0,1,185681.0,228756,0.13,-0.84,9.97,-0.03,-0.01,-0.0,31.39,20.308675,-17.21489226032655,146.30021158884549,10.006168097728521,0.03162277660168379,-1.18802836888106,0.3489283245186916
22767188,1841.0,1,185441.0,227897,0.11,-0.82,9.98,-0.03,-0.01,-0.01,31.39,20.348672,-11.472807734986047,-44.635803239412915,10.014234868426046,0.033166247903554,-0.7929661997256839,-0.10292890411516872
22807191,1839.0,1,185224.0,227529,0.12,-0.85,9.95,-0.03,-0.01,-0.01,31.39,20.388675,-18.978004059159613,-223.9948827740977,9.986961499875726,0.033166247903554,-1.3093325344043152,-0.527388881881858
22847877,1822.0,1,185087.0,227224,0.15,-0.85,9.94,-0.03,-0.01,-0.01,31.25,20.429361,-29.391380365585697,-352.9542712289667,9.97740447210596,0.033166247903554,-2.0257850724491,-0.8325761035065886
22886191,1842.0,1,184989.0,227038,0.12,-0.85,9.94,-0.03,-0.01,-0.0,31.25,20.467675,-14.830254961387629,-409.30025209366124,9.976998546657205,0.03162277660168379,-1.0239625179152452,-0.9659209770815308
22926188,1840.0,1,184979.0,227132,0.15,-0.81,9.909999999999997,-0.03,-0.01,-0.0,31.25,20.507672,-10.775729484124433,-397.20650599181477,9.944179201925111,0.03162277660168379,-0.7450063961663496,-0.9373006740847536
22966191,1841.0,1,185082.0,227469,0.11,-0.84,9.98,-0.03,-0.01,-0.01,31.25,20.547675,-13.28745176548508,-345.46798643190164,10.015892371626204,0.033166247903554,-0.9178158433995187,-0.8148595302126068
23006191,1846.0,1,185159.0,227601,0.12,-0.86,9.96,-0.03,-0.01,-0.01,31.25,20.587675,-3.3422891461849895,-291.7153733930863,9.99777975352528,0.033166247903554,-0.23357695773966858,-0.6876519587055014
23046191,1850.0,1,185084.0,227387,0.12,-0.84,9.97,-0.03,-0.01,-0.0,31.25,20.627675,-2.062130528660628,-262.29368017642105,10.006043174002398,0.03162277660168379,-0.14550053913763986,-0.6180244200216343
23086191,1844.0,1,185090.0,227421,0.15,-0.84,9.94,-0.03,-0.01,-0.0,31.25,20.667675,-1.924073387817539,-261.2849860203904,9.976557522512461,0.03162277660168379,-0.13600204546549632,-0.6156373075311325
23126191,1850.0,1,185104.0,227531,0.1,-0.85,9.95,-0.03,-0.01,-0.01,31.25,20.707675,-0.4152967886697094,-272.96370202952465,9.986741210224684,0.033166247903554,-0.032196440828412595,-0.6432754262728267
23166188,1839.0,1,185118.0,227639,0.11,-0.83,9.94,-0.03,-0.01,-0.0,31.25,20.747672,-2.560415197455256,-270.9278016278794,9.975199246130375,0.03162277660168379,-0.17978311043071926,-0.6384573917386428
23206191,1847.0,1,185181.0,227766,0.13,-0.85,9.98,-0.03,-0.01,-0.0,31.25,20.787675,-0.6139454806595633,-226.7860244303861,10.016975591464721,0.03162277660168379,-0.04586370448694192,-0.5339942231249409
23246188,1839.0,1,185236.0,228090,0.15,-0.87,9.97,-0.03,-0.01,-0.01,31.25,20.827672,0.6922163893604715,-118.92895991019246,10.009010940147883,0.033166247903554,0.04400176847168852,-0.2787464412619183
23286191,1843.0,1,185454.0,228704,0.12,-0.84,9.95,-0.03,-0.01,-0.01,31.25,20.867675,0.7754667687927893,55.15575794667256,9.986115360839769,0.033166247903554,0.04972949249532421,0.13323156209729237
23326191,1840.0,1,185641.0,229178,0.12,-0.87,9.96,-0.03,-0.01,-0.01,31.25,20.907675,3.2126257512028285,266.4068553984749,9.998644908186309,0.033166247903554,0.21740889705970123,0.6331651944520493
23366191,1840.0,1,185795.0,229562,0.13,-0.84,9.97,-0.03,-0.01,-0.01,31.25,20.947675,5.1061128072922335,453.4910220271747,10.006168097728521,0.033166247903554,0.34768303362893765,1.075906880090334
23406191,1835.0,1,185875.0,229925,0.13,-0.85,9.95,-0.03,-0.01,-0.01,31.25,20.987675,-0.5103213513567584,544.6332590141878,9.987086662285453,0.033166247903554,-0.038734242508711,1.2915983967142957
23446191,1827.0,1,186056.0,230110,0.1,-0.84,9.97,-0.03,-0.01,-0.01,31.25,21.027675,-0.8418808903266068,497.5262332541395,10.00582330445626,0.033166247903554,-0.06154592876855708,1.180117856344449
23486191,1840.0,1,185787.0,228765,0.11,-0.84,9.99,-0.03,-0.01,-0.01,31.25,21.067675,7.6195569598345445,332.35972125432926,10.02585657188452,0.033166247903554,0.5206109476246619,0.7892451210855476
23526196,1826.0,1,185412.0,228151,0.1,-0.84,9.97,-0.03,-0.01,-0.0,31.25,21.10768,3.2717378315134273,128.04101731806796,10.00582330445626,0.03162277660168379,0.2214758777124124,0.30571725756675
23566188,1829.0,1,185324.0,228154,0.14,-0.86,9.96,-0.03,-0.01,-0.0,31.25,21.147672,2.1061367794074064,-23.27571374104151,9.998039807882343,0.03162277660168379,0.14128115435321792,-0.05237945249501855
23606191,1830.0,1,185424.0,228372,0.11,-0.85,9.96,-0.03,-0.01,-0.01,31.25,21.187675,10.909869764275186,-71.01821955499783,9.996809491032627,0.033166247903554,0.7469883386201289,-0.16536388020780177
23646191,1833.0,1,185456.0,228536,0.11,-0.83,9.97,-0.03,-0.01,-0.01,31.25,21.227675,12.546929709916249,-28.37912542476528,10.005093702709635,0.033166247903554,0.8596199883821966,-0.06445686734029685
23686192,1830.0,1,185503.0,228781,0.13,-0.85,9.96,-0.03,-0.01,-0.0,31.25,21.267676,14.563709671707395,49.736723366828954,9.997049564746591,0.03162277660168379,0.99837682188023,0.12040721384994017
23726191,1826.0,1,185561.0,228703,0.1,-0.84,9.94,-0.03,-0.01,-0.0,31.25,21.307675,11.652425193213087,107.53528445331013,9.975931034244372,0.03162277660168379,0.798077025521148,0.2571896729111786
23766192,1818.0,1,185495.0,228635,0.11,-0.83,9.91,-0.03,-0.01,-0.0,31.25,21.347676,6.748878883269377,115.75503710349331,9.945305425174231,0.03162277660168379,0.4607072718696505,0.27664202534405186
23806189,1817.0,1,185556.0,228691,0.12,-0.86,9.95,-0.03,-0.01,-0.01,31.25,21.387673,8.346150396286175,75.54179588268462,9.987817579431454,0.033166247903554,0.5706014306682073,0.18147588422204558
23846191,1803.0,1,185520.0,228601,0.14,-0.85,9.96,-0.03,-0.01,-0.01,31.25,21.427675,-3.846995761647454,9.805239253112598,9.997184603677178,0.033166247903554,-0.2683013665169577,0.02590786147217967
23886878,1783.5,1,185428.0,228517,0.12,-0.85,9.96,-0.03,-0.01,-0.0,31.49,21.468362,-19.772690690867627,-46.13027606837603,9.996924527073315,0.03162277660168379,-1.3640079093723858,-0.10646563002500443
23927216,1783.5,1,185460.0,228660,0.14,-0.86,9.93,-0.03,-0.01,-0.01,31.49,21.5087,-18.719805536927097,-54.70330779662864,9.968154292545838,0.033166247903554,-1.2915681723828694,-0.12675403062455998
23967192,1783.5,1,185481.0,228875,0.13,-0.83,9.96,-0.03,-0.01,-0.01,31.49,21.548676,-14.98452034609165,7.473622962233105,9.995368927658449,0.033166247903554,-1.0345761578290784,0.020390004213128705
24007192,1783.5,1,185600.0,229241,0.14,-0.83,9.98,-0.03,-0.01,-0.01,31.49,21.588676,-13.780095345623211,130.01872505555193,10.015433090985132,0.033166247903554,-0.95171030115801,0.310397576982189
24047191,1783.5,1,185771.0,229504,0.11,-0.85,9.99,-0.03,-0.01,-0.01,31.49,21.628675,-10.776252602912814,260.553231665393,10.026699357216213,0.033166247903554,-0.74504238735428,0.619312374700496
24087191,1783.5,1,185780.0,229564,0.13,-0.84,9.95,-0.03,-0.01,-0.0,31.49,21.668675,-8.906055138281976,322.1544580383816,9.986240533854568,0.03162277660168379,-0.6163706020704974,0.7650939835519349
24127220,1783.5,1,185803.0,229605,0.11,-0.83,9.93,-0.03,-0.01,-0.0,31.49,21.708704,-6.777006363608298,254.64025423317565,9.965234568237719,0.03162277660168379,-0.4698895421961129,0.6053190921974568
24167191,1783.5,1,185685.0,228652,0.12,-0.84,9.93,-0.03,-0.01,-0.0,31.49,21.748675,-4.542351701601814,56.327494205972364,9.96618783688126,0.03162277660168379,-0.31614267306009924,0.13600451983024414
24207188,1783.5,1,185217.0,227500,0.12,-0.84,9.94,-0.03,-0.01,-0.01,31.49,21.788672,-2.8310745955708296,-205.0796411232404,9.976151562601682,0.033166247903554,-0.19840479536934114,-0.4826252542394568
24247192,1783.5,1,185001.0,227372,0.11,-0.85,9.94,-0.03,-0.01,-0.01,31.49,21.828676,-0.7741505856872385,-425.80309630853236,9.97688328086482,0.033166247903554,-0.056886004145312946,-1.0049755758601597
24287191,1783.5,1,185031.0,227422,0.12,-0.84,9.96,-0.03,-0.01,-0.01,31.49,21.868675,0.8745861641812841,-523.1168881559136,9.99607923137867,0.033166247903554,0.056549023481804433,-1.2352723081532349
24327192,1783.5,1,185095.0,227631,0.12,-0.87,9.96,-0.03,-0.01,-0.01,31.49,21.908676,2.5257974938313517,-476.9897761442166,9.998644908186309,0.033166247903554,0.17015430510848084,-1.126110770361443
24367192,1783.5,1,185168.0,227966,0.13,-0.83,9.95,-0.03,-0.01,-0.0,31.49,21.948676,4.096078898199591,-331.6783292978615,9.985404348347641,0.03162277660168379,0.27819151268638215,-0.7822257902552547
24407191,1783.5,1,185326.0,228442,0.14,-0.83,9.94,-0.03,-0.01,-0.0,31.49,21.988675,5.410130961957347,-164.13484615031487,9.975575171387362,0.03162277660168379,0.36859984025457543,-0.38572786377025137
24447188,1783.5,1,185448.0,228651,0.13,-0.84,9.95,-0.03,-0.01,-0.01,31.49,22.028672,6.722565313910448,-43.578382267894995,9.986240533854568,0.033166247903554,0.4588968673478636,-0.10042647779125502
24487191,1783.5,1,185507.0,228748,0.11,-0.83,9.98,-0.03,-0.01,-0.0,31.49,22.068675,7.790298307900192,-2.2206858148766417,10.015058661835187,0.03162277660168379,0.5323581531967233,-0.002551940508435764
24527188,1783.5,1,185471.0,228680,0.14,-0.84,9.94,-0.03,-0.01,-0.01,31.49,22.108672,8.737271588857874,-25.506073770380542,9.976412180739125,0.033166247903554,0.5975110287519887,-0.05765768301962315
24567191,1783.5,1,185440.0,228562,0.13,-0.84,9.96,-0.03,-0.01,-0.0,31.49,22.148675,9.532505404233781,-62.839284642194535,9.996204279625342,0.03162277660168379,0.652224050600005,-0.14600812447884612
24607188,1783.5,1,185432.0,228652,0.15,-0.84,9.96,-0.03,-0.01,-0.01,31.49,22.188672,10.111942834722557,-55.2154180229425,9.996484382021512,0.033166247903554,0.6920900273491262,-0.12796595865094818
24647192,1783.5,1,185524.0,228994,0.12,-0.83,9.96,-0.03,-0.01,-0.01,31.49,22.228676,10.540221567335276,30.11355563104296,9.995243868960877,0.033166247903554,0.721556107892248,0.0739682526194717
24687191,1783.5,1,185578.0,229251,0.12,-0.83,9.93,-0.03,-0.01,-0.01,31.49,22.268675,10.764899971784466,174.64646640656105,9.965349968766777,0.033166247903554,0.737014246384001,0.4160107979619706
24727191,1783.5,1,185752.0,229630,0.11,-0.86,9.97,-0.03,-0.01,-0.01,31.49,22.308675,10.761692575364016,310.9214829125659,10.007627091373859,0.033166247903554,0.73679357373775,0.73851072730125
24767191,1783.5,1,185826.0,229632,0.12,-0.84,9.96,-0.03,-0.01,-0.0,31.49,22.348675,10.585787081470276,358.12330776822654,9.99607923137867,0.03162277660168379,0.7246910688586725,0.8502156132805874
24807191,1783.5,1,185738.0,229543,0.11,-0.84,9.93,-0.03,-0.01,-0.0,31.49,22.388675,10.15400590907096,274.4271134299385,9.966072446054163,0.03162277660168379,0.6949840163386802,0.6521454353997056
24847188,1783.5,1,185623.0,228431,0.14,-0.81,9.97,-0.03,-0.01,-0.0,31.49,22.428672,9.485035921220765,90.79483198643862,10.003829266835776,0.03162277660168379,0.648958094335334,0.2175727653070197
24887878,1783.5,1,185124.0,227733,0.12,-0.83,9.95,-0.03,-0.01,-0.01,31.33,22.469362,8.642980472821996,-103.29830688611804,9.985279164850624,0.033166247903554,0.5910236890639672,-0.2417559155952516
24926191,1783.5,1,185185.0,227812,0.12,-0.83,9.95,-0.03,-0.01,-0.01,31.33,22.507675,7.4323699030482135,-217.51958858001288,9.985279164850624,0.033166247903554,0.5077322579492546,-0.5120648557060741
24966192,1783.5,1,185154.0,227819,0.14,-0.83,9.95,-0.03,-0.01,-0.0,31.33,22.547676,6.116223169100937,-220.1140286784734,9.985539544761714,0.03162277660168379,0.41717981460828146,-0.5182046953471255
25006191,1783.5,1,185197.0,227995,0.11,-0.84,9.94,-0.03,-0.01,-0.0,31.33,22.587675,4.441130285201766,-153.29494376594164,9.976036287023017,0.03162277660168379,0.30193145395989845,-0.360074828880683
25046192,1783.5,1,185259.0,228228,0.11,-0.84,9.93,-0.03,-0.01,-0.01,31.33,22.627676,2.4905558855224847,-94.09163577484256,9.966072446054163,0.033166247903554,0.16772964100582213,-0.21996798366933257
25086192,1783.5,1,185299.0,228091,0.13,-0.85,9.96,-0.03,-0.01,-0.0,31.33,22.667676,0.4774813425003587,-93.99056164905886,9.997049564746591,0.03162277660168379,0.029227744677392857,-0.21972878796597461
25126192,1783.5,1,185138.0,227645,0.12,-0.86,9.97,-0.03,-0.01,-0.0,31.33,22.707676,-2.1741367216318435,-145.5903857927422,10.007742003069424,0.03162277660168379,-0.15320669695520003,-0.34184170394220453
25166191,1783.5,1,184944.0,227370,0.14,-0.82,9.96,-0.03,-0.01,-0.0,31.33,22.747675,-4.609559918140229,-199.07824531322515,9.994678584126655,0.03162277660168379,-0.32076667740792025,-0.46842272633455884
25206191,1783.5,1,184914.0,227739,0.11,-0.87,9.909999999999997,-0.03,-0.01,-0.0,31.33,22.787675,-7.678727318228021,-207.2086055474064,9.948723536213071,0.03162277660168379,-0.5319290044737601,-0.4876635282676908
25246188,1783.5,1,185206.0,228110,0.14,-0.82,9.96,-0.03,-0.01,-0.0,31.33,22.827672,-10.946274756490393,-154.52947339524985,9.994678584126655,0.03162277660168379,-0.7567401114996491,-0.36299638947503887
25286192,1783.5,1,185289.0,228331,0.14,-0.8,9.95,-0.03,-0.01,-0.01,31.33,22.867676,-13.949345487895883,-49.376320784346376,9.983090703785075,0.033166247903554,-0.9633549100175657,-0.11414751639253572
25326191,1783.5,1,185228.0,228196,0.13,-0.86,9.98,-0.03,-0.01,-0.0,31.33,22.907675,-18.286344122260097,97.86458494918237,10.017829106148698,0.03162277660168379,-1.2617455172185676,0.23430360041816828
25366191,1783.5,1,185242.0,228425,0.13,-0.83,9.96,-0.03,-0.01,-0.0,31.33,22.947675,-21.330023084376872,273.82335830792647,9.995368927658449,0.03162277660168379,-1.4711542097726245,0.6507166262960316
25406188,1783.5,1,185440.0,229074,0.12,-0.83,9.94,-0.03,-0.01,-0.0,31.33,22.987672,-25.930472965426205,439.79497798862906,9.975314531381954,0.03162277660168379,-1.7876705726156403,1.0434946790287842
25446191,1783.5,1,185658.0,229557,0.11,-0.85,9.94,-0.03,-0.01,-0.01,31.33,23.027675,-30.293628756794686,528.8396107377308,9.97688328086482,0.033166247903554,-2.087860822984457,1.2542221366795563
25486191,1783.5,1,185732.0,229519,0.1,-0.84,9.96,-0.03,-0.01,-0.01,31.33,23.067675,-33.43232877390978,487.83575452716144,9.995859142665028,0.033166247903554,-2.303807075885702,1.1571849755799362
25526196,1783.5,1,185439.0,227915,0.11,-0.81,9.98,-0.03,-0.01,-0.0,31.33,23.10768,-40.45712414745018,331.7876664527196,10.013420993846209,0.03162277660168379,-2.787121260115505,0.7878913319771149
25566236,1783.5,1,184847.0,227024,0.15,-0.86,9.93,-0.03,-0.01,-0.0,31.33,23.14772,-41.52161792174488,149.04145697917116,9.968299754722468,0.03162277660168379,-2.8603596838393908,0.35541558438002285
25606191,1783.5,1,184909.0,227409,0.12,-0.85,9.95,-0.03,-0.01,-0.01,31.33,23.187675,-50.22989155225867,39.73268444838843,9.986961499875726,0.033166247903554,-3.4594991522479184,0.09673228115116259
25646191,1783.5,1,185077.0,227753,0.11,-0.86,9.99,-0.03,-0.01,-0.01,31.33,23.227675,-51.468157735254806,40.11717070669926,10.027552044242903,0.033166247903554,-3.544693322080727,0.09764218227842976
25686191,1845.0,1,185106.0,227592,0.13,-0.87,9.97,-0.03,-0.01,-0.0,31.33,23.267675,2.969665175471587,100.96741862103218,10.008731188317528,0.03162277660168379,0.20069292368034186,0.24164657248729296
25726189,1899.5,1,184925.0,227214,0.11,-0.85,9.93,-0.03,-0.01,-0.0,31.33,23.307673,53.13954086048583,133.5017638869233,9.966920286628161,0.03162277660168379,3.652439380373602,0.3186403187979916
25766239,1899.5,1,184851.0,226968,0.12,-0.82,9.92,-0.03,-0.01,-0.0,31.33,23.347723,49.5283346556874,76.79666099883131,9.954556745531164,0.03162277660168379,3.4039841460002593,0.18444556950746105
25806188,1899.5,1,184775.0,226597,0.12,-0.85,9.98,-0.03,-0.01,-0.0,31.33,23.387672,42.462485151949295,-65.54468374567023,10.016850802522718,0.03162277660168379,2.9178453893251857,-0.15241055276009322
25846191,1899.5,1,184527.0,226053,0.12,-0.8,9.99,-0.03,-0.01,-0.0,31.33,23.427675,40.414382592150574,-235.57593683254973,10.022699237231455,0.03162277660168379,2.776933524242743,-0.5547958799603397
25886188,1899.5,1,184366.0,225657,0.14,-0.85,9.94,-0.03,-0.01,-0.0,31.33,23.467672,33.586660918335426,-360.1870912735215,9.977259142670395,0.03162277660168379,2.3071782423511666,-0.8496928429728419
25926878,1899.5,1,184329.0,225574,0.11,-0.84,9.909999999999997,-0.03,-0.01,-0.0,31.27,23.508362,30.54472100842794,-390.8573267397048,9.946144981851004,0.03162277660168379,2.0978891986345736,-0.9222751036414899
25967188,1899.5,1,184373.0,225789,0.16,-0.82,9.93,-0.03,-0.01,-0.01,31.27,23.548672,25.70490327796626,-322.8958221170502,9.965084043800132,0.033166247903554,1.7649040462086856,-0.7614416581534725
26007192,1899.5,1,184489.0,226123,0.16,-0.83,9.99,-0.03,-0.01,-0.01,31.27,23.588676,21.373937223358872,-188.62362585145036,10.025696983252585,0.033166247903554,1.4669284875904445,-0.44368147790812507
26047189,1899.5,1,184642.0,226608,0.11,-0.84,9.96,-0.03,-0.01,-0.01,31.27,23.628673,17.96534010890721,-34.813651669055865,9.995964185610111,0.033166247903554,1.2324129969407878,-0.07968441463634882
26087171,1899.5,1,184746.0,226612,0.14,-0.85,9.990000000000002,-0.03,-0.01,-0.0,31.27,23.668655,13.592496769147433,97.93663100120597,10.02707335168144,0.03162277660168379,0.9315562318482025,0.2344741000980253
26127189,1899.5,1,184724.0,226652,0.14,-0.85,9.93,-0.03,-0.01,-0.0,31.27,23.708673,10.505126817944719,182.4436708071719,9.967296524133312,0.03162277660168379,0.7191415478559037,0.4344631741400363
26167192,1899.5,1,184783.0,226768,0.14,-0.84,9.94,-0.03,-0.01,-0.0,31.27,23.748676,6.992081953532752,201.884644015216,9.976412180739125,0.03162277660168379,0.47743992915804156,0.4804709651983832
26207191,1899.5,1,184786.0,226687,0.12,-0.84,9.94,-0.03,-0.01,-0.01,31.27,23.788675,3.9122203771119257,148.65003725249193,9.976151562601682,0.033166247903554,0.26554183018205063,0.35448927494024013
26247192,1899.5,1,184631.0,225750,0.13,-0.85,9.97,-0.03,-0.01,-0.01,31.27,23.828676,1.2594866560955797,31.210622337625225,10.007012541213287,0.033166247903554,0.08303063004359845,0.07656450205993805
26287191,1899.5,1,184376.0,225285,0.14,-0.81,9.98,-0.03,-0.01,-0.01,31.27,23.868675,-1.4828540583909278,-119.05914691764025,10.013795484230743,0.033166247903554,-0.10564563664091167,-0.27905453368985755
26327191,1899.5,1,184333.0,225163,0.13,-0.85,9.95,-0.03,-0.01,-0.01,31.27,23.908675,-3.6052447741108073,-253.9010442504399,9.987086662285453,0.033166247903554,-0.25166861422809816,-0.5981629328430218
26367191,1899.5,1,184224.0,225035,0.11,-0.85,9.95,-0.03,-0.01,-0.0,31.27,23.948675,-5.701230452712388,-329.1127051575319,9.986846349073364,0.03162277660168379,-0.3958748942040692,-0.776154144658125
26407192,1899.5,1,184161.0,224850,0.11,-0.85,9.97,-0.03,-0.01,-0.01,31.27,23.988676,-7.432316565716,-328.02519794733354,10.006772706522318,0.033166247903554,-0.5149756548738019,-0.7735805181238038
26447191,1899.5,1,184208.0,225279,0.13,-0.83,9.94,-0.03,-0.01,-0.01,31.27,24.028675,-8.857858825107458,-270.3668353948439,9.975439839926858,0.033166247903554,-0.6130546390358209,-0.6371298441429492
26487191,1899.5,1,184432.0,225708,0.11,-0.82,9.94,-0.03,-0.01,-0.01,31.27,24.068675,-10.123655870947267,-198.03261575795008,9.97437216069262,0.033166247903554,-0.7001429646139415,-0.4659482048387099
26527190,1899.5,1,184421.0,225477,0.11,-0.83,9.96,-0.03,-0.01,-0.0,31.27,24.108674,-10.996402985180868,-146.62277433902273,9.995128813577143,0.03162277660168379,-0.7601889925941332,-0.34428489009446217
26567191,1899.5,1,184319.0,225442,0.15,-0.86,9.96,-0.03,-0.01,-0.0,31.27,24.148675,-11.705695216392321,-124.46296154590158,9.998184835258849,0.03162277660168379,-0.808989132367561,-0.2918428633518837
26607191,1899.5,1,184375.0,225773,0.11,-0.85,9.94,-0.03,-0.01,-0.01,31.27,24.188675,-12.110480508102249,-114.63724490993881,9.97688328086482,0.033166247903554,-0.8368388365436994,-0.26858993701181505
