timestamp_us,ecg,leads,ir,red,accX,accY,accZ,gyroX,gyroY,gyroZ,temp,time_sec,ecg_filtered,ppg_filtered,accel_magnitude,gyro_magnitude,ecg_norm,ppg_norm
1949968,1762,1,195397.0,243075,0.69,-1.18,9.46,-0.04,-0.04,-0.05,27.620000000000005,0.030474,-7.430081915545398,-86.0104221210962,9.558247747364577,0.0754983443527075,-0.17710596213629667,-0.14530672647548226
1990205,1762,1,195670.0,244177,0.52,-1.04,9.69,-0.03,-0.0,-0.04,27.620000000000005,0.070711,-18.442522794413385,82.63510319947073,9.75951330753742,0.05,-0.4377866099839399,0.1344463747346495
2030195,1762,1,195542.0,243242,0.55,-1.06,8.72,-0.04,-0.04,-0.04,27.620000000000005,0.110701,-29.529238013928726,162.6856889542064,8.801391935370225,0.06928203230275509,-0.7002254405497816,0.2672361393963972
2070200,1762,1,195891.0,244152,0.45,-1.08,10.2,-0.07,0.01,-0.05,27.620000000000005,0.150706,-40.19974592080148,122.9261411986818,10.266883655715594,0.08660254037844388,-0.9528120328069672,0.20128208122510774
2109176,1762,1,195372.0,242946,0.6,-0.55,9.22,-0.03,-0.03,-0.05,27.620000000000005,0.189682,-51.17777029028374,7.536525248418067,9.255857604781959,0.06557438524302,-1.2126779913353205,0.009871115246779307
2149199,1762,1,195388.0,243903,0.45,-0.82,9.68,-0.06,-0.02,-0.05,27.620000000000005,0.229705,-61.35857930409996,-99.59625501367806,9.725086117870628,0.0806225774829855,-1.453672691649893,-0.16784322056269824
2189195,1762,1,195459.0,243124,0.55,-0.7,8.88,-0.06,-0.01,-0.05,27.620000000000005,0.269701,-71.84699156821958,-133.87872035120606,8.924511191096128,0.07874007874011811,-1.7019488126277993,-0.2247117676354541
2229199,1762,1,195403.0,244358,0.76,-0.48,10.33,-0.04,-0.03,-0.05,27.620000000000005,0.309705,-81.98216434245192,-86.66583375282663,10.36903563500483,0.07071067811865477,-1.9418632361326336,-0.14639393846167195
2269196,1762,1,195794.0,244070,0.6,-0.85,9.21,-0.07,0.0,-0.05,27.620000000000005,0.349702,-90.88052481755524,3.4659437956604067,9.268581336968458,0.08602325267042628,-2.152500496204829,0.003118740507083067
2309179,1762,1,195375.0,244290,0.62,-0.28,9.17,-0.03,-0.04,-0.05,27.620000000000005,0.389685,-101.95477214437093,88.0533417011015,9.195199834696362,0.07071067811865477,-2.414644193440832,0.14343427418259583
2349196,1762,1,195923.0,244581,0.75,-1.21,9.53,-0.09,0.02,-0.05,27.620000000000005,0.429702,-108.07483712642868,139.1904126708024,9.635740760315214,0.10488088481701516,-2.559515119145768,0.2282616312285867
2389179,1793,1,195499.0,244397,0.36,-0.83,8.65,-0.03,-0.02,-0.04,27.620000000000005,0.469685,-89.46220060372167,153.00250082124936,8.697183452129776,0.053851648071345036,-2.1189266791930517,0.2511734427749084
2429196,1839,1,195825.0,244598,0.64,-1.09,9.94,-0.06,0.02,-0.05,27.620000000000005,0.509702,-47.01195833937616,134.38815968328765,10.020044910078996,0.0806225774829855,-1.1140671047826498,0.2202955428102951
2469179,1883,1,195417.0,244705,0.4,-0.74,8.66,-0.04,-0.02,-0.04,27.620000000000005,0.549685,-15.006026439784454,85.50197748731776,8.700758587617518,0.06,-0.3564396946266227,0.13920201216576597
2509201,1906,1,195722.0,244509,0.61,-1.12,9.44,-0.06,0.01,-0.05,27.620000000000005,0.589707,4.329224470759543,11.755671819384927,9.525759812214456,0.07874007874011811,0.10125408907661913,0.01686993324354787
2549179,1948,1,195448.0,244161,0.62,-0.69,9.34,-0.04,-0.04,-0.04,27.620000000000005,0.629685,38.73759400165936,-63.06301984582503,9.385952269215947,0.06928203230275509,0.9157507260490841,-0.10724104439455576
2589195,1985,1,195505.0,242820,0.77,-0.85,10.16,-0.05,0.0,-0.05,27.620000000000005,0.669701,67.7284136555713,-96.34408044698463,10.22452932902048,0.07071067811865477,1.6020060015273758,-0.16244843811009646
2629179,1988,1,195147.0,243512,0.48,-1.15,9.7,-0.04,-0.04,-0.04,27.620000000000005,0.709685,71.70017044105813,-53.97104385312196,9.779718809863605,0.06928203230275509,1.6960233173361496,-0.09215906415670501
2669196,2009,1,195616.0,243388,0.76,-0.67,9.52,-0.05,0.01,-0.05,27.620000000000005,0.749702,77.51884737548755,54.07991252794562,9.573761016444895,0.07141428428542851,1.8337599453523645,0.08707836345287276
2709183,2002,1,195559.0,245156,0.5,-0.57,10.01,-0.04,-0.03,-0.04,27.620000000000005,0.789689,81.185810583104,168.58443208872353,10.038675211401154,0.06403124237432849,1.9205623495704192,0.2770211110521017
2749195,2010,1,195920.0,244229,0.83,-0.64,9.48,-0.06,0.02,-0.05,27.620000000000005,0.829701,68.31503636421635,221.35287182148883,9.537761791950983,0.0806225774829855,1.6158922225217764,0.36455462036520486
2789179,1986,1,195403.0,244692,0.49,-0.87,9.99,-0.02,-0.05,-0.04,27.620000000000005,0.869685,60.286163181074244,188.92075687891634,10.03977589391317,0.0670820393249937,1.4258370035299268,0.3107554773595314
2829196,1994,1,195607.0,243580,0.35,-1.45,9.11,-0.06,0.02,-0.05,27.620000000000005,0.909702,49.414951471577204,110.43059466174813,9.231310849494777,0.0806225774829855,1.168499457522426,0.18055417938260088
2869178,1971,1,195136.0,243684,0.41,-0.43,9.73,-0.01,-0.03,-0.04,27.620000000000005,0.949684,36.99899063082269,55.05008013830129,9.748122896229818,0.05099019513592785,0.8745954310472746,0.08868769994238068
2909196,1974,1,195540.0,244467,0.64,-1.16,10.62,-0.05,0.02,-0.04,27.620000000000005,0.989702,35.59452062120426,72.63914854321547,10.702317506035783,0.0670820393249937,0.8413495633947662,0.11786485376439083
2949178,1983,1,195656.0,244584,0.01,-0.63,9.87,-0.01,-0.0,-0.04,27.620000000000005,1.029684,37.51878781669252,170.80332124911544,9.890091000592461,0.04123105625617661,0.8868997937814206,0.2807018557542292
2989882,1977,1,195533.0,245071,0.58,-1.56,10.42,-0.01,-0.02,-0.03,27.620000000000005,1.070388,50.51501415752744,326.0758139914783,10.55208036360603,0.03741657386773942,1.194539556788412,0.5382714609645387
3028199,1990,1,195820.0,244929,0.17,-0.86,9.48,-0.03,0.0,-0.04,27.620000000000005,1.108705,35.6179343881887,502.4710063921166,9.520446418104564,0.05,0.8419038016434155,0.830879889316467
3068176,1933,1,195594.0,245550,0.51,-1.19,9.87,-0.01,-0.02,-0.04,27.620000000000005,1.148682,16.126119259264065,656.427857540639,9.954551722704542,0.045825756949558406,0.38050391296979036,1.0862670777964287
3108199,1999,1,196337.0,245635,0.4,-0.68,10.46,-0.03,0.03,-0.04,27.620000000000005,1.188705,45.67563645121065,737.2472928587927,10.489709242872275,0.05830951894845301,1.0799843796448159,1.2203322279113118
3148176,1968,1,195671.0,245170,0.62,-0.49,9.96,0.01,-0.09,-0.03,27.620000000000005,1.228682,52.62381843528711,700.9234834929197,9.991301216558332,0.09539392014169455,1.2444580509131025,1.1600774521112844
3188179,1981,1,196075.0,244610,0.55,-1.04,10.18,-0.05,0.0,-0.04,27.620000000000005,1.268685,39.924991032720946,532.3353430688172,10.247755851892647,0.06403124237432849,0.943858157518112,0.8804195422957541
3228176,1963,1,195113.0,241880,0.61,-0.43,10.01,0.02,-0.07,-0.03,27.620000000000005,1.308682,43.17362217127143,252.29246416649187,10.03778361990335,0.07874007874011811,1.0207580273226724,0.4158779323371015
3268179,1956,1,195039.0,242710,0.37,-0.6,10.03,-0.02,0.01,0.034999999999999996,27.620000000000005,1.348685,32.067655730275895,-99.3823463009378,10.054740175658443,0.04153311931459037,0.7578634920731446,-0.16748838383844358
3308166,1961,1,194824.0,241578,1.15,0.4975000000000004,9.0,-0.01,-0.04,0.034999999999999996,27.620000000000005,1.388672,37.757238391876996,-484.75146216933643,9.086803962340115,0.054083269131959835,0.8925442690710007,-0.8067475937692481
3348170,1936,1,194315.0,240138,0.81,0.32,8.79,-0.06,-0.04,0.034999999999999996,27.620000000000005,1.428676,26.282652281659917,-869.4764517364157,8.833040246710075,0.08015609770940699,0.6209239649171013,-1.4449383120811818
3388166,1854,1,193909.0,239085,0.66,-0.08,9.27,-0.06,0.01,0.034999999999999996,27.620000000000005,1.468672,-65.90505128725705,-1209.1914135511993,9.293809767797057,0.070178344238091,-1.5612943601816,-2.008465354465016
3428170,1777,1,193618.0,238511,0.53,-0.58,8.89,-0.03,-0.02,0.034999999999999996,27.620000000000005,1.508676,-126.34448369447954,-1444.562793581715,8.924651253690534,0.050249378105604446,-2.991984483176218,-2.3989048480387902
3468176,1803,1,193700.0,238952,0.78,-0.8,10.17,-0.05,-0.03,0.034999999999999996,27.620000000000005,1.548682,-104.97456514821393,-1517.37959280424,10.231192501365616,0.06800735254367722,-2.486127128538186,-2.5196950401531413
3508179,1809,1,193763.0,238832,0.23,-1.16,8.46,-0.01,-0.01,-0.01,27.620000000000005,1.588685,-95.70148319520042,-1395.7039365998382,8.54225380095909,0.017320508075688773,-2.266619660789189,-2.3178566450919234
3548199,1792,1,193959.0,240081,0.57,-0.89,9.46,-0.0,-0.01,-0.02,27.620000000000005,1.628705,-99.83638668291815,-1088.5951383663862,9.518854973157225,0.022360679774997897,-2.3644988986277435,-1.8084174616246154
3588199,1802,1,194659.0,240887,0.28,-1.52,10.0,-0.0,0.01,-0.07,27.620000000000005,1.668705,-104.69405557018939,-642.3378509261682,10.118735098815463,0.07071067811865477,-2.4794870548859205,-1.068155543250448
3628176,1795,1,194968.0,242684,0.71,-0.84,10.54,0.049999999999999996,-0.05,-0.05,27.620000000000005,1.708682,-86.55955765919802,-125.11031535131897,10.597230770347505,0.08660254037844387,-2.0502168580397058,-0.21016653445051123
3668178,1856,1,195793.0,243350,0.37,-1.41,10.15,0.0,-0.02,-0.08499999999999999,27.620000000000005,1.748684,-43.93709961697632,385.88660387196126,10.25414550316115,0.08732124598286489,-1.04128068326067,0.6374869837190704
3708179,1846,1,195670.0,244253,0.59,-0.17,10.14,0.049999999999999996,-0.09,-0.03,27.620000000000005,1.788685,-38.053085583508704,807.2544170494969,10.15857273439532,0.10723805294763607,-0.9019974301598704,1.3364616660444912
3748179,1853,1,196565.0,244895,0.59,-1.35,10.36,-0.04,0.02,-0.02,27.620000000000005,1.828685,-30.345951657132336,1051.6648140792215,10.46423432459346,0.048989794855663564,-0.7195582518636537,1.7418952902518128
3788179,1872,1,195937.0,244394,0.62,-0.38,9.35,0.049999999999999996,-0.11,-0.01,27.620000000000005,1.868685,-22.41108770511107,1048.8496543380622,9.37823544170224,0.1212435565298214,-0.5317283694290486,1.737225438107831
3828179,1843,1,196496.0,244960,0.83,-0.72,10.5,-0.03,0.02,-0.02,27.620000000000005,1.908685,-24.310314426447118,788.704465291603,10.557333943756824,0.0412310562561766,-0.5766858550195028,1.3056905766740206
3868176,1891,1,195512.0,242080,0.58,-0.43,7.9,0.01,-0.06,-0.01,27.620000000000005,1.948682,-8.941890767445662,357.08156141117473,7.932925059522496,0.06164414002968976,-0.21289269781733977,0.5897045125056951
3908179,1859,1,195342.0,241417,1.04,-1.04,10.35,-0.07,-0.02,-0.02,27.620000000000005,1.988685,-4.3545243823539215,-78.67566699113092,10.453980103290803,0.07549834435270751,-0.10430299873664504,-0.13313966488090778
3948196,1905,1,194778.0,240867,0.64,-0.68,9.33,-0.01,-0.05,-0.01,27.620000000000005,2.028702,11.443553842116575,-345.6620977988916,9.376614527642692,0.05196152422706632,0.2696607129964477,-0.5760229365095002
3988199,1892,1,195078.0,241684,0.95,-0.79,10.16,-0.01,-0.04,-0.01,27.620000000000005,2.068705,19.850046827984926,-358.4055484683159,10.234852221698171,0.042426406871192854,0.4686547472698098,-0.59716206746547
4028882,1894,1,195384.0,242992,0.74,-0.62,10.07,-0.02,-0.02,-0.01,27.620000000000005,2.109388,13.452430235067583,-160.8937821033222,10.116170223953333,0.030000000000000002,0.31721376733930434,-0.269524977414795
4067199,1917,1,195583.0,243033,0.87,-0.57,9.8,-0.02,-0.04,-0.01,27.620000000000005,2.147705,33.10834272069513,112.89706032774436,9.85503932006362,0.0458257569495584,0.7824980814301398,0.18464560972312832
4107196,1921,1,195777.0,244064,0.83,-0.85,11.05,-0.04,-0.02,-0.01,27.620000000000005,2.187702,49.25476004855232,326.65205284538536,11.11368075841663,0.0458257569495584,1.1647074912914068,0.5392273393141827
4148228,1935,1,195966.0,243835,0.77,-0.51,10.41,-0.01,-0.01,-0.01,27.620000000000005,2.228734,45.988304354871836,413.74330897382333,10.45088991426089,0.017320508075688773,1.0873856880907906,0.6836963309693389
4188199,1917,1,195962.0,244541,0.61,-0.6,10.5,-0.03,-0.01,-0.01,27.620000000000005,2.268705,44.45314037598257,392.32095606198214,10.534804222196064,0.033166247903554,1.0510461022559054,0.6481604360743285
4228199,1947,1,195851.0,244013,0.97,-0.14,9.79,-0.03,-0.0,-0.01,27.620000000000005,2.308705,60.56611478009092,327.84690168882264,9.838932868965006,0.03162277660168379,1.43246386899966,0.5412093822340499
4268195,1941,1,195976.0,244864,0.87,-0.11,10.83,-0.05,-0.01,-0.01,27.620000000000005,2.348701,61.803841420141914,278.8978300271718,10.865445227877228,0.05196152422706632,1.4617626762246707,0.4600115290880832
4308199,1923,1,195871.0,244360,0.69,-0.41,9.35,-0.08,0.02,-0.02,27.620000000000005,2.388705,40.470695226399926,263.7488807093462,9.384385968192058,0.08485281374238571,0.9567757771726599,0.4348821012916377
4348217,1904,1,196171.0,244059,0.45,-0.52,10.64,-0.08,0.06,-0.02,27.620000000000005,2.428723,20.081206785538747,263.0254339311616,10.6621995854514,0.1019803902718557,0.47412664293348566,0.43368203102963154
4388179,1883,1,195667.0,243878,0.66,-0.49,10.76,-0.04,-0.07,-0.01,27.620000000000005,2.468685,-0.4572883695575332,246.4647391999413,10.791353019895142,0.08124038404635961,-0.012049699054425956,0.4062107672623493
4428199,1894,1,196329.0,244087,0.15,-0.69,10.88,-0.1,0.1,-0.02,27.620000000000005,2.508705,10.885091484862205,199.15140871535988,10.90288952525889,0.14282856857085702,0.2564410888741563,0.32772631944505914
4468179,1904,1,195679.0,243501,0.57,-0.4,10.47,-0.0,-0.05,-0.01,27.620000000000005,2.548685,15.148526122418774,129.27308857878162,10.49313108657278,0.050990195135927854,0.35736284778293814,0.21181054445842135
4508195,1874,1,196098.0,244289,0.43,-0.89,10.65,-0.07,0.03,-0.01,27.620000000000005,2.588701,-5.84323556615771,55.62906610303894,10.695770191996461,0.07681145747868609,-0.13954297869392182,0.08964813526306063
4548179,1904,1,195632.0,243611,0.38,-0.59,9.6,-0.02,-0.05,-0.01,27.620000000000005,2.628685,10.00234144972369,-11.81870542033556,9.62561686334959,0.05477225575051661,0.23554509918589273,-0.02223578942163017
4588195,1901,1,195958.0,243813,0.58,-0.84,10.76,-0.06,0.03,-0.02,27.620000000000005,2.668701,22.961770720829577,-79.02130529510136,10.808311616529197,0.06999999999999999,0.5423138215143126,-0.13371301770037297
4628179,1917,1,195802.0,242864,0.33,0.08,10.03,-0.04,0.0,-0.01,27.620000000000005,2.708685,20.359992797648868,-153.42149549220701,10.035746110778211,0.04123105625617661,0.4807259172494262,-0.25712977541570886
4668166,1901,1,195751.0,243927,0.87,-1.33,10.88,-0.07,-0.01,-0.02,27.620000000000005,2.748672,23.272784677595308,-221.38345199325093,10.995462700587003,0.07348469228349536,0.5496759786083795,-0.3698666420437169
4708199,1900,1,195865.0,242617,0.88,-0.53,9.79,-0.03,-0.03,-0.01,27.620000000000005,2.788705,2.1559356339962634,-244.3722414548691,9.843749285714258,0.04358898943540673,0.04980915074195458,-0.40800097814738684
4748196,1869,1,195570.0,244102,0.83,-0.56,10.37,-0.02,-0.03,-0.01,27.620000000000005,2.828702,-8.877500643255111,-187.003060427265,10.418224416857221,0.03741657386773942,-0.21136848901807234,-0.3128356526763977
4788199,1911,1,196263.0,243928,0.46,-0.55,9.54,-0.07,0.09,-0.03,27.620000000000005,2.868705,13.509049826562615,-58.03054854048464,9.56690650105874,0.11789826122551596,0.31855403621830614,-0.09889306450155896
4828176,1911,1,195916.0,245629,0.78,-0.53,11.75,0.02,-0.07,-0.02,27.620000000000005,2.908682,31.067800359803865,73.6778120577738,11.787781809992921,0.07549834435270751,0.7341954471232963,0.11958781284533405
4868179,1907,1,196396.0,244151,0.56,-0.45,9.52,-0.04,-0.02,-0.08499999999999999,27.620000000000005,2.948685,13.579435901104917,111.0842554732066,9.547067612623259,0.09604686356149272,0.32022017796771146,0.18163848706759544
4908196,1873,1,196016.0,244831,0.88,-0.43,10.51,0.01,-0.09,-0.01,27.620000000000005,2.988702,-12.771382932393347,-6.543171149266587,10.555538830396106,0.09110433579144298,-0.303542401136215,-0.013484611054658743
4946179,1872,1,196209.0,243001,0.64,-0.68,9.12,-0.05,0.03,-0.02,27.620000000000005,3.026685,-13.243314766451828,-252.65100900496833,9.167682367970652,0.061644140029689765,-0.31471372070065085,-0.4217339893964889
4986176,1859,1,195395.0,242862,0.67,-0.93,9.68,-0.02,0.01,0.034999999999999996,27.620000000000005,3.066682,-34.75635460696334,-519.3461528783865,9.747625351848521,0.04153311931459037,-0.8239589665532827,-0.8641340675156811
5026171,1808,1,195630.0,242349,0.62,-1.16,8.48,-0.05,0.05,-0.01,27.620000000000005,3.106677,-68.77274356526604,-683.889935000619,8.581398487426162,0.07141428428542851,-1.6291768477319815,-1.1370831021612213
5066863,1829,1,195318.0,243783,0.87,0.16,9.66,0.049999999999999996,-0.03,-0.01,27.59,3.147369,-69.93387066374629,-688.6342344536025,9.700417516787615,0.059160797830996155,-1.656662431318279,-1.1449530559149235
5107170,1802,1,195867.0,244070,0.87,-0.84,9.26,0.01,-0.04,-0.08499999999999999,27.59,3.187676,-70.90691968442403,-571.1085691549259,9.338634803867212,0.09447221813845591,-1.6796959306022143,-0.9499987618321554
5147179,1840,1,196017.0,245140,0.63,-0.4,9.95,0.01,-0.0,-0.02,27.59,3.227685,-58.06621081949677,-421.6944608224116,9.977945680349237,0.022360679774997897,-1.3757374946340841,-0.7021471802908458
5187179,1863,1,196009.0,243836,0.58,-0.78,9.51,-0.0,0.01,-0.03,27.59,3.267685,-11.566749075560894,-309.7390927147518,9.55954496825032,0.03162277660168379,-0.275026948688168,-0.5164330241298335
5227176,1910,1,195761.0,244606,0.95,-0.24,10.01,0.02,-0.02,-0.01,27.59,3.307682,17.232683461710668,-241.79142064049114,10.057842711038983,0.030000000000000002,0.4066979126790031,-0.40371985283962963
5267179,1888,1,196304.0,244734,0.79,-0.4,9.73,-0.04,0.07,-0.02,27.59,3.347685,9.60972080964389,-176.2324994642564,9.770209823744832,0.08306623862918075,0.22625119205484448,-0.2949691968339017
5307176,1891,1,196447.0,245393,0.74,0.3,10.68,0.01,0.01,-0.01,27.59,3.387682,3.65923281559531,-65.44489717974302,10.709808588392232,0.017320508075688773,0.08539440268721257,-0.11119215765178023
5347148,1881,1,196448.0,244523,0.63,-0.64,10.03,-0.05,0.07,-0.02,27.59,3.427654,0.7857864169869295,112.93997429885928,10.07012413031736,0.08831760866327848,0.017375706652069087,0.18471679641178682
5387212,1865,1,196696.0,246380,0.47,-0.3,10.55,-0.02,0.0,-0.02,27.59,3.467718,-20.0495251338808,346.29857472612343,10.564724322006704,0.0282842712474619,-0.47582671531144344,0.571817444587844
5427179,1854,1,197125.0,246257,0.82,-0.31,11.51,-0.07,0.01,-0.05,27.59,3.507685,-24.367440424735847,590.4095373542311,11.543335739724457,0.08660254037844388,-0.5780381112909916,0.9767543600784524
5467176,1891,1,197063.0,247393,0.49,-0.05,11.12,-0.02,-0.07,-0.01,27.59,3.547682,5.2657147844949375,782.2059860619908,11.13090292833425,0.07348469228349536,0.12342219007918995,1.294910748901075
5507199,1910,1,197529.0,246745,0.81,-0.31,10.44,-0.11,0.01,-0.03,27.59,3.587705,35.3256582406744,863.0367153268579,10.47596296289749,0.11445523142259596,0.8349851960116118,1.428994633676199
5547179,1918,1,197245.0,247643,0.73,-0.0,10.7,-0.08,-0.04,0.034999999999999996,27.59,3.627685,31.468456809024037,805.304751156472,10.724872959620546,0.09604686356149274,0.7436795736576298,1.3332275151302553
5587179,1874,1,197185.0,245804,1.28,-0.62,9.14,-0.11,-0.03,-0.02,27.59,3.667685,1.8409060676259354,626.2879408910869,9.249994594593016,0.11575836902790225,0.04235193827145087,1.0362702863790474
5627199,1879,1,196757.0,246623,0.81,-0.17,9.82,-0.11,0.0,0.03,27.59,3.707705,-6.072801784924023,378.76118369785286,9.85481608149031,0.11401754250991379,-0.14497714822002308,0.6256671717949591
5667170,1879,1,196862.0,245156,1.05,-0.38,8.61,-0.11,0.01,-0.03,27.59,3.747676,7.0192108104567135,125.94750570431748,8.682108038949988,0.11445523142259596,0.16493001609831778,0.20629399060563322
5707179,1899,1,196352.0,245929,0.93,-0.33,8.9,-0.1,-0.03,-0.0,27.59,3.787685,17.526966724109247,-80.67190517379626,8.95454074757606,0.1044030650891055,0.41366402966765253,-0.13645107098725526
5747199,1891,1,196530.0,244876,1.15,-0.52,8.47,-0.11,0.02,-0.03,27.59,3.827705,17.888479175657913,-209.50057530122206,8.56351563319645,0.11575836902790225,0.4222215602924511,-0.35015505112202605
5787233,1884,1,196264.0,245539,0.84,-0.85,9.05,-0.09,-0.01,-0.02,27.59,3.867739,6.950876993492177,-247.01051245277176,9.128559579692736,0.09273618495495703,0.163312454299607,-0.4123774031494323
5827199,1887,1,196504.0,245191,1.02,-0.53,9.35,-0.09,0.02,-0.02,27.59,3.907705,12.442499859274884,-196.5492835832836,9.42039277312788,0.09433981132056603,0.2933072322179356,-0.32867114862367425
5867176,1899,1,196634.0,246097,0.71,-0.55,10.31,-0.06,0.0,-0.01,27.59,3.947682,26.745511049280832,-82.42001694030246,10.349043434057082,0.0608276253029822,0.6318805116747703,-0.1393508792508451
5907179,1904,1,196562.0,245705,0.79,-0.71,8.65,-0.05,-0.0,-0.01,27.59,3.987685,27.710454545788163,46.724122520506455,8.714969879466022,0.050990195135927854,0.6547221412982801,0.07487640871662903
5947195,1894,1,196875.0,247044,0.47,-0.86,10.16,-0.07,0.05,0.0,27.59,4.027701,26.6911518612749,127.09819943785376,10.207159252211165,0.08602325267042628,0.6305937498658556,0.20820278800709374
5987205,1893,1,196904.0,245817,0.68,-0.38,9.67,-0.03,0.03,-0.01,27.59,4.067711,15.528653159836132,107.30997554470274,9.701324651819462,0.04358898943540673,0.36636101299157153,0.17537762415512217
6027176,1866,1,196797.0,246112,0.12,-0.99,10.5,-0.05,0.02,-0.01,27.59,4.107682,1.9484602169459706,-18.561598432066177,10.547250826637242,0.05477225575051661,0.04489790293376749,-0.03342105643404653
6067865,1878,1,196450.0,244570,0.38,-1.03,9.26,-0.04,0.0,-0.01,27.55,4.148371,2.2817397784388374,-199.220529837307,9.324853886254733,0.04123105625617661,0.052787119589727385,-0.3331022737438844
6106176,1873,1,196476.0,245674,0.28,-0.87,10.57,-0.04,0.0,-0.01,27.55,4.186682,8.145824082052739,-351.88070114124787,10.609439193472952,0.04123105625617661,0.19159860671722098,-0.5863384996820956
6146179,1873,1,196435.0,244201,0.32,-0.9,9.36,-0.05,0.01,-0.01,27.55,4.226685,3.1071278188853078,-411.0719152528072,9.408613075262474,0.05196152422706632,0.07232526662506476,-0.6845262558091906
6186176,1866,1,196384.0,245505,0.21,-0.88,11.04,-0.03,0.02,-0.01,27.55,4.266682,-2.971684664793814,-365.87693696764967,11.077007718693707,0.03741657386773942,-0.07156915186217483,-0.6095557796559435
6226179,1879,1,196747.0,245556,0.39,-1.3,10.68,-0.03,0.0,-0.01,27.55,4.306685,15.683617608015462,-260.01066432795454,10.765895225200735,0.03162277660168379,0.3700292490519583,-0.4339423560076364
6266176,1873,1,196681.0,246268,0.13,-1.37,10.54,-0.01,-0.05,-0.0,27.55,4.346682,1.911987628983087,-157.11057418611435,10.62945906431743,0.050990195135927854,0.044034543215116094,-0.26324930454799433
6306199,1838,1,196840.0,245609,0.57,-1.14,10.26,-0.04,-0.04,-0.01,27.55,4.386705,-24.349351210057264,-97.15983315605926,10.338863573913722,0.05744562646538029,-0.5776099130147568,-0.16380162758696165
6346199,1867,1,196903.0,246381,0.04,-1.09,10.57,-0.01,-0.02,-0.01,27.55,4.426705,0.9892556081429296,-73.58251866481024,10.626128175398602,0.024494897427831782,0.022192121210022592,-0.12469103254095655
6386199,1855,1,196945.0,246165,0.67,-0.69,10.45,0.0,-0.04,-0.01,27.55,4.466705,-14.230422929686341,-44.49399587478501,10.494165045395464,0.04123105625617661,-0.33808002053536296,-0.07643831759543443
6426176,1808,1,197006.0,246759,0.22,-1.39,10.17,-0.01,-0.01,-0.01,27.55,4.506682,-47.928173522622906,31.51794209817502,10.266908005821422,0.017320508075688773,-1.13575526367165,0.04965204463924296
6466199,1858,1,197143.0,247194,0.55,-0.86,9.77,-0.01,-0.01,-0.01,27.55,4.546705,-19.840311571588654,160.35003884657405,9.823186855598339,0.017320508075688773,-0.4708743230528404,0.2633617089322037
6506196,1847,1,197551.0,247767,0.16,-1.35,11.12,-0.02,0.01,-0.02,27.55,4.586702,-2.3256357266478376,302.3496141912566,11.202789831109035,0.03,-0.05627622474550395,0.498913891521611
6546179,1863,1,197322.0,247929,0.7,-0.77,10.72,0.03,-0.09,-0.03,27.55,4.626685,-16.985782953775022,393.85964480450986,10.77038996508483,0.09949874371066199,-0.4033034386706864,0.6507128485780166
6586176,1840,1,197649.0,248143,0.38,-1.33,10.83,-0.01,-0.04,-0.01,27.55,4.666682,-12.007102835651935,385.0302038160948,10.917976002904568,0.042426406871192854,-0.2854507688680297,0.6360663674824417
6626199,1885,1,197349.0,247513,0.25,-1.21,9.57,0.0,-0.05,-0.01,27.55,4.706705,11.370529079974302,269.22424505751155,9.649430034981341,0.050990195135927854,0.2679321096365244,0.4439647624161653
6666176,1878,1,197276.0,247422,0.44,-1.0,10.06,-0.03,-0.03,-0.01,27.55,4.746682,15.933531253405755,86.82620870929088,10.11915016194542,0.04358898943540673,0.3759450720473235,0.1413986775700931
6706199,1870,1,197332.0,246956,0.4,-1.31,10.3,-0.03,0.01,-0.02,27.55,4.786705,6.032062016543051,-98.16725324268772,10.390673702893379,0.03741657386773942,0.1415627544757623,-0.1654727593464316
6746176,1854,1,196702.0,246486,0.45,-0.74,9.3,0.02,-0.07,-0.08499999999999999,27.55,4.826682,-18.263537855098637,-235.02976398241816,9.340240896251018,0.11191514642799695,-0.43354977362324965,-0.39250346025631944
6786179,1808,1,197005.0,247579,0.16,-1.75,10.09,-0.01,-0.0,-0.08499999999999999,27.55,4.866685,-50.48156836965091,-312.3125016649488,10.241884592202744,0.08558621384311844,-1.1961978694713657,-0.5207018544657175
6826199,1825,1,197047.0,246971,0.5,-0.52,8.87,0.02,-0.06,-0.08499999999999999,27.55,4.906705,-51.551802910654345,-351.9936148792491,8.899286488252864,0.10594810050208545,-1.2215318927425427,-0.5865258036044205
6866179,1827,1,197114.0,247103,0.55,-1.19,10.44,-0.04,-0.0,-0.02,27.55,4.946685,-33.155789637927626,-375.77374289828634,10.521986504458177,0.044721359549995794,-0.7860712432374538,-0.6259728304250504
6906196,1878,1,196763.0,245994,1.07,-0.55,9.61,-0.03,-0.05,-0.02,27.55,4.986702,2.617931289408999,-376.48323493676304,9.685014197201777,0.061644140029689765,0.06074526636613837,-0.6271497522418046
6946199,1889,1,197034.0,247475,0.47,-0.72,10.06,0.0,0.0,-0.01,27.55,5.026705,23.631872129791393,-324.83656498618274,10.096677671392705,0.01,0.5581761059372862,-0.5414770606101285
6986166,1882,1,197214.0,247096,0.95,-0.57,9.05,-0.04,0.02,-0.02,27.55,5.066672,8.253617099684833,-204.1962579902412,9.117559980608847,0.048989794855663564,0.19415022574327245,-0.3413561267821787
7026180,1891,1,197393.0,248294,0.59,-0.54,10.36,-0.04,0.05,-0.02,27.55,5.106686,21.61777000106418,-36.70441731654698,10.390827685993065,0.0670820393249937,0.5104993507543881,-0.06351678436978365
7066176,1904,1,197545.0,248403,0.64,-0.76,10.13,-0.04,0.04,-0.04,27.55,5.146682,29.796275044754438,124.61062471754005,10.178609924739233,0.06928203230275509,0.7040965756262595,0.20407634147863182
7106865,1883,1,197621.0,249127,0.53,-0.55,9.7,-0.02,0.01,-0.02,27.41,5.187371,10.980972652704613,229.39339362330975,9.730025693696804,0.03,0.2587107369226203,0.3778924240521478
7145176,1898,1,197815.0,249004,0.6,-0.68,10.66,-0.05,0.0,-0.08499999999999999,27.41,5.225682,23.175396755097864,260.6679585836961,10.698504568396464,0.09861541461658009,0.5473706634644965,0.4297713963523918
7185178,1906,1,197556.0,248712,0.49,-0.3,9.88,-0.04,-0.01,-0.02,27.41,5.265684,30.438936564295105,239.97351577291775,9.89669136631026,0.045825756949558406,0.7193093175699722,0.39544297558269514
7225195,1887,1,197738.0,248936,0.4,-0.37,10.41,-0.08,0.06,-0.02,27.41,5.305701,13.019852787385812,205.38277559472064,10.424250572583142,0.1019803902718557,0.30697402389402056,0.33806305506828815
7265179,1888,1,197489.0,248643,0.8,-0.08,9.76,-0.06,-0.0,-0.02,27.41,5.345685,8.098795588032669,181.23266212970438,9.79305876628952,0.06324555320336758,0.19048537320039222,0.29800228782544136
7305195,1872,1,197740.0,249758,0.57,-0.56,9.78,-0.08,0.01,-0.02,27.41,5.385701,-1.1187350917704206,163.83355894056444,9.812588853100896,0.08306623862918075,-0.027707114332271243,0.2691402527006743
7345179,1858,1,197529.0,248336,0.65,0.16,8.3,-0.07,-0.01,-0.08499999999999999,27.41,5.425685,-24.517623265150867,133.05241190629062,8.326950222020065,0.1105667219374799,-0.5815931596735996,0.21807977347790897
7385176,1857,1,197463.0,249758,0.53,-0.36,9.91,-0.1,0.04,-0.02,27.41,5.465682,-17.77556444345685,77.1595724097776,9.93068980484236,0.10954451150103323,-0.4219987263596678,0.1253634375130628
7425213,1882,1,197622.0,247926,0.83,-0.41,9.42,-0.11,0.05,-0.03,27.41,5.505719,0.6154872452891486,7.67409598315034,9.465379020409062,0.12449899597988733,0.013344475166297155,0.010099320766042
7465176,1870,1,196989.0,248990,0.85,-0.43,9.61,-0.04,-0.03,-0.01,27.41,5.545682,-9.501311770955265,-48.57187503695619,9.65709583674098,0.05099019513592785,-0.22613501450430595,-0.08320279794443328
7505199,1875,1,197508.0,248564,0.7,-0.69,9.47,-0.11,0.01,-0.08499999999999999,27.41,5.585705,-2.800312289338351,-71.25248760869304,9.520871808820871,0.13937359864766352,-0.06751251606741251,-0.12082592308948621
7545176,1899,1,197269.0,248930,0.61,-0.68,9.49,-0.06,-0.01,-0.01,27.41,5.625682,15.085582059185368,-61.22903258447992,9.53386595248748,0.06164414002968976,0.35587286937012924,-0.10419878387228027
7585199,1893,1,197330.0,248368,0.92,-0.61,9.97,-0.08,-0.01,-0.01,27.41,5.665705,16.54562689683908,-36.54440899493323,10.03092219090548,0.08124038404635961,0.3904342748162669,-0.06325135886201647
7625237,1903,1,197108.0,248745,0.74,-0.53,9.52,-0.06,-0.01,-0.01,27.41,5.705743,19.65670286923088,-17.263584191218794,9.563414662138205,0.06164414002968976,0.46407801183215147,-0.031267880364881734
7665199,1906,1,197386.0,248291,0.51,-0.81,9.5,-0.06,0.0,-0.01,27.41,5.745705,25.714601410782443,-13.451620579750546,9.548099287292734,0.0608276253029822,0.6074773665962049,-0.024944506886804853
7705176,1919,1,197170.0,248580,0.54,-0.56,9.69,-0.03,-0.01,-0.01,27.41,5.785682,41.075103341228065,-22.901510372955467,9.721177912166816,0.033166247903554,0.971083004850051,-0.040620202821920456
7745199,1911,1,197217.0,247627,0.49,-0.38,9.17,-0.06,-0.01,-0.01,27.41,5.825705,25.26241800545586,-37.10499335727287,9.190941192282757,0.06164414002968976,0.5967735213412731,-0.06418126917867811
7785196,1859,1,196764.0,248920,0.79,-0.67,10.16,-0.06,-0.01,-0.01,27.41,5.865702,-14.94588383715253,-49.61699367929854,10.212668603259385,0.06164414002968976,-0.35501603090031675,-0.08493646494076797
7825199,1865,1,197420.0,248099,0.5,-1.09,9.68,-0.08,0.04,-0.02,27.41,5.905705,-20.654327389789003,-58.280439154816854,9.753999179823628,0.0916515138991168,-0.49014327288701276,-0.09930758883708378
7865176,1859,1,196854.0,248707,0.36,-0.59,10.28,0.0,-0.06,-0.0,27.41,5.945682,-18.476454329733,-58.53067399044559,10.303208238213958,0.06,-0.4385898192548796,-0.09972268417486331
7905179,1869,1,197168.0,247876,0.4,-1.93,9.45,-0.09,0.01,-0.01,27.41,5.985685,-7.929138603866437,-38.78276075783847,9.653362108612729,0.09110433579144298,-0.18891936683514676,-0.06696438857971358
7945176,1898,1,196637.0,248287,0.29,-1.31,9.94,0.0,-0.07,0.0,27.41,6.025682,9.844771494875712,10.03123069385215,10.030144565259267,0.07,0.23181518695636008,0.014009390387132978
7985170,1869,1,197210.0,247969,0.42,-1.92,9.87,-0.07,0.04,-0.01,27.41,6.065676,5.8427015880828685,79.53108846210328,10.063781595404382,0.08124038404635961,0.1370803150501459,0.12929736323653893
8025182,1904,1,196860.0,249182,0.42,-1.1,10.42,0.01,-0.05,-0.0,27.41,6.105688,3.401270584015853,147.14213208307228,10.486314891323834,0.050990195135927854,0.0792880578370535,0.2414521274561437
8065179,1846,1,197538.0,248899,0.45,-2.0825000000000005,10.86,-0.04,0.02,-0.01,27.41,6.145685,-4.372142899074694,201.9246905845932,11.067018851072767,0.0458257569495584,-0.10472005490097812,0.33232670360570093
8105179,1898,1,196675.0,247663,0.52,-0.41,9.69,0.03,-0.13,-0.01,27.41,6.185685,-11.317654233695963,263.63967883516983,9.712600063834605,0.13379088160259653,-0.26913050797469634,0.4347009546949478
8145865,1851,1,197311.0,247837,0.34,-2.0825000000000005,11.29,-0.07,0.08,-0.01,27.25,6.226371,7.647222143436696,364.834269804597,11.485491119233865,0.10677078252031312,0.1797959666117077,0.6025648846484785
8184179,1907,1,196920.0,248286,0.48,-0.47,10.16,0.049999999999999996,-0.09,-0.01,27.25,6.264685,-3.514931604467611,507.22155924414955,10.182185423571896,0.103440804327886,-0.0844286047058365,0.8387602163532661
8224178,1808,1,197775.0,249002,0.34,-1.09,12.12,-0.03,0.04,-0.01,27.25,6.304684,-36.98469386303722,639.0809964067122,12.173664197767243,0.05099019513592785,-0.8767070291569464,1.0574917030021487
8264179,1863,1,196990.0,248575,0.11,-0.88,8.85,0.02,-0.07,-0.0,27.25,6.344685,-39.88247316590938,683.6293773936907,8.89432403277506,0.07280109889280519,-0.9453017207699339,1.1313895885897354
8304179,1799,1,197725.0,248431,0.27,-0.91,11.69,-0.03,0.05,-0.01,27.25,6.384685,-55.52965359184125,595.8048829766327,11.728473899020281,0.05916079783099616,-1.315693460011686,0.9857042842884088
8344176,1828,1,196710.0,248030,0.08,-1.38,9.16,0.02,-0.07,0.0,27.25,6.424682,-61.679730978732174,394.5846079410581,9.26371415793903,0.07280109889280519,-1.4612748234135358,0.651915434210377
8384171,1834,1,196754.0,246974,0.44,-1.01,9.22,-0.04,-0.02,-0.01,27.25,6.464677,-32.82975585042572,141.42741697589724,9.28558560350396,0.0458257569495584,-0.7783535446925919,0.23197242575207697
8424196,1855,1,196394.0,247817,0.28,-1.19,9.38,-0.03,-0.02,-0.0,27.25,6.504702,-21.79837882951432,-111.98539485430048,9.459328728826375,0.03605551275463989,-0.5172246505542389,-0.18839461251426068
8464199,1874,1,196419.0,246231,0.65,-0.52,8.87,-0.05,0.0,-0.01,27.25,6.544705,-2.923555848300737,-355.3803956266684,8.908973004785679,0.050990195135927854,-0.07042987209653896,-0.5921438739054756
8504176,1886,1,195999.0,246083,0.44,-1.27,9.94,-0.04,0.0,-0.0,27.25,6.584682,18.686838484157185,-604.0942183432521,10.030458613642747,0.04,0.44111989754973857,-1.0047161202579016
8544179,1902,1,195539.0,245197,0.74,-0.69,8.75,-0.02,-0.03,-0.01,27.25,6.624685,18.257923811896834,-857.69082950353,8.808302901240397,0.03741657386773942,0.4309668573776236,-1.425388049107565
8584196,1891,1,195632.0,245494,0.22,-0.84,9.66,-0.03,0.05,0.02,27.25,6.664702,29.760314177001785,-1075.8588825774445,9.698948396604655,0.061644140029689765,0.7032453290764674,-1.7872902657029373
8624170,1914,1,195412.0,244854,0.97,-0.53,9.37,-0.02,0.03,-0.01,27.25,6.704676,26.801964248181015,-1194.2591907418123,9.434972178019391,0.03741657386773942,0.6332168417966973,-1.9836954376175562
8664176,1872,1,195449.0,245626,0.56,-0.38,9.89,-0.02,0.07,-0.01,27.25,6.744682,12.441615170995227,-1169.736293276874,9.913127659825632,0.07348469228349536,0.2932862903471532,-1.9430162876464308
8704179,1908,1,195491.0,245138,0.7,-0.66,9.14,-0.03,0.02,-0.01,27.25,6.784685,22.422113293442745,-1022.2159727820741,9.190495090037317,0.03741657386773942,0.5295393376978371,-1.698306165207743
8744176,1902,1,195637.0,245815,0.24,-0.5,9.4,-0.01,0.04,-0.0,27.25,6.824682,38.081612450120524,-835.6844179603546,9.416347487216049,0.04123105625617661,0.9002226793869327,-1.388883304235102
8784179,1932,1,196101.0,246120,0.62,-0.67,10.77,-0.05,0.04,-0.01,27.25,6.864685,53.50149901428998,-701.0444157261581,10.808616932799495,0.06480740698407861,1.2652340391299202,-1.1655393518808441
8824176,1936,1,196248.0,246431,0.1,-0.09,10.44,-0.02,0.02,-0.01,27.25,6.904682,63.30073654557084,-632.487353385666,10.440866822251877,0.030000000000000002,1.4971963820986862,-1.0518153099108432
8864179,1929,1,196386.0,246535,0.56,-0.6,11.16,-0.06,0.0,-0.01,27.25,6.944685,59.202262333788696,-532.6311327126198,11.190138515675308,0.0608276253029822,1.4001794787194914,-0.8861714995855586
8904176,1915,1,196163.0,246002,0.45,-0.08,9.59,-0.05,-0.02,-0.01,27.25,6.984682,34.44306469633544,-261.7064727142285,9.600885375839043,0.05477225575051661,0.8140929106903871,-0.4367554022133778
8944199,1869,1,196583.0,248931,0.72,-0.58,10.16,-0.08,0.02,-0.01,27.25,7.024705,3.7243147175809366,227.92128559360907,10.201980199941579,0.08306623862918075,0.08693498688279501,0.3754504571761083
8984176,1881,1,198036.0,251522,0.62,-0.96,10.69,-0.08,0.02,-0.08499999999999999,27.25,7.064682,-1.6833405752039885,814.2473379238891,10.750911589256047,0.1184271928232701,-0.04107215527267025,1.3480616850631382
9024247,1865,1,198410.25,253451,0.66,0.11,10.66,-0.04,-0.03,-0.08499999999999999,27.25,7.104753,-2.725231920687947,1274.486105186298,10.68097841960183,0.09861541461658009,-0.06573525348269488,2.111516405809797
9064223,1871,1,198410.25,252052,0.32,-0.15,10.14,-0.07,-0.03,-0.08499999999999999,27.25,7.144729,-7.998565568927793,1451.059519305598,10.14615690791346,0.11412712210513326,-0.19056280505464443,2.40442047247412
9104200,1859,1,198154.0,251057,0.44,-0.7,9.96,-0.04,-0.09,0.0,27.25,7.184706,-15.746719132743477,1365.6083909835293,9.994258351673725,0.09848857801796104,-0.37397297840815813,2.262672162789864
9144176,1834,1,198061.0,251126,0.73,-0.89,9.87,-0.05,-0.05,-0.0,27.25,7.224682,-39.7117288860755,1181.9748491321457,9.936895893587694,0.07071067811865477,-0.9412599529209199,1.958056592815651
9184885,1833,1,198215.0,251861,0.33,-0.64,9.84,-0.04,0.0,-0.0,27.31,7.265391,-48.48587412381339,1061.0644884256933,9.866311367476703,0.04,-1.1489568559092376,1.7574876876414998
9223176,1841,1,198410.25,251450,0.51,-1.3,9.82,-0.05,-0.03,0.0,27.31,7.303682,-30.34171923465029,1036.2961250570056,9.918795289751674,0.05830951894845301,-0.7194580642080086,1.7164013531471878
9263212,1859,1,197754.0,251054,0.57,-0.85,9.16,-0.03,-0.07,0.0,27.31,7.343718,-25.533979737950173,1002.6767217316101,9.216995171963584,0.07615773105863909,-0.6056518099481156,1.6606327086887234
9303176,1841,1,198410.25,251788,0.42,-1.29,10.37,-0.06,-0.01,-0.0,27.31,7.383682,-32.745933567690855,814.3274330009045,10.458365072993006,0.0608276253029822,-0.7763693481636168,1.3481945486309332
9343199,1854,1,197670.0,249910,0.53,-1.15,9.26,-0.03,-0.06,0.0,27.31,7.423705,-29.781026920707763,410.38914470470473,9.346175688483498,0.0670820393249937,-0.7061856537361209,0.6781323656374956
9383176,1855,1,197275.0,248096,0.52,-0.99,9.62,-0.07,-0.02,-0.0,27.31,7.463682,-24.119964615586582,-124.42230239749244,9.684776713998108,0.07280109889280519,-0.5721799954595193,-0.20902524263657277
9423199,1872,1,196656.0,247169,0.53,-1.18,9.49,-0.04,0.0,0.0,27.31,7.503705,-10.653928983325084,-610.7971511438499,9.577755478190076,0.04,-0.2534191565892345,-1.0158351003470913
9463166,1872,1,196390.0,246724,0.61,-1.32,9.14,-0.02,-0.02,0.0,27.31,7.543672,-10.84744050844867,-899.5735289637718,9.25495002687751,0.0282842712474619,-0.25799985856893826,-1.494864040473377
9503179,1867,1,196387.0,247165,0.79,-1.09,9.45,-0.03,-0.0,0.0,27.31,7.583685,-18.640935636430886,-970.7966889884729,9.545402034487598,0.03,-0.44248333333231815,-1.6130106669968007
9543176,1883,1,197018.0,247698,0.38,-1.19,9.55,-0.02,0.06,0.0,27.31,7.623682,1.3024206635190523,-927.1040986375298,9.631355044852205,0.06324555320336758,0.029605197967178584,-1.54053238672612
9583170,1901,1,196589.0,247211,0.52,-0.93,9.4,0.01,-0.01,0.01,27.31,7.663676,7.773502572901678,-893.387697178417,9.4601955582324,0.017320508075688773,0.18278520982540603,-1.484602839518132
9623167,1892,1,196562.0,247692,0.31,-1.44,9.83,-0.01,0.03,0.01,27.31,7.703673,14.026550091760486,-914.5029667101996,9.939748487763662,0.033166247903554,0.3308040274670197,-1.5196293373939318
9663170,1916,1,196521.0,247968,0.18,-0.88,9.87,0.01,0.02,0.0,27.31,7.743676,15.28871431321852,-933.4511742427279,9.910787052499916,0.022360679774997897,0.3606813081315782,-1.551061062662195
9703148,1858,1,196887.0,248867,0.39,-1.04,10.91,-0.01,0.04,0.0,27.31,7.783654,-18.572847738304123,-851.8601822992722,10.966394120220192,0.04123105625617661,-0.4408715927936399,-1.4157160365572599
9743171,1904,1,197109.0,249734,0.4,-0.74,10.48,-0.02,-0.01,0.0,27.31,7.823677,-0.61452063801714,-611.8048809090857,10.513705341124984,0.022360679774997897,-0.015771617751238802,-1.0175067458086036
9783176,1906,1,197749.0,250364,0.31,-1.24,11.37,-0.02,0.04,-0.0,27.31,7.863682,28.233233897186693,-243.36943745814492,11.44161701858614,0.044721359549995794,0.6670970962699292,-0.4063375036647034
9823179,1917,1,197123.0,250297,0.35,-0.26,10.19,-0.01,-0.04,0.0,27.31,7.903685,9.719144401613207,139.38983625865808,10.199323506978294,0.04123105625617661,0.2288414091700268,0.228592439692381
9863176,1897,1,198410.25,252925,0.31,-1.16,12.140000000000002,-0.08,0.08,-0.01,27.31,7.943682,19.370567953783524,390.57316802250335,12.199233582483782,0.11357816691600547,0.4573047781820368,0.6452611648166254
9903179,1936,1,198112.0,251229,0.44,0.33,9.35,0.0,-0.06,-0.04,27.31,7.983685,24.338463371497078,418.33222845936757,9.36616250125952,0.07211102550927978,0.5749021582882017,0.6913085368363157
9943166,1881,1,198410.25,251972,0.4,-1.45,12.11,-0.08,-0.02,-0.0,27.31,8.023672,5.794120861711595,259.10039005655455,12.203056994048662,0.08246211251235322,0.13593033791404394,0.4271710773934769
9983199,1915,1,197453.0,248519,0.65,0.12,8.06,-0.06,-0.05,-0.01,27.31,8.063705,-1.0726221343563327,70.94951153355365,8.087057561313634,0.07874007874011811,-0.02661555291141112,0.11506204478102872
10023188,1859,1,197490.0,250480,0.35,-0.94,11.0,-0.05,0.01,0.034999999999999996,27.31,8.103694,-14.348323469107015,23.085151114637654,11.045637147761102,0.06184658438426491,-0.3408708994454822,0.03566353575341773
10063170,1909,1,197796.0,249263,1.02,0.0,8.6,-0.06,-0.04,-0.08499999999999999,27.31,8.143676,-8.622104962656843,159.53117146747184,8.660277131824362,0.11146748404803976,-0.20532289819872895,0.26200335276859826
10103176,1886,1,198194.0,251635,0.25,-0.79,9.9,-0.05,-0.0,-0.02,27.31,8.183682,12.526842295311825,361.22527074391155,9.934616248250357,0.05385164807134505,0.2953037415394384,0.5965781934654657
10143199,1939,1,198234.0,249437,0.68,0.4975000000000004,8.5,-0.07,-0.06,-0.08499999999999999,27.31,8.223705,22.6668456783013,451.58760178039734,8.541657113815797,0.12539936203984453,0.5353325126475114,0.7464733198969675
10183177,1904,1,197941.0,252377,0.68,-1.3,10.21,-0.06,-0.02,-0.01,27.31,8.263683,29.62885383880722,355.855535574916,10.314867909963754,0.06403124237432849,0.7001334698162203,0.5876707524684504
10223885,1920,1,197949.0,249500,0.74,0.4975000000000004,8.32,-0.08,-0.0,-0.08,27.49,8.304391,6.448700716418079,170.1016938206718,8.36764639848028,0.1131370849898476,0.15142520435372128,0.27953797993464785
10262179,1853,1,197319.0,250642,1.3,-0.97,10.58,-0.08,-0.04,0.034999999999999996,27.49,8.342685,-21.98363569041975,76.07730641469604,10.703611540036382,0.09604686356149274,-0.5216099525095683,0.12356814962811699
10302178,1887,1,197374.0,249482,1.15,0.15,8.64,-0.07,-0.02,0.01,27.49,8.382684,-22.964185557488516,178.34308057992737,8.717488170338976,0.07348469228349536,-0.5448210078428961,0.29320898306260745
10342170,1847,1,198137.0,252608,0.29,-1.72,10.48,-0.05,0.01,0.034999999999999996,27.49,8.422676,-27.489852062634256,412.93821851599427,10.624165849609088,0.06184658438426491,-0.6519501801563318,0.6823608282816497
10382171,1893,1,198354.0,251832,1.09,-0.04,8.88,-0.03,-0.01,-0.01,27.49,8.462677,-14.048856765511664,610.3997796882977,8.946736835293638,0.033166247903554,-0.33378208279159804,1.0099146367965397
10422196,1872,1,198410.25,251894,0.26,-1.02,9.55,-0.05,0.0,0.0,27.49,8.502702,1.0679582907505987,645.7862299534439,9.607835344134495,0.05,0.02405512928563313,1.0686144996222833
10462170,1904,1,197269.0,249063,0.93,-0.4,9.06,-0.03,-0.05,-0.0,27.49,8.542676,-2.58741318411908,525.2553656407938,9.116386345477029,0.05830951894845301,-0.0624728815953455,0.8686751118507576
10502205,1881,1,197564.0,250267,-0.04,-0.9,10.89,-0.05,0.06,-0.0,27.49,8.582711,16.70911898847858,336.3809408796791,10.927200007321181,0.07810249675906655,0.39430437272056834,0.5553658439898705
10542199,1925,1,197195.0,249973,0.82,-0.62,10.05,-0.01,-0.04,0.0,27.49,8.622705,18.938008855239403,141.68636301969724,10.102440299254434,0.04123105625617661,0.44706546908778766,0.2324019714436181
10582176,1882,1,198024.0,250795,0.14,-1.11,11.14,-0.05,-0.0,-0.0,27.49,8.662682,21.91288624709751,-56.4528315812299,11.196039478315535,0.05,0.5174851856889445,-0.09627591108853861
10622199,1937,1,196806.0,247973,0.82,-1.21,9.57,0.01,-0.12,0.01,27.49,8.702705,38.265131875097296,-258.0093020970215,9.680981355213943,0.12083045973594571,0.904566853682331,-0.43062245001141086
10662170,1872,1,196476.0,247538,0.62,-0.56,10.83,-0.06,-0.01,0.034999999999999996,27.49,8.742676,7.595365174570861,-413.02136046834585,10.862177498089414,0.070178344238091,0.17856843600445596,-0.6877600406585043
10702226,1868,1,196592.0,248197,0.16,-2.0825000000000005,9.72,-0.04,0.03,0.034999999999999996,27.49,8.782732,-14.212370997331877,-455.7461269493334,9.9418713655931,0.06103277807866851,-0.33765270478649084,-0.7586328722905056
10742170,1840,1,196514.0,247837,0.72,-0.31,8.71,0.01,-0.05,0.01,27.49,8.822676,-35.23277427364392,-384.8387793661887,8.745204400126966,0.05196152422706632,-0.8352365197064595,-0.6410101227555652
10782171,1817,1,197188.0,249341,0.32,-1.71,10.04,-0.06,0.04,0.01,27.49,8.862677,-46.068487574432446,-285.11421302901635,10.189607450731357,0.07280109889280519,-1.0917337662488842,-0.4755847036901643
10822170,1899,1,196676.0,247654,0.32,-0.43,9.01,-0.01,-0.03,-0.03,27.49,8.902676,14.613427632999597,-254.50934320706588,9.025929315034546,0.04358898943540673,0.3446962807231543,-0.42481663718766777
10862199,1888,1,196902.0,248632,0.05,-1.37,11.36,-0.04,0.03,0.0,27.49,8.942705,39.069653721461734,-309.8823265381544,11.442421072482869,0.05,0.9236110672608399,-0.5166706237116718
10902203,1909,1,196176.0,247589,0.57,-0.31,9.93,-0.02,-0.04,0.0,27.49,8.982709,21.220016253042573,-369.9695263142135,9.951175809923168,0.044721359549995794,0.5010839354201667,-0.6163446615993244
10942179,1866,1,196889.0,249172,0.08,-1.23,11.35,-0.04,0.04,0.0,27.49,9.022685,25.354293166043806,-333.19514143236904,11.416733333138687,0.0565685424949238,0.5989483413150295,-0.5553424607034768
10982167,1915,1,196368.0,248307,0.71,-0.63,9.58,-0.02,-0.04,0.0,27.49,9.062673,27.68846706886088,-173.32613557818004,9.626910200059,0.044721359549995794,0.6542016654298523,-0.2901480531431368
11022179,1869,1,197217.0,250528,0.49,-0.66,11.44,-0.07,0.04,-0.0,27.49,9.102685,32.427085001148306,38.042871259526315,11.4694943218958,0.0806225774829855,0.7663717107520954,0.06047574817122063
11062179,1897,1,197310.0,249958,0.45,-0.57,9.62,-0.05,0.0,-0.0,27.49,9.142685,13.698501273175804,198.47433906294364,9.647372699341515,0.05,0.3230386301772683,0.32660318063281574
11102179,1855,1,197272.0,249583,0.63,-0.54,10.35,-0.06,-0.02,-0.0,27.49,9.182685,16.049842112790316,259.54376626217,10.3832075968845,0.06324555320336758,0.3786983208964742,0.42790656010662875
11142200,1914,1,196742.0,249147,0.74,-0.63,9.74,-0.07,-0.02,-0.0,27.49,9.222706,41.14460514612061,244.25520756152676,9.788365542826853,0.07280109889280519,0.9727282146382583,0.40254554503428586
11182199,1851,1,196991.0,248848,0.41,-0.77,9.65,-0.07,0.03,-0.01,27.49,9.262705,1.2819905943851335,188.54063050232728,9.689349823388564,0.07681145747868609,0.029121588228340236,0.31012491492687616
11222179,1834,1,197214.0,249640,0.34,-0.75,10.75,-0.07,0.05,-0.0,27.49,9.302685,-23.83627025925636,83.17064292584963,10.781493403049506,0.08602325267042628,-0.5654645334277735,0.13533474042944596
11262866,1830,1,197112.0,248333,0.49,-0.69,10.16,-0.05,-0.02,-0.08499999999999999,27.37,9.343372,-32.86171631986488,-113.11451207615582,10.195185138093374,0.10062305898749054,-0.7791100959395459,-0.19026761829869152
11301199,1792,1,196408.0,247256,0.33,-0.48,9.58,-0.04,-0.06,-0.0,27.37,9.381705,-55.73982932116643,-405.55633196506074,9.597692430996108,0.07211102550927978,-1.3206686281769449,-0.6753768785766974
11341199,1835,1,195874.0,247521,0.52,-1.23,8.95,-0.07,-0.03,-0.0,27.37,9.421705,-33.66379867790555,-717.3564517037485,9.049077301029094,0.07615773105863909,-0.7980965632469372,-1.1925981347516494
11381199,1801,1,196514.0,248152,0.58,-0.53,10.29,-0.06,0.04,-0.01,27.37,9.461705,-48.48174388939004,-913.0816931572466,10.319951550273867,0.07280109889280519,-1.1488590871950093,-1.5172716959246384
11421179,1797,1,196193.0,248211,0.83,-1.01,9.54,-0.03,-0.05,-0.0,27.37,9.501685,-68.37194474854016,-872.5341232908718,9.629153649205104,0.05830951894845301,-1.619689351149715,-1.4500104484347265
11461196,1829,1,196355.0,248836,0.51,-0.34,9.07,-0.07,-0.02,-0.01,27.37,9.541702,-30.703945668687837,-566.701674502386,9.09068754275495,0.07348469228349536,-0.728032495846833,-0.9426885029716788
11501199,1835,1,197007.0,250185,0.44,-1.34,9.57,-0.05,0.01,-0.0,27.37,9.581705,-24.460885206113083,-93.70972569618647,9.673370663837916,0.050990195135927854,-0.5802500864938862,-0.15807850946940127
11541179,1855,1,197313.0,251060,0.17,-0.32,9.71,-0.01,-0.01,-0.08,27.37,9.621685,-16.450059457125242,354.7104294243315,9.71675871883212,0.08124038404635961,-0.3906220767719041,0.5857712238789317
11581199,1868,1,198122.0,252395,0.47,-1.08,12.12,-0.03,-0.0,-0.08499999999999999,27.37,9.661705,12.022014394539129,596.3296543746122,12.177097355281347,0.09013878188659973,0.28335372376658297,0.9865747872307911
11621199,1904,1,198030.0,251996,0.13,-0.53,10.4,-0.02,-0.04,-0.04,27.37,9.701705,22.205621554486346,575.1473258914416,10.41430746617364,0.06,0.5244146603092745,0.9514370504141474
11661200,1883,1,197698.0,250451,0.32,-0.53,10.75,-0.02,-0.06,-0.0,27.37,9.741706,26.898315874974763,401.5307413282832,10.767813148453126,0.06324555320336758,0.6354976262994287,0.663437841062274
11701199,1886,1,196785.0,250536,0.9,-0.02,8.28,-0.04,-0.06,0.034999999999999996,27.37,9.781705,-3.309490681897218,273.02028510197033,8.328793430023342,0.08015609770940699,-0.07956551636973162,0.45026172151268795
11741179,1835,1,198342.0,251262,0.61,-1.48,10.29,-0.1,0.07,-0.05,27.37,9.821685,-26.701094723555695,335.95929545454493,10.413769730505855,0.13190905958272922,-0.6332791356161391,0.5546664087984053
11781179,1879,1,198317.0,253247,0.39,-0.87,9.11,0.02,-0.02,-0.08499999999999999,27.37,9.861685,-12.206147319804383,596.489186546755,9.159754363518708,0.08958236433584459,-0.2901624441133359,0.9868394228907938
11821179,1879,1,198410.25,253500,0.64,-0.57,9.75,-0.06,-0.02,-0.08499999999999999,27.37,9.901685,4.784494188019459,927.7529810137074,9.787594188563398,0.10594810050208545,0.11203099186739515,1.5363474732503364
11861199,1921,1,198410.25,252618,0.27,-1.16,8.86,0.0,-0.13,-0.04,27.37,9.941705,32.735122563976674,1134.4760953180112,8.939692388443799,0.13601470508735444,0.7736634122307019,1.8792645604871172
11901179,1911,1,198410.25,252127,0.37,-1.75,9.9,-0.05,-0.02,-0.08499999999999999,27.37,9.981685,22.50888196613314,1030.8754725705724,10.060288266247642,0.10062305898749054,0.5315932796039604,1.707409449325372
11941199,1887,1,198410.25,250986,0.37,-1.14,9.76,0.0,-0.1,-0.03,27.37,10.021705,-1.6934773681007118,530.3407742468507,9.833315819193443,0.1044030650891055,-0.04131210804685367,0.8771109053635763
11981179,1907,1,198072.0,248925,0.23,-1.97,9.18,-0.01,-0.05,-0.0,27.37,10.061685,12.825366458365068,-267.1379630140021,9.391815585923736,0.050990195135927854,0.30237024687452935,-0.4457652840508362
12021210,1913,1,196490.0,246493,0.78,0.28,7.659999999999998,0.01,-0.13,0.034999999999999996,27.37,10.101716,12.207059764336414,-1064.792467497634,7.704699864368499,0.135,0.28773401941679866,-1.7689330402030563
12061148,1861,1,196107.0,246449,0.28,-2.0825000000000005,8.41,-0.04,0.04,0.034999999999999996,27.37,10.141654,-26.14277902740737,-1503.3058117276762,8.668523879531048,0.06652067347825036,-0.620062983177606,-2.4963491263233064
12101170,1847,1,196130.0,247071,0.35,-0.27,8.11,0.03,0.03,-0.0,27.37,10.181676,-74.35515069126379,-1383.7645393716,8.122037921605637,0.042426406871192854,-1.7613206224102054,-2.2980512965964306
12142170,1840,1,197431.0,248732,-0.17,-2.0825000000000005,9.84,0.01,0.11,-0.08499999999999999,27.37,10.222676,-37.00501624783496,-808.33375096621,10.059388960071084,0.13937359864766352,-0.8771880898494082,-1.343513384711691
12180179,1962,1,198172.0,251465,0.31,-0.66,8.96,0.049999999999999996,0.04,-0.08499999999999999,27.37,10.260685,26.434963116697524,-110.32196180962083,8.989621794046734,0.1064189832689638,0.624529386057478,-0.18563527127458065
12220170,1909,1,198410.25,252294,0.17,-1.27,10.0,0.04,0.0,-0.08499999999999999,27.37,10.300676,30.2237519624848,375.46173393368764,10.08175579946271,0.09394147114027968,0.714215582037245,0.6201939681504643
12260167,1982,1,198410.25,255916,-0.1,-0.98,10.69,0.03,0.04,-0.02,27.37,10.340673,49.81521574989197,516.1094404453452,10.73529226430282,0.05385164807134504,1.1779743007955086,0.8535036394265759
12300866,1927,1,198410.25,255530,0.32,-1.09,10.62,0.01,0.03,-0.08499999999999999,27.41,10.381372,31.809629685739118,411.2032381651369,10.68058518996033,0.09069178573608527,0.7517556366765737,0.6794828027143043
12341183,1931,1,198410.25,257775,-0.265,-1.29,11.05,0.02,0.04,0.01,27.41,10.421689,13.259016577010184,261.00808390635194,11.128199539907614,0.0458257569495584,0.3126353820167792,0.4303356041108379
12381171,1935,1,198410.25,256230,0.4,-1.28,12.140000000000002,-0.03,-0.03,0.01,27.41,10.461677,23.23382770935317,200.90678115125735,12.213844603563615,0.04358898943540673,0.5487538099600984,0.33063817187510525
12421179,1897,1,198410.25,256577,-0.14,0.02,10.93,-0.02,-0.01,0.01,27.41,10.501685,-12.534073476442497,225.10169133984354,10.930914874794333,0.024494897427831782,-0.29792493781467766,0.3707732489599649
12461179,1919,1,198410.25,254432,-0.17,-1.37,11.65,-0.09,0.03,0.01,27.41,10.541685,5.261668798342202,232.02334749158734,11.731508854363108,0.09539392014169455,0.12332641564524938,0.38225505240704616
12501179,1956,1,198410.25,251128,0.12,0.03,10.8,-0.03,-0.05,-0.01,27.41,10.581685,40.93908039349933,134.57682086728076,10.800708310106334,0.05916079783099616,0.9678631419217409,0.2206084983494339
12541184,1923,1,198410.25,250657,0.31,-0.64,12.05,-0.09,-0.05,-0.01,27.41,10.62169,20.479775424478966,-55.69880209544028,12.070965164393442,0.10344080432788601,0.48356134793245314,-0.0950251095232284
12581199,1936,1,197601.0,250185,0.49,0.37,10.14,-0.06,-0.09,0.034999999999999996,27.41,10.661705,10.582877028977599,-232.53702448910653,10.15857273439532,0.11368817000902072,0.2492872288883926,-0.3883684462828544
12621171,1905,1,198254.0,249846,0.11,-0.72,9.64,-0.11,-0.0,-0.0,27.41,10.701677,13.832694573130501,-279.8221243811521,9.667476402867504,0.11,0.3262151826558501,-0.466806064539764
12661196,1936,1,197848.0,251457,0.83,-0.28,8.98,-0.08,-0.07,0.03,27.41,10.741702,8.193971541572017,-167.4378994679086,9.022621570253294,0.11045361017187261,0.1927383277906651,-0.2803805107824678
12701179,1885,1,198410.25,252988,0.5,-0.89,9.12,-0.11,0.02,-0.04,27.41,10.781685,-4.319371790712867,20.153838522246843,9.176954832622856,0.11874342087037917,-0.10347088526940292,0.030801006571105457
12741176,1921,1,198410.25,255115,0.24,-1.13,9.41,-0.06,-0.02,-0.04,27.41,10.821682,2.869959016176739,146.5280503911648,9.480643438079507,0.07483314773547883,0.06671113277232758,0.2404334745308382
12781199,1904,1,198410.25,251478,0.87,-0.23,8.49,-0.09,-0.09,-0.08499999999999999,27.41,10.861705,8.014746378277652,128.44632812576148,8.537558198923156,0.15305227865013968,0.18849580497559804,0.21043909508109196
12821199,1903,1,198371.0,251078,0.42,-0.9,9.77,-0.07,-0.06,-0.01,27.41,10.901705,0.9265428215167157,0.9496701106405574,9.820351317544601,0.09273618495495704,0.02070761745414564,-0.001055312528357308
12861200,1919,1,197830.0,250003,1.18,-0.23,9.32,-0.06,-0.05,-0.02,27.41,10.941706,15.318485620302166,-109.99142624371595,9.39721767333289,0.0806225774829855,0.3613860386906978,-0.1850869712266169
12901199,1905,1,198157.0,253717,0.24,-1.63,9.07,-0.04,0.02,0.0,27.41,10.981705,17.389485737411565,-87.65223644355719,9.218427197738235,0.044721359549995794,0.4104096528157544,-0.14803020607831557
12941170,1921,1,198410.25,251000,0.81,-0.28,8.21,-0.03,-0.02,-0.01,27.41,11.021676,14.319003097461975,79.34812396783337,8.254610832740694,0.03741657386773942,0.33772681959183803,0.12899385749817996
12981199,1904,1,198308.0,252801,0.18,-1.54,9.0,-0.04,0.05,0.02,27.41,11.061705,25.501454893859037,278.1674666529941,9.132579044278785,0.0670820393249937,0.6024318755257663,0.45879998541653827
13021174,1919,1,198410.25,251686,0.75,-0.74,9.44,-0.01,0.01,-0.01,27.41,11.10168,14.943088100085335,345.2330421815962,9.49861568861484,0.017320508075688773,0.3524998280997011,0.5700499145380238
13061179,1871,1,198410.25,252083,0.21,-1.06,10.71,0.0,0.01,-0.01,27.41,11.141685,-3.7166927256632283,182.99114493896704,10.764376433402914,0.01414213562373095,-0.08920458673945326,0.3009192998148246
13101170,1885,1,198150.0,249964,0.05,-0.94,9.31,-0.0,0.0,-0.05,27.41,11.181676,-12.081736952774149,-160.20143706948804,9.357467606142166,0.05,-0.28721746802373543,-0.2683764994462608
13141176,1859,1,197333.0,249915,0.22,-1.1,10.92,0.0,-0.04,-0.01,27.41,11.221682,-16.219951779548527,-509.74837565763954,10.977467831881812,0.04123105625617661,-0.38517509012060497,-0.8482130524924589
13180179,1870,1,197210.0,249222,0.35,-0.7,10.74,-0.0,-0.02,-0.01,27.41,11.260685,-17.62930182014195,-681.085588499735,10.768477143960514,0.022360679774997897,-0.41853647527282756,-1.1324311872705128
13220196,1850,1,197258.0,249577,0.2,-1.2,11.44,-0.02,-0.01,-0.01,27.41,11.300702,-28.105590354718952,-609.7074579577162,11.504503466034507,0.024494897427831782,-0.6665256097682399,-1.0140274920657035
13260199,1846,1,197633.0,250275,-0.01,-1.33,11.23,-0.01,-0.0,-0.01,27.41,11.340705,-32.59125776626383,-388.88091884107257,11.308487962588103,0.01414213562373095,-0.7727079447957473,-0.6477153172839892
13300899,1853,1,197933.0,250531,0.05,-0.87,11.02,-0.0,-0.05,-0.01,27.17,11.381405,-27.648254202151655,-181.41398083951904,11.054401838181928,0.050990195135927854,-0.6556997914190887,-0.3035643580801722
13341199,1845,1,197907.0,250200,0.23,-1.39,11.14,-0.04,-0.04,-0.01,27.17,11.421705,-27.619518765930504,-83.66341861135491,11.228739911494968,0.05744562646538029,-0.6550195814445054,-0.14141346272506175
13381199,1857,1,197485.0,249284,0.27,-1.0,10.68,-0.01,-0.08,-0.01,27.17,11.461705,-24.663981312817967,-63.316729426969985,10.730111835391092,0.08124038404635961,-0.5850576695949912,-0.10766190372063102
13421199,1844,1,197803.0,250080,0.12,-1.39,11.31,-0.02,-0.01,-0.01,27.17,11.501705,-25.450745290163866,-20.478722866925875,11.395727269463762,0.024494897427831782,-0.6036815283356339,-0.03660122682420817
13461199,1868,1,197471.0,249930,0.13,-1.03,10.23,0.01,-0.08,-0.0,27.17,11.541705,-15.179468750589749,97.23684310572351,10.282543459669888,0.0806225774829855,-0.36054532883090495,0.1586680788923689
13499179,1853,1,198323.0,252193,0.31,-1.52,11.27,-0.03,-0.04,-0.01,27.17,11.579685,-13.370297096425848,242.79792480342175,11.376264764851422,0.05099019513592785,-0.3177195789301693,0.40012817066194484
13539199,1855,1,198095.0,250632,0.14,-0.95,10.18,-0.01,-0.09,-0.01,27.17,11.619705,-32.374748512872166,328.1327392456852,10.225189484796847,0.09110433579144298,-0.7675828528147813,0.5416835361899442
13579199,1847,1,198155.0,250967,-0.05,-1.57,11.51,-0.03,-0.03,-0.01,27.17,11.659705,-16.13831815841601,325.1482124563729,11.616690578645882,0.04358898943540673,-0.38324270242590147,0.5367327340659759
13619213,1871,1,197155.0,249647,0.32,-0.94,8.94,-0.03,-0.09,-0.01,27.17,11.699719,-20.676361996304223,301.84990695102493,8.994976375733291,0.09539392014169455,-0.4906648643819989,0.49808496558428633
13659199,1822,1,198410.25,253002,-0.06,-1.85,11.68,-0.04,0.06,-0.0,27.17,11.739705,-42.394142627920694,358.88440941618506,11.825755789800496,0.07211102550927978,-1.0047566254307756,0.5926951185087506
13699200,1876,1,197982.0,249307,0.42,-0.24,7.86,-0.01,-0.09,-0.01,27.17,11.779706,-14.755272561472236,531.6876169519454,7.874871427521849,0.09110433579144298,-0.3505039820840771,0.8793450792195163
13739199,1853,1,198076.0,252798,0.27,-0.83,10.25,-0.05,-0.0,-0.01,27.17,11.819705,-20.332547129340348,746.7926519064116,10.287093855895357,0.050990195135927854,-0.48252626157398937,1.2361662904555726
13779199,1860,1,198410.25,250357,0.42,-0.8,8.33,-0.05,-0.0,-0.08499999999999999,27.17,11.859705,-24.695043406325716,864.5722942507234,8.37886030436121,0.09861541461658009,-0.5857929549643449,1.4315418875407038
13819199,1903,1,198077.0,252527,0.75,-0.71,10.13,-0.02,-0.06,-0.02,27.17,11.899705,17.29840254574761,773.8196261557731,10.182509513867394,0.066332495807108,0.4082535799094696,1.2809992609610947
13859199,1899,1,198276.0,249496,0.54,0.11,8.69,-0.09,-0.0,-0.08499999999999999,27.17,11.939705,19.315751474302402,470.5465561857267,8.707456574683562,0.12379418403139947,0.4560071916123521,0.7779228723266017
13899179,1911,1,197080.0,250195,0.67,-0.57,9.89,-0.03,-0.02,-0.01,27.17,11.979685,16.142094902515858,61.844050456794875,9.929043257031365,0.03741657386773942,0.3808820799064821,0.09995769517359349
13939196,1911,1,197219.0,247560,0.54,-0.58,9.47,-0.06,0.06,-0.02,27.17,12.019702,31.001345812491888,-312.87811041201917,9.503099494375506,0.08717797887081347,0.7326223703970502,-0.521640099348075
13979230,1924,1,195975.0,248651,0.45,-1.44,9.39,-0.01,0.02,0.034999999999999996,27.17,12.059736,25.28551570143704,-580.1055630163106,9.510425857972923,0.04153311931459037,0.5973202777251113,-0.9649231835119277
14019170,1904,1,197316.0,248566,0.66,-0.37,9.96,-0.05,0.11,-0.03,27.17,12.099676,18.867191935973615,-760.82684335946,9.98869861393365,0.12449899597988733,0.44538912861106333,-1.2647078266832221
14059179,1920,1,196396.0,248371,0.35,-0.82,10.15,0.0,-0.05,-0.01,27.17,12.139685,21.67979981814914,-903.9781395128445,10.189082392443394,0.050990195135927854,0.5119676876182533,-1.5021705104101495
14099176,1931,1,196262.0,246887,0.73,-0.19,9.95,-0.08,0.06,-0.03,27.17,12.179682,37.47188149614177,-1000.0558250316241,9.978551999163004,0.1044030650891055,0.8857894522900276,-1.6615463991559656
14139179,1915,1,195935.0,248158,0.17,-1.04,10.13,-0.02,0.02,0.02,27.17,12.219685,20.34836904859284,-973.6383989482522,10.184664942942405,0.034641016151377546,0.4804507660392927,-1.6177245612580144
14179207,1879,1,196270.0,248445,1.0,-0.56,9.73,-0.05,0.01,-0.02,27.17,12.259713,-24.47954292116956,-763.7816182720936,9.797270027921044,0.05477225575051661,-0.580691742008933,-1.2696092757054593
14219179,1905,1,197425.0,250379,-0.04,-0.57,10.61,-0.06,0.07,-0.02,27.17,12.299685,14.851541813016153,-403.4650435923476,10.625375287489849,0.09433981132056604,0.3503327930450989,-0.6719078010148759
14259200,1969,1,197108.0,249165,0.5,-0.91,9.81,-0.06,-0.02,-0.02,27.17,12.339706,58.183535743771166,-17.40093282981108,9.864795993835859,0.066332495807108,1.3760647242898008,-0.03149571746592633
14299199,1916,1,197263.0,250191,0.37,-0.76,11.2,-0.08,-0.0,-0.02,27.17,12.379705,26.551937933998072,253.6150054094126,11.231852028939839,0.08246211251235322,0.627298351765551,0.41807179436505687
14339883,1941,1,197427.0,250676,0.59,-1.09,10.4,-0.06,-0.04,-0.02,27.23,12.420389,29.47080699107246,336.53888998396417,10.473595371218043,0.07483314773547883,0.6963922688317198,0.5556278536202662
14380216,1936,1,197903.0,251259,0.17,-0.59,10.46,-0.06,0.0,-0.01,27.23,12.460722,42.18919062212731,267.29901507922,10.478005535406059,0.0608276253029822,0.9974550868742033,0.44077114636293163
14420179,1941,1,197487.0,250670,0.94,-0.74,10.24,-0.07,-0.08,0.0,27.23,12.500685,33.43603046605695,170.85232369895746,10.30964596870329,0.1063014581273465,0.7902549315864544,0.2807831421523363
14460179,1919,1,197249.0,249874,0.53,-0.74,9.64,-0.07,-0.03,-0.02,27.23,12.540685,20.28307953210256,182.06904089876323,9.682876638685428,0.07874007874011811,0.47890526730349425,0.2993896922880606
14500199,1875,1,197180.0,251295,0.62,-1.44,10.26,-0.07,-0.03,0.0,27.23,12.580705,-28.863061504914892,345.07599370166855,10.379094372824635,0.07615773105863909,-0.6844560642724619,0.5697893988841599
14540178,1872,1,198122.0,251728,0.5,-0.73,9.46,-0.06,-0.01,-0.02,27.23,12.620684,-28.99746809537977,568.0500903252323,9.50128938618333,0.06403124237432849,-0.687637665650646,0.9396639917700367
14580197,1905,1,198410.25,252845,0.17,-1.36,10.07,-0.06,-0.01,-0.01,27.23,12.660703,4.14452368551314,685.543457244589,10.162844090115719,0.06164414002968976,0.0968819502487601,1.134564708553546
14620199,1891,1,197726.0,248751,0.46,-0.71,9.56,-0.05,-0.05,-0.02,27.23,12.700705,-11.594338154645104,584.4463122204992,9.597359011728175,0.07348469228349536,-0.2756800227058449,0.9668624241898204
14660196,1884,1,197223.0,251624,0.63,-1.41,11.41,-0.04,-0.07,-0.01,27.23,12.740702,-12.36478687104547,285.7514703645085,11.514039256490312,0.08124038404635961,-0.2939176752602419,0.47138050632779527
14700199,1894,1,197337.0,249741,0.55,-1.37,8.61,-0.04,-0.07,-0.02,27.23,12.780705,-10.323696387358156,-78.38698876203337,8.735645368259863,0.08306623862918075,-0.24560206608187393,-0.13266079875215409
14740199,1877,1,197451.0,251121,0.03,-0.76,10.14,-0.04,-0.01,-0.02,27.23,12.820705,-15.322883845988205,-355.7218988867658,10.168485629630403,0.045825756949558406,-0.36394017475024526,-0.5927103674184462
14780199,1903,1,196632.0,248143,0.55,-1.02,9.26,-0.05,-0.07,-0.01,27.23,12.860705,0.3770093731677066,-459.20968079184587,9.332229101345508,0.08660254037844388,0.0076993537181323166,-0.7643782955788456
14818199,1887,1,196683.0,250692,0.25,-1.36,9.56,-0.05,0.04,-0.01,27.23,12.898705,-5.684175725635482,-402.93253832263724,9.659487564048105,0.06480740698407861,-0.13577779868251827,-0.6710244689470427
14858178,1881,1,197634.0,249644,0.41,-1.71,9.12,-0.04,0.02,-0.02,27.23,12.938684,-14.725532708855273,-279.6307808557168,9.28798148146302,0.048989794855663564,-0.3497999960983762,-0.46648865947055
14898179,1883,1,196950.0,249855,0.14,-1.19,9.65,-0.01,-0.01,-0.01,27.23,12.978685,-13.450378007212109,-192.80702876076612,9.724104071841271,0.017320508075688773,-0.3196152116907547,-0.3224634096983287
14938199,1882,1,197523.0,249326,0.25,-1.31,10.38,-0.05,0.02,-0.01,27.23,13.018705,-5.884519758418922,-183.4335678931696,10.465323693035014,0.05477225575051661,-0.1405202361523633,-0.3069144958341899
14978179,1906,1,196818.0,250618,0.65,-0.81,10.74,0.0,-0.06,-0.01,27.23,13.058685,7.924120705319023,-203.59422396506156,10.790097311887413,0.0608276253029822,0.18635056220895424,-0.3403574588053208
15018179,1881,1,198044.0,250534,0.48,-1.58,11.03,-0.06,0.01,-0.02,27.23,13.098685,-3.6304629005462985,-159.4991008487336,11.15292338357975,0.06403124237432849,-0.08716340014671481,-0.2672114478655872
15058179,1887,1,196833.0,249888,0.18,-1.85,9.08,0.02,-0.07,-0.0,27.23,13.138685,-7.346832761334278,5.312024132192222,9.268295420410379,0.07280109889280519,-0.17513533240114265,0.006181061302408885
15098179,1887,1,197751.0,251544,0.67,-1.3,10.96,-0.05,0.02,-0.02,27.23,13.178685,0.4455516754414276,249.01678373493039,11.057147009965998,0.057445626465380296,0.009321850670281155,0.4104441578117426
15138179,1877,1,198103.0,252957,0.29,-0.47,10.52,-0.0,-0.05,-0.01,27.23,13.218685,-10.605990467455042,447.1512662264556,10.53448622382696,0.050990195135927854,-0.2522843815188105,0.7391142237877475
15178199,1883,1,198410.25,251442,0.16,-1.59,10.39,-0.03,0.01,-0.02,27.23,13.258705,-6.8782498095724485,483.1851490160264,10.512173895060908,0.03741657386773942,-0.16404328579864674,0.7988880626717814
15218179,1885,1,197566.0,251638,0.33,-1.77,10.7,-0.01,-0.06,-0.01,27.23,13.298685,2.830204568633182,341.37402759624433,10.850428562964689,0.06164414002968976,0.06577008661784917,0.5636484918153323
15258199,1878,1,197521.0,249432,0.64,-2.03,10.46,-0.02,-0.07,-0.02,27.23,13.338705,-13.137007978711626,118.68466895720579,10.674366491740857,0.07549834435270751,-0.3121972829187332,0.19424622888930373
15298199,1862,1,197209.0,250991,0.06,-1.11,10.61,-0.0,-0.03,-0.01,27.23,13.378705,-18.382012572698198,-51.034636080321924,10.668073865511055,0.03162277660168379,-0.4363542441740686,-0.08728808297118662
15338199,1895,1,197902.0,250624,0.66,-1.48,10.58,-0.03,-0.03,-0.02,27.23,13.418705,5.574120036487032,-87.06382555404555,10.703382642884446,0.0469041575982343,0.13072259530026925,-0.14705413647425228
15378885,1895,1,197639.0,250862,0.18,-1.38,10.34,-0.02,-0.03,-0.01,26.97,13.459391,13.048925485641371,1.3412572377416905,10.433235356302474,0.03741657386773942,0.3076622173562421,-0.0004057387374590549
15419199,1886,1,197358.0,249702,0.41,-1.67,9.93,-0.03,-0.04,-0.02,26.97,13.499705,-0.023573464167734877,132.00850231643324,10.077792416992919,0.05385164807134504,-0.0017830303147873814,0.2163481120858235
15459199,1877,1,197187.0,250324,0.34,-0.62,10.42,-0.01,-0.0,-0.02,26.97,13.539705,-7.977436580422091,190.54500856941462,10.443964764398624,0.022360679774997897,-0.1900626508678827,0.313449823661925
15499199,1861,1,197954.0,251504,0.12,-1.35,10.6,-0.03,0.01,-0.01,26.97,13.579705,-21.843347171509695,87.49424906773186,10.686294961304409,0.033166247903554,-0.518289117247221,0.14250683838048017
15539179,1863,1,197667.0,249886,0.42,-1.07,10.89,-0.03,-0.04,-0.02,26.97,13.619685,-24.786564313644995,-172.9816878592835,10.95049770558398,0.05385164807134504,-0.5879593892429955,-0.2895766752937518
15579199,1866,1,196646.0,249089,0.33,-1.37,9.48,-0.03,-0.06,0.02,26.97,13.659705,-14.906569787720956,-462.6141689668659,9.58416402196874,0.06999999999999999,-0.35408540961589263,-0.7700257393706966
15619219,1854,1,196566.0,248870,0.55,-1.23,9.87,-0.05,-0.02,-0.02,26.97,13.699725,-35.55704369915067,-594.4414319873704,9.96154104544071,0.057445626465380296,-0.8429124532118544,-0.9887038548079659
15659199,1830,1,196738.0,249692,-0.06,-1.11,9.54,-0.03,0.02,-0.01,26.97,13.739705,-50.726484606240675,-459.02723609270845,9.604545798735096,0.03741657386773942,-1.201995396461512,-0.7640756520886847
15699199,1873,1,197455.0,250327,0.19,-1.13,9.45,-0.05,0.04,-0.01,26.97,13.779705,-16.544296838562918,-119.99465627620411,9.519217404808023,0.06480740698407861,-0.39285281398219674,-0.20168056075938118
15739179,1887,1,197514.0,250258,0.33,-1.21,9.93,-0.04,0.01,-0.01,26.97,13.819685,4.286563862511918,219.02506361532255,10.008891047463749,0.042426406871192854,0.10024424983045298,0.3606931982286877
15779179,1878,1,197404.0,250632,0.37,-1.55,9.49,-0.04,-0.01,-0.01,26.97,13.859685,-9.38548880023014,351.7306602909118,9.622863399217511,0.042426406871192854,-0.22339331469620965,0.5808283138646881
15819239,1885,1,197267.0,249955,0.32,-0.76,9.77,-0.02,-0.01,-0.02,26.97,13.899745,-1.5908372250622045,205.36303032259758,9.804738650264982,0.03,-0.03888246512965117,0.33803030115382665
15859199,1899,1,197160.0,250702,0.14,-1.64,10.0,-0.04,0.01,-0.01,26.97,13.939705,15.566465610722013,-116.1999340856974,10.13455475094984,0.042426406871192854,0.3672560892332568,-0.19538578774949986
15899179,1911,1,196732.0,248261,0.57,-0.85,9.59,-0.03,0.0,-0.02,26.97,13.979685,19.551942803472066,-404.6093795127376,9.644454365074262,0.03605551275463989,0.4615981872309613,-0.6738060519287186
15939176,1911,1,196205.0,248886,0.22,-1.92,10.24,-0.05,0.01,0.034999999999999996,26.97,14.019682,32.19338181133255,-487.41574443059795,10.420767726036312,0.06184658438426491,0.7608396130459333,-0.8111671668570622
15979171,1934,1,196330.0,248018,0.45,-1.32,8.97,-0.03,0.0,-0.02,26.97,14.059677,38.72797285784793,-344.90264665561654,9.077764041877273,0.03605551275463989,0.9155229794460026,-0.5747631413732526
16019201,1904,1,196769.0,250484,0.47,-1.42,11.6,-0.04,0.02,-0.0,26.97,14.099707,27.977695366683367,-113.95423739500066,11.696037790636623,0.044721359549995794,0.6610481239835518,-0.19166057409556175
16059179,1908,1,197238.0,249478,0.38,-0.93,9.97,-0.03,0.0,-0.01,26.97,14.139685,12.950991261723424,34.69840930050064,10.020489010023413,0.03162277660168379,0.3053439704554686,0.05492787725594861
16097176,1892,1,196842.0,249517,0.18,-1.44,10.73,-0.04,-0.01,-0.01,26.97,14.177682,14.530275091419933,46.10666121758582,10.8276913513454,0.042426406871192854,0.34272793795086665,0.07385214961434361
16137199,1920,1,196340.0,248377,0.51,-1.54,10.47,-0.05,-0.06,-0.02,26.97,14.217705,30.25818361036946,18.23033738066249,10.594932751084361,0.0806225774829855,0.7150306297070362,0.027610258352220887
16177199,1901,1,196221.0,248773,0.43,-1.26,10.27,-0.05,-0.03,-0.01,26.97,14.257705,19.110467167983675,88.79152322150352,10.355935496129742,0.05916079783099616,0.45114781061292186,0.14465878677607222
16217199,1891,1,196717.0,249448,0.06,-1.41,10.11,-0.05,0.04,-0.01,26.97,14.297705,8.011416088521676,288.22532031434747,10.208026253884734,0.06480740698407861,0.18841697212639982,0.4754841858892925
16257179,1901,1,197344.0,251109,0.42,-1.28,10.45,-0.05,-0.01,-0.01,26.97,14.337685,17.096134360277635,511.63567102285344,10.536474742531299,0.05196152422706632,0.40346559491983297,0.8460824471496855
16297200,1904,1,197300.0,248708,0.12,-0.82,9.69,-0.06,0.0,-0.02,26.97,14.377706,23.452651200718947,631.7911312458455,9.725374028797042,0.06324555320336758,0.5539336833524701,1.0453991059274284
16337177,1903,1,196375.0,249321,0.4,-1.24,11.05,-0.06,-0.04,-0.02,26.97,14.417683,23.63478843062561,622.5099105115727,11.126549330318003,0.07483314773547883,0.5582451390607457,1.0300032021316226
16377199,1885,1,196498.0,248582,0.32,-1.24,9.32,-0.06,0.0,-0.02,26.97,14.457705,1.392891464861066,561.6085983248693,9.407571418809427,0.06324555320336758,0.03174677469522144,0.9289786957321106
16417865,1857,1,196680.0,250732,0.45,-1.59,10.92,-0.03,-0.04,-0.01,26.99,14.498371,-14.105512130926051,526.4296106781499,11.044319807032029,0.05099019513592785,-0.33512319849180655,0.8706229767001602
16458199,1872,1,196625.0,248754,0.66,-0.75,9.32,-0.05,-0.03,-0.02,26.99,14.538705,-14.227628490560146,508.11168289777584,9.373393195636252,0.061644140029689765,-0.33801387205749145,0.840236774074493
16498196,1866,1,196266.0,250145,0.53,-0.58,10.05,-0.06,-0.03,-0.02,26.99,14.578702,-0.9425689375840481,433.6608395295157,10.080664660626303,0.06999999999999999,-0.023537002755077287,0.716735991706326
16538199,1905,1,196513.0,247194,0.73,-1.09,8.74,-0.07,0.03,-0.02,26.99,14.618705,23.29280739925158,260.8846602896423,8.837906992042857,0.07874007874011811,0.5501499458342145,0.4301308661584287
16578177,1877,1,195401.0,246846,0.79,0.1,9.93,-0.03,-0.03,0.034999999999999996,26.99,14.658683,6.348455243761981,40.23594870422793,9.961877333113474,0.055,0.14905224680114723,0.06411367580187118
16618170,1872,1,195830.0,246155,0.48,-1.29,9.31,-0.07,0.07,-0.0,26.99,14.698676,0.6812996104904114,-121.89057634504645,9.41119546072655,0.09899494936611666,0.014902350498910467,-0.20482555685635434
16658177,1897,1,195214.0,246664,0.68,-0.22,9.38,-0.01,-0.03,0.03,26.99,14.738683,20.33585088996813,-164.92975625463396,9.407188740532424,0.04358898943540673,0.48015444284118947,-0.2762199447617626
16698179,1877,1,195649.0,246496,0.59,-0.88,10.33,-0.07,0.05,-0.01,26.99,14.778685,13.11362707992383,-143.7801647157149,10.38418990581355,0.08660254037844388,0.3091937991099923,-0.2411365127460386
16738179,1886,1,194961.0,247223,0.97,-0.18,8.99,-0.04,-0.07,0.034999999999999996,26.99,14.818685,9.612471696176156,-193.94231522381781,9.04397036704566,0.08789197915623473,0.22631630957885882,-0.3243466491628617
16778179,1881,1,195770.0,247224,0.44,-1.28,9.84,-0.07,0.01,0.02,26.99,14.858685,15.364936642695831,-411.24853460519967,9.932653220564985,0.07348469228349536,0.36248560260608753,-0.6848192360793258
16818170,1892,1,194737.0,245320,0.21,-0.91,10.23,-0.01,-0.03,0.034999999999999996,26.99,14.898676,23.532077047164982,-748.6778255794651,10.272541068304376,0.047169905660283014,0.555813809778132,-1.2445547547641767
16858178,1875,1,193913.0,243468,0.91,-1.02,9.56,-0.08,-0.04,0.034999999999999996,26.99,14.938684,1.5784024364616132,-1031.271846711765,9.657230451842805,0.09604686356149274,0.03613809182387671,-1.7133282585077778
16898179,1821,1,194076.0,244290,0.39,-1.66,10.77,-0.0,-0.02,0.034999999999999996,26.99,14.978685,-38.81433172103113,-1087.3118204202844,10.904155171309696,0.04031128874149274,-0.9200172441578423,-1.8062886641093645
16938179,1840,1,194586.0,244624,0.79,-0.56,8.22,0.0,0.0,-0.01,26.99,15.018685,-39.448481803693205,-878.8885733287424,8.276841184896568,0.01,-0.9350285078912262,-1.4605513572504218
16978167,1815,1,195401.0,246555,0.09,-1.51,10.6,-0.03,0.1,-0.01,26.99,15.058673,-42.02385303808415,-515.4474865525913,10.707389971416937,0.10488088481701516,-0.9959913270530963,-0.8576668695680832
17018179,1823,1,194902.0,245150,1.27,-0.23,9.18,0.04,-0.07,-0.08499999999999999,26.99,15.098685,-57.53179246548108,-156.2927759809965,9.270285863984993,0.11715374513859982,-1.363087027378109,-0.2618927219549435
17058179,1795,1,195058.0,247038,0.24,-0.82,10.09,-0.01,-0.02,-0.01,26.99,15.138685,-64.60913382236576,90.9893870225088,10.126109815718966,0.024494897427831782,-1.5306180906768811,0.1483046541253539
17098199,1825,1,195376.0,246612,0.94,-0.5,8.72,-0.01,0.01,-0.01,26.99,15.178705,-55.16369096073879,199.2235054057622,8.784759530004223,0.017320508075688773,-1.3070305871015684,0.32784591510399347
17138176,1834,1,195716.0,248325,0.88,-0.44,11.19,0.01,-0.02,-0.01,26.99,15.218682,-28.957104856120868,196.96027489936392,11.233169632832933,0.024494897427831782,-0.6866822085022285,0.3240916159506967
17178179,1859,1,195526.0,246730,0.94,-0.06,10.01,-0.03,-0.02,-0.01,26.99,15.258685,-23.05614165167686,142.81905635946606,10.054218020313664,0.03741657386773942,-0.5469977436338284,0.23428090937522383
17218196,1849,1,195183.0,247409,0.3,-1.2,10.28,-0.0,0.01,-0.0,26.99,15.298702,-16.569060061381983,106.98395712309757,10.354148926879503,0.01,-0.3934389958321857,0.1748368172506857
17258179,1877,1,195367.0,246818,0.63,-0.96,9.54,-0.03,-0.01,-0.01,26.99,15.338685,-7.900029282627372,138.59423959019878,9.608855290824188,0.033166247903554,-0.18823030645312322,0.22727268552226074
17296199,1867,1,195248.0,247968,1.01,-0.58,11.3,-0.03,-0.06,-0.01,26.99,15.376705,-3.424202125498381,227.8519473836061,11.359863555518615,0.06782329983125268,-0.08228090469847817,0.37533543734831376
17336199,1909,1,195852.0,248047,0.59,-0.49,10.93,-0.06,0.02,-0.01,26.99,15.416705,23.764979063315973,305.0053616392096,10.956874554360837,0.06403124237432849,0.561326942527091,0.503319306863545
17376179,1904,1,195402.0,247756,0.82,-0.46,10.34,-0.02,-0.09,-0.0,26.99,15.456685,24.756778203009837,294.82499475447577,10.382658619062846,0.09219544457292887,0.5848042846634974,0.48643187861990994
17416199,1877,1,195810.0,247850,0.43,-1.06,10.13,-0.1,0.03,-0.01,26.99,15.496705,-6.543490334198656,185.53137176534676,10.194380805129853,0.10488088481701516,-0.15611903740780791,0.3051330868756203
17456874,1851,1,195080.0,246102,0.71,-0.51,8.74,-0.02,-0.08,-0.0,27.23,15.53738,-37.7466054649636,46.15092751354521,8.783609736321395,0.08246211251235322,-0.894742595674623,0.07392557957075772
17497199,1832,1,195129.0,246554,1.04,-0.3,9.78,-0.1,0.04,-0.01,27.23,15.577705,-52.09267210761131,-29.41006914830757,9.839715443040006,0.10816653826391968,-1.234335060924279,-0.0514167507786608
17537176,1886,1,195314.0,247649,0.7,-0.55,9.09,-0.07,0.02,-0.01,27.23,15.617682,-8.537288596258035,-1.1165389325368784,9.133487833243114,0.07348469228349536,-0.20331517024957357,-0.0044827879178084735
17577179,1931,1,195636.0,247813,1.14,-0.73,9.48,-0.07,0.03,-0.01,27.23,15.657685,41.74895584858013,89.87026798081187,9.576163114734419,0.07681145747868609,0.9870340832805716,0.14644823355360784
17617179,1941,1,195611.0,247884,0.68,-0.91,9.35,-0.07,-0.02,-0.0,27.23,15.697685,44.88504287710102,166.78338486475417,9.418757879890531,0.07280109889280519,1.0612698687248474,0.2740334922263214
17657231,1946,1,195459.0,247543,0.95,-1.02,9.5,-0.06,-0.0,-0.01,27.23,15.737737,48.896101776120524,184.98065764239897,9.60171338876557,0.0608276253029822,1.1562175232777898,0.30421954954053826
17697196,1956,1,195456.0,247354,0.69,-0.71,9.69,-0.05,0.0,-0.01,27.23,15.777702,59.74177166891127,157.87199358920813,9.740446601670786,0.050990195135927854,1.412950456974592,0.2592510700974677
17737179,1951,1,195455.0,247330,1.15,-0.68,9.26,-0.05,-0.03,-0.01,27.23,15.817685,46.858635720247015,129.47053312340617,9.355880503725984,0.05916079783099616,1.1079877096284032,0.21213807003949292
17777199,1936,1,195848.0,247130,0.63,-1.04,9.83,-0.08,0.1,-0.01,27.23,15.857705,38.15697443395811,132.9794312055579,9.904917970382188,0.1284523257866513,0.9020066082166951,0.2179587114021755
17817179,1952,1,195466.0,246514,0.8,-0.9,9.82,-0.03,-0.01,-0.0,27.23,15.897685,44.064305233877235,172.63685334126373,9.893553456670661,0.03162277660168379,1.0418418034210801,0.28374336123130467
17857195,1936,1,195710.0,246928,0.71,-0.87,10.72,-0.05,0.03,-0.01,27.23,15.937701,34.0847813221358,230.14882067636574,10.77865483258463,0.05916079783099616,0.8056118170684795,0.3791455439343903
17897178,1921,1,195727.0,247458,0.45,-1.08,9.54,-0.03,-0.02,-0.0,27.23,15.977684,12.441072705254477,277.01406659692015,9.611477513889318,0.03605551275463989,0.2932734493864353,0.4568866987046063
17937196,1898,1,195797.0,246353,0.79,-1.01,9.74,-0.06,-0.01,-0.01,27.23,16.017702,-8.868985465656339,282.9072062545884,9.824041938021233,0.06164414002968976,-0.21116692225940348,0.4666623751832045
17977199,1906,1,195653.0,246450,0.2,-0.77,10.14,-0.08,0.06,-0.01,27.23,16.057705,-2.3469771534501747,223.54984042443812,10.171160209140352,0.1004987562112089,-0.05678140765872184,0.36819900273922923
18017179,1931,1,195611.0,246375,0.91,-0.62,10.16,-0.05,0.0,-0.01,27.23,16.097685,20.77353260445679,91.6540900879429,10.219496073681912,0.050990195135927854,0.4905150117776285,0.1494072789568495
18057179,1909,1,195480.0,246595,0.33,-1.02,10.33,-0.05,0.04,-0.01,27.23,16.137685,0.2363878405141999,-93.2854362638919,10.385480248885942,0.06480740698407861,0.0043706355314324765,-0.15737468833765486
18097179,1904,1,195047.0,245957,0.51,-1.23,9.13,-0.06,-0.03,-0.01,27.23,16.177685,-8.026319610339707,-285.39526552778926,9.226586584430887,0.06782329983125268,-0.19121978397287237,-0.47605092008093497
18137199,1919,1,195249.0,245648,0.3,-1.28,9.58,-0.07,0.04,-0.01,27.23,16.217705,10.552292734916726,-428.48024670053576,9.669788001812655,0.08124038404635961,0.2485632537336156,-0.7134035989829203
18177179,1905,1,194871.0,245965,0.66,-1.04,10.02,-0.05,0.0,-0.01,27.23,16.257685,-8.961181194336554,-482.90927668218467,10.095424706271649,0.050990195135927854,-0.21334933055067185,-0.803691733840232
18217179,1889,1,195130.0,245850,0.38,-1.56,9.43,-0.07,0.06,-0.01,27.23,16.297685,-17.870250087474123,-448.79644803038167,9.56571481908174,0.09273618495495704,-0.42424007460351243,-0.7471045840285084
18257179,1894,1,194857.0,247133,0.8,-1.01,10.27,-0.04,-0.0,-0.01,27.23,16.337685,-20.705373958385607,-368.66142464311605,10.350507233947523,0.04123105625617661,-0.49135162012978406,-0.6141747522673568
18297199,1875,1,195418.0,246925,0.34,-1.14,9.51,-0.08,0.01,-0.01,27.23,16.377705,-32.166607122103045,-301.77287298900205,9.584117069401854,0.08124038404635961,-0.7626558404306585,-0.5032184744466227
18337179,1899,1,195044.0,247265,0.4,-1.31,9.81,-0.06,-0.0,-0.01,27.23,16.417685,-12.046420227494602,-282.431028544748,9.905160271292939,0.0608276253029822,-0.2863814692722329,-0.47113377515727767
18377199,1899,1,195271.0,246498,0.38,-1.46,9.28,-0.08,0.03,-0.02,27.23,16.457705,-12.039461573439151,-292.7209182261581,9.40182960917714,0.08774964387392122,-0.2862167477116565,-0.4882028823512742
18417179,1879,1,194923.0,246292,0.41,-1.26,9.75,-0.07,0.01,-0.02,27.23,16.497685,-25.50946302509615,-274.93017793095703,9.839623976555202,0.07348469228349536,-0.6050714633510097,-0.4586911905293531
18457865,1897,1,195178.0,246594,-0.21,-1.75,9.82,-0.07,0.04,-0.02,27.17,16.538371,-17.02810467002626,-176.71888295156486,9.97692337346539,0.08306623862918075,-0.40430525584562055,-0.29577602102145906
18496199,1895,1,195500.0,247485,0.31,-0.89,11.86,-0.04,-0.0,-0.02,27.17,16.576705,-6.60141281388371,7.144781566021453,11.89738626757995,0.044721359549995794,-0.15749014756361507,0.009221281758332967
18536199,1923,1,195577.0,247482,-0.05,-1.7,10.29,-0.05,-0.04,-0.02,27.17,16.616705,12.950912510618931,228.05007873819616,10.429602101710303,0.0670820393249937,0.30534210630117586,0.3756641022256544
18576213,1929,1,195591.0,246965,0.34,-1.45,9.94,-0.06,-0.07,-0.01,27.17,16.656719,22.665236966396545,411.89646792170925,10.050955178489255,0.09273618495495704,0.535294432074263,0.6806327482813961
18616199,1904,1,195778.0,247736,0.27,-1.57,10.31,-0.06,-0.01,-0.02,27.17,16.696705,5.157074112080612,499.11619502683783,10.43234872883379,0.06403124237432849,0.1208505058196254,0.8253148505665342
18656199,1894,1,195859.0,247567,0.24,-1.01,9.71,-0.05,0.01,-0.01,27.17,16.736705,-21.319598931467556,473.61379306107193,9.76533665574311,0.05196152422706632,-0.5058912272585229,0.7830108758558556
18696179,1856,1,195507.0,247637,0.29,-1.7,10.18,-0.06,-0.01,-0.01,27.17,16.776685,-31.093185781286028,368.7094093309756,10.325042372794409,0.06164414002968976,-0.737246380927941,0.6089930557966053
18736199,1901,1,195440.0,246967,-0.02,-1.41,9.39,-0.06,-0.01,-0.01,27.17,16.816705,-19.271478894132652,248.03867424838924,9.495293571027702,0.06164414002968976,-0.4574092182221135,0.40882164715417957
18776216,1874,1,195311.0,246698,0.05,-1.32,10.14,-0.05,0.0,-0.02,27.17,16.856722,-9.272423581797417,171.73208928391446,10.225678461598527,0.05385164807134505,-0.2207168949347528,0.2822425176694859
18816179,1895,1,195278.0,247556,0.27,-1.35,10.36,-0.03,0.02,-0.01,27.17,16.896685,-19.542793069251328,168.6534152217465,10.45107649957649,0.03741657386773942,-0.4638316231837513,0.27713554186998246
18856178,1872,1,195538.0,247379,0.29,-1.66,10.28,-0.03,-0.0,-0.02,27.17,16.936684,-18.894440576124268,230.10527212391452,10.417202119571261,0.03605551275463989,-0.4484841675378083,0.3790733045875219
18896216,1907,1,195316.0,247610,0.43,-1.72,10.3,-0.02,-0.02,-0.02,27.17,16.976722,7.953677193474836,321.1905828035216,10.451473580313927,0.034641016151377546,0.18705020768858116,0.5301677263865737
18936199,1903,1,195521.0,247085,0.37,-0.92,9.84,-0.03,-0.01,-0.02,27.17,17.016705,-1.4659456177970775,394.6409503033747,9.889838219101463,0.03741657386773942,-0.03592609737696877,0.6520088962252014
18976199,1874,1,195283.0,247130,0.13,-2.0825000000000005,9.7,-0.02,0.02,-0.01,27.17,17.056705,-9.243598073378593,401.46766896599945,9.921880177164002,0.030000000000000002,-0.22003455281897571,0.6633332151677179
19016178,1907,1,195402.0,247151,0.48,-0.75,9.96,-0.01,0.05,-0.02,27.17,17.096684,-5.680224407495461,307.4070993310582,9.999724996218648,0.05477225575051661,-0.13568426517946272,0.5073033649422325
19056176,1839,1,195400.0,247071,0.48,-1.16,11.18,0.0,0.02,-0.08499999999999999,27.17,17.136682,-38.45814633700861,117.92963222355908,11.25026221916627,0.08732124598286489,-0.9115858130444161,0.1929937564779324
19096190,1903,1,194888.0,246324,0.81,-0.76,9.3,-0.01,-0.07,-0.03,27.17,17.176696,-6.228216394497987,-109.58652489108925,9.366093102249199,0.07681145747868609,-0.14865604026170223,-0.18441531149021903
19136196,1932,1,194655.0,244886,0.62,-1.3,9.29,-0.03,-0.04,-0.02,27.17,17.216702,49.726099850940805,-293.14592787830196,9.400983991051149,0.05385164807134504,1.1758647965967897,-0.4889078982003782
19176199,1926,1,194371.0,246015,0.44,-2.0825000000000005,9.77,-0.03,0.01,0.034999999999999996,27.17,17.256705,26.923881019021685,-383.2390770938704,9.99916527766193,0.047169905660283014,0.6361027908025371,-0.6383564995963188
19216170,1885,1,194855.0,244830,0.34,-1.12,9.11,-0.02,0.03,-0.03,27.17,17.296676,-4.3886633936514245,-397.85766800673326,9.184884321536119,0.04690415759823429,-0.10511111926866881,-0.6626061565938703
19256179,1893,1,194586.0,246998,0.37,-1.79,11.53,-0.01,-0.01,-0.01,27.17,17.336685,2.203027621865276,-394.7269122575727,11.673983895825796,0.017320508075688773,0.05092388725143125,-0.6574127864863961
19296224,1932,1,195046.0,245465,0.24,-1.59,9.23,-0.03,-0.01,-0.04,27.17,17.37673,39.2633447460513,-405.96336342859587,9.36902342829817,0.05099019513592785,0.9281960182565062,-0.6760520717903781
19336199,1941,1,194429.0,245594,0.54,-1.3,10.39,0.02,-0.08,0.034999999999999996,27.17,17.416705,54.35464188475219,-407.78405034404034,10.48492727681027,0.08958236433584459,1.2854291837508962,-0.679072269390997
19376170,1933,1,194392.0,244776,0.75,-1.86,8.3,-0.05,-0.01,-0.02,27.17,17.456676,39.38028915853595,-362.8894993722526,8.53885823749288,0.05477225575051661,0.9309642642379361,-0.6046001490194624
19416199,1904,1,194771.0,246660,0.28,-1.63,10.52,-0.01,0.04,-0.02,27.17,17.496705,20.517439381818104,-285.92706528757935,10.649211238396953,0.045825756949558406,0.48445290911381783,-0.47693308183258115
19456179,1890,1,195116.0,246874,0.05,-1.96,9.48,-0.01,0.03,-0.07,27.17,17.536685,-4.844370127593577,-245.90631433790455,9.680624979824392,0.07681145747868609,-0.11589836688609123,-0.4105457337565011
19496865,1893,1,195145.0,247094,0.58,-0.95,10.83,-0.02,-0.06,-0.03,26.97,17.577371,12.135156718397916,-289.40619207948066,10.88704734994755,0.06999999999999999,0.2860319687267074,-0.48270433788985023
19535199,1931,1,194824.0,246107,0.54,-1.52,9.06,-0.04,-0.07,-0.02,26.97,17.615705,37.23028223584137,-370.94792203028953,9.202477927167227,0.08306623862918075,0.8800704429997736,-0.6179676470610656
19575199,1920,1,194523.0,244746,0.03,-1.07,8.81,-0.06,0.02,0.034999999999999996,26.97,17.655705,36.10576105282727,-383.6805983585274,8.874790138363837,0.0722841614740048,0.8534513751899269,-0.6390889052904707
19615166,1904,1,194621.0,246929,0.12,-2.0825000000000005,12.14,-0.04,0.05,0.034999999999999996,26.97,17.695672,18.967877487257308,-271.77818156012574,12.31790591983881,0.07297259759663212,0.447772503471027,-0.45346258598697337
19655171,1851,1,195383.0,248194,-0.01,-0.9,10.25,0.04,0.05,-0.08499999999999999,26.97,17.735677,-44.68073147247822,-100.87760934152158,10.289441189880042,0.1064189832689638,-1.0588835413358826,-0.16996876078252837
19695176,1819,1,195931.0,248891,-0.07,-0.95,12.140000000000002,-0.01,0.01,-0.06,26.97,17.775682,-50.92226525734245,3.593587392415511,12.177314974985253,0.061644140029689765,-1.206629811985429,0.00333047866007574
19735199,1925,1,195110.0,246646,0.27,-0.67,9.69,-0.03,-0.07,-0.02,26.97,17.815705,14.880420549290973,-6.225779069529291,9.71688736170179,0.07874007874011811,0.3510163951423948,-0.012958113725795355
19775199,1863,1,195466.0,246566,0.31,-2.0825000000000005,11.93,-0.06,-0.01,0.034999999999999996,26.97,17.855705,4.755897406461373,-36.98584513797178,12.114363633720096,0.070178344238091,0.11135406405230701,-0.06398362335445724
19815179,1874,1,195014.0,247592,0.7,-0.9,8.83,-0.03,-0.04,0.034999999999999996,26.97,17.895685,-42.120483242384125,59.02049942156667,8.90330837385744,0.06103277807866851,-0.9982787058945034,0.09527392335676818
19855176,1819,1,196134.0,249304,0.62,-2.0825000000000005,11.07,-0.07,0.05,-0.08499999999999999,26.97,17.935682,-40.99484343739837,327.7990162723288,11.281228047070053,0.12093386622447824,-0.9716331586598431,0.5411299487967178
19895179,1875,1,196301.0,250277,-0.14,-0.61,9.64,-0.01,-0.02,-0.08499999999999999,26.97,17.975685,-31.627303862019094,640.3648969958178,9.66029502655069,0.08789197915623473,-0.7498897402743522,1.0596214670191013
19935213,1870,1,196493.0,249063,0.61,-1.27,10.08,-0.07,-0.06,-0.08499999999999999,26.97,18.015719,-8.176956043766618,773.8004805659609,10.177986048329995,0.12539936203984453,-0.19478556956819282,1.280967501813532
19975199,1878,1,195682.0,249710,0.56,-0.83,9.19,-0.04,-0.09,-0.02,26.97,18.055705,-5.494651803792298,583.027606832559,9.244382077781077,0.1004987562112089,-0.1312914891284291,0.964509042852098
20015196,1876,1,196451.0,249151,0.57,-1.14,10.38,-0.05,-0.02,-0.08499999999999999,26.97,18.095702,-29.27414122546282,132.6438920391555,10.457958691828917,0.10062305898749054,-0.6941869249461473,0.2174021112658831
20055199,1891,1,195560.0,247640,0.39,-1.66,10.06,-0.01,-0.05,-0.03,26.97,18.135705,30.94020203187429,-312.30136765628197,10.203494499434987,0.05916079783099616,0.7311750073175503,-0.5206833851144108
20095199,1936,1,195014.0,246444,0.96,-0.87,7.7,-0.05,-0.1,-0.02,26.97,18.175705,12.789123310616866,-450.56350311968157,7.808232834643189,0.11357816691600547,0.30151231834270237,-0.7500358159144487
20135199,1762,1,195451.0,248326,-0.01,-1.63,9.89,-0.07,0.09,0.0,26.97,18.215705,-93.55558083901171,-169.10319376827965,10.023427557477532,0.1140175425099138,-2.2158230006679536,-0.28314293951617303
20175176,1856,1,195811.0,250783,0.35,-2.0825000000000005,8.28,0.03,0.03,-0.03,26.97,18.255682,-60.70079416354954,342.27444839430774,8.545039862399706,0.05196152422706632,-1.4381019513871889,0.5651421306781099
20215170,1831,1,197366.0,251330,0.95,0.41,8.51,-0.03,-0.03,-0.08499999999999999,26.97,18.295676,-44.753927021670364,706.9269633965713,8.572671695568424,0.09499999999999999,-1.0606161874760844,1.170036163544077
20255179,1862,1,196821.0,251601,-0.24,-2.0825000000000005,9.04,-0.05,-0.01,-0.03,26.97,18.335685,-30.068967615139087,644.4488398024341,9.27987102550461,0.05916079783099616,-0.7130016328266504,1.0663960058818671
20295216,1965,1,195971.0,247806,0.73,-0.28,8.55,-0.03,-0.04,-0.07,26.97,18.375722,61.55140706352579,191.05128261011825,8.585674114476976,0.08602325267042626,1.4557871842928167,0.3142896427598809
20335199,1909,1,195163.0,248610,0.37,-0.93,10.84,-0.03,-0.02,0.034999999999999996,26.97,18.415705,37.34512741605494,-335.951922869476,10.886110416489446,0.050249378105604446,0.8827889970705338,-0.5599154735653553
20375179,1913,1,195385.0,248303,0.75,-0.42,8.83,-0.03,0.04,-0.02,26.97,18.455685,-4.933668829464597,-595.9491000875546,8.87174165539101,0.05385164807134504,-0.118012198298377,-0.9912048095520684
20415176,1889,1,195906.0,249513,0.16,-0.99,10.18,-0.03,0.05,-0.01,26.97,18.495682,20.30587723707015,-477.37756463659895,10.229276611764881,0.05916079783099616,0.47944492245949105,-0.7945156018508863
20455179,1947,1,195558.0,249533,0.61,-0.99,8.78,-0.03,-0.05,-0.02,26.97,18.535685,31.783520849690657,-141.5606083848821,8.85666980303545,0.061644140029689765,0.7511376021853537,-0.2374546613261401
20495199,1909,1,196596.0,250830,0.34,-0.87,10.6,-0.03,0.01,-0.01,26.97,18.575705,29.866565786773,148.55144391259296,10.641076073405358,0.033166247903554,0.7057604607148279,0.2437899265417175
20535865,1915,1,196431.0,250683,0.24,-1.34,9.74,-0.0,-0.02,-0.01,26.99,18.616371,11.305718416542506,247.83579549959597,9.834673355023034,0.022360679774997897,0.26639794605583667,0.4084851071894419
20574199,1919,1,196085.0,249064,0.45,-0.16,9.89,-0.03,-0.03,-0.01,26.99,18.654705,25.46318856237525,213.65145449991664,9.901525135048642,0.04358898943540673,0.6015260552637852,0.3517793310396926
20614199,1946,1,195937.0,250995,0.31,-1.79,10.2,-0.04,0.02,-0.0,26.99,18.694705,54.630471825184834,203.58987325516495,10.36051157038107,0.044721359549995794,1.291958483509112,0.3350889471653111
20654177,1931,1,196482.0,249982,1.02,0.21,9.8,-0.03,0.01,-0.03,26.99,18.734683,25.108107097725195,297.2606298426466,9.855176304866394,0.04358898943540673,0.5931207555430588,0.4904721664842741
20694170,1890,1,196464.0,252033,0.34,-1.17,10.35,-0.05,0.02,-0.02,26.99,18.774676,7.462539741299098,411.71052805387757,10.421468226694355,0.057445626465380296,0.1754242629390305,0.680324306924499
20734237,1947,1,196692.0,249898,0.52,-0.75,9.39,-0.07,-0.02,-0.03,26.99,18.814743,34.11784184697541,384.9029374091412,9.434246127804808,0.07874007874011811,0.8063944082422411,0.635855255020623
20774200,1908,1,196057.0,249591,0.56,-1.19,10.64,-0.04,-0.06,-0.02,26.99,18.854706,28.15693385416829,144.61371644407996,10.72097476911498,0.07483314773547883,0.6652909622017765,0.2372579330663917
20814199,1916,1,195825.0,249394,0.65,-1.07,9.92,-0.08,-0.02,-0.02,26.99,18.894705,3.331049144749478,-194.6447569327308,9.998689914183759,0.08485281374238571,0.07762581324640339,-0.32551187572973456
20854199,1893,1,195816.0,249126,0.45,-1.23,9.67,-0.06,-0.05,-0.02,26.99,18.934705,8.920683908309682,-400.0401329351422,9.758293908260809,0.0806225774829855,0.20994067671982838,-0.6662264799368359
20894199,1908,1,195443.0,248596,0.39,-1.42,9.11,-0.06,-0.01,-0.02,26.99,18.974705,2.201723078284021,-308.78067370768804,9.228250104976565,0.06403124237432849,0.05089300678908438,-0.514843176495423
20934221,1874,1,195436.0,249559,0.33,-1.45,8.98,-0.07,-0.03,0.034999999999999996,26.99,19.014727,-19.4362002936978,14.332005841727343,9.102296413543124,0.08381527307120105,-0.46130841565030684,0.021143615756816232
20974179,1890,1,196613.0,250998,0.3,-1.65,9.91,-0.05,0.05,-0.02,26.99,19.054685,-5.52303019199328,294.38402074295357,10.050900457172979,0.07348469228349536,-0.13196324725203454,0.4857003807219259
21014178,1911,1,196707.0,250160,0.18,-1.67,10.63,-0.01,-0.03,-0.05,26.99,19.094684,7.538086699193664,251.30883757010878,10.761886451733265,0.05916079783099616,0.1772125703763639,0.41424626977002255
21054199,1894,1,195673.0,247954,0.32,-1.32,10.13,-0.02,-0.05,-0.02,26.99,19.134705,6.665154292284571,-165.92365826047745,10.220650664218986,0.057445626465380296,0.15654897836590162,-0.27786865241590974
21094200,1923,1,194781.0,247113,0.22,-1.25,9.81,-0.01,-0.07,-0.01,26.99,19.174706,14.320019557874424,-723.0750054233561,9.891764251133365,0.07141428428542851,0.3377508807025167,-1.2020842040348756
21134199,1877,1,194681.0,246558,0.36,-1.81,9.78,-0.01,0.0,0.034999999999999996,26.99,19.214705,-8.73318519321762,-1080.3279384960797,9.952592627049496,0.036400549446402586,-0.20795233038221644,-1.7947036391105222
21173171,1861,1,194614.0,246907,0.61,-1.73,9.6,0.01,0.02,0.034999999999999996,26.99,19.253677,-45.82651368680011,-1050.4411443811039,9.773689170420758,0.04153311931459037,-1.0860058889795268,-1.7451267332127791
21213148,1837,1,195275.0,248685,0.46,-1.76,9.79,0.01,0.02,-0.01,26.99,19.293654,-53.498227989540425,-711.698666066634,9.95757500599418,0.024494897427831782,-1.2676066327690316,-1.1832128689703232
21253170,1859,1,195808.0,248094,0.11,-1.39,10.04,0.02,0.0,-0.01,26.99,19.333676,-41.458020398610174,-294.9939458938505,10.136360293517589,0.022360679774997897,-0.9825972375270893,-0.49197343326251036
21293169,1873,1,195678.0,249840,0.4,-1.2,11.7,0.02,-0.05,-0.0,26.99,19.373675,-24.759669285119763,30.627397715116725,11.76817742898194,0.05385164807134505,-0.5873227444212928,0.04817478900229522
21333179,1880,1,196169.0,249592,0.27,-1.28,10.06,-0.0,-0.04,-0.01,26.99,19.413685,-13.894383118493325,272.9283540489618,10.144698122664863,0.04123105625617661,-0.3301254647154547,0.45010922415393645
21373199,1908,1,195880.0,249970,0.3,-1.08,11.24,0.03,-0.04,-0.0,26.99,19.453705,4.444538511254925,540.3353941968862,11.295751413695328,0.05,0.10398374175879141,0.8936902122922618
21413179,1901,1,196160.0,251300,0.59,-0.82,11.5,-0.02,-0.02,0.02,26.99,19.493685,10.510422702434944,868.6623794531475,11.544284300033501,0.034641016151377546,0.2475721285768216,1.4383266155518197
21453176,1881,1,197332.0,252884,0.17,-1.29,12.140000000000002,0.0,0.0,-0.0,26.99,19.533682,-24.118976523380844,1133.9101926723151,12.209529065447205,0.0,-0.5721566058659533,1.8783258280789161
21493170,1867,1,196879.0,251829,0.59,-0.3,10.6,0.049999999999999996,-0.11,-0.0,26.99,19.573676,-25.44341531217653,1144.0777108775214,10.62064498982995,0.12083045973594571,-0.6035080169922846,1.8951919426355297
21533176,1897,1,196759.0,250988,0.62,-0.86,11.1,-0.02,-0.07,-0.0,26.99,19.613682,-3.9943067742956493,820.1592944984257,11.150515683142192,0.07280109889280519,-0.09577611895879772,1.3578685754790119
21573885,1842,1,195587.0,248399,0.88,0.4975000000000004,7.659999999999998,-0.01,-0.1,0.034999999999999996,27.03,19.654391,-57.70368602541313,285.06236305864246,7.726416132334575,0.10641898326896382,-1.367156000374814,0.4702373991773615
21614170,1786,1,195201.0,248137,0.67,-0.7,9.23,-0.04,-0.03,0.034999999999999996,27.03,19.694676,-107.34810066811589,-226.72421500952595,9.280721954675725,0.06103277807866851,-2.542312199933642,-0.3787260233631518
21654179,1854,1,194740.0,247401,1.0,-0.29,7.659999999999998,-0.0,-0.05,-0.0,27.03,19.734685,-53.52853240306723,-547.1489690939133,7.730439832247579,0.05,-1.2683239827405508,-0.9102540226338759
21694195,1920,1,195783.0,248371,0.65,-1.01,9.84,-0.02,0.03,-0.08499999999999999,27.03,19.774701,31.29924082456672,-672.7197222937983,9.913031826842886,0.09233092656309692,0.7396739828045469,-1.1185536947549473
21734179,1950,1,194765.0,246620,1.0,0.0,7.659999999999998,0.02,-0.13,-0.08,27.03,19.814685,41.12363394633147,-711.4291103899834,7.724998381876851,0.15394804318340652,0.9722317955421372,-1.1827657237742175
21774166,1922,1,194737.0,245786,1.05,-0.98,8.57,-0.06,-0.01,-0.01,27.03,19.854672,29.5656935308359,-757.2592666853214,8.689522426462803,0.06164414002968976,0.6986383725729003,-1.2587898479138593
21814199,1965,1,194384.0,246560,0.8,-0.91,8.64,0.0,-0.05,0.0,27.03,19.894705,63.29621776921127,-812.9193603111294,8.724545833451733,0.05,1.497089416026237,-1.351120099640776
21854165,1968,1,195175.0,248263,0.78,-0.29,9.5,-0.0,0.01,-0.0,27.03,19.934671,66.23175898964863,-800.711769556172,9.53637771902938,0.01,1.5665779876829986,-1.3308698655150148
21894179,1970,1,195325.0,247788,0.4,-0.01,8.86,0.0,-0.02,-0.0,27.03,19.974685,76.6028555292563,-622.5395190878668,8.869030386688276,0.02,1.8120770731785012,-1.0353136121050819
21934176,1984,1,195203.0,248003,0.68,-0.42,8.78,-0.0,-0.03,0.034999999999999996,27.03,20.014682,77.72646238085356,-228.7221722962622,8.81630308008975,0.046097722286464436,1.838674497420976,-0.3820402811591259
21974179,1903,1,195769.0,249165,0.55,-0.65,9.7,-0.02,0.07,0.03,27.03,20.054685,9.050171301495128,324.0234100680335,9.737299420270489,0.07874007874011811,0.21300583347435478,0.534866885827261
22014166,1910,1,196393.0,251112,0.79,-0.59,11.0,0.03,0.01,0.01,27.03,20.094672,9.953609664943633,860.6905602837811,11.044102498618889,0.033166247903554,0.23439154627541905,1.4251027773819216
22054148,1936,1,197009.0,252420,0.6,-0.65,11.37,0.02,0.02,-0.06,27.03,20.134654,33.45248129471371,1164.0740577449244,11.404358815821254,0.066332495807108,0.7906443468595119,1.9283623456948231
22094167,1917,1,197205.0,252039,0.3,-1.03,11.22,-0.0,-0.04,-0.08499999999999999,27.03,20.174673,26.570531607888675,1116.39641825711,11.27117119025348,0.09394147114027968,0.6277384913321544,1.8492735736699417
22134199,1936,1,196494.0,250314,0.96,-0.12,11.26,-0.01,-0.09,-0.0,27.03,20.214705,27.658427368347553,796.2366797630083,11.301486627873343,0.09055385138137416,0.6534905816041048,1.3181851883949667
22173202,1856,1,195888.0,249099,0.45,-0.62,9.75,-0.06,-0.05,0.034999999999999996,27.03,20.253708,-31.13671686595557,426.0991174834731,9.78005112461075,0.08558621384311844,-0.7382768256293462,0.7041924321375299
22213179,1869,1,195706.0,248170,0.94,-1.62,10.04,-0.08,-0.01,0.034999999999999996,27.03,20.293685,-37.92904809030751,194.36936192030538,10.213207135860898,0.08789197915623473,-0.8990612805413847,0.31979374952655376
22253179,1877,1,195753.0,250024,0.16,-0.49,9.94,0.02,-0.0,0.03,27.03,20.333685,-10.82820944193696,106.55551944257878,9.953356217879474,0.03605551275463989,-0.2575446309829547,0.17412611490876126
22293170,1875,1,196380.0,249622,0.68,-1.29,9.88,0.0,-0.01,-0.08499999999999999,27.03,20.373676,-30.74141932055342,6.912253183919536,9.987036597509794,0.08558621384311844,-0.7289195522181668,0.008835558295532899
22333179,1901,1,195759.0,248309,0.33,-0.74,10.5,0.01,-0.09,-0.01,27.03,20.413685,16.656131218860672,-249.75220682166588,10.531215504394542,0.09110433579144298,0.39305007439888534,-0.4169253892333236
22373197,1936,1,194873.0,245625,0.78,-0.86,8.54,-0.02,-0.06,0.0,27.03,20.453703,26.55878298551853,-642.6573501279689,8.618561364868269,0.06324555320336758,0.6274603841872939,-1.0686855359221656
22413176,1847,1,194631.0,245798,1.2,-0.97,10.38,-0.02,-0.03,0.034999999999999996,27.03,20.493682,-31.127733571394394,-989.4390302314268,10.4940602247176,0.050249378105604446,-0.7380641778547273,-1.643935014183722
22453178,1867,1,194784.0,245947,1.27,-0.76,9.33,-0.0,-0.0,0.0,27.03,20.533684,-44.459891405904976,-1091.1410905360663,9.446660785695652,0.0,-1.0536559326469224,-1.8126407460174079
22493176,1830,1,195325.0,248130,0.72,-0.99,10.84,-0.02,0.04,0.01,27.03,20.573682,-47.78668147264799,-875.2464171852257,10.908900036208967,0.0458257569495584,-1.1324059390615602,-1.4545096643308881
22533170,1875,1,195498.0,248190,0.71,-0.94,9.33,0.0,-0.03,0.0,27.03,20.613676,-30.45278678763576,-425.6746146086559,9.40407358542031,0.03,-0.722087196294671,-0.708749551524109
22573176,1863,1,196024.0,249723,0.56,-0.7,11.39,-0.03,-0.01,0.01,27.03,20.653682,-21.839436798307116,90.45144213634659,11.425222098497692,0.033166247903554,-0.5181965529709641,0.1474122986958342
22613865,1873,1,196341.0,250497,0.58,-0.97,10.52,-0.02,-0.01,0.01,26.93,20.694371,-22.309438719029956,516.2091201653961,10.58053401298819,0.024494897427831782,-0.5293221886525843,0.8536689904535837
22652179,1887,1,196897.0,250781,0.37,-0.47,10.9,-0.03,0.03,0.0,26.93,20.732685,-5.233378023664715,756.4145052789671,10.916400505661196,0.042426406871192854,-0.12510675506098393,1.2521272435567297
22692170,1872,1,196687.0,250209,0.97,-0.43,10.11,-0.01,-0.03,0.01,26.93,20.772676,-16.10946232130658,782.8682633767161,10.165525072518388,0.033166247903554,-0.3825596423854788,1.2960093498411434
22732179,1905,1,196590.0,249737,0.97,0.14,9.64,-0.03,-0.02,-0.0,26.93,20.812685,8.907472627453142,619.7374130521578,9.68969039753077,0.03605551275463989,0.20962794630061782,1.0254041191681451
22772179,1905,1,196586.0,249330,0.94,-0.5,9.6,-0.05,0.04,-0.0,26.93,20.852685,21.692345305613674,329.74922976901746,9.6588612165203,0.06403124237432849,0.5122646577301287,0.5443650080885872
22812176,1879,1,195871.0,248347,0.68,-0.21,8.43,-0.04,-0.02,0.0,26.93,20.892682,-21.57608450646799,2.0996226987271265,8.459988179660773,0.044721359549995794,-0.5119626174789225,0.0008522554438751699
22852179,1866,1,196003.0,248795,0.55,-0.96,9.76,-0.1,0.08,-0.01,26.93,20.932685,-10.000450553739563,-268.45017461102833,9.822509862555496,0.1284523257866513,-0.23795036249966064,-0.4479420110230711
22892176,1911,1,195426.0,247971,1.18,0.4975000000000004,8.16,-0.04,-0.07,-0.08499999999999999,26.93,20.972682,2.756527575248147,-414.2432395862311,8.259873258712872,0.11715374513859982,0.06402604398657996,-0.6897869220233228
22932179,1877,1,195827.0,248759,0.43,-1.01,9.73,-0.11,0.04,-0.01,26.93,21.012685,9.024298945073404,-423.33447181680174,9.791726099110413,0.1174734012447073,0.21239339680318026,-0.7048676684913316
22972179,1966,1,195588.0,248704,1.0,0.26,8.53,-0.03,-0.06,-0.05,26.93,21.052685,52.75619689634936,-340.2882912819245,8.592351249803514,0.08366600265340755,1.2475916434899308,-0.567108741866226
23012179,1918,1,196062.0,249465,0.84,-1.02,9.99,-0.07,0.02,-0.01,26.93,21.092685,51.059809648989344,-232.0155389053862,10.077008484664484,0.07348469228349536,1.2074356661270134,-0.38750339392522537
23052179,1926,1,195978.0,249341,0.76,-0.32,9.63,-0.03,-0.01,-0.0,26.93,21.132685,16.95943349097403,-141.13486699483897,9.665241849017542,0.03162277660168379,0.40022968459228864,-0.23674843165327042
23092200,1883,1,196071.0,248752,0.48,-0.51,9.33,-0.06,0.06,-0.01,26.93,21.172706,7.214316792402339,-63.85222106153896,9.356249248496963,0.08544003745317531,0.16954846121252795,-0.10855018963961999
23132179,1905,1,195950.0,249843,0.64,-1.19,9.8,-0.05,0.04,-0.0,26.93,21.212685,7.619866166601394,29.86674201583688,9.892709436751897,0.06403124237432849,0.17914841046658317,0.04691299572066377
23172179,1879,1,196403.0,249398,0.74,-0.57,10.31,-0.07,0.03,-0.02,26.93,21.252685,-9.584676052365898,154.9799850795279,10.352226813589432,0.07874007874011811,-0.22810836946934174,0.254453739437367
23213179,1868,1,196337.0,250750,0.26,-0.8,10.63,-0.05,0.01,-0.01,26.93,21.293685,-18.693385121919228,289.5893965351111,10.663231217600039,0.05196152422706632,-0.44372488967816087,0.4777469470999458
23253178,1889,1,196750.0,250105,0.27,-1.09,10.59,-0.05,-0.02,-0.08499999999999999,26.93,21.333684,-7.521254328114104,391.25756838588427,10.649370873436608,0.10062305898749054,-0.17926414703242172,0.6463964639819084
23293199,1872,1,196412.0,250449,0.46,-0.5,10.86,-0.02,-0.07,-0.01,26.93,21.373705,-11.910423903664475,430.2084940108693,10.881231547945296,0.07348469228349536,-0.2831622365707013,0.7110091610450653
23333199,1888,1,196541.0,249151,0.62,-1.0,9.51,-0.08,-0.01,-0.01,26.93,21.413705,-8.159064640616364,404.80797581579685,9.582510109569412,0.08124038404635961,-0.19436205378132843,0.6688741934916196
23373196,1882,1,196310.0,249654,0.57,-0.94,10.45,-0.01,-0.03,-0.0,26.93,21.453702,-6.214836092432815,329.6359355820184,10.507663869766676,0.03162277660168379,-0.1483393088622684,0.5441770730686583
23413199,1866,1,196489.0,249410,0.83,-1.24,9.73,-0.04,0.0,-0.01,26.93,21.493705,-25.911615092886578,217.09061876602303,9.84374928571426,0.04123105625617661,-0.6145909933732816,0.3574842963341201
23453176,1856,1,196228.0,249299,0.5,-0.91,9.45,-0.02,-0.04,-0.0,26.93,21.533682,-37.1826654923609,74.19706983346899,9.506871199295801,0.044721359549995794,-0.881393308352922,0.12044916966344162
23493199,1872,1,196051.0,248834,0.85,-1.27,10.0,-0.06,-0.03,-0.01,26.93,21.573705,-17.941581182527013,-88.27440003937237,10.116096084952929,0.06782329983125268,-0.4259285863762068,-0.1490622654529032
23533199,1929,1,195737.0,248409,0.27,-0.96,9.25,-0.02,-0.05,-0.0,26.93,21.613705,34.22247952468786,-251.56610234719037,9.303601453200798,0.05385164807134505,0.8088713357386418,-0.41993432111913614
23573199,1930,1,195616.0,248405,0.72,-1.45,9.38,-0.02,-0.05,-0.01,26.93,21.653705,38.93488554428042,-393.4794895525261,9.518681631402535,0.05477225575051661,0.920420906594072,-0.6553435328279111
23613886,1904,1,195785.0,248622,0.35,-0.98,10.17,-0.0,-0.0,-0.0,26.87,21.694392,8.96201331780418,-488.75766332404595,10.223101290704303,0.0,0.2109190045365852,-0.8133931729802663
23652199,1909,1,195651.0,248676,0.64,-0.98,9.74,0.04,-0.02,-0.0,26.87,21.732705,17.205763271333645,-501.3865909959078,9.81007645230148,0.044721359549995794,0.4060606722393173,-0.8343423305368999
23692176,1912,1,195819.0,248560,0.74,-0.9,9.83,0.01,-0.0,-0.01,26.87,21.772682,15.209162807334323,-388.837525411878,9.898813060160293,0.01414213562373095,0.3587982071624787,-0.6476433352591697
23732179,1917,1,195759.0,248565,0.62,-1.16,9.31,0.02,-0.01,-0.01,26.87,21.812685,25.498549793223564,-136.35673597406253,9.402451807906276,0.024494897427831782,0.6023631075274589,-0.22882235731177986
23772179,1939,1,196157.0,249837,0.57,-0.74,10.07,0.0,0.01,-0.01,26.87,21.852685,40.94325030756633,199.81419494177598,10.113228960129401,0.01414213562373095,0.9679618499114057,0.32882576457962065
23812170,1905,1,196662.0,251631,0.57,-0.64,10.58,0.01,-0.03,-0.08499999999999999,26.87,21.892676,11.461623885602066,492.58934373891157,10.614654963775319,0.09069178573608527,0.27008845746238824,0.8144879585665006
23852179,1899,1,197097.0,251773,0.16,-0.45,10.05,0.0,-0.0,-0.08499999999999999,26.87,21.932685,2.925878720785045,611.7037182397098,10.061341858817839,0.08499999999999999,0.06803483430090645,1.0120776402492053
23892179,1895,1,196534.0,250201,0.43,-0.51,10.22,0.0,-0.05,-0.01,26.87,21.972685,-3.216904823564332,512.0967432829066,10.241747897697932,0.050990195135927854,-0.0773738731366623,0.8468472844875672
23932179,1879,1,196166.0,249934,0.59,-0.86,9.77,-0.0,-0.04,-0.01,26.87,22.012685,-14.403506504005776,263.05832213356956,9.825507620474374,0.04123105625617661,-0.3421771629202049,0.4337365867410823
23972199,1901,1,196168.0,249321,0.8,-0.82,9.53,-0.01,-0.01,-0.01,26.87,22.052705,-0.0845099530558949,-9.577188606312843,9.598609274264684,0.017320508075688773,-0.003225486494634691,-0.018517509443874747
24012196,1875,1,195893.0,248729,0.64,-0.71,9.2,-0.02,-0.01,-0.01,26.87,22.092702,-19.20172465609316,-212.3334815572875,9.249524312093028,0.024494897427831782,-0.4557580329706088,-0.3548543415957309
24052199,1862,1,195872.0,249036,0.58,-0.92,9.68,-0.04,-0.01,-0.01,26.87,22.132705,-38.16789644829839,-325.46890322566975,9.740903448859351,0.042426406871192854,-0.9047151719341537,-0.5425259979191617
24092199,1869,1,196002.0,248972,0.39,-0.67,9.59,-0.04,-0.02,-0.01,26.87,22.172705,-28.25349129140992,-374.2719425498294,9.621283698135088,0.0458257569495584,-0.6700266421386255,-0.62348160924334
24132199,1885,1,195710.0,248309,0.57,-0.71,9.64,-0.02,-0.06,-0.01,26.87,22.212705,-14.099880102012463,-375.8777012884709,9.682902457424634,0.06403124237432849,-0.3349898800965443,-0.6261452790091184
24172196,1905,1,195765.0,248954,0.57,-0.99,10.02,-0.03,-0.01,-0.01,26.87,22.252702,6.860525521951056,-319.8011282867098,10.08490951868186,0.033166247903554,0.16117370228319225,-0.5331241616527016
24212199,1894,1,196086.0,249471,1.02,-0.54,10.37,0.02,-0.02,-0.01,26.87,22.292705,-6.920027707834409,-194.41740567836302,10.434026068589247,0.030000000000000002,-0.1650322300031545,-0.3251347402062601
24252179,1872,1,196151.0,249946,0.91,-1.17,10.23,-0.0,-0.03,-0.01,26.87,22.332685,-24.30346566813594,-21.004950108809762,10.336822529191453,0.03162277660168379,-0.5765237348525799,-0.03747414475415883
24292199,1882,1,196419.0,250642,0.81,-1.2,10.44,-0.0,-0.01,-0.01,26.87,22.372705,-21.521436629982883,147.12582012962372,10.539909866787287,0.01414213562373095,-0.5106690219897543,0.24142506881017395
24332199,1857,1,196678.0,250927,0.28,-0.95,10.54,-0.01,-0.0,-0.01,26.87,22.412705,-38.13257262358682,261.89261069557284,10.586429993156333,0.01414213562373095,-0.9038790051286691,0.4318028776238328
24372199,1869,1,196739.0,250612,0.28,-1.09,10.68,-0.02,0.01,-0.01,26.87,22.452705,-34.75276425837385,314.31272059011906,10.739129387431738,0.024494897427831782,-0.8238739777295876,0.5187585693381555
24412179,1882,1,196421.0,250269,0.53,-0.47,10.14,0.01,-0.03,-0.01,26.87,22.492685,-13.982617126829643,325.73587945965147,10.164713473581044,0.033166247903554,-0.33221409326822565,0.5377075696943362
24452179,1904,1,196590.0,250815,0.85,-0.5,11.18,-0.0,-0.04,-0.01,26.87,22.532685,1.7888933447738407,302.6379245122921,11.223408573156373,0.04123105625617661,0.041120720738612886,0.499392147355955
24492199,1919,1,196594.0,250575,0.68,-0.19,10.58,0.02,-0.05,-0.01,26.87,22.572705,22.16774979208479,207.69453931150056,10.603532430280016,0.05477225575051661,0.5235181800769118,0.34189786223441326
24532179,1926,1,196449.0,250273,0.83,-0.58,9.78,-0.02,-0.06,-0.01,26.87,22.612685,25.166512948914146,-8.078725785238552,9.832278474494098,0.06403124237432849,0.594503307812215,-0.016031824629843736
24572199,1923,1,196335.0,249232,0.69,-0.73,9.36,-0.05,-0.03,-0.02,26.87,22.652705,26.16467036474181,-332.64450133911447,9.413745269551328,0.061644140029689765,0.6181311596821115,-0.5544290461705635
24612199,1904,1,195762.0,248936,0.51,-0.12,9.11,-0.04,-0.0,-0.01,26.87,22.692705,5.158877761546351,-656.5999851265881,9.125053424501141,0.04123105625617661,0.12089320085121655,-1.091813901602135
24652885,1862,1,195521.0,247866,0.91,-0.59,7.95,-0.04,-0.04,-0.01,26.83,22.733391,-35.67507886891778,-828.953926066973,8.023633840100132,0.05744562646538029,-0.8457065190199843,-1.3777186084848645
24691199,1874,1,195334.0,249400,0.86,-0.27,8.49,-0.04,0.02,-0.02,26.83,22.771705,-20.848269412883045,-770.8069657133734,8.537716322296028,0.048989794855663564,-0.49473416538588216,-1.28126308466387
24731179,1911,1,196296.0,249889,0.46,-1.24,9.23,-0.0,-0.03,-0.08499999999999999,26.83,22.811685,11.868279403255208,-542.4825192601386,9.32427477072614,0.09013878188659973,0.2797145907564211,-0.9025132076305812
24771199,1922,1,196409.0,250779,0.77,0.08,9.94,0.01,0.0,-0.08499999999999999,26.83,22.851705,30.7998139560009,-291.76593592589296,9.970100300398185,0.08558621384311844,0.7278518153956772,-0.4866187356056541
24811148,1957,1,196473.0,249937,0.95,-0.74,10.8,-0.06,0.0,-0.08499999999999999,26.83,22.891654,59.643337956025476,-124.10509344068026,10.866926888499803,0.10404326023342404,1.4106203864364286,-0.20849904907625647
24851179,1957,1,196230.0,250314,0.54,-0.79,10.03,-0.03,-0.02,-0.01,26.83,22.931685,65.0722513907389,-13.918616315513663,10.075544650290622,0.03741657386773942,1.5391307400298404,-0.025719170223310866
24891199,1934,1,197050.0,251519,0.91,-1.13,11.7,-0.06,0.04,-0.02,26.83,22.971705,44.11593235127311,161.88819359195108,11.789614073412242,0.07483314773547883,1.043063893106491,0.2659132356290571
24931179,1916,1,196891.0,252007,0.65,-0.69,10.31,0.01,-0.02,-0.01,26.83,23.011685,18.923099431992906,496.95239074570094,10.353487335192911,0.024494897427831782,0.4467125411444114,0.8217254819372203
24971179,1886,1,197508.0,253369,0.39,-1.42,10.74,-0.06,0.05,-0.01,26.83,23.051685,6.497713749178826,939.8487460249911,10.840484306524317,0.07874007874011811,0.15258541481692264,1.5564122082439482
25011179,1908,1,197951.0,253995,0.47,-0.31,11.8,-0.03,0.02,-0.03,26.83,23.091685,5.944537929601827,1284.7739440665587,11.813424566991571,0.04690415759823429,0.13949093080496344,2.1285821110873746
25051179,1877,1,197935.0,253395,0.92,-0.03,12.140000000000002,-0.02,-0.06,-0.06,26.83,23.131685,5.286322594980676,1288.4829239862042,12.174847021626189,0.08717797887081347,0.12391000721684671,2.1347346528335884
25091199,1919,1,197255.0,252729,0.54,-0.59,10.18,-0.07,-0.08,-0.01,26.83,23.171705,16.7790085500458,844.1776918527262,10.211371112637126,0.10677078252031312,0.3959587612787027,1.3977108489884376
25131199,1884,1,197281.0,250482,0.36,-1.1,10.32,-0.08,-0.04,-0.02,26.83,23.211705,14.323859937915605,92.74065385086206,10.384700284553233,0.0916515138991168,0.3378417881378553,0.15120969607856907
25171199,1871,1,195633.0,248156,1.13,-0.17,8.97,0.0,-0.11,-0.0,26.83,23.251705,-25.910732295221617,-622.8297325606214,9.042494124963532,0.11,-0.6145700962561255,-1.035795024931552
25211179,1822,1,195618.0,247976,1.01,-0.69,8.71,-0.09,0.02,-0.01,26.83,23.291685,-50.119569945677895,-954.9447813210511,8.79547042516772,0.09273618495495703,-1.1876288351656115,-1.5867151556179577
25251179,1869,1,195443.0,248966,0.78,-0.75,7.83,-0.02,-0.02,-0.01,26.83,23.331685,-20.332741270382915,-777.9117394145943,7.904416487002694,0.030000000000000002,-0.48253085717757144,-1.2930486477408307
25291199,1874,1,196590.0,249662,1.15,-0.55,8.43,-0.03,-0.04,-0.08499999999999999,26.83,23.371705,-1.2337244477524072,-275.71199203027635,8.525837202292804,0.09861541461658009,-0.030429081255198217,-0.4599880818547449
25331199,1872,1,196779.0,251001,0.78,0.39,8.66,-0.02,-0.05,-0.08499999999999999,26.83,23.411705,-11.463158599068207,187.14752462337304,8.70379802155358,0.10062305898749054,-0.27257480998249933,0.30781399864723746
25371179,1887,1,197082.0,250797,0.86,-0.61,8.22,-0.08,-0.02,-0.08499999999999999,26.83,23.451685,10.635369528321808,321.2999811996079,8.28734577533724,0.1184271928232701,0.25052980343537146,0.5303491989783569
25411199,1901,1,196477.0,250057,0.45,-0.65,9.41,-0.02,-0.02,-0.01,26.83,23.491705,20.569804216240147,100.87957735046403,9.44315095717526,0.030000000000000002,0.48569246164460755,0.1647107307795947
25451199,1872,1,196081.0,249447,1.25,-0.3,10.32,-0.01,-0.01,-0.01,26.83,23.531705,-4.452607305947423,-252.5160554863697,10.39975480480189,0.017320508075688773,-0.10662476557711077,-0.421510125375932
25491199,1877,1,195906.0,249911,0.57,-1.0,10.99,-0.03,0.05,0.034999999999999996,26.83,23.571705,-1.3158355600249076,-460.6770022496399,11.050113121592918,0.06800735254367722,-0.03237277186640142,-0.7668123223786067
25531170,1882,1,196001.0,250018,0.96,-0.85,9.66,0.01,0.01,0.034999999999999996,26.83,23.611676,4.355974227904105,-392.5319728094002,9.744726779135473,0.03774917217635375,0.10188729511140407,-0.6537717701212864
25571147,1863,1,196230.0,251465,0.23,-0.96,9.96,-0.03,0.05,0.034999999999999996,26.83,23.651653,-13.047337657959273,-126.02497971961667,10.008801127008171,0.06800735254367722,-0.3100746547417879,-0.21168380087730376
25611166,1853,1,196871.0,251650,0.38,-1.16,10.3,-0.05,0.05,-0.02,26.83,23.691672,-26.82050996353986,157.69206869574512,10.372077901751414,0.07348469228349536,-0.6361058697129993,0.2589526065192879
25651180,1839,1,196658.0,251575,0.41,-0.81,11.31,0.0,-0.02,-0.01,26.83,23.731686,-35.7909513518083,336.14101338379896,11.346378276789471,0.022360679774997897,-0.8484493908537463,0.5549678467058605
25691863,1843,1,196502.0,251155,0.47,-0.84,10.39,-0.02,-0.03,-0.01,27.03,23.772369,-38.5866299568902,419.2210262212846,10.434490883603283,0.03741657386773942,-0.9146272090107559,0.6927828951376834
25730199,1854,1,196529.0,251326,0.77,-0.59,11.07,-0.02,-0.07,-0.01,27.03,23.810705,-21.49057654518866,485.60820776212574,11.112420978346709,0.07348469228349536,-0.5099385184633083,0.8029074886088
25770199,1886,1,196738.0,251806,0.53,-1.09,10.95,-0.03,-0.02,-0.02,27.03,23.850705,3.163601905462228,564.7254159155246,11.016873422164746,0.0412310562561766,0.0736620911889746,0.9341489448996158
25810199,1879,1,197001.0,251876,0.09,-0.99,10.58,-0.04,-0.03,-0.02,27.03,23.890705,1.801180474389604,589.6160385271278,10.62659870325402,0.05385164807134504,0.04141157514079828,0.9754380858561343
25850204,1875,1,196564.0,250640,0.8,-0.9,10.76,-0.02,-0.06,-0.01,27.03,23.93071,-10.06408823678509,463.22182798366885,10.827169528551773,0.06403124237432849,-0.23945675991203302,0.7657724436321436
