timestamp_us,ecg,leads,ir,red,accX,accY,accZ,gyroX,gyroY,gyroZ,temp,time_sec,ecg_filtered,ppg_filtered,accel_magnitude,gyro_magnitude,ecg_norm,ppg_norm
1949968,1500.5,1,193950.0,241043,-0.26,-0.93,11.53,-0.02,-0.02,-0.08,27.79,0.030471,11.320628164774966,-126.26888651206512,11.570367323469036,0.08485281374238571,0.12672420089606337,-0.21568723942089485
1990225,1500.5,1,193186.0,240526,0.85,-0.57,10.91,0.04,-0.08,-0.01,27.79,0.070728,10.198872476042705,-611.8167332800246,10.957896695990522,0.09,0.11437293469889959,-1.0570354198440681
2030179,1500.5,1,192906.0,238435,0.53,-0.58,9.88,-0.01,0.02,-0.0,27.79,0.110682,9.329503611338898,-1015.7981226096665,9.911190644922538,0.022360679774997897,0.10480061304335443,-1.7570467762938697
2070182,1500.5,1,192546.0,238935,0.64,-0.05,10.45,0.03,-0.12,0.02,27.79,0.150685,8.400977434579932,-1252.9749619593726,10.469699136078361,0.12529964086141668,0.09457693056473407,-2.168022344517855
2110169,1500.5,1,192473.0,237216,0.37,-1.15,9.7,-0.06,0.11,-0.02,27.79,0.190672,5.358335726218116,-1249.9842918832665,9.77493733995262,0.1268857754044952,0.06107544886060194,-2.1628401676355415
2150182,1500.5,1,192028.0,238656,0.73,0.27,10.33,0.049999999999999996,-0.13,-0.01,27.79,0.230685,6.144922102738854,-990.427391637834,10.359280863071529,0.1396424004376894,0.06973628100173403,-1.7130848506438152
2190170,1500.5,1,192987.0,240489,0.5,-1.07,9.27,-0.09,0.08,-0.04,27.79,0.270673,0.30568498580160336,-557.0992331259041,9.344934456698986,0.1268857754044952,0.005442448802711305,-0.9622219642836843
2230182,1500.5,1,193209.0,241277,-0.33,-0.69,10.24,0.03,-0.12,0.01,27.79,0.310685,0.14687646719223213,-123.47309110208475,10.268524723639711,0.12409673645990855,0.003693862807182874,-0.21084273769633757
2270179,1500.5,1,193074.0,241308,0.82,-0.25,12.905000000000001,-0.03,-0.07,-0.0,27.79,0.350682,-3.5041998804951806,122.74771024765329,12.933442117240098,0.07615773105863909,-0.036506883513452944,0.21580403785189597
2310202,1500.5,1,193071.0,241261,0.03,-0.45,9.87,0.049999999999999996,-0.0,0.01,27.79,0.390705,-11.951096703201799,84.24597480447099,9.880298578484355,0.05099019513592784,-0.12951276014522967,0.14908895452101176
2350169,1500.5,1,192745.0,240436,1.52,-1.16,12.06,-0.02,-0.11,-0.0,27.79,0.430672,-7.355065732214082,-181.41408262426137,12.21063470913777,0.11180339887498948,-0.07890744336967336,-0.3112417984966102
2390215,1500.5,1,192432.0,238572,0.36,-0.34,9.1,-0.01,-0.05,0.01,27.79,0.470718,-26.610930342969084,-484.8584058062742,9.113462569188506,0.05196152422706632,-0.29092714788551693,-0.8370444168551163
2430179,1535.0,1,191759.0,238184,0.64,-0.87,9.33,-0.01,-0.09,0.01,27.79,0.510682,16.043311655086093,-611.971701274084,9.392305361305072,0.09110433579144298,0.17872404501515626,-1.0573039454707258
2470182,1597.0,1,192035.0,237834,0.58,-0.97,8.47,-0.09,0.01,0.0,27.79,0.550685,59.53293603449808,-455.9139471538748,8.545068753380514,0.09055385138137416,0.6575733460887592,-0.7868900030674101
2510168,1500.5,1,192310.0,239499,-0.05,-1.72,9.5,-0.0,-0.07,0.01,27.79,0.590671,-41.55159423705052,-86.87920444849311,9.654579224388808,0.07071067811865477,-0.4554336609986394,-0.1474335388798826
2550202,1500.5,1,192869.0,239523,1.24,-1.25,9.98,-0.08,-0.0,-0.05,27.79,0.630705,-44.764258850193286,294.40609744423045,10.13412551728071,0.09433981132056604,-0.4908072064486107,0.5132504639530014
2590228,1618.0,1,192706.0,239319,0.12,0.36,8.09,0.049999999999999996,-0.13,0.01,27.79,0.670731,48.849325453856,489.24902022530546,8.09889498635462,0.1396424004376894,0.5399397833140747,0.8508706174381674
2630151,1629.0,1,192441.0,238784,1.35,-0.6,7.96,-0.1,0.01,0.0,27.79,0.710654,66.01404200225069,424.07982656095413,8.095931076781719,0.1004987562112089,0.7289345755113678,0.7379466638584694
2670169,1680.0,1,192264.0,238003,0.6,-0.81,9.06,-0.04,0.01,0.08,27.79,0.750672,91.08645441888329,182.28172821365743,9.115903685318314,0.09,1.0049982880233859,0.31896346492462124
2710172,1616.0,1,191898.0,237281,1.07,-1.43,10.52,-0.03,0.08,0.01,27.79,0.790675,20.516602025042094,-62.27873325784259,10.670529508885677,0.08602325267042626,0.2279779072344572,-0.10480630489752749
2748173,1500.5,1,191748.0,237259,0.14,0.7699999999999999,7.53,0.02,-0.01,0.02,27.79,0.828676,-105.15635612040916,-151.9484415503189,7.5705614058668065,0.03,-1.1557638249725923,-0.26018428960725204
2788151,1500.5,1,191878.0,237552,1.37,-0.83,9.53,-0.1,0.04,0.0,27.79,0.868654,-129.40306381682962,-23.151521228511932,9.663679423490827,0.1077032961426901,-1.4227359867110898,-0.037007407497327206
2828169,1500.5,1,191907.0,238073,0.71,0.7699999999999999,8.15,-0.02,0.0,0.01,27.79,0.908672,-134.50942505727687,281.2049751420313,8.21702500908936,0.022360679774997897,-1.4789603746176236,0.4903758074131139
2868150,1500.5,1,192355.0,239517,1.5325000000000002,-0.63,10.42,-0.11,0.08,-0.01,27.79,0.948653,-152.20658714853167,658.2236582525884,10.550917317939707,0.13638181696985854,-1.6738177416174487,1.1436666934340711
2908182,1500.5,1,192850.0,240667,0.67,0.7699999999999999,9.51,-0.03,0.02,0.01,27.79,0.988685,-181.24874951844808,1011.4665840579208,9.56461708590574,0.03741657386773942,-1.9935910059522874,1.7557593941884517
2948150,1500.5,1,192860.0,241422,0.77,-1.17,11.84,-0.11,0.04,-0.08,27.79,1.028653,-167.38444976722002,1287.3888610092893,11.922558450265614,0.14177446878757824,-1.8409359683315591,2.2338723282618558
2988868,1646.0,1,193027.0,241713,-0.35,-1.18,11.98,-0.01,0.09,-0.08,27.73,1.069371,-86.08395209306455,1452.936816554764,12.04306024231383,0.12083045973594571,-0.9457641418617213,2.5207307132760195
3029202,1737.0,1,192709.0,241080,0.63,-0.62,12.63,-0.03,-0.05,-0.08,27.73,1.109705,44.69327056250688,1438.428864846132,12.660892543576855,0.09899494936611665,0.49417889187514613,2.49559160730948
3069199,1971.0,1,192461.0,240203,-0.04,-1.79,11.41,-0.04,0.01,-0.08,27.73,1.149702,202.6442366828607,1118.3163202880203,11.549623370482692,0.09,2.2333226717979104,1.9409066083184154
3109202,1984.5,1,191829.0,238604,0.64,-0.33,11.32,-0.03,-0.08,-0.08,27.73,1.189705,248.24680032347834,389.025057153115,11.34287882329702,0.11704699910719625,2.7354368205881165,0.6772044184695529
3149202,1984.5,1,191222.0,236515,0.68,-2.3499999999999996,11.5,-0.05,-0.09,-0.0,27.73,1.229705,197.38568883294369,-687.3231386588672,11.757333881454588,0.10295630140987,2.175422609460584,-1.1878714995397175
3189202,1861.0,1,189520.0,231320,0.44,0.49,6.944999999999999,-0.04,-0.05,-0.04,27.73,1.269705,68.52376889647046,-1801.0555084900695,6.976154026395919,0.0754983443527075,0.7565683154282313,-3.1177260114549465
3229179,1657.0,1,188500.0,230203,-0.11,-1.77,9.39,-0.11,0.03,0.01,27.73,1.309682,-142.85975974657367,-2495.41650206614,9.555998116366496,0.11445523142259596,-1.5709030387992289,-4.32090168691261
3269181,1635.0,1,188937.0,230931,0.12,-0.94,8.13,0.02,-0.04,0.0,27.73,1.349684,-210.2335555745105,-2429.303467651759,8.185041233860707,0.044721359549995794,-2.31273273963601,-4.206342263825772
3309169,1677.0,1,189425.0,233061,0.3,-1.96,8.96,-0.02,-0.0,-0.08,27.73,1.389672,-141.70290403217663,-1622.8677621009067,9.17677503265717,0.08246211251235322,-1.558165298287856,-2.8089656344989904
3349202,1754.0,1,190948.0,236783,0.59,-2.04,9.6,0.02,-0.09,-0.03,27.73,1.429705,-130.12072887561376,-486.36133298936113,9.832075060738704,0.09695359714832658,-1.430637949919731,-0.8396486608224529
3389179,1776.0,1,191984.0,238302,0.55,-0.14,10.74,-0.02,-0.0,-0.08,27.73,1.469682,-71.7144440388603,413.87575742683265,10.754984890737877,0.08246211251235322,-0.7875464293218861,0.7202652447026593
3429202,1975.0,1,191894.0,238420,0.11,-1.47,10.27,0.0,-0.07,0.07,27.73,1.509705,68.02811049484085,697.2225996999227,10.37525421375303,0.09899494936611666,0.7511107911893243,1.2112433259813165
3469169,1984.0,1,191705.0,236816,1.43,-0.11,8.49,-0.08,0.09,-0.02,27.73,1.549672,100.4529955181394,380.80918677297103,8.610290355150632,0.12206555615733702,1.108130051584426,0.6629681127358563
3509181,1984.5,1,190793.0,234335,-0.03,-0.88,10.81,-0.06,0.03,0.0,27.73,1.589684,65.85960018992398,-175.84064467002923,10.845801030813723,0.0670820393249937,0.7272340698173201,-0.3015842499919505
3549179,1984.5,1,190642.0,234368,1.17,-0.2,7.38,-0.08,-0.01,-0.01,27.73,1.629682,67.56650124130589,-534.1834847001198,7.474844479987527,0.08124038404635961,0.7460281704130235,-0.9225139862349573
3589202,1984.5,1,190895.0,234812,-0.13,-0.28,9.87,-0.07,0.08,0.0,27.73,1.669705,56.64010085191781,-451.8073899240764,9.874826580755734,0.1063014581273465,0.6257213325322691,-0.7797742379042177
3629179,1984.5,1,191274.0,236912,1.18,-0.53,8.6,-0.07,-0.05,0.04,27.73,1.709682,45.62559536576709,7.864781794464569,8.696740768816786,0.09486832980505139,0.5044443997240959,0.01673705926437165
3669182,1984.5,1,191945.0,238106,0.06,-0.59,10.85,-0.07,0.07,-0.0,27.73,1.749685,45.25238548638838,569.6072487036745,10.866195286299616,0.09899494936611666,0.5003351140624138,0.9901138449848349
3709179,1984.5,1,192170.0,239112,0.61,-1.04,9.81,-0.05,-0.04,0.01,27.73,1.789682,36.84610695770969,943.9567429682617,9.883815052903408,0.06480740698407861,0.40777647150045543,1.6387796107551078
3749182,1984.5,1,192191.0,238351,0.28,-0.96,10.18,-0.08,0.01,0.01,27.73,1.829685,34.364342167892005,986.8087504845315,10.22899799589383,0.08124038404635961,0.3804506127009975,1.713032763747718
3789172,1984.5,1,191825.0,237564,0.45,-1.12,10.47,-0.07,-0.01,0.08,27.73,1.869675,36.96347592046667,740.6946799203305,10.539345330711962,0.10677078252031312,0.4090687807945895,1.2865709292980898
3829182,1984.5,1,191720.0,236879,0.51,-0.62,10.2,-0.07,-0.03,0.02,27.73,1.909685,29.314363473129855,371.77444659532074,10.231544360457027,0.07874007874011811,0.32484703361908185,0.6473128848120574
3869179,1941.0,1,191511.0,236583,0.77,-1.19,10.26,-0.07,0.01,-0.0,27.73,1.949682,-2.1054026201341056,68.88471231015446,10.357441769085646,0.07071067811865477,-0.021105207825845462,0.1224712476675565
3909181,1934.0,1,191165.0,236334,0.28,-1.24,9.88,-0.05,0.03,-0.02,27.73,1.989684,-17.277191626777977,-39.50733420160303,9.96144567821358,0.061644140029689765,-0.18815656008601456,-0.06534845272253278
3949181,1951.0,1,191355.0,236582,0.51,-1.45,10.34,-0.05,-0.01,-0.0,27.73,2.029684,14.749164632359939,70.54205226857262,10.453621382085732,0.050990195135927854,0.16447463711242283,0.12534305518897698
3989889,1984.5,1,191592.0,237309,0.29,-0.79,11.45,-0.03,-0.04,0.0,27.73,2.070392,46.005454291030475,317.13983502679474,11.480884112297275,0.05,0.5086268957438834,0.5526430570344596
4028179,1984.5,1,191849.0,238154,0.49,-1.4,10.25,-0.06,-0.05,0.0,27.73,2.108682,57.83527542414822,556.6086646255307,10.356765904470372,0.07810249675906655,0.6388809888121336,0.9675901428718063
4068182,1984.5,1,192106.0,238706,0.59,-1.02,10.64,-0.04,-0.02,-0.0,27.73,2.148685,65.43735010172003,662.2858117758673,10.705050210064407,0.044721359549995794,0.7225848192776799,1.1507055166894105
4108199,1984.5,1,192031.0,238106,0.4,-0.54,10.55,-0.03,0.03,-0.01,27.73,2.188702,71.90425133005003,599.5660828503611,10.571381177499939,0.04358898943540673,0.793789645198499,1.0420259495584552
4148181,1984.5,1,191837.0,237697,0.35,-1.0,9.7,-0.04,-0.02,-0.0,27.73,2.228684,87.4791984238265,445.65260591670625,9.75768927564308,0.044721359549995794,0.965280032538884,0.7753275703508969
4188198,1984.5,1,191692.0,237426,0.65,-0.36,9.9,-0.04,0.0,-0.01,27.73,2.268701,93.2674697732544,330.4971787932949,9.927844680493344,0.04123105625617661,1.0290126981953398,0.5757884111906739
4228186,1984.5,1,191695.0,237560,0.34,-0.79,9.71,-0.05,-0.01,-0.0,27.73,2.308689,107.84289501905874,333.1643361705198,9.748015182589738,0.050990195135927854,1.1894976941317044,0.5804100113505091
4268198,1984.5,1,191854.0,238016,0.53,-0.68,9.12,-0.05,-0.05,-0.01,27.73,2.348701,122.50753124014692,409.23459432125486,9.160660456539146,0.07141428428542851,1.3509649614436519,0.7122231245286795
4308201,1935.0,1,192038.0,238121,0.34,-1.05,10.22,-0.04,-0.01,-0.0,27.73,2.388704,77.36888153643478,409.19043016509374,10.279421189930881,0.04123105625617661,0.8539588095059242,0.7121465977091839
4348203,1854.0,1,191712.0,237040,0.8,-0.85,7.77,-0.03,-0.05,-0.0,27.73,2.428706,22.818037038724857,181.23351195676122,7.8571877920793005,0.05830951894845301,0.2533182168713925,0.31714713550147566
4388202,1753.0,1,191260.0,235698,0.72,-0.45,10.1,-0.05,-0.02,-0.01,27.73,2.468705,-79.93882420972473,-312.706285149048,10.135625289048525,0.05477225575051661,-0.8781022516077736,-0.5387424586957468
4428199,1600.0,1,190556.0,234386,0.74,-0.73,8.0,-0.04,0.0,-0.0,27.73,2.508702,-208.68956367052897,-949.3712091977337,8.067248601598937,0.04,-2.29573237564954,-1.6419434695811002
4468182,1556.0,1,190202.0,233381,0.53,-1.01,9.08,-0.05,0.05,-0.01,27.73,2.548685,-242.06603541749723,-1497.7040634069722,9.151360554584219,0.07141428428542851,-2.6632292302764253,-2.5920843305201027
4508179,1500.5,1,189912.0,233439,0.67,-1.0,9.27,-0.03,-0.0,-0.0,27.73,2.588682,-294.64053445154394,-1739.9742735421557,9.347823276035976,0.03,-3.242108962534266,-3.0118855958841473
4548201,1517.0,1,190065.0,234315,0.31,-1.22,9.61,-0.01,0.01,-0.0,27.73,2.628704,-244.9297924238033,-1588.5727577491987,9.692089557984904,0.01414213562373095,-2.6947610740318626,-2.7495398957155093
4588182,1821.0,1,190579.0,236072,0.56,-0.91,10.04,-0.01,0.0,0.0,27.73,2.668685,42.32345689633957,-1131.8588517126377,10.096697479869345,0.01,0.4680856884062264,-1.9581546257043045
4628172,1984.5,1,191188.0,237599,0.51,-0.94,10.87,-0.0,0.01,-0.0,27.73,2.708675,245.5212784609904,-582.617627957733,10.922481403051231,0.01,2.7054270364720914,-1.0064397590942125
4668179,1984.5,1,191767.0,238570,0.55,-0.87,11.21,-0.01,0.01,-0.0,27.73,2.748682,232.99829417315763,-158.60224631355533,11.25715328135848,0.01414213562373095,2.5675407622364546,-0.27171387740730946
4708181,1918.0,1,191933.0,238727,0.6,-1.03,10.13,-0.02,-0.0,-0.0,27.73,2.788684,187.2244940479438,31.92746661556702,10.199892156292634,0.02,2.063541187390327,0.0584324271361313
4748199,1893.0,1,191888.0,238795,0.27,-1.42,10.77,-0.0,-0.0,0.0,27.73,2.828702,170.98302487132017,27.345777426799764,10.866563394192296,0.0,1.8847119545649353,0.050493362247072
4788182,1735.0,1,191756.0,238535,0.31,-0.32,10.47,0.0,-0.04,0.0,27.73,2.868685,10.155836598852444,-46.41084615994216,10.479475177698548,0.04,0.11389908145211454,-0.07731072845568825
4828169,1500.5,1,191802.0,239087,0.22,-0.56,12.05,-0.0,-0.03,0.0,27.73,2.908672,-204.0895283160006,-78.81767921674643,12.065011396596358,0.03,-2.2450829679836386,-0.13346467951759008
4868182,1500.5,1,192074.0,239337,0.53,-0.81,10.23,-0.01,-0.03,-0.0,27.73,2.948685,-212.24200824541597,-39.559613870032045,10.275694623722524,0.03162277660168379,-2.3348471214322757,-0.06543904194911193
4908199,1500.5,1,192147.0,239907,0.51,-0.79,10.82,-0.03,-0.07,-0.0,27.73,2.988702,-198.66287277700542,36.496794186342335,10.860782660563649,0.07615773105863909,-2.1853319296820706,0.06635007204593658
4948202,1500.5,1,192302.0,239683,0.49,0.08,9.97,-0.04,-0.05,-0.01,27.73,3.028705,-205.11381360545113,111.72762354146005,9.982354431695962,0.06480740698407861,-2.2563610211274026,0.1967086387885938
4988179,1500.5,1,192117.0,239640,0.57,0.23,9.77,-0.03,-0.11,0.03,27.73,3.068682,-187.06287191069524,186.6654989595038,9.789315604269788,0.11789826122551596,-2.0576083085529033,0.32655958045671785
5028860,1500.5,1,192222.0,239360,1.24,-0.47,8.48,-0.11,-0.02,0.06,27.55,3.109363,-221.53620309065744,285.15698219661914,8.583058895289023,0.1268857754044952,-2.437182305265057,0.4972237709382946
5067182,1500.5,1,192647.0,239703,0.66,-0.1,10.1,-0.05,-0.07,0.08,27.55,3.147685,-158.54477753076443,413.8740709882392,10.122035368442456,0.11747340124470732,-1.7436053766663357,0.7202623224735701
5107181,1666.0,1,192858.0,239532,1.11,-0.74,8.48,-0.06,-0.02,-0.0,27.55,3.187684,-92.38801054771157,548.3592655084859,8.584293797395334,0.06324555320336758,-1.015175961991488,0.9532957391731591
5147199,1500.5,1,192865.0,240139,0.83,-0.73,9.04,-0.04,-0.04,-0.0,27.55,3.227702,-131.18614945198456,657.4506768048528,9.107326720833067,0.0565685424949238,-1.4423689295642945,1.1423272857137359
5187202,1595.0,1,192835.0,240145,0.67,-0.91,8.73,-0.03,0.03,-0.01,27.55,3.267705,-190.4585077356183,729.6999324617248,8.802834770686088,0.04358898943540673,-2.094996487105088,1.2675194376066212
5227182,1533.0,1,192853.0,241076,0.76,-0.95,11.48,-0.01,-0.06,-0.0,27.55,3.307685,-102.32607064222003,768.2243495342769,11.544284300033501,0.0608276253029822,-1.1246005247047883,1.3342738232384557
5267203,1984.5,1,193003.0,241650,1.1,-0.64,9.47,-0.0,-0.05,0.01,27.55,3.347706,203.85767388999918,764.6853865815948,9.555129512466067,0.050990195135927854,2.2466834116715346,1.3281415747676946
5307179,1984.5,1,192951.0,241658,0.33,-1.33,10.3,-0.01,0.01,0.0,27.55,3.387682,308.9549086370042,690.0823000533181,10.390755506699213,0.01414213562373095,3.4038729280564124,1.1988707489936197
5347173,1984.5,1,192664.0,241557,0.95,-0.87,9.42,-0.02,0.02,-0.0,27.55,3.427676,229.41533568732373,519.5877395154729,9.507670587478302,0.0282842712474619,2.528090038271832,0.9034409798464478
5387179,1984.5,1,192486.0,240931,0.61,-0.49,10.54,-0.02,0.01,0.0,27.55,3.467682,258.7821851058352,269.02337321740606,10.569001845018288,0.022360679774997897,2.8514383200621216,0.46926775661617404
5427173,1984.5,1,192176.0,240242,0.72,-0.96,10.18,-0.02,-0.01,0.0,27.55,3.507676,245.2420191906127,5.494048541590572,10.2504829154533,0.022360679774997897,2.7023522086632314,0.012629097254342468
5467179,1984.5,1,191874.0,239177,-0.03,-1.67,9.84,-0.01,0.03,-0.08,27.55,3.547682,226.054394902738,-184.28794758035414,9.980751474713715,0.08602325267042626,2.4910838748796618,-0.31622157766293835
5507202,1984.5,1,191883.0,239614,0.66,-0.14,10.53,0.03,-0.05,-0.08,27.55,3.587705,237.19688547105062,-248.87343407806839,10.551592296900028,0.09899494936611665,2.613770007422613,-0.4281340944381709
5547179,1984.5,1,191827.0,239633,0.64,-0.31,9.71,-0.02,-0.0,-0.06,27.55,3.627682,212.6693815099185,-209.5554983225629,9.736005341001002,0.06324555320336758,2.343706094559107,-0.36000471455092253
5587202,1984.5,1,191830.0,240064,0.6,-0.57,9.79,-0.03,-0.05,0.0,27.55,3.667705,215.93583494198967,-148.61878509475298,9.824917302450947,0.05830951894845301,2.379671890200175,-0.2544147234996642
5627179,1981.0,1,191904.0,239914,0.84,0.14,9.78,-0.05,-0.02,-0.01,27.55,3.707682,200.32528760728272,-150.91451251018137,9.817005653456658,0.05477225575051661,2.2077895208472786,-0.2583927168047016
5667186,1936.0,1,191779.0,239526,0.38,-0.3,9.86,-0.05,-0.02,-0.0,27.55,3.747689,149.33741989881,-238.75494508419635,9.871879253718614,0.05385164807134505,1.646379640586418,-0.41060096694045073
5707199,1894.0,1,191583.0,238935,0.8,-0.59,9.48,-0.04,-0.02,-0.0,27.55,3.787702,97.91466987862857,-352.31374600109893,9.531972513598642,0.044721359549995794,1.0801814207162235,-0.6073735222271237
5747202,1775.0,1,191281.0,238003,0.56,-0.49,9.31,-0.01,-0.02,0.0,27.55,3.827705,-20.049141018919514,-398.0770207624327,9.339689502333577,0.022360679774997897,-0.218677541767952,-0.6866712643692162
5787179,1625.0,1,191307.0,238327,0.75,-0.82,10.89,-0.03,-0.01,0.0,27.55,3.867682,-191.8711792505176,-330.6676949153375,10.946551968542424,0.03162277660168379,-2.110550927439053,-0.5698656518584683
5827182,1500.5,1,191517.0,238860,0.84,-0.33,9.36,-0.01,-0.05,-0.08,27.55,3.907685,-299.177805164284,-196.42838221450208,9.403408956330676,0.09486832980505139,-3.292067290309703,-0.3372582945528975
5867237,1500.5,1,191731.0,239463,0.67,-1.77,10.29,-0.03,-0.06,0.0,27.55,3.94774,-330.6637573256578,-94.29101597869293,10.462595280330783,0.0670820393249937,-3.6387482837939378,-0.1602765865549621
5907182,1500.5,1,191599.0,238703,0.46,-0.58,9.51,-0.01,-0.03,0.0,27.55,3.987685,-313.2528866105315,-86.31358052495249,9.538768264299117,0.03162277660168379,-3.447043172701557,-0.14645343637908384
5947179,1500.5,1,191240.0,238012,0.42,-0.93,10.06,-0.01,-0.02,0.01,27.55,4.027682,-325.24808258424764,-142.82976310045612,10.111622026163756,0.024494897427831782,-3.5791181512790686,-0.24438361502342992
5987182,1500.5,1,191040.0,237629,0.56,-1.31,9.18,-0.04,0.03,0.0,27.55,4.067685,-343.63920620986966,-175.67184771425386,9.289892356749888,0.05,-3.781616490130125,-0.30129176180042017
6027170,1500.5,1,191074.0,237984,0.97,-0.01,10.73,-0.01,-0.08,0.0,27.55,4.107673,-301.7851918227475,-124.9137250013421,10.77375978941428,0.0806225774829855,-3.3207763283124536,-0.2133390410325881
6067894,1500.5,1,191569.0,239237,0.12,-1.46,10.76,-0.03,0.04,0.01,27.47,4.148397,-376.3681428703349,-13.2338863654318,10.859263326763928,0.05099019513592785,-4.14198355856048,-0.019822316261320687
6106172,1500.5,1,191324.0,238315,0.76,-0.17,8.82,-0.01,-0.05,0.0,27.47,4.186675,-283.2130254683517,77.9082653906437,8.854315332085253,0.050990195135927854,-3.1162845902225014,0.13810709079971584
6146182,1984.5,1,191143.0,238201,0.7,-1.34,10.41,-0.04,-0.01,0.08,27.47,4.226685,99.64870792163094,74.11483122280772,10.519206243818969,0.09,1.0992743173961912,0.13153389939147725
6186182,1984.5,1,190782.0,235982,0.89,-0.1,9.45,-0.03,-0.04,0.01,27.47,4.266685,193.50676890101224,-49.56285600830847,9.492344283684615,0.05099019513592785,2.1327131557729326,-0.08277247186213417
6226182,1984.5,1,190466.0,236505,0.74,-1.31,11.12,0.0,-0.04,0.02,27.47,4.306685,124.03317147393808,-268.46379164768416,11.221323451358131,0.044721359549995794,1.3677632614994812,-0.4620798977297512
6266169,1984.5,1,190669.0,236264,0.65,-1.32,8.07,-0.03,0.02,0.0,27.47,4.346672,170.0074215616582,-518.269722948258,8.203036023326973,0.03605551275463989,1.8739699219623753,-0.8949389190551922
6306173,1984.5,1,190289.0,234996,1.03,0.1,9.31,-0.02,-0.02,-0.0,27.47,4.386676,157.89760611256148,-695.4447880475558,9.367336868075153,0.0282842712474619,1.7406329077508793,-1.2019445409108054
6346179,1984.5,1,189980.0,234565,0.59,-0.54,7.92,-0.06,0.05,0.0,27.47,4.426682,158.01728281477992,-676.9189123464159,7.9602826582980075,0.07810249675906655,1.7419506267707572,-1.169843251788317
6386173,1984.5,1,189965.0,235193,0.4,-0.65,8.45,-0.05,0.04,-0.08,27.47,4.466676,177.84565637192765,-388.5181412009741,8.484397444721692,0.10246950765959599,1.9602740304504942,-0.670107817575144
6426179,1984.5,1,190652.0,237171,0.84,-0.38,10.53,-0.04,-0.01,-0.08,27.47,4.506682,169.65161297999234,114.05988075929191,10.57028381832768,0.09,1.870052236006749,0.20074993024846388
6466201,1984.5,1,191393.0,238260,0.59,-0.43,10.23,-0.03,-0.0,-0.08,27.47,4.546704,183.84534876892423,636.621277779975,10.256017745694477,0.08544003745317531,2.0263345805691673,1.1062344946828568
6506202,1984.5,1,191525.0,238095,0.81,-0.68,11.17,-0.01,-0.04,0.0,27.47,4.586705,193.72096404776528,949.4212984408741,11.219955436631645,0.04123105625617661,2.1350715848874553,1.6482484897426428
6546182,1984.5,1,191247.0,237154,0.52,-1.11,9.38,-0.06,0.05,0.0,27.47,4.626685,192.21349170597634,938.5248605967033,9.459751582361982,0.07810249675906655,2.118473325243825,1.6293673471028145
6586168,1984.5,1,190974.0,236571,0.37,-0.91,10.27,-0.06,0.01,0.01,27.47,4.666671,211.48947449006306,691.6271599052287,10.316874526715928,0.06164414002968976,2.330714544049025,1.2015476531011462
6626174,1984.5,1,190865.0,236466,0.8,-0.74,10.35,-0.04,-0.03,-0.0,27.47,4.706677,217.23530825935836,451.7812241008805,10.407213844252457,0.05,2.393979944101886,0.7859471247204327
6666199,1984.5,1,190855.0,236802,-0.13,-1.28,10.69,-0.05,0.02,0.0,27.47,4.746702,213.6702316089083,463.9392405288763,10.767144468242265,0.05385164807134505,2.354726110878392,0.8070143070122282
6706182,1984.5,1,191108.0,237171,1.13,-1.32,10.09,-0.02,-0.05,-0.02,27.47,4.786685,257.817581881123,802.8301479748228,10.238525284434278,0.057445626465380296,2.840817405612802,1.3942381001760455
6746202,1981.0,1,191294.0,237923,0.16,-0.66,11.08,-0.01,-0.05,-0.0,27.47,4.826705,205.13498073403795,1285.464494088583,11.100792764483085,0.050990195135927854,2.260747398156873,2.2305378214403757
6786202,1712.0,1,191143.0,238647,0.26,-1.79,9.49,-0.05,-0.03,-0.01,27.47,4.866705,23.944468682500126,1543.2257322604532,9.660838472927699,0.05916079783099616,0.26572096840180864,2.67718164895006
6826202,1642.0,1,192274.0,239533,1.21,-0.7,9.59,-0.04,-0.13,0.08,27.47,4.906705,-127.50547487612603,1247.6981183580017,9.691346655651111,0.157797338380595,-1.401842287329978,2.1650969555944863
6866182,1500.5,1,191231.0,232992,0.75,-1.25,8.89,-0.09,0.06,0.01,27.47,4.946685,-169.1758685242274,361.0555458866018,9.008723549981985,0.10862780491200215,-1.8606606643243169,0.6287393751827847
6906169,1663.0,1,188384.25,228540,0.36,-0.72,7.18,0.01,0.05,0.01,27.47,4.986672,-79.92188541337792,-788.2044055510092,7.224984429048965,0.05196152422706632,-0.8779157443452382,-1.36267666221002
6946152,1617.0,1,188384.25,226418,0.52,-1.1,11.18,-0.11,0.11,-0.08,27.47,5.026655,-55.049250064565115,-1700.770403116178,11.246012626704632,0.17492855684535902,-0.6040517084379536,-2.9439538662554394
6986182,1562.0,1,188384.25,225036,-0.29,-0.73,6.944999999999999,0.04,0.05,-0.08,27.47,5.066685,-145.4950310090604,-2039.7959427672683,6.989279290456205,0.10246950765959599,-1.5999191045893604,-3.531410947573201
7026184,1500.5,1,188384.25,228745,1.44,-0.96,12.905000000000001,-0.11,-0.03,-0.02,27.47,5.106687,-178.6326632777717,-1837.5230357778212,13.02053090315445,0.11575836902790225,-1.9647861798409545,-3.180916257137871
7066202,1507.0,1,188637.0,231068,0.19,0.08,6.944999999999999,0.01,-0.02,0.03,27.47,5.146705,-175.08489757783022,-1420.200250529246,6.948059081498947,0.03741657386773942,-1.925722951541514,-2.4577871806622937
7106839,1500.5,1,189521.0,232556,0.41,-2.3499999999999996,12.02,-0.07,0.01,0.08,27.67,5.187342,-177.0225652591674,-1129.5897968282807,12.254427771218042,0.10677078252031312,-1.9470579441555331,-1.9542228500596555
7145173,1500.5,1,189229.0,231263,0.86,-0.07,8.3,-0.03,0.08,0.01,27.67,5.225676,-173.49495900681995,-1065.8331458952111,8.34472887516425,0.08602325267042626,-1.90821668460216,-1.843746523968463
7185173,1514.0,1,189095.0,231653,-0.17,-0.99,11.72,-0.01,0.11,0.02,27.67,5.265676,-154.9956115376848,-1042.0478412938814,11.762967312714935,0.11224972160321824,-1.7045267302206117,-1.8025317953266877
7225182,1531.0,1,189357.0,232481,0.73,-2.11,9.73,-0.07,0.07,0.0,27.67,5.305685,-144.64325753026273,-771.4840095560348,9.982880345872127,0.09899494936611666,-1.5905405196782343,-1.3337038743787735
7265173,1500.5,1,190114.0,235780,-0.09,-0.86,11.81,-0.01,-0.01,-0.07,27.67,5.345676,-164.47003872600985,-129.4068910499327,11.84161306579471,0.07141428428542851,-1.8088463904140881,-0.22112471468861294
7305232,1500.5,1,191432.0,238309,0.01,-1.43,12.69,-0.01,-0.0,-0.08,27.67,5.385735,-175.3980574252338,719.2469440736194,12.770321060960056,0.0806225774829855,-1.9291710469480245,1.2494066958472703
7345202,1500.5,1,192039.0,239206,0.28,0.7699999999999999,11.15,-0.02,-0.07,-0.08,27.67,5.425705,-172.5190241897087,1417.544407115389,11.180062611631476,0.10816653826391968,-1.8974710018850576,2.4594034115881995
7385182,1500.5,1,192086.0,239560,-0.04,-1.89,12.59,-0.05,-0.02,0.03,27.67,5.465685,-171.5329612548482,1649.4371962776672,12.731135063300522,0.061644140029689765,-1.886613801945753,2.8612228769892596
7425203,1500.5,1,191826.0,237376,0.39,0.26,10.29,-0.03,-0.04,-0.04,27.67,5.505706,-188.84470748372297,1329.5690883678287,10.30066988112909,0.06403124237432849,-2.077227487401832,2.3069614332268347
7465182,1535.0,1,191064.0,237408,0.78,-2.32,12.905000000000001,-0.0,-0.13,0.08,27.67,5.545685,-136.0285220722514,632.7771663110848,13.135060905835193,0.15264337522473748,-1.4956866295408073,1.0995734906001011
7505205,1680.0,1,190786.0,235218,0.86,-0.88,6.944999999999999,-0.11,0.03,-0.02,27.67,5.585708,-24.18075998005237,-124.61636934575178,7.0531570945215725,0.11575836902790225,-0.26416937758103615,-0.21282378874296357
7545179,1677.0,1,190085.0,233334,-0.44750000000000006,-1.39,10.52,-0.01,-0.11,0.08,27.67,5.625682,-1.9892907039130694,-655.6406390546182,10.620864195064353,0.13638181696985854,-0.01982673943891037,-1.1329726598667007
7585203,1759.0,1,189754.0,232202,1.05,-0.77,8.73,-0.11,-0.04,0.02,27.67,5.665706,44.599381718485866,-828.0724538441474,8.826567849396502,0.11874342087037917,0.493145114095282,-1.4317592667601848
7625179,1819.0,1,190052.0,233805,-0.17,-0.9,10.71,-0.01,-0.05,0.08,27.67,5.705682,127.47198768559826,-691.150726114829,10.749092984991805,0.09486832980505139,1.4056268844433848,-1.1945038711235276
7665202,1857.0,1,190754.0,234672,1.53,-0.86,8.86,-0.05,-0.04,-0.02,27.67,5.745705,131.0745849795527,-404.0519684928251,9.032170281831492,0.0670820393249937,1.4452938445718424,-0.697024541465493
7705217,1837.0,1,190907.0,234863,0.56,-0.72,9.64,-0.03,-0.03,0.02,27.67,5.78572,136.508250572207,-119.0021111542141,9.683057368414172,0.0469041575982343,1.5051220681639952,-0.20309550769853443
7745182,1840.0,1,190891.0,235270,1.15,-1.29,7.34,-0.09,0.01,0.08,27.67,5.825685,98.93716955857334,100.14404138431453,7.540702885010123,0.12083045973594571,1.0914398131276632,0.176636825401778
7785173,1745.0,1,191218.0,235549,0.42,-1.06,9.36,-0.07,0.0,0.02,27.67,5.865676,38.47846706371378,274.30832017729455,9.429188724381328,0.07280109889280519,0.42574982737589795,0.47842541334955896
7825173,1795.0,1,191512.0,236538,0.47,-1.6,8.42,-0.07,0.06,0.08,27.67,5.905676,42.16348245788708,445.40682898479236,8.58354821737491,0.12206555615733702,0.4663242648681817,0.7749016927039623
7865170,1728.0,1,191913.0,237624,0.24,0.01,10.29,-0.03,0.06,-0.01,27.67,5.945673,12.501902311193886,621.6503967983487,10.292803311051854,0.06782329983125268,0.13973080436667867,1.0802932335752926
7905174,1774.0,1,192048.0,237896,0.79,-0.69,9.18,-0.02,0.07,-0.02,27.67,5.985677,18.416791645179885,773.4113996975163,9.239729433268053,0.07549834435270751,0.20485761711624417,1.3432618462430985
7945179,1837.0,1,191908.0,238106,0.66,-0.11,8.67,-0.02,0.05,-0.01,27.67,6.025682,109.68006708609764,863.0281270931652,8.695780586008365,0.05477225575051661,1.2097261640899315,1.4985480266508582
7985182,1913.0,1,192092.0,238655,0.81,-1.53,10.42,-0.05,0.01,-0.08,27.67,6.065685,161.69338513261394,870.0706392647467,10.56283105990056,0.09486832980505139,1.782426925444038,1.5107511593402712
8025186,1933.0,1,192156.0,239281,0.09,-1.21,9.35,0.0,0.03,-0.03,27.67,6.105689,196.02423354797773,796.789131938989,9.428398591489437,0.042426406871192854,2.1604320934248205,1.3837703411622053
8065173,1945.0,1,192134.0,238733,0.65,-1.36,10.32,-0.05,-0.0,-0.02,27.67,6.145676,201.38180360269115,662.6232243028209,10.429501426242771,0.05385164807134505,2.2194224552125132,1.151290178772651
8105202,1856.0,1,191803.0,238195,0.01,-1.14,10.57,0.01,-0.02,-0.0,27.67,6.185705,114.6763664094725,495.1193460404964,10.63130283643543,0.022360679774997897,1.2647386980699942,0.8610426076467089
8145869,1791.0,1,191674.0,237776,0.61,-0.74,10.48,-0.05,0.02,-0.01,27.43,6.226372,56.95229843663153,316.9446123413955,10.523787341066903,0.05477225575051661,0.6291588327951548,0.5523047788354493
8186179,1825.0,1,191482.0,237803,0.63,-0.72,10.74,-0.03,-0.02,-0.01,27.43,6.266682,85.77163163273353,135.80237711844438,10.782527533004496,0.03741657386773942,0.9464786017121223,0.23842491917364905
8226202,1811.0,1,191577.0,238038,1.13,-1.09,10.06,-0.05,-0.02,-0.01,27.43,6.306705,87.29028054095328,-49.19790321197541,10.181777840829175,0.05477225575051661,0.9631999226859008,-0.08214008851787868
8266202,1777.0,1,191451.0,236832,0.28,-1.06,10.58,-0.04,-0.02,-0.01,27.43,6.346705,46.65356554154204,-226.99378585683132,10.636653609100938,0.0458257569495584,0.5157630258842099,-0.3902214513448648
8306203,1721.0,1,191023.0,236660,0.4,-1.2,11.68,-0.02,-0.04,-0.0,27.43,6.386706,7.617975858227181,-365.55646652698243,11.748293493099327,0.044721359549995794,0.08595556942569554,-0.6303202593869515
8346199,1680.0,1,191034.0,236895,0.09,-1.06,11.26,-0.02,-0.03,0.0,27.43,6.426702,-35.451472716276626,-433.9005892684196,11.310141466842932,0.03605551275463989,-0.38826732032843936,-0.7487456703817317
8386182,1683.0,1,191172.0,237166,0.54,-0.97,10.29,-0.03,-0.03,-0.01,27.43,6.466685,-20.43125793816097,-436.9568244132132,10.349714971920724,0.04358898943540673,-0.22288489978306955,-0.7540414571824222
8426202,1739.0,1,191293.0,237302,1.06,-0.57,11.34,-0.03,-0.07,-0.01,27.43,6.506705,42.539812023804835,-422.52512444524365,11.403687999941072,0.07681145747868609,0.4704679003257084,-0.7290344787985453
8466202,1769.0,1,191283.0,237274,0.55,-0.85,9.4,-0.05,-0.02,-0.01,27.43,6.546705,76.29179342595044,-445.54490022785916,9.454364071686685,0.05477225575051661,0.8420993626548661,-0.7689227134954415
8506199,1783.0,1,191149.0,236612,0.55,-0.42,9.12,-0.04,-0.02,-0.01,27.43,6.586702,104.38354469953279,-521.3015335066458,9.146217797537952,0.0458257569495584,1.1514079771863002,-0.9001923833917487
8544202,1746.0,1,190984.0,236657,0.57,-0.33,9.63,-0.05,-0.04,-0.0,27.43,6.624705,69.43871906824587,-611.6358742142892,9.652497086246647,0.06403124237432849,0.766642517183794,-1.0567220306551706
8584199,1709.0,1,191120.0,236563,0.78,-0.25,8.51,-0.06,-0.03,-0.01,27.43,6.664702,39.69971326652368,-654.5721505646065,8.549327458929152,0.06782329983125268,0.439196549415906,-1.131121203099137
8624202,1757.0,1,191102.0,236737,0.91,-0.69,8.45,-0.05,-0.03,-0.01,27.43,6.704705,104.14436373127191,-607.6730970841223,8.526822385859811,0.05916079783099616,1.14877443778199,-1.0498554049455076
8664199,1696.0,1,191422.0,236615,0.96,-0.63,8.82,-0.07,-0.01,-0.01,27.43,6.744702,28.24236824482573,-469.52750624354513,8.894430841824564,0.07141428428542851,0.3130436627426326,-0.8104793223186829
8704202,1506.0,1,191567.0,237250,0.57,-0.55,9.61,-0.06,-0.01,0.05,27.43,6.784705,-125.67591277858502,-271.18896746615815,9.64258782692696,0.07874007874011811,-1.3816976081293684,-0.46680203115381735
8744187,1500.5,1,191757.0,237968,0.87,-0.82,9.93,-0.07,-0.01,0.02,27.43,6.82469,-161.32885299085694,-56.58036455194783,10.001709853819996,0.07348469228349536,-1.7742598743131948,-0.09493227873512523
8784182,1500.5,1,191918.0,238642,0.62,-0.72,8.18,-0.04,0.01,-0.0,27.43,6.864685,-127.05370033270738,128.63783054051027,8.234998482088505,0.04123105625617661,-1.3968679531653152,0.22601032755919456
8824179,1637.0,1,192178.0,239261,0.92,-1.04,9.22,-0.07,-0.0,-0.0,27.43,6.904682,-8.249005759469743,240.4133522695679,9.32396911191795,0.07,-0.08875030964781337,0.4196928501953946
8864202,1685.0,1,192133.0,239438,0.62,-0.74,8.89,-0.01,0.02,0.0,27.43,6.944705,45.78766680616798,245.736836101621,8.942264813792981,0.022360679774997897,0.5062289126295856,0.4289172828963608
8904169,1615.0,1,192194.0,239512,0.58,-1.31,9.53,-0.02,0.03,0.0,27.43,6.984672,-16.015194575213837,142.1398567186148,9.637084621398735,0.03605551275463989,-0.17426114446167276,0.24940638467816093
8944182,1574.0,1,191930.0,238773,0.7,-0.81,9.9,0.01,0.01,0.01,27.43,7.024685,-75.78861742907421,-28.42218710384648,9.9577156014821,0.017320508075688773,-0.8324057517050008,-0.046140318235886074
8984154,1500.5,1,191702.0,239105,0.67,-1.2,11.71,-0.01,0.01,0.0,27.43,7.064657,-135.7884224362953,-190.8837894012991,11.790377432465851,0.01414213562373095,-1.493042975002369,-0.32765072836631515
9024235,1500.5,1,191791.0,239511,0.55,-1.69,9.25,0.02,-0.0,-0.02,27.43,7.104738,-150.51990970980094,-274.14556345866873,9.41918786308034,0.0282842712474619,-1.6552463162671949,-0.4719251651046801
9064184,1500.5,1,191870.0,239881,0.43,-1.57,10.57,-0.0,-0.03,-0.0,27.43,7.144687,-157.71122808306228,-251.6210505936151,10.694610792357055,0.03,-1.734427450295663,-0.43289511268023234
9104205,1500.5,1,191815.0,239508,0.02,-0.37,10.41,0.01,-0.02,0.01,27.43,7.184708,-157.4223293716238,-158.3057622501098,10.416592533069535,0.024494897427831782,-1.7312464859155963,-0.2712001353961672
9144211,1500.5,1,191922.0,240386,0.43,-0.67,12.17,-0.02,-0.02,0.08,27.43,7.224714,-173.94209409997777,-71.83438529062748,12.196011643156135,0.08485281374238571,-1.9131399353751755,-0.12136415909059252
9184871,1500.5,1,192184.0,240238,0.93,-0.07,10.94,-0.01,-0.01,-0.0,27.31,7.265374,-191.6345364973463,-65.39100765733778,10.979681233988535,0.01414213562373095,-2.1079453354483837,-0.1101991954652088
9225200,1500.5,1,192021.0,239848,0.43,-0.93,10.95,-0.02,-0.04,0.02,27.31,7.305703,-170.98698697284783,-158.4855579405604,10.997831604457307,0.048989794855663564,-1.8806022668481124,-0.27151168198836295
9265187,1500.5,1,191767.0,238772,1.12,-0.15,9.79,-0.04,-0.06,0.01,27.31,7.34569,-249.9274306215177,-298.8753578934046,9.854998731608237,0.07280109889280519,-2.749788349896935,-0.5147764879730675
9305184,1500.5,1,191612.0,238164,0.3,-0.69,10.16,-0.06,-0.03,0.08,27.31,7.385687,-167.9237005589875,-391.35426597821265,10.187821160581883,0.1044030650891055,-1.846873473389972,-0.6750222012690811
9345187,1743.0,1,191820.0,237870,0.56,-0.53,8.49,-0.08,-0.05,0.08,27.31,7.42569,-56.34200825293804,-352.73984941092397,8.524939882485976,0.12369316876852982,-0.6182858243631443,-0.6081118662047869
9385184,1500.5,1,192140.0,238250,0.72,-0.74,9.43,-0.08,-0.08,0.03,27.31,7.465687,-197.74783903774738,-152.8392543335674,9.486353356269204,0.11704699910719625,-2.17525680779369,-0.26172787325049696
9425186,1777.0,1,192413.0,238650,0.83,-0.33,8.38,-0.05,-0.03,0.0,27.31,7.505689,-37.61554415583476,179.14742988859695,8.427466997858847,0.05830951894845301,-0.4120951668801867,0.3135324117127773
9465185,1984.5,1,192579.0,239146,1.13,-0.83,8.71,-0.07,-0.02,-0.0,27.31,7.545688,222.46014663424083,570.666543001811,8.822125594209142,0.07280109889280519,2.451508842999882,0.9919493702295709
9505207,1984.5,1,193008.0,240033,0.9,-0.88,9.09,-0.05,0.0,-0.0,27.31,7.58571,170.88154270952313,926.6638366841903,9.17673689281762,0.05,1.8835945693738376,1.6088147878582926
9545185,1984.5,1,193344.0,240986,0.7,-0.24,9.34,-0.05,-0.02,-0.0,27.31,7.625688,158.54929592417463,1156.1087989153032,9.3692689149154,0.05385164807134505,1.7478084401970844,2.006392704772966
9585205,1984.5,1,193502.0,241373,0.85,-1.07,10.09,-0.07,0.0,-0.01,27.31,7.665708,156.87301079881414,1208.8128177489768,10.182116675819424,0.07071067811865477,1.7293514410361779,2.097717237755379
9625181,1984.5,1,193282.0,240949,0.37,-1.87,9.19,-0.06,0.03,-0.01,27.31,7.705684,118.45530875458735,1104.0537845019846,9.385621982585917,0.06782329983125268,1.3063473329243418,1.9161927544486523
9665184,1984.5,1,192928.0,240525,0.24,-1.42,10.72,-0.04,0.01,-0.08,27.31,7.745687,122.98543726783579,918.9707421889032,10.81630251056247,0.09,1.3562270203968678,1.5954843383495203
9705187,1984.5,1,192744.0,240516,0.7,-0.74,9.81,-0.04,0.01,-0.02,27.31,7.78569,96.28665314818264,732.6972318689744,9.862743026156567,0.045825756949558406,1.0622558882556759,1.2727131016693065
9745187,1984.5,1,192702.0,240211,0.2,-1.46,10.21,-0.06,0.04,-0.04,27.31,7.82569,86.1611406437567,568.1079630134608,10.315798563368714,0.0824621125123532,0.950767351508237,0.9875159109278878
9785184,1984.5,1,192514.0,239729,0.87,-1.02,9.59,-0.03,-0.01,-0.03,27.31,7.865687,77.2997929565874,382.8383894219485,9.683253585443273,0.04358898943540673,0.8531980989078406,0.6664842769363393
9825208,1984.5,1,192215.0,238870,0.2,-1.7,10.73,-0.07,0.01,-0.01,27.31,7.905711,59.78500346522501,118.91711725156301,10.865675312653144,0.07141428428542851,0.6603487739005512,0.20916645832465633
9865185,1984.5,1,191744.0,237885,0.55,-1.05,9.67,-0.02,-0.04,-0.0,27.31,7.945688,57.12605318012072,-231.61980994050631,9.742376506787243,0.044721359549995794,0.6310719865338984,-0.3982373389063099
9905208,1984.5,1,191369.0,237287,0.37,-1.67,9.5,-0.07,-0.0,0.0,27.31,7.985711,44.89780419811456,-599.1781700028288,9.652761262975481,0.07,0.4964309414123489,-1.035135555006415
9945185,1984.5,1,191106.0,236361,0.13,-0.85,8.56,-0.04,0.02,0.0,27.31,8.025688,40.50028990360544,-867.2117103876757,8.603080843511817,0.044721359549995794,0.4480114235058266,-1.499579034668146
9985174,1984.5,1,190978.0,236668,0.4,-0.98,9.98,-0.06,0.02,-0.0,27.31,8.065677,37.410166863970076,-937.8023383003873,10.035975288929324,0.06324555320336758,0.41398714118847174,-1.6218971475886879
10025188,1984.5,1,191207.0,237500,0.77,-0.81,9.67,-0.06,0.06,-0.01,27.31,8.105691,32.3676440641898,-790.1906141916503,9.734366954250286,0.08544003745317531,0.358465656402653,-1.3661183272011588
10065187,1984.5,1,191377.0,238043,0.9,-1.1,10.37,-0.04,-0.01,-0.01,27.31,8.14569,35.09637742357064,-500.15594240305643,10.466943202291679,0.042426406871192854,0.38851080120676196,-0.8635517006713916
10105205,1984.5,1,191552.0,238480,0.46,-0.55,9.68,-0.03,0.03,-0.0,27.31,8.185708,34.10611382552734,-210.0731849688031,9.706518428355245,0.042426406871192854,0.37760734920945876,-0.3609017522388514
10143186,1984.5,1,191672.0,238978,0.07,-1.47,9.95,-0.03,0.01,0.0,27.31,8.223689,38.29315764167807,-59.17920620600641,10.05824537382142,0.03162277660168379,0.4237094490445054,-0.09943550269421544
10183174,1984.5,1,191828.0,238928,0.35,-0.9,10.86,0.0,-0.0,-0.01,27.31,8.263677,44.56454527212928,-101.5679572606306,10.902848251718448,0.01,0.49276154196220934,-0.17288593359945723
10223873,1984.5,1,191603.0,238202,0.68,-1.34,10.54,0.0,0.0,-0.04,27.21,8.304376,48.48439362733213,-258.05441590647024,10.646576914670742,0.04,0.5359216444461475,-0.4440427271450018
10264174,1984.5,1,191504.0,237587,0.65,-1.2,10.14,0.02,0.0,-0.07,27.21,8.344677,61.01868630952802,-349.8043489708442,10.231427075437718,0.07280109889280519,0.6739324315239693,-0.603025286230573
10304174,1984.5,1,191241.0,237055,0.37,-0.83,9.35,-0.01,-0.01,-0.08,27.21,8.384677,67.87599008486332,-219.41904430321594,9.394056631721995,0.08124038404635961,0.7494358456583795,-0.37709608158834784
10344205,1984.5,1,191660.0,238899,0.39,-2.26,10.97,-0.02,-0.02,-0.08,27.21,8.424708,79.7972696839108,131.13067969504715,11.207167349513435,0.08485281374238571,0.8806969564489636,0.2303298897078068
10384207,1984.5,1,192115.0,239305,0.65,-0.06,8.18,-0.0,-0.09,-0.08,27.21,8.46471,97.88606822071809,500.038668599277,8.206003899584742,0.12041594578792295,1.0798664976950334,0.869566717291711
10424204,1984.5,1,192639.0,239926,-0.26,-1.95,12.905000000000001,-0.04,0.01,-0.01,27.21,8.504707,99.23377334070439,602.8115787593623,13.054084609807003,0.042426406871192854,1.0947056153919033,1.047649683853201
10464207,1921.0,1,191876.0,237578,0.6,-0.47,7.95,0.02,-0.13,-0.0,27.21,8.54471,71.90848986652126,278.09532844274753,7.986451026582458,0.13152946437965907,0.7938363142662547,0.48498747007495735
10504184,1855.0,1,191175.0,235774,0.31,-1.29,11.65,-0.04,-0.02,0.01,27.21,8.584687,-6.445539898210114,-376.01883724167334,11.725301701875308,0.0458257569495584,-0.06889296713227078,-0.6484492586654192
10544186,1776.0,1,190380.0,234526,0.36,-0.53,9.11,-0.01,-0.02,-0.01,27.21,8.624689,-36.58985155640549,-1048.5294158858708,9.132502395291226,0.024494897427831782,-0.40080161833011957,-1.813762945923991
10583206,1815.0,1,190114.0,234484,0.84,-1.98,10.79,-0.04,-0.02,-0.02,27.21,8.663709,-12.023918959266101,-1412.8668506508025,11.002277037050103,0.048989794855663564,-0.13031458096839368,-2.445080003223213
10623207,1715.0,1,190220.0,234939,0.46,-1.79,8.58,-0.02,-0.05,-0.01,27.21,8.70371,-68.78200034709072,-1327.291069185097,8.77679326405721,0.05477225575051661,-0.755258300089243,-2.2967958979517706
10663204,1683.0,1,190656.0,236751,0.42,-0.75,9.58,0.01,-0.11,-0.01,27.21,8.743707,-99.80082119809181,-898.4781194175403,9.618487407071862,0.11090536506409417,-1.0967958713279764,-1.5537568804165067
10703185,1698.0,1,191340.0,237940,0.1,-1.86,9.95,-0.02,-0.01,-0.01,27.21,8.783688,-61.255609278640605,-379.3483604169466,10.12285038909496,0.024494897427831782,-0.672387795821561,-0.6542185938274216
10743204,1673.0,1,191393.0,238332,0.57,-0.7,8.18,0.0,-0.07,-0.01,27.21,8.823707,-66.07817945379263,10.192313740198152,8.229659774255554,0.07071067811865477,-0.7254874578835578,0.020770162861586453
10783204,1642.0,1,191752.0,238801,0.47,-2.1,10.55,-0.04,0.07,-0.02,27.21,8.863707,-88.41902812673831,211.13685290861096,10.767237342977074,0.08306623862918075,-0.9714748612030393,0.36896308251037246
10823183,1579.0,1,191756.0,239009,1.0,-0.37,8.8,-0.01,-0.01,-0.02,27.21,8.903686,-125.78288101845526,326.531239043057,8.864361229101622,0.024494897427831782,-1.3828753986398605,0.5689163053524099
10863207,1535.0,1,192048.0,239551,0.04,-1.9,10.56,-0.06,0.11,-0.02,27.21,8.94371,-160.3931827910036,514.3221515755765,10.72964118691767,0.1268857754044952,-1.7639575314526004,0.8943168680589494
10903183,1571.0,1,192208.0,240173,0.48,-0.31,8.1,-0.01,0.02,-0.06,27.21,8.983686,-108.18754103920159,855.9020929609318,8.120129309315216,0.06403124237432849,-1.1891391599059458,1.4862001686782675
10943186,1658.0,1,192892.0,241818,0.57,-0.18,11.94,-0.04,-0.06,-0.08,27.21,9.023689,-2.8056050915085784,1287.141147241256,11.954952948464499,0.10770329614269007,-0.02881489648865219,2.2334430945017067
10983220,1657.0,1,193109.0,241815,0.31,-0.76,9.03,-0.02,0.01,-0.02,27.21,9.063723,1.0177332557978929,1629.1563942393784,9.067226698390197,0.03,0.013282567481220833,2.8260806845029416
11023200,1535.0,1,193112.0,241270,0.42,-1.12,10.77,-0.06,-0.0,-0.02,27.21,9.103703,-98.91925426418045,1691.378665239512,10.836221666245113,0.06324555320336758,-1.0870892409264294,2.933898265893181
11063204,1500.5,1,192927.0,240232,0.2,-0.86,10.56,-0.02,0.03,-0.02,27.21,9.143707,-131.60798318825755,1379.9322239680664,10.596848588141667,0.0412310562561766,-1.4470135957959764,2.3942297277517106
11103186,1500.5,1,192175.0,238318,0.56,-0.67,9.68,-0.06,-0.04,-0.02,27.21,9.183689,-114.60572803987199,749.8472117922366,9.719305530746526,0.07483314773547883,-1.2598076102153402,1.3024302644551735
11143204,1500.5,1,191409.0,236729,0.46,-0.93,9.42,-0.08,0.0,-0.02,27.21,9.223707,-111.23273862968962,-20.65448257898747,9.476966814334636,0.08246211251235322,-1.2226687835493848,-0.03268058587056435
11183186,1500.5,1,190603.0,235925,0.91,-0.97,8.24,-0.1,-0.05,-0.02,27.21,9.263689,-98.41628119640713,-710.2854856198036,8.346652023416334,0.11357816691600547,-1.0815511774136042,-1.2276602226540887
11223890,1500.5,1,190568.0,235327,0.3,-0.69,8.72,-0.09,-0.0,-0.01,27.35,9.304393,-99.6271447609483,-1142.2143244059237,8.752399670947392,0.09055385138137416,-1.094883579793481,-1.976098394100999
11264204,1535.0,1,190187.0,234729,0.29,-0.86,8.66,-0.07,-0.01,0.08,27.35,9.344707,-47.98686150074183,-1241.096877560286,8.707427863611619,0.10677078252031312,-0.5262901762114776,-2.1474402231829406
11304184,1648.0,1,190286.0,235425,0.25,-1.62,10.29,-0.04,0.01,0.06,27.35,9.384687,52.10977055485798,-1047.3429064041354,10.419740879695617,0.07280109889280519,0.575839423287575,-1.8117069846008016
11344174,1648.0,1,190638.0,236889,0.75,-1.36,9.41,-0.02,-0.02,-0.01,27.35,9.424677,76.66629913961562,-690.9363969853403,9.537305699200378,0.030000000000000002,0.8462229163023318,-1.1941324856374065
11384204,1650.0,1,191205.0,238039,0.47,-1.47,10.41,-0.02,0.02,-0.01,27.35,9.464707,56.65151612300912,-329.2876409164557,10.52377783878014,0.030000000000000002,0.6258470221573611,-0.5674743202346667
11424187,1636.0,1,191440.0,238644,0.64,-1.53,9.96,-0.01,0.01,-0.01,27.35,9.50469,67.92423133327321,-67.37919726479532,10.097133256523854,0.017320508075688773,0.7499670134579094,-0.11364429303840443
11464184,1649.0,1,191569.0,238592,0.63,-1.55,10.09,-0.03,0.03,-0.02,27.35,9.544687,59.27163026362604,95.24533322320254,10.227780795460959,0.0469041575982343,0.654696198090033,0.1681484359974988
11504185,1561.0,1,191632.0,238774,0.27,-1.56,10.01,-0.02,0.01,-0.01,27.35,9.584688,-11.308554762760402,245.08043242917347,10.13442647612582,0.024494897427831782,-0.12243795176319876,0.42777987895334474
11544184,1535.0,1,191672.0,239537,0.44,-0.98,11.1,-0.01,-0.02,-0.02,27.35,9.624687,-52.20477546489835,465.32646968447693,11.15186083126937,0.03,-0.5727321766321821,0.8094180716126967
11584206,1535.0,1,192208.0,240379,-0.36,-1.97,11.51,-0.01,0.05,-0.01,27.35,9.664709,-44.30362466483643,741.8711013530523,11.682919155758976,0.05196152422706632,-0.4857353218127627,1.2886094102396073
11623204,1535.0,1,192356.0,240781,0.33,-0.92,11.09,0.02,-0.05,-0.03,27.35,9.703707,-54.32145896003697,944.4697826153351,11.132987020561911,0.061644140029689765,-0.5960382508212475,1.6396685962102457
11663186,1561.0,1,192366.0,240515,0.32,-1.15,10.66,-0.02,-0.04,-0.01,27.35,9.743689,-24.70581600211408,907.0707062386667,10.726625750906013,0.0458257569495584,-0.26995058891078405,1.57486417977947
11703204,1634.0,1,191975.0,239101,0.4,-0.69,10.48,-0.03,-0.05,-0.02,27.35,9.783707,37.992884223531085,550.635363721144,10.510304467521387,0.061644140029689765,0.4204032416798188,0.9572397193646716
11743207,1645.0,1,191233.0,237300,0.76,-0.68,9.4,-0.06,-0.07,-0.02,27.35,9.82371,52.44615620957473,-43.37766084336204,9.455157322858252,0.09433981132056604,0.5795432500727186,-0.07205488196398185
11783204,1680.0,1,190706.0,236079,0.5,-1.05,9.05,-0.07,-0.04,-0.02,27.35,9.863707,75.96657043811923,-663.1521739657658,9.124417789645541,0.08306623862918075,0.8385184441567572,-1.1459885063414545
11823205,1751.0,1,190248.0,234725,0.5,-0.55,8.68,-0.05,-0.05,-0.02,27.35,9.903708,149.07251267622783,-1079.2815764133525,8.711767903244438,0.07348469228349536,1.643462838241193,-1.8670497115354607
11863204,1807.0,1,190136.0,235069,0.28,-1.02,9.36,-0.04,-0.02,-0.01,27.35,9.943707,195.44789805435403,-1165.2097116095556,9.419575361978904,0.0458257569495584,2.154086261465042,-2.0159443687267458
11903207,1808.0,1,190406.0,235811,0.6,-0.82,8.53,-0.03,-0.03,-0.02,27.35,9.98371,194.54984493489306,-951.6420162045549,8.590302672199623,0.0469041575982343,2.1441981073428273,-1.6458782812706148
11943204,1827.0,1,190783.0,236939,0.77,-0.71,9.68,-0.03,-0.03,-0.02,27.35,10.023707,207.35935219002337,-588.9939437240324,9.736498343860589,0.0469041575982343,2.285239187456643,-1.01748851917726
11983205,1840.0,1,191088.0,237406,0.74,-0.6,9.32,-0.02,-0.01,-0.02,27.35,10.063708,215.2930277572428,-250.43631753770424,9.368564457802487,0.03,2.372594161304295,-0.43084222951431406
12023214,1822.0,1,191283.0,237860,0.73,-1.15,9.6,-0.02,0.02,-0.01,27.35,10.103717,191.5425671292354,-39.65784285474516,9.696153876666768,0.030000000000000002,2.1110860054122567,-0.06560925128708618
12063187,1808.0,1,191205.0,238039,0.83,-1.03,8.37,-0.03,0.04,-0.02,27.35,10.14369,173.87426063937286,45.43655055602466,8.473883407269655,0.05385164807134504,1.9165463575179864,0.08184071381301491
12103184,1779.0,1,191427.0,238392,0.52,-1.05,9.46,-0.04,0.03,-0.01,27.35,10.183687,135.05672188171425,84.649469885745,9.532287238643201,0.05099019513592785,1.4891397848297714,0.14978812321200552
12143186,1723.0,1,191534.0,238943,0.53,-1.24,9.62,-0.02,-0.0,-0.01,27.35,10.223689,79.55984148896097,171.86442804174808,9.714056825034532,0.022360679774997897,0.8780827162289282,0.30091256303534464
12183204,1690.0,1,191688.0,239236,0.17,-1.68,9.79,-0.03,0.01,-0.01,27.35,10.263707,32.46762227650234,352.9394196714467,9.934555853182365,0.033166247903554,0.35956648212307735,0.6146759042629582
12223873,1628.0,1,191775.0,239926,0.3,-1.54,10.61,-0.01,-0.01,-0.01,27.31,10.304376,-27.07856854426015,590.3891761586041,10.725376450269707,0.017320508075688773,-0.29607615133263687,1.0261243781717884
12262204,1649.0,1,191997.0,239971,0.32,-0.99,10.85,-0.01,0.0,-0.01,27.31,10.342707,-21.528567474430325,770.182739221728,10.899770639788711,0.01414213562373095,-0.2349669978007458,1.3376672840705122
12302186,1693.0,1,191909.0,240308,0.3,-1.18,10.98,-0.01,-0.0,-0.01,27.31,10.382689,24.82529304592435,758.2795785860898,11.047298312257166,0.01414213562373095,0.2754194226150385,1.3170417111043429
12342205,1642.0,1,191957.0,239791,0.68,-1.43,9.43,-0.04,-0.01,-0.02,27.31,10.422708,-43.212690948937166,490.56470282770715,9.562018615334317,0.045825756949558406,-0.47372342576099336,0.8531504075163512
12382207,1515.0,1,191587.0,238058,0.15,-1.25,10.63,-0.03,0.0,-0.01,27.31,10.46271,-165.8908851142945,41.76438423047883,10.704293531102367,0.03162277660168379,-1.8244908414681458,0.0754776530420221
12422184,1500.5,1,190625.0,235951,0.49,-0.63,9.33,-0.02,-0.07,-0.01,27.31,10.502687,-201.71787262795598,-391.9389021019097,9.364074967662315,0.07348469228349536,-2.218969482645167,-0.6760352477528754
12462207,1500.5,1,190394.0,236488,-0.18,-1.88,10.39,-0.04,-0.02,0.03,27.31,10.54271,-194.16379320584124,-607.5502880689488,10.560250943988027,0.053851648071345036,-2.1357941114353265,-1.049642603792864
12502205,1510.0,1,190792.0,237965,0.54,-1.08,9.92,-0.02,-0.05,-0.01,27.31,10.582708,-208.35898904826848,-529.6534711797281,9.993217700020349,0.05477225575051661,-2.2920925321447743,-0.9146644639725398
12542208,1500.5,1,191273.0,238323,0.66,-0.72,11.11,0.0,-0.01,-0.01,27.31,10.622711,-213.2006168873563,-256.16426933376454,11.152851653276842,0.01414213562373095,-2.3454020315918016,-0.4407675166991835
12582184,1500.5,1,191226.0,239201,0.71,-0.9,10.25,-0.02,-0.03,-0.01,27.31,10.662687,-228.56251478362196,20.38673942959456,10.313903237862958,0.03741657386773942,-2.5145466074707605,0.03843487203767688
12622207,1500.5,1,191491.0,238780,0.79,-0.55,9.47,-0.04,0.02,-0.01,27.31,10.70271,-240.4506271710995,145.98465941021217,9.518797192923063,0.0458257569495584,-2.6454425254985776,0.2560685864986284
12662185,1500.5,1,191192.0,238444,0.84,-0.52,10.18,-0.02,-0.03,-0.01,27.31,10.742688,-233.26101823142403,89.62707209243564,10.22782479318061,0.03741657386773942,-2.566280213455572,0.15841321873522984
12702207,1500.5,1,191138.0,237944,0.71,-0.79,9.66,-0.06,-0.02,-0.01,27.31,10.78271,-271.4128902544949,-65.29453972385753,9.718220001625813,0.06403124237432849,-2.9863573586043715,-0.11003203764370252
12742205,1500.5,1,191171.0,238790,0.59,-0.85,9.74,-0.03,0.01,-0.01,27.31,10.822708,-240.24101088206453,-190.42248663892616,9.794804745373948,0.033166247903554,-2.6431345126120473,-0.32685139161231624
12782186,1642.0,1,191256.0,238328,0.39,-1.09,8.2,-0.06,-0.0,-0.01,27.31,10.862689,-152.3801799270008,-185.1163867444919,8.281316320489152,0.0608276253029822,-1.6757291120150444,-0.3176570814716324
12822205,1648.0,1,191177.0,238406,0.3,-0.96,9.98,-0.04,-0.01,-0.01,27.31,10.902708,-112.31671268831653,-20.967169618785412,10.030553324717436,0.042426406871192854,-1.234604049207856,-0.033222404094508884
12862207,1813.0,1,191427.0,239526,0.84,-0.56,10.04,-0.03,-0.01,-0.01,27.31,10.94271,11.05837602124379,244.63485823858787,10.090629316350887,0.033166247903554,0.1238366327133773,0.4270077963728367
12902204,1904.0,1,191780.0,239661,0.58,-0.24,9.22,-0.04,0.01,-0.01,27.31,10.982707,114.62821717527902,487.05757956269844,9.24134189390264,0.042426406871192854,1.264208543407364,0.8470733302577943
12942186,1935.0,1,191800.0,240705,1.0,-1.29,10.22,-0.03,-0.03,-0.0,27.31,11.022689,130.62224874821874,570.3631302360662,10.34951689693775,0.042426406871192854,1.4403133258546683,0.9914236222933464
12982204,1984.5,1,191990.0,239999,0.76,-0.38,9.79,-0.04,0.03,-0.01,27.31,11.062707,172.24781077474557,425.0047162226934,9.826805177676007,0.05099019513592785,1.898638077278235,0.7395492952761068
13022186,1984.5,1,191339.0,238864,0.73,-0.85,9.01,-0.01,-0.08,0.0,27.31,11.102689,169.84784638412336,99.05272888280258,9.079399759896024,0.0806225774829855,1.8722128945490177,0.1747458196161856
13062184,1984.5,1,191022.0,237054,0.44,-0.37,9.26,-0.08,0.05,0.01,27.31,11.142687,163.51615468876068,-263.8951932694974,9.277828409708814,0.09486832980505139,1.8024968143068238,-0.4541635163511543
13102174,1984.5,1,190530.0,236754,0.67,-0.7,10.0,-0.03,-0.04,0.0,27.31,11.182677,153.8350436387753,-513.9136189163406,10.046835322627718,0.05,1.6959014291763874,-0.8873907438848484
13142184,1943.0,1,190797.0,237800,0.57,-0.84,9.53,-0.05,0.0,0.0,27.31,11.222687,119.27517645968928,-584.146445892967,9.583913605620618,0.05,1.3153746143314153,-1.009088866070115
13182174,1984.5,1,191108.0,238202,0.09,-0.55,10.48,0.01,0.03,0.01,27.31,11.262677,144.39504994528593,-510.59025495425885,10.494808240268137,0.033166247903554,1.5919609043553333,-0.881632081291669
13222152,1984.5,1,190825.0,238418,1.02,-0.07,9.28,0.04,-0.02,0.02,27.31,11.302655,154.82940352633383,-376.5134401756678,9.336150170171857,0.048989794855663564,1.7068499840091222,-0.64930629733075
13262861,1984.5,1,190918.0,237751,1.5325000000000002,-1.84,10.9,-0.1,-0.04,0.0,27.11,11.343364,145.58288302519833,-240.4153831868877,11.159935315672756,0.1077032961426901,1.6050397259874976,-0.41347814286802165
13301184,1984.5,1,191346.0,239084,0.77,-0.38,10.14,-0.01,-0.05,0.06,27.11,11.381687,149.20709456570967,-107.33128857006112,10.176291072881122,0.07874007874011811,1.6449446731532014,-0.1828725257399483
13341186,1984.5,1,191439.0,238927,0.29,0.47,8.47,0.03,-0.07,0.03,27.11,11.421689,149.21448353900414,46.57182862890554,8.487985626755032,0.0818535277187245,1.6450260305976079,0.08380790231410845
13381152,1984.5,1,191398.0,239979,0.94,-1.71,10.41,-0.02,-0.08,0.03,27.11,11.461655,153.4271339418206,228.187955158888,10.591307756835318,0.08774964387392122,1.6914100757541592,0.39850891192342286
13421186,1984.5,1,191788.0,239377,0.22,-1.64,8.0,-0.09,0.11,-0.02,27.11,11.501689,148.8224316105923,399.9228365196967,8.169332898101288,0.14352700094407325,1.6407092816124538,0.6960878856741939
13461183,1984.5,1,191791.0,240752,1.29,0.7699999999999999,12.905000000000001,0.049999999999999996,-0.13,0.03,27.11,11.541686,167.53377334921018,493.39856814306677,12.992152439068748,0.14247806848775008,1.846733432005625,0.8580608760572231
13501153,1969.0,1,191924.0,240133,0.79,-1.05,10.09,-0.05,0.09,-0.0,27.11,11.581656,135.16528477085578,458.06803531305536,10.17520024372985,0.10295630140987,1.4903351334751038,0.796840792994808
13541184,1887.0,1,191609.0,239431,0.05,0.17,8.26,0.01,0.09,-0.0,27.11,11.621687,82.37712730664201,308.20398196887834,8.261900507752438,0.09055385138137416,0.9091028817045304,0.5371591788526257
13581152,1872.0,1,191617.0,238528,0.9,0.7699999999999999,12.905000000000001,-0.09,-0.01,0.02,27.11,11.661655,53.27652337225842,125.5540674345004,12.95924091141144,0.09273618495495703,0.5886861373972131,0.2206668408248431
13621174,1732.0,1,191059.0,239399,1.5325000000000002,-1.95,11.93,0.0,-0.13,0.08,27.11,11.701677,-69.3915501427104,6.988366739514666,12.18507104000629,0.15264337522473748,-0.7619698433082785,0.015218423734040566
13662174,1721.0,1,191463.0,239179,0.63,-1.02,6.944999999999999,-0.02,0.11,-0.08,27.11,11.742677,-71.54360222112693,-5.339347070640968,7.047717715686405,0.1374772708486752,-0.7856653488070934,-0.0061428069911957425
13702184,1820.0,1,191422.0,239328,0.63,0.7699999999999999,11.53,-0.04,-0.04,-0.0,27.11,11.782687,21.921028363022256,46.097556672980886,11.572843211588067,0.0565685424949238,0.2434415627602917,0.08298609278534816
13742184,1667.0,1,191605.0,239817,1.5325000000000002,-2.25,10.84,-0.11,-0.11,0.01,27.11,11.822687,-103.53515397698514,70.01465139855786,11.17661202019646,0.15588457268119896,-1.1379133255866947,0.1244291848767221
13782184,1535.0,1,191218.0,239095,-0.44750000000000006,0.7699999999999999,8.17,0.049999999999999996,-0.03,0.04,27.11,11.862687,-247.42143610005544,-1.7980724184365597,8.218397425897582,0.07071067811865475,-2.722195705853209,-6.552850963205645e-06
13822174,1500.5,1,191223.0,238197,1.48,-0.17,10.17,-0.08,0.11,-0.02,27.11,11.902677,-259.3880916498826,-162.60143545939962,10.278531023448828,0.1374772708486752,-2.853956435636287,-0.27864359717318077
13862183,1500.5,1,191229.0,238530,0.62,-1.42,12.55,-0.09,-0.13,0.03,27.11,11.942686,-257.0621254911123,-332.8428704037662,12.645287659835976,0.1609347693943108,-2.8283460219952974,-0.5736347550508157
13902186,1500.5,1,190731.0,238373,0.68,-0.76,7.8,0.049999999999999996,-0.02,0.06,27.11,11.982689,-251.50783905873155,-408.6844953476668,7.866384175718854,0.0806225774829855,-2.7671896838097876,-0.7050516969065616
13942174,1500.5,1,191312.0,238080,1.5325000000000002,-0.66,10.15,-0.11,0.1,-0.05,27.11,12.022677,-236.14850460970658,-323.1769739977167,10.286236252876948,0.15684387141358122,-2.5980733331670103,-0.5568858714803876
13982184,1526.0,1,191287.0,239175,-0.3,-0.65,12.09,0.04,-0.08,0.02,27.11,12.062687,-210.64584325576655,-85.557427739713,12.111176656295623,0.0916515138991168,-2.3172722975381053,-0.14514318904873746
14022184,1561.0,1,191671.0,240007,0.61,0.24,9.51,-0.05,0.07,0.01,27.11,12.102687,-165.7232610926017,218.98068115302468,9.532565237122691,0.08660254037844388,-1.8226451909991859,0.3825547206257881
14062201,1653.0,1,191912.0,240150,0.84,-0.57,10.76,-0.03,-0.04,0.01,27.11,12.142704,-61.06305303688423,465.4643563554031,10.80777960545088,0.05099019513592785,-0.6702676252498867,0.8096569990437636
14102184,1808.0,1,192031.0,240331,1.04,-0.83,9.86,-0.05,0.0,0.0,27.11,12.182687,84.85536762711517,543.7720453583172,9.94937686490968,0.05,0.9363899337838484,0.9453470903381672
14142174,1889.0,1,191890.0,239972,0.1,-0.94,9.58,-0.06,0.0,0.01,27.11,12.222677,195.37636286181714,409.32947300366146,9.626525853079086,0.0608276253029822,2.1532986120558495,0.7123875285258038
14182174,1913.0,1,191698.0,239419,0.77,-0.76,9.9,-0.09,0.01,0.01,27.11,12.262677,196.39053632694228,107.65449071418959,9.958940706721775,0.09110433579144298,2.1644653273786996,0.1896507908017123
14222174,1776.0,1,191320.0,238354,0.42,-0.07,10.3,-0.04,-0.03,0.01,27.11,12.302677,92.71261500957543,-242.55279800845784,10.308797214030355,0.05099019513592785,1.0229033831672978,-0.41718181508674934
14262911,1755.0,1,190952.0,237726,0.86,-0.7,8.51,-0.05,-0.02,0.02,27.23,12.343414,50.8439196920867,-505.0009199653471,8.581940340039658,0.057445626465380296,0.5619015746730811,-0.8719469867041859
14301186,1756.0,1,191062.0,238099,0.69,-1.07,10.44,-0.06,0.02,0.01,27.23,12.381689,74.67432921383394,-593.064008698934,10.517347574364935,0.06403124237432849,0.8242900203453885,-1.0245410512472335
14341174,1725.0,1,191035.0,238390,1.01,-1.06,9.02,-0.03,-0.01,0.01,27.23,12.421677,32.98204318014658,-508.80896561795544,9.138057780513318,0.033166247903554,0.36523059382058626,-0.8785454966185373
14381186,1626.0,1,191352.0,239395,0.3,-0.98,10.31,-0.04,0.03,0.02,27.23,12.461689,-53.95204406142288,-328.09947904570936,10.360815604960838,0.05385164807134504,-0.5919707503879424,-0.5654154956828644
14421174,1586.0,1,191596.0,239607,0.98,-1.14,8.96,-0.04,-0.02,0.01,27.23,12.501677,-100.86254410755193,-142.07643503946846,9.085240778317326,0.0458257569495584,-1.108486137233549,-0.24307826232216137
14461186,1604.0,1,191682.0,239905,0.45,-0.88,11.44,-0.06,0.06,0.01,27.23,12.541689,-71.93429783531212,3.0506798011095273,11.482617297463152,0.08544003745317531,-0.7899671638826374,0.008395273836958423
14501174,1661.0,1,191881.0,240170,0.81,-1.19,8.95,-0.02,0.01,0.01,27.23,12.581677,-26.298564054684086,124.1892329688892,9.065026199631195,0.024494897427831782,-0.2874877900856129,0.2183018813221608
14541174,1725.0,1,192001.0,240717,0.64,-0.97,10.75,-0.05,0.0,0.0,27.23,12.621677,50.92025418441973,265.4643918581805,10.812631502090506,0.05,0.5627420675221936,0.463100820626907
14581174,1840.0,1,192162.0,241105,0.4,-1.21,9.89,-0.04,0.03,-0.0,27.23,12.661677,153.4353645060575,438.6516810739149,9.971770153789146,0.05,1.69150069966707,0.7631964994029564
14621184,1839.0,1,192387.0,241624,0.16,-0.38,10.87,-0.02,-0.0,-0.08,27.23,12.701687,159.59093323744332,590.6888268610583,10.877816876561214,0.08246211251235322,1.759277550508992,1.026643607275471
14661204,1814.0,1,192612.0,242260,0.55,-1.22,11.36,-0.03,-0.02,-0.04,27.23,12.741707,131.2727056334045,628.8338821836138,11.438553230194804,0.053851648071345036,1.4474752829718969,1.0927406419990346
14701207,1808.0,1,192487.0,241664,0.35,-0.38,10.32,-0.02,-0.04,-0.02,27.23,12.78171,119.2915225331886,486.2586262408204,10.332923110136841,0.048989794855663564,1.315554595326472,0.8456889189622244
14741204,1759.0,1,192024.0,240716,0.54,-1.04,9.92,-0.06,-0.02,-0.0,27.23,12.821707,77.27733302395715,175.23996125892282,9.988973921279403,0.06324555320336758,0.8529508003120118,0.3067616235329503
14781205,1722.0,1,191593.0,239639,0.88,-0.26,9.85,-0.05,-0.03,0.0,27.23,12.861708,27.505445139899862,-213.64861002763155,9.892648785840928,0.05830951894845301,0.3049296558093883,-0.3670971815616434
14821184,1650.0,1,191498.0,239229,0.59,-0.96,9.62,-0.07,0.0,0.0,27.23,12.901687,-38.1746713543743,-559.4677111326454,9.685767909670352,0.07,-0.4182515242194937,-0.966326018445614
14861174,1618.0,1,191299.0,238860,1.02,-0.75,9.27,-0.04,-0.05,0.0,27.23,12.941677,-77.29326799185445,-763.6324421956365,9.356056861734007,0.06403124237432849,-0.8489729417101737,-1.3200988260686777
14901184,1612.0,1,191403.0,238889,0.89,-0.85,9.44,-0.07,-0.01,-0.0,27.23,12.981687,-86.60884804549822,-776.3644881774925,9.5198844530803,0.07071067811865477,-0.9515435907198313,-1.3421606759794609
14941205,1584.0,1,191432.0,239429,0.65,-1.01,8.59,-0.05,-0.02,-0.0,27.23,13.021708,-112.34372086395265,-600.8454210913783,8.673563281604626,0.05385164807134505,-1.2349014269436076,-1.0380245363477945
14981204,1614.0,1,191676.0,240181,0.97,-0.57,8.69,-0.07,-0.01,-0.01,27.23,13.061707,-92.62613067922561,-291.65699049122367,8.762528173991795,0.07141428428542851,-1.0177978208871246,-0.502268636646207
15021216,1642.0,1,192190.0,241248,0.43,-0.84,9.38,-0.06,0.02,-0.0,27.23,13.101719,-59.41720846255197,54.16503500721672,9.427348513765683,0.06324555320336758,-0.652145796530026,0.0969652675717136
15061184,1631.0,1,192558.0,242280,0.42,-0.68,9.15,-0.04,0.03,-0.0,27.23,13.141687,-79.35645698982071,328.3945961053674,9.184840771619289,0.05,-0.8716900063838018,0.5721450954382667
15101187,1611.0,1,192777.0,242572,0.21,-1.13,10.44,-0.02,0.03,-0.03,27.23,13.18169,-98.03897875759336,460.8414489868962,10.503075739991594,0.04690415759823429,-1.0773968299871206,0.8016465120677665
15141184,1601.0,1,192604.0,241692,0.79,-0.98,9.87,-0.01,-0.02,-0.01,27.23,13.221687,-110.99368986121965,451.90123623563875,9.949944723464547,0.024494897427831782,-1.2200366997515182,0.7861550794912749
15181207,1587.0,1,192452.0,241704,0.34,-0.21,11.39,-0.02,0.03,-0.0,27.23,13.26171,-128.7470700943317,357.04584554639996,11.397008379395006,0.03605551275463989,-1.4155130653819392,0.6217914418169445
15221184,1616.0,1,192354.0,241791,0.73,-0.97,10.07,-0.02,0.0,-0.01,27.23,13.301687,-98.10017864894436,235.1558653812099,10.142913782538034,0.022360679774997897,-1.0780706809485257,0.4105827757576995
15261184,1669.0,1,192444.0,241913,0.35,-0.88,10.1,-0.03,0.03,-0.01,27.23,13.341687,-49.90133094057992,109.30132349321882,10.144303820371311,0.04358898943540673,-0.5473697409645644,0.19250439168022598
15301871,1699.0,1,192333.0,241437,0.63,-1.03,10.03,-0.04,-0.01,-0.01,27.21,13.382374,-18.681629213416752,-26.07673223542581,10.102410603415404,0.042426406871192854,-0.20362033946696143,-0.04207615813519582
15340207,1761.0,1,192050.0,240861,0.37,-0.9,9.95,-0.04,-0.04,-0.01,27.21,13.42071,42.40598390046267,-169.10640097353908,9.997469679874001,0.05744562646538029,0.46899436487349777,-0.2899152791206289
15380204,1840.0,1,191871.0,240536,0.39,-1.16,9.98,-0.05,-0.02,-0.01,27.21,13.460707,119.81637274435903,-292.1471199663514,10.05475509398414,0.05477225575051661,1.3213335405432596,-0.503117923786116
15420207,1920.0,1,191735.0,240396,0.32,-0.93,9.83,-0.05,-0.03,-0.0,27.21,13.50071,201.19637894181747,-361.9662171094792,9.879078904432335,0.05830951894845301,2.217380808025898,-0.6240991426941506
15460204,1953.0,1,191856.0,240922,0.3,-1.56,9.91,-0.07,-0.02,-0.01,27.21,13.540707,236.14122319228744,-371.55484877224785,10.03651832061298,0.07348469228349536,2.6021464730378274,-0.6407141433700237
15500207,1895.0,1,191996.0,240584,0.18,-0.92,10.73,-0.04,0.0,-0.0,27.21,13.58071,172.25720034769347,-343.9652354712209,10.770872759437836,0.04,1.8987414626375623,-0.5929073801356456
15540183,1819.0,1,191873.0,240494,0.5,-1.71,9.54,-0.04,-0.03,-0.0,27.21,13.620686,111.23549716883078,-303.20276370407424,9.704931735978361,0.05,1.2268524699298646,-0.5222749354051689
15580207,1798.0,1,191849.0,240389,0.14,-0.76,9.62,-0.02,0.0,-0.01,27.21,13.66071,71.63332759665175,-245.7066988671962,9.650989586565721,0.022360679774997897,0.7908065971213253,-0.42264683520041635
15620183,1762.0,1,191873.0,240904,0.62,-1.97,10.06,-0.02,-0.03,-0.0,27.21,13.700686,61.664382357056304,-143.75613005290907,10.269805256186702,0.03605551275463989,0.6810419686946624,-0.24598880626264247
15660207,1831.0,1,192166.0,241277,0.67,-1.07,9.77,-0.02,-0.01,-0.01,27.21,13.74071,109.02825581753919,23.951086845262623,9.851228349804911,0.024494897427831782,1.202549294323062,0.04461110622866383
15700236,1809.0,1,192380.0,241773,0.24,-1.86,10.12,-0.02,0.04,-0.0,27.21,13.780739,108.90732671135936,245.06579035871283,10.29230780728987,0.044721359549995794,1.2012177855137773,0.4277545074489262
15740186,1776.0,1,192390.0,242112,0.94,-0.7,9.8,-0.01,-0.04,-0.03,27.21,13.820689,66.30959944927973,471.4068301005542,9.869832825331947,0.05099019513592785,0.7321888569395595,0.8199540058289356
15780204,1695.0,1,192675.0,242584,0.42,-1.71,10.78,-0.04,0.01,-0.02,27.21,13.860707,-6.971422121528667,638.9385479751332,10.922861346735111,0.045825756949558406,-0.07468327547998628,1.1102498169115989
15820186,1624.0,1,192551.0,242302,0.78,-1.02,9.59,-0.01,-0.03,-0.03,27.21,13.900689,-75.02017334956918,694.6539886990497,9.67558266979307,0.04358898943540673,-0.8239446781584716,1.2067924851297203
15860204,1642.0,1,192523.0,241948,0.37,-1.95,10.98,-0.05,-0.02,-0.01,27.21,13.940707,-55.094447424140185,618.4484434696258,11.1579478399928,0.05477225575051661,-0.6045493610240987,1.0747449490450385
15900243,1614.0,1,192251.0,241503,0.31,-1.32,10.07,-0.01,-0.05,-0.01,27.21,13.980746,-82.26356553471793,433.9244377335991,10.160875946492016,0.05196152422706632,-0.9036991790251763,0.7550052210165589
15940204,1535.0,1,192009.0,240824,0.19,-0.94,10.92,-0.04,-0.02,-0.01,27.21,14.020707,-150.61486002544697,203.81257677856163,10.962029921506327,0.0458257569495584,-1.656291781546158,0.35627171453097994
15980207,1574.0,1,191769.0,240387,0.17,-1.27,10.98,-0.04,-0.02,-0.01,27.21,14.06071,-122.94492119536521,7.677421166209483,11.054510391690807,0.0458257569495584,-1.35162759879901,0.016412404290171566
16020204,1603.0,1,191445.0,240184,0.48,-1.31,9.75,-0.04,-0.05,-0.01,27.21,14.100707,-72.81555384493599,-92.67283109342219,9.849314696972577,0.06480740698407861,-0.7996703708037594,-0.15747262620816346
16060207,1616.0,1,191614.0,240135,0.31,-1.0,10.68,-0.03,-0.05,-0.01,27.21,14.14071,-78.08958306597177,-83.53676480486723,10.731192850750563,0.05916079783099616,-0.8577408931955391,-0.14164182230435254
16100204,1563.0,1,191515.0,240318,0.55,-0.89,11.4,-0.02,-0.04,-0.01,27.21,14.180707,-109.60365013148989,-5.565372161096343,11.447908105850606,0.0458257569495584,-1.2047314502226043,-0.0065344590185921125
16140207,1597.0,1,191651.0,240300,0.06,-1.02,10.5,-0.04,-0.02,-0.01,27.21,14.22071,-90.77428873112358,71.44378908164448,10.549597148706674,0.0458257569495584,-0.9974078259124329,0.12690556778572457
16180205,1638.0,1,191389.0,240000,1.0,-0.75,9.94,-0.04,-0.06,-0.01,27.21,14.260708,-35.14213648057926,91.97623211304948,10.018288276946317,0.07280109889280519,-0.3848613253957596,0.16248379905398236
16220208,1669.0,1,191543.0,239846,0.48,-1.1,10.25,-0.05,-0.0,-0.01,27.21,14.300711,-14.535364369868299,51.00512144913487,10.32002422477777,0.050990195135927854,-0.15796724287826944,0.09148982876566489
16260204,1665.0,1,191368.0,239314,0.85,-0.59,9.64,-0.05,-0.01,-0.01,27.21,14.340707,-7.788254571076278,0.17066837011873243,9.695370029039635,0.05196152422706632,-0.08367713673175828,0.0034048441744826937
16300207,1700.0,1,191357.0,239177,0.6,-1.16,9.89,-0.05,-0.02,-0.01,27.21,14.38071,15.37406109528244,14.60186212839828,9.975855853008303,0.05477225575051661,0.17135515720850952,0.028410945407725686
16340891,1739.0,1,191225.0,239141,1.0,-0.75,9.41,-0.04,-0.03,-0.01,27.11,14.421394,67.28238042313396,132.83296694709182,9.492660322586078,0.05099019513592785,0.7428998137729396,0.23327958105459964
16379207,1782.0,1,191540.0,239734,0.57,-1.09,9.55,-0.06,-0.01,-0.01,27.11,14.45971,93.30364936504685,306.8711321315749,9.628888824781395,0.06164414002968976,1.029411059240995,0.5348496417125537
16419205,1713.0,1,191449.0,239761,0.56,-0.6,9.31,-0.05,-0.02,-0.01,27.11,14.499708,39.11467384912806,406.5422919235256,9.346106141062169,0.05477225575051661,0.4327548815441315,0.7075579535500489
16459207,1664.0,1,191549.0,239867,0.62,-1.54,9.88,-0.08,-0.03,-0.02,27.11,14.53971,-28.544180393177623,292.15005057662603,10.018502882167576,0.08774964387392122,-0.3122134994820856,0.5093412283552263
16499205,1651.0,1,191108.0,237848,0.54,-0.26,8.32,-0.04,-0.02,-0.02,27.11,14.579708,-29.507523404027516,-84.94872409377327,8.3415586073587,0.048989794855663564,-0.32282053814986467,-0.14408843881487823
16539206,1754.0,1,190248.0,236372,0.38,-0.89,9.58,-0.06,-0.02,-0.0,27.11,14.619709,56.26786554099612,-627.2716079056548,9.628753813448549,0.06324555320336758,0.6216227775087829,-1.0838153360387255
16579205,1791.0,1,189928.0,234792,0.5,-0.87,8.21,-0.05,0.0,-0.02,27.11,14.659708,103.26490846023137,-1129.9923909750707,8.271094244415307,0.05385164807134505,1.139091058174264,-1.9549204576283132
16619186,1770.0,1,189535.0,234688,0.03,-1.37,9.32,-0.03,0.02,-0.01,27.11,14.699689,61.69386690237338,-1393.0653672953597,9.42020169635449,0.03741657386773942,0.6813666128855246,-2.4107683651391847
16659184,1731.0,1,189555.0,235078,0.63,-0.97,9.0,-0.01,-0.0,-0.01,27.11,14.739687,37.84493255916839,-1330.6910404478656,9.074017853189401,0.01414213562373095,0.4187741967735057,-2.3026873042353384
16699207,1719.0,1,190019.0,236419,0.6,-0.86,9.91,-0.01,0.02,-0.01,27.11,14.77971,-3.440497371474628,-1005.626481564063,9.965324881808922,0.024494897427831782,-0.03580547708935959,-1.739421547920185
16739184,1690.0,1,190461.0,237607,0.58,-1.08,8.54,-0.03,0.02,-0.01,27.11,14.819687,-12.177164466200384,-572.53557368295,8.627537307945992,0.03741657386773942,-0.13200191455508914,-0.9889697649927452
16779186,1760.0,1,190631.0,238119,1.09,-1.33,9.94,-0.02,-0.04,-0.01,27.11,14.859689,28.100666475477833,-178.12995695833544,10.087645909725419,0.0458257569495584,0.311483433281436,-0.305551127285317
16819208,1680.0,1,191114.0,238655,0.11,-1.43,9.95,-0.01,0.04,-0.01,27.11,14.899711,-41.11968745296027,111.36241190278969,10.052835420914837,0.042426406871192854,-0.4506780839008415,0.19607580692720258
16859186,1618.0,1,191065.0,238845,0.53,-0.61,10.7,-0.01,-0.02,-0.01,27.11,14.939689,-116.26760221434915,315.63183300467716,10.730470632735546,0.024494897427831782,-1.2781059353509647,0.5500300194814592
16899205,1623.0,1,191416.0,239676,0.36,-1.11,10.63,-0.03,0.03,-0.01,27.11,14.979708,-122.26380472866173,492.3650858433987,10.693858050301584,0.04358898943540673,-1.3441280595713252,0.8562700773581593
16939186,1605.0,1,191630.0,240092,0.24,-1.45,10.51,-0.03,0.01,-0.01,27.11,15.019689,-133.55989541808327,681.2792685053096,10.61226648741917,0.033166247903554,-1.4685054302357223,1.183617021427067
16979187,1649.0,1,191804.0,240542,0.2,-1.14,10.82,-0.04,-0.02,-0.02,27.11,15.05969,-113.80645572266293,876.1881095997849,10.881727803984072,0.048989794855663564,-1.2510070975430758,1.5213513969264072
17019207,1673.0,1,191984.0,240522,0.03,-1.54,10.8,-0.04,-0.02,-0.01,27.11,15.09971,-80.42398614005964,1029.3881609676234,10.909285036151545,0.0458257569495584,-0.8834442028102395,1.78681356572615
17059205,1714.0,1,191949.0,240507,0.23,-1.57,10.86,-0.05,-0.05,-0.01,27.11,15.139708,-55.251379015119035,1071.314814546445,10.975308651696315,0.07141428428542851,-0.6062772808148286,1.8594632828129025
17099207,1756.0,1,191868.0,239711,-0.22,-1.57,10.89,-0.04,-0.02,-0.01,27.11,15.17971,-20.17333767386171,932.7152069279929,11.004789866235521,0.0458257569495584,-0.220045028433183,1.6193004884490385
17139253,1809.0,1,191366.0,238855,0.43,-1.28,10.44,-0.05,-0.09,-0.02,27.11,15.219756,37.60398363911063,572.1083685884561,10.526960624985731,0.10488088481701516,0.4161211910598321,0.9944477384993228
17179207,1883.0,1,191048.0,237882,0.08,-1.35,10.28,-0.05,-0.04,-0.02,27.11,15.25971,86.7503716306957,12.556472430695894,10.3685727079478,0.0670820393249937,0.9572551713110731,0.024866732593533957
17219205,1847.0,1,190609.0,236410,0.25,-1.22,9.31,-0.04,-0.03,-0.01,27.11,15.299708,68.30408583035769,-629.5728044649572,9.39292286777657,0.05099019513592785,0.7541494607205415,-1.0878028061734462
17259207,1851.0,1,189796.0,233484,0.39,-1.64,8.8,-0.05,-0.02,0.07,27.11,15.33971,45.16266586218688,-1161.799664963615,8.960005580355405,0.08831760866327848,0.4993472421284862,-2.010035504008638
17299184,1840.0,1,189377.0,233324,0.29,-1.23,9.95,-0.01,-0.01,0.03,27.11,15.379687,45.95751729791204,-1398.4631272625606,10.029930209129073,0.033166247903554,0.5080990779947562,-2.42012150213072
17339240,1847.0,1,189609.0,235104,0.85,-1.29,9.28,-0.01,-0.03,-0.01,27.11,15.419743,41.55872234745392,-1268.8519661566809,9.407709604361733,0.033166247903554,0.45966545922590524,-2.1955337188981434
17379892,1920.0,1,190441.0,236618,0.84,-1.38,9.5,-0.03,-0.02,-0.01,27.29,15.460395,107.27771607042054,-866.1294363319452,9.636389365317282,0.03741657386773942,1.1832747030528243,-1.497703690531478
17420206,1984.0,1,190687.0,237728,0.86,-1.4,9.13,-0.02,-0.04,-0.01,27.29,15.500709,182.55029423707575,-387.3113558819307,9.276664271169892,0.0458257569495584,2.0120751803955157,-0.6680167226622593
17460205,1927.0,1,191036.0,238412,1.05,-0.97,10.15,-0.01,-0.01,-0.01,27.29,15.540708,100.49317535826579,-5.890087573436333,10.250165852316734,0.017320508075688773,1.1085724579890874,-0.007097119780340216
17500208,1807.0,1,191334.0,238960,0.37,-1.6,10.0,-0.02,0.03,-0.0,27.29,15.580711,5.1846419475528895,224.68221741506156,10.133947898030659,0.03605551275463989,0.05916296638457368,0.39243423546992234
17538205,1840.0,1,191376.0,238878,0.72,-1.25,9.74,0.0,-0.03,-0.01,27.29,15.618708,11.539501201087711,369.81058784658626,9.846242938298852,0.03162277660168379,0.12913413664413645,0.6439099472934291
17578186,1790.0,1,191589.0,239574,-0.08,-1.49,10.58,-0.02,0.03,-0.01,27.29,15.658689,-19.84565284909195,529.6355626734326,10.684704020233784,0.03741657386773942,-0.2164370034949932,0.9208516589122395
17618207,1798.0,1,191907.0,240069,0.19,-1.62,10.31,-0.0,-0.02,-0.01,27.29,15.69871,-22.292578096051233,744.9754049395048,10.43822781893555,0.022360679774997897,-0.24337925606686164,1.293988489132302
17658207,1856.0,1,192015.0,240656,0.27,-0.91,10.78,0.01,-0.03,-0.01,27.29,15.73871,37.50309336950099,962.7796616615392,10.821709661601533,0.033166247903554,0.4150103229901006,1.671395610389868
17698186,1872.0,1,192265.0,241364,0.14,-1.32,10.75,-0.01,-0.0,-0.0,27.29,15.778689,59.500287225527686,1078.8420985304465,10.831643457943029,0.01,0.657213861278774,1.8725064189850102
17738207,1892.0,1,192151.0,240799,0.55,-0.61,10.52,0.01,-0.08,-0.01,27.29,15.81871,74.20189971973016,1018.2106437635463,10.552014025767782,0.08124038404635961,0.8190882616204903,1.7674453740558587
17778184,1861.0,1,192015.0,240552,0.08,-1.37,11.27,-0.0,-0.02,-0.01,27.29,15.858687,49.58641330562519,790.1005249029637,11.353246231805246,0.022360679774997897,0.5480556042181662,1.3721804486381532
17818207,1798.0,1,191406.0,238958,0.84,-0.42,9.24,0.0,-0.07,-0.01,27.29,15.89871,-9.898772915153106,478.1415711008549,9.287604642748311,0.07071067811865477,-0.10691532856223623,0.8316238384189506
17858184,1758.0,1,191189.0,239113,0.0,-1.01,10.64,-0.01,0.01,0.0,27.29,15.938687,-53.67264644389811,180.28717085959983,10.687829527083599,0.01414213562373095,-0.5888943992862138,0.31550733343983267
17898174,1699.0,1,191129.0,238795,1.07,-0.47,9.86,-0.0,-0.05,-0.01,27.29,15.978677,-99.13553641790224,-47.38033716238224,9.92901807833987,0.050990195135927854,-1.0894706493571127,-0.07899064423797243
17938205,1676.0,1,191074.0,238633,0.61,-0.57,9.95,-0.0,-0.04,-0.01,27.29,16.018708,-128.5472208945764,-199.82202652252687,9.984963695477314,0.04123105625617661,-1.413312594557265,-0.34313873760823377
17978207,1659.0,1,190851.0,237865,0.71,-0.82,9.91,-0.01,-0.03,-0.0,27.29,16.05871,-136.05333915544827,-293.57298515533597,9.969182514128228,0.03162277660168379,-1.49595988191107,-0.5055886361788623
18018204,1669.0,1,190407.0,237254,0.99,-0.52,9.5,-0.01,-0.07,-0.0,27.29,16.098707,-119.96788717362357,-341.6098246527369,9.565589370237467,0.07071067811865477,-1.3188485007744666,-0.5888259685518606
18058207,1712.0,1,190799.0,238392,0.55,-0.9,10.78,-0.02,-0.02,0.04,27.29,16.13871,-83.65464254952244,-355.6138491646352,10.831477276899951,0.048989794855663564,-0.9190158497434001,-0.613091878945894
18098183,1754.0,1,190732.0,238066,0.91,-0.13,9.16,-0.02,-0.05,-0.0,27.29,16.178686,-18.42426341468464,-356.76290883443573,9.206008907230103,0.05385164807134505,-0.2007865731467937,-0.6150829479390314
18138207,1840.0,1,190832.0,237933,0.97,-0.68,10.27,-0.05,-0.02,0.05,27.29,16.21871,48.07823569750328,-369.63459854640007,10.338094602004762,0.07348469228349536,0.5314495791294345,-0.6373867698799992
18178183,1822.0,1,190456.0,237467,0.91,0.15,8.52,-0.04,-0.05,0.06,27.29,16.258686,59.38895729031043,-404.3859070184835,8.569772459056308,0.08774964387392122,0.6559880456404906,-0.6976031838646017
18218174,1851.0,1,190602.0,237382,0.64,-0.68,9.89,-0.06,-0.02,0.02,27.29,16.298677,70.6135083777273,-450.8437023188452,9.933987114950371,0.066332495807108,0.7795777183445617,-0.7781043781395114
18258184,1835.0,1,190439.0,237085,0.4,-0.42,8.79,-0.01,-0.05,0.01,27.29,16.338687,75.53318019462337,-490.7076131877172,8.809114597960455,0.05196152422706632,0.8337465331974996,-0.8471798134386928
18298186,1803.0,1,190548.0,236869,0.64,-0.88,9.0,-0.06,-0.02,0.02,27.29,16.378689,37.13807380525878,-510.26427569288023,9.065539145577608,0.066332495807108,0.4109912180723235,-0.8810672305560675
18338184,1775.0,1,190480.0,237088,0.29,-0.76,8.88,-0.04,-0.03,0.04,27.29,16.418687,18.215275933539676,-498.4340129054378,8.917180047526235,0.06403124237432849,0.2026387969021992,-0.8605679736107488
18378186,1778.0,1,190630.0,236997,0.6,-0.48,8.97,-0.05,0.01,0.0,27.29,16.458689,22.734496541007577,-437.06566120629276,9.00284954889284,0.050990195135927854,0.25239838117462343,-0.7542300475313036
18418862,1769.0,1,190567.0,237140,0.91,-0.16,9.48,-0.02,-0.02,0.0,27.15,16.499365,18.700098933230937,-302.56054945377906,9.52491994717016,0.0282842712474619,0.20797701625588186,-0.5211621186260927
18459185,1765.0,1,190804.0,238279,0.7,-0.75,8.83,-0.04,0.01,0.02,27.15,16.539688,14.393599799987513,-85.35123333860365,8.889398179854473,0.045825756949558406,0.16055963499645856,-0.14478589926701652
18499174,1765.0,1,191237.0,239417,0.74,-0.52,9.52,-0.01,0.01,-0.0,27.15,16.579677,23.50917733997669,188.79990755425135,9.562865679282543,0.01414213562373095,0.26092812509481034,0.33025804354212546
18539184,1769.0,1,191433.0,240188,0.56,-0.66,9.68,-0.01,0.01,0.0,27.15,16.619687,20.182431204824947,457.8957435728981,9.71862130139867,0.01414213562373095,0.2242984672304657,0.7965422491066039
18579174,1726.0,1,191549.0,240501,0.57,-0.45,10.13,-0.02,0.04,0.0,27.15,16.659677,-8.829666457760482,648.2337309486757,10.155998227648526,0.044721359549995794,-0.09514376494905205,1.126356335215711
18619174,1727.0,1,191656.0,240845,0.51,-0.55,10.08,-0.02,0.05,-0.0,27.15,16.699677,-19.089868548384658,708.6762582014998,10.107868222330563,0.05385164807134505,-0.2081153224200144,1.23109001010037
18659184,1719.0,1,191698.0,240056,0.86,-0.13,10.44,-0.04,0.01,-0.01,27.15,16.739687,-14.158125308098027,634.0154075107748,10.476168192616992,0.042426406871192854,-0.15381359327462119,1.1017190916715895
18699187,1719.0,1,191276.0,240122,0.61,-0.62,10.3,-0.02,0.0,0.0,27.15,16.77969,-22.548907293662342,465.93256444702524,10.336658067286546,0.02,-0.2462016087284989,0.8104683012224632
18739174,1706.0,1,191354.0,239501,0.59,-0.84,10.19,-0.03,0.0,-0.0,27.15,16.819677,-29.776007662745293,272.34009521181474,10.241572144939466,0.03,-0.32577672601009217,0.47501491013264063
18779184,1707.0,1,191145.0,239112,0.17,-0.93,10.62,-0.03,0.02,0.01,27.15,16.859687,-30.176136848103685,115.40444502007414,10.66199793659706,0.03741657386773942,-0.3301824108942946,0.20307976592130492
18817174,1713.0,1,190939.0,238510,0.42,-0.65,10.04,-0.05,-0.03,0.0,27.15,16.897677,-26.983253665054775,23.203253520865925,10.069781526925,0.05830951894845301,-0.2950266719696692,0.04331527470365727
18857186,1719.0,1,190909.0,239014,0.25,-0.77,11.49,-0.05,-0.05,0.0,27.15,16.937689,-16.644933972244367,-20.55473156883216,11.51848514345528,0.07071067811865477,-0.1811949884400847,-0.03250773919551844
18897184,1715.0,1,191116.0,238642,0.39,-0.78,9.14,-0.05,-0.01,0.0,27.15,16.977687,-28.21912997236925,-61.02364651431934,9.181508590640211,0.050990195135927854,-0.3086344810601317,-0.10263151418438655
18937186,1663.0,1,190987.0,238130,0.38,-0.9,10.05,-0.06,-0.05,0.0,27.15,17.017689,-75.40832474644189,-138.761479131837,10.09737094495394,0.07810249675906655,-0.828218479731962,-0.23733416904765933
18977224,1643.0,1,190724.0,237377,0.4,-1.56,9.89,-0.06,-0.0,0.0,27.15,17.057727,-101.81510326040103,-262.28147206469464,10.02026446756771,0.06,-1.1189744385486782,-0.451367290585952
19017186,1669.0,1,190610.0,237218,0.23,-0.99,10.81,-0.05,-0.03,0.01,27.15,17.097689,-75.22687703602428,-406.8845899402029,10.857674705018566,0.05916079783099616,-0.8262206213794302,-0.7019328546553111
19057184,1706.0,1,190629.0,237408,0.7,-1.2,9.84,-0.05,-0.01,0.01,27.15,17.137687,-40.859023041091426,-534.5894240452142,9.937585219760383,0.05196152422706632,-0.44780799768558216,-0.923217390300346
19097185,1719.0,1,190533.0,237690,0.78,-1.04,10.38,-0.05,-0.02,0.0,27.15,17.177688,-30.389721403649627,-612.0937146047855,10.461089809384108,0.05385164807134505,-0.3325341169989743,-1.0575153678762754
19137183,1751.0,1,190731.0,237755,0.79,-1.21,9.6,-0.06,-0.01,0.0,27.15,17.217686,-1.7403036748446943,-615.2416731958352,9.7081512143147,0.0608276253029822,-0.017085228870651094,-1.062970091340208
19177223,1786.0,1,190564.0,237833,0.61,-0.52,10.4,-0.01,-0.01,0.0,27.15,17.257726,35.608373582182075,-531.0862011986659,10.430843685915345,0.01414213562373095,0.3941482148704109,-0.9171470716135681
19217183,1792.0,1,190732.0,238533,0.47,-1.01,9.64,-0.04,0.02,0.0,27.15,17.297686,28.358543297475233,-369.3570998885858,9.7041537498125,0.044721359549995794,0.31432282630307345,-0.6369059254228031
19257174,1769.0,1,191095.0,239315,0.79,-1.17,10.38,-0.03,0.0,0.0,27.15,17.337677,21.267358598526748,-172.9770992301683,10.475562037427872,0.03,0.23624422973366294,-0.29662235228933864
19297174,1808.0,1,191413.0,239851,0.33,-0.99,10.64,-0.03,0.0,0.0,27.15,17.377677,32.39334780940292,-5.839515270364745,10.69105233361057,0.03,0.358748671503517,-0.0070094890443534
19337174,1779.0,1,191393.0,239400,0.8,-0.82,10.27,-0.02,-0.02,-0.0,27.15,17.417677,32.22457661172282,83.1092879304176,10.333697305417843,0.0282842712474619,0.3568903898741928,0.1471193248757324
19377204,1829.0,1,191290.0,239726,0.62,-0.92,10.31,-0.04,-0.02,-0.0,27.15,17.457707,47.32018104732038,91.25550732981691,10.369517828713157,0.044721359549995794,0.5231029000169904,0.16123494069945565
19417207,1837.0,1,191477.0,239459,0.24,-1.38,10.12,-0.02,-0.01,-0.0,27.15,17.49771,83.98465175223865,61.260037061843505,10.21647688785131,0.022360679774997897,0.9268027806624318,0.10925935374364065
19457892,1869.0,1,191397.0,239774,0.84,-0.85,10.55,-0.02,-0.08,0.0,27.15,17.538395,91.07300098455543,48.9678713887216,10.617466741177012,0.08246211251235322,1.0048501568836747,0.08795972016193992
19498184,1821.0,1,191498.0,239605,-0.12,-1.25,10.39,-0.02,0.02,0.01,27.15,17.578687,54.42428057478657,86.27871790516151,10.465610350094256,0.030000000000000002,0.6013236973227245,0.15261125354966143
19538184,1791.0,1,191460.0,239968,0.69,-1.09,9.63,-0.01,-0.06,0.0,27.15,17.618687,23.773481533569,164.6093158671052,9.716022848882151,0.0608276253029822,0.26383828769516643,0.2883410410575757
19578184,1787.0,1,191817.0,240348,0.25,-1.0,9.96,-0.03,0.01,0.0,27.15,17.658687,6.125777096671843,247.34232966022958,10.013196292892696,0.03162277660168379,0.06952548192252704,0.43169925195092024
19618174,1749.0,1,191629.0,240417,0.65,-0.6,9.19,-0.0,-0.09,0.0,27.15,17.698677,-8.90333986742085,300.32427360306815,9.232475291058188,0.09,-0.09595495753181159,0.5235053683374121
19658184,1757.0,1,191837.0,240653,0.51,-1.0,9.78,-0.05,0.02,-0.0,27.15,17.738687,-29.84935071259771,318.133880813975,9.844211497118495,0.05385164807134505,-0.3265842811145934,0.5543655208861036
19698184,1712.0,1,191692.0,240431,0.29,-0.82,9.19,-0.0,-0.05,0.01,27.15,17.778687,-45.04491003048995,327.68240381957287,9.231067110578278,0.050990195135927854,-0.49389736009901014,0.570911022034887
19738184,1759.0,1,191815.0,240615,0.49,-1.43,10.57,-0.05,0.03,-0.0,27.15,17.818687,-21.98059257096438,367.9646185705937,10.677541851943264,0.05830951894845301,-0.23994409071961517,0.6407112864368077
19778184,1761.0,1,191915.0,241120,0.16,-0.32,10.15,0.01,-0.01,-0.01,27.15,17.858687,-2.172060874323071,461.4368189321843,10.156303461397755,0.017320508075688773,-0.02183915894371907,0.8026781579158144
19818187,1803.0,1,192120.0,241736,0.66,-1.07,10.81,-0.03,-0.01,-0.0,27.15,17.89869,33.464446070928936,595.2286314727328,10.882858080486027,0.03162277660168379,0.37054216618717517,1.0345100953567876
19858204,1841.0,1,192102.0,241959,0.69,-0.06,9.44,0.0,-0.01,-0.03,27.15,17.938707,73.9300403062026,720.5657112202089,9.465373737998938,0.03162277660168379,0.8160949110911263,1.2516918307656322
19898184,1827.0,1,192169.0,241789,0.59,-0.92,10.49,-0.03,-0.03,-0.0,27.15,17.978687,64.9620133362271,769.052952209926,10.54678149958555,0.042426406871192854,0.7173510495871183,1.3357096103768225
19938205,1838.0,1,192048.0,241475,0.61,-0.07,9.51,-0.01,-0.02,-0.0,27.15,18.018708,75.5032104396114,681.5371116339784,9.529800627505278,0.022360679774997897,0.8334165465295157,1.18406380715289
19978205,1828.0,1,191949.0,241230,0.55,-0.81,9.99,-0.04,-0.03,-0.0,27.15,18.058708,68.08879981878307,441.7181411624242,10.037863318455775,0.05,0.751779020468539,0.7685100037938852
20018205,1779.0,1,191645.0,239889,0.73,-0.28,9.85,-0.03,-0.03,-0.01,27.15,18.098708,25.26815440439898,96.67840827820257,9.88098173260127,0.04358898943540673,0.28029561676488896,0.17063164151052895
20058206,1772.0,1,190871.0,238918,0.59,-0.53,9.36,-0.05,-0.03,-0.01,27.15,18.138709,16.067490151343183,-256.839398376934,9.393540333654824,0.05916079783099616,0.1789902661241893,-0.4419373676125435
20098205,1744.0,1,190925.0,238459,0.45,-0.64,9.59,-0.06,-0.02,-0.01,27.15,18.178708,-4.739772760521748,-521.0221568389284,9.621860526945918,0.06403124237432849,-0.05011135167037521,-0.8997082847542995
20136207,1712.0,1,190529.0,238077,0.5,-0.58,8.05,-0.04,-0.04,-0.0,27.15,18.21671,-33.43875094900819,-648.392235789502,8.08634033416848,0.0565685424949238,-0.36610593297995775,-1.12041276296123
20176203,1693.0,1,190900.0,238260,0.23,-0.85,10.31,-0.05,0.02,-0.0,27.15,18.256706,-55.29418229080047,-656.3764058393111,10.347535938570111,0.05385164807134505,-0.6067485729663749,-1.1342475827185634
20216185,1645.0,1,190596.0,237960,0.88,-0.69,9.19,-0.02,-0.08,-0.01,27.15,18.296688,-87.57674803748799,-597.5430322770477,9.257785912409078,0.08306623862918075,-0.962200804740122,-1.032302219096299
20256204,1648.0,1,190863.0,238678,0.46,-0.7,9.64,-0.05,0.02,-0.01,27.15,18.336707,-98.0708973247341,-517.3003264395319,9.676321615159347,0.05477225575051661,-1.0777482743553974,-0.8932591670098389
20296185,1645.0,1,190625.0,237853,0.77,-0.6,8.04,-0.03,-0.04,-0.0,27.15,18.376688,-79.78117311748103,-435.2564053970718,8.099043153360771,0.05,-0.8763664096360015,-0.751095003079679
20336204,1680.0,1,190796.0,238643,0.85,-0.23,9.44,-0.05,0.02,-0.01,27.15,18.416707,-56.796342063720125,-354.59009908713523,9.480980961904732,0.05477225575051661,-0.6232883377407973,-0.6113179440584342
20376186,1685.0,1,191012.0,238967,0.76,-0.28,8.81,-0.04,0.03,-0.01,27.15,18.456689,-39.828528346258395,-274.6559267674919,8.847152084145497,0.05099019513592785,-0.436461574914121,-0.4728095130512138
20416184,1700.0,1,191040.0,238973,0.81,-0.39,9.78,-0.03,0.02,-0.01,27.15,18.496687,-21.904575424269293,-188.68898732415994,9.821232101930999,0.03741657386773942,-0.23910709205420974,-0.32384761659003636
20456186,1712.0,1,191109.0,239116,0.34,-1.16,9.7,-0.04,0.05,-0.0,27.15,18.536689,-16.32720661389021,-78.9367939284598,9.775029411720457,0.06403124237432849,-0.17769660174093732,-0.13367107925065197
20496871,1695.0,1,190955.0,239202,0.81,-0.45,9.82,-0.05,-0.01,-0.01,27.11,18.577374,-13.667247207097303,67.33557306917416,9.863620025122621,0.05196152422706632,-0.1484087032823358,0.11978692831510393
20537207,1710.0,1,191371.0,240322,0.18,-0.87,11.16,-0.05,0.03,-0.01,27.11,18.61771,-17.671923716516652,224.98366669759403,11.195307052510888,0.05916079783099616,-0.19250281940602304,0.3929565811193507
20577184,1664.0,1,191291.0,239858,0.68,-0.52,10.12,-0.02,-0.05,-0.0,27.11,18.657687,-39.791731362503086,318.4628785234761,10.156140999415083,0.05385164807134505,-0.43605641597783945,0.5549356019318639
20617221,1697.0,1,191236.0,240131,0.42,-1.31,10.21,-0.04,-0.02,-0.01,27.11,18.697724,-22.529342572171913,260.3836467339094,10.302261887566246,0.0458257569495584,-0.24598618830707472,0.4542970009952195
20657204,1717.0,1,191302.0,238996,-0.05,-1.1,9.67,-0.04,-0.01,-0.0,27.11,18.737707,10.178991842707742,24.264488512855458,9.732491972768331,0.04123105625617661,0.1141540358807747,0.04515416274621612
20697221,1730.0,1,190570.0,236994,0.18,-1.11,10.7,-0.02,-0.04,-0.0,27.11,18.777724,21.608691442361668,-308.61049828906937,10.75892652637799,0.044721359549995794,0.24000252831720262,-0.5316453562268917
20737204,1761.0,1,190262.0,236954,-0.11,-1.26,9.98,-0.04,0.02,0.0,27.11,18.817707,50.017766937842595,-579.9560957453397,10.059826042233533,0.044721359549995794,0.5528050907508815,-1.0018279061142423
20777184,1779.0,1,190188.0,236857,0.73,-0.87,9.69,-0.01,-0.05,-0.0,27.11,18.857687,77.45740317904935,-652.3971009976237,9.756326152809775,0.050990195135927854,0.8549334908764981,-1.1273523181011038
20817234,1783.0,1,190419.0,238020,0.11,-1.03,9.87,0.0,-0.01,0.0,27.11,18.897737,72.42668050300051,-501.2770940351969,9.924207776946227,0.01,0.7995419331958685,-0.8654944111415518
20857174,1748.0,1,190746.0,238262,0.85,-0.77,9.77,0.0,-0.04,-0.0,27.11,18.937677,46.09607429516764,-226.32241737939717,9.837087983748035,0.04,0.5096246814517065,-0.3890581166691111
20897184,1733.0,1,190884.0,238648,0.66,-0.99,9.84,-0.01,-0.04,0.0,27.11,18.977687,27.202098426967943,25.279010057405582,9.911674934137015,0.04123105625617661,0.3015896094525108,0.046912106605279856
20937184,1726.0,1,191097.0,238217,0.4,-1.0,9.87,-0.02,-0.01,-0.0,27.11,19.017687,19.547898861268877,161.5568313687434,9.92859003081505,0.022360679774997897,0.2173118497658122,0.2830517533065088
20977205,1711.0,1,190901.0,238481,0.86,-1.03,11.5,-0.02,-0.04,-0.01,27.11,19.057708,9.690247971235696,196.17314887340945,11.578017965092299,0.0458257569495584,0.10877264515602088,0.3430342574806443
21017233,1701.0,1,191116.0,238688,0.53,-1.01,9.65,-0.02,0.01,-0.01,27.11,19.097736,-8.933805462428225,215.8817005609969,9.717175515549773,0.024494897427831782,-0.0962904037235009,0.3771848653177584
21057184,1687.0,1,190936.0,239061,0.69,-1.19,10.07,-0.02,-0.04,-0.0,27.11,19.137687,-14.246462512180862,299.814413771247,10.163518091684592,0.044721359549995794,-0.15478624385593748,0.522621892806362
21097206,1722.0,1,191308.0,239923,0.53,-1.23,9.54,-0.04,0.03,-0.01,27.11,19.177709,11.956357920247639,457.0880220000272,9.633555937451133,0.05099019513592785,0.13372400265162632,0.7951426443505596
21137185,1711.0,1,191558.0,240308,0.05,-0.96,10.24,-0.01,-0.01,0.0,27.11,19.217688,5.9495412832342,626.3373844178858,10.285023091855457,0.01414213562373095,0.06758500997564346,1.0884147576055454
21177184,1689.0,1,191536.0,240171,0.51,-1.03,10.08,-0.04,-0.02,-0.01,27.11,19.257687,-20.39340680014769,725.8466850155587,10.145314189319127,0.0458257569495584,-0.22246813391670164,1.2608426028742012
21217204,1693.0,1,191440.0,240095,-0.07,-0.87,10.93,-0.02,-0.02,0.0,27.11,19.297707,-15.625998178053813,704.6251515318385,10.964793659709242,0.0282842712474619,-0.1699758367493195,1.2240703286252947
21257205,1685.0,1,191230.0,239420,0.53,-0.69,10.29,-0.03,-0.04,-0.01,27.11,19.337708,-26.317894153841777,556.3647734870771,10.326717774782072,0.05099019513592785,-0.28770062716120115,0.9671675328923262
21297205,1686.0,1,191050.0,239114,0.31,-0.36,10.53,-0.02,-0.03,0.0,27.11,19.377708,-24.1443435810647,302.73370015350275,10.54071155093431,0.03605551275463989,-0.26376840913277527,0.5276803773660078
21337185,1719.0,1,190962.0,238327,0.5,-0.76,10.13,-0.02,-0.03,0.0,27.11,19.417688,4.036663919476398,-20.92461699600777,10.170766932734228,0.03605551275463989,0.04652297502487564,-0.03314866970976284
21377184,1714.0,1,190412.0,236610,0.6,-0.76,9.51,-0.02,-0.05,0.0,27.11,19.457687,2.1898038857566093,-361.5497443905074,9.559168373870188,0.05385164807134505,0.026187834196523225,-0.6233774865965378
21417184,1715.0,1,190072.0,235953,0.48,-0.55,10.14,-0.03,-0.0,0.08,27.11,19.497687,-2.359126046793403,-642.6503462556065,10.166243160578052,0.08544003745317531,-0.023898869239470367,-1.1104633247262734
21457185,1690.0,1,190006.0,235644,0.81,-0.51,9.22,-0.04,-0.02,0.08,27.11,19.537688,-25.41758548437071,-779.0844421539384,9.269552308499048,0.09165151389911681,-0.2777876379533474,-1.3468737610938333
21495873,1645.0,1,190135.0,236877,0.77,-0.66,10.1,-0.06,0.0,0.08,27.05,19.576376,-72.63401226809738,-710.791475417035,10.150788146740133,0.1,-0.7976714789203398,-1.2285369922619596
21536174,1659.0,1,190510.0,236687,1.0,-0.33,8.59,-0.05,-0.03,0.0,27.05,19.616677,-61.48475250794727,-434.5527268394121,8.654305286965558,0.05830951894845301,-0.6749108131335062,-0.7498756821043506
21576186,1678.0,1,190727.0,238390,0.94,-0.21,9.86,-0.04,-0.01,0.0,27.05,19.656689,-38.33061951708361,-16.266858134099447,9.906931916592542,0.04123105625617661,-0.4199686158196782,-0.025077792721219114
21616184,1679.0,1,191267.0,239367,0.52,-0.74,8.87,-0.06,0.05,-0.0,27.05,19.696687,-46.969991527257804,421.97532031572723,8.915991251678076,0.07810249675906655,-0.515093770562224,0.7343000150021374
21656184,1696.0,1,191588.0,240573,0.4,-1.02,10.6,-0.03,-0.01,0.0,27.05,19.736687,-18.647796830151666,739.8774347648091,10.656472211759388,0.03162277660168379,-0.20324782272736389,1.2851548222570752
21696184,1739.0,1,191844.0,240713,0.48,-0.61,9.41,-0.04,0.01,-0.01,27.05,19.776687,9.548904664838602,834.4801196621446,9.441959542383138,0.042426406871192854,0.1072163626071258,1.4490805760861463
21736186,1742.0,1,191613.0,240547,0.6,-0.04,11.28,-0.02,-0.06,0.0,27.05,19.816689,26.35311976706653,689.6661211468503,11.29601699715435,0.06324555320336758,0.2922417973313133,1.19814960200879
21776184,1788.0,1,191356.0,239426,1.06,-0.32,8.24,-0.04,-0.03,-0.0,27.05,19.856687,60.30632288439007,386.63411356604024,8.314060379862537,0.05,0.6660888427805542,0.6730614363723816
21816205,1764.0,1,191022.0,238315,0.57,-0.32,9.33,-0.06,-0.02,0.0,27.05,19.896708,43.16436636550825,60.086271152318055,9.352871216904465,0.06324555320336758,0.47734465344268273,0.10722547424279316
21856184,1733.0,1,190710.0,237794,0.9,-0.39,7.83,-0.05,0.01,0.0,27.05,19.936687,11.149369980723652,-176.43448649297295,7.89119762773687,0.050990195135927854,0.12483853591490228,-0.3026132479383293
21896174,1734.0,1,190790.0,238053,0.28,-0.05,10.26,-0.07,0.02,0.01,27.05,19.976677,7.907682728248589,-285.8268299809846,10.263941737948437,0.07348469228349536,0.08914543216205077,-0.49216624412296545
21936174,1723.0,1,190803.0,238452,1.0,-0.5,9.58,-0.03,-0.03,0.01,27.05,20.016677,5.331620363706614,-305.97371306591833,9.645019440104825,0.04358898943540673,0.06078129518948822,-0.5270763843646293
21976184,1750.0,1,191005.0,238572,0.67,-0.4,9.74,-0.06,0.02,0.01,27.05,20.056687,23.82026209733905,-300.0436920830297,9.771207704270747,0.06403124237432849,0.2643533723983519,-0.5168009554917898
22016174,1759.0,1,190670.0,237612,0.96,0.02,9.09,-0.04,-0.01,0.01,27.05,20.096677,40.96360578450914,-305.3575291871639,9.140574380201716,0.042426406871192854,0.45311283536929775,-0.5260086725239796
22056174,1771.0,1,190714.0,238654,0.89,-0.85,10.09,-0.07,0.05,0.01,27.05,20.136677,49.21239927556789,-320.63470756213525,10.1647774200914,0.08660254037844388,0.543937464329852,-0.5524806799962422
22096174,1763.0,1,190971.0,238511,0.61,-0.89,8.64,-0.05,0.03,0.01,27.05,20.176677,43.47310629608387,-327.8247579576297,8.707112035571841,0.05916079783099616,0.4807440826646936,-0.5649394641462852
22136174,1744.0,1,191026.0,238396,0.69,-0.75,10.76,-0.04,0.02,0.01,27.05,20.216677,26.025408721932294,-314.7049351003299,10.808154329023989,0.0458257569495584,0.28863348368970554,-0.5422056817560634
22176174,1771.0,1,191020.0,238734,-0.07,-0.8,11.06,0.0,0.04,0.02,27.05,20.256677,52.87256948629671,-278.56491017633726,11.089116285800236,0.044721359549995794,0.5842383400497083,-0.47958292601191044
22216174,1775.0,1,191048.0,238807,0.52,-0.84,11.06,-0.02,-0.02,0.01,27.05,20.296677,58.113643151169526,-222.4063060677173,11.104035302537543,0.030000000000000002,0.6419460001436341,-0.3822723526123898
22256187,1741.0,1,191212.0,239808,0.28,-0.69,11.29,-0.01,0.02,0.02,27.05,20.33669,26.23622311797637,-160.10209421891213,11.314530480757918,0.03,0.2909546885205697,-0.27431278566008666
22296174,1751.0,1,191291.0,238963,0.75,-0.79,10.5,-0.02,-0.07,0.01,27.05,20.376677,34.61076211793911,-125.0858222429458,10.556353537088459,0.07348469228349536,0.38316385804478825,-0.21363724789735525
22336184,1743.0,1,191141.0,239252,0.45,-0.15,11.31,-0.01,-0.05,0.03,27.05,20.416687,30.882599513662406,-162.00421398829985,11.319942579359669,0.05916079783099616,0.34211434145729225,-0.2776087430360157
22376186,1729.0,1,191362.0,239148,0.59,-1.06,10.92,-0.05,0.0,0.02,27.05,20.456689,13.308137347193195,-293.19102167815146,10.987178891781092,0.05385164807134505,0.14860798114156212,-0.5049267770466337
22416174,1719.0,1,191082.0,238145,0.63,-0.66,10.34,0.01,-0.07,0.03,27.05,20.496677,9.138590396210638,-480.8653259840345,10.380178225830228,0.07681145747868609,0.10269853327296305,-0.8301252832103297
22456200,1693.0,1,190913.0,237757,0.62,-1.22,10.9,-0.07,-0.02,0.08,27.05,20.536703,-23.49101527862183,-622.8681295388759,10.98557235650469,0.10816653826391968,-0.25657483582740376,-1.0761850715115866
22496184,1655.0,1,190900.0,237060,0.77,-0.56,9.08,-0.04,-0.06,0.08,27.05,20.576687,-52.43505302231488,-601.4667631448318,9.1297809393216,0.10770329614269007,-0.5752676836409307,-1.0391011861765875
22536871,1665.0,1,191217.0,237565,0.88,-0.5,9.4,-0.07,-0.04,0.08,26.99,20.617374,-53.22617052189354,-359.24253137946124,9.454332340255446,0.11357816691600547,-0.5839784064201249,-0.6193795912673469
22575183,1682.0,1,191704.0,237412,0.63,-0.59,7.26,-0.09,0.01,0.05,26.99,20.655686,-25.603750186241395,54.93046709770341,7.311128503863134,0.10344080432788601,-0.2798374334769333,0.09829159390773842
22615174,1733.0,1,192353.0,239040,0.79,-0.85,10.33,-0.04,-0.02,0.08,26.99,20.695677,15.143422256731597,508.0372583866516,10.394974747444074,0.09165151389911681,0.16881567225740973,0.8834265232992022
22655184,1748.0,1,192585.0,238620,1.0,-0.06,8.62,-0.08,0.04,-0.02,26.99,20.735687,35.03819060967331,856.7285652177608,8.67801820694103,0.0916515138991168,0.38787012620521777,1.4876322642669555
22696184,1769.0,1,192563.0,239797,0.71,-0.63,10.46,-0.01,-0.06,0.03,26.99,20.776687,53.6400218256453,1017.6470935686235,10.502980529354513,0.06782329983125268,0.5926884938863634,1.7664688648730222
22736184,1744.0,1,192839.0,240559,1.03,-1.22,8.27,-0.07,0.06,0.02,26.99,20.816687,22.980668566766298,990.8810781214459,8.422719275863347,0.09433981132056604,0.2551088967093182,1.7200892165158883
22776174,1661.0,1,192585.0,239747,0.87,-0.28,9.8,-0.03,-0.03,0.03,26.99,20.856677,-54.45713672376616,836.2649567307761,9.842525082518206,0.05196152422706632,-0.5975321520278007,1.4521733082031576
22814184,1633.0,1,192411.0,239905,1.35,-0.39,9.32,-0.05,0.03,0.02,26.99,20.894687,-93.85264993346132,631.7321625579169,9.425338190218959,0.061644140029689765,-1.0313026026833574,1.09776272774302
22854174,1599.0,1,192252.0,239172,0.4,-0.54,9.44,-0.05,0.09,-0.01,26.99,20.934677,-122.2751630385044,440.49665547714477,9.463889263933723,0.10344080432788601,-1.3442531220156932,0.7663934363627585
22894183,1600.0,1,192078.0,239938,1.19,-0.41,8.7,-0.02,-0.02,-0.03,26.99,20.974686,-130.3966401186466,296.21574052030314,8.790574497721977,0.04123105625617661,-1.4336759137506434,0.5163861794533459
22934207,1600.0,1,192104.0,239144,0.46,0.1,8.42,-0.03,0.07,-0.08,26.99,21.01471,-129.57949028466626,202.2274162573728,8.433148878088184,0.11045361017187261,-1.4246785578880086,0.3535249781813937
22974174,1595.0,1,191803.0,239841,0.56,-0.81,10.03,-0.01,-0.06,0.01,26.99,21.054677,-141.12196220087128,138.07124175959592,10.078224049900856,0.06164414002968976,-1.551768747527655,0.24235636516844836
23014186,1662.0,1,191859.0,239512,0.91,0.28,8.21,-0.06,0.06,-0.08,26.99,21.094689,-74.26343842467726,70.67668675030919,8.265022685994275,0.11661903789690602,-0.8156125300874475,0.12557634728775835
23054174,1745.0,1,191877.0,240036,0.6,-0.43,11.64,-0.04,-0.01,0.02,26.99,21.134677,-0.04828572303850131,-29.309148301497512,11.663382871191361,0.045825756949558406,0.0015449990328564834,-0.04767722792401879
23094186,1743.0,1,191597.0,239399,0.77,-0.59,8.84,-0.06,-0.01,0.01,26.99,21.174689,0.2189183312623176,-171.0372085880596,8.893064713584401,0.06164414002968976,0.004487091002419504,-0.2932609462552633
23134184,1754.0,1,191463.0,239655,0.23,-0.84,11.94,-0.04,0.0,0.02,26.99,21.214687,0.8022894845552598,-339.48156077050083,11.971720845392277,0.044721359549995794,0.01091039019175603,-0.5851381529087704
23174174,1754.0,1,191195.0,238807,0.74,-0.35,9.88,-0.03,-0.02,0.02,26.99,21.254677,1.737893339960527,-510.30793592148774,9.913853942841806,0.0412310562561766,0.02121200255644387,-0.8811428841793723
23214184,1759.0,1,190837.0,238498,0.35,-0.14,11.37,-0.05,0.02,0.03,26.99,21.294687,0.37007734988215885,-669.3856138152906,11.376247184374995,0.061644140029689765,0.006151450983678587,-1.1567896937220288
23254174,1779.0,1,191176.0,238811,0.44,-0.75,10.78,-0.08,0.04,0.02,26.99,21.334677,15.74962559898302,-812.7423302012135,10.81501271381592,0.0916515138991168,0.17549036882901303,-1.4051955167229848
23294174,1812.0,1,190839.0,236652,0.94,-0.23,10.88,-0.04,-0.04,0.03,26.99,21.374677,48.00077941868172,-923.0123835683387,10.922952897454058,0.06403124237432849,0.5305967346749989,-1.59626939208492
23334186,1868.0,1,190532.0,236781,0.44,-1.06,10.91,-0.07,-0.04,0.08,26.99,21.414689,96.30136175296876,-950.4531749293474,10.970200545113112,0.11357816691600547,1.0624178396457398,-1.643818279459535
23374183,1873.0,1,190728.0,237276,0.85,-0.24,10.21,-0.07,-0.02,0.02,26.99,21.454686,101.3400957407012,-828.9586134768581,10.248131537016883,0.07549834435270751,1.117897607124801,-1.4332947875116586
23414186,1850.0,1,191219.0,238322,0.01,-1.16,10.68,-0.07,-0.04,0.03,26.99,21.494689,73.73490123317254,-522.2144147054981,10.74281620432929,0.08602325267042626,0.8139463018523482,-0.9017742067706587
23454184,1855.0,1,191384.0,238984,0.71,-0.31,9.52,-0.05,-0.06,0.03,26.99,21.534687,74.62460523169509,-63.60526824896012,9.551471090884377,0.08366600265340755,0.8237425266745749,-0.10710489979084965
23494186,1840.0,1,192101.0,240264,-0.04,-1.29,11.14,-0.09,0.01,0.02,26.99,21.574689,61.25080898754438,440.82277540138773,11.214512918535517,0.09273618495495703,0.6764882545212378,0.7669585308363267
23534184,1803.0,1,192200.0,240506,0.4,-0.16,10.43,-0.02,-0.08,0.02,26.99,21.614687,15.714113550488376,849.1356824486404,10.438893619536506,0.08485281374238571,0.17509935787308942,1.4744754597532723
23574873,1773.0,1,192446.0,240173,0.64,-0.84,10.74,-0.06,-0.04,0.02,27.05,21.655376,-8.333457769687792,1042.8362357799222,10.791793178151627,0.07483314773547883,-0.0896801816953245,1.810116136932751
23615184,1786.0,1,192438.0,241026,0.26,-0.69,10.47,0.01,-0.06,0.03,27.05,21.695687,-4.197170277994182,984.758560479284,10.495932545514954,0.06782329983125268,-0.044136942297409276,1.7094802330508596
23655174,1808.0,1,192206.0,239454,0.65,-1.17,9.34,-0.03,-0.03,-0.08,27.05,21.735677,22.779729832131476,747.7225894081308,9.435412020680388,0.09055385138137417,0.25289642939069845,1.298748758731582
23694204,1829.0,1,191844.0,239546,0.78,-1.0,10.14,0.049999999999999996,-0.09,0.03,27.05,21.774707,40.342562436092734,487.7317988822502,10.21900190821002,0.10723805294763607,0.44627474059222744,0.8482416048191725
23734174,1799.0,1,191570.0,237826,1.5325000000000002,-0.88,7.75,-0.09,0.02,0.01,27.05,21.814677,9.753805599160989,358.78722104120993,7.948927993761171,0.09273618495495703,0.10947245634418856,0.6248088645359293
23774174,1794.0,1,191473.0,239701,0.28,-0.79,10.66,0.02,0.02,0.03,27.05,21.854677,8.460423805664576,411.5987973129735,10.692899513228392,0.04123105625617661,0.09523147411739623,0.7163197710249497
23814153,1837.0,1,191791.0,240306,1.19,-0.98,7.94,-0.04,-0.01,-0.08,27.05,21.894656,47.75995291593723,549.4145098129839,8.088269283351044,0.09,0.5279450768562712,0.9551242466650594
23854205,1833.0,1,191889.0,240517,0.42,-0.27,11.81,0.03,-0.04,-0.01,27.05,21.934708,47.56833756435625,587.5451249862004,11.820549902606055,0.05099019513592785,0.5258352661028134,1.021196259769328
23894205,1811.0,1,191604.0,240168,0.38,-1.66,7.75,-0.03,0.02,0.03,27.05,21.974708,28.729876785828328,384.57410307656585,7.9348913036033455,0.04690415759823429,0.31841145166832907,0.6694918889250829
23934174,1818.0,1,191083.0,237289,0.77,-0.3,11.71,0.01,-0.02,0.03,27.05,22.014677,29.104696070290444,-50.94189893179113,11.739122624796115,0.03741657386773942,0.3225384579360254,-0.08516205151349254
23974174,1822.0,1,190127.0,237147,0.27,-1.71,9.01,-0.02,0.04,0.08,27.05,22.054677,50.48622650222544,-559.2875056613899,9.174807899896324,0.09165151389911681,0.5579631379445971,-0.9660137617929436
24014174,1839.0,1,190315.0,236016,0.38,0.12,10.2,-0.04,0.07,0.0,27.05,22.094677,48.329312703112095,-930.1890251223691,10.207781345620605,0.0806225774829855,0.5342141017107872,-1.6087049416465646
24054153,1776.0,1,189930.0,236569,0.64,-1.34,11.24,-0.01,-0.06,0.03,27.05,22.134656,12.106957684581714,-1026.6282443914274,11.337671718655466,0.06782329983125268,0.13538220487623234,-1.7758130077075176
24094218,1785.0,1,190236.0,236298,0.47,0.09,9.34,-0.04,0.02,0.02,27.05,22.174721,-0.4521039738186996,-851.5496722046461,9.352251065919905,0.048989794855663564,-0.0029013048822999644,-1.472440149355969
24134153,1743.0,1,190250.0,237963,0.62,-1.02,11.71,-0.03,-0.05,0.04,27.05,22.214656,-19.79720410344665,-531.8835451369831,11.770679674513278,0.07071067811865475,-0.21590355101474762,-0.9185286941995606
24174184,1728.0,1,190675.0,238011,0.73,-0.31,9.64,-0.06,0.01,0.02,27.05,22.254687,-46.01073308579166,-244.95968283091065,9.672569462143967,0.06403124237432849,-0.5045317056835384,-0.42135241985688354
24214174,1736.0,1,190848.0,238160,0.4,-0.75,11.79,-0.05,-0.04,0.03,27.05,22.294677,-29.14391976880769,-129.60628034366692,11.820600661556924,0.07071067811865475,-0.31881702353971647,-0.22147021270821246
24254184,1738.0,1,190570.0,237063,1.23,-0.48,9.76,-0.06,-0.08,0.01,27.05,22.334687,-24.027287021138072,-221.06125308613164,9.848903492267553,0.1004987562112089,-0.2624795395987932,-0.37994167009332863
24294207,1708.0,1,190465.0,236923,-0.16,-0.92,11.28,-0.07,-0.01,0.03,27.05,22.37471,-57.646878684378585,-437.9819767224933,11.318586484186088,0.07681145747868609,-0.6326533040322195,-0.7558178218307482
24334205,1685.0,1,190081.0,235364,1.11,-0.4,7.56,-0.07,-0.03,0.02,27.05,22.414708,-69.62079476685128,-628.2502549700279,7.651516189618891,0.07874007874011811,-0.7644939770438807,-1.08551111727299
24374186,1705.0,1,190290.0,237155,-0.04,-0.94,11.71,-0.11,-0.0,0.02,27.05,22.454689,-56.480062517049355,-651.1927496913992,11.747735952088812,0.11180339887498948,-0.6198058923982969,-1.1252654407998712
24414204,1702.0,1,190283.0,235373,0.73,-0.5,7.3,-0.05,0.02,-0.0,27.05,22.494707,-51.22465070776575,-454.1796473498452,7.35342777213457,0.05385164807134505,-0.5619403599261251,-0.7838848409723841
24454184,1710.0,1,190542.0,238570,0.14,-0.62,12.905000000000001,-0.03,-0.13,0.04,27.05,22.534687,-43.907223513840606,-103.28167826190226,12.920643366334357,0.1392838827718412,-0.48137068503312247,-0.1758554371319524
24494184,1712.0,1,191112.0,237883,0.79,-1.44,6.944999999999999,-0.09,0.11,-0.02,27.05,22.574687,-43.02393991359353,251.12075275907858,7.1365765602283,0.14352700094407325,-0.4716451530087917,0.4382464324610311
24534187,1707.0,1,191164.0,239694,0.73,-1.25,12.905000000000001,0.049999999999999996,-0.13,0.03,27.05,22.61469,-40.61028888882014,459.2747143865798,12.985931811002246,0.14247806848775008,-0.44506927145678943,0.7989317038074548
24574861,1749.0,1,191409.0,238305,0.45,-1.18,7.8,-0.1,0.09,0.01,27.03,22.655364,-6.127479867330566,459.5443955189752,7.9015757922075265,0.13490737563232041,-0.06539091749032858,0.7993990022035772
24613174,1760.0,1,190813.0,238592,0.65,-0.35,12.83,0.03,-0.13,0.02,27.03,22.693677,12.99460209750059,311.2553729948332,12.851221731804335,0.13490737563232044,0.14515575230952105,0.5424465718552633
24653174,1733.0,1,190943.0,238170,0.19,-1.46,8.93,-0.05,0.05,0.02,27.03,22.733677,-17.95447783926407,148.66941121440138,9.050557993847672,0.07348469228349536,-0.19561392570146202,0.2607206739507264
24693174,1727.0,1,190693.0,238049,0.43,-0.4,11.48,-0.0,-0.05,0.02,27.03,22.773677,-25.274848432639562,88.73301559409097,11.495011961716264,0.05385164807134505,-0.27621600935378826,0.15686401444344913
24734184,1744.0,1,190923.0,238488,0.41,-1.22,8.55,-0.07,0.05,0.01,27.03,22.814687,-0.8845007985479213,159.07368648373554,8.646328700668278,0.08660254037844388,-0.007662277649083665,0.2787490065336931
24774174,1734.0,1,191022.0,238649,0.44,-0.76,10.99,-0.04,-0.02,0.01,27.03,22.854677,-24.41538551984624,294.5045002845198,11.025030612202398,0.0458257569495584,-0.2667527587287818,0.5134209745446496
24814184,1733.0,1,190922.0,239324,0.82,-0.14,8.89,-0.05,-0.0,0.02,27.03,22.894687,-10.275144524537003,397.4127195744959,8.928835310386232,0.05385164807134505,-0.11105942694591289,0.6917384022225592
24854184,1807.0,1,191491.0,238760,0.21,-0.83,10.7,-0.05,0.06,-0.08,27.03,22.934687,48.28837358694349,412.4360835667548,10.734197687764093,0.11180339887498948,0.5337633351786857,0.7177706049042499
24894184,1754.0,1,190762.0,237755,0.52,-1.73,10.04,0.02,-0.1,0.03,27.03,22.974687,3.8057571565557105,359.5533706608536,10.201220515212873,0.1063014581273465,0.04398054005065952,0.6261364341929876
24934174,1710.0,1,190847.0,237407,0.84,-0.2,9.92,-0.04,0.01,0.01,27.03,23.014677,-42.84379905239915,305.38019477237225,9.95750972884285,0.042426406871192854,-0.469661683923725,0.5322661734866313
24974174,1724.0,1,191047.0,238862,-0.44750000000000006,-1.82,11.29,0.01,0.01,0.03,27.03,23.054677,-36.5358696398561,303.991824975793,11.444507689280478,0.033166247903554,-0.4002072420075104,0.5298604324049194
25014174,1690.0,1,191104.0,238591,1.09,-0.05,10.28,0.03,-0.04,0.01,27.03,23.094677,-58.86662184902093,360.5688891834168,10.337746369494658,0.05099019513592785,-0.6460834766357518,0.6278961055968089
25054174,1711.0,1,191201.0,239333,-0.39,-1.57,11.21,0.01,-0.01,0.03,27.03,23.134677,-54.0173238591184,441.0329084865985,11.32612466821728,0.033166247903554,-0.5926895237953191,0.7673226454958101
25094187,1717.0,1,191000.0,238499,1.25,-0.53,8.38,0.01,-0.07,0.02,27.03,23.17469,-35.96878421218817,503.96837384197244,8.48927558746917,0.07348469228349536,-0.3939632593435358,0.8763760366565257
25134174,1730.0,1,191117.0,239229,0.4,-0.95,11.28,-0.03,-0.0,0.02,27.03,23.214677,-31.174623835779812,520.6555491386991,11.326998719872797,0.03605551275463989,-0.34117640780740993,0.9052912602864084
25174184,1759.0,1,191140.0,238932,0.5,-0.74,9.18,0.02,-0.05,0.03,27.03,23.254687,-3.6436948308839803,476.5672416225839,9.223339959038698,0.061644140029689765,-0.03804281444985798,0.8288958698969053
25214174,1776.0,1,191163.0,239113,0.51,-1.13,11.65,-0.01,-0.05,0.02,27.03,23.294677,22.159900607808495,368.8221916526033,11.715779956964026,0.05477225575051661,0.2460717029165705,0.6421972729506631
25254186,1802.0,1,190842.0,238213,0.11,-1.22,9.32,0.02,-0.04,0.03,27.03,23.334689,30.369539123236937,205.5965656103456,9.400154254053495,0.053851648071345036,0.3364652099030521,0.35936297683912893
25294174,1756.0,1,190530.0,237344,0.45,-1.0,11.07,-0.01,-0.06,0.02,27.03,23.374677,7.954447228976418,-0.06271073460622383,11.124180868720178,0.06403124237432849,0.0896603400006013,0.003000449249417838
25334185,1762.0,1,190322.0,237749,0.16,-0.9,10.06,0.02,-0.03,0.02,27.03,23.414688,-14.068117751665062,-241.14468921078378,10.101445441123762,0.0412310562561766,-0.1528225510178922,-0.41474187063504
25374174,1787.0,1,190240.0,236327,0.72,-0.63,9.71,-0.01,-0.06,0.02,27.03,23.454677,41.33930774207147,-515.18801506291,9.757017987069617,0.06403124237432849,0.4572495604470124,-0.8895989935685648
25414184,1893.0,1,189934.0,235690,0.45,-0.71,10.41,-0.01,-0.03,0.02,27.03,23.494687,117.79008692360398,-801.5801371382518,10.443883377364953,0.03741657386773942,1.2990228040655438,-1.3858538784363197
25454184,1872.0,1,189529.0,234960,0.89,-0.86,9.3,-0.02,-0.04,0.02,27.03,23.534687,125.8248331143404,-1038.7618194898553,9.38198806223926,0.048989794855663564,1.3874906317977902,-1.7968378385229424
25494184,1894.0,1,189583.0,234756,0.82,-0.53,9.9,-0.01,-0.03,0.02,27.03,23.574687,123.51307594006866,-1134.9664205855825,9.948029955724902,0.03741657386773942,1.3620366683996619,-1.9635393626240447
25532198,1889.0,1,189610.0,235243,0.61,-0.9,8.88,-0.04,-0.0,0.03,27.03,23.612701,141.5903737041689,-1019.4889479732694,8.94631208934721,0.05,1.5610795785917468,-1.763442169095212
25572186,1904.0,1,189876.0,235903,0.62,-0.36,8.79,-0.06,-0.02,0.02,27.03,23.652689,139.46837536437164,-700.2571179559031,8.819189305145908,0.066332495807108,1.5377149844755398,-1.210283255702633
25612870,1879.0,1,190371.0,237920,0.53,-0.42,9.45,-0.05,-0.0,0.02,26.87,23.693373,131.59072641833734,-278.39585281105826,9.474164870847456,0.05385164807134505,1.4509769004902136,-0.47928998658768807
25653184,1872.0,1,190984.0,238269,0.71,-0.2,9.71,-0.04,0.01,0.01,26.87,23.733687,113.46365906274697,101.65748247436392,9.737977202684345,0.042426406871192854,1.2513859944384298,0.17925928766943425
25693174,1841.0,1,190956.0,238655,0.66,-0.88,8.99,-0.03,-0.0,0.02,26.87,23.773677,94.37532305623584,336.1335892832675,9.057046980114436,0.03605551275463989,1.0412108897828232,0.5855550773213607
25734184,1853.0,1,191212.0,239115,0.36,-0.46,9.47,-0.05,0.03,0.02,26.87,23.814687,101.22868403373663,416.6902228451241,9.487997681281335,0.061644140029689765,1.1166708911259233,0.7251420974666157
25772174,1808.0,1,191149.0,238751,0.72,-0.26,9.69,-0.03,0.01,0.02,26.87,23.852677,61.72064015717939,411.92539971575167,9.720190327354706,0.03741657386773942,0.681661403988788,0.716885701528253
25812174,1711.0,1,190844.0,238675,1.24,0.19,9.3,-0.03,0.02,0.02,26.87,23.892677,-33.27506474629529,392.23167671634656,9.384226126857772,0.0412310562561766,-0.36430364048185176,0.6827607885632372
25852153,1680.0,1,191191.0,239384,0.92,-0.34,9.8,-0.08,0.03,0.01,26.87,23.932656,-66.03458151741476,364.92431579295004,9.84895933588925,0.08602325267042626,-0.72500741599631,0.635443106942381
25892174,1689.0,1,191168.0,238989,0.79,-0.04,9.21,-0.04,-0.0,0.02,26.87,23.972677,-48.72799443241239,278.3986437573851,9.243906100777961,0.044721359549995794,-0.5344505360995496,0.4855130491497355
25932203,1658.0,1,191117.0,238535,0.46,-1.03,11.49,-0.08,0.01,0.02,26.87,24.012706,-86.31593678703076,88.85366256762818,11.545241443988948,0.08306623862918075,-0.9483184455640564,0.15707306925099232
25972174,1602.0,1,190305.0,236425,0.46,-0.33,9.22,-0.01,-0.04,0.03,26.87,24.052677,-132.48968069296336,-178.33201782341823,9.237364342711617,0.05099019513592785,-1.456721663867647,-0.30590125455352296
26012184,1605.0,1,190397.0,237274,0.71,-1.53,11.47,-0.08,-0.01,0.07,26.87,24.092687,-134.39705931077813,-432.974504941537,11.593355855833979,0.10677078252031312,-1.4777231540174611,-0.7471409688707941
26052186,1595.0,1,190251.0,235834,0.48,0.19,9.22,-0.04,-0.02,0.02,26.87,24.132689,-140.96039044292763,-582.0690638155817,9.234440968461492,0.048989794855663564,-1.549989736453897,-1.0054892174618755
26092174,1591.0,1,190220.0,236874,0.42,-1.09,9.73,-0.06,0.02,0.03,26.87,24.172677,-140.69119115974536,-588.0229140213756,9.799867346040967,0.06999999999999999,-1.5470256757051366,-1.0158059371641686
26132174,1619.0,1,190518.0,236706,0.41,-0.29,9.22,-0.05,0.01,0.02,26.87,24.212677,-121.11644606346732,-475.99629734291153,9.233666660650037,0.05477225575051661,-1.3314948878033672,-0.821688321920303
26172174,1611.0,1,190580.0,237534,0.61,-1.26,11.64,-0.04,-0.08,0.03,26.87,24.252677,-113.93020631408184,-298.30642419878166,11.72387734497423,0.09433981132056604,-1.252369672756221,-0.5137906503631621
26212186,1630.0,1,190853.0,237190,0.44,-0.52,10.39,-0.0,0.03,0.03,26.87,24.292689,-112.56712093645577,-98.81085416551151,10.41230522026703,0.042426406871192854,-1.237361208330649,-0.16810847719066357
26252174,1619.0,1,190668.0,237775,0.68,-1.12,10.69,-0.0,-0.08,0.03,26.87,24.332677,-103.91401275646857,93.86003090527703,10.77,0.08544003745317531,-1.1420848093451776,0.1657480101851285
