timestamp_us,ecg,leads,ir,red,accX,accY,accZ,gyroX,gyroY,gyroZ,temp,time_sec,ecg_filtered,ppg_filtered,accel_magnitude,gyro_magnitude,ecg_norm,ppg_norm
1948971,1856,1,189543.5,220187,0.15500000000000003,0.13,9.930000000000001,-0.03,-0.01,-0.0,31.49,0.030483,0.17100718887736,-77.84526233821212,9.932060460951696,0.03162277660168379,0.003133731348699135,-0.20996787418089793
1989178,1883,1,189543.5,221113,0.15500000000000003,0.13499999999999998,10.01,-0.03,-0.01,-0.0,31.49,0.07069,23.095692271681457,-116.31577940032783,10.012110167192528,0.03162277660168379,2.299563558361301,-0.3188191149573464
2029171,1887,1,189543.5,220583,0.15500000000000003,0.13499999999999998,9.95,-0.03,-0.01,-0.01,31.49,0.110683,20.324575120182338,-151.6849576294224,9.952122889112653,0.033166247903554,2.0219730022483975,-0.4188952051555622
2069173,1887,1,189543.5,219400,0.16,0.095,10.01,-0.03,-0.01,-0.0,31.49,0.150685,18.675306719770802,-182.7416317052068,10.011729371092688,0.03162277660168379,1.8567611734370442,-0.5067691867316492
2109171,1899,1,189543.5,219114,0.18,0.11,9.95,-0.03,-0.01,-0.01,31.49,0.190683,22.621604879260687,-210.52060635034974,9.952235929679318,0.033166247903554,2.2520728982002884,-0.5853690104028264
2149173,1897,1,189543.5,218186,0.16,0.11,9.97,-0.03,-0.01,-0.01,31.49,0.230685,19.559163681536972,-238.7145566821188,9.971890492780194,0.033166247903554,1.9452995975192606,-0.6651429960513011
2189171,1904,1,189543.5,218818,0.15500000000000003,0.13,9.95,-0.03,-0.01,-0.01,31.49,0.270683,19.788875667829263,-271.64891349751565,9.952056320178256,0.033166247903554,1.9683104897098636,-0.7583298278721957
2229165,1903,1,189543.5,220177,0.15500000000000003,0.13499999999999998,9.98,-0.03,-0.01,-0.0,31.49,0.310677,16.10243816862991,-309.90566446988254,9.98211650903755,0.03162277660168379,1.599029734139997,-0.8665762235391407
2269171,1901,1,189543.5,221298,0.15500000000000003,0.11,9.98,-0.03,-0.01,-0.01,31.49,0.350683,10.48001731632417,-346.98284006212396,9.981809705659591,0.033166247903554,1.0358161109815494,-0.9714850440050898
2309164,1915,1,189543.5,222525,0.16,0.12,9.96,-0.03,-0.01,-0.0,31.49,0.390676,19.52629900079118,-371.9204488842493,9.962007829749986,0.03162277660168379,1.9420074505236844,-1.0420453033825021
2349160,1919,1,189543.5,223238,0.15500000000000003,0.12,9.97,-0.03,-0.01,-0.0,31.49,0.430672,22.875068601433984,-379.2038703640962,9.971926844898132,0.03162277660168379,2.2774630682096904,-1.0626535386162286
2389175,1920,1,189543.5,223437,0.16,0.12,9.99,-0.03,-0.01,-0.01,31.49,0.470687,17.86542166231221,-379.2424451102182,9.99200180144099,0.033166247903554,1.7756327219149426,-1.0627626847701845
2429171,1924,1,189543.5,221711,0.15500000000000003,0.13499999999999998,9.930000000000001,-0.03,-0.01,-0.01,31.49,0.510683,22.558881953044924,-397.0688284398523,9.93212716390603,0.033166247903554,2.245789767239967,-1.1132019325935032
2469173,1922,1,189543.5,220234,0.15500000000000003,0.13499999999999998,9.99,-0.03,-0.01,-0.01,31.49,0.550685,15.61335707502002,-452.1198938330976,9.992114390858424,0.033166247903554,1.5500371129922297,-1.2689673662746952
2509171,1911,1,189543.5,219600,0.15500000000000003,0.13499999999999998,10.0,-0.03,-0.01,-0.01,31.49,0.590683,4.430649439311818,-529.1519741480951,10.002112276914312,0.033166247903554,0.42983401015158085,-1.4869274604512241
2549173,1923,1,189543.5,219270,0.15500000000000003,0.13499999999999998,10.01,-0.03,-0.01,-0.01,31.49,0.630685,14.746361766475715,-566.9060030384627,10.012110167192528,0.033166247903554,1.4631877678767067,-1.5937514181950454
2589171,1926,1,189543.5,221237,0.16,0.12,9.97,-0.03,-0.01,-0.01,31.49,0.670683,15.084914372256806,-486.9791135104131,9.972005816283904,0.033166247903554,1.4971015293578498,-1.3676005431630616
2629173,1913,1,189543.5,224689,0.18,0.11,9.96,-0.03,-0.01,-0.01,31.49,0.710685,4.12009002829224,-253.12416893859475,9.962233685273599,0.033166247903554,0.3987244052890136,-0.7059145866876415
2669171,1920,1,190238.0,226137,0.15500000000000003,0.13499999999999998,9.97,-0.03,-0.01,-0.01,31.49,0.750683,6.966704072826862,85.58639108709174,9.97211863146443,0.033166247903554,0.6838776963484294,0.25245737029312243
2709173,1920,1,190569.0,226905,0.15500000000000003,0.12,9.98,-0.03,-0.01,-0.01,31.49,0.790685,10.348365454467912,413.6960279684293,9.981924914564326,0.033166247903554,1.0226281757381015,1.1808343148394291
2749171,1925,1,190797.0,227034,0.16,0.13,9.96,-0.03,-0.01,-0.01,31.49,0.830683,12.552022950492859,625.439182630436,9.962133305673039,0.033166247903554,1.2433747109298774,1.779955586686751
2789173,1921,1,190732.0,226738,0.15500000000000003,0.11,9.97,-0.03,-0.01,-0.0,31.49,0.870685,10.773196763353893,696.8267110325257,9.97181152048112,0.03162277660168379,1.0651847162380348,1.9819445807516016
2829171,1915,1,190709.0,226839,0.15500000000000003,0.12,9.97,-0.03,-0.01,-0.0,31.49,0.910683,4.302900638986729,691.6144535248815,9.971926844898132,0.03162277660168379,0.4170370554989009,1.9671966454421448
2869174,1910,1,190725.0,226892,0.16,0.1,9.99,-0.03,-0.01,-0.0,31.49,0.950686,0.9939389611872177,697.7445030682833,9.991781622913903,0.03162277660168379,0.08556910879020872,1.9845414473782093
2909171,1902,1,190804.0,227125,0.16,0.13499999999999998,9.99,-0.03,-0.01,-0.01,31.49,0.990683,-7.455230179955684,751.449725620355,9.992193202695793,0.033166247903554,-0.7608077971132544,2.136498856776408
2949173,1893,1,190937.0,227325,0.15500000000000003,0.11,9.99,-0.03,-0.01,-0.0,31.49,1.030685,-12.562811515404334,812.4337183876496,9.99180789447035,0.03162277660168379,-1.2724485058187913,2.3090513407865334
2989857,1891,1,190949.0,227222,0.15500000000000003,0.12,10.01,-0.03,-0.01,-0.0,31.5,1.071369,-17.54640509914525,804.5963600070355,10.0119191466971,0.03162277660168379,-1.7716690146316172,2.2868757567474085
3028177,1874,1,190766.0,226120,0.17,0.12,9.96,-0.03,-0.01,-0.0,31.5,1.109689,-27.330594656933958,680.7350537732844,9.962173457634634,0.03162277660168379,-2.7517786498346366,1.9364136913177639
3068171,1885,1,190318.0,225023,0.15500000000000003,0.13,9.99,-0.03,-0.01,-0.0,31.5,1.149683,-21.72556043221775,455.9853406018945,9.992048088355059,0.03162277660168379,-2.190306693793689,1.300490729758503
3108173,1888,1,190191.0,224581,0.16,0.13,9.97,-0.03,-0.01,-0.01,31.5,1.189685,-9.739253093317409,190.64841147438412,9.972131166405704,0.033166247903554,-0.9896047609484722,0.5497273877241894
3148171,1904,1,190042.0,224034,0.15500000000000003,0.11,9.99,-0.03,-0.01,-0.01,31.5,1.229683,0.3223388272368292,-51.33523057513018,9.99180789447035,0.033166247903554,0.018293044850460065,-0.13495848853174572
3188178,1907,1,189798.0,223318,0.15500000000000003,0.12,9.99,-0.03,-0.01,-0.01,31.5,1.26969,12.085878448242225,-231.08425499440273,9.991922988093934,0.033166247903554,1.1966797122941377,-0.6435532730729107
3228171,1907,1,189549.0,222846,0.17,0.13,9.930000000000001,-0.03,-0.01,-0.01,31.5,1.309683,6.871683309619516,-338.3281498259338,9.93230587527388,0.033166247903554,0.6743592007169004,-0.9469968425799826
3268173,1879,1,189559.0,222681,0.15500000000000003,0.11,10.0,-0.03,-0.01,-0.01,31.5,1.349685,-13.504932237053612,-381.9256080180987,10.001806086902505,0.033166247903554,-1.3668233736971247,-1.0703546183866877
3308171,1873,1,189543.5,221964,0.15500000000000003,0.11,9.96,-0.03,-0.01,-0.0,31.5,1.389683,-23.65469374912959,-380.4028668905783,9.961813338945877,0.03162277660168379,-2.3835533740965364,-1.0660460654019617
3348173,1872,1,189543.5,221104,0.15500000000000003,0.12,9.98,-0.03,-0.01,-0.0,31.5,1.429685,-18.5601503708367,-354.8984130265623,9.981924914564326,0.03162277660168379,-1.8732187140275522,-0.993881933998651
3389171,1879,1,189543.5,220738,0.15500000000000003,0.13499999999999998,10.01,-0.03,-0.01,-0.0,31.5,1.470683,-14.37094316454264,-322.898631665973,10.012110167192528,0.03162277660168379,-1.4535741106089441,-0.9033394570142346
3429173,1871,1,189543.5,221291,0.15500000000000003,0.11,9.930000000000001,-0.03,-0.01,-0.0,31.5,1.510685,-18.340074481826736,-293.92597349518786,9.93181881630953,0.03162277660168379,-1.851173096654693,-0.821362139543045
3469171,1874,1,189543.5,221880,0.15500000000000003,0.12,10.01,-0.03,-0.01,-0.0,31.5,1.550683,-16.3028852549306,-269.3726637003993,10.0119191466971,0.03162277660168379,-1.6471021536072699,-0.7518892434024524
3509173,1881,1,189543.5,222519,0.15500000000000003,0.13,9.930000000000001,-0.03,-0.01,-0.01,31.5,1.590685,-7.978848122896694,-246.08287055562045,9.932060460951696,0.033166247903554,-0.813260071060986,-0.6859914319136515
3549171,1876,1,189543.5,222670,0.15500000000000003,0.12,9.96,-0.03,-0.01,-0.0,31.5,1.630683,-11.550455055587731,-220.85438248882238,9.961928779106987,0.03162277660168379,-1.1710379275929828,-0.6146081379342446
3589173,1872,1,189543.5,222563,0.15500000000000003,0.11,9.95,-0.03,-0.01,-0.01,31.5,1.670685,-17.455607064623443,-193.1113778645941,9.95181516106484,0.033166247903554,-1.762573521543845,-0.5361100904206634
3629171,1874,1,189543.5,223252,0.15500000000000003,0.13,9.97,-0.03,-0.01,-0.01,31.5,1.710683,-11.309338522383085,-164.81851964359524,9.972052196012614,0.033166247903554,-1.1468846100386942,-0.45605624769494013
3669173,1887,1,189558.0,222798,0.16,0.13,9.95,-0.03,-0.01,-0.01,31.5,1.750685,-3.4384589756014163,-138.55741170403775,9.952135449239021,0.033166247903554,-0.358436590326924,-0.38175118496938426
3709171,1889,1,189543.5,221115,0.16,0.11,9.96,-0.03,-0.01,-0.01,31.5,1.790683,4.850051226169468,-115.56553017306467,9.961892390504929,0.033166247903554,0.4718466602431075,-0.3166963059722915
3749173,1899,1,189543.5,218684,0.16,0.13,9.96,-0.03,-0.01,-0.0,31.5,1.830685,7.87222681280372,-95.17920425439647,9.962133305673039,0.03162277660168379,0.7745864420350104,-0.2590137729422022
3789171,1889,1,189543.5,216981,0.15500000000000003,0.1,9.97,-0.03,-0.01,-0.0,31.5,1.870683,4.253887008418638,-75.81942557538626,9.971706223109464,0.03162277660168379,0.41212722302965715,-0.20423582631452566
3829173,1903,1,189543.5,216050,0.16,0.13,9.98,-0.03,-0.01,-0.0,31.5,1.910685,11.910420138136606,-56.41754038020492,9.982129031424108,0.03162277660168379,1.1791035625992392,-0.14933874048935405
3869171,1901,1,189543.5,215364,0.15500000000000003,0.11,9.94,-0.03,-0.01,-0.0,31.5,1.950683,14.216596803067116,-37.06643462003872,9.941816986849034,0.03162277660168379,1.4101197296950045,-0.09458533364043328
3907173,1895,1,189543.5,216041,0.15500000000000003,0.12,9.98,-0.03,-0.01,-0.0,31.5,1.988685,3.952912738082093,-18.62622509021179,9.981924914564326,0.03162277660168379,0.3819777885197523,-0.042409281931577954
3947171,1895,1,189543.5,216733,0.15500000000000003,0.13,9.98,-0.03,-0.01,-0.0,31.5,2.028683,5.976053972174265,-1.9158196650275923,9.982050140126526,0.03162277660168379,0.5846415048345877,0.004872337950781939
3987173,1897,1,189543.5,216912,0.15500000000000003,0.11,9.97,-0.03,-0.01,-0.01,31.5,2.068685,5.089099334652142,12.779450225422467,9.97181152048112,0.033166247903554,0.4957927779074383,0.0464521887892178
4027900,1883,1,189543.5,217043,0.15500000000000003,0.11,9.96,-0.03,-0.01,-0.01,31.5,2.109412,-7.743412249191204,25.65379617003475,9.961813338945877,0.033166247903554,-0.7896758010580095,0.0828797867857188
4068173,1891,1,189543.5,216696,0.15500000000000003,0.12,9.96,-0.03,-0.01,-0.0,31.5,2.149685,-2.6345531308301298,37.03176825073092,9.961928779106987,0.03162277660168379,-0.2779070932640691,0.11507343722467277
4108171,1904,1,189543.5,216227,0.15500000000000003,0.11,9.98,-0.03,-0.01,-0.0,31.5,2.189683,11.862212229566856,47.085970731177156,9.981809705659591,0.03162277660168379,1.1742744415562412,0.14352151899199464
4148173,1898,1,189543.5,216040,0.15500000000000003,0.11,9.96,-0.03,-0.01,-0.01,31.5,2.229685,2.449820143358505,55.79107632972319,9.961813338945877,0.033166247903554,0.23140879903015696,0.16815236926005267
4188171,1885,1,189543.5,216279,0.16,0.11,10.0,-0.03,-0.01,-0.01,31.5,2.269683,-8.656694694869381,63.04778232582925,10.001884822372231,0.033166247903554,-0.8811618581692398,0.18868501378756547
4228173,1903,1,189543.5,216730,0.15500000000000003,0.11,9.96,-0.03,-0.01,-0.0,31.5,2.309685,5.931733840977792,68.81741613351973,9.961813338945877,0.03162277660168379,0.5802018333255105,0.20501002958547673
4268171,1909,1,189543.5,217513,0.15500000000000003,0.11,9.99,-0.03,-0.01,-0.01,31.5,2.349683,13.57582324057271,73.16588270350591,9.99180789447035,0.033166247903554,1.345931649642509,0.21731389284922337
4308173,1904,1,189543.5,218004,0.17,0.11,9.99,-0.03,-0.01,-0.0,31.5,2.389685,5.891362177880382,76.2217262547504,9.992051841338695,0.03162277660168379,0.576157690910113,0.22596031581345313
4348171,1904,1,189543.5,217857,0.15500000000000003,0.11,9.930000000000001,-0.03,-0.01,-0.01,31.5,2.429683,6.845388758773593,78.11219241601516,9.93181881630953,0.033166247903554,0.6717252020105988,0.23130933638854187
4388174,1904,1,189543.5,215442,0.15500000000000003,0.13499999999999998,9.95,-0.03,-0.01,-0.0,31.5,2.469686,5.279808848278422,78.9305840522994,9.952122889112653,0.03162277660168379,0.5148966833178976,0.23362495239408634
4427176,1904,1,189543.5,212159,0.15500000000000003,0.11,9.97,-0.03,-0.01,-0.0,31.5,2.508688,5.150676409103835,78.74406239537892,9.97181152048112,0.03162277660168379,0.5019611256915095,0.23309719463729064
4467174,1910,1,189543.5,212036,0.15500000000000003,0.12,9.96,-0.03,-0.01,-0.01,31.5,2.548686,11.381611180671513,77.61853905752584,9.961928779106987,0.033166247903554,1.126131290206927,0.22991255816228975
4507171,1907,1,189543.5,212374,0.15500000000000003,0.13,9.96,-0.03,-0.01,-0.01,31.5,2.588683,6.454491097213894,75.63479187105037,9.962054256025713,0.033166247903554,0.6325678898785985,0.2242996015626685
4547173,1907,1,189543.5,212129,0.16,0.12,9.96,-0.03,-0.01,-0.0,31.5,2.628685,8.856127352956745,72.886893521766,9.962007829749986,0.03162277660168379,0.873146511194523,0.21652450084426117
4587171,1915,1,189543.5,211804,0.15500000000000003,0.13499999999999998,9.95,-0.03,-0.01,-0.0,31.5,2.668683,13.687808926937059,69.4704030949415,9.952122889112653,0.03162277660168379,1.357149569078989,0.20685763773815213
4627173,1902,1,189543.5,211749,0.16,0.12,9.99,-0.03,-0.01,-0.0,31.5,2.708685,3.547077049379064,65.47213029953501,9.99200180144099,0.03162277660168379,0.34132409242588907,0.1955446378624291
4667171,1904,1,189543.5,211446,0.15500000000000003,0.13,9.96,-0.03,-0.01,-0.0,31.5,2.748683,3.691430852427135,60.96745771175277,9.962054256025713,0.03162277660168379,0.35578441664691624,0.18279879408601107
4707173,1903,1,189543.5,211295,0.18,0.13499999999999998,9.98,-0.03,-0.01,-0.0,31.5,2.788685,3.395075428275642,56.023519181910515,9.982536000435962,0.03162277660168379,0.32609766487866837,0.1688100597410346
4747171,1895,1,189543.5,211496,0.15500000000000003,0.11,9.96,-0.03,-0.01,-0.01,31.5,2.828683,-3.493979213146159,50.70321543160272,9.961813338945877,0.033166247903554,-0.36399820781654474,0.15375641064155599
4787173,1904,1,189543.5,212024,0.16,0.1,9.99,-0.03,-0.01,-0.01,31.5,2.868685,3.898801982533049,45.06666535154449,9.991781622913903,0.033166247903554,0.37655736278408003,0.13780795148977806
4827171,1905,1,189543.5,212554,0.17,0.12,10.0,-0.03,-0.01,-0.01,31.5,2.908683,7.534477461286243,39.17006387117143,10.002164765689475,0.033166247903554,0.7407531447802231,0.12112368425036206
4867173,1904,1,189543.5,213105,0.15500000000000003,0.12,9.96,-0.03,-0.01,-0.0,31.5,2.948685,4.921297189836672,33.06392045086039,9.961928779106987,0.03162277660168379,0.478983567704591,0.10384652401394984
4907171,1904,1,189543.5,213672,0.17,0.11,9.97,-0.03,-0.01,-0.0,31.5,2.988683,6.647497234719573,26.79241887986283,9.972055956521704,0.03162277660168379,0.651901854526907,0.08610148756350951
4947173,1899,1,189543.5,214267,0.16,0.12,9.96,-0.03,-0.01,-0.01,31.5,3.028685,1.6758455009019784,20.39424991109044,9.962007829749986,0.033166247903554,0.15387759422325645,0.06799804929092959
4987171,1894,1,189543.5,215157,0.16,0.13499999999999998,9.97,-0.03,-0.01,-0.01,31.5,3.068683,-3.1529766237497245,13.90418355841096,9.972197601331414,0.033166247903554,-0.32983902462384296,0.04963458996778138
5027190,1897,1,189543.5,215959,0.16,0.12,9.98,-0.03,-0.01,-0.01,31.5,3.108702,1.0008680547014057,7.354512325555123,9.982003806851608,0.033166247903554,0.08626321546878102,0.031102480320722742
5067860,1898,1,189543.5,215196,0.15500000000000003,0.13,9.99,-0.03,-0.01,-0.01,31.29,3.149372,1.8142026209242808,0.7760153431110975,9.992048088355059,0.033166247903554,0.1677372139323667,0.012488809029875446
5108173,1895,1,189543.5,211888,0.15500000000000003,0.11,9.98,-0.03,-0.01,-0.01,31.29,3.189685,-0.5220487503904148,-5.801372555679557,9.981809705659591,0.033166247903554,-0.06629162062338026,-0.0061217241401194744
5148171,1895,1,189543.5,210490,0.17,0.11,10.0,-0.03,-0.01,-0.0,31.29,3.229683,0.30254180575048767,-12.347840575891224,10.002049789918065,0.03162277660168379,0.016309921834242683,-0.024644770387530393
5188173,1887,1,189543.5,210748,0.15500000000000003,0.1,9.96,-0.03,-0.01,-0.01,31.29,3.269685,-8.360004603340977,-18.832757500753726,9.961707935891315,0.033166247903554,-0.851441581833754,-0.042993659550203185
5228181,1879,1,189543.5,210842,0.16,0.13499999999999998,9.95,-0.03,-0.01,-0.01,31.29,3.309693,-14.686081271016743,-25.223578719694796,9.952202017644135,0.033166247903554,-1.4851423762021867,-0.061076307572296935
5268173,1887,1,189543.5,211196,0.15500000000000003,0.11,9.98,-0.03,-0.01,-0.0,31.29,3.349685,-7.648267734220954,-31.484797529881796,9.981809705659591,0.03162277660168379,-0.7801449088662463,-0.07879224924163439
5308171,1881,1,189543.5,212402,0.15500000000000003,0.12,9.97,-0.03,-0.01,-0.01,31.29,3.389683,-12.78431591945445,-37.57708941795944,9.971926844898132,0.033166247903554,-1.294637221538899,-0.09603021695906316
5348173,1872,1,189543.5,212995,0.15500000000000003,0.12,9.95,-0.03,-0.01,-0.0,31.29,3.429685,-21.499550072037344,-43.45668796102434,9.951930717202567,0.03162277660168379,-2.1676666038444723,-0.11266637486790142
5388171,1872,1,189543.5,213067,0.15500000000000003,0.13,9.99,-0.03,-0.01,-0.0,31.29,3.469683,-22.34435397974695,-49.0749562708563,9.992048088355059,0.03162277660168379,-2.252292974267173,-0.1285631062675021
5428173,1869,1,189543.5,213142,0.15500000000000003,0.12,9.98,-0.03,-0.01,-0.01,31.29,3.509685,-23.91607712108107,-54.37811357532896,9.981924914564326,0.033166247903554,-2.409736877576144,-0.14356823998308177
5467171,1880,1,189543.5,213340,0.15500000000000003,0.13499999999999998,9.97,-0.03,-0.01,-0.01,31.29,3.548683,-14.624140433441225,-59.30711627691531,9.97211863146443,0.033166247903554,-1.478937589248526,-0.15751471382412333
5507173,1880,1,189543.5,213536,0.16,0.11,9.98,-0.03,-0.01,-0.0,31.29,3.588685,-13.073346494386243,-63.7977332087143,9.981888598857433,0.03162277660168379,-1.3235902226725915,-0.17022078751917666
5547171,1874,1,189543.5,213620,0.16,0.11,9.99,-0.03,-0.01,-0.01,31.29,3.628683,-21.037202985492296,-67.78086912413353,9.991886708725234,0.033166247903554,-2.1213520029616517,-0.18149095802077306
5587173,1882,1,189543.5,214150,0.16,0.12,9.96,-0.03,-0.01,-0.01,31.29,3.668685,-11.324842788523755,-71.18317432767815,9.962007829749986,0.033166247903554,-1.148437715744739,-0.19111768443851335
5627171,1889,1,189543.5,214581,0.15500000000000003,0.11,9.97,-0.03,-0.01,-0.01,31.29,3.708683,-6.853340188352167,-73.92794088081529,9.97181152048112,0.033166247903554,-0.7005147931175103,-0.1988839238282327
5667173,1889,1,189543.5,215014,0.15500000000000003,0.13,9.99,-0.03,-0.01,-0.01,31.29,3.748685,-4.99755386192592,-75.9362445760969,9.992048088355059,0.033166247903554,-0.5146154860092925,-0.20456636237550674
5707183,1904,1,189543.5,215561,0.15500000000000003,0.11,9.99,-0.03,-0.01,-0.01,31.29,3.788695,7.892600246703902,-77.12827216600496,9.99180789447035,0.033166247903554,0.7766273058949961,-0.20793917075215912
5747173,1905,1,189543.5,213902,0.16,0.13,9.97,-0.03,-0.01,-0.0,31.29,3.828685,9.023277203303099,-77.42479786851764,9.972131166405704,0.03162277660168379,0.8898903792358765,-0.20877818184703206
5787171,1907,1,189543.5,210418,0.15500000000000003,0.12,9.98,-0.03,-0.01,-0.0,31.29,3.868683,11.587672375509495,-76.74883736236971,9.981924914564326,0.03162277660168379,1.146773016464303,-0.20686557069883055
5827173,1915,1,189543.5,209894,0.15500000000000003,0.12,9.97,-0.03,-0.01,-0.0,31.29,3.908685,16.454649031002045,-75.02756127171656,9.971926844898132,0.03162277660168379,1.6343116813871552,-0.20199526864690057
5867171,1908,1,189543.5,210334,0.15500000000000003,0.13,9.94,-0.03,-0.01,-0.0,31.29,3.948683,12.81498379137496,-72.19452004685596,9.942058388482739,0.03162277660168379,1.2697162338845782,-0.1939792585683517
5907174,1919,1,189543.5,210982,0.15500000000000003,0.11,10.01,-0.03,-0.01,-0.0,31.29,3.988686,19.117739642847837,-68.19209064104332,10.011804282945207,0.03162277660168379,1.9010809168636875,-0.1826544976809583
5947171,1922,1,189543.5,211199,0.15500000000000003,0.12,9.930000000000001,-0.03,-0.01,-0.0,31.29,4.028683,25.33831248030306,-62.973887452664236,9.931934605100864,0.03162277660168379,2.524213097455861,-0.16788973923589867
5987173,1919,1,189543.5,211332,0.15500000000000003,0.13499999999999998,10.01,-0.03,-0.01,-0.0,31.29,4.068685,19.45824424086116,-56.506861943998494,10.012110167192528,0.03162277660168379,1.9351902148666194,-0.1495914733297088
6027173,1909,1,189543.5,210820,0.17,0.13499999999999998,10.01,-0.03,-0.01,-0.0,31.29,4.108685,9.864272422962966,-48.773067455687816,10.01235361940438,0.03162277660168379,0.9741352227234148,-0.12770892039694146
6067173,1904,1,189543.5,209536,0.18,0.095,9.930000000000001,-0.03,-0.01,-0.0,31.29,4.148685,5.20882847295606,-39.77146810853714,9.932085631930487,0.03162277660168379,0.5077863805837898,-0.10223914944669021
6107857,1906,1,189543.5,210464,0.15500000000000003,0.12,9.97,-0.03,-0.01,-0.0,31.21,4.189369,4.935659640328545,-29.520339739494045,9.971926844898132,0.03162277660168379,0.4804222945433413,-0.07323387144308792
6148173,1899,1,189543.5,211684,0.19499999999999995,0.13499999999999998,9.930000000000001,-0.03,-0.01,-0.01,31.21,4.229685,0.33586789300798714,-18.060377987670915,9.932831922468035,0.033166247903554,0.019648289210689333,-0.04080823354686604
6188171,1905,1,189543.5,212363,0.17,0.13499999999999998,10.0,-0.03,-0.01,-0.01,31.21,4.269683,2.944529467305299,-5.457695691480329,10.002355972469687,0.033166247903554,0.28096521575340455,-0.005149300165836983
6228173,1907,1,189543.5,213733,0.17,0.11,9.99,-0.03,-0.01,-0.01,31.21,4.309685,8.318212112372619,8.194764268497082,9.992051841338695,0.033166247903554,0.819262036951139,0.03347994944614093
6268171,1906,1,189543.5,214258,0.15500000000000003,0.13,9.97,-0.03,-0.01,-0.01,31.21,4.349683,2.9946045990905525,22.77826890402506,9.972052196012614,0.033166247903554,0.2859813817686795,0.07474356365447583
6308173,1897,1,189543.5,214616,0.15500000000000003,0.13,9.97,-0.03,-0.01,-0.0,31.21,4.389685,-0.8909696538597883,38.15064034900818,9.972052196012614,0.03162277660168379,-0.10324745942663585,0.11823925420527069
6348171,1900,1,189543.5,214880,0.17,0.13499999999999998,9.94,-0.03,-0.01,-0.0,31.21,4.429683,-4.327508192405194,54.14678229468581,9.942370190251417,0.03162277660168379,-0.4474951371194306,0.16349988575882654
6388174,1890,1,189543.5,215257,0.15500000000000003,0.12,9.98,-0.03,-0.01,-0.01,31.21,4.469686,-6.614751239728421,70.57473517356725,9.981924914564326,0.033166247903554,-0.676614670780557,0.20998231414407503
6428171,1904,1,189543.5,214484,0.16,0.12,10.01,-0.03,-0.01,-0.0,31.21,4.509683,-0.9732409222532108,87.20865643689136,10.011997802636595,0.03162277660168379,-0.11148880250124722,0.2570475242520413
6467173,1898,1,189543.5,211404,0.15500000000000003,0.12,10.01,-0.03,-0.01,-0.01,31.21,4.548685,1.7273251160176368,103.78534326814265,10.0119191466971,0.033166247903554,0.15903445126219581,0.30395079115201273
6507171,1897,1,189543.5,210187,0.15500000000000003,0.13499999999999998,9.97,-0.03,-0.01,-0.01,31.21,4.588683,-6.643281135785037,120.01181356961327,9.97211863146443,0.033166247903554,-0.6794725902690619,0.3498631302787625
6547173,1887,1,189543.5,210855,0.15500000000000003,0.13499999999999998,9.98,-0.03,-0.01,-0.01,31.21,4.628685,-10.63261258783729,135.58393583102077,9.98211650903755,0.033166247903554,-1.0790950803160093,0.3939240101192878
6587171,1904,1,189543.5,211321,0.15500000000000003,0.12,9.97,-0.03,-0.01,-0.01,31.21,4.668683,3.5315960938984263,150.20336251897393,9.971926844898132,0.033166247903554,0.33977332181386183,0.43528926475973345
6627173,1907,1,189543.5,211983,0.15500000000000003,0.1,9.98,-0.03,-0.01,-0.0,31.21,4.708685,7.316794352547126,163.5738131218753,9.98170451375916,0.03162277660168379,0.7189472188999018,0.47312057686599157
6667211,1889,1,189543.5,212644,0.15500000000000003,0.13499999999999998,9.95,-0.03,-0.01,-0.0,31.21,4.748723,-8.244946027178932,175.37009751482856,9.952122889112653,0.03162277660168379,-0.8399158424311082,0.5064978301701664
6707173,1888,1,189543.5,212718,0.15500000000000003,0.11,9.98,-0.03,-0.01,-0.0,31.21,4.788685,-12.41775547700626,185.20216375304653,9.981809705659591,0.03162277660168379,-1.257917836718543,0.5343173837181009
6747171,1891,1,189543.5,212932,0.15500000000000003,0.11,9.95,-0.03,-0.01,-0.0,31.21,4.828683,-4.768360360033893,192.61852002451732,9.95181516106484,0.03162277660168379,-0.4916565318513085,0.5553017541877343
6787173,1900,1,189543.5,213324,0.15500000000000003,0.13499999999999998,9.99,-0.03,-0.01,-0.0,31.21,4.868685,1.1178676006953563,197.1772174099929,9.992114390858424,0.03162277660168379,0.0979833872485443,0.568200459602381
6827171,1899,1,189543.5,214106,0.15500000000000003,0.11,9.96,-0.03,-0.01,-0.01,31.21,4.908683,2.917631714952086,198.55108697144394,9.961813338945877,0.033166247903554,0.2782707926649125,0.5720877846983103
6867213,1895,1,189543.5,214840,0.15500000000000003,0.13499999999999998,9.98,-0.03,-0.01,-0.0,31.21,4.948725,-1.0559600102196656,196.5697814822647,9.98211650903755,0.03162277660168379,-0.11977500491507818,0.5664817368121817
6907171,1891,1,189543.5,215148,0.15500000000000003,0.11,9.99,-0.03,-0.01,-0.01,31.21,4.988683,-5.633697762440859,191.10995756628304,9.99180789447035,0.033166247903554,-0.5783397998717517,0.5510333193470371
6947173,1893,1,189543.5,214813,0.15500000000000003,0.13,9.94,-0.03,-0.01,-0.01,31.21,5.028685,-0.8402718021453911,181.86678042541163,9.942058388482739,0.033166247903554,-0.09816891381425864,0.5248800108569062
6987171,1895,1,189543.5,215077,0.15500000000000003,0.1,9.99,-0.03,-0.01,-0.0,31.21,5.068683,-0.8056380124677718,168.20641472136717,9.991702807830105,0.03162277660168379,-0.09469955022863517,0.48622839216552205
7027175,1884,1,189543.5,216115,0.17,0.13499999999999998,9.930000000000001,-0.03,-0.01,-0.0,31.21,5.108687,-9.281278559984427,149.3403624652864,9.93237257658008,0.03162277660168379,-0.9437281709513025,0.43284743049786606
7067171,1892,1,189543.5,216540,0.17,0.1,10.01,-0.03,-0.01,-0.01,31.21,5.148683,-1.646544323635935,124.84151387179429,10.011942868394724,0.033166247903554,-0.17893548750387492,0.36352863078716346
7107174,1894,1,189543.5,216239,0.16,0.13,9.99,-0.03,-0.01,-0.01,31.21,5.188686,0.6884546448837965,95.12294013519599,9.992126900715382,0.033166247903554,0.05496789036082476,0.27944076630351433
7147857,1891,1,189543.5,213985,0.15500000000000003,0.11,10.0,-0.03,-0.01,-0.01,31.05,5.229369,-1.0581633597856246,61.281518843649636,10.001806086902505,0.033166247903554,-0.11999572060405395,0.18368742118274156
7186173,1905,1,189543.5,210800,0.16,0.12,9.95,-0.03,-0.01,-0.01,31.05,5.267685,12.909784432873213,24.058934748827618,9.952009847262008,0.033166247903554,1.2792126793088086,0.07836717146826461
7226171,1895,1,189543.5,211360,0.15500000000000003,0.11,9.96,-0.03,-0.01,-0.01,31.05,5.307683,2.929162217020542,-17.434461536723827,9.961813338945877,0.033166247903554,0.27942583530889165,-0.03903722063851407
7266173,1885,1,189543.5,212364,0.15500000000000003,0.13,10.0,-0.03,-0.01,-0.0,31.05,5.347685,-5.0809049821432275,-65.85269376913193,10.002046040685876,0.03162277660168379,-0.5229650008615386,-0.17603524034774032
7306171,1901,1,189543.5,212515,0.15500000000000003,0.13,9.98,-0.03,-0.01,-0.0,31.05,5.387683,9.025719957114502,-123.64486843089125,9.982050140126526,0.03162277660168379,0.8901350767177523,-0.3395565652351725
7346173,1889,1,189543.5,212699,0.16,0.13,10.0,-0.03,-0.01,-0.0,31.05,5.427685,-0.5050264919719638,-189.89811080348872,10.002124774266717,0.03162277660168379,-0.06458645338491864,-0.5270182420843734
7386171,1883,1,189543.5,212720,0.18,0.1,9.99,-0.03,-0.01,-0.01,31.05,5.467683,-7.232235334145958,-258.9840624993957,9.992121896774478,0.033166247903554,-0.7384697796731957,-0.7224949899060645
7426173,1887,1,189543.5,212638,0.16,0.12,9.96,-0.03,-0.01,-0.01,31.05,5.507685,-3.5158002604463032,-323.9145055105947,9.962007829749986,0.033166247903554,-0.3661840831599008,-0.9062138433470428
7466171,1882,1,189543.5,213511,0.15500000000000003,0.13,9.98,-0.03,-0.01,-0.01,31.05,5.547683,-6.154078125397778,-383.65714140012943,9.982050140126526,0.033166247903554,-0.6304677563766939,-1.0752539431546797
7507173,1898,1,189543.5,214548,0.17,0.13499999999999998,9.96,-0.03,-0.01,-0.0,31.05,5.588685,6.9229557944557305,-448.3477948368861,9.96236543196444,0.03162277660168379,0.6794953089363871,-1.258294318771688
7547171,1897,1,189543.5,215400,0.15500000000000003,0.11,10.01,-0.03,-0.01,-0.01,31.05,5.628683,9.416083672003744,-534.5696484582029,10.011804282945207,0.033166247903554,0.9292389019182792,-1.5022566167977778
7587173,1887,1,189543.5,216193,0.15500000000000003,0.1,10.0,-0.03,-0.01,-0.01,31.05,5.668685,-3.235367988673396,-649.1540336585274,10.001701105312035,0.033166247903554,-0.3380923981038095,-1.8264698963469739
7627171,1889,1,189543.5,217057,0.17,0.11,9.96,-0.03,-0.01,-0.0,31.05,5.708683,0.515615763366289,-772.1654727727027,9.962058020308856,0.03162277660168379,0.03765413615435904,-2.174527286780658
7667173,1892,1,189543.5,218070,0.15500000000000003,0.11,9.97,-0.03,-0.01,-0.01,31.05,5.748685,3.3626261093328926,-857.1851058783277,9.97181152048112,0.033166247903554,0.32284712583670483,-2.4150879358346624
7707171,1889,1,189543.5,220749,0.17,0.12,9.98,-0.03,-0.01,-0.0,31.05,5.788683,-1.0988141553826472,-857.7905838768025,9.98216910295553,0.03162277660168379,-0.12406782450269457,-2.4168011187193743
7747173,1885,1,189595.0,222774,0.18,0.13,9.96,-0.03,-0.01,-0.01,31.05,5.828685,-1.8136671832134552,-764.4151719400553,9.96247459218843,0.033166247903554,-0.195676651804419,-2.1525980296130913
7787171,1891,1,190108.0,223748,0.15500000000000003,0.12,9.99,-0.03,-0.01,-0.01,31.05,5.868683,-1.0522199086620654,-617.3508948487016,9.991922988093934,0.033166247903554,-0.11940034848067543,-1.736483813902446
7827173,1884,1,190361.0,223922,0.15500000000000003,0.11,9.98,-0.03,-0.01,-0.0,31.05,5.908685,-1.203066887248394,-475.4894782611182,9.981809705659591,0.03162277660168379,-0.13451111225732681,-1.3350909449443737
7867171,1889,1,190446.0,224267,0.16,0.1,9.98,-0.03,-0.01,-0.01,31.05,5.948683,-4.516924790214256,-362.42350499538856,9.981783407788411,0.033166247903554,-0.46646952753608517,-1.0151739690508716
7907173,1887,1,190620.0,224800,0.15500000000000003,0.1,10.0,-0.03,-0.01,-0.0,31.05,5.988685,1.9879329809097477,-239.82097876508115,10.001701105312035,0.03162277660168379,0.185140270030508,-0.668273586065427
7947171,1901,1,190910.0,225491,0.15500000000000003,0.095,9.95,-0.03,-0.01,-0.0,31.05,6.028683,7.89201612952234,-37.46149892703994,9.951660665436698,0.03162277660168379,0.7765687932430942,-0.09570315693181604
7987174,1893,1,191309.0,226864,0.17,0.13,9.97,-0.03,-0.01,-0.01,31.05,6.068686,5.835575713027429,282.5317921710349,9.972296626153877,0.033166247903554,0.5705694046863686,0.8097088166042921
8027175,1901,1,191919.0,228085,0.15500000000000003,0.13499999999999998,9.98,-0.03,-0.01,-0.01,31.05,6.108687,10.05775777124948,681.1679487517908,9.98211650903755,0.033166247903554,0.9935171912560323,1.9376385554250029
8067173,1886,1,192293.0,228900,0.16,0.13,9.94,-0.03,-0.01,-0.01,31.05,6.148685,-3.9867322224869524,1054.5968538115364,9.942137597116627,0.033166247903554,-0.41335865503373315,2.994245088472428
8107171,1877,1,192577.0,229411,0.15500000000000003,0.11,9.98,-0.03,-0.01,-0.01,31.05,6.188683,-13.028733371661453,1293.7715694988246,9.981809705659591,0.033166247903554,-1.319121201382601,3.6709831869721063
8147173,1879,1,192783.0,229729,0.17,0.12,9.99,-0.03,-0.01,-0.01,31.05,6.228685,-10.904264650308951,1348.851950656221,9.992166932152404,0.033166247903554,-1.1063072272474126,3.8268315687794443
8187857,1853,1,192703.0,229453,0.17,0.12,9.97,-0.03,-0.01,-0.0,31.05,6.269369,-40.05494349641143,1255.409233853685,9.972171278111905,0.03162277660168379,-4.026412264156682,3.562438042457577
8226173,1840,1,192567.0,229222,0.18,0.12,9.94,-0.03,-0.01,-0.0,31.05,6.307685,-46.34922637632037,1107.060695212188,9.94235384604672,0.03162277660168379,-4.6569281858746185,3.1426900449865025
8266171,1872,1,192581.0,229248,0.17,0.12,9.96,-0.03,-0.01,-0.01,31.05,6.347683,-25.815587265713496,993.5111547013225,9.962173457634634,0.033166247903554,-2.600016121853264,2.821404829239429
8306218,1875,1,192595.0,229434,0.16,0.11,9.99,-0.03,-0.01,-0.0,31.05,6.38773,-8.669083734629439,943.6878288619665,9.991886708725234,0.03162277660168379,-0.8824029029351886,2.680431136879992
8346171,1928,1,192549.0,229386,0.16,0.13,9.96,-0.03,-0.01,-0.01,31.05,6.427683,28.704955537815085,909.4381607266778,9.962133305673039,0.033166247903554,2.861459149310016,2.583522668852691
8386173,1928,1,192446.0,229158,0.15500000000000003,0.1,10.0,-0.03,-0.01,-0.01,31.05,6.467685,42.33430303506382,800.2495765986451,10.001701105312035,0.033166247903554,4.226749010538205,2.2745766559418277
8426171,1928,1,192355.0,229094,0.16,0.11,9.96,-0.03,-0.01,-0.01,31.05,6.507683,31.842641164403993,548.8713385890096,9.961892390504929,0.033166247903554,3.1757698948954522,1.5633090359260813
8466173,1928,1,192154.0,227607,0.15500000000000003,0.12,9.99,-0.03,-0.01,-0.01,31.05,6.547685,37.067764955677696,166.48974237372647,9.991922988093934,0.033166247903554,3.699185160177098,0.48137111627433515
8506213,1928,1,191379.0,226102,0.15500000000000003,0.11,9.99,-0.03,-0.01,-0.01,31.05,6.587725,36.22541884042232,-252.73145703314944,9.99180789447035,0.033166247903554,3.61480499369919,-0.7048034194499778
8546173,1928,1,191110.0,225786,0.15500000000000003,0.12,9.97,-0.03,-0.01,-0.0,31.05,6.627685,32.6032224302445,-585.9150510624486,9.971926844898132,0.03162277660168379,3.2519594477043277,-1.6475369823466535
8586171,1928,1,191213.0,225899,0.17,0.13499999999999998,9.96,-0.03,-0.01,-0.0,31.05,6.667683,38.274401682479315,-756.2177015328076,9.96236543196444,0.03162277660168379,3.8200573361650076,-2.129403518772065
8626173,1925,1,191149.0,226055,0.15500000000000003,0.13,9.98,-0.03,-0.01,-0.0,31.05,6.707685,28.25160060573872,-771.6591584593043,9.982050140126526,0.03162277660168379,2.816045317692134,-2.173094684740314
8666171,1888,1,191143.0,226242,0.15500000000000003,0.11,9.97,-0.03,-0.01,-0.0,31.05,6.747683,-2.81102555066283,-703.8509321626228,9.97181152048112,0.03162277660168379,-0.2955848291668793,-1.981233224824754
8706173,1872,1,191246.0,226515,0.15500000000000003,0.13,9.96,-0.03,-0.01,-0.01,31.05,6.787685,-23.62973744215576,-631.9633318860025,9.962054256025713,0.033166247903554,-2.381053431022083,-1.777829291523912
8746171,1863,1,191339.0,226368,0.15500000000000003,0.12,9.98,-0.03,-0.01,-0.0,31.05,6.827683,-30.333941416496195,-596.5999967089182,9.981924914564326,0.03162277660168379,-3.052632295352926,-1.6777697340762234
8786173,1862,1,191271.0,226274,0.16,0.11,9.99,-0.03,-0.01,-0.0,31.05,6.867685,-32.30004596994787,-589.7233299491477,9.991886708725234,0.03162277660168379,-3.24958248783162,-1.6583123998272822
8826171,1871,1,191254.0,226292,0.15500000000000003,0.13,9.96,-0.03,-0.01,-0.01,31.05,6.907683,-24.15522164703109,-576.1641663950861,9.962054256025713,0.033166247903554,-2.4336926536478667,-1.6199471297591073
8866173,1872,1,191407.0,226559,0.16,0.12,9.97,-0.03,-0.01,-0.0,31.05,6.947685,-22.237770363944797,-523.408708703056,9.972005816283904,0.03162277660168379,-2.241616195348953,-1.4706770531902147
8906171,1872,1,191522.0,226979,0.15500000000000003,0.12,9.97,-0.03,-0.01,-0.01,31.05,6.987683,-23.811798939135095,-418.5144784885552,9.971926844898132,0.033166247903554,-2.3992910404157892,-1.1738817933109882
8946173,1882,1,191650.0,227098,0.16,0.13,9.98,-0.03,-0.01,-0.0,31.05,7.027685,-12.982138836645287,-268.8627172513515,9.982129031424108,0.03162277660168379,-1.3144536964812068,-0.7504463643369392
8986171,1897,1,191758.0,227323,0.15500000000000003,0.12,9.95,-0.03,-0.01,-0.0,31.05,7.067683,0.6987615376186523,-98.40674199483793,9.951930717202567,0.03162277660168379,0.05600036063531925,-0.26814599976235676
9026196,1904,1,191904.0,227558,0.17,0.12,9.98,-0.03,-0.01,-0.0,31.05,7.107708,8.455985486368427,52.73816281061223,9.98216910295553,0.03162277660168379,0.8330631811879886,0.15951423673893636
9066171,1902,1,191934.0,227723,0.19,0.13,9.94,-0.03,-0.01,-0.01,31.05,7.147683,4.856217217939346,133.2974159822452,9.942665638549855,0.033166247903554,0.4724643248854926,0.3874543668286263
9106173,1895,1,192049.0,227675,0.18,0.1,9.97,-0.03,-0.01,-0.0,31.05,7.187685,-1.0236610019807917,102.67391465326004,9.972126152431086,0.03162277660168379,-0.11653952291675347,0.3008060352973128
9146171,1895,1,192016.0,226927,0.17,0.13,9.98,-0.03,-0.01,-0.01,31.05,7.227683,-2.687110903839386,-36.5046880917618,9.982294325454445,0.033166247903554,-0.28317195239490833,-0.09299588771471112
9186173,1890,1,191549.0,225625,0.16,0.12,9.96,-0.03,-0.01,-0.0,31.05,7.267685,-7.220768974322453,-223.4323757119692,9.962007829749986,0.03162277660168379,-0.7373211623373045,-0.6219024969000915
9226857,1889,1,191402.0,225657,0.16,0.12,9.98,-0.03,-0.01,-0.0,30.99,7.308369,-8.290745865031864,-364.82712137698513,9.982003806851608,0.03162277660168379,-0.8445037402948266,-1.0219749336717772
9267173,1891,1,191517.0,226230,0.16,0.11,10.0,-0.03,-0.01,-0.01,30.99,7.348685,-8.229857757026025,-388.5876363502298,10.001884822372231,0.033166247903554,-0.8384044082067336,-1.0892046392707178
9307171,1887,1,191674.0,226383,0.19499999999999995,0.11,9.99,-0.03,-0.01,-0.01,30.99,7.388683,-9.344284235855694,-283.9055075570057,9.992508443829307,0.033166247903554,-0.9500396257354904,-0.7930095143685998
9347173,1897,1,191800.0,226738,0.16,0.13,10.0,-0.03,-0.01,-0.01,30.99,7.428685,-4.2002779786337845,-98.49721164388087,10.002124774266717,0.033166247903554,-0.4347501307323629,-0.2684019810774775
9387171,1893,1,192003.0,227165,0.19,0.12,9.930000000000001,-0.03,-0.01,-0.0,30.99,7.468683,-2.7391268487344087,97.54715663116608,9.932542474110042,0.03162277660168379,-0.288382535088006,0.2863000183658406
9427173,1897,1,192162.0,227461,0.15500000000000003,0.11,9.97,-0.03,-0.01,-0.0,30.99,7.508685,-5.281834267713285,248.64203677344628,9.97181152048112,0.03162277660168379,-0.5430926494131659,0.7138187114964876
9467171,1895,1,192192.0,227646,0.17,0.13,9.97,-0.03,-0.01,-0.0,30.99,7.548683,-1.0065820284960656,329.0347250093334,9.972296626153877,0.03162277660168379,-0.11482867437146628,0.94128755080793
9507173,1904,1,192266.0,227904,0.18,0.11,9.96,-0.03,-0.01,-0.01,30.99,7.588685,1.905582465363309,339.2852406149864,9.962233685273599,0.033166247903554,0.17689098854691807,0.9702910950148379
9547171,1899,1,192268.0,227994,0.17,0.12,9.97,-0.03,-0.01,-0.01,30.99,7.628683,1.7553976073070416,299.37738737816204,9.972171278111905,0.033166247903554,0.1618465512357696,0.8573729521539363
9587173,1905,1,192271.0,228022,0.16,0.12,9.95,-0.03,-0.01,-0.01,30.99,7.668685,4.316386858268625,245.86853171118318,9.952009847262008,0.033166247903554,0.41838800780645563,0.7059711573074019
9627171,1905,1,192196.0,228115,0.17,0.12,9.95,-0.03,-0.01,-0.0,30.99,7.708683,5.96330726842476,224.90948041601357,9.95217564153688,0.03162277660168379,0.5833646318663996,0.6466681140108225
9667173,1908,1,192272.0,228310,0.16,0.11,9.96,-0.03,-0.01,-0.0,30.99,7.748685,9.231127421971635,270.62155548565335,9.961892390504929,0.03162277660168379,0.9107113170144092,0.7760091385092024
9707171,1911,1,192332.0,228692,0.15500000000000003,0.1,9.99,-0.03,-0.01,-0.01,30.99,7.788683,10.708907936630046,375.30851525665685,9.991702807830105,0.033166247903554,1.0587447246438635,1.0722179325264145
9747174,1907,1,192460.0,228995,0.17,0.13499999999999998,9.99,-0.03,-0.01,-0.01,30.99,7.828686,9.489866358312414,477.06028704546185,9.992358330244167,0.033166247903554,0.9366299199821844,1.3601216951020538
9787171,1911,1,192570.0,229061,0.18,0.13,9.98,-0.03,-0.01,-0.01,30.99,7.868683,10.957895484829818,487.06923879362887,9.982469634313945,0.033166247903554,1.083686503786103,1.3884417412012644
9827173,1905,1,192603.0,228470,0.17,0.12,9.98,-0.03,-0.01,-0.0,30.99,7.908685,7.695321960076684,348.096694207431,9.98216910295553,0.03162277660168379,0.7568653881196236,0.9952228539260332
9867171,1904,1,192137.0,226940,0.19,0.13,9.96,-0.03,-0.01,-0.0,30.99,7.948683,5.369429886397499,81.97464049940598,9.962660287292747,0.03162277660168379,0.5238742733838505,0.24223802408028416
9907174,1904,1,191761.0,226468,0.17,0.12,9.98,-0.03,-0.01,-0.01,30.99,7.988686,6.832247508745042,-215.69110054077888,9.98216910295553,0.033166247903554,0.6704088062380597,-0.5999987775865346
9947171,1904,1,191695.0,226515,0.15500000000000003,0.1,10.0,-0.03,-0.01,-0.01,30.99,8.028683,6.594623674584988,-433.41291554869304,10.001701105312035,0.033166247903554,0.6466053621164405,-1.2160364999141606
9987173,1905,1,191717.0,226545,0.17,0.12,9.95,-0.03,-0.01,-0.01,30.99,8.068685,9.053271097755081,-508.9123625707451,9.95217564153688,0.033166247903554,0.8928949515385716,-1.4296600515034652
10027175,1904,1,191718.0,226782,0.19499999999999995,0.12,10.0,-0.03,-0.01,-0.0,30.99,8.108687,6.99008527764568,-453.46242250622026,10.002620906542445,0.03162277660168379,0.6862198570343226,-1.2727660132128533
10067173,1897,1,191865.0,227291,0.18,0.12,9.99,-0.03,-0.01,-0.01,30.99,8.148685,3.1262504567675347,-326.7080902839669,9.992342067803724,0.033166247903554,0.299168715556695,-0.9141182125112204
10107174,1903,1,192061.0,227545,0.17,0.11,9.97,-0.03,-0.01,-0.01,30.99,8.188686,6.404817069043767,-191.52441496402798,9.972055956521704,0.033166247903554,0.6275919035343712,-0.5316198237441356
10147183,1903,1,192088.0,227664,0.16,0.11,9.94,-0.03,-0.01,-0.0,30.99,8.228695,10.707363721545702,-83.84325345024585,9.941896197406207,0.03162277660168379,1.0585900362995655,-0.22693902051763176
10185173,1908,1,192137.0,227994,0.17,0.12,9.96,-0.03,-0.01,-0.01,30.99,8.266685,13.001670349542845,-9.779651658795956,9.962173457634634,0.033166247903554,1.288417148594226,-0.017378152428567887
10225173,1906,1,192299.0,228455,0.18,0.13,10.0,-0.03,-0.01,-0.01,30.99,8.306685,13.964372468184996,42.28666251233787,10.002464696263617,0.033166247903554,1.3848537125772302,0.1299420120244703
10265857,1904,1,192435.0,228636,0.17,0.13499999999999998,9.99,-0.03,-0.01,-0.01,30.79,8.347369,11.77148873954365,91.90518313571339,9.992358330244167,0.033166247903554,1.1651864157994012,0.2703362138134803
10306173,1894,1,192470.0,228584,0.16,0.11,9.98,-0.03,-0.01,-0.0,30.79,8.387685,1.5018555240109928,160.7677781789793,9.981888598857433,0.03162277660168379,0.13644853157351905,0.4651809802990121
10346193,1882,1,192451.0,228644,0.15500000000000003,0.13,9.98,-0.03,-0.01,-0.0,30.79,8.427705,-7.594529114130578,259.77034202279935,9.982050140126526,0.03162277660168379,-0.774761760980363,0.7453059366922211
10386173,1882,1,192514.0,228806,0.18,0.12,9.97,-0.03,-0.01,-0.0,30.79,8.467685,-10.295321733982377,368.520410614605,9.972346764929508,0.03162277660168379,-1.0453077120545375,1.0530111822866224
10426171,1872,1,192680.0,229266,0.15500000000000003,0.12,9.95,-0.03,-0.01,-0.0,30.79,8.507683,-16.41583167636708,429.44176049207846,9.951930717202567,0.03162277660168379,-1.6584163125631817,1.2253864200104074
10466173,1872,1,192786.0,229391,0.15500000000000003,0.13,9.97,-0.03,-0.01,-0.01,30.79,8.547685,-18.810121510338185,377.7264537695285,9.972052196012614,0.033166247903554,-1.898259022261672,1.0790594212129916
10506173,1871,1,192564.0,228007,0.16,0.11,9.97,-0.03,-0.01,-0.01,30.79,8.587685,-17.687955716306604,193.44577647616984,9.971890492780194,0.033166247903554,-1.7858485358816256,0.5576424529378267
10546173,1875,1,192027.0,226777,0.18,0.12,9.96,-0.03,-0.01,-0.01,30.79,8.627685,-13.803175414674008,-69.74868046642882,9.962349120563886,0.033166247903554,-1.3966992270105576,-0.18705882459966408
10586173,1886,1,191863.0,226628,0.17,0.13,9.96,-0.03,-0.01,-0.01,30.79,8.667685,-3.421941899966859,-310.8313210188154,9.962298931471592,0.033166247903554,-0.35678202866096365,-0.8691953425835117
10626173,1879,1,191851.0,226658,0.17,0.11,9.97,-0.03,-0.01,-0.0,30.79,8.707685,-8.289415529790606,-443.5777090242524,9.972055956521704,0.03162277660168379,-0.8443704768926504,-1.2447974957766408
10666173,1873,1,191827.0,226704,0.16,0.13,10.0,-0.03,-0.01,-0.01,30.79,8.747685,-16.956100103110014,-443.868229570203,10.002124774266717,0.033166247903554,-1.7125365120461526,-1.2456195154507388
10706173,1878,1,191872.0,226949,0.18,0.11,9.94,-0.03,-0.01,-0.0,30.79,8.787685,-8.700235018630368,-349.8668147464882,9.942238178599423,0.03162277660168379,-0.8855234141863174,-0.9796451688678267
10746171,1879,1,191977.0,227287,0.18,0.12,9.99,-0.03,-0.01,-0.01,30.79,8.827683,-10.9566127258283,-225.59536297742878,9.992342067803724,0.033166247903554,-1.1115510803941464,-0.6280226082375289
10786173,1872,1,192075.0,227487,0.17,0.13,9.96,-0.03,-0.01,-0.0,30.79,8.867685,-15.469171619613382,-121.3013881113076,9.962298931471592,0.03162277660168379,-1.5635867267905375,-0.33292575390217194
10826174,1883,1,192093.0,227534,0.17,0.11,9.96,-0.03,-0.01,-0.01,30.79,8.907686,-5.947449287835765,-54.81888650099736,9.962058020308856,0.033166247903554,-0.6097691677599073,-0.1448153945191698
10866174,1884,1,192128.0,227640,0.17,0.11,9.96,-0.03,-0.01,-0.01,30.79,8.947686,-5.734374999725807,-15.69472904753706,9.962058020308856,0.033166247903554,-0.5884249203332669,-0.03411469672854653
10906174,1882,1,192177.0,227721,0.16,0.12,9.96,-0.03,-0.01,-0.0,30.79,8.987686,-5.418655331116555,20.5096902539549,9.962007829749986,0.03162277660168379,-0.5567983980342684,0.06832468447849845
10946173,1890,1,192238.0,227962,0.16,0.11,9.96,-0.03,-0.01,-0.01,30.79,9.027685,-2.122234108429203,79.17086638445392,9.961892390504929,0.033166247903554,-0.22658666379086662,0.23430482446207668
10986174,1883,1,192312.0,228217,0.18,0.12,9.96,-0.03,-0.01,-0.01,30.79,9.067686,-4.173964984863538,176.3069933478018,9.962349120563886,0.033166247903554,-0.4321142845467455,0.5091487504510859
11026178,1893,1,192383.0,228519,0.18,0.12,9.99,-0.03,-0.01,-0.0,30.79,9.10769,0.14954873676925332,307.2391428119971,9.992342067803724,0.03162277660168379,0.0009841781799386563,0.8796175669656424
11066171,1891,1,192468.0,228802,0.17,0.11,9.98,-0.03,-0.01,-0.01,30.79,9.147683,1.925925955309309,436.90247206906133,9.982053896869122,0.033166247903554,0.17892885283725757,1.246496292563421
11106173,1899,1,192500.0,228958,0.18,0.12,9.97,-0.03,-0.01,-0.0,30.79,9.187685,6.852901480720989,504.5600695699162,9.972346764929508,0.03162277660168379,0.6724777723817833,1.4379315525582492
11146173,1904,1,192554.0,229084,0.19,0.13,9.95,-0.03,-0.01,-0.01,30.79,9.227685,12.352856155959413,452.6000145967967,9.952662960233305,0.033166247903554,1.2234236160352228,1.2909120455029033
11186173,1894,1,192456.0,228111,0.16,0.13,9.98,-0.03,-0.01,-0.01,30.79,9.267685,2.0737579046756722,267.64310874901946,9.982129031424108,0.033166247903554,0.19373759270365526,0.7675817076445304
11226174,1893,1,191929.0,226741,0.16,0.095,9.99,-0.03,-0.01,-0.01,30.79,9.307686,-0.030302386369678646,1.5136530969810376,9.99173283269724,0.033166247903554,-0.01703201188357346,0.014575934207388714
11266859,1901,1,191612.0,226386,0.17,0.11,9.95,-0.03,-0.01,-0.01,31.05,9.348371,7.877554354873324,-252.0917787306223,9.952060088243035,0.033166247903554,0.7751201168257049,-0.7029934677715165
11305174,1902,1,191600.0,226399,0.18,0.13,9.98,-0.03,-0.01,-0.01,31.05,9.386686,8.78741647859917,-411.68530380098355,9.982469634313945,0.033166247903554,0.8662635507200425,-1.1545588365381163
11345173,1904,1,191610.0,226303,0.15500000000000003,0.11,9.99,-0.03,-0.01,-0.0,31.05,9.426685,9.232449928775813,-450.1875402574397,9.99180789447035,0.03162277660168379,0.9108437962201461,-1.2634998264444
11385173,1903,1,191574.0,226327,0.17,0.13,9.96,-0.03,-0.01,-0.0,31.05,9.466685,9.517669475942432,-395.39007033150443,9.962298931471592,0.03162277660168379,0.9394150360428367,-1.108451933970866
11425173,1904,1,191633.0,226666,0.18,0.12,9.97,-0.03,-0.01,-0.0,31.05,9.506685,8.45873838493868,-297.9579329596551,9.972346764929508,0.03162277660168379,0.8333389467378592,-0.8327704548968254
11465173,1905,1,191754.0,226992,0.17,0.11,9.96,-0.03,-0.01,-0.0,31.05,9.546685,10.320449711816025,-198.83352034751073,9.962058020308856,0.03162277660168379,1.019831777713987,-0.5523007308573232
11505173,1906,1,191822.0,227204,0.17,0.12,9.98,-0.03,-0.01,-0.01,31.05,9.586685,10.882994685728814,-117.36422974074348,9.98216910295553,0.033166247903554,1.0761834812363344,-0.32178567556432924
11545174,1903,1,191865.0,227325,0.17,0.13,9.97,-0.03,-0.01,-0.01,31.05,9.626686,6.500617090513169,-57.71453355046571,9.972296626153877,0.033166247903554,0.6371884596456612,-0.15300854600908528
11585173,1899,1,191907.0,227464,0.19,0.12,9.99,-0.03,-0.01,-0.0,31.05,9.666685,4.721703665863966,-18.12932901047096,9.992527207868887,0.03162277660168379,0.45898972612840777,-0.04100332851719025
11625171,1904,1,191961.0,227528,0.17,0.13,9.95,-0.03,-0.01,-0.0,31.05,9.706683,6.174445881066084,8.169261199627758,9.952301241421504,0.03162277660168379,0.6045149772671002,0.03340778923354096
11665173,1901,1,192033.0,227681,0.15500000000000003,0.095,10.0,-0.03,-0.01,-0.0,31.05,9.746685,6.774662213706694,37.807021245642986,10.001652363484746,0.03162277660168379,0.6646403261631653,0.11726699366363566
11705171,1905,1,192063.0,227829,0.17,0.1,9.98,-0.03,-0.01,-0.0,31.05,9.786683,7.275409849291509,94.75082010039938,9.98194870754203,0.03162277660168379,0.7148016174528579,0.27838786318188524
11745173,1904,1,192093.0,228062,0.17,0.13,9.98,-0.03,-0.01,-0.01,31.05,9.826685,8.589815339813226,191.9989598753806,9.982294325454445,0.033166247903554,0.8464692919408858,0.5535487262557135
11785192,1910,1,192215.0,228433,0.15500000000000003,0.12,10.0,-0.03,-0.01,-0.01,31.05,9.866704,13.483848286692462,307.92229770737663,10.001921065475372,0.033166247903554,1.3367182612506598,0.8815505344348474
11825173,1910,1,192305.0,228693,0.16,0.12,9.97,-0.03,-0.01,-0.0,31.05,9.906685,13.115285633516104,382.8365215598076,9.972005816283904,0.03162277660168379,1.2997983093813117,1.0935182136052417
11865173,1904,1,192454.0,228766,0.17,0.13,9.98,-0.03,-0.01,-0.0,31.05,9.946685,8.292777157089821,351.39492468829485,9.982294325454445,0.03162277660168379,0.8167141463367565,1.0045551038573
11905173,1904,1,192294.0,227701,0.18,0.12,9.98,-0.03,-0.01,-0.01,31.05,9.986685,6.824095778451419,192.98856844146493,9.982344414014175,0.033166247903554,0.6695922246134737,0.5563487957252076
11945174,1898,1,191854.0,226681,0.18,0.11,9.97,-0.03,-0.01,-0.01,31.05,10.026686,1.5446707805109903,-42.4750199802709,9.972231445368685,0.033166247903554,0.14073745557498948,-0.10988877306018487
11985189,1894,1,191681.0,226365,0.16,0.1,9.96,-0.03,-0.01,-0.01,31.05,10.066701,-2.015146635451408,-260.6288864913995,9.961786988286791,0.033166247903554,-0.2158594120900317,-0.7271489729055496
12025200,1892,1,191664.0,226426,0.17,0.12,9.97,-0.03,-0.01,-0.01,31.05,10.106712,-6.233024388575161,-381.7916776146953,9.972171278111905,0.033166247903554,-0.638376024378496,-1.0699756660953883
12065173,1879,1,191773.0,226518,0.16,0.12,10.01,-0.03,-0.01,-0.0,31.05,10.146685,-15.734189512691387,-385.1515190725775,10.011997802636595,0.03162277660168379,-1.5901343104174495,-1.079482242544884
12105174,1884,1,191780.0,226727,0.18,0.11,9.96,-0.03,-0.01,-0.0,31.05,10.186686,-15.523110960616549,-307.45790196255194,9.962233685273599,0.03162277660168379,-1.5689899814516883,-0.8596503487031254
12145173,1883,1,191856.0,227014,0.17,0.12,9.96,-0.03,-0.01,-0.0,31.05,10.226685,-11.739239940894725,-207.34608925509593,9.962173457634634,0.03162277660168379,-1.1899490376013522,-0.5763868039997648
12185173,1883,1,192003.0,227186,0.19,0.13,9.97,-0.03,-0.01,-0.01,31.05,10.266685,-16.542316077940303,-128.48005001177057,9.97265761971201,0.033166247903554,-1.6710866088562577,-0.3532375748667389
12225173,1878,1,192061.0,227359,0.17,0.11,9.96,-0.03,-0.01,-0.0,31.05,10.306685,-18.18353769665401,-83.88839168714553,9.962058020308856,0.03162277660168379,-1.8354923690374159,-0.227066737883246
12265173,1887,1,192092.0,227585,0.17,0.13,9.96,-0.03,-0.01,-0.01,31.05,10.346685,-11.821932446708765,-61.235263794271084,9.962298931471592,0.033166247903554,-1.1982325772066231,-0.162970352731324
12305860,1887,1,192136.0,227819,0.18,0.13,9.98,-0.03,-0.01,-0.0,30.93,10.387372,-11.088916889192864,-36.40553906645337,9.982469634313945,0.03162277660168379,-1.1248043585042231,-0.09271534834974308
12346171,1886,1,192270.0,228147,0.16,0.12,9.99,-0.03,-0.01,-0.0,30.93,10.427683,-12.584864779861148,15.078478937325471,9.99200180144099,0.03162277660168379,-1.2746576430042618,0.0529572255545739
12386173,1891,1,192381.0,228603,0.16,0.12,9.99,-0.03,-0.01,-0.01,30.93,10.467685,-8.259081762554997,110.084011900745,9.99200180144099,0.033166247903554,-0.8413318585825668,0.3217726960354704
12426174,1891,1,192515.0,228980,0.17,0.12,9.99,-0.03,-0.01,-0.01,30.93,10.507686,-8.66542588920186,248.56775409410483,9.992166932152404,0.033166247903554,-0.8820364863274074,0.7136085307546624
12466173,1890,1,192624.0,229346,0.17,0.12,9.96,-0.03,-0.01,-0.01,30.93,10.547685,-9.347404863301566,402.6691790459263,9.962173457634634,0.033166247903554,-0.9503522277154002,1.149634157453167
12506174,1895,1,192783.0,229663,0.17,0.11,9.96,-0.03,-0.01,-0.01,30.93,10.587686,-6.737958017853994,515.2357663247197,9.962058020308856,0.033166247903554,-0.6889566383650941,1.4681381348102414
12546173,1887,1,192879.0,229861,0.15500000000000003,0.12,9.98,-0.03,-0.01,-0.0,30.93,10.627685,-12.052533763746927,521.1991705344562,9.981924914564326,0.03162277660168379,-1.2213325561455728,1.4850114184844176
12586173,1889,1,192872.0,229479,0.16,0.13,9.96,-0.03,-0.01,-0.01,30.93,10.667685,-14.769067306907566,387.8208128186086,9.962133305673039,0.033166247903554,-1.4934553195362774,1.1076211248563612
12626174,1892,1,192506.0,228193,0.18,0.11,9.96,-0.03,-0.01,-0.0,30.93,10.707686,-7.266982621770341,145.71694003224934,9.962233685273599,0.03162277660168379,-0.7419505126656097,0.42259505912847506
12666171,1899,1,192164.0,227724,0.16,0.11,9.98,-0.03,-0.01,-0.01,30.93,10.747683,-5.900702636897549,-119.32675458371908,9.981888598857433,0.033166247903554,-0.6050864249811204,-0.3273385841428018
12706174,1894,1,192105.0,227710,0.18,0.11,9.98,-0.03,-0.01,-0.01,30.93,10.787686,-6.432926253495595,-313.5011106318314,9.982229209951052,0.033166247903554,-0.6584007533298688,-0.8767494368401508
12746174,1904,1,192084.0,227739,0.17,0.13,9.99,-0.03,-0.01,-0.0,30.93,10.827686,-0.8829908468749851,-386.3870574927337,9.99229202935943,0.03162277660168379,-0.10244820001357535,-1.0829781635860236
12786173,1898,1,192153.0,227889,0.19,0.12,9.96,-0.03,-0.01,-0.01,30.93,10.867685,-4.218382839529153,-349.48089405948105,9.962534818006912,0.033166247903554,-0.43656374528906733,-0.9785532171908009
12826174,1904,1,192200.0,228284,0.15500000000000003,0.12,9.97,-0.03,-0.01,-0.0,30.93,10.907686,-0.3000101815443229,-254.94576379382283,9.971926844898132,0.03162277660168379,-0.04404939612155573,-0.711068737848735
12866173,1923,1,192343.0,228510,0.17,0.12,9.96,-0.03,-0.01,-0.01,30.93,10.947685,19.342071695222515,-157.75853313246057,9.962173457634634,0.033166247903554,1.9235528860256366,-0.43608021539048286
12906173,1928,1,192404.0,228588,0.17,0.12,9.99,-0.03,-0.01,-0.0,30.93,10.987685,24.150885232084597,-88.74453769813049,9.992166932152404,0.03162277660168379,2.4052651886681504,-0.24080706577730115
12946173,1927,1,192462.0,228778,0.18,0.12,9.98,-0.03,-0.01,-0.01,30.93,11.027685,22.630035886134525,-49.38994022096844,9.982344414014175,0.033166247903554,2.2529174557410747,-0.12945434445229212
12986173,1928,1,192503.0,228978,0.17,0.12,9.96,-0.03,-0.01,-0.0,30.93,11.067685,24.770697412110856,-21.857356272544834,9.962173457634634,0.03162277660168379,2.4673535084080656,-0.051551676294007205
13026178,1928,1,192589.0,229228,0.16,0.13,9.96,-0.03,-0.01,-0.01,30.93,11.10769,23.1331522003745,17.69971609412874,9.962133305673039,0.033166247903554,2.3033160241970476,0.0603739420085449
13066173,1928,1,192678.0,229467,0.15500000000000003,0.11,9.98,-0.03,-0.01,-0.0,30.93,11.147685,26.01344728856333,88.40847528824774,9.981809705659591,0.03162277660168379,2.591843239608011,0.2604423777827657
13106173,1922,1,192790.0,229756,0.16,0.11,9.98,-0.03,-0.01,-0.01,30.93,11.187685,17.0349650463749,194.81497410959432,9.981888598857433,0.033166247903554,1.6924435598396517,0.5615165589454425
13146173,1904,1,192845.0,230118,0.17,0.1,9.98,-0.03,-0.01,-0.01,30.93,11.227685,3.073425601250468,316.79788977260955,9.98194870754203,0.033166247903554,0.29387710202399625,0.9066637713421205
13186173,1909,1,192933.0,230421,0.17,0.11,9.98,-0.03,-0.01,-0.0,30.93,11.267685,5.5086129041991,406.96409797600745,9.982053896869122,0.03162277660168379,0.5378166255836185,1.1617865091831616
13226171,1907,1,193019.0,230663,0.16,0.11,9.98,-0.03,-0.01,-0.0,30.93,11.307683,6.026580669762849,407.4988343374059,9.981888598857433,0.03162277660168379,0.5897029054594497,1.1632995306050606
13266173,1906,1,193027.0,230107,0.15500000000000003,0.12,9.97,-0.03,-0.01,-0.0,30.93,11.347685,5.639669064885361,285.6818016652347,9.971926844898132,0.03162277660168379,0.5509448877746416,0.8186216794428032
13306860,1904,1,192650.0,228790,0.16,0.13499999999999998,9.97,-0.03,-0.01,-0.01,30.97,11.388372,2.7582142133141088,64.75302103841244,9.972197601331414,0.033166247903554,0.26230149562170524,0.19350993853149367
13345174,1891,1,192340.0,228327,0.16,0.12,9.97,-0.03,-0.01,-0.0,30.97,11.426686,-6.294968608810609,-179.13101139833452,9.972005816283904,0.03162277660168379,-0.6445811501826636,-0.4965530386164287
13385174,1898,1,192233.0,228312,0.16,0.12,9.96,-0.03,-0.01,-0.0,30.97,11.466686,-1.957161344990312,-358.09693755192797,9.962007829749986,0.03162277660168379,-0.21005086335481993,-1.0029320687467178
13425206,1899,1,192240.0,228290,0.15500000000000003,0.13499999999999998,9.99,-0.03,-0.01,-0.01,30.97,11.506718,3.3336760136354933,-422.3042735205416,9.992114390858424,0.033166247903554,0.319947113774849,-1.1846049112470967
13465173,1899,1,192251.0,228331,0.17,0.13499999999999998,9.96,-0.03,-0.01,-0.0,30.97,11.546685,2.1654840949115446,-381.7276730992662,9.96236543196444,0.03162277660168379,0.2029260617454347,-1.0697945671278726
13505173,1903,1,192319.0,228583,0.17,0.13,9.95,-0.03,-0.01,-0.0,30.97,11.586685,8.075136457438377,-289.01120365695346,9.952301241421504,0.03162277660168379,0.7949124686933692,-0.8074559371866097
13545171,1901,1,192426.0,228808,0.17,0.13,9.96,-0.03,-0.01,-0.01,30.97,11.626683,7.728217613039212,-202.07774443780792,9.962298931471592,0.033166247903554,0.7601606376887821,-0.5614801712328064
13585173,1885,1,192436.0,228814,0.17,0.13,9.98,-0.03,-0.01,-0.01,30.97,11.666685,-8.619721585375814,-153.4044756740689,9.982294325454445,0.033166247903554,-0.8774581583743789,-0.4237605328660021
13625201,1875,1,192440.0,228813,0.16,0.12,9.96,-0.03,-0.01,-0.01,30.97,11.706713,-15.690926626056521,-140.4170753250783,9.962007829749986,0.033166247903554,-1.5858005460533102,-0.38701305062744756
13665173,1887,1,192474.0,228901,0.17,0.11,9.95,-0.03,-0.01,-0.0,30.97,11.746685,-4.041948036616373,-134.7218920162034,9.952060088243035,0.03162277660168379,-0.4188897775783432,-0.3708986904118208
13705171,1885,1,192519.0,229168,0.17,0.12,9.95,-0.03,-0.01,-0.0,30.97,11.786683,-4.279637916770733,-100.00478831115866,9.95217564153688,0.03162277660168379,-0.44269983771194826,-0.27266762665052363
13745173,1873,1,192596.0,229358,0.18,0.12,9.98,-0.03,-0.01,-0.01,30.97,11.826685,-14.885233459517647,-10.785288780881087,9.982344414014175,0.033166247903554,-1.5050920079697072,-0.020223574244268412
13785173,1874,1,192712.0,229582,0.17,0.13499999999999998,10.0,-0.03,-0.01,-0.0,30.97,11.866685,-14.020252550897085,131.3917729522584,10.002355972469687,0.03162277660168379,-1.4184444509289913,0.382062403732416
13825173,1872,1,192811.0,229835,0.16,0.12,9.98,-0.03,-0.01,-0.01,30.97,11.906685,-13.462590093052079,289.1950183055827,9.982003806851608,0.033166247903554,-1.3625818426979608,0.8285622266364082
13865173,1872,1,192908.0,230141,0.16,0.13,9.99,-0.03,-0.01,-0.01,30.97,11.946685,-14.008719597596299,397.60037790287265,9.992126900715382,0.033166247903554,-1.4172891627382131,1.1352921278729666
13905173,1879,1,192975.0,230333,0.17,0.11,9.96,-0.03,-0.01,-0.0,30.97,11.986685,-5.3017263346867205,394.32040490113224,9.962058020308856,0.03162277660168379,-0.5450852934016758,1.126011536962888
13945174,1881,1,192951.0,229462,0.16,0.1,9.97,-0.03,-0.01,-0.0,30.97,12.026686,-2.405050870812274,260.34708327904497,9.971785196242447,0.03162277660168379,-0.2549172099409984,0.7469378097769508
13985173,1873,1,192489.0,228253,0.17,0.12,9.99,-0.03,-0.01,-0.0,30.97,12.066685,-10.884545355068123,41.0926240415647,9.992166932152404,0.03162277660168379,-1.1043318902866153,0.12656351391724147
14025201,1873,1,192239.0,227965,0.16,0.12,9.95,-0.03,-0.01,-0.0,30.97,12.106713,-8.089316633849075,-174.48503832919306,9.952009847262008,0.03162277660168379,-0.8243260107927821,-0.4834073891214281
14065173,1885,1,192199.0,228023,0.15500000000000003,0.13,9.98,-0.03,-0.01,-0.0,30.97,12.146685,1.6674974934566547,-305.88330370599783,9.982050140126526,0.03162277660168379,0.15304135096738095,-0.8551950674373808
14105171,1879,1,192204.0,228003,0.15500000000000003,0.11,9.96,-0.03,-0.01,-0.01,30.97,12.186683,-0.8062842508943414,-324.80432176230215,9.961813338945877,0.033166247903554,-0.09476428573940777,-0.9087315532833302
14145173,1881,1,192209.0,228160,0.17,0.13,9.98,-0.03,-0.01,-0.0,30.97,12.226685,-1.3150915074389251,-259.15457188627266,9.982294325454445,0.03162277660168379,-0.14573293180407657,-0.7229774413973097
14185174,1874,1,192301.0,228463,0.16,0.11,9.96,-0.03,-0.01,-0.01,30.97,12.266686,-5.415476501347656,-161.42046643252766,9.961892390504929,0.033166247903554,-0.5564799657648641,-0.4464415521697441
14225173,1863,1,192376.0,228547,0.17,0.1,9.99,-0.03,-0.01,-0.0,30.97,12.306685,-18.293582114324668,-72.13022976774549,9.991946757264072,0.03162277660168379,-1.8465158261589572,-0.19379735104057555
14265171,1867,1,192381.0,228563,0.15500000000000003,0.1,9.99,-0.03,-0.01,-0.0,30.97,12.346683,-12.39513898604884,-5.091200275282367,9.991702807830105,0.03162277660168379,-1.255652279559115,-0.004112311743570244
14305173,1875,1,192386.0,228645,0.16,0.12,9.99,-0.03,-0.01,-0.0,30.97,12.386685,-5.481643402719913,43.447565731210204,9.99200180144099,0.03162277660168379,-0.5631080893496992,0.1332267548729117
14345860,1875,1,192440.0,228812,0.15500000000000003,0.13,9.95,-0.03,-0.01,-0.0,31.11,12.427372,-4.758089842414406,80.15299272579576,9.952056320178256,0.03162277660168379,-0.49062770537386474,0.23708372318812396
14384173,1891,1,192557.0,229011,0.19,0.11,9.96,-0.03,-0.01,-0.0,31.11,12.465685,11.224462343620813,112.13325449775215,9.962419384868317,0.03162277660168379,1.1103892516410725,0.3275709700481647
14424171,1889,1,192534.0,229087,0.17,0.12,9.98,-0.03,-0.01,-0.0,31.11,12.505683,8.85896381603671,154.42199496221664,9.98216910295553,0.03162277660168379,0.8734306476350683,0.44722576603122155
14464173,1877,1,192544.0,229254,0.17,0.11,9.97,-0.03,-0.01,-0.0,31.11,12.545685,-2.997559814646294,228.45937531170605,9.972055956521704,0.03162277660168379,-0.314270488142094,0.6567124412913267
14504171,1887,1,192581.0,229460,0.17,0.13499999999999998,9.97,-0.03,-0.01,-0.01,31.11,12.585683,7.6613840507232505,340.63097040256054,9.97236305997731,0.033166247903554,0.7534657328125094,0.9740987994158667
14544173,1890,1,192689.0,229815,0.17,0.12,9.98,-0.03,-0.01,-0.01,31.11,12.625685,8.092280811611298,457.3984239724082,9.98216910295553,0.033166247903554,0.7966298666050681,1.3044890092189174
14584174,1885,1,192775.0,230197,0.17,0.13499999999999998,9.99,-0.03,-0.01,-0.01,31.11,12.665686,7.559855292505339,508.93458306253416,9.992358330244167,0.033166247903554,0.7432953131173637,1.4503091148534464
14624173,1903,1,192841.0,230047,0.18,0.12,10.0,-0.03,-0.01,-0.01,31.11,12.705685,18.822086727468612,432.7071808692746,10.002339726284045,0.033166247903554,1.8714645373641339,1.2346258346806234
14664171,1890,1,192540.0,228473,0.17,0.1,9.96,-0.03,-0.01,-0.0,31.11,12.745683,13.561397214055837,226.85349645342166,9.96195261984316,0.03162277660168379,1.3444865542155071,0.6521686524470363
14704173,1892,1,192056.0,227530,0.16,0.12,9.96,-0.03,-0.01,-0.0,31.11,12.785685,7.293392284925952,-35.79045889174192,9.962007829749986,0.03162277660168379,0.7166029683287416,-0.09097499637874584
14744173,1888,1,191887.0,227381,0.15500000000000003,0.11,9.96,-0.03,-0.01,-0.0,31.11,12.825685,10.32974377701818,-251.80828921662217,9.961813338945877,0.03162277660168379,1.0207627902215672,-0.702191342203612
14784173,1890,1,191904.0,227458,0.15500000000000003,0.13,9.96,-0.03,-0.01,-0.0,31.11,12.865685,6.85871969271155,-354.7613319569352,9.962054256025713,0.03162277660168379,0.673060598950905,-0.9934940669863157
14824171,1887,1,191895.0,227464,0.17,0.13499999999999998,10.01,-0.03,-0.01,-0.01,31.11,12.905683,6.5915084263341654,-350.3043148297844,10.01235361940438,0.033166247903554,0.6462932989855448,-0.9808830629889195
14864173,1893,1,191925.0,227437,0.18,0.11,9.96,-0.03,-0.01,-0.01,31.11,12.945685,12.096951938943743,-295.33275982673774,9.962233685273599,0.033166247903554,1.1977889748311916,-0.8253426017096779
14904173,1890,1,191924.0,227352,0.17,0.13499999999999998,9.96,-0.03,-0.01,-0.01,31.11,12.985685,7.1751470511945055,-246.98957762898385,9.96236543196444,0.033166247903554,0.7047580125240203,-0.6885569339524473
14944173,1886,1,191939.0,227402,0.15500000000000003,0.12,9.96,-0.03,-0.01,-0.0,31.11,13.025685,6.1908247463830035,-225.7117084555023,9.961928779106987,0.03162277660168379,0.606155694018957,-0.6283518044795909
14984173,1895,1,191942.0,227556,0.16,0.13499999999999998,9.95,-0.03,-0.01,-0.01,31.11,13.065685,11.518285994923744,-215.0565688196183,9.952202017644135,0.033166247903554,1.1398223886414987,-0.5982033880145977
15024191,1878,1,191993.0,227762,0.15500000000000003,0.12,9.98,-0.03,-0.01,-0.01,31.11,13.105703,-2.5363689900123907,-187.65746977503926,9.981924914564326,0.033166247903554,-0.2680717132490743,-0.5206784116192009
15064226,1872,1,192051.0,227958,0.17,0.13,9.98,-0.03,-0.01,-0.0,31.11,13.145738,-10.746429017298752,-130.3379031580489,9.982294325454445,0.03162277660168379,-1.0904963904092693,-0.35849431783763
15104173,1879,1,192112.0,228258,0.16,0.12,10.0,-0.03,-0.01,-0.0,31.11,13.185685,-2.7957983826997235,-49.47163690218939,10.00199980003999,0.03162277660168379,-0.2940594811603482,-0.12968550290290143
15144171,1877,1,192271.0,228648,0.18,0.13,9.98,-0.03,-0.01,-0.0,31.11,13.225683,-5.454134503701433,41.809041776465286,9.982469634313945,0.03162277660168379,-0.560352445990319,0.1285905976507995
15184173,1875,1,192379.0,228743,0.15500000000000003,0.11,10.0,-0.03,-0.01,-0.0,31.11,13.265685,-6.9899443873242095,137.19049122044177,10.001806086902505,0.03162277660168379,-0.7141988178219488,0.39846971318930907
15224171,1878,1,192408.0,228820,0.17,0.13,10.0,-0.03,-0.01,-0.01,31.11,13.305683,-5.476583957675235,234.83783741941812,10.002289737855028,0.033166247903554,-0.5626012705878816,0.6747601195574902
15264227,1875,1,192454.0,229023,0.17,0.1,9.96,-0.03,-0.01,-0.0,31.11,13.345739,-6.33607997728683,320.0200184591226,9.96195261984316,0.03162277660168379,-0.6486993909548745,0.9157806933970549
15304171,1881,1,192531.0,229310,0.16,0.12,9.96,-0.03,-0.01,-0.01,31.11,13.385683,-3.854209079907403,353.9111745306936,9.962007829749986,0.033166247903554,-0.40008344116318795,1.0116747616723067
15344173,1875,1,192601.0,229466,0.17,0.11,9.98,-0.03,-0.01,-0.0,31.11,13.425685,-6.18054875228483,290.3779580268989,9.982053896869122,0.03162277660168379,-0.633119393112535,0.8319093211457206
15384860,1879,1,192528.0,228257,0.16,0.13499999999999998,9.96,-0.03,-0.01,-0.01,31.13,13.466372,-6.519655827101149,115.58932325452828,9.962199807271485,0.033166247903554,-0.6670886973078332,0.3373498189203122
15425173,1879,1,192036.0,227127,0.19,0.12,9.96,-0.03,-0.01,-0.01,31.13,13.506685,-3.1453865919897366,-124.74901208391739,9.962534818006912,0.033166247903554,-0.32907870991248916,-0.3426807084961866
15465174,1883,1,191844.0,226926,0.18,0.13499999999999998,9.930000000000001,-0.03,-0.01,-0.01,31.13,13.546686,-2.4603190397495522,-342.2353622084222,9.93254876655534,0.033166247903554,-0.2604535770131524,-0.9580521895908963
15505173,1887,1,191875.0,226965,0.15500000000000003,0.11,9.98,-0.03,-0.01,-0.01,31.13,13.586685,3.051826593486488,-458.5156783126693,9.981809705659591,0.033166247903554,0.29171346900204104,-1.2870640577024721
15545173,1885,1,191901.0,227069,0.15500000000000003,0.12,9.98,-0.03,-0.01,-0.0,31.13,13.626685,-0.1618784525810312,-451.0875719715483,9.981924914564326,0.03162277660168379,-0.030212354465264275,-1.266046440742843
15585173,1876,1,192004.0,227292,0.17,0.12,9.97,-0.03,-0.01,-0.0,31.13,13.666685,-10.09518340251546,-357.1786681873671,9.972171278111905,0.03162277660168379,-1.0252592955877868,-1.0003338515317515
15625174,1885,1,192132.0,227650,0.18,0.13,9.95,-0.03,-0.01,-0.01,31.13,13.706686,-0.27518531761859494,-239.42464881525314,9.952477078597067,0.033166247903554,-0.04156262006488774,-0.6671521816734353
15665173,1895,1,192224.0,227835,0.15500000000000003,0.13,10.01,-0.03,-0.01,-0.0,31.13,13.746685,7.238672446064968,-145.3885004595739,10.012043997106684,0.03162277660168379,0.7111215290140552,-0.40107955754346636
15705171,1890,1,192297.0,228033,0.15500000000000003,0.11,10.01,-0.03,-0.01,-0.0,31.13,13.786683,3.2241644356130648,-89.02611446926491,10.011804282945207,0.03162277660168379,0.30897703269126797,-0.24160377929332486
15745173,1898,1,192305.0,228179,0.18,0.13499999999999998,9.97,-0.03,-0.01,-0.0,31.13,13.826685,9.852720365022169,-58.01753108566325,9.972538543420125,0.03162277660168379,0.9729780207674096,-0.1538658689716336
15785173,1898,1,192430.0,228454,0.18,0.13499999999999998,9.97,-0.03,-0.01,-0.0,31.13,13.866685,8.129885401504984,-31.06728833523865,9.972538543420125,0.03162277660168379,0.8003968235579124,-0.0776109187750045
15825173,1888,1,192461.0,228703,0.17,0.12,9.97,-0.03,-0.01,-0.01,31.13,13.906685,0.13049136856284888,11.453723545197883,9.972171278111905,0.033166247903554,-0.0009248516983551266,0.04270108261510827
15865174,1893,1,192594.0,228968,0.18,0.095,9.98,-0.03,-0.01,-0.01,31.13,13.946686,-0.1662441485064328,85.58611377836583,9.982075185050451,0.033166247903554,-0.030649678437329644,0.2524565856559197
15905174,1879,1,192697.0,229255,0.16,0.13,9.99,-0.03,-0.01,-0.01,31.13,13.986686,-9.554916915720739,199.90954005518577,9.992126900715382,0.033166247903554,-0.9711392904348547,0.5759314893062608
15945174,1883,1,192748.0,229691,0.15500000000000003,0.13499999999999998,9.98,-0.03,-0.01,-0.01,31.13,14.026686,-12.255445742231801,342.79720431267026,9.98211650903755,0.033166247903554,-1.2416588165922355,0.9802280970425853
15985174,1887,1,192913.0,230035,0.17,0.13499999999999998,9.96,-0.03,-0.01,-0.0,31.13,14.066686,-3.8748273847456183,471.02032980418164,9.96236543196444,0.03162277660168379,-0.40214883442996097,1.3430318067886606
16025204,1887,1,193019.0,230316,0.18,0.11,9.98,-0.03,-0.01,-0.01,31.13,14.106716,-9.077662522586662,520.012476049308,9.982229209951052,0.033166247903554,-0.9233313829540234,1.4816536999769594
16065173,1883,1,193091.0,230164,0.17,0.11,9.97,-0.03,-0.01,-0.0,31.13,14.146685,-11.302068239837084,441.4754275608719,9.972055956521704,0.03162277660168379,-1.146156325500471,1.259435340886981
16105173,1893,1,192755.0,228743,0.18,0.1,9.96,-0.03,-0.01,-0.0,31.13,14.186685,-3.2759267300639316,243.74566127787764,9.96212828666646,0.03162277660168379,-0.342155280675103,0.6999645554127655
16145174,1892,1,192401.0,228008,0.18,0.13,9.95,-0.03,-0.01,-0.0,31.13,14.226686,-5.966885108984298,-2.169287223815856,9.952477078597067,0.03162277660168379,-0.6117161083279787,0.0041551586566712885
16185171,1891,1,192234.0,228020,0.18,0.12,9.99,-0.03,-0.01,-0.01,31.13,14.266683,-5.681671381761345,-202.25287120235657,9.992342067803724,0.033166247903554,-0.5831454515053242,-0.5619756874636775
16225173,1904,1,192257.0,227954,0.17,0.13499999999999998,10.0,-0.03,-0.01,-0.0,31.13,14.306685,3.168084239743638,-295.0791183692594,10.002355972469687,0.03162277660168379,0.30335932261001314,-0.8246249303741383
16265171,1901,1,192228.0,227946,0.19,0.13,9.97,-0.03,-0.01,-0.0,31.13,14.346683,2.9180775527332496,-280.4590398938726,9.97265761971201,0.03162277660168379,0.2783154534824973,-0.78325783151957
16305173,1904,1,192271.0,228208,0.16,0.13,9.96,-0.03,-0.01,-0.0,31.13,14.386685,1.6585886272311714,-205.03494583988777,9.962133305673039,0.03162277660168379,0.15214892491872778,-0.5698474890237916
16345173,1904,1,192299.0,228431,0.17,0.12,9.97,-0.03,-0.01,-0.0,31.13,14.426685,3.734831884030799,-124.26642800556247,9.972171278111905,0.03162277660168379,0.36013201937898304,-0.34131525048523564
16385860,1904,1,192378.0,228412,0.18,0.13499999999999998,9.98,-0.03,-0.01,-0.0,31.15,14.467372,0.8025825292784515,-71.279923499718,9.982536000435962,0.03162277660168379,0.06640039976590811,-0.1913914334864824
16424173,1896,1,192314.0,228289,0.16,0.12,9.97,-0.03,-0.01,-0.01,31.15,14.505685,-5.952303107270558,-48.13220296832459,9.972005816283904,0.033166247903554,-0.6102553884292309,-0.12589561244201028
16464173,1899,1,192338.0,228298,0.18,0.13,9.96,-0.03,-0.01,-0.0,31.15,14.545685,-5.567548085386037,-34.98644932195069,9.96247459218843,0.03162277660168379,-0.5717134016949719,-0.08870007402387846
16504171,1905,1,192377.0,228418,0.18,0.13,9.97,-0.03,-0.01,-0.0,31.15,14.585683,2.7798769173490454,-4.415820921669396,9.972472110765716,0.03162277660168379,0.264471509277286,-0.002201344950041927
16544173,1910,1,192405.0,228476,0.17,0.13,9.99,-0.03,-0.01,-0.0,31.15,14.625685,3.4585425256426556,66.71850792670597,9.99229202935943,0.03162277660168379,0.3324553415447199,0.19907122813348024
16584171,1907,1,192486.0,228575,0.18,0.12,9.97,-0.03,-0.01,-0.0,31.15,14.665683,5.354699672028043,186.55832435903443,9.972346764929508,0.03162277660168379,0.5223987066088164,0.5381546018250364
16624173,1918,1,192554.0,228854,0.19499999999999995,0.12,9.99,-0.03,-0.01,-0.01,31.15,14.705685,10.161132612535503,336.7766561199247,9.992623529384062,0.033166247903554,1.0038725382557598,0.9631931260834838
16664174,1909,1,192618.0,229146,0.17,0.12,9.97,-0.03,-0.01,-0.01,31.15,14.745686,7.449203547586642,467.2832797855808,9.972171278111905,0.033166247903554,0.7322110183266409,1.3324579293772512
16704195,1919,1,192663.0,229282,0.17,0.13,9.97,-0.03,-0.01,-0.0,31.15,14.785707,11.545769210206833,510.04594842556844,9.972296626153877,0.03162277660168379,1.1425754591892654,1.453453691738829
16744171,1913,1,192645.0,228877,0.17,0.11,9.94,-0.03,-0.01,-0.01,31.15,14.825683,10.910837971243822,414.67078411204625,9.942062160336757,0.033166247903554,1.078972621026379,1.1835923597993099
16784173,1908,1,192305.0,227364,0.17,0.13,9.95,-0.03,-0.01,-0.0,31.15,14.865685,1.9956385055907342,185.88832976046817,9.952301241421504,0.03162277660168379,0.18591215399080163,0.5362588710437293
16824171,1907,1,191833.0,226297,0.16,0.13,9.98,-0.03,-0.01,-0.0,31.15,14.905683,4.855553914547624,-108.07914490864842,9.982129031424108,0.03162277660168379,0.4723978799294286,-0.2955137904462729
16864173,1910,1,191568.0,225878,0.17,0.13,9.98,-0.03,-0.01,-0.01,31.15,14.945685,5.483831275229495,-368.78938021694165,9.982294325454445,0.033166247903554,0.5353341804934372,-1.0331860330783782
16904206,1904,1,191463.0,225437,0.17,0.13,10.0,-0.03,-0.01,-0.01,31.15,14.985718,2.767855967564426,-520.3733075754028,10.002289737855028,0.033166247903554,0.2632673371137553,-1.462088471485794
16944173,1906,1,191353.0,225380,0.17,0.11,9.96,-0.03,-0.01,-0.0,31.15,15.025685,3.1707438700184913,-543.8449575153895,9.962058020308856,0.03162277660168379,0.30362574521385427,-1.528500841637013
16984171,1895,1,191375.0,225733,0.16,0.13499999999999998,9.930000000000001,-0.03,-0.01,-0.0,31.15,15.065683,-5.028482917845436,-472.99303584330573,9.932206451740722,0.03162277660168379,-0.5177137360519156,-1.3280273316774376
17024190,1891,1,191448.0,225891,0.19,0.12,10.0,-0.03,-0.01,-0.0,31.15,15.105702,-9.257903085926921,-363.0264864593887,10.002524681299217,0.03162277660168379,-0.9413865843317993,-1.0168800880618443
17064171,1897,1,191468.0,225870,0.16,0.11,9.95,-0.03,-0.01,-0.01,31.15,15.145683,-2.0320007484676292,-258.2991854853952,9.951894292043097,0.033166247903554,-0.21754773573323516,-0.7205571497508918
17104195,1898,1,191484.0,226011,0.17,0.13,9.96,-0.03,-0.01,-0.0,31.15,15.185707,1.1555190393333021,-177.3218211775169,9.962298931471592,0.03162277660168379,0.1017550371711411,-0.4914339860178208
17144174,1901,1,191526.0,226135,0.15500000000000003,0.12,9.95,-0.03,-0.01,-0.0,31.15,15.225686,3.0955044592734207,-115.3881243250448,9.951930717202567,0.03162277660168379,0.2960888029885743,-0.31619434113914974
17184173,1901,1,191571.0,226285,0.18,0.13,9.96,-0.03,-0.01,-0.0,31.15,15.265685,7.63866735225743,-54.388370524141486,9.96247459218843,0.03162277660168379,0.7511901375866761,-0.1435972617298657
17224171,1897,1,191602.0,226486,0.17,0.12,9.96,-0.03,-0.01,-0.01,31.15,15.305683,1.1368667070256628,27.774875588728758,9.962173457634634,0.033166247903554,0.099886580871746,0.08888132105512936
17264173,1888,1,191672.0,226665,0.17,0.12,9.97,-0.03,-0.01,-0.0,31.15,15.345685,-2.7478391827491846,146.98358558401773,9.972171278111905,0.03162277660168379,-0.2892552739553955,0.4261789969193641
17304171,1900,1,191778.0,226876,0.17,0.12,9.97,-0.03,-0.01,-0.01,31.15,15.385683,7.635060707273079,298.97706758294913,9.972171278111905,0.033166247903554,0.750828849870505,0.8562402586071888
17344173,1893,1,191811.0,227117,0.19499999999999995,0.12,9.98,-0.03,-0.01,-0.01,31.15,15.425685,3.750108292261033,447.6433173978695,9.982626157479805,0.033166247903554,0.3616622999208015,1.2768872108643354
17384174,1879,1,191872.0,227399,0.17,0.12,9.98,-0.03,-0.01,-0.0,31.15,15.465686,-8.990346723999354,530.2246612837254,9.98216910295553,0.03162277660168379,-0.9145847151799161,1.510548789481746
17424860,1884,1,191947.0,227428,0.15500000000000003,0.13,9.99,-0.03,-0.01,-0.0,30.91,15.506372,-3.8836516271594657,487.8493578953372,9.992048088355059,0.03162277660168379,-0.4030327834747026,1.390649066151882
17463171,1887,1,191767.0,226051,0.16,0.13,9.930000000000001,-0.03,-0.01,-0.0,30.91,15.544683,2.7696573962139515,306.94534068934115,9.932139749318877,0.03162277660168379,0.2634477912603254,0.8787862621630005
17503173,1884,1,191204.0,224809,0.19,0.11,9.97,-0.03,-0.01,-0.0,30.91,15.584685,-1.426143354868349,38.60014218155243,9.972416958791886,0.03162277660168379,-0.15685730598241918,0.11951110693666826
17544171,1881,1,190995.0,224287,0.16,0.11,9.99,-0.03,-0.01,-0.0,30.91,15.625683,-1.068178425603715,-225.4092672557489,9.991886708725234,0.03162277660168379,-0.12099895776003167,-0.6274960556524586
17584173,1878,1,190854.0,223774,0.18,0.13499999999999998,9.930000000000001,-0.03,-0.01,-0.0,30.91,15.665685,-3.741593683781453,-403.94438311413694,9.93254876655534,0.03162277660168379,-0.3888024419385374,-1.1326561202279917
17624171,1867,1,190829.0,223745,0.16,0.12,9.98,-0.03,-0.01,-0.01,30.91,15.705683,-14.04493278431086,-464.9597888793975,9.982003806851608,0.033166247903554,-1.420916738942733,-1.30529748642807
17664173,1877,1,190821.0,223914,0.18,0.12,9.96,-0.03,-0.01,-0.01,30.91,15.745685,-1.2079127079051724,-426.25982042867105,9.962349120563886,0.033166247903554,-0.13499653166668335,-1.1957970194322851
17704173,1890,1,190850.0,224162,0.18,0.13,9.98,-0.03,-0.01,-0.01,30.91,15.785685,10.563998576217465,-329.2856521634662,9.982469634313945,0.033166247903554,1.0442287486876927,-0.9214113510024071
17744173,1872,1,190972.0,224404,0.17,0.13,9.97,-0.03,-0.01,-0.01,30.91,15.825685,-4.690707779512723,-213.6987396925839,9.972296626153877,0.033166247903554,-0.4838778556597183,-0.5943614488745167
17784174,1872,1,191047.0,224623,0.17,0.12,9.98,-0.03,-0.01,-0.0,30.91,15.865686,-4.206770531843946,-107.73134987217112,9.98216910295553,0.03162277660168379,-0.43540050794764107,-0.2945297142199171
17824173,1877,1,191129.0,224987,0.17,0.13,9.96,-0.03,-0.01,-0.0,30.91,15.905685,-0.10090308334452124,-27.89085253579992,9.962298931471592,0.03162277660168379,-0.024104281175617998,-0.06862328345267799
17864171,1862,1,191237.0,225270,0.17,0.13,10.0,-0.03,-0.01,-0.0,30.91,15.945683,-10.878381002728188,24.544832802811158,10.002289737855028,0.03162277660168379,-1.103714389870513,0.07974200627959743
17904173,1867,1,191305.0,225508,0.16,0.12,9.96,-0.03,-0.01,-0.0,30.91,15.985685,-10.18909071707739,70.53473011477078,9.962007829749986,0.03162277660168379,-1.0346662539540954,0.20986912096083032
17944173,1863,1,191338.0,225835,0.18,0.13,9.99,-0.03,-0.01,-0.0,30.91,16.025685,-8.723850870032756,149.76608990941403,9.9924671628182,0.03162277660168379,-0.887889080076813,0.43405201426914874
17984173,1867,1,191482.0,226274,0.19499999999999995,0.13,9.97,-0.03,-0.01,-0.01,30.91,16.065685,-8.594735188510034,295.1441268508009,9.972754133136943,0.033166247903554,-0.8749552011112848,0.8453950611318528
18024187,1872,1,191653.0,226762,0.16,0.13,9.98,-0.03,-0.01,-0.01,30.91,16.105699,-0.8962840433518159,495.4496835589371,9.982129031424108,0.033166247903554,-0.10377981668684566,1.4121539728172159
18064173,1877,1,191842.0,227287,0.18,0.11,9.97,-0.03,-0.01,-0.0,30.91,16.145685,3.688533444584342,677.3641544910216,9.972231445368685,0.03162277660168379,0.3554941751990107,1.9268758270666986
18104171,1879,1,192003.0,227690,0.18,0.13,10.0,-0.03,-0.01,-0.0,30.91,16.185683,4.250229342788282,733.5150042570283,10.002464696263617,0.03162277660168379,0.4117608244326667,2.085753069548597
18144173,1875,1,191999.0,227139,0.16,0.12,9.99,-0.03,-0.01,-0.01,30.91,16.225685,2.935791025196549,588.720138574614,9.99200180144099,0.033166247903554,0.2800898615652151,1.6760600892816147
18184173,1879,1,191516.0,225305,0.18,0.11,9.96,-0.03,-0.01,-0.0,30.91,16.265685,3.115564736432245,258.7948125088373,9.962233685273599,0.03162277660168379,0.2980982970618525,0.7425457035028059
18224173,1881,1,191045.0,224209,0.19499999999999995,0.12,10.01,-0.03,-0.01,-0.0,30.91,16.305685,8.405208971374687,-146.81044052980232,10.012618288939212,0.03162277660168379,0.8279767556548919,-0.4051028967854163
18264171,1885,1,190822.0,223912,0.17,0.13499999999999998,9.96,-0.03,-0.01,-0.0,30.91,16.345683,8.817133338556427,-485.40941070393865,9.96236543196444,0.03162277660168379,0.8692403717025123,-1.3631591134349628
18304173,1877,1,190743.0,223724,0.18,0.13,9.98,-0.03,-0.01,-0.0,30.91,16.385685,2.691983389252445,-660.5672272777191,9.982469634313945,0.03162277660168379,0.25566696872227507,-1.8587632051336724
18344171,1884,1,190720.0,223714,0.17,0.11,9.98,-0.03,-0.01,-0.01,30.91,16.425683,7.37260085040735,-664.5382278701123,9.982053896869122,0.033166247903554,0.7245375118860184,-1.8699990390817345
18384173,1885,1,190843.0,224315,0.19499999999999995,0.13499999999999998,9.96,-0.03,-0.01,-0.01,30.91,16.465685,9.083455580174226,-561.3982072504033,9.962823395002042,0.033166247903554,0.8959186155710279,-1.578167265673634
18424174,1875,1,191062.0,224841,0.17,0.13,10.0,-0.03,-0.01,-0.01,30.91,16.505686,-3.1923966003194777,-433.163130498528,10.002289737855028,0.033166247903554,-0.3337878339378179,-1.2153297401741245
18464860,1872,1,191155.0,224944,0.15500000000000003,0.11,9.98,-0.03,-0.01,-0.01,30.77,16.546372,-4.9565272036927395,-330.7871539671544,9.981809705659591,0.033166247903554,-0.5105057308990687,-0.9256598079206139
18503173,1874,1,191172.0,225169,0.17,0.12,9.96,-0.03,-0.01,-0.01,30.77,16.584685,-6.290078876629395,-259.03573454624546,9.962173457634634,0.033166247903554,-0.6440913320330801,-0.7226411945022746
18544173,1873,1,191317.0,225670,0.19,0.11,10.0,-0.03,-0.01,-0.0,30.77,16.625685,-5.705082325472217,-194.24416669587367,10.002409709664967,0.03162277660168379,-0.5854905912192165,-0.5393152844039778
18584171,1888,1,191476.0,226209,0.18,0.12,9.98,-0.03,-0.01,-0.01,30.77,16.665683,6.80974635944589,-111.07368910376017,9.982344414014175,0.033166247903554,0.6681548031751605,-0.3039867686147628
18624173,1886,1,191667.0,226715,0.17,0.13,9.98,-0.03,-0.01,-0.0,30.77,16.705685,3.7472603766156456,3.7451482404650953,9.982294325454445,0.03162277660168379,0.36137701624474394,0.02088988664953195
18664171,1876,1,191822.0,227101,0.19499999999999995,0.11,9.98,-0.03,-0.01,-0.01,30.77,16.745683,-4.825162577260125,151.22523918844192,9.982510956668166,0.033166247903554,-0.4973465688314288,0.4381806359157929
18704173,1878,1,191948.0,227507,0.17,0.12,9.98,-0.03,-0.01,-0.01,30.77,16.785685,-8.100563345652223,318.66849573562325,9.98216910295553,0.033166247903554,-0.8254526253721003,0.9119565980475453
18744174,1872,1,192082.0,227903,0.18,0.11,9.98,-0.03,-0.01,-0.01,30.77,16.825686,-9.548279906592652,470.9903633982469,9.982229209951052,0.033166247903554,-0.9704744426662227,1.3429470176899767
18784173,1881,1,192230.0,228244,0.16,0.13499999999999998,9.930000000000001,-0.03,-0.01,-0.01,30.77,16.865685,-6.6091461859197,549.8654951876725,9.932206451740722,0.033166247903554,-0.6760531968627316,1.5661219739252203
18824174,1876,1,192328.0,228537,0.15500000000000003,0.12,9.98,-0.03,-0.01,-0.0,30.77,16.905686,-8.949057015471984,498.94656769758615,9.981924914564326,0.03162277660168379,-0.9104486095859495,1.4220483076588515
18864173,1884,1,192233.0,227237,0.19,0.12,9.98,-0.03,-0.01,-0.0,30.77,16.945685,-2.6687971540515414,307.4257994014549,9.982529739499903,0.03162277660168379,-0.2813374128535648,0.880145706510239
18904174,1890,1,191726.0,226188,0.15500000000000003,0.13499999999999998,9.97,-0.03,-0.01,-0.0,30.77,16.985686,0.7770842529074039,35.22993576159187,9.97211863146443,0.03162277660168379,0.06384616610100133,0.10997520311990568
18944173,1883,1,191547.0,225967,0.18,0.11,9.95,-0.03,-0.01,-0.0,30.77,17.025685,-3.1502999076729843,-211.04867199962638,9.952235929679318,0.03162277660168379,-0.3295708904874364,-0.5868631572333037
18984171,1895,1,191501.0,226082,0.19,0.13,9.95,-0.03,-0.01,-0.0,30.77,17.065683,3.7560281133043993,-340.02644506237306,9.952662960233305,0.03162277660168379,0.3622553049529518,-0.9518021209543975
19024189,1888,1,191557.0,226234,0.18,0.12,9.97,-0.03,-0.01,-0.01,30.77,17.105701,0.00774360875907698,-327.64456304867656,9.972346764929508,0.033166247903554,-0.013220838133684652,-0.9167679357324449
19064174,1892,1,191704.0,226688,0.17,0.12,9.96,-0.03,-0.01,-0.01,30.77,17.145686,1.1723538720025715,-220.43786033074514,9.962173457634634,0.033166247903554,0.10344142944806163,-0.6134296002596824
19104173,1900,1,191820.0,227047,0.17,0.11,9.99,-0.03,-0.01,-0.0,30.77,17.185685,9.625146945441212,-93.50002634802566,9.992051841338695,0.03162277660168379,0.9501813547860317,-0.2542625865129234
19144173,1895,1,191921.0,226981,0.17,0.11,9.98,-0.03,-0.01,-0.0,30.77,17.225685,4.138669077887125,-0.6766370916484467,9.982053896869122,0.03162277660168379,0.40058552065409425,0.008378570020475214
19184173,1899,1,191912.0,226993,0.18,0.13499999999999998,9.98,-0.03,-0.01,-0.0,30.77,17.265685,8.58372733839293,47.58266601730703,9.982536000435962,0.03162277660168379,0.8458594398099638,0.14492690426653496
19224173,1904,1,191961.0,227271,0.17,0.13,9.98,-0.03,-0.01,-0.0,30.77,17.305685,11.063968388676143,72.47110522292118,9.982294325454445,0.03162277660168379,1.0943121232592035,0.21534803960365684
19264173,1891,1,192075.0,227427,0.18,0.12,9.98,-0.03,-0.01,-0.0,30.77,17.345685,2.6657996990321866,101.4862698368813,9.982344414014175,0.03162277660168379,0.2530440752349328,0.2974456278544961
19304171,1899,1,192139.0,227520,0.18,0.11,9.96,-0.03,-0.01,-0.01,30.77,17.385683,3.895182940556757,151.83020463039833,9.962233685273599,0.033166247903554,0.37619483322655073,0.4398923685363216
19344173,1897,1,192204.0,227600,0.17,0.13,10.01,-0.03,-0.01,-0.0,30.77,17.425685,9.973494702088338,226.6537741462236,10.012287450927484,0.03162277660168379,0.9850763239272845,0.651603543823356
19384171,1904,1,192208.0,227798,0.17,0.11,9.98,-0.03,-0.01,-0.0,30.77,17.465683,9.465819881974157,313.78161378965655,9.982053896869122,0.03162277660168379,0.9342211171873689,0.8981293036941159
19424174,1892,1,192283.0,228031,0.18,0.12,9.98,-0.03,-0.01,-0.0,30.77,17.505686,3.603655695711335,382.07643617017624,9.982344414014175,0.03162277660168379,0.34699173368421476,1.0913675734767547
19464857,1897,1,192269.0,228264,0.18,0.11,9.96,-0.03,-0.01,-0.01,30.97,17.546369,6.125714314485964,385.67270168642204,9.962233685273599,0.033166247903554,0.5996333999364881,1.1015431051175917
19503173,1900,1,192354.0,228060,0.17,0.11,10.0,-0.03,-0.01,-0.0,30.97,17.584685,8.755138617147713,286.8481404209235,10.002049789918065,0.03162277660168379,0.8630301870545627,0.8219218019890482
19543171,1891,1,192079.0,226711,0.16,0.12,9.99,-0.03,-0.01,-0.01,30.97,17.624683,4.35382388081217,87.83741115503928,9.99200180144099,0.033166247903554,0.4221381790691365,0.25882656795722314
19584173,1892,1,191647.0,225945,0.16,0.11,9.97,-0.03,-0.01,-0.01,30.97,17.665685,-0.593092701931299,-156.43786704745108,9.971890492780194,0.033166247903554,-0.07340829196512541,-0.4323434280275123
19624174,1879,1,191517.0,225828,0.17,0.12,9.97,-0.03,-0.01,-0.0,30.97,17.705686,-5.5996812743239515,-362.41611174236664,9.972171278111905,0.03162277660168379,-0.574932273110109,-1.0151530500503938
19664173,1889,1,191472.0,225792,0.16,0.11,10.01,-0.03,-0.01,-0.0,30.97,17.745685,-1.8923503275675901,-463.8303308187558,10.0118829397871,0.03162277660168379,-0.2035585624577309,-1.3021017167661415
19704171,1882,1,191473.0,225823,0.17,0.13,9.95,-0.03,-0.01,-0.0,30.97,17.785683,-2.8667477001740003,-445.0637194901543,9.952301241421504,0.03162277660168379,-0.30116667274294184,-1.2490021203923962
19744173,1876,1,191520.0,226180,0.17,0.13499999999999998,9.98,-0.03,-0.01,-0.0,30.97,17.825685,-11.625713517517074,-340.7404235872503,9.982360692741972,0.03162277660168379,-1.178576778228679,-0.9538223030121312
19784173,1878,1,191671.0,226492,0.15500000000000003,0.13,9.98,-0.03,-0.01,-0.0,30.97,17.865685,-7.0663878348332165,-208.63313134272212,9.982050140126526,0.03162277660168379,-0.7218563717776642,-0.5800284532124182
19824173,1885,1,191758.0,226604,0.17,0.11,9.98,-0.03,-0.01,-0.0,30.97,17.905685,-0.5949085121871078,-98.24345681030815,9.982053896869122,0.03162277660168379,-0.07359018675742345,-0.26768398894748313
19864173,1874,1,191766.0,226693,0.18,0.12,9.97,-0.03,-0.01,-0.0,30.97,17.945685,-8.970273044788037,-32.47677431797657,9.972346764929508,0.03162277660168379,-0.912573878585553,-0.08159901952837652
19904173,1872,1,191800.0,226809,0.17,0.13,9.97,-0.03,-0.01,-0.01,30.97,17.985685,-14.150491056119938,-5.9056417125287135,9.972296626153877,0.033166247903554,-1.4314908062851937,-0.0064167507725772345
19944174,1875,1,191820.0,226963,0.18,0.12,9.97,-0.03,-0.01,-0.01,30.97,18.025686,-3.6479944808061555,6.71488535035982,9.972346764929508,0.033166247903554,-0.3794263479716759,0.029292673871496235
19984173,1887,1,191883.0,227224,0.17,0.13,9.97,-0.03,-0.01,-0.01,30.97,18.065685,-1.039425299625454,37.90557858005987,9.972296626153877,0.033166247903554,-0.11811867670588282,0.11754585885594838
20024190,1872,1,191895.0,227464,0.18,0.12,9.99,-0.03,-0.01,-0.01,30.97,18.105702,-2.482120823820718,111.58500501644217,9.992342067803724,0.033166247903554,-0.26263752270498086,0.326019713635383
20064173,1891,1,191928.0,227608,0.17,0.12,9.98,-0.03,-0.01,-0.0,30.97,18.145685,2.457978008530027,224.56808959293932,9.98216910295553,0.03162277660168379,0.23222599520262185,0.6457021583252952
20104174,1871,1,192032.0,227861,0.18,0.12,9.96,-0.03,-0.01,-0.01,30.97,18.185686,-1.9820637212744299,335.4695747042535,9.962349120563886,0.033166247903554,-0.21254540404123637,0.959494776158477
20144173,1885,1,192079.0,228208,0.17,0.13,9.98,-0.03,-0.01,-0.0,30.97,18.225685,-1.246056391727718,377.1897988485187,9.982294325454445,0.03162277660168379,-0.1388174911662726,1.0775409712808948
20184231,1878,1,192127.0,228179,0.18,0.11,9.98,-0.03,-0.01,-0.0,30.97,18.265743,3.7390732619736333,296.2995206854158,9.982229209951052,0.03162277660168379,0.36055689007100683,0.8486642153332437
20224173,1883,1,191875.0,226756,0.18,0.11,9.98,-0.03,-0.01,-0.01,30.97,18.305685,0.6332831857286859,95.5383169779363,9.982229209951052,0.033166247903554,0.049441210978055844,0.2806160633406995
20264173,1878,1,191381.0,225762,0.17,0.12,9.97,-0.03,-0.01,-0.01,30.97,18.345685,1.5624915429246,-157.1196124307605,9.972171278111905,0.033166247903554,0.14252261119212883,-0.43427240732215044
20304173,1879,1,191250.0,225692,0.17,0.13,9.98,-0.03,-0.01,-0.0,30.97,18.385685,0.1379592692974576,-366.2188597729305,9.982294325454445,0.03162277660168379,-0.00017677119342427648,-1.0259128181299004
20344171,1875,1,191243.0,225689,0.17,0.13,9.99,-0.03,-0.01,-0.01,30.97,18.425683,-3.092124277080549,-465.477557100487,9.99229202935943,0.033166247903554,-0.323743274848871,-1.3067624969765168
20384213,1872,1,191231.0,225703,0.15500000000000003,0.11,9.97,-0.03,-0.01,-0.01,30.97,18.465725,-4.4864088737894505,-449.12030733402986,9.97181152048112,0.033166247903554,-0.4634126628322331,-1.260480121049667
20424174,1871,1,191276.0,225941,0.18,0.13499999999999998,9.98,-0.03,-0.01,-0.01,30.97,18.505686,-8.004034735090768,-359.241077802196,9.982536000435962,0.033166247903554,-0.8157830844535345,-1.0061693812492472
20464860,1872,1,191379.0,226187,0.17,0.12,9.97,-0.03,-0.01,-0.0,31.13,18.546372,-3.284932589688261,-248.50661162227166,9.972171278111905,0.03162277660168379,-0.3430574228238172,-0.6928493387621566
20503173,1879,1,191439.0,226275,0.18,0.11,9.96,-0.03,-0.01,-0.01,31.13,18.584685,-0.001539374497724944,-150.67532290408806,9.962233685273599,0.033166247903554,-0.01415074053180174,-0.416038472234448
20543173,1872,1,191507.0,226475,0.17,0.13,9.99,-0.03,-0.01,-0.0,31.13,18.624685,-3.599007697911027,-74.9986250314849,9.99229202935943,0.03162277660168379,-0.3745192049089279,-0.2019133943729589
20583171,1878,1,191559.0,226712,0.17,0.13,9.98,-0.03,-0.01,-0.01,31.13,18.664683,0.2960949292503646,-16.89323903229045,9.982294325454445,0.033166247903554,0.015664120182770736,-0.03750584685820881
20624173,1883,1,191597.0,226994,0.16,0.13,9.98,-0.03,-0.01,-0.0,31.13,18.705685,5.518054364935306,32.4227192392794,9.982129031424108,0.03162277660168379,0.5387624031141224,0.102032263307361
20664173,1882,1,191703.0,227262,0.17,0.12,9.97,-0.03,-0.01,-0.0,31.13,18.745685,6.454425690818321,85.8300795767038,9.972171278111905,0.03162277660168379,0.6325613379370069,0.2531468799873743
20704173,1882,1,191782.0,227416,0.16,0.13499999999999998,9.98,-0.03,-0.01,-0.0,31.13,18.785685,2.1038450353317146,162.14368692992437,9.982195399810605,0.03162277660168379,0.1967515047377005,0.46907407522398337
20744173,1871,1,191796.0,227586,0.18,0.13,9.99,-0.03,-0.01,-0.01,31.13,18.825685,-2.8494845862357945,276.2219986970358,9.9924671628182,0.033166247903554,-0.2994373783333733,0.7918554342965117
20784173,1885,1,191894.0,227904,0.16,0.12,9.97,-0.03,-0.01,-0.0,31.13,18.865685,3.521946904838928,416.7863904934331,9.972005816283904,0.03162277660168379,0.3388067355561803,1.1895784082643384
20824173,1877,1,192021.0,228229,0.17,0.12,9.97,-0.03,-0.01,-0.0,31.13,18.905685,3.4248329416202505,532.5702574545093,9.972171278111905,0.03162277660168379,0.32907855822466003,1.5171855875559197
20864173,1874,1,192115.0,228644,0.17,0.12,9.95,-0.03,-0.01,-0.01,31.13,18.945685,-7.70838990376084,551.093910221943,9.95217564153688,0.033166247903554,-0.7861675147558106,1.569597739547317
20904173,1872,1,192140.0,228065,0.15500000000000003,0.12,9.97,-0.03,-0.01,-0.0,31.13,18.985685,-2.722029212638114,427.67244546511046,9.971926844898132,0.03162277660168379,-0.28666981705671707,1.2203801931458473
20942173,1890,1,191647.0,226445,0.17,0.11,10.0,-0.03,-0.01,-0.0,31.13,19.023685,9.174810111331317,187.28077997461975,10.002049789918065,0.03162277660168379,0.9050698544833242,0.5401987695713497
20982171,1888,1,191322.0,225869,0.19,0.12,9.96,-0.03,-0.01,-0.0,31.13,19.063683,11.185199489451568,-81.22801789296162,9.962534818006912,0.03162277660168379,1.106456181717441,-0.21953928541988313
21022180,1893,1,191215.0,225776,0.17,0.13,9.98,-0.03,-0.01,-0.0,31.13,19.103692,13.596418208294057,-279.3018355426187,9.982294325454445,0.03162277660168379,1.3479947051650096,-0.7799835545125178
21062174,1888,1,191225.0,225731,0.16,0.11,9.96,-0.03,-0.01,-0.01,31.13,19.143686,8.975899786685956,-357.880856411286,9.961892390504929,0.033166247903554,0.8851444508947269,-1.00232067326614
21102173,1877,1,191171.0,225768,0.18,0.11,9.99,-0.03,-0.01,-0.01,31.13,19.183685,-1.3725776989654597,-335.81485471474707,9.992226979007233,0.033166247903554,-0.15149148440299173,-0.9398855450934338
21142173,1881,1,191233.0,226022,0.17,0.11,9.99,-0.03,-0.01,-0.0,31.13,19.223685,0.5879687625295698,-270.3798701269325,9.992051841338695,0.03162277660168379,0.04490193845795571,-0.7547391055207372
21182173,1883,1,191340.0,226072,0.17,0.12,9.97,-0.03,-0.01,-0.01,31.13,19.263685,4.708829421647037,-210.7962339546853,9.972171278111905,0.033166247903554,0.45770007707485644,-0.5861488909195276
21222174,1882,1,191303.0,226091,0.17,0.13,9.98,-0.03,-0.01,-0.0,31.13,19.303686,1.0717292511119454,-171.2783411140933,9.982294325454445,0.03162277660168379,0.09336157971793811,-0.4743341299787346
21262173,1872,1,191319.0,226178,0.15500000000000003,0.11,9.99,-0.03,-0.01,-0.0,31.13,19.343685,-6.608326602700501,-137.05843110086647,9.99180789447035,0.03162277660168379,-0.6759710969192213,-0.3775098617167862
21302173,1872,1,191423.0,226365,0.18,0.12,9.97,-0.03,-0.01,-0.0,31.13,19.383685,-9.41862088791517,-88.8491156128848,9.972346764929508,0.03162277660168379,-0.9574861360981425,-0.24110296603152548
21342173,1874,1,191493.0,226542,0.16,0.12,9.97,-0.03,-0.01,-0.01,31.13,19.423685,-4.503106508845969,-20.296001697529494,9.972005816283904,0.033166247903554,-0.46508531164053113,-0.04713386765088476
21382174,1879,1,191619.0,226910,0.15500000000000003,0.12,9.97,-0.03,-0.01,-0.01,31.13,19.463686,-3.2428521512056188,64.35045026140877,9.971926844898132,0.033166247903554,-0.3388421075984929,0.19237087589538626
21422173,1878,1,191682.0,227001,0.17,0.11,9.96,-0.03,-0.01,-0.0,31.13,19.503685,-0.23940556400857457,162.50356004369004,9.962058020308856,0.03162277660168379,-0.03797846206679837,0.47009232602867695
21462173,1883,1,191845.0,227167,0.17,0.11,9.97,-0.03,-0.01,-0.01,31.13,19.543685,0.46164244411356065,275.57409001298635,9.972055956521704,0.033166247903554,0.032247477796909625,0.7900221949861395
21502860,1872,1,191824.0,227492,0.18,0.1,9.96,-0.03,-0.01,-0.0,31.01,19.584372,-6.900762404686364,394.1813605593645,9.96212828666646,0.03162277660168379,-0.7052652091716258,1.1256181149275168
21543171,1876,1,191965.0,227878,0.17,0.11,9.95,-0.03,-0.01,-0.01,31.01,19.624683,-5.474628896296423,482.2026123383967,9.952060088243035,0.033166247903554,-0.5624054266210952,1.3746717591864093
21583173,1877,1,192062.0,228217,0.16,0.12,9.96,-0.03,-0.01,-0.01,31.01,19.664685,-3.617457640074427,484.4635694785606,9.962007829749986,0.033166247903554,-0.37636738722147234,1.3810690735155056
21623173,1874,1,192093.0,227688,0.17,0.12,10.01,-0.03,-0.01,-0.0,31.01,19.704685,-5.755250650451228,363.05093738228925,10.012162603553739,0.03162277660168379,-0.5905160926573794,1.0375354623536188
21663173,1878,1,191657.0,226265,0.17,0.1,9.95,-0.03,-0.01,-0.0,31.01,19.744685,-4.083120649312858,134.51443508534095,9.95195458188993,0.03162277660168379,-0.42301415335540327,0.39089788798553493
21703171,1878,1,191331.0,225761,0.17,0.13,9.98,-0.03,-0.01,-0.0,31.01,19.784683,-0.7649892449314402,-128.68019433032515,9.982294325454445,0.03162277660168379,-0.09062764948650662,-0.35380387755962567
21743173,1886,1,191261.0,225765,0.17,0.12,9.96,-0.03,-0.01,-0.01,31.01,19.824685,3.564630177325464,-338.6047533743948,9.962173457634634,0.033166247903554,0.3430824383498519,-0.9477794845030048
21783173,1877,1,191228.0,225681,0.17,0.13,9.98,-0.03,-0.01,-0.01,31.01,19.864685,-1.4688306825261617,-441.43331900424107,9.982294325454445,0.033166247903554,-0.16113341499394024,-1.2387300048196053
21823190,1886,1,191209.0,225614,0.16,0.12,9.95,-0.03,-0.01,-0.0,31.01,19.904702,3.3808306856114547,-438.21943103114035,9.952009847262008,0.03162277660168379,0.32467072916225603,-1.2296363996303727
21863173,1895,1,191280.0,225940,0.17,0.12,9.99,-0.03,-0.01,-0.01,31.01,19.944685,17.512154237341132,-369.0713120436285,9.992166932152404,0.033166247903554,1.740244935836954,-1.0339837512140528
21903173,1890,1,191402.0,226143,0.17,0.11,9.96,-0.03,-0.01,-0.0,31.01,19.984685,6.252773850506036,-282.21024942692287,9.962058020308856,0.03162277660168379,0.6123613090558043,-0.788212829400786
21943173,1876,1,191446.0,226235,0.19,0.11,9.98,-0.03,-0.01,-0.0,31.01,20.024685,0.30629539336692574,-212.04489360059767,9.982414537575567,0.03162277660168379,0.016685929204880864,-0.5896819380981133
21983173,1891,1,191514.0,226335,0.18,0.1,9.98,-0.03,-0.01,-0.0,31.01,20.064685,6.253009522141978,-173.2675414956963,9.98212402247137,0.03162277660168379,0.6123849169427701,-0.4799625162398513
22023188,1875,1,191582.0,226547,0.16,0.12,9.98,-0.03,-0.01,-0.0,31.01,20.1047,-0.05163426076972878,-162.70393916828147,9.982003806851608,0.03162277660168379,-0.01916888540926945,-0.4500731020021513
22063173,1885,1,191609.0,226676,0.17,0.11,9.99,-0.03,-0.01,-0.0,31.01,20.144685,1.355833045527993,-160.34383472375768,9.992051841338695,0.03162277660168379,0.12182105146674982,-0.44339525317746237
22103173,1877,1,191715.0,226981,0.17,0.13499999999999998,9.96,-0.03,-0.01,-0.01,31.01,20.184685,0.2987395839071275,-132.10960540636225,9.96236543196444,0.033166247903554,0.0159290426370597,-0.3635072992775194
22143173,1872,1,191757.0,227202,0.19499999999999995,0.1,9.98,-0.03,-0.01,-0.0,31.01,20.224685,-8.7144352056977,-44.36231211775431,9.982405772157332,0.03162277660168379,-0.8869458866439671,-0.11522881282468826
22183171,1873,1,191912.0,227733,0.19,0.12,9.98,-0.03,-0.01,-0.0,31.01,20.264683,-6.08575308186376,108.45440248353326,9.982529739499903,0.03162277660168379,-0.6236234456550105,0.31716176224536635
22223173,1877,1,192040.0,228330,0.18,0.12,9.97,-0.03,-0.01,-0.01,31.01,20.304685,-1.2853174964379717,281.3973539936731,9.972346764929508,0.033166247903554,-0.14275038584170352,0.8064989558428518
22263173,1877,1,192274.0,228945,0.19,0.1,9.99,-0.03,-0.01,-0.0,31.01,20.344685,-2.9500919173564837,389.2486185051448,9.992307040919028,0.03162277660168379,-0.3095154960988813,1.1116610606938804
22303173,1878,1,192416.0,229284,0.18,0.13499999999999998,9.97,-0.03,-0.01,-0.01,31.01,20.384685,0.0800802733472832,356.6412220605936,9.972538543420125,0.033166247903554,-0.005974672110162376,1.0193993540017645
22343173,1887,1,192205.0,228020,0.19499999999999995,0.13,9.97,-0.03,-0.01,-0.01,31.01,20.424685,8.100636815091692,176.3484818239096,9.972754133136943,0.033166247903554,0.7974669108461421,0.5092661409216888
22383173,1882,1,191748.0,226974,0.17,0.1,9.97,-0.03,-0.01,-0.0,31.01,20.464685,3.1693606537463794,-74.54464233166972,9.971950661731134,0.03162277660168379,0.30348718457090484,-0.20062886315425613
22423171,1878,1,191562.0,227101,0.19499999999999995,0.12,9.96,-0.03,-0.01,-0.01,31.01,20.504683,0.2985880970986917,-280.483722596481,9.962631429496929,0.033166247903554,0.01591386777973737,-0.7833276705290197
22463173,1883,1,191771.0,227509,0.17,0.13,9.97,-0.03,-0.01,-0.01,31.01,20.544685,4.0960469601687794,-359.8421137836157,9.972296626153877,0.033166247903554,0.3963159439046072,-1.0078699955722412
22503860,1874,1,191787.0,227654,0.15500000000000003,0.13499999999999998,10.01,-0.03,-0.01,-0.0,30.93,20.585372,-4.103525055583554,-306.094462230399,10.012110167192528,0.03162277660168379,-0.42505811980437563,-0.8557925345144279
22542173,1877,1,191895.0,228039,0.18,0.11,9.96,-0.03,-0.01,-0.0,30.93,20.623685,-0.5079732900503233,-173.45153258905094,9.962233685273599,0.03162277660168379,-0.06488164239086945,-0.48048311383855613
22582173,1883,1,191997.0,228509,0.18,0.12,9.98,-0.03,-0.01,-0.01,30.93,20.663685,3.641190832163421,-31.49769514517386,9.982344414014175,0.033166247903554,0.35075173329154696,-0.07882874267959188
22622173,1873,1,192198.0,228760,0.17,0.12,9.97,-0.03,-0.01,-0.0,30.93,20.703685,-3.515725870884112,71.86885214374071,9.972171278111905,0.03162277660168379,-0.3661766313493823,0.2136439815369461
22662174,1883,1,192223.0,228839,0.19,0.1,9.97,-0.03,-0.01,-0.01,30.93,20.743686,3.68739736975813,121.50342528082194,9.972311667813035,0.033166247903554,0.3553803714059725,0.35408360345981144
22702173,1879,1,192237.0,228976,0.19,0.13,9.97,-0.03,-0.01,-0.0,30.93,20.783685,1.5752082550192306,128.10068725022398,9.97265761971201,0.03162277660168379,0.14379647981235896,0.37275036975092174
22742173,1872,1,192301.0,229139,0.17,0.12,9.98,-0.03,-0.01,-0.0,30.93,20.823685,-5.774181491326343,118.4584985796645,9.98216910295553,0.03162277660168379,-0.5924124479389903,0.34546806941437175
22782173,1877,1,192346.0,229330,0.17,0.11,9.97,-0.03,-0.01,-0.01,30.93,20.863685,-2.1305095261815823,128.43633071870596,9.972055956521704,0.033166247903554,-0.2274156355341604,0.3737000634590615
22822174,1867,1,192401.0,229505,0.19,0.095,9.99,-0.03,-0.01,-0.0,30.93,20.903686,-9.549565105780765,192.0619081867146,9.992258253267877,0.03162277660168379,-0.9706031846637059,0.5537268367235927
22862173,1872,1,192528.0,229766,0.19,0.11,9.98,-0.03,-0.01,-0.0,30.93,20.943685,-7.9332240712314395,320.1550257163437,9.982414537575567,0.03162277660168379,-0.808689782191376,0.9161626926157972
22902174,1878,1,192586.0,230156,0.19,0.11,9.96,-0.03,-0.01,-0.01,30.93,20.983686,1.3736082767381768,477.2330553563227,9.962419384868317,0.033166247903554,0.12360164609588739,1.3606105381548699
22942173,1874,1,192731.0,230561,0.17,0.13,9.98,-0.03,-0.01,-0.01,30.93,21.023685,-5.631503872002393,581.4362298974365,9.982294325454445,0.033166247903554,-0.5781200317300349,1.6554504755368102
22982173,1872,1,192868.0,230874,0.18,0.12,9.98,-0.03,-0.01,-0.01,30.93,21.063685,-5.703401322245614,545.0731384587218,9.982344414014175,0.033166247903554,-0.5853222004241005,1.5525621360018733
23022181,1876,1,192829.0,229580,0.18,0.1,9.97,-0.03,-0.01,-0.01,30.93,21.103693,-2.5718463331341703,337.78601623985594,9.972126152431086,0.033166247903554,-0.2716255779426891,0.9660490820163707
23062173,1873,1,192105.0,228115,0.18,0.1,9.97,-0.03,-0.01,-0.01,30.93,21.143685,-6.536932637342948,21.42030797362129,9.972126152431086,0.033166247903554,-0.6688193637144425,0.07090125158048623
23102173,1876,1,191775.0,227734,0.18,0.12,9.98,-0.03,-0.01,-0.0,30.93,21.183685,-0.975581297010531,-281.25548723096074,9.982344414014175,0.03162277660168379,-0.11172324438691261,-0.7855113567507271
23142174,1884,1,191880.0,227867,0.17,0.11,9.98,-0.03,-0.01,-0.01,30.93,21.223686,2.4313112794669385,-463.96377482843474,9.982053896869122,0.033166247903554,0.22955471436329308,-1.3024792928201436
23182173,1881,1,191849.0,227899,0.17,0.095,9.96,-0.03,-0.01,-0.01,30.93,21.263685,5.136310228296333,-497.04156822576965,9.961903683533585,0.033166247903554,0.5005220251766086,-1.3960719743958383
23222173,1897,1,191789.0,227952,0.17,0.13,9.99,-0.03,-0.01,-0.01,30.93,21.303685,14.616787578080478,-426.22846492332104,9.99229202935943,0.033166247903554,1.4502079589952765,-1.1957082999160642
23262173,1890,1,191951.0,228348,0.17,0.12,9.96,-0.03,-0.01,-0.0,30.93,21.343685,13.450089225695429,-323.4169307070403,9.962173457634634,0.03162277660168379,1.3333365216836601,-0.9048059695028067
23302173,1887,1,192061.0,228554,0.16,0.12,9.98,-0.03,-0.01,-0.01,30.93,21.383685,5.770153675687475,-236.74199026699978,9.982003806851608,0.033166247903554,0.5640158962150966,-0.6595616751282429
23342173,1879,1,192026.0,228505,0.18,0.13,9.98,-0.03,-0.01,-0.01,30.93,21.423685,0.19351641281809526,-174.7676620634298,9.982469634313945,0.033166247903554,0.00538854327103102,-0.4842070649899607
23382174,1878,1,192066.0,228536,0.19,0.11,9.99,-0.03,-0.01,-0.01,30.93,21.463686,-1.2685560042613082,-123.9684943866588,9.992412121204769,0.033166247903554,-0.14107134028706683,-0.3404722557307248
23422173,1881,1,192202.0,228756,0.19499999999999995,0.13,9.96,-0.03,-0.01,-0.01,30.93,21.503685,0.18303812986744566,-73.02453409293638,9.962756897566056,0.033166247903554,0.004338904359227655,-0.1963277598539428
23462177,1877,1,192287.0,229050,0.16,0.12,9.98,-0.03,-0.01,-0.01,30.93,21.543689,-1.3773487353408518,-19.25912406698827,9.982003806851608,0.033166247903554,-0.1519694124617039,-0.044200051699424585
23502173,1877,1,192276.0,229203,0.19499999999999995,0.12,9.99,-0.03,-0.01,-0.01,30.93,21.583685,-4.162323307160198,43.04586457636799,9.992623529384062,0.033166247903554,-0.4309481051284524,0.13209015280813294
23542860,1872,1,192390.0,229377,0.19499999999999995,0.1,9.96,-0.03,-0.01,-0.01,30.77,21.624372,-7.069598473301351,130.72888888944047,9.962410601857364,0.033166247903554,-0.7221779904134424,0.38018679201105127
23583173,1880,1,192484.0,229610,0.18,0.12,9.99,-0.03,-0.01,-0.0,30.77,21.664685,-0.3261403206307772,257.8818849865192,9.992342067803724,0.03162277660168379,-0.04666692524203783,0.7399626008794946
23623173,1887,1,192592.0,229992,0.17,0.12,9.99,-0.03,-0.01,-0.01,30.77,21.704685,6.951286650418972,407.33386951115125,9.992166932152404,0.033166247903554,0.6823332900220067,1.1628327672913963
23663215,1882,1,192634.0,230307,0.17,0.12,9.99,-0.03,-0.01,-0.0,30.77,21.744727,2.0816346165031945,517.1176095882956,9.992166932152404,0.03162277660168379,0.19452662495924217,1.4734627571400192
23703173,1881,1,192786.0,230664,0.18,0.13,9.98,-0.03,-0.01,-0.01,30.77,21.784685,1.0259683966117377,506.7469095361471,9.982469634313945,0.033166247903554,0.08877758692570183,1.4441191544383958
23743173,1877,1,192750.0,229860,0.18,0.12,9.98,-0.03,-0.01,-0.0,30.77,21.824685,-3.547570665602877,334.3154073846727,9.982344414014175,0.03162277660168379,-0.36936661350892436,0.9562290923467116
23783173,1872,1,192166.0,228090,0.19,0.13,9.97,-0.03,-0.01,-0.01,30.77,21.864685,-7.105591266810356,39.796954536423485,9.97265761971201,0.033166247903554,-0.7257834892141035,0.12289745367055677
23823173,1884,1,191784.0,227616,0.17,0.11,9.97,-0.03,-0.01,-0.01,30.77,21.904685,2.6439578179601475,-268.27208369848296,9.972055956521704,0.033166247903554,0.2508561129143722,-0.7487751833915379
23863198,1876,1,191695.0,227564,0.18,0.1,9.98,-0.03,-0.01,-0.0,30.77,21.94471,-2.439274373807364,-478.3485764566277,9.98212402247137,0.03162277660168379,-0.2583454739620266,-1.3431806824849535
23903173,1875,1,191712.0,227487,0.18,0.11,9.97,-0.03,-0.01,-0.0,30.77,21.984685,-6.657137403214907,-541.469955469824,9.972231445368685,0.03162277660168379,-0.6808606113346548,-1.521780840471211
23943174,1888,1,191750.0,227553,0.19,0.11,9.96,-0.03,-0.01,-0.0,30.77,22.024686,9.729300879292712,-487.09916842381676,9.962419384868317,0.03162277660168379,0.9606147456672304,-1.3679402351475547
23983173,1890,1,191721.0,227941,0.17,0.11,9.97,-0.03,-0.01,-0.01,30.77,22.064685,8.606598455967301,-386.62797647539867,9.972055956521704,0.033166247903554,0.8481505036298239,-1.0836598370386405
24023173,1879,1,191870.0,228205,0.17,0.11,9.96,-0.03,-0.01,-0.01,30.77,22.104685,0.2576409185650237,-302.0427601917307,9.962058020308856,0.033166247903554,0.01181207437332502,-0.8443283581049087
24063173,1888,1,191874.0,228242,0.18,0.11,9.99,-0.03,-0.01,-0.01,30.77,22.144685,7.689684045847183,-256.9154607998059,9.992226979007233,0.033166247903554,0.7563006224815352,-0.716641939859738
24103174,1889,1,191879.0,228386,0.18,0.12,9.98,-0.03,-0.01,-0.01,30.77,22.184686,8.961491688108389,-239.40540887767392,9.982344414014175,0.033166247903554,0.8837011513595512,-0.6670977428138125
24143173,1885,1,191906.0,228513,0.18,0.12,9.99,-0.03,-0.01,-0.0,30.77,22.224685,6.272002702129725,-222.74910096908073,9.992342067803724,0.03162277660168379,0.614287516907661,-0.619969190325747
24183173,1885,1,191881.0,228725,0.16,0.11,9.98,-0.03,-0.01,-0.0,30.77,22.264685,3.8360318356651875,-183.092634243344,9.981888598857433,0.03162277660168379,0.3702695015989576,-0.5077623384933015
24223173,1880,1,192046.0,228988,0.17,0.11,9.98,-0.03,-0.01,-0.01,30.77,22.304685,1.79179398818963,-104.88344090534298,9.982053896869122,0.033166247903554,0.16549247851251037,-0.286471636285662
24263173,1881,1,192152.0,229223,0.18,0.12,9.97,-0.03,-0.01,-0.01,30.77,22.344685,0.4213111193724244,20.559601913035603,9.972346764929508,0.033166247903554,0.028207376187489915,0.06846590810726781
24303173,1873,1,192223.0,229494,0.17,0.13,9.99,-0.03,-0.01,-0.0,30.77,22.384685,-6.610610992614874,190.52230844649463,9.99229202935943,0.03162277660168379,-0.6761999306465744,0.5493705827706903
24343173,1877,1,192381.0,229793,0.19,0.1,9.99,-0.03,-0.01,-0.01,30.77,22.424685,-1.6915326089556613,377.0818867845024,9.992307040919028,0.033166247903554,-0.18344208988036154,1.0772356371455631
24383173,1882,1,192482.0,230250,0.19499999999999995,0.13,9.98,-0.03,-0.01,-0.0,30.77,22.464685,0.8277927328463858,519.4392893012787,9.98275137424548,0.03162277660168379,0.06892577637236322,1.4800318842727704
24423171,1867,1,192525.0,230592,0.18,0.13,9.95,-0.03,-0.01,-0.01,30.77,22.504683,-11.208319871749506,543.7992006616143,9.952477078597067,0.033166247903554,-1.136765289247085,1.5489575650088903
24463173,1867,1,192628.0,230220,0.19,0.095,9.97,-0.03,-0.01,-0.0,30.77,22.544685,-13.146194620350814,410.5037048965749,9.972262782337818,0.03162277660168379,-1.3308876232127846,1.1718017269288075
24503171,1872,1,192069.0,228290,0.18,0.12,9.95,-0.03,-0.01,-0.0,30.77,22.584683,-8.894383992449333,154.667543999804,9.952351480931528,0.03162277660168379,-0.9049718599447367,0.4479205400933869
24543860,1872,1,191669.0,227485,0.18,0.12,9.97,-0.03,-0.01,-0.0,30.73,22.625372,-4.5329996118528095,-120.52948322642197,9.972346764929508,0.03162277660168379,-0.4680797873822442,-0.33074167084590483
24582173,1883,1,191634.0,227441,0.17,0.12,9.96,-0.03,-0.01,-0.01,30.73,22.663685,-1.7122028834570127,-302.19638798053205,9.962173457634634,0.033166247903554,-0.18551268909365443,-0.8447630435915054
24622173,1871,1,191563.0,227622,0.16,0.12,9.95,-0.03,-0.01,-0.01,30.73,22.703685,-3.026800276843168,-334.55683521837454,9.952009847262008,0.033166247903554,-0.31719958702838164,-0.9363260144824984
24662173,1880,1,191624.0,227714,0.16,0.11,9.96,-0.03,-0.01,-0.01,30.73,22.743685,-5.142644988262775,-242.42701897719203,9.961892390504929,0.033166247903554,-0.5291496699665124,-0.6756473031938858
24702173,1873,1,191712.0,228051,0.18,0.11,9.98,-0.03,-0.01,-0.0,30.73,22.783685,-3.7704130506245437,-97.52741208081156,9.982229209951052,0.03162277660168379,-0.3916893585253975,-0.26565796062217384
24742173,1871,1,191921.0,228427,0.18,0.13,9.97,-0.03,-0.01,-0.0,30.73,22.823685,-8.594526229687773,40.3182148974276,9.972472110765716,0.03162277660168379,-0.8749342691215835,0.1243723451301975
24782173,1877,1,191903.0,228490,0.19,0.11,9.96,-0.03,-0.01,-0.01,30.73,22.863685,-7.697275059072306,159.4836231867751,9.962419384868317,0.033166247903554,-0.7850541096742067,0.4615475000412604
24822173,1883,1,191961.0,228547,0.18,0.12,9.95,-0.03,-0.01,-0.01,30.73,22.903685,11.662229161855993,284.6671643588905,9.952351480931528,0.033166247903554,1.1542415782942204,0.8157507918601041
24862173,1875,1,192106.0,228745,0.19,0.12,9.98,-0.03,-0.01,-0.0,30.73,22.943685,-16.466122848709073,431.5670931529283,9.982529739499903,0.03162277660168379,-1.6634541199653088,1.2313999887082931
24902173,1840,1,192225.0,229236,0.19,0.12,9.95,-0.03,-0.01,-0.0,30.73,22.983685,-28.434405595789713,570.8822048398733,9.952537364913532,0.03162277660168379,-2.86235047903165,1.6255881599134834
24942173,1899,1,192279.0,229603,0.19499999999999995,0.12,9.96,-0.03,-0.01,-0.01,30.73,23.023685,9.377456055403444,636.7905257336437,9.962631429496929,0.033166247903554,0.9253694655187417,1.8120738911864873
24982174,1840,1,192229.0,229221,0.17,0.1,10.01,-0.03,-0.01,-0.01,30.73,23.063686,-34.848284198862906,576.4086211263585,10.011942868394724,0.033166247903554,-3.504846638858225,1.6412249986089393
25022168,1840,1,192008.0,228257,0.17,0.1,9.99,-0.03,-0.01,-0.0,30.73,23.10368,-40.72136618930215,398.98747725569825,9.991946757264072,0.03162277660168379,-4.093169689343746,1.139216886289691
25062161,1928,1,191695.0,227404,0.15500000000000003,0.13,9.99,-0.03,-0.01,-0.0,30.73,23.143673,44.5813090850628,179.63503962067813,9.992048088355059,0.03162277660168379,4.451837891631103,0.5185653633232005
25102173,1928,1,191401.0,226849,0.15500000000000003,0.12,10.0,-0.03,-0.01,-0.01,30.73,23.183685,52.802434381103104,8.391263129264296,10.001921065475372,0.033166247903554,5.275371007712866,0.034035937419246
25142174,1902,1,191337.0,227076,0.19,0.13499999999999998,9.96,-0.03,-0.01,-0.01,30.73,23.223686,17.731573803480007,-76.34349955187056,9.962726785373572,0.033166247903554,1.7622248075120264,-0.2057186788196494
25182173,1895,1,191399.0,227125,0.17,0.13,9.98,-0.03,-0.01,-0.01,30.73,23.263685,16.207178030463687,-113.37027281730101,9.982294325454445,0.033166247903554,1.6095218190660705,-0.31048488732635354
25222173,1920,1,191249.0,226701,0.17,0.1,9.99,-0.03,-0.01,-0.01,30.73,23.303685,42.29918288638391,-179.50601540303907,9.991946757264072,0.033166247903554,4.223230927010936,-0.49761410184940574
25262164,1920,1,191138.0,226115,0.15500000000000003,0.1,9.99,-0.03,-0.01,-0.01,30.73,23.343676,34.27093426069199,-318.88407685080585,9.991702807830105,0.033166247903554,3.419018806490204,-0.8919803876237599
25302175,1872,1,190810.0,225163,0.15500000000000003,0.13499999999999998,10.01,-0.03,-0.01,-0.0,30.73,23.383687,-0.640326241653668,-502.6817625869896,10.012110167192528,0.03162277660168379,-0.07813980775528975,-1.4120307449381688
25342173,1904,1,190617.0,224289,0.17,0.1,9.96,-0.03,-0.01,-0.0,30.73,23.423685,16.61252303314713,-653.9386335686586,9.96195261984316,0.03162277660168379,1.650126361768862,-1.8400077865706936
25382171,1889,1,190477.0,224330,0.15500000000000003,0.12,9.98,-0.03,-0.01,-0.01,30.73,23.463683,14.445761799984059,-713.0916280347928,9.981924914564326,0.033166247903554,1.4330758284299037,-2.00737951263522
25422173,1871,1,190603.0,224621,0.15500000000000003,0.13,10.0,-0.03,-0.01,-0.0,30.73,23.503685,-12.21948668089257,-682.9430061962671,10.002046040685876,0.03162277660168379,-1.2380566968373725,-1.9220748392011533
25462171,1863,1,190792.0,225011,0.17,0.13,9.930000000000001,-0.03,-0.01,-0.0,30.73,23.543683,-16.61091461129929,-612.0430164999517,9.93230587527388,0.03162277660168379,-1.6779583158186824,-1.7214653221255096
25502173,1851,1,190797.0,224640,0.16,0.11,10.0,-0.03,-0.01,-0.01,30.73,23.583685,-28.61519601376488,-535.6926914653035,10.001884822372231,0.033166247903554,-2.8804607608861943,-1.5054342352470134
25542161,1866,1,190682.0,224675,0.17,0.11,9.94,-0.03,-0.01,-0.0,30.73,23.623673,-15.810775155835175,-435.96431711133346,9.942062160336757,0.03162277660168379,-1.597806108507634,-1.223255618528136
25582859,1872,1,190871.0,224928,0.17,0.12,9.99,-0.03,-0.01,-0.0,30.87,23.664371,-8.232568378392184,-262.3729190544591,9.992166932152404,0.03162277660168379,-0.8386759387308172,-0.7320836637530119
25621173,1856,1,191112.0,226554,0.19,0.12,9.96,-0.03,-0.01,-0.0,30.87,23.702685,-24.870555412795678,7.702763095571809,9.962534818006912,0.03162277660168379,-2.505349637813082,0.03208784603224835
25661173,1878,1,191685.0,227800,0.19499999999999995,0.11,9.94,-0.03,-0.01,-0.01,30.87,23.742685,-4.905728834819911,329.22660458932205,9.942521058564573,0.033166247903554,-0.5054171162017764,0.9418304686566219
25701173,1901,1,191898.0,227847,0.16,0.11,10.0,-0.03,-0.01,-0.0,30.87,23.782685,20.911711845909874,607.0201298771698,10.001884822372231,0.03162277660168379,2.080788130335222,1.727839397479243
25741173,1904,1,191859.0,227595,0.18,0.1,9.97,-0.03,-0.01,-0.0,30.87,23.822685,19.024409364294506,750.6574440915759,9.972126152431086,0.03162277660168379,1.8917317618083787,2.1342571185821275
25781171,1894,1,191727.0,227540,0.19,0.12,9.97,-0.03,-0.01,-0.0,30.87,23.862683,13.185089803747577,719.5654400604293,9.972532276207483,0.03162277660168379,1.3067907883615206,2.0462831718958356
25821173,1901,1,191846.0,227322,0.19,0.13,9.98,-0.03,-0.01,-0.0,30.87,23.902685,14.358367052434476,533.3444516710188,9.98265495747499,0.03162277660168379,1.4243212521174184,1.5193761482113155
25861171,1891,1,191526.0,225850,0.19499999999999995,0.13499999999999998,9.97,-0.03,-0.01,-0.0,30.87,23.942683,8.985168877854637,255.83660407927835,9.9728205639127,0.03162277660168379,0.8860729616835197,0.734175536356029
