timestamp_us,ecg,leads,ir,red,accX,accY,accZ,gyroX,gyroY,gyroZ,temp,time_sec,ecg_filtered,ppg_filtered,accel_magnitude,gyro_magnitude,ecg_norm,ppg_norm
1949960,1823,1,196444.0,218238,0.7649999999999999,-0.32,9.930000000000001,-0.03,-0.01,-0.0,31.61,0.030474,-6.280837647135861,14.062057667685098,9.964563462590824,0.03162277660168379,-0.1225776147173389,0.025436004802842156
1990198,1856,1,196799.0,218370,0.7649999999999999,-0.34,9.98,-0.03,-0.01,-0.0,31.61,0.070712,23.456417042272925,101.13332960962396,10.015049924987894,0.03162277660168379,0.40895608727678956,0.13676932371557682
2030187,1940,1,196587.0,216298,0.7649999999999999,-0.33,9.97,-0.03,-0.01,-0.0,31.61,0.110701,93.984327846081,-106.74386299149053,10.004750121817137,0.03162277660168379,1.6695957096966594,-0.1290319820696031
2070211,1940,1,195435.0,212048,0.77,-0.33,9.97,-0.03,-0.01,-0.0,31.61,0.150725,98.77564181935796,-661.1737800677694,10.00513368226532,0.03162277660168379,1.7552372687521813,-0.8379514844029912
2110187,1940,1,194454.375,209609,0.78,-0.33,9.95,-0.03,-0.01,-0.0,31.61,0.190701,83.37441706860866,-1330.476520629918,9.985980172221453,0.03162277660168379,1.479950592409291,-1.69375264364024
2150190,1940,1,194454.375,208841,0.78,-0.34,9.97,-0.03,-0.01,0.0,31.61,0.230704,87.24769650472396,-1782.0159355138678,10.006243051215577,0.03162277660168379,1.5491828930718452,-2.271111634243553
2190188,1940,1,194454.375,208802,0.7649999999999999,-0.34,9.96,-0.03,-0.01,-0.0,31.61,0.270702,78.0972794891167,-1820.6927679318603,9.995120059308944,0.03162277660168379,1.3856252586534916,-2.320565604790786
2230191,1940,1,194454.375,210327,0.7649999999999999,-0.32,9.97,-0.03,-0.01,-0.0,31.61,0.310705,77.33238250058265,-1499.6535567500362,10.004425270848897,0.03162277660168379,1.3719532323616876,-1.9100701556622532
2270188,1940,1,194951.0,212914,0.79,-0.34,9.95,-0.03,-0.01,-0.0,31.61,0.350702,74.83796749728452,-1050.0952987603719,9.98710168166921,0.03162277660168379,1.3273672187951775,-1.3352443630633832
2310191,1940,1,195657.0,213008,0.7649999999999999,-0.33,9.96,-0.03,-0.01,-0.0,31.61,0.390705,72.29939411733321,-716.3495746718107,9.994784890131454,0.03162277660168379,1.281991903537517,-0.9085017841736378
2350188,1940,1,194927.0,212015,0.77,-0.35,10.01,-0.03,-0.01,-0.0,31.61,0.430702,73.35225579644765,-625.7709280804457,10.04567070931553,0.03162277660168379,1.3008111076581572,-0.7926837752858745
2390191,1940,1,194863.0,211989,0.79,-0.35,9.96,-0.03,-0.01,-0.0,31.61,0.470705,71.66536937514006,-763.8121371592863,9.997409664508103,0.03162277660168379,1.2706591318377196,-0.9691895918509773
2430188,1940,1,194904.0,211228,0.78,-0.35,9.96,-0.03,-0.01,-0.0,31.61,0.510702,75.36873732043888,-1026.6340462919236,9.996624430276453,0.03162277660168379,1.3368543773091235,-1.305245730392625
2470191,1940,1,194581.0,210347,0.7649999999999999,-0.33,9.95,-0.03,-0.01,-0.0,31.61,0.550705,74.69266425678465,-1274.8071288543385,9.98481972796705,0.03162277660168379,1.3247700197550742,-1.6225712079037615
2510188,1940,1,194454.375,209500,0.7649999999999999,-0.32,9.99,-0.03,-0.01,-0.0,31.61,0.590702,80.50802358346712,-1351.1581582311198,10.02435658783146,0.03162277660168379,1.4287157102238897,-1.7201971333477937
2550191,1940,1,194454.375,209928,0.79,-0.34,9.98,-0.03,-0.01,-0.0,31.61,0.630705,83.08140971085103,-1095.1023595247034,10.016990566033293,0.03162277660168379,1.4747132802496081,-1.392792453698162
2590187,1940,1,195175.0,212544,0.79,-0.35,9.97,-0.03,-0.01,0.0,31.61,0.670701,86.19710043878499,-397.8843994890126,10.007372282472558,0.03162277660168379,1.5304041852838697,-0.5012976154454134
2630191,1940,1,196278.0,216317,0.79,-0.33,9.98,-0.03,-0.01,0.0,31.61,0.710705,98.21907567828673,710.8387778386812,10.016656128668888,0.03162277660168379,1.7452890181669132,0.9163666535419032
2670188,1940,1,197587.0,220313,0.78,-0.31,9.95,-0.03,-0.01,0.0,31.61,0.750702,92.343831142971,2008.004285381784,9.985339253125053,0.03162277660168379,1.640272919317365,2.5749819225389694
2710171,1940,1,198586.0,222449,0.77,-0.35,9.99,-0.03,-0.01,-0.0,31.61,0.790685,116.60141151849419,3114.847698503288,10.025741867812078,0.03162277660168379,2.0738610777768676,3.9902426388598213
2750188,1940,1,198872.0,222775,0.79,-0.34,9.98,-0.03,-0.01,-0.0,31.61,0.830702,103.54325565245117,3636.838110401687,10.016990566033293,0.03162277660168379,1.8404552035229054,4.657683503121303
2790190,1789,1,198797.0,221983,0.77,-0.32,10.0,-0.03,-0.01,-0.0,31.61,0.870704,-19.115220503747874,3351.65812947315,10.03470477891602,0.03162277660168379,-0.3519836948628155,4.293039309277253
2830187,1744,1,198191.0,219061,0.77,-0.34,9.96,-0.03,-0.01,-0.0,31.61,0.910701,-73.02970528401958,2346.1092267427093,9.995503989294388,0.03162277660168379,-1.3156693472768066,3.0072983964226645
2870190,1735,1,196327.0,213792,0.79,-0.36,9.97,-0.03,-0.01,0.0,31.61,0.950704,-62.14496133779087,1003.2086813136899,10.00772701466222,0.03162277660168379,-1.1211117694026884,1.2902042118788715
2910187,1667,1,194454.375,208814,0.8,-0.35,10.0,-0.03,-0.01,-0.0,31.61,0.990701,-126.48142818196379,-185.3092942851333,10.038052599981732,0.03162277660168379,-2.2710834380075022,-0.22948934329391532
2950190,1641,1,194454.375,206876,0.7649999999999999,-0.34,10.0,-0.03,-0.01,-0.0,31.61,1.030704,-144.53514492768252,-878.2638818159138,10.034980069736063,0.03162277660168379,-2.5937816492859977,-1.1155328380650908
2990873,1719,1,194454.375,206699,0.7649999999999999,-0.34,10.0,-0.03,-0.01,-0.0,31.15,1.071387,-54.019510900297924,-1038.756620212168,10.034980069736063,0.03162277660168379,-0.9758747326782233,-1.3207462090029034
3029213,1751,1,194454.375,207306,0.78,-0.33,9.98,-0.03,-0.01,-0.0,31.15,1.109727,-17.808075610595164,-880.3881564831802,10.01587240334061,0.03162277660168379,-0.32861934696463385,-1.1182490330133708
3069187,1709,1,194454.375,207951,0.81,-0.36,9.97,-0.03,-0.01,-0.0,31.15,1.149701,-50.69161603556153,-673.0518989656961,10.009325651611102,0.03162277660168379,-0.9163908194597449,-0.8531393916179917
3109191,1719,1,194454.375,209562,0.79,-0.35,9.96,-0.03,-0.01,0.0,31.15,1.189705,-28.06399556590789,-572.2827687843222,9.997409664508103,0.03162277660168379,-0.5119371131182253,-0.7242913633668042
3149187,1753,1,194454.375,211140,0.7649999999999999,-0.34,9.99,-0.03,-0.01,0.0,31.15,1.229701,0.9784975935123622,-580.5593858751452,10.02501496258235,0.03162277660168379,0.007178187382727157,-0.73487422530898
3189191,1670,1,194454.375,209631,0.7649999999999999,-0.34,9.96,-0.03,-0.01,-0.0,31.15,1.269705,-55.914916354655695,-621.6228175921864,9.995120059308944,0.03162277660168379,-1.009753847897742,-0.7873798111014235
3229187,1618,1,194454.375,207010,0.79,-0.33,9.97,-0.03,-0.01,-0.0,31.15,1.309701,-125.481303417209,-633.9292264267808,10.006692760347947,0.03162277660168379,-2.2532068712491236,-0.8031153494586215
3269191,1572,1,194454.375,204958,0.78,-0.35,9.96,-0.03,-0.01,-0.0,31.15,1.349705,-141.8999767540854,-609.0873091099952,9.996624430276453,0.03162277660168379,-2.546679766166032,-0.7713513354348258
3309203,1572,1,194454.375,206112,0.78,-0.34,9.98,-0.03,-0.01,-0.0,31.15,1.389717,-155.0708759900358,-569.5158595902188,10.016206866873308,0.03162277660168379,-2.782100853371158,-0.7207534664596004
3349191,1572,1,194454.375,207163,0.77,-0.34,9.98,-0.03,-0.01,-0.0,31.15,1.429705,-144.30662221810147,-529.6084200884153,10.015433090985132,0.03162277660168379,-2.589696957437943,-0.6697259852944272
3389188,1572,1,194454.375,204678,0.78,-0.35,10.0,-0.03,-0.01,0.0,31.15,1.469702,-130.43158825800376,-484.2123859694619,10.03647846607564,0.03162277660168379,-2.341689929111563,-0.6116805355011933
3429191,1572,1,194454.375,201812,0.78,-0.34,9.99,-0.03,-0.01,-0.0,31.15,1.509705,-155.6689916956166,-430.5381345530444,10.026170754580235,0.03162277660168379,-2.79279177486101,-0.5430501776682325
3469187,1607,1,194454.375,199366,0.78,-0.33,9.98,-0.03,-0.01,-0.0,31.15,1.549701,-75.14619732938823,-391.9835224707381,10.01587240334061,0.03162277660168379,-1.3535002386575297,-0.49375248364375024
3509226,1744,1,194454.375,196464,0.78,-0.36,10.0,-0.03,-0.01,-0.0,31.15,1.58974,14.209752111455957,-407.0284521077823,10.03683216956426,0.03162277660168379,0.24367808521808174,-0.512989620209501
3549187,1712,1,194454.375,195944,0.82,-0.33,9.95,-0.03,-0.01,-0.0,31.15,1.629701,26.3359622507744,-479.77397240516154,9.98918415087038,0.03162277660168379,0.46042604779333224,-0.6060053764986882
3589191,1775,1,194454.375,198936,0.81,-0.34,9.96,-0.03,-0.01,-0.0,31.15,1.669705,67.27789212629834,-535.3557323835756,9.998664910876853,0.03162277660168379,1.1922358863549263,-0.6770747622030135
3629187,1765,1,194454.375,204372,0.78,-0.34,9.95,-0.03,-0.01,0.0,31.15,1.709701,48.765024313917316,-439.1455904993231,9.98631563691034,0.03162277660168379,0.8613306543279928,-0.5540560653338378
3669171,1724,1,194454.375,209830,0.77,-0.35,9.98,-0.03,-0.01,-0.0,31.15,1.749685,51.67478777118515,-94.29630563745778,10.015777553440373,0.03162277660168379,0.913340745996598,-0.11311596474640163
3709205,1783,1,194882.0,214246,0.8,-0.34,9.97,-0.03,-0.01,0.0,31.15,1.789719,34.07687428443378,448.4530293393921,10.007821940862058,0.03162277660168379,0.5987897156246909,0.5808682099759546
3749171,1627,1,196065.0,216791,0.77,-0.34,9.98,-0.03,-0.01,0.0,31.15,1.829685,-27.405549046776542,974.6110770642412,10.015433090985132,0.03162277660168379,-0.500167818355327,1.2536380044141737
3789168,1837,1,196216.0,216480,0.78,-0.33,9.96,-0.03,-0.01,-0.0,31.15,1.869682,81.91129340629261,1226.4541990122286,9.995944177515199,0.03162277660168379,1.4537982274775327,1.575656162487146
3829191,1807,1,195654.0,215279,0.7649999999999999,-0.34,9.98,-0.03,-0.01,0.0,31.15,1.909705,137.61730807041607,1078.4107401154404,10.015049924987894,0.03162277660168379,2.4495062881919103,1.386361010886614
3869191,1833,1,195346.0,214218,0.79,-0.34,9.99,-0.03,-0.01,-0.0,31.15,1.949705,97.50225376872709,624.3575556760683,10.02695367497028,0.03162277660168379,1.7324763020221898,0.8057877993198864
3909191,1808,1,194488.0,212982,0.7649999999999999,-0.34,9.98,-0.03,-0.01,-0.0,31.15,1.989705,108.22924459243256,107.41978103371018,10.015049924987894,0.03162277660168379,1.9242141474734027,0.14480746862396762
3950187,1794,1,194454.375,212937,0.77,-0.32,9.98,-0.03,-0.01,0.0,31.15,2.030701,78.48796903031192,-242.11669209606308,10.014774086318672,0.03162277660168379,1.3926085750467108,-0.30212588570372634
3990191,1795,1,194454.375,212947,0.77,-0.35,9.96,-0.03,-0.01,-0.0,31.15,2.070705,75.26042153455838,-330.8501494571943,9.995849138517448,0.03162277660168379,1.3349183044854955,-0.41558455107390607
4028881,1800,1,194454.375,212983,0.78,-0.33,9.99,-0.03,-0.01,-0.0,31.21,2.109395,88.21446450858927,-212.12447078470046,10.02583662344445,0.03162277660168379,1.566463229855826,-0.2637764569462613
4069191,1813,1,194524.0,213485,0.79,-0.32,9.96,-0.03,-0.01,0.0,31.21,2.149705,89.1092309040727,-8.053386831002577,9.996404353566337,0.03162277660168379,1.5824565856507253,-0.0028418161173704407
4109191,1787,1,194716.0,214069,0.77,-0.33,10.01,-0.03,-0.01,-0.0,31.21,2.189705,69.01698073537344,176.17204249397935,10.044993777997078,0.03162277660168379,1.2233209416544908,0.23271726114694818
4149191,1731,1,194851.0,213663,0.77,-0.35,9.99,-0.03,-0.01,-0.0,31.21,2.229705,6.653034292120303,289.8698406882449,10.025741867812078,0.03162277660168379,0.10860676678642278,0.3780964768597817
4189188,1730,1,194808.0,213335,0.79,-0.36,9.97,-0.03,-0.01,-0.0,31.21,2.269702,9.019723997429027,326.70039906909,10.00772701466222,0.03162277660168379,0.15090977537524786,0.4251897168055931
4229191,1730,1,194840.0,213381,0.8,-0.31,9.98,-0.03,-0.01,-0.0,31.21,2.309705,0.5799834550439353,299.52359264918266,10.016810869732941,0.03162277660168379,5.501150353052303e-05,0.3904402065630553
4269187,1680,1,194824.0,212872,0.78,-0.34,9.98,-0.03,-0.01,-0.0,31.21,2.349701,-38.70280544274691,226.7237454322417,10.016206866873308,0.03162277660168379,-0.7020987826371665,0.2973549853846317
4309191,1709,1,194613.0,211170,0.78,-0.34,9.97,-0.03,-0.01,0.0,31.21,2.389705,-26.444521830495972,131.72808665251262,10.006243051215577,0.03162277660168379,-0.4829900943413931,0.1758891822744928
4349199,1681,1,194454.375,209186,0.79,-0.34,9.97,-0.03,-0.01,-0.0,31.21,2.429713,-36.07896929335877,42.11820380127319,10.00702753069062,0.03162277660168379,-0.6551994519330777,0.06130987910475805
4389191,1693,1,194454.375,206608,0.79,-0.31,9.97,-0.03,-0.01,-0.0,31.21,2.469705,-44.735856036977964,-19.225680928474144,10.006053167957884,0.03162277660168379,-0.8099355601125141,-0.017127223393493526
4429188,1680,1,194454.375,202100,0.79,-0.33,9.99,-0.03,-0.01,-0.0,31.21,2.509702,-37.47985092725725,-43.79092437833953,10.02661956992485,0.03162277660168379,-0.6802392818938053,-0.04853746953066428
4469191,1699,1,194454.375,200144,0.78,-0.35,9.97,-0.03,-0.01,-0.0,31.21,2.549705,-39.57278119614413,-38.009651317334665,10.00658783002478,0.03162277660168379,-0.717649022149123,-0.041145268830395924
4509188,1691,1,194454.375,201554,0.79,-0.31,9.97,-0.03,-0.01,-0.0,31.21,2.589702,-25.361735837168073,-15.94822935543924,10.006053167957884,0.03162277660168379,-0.46363601295384826,-0.012936523601660282
4549191,1715,1,194454.375,205236,0.77,-0.34,9.98,-0.03,-0.01,-0.0,31.21,2.629705,-25.882086349341524,6.722303798250598,10.015433090985132,0.03162277660168379,-0.47293693319544017,0.016051059113388687
4589188,1695,1,194454.375,209483,0.8,-0.33,9.97,-0.03,-0.01,-0.0,31.21,2.669702,-19.16469297888288,13.96080717518824,10.007487197093985,0.03162277660168379,-0.3528679825393335,0.025306541282672824
4629191,1713,1,194454.375,211822,0.79,-0.34,9.98,-0.03,-0.01,-0.0,31.21,2.709705,-28.46400982847014,-7.5780279588188675,10.016990566033293,0.03162277660168379,-0.5190871027205234,-0.0022340004769819868
4669188,1654,1,194474.0,211104,0.77,-0.34,9.96,-0.03,-0.01,-0.0,31.21,2.749702,-62.56290954988273,-57.64573163221739,9.995503989294388,0.03162277660168379,-1.1285823164567224,-0.06625286107219396
4709191,1714,1,194454.375,209474,0.77,-0.32,9.99,-0.03,-0.01,-0.0,31.21,2.789705,-21.746184811030936,-110.99816899807627,10.02473939810906,0.03162277660168379,-0.3990104366609632,-0.13447173271088705
4749188,1745,1,194454.375,208856,0.81,-0.33,10.0,-0.03,-0.01,0.0,31.21,2.829702,19.0725136317507,-123.5029715340772,10.03817712535498,0.03162277660168379,0.3305967217833271,-0.1504609463473861
4789191,1717,1,194454.375,209862,0.8,-0.34,9.98,-0.03,-0.01,0.0,31.21,2.869705,-8.988889281360533,-64.11310805402566,10.017784186136174,0.03162277660168379,-0.1709822413503197,-0.0745223449747378
4829188,1724,1,194454.375,211387,0.78,-0.34,9.99,-0.03,-0.01,-0.0,31.21,2.909702,-13.134175013143906,47.49722542135249,10.026170754580235,0.03162277660168379,-0.2450764741183164,0.06818774267686849
4869191,1738,1,194693.0,212721,0.7649999999999999,-0.33,9.97,-0.03,-0.01,-0.0,31.21,2.949705,18.221510480003968,137.5072840179897,10.004750121817137,0.03162277660168379,0.3153856049407991,0.18327872889532706
4909188,1776,1,195183.0,213399,0.77,-0.34,9.98,-0.03,-0.01,-0.0,31.21,2.989702,32.48533000556008,127.79838780531037,10.015433090985132,0.03162277660168379,0.570341917357065,0.17086448922443248
4949205,1757,1,194651.0,210324,0.79,-0.32,10.0,-0.03,-0.01,-0.0,31.21,3.029719,34.5880580945526,3.443414018038944,10.036259263291278,0.03162277660168379,0.6079267871475942,0.011858520363944046
4989187,1780,1,194454.375,207666,0.79,-0.36,9.98,-0.03,-0.01,-0.0,31.21,3.069701,36.64552542789729,-169.48471171790516,10.017689354337158,0.03162277660168379,0.6447026509536836,-0.20925530675896126
5029191,1749,1,194454.375,206540,0.77,-0.33,9.96,-0.03,-0.01,-0.0,31.21,3.109705,16.172155885430403,-303.2922951954848,9.995168832991268,0.03162277660168379,0.27875475095882984,-0.38034781559684255
5069874,1739,1,194454.375,205275,0.78,-0.34,9.98,-0.03,-0.01,-0.0,31.13,3.150388,-2.2303751459955428,-372.7716310039512,10.016206866873308,0.03162277660168379,-0.05017828429810195,-0.4691872787043425
5108190,1762,1,194454.375,204563,0.79,-0.33,9.98,-0.03,-0.01,-0.0,31.13,3.188704,17.25348451482848,-437.74205401448586,10.016656128668888,0.03162277660168379,0.2980827829328407,-0.5522614392581301
5148205,1791,1,194454.375,204505,0.79,-0.34,9.96,-0.03,-0.01,-0.0,31.13,3.228719,46.48839803422188,-570.6240498208475,9.99706456916229,0.03162277660168379,0.8206374697303365,-0.7221704492785126
5188190,1789,1,194454.375,204571,0.8,-0.35,9.96,-0.03,-0.01,-0.0,31.13,3.268704,36.928331640175884,-747.7263534042216,9.998204838869826,0.03162277660168379,0.649757624404643,-0.9486215715060109
5228191,1777,1,194454.375,206021,0.8,-0.33,9.96,-0.03,-0.01,-0.0,31.13,3.308705,20.18005864696701,-811.5399975860964,9.997524693642923,0.03162277660168379,0.3503933542637537,-1.0302166216325548
5268190,1792,1,194454.375,209701,0.79,-0.33,9.96,-0.03,-0.01,-0.0,31.13,3.348704,36.75383097694695,-567.6637115520736,9.9967294651801,0.03162277660168379,0.6466385408007507,-0.7183852250912885
5308188,1789,1,194990.0,213921,0.79,-0.32,9.96,-0.03,-0.01,0.0,31.13,3.388702,15.682761259148155,34.81144688183416,9.996404353566337,0.03162277660168379,0.2700071466436109,0.05196712482786879
5348207,1761,1,196178.0,216963,0.78,-0.33,9.98,-0.03,-0.01,-0.0,31.13,3.428721,-1.6070998030646477,786.8893956224769,10.01587240334061,0.03162277660168379,-0.03903765097973071,1.0136084589548273
5388187,1797,1,196838.0,217917,0.8,-0.33,9.94,-0.03,-0.01,-0.0,31.13,3.468701,12.909841808733814,1293.660046107178,9.977599911802438,0.03162277660168379,0.22044305082493393,1.661588638728125
5428190,1760,1,196899.0,217538,0.79,-0.34,9.98,-0.03,-0.01,-0.0,31.13,3.508704,-21.875106263981568,1218.6508817677313,10.016990566033293,0.03162277660168379,-0.4013148221151362,1.5656784834205284
5468188,1750,1,196521.0,214258,0.79,-0.34,9.95,-0.03,-0.01,-0.0,31.13,3.548702,-35.985393848205156,524.4094150845929,9.98710168166921,0.03162277660168379,-0.6535268529222497,0.6779895259855346
5508191,1788,1,194454.375,208537,0.79,-0.33,9.97,-0.03,-0.01,-0.0,31.13,3.588705,-20.935296964013816,-480.66104982638757,10.006692760347947,0.03162277660168379,-0.38451635428083786,-0.6071396343455645
5548188,1775,1,194454.375,206592,0.78,-0.34,9.99,-0.03,-0.01,-0.0,31.13,3.628702,-13.438506940221732,-1329.5751260305074,10.026170754580235,0.03162277660168379,-0.2505162054426843,-1.6926000791931588
5588191,1801,1,194454.375,207528,0.79,-0.34,9.99,-0.03,-0.01,-0.0,31.13,3.668705,-29.557093114265744,-1674.5899392096594,10.02695367497028,0.03162277660168379,-0.5386252413804373,-2.1337518318734903
5628187,1711,1,194454.375,209801,0.81,-0.33,9.95,-0.03,-0.01,-0.0,31.13,3.708701,-91.44856384937098,-1457.970953220714,9.988368235102268,0.03162277660168379,-1.6448942263721316,-1.8567728684130487
5668190,1751,1,194908.0,213342,0.8,-0.33,9.930000000000001,-0.03,-0.01,-0.0,31.13,3.748704,-88.94600527599862,-882.8829423758532,9.967637633862902,0.03162277660168379,-1.6001626518924092,-1.1214389805955443
5708187,1763,1,196054.0,215883,0.82,-0.33,9.96,-0.03,-0.01,0.0,31.13,3.788701,-63.35028629259662,-239.31455146764122,9.999144963445625,0.03162277660168379,-1.142656153443021,-0.29854294026989314
5748191,1758,1,196589.0,216786,0.77,-0.34,10.0,-0.03,-0.01,-0.0,31.13,3.828705,-86.24403465082565,281.7249077114429,10.035362474768911,0.03162277660168379,-1.5518667192625188,0.36768199226107473
5788187,1749,1,196890.0,217434,0.81,-0.36,9.99,-0.03,-0.01,-0.0,31.13,3.868701,-98.9609998499673,665.6568856755678,10.029247229976933,0.03162277660168379,-1.7791740366672326,0.8585950154678553
5828191,1744,1,197239.0,218534,0.79,-0.32,9.98,-0.03,-0.01,-0.0,31.13,3.908705,-109.79358062007057,1003.9577429592038,10.016331663837814,0.03162277660168379,-1.9727992323694483,1.291161996429451
5868188,1774,1,197669.0,219825,0.8,-0.35,10.0,-0.03,-0.01,0.0,31.13,3.948702,-85.57971397839884,1344.327297017222,10.038052599981732,0.03162277660168379,-1.5399924279059596,1.7263741078982664
5908191,1807,1,198028.0,220476,0.78,-0.34,9.99,-0.03,-0.01,0.0,31.13,3.988705,-61.940522726241966,1594.6770009180052,10.026170754580235,0.03162277660168379,-1.1174575648312817,2.0464827132104806
5948191,1787,1,198173.0,220765,0.79,-0.34,9.98,-0.03,-0.01,0.0,31.13,4.028705,-77.68341327318835,1574.6612711871478,10.016990566033293,0.03162277660168379,-1.3988512906444142,2.0208896838255117
5988191,1837,1,198258.0,219827,0.81,-0.34,9.99,-0.03,-0.01,-0.0,31.13,4.068705,-44.729917200397175,1182.5265295312088,10.028549247024715,0.03162277660168379,-0.8098294073480341,1.519488231017341
6028187,1888,1,197235.0,216735,0.84,-0.34,9.99,-0.03,-0.01,-0.0,31.13,4.108701,18.20626189592368,533.6026724805423,10.031016897603154,0.03162277660168379,0.31511304661518974,0.6897444462328535
6068191,1940,1,196439.0,215954,0.79,-0.35,9.98,-0.03,-0.01,-0.0,31.13,4.148705,53.456529271129384,-66.0108411947599,10.017334974932206,0.03162277660168379,0.945188193427555,-0.07694887354445387
6108875,1936,1,196434.0,216838,0.8,-0.34,9.98,-0.03,-0.01,-0.0,31.11,4.189389,60.13736514327241,-312.15909484774585,10.017784186136174,0.03162277660168379,1.0646037030509135,-0.39168531201103035
6149191,1940,1,196907.0,218422,0.81,-0.33,9.98,-0.03,-0.01,0.0,31.11,4.229705,55.79383254666498,-115.25504324249407,10.018253340777523,0.03162277660168379,0.9869659390770522,-0.13991476721876933
6189189,1940,1,197408.0,219999,0.78,-0.34,9.96,-0.03,-0.01,-0.0,31.11,4.269703,60.86558545619241,336.6654066721209,9.996279307822487,0.03162277660168379,1.0776201580948135,0.43793143223816267
6229191,1940,1,197850.0,220633,0.8,-0.34,9.96,-0.03,-0.01,-0.0,31.11,4.309705,62.04395892311345,711.818075987671,9.997859770970987,0.03162277660168379,1.0986828021669064,0.9176188290379135
6269188,1940,1,197866.0,220241,0.79,-0.34,9.98,-0.03,-0.01,-0.0,31.11,4.349702,63.74242850779684,760.1692756831955,10.016990566033293,0.03162277660168379,1.12904181934924,0.9794428889770483
6309191,1940,1,197704.0,219185,0.79,-0.33,9.98,-0.03,-0.01,-0.0,31.11,4.389705,70.66462216106109,466.7083982505907,10.016656128668888,0.03162277660168379,1.25277143921056,0.6042103613369151
6349188,1940,1,197292.0,217770,0.79,-0.33,9.97,-0.03,-0.01,-0.0,31.11,4.429702,73.47097926593875,32.444720027165616,10.006692760347947,0.03162277660168379,1.3029332109226077,0.048940919400826774
6389191,1940,1,196989.0,216629,0.78,-0.33,9.95,-0.03,-0.01,-0.0,31.11,4.469705,81.96547598358639,-291.965470231311,9.985980172221453,0.03162277660168379,1.4547667051057922,-0.36586481807217114
6429188,1940,1,196735.0,216102,0.8,-0.34,9.96,-0.03,-0.01,-0.0,31.11,4.509702,89.23628412045358,-394.16491316871975,9.997859770970987,0.03162277660168379,1.584727577615469,-0.4965417097666167
6469191,1940,1,196923.0,217526,0.8,-0.35,9.95,-0.03,-0.01,0.0,31.11,4.549705,96.62029086436003,-368.9791125179993,9.988243088751895,0.03162277660168379,1.7167118001380708,-0.4643379907513598
6509188,1940,1,197521.0,219043,0.79,-0.33,9.94,-0.03,-0.01,0.0,31.11,4.589702,109.60489359286633,-415.06375840745824,9.976803095180339,0.03162277660168379,1.9488029608484825,-0.5232639311144786
6549192,1940,1,197158.0,216841,0.81,-0.32,9.97,-0.03,-0.01,-0.0,31.11,4.629706,115.61308098720819,-645.5382584549133,10.00796682648379,0.03162277660168379,2.0561953251182885,-0.817959189869246
6589284,1940,1,196206.0,215728,0.81,-0.34,9.95,-0.03,-0.01,-0.0,31.11,4.669798,132.12504877583973,-978.3905937351735,9.98870361958948,0.03162277660168379,2.3513357964754182,-1.2435594408833408
6628192,1940,1,196227.0,216553,0.8,-0.35,9.97,-0.03,-0.01,-0.0,31.11,4.708706,140.26072166315785,-1204.8220512260355,10.008166665278912,0.03162277660168379,2.4967555527096623,-1.5330850801265077
6668188,1909,1,196569.0,217341,0.8,-0.31,9.96,-0.03,-0.01,-0.0,31.11,4.748702,123.51658103787365,-1169.1896554217794,9.996884514687563,0.03162277660168379,2.1974651459043075,-1.4875238657647218
6708191,1889,1,196922.0,218374,0.81,-0.34,9.95,-0.03,-0.01,-0.0,31.11,4.788705,118.80054194255574,-895.1626870992509,9.98870361958948,0.03162277660168379,2.113169075360305,-1.1371404249981096
6748189,1837,1,197317.0,219085,0.78,-0.32,9.98,-0.03,-0.01,-0.0,31.11,4.828703,74.53764888932626,-554.6168707122163,10.015547913119882,0.03162277660168379,1.3219992228879214,-0.7017029364370455
6788212,1725,1,197499.0,219109,0.81,-0.33,9.96,-0.03,-0.01,-0.0,31.11,4.868726,-15.160187174834295,-322.7075844482655,9.998329860531708,0.03162277660168379,-0.2812900975962081,-0.4051730942674494
6828188,1664,1,197516.0,219168,0.82,-0.35,9.96,-0.03,-0.01,-0.0,31.11,4.908702,-72.02634325630412,-249.73100237470882,9.999824998468723,0.03162277660168379,-1.2977349165903758,-0.31186189180133184
6868191,1600,1,197630.0,219751,0.8,-0.36,9.96,-0.03,-0.01,-0.0,31.11,4.948705,-113.68486215417042,-247.66029639784384,9.998559896305068,0.03162277660168379,-2.042353308592165,-0.30921419223573293
6908187,1572,1,197757.0,219772,0.8,-0.34,9.95,-0.03,-0.01,0.0,31.11,4.988701,-134.5339780058602,-188.51007589787926,9.987897676688522,0.03162277660168379,-2.4150174246210097,-0.23358200936062318
6948191,1572,1,197844.0,219617,0.82,-0.34,9.97,-0.03,-0.01,-0.0,31.11,5.028705,-118.36998248221315,-29.31420798815261,10.009440543806631,0.03162277660168379,-2.126096726680434,-0.030026876464415753
6988208,1572,1,197899.0,219791,0.8,-0.34,9.97,-0.03,-0.01,-0.0,31.11,5.068722,-106.31916505577925,135.95717944694798,10.007821940862058,0.03162277660168379,-1.910696358837833,0.18129669414716174
7028191,1572,1,198155.0,220600,0.81,-0.34,9.99,-0.03,-0.01,-0.0,31.11,5.108705,-95.88274341101295,143.82280888009547,10.028549247024715,0.03162277660168379,-1.7241522447172377,0.19135404843404918
7068187,1572,1,198317.0,219919,0.81,-0.35,9.97,-0.03,-0.01,-0.0,31.11,5.148701,-82.96500366738856,-95.53986457865008,10.008970976079409,0.03162277660168379,-1.493256215509443,-0.11470603620279275
7108191,1572,1,197404.0,217860,0.79,-0.32,10.0,-0.03,-0.01,0.0,31.11,5.188705,-74.37450516555258,-493.30955873901206,10.036259263291278,0.03162277660168379,-1.3397067531146454,-0.6233125975414946
7148875,1572,1,196873.0,217485,0.8,-0.34,9.96,-0.03,-0.01,-0.0,31.13,5.229389,-64.70170200868034,-814.5230894603698,9.997859770970987,0.03162277660168379,-1.1668118129349805,-1.0340309396226024
7187191,1572,1,197071.0,218866,0.8,-0.34,9.97,-0.03,-0.01,-0.0,31.13,5.267705,-56.46975157411389,-837.2797989883913,10.007821940862058,0.03162277660168379,-1.0196711594073473,-1.0631287113994652
7227187,1572,1,197541.0,220364,0.8,-0.34,9.99,-0.03,-0.01,-0.0,31.13,5.307701,-50.26324157229722,-513.1058510483462,10.027746506568661,0.03162277660168379,-0.9087339100820369,-0.6486250441821555
7267190,1572,1,197989.0,222114,0.78,-0.34,10.0,-0.03,-0.01,0.0,31.13,5.347704,-44.414792437092416,2.1358533382517573,10.036134714121767,0.03162277660168379,-0.8041967612353095,0.010186613351289267
7307191,1572,1,198453.0,222987,0.8,-0.34,9.99,-0.03,-0.01,0.0,31.13,5.387705,-39.552527083298216,466.4349747879717,10.027746506568661,0.03162277660168379,-0.7172869933171397,0.6038607495662006
7347190,1572,1,198582.0,222883,0.8,-0.35,9.98,-0.03,-0.01,-0.0,31.13,5.427704,-38.110827174081614,719.3789760643813,10.018128567751564,0.03162277660168379,-0.6915175637610406,0.9272865424034541
7387190,1572,1,198572.0,222701,0.8,-0.34,9.98,-0.03,-0.01,-0.0,31.13,5.467704,-34.44351023786793,772.6822351023002,10.017784186136174,0.03162277660168379,-0.625966706163359,0.9954425323781262
7427191,1572,1,198557.0,222526,0.8,-0.35,9.96,-0.03,-0.01,-0.0,31.13,5.507705,-35.51074003309283,766.920286594241,9.998204838869826,0.03162277660168379,-0.6450427308286878,0.9880750409369276
7467190,1572,1,198545.0,222487,0.79,-0.34,9.98,-0.03,-0.01,-0.0,31.13,5.547704,-37.14362639131625,838.5510983255114,10.016990566033293,0.03162277660168379,-0.6742294913412958,1.0796654797647125
7507190,1572,1,198606.0,222526,0.79,-0.34,9.96,-0.03,-0.01,-0.0,31.13,5.587704,-35.22786246393313,1000.8383190458777,9.99706456916229,0.03162277660168379,-0.6399864819208116,1.2871733580459677
7547190,1572,1,198630.0,222723,0.8,-0.33,9.96,-0.03,-0.01,-0.0,31.13,5.627704,-47.18873940467046,1128.1020927757409,9.997524693642923,0.03162277660168379,-0.8537792232417059,1.4498986518277441
7587191,1572,1,198770.0,222993,0.8,-0.33,9.99,-0.03,-0.01,-0.0,31.13,5.667705,-38.998640495602594,1057.384634878993,10.027412427939723,0.03162277660168379,-0.7073866379710355,1.359476069073164
7627187,1603,1,198476.0,220992,0.8,-0.34,9.95,-0.03,-0.01,-0.0,31.13,5.707701,-29.73361981983208,731.7802724067964,9.987897676688522,0.03162277660168379,-0.5417805391471784,0.9431434082769892
7667191,1572,1,197403.0,218797,0.8,-0.35,9.97,-0.03,-0.01,-0.0,31.13,5.747705,-49.906136292999626,269.6842730450566,10.008166665278912,0.03162277660168379,-0.9023508900928278,0.35228628493617886
7707191,1625,1,197043.0,218301,0.81,-0.34,9.97,-0.03,-0.01,-0.0,31.13,5.787705,-21.746382897401496,-102.92909906552718,10.008626279365215,0.03162277660168379,-0.3990139773234405,-0.12415425007747968
7747191,1663,1,197032.0,218388,0.78,-0.35,9.96,-0.03,-0.01,-0.0,31.13,5.827705,23.612889242588174,-206.72370294604255,9.996624430276453,0.03162277660168379,0.41175292406489944,-0.2568707876624142
7787191,1686,1,197155.0,218760,0.81,-0.32,9.98,-0.03,-0.01,-0.0,31.13,5.867705,23.342461840872527,-25.873591492588833,10.017928927677616,0.03162277660168379,0.40691921364153055,-0.0256275465245425
7827190,1701,1,197405.0,219209,0.79,-0.33,9.97,-0.03,-0.01,-0.0,31.13,5.907704,42.06048806721557,300.3165332809212,10.006692760347947,0.03162277660168379,0.7414915162305397,0.39145409679646176
7867190,1757,1,197555.0,219416,0.8,-0.35,9.98,-0.03,-0.01,0.0,31.13,5.947704,73.71106860053719,592.5748683883011,10.018128567751564,0.03162277660168379,1.3072246485203718,0.7651489987052332
7907190,1738,1,197619.0,219358,0.8,-0.33,9.96,-0.03,-0.01,-0.0,31.13,5.987704,60.84006417134215,756.5969317093084,9.997524693642923,0.03162277660168379,1.0771639820571195,0.9748751262461218
7947190,1761,1,197616.0,219380,0.79,-0.37,9.97,-0.03,-0.01,-0.0,31.13,6.027704,52.70719887737486,825.7951007316861,10.008091726198357,0.03162277660168379,0.9317944096916637,1.063355076614631
7987191,1766,1,197630.0,219116,0.78,-0.35,9.99,-0.03,-0.01,0.0,31.13,6.067705,71.43502873497327,898.7054722458746,10.026514848141403,0.03162277660168379,1.266541945686331,1.1565816192250105
8027193,1776,1,197625.0,218820,0.82,-0.34,9.95,-0.03,-0.01,-0.0,31.13,6.107707,42.501239609674926,1024.4083336205674,9.989519507964333,0.03162277660168379,0.7493696576887854,1.3173110589304977
8067191,1731,1,197544.0,218338,0.81,-0.34,9.98,-0.03,-0.01,-0.0,31.13,6.147705,16.370966118963413,1126.47716513124,10.018587724824293,0.03162277660168379,0.28230835200666815,1.4478209448685997
8107190,1813,1,197476.0,217618,0.79,-0.33,9.97,-0.03,-0.01,-0.0,31.13,6.187704,59.43691699357948,1033.0347588164361,10.006692760347947,0.03162277660168379,1.0520836570026202,1.3283412015480183
8147190,1817,1,197284.0,216880,0.79,-0.32,9.98,-0.03,-0.01,-0.0,31.13,6.227704,77.3504171514472,605.270102671012,10.016331663837814,0.03162277660168379,1.3722755897829872,0.7813817071008499
8187875,1821,1,196585.0,213534,0.8,-0.35,9.97,-0.03,-0.01,-0.0,31.29,6.268389,53.94988064243811,-128.63593131629798,10.008166665278912,0.03162277660168379,0.9540065219354992,-0.15702418397622536
8228191,1808,1,195129.0,210479,0.81,-0.33,9.97,-0.03,-0.01,-0.0,31.29,6.308705,41.35775498205587,-952.3331598065912,10.008291562499567,0.03162277660168379,0.7289306284764416,-1.2102412116107415
8268188,1808,1,194454.375,209059,0.8,-0.35,9.96,-0.03,-0.01,-0.0,31.29,6.348702,30.248306087294882,-1590.571834294535,9.998204838869826,0.03162277660168379,0.530356598700585,-2.0263224322524924
8308191,1802,1,194454.375,208700,0.82,-0.34,9.97,-0.03,-0.01,-0.0,31.29,6.388705,12.27316282795292,-1892.492188249313,10.009440543806631,0.03162277660168379,0.2090628363710137,-2.4123716342844492
8348188,1782,1,194454.375,209353,0.82,-0.32,9.97,-0.03,-0.01,-0.0,31.29,6.428702,-7.692482288159243,-1913.8738953572051,10.008781144574998,0.03162277660168379,-0.14780982629101083,-2.439711264948499
8388191,1798,1,194706.0,209663,0.8,-0.34,9.96,-0.03,-0.01,-0.0,31.29,6.468705,-7.718138196505251,-1830.5466800697989,9.997859770970987,0.03162277660168379,-0.14826840863439147,-2.3331652684700157
8428197,1807,1,194573.0,208236,0.8,-0.34,9.96,-0.03,-0.01,-0.0,31.29,6.508711,3.9719665094768954,-1767.7714941472489,9.997859770970987,0.03162277660168379,0.06068445860128976,-2.2528980386679534
8468191,1821,1,194454.375,209001,0.81,-0.32,9.96,-0.03,-0.01,-0.0,31.29,6.548705,5.2852872248693625,-1699.7596313912914,9.99800480095904,0.03162277660168379,0.08415919522540595,-2.1659349538618953
8508188,1825,1,194762.0,211259,0.79,-0.32,9.96,-0.03,-0.01,-0.0,31.29,6.588702,9.986806533011299,-1500.530086586337,9.996404353566337,0.03162277660168379,0.1681957342050316,-1.9111909268836322
8548171,1840,1,195429.0,213008,0.8,-0.34,9.99,-0.03,-0.01,-0.0,31.29,6.628685,17.636060761381003,-1091.2096342783452,10.027746506568661,0.03162277660168379,0.3049210795661041,-1.3878150367886968
8588188,1838,1,195934.0,213713,0.81,-0.34,9.96,-0.03,-0.01,0.0,31.29,6.668702,14.637378064978517,-553.1721086030648,9.998664910876853,0.03162277660168379,0.2513216154806641,-0.699855597388657
8628204,1829,1,196147.0,214629,0.79,-0.34,9.97,-0.03,-0.01,-0.0,31.29,6.708718,2.072207508913476,-110.85780483513939,10.00702753069062,0.03162277660168379,0.02672752663117803,-0.1342922566590546
8668188,1818,1,196645.0,215862,0.78,-0.35,9.97,-0.03,-0.01,-0.0,31.29,6.748702,-10.063034398011075,11.960198926030044,10.00658783002478,0.03162277660168379,-0.19018187279899962,0.02274847188440445
8708192,1819,1,196955.0,215170,0.8,-0.34,9.95,-0.03,-0.01,-0.0,31.29,6.788706,-9.696934200382318,-235.06723852820124,9.987897676688522,0.03162277660168379,-0.18363807461120987,-0.29311213128476454
8748187,1840,1,195974.0,212254,0.78,-0.35,9.97,-0.03,-0.01,-0.0,31.29,6.828701,9.15144437926485,-659.2750164732164,10.00658783002478,0.03162277660168379,0.15326418982663337,-0.8355236382477952
8788192,1842,1,195463.0,212696,0.79,-0.33,9.98,-0.03,-0.01,0.0,31.29,6.868706,15.706157995522828,-931.5598538413775,10.016656128668888,0.03162277660168379,0.2704253477865779,-1.1836795105316629
8828189,1830,1,196176.0,214818,0.81,-0.33,9.96,-0.03,-0.01,-0.0,31.29,6.908703,-3.262851340717211,-806.6778923325553,9.998329860531708,0.03162277660168379,-0.06863311140750146,-1.0239997110177572
8868192,1814,1,196914.0,216685,0.79,-0.34,9.98,-0.03,-0.01,-0.0,31.29,6.948706,-5.838266849729033,-290.3430563173121,10.016990566033293,0.03162277660168379,-0.11466695528367139,-0.3637903252840545
8908189,1828,1,197576.0,218686,0.81,-0.33,9.97,-0.03,-0.01,0.0,31.29,6.988703,-6.725725720470915,377.27485427509345,10.008291562499567,0.03162277660168379,-0.13052969392110744,0.4898565331355811
8948192,1787,1,198243.0,220068,0.81,-0.33,9.98,-0.03,-0.01,-0.0,31.29,7.028706,-24.785996809104784,900.8050439522401,10.018253340777523,0.03162277660168379,-0.4533450597315263,1.1592662278353085
8988189,1808,1,198519.0,220360,0.79,-0.33,9.95,-0.03,-0.01,-0.0,31.29,7.068703,-25.23510446449744,1126.9853097891114,9.986766243384292,0.03162277660168379,-0.46137256116560393,1.4484706819171904
9028192,1777,1,198568.0,220497,0.79,-0.35,9.95,-0.03,-0.01,-0.0,31.29,7.108706,-27.71643689346288,1118.4522338224801,9.987447121261768,0.03162277660168379,-0.5057247323939664,1.4375598999025088
9068189,1787,1,198664.0,220935,0.79,-0.35,9.96,-0.03,-0.01,-0.0,31.29,7.148703,-41.015012404775526,1067.9242125863702,9.997409664508103,0.03162277660168379,-0.7434279483298354,1.3729524561745656
9108192,1771,1,198897.0,221429,0.79,-0.35,9.98,-0.03,-0.01,-0.0,31.29,7.188706,-28.399526173306676,1131.4986830039468,10.017334974932206,0.03162277660168379,-0.5179345001583455,1.4542416877643833
9148188,1808,1,199100.0,221881,0.79,-0.34,9.96,-0.03,-0.01,-0.0,31.29,7.228702,-11.895407835480878,1307.122583878757,9.99706456916229,0.03162277660168379,-0.22293433252760125,1.6788024565312851
9188879,1776,1,199311.0,222557,0.79,-0.33,9.97,-0.03,-0.01,-0.0,31.29,7.269393,-19.611332768657768,1443.8165016071428,10.006692760347947,0.03162277660168379,-0.36085137251250005,1.853585564627301
9227191,1781,1,199767.0,223544,0.79,-0.35,9.96,-0.03,-0.01,-0.0,31.29,7.307705,-29.11920523171733,1371.3779487199472,9.997409664508103,0.03162277660168379,-0.5307982859435514,1.760962310937554
9267191,1770,1,199418.0,221553,0.79,-0.34,9.94,-0.03,-0.01,0.0,31.29,7.347705,-22.804741737344692,1050.2568886226716,9.977138868433174,0.03162277660168379,-0.4179314395474695,1.3503622060344658
9307191,1791,1,198720.0,220569,0.81,-0.36,9.96,-0.03,-0.01,-0.0,31.29,7.387705,-9.264557684808262,620.7839878773894,9.99936497983747,0.03162277660168379,-0.1759096312031419,0.8012184717504914
9347190,1780,1,198620.0,220851,0.81,-0.33,9.930000000000001,-0.03,-0.01,-0.0,31.29,7.427704,-9.941313170868314,307.1305137242854,9.968445214776477,0.03162277660168379,-0.1880061866050248,0.4001667644863523
9387191,1772,1,198827.0,221344,0.8,-0.34,9.97,-0.03,-0.01,-0.0,31.29,7.467705,-20.056331200859514,252.23159898453562,10.007821940862058,0.03162277660168379,-0.3688054243078065,0.32997049600001077
9427191,1770,1,199068.0,222274,0.81,-0.34,9.99,-0.03,-0.01,0.0,31.29,7.507705,-16.21876942980578,419.0977705328207,10.028549247024715,0.03162277660168379,-0.30021155321567006,0.5433332306700682
9467191,1781,1,199458.0,223056,0.79,-0.33,9.98,-0.03,-0.01,-0.0,31.29,7.547705,-5.213956468607597,635.4339168998999,10.016656128668888,0.03162277660168379,-0.10350782134421493,0.8199505424270251
9507191,1782,1,199673.0,223290,0.78,-0.35,9.96,-0.03,-0.01,-0.0,31.29,7.587705,-0.1636543743901614,737.5070687594176,9.996624430276453,0.03162277660168379,-0.013237021421175284,0.9504659525611685
9547191,1779,1,199683.0,223182,0.79,-0.34,9.98,-0.03,-0.01,-0.0,31.29,7.627705,-2.9053356776068497,691.4967547424624,10.016990566033293,0.03162277660168379,-0.062242756079858595,0.8916350563369749
9587191,1780,1,199555.0,222893,0.78,-0.36,9.97,-0.03,-0.01,-0.0,31.29,7.667705,0.7431133956147353,594.6524428072969,10.00694259002219,0.03162277660168379,0.0029708509824371543,0.7678054805757316
9627191,1794,1,199607.0,223072,0.8,-0.33,9.97,-0.03,-0.01,-0.0,31.29,7.707705,15.952025175360568,559.8669636617361,10.007487197093985,0.03162277660168379,0.27482006053538305,0.7233271726692219
9667191,1792,1,199708.0,223224,0.78,-0.34,9.98,-0.03,-0.01,0.0,31.29,7.747705,13.917047740468265,585.6102291813324,10.016206866873308,0.03162277660168379,0.2384461887459315,0.7562436918152795
9707191,1776,1,199767.0,223264,0.8,-0.35,9.97,-0.03,-0.01,-0.0,31.29,7.787705,0.9423840472093957,530.1038727892762,10.008166665278912,0.03162277660168379,0.006532681697718889,0.6852707205923316
9747192,1776,1,199847.0,223268,0.79,-0.33,9.98,-0.03,-0.01,-0.0,31.29,7.827706,-1.3974608440770233,224.81250647435888,10.016656128668888,0.03162277660168379,-0.0352904936473972,0.2949111876581174
9787191,1767,1,199456.0,220689,0.79,-0.33,9.97,-0.03,-0.01,-0.0,31.29,7.867705,-7.56741929330816,-361.01338621730537,10.006692760347947,0.03162277660168379,-0.1455744082159407,-0.45415264802203703
9827192,1761,1,198249.0,218207,0.79,-0.34,9.99,-0.03,-0.01,0.0,31.29,7.907706,-14.56438845863384,-1051.1224805870215,10.02695367497028,0.03162277660168379,-0.27064059075460417,-1.3365577648242306
9867191,1773,1,197829.0,218236,0.8,-0.34,9.97,-0.03,-0.01,-0.0,31.29,7.947705,-4.431994924001977,-1563.451755188405,10.007821940862058,0.03162277660168379,-0.08953077743204418,-1.9916454561532488
9907191,1776,1,198061.0,219408,0.79,-0.35,9.96,-0.03,-0.01,-0.0,31.29,7.987705,3.5530527929383324,-1707.2735755038575,9.997409664508103,0.03162277660168379,0.05319665379571817,-2.1755426271796185
9947191,1776,1,198445.0,220611,0.8,-0.34,9.97,-0.03,-0.01,-0.0,31.29,8.027705,-6.464839623962362,-1513.5300295591537,10.007821940862058,0.03162277660168379,-0.1258665279992923,-1.9278132497756775
9987191,1761,1,198864.0,221519,0.79,-0.35,9.97,-0.03,-0.01,0.0,31.29,8.067705,-8.938140939524622,-1195.990223536872,10.007372282472558,0.03162277660168379,-0.17007514840284219,-1.5217923004671543
10027194,1783,1,199068.0,221532,0.79,-0.33,9.98,-0.03,-0.01,-0.0,31.29,8.107708,-3.7291515986506383,-987.1748043830381,10.016656128668888,0.03162277660168379,-0.07696791920764608,-1.2547913352113287
10067198,1776,1,199081.0,221365,0.8,-0.32,9.99,-0.03,-0.01,-0.0,31.29,8.147712,5.214674620255896,-985.1899133999949,10.027088311169898,0.03162277660168379,0.08289704175731828,-1.252253362629861
10107188,1811,1,199024.0,221486,0.81,-0.35,9.97,-0.03,-0.01,-0.0,31.29,8.187702,23.259374583240323,-1116.848983546482,10.008970976079409,0.03162277660168379,0.4054340840255302,-1.4205986838529996
10147191,1801,1,199102.0,222142,0.8,-0.34,9.98,-0.03,-0.01,-0.0,31.29,8.227705,25.30456120867245,-1218.8719481444377,10.017784186136174,0.03162277660168379,0.44199043832383045,-1.551049922254352
10187188,1808,1,199373.0,223010,0.79,-0.33,10.0,-0.03,-0.01,-0.0,31.29,8.267702,21.729480503583034,-1158.3830038985539,10.036583083898623,0.03162277660168379,0.37808824217454173,-1.4737059858419805
10227878,1802,1,199662.0,223962,0.81,-0.35,9.97,-0.03,-0.01,-0.0,31.07,8.308392,20.166139837861444,-907.9442786782824,10.008970976079409,0.03162277660168379,0.3501445647837394,-1.1534835537906871
10268206,1799,1,199971.0,225191,0.78,-0.36,9.97,-0.03,-0.01,-0.0,31.07,8.34872,13.294570112287916,-540.2058101241456,10.00694259002219,0.03162277660168379,0.22731981404957907,-0.6832762938884873
10308192,1794,1,200782.0,227202,0.77,-0.34,9.97,-0.03,-0.01,-0.0,31.07,8.388706,8.281997230726803,-163.3676423860861,10.005468504772779,0.03162277660168379,0.13772339877589584,-0.20143374155678012
10348189,1770,1,201120.0,227116,0.79,-0.33,9.96,-0.03,-0.01,0.0,31.07,8.428703,-17.8825229251435,150.71921173794178,9.9967294651801,0.03162277660168379,-0.3299500433291336,0.2001721052006402
10388191,1755,1,201346.0,227717,0.79,-0.35,9.98,-0.03,-0.01,-0.0,31.07,8.468705,-32.09464080640972,395.908768373754,10.017334974932206,0.03162277660168379,-0.58398222314891,0.5136827097225276
10428191,1798,1,201726.0,228490,0.81,-0.33,9.97,-0.03,-0.01,-0.0,31.07,8.508705,6.914724010252407,601.5553291529402,10.008291562499567,0.03162277660168379,0.11328429691169348,0.7766318274269679
10468213,1835,1,202025.0,229046,0.81,-0.34,9.97,-0.03,-0.01,-0.0,31.07,8.548727,46.65536642819102,773.7562145659512,10.008626279365215,0.03162277660168379,0.8236219190175816,0.9968157717424496
10508188,1843,1,202245.0,229480,0.79,-0.35,9.97,-0.03,-0.01,-0.0,31.07,8.588702,50.14593578323188,865.3570278224254,10.007372282472558,0.03162277660168379,0.8860135308435692,1.113940769775662
10548191,1828,1,202382.0,229563,0.81,-0.32,9.98,-0.03,-0.01,-0.0,31.07,8.628705,37.20024144829077,809.1063202867946,10.017928927677616,0.03162277660168379,0.6546178318590753,1.0420160370658036
10588191,1819,1,202328.0,229039,0.81,-0.34,9.98,-0.03,-0.01,-0.0,31.07,8.668705,25.94412908499864,591.6392085814914,10.018587724824293,0.03162277660168379,0.4534222898693351,0.7639526211935456
10628191,1807,1,202142.0,228568,0.8,-0.34,9.96,-0.03,-0.01,-0.0,31.07,8.708705,13.749377259167273,302.81432318778445,9.997859770970987,0.03162277660168379,0.23544919011334436,0.39464788544885737
10668188,1805,1,202045.0,228326,0.8,-0.32,9.96,-0.03,-0.01,-0.0,31.07,8.748702,11.387782669495198,104.41128684258277,9.997199607890202,0.03162277660168379,0.19323725333678718,0.14096067006736393
10706191,1808,1,202048.0,228378,0.79,-0.34,9.97,-0.03,-0.01,-0.0,31.07,8.786705,14.360722308674939,124.2782344210985,10.00702753069062,0.03162277660168379,0.24637657735048324,0.16636345977343817
10746190,1792,1,202213.0,229793,0.8,-0.33,9.96,-0.03,-0.01,-0.0,31.07,8.826704,-3.933427052429685,352.3057071479988,9.997524693642923,0.03162277660168379,-0.08061920744214403,0.45792983724519004
10786190,1774,1,203231.375,233294,0.8,-0.34,9.94,-0.03,-0.01,-0.0,31.07,8.866704,-17.784023479190537,630.1957457983093,9.977935658241137,0.03162277660168379,-0.3281894310702489,0.8132527767832461
10826190,1789,1,203231.375,235108,0.81,-0.34,9.96,-0.03,-0.01,-0.0,31.07,8.906704,-9.861198859266615,759.0382611502051,9.998664910876853,0.03162277660168379,-0.18657419642727888,0.9779967219590643
10866190,1787,1,203231.375,232661,0.82,-0.34,9.94,-0.03,-0.01,-0.0,31.07,8.946704,-2.9390011359356922,645.4306507536215,9.979559108497728,0.03162277660168379,-0.06284450381621678,0.8327328244977898
10906190,1783,1,202879.0,231158,0.81,-0.33,9.99,-0.03,-0.01,0.0,31.07,8.986704,-16.95018427882461,365.81768506042613,10.028215195138166,0.03162277660168379,-0.3132851084733086,0.47520687147835505
10946191,1747,1,202610.0,231033,0.79,-0.36,9.97,-0.03,-0.01,-0.0,31.07,9.026705,-42.99382268317235,97.50395572816515,10.00772701466222,0.03162277660168379,-0.7787978694542257,0.13212863993106239
10986191,1765,1,202804.0,231710,0.8,-0.35,9.98,-0.03,-0.01,-0.0,31.07,9.066705,-33.755378724004096,-19.474201467216538,10.018128567751564,0.03162277660168379,-0.613666811810531,-0.017444993144400824
11026197,1786,1,203025.0,232760,0.81,-0.35,9.99,-0.03,-0.01,0.0,31.07,9.106711,-4.91686967849712,26.919522518123692,10.028893258979277,0.03162277660168379,-0.09819759203722998,0.04187614863762718
11066191,1795,1,203231.375,233911,0.82,-0.35,9.97,-0.03,-0.01,0.0,31.07,9.146705,-2.6198356383563057,140.02385474690624,10.009785212480836,0.03162277660168379,-0.05713963225866878,0.18649653156755341
11106194,1777,1,203231.375,233981,0.83,-0.35,9.98,-0.03,-0.01,-0.0,31.07,9.186708,-13.06810372682192,207.419510854007,10.020568846128448,0.03162277660168379,-0.2438954937023015,0.2726717063107026
11146191,1772,1,203231.375,233727,0.83,-0.35,9.96,-0.03,-0.01,-0.0,31.07,9.226705,-26.68601297903128,180.81673279583885,10.000649978876375,0.03162277660168379,-0.4873065884334151,0.23865617504007047
11186191,1738,1,203231.375,234537,0.83,-0.35,9.96,-0.03,-0.01,-0.0,31.07,9.266705,-48.748816462519734,87.84237103263125,10.000649978876375,0.03162277660168379,-0.8816645658066358,0.11977489493434813
11226191,1759,1,203231.375,235143,0.86,-0.34,9.98,-0.03,-0.01,0.0,31.07,9.306705,-41.98643654274359,-12.165870970914927,10.022754112518175,0.03162277660168379,-0.760791510422355,-0.008100226820015675
11266878,1802,1,203231.375,235586,0.82,-0.36,9.96,-0.03,-0.01,-0.0,31.15,9.347392,18.418236966860615,-78.45300554483427,10.00017999838003,0.03162277660168379,0.3189019603990067,-0.09285799512562462
11307189,1842,1,203231.375,236893,0.84,-0.35,9.98,-0.03,-0.01,-0.0,31.15,9.387703,41.03280203441105,-107.74837473841875,10.021402097511107,0.03162277660168379,0.7231223100879565,-0.13031639682751456
11347191,1795,1,203231.375,237989,0.84,-0.34,9.96,-0.03,-0.01,-0.0,31.15,9.427705,11.004637442856708,-120.21891909788971,10.001139935027407,0.03162277660168379,0.186388786561908,-0.14626180638939845
11387192,1808,1,203231.375,235534,0.84,-0.35,9.97,-0.03,-0.01,-0.0,31.15,9.467706,11.249750675419486,-134.87685038789468,10.011443452369894,0.03162277660168379,0.19077002300328816,-0.16500410913190663
11427192,1773,1,203231.375,234241,0.83,-0.37,9.98,-0.03,-0.01,-0.0,31.15,9.507706,-14.173914493378478,-155.8486492000179,10.021287342452565,0.03162277660168379,-0.26366112763831223,-0.19181961226227048
11467191,1749,1,203231.375,235457,0.86,-0.37,9.94,-0.03,-0.01,-0.0,31.15,9.547705,-43.01423307142169,-175.23650718378184,9.983992187496943,0.03162277660168379,-0.7791626916053833,-0.21660981605509605
11507192,1769,1,203231.375,237294,0.86,-0.37,9.95,-0.03,-0.01,-0.0,31.15,9.587706,-18.683389737298643,-184.46711322653647,9.993948168766936,0.03162277660168379,-0.3442650063583426,-0.2284124919939648
11547191,1769,1,203231.375,238670,0.86,-0.36,9.97,-0.03,-0.01,-0.0,31.15,9.627705,-22.71385381663794,-182.6605982463503,10.01349589304355,0.03162277660168379,-0.4163068782534165,-0.22610259914499142
11587192,1775,1,203231.375,239436,0.87,-0.35,9.95,-0.03,-0.01,-0.0,31.15,9.667706,-8.094984053833514,-176.04601780806212,9.99409325551848,0.03162277660168379,-0.15500427836140376,-0.21764489344039417
11627191,1829,1,203231.375,239304,0.85,-0.35,9.99,-0.03,-0.01,-0.0,31.15,9.707705,34.309348091107644,-170.47154432395624,10.032203147863385,0.03162277660168379,0.6029450307124026,-0.21051711615708552
11667192,1791,1,203231.375,238947,0.83,-0.36,9.97,-0.03,-0.01,-0.0,31.15,9.747706,13.622513587740507,-164.23152531677368,10.010963989546662,0.03162277660168379,0.23318158613892462,-0.20253834186501546
11707191,1795,1,203231.375,239210,0.84,-0.36,9.96,-0.03,-0.01,-0.0,31.15,9.787705,-0.8898820387277917,-148.26250463906393,10.001839830751141,0.03162277660168379,-0.026217859193446602,-0.18211962014218308
11747191,1793,1,203231.375,239542,0.85,-0.36,9.930000000000001,-0.03,-0.01,0.0,31.15,9.827705,18.307826335547997,-115.29347420408044,9.972813043469731,0.03162277660168379,0.3169284436028511,-0.13996390680760262
11787192,1805,1,203231.375,239329,0.84,-0.36,9.98,-0.03,-0.01,-0.0,31.15,9.867706,12.010079582315427,-71.45853747201521,10.021756333098505,0.03162277660168379,0.20436039786595117,-0.0839145476806927
11827192,1777,1,203231.375,239307,0.85,-0.36,9.96,-0.03,-0.01,-0.0,31.15,9.907706,1.4962008459689478,-38.832903047155945,10.002684639635502,0.03162277660168379,0.01643178961288382,-0.042197916223014366
11867192,1791,1,203231.375,239077,0.85,-0.35,9.98,-0.03,-0.01,-0.0,31.15,9.947706,4.305329547269869,-41.57669388645256,10.022245257426103,0.03162277660168379,0.06664310177251756,-0.04570625294221319
11907191,1797,1,203231.375,235584,0.86,-0.35,9.99,-0.03,-0.01,-0.0,31.15,9.987705,18.459301065486912,-82.5372072598861,10.033055367135178,0.03162277660168379,0.3196359539229503,-0.09808024262361699
11947191,1817,1,203169.0,233570,0.85,-0.36,9.99,-0.03,-0.01,-0.0,31.15,10.027705,38.33642308196447,-131.000531820055,10.032557002080775,0.03162277660168379,0.6749263248989325,-0.160047670553538
11987191,1819,1,202886.0,233486,0.85,-0.35,9.97,-0.03,-0.01,-0.0,31.15,10.067705,37.310139361352114,-139.1641576430538,10.012287450927486,0.03162277660168379,0.6565821841565902,-0.17048605668211356
12027195,1797,1,203033.0,234114,0.85,-0.37,9.97,-0.03,-0.01,-0.0,31.15,10.107709,25.29247399932742,-79.95145693435705,10.013006541493919,0.03162277660168379,0.44177438747458275,-0.0947739837485566
12067192,1797,1,203231.375,235098,0.83,-0.37,9.95,-0.03,-0.01,-0.0,31.15,10.147706,15.26279725207407,26.573588806570335,9.991411311721683,0.03162277660168379,0.26250056859140486,0.04143382193937109
12107191,1781,1,203231.375,235908,0.84,-0.36,9.97,-0.03,-0.01,-0.0,31.15,10.187705,11.926420415686206,126.20117001464922,10.01179804031224,0.03162277660168379,0.2028650457559929,0.1688222133543918
12147192,1794,1,203231.375,236234,0.85,-0.38,9.98,-0.03,-0.01,0.0,31.15,10.227706,17.54293587295154,175.4376189000716,10.023337767430569,0.03162277660168379,0.3032565339578529,0.2317781934800363
12187191,1774,1,203231.375,236256,0.85,-0.34,9.95,-0.03,-0.01,-0.0,31.15,10.267705,2.5608900300144177,179.49037983020972,9.992026821421167,0.03162277660168379,0.03546240253864101,0.23696023934945937
12227191,1751,1,203231.375,236247,0.86,-0.35,9.95,-0.03,-0.01,0.0,31.15,10.307705,-16.439521633649516,188.19113142765136,9.99322770680224,0.03162277660168379,-0.3041573524280706,0.2480854191105222
12267879,1763,1,203231.375,236221,0.84,-0.36,10.0,-0.03,-0.01,-0.0,31.21,10.348393,-12.452661571939204,248.25574728976218,10.041673167356125,0.03162277660168379,-0.23289487342431184,0.32488678980379126
12306191,1745,1,203231.375,236192,0.84,-0.33,9.98,-0.03,-0.01,-0.0,31.21,10.386705,-14.440687242449371,347.041613187628,10.020723526771906,0.03162277660168379,-0.2684295135698927,0.4511989254460909
12346191,1746,1,203231.375,236537,0.87,-0.36,9.96,-0.03,-0.01,-0.0,31.21,10.426705,-30.36830871837089,397.4082292906099,10.004404030225889,0.03162277660168379,-0.5531251822011004,0.5155999891733758
12386195,1724,1,203231.375,236669,0.87,-0.36,9.96,-0.03,-0.01,0.0,31.21,10.466709,-32.593181113173856,290.4611252304045,10.004404030225889,0.03162277660168379,-0.5928933004361489,0.3788525203748497
12426191,1750,1,203231.375,234683,0.85,-0.34,9.97,-0.03,-0.01,-0.0,31.21,10.506705,-21.86314045727808,-11.642397002024651,10.011942868394726,0.03162277660168379,-0.40110094125757617,-0.007430889011790725
12466194,1745,1,202411.0,231908,0.85,-0.35,10.0,-0.03,-0.01,-0.0,31.21,10.546708,-14.379234247998175,-418.31181485460564,10.04216112198963,0.03162277660168379,-0.2673310820576219,-0.5274170449511291
12506190,1760,1,201827.0,231547,0.85,-0.36,9.97,-0.03,-0.01,-0.0,31.21,10.586704,-3.8210957219347446,-750.965782459282,10.012642008980446,0.03162277660168379,-0.0786113594221596,-0.9527636539637325
12546195,1759,1,201954.0,232101,0.85,-0.35,9.97,-0.03,-0.01,-0.0,31.21,10.626709,-5.28188140825058,-862.0469210530225,10.012287450927486,0.03162277660168379,-0.10472193458376094,-1.0947970887858771
12586191,1751,1,202174.0,232641,0.84,-0.37,9.98,-0.03,-0.01,-0.0,31.21,10.666705,-5.9958156682826855,-735.734672847442,10.02212053409856,0.03162277660168379,-0.11748303590864077,-0.9332884591492987
12626195,1775,1,202417.0,233334,0.83,-0.36,9.99,-0.03,-0.01,0.0,31.21,10.706709,8.124008412129442,-484.8131487768751,10.030882314133688,0.03162277660168379,0.13489945344200988,-0.6124486983606178
12666192,1758,1,202625.0,233409,0.85,-0.38,9.99,-0.03,-0.01,-0.0,31.21,10.746706,3.428337203715401,-251.67097545041972,10.033294573568545,0.03162277660168379,0.05096744536580706,-0.314342430287829
12706195,1785,1,202623.0,233164,0.84,-0.35,9.98,-0.03,-0.01,-0.0,31.21,10.786709,18.650411285282626,-102.63085803985014,10.021402097511107,0.03162277660168379,0.3230519223328757,-0.1237729054332128
12746191,1792,1,202666.0,233494,0.86,-0.34,9.97,-0.03,-0.01,-0.0,31.21,10.826705,36.69127300417823,0.10195867995755249,10.01279681208003,0.03162277660168379,0.645520358534018,0.00758598242473324
12786195,1776,1,202907.0,234425,0.87,-0.35,9.98,-0.03,-0.01,-0.0,31.21,10.866709,10.79131140550383,138.21876409824065,10.023961292822316,0.03162277660168379,0.18257572514954104,0.18418845993414154
12826191,1775,1,203183.0,234866,0.82,-0.34,9.96,-0.03,-0.01,0.0,31.21,10.906705,17.93630044320592,347.1428123615932,9.999479986479297,0.03162277660168379,0.3102876647210806,0.45132832334803363
12866195,1790,1,203231.375,235301,0.85,-0.33,9.96,-0.03,-0.01,-0.0,31.21,10.946709,25.776876507281653,567.233758578989,10.001649863897457,0.03162277660168379,0.4504327609861045,0.7327466942817479
12906192,1763,1,203231.375,236112,0.86,-0.35,9.96,-0.03,-0.01,-0.0,31.21,10.986706,2.492573963843552,671.1178900817791,10.003184492950233,0.03162277660168379,0.034241298171854624,0.865577705987709
12947192,1787,1,203231.375,236332,0.85,-0.37,9.96,-0.03,-0.01,-0.0,31.21,11.027706,24.69272522821342,551.4442603545364,10.00304953501681,0.03162277660168379,0.4310542760215846,0.712557518195435
12987193,1801,1,203231.375,234085,0.85,-0.35,9.94,-0.03,-0.01,-0.0,31.21,11.067707,35.47061126107584,213.17083145294023,9.982414537575565,0.03162277660168379,0.6237018395762172,0.28002560842019963
13027196,1776,1,202308.0,232570,0.84,-0.35,9.97,-0.03,-0.01,0.0,31.21,11.10771,14.582738412124224,-199.94030702672757,10.011443452369894,0.03162277660168379,0.25034496792995187,-0.2481972267467079
13067172,1777,1,201895.0,232386,0.84,-0.37,9.99,-0.03,-0.01,-0.0,31.21,11.147686,8.546326235952144,-481.0000548653405,10.03207854833683,0.03162277660168379,0.14244810440724287,-0.6075731017254822
13107193,1767,1,202022.0,232936,0.84,-0.35,9.96,-0.03,-0.01,-0.0,31.21,11.187707,2.0084915257802116,-494.8362615107765,10.001484889755123,0.03162277660168379,0.02558864569732096,-0.6252647096765642
13147193,1776,1,202334.0,233462,0.84,-0.34,9.97,-0.03,-0.01,-0.0,31.21,11.227707,8.543188483107107,-268.1569092507379,10.01109884078666,0.03162277660168379,0.14239201915649982,-0.33542210082013685
13187192,1763,1,202660.0,233741,0.85,-0.36,9.96,-0.03,-0.01,-0.0,31.21,11.267706,-8.542398537127479,40.57589088071202,10.002684639635502,0.03162277660168379,-0.16300151546734723,0.05933780711800025
13227192,1735,1,202738.0,233738,0.85,-0.35,9.95,-0.03,-0.01,-0.0,31.21,11.307706,-31.39586410096431,266.29701647427055,9.992372090750022,0.03162277660168379,-0.5714920530578241,0.34795518344169224
13267878,1761,1,202739.0,233489,0.84,-0.33,9.96,-0.03,-0.01,-0.0,31.29,11.348392,-14.694039488920817,354.12914849740304,10.000804967601358,0.03162277660168379,-0.27295801691971466,0.46026137292560665
13306191,1728,1,202688.0,233478,0.85,-0.36,9.96,-0.03,-0.01,-0.0,31.29,11.386705,-41.10535420342833,378.0640116701866,10.002684639635502,0.03162277660168379,-0.7450427480544325,0.4908655859492213
13346195,1693,1,202754.0,234089,0.86,-0.34,9.97,-0.03,-0.01,-0.0,31.29,11.426709,-82.96726389218709,455.2436905699747,10.01279681208003,0.03162277660168379,-1.4932966155284446,0.5895510606516279
13386192,1679,1,202987.0,234530,0.84,-0.37,9.97,-0.03,-0.01,-0.0,31.29,11.466706,-94.31039639559613,627.6082377648207,10.01216260355374,0.03162277660168379,-1.6960475847998047,0.8099442704222303
13426195,1663,1,202941.0,234079,0.85,-0.35,9.96,-0.03,-0.01,-0.0,31.29,11.506709,-113.21049190462115,801.0530424957024,10.002329728618228,0.03162277660168379,-2.0338742550449456,1.0317187469882407
13466192,1663,1,202808.0,233419,0.86,-0.34,9.97,-0.03,-0.01,-0.0,31.29,11.546706,-111.5057094652871,790.4663083250011,10.01279681208003,0.03162277660168379,-2.00340239977323,1.018182063471581
13506195,1675,1,202670.0,232900,0.86,-0.35,9.97,-0.03,-0.01,-0.0,31.29,11.586709,-103.5704908310803,449.65472819696583,10.013141365226,0.03162277660168379,-1.8615656303462609,0.5824047572109202
13546196,1680,1,202139.0,230106,0.84,-0.34,9.97,-0.03,-0.01,-0.0,31.29,11.62671,-92.60445305144833,-196.35924229015126,10.01109884078666,0.03162277660168379,-1.6655549791246052,-0.24361831324892122
13586192,1728,1,200942.0,227535,0.85,-0.36,9.98,-0.03,-0.01,0.0,31.29,11.666706,-52.365706937857205,-917.8430833941983,10.022599463213124,0.03162277660168379,-0.9463140838654815,-1.1661406191776131
13626192,1744,1,200387.0,226393,0.85,-0.36,9.99,-0.03,-0.01,-0.0,31.29,11.706706,-26.62139911477863,-1392.941639843316,10.032557002080775,0.03162277660168379,-0.48615165847013947,-1.7736234079371553
13666193,1774,1,200389.0,227034,0.84,-0.35,9.96,-0.03,-0.01,-0.0,31.29,11.746707,-4.648815150570125,-1404.6237844663717,10.001484889755123,0.03162277660168379,-0.09340629515883758,-1.7885607334625093
13706192,1813,1,200780.0,229084,0.84,-0.35,9.95,-0.03,-0.01,-0.0,31.29,11.786706,43.48448729909585,-981.0805274021103,9.991526409913552,0.03162277660168379,0.7669445579206221,-1.246998913353605
13746210,1851,1,201552.0,231028,0.83,-0.34,9.96,-0.03,-0.01,-0.0,31.29,11.826724,77.25049199064846,-370.415051458251,10.000304995348893,0.03162277660168379,1.370489493816952,-0.46617404809161395
13786192,1851,1,201911.0,231406,0.86,-0.37,10.01,-0.03,-0.01,-0.0,31.29,11.866706,83.6507173143961,133.15630937495206,10.053685891254013,0.03162277660168379,1.4848892760248162,0.17771537330500622
13826193,1865,1,201984.0,231118,0.83,-0.36,9.97,-0.03,-0.01,-0.0,31.29,11.906707,97.06360666796435,379.8141593972931,10.010963989546662,0.03162277660168379,1.7246357760633344,0.49310340504501077
13866192,1872,1,201964.0,230996,0.85,-0.36,9.96,-0.03,-0.01,-0.0,31.29,11.946706,110.18970128134278,432.09210877112196,10.002684639635502,0.03162277660168379,1.9592560103601855,0.5599483870916884
13906195,1872,1,201944.0,231274,0.84,-0.34,9.96,-0.03,-0.01,-0.0,31.29,11.986709,109.28713694341336,471.1924674682869,10.001139935027407,0.03162277660168379,1.9431232715166644,0.6099438977503195
13946192,1870,1,202087.0,231887,0.85,-0.36,9.97,-0.03,-0.01,-0.0,31.29,12.026706,117.2868288176362,625.0560735919522,10.012642008980446,0.03162277660168379,2.0861124573419603,0.8066809563412657
13987193,1881,1,202222.0,231891,0.84,-0.36,9.96,-0.03,-0.01,-0.0,31.29,12.067707,124.09020026336633,853.7960817235496,10.001839830751141,0.03162277660168379,2.2077182090618064,1.099158414238036
14027196,1872,1,202276.0,232227,0.85,-0.36,9.97,-0.03,-0.01,-0.0,31.29,12.10771,129.1814460690636,979.4435160044785,10.012642008980446,0.03162277660168379,2.298720850668403,1.2598169823211294
14067193,1873,1,202470.0,233016,0.87,-0.34,9.94,-0.03,-0.01,-0.0,31.29,12.147707,125.39046102035644,836.7031731632153,9.983791864817695,0.03162277660168379,2.2309595075925275,1.0773026379590023
14107193,1824,1,201963.0,230521,0.85,-0.34,9.96,-0.03,-0.01,-0.0,31.29,12.187707,88.99587361847672,425.23898463317846,10.001984803027847,0.03162277660168379,1.5804303993638555,0.5511856684798941
14147193,1803,1,200958.0,228847,0.82,-0.32,9.98,-0.03,-0.01,-0.0,31.29,12.227707,68.86847133191456,-65.54717684757814,10.018742436054538,0.03162277660168379,1.2206664345782356,-0.07635601105971063
14187193,1792,1,200662.0,228586,0.84,-0.37,9.96,-0.03,-0.01,-0.0,31.29,12.267707,63.3675943428042,-389.44143287551805,10.00220475695234,0.03162277660168379,1.1223419072883134,-0.4905020513795001
14227193,1755,1,200892.0,229154,0.84,-0.37,9.930000000000001,-0.03,-0.01,-0.0,31.29,12.307707,35.402938065891185,-427.47841303639257,9.972331723323288,0.03162277660168379,0.6224922261018745,-0.5391378775053876
14267880,1732,1,201054.0,229571,0.85,-0.35,9.96,-0.03,-0.01,-0.0,31.33,12.348394,11.19199079272036,-266.36743607996584,10.002329728618228,0.03162277660168379,0.18973760341383802,-0.33313399840973223
14306194,1689,1,201212.0,229942,0.83,-0.36,9.95,-0.03,-0.01,0.0,31.33,12.386708,-18.31252373728786,-105.37268845523715,9.991045991286397,0.03162277660168379,-0.3376360226142684,-0.12727873546455162
14346192,1663,1,201242.0,229934,0.84,-0.36,9.97,-0.03,-0.01,-0.0,31.33,12.426706,-47.51679789029859,-75.15366900301949,10.01179804031224,0.03162277660168379,-0.8596430510616496,-0.08863931220968829
14386195,1645,1,201213.0,229792,0.85,-0.36,9.99,-0.03,-0.01,-0.0,31.33,12.466709,-52.88128335924374,-125.92103822330665,10.032557002080775,0.03162277660168379,-0.9555296704010494,-0.15355279723987977
14426192,1626,1,201130.0,229782,0.85,-0.34,9.97,-0.03,-0.01,-0.0,31.33,12.506706,-73.12619720997763,-83.28916059228506,10.011942868394726,0.03162277660168379,-1.3173940764474281,-0.09904172461757811
14466195,1584,1,201302.0,230701,0.83,-0.34,9.97,-0.03,-0.01,-0.0,31.33,12.546709,-106.55378985288627,168.9046937571823,10.01026473176409,0.03162277660168379,-1.9148901214527234,0.22342489597852142
14506192,1572,1,201761.0,232059,0.85,-0.36,9.96,-0.03,-0.01,-0.0,31.33,12.586706,-116.35053793645807,531.281917306709,10.002684639635502,0.03162277660168379,-2.090000494980897,0.6867770223038789
14546193,1572,1,202063.0,232751,0.85,-0.34,9.97,-0.03,-0.01,-0.0,31.33,12.626707,-112.52939613579618,705.2811607604679,10.011942868394726,0.03162277660168379,-2.0217001199676745,0.9092604296317233
14586192,1572,1,202015.0,232105,0.83,-0.35,9.98,-0.03,-0.01,-0.0,31.33,12.666706,-107.94495291144611,401.44691988016575,10.020568846128448,0.03162277660168379,-1.9397562383258842,0.5207640440604655
14626195,1572,1,201420.0,228974,0.82,-0.34,9.98,-0.03,-0.01,-0.0,31.33,12.706709,-106.64662697148151,-407.67968946387504,10.019401179711291,0.03162277660168379,-1.9165495233660739,-0.5138223221401919
14666192,1572,1,199907.0,225661,0.82,-0.36,9.98,-0.03,-0.01,-0.0,31.33,12.746706,-103.61050648266489,-1401.1611096830309,10.020099799902196,0.03162277660168379,-1.862280883574799,-1.7841331987849196
14706192,1572,1,199173.0,224175,0.85,-0.38,10.01,-0.03,-0.01,-0.0,31.33,12.786706,-100.34254797622708,-2088.2787106342394,10.053208443079253,0.03162277660168379,-1.803868293003392,-2.6627132549975525
14746192,1572,1,199396.0,224524,0.85,-0.35,9.99,-0.03,-0.01,-0.0,31.33,12.826706,-103.17344774773646,-2135.599104835348,10.032203147863385,0.03162277660168379,-1.854468748601623,-2.723219279788156
14786192,1572,1,200018.0,227035,0.87,-0.36,9.930000000000001,-0.03,-0.01,-0.0,31.33,12.866706,-95.55645699442127,-1591.1442887369572,9.974537583266706,0.03162277660168379,-1.7183200914558558,-2.027054398739024
14826189,1572,1,201182.0,230821,0.86,-0.34,9.94,-0.03,-0.01,0.0,31.33,12.906703,-103.5612809238438,-828.5416245407616,9.982925422940912,0.03162277660168379,-1.8614010093636055,-1.0519556810670063
14866171,1572,1,201816.0,232470,0.82,-0.34,9.99,-0.03,-0.01,0.0,31.33,12.946685,-95.91582118662944,-260.3588204750523,10.029361893959157,0.03162277660168379,-1.7247434880149395,-0.32545110711337044
14906171,1672,1,201765.0,232190,0.79,-0.36,9.97,-0.03,-0.01,-0.0,31.33,12.986685,-1.7974625636619717,-53.17395961238009,10.00772701466222,0.03162277660168379,-0.04244025905229618,-0.060535048419571025
14946191,1759,1,201655.0,231327,0.83,-0.36,9.98,-0.03,-0.01,-0.0,31.33,13.026705,84.73217743571206,-62.213928716682965,10.020923111170946,0.03162277660168379,1.5042196583296368,-0.07209396723175679
14985191,1770,1,201804.0,230883,0.83,-0.36,9.98,-0.03,-0.01,-0.0,31.33,13.065705,98.775564267632,-10.83009798789009,10.020923111170946,0.03162277660168379,1.7552358825665222,-0.00639224626342881
15025214,1765,1,202290.0,231411,0.86,-0.35,9.96,-0.03,-0.01,-0.0,31.33,13.105728,82.16951075326836,257.8159005125807,10.003184492950233,0.03162277660168379,1.4584136912717076,0.3371108398707342
15065191,1729,1,203107.0,233005,0.87,-0.36,9.98,-0.03,-0.01,-0.0,31.33,13.145705,57.068868898144146,665.5334172761319,10.024315437973808,0.03162277660168379,1.0097563680913413,0.8584371431135936
15105192,1767,1,203231.375,235009,0.89,-0.34,9.930000000000001,-0.03,-0.01,-0.0,31.33,13.185706,77.45029836053483,990.2300388665514,9.975600232567464,0.03162277660168379,1.3740609001413406,1.273609124815194
15145191,1772,1,203231.375,236743,0.88,-0.35,9.94,-0.03,-0.01,-0.0,31.33,13.225705,94.00700621014259,1058.9892704416193,9.985013770646487,0.03162277660168379,1.670001070411047,1.361527829646407
15185222,1741,1,203231.375,233512,0.85,-0.36,10.0,-0.03,-0.01,-0.0,31.33,13.265736,48.055288008021215,877.4912612158059,10.042514625331645,0.03162277660168379,0.84864458864867,1.1294561567226638
15225191,1744,1,202911.0,232264,0.88,-0.34,9.95,-0.03,-0.01,-0.0,31.33,13.305705,54.40430152389977,608.4170340484277,9.994623554691792,0.03162277660168379,0.962128993761144,0.7854055177886269
15265194,1765,1,202718.0,232974,0.87,-0.34,9.97,-0.03,-0.01,0.0,31.33,13.345708,72.64029336573162,438.8816332660321,10.013660669305706,0.03162277660168379,1.288085251474331,0.5686297842850325
15305878,1738,1,202987.0,233918,0.86,-0.34,9.97,-0.03,-0.01,-0.0,31.47,13.386392,32.049744158883314,450.06244307603737,10.01279681208003,0.03162277660168379,0.5625561092843779,0.5829260801414892
15346192,1734,1,203174.0,235031,0.84,-0.36,9.930000000000001,-0.03,-0.01,-0.0,31.47,13.426706,44.11758732125111,581.8330423812162,9.971965703912144,0.03162277660168379,0.7782608008631355,0.7514140076584805
15386171,1774,1,203231.375,236637,0.85,-0.36,9.97,-0.03,-0.01,0.0,31.47,13.466685,52.73180778752808,702.7617942051145,10.012642008980446,0.03162277660168379,0.9322342776368525,0.9060390520876779
15426191,1729,1,203231.375,238114,0.86,-0.34,9.97,-0.03,-0.01,-0.0,31.47,13.506705,35.702679702066455,719.5022470109652,10.01279681208003,0.03162277660168379,0.6278499090212316,0.9274441622854498
15466189,1773,1,203231.375,239602,0.84,-0.34,9.99,-0.03,-0.01,0.0,31.47,13.546703,46.224016609103806,642.527618129057,10.031016897603154,0.03162277660168379,0.8159118271281784,0.8290208739336562
15506171,1715,1,203231.375,240544,0.86,-0.34,9.97,-0.03,-0.01,-0.0,31.47,13.586685,7.212712185713262,566.6603916169222,10.01279681208003,0.03162277660168379,0.11861063788390155,0.7320135610057763
15546191,1717,1,203231.375,241100,0.86,-0.36,9.95,-0.03,-0.01,-0.0,31.47,13.626705,-5.675659057714665,584.6010444178964,9.993582941067732,0.03162277660168379,-0.11176044886385476,0.7549533019242899
15586191,1744,1,203231.375,241206,0.83,-0.35,9.98,-0.03,-0.01,-0.0,31.47,13.666705,17.975220410199466,693.9196764041134,10.020568846128448,0.03162277660168379,0.3109833333143532,0.8947331150197175
15626188,1730,1,203231.375,241182,0.84,-0.36,9.97,-0.03,-0.01,-0.0,31.47,13.706702,9.48762173017308,767.3966296169357,10.01179804031224,0.03162277660168379,0.1592731369779813,0.9886841149572645
15666191,1744,1,203231.375,240673,0.83,-0.4,9.96,-0.03,-0.01,-0.0,31.47,13.746705,8.48114344336476,624.8227022000951,10.002524681299217,0.03162277660168379,0.14128300522737042,0.8063825569838742
15706188,1702,1,203231.375,238058,0.87,-0.38,9.96,-0.03,-0.01,0.0,31.47,13.786702,-26.66172866063263,173.33991956163888,10.005143677129281,0.03162277660168379,-0.4868725223505283,0.22909597896519038
15746191,1695,1,202179.0,232265,0.87,-0.37,9.94,-0.03,-0.01,-0.0,31.47,13.826705,-39.25390946644593,-487.16125313542415,9.984858536804614,0.03162277660168379,-0.7119494014975866,-0.6154510922106243
15786191,1728,1,201109.0,231002,0.82,-0.35,9.99,-0.03,-0.01,0.0,31.47,13.866705,-14.127358879815239,-1094.8594789899419,10.029705878040492,0.03162277660168379,-0.2628289769275511,-1.3924818955148344
15826191,1697,1,201114.0,231255,0.84,-0.36,9.98,-0.03,-0.01,-0.0,31.47,13.906705,-34.40347469453294,-1390.9088886022691,10.021756333098505,0.03162277660168379,-0.625251097382977,-1.7710242390362962
15866191,1717,1,201379.0,231767,0.87,-0.36,9.95,-0.03,-0.01,-0.0,31.47,13.946705,-34.03947245863149,-1293.8121194944029,9.994448459019637,0.03162277660168379,-0.6187447988694244,-1.6468718599635446
15906191,1712,1,201651.0,232609,0.83,-0.37,10.0,-0.03,-0.01,-0.0,31.47,13.986705,-21.76946326973265,-942.3161676538484,10.04120510695803,0.03162277660168379,-0.399426523668983,-1.19743302635038
15946188,1724,1,202001.0,233249,0.85,-0.36,9.95,-0.03,-0.01,-0.0,31.47,14.026702,-29.29015053883914,-577.4051702538926,9.992727355432049,0.03162277660168379,-0.5338538199153993,-0.7308411006531852
15986191,1712,1,202079.0,233503,0.86,-0.35,9.96,-0.03,-0.01,-0.0,31.47,14.066705,-26.89927537743189,-364.40602044724017,10.003184492950233,0.03162277660168379,-0.4911185123417239,-0.45849062563797743
16025214,1714,1,202198.0,233499,0.84,-0.36,9.95,-0.03,-0.01,-0.0,31.47,14.105728,-39.917177238111826,-292.7575118864799,9.99188170466404,0.03162277660168379,-0.723804872951464,-0.36687755883293427
16065191,1692,1,202223.0,233568,0.85,-0.35,9.99,-0.03,-0.01,-0.0,31.47,14.145705,-49.475447456634676,-220.78522871253082,10.032203147863385,0.03162277660168379,-0.8946526128311363,-0.2748504989683889
16105191,1728,1,202292.0,233552,0.83,-0.33,9.98,-0.03,-0.01,-0.0,31.47,14.185705,-28.52634981586934,-22.90234332080535,10.019890218959487,0.03162277660168379,-0.5202013886433718,-0.02182837243531322
16145191,1718,1,202524.0,233947,0.87,-0.34,9.95,-0.03,-0.01,-0.0,31.47,14.225705,-22.580496795859894,277.08687887446365,9.993748045653343,0.03162277660168379,-0.4139232099665686,0.3617515960222534
16185191,1714,1,202744.0,234510,0.85,-0.36,9.94,-0.03,-0.01,-0.0,31.47,14.265705,-45.26132946049937,496.1031678195389,9.982770156624863,0.03162277660168379,-0.8193280489962758,0.6417958609144143
16225191,1725,1,202957.0,235000,0.85,-0.34,9.96,-0.03,-0.01,-0.0,31.47,14.305705,-15.152323159405473,426.73136115739425,10.001984803027847,0.03162277660168379,-0.28114953353684624,0.5530938895016243
16265191,1793,1,202685.0,232703,0.85,-0.36,9.98,-0.03,-0.01,-0.0,31.47,14.345705,35.64897276818998,20.307252004885747,10.022599463213124,0.03162277660168379,0.6268899332035485,0.03342139650906651
16305191,1751,1,201402.0,230780,0.84,-0.34,9.96,-0.03,-0.01,-0.0,31.47,14.385705,6.770916235296875,-534.7618339944509,10.001139935027407,0.03162277660168379,0.11071382832620981,-0.6763153765034193
16345878,1744,1,201082.0,231296,0.85,-0.36,9.96,-0.03,-0.01,-0.0,31.33,14.426392,-4.961564651368415,-920.7197589441748,10.002684639635502,0.03162277660168379,-0.09899648502983928,-1.169818868378194
16386191,1779,1,201381.0,232753,0.86,-0.35,9.97,-0.03,-0.01,0.0,31.33,14.466705,27.26673343596949,-909.9692447831878,10.013141365226,0.03162277660168379,0.4770629653213115,-1.1560727682596712
16426192,1738,1,201680.0,234282,0.84,-0.37,9.96,-0.03,-0.01,0.0,31.33,14.506706,0.22063446502026757,-522.436935991017,10.00220475695234,0.03162277660168379,-0.00636811332658905,-0.6605561970475567
16466171,1745,1,202218.0,236230,0.84,-0.35,9.97,-0.03,-0.01,-0.0,31.33,14.546685,-12.587573718964917,1.5368630633753038,10.011443452369894,0.03162277660168379,-0.23530633856127667,0.009420716933204142
16506191,1748,1,202602.0,237230,0.83,-0.36,9.97,-0.03,-0.01,-0.0,31.33,14.586705,18.917531649032004,384.1575843871666,10.010963989546662,0.03162277660168379,0.3278265216462513,0.4986571073027839
16546191,1750,1,202672.0,237020,0.84,-0.34,9.97,-0.03,-0.01,-0.0,31.33,14.626705,-7.2046650461417965,503.8896314237202,10.01109884078666,0.03162277660168379,-0.13909041667320074,0.6517519901440961
16586191,1723,1,202621.0,236345,0.86,-0.34,9.96,-0.03,-0.01,-0.0,31.33,14.666705,-3.5159349361989674,456.24009071402065,10.002839596834491,0.03162277660168379,-0.07315681279908667,0.5908251035423271
16626191,1827,1,202467.0,235444,0.82,-0.36,9.98,-0.03,-0.01,-0.0,31.33,14.706705,78.48599341551153,442.3751206793252,10.020099799902196,0.03162277660168379,1.3925732622426361,0.5730967174034685
16666191,1820,1,202527.0,235408,0.86,-0.36,9.94,-0.03,-0.01,0.0,31.33,14.746705,90.0712018274147,576.1390201955339,9.983626595581386,0.03162277660168379,1.599651177802394,0.744133369926239
16706192,1779,1,202689.0,236077,0.86,-0.36,9.97,-0.03,-0.01,0.0,31.33,14.786706,44.056355492429894,766.0326519210903,10.01349589304355,0.03162277660168379,0.7771663225397951,0.9869400705622007
16746192,1744,1,202917.0,236941,0.85,-0.36,9.96,-0.03,-0.01,0.0,31.33,14.826706,11.068114063013303,777.6927021051321,10.002684639635502,0.03162277660168379,0.18752338904133345,1.0018491451252098
16786192,1721,1,203075.0,236069,0.85,-0.36,9.95,-0.03,-0.01,-0.0,31.33,14.866706,-3.783239563605869,438.1277999342432,9.992727355432049,0.03162277660168379,-0.07793470570311306,0.5676658984376882
16826229,1726,1,201801.0,231978,0.84,-0.36,9.98,-0.03,-0.01,0.0,31.33,14.906743,-2.1672431697016363,-187.60612581580114,10.021756333098505,0.03162277660168379,-0.049049842099109814,-0.23242617735628188
16866192,1689,1,200796.0,230903,0.82,-0.36,10.0,-0.03,-0.01,-0.0,31.33,14.946706,-33.370779933224874,-809.8120707320312,10.040019920298963,0.03162277660168379,-0.6067923635408272,-1.028007215163452
16906189,1680,1,200792.0,231424,0.84,-0.36,10.0,-0.03,-0.01,-0.0,31.33,14.986703,-36.2495118130223,-1118.7714992404458,10.041673167356125,0.03162277660168379,-0.6582477863462894,-1.4230569005310967
16946192,1711,1,201159.0,232127,0.86,-0.37,9.96,-0.03,-0.01,-0.0,31.33,15.026706,-11.971478239145066,-1007.8186284698393,10.003904237846342,0.03162277660168379,-0.22429404053340496,-1.2811874748263192
16986190,1664,1,201501.0,233153,0.83,-0.35,10.0,-0.03,-0.01,-0.0,31.33,15.066704,-40.64633166492808,-627.5199188702616,10.040488035947257,0.03162277660168379,-0.7368380246616346,-0.7949201150686199
17027194,1680,1,201822.0,233981,0.85,-0.35,9.96,-0.03,-0.01,-0.0,31.33,15.107708,-39.75236047796955,-239.32364097742428,10.002329728618228,0.03162277660168379,-0.7208588826916333,-0.2985545625336877
17065191,1675,1,201999.0,234216,0.84,-0.33,9.99,-0.03,-0.01,0.0,31.33,15.145705,-22.95244266838096,-5.888317406193803,10.030682927896784,0.03162277660168379,-0.42057149571545355,-7.345912241141194e-05
17105192,1680,1,201999.0,234430,0.85,-0.36,9.97,-0.03,-0.01,-0.0,31.33,15.185706,-31.872856800610588,109.73498518180608,10.012642008980446,0.03162277660168379,-0.5800179811609808,0.14776779475702248
17145191,1713,1,202197.0,235315,0.84,-0.34,9.96,-0.03,-0.01,0.0,31.33,15.225705,18.27166063452486,268.4191674600237,10.001139935027407,0.03162277660168379,0.3162820056868155,0.3506686629534579
17185192,1772,1,202487.0,236318,0.84,-0.36,9.97,-0.03,-0.01,-0.0,31.33,15.265706,69.72289155628316,576.8145992034396,10.01179804031224,0.03162277660168379,1.2359386293272365,0.7449971962085524
17225205,1747,1,202736.0,237052,0.83,-0.36,9.99,-0.03,-0.01,-0.0,31.33,15.305719,54.429507949001284,954.4633344153891,10.030882314133688,0.03162277660168379,0.9625795418896845,1.2278761772619058
17265191,1728,1,202897.0,237658,0.85,-0.35,9.99,-0.03,-0.01,-0.0,31.33,15.345705,34.77828391321779,1158.0735598696886,10.032203147863385,0.03162277660168379,0.6113269474739603,1.4882215432916255
17305191,1712,1,203061.0,238067,0.84,-0.34,9.97,-0.03,-0.01,0.0,31.33,15.385705,22.129840906298984,957.6879046333903,10.01109884078666,0.03162277660168379,0.3852444188024825,1.2319992605295607
17345879,1702,1,202634.0,233802,0.83,-0.37,9.95,-0.03,-0.01,-0.0,31.15,15.426393,15.203570328457758,336.14254893125843,9.991411311721683,0.03162277660168379,0.26144192661869065,0.43726288236733674
17386193,1692,1,200829.0,231036,0.83,-0.36,9.97,-0.03,-0.01,-0.0,31.15,15.466707,6.979076614936762,-453.68815018068443,10.010963989546662,0.03162277660168379,0.11443455703348686,-0.5726508486498794
17426192,1664,1,200442.0,231013,0.84,-0.35,9.96,-0.03,-0.01,-0.0,31.15,15.506706,-20.150583299433624,-1038.3585964233155,10.001484889755123,0.03162277660168379,-0.37049011804968224,-1.3202372775444458
17466192,1665,1,200639.0,231174,0.83,-0.34,9.98,-0.03,-0.01,-0.0,31.15,15.546706,-13.922189579615143,-1170.9954810164324,10.020224548382137,0.03162277660168379,-0.259161711781191,-1.4898328771337568
17506193,1687,1,200861.0,231581,0.86,-0.36,9.96,-0.03,-0.01,-0.0,31.15,15.586707,4.347131598232707,-879.631144897657,10.003539373641713,0.03162277660168379,0.06739028570497177,-1.1172810833051376
17546189,1653,1,201257.0,232582,0.85,-0.36,9.98,-0.03,-0.01,-0.0,31.15,15.626703,-23.119461560797383,-407.78172725582067,10.022599463213124,0.03162277660168379,-0.42355684762894674,-0.5139527923375194
17586192,1637,1,201596.0,233015,0.85,-0.34,9.96,-0.03,-0.01,0.0,31.15,15.666706,-40.659820370675085,-13.08347680598172,10.001984803027847,0.03162277660168379,-0.7370791263294146,-0.00927351969599204
17626192,1680,1,201678.0,233211,0.85,-0.36,10.0,-0.03,-0.01,-0.0,31.15,15.706706,-0.3186383326131219,209.21899607781373,10.042514625331645,0.03162277660168379,-0.016007256869079414,0.2749726105909849
17666192,1697,1,201766.0,233734,0.86,-0.35,9.96,-0.03,-0.01,-0.0,31.15,15.746706,28.818119335084855,351.7641991534555,10.003184492950233,0.03162277660168379,0.5047929591889692,0.45723744030523844
17706192,1697,1,201967.0,234396,0.86,-0.35,9.98,-0.03,-0.01,-0.0,31.15,15.786706,7.61797291571862,568.9582205321368,10.023098323372869,0.03162277660168379,0.125854404611612,0.7349516703697361
17746192,1685,1,202192.0,234953,0.85,-0.34,9.97,-0.03,-0.01,-0.0,31.15,15.826706,25.341479119211154,908.6441041379056,10.011942868394726,0.03162277660168379,0.44265032148599454,1.169289609464657
17786192,1729,1,202337.0,235474,0.85,-0.35,9.98,-0.03,-0.01,-0.0,31.15,15.866706,33.24338804608462,1236.302990200702,10.022245257426103,0.03162277660168379,0.5838917019896703,1.5882492782856887
17826191,1645,1,202629.0,236097,0.83,-0.36,10.0,-0.03,-0.01,0.0,31.15,15.906705,-14.73404509710784,1317.0501258666557,10.040841598192852,0.03162277660168379,-0.2736730906291835,1.691496266711241
17866189,1712,1,202618.0,235482,0.86,-0.36,9.96,-0.03,-0.01,-0.0,31.15,15.946703,17.88159371499116,1000.0660434395716,10.003539373641713,0.03162277660168379,0.3093098182427931,1.2861858910611883
17906192,1733,1,201467.0,231396,0.83,-0.35,9.97,-0.03,-0.01,0.0,31.15,15.986706,63.84690942016217,359.9548988499669,10.010609372061223,0.03162277660168379,1.1309093463525663,0.46771044432932374
17946172,1727,1,200293.0,230211,0.83,-0.38,10.0,-0.03,-0.01,0.0,31.15,16.026686,38.65802220385964,-329.229258646014,10.041578561162583,0.03162277660168379,0.6806746958768319,-0.4135120057948594
17986172,1708,1,200237.0,230142,0.84,-0.37,9.99,-0.03,-0.01,-0.0,31.15,16.066686,27.609357902846764,-775.8970587439387,10.03207854833683,0.03162277660168379,0.4831871503940481,-0.9846419264593046
18026197,1710,1,200245.0,230364,0.85,-0.35,9.96,-0.03,-0.01,-0.0,31.15,16.106711,23.827917414299282,-861.7272423740166,10.002329728618228,0.03162277660168379,0.41559640999984493,-1.0943883329755437
18065191,1696,1,200305.0,230918,0.82,-0.39,9.96,-0.03,-0.01,0.0,31.15,16.145705,8.685503603217223,-690.621658294105,10.001304914859862,0.03162277660168379,0.1449358075267427,-0.8756048911438757
18105171,1650,1,200457.0,231127,0.82,-0.36,9.97,-0.03,-0.01,0.0,31.15,16.185685,-39.73498268145216,-473.08949090395924,10.010139859162809,0.03162277660168379,-0.7205482661060788,-0.5974582920913778
18145192,1580,1,200448.0,231062,0.85,-0.35,9.97,-0.03,-0.01,-0.0,31.15,16.225706,-110.49272693278388,-354.1818475806926,10.012287450927486,0.03162277660168379,-1.9852960089452767,-0.44541752962154035
18185192,1572,1,200473.0,230906,0.83,-0.36,9.99,-0.03,-0.01,-0.0,31.15,16.265706,-123.88339225975689,-318.6402102277194,10.030882314133688,0.03162277660168379,-2.2246452692502428,-0.39997236317516155
18225192,1572,1,200594.0,231020,0.84,-0.37,9.96,-0.03,-0.01,-0.0,31.15,16.305706,-120.66332858486223,-232.20262734779843,10.00220475695234,0.03162277660168379,-2.167088767022646,-0.2894493081400488
18265191,1572,1,200788.0,231342,0.84,-0.37,9.95,-0.03,-0.01,0.0,31.15,16.345705,-129.84612087947954,22.410338618218507,9.99224699454532,0.03162277660168379,-2.3312250880778476,0.03611049944050654
18305192,1572,1,200997.0,232151,0.82,-0.37,10.0,-0.03,-0.01,-0.0,31.15,16.385706,-122.98370007589416,417.4405229751741,10.040383458812716,0.03162277660168379,-2.208563868255481,0.5412141979887052
18345878,1572,1,201370.0,233091,0.85,-0.34,9.94,-0.03,-0.01,-0.0,31.47,16.426392,-133.8444299095326,758.0050360827474,9.982068923825361,0.03162277660168379,-2.4026922097963017,0.976675593033549
18386192,1572,1,201577.0,233624,0.83,-0.37,9.97,-0.03,-0.01,0.0,31.47,16.466706,-126.75483299381449,796.5829350879259,10.01132858316018,0.03162277660168379,-2.275970367662033,1.0260030627848904
18426192,1611,1,201555.0,231581,0.84,-0.36,9.96,-0.03,-0.01,-0.0,31.47,16.506706,-94.45704975590367,414.6150962798802,10.001839830751141,0.03162277660168379,-1.6986689163358966,0.5376014779225338
18466192,1629,1,200213.0,228244,0.83,-0.34,9.96,-0.03,-0.01,-0.0,31.47,16.546706,-75.91160766149258,-264.938704128479,10.000304995348893,0.03162277660168379,-1.367181440625137,-0.33130715625562
18506192,1682,1,199482.0,227231,0.85,-0.35,9.96,-0.03,-0.01,-0.0,31.47,16.586706,-18.85916718922063,-933.8192436070937,10.002329728618228,0.03162277660168379,-0.34740691171319255,-1.1865684698373495
18546192,1747,1,199427.0,227275,0.85,-0.35,9.99,-0.03,-0.01,0.0,31.47,16.626706,37.104206232783,-1291.647411516718,10.032203147863385,0.03162277660168379,0.6529012660848034,-1.644103965131444
18586192,1771,1,199522.0,227746,0.86,-0.36,9.98,-0.03,-0.01,-0.0,31.47,16.666706,73.94994344794476,-1229.6017293404952,10.0234524990145,0.03162277660168379,1.3114943779652035,-1.564769512253693
18626192,1842,1,199871.0,228942,0.83,-0.35,9.96,-0.03,-0.01,-0.0,31.47,16.706706,134.237179146958,-869.6190369359736,10.000649978876375,0.03162277660168379,2.38908872582214,-1.1044791431953145
18666192,1840,1,200364.0,229982,0.82,-0.35,9.97,-0.03,-0.01,-0.0,31.47,16.746706,142.467539633485,-446.3610302421516,10.009785212480836,0.03162277660168379,2.5362009600832263,-0.5632820572835089
18706192,1836,1,200611.0,230449,0.84,-0.34,9.98,-0.03,-0.01,-0.0,31.47,16.786706,137.75000273625298,-137.07003160137396,10.021057828393168,0.03162277660168379,2.4518781173235444,-0.16780841114826545
18746192,1872,1,200806.0,230708,0.84,-0.34,9.95,-0.03,-0.01,-0.0,31.47,16.826706,173.42222225660353,32.479274827339346,9.991181111360158,0.03162277660168379,3.0894953788373414,0.04898510275202755
18784194,1867,1,200909.0,231296,0.85,-0.35,9.96,-0.03,-0.01,-0.0,31.47,16.864708,179.75008380865043,149.53115811346717,10.002329728618228,0.03162277660168379,3.2026017066270325,0.19865300538609673
18824191,1862,1,201064.0,231456,0.86,-0.33,9.96,-0.03,-0.01,-0.0,31.47,16.904705,167.54557750881193,290.323534257868,10.00250468632732,0.03162277660168379,2.984454252118588,0.3786765902513627
18864214,1835,1,201166.0,231250,0.85,-0.35,9.96,-0.03,-0.01,0.0,31.47,16.944728,156.48158613802445,419.71916538013227,10.002329728618228,0.03162277660168379,2.786692745430471,0.5441277746013042
18904191,1829,1,201179.0,231090,0.84,-0.36,9.96,-0.03,-0.01,-0.0,31.47,16.984705,144.06793888801886,404.1768411376443,10.001839830751141,0.03162277660168379,2.564807035167017,0.5242546464966878
18944194,1785,1,201364.0,231025,0.83,-0.35,9.94,-0.03,-0.01,-0.0,31.47,17.024708,114.87247692409015,137.0291184781152,9.980731436122305,0.03162277660168379,2.0429575187540974,0.18266732452099538
18984191,1738,1,200820.0,228619,0.85,-0.33,9.95,-0.03,-0.01,-0.0,31.47,17.064705,64.09233382794805,-325.8472138991648,9.991691548481668,0.03162277660168379,1.1352961448446481,-0.40918756837732423
19024201,1695,1,199919.0,227893,0.85,-0.36,9.99,-0.03,-0.01,-0.0,31.47,17.104715,35.49823942769819,-749.1140374676786,10.032557002080775,0.03162277660168379,0.6241956747280316,-0.9503959279492015
19064191,1651,1,199967.0,229366,0.84,-0.34,9.97,-0.03,-0.01,-0.0,31.47,17.144705,-12.219697192551992,-860.3336227323956,10.01109884078666,0.03162277660168379,-0.22873078967476004,-1.0926063870300764
19105191,1572,1,200498.0,231130,0.84,-0.37,9.99,-0.03,-0.01,-0.0,31.47,17.185705,-75.95355700019229,-549.8550109406342,10.03207854833683,0.03162277660168379,-1.3679312572281874,-0.6956142042898823
19145192,1572,1,200994.0,233472,0.85,-0.34,9.98,-0.03,-0.01,-0.0,31.47,17.225706,-79.48256646877569,37.514912596042514,10.021901017272123,0.03162277660168379,-1.4310099605853117,0.05542389999396844
19185192,1572,1,201848.0,235438,0.85,-0.35,9.96,-0.03,-0.01,-0.0,31.47,17.265706,-66.1874864432185,601.9154980716544,10.002329728618228,0.03162277660168379,-1.1933692241386649,0.7770923559135209
19225192,1572,1,202095.0,235459,0.84,-0.37,9.97,-0.03,-0.01,-0.0,31.47,17.305706,-66.50300352173103,903.5197782306313,10.01216260355374,0.03162277660168379,-1.1990088826254945,1.1627374115040277
19265191,1572,1,201994.0,234468,0.85,-0.36,9.96,-0.03,-0.01,0.0,31.47,17.345705,-58.29698339139638,922.3693003277522,10.002684639635502,0.03162277660168379,-1.0523317160856858,1.1868392743594456
19305192,1572,1,201837.0,233743,0.88,-0.34,9.99,-0.03,-0.01,0.0,31.47,17.385706,-54.716406640415165,837.3778903902655,10.034445674774467,0.03162277660168379,-0.9883312817617669,1.0781653623288172
19345878,1572,1,201801.0,233746,0.86,-0.34,9.98,-0.03,-0.01,-0.0,31.33,17.426392,-51.066625048565676,846.5091778170787,10.022754112518175,0.03162277660168379,-0.9230938568128955,1.0898410449334213
19384191,1572,1,201981.0,234029,0.83,-0.38,9.98,-0.03,-0.01,-0.0,31.33,17.464705,-46.16497256184874,980.4831865185935,10.021661538886653,0.03162277660168379,-0.8354800700203535,1.2611463526901452
19424192,1572,1,202154.0,234376,0.84,-0.35,9.96,-0.03,-0.01,-0.0,31.33,17.504706,-44.71337519965321,1068.7512819477913,10.001484889755123,0.03162277660168379,-0.809533730057522,1.3740099849659153
19464191,1572,1,202311.0,234506,0.85,-0.35,9.98,-0.03,-0.01,-0.0,31.33,17.544705,-41.11059647447367,889.9753089526488,10.022245257426103,0.03162277660168379,-0.7451364501720182,1.1454188323217356
19504192,1572,1,201733.0,231037,0.84,-0.36,9.97,-0.03,-0.01,-0.0,31.33,17.584706,-40.506792405645186,380.2636980123781,10.01179804031224,0.03162277660168379,-0.7343438529623698,0.49367820572129145
19544191,1572,1,200355.0,229159,0.84,-0.37,9.97,-0.03,-0.01,-0.0,31.33,17.624705,-39.37498367492062,-282.8406930621007,10.01216260355374,0.03162277660168379,-0.7141135226620557,-0.3541974597813132
19584194,1572,1,200105.0,229173,0.84,-0.38,9.95,-0.03,-0.01,0.0,31.33,17.664708,-39.24585359040199,-797.0240954159381,9.992622278461244,0.03162277660168379,-0.7118054080569961,-1.0116559238320915
19624171,1572,1,200143.0,229529,0.85,-0.33,9.95,-0.03,-0.01,-0.0,31.33,17.704685,-41.14193234247624,-952.2556384765712,9.991691548481668,0.03162277660168379,-0.7456965580265789,-1.2101420892852583
19664191,1572,1,200306.0,229904,0.83,-0.36,9.97,-0.03,-0.01,-0.0,31.33,17.744705,-41.34561262076625,-765.111835630339,10.010963989546662,0.03162277660168379,-0.7493372078940075,-0.9708514458832073
19704191,1572,1,200610.0,230371,0.83,-0.39,9.96,-0.03,-0.01,0.0,31.33,17.784705,-46.087258488631214,-430.2656432856413,10.002129773203306,0.03162277660168379,-0.8340909825115773,-0.5427017578450449
19744192,1572,1,200831.0,230563,0.85,-0.35,9.99,-0.03,-0.01,-0.0,31.33,17.824706,-47.82176864867114,-147.4581563669071,10.032203147863385,0.03162277660168379,-0.8650942010716555,-0.1810911435769084
19784191,1572,1,200934.0,231078,0.85,-0.34,9.96,-0.03,-0.01,-0.0,31.33,17.864705,-52.93930683117941,26.75809553185029,10.001984803027847,0.03162277660168379,-0.9565668014732565,0.041669740694535655
19824192,1572,1,201108.0,232261,0.87,-0.34,9.95,-0.03,-0.01,0.0,31.33,17.904706,-59.60516401926654,188.22671265419947,9.993748045653343,0.03162277660168379,-1.075714577054909,0.24813091489752792
19864171,1572,1,201255.0,233414,0.84,-0.36,9.99,-0.03,-0.01,0.0,31.33,17.944685,-61.38499697078273,456.41374645487,10.03171470886209,0.03162277660168379,-1.1075279104487101,0.5910471477314817
19904171,1572,1,201435.0,234342,0.82,-0.36,9.99,-0.03,-0.01,-0.0,31.33,17.984685,-74.95428625083026,817.0420165815698,10.030059820359996,0.03162277660168379,-1.3500699554284616,1.0521629820532383
19944191,1572,1,201641.0,235554,0.85,-0.34,9.96,-0.03,-0.01,0.0,31.33,18.024705,-74.28272146977343,1074.6796292537706,10.001984803027847,0.03162277660168379,-1.3380661804353668,1.3815902415364427
19984192,1585,1,201906.0,236564,0.83,-0.36,9.98,-0.03,-0.01,0.0,31.33,18.064706,-76.05355724769734,976.8802502171831,10.020923111170946,0.03162277660168379,-1.3697186953192908,1.2565394732071549
20024187,1589,1,201788.0,234032,0.83,-0.36,9.99,-0.03,-0.01,0.0,31.33,18.104701,-78.31447109945631,428.2940724620548,10.030882314133688,0.03162277660168379,-1.4101310306900896,0.5550920437971804
20064171,1644,1,199901.0,229825,0.8,-0.34,9.96,-0.03,-0.01,0.0,31.33,18.144685,-27.224435246772195,-386.5442746557191,9.997859770970987,0.03162277660168379,-0.49693052931825854,-0.48679761209853256
20104195,1702,1,199073.0,228816,0.82,-0.38,9.99,-0.03,-0.01,-0.0,31.33,18.184709,7.486017739952189,-1098.8749096359327,10.030797575467266,0.03162277660168379,0.12349579337446247,-1.3976162091720434
20144191,1697,1,199194.0,229015,0.84,-0.37,9.96,-0.03,-0.01,-0.0,31.33,18.224705,14.867589762139147,-1407.7241630320475,10.00220475695234,0.03162277660168379,0.2554364968613493,-1.79252501959161
20184191,1760,1,199401.0,229658,0.85,-0.38,9.95,-0.03,-0.01,-0.0,31.33,18.264705,40.73122235266235,-1278.0852477571066,9.993467866561636,0.03162277660168379,0.717731773323203,-1.6267627609739763
20224192,1776,1,199701.0,230269,0.87,-0.34,9.96,-0.03,-0.01,-0.0,31.33,18.304706,74.64000855196797,-923.2474458796584,10.003704313902926,0.03162277660168379,1.323828833959524,-1.1730508847416097
20264191,1856,1,199946.0,230435,0.85,-0.37,9.96,-0.03,-0.01,-0.0,31.33,18.344705,120.65856141709789,-603.8209094434313,10.00304953501681,0.03162277660168379,2.1463799409898185,-0.7646174754541142
20304191,1849,1,199998.0,230136,0.85,-0.34,9.96,-0.03,-0.01,-0.0,31.33,18.384705,119.82985868684754,-424.66395735934026,10.001984803027847,0.03162277660168379,2.1315674293890257,-0.5355391854859582
20344191,1847,1,200115.0,229839,0.82,-0.37,9.98,-0.03,-0.01,-0.0,31.33,18.424705,100.52347936089754,-291.82573166739087,10.020464061110143,0.03162277660168379,1.786478705416129,-0.36568614193991367
20384878,1874,1,200225.0,230373,0.86,-0.35,9.95,-0.03,-0.01,-0.0,31.29,18.465392,117.24995986305443,-46.54724668850309,9.99322770680224,0.03162277660168379,2.085453449235052,-0.052061829562849785
20425189,1863,1,200643.0,231936,0.87,-0.34,9.930000000000001,-0.03,-0.01,0.0,31.29,18.505703,101.26688781182345,349.07831660061777,9.973835771657765,0.03162277660168379,1.7997666383521544,0.45380314777513014
20465171,1858,1,201019.0,232882,0.83,-0.36,9.97,-0.03,-0.01,0.0,31.29,18.545685,82.44026755507745,736.1280836294516,10.010963989546662,0.03162277660168379,1.4632532895032464,0.9487027189730247
20505218,1887,1,201280.0,233482,0.83,-0.34,9.98,-0.03,-0.01,-0.0,31.29,18.585732,101.81054254832418,863.2257291645053,10.020224548382137,0.03162277660168379,1.809484106145232,1.1112155936310122
20545192,1870,1,201377.0,232912,0.83,-0.35,9.96,-0.03,-0.01,0.0,31.29,18.625706,84.88464732482507,592.1383455126086,10.000649978876375,0.03162277660168379,1.5069449564598552,0.7645908405498707
20585191,1853,1,200224.0,229558,0.85,-0.35,9.95,-0.03,-0.01,-0.0,31.29,18.665705,40.332386017968126,32.18086786677023,9.992372090750022,0.03162277660168379,0.7106028384001923,0.04860354593580261
20625191,1844,1,199345.0,228794,0.87,-0.36,9.96,-0.03,-0.01,-0.0,31.29,18.705705,51.99427029441174,-519.3533707787406,10.004404030225889,0.03162277660168379,0.9190512841772974,-0.6566134092426937
20665191,1891,1,199472.0,229615,0.87,-0.35,9.95,-0.03,-0.01,0.0,31.29,18.745705,55.31821551917541,-788.4708526395912,9.99409325551848,0.03162277660168379,0.9784646002011737,-1.000719355610232
20705192,1821,1,199645.0,230508,0.83,-0.37,9.98,-0.03,-0.01,-0.0,31.29,18.785706,16.818689529888662,-710.1713645414133,10.021287342452565,0.03162277660168379,0.29031111098910023,-0.9006020415442192
20745191,1887,1,199980.0,231000,0.85,-0.37,9.98,-0.03,-0.01,-0.0,31.29,18.825705,38.81121298953934,-437.73183068899493,10.022963633576648,0.03162277660168379,0.6834128795549884,-0.552248367245607
20785192,1863,1,200149.0,230482,0.85,-0.36,9.96,-0.03,-0.01,-0.0,31.29,18.865706,38.8863528786865,-185.4066830488751,10.002684639635502,0.03162277660168379,0.6847559552310374,-0.2296138690307096
20825188,1819,1,200114.0,230320,0.85,-0.34,9.96,-0.03,-0.01,-0.0,31.29,18.905702,-32.60488962139415,-51.994788772351185,10.001984803027847,0.03162277660168379,-0.5931025822539954,-0.05902730654033127
20865191,1820,1,200197.0,230401,0.85,-0.36,9.98,-0.03,-0.01,0.0,31.29,18.945705,-27.502977815255647,30.11924920427536,10.022599463213124,0.03162277660168379,-0.5019092929645776,0.04596746582684267
20905189,1854,1,200386.0,230924,0.84,-0.38,9.96,-0.03,-0.01,0.0,31.29,18.985703,2.182654287504061,194.93321994370078,10.00257966726584,0.03162277660168379,0.028701689535949745,0.25670616248723255
20945171,1825,1,200657.0,231898,0.85,-0.36,9.97,-0.03,-0.01,0.0,31.29,19.025685,-43.595109584014615,488.584924410791,10.012642008980446,0.03162277660168379,-0.7895454739558307,0.6321826903195499
20985169,1793,1,200896.0,232311,0.81,-0.35,9.98,-0.03,-0.01,-0.0,31.29,19.065683,-61.30666977044663,792.1032369756201,10.018932078819578,0.03162277660168379,-1.1061278636993943,1.0202751154671725
21025218,1840,1,201037.0,232489,0.84,-0.35,9.96,-0.03,-0.01,-0.0,31.29,19.105732,-42.83170159158387,887.3948357193918,10.001484889755123,0.03162277660168379,-0.7759000624816794,1.1421193209787113
21065191,1818,1,201038.0,232293,0.85,-0.35,9.95,-0.03,-0.01,-0.0,31.29,19.145705,-44.881083589161314,621.633472461532,9.992372090750022,0.03162277660168379,-0.8125314062741658,0.8023046616729365
21105191,1841,1,200260.0,229090,0.85,-0.37,9.97,-0.03,-0.01,-0.0,31.29,19.185705,-47.50576846988509,44.75046660812305,10.013006541493919,0.03162277660168379,-0.8594459074878911,0.06467561097017244
21145192,1801,1,199147.0,227484,0.85,-0.34,9.98,-0.03,-0.01,-0.0,31.29,19.225706,-75.60473235683426,-593.4313897368161,10.021901017272123,0.03162277660168379,-1.3616962481136134,-0.7513329593898714
21185192,1806,1,199000.0,227427,0.85,-0.34,9.98,-0.03,-0.01,-0.0,31.29,19.265706,-83.83889286371867,-993.4922847597785,10.021901017272123,0.03162277660168379,-1.5088764052179253,-1.2628691551606868
21225191,1831,1,199117.0,227552,0.85,-0.37,9.96,-0.03,-0.01,-0.0,31.29,19.305705,-58.13433584338551,-992.0209657228876,10.00304953501681,0.03162277660168379,-1.0494244990538029,-1.2609878592073467
21265192,1821,1,199305.0,228279,0.86,-0.35,9.930000000000001,-0.03,-0.01,-0.0,31.29,19.345706,-72.39640791132987,-644.5561327280208,9.973314393921413,0.03162277660168379,-1.304349576824398,-0.8167033989025373
21305192,1818,1,199864.0,229584,0.84,-0.35,9.99,-0.03,-0.01,-0.0,31.29,19.385706,-77.82888969127701,-156.53846234544355,10.031360824932976,0.03162277660168379,-1.4014515851190434,-0.19270163896518902
21345192,1812,1,200113.0,230326,0.83,-0.35,9.97,-0.03,-0.01,0.0,31.29,19.425706,-88.33938322046849,269.2277778519293,10.010609372061223,0.03162277660168379,-1.5893196850397207,0.3517025892603828
21385875,1792,1,200397.0,230913,0.85,-0.36,9.97,-0.03,-0.01,-0.0,31.35,19.466389,-106.36858580919362,550.00679462472,10.012642008980446,0.03162277660168379,-1.9115797220229032,0.7107195086320685
21424171,1850,1,200473.0,231449,0.83,-0.36,9.99,-0.03,-0.01,0.0,31.35,19.504685,-57.19039762375244,728.7087470799927,10.030882314133688,0.03162277660168379,-1.0325522295193186,0.9392160152214978
21464192,1849,1,200505.0,231487,0.82,-0.34,9.97,-0.03,-0.01,-0.0,31.35,19.544706,-50.26076026110301,880.6905290635009,10.009440543806631,0.03162277660168379,-0.9086895582903657,1.1335468872199992
21504192,1839,1,200517.0,230995,0.83,-0.35,9.98,-0.03,-0.01,-0.0,31.35,19.584706,-73.64878069509842,1007.9151227277627,10.020568846128448,0.03162277660168379,-1.3267349095992582,1.2962220835742164
21544191,1871,1,200473.0,230638,0.83,-0.36,9.97,-0.03,-0.01,-0.0,31.35,19.624705,-26.91257286467492,1014.8472927300952,10.010963989546662,0.03162277660168379,-0.49135619610558606,1.3050858738510096
21584191,1887,1,200412.0,230367,0.84,-0.36,9.930000000000001,-0.03,-0.01,-0.0,31.35,19.664705,-29.505339457697126,794.7162489957568,9.971965703912144,0.03162277660168379,-0.537700179098967,1.023616232394403
21624191,1854,1,200135.0,228050,0.83,-0.35,9.97,-0.03,-0.01,-0.0,31.35,19.704705,-41.430232674058324,356.4555053125366,10.010609372061223,0.03162277660168379,-0.7508497352156803,0.46323595936987944
21664191,1940,1,198857.0,226438,0.85,-0.35,9.95,-0.03,-0.01,-0.0,31.35,19.744705,24.71019453692955,-128.52583392748343,9.992372090750022,0.03162277660168379,0.4313665283269889,-0.15688340840895762
21704191,1940,1,198659.0,226720,0.85,-0.36,9.96,-0.03,-0.01,-0.0,31.35,19.784705,45.1369482705808,-424.05737015179557,10.002684639635502,0.03162277660168379,0.7964812016608742,-0.5347635752815846
21744191,1940,1,198653.0,227541,0.85,-0.36,9.94,-0.03,-0.01,-0.0,31.35,19.824705,33.07657022488081,-404.6928176868837,9.982770156624863,0.03162277660168379,0.5809099440907264,-0.5100031709932904
21784191,1940,1,198863.0,228309,0.83,-0.35,10.01,-0.03,-0.01,-0.0,31.35,19.864705,45.24618188705847,-158.0669223624656,10.050447751219844,0.03162277660168379,0.798433680097603,-0.19465599799458222
21824191,1940,1,199095.0,228796,0.82,-0.34,9.97,-0.03,-0.01,-0.0,31.35,19.904705,45.18875174127291,83.7416179585752,10.009440543806631,0.03162277660168379,0.7974071543367588,0.11453148411015922
21864191,1940,1,199248.0,228209,0.85,-0.34,9.96,-0.03,-0.01,-0.0,31.35,19.944705,49.881237458964414,133.6667837768135,10.001984803027847,0.03162277660168379,0.8812822238793242,0.17836808927103837
21904191,1940,1,198759.0,227132,0.85,-0.34,9.930000000000001,-0.03,-0.01,-0.0,31.35,19.984705,57.34731032540739,0.22225253524883998,9.972111110492103,0.03162277660168379,1.0147333239054392,0.007739795661357575
21944218,1940,1,198333.0,227115,0.83,-0.36,9.95,-0.03,-0.01,-0.0,31.35,20.024732,61.04631861189272,-132.95026258206104,9.991045991286397,0.03162277660168379,1.0808506433674394,-0.16254068566494165
21984191,1940,1,198329.0,227663,0.81,-0.36,9.97,-0.03,-0.01,-0.0,31.35,20.064705,70.06255863042514,-85.11368079513778,10.009325651611102,0.03162277660168379,1.2420099529665538,-0.10137463976945946
22024201,1940,1,198559.0,228141,0.82,-0.35,9.99,-0.03,-0.01,-0.0,31.35,20.104715,76.71130492683491,140.18156455963802,10.029705878040492,0.03162277660168379,1.3608518827096217,0.18669818656219095
22064191,1940,1,198759.0,228426,0.84,-0.36,10.01,-0.03,-0.01,-0.0,31.35,20.144705,85.88125475645484,334.5069478867476,10.051631708334721,0.03162277660168379,1.5247586532217725,0.4351715279097614
22104191,1940,1,198808.0,228134,0.86,-0.34,9.98,-0.03,-0.01,-0.0,31.35,20.184705,94.57526936166784,252.5532863161477,10.022754112518175,0.03162277660168379,1.6801583972992162,0.33038182016562584
22144222,1940,1,198315.0,225660,0.84,-0.34,9.97,-0.03,-0.01,-0.0,31.35,20.224736,105.68666795745158,-170.67937860850452,10.01109884078666,0.03162277660168379,1.8787672766875614,-0.2107828625986678
22184191,1936,1,197142.0,223495,0.85,-0.36,9.96,-0.03,-0.01,-0.0,31.35,20.264705,110.39937322256934,-743.0382515021716,10.002684639635502,0.03162277660168379,1.9630037572281618,-0.9426271495512659
22224192,1895,1,196559.0,223422,0.88,-0.35,9.95,-0.03,-0.01,0.0,31.35,20.304706,83.1688813543173,-1150.2953592101785,9.994968734318281,0.03162277660168379,1.4762767778541026,-1.4633647526744646
22264191,1846,1,196852.0,224665,0.85,-0.35,9.96,-0.03,-0.01,-0.0,31.35,20.344705,42.97166325541027,-1188.6071944716634,10.002329728618228,0.03162277660168379,0.7577781683107272,-1.5123520211290165
22304191,1825,1,197204.0,225703,0.83,-0.37,10.0,-0.03,-0.01,-0.0,31.35,20.384705,36.725223472698,-896.9323731847995,10.04120510695803,0.03162277660168379,0.6461272006384836,-1.1394032267344756
22344188,1829,1,197520.0,226494,0.85,-0.35,9.96,-0.03,-0.01,-0.0,31.35,20.424702,51.21342303404826,-489.48716930972085,10.002329728618228,0.03162277660168379,0.9050941573568181,-0.6184251152313278
22384191,1776,1,197617.0,226873,0.87,-0.36,9.96,-0.03,-0.01,-0.0,31.35,20.464705,11.738459371663634,-166.76087962189206,10.004404030225889,0.03162277660168379,0.1995053667740732,-0.20577249020366406
22424878,1712,1,197766.0,227135,0.85,-0.36,9.97,-0.03,-0.01,-0.0,31.13,20.505392,-38.98105142306266,25.39078568239311,10.012642008980446,0.03162277660168379,-0.7070722449667235,0.03992143565514622
22465191,1728,1,197834.0,227478,0.86,-0.36,9.97,-0.03,-0.01,-0.0,31.13,20.545705,-12.364239115379878,181.63888892505835,10.01349589304355,0.03162277660168379,-0.23131438066648058,0.23970742154754646
22503190,1725,1,197999.0,228180,0.87,-0.36,9.99,-0.03,-0.01,-0.0,31.13,20.583704,2.01872296090423,400.8637939992457,10.034271273988958,0.03162277660168379,0.02577152581335666,0.5200184325835822
22543191,1686,1,198244.0,228693,0.88,-0.35,9.96,-0.03,-0.01,-0.0,31.13,20.623705,-32.4734863265853,656.0209882902341,10.004923787815677,0.03162277660168379,-0.5907538355228841,0.8462741154432513
22583191,1645,1,198331.0,228823,0.81,-0.36,9.98,-0.03,-0.01,-0.0,31.13,20.663705,-48.654724586940254,785.348809424432,10.019286401735405,0.03162277660168379,-0.8799827359445085,1.0116385948346172
22623191,1631,1,198368.0,228929,0.86,-0.35,9.95,-0.03,-0.01,-0.0,31.13,20.703705,-68.17873039360956,617.7213613271234,9.99322770680224,0.03162277660168379,-1.2289613889023387,0.7973024570785254
22663190,1602,1,198013.0,226382,0.85,-0.36,9.97,-0.03,-0.01,0.0,31.13,20.743704,-64.14272503339528,131.2873082254539,10.012642008980446,0.03162277660168379,-1.1568204702873162,0.17532558277611515
22703191,1633,1,196720.0,224191,0.84,-0.36,9.95,-0.03,-0.01,-0.0,31.13,20.783705,-46.09980833297642,-491.7439722538682,9.99188170466404,0.03162277660168379,-0.8343153026545741,-0.6213107669083987
22743191,1572,1,196379.0,223812,0.88,-0.35,9.96,-0.03,-0.01,-0.0,31.13,20.823705,-73.92852752775715,-971.2774910679487,10.004923787815677,0.03162277660168379,-1.3317351986688872,-1.2344643018087993
22783191,1575,1,196462.0,224050,0.85,-0.34,9.930000000000001,-0.03,-0.01,-0.0,31.13,20.863705,-80.66480161821134,-1116.1444744343135,9.972111110492103,0.03162277660168379,-1.452141629670788,-1.4196978662134652
22823190,1572,1,196609.0,224395,0.85,-0.36,9.97,-0.03,-0.01,0.0,31.13,20.903704,-62.03054921206264,-939.8631300588922,10.012642008980446,0.03162277660168379,-1.1190667285481606,-1.1942964600550547
22863209,1572,1,196933.0,225047,0.87,-0.37,9.96,-0.03,-0.01,-0.0,31.13,20.943723,-60.456257963817485,-616.1935698099701,10.004768862897334,0.03162277660168379,-1.090927316758587,-0.7804377260564639
22903191,1572,1,197210.0,225744,0.85,-0.35,9.96,-0.03,-0.01,-0.0,31.13,20.983705,-53.66450299451656,-320.5824736890757,10.002329728618228,0.03162277660168379,-0.9695292018493685,-0.40245583025371673
22943191,1575,1,197511.0,226454,0.86,-0.34,9.97,-0.03,-0.01,-0.0,31.13,21.023705,-40.80219669031213,-91.77142463887192,10.01279681208003,0.03162277660168379,-0.739624008600606,-0.1098875361825039
22983191,1584,1,197778.0,227066,0.85,-0.37,9.96,-0.03,-0.01,-0.0,31.13,21.063705,-32.65924820485687,173.98045222942574,10.00304953501681,0.03162277660168379,-0.5940742058757746,0.22991499339080132
23023191,1572,1,197957.0,227886,0.85,-0.37,9.97,-0.03,-0.01,-0.0,31.13,21.103705,-35.986922027166955,590.249827925919,10.013006541493919,0.03162277660168379,-0.6535541681075067,0.7621760954099189
23063191,1578,1,198406.0,229493,0.85,-0.36,9.95,-0.03,-0.01,-0.0,31.13,21.143705,-30.08506097384951,1119.2032487500665,9.992727355432049,0.03162277660168379,-0.5480623166541823,1.438520182009068
23103191,1586,1,198969.0,231358,0.85,-0.37,9.95,-0.03,-0.01,-0.0,31.13,21.183705,-20.061181374460055,1531.114765481936,9.993092614401208,0.03162277660168379,-0.36889211794365606,1.965209125828766
23143191,1593,1,199511.0,232230,0.87,-0.37,9.94,-0.03,-0.01,-0.0,31.13,21.223705,-10.853197915520964,1549.0129280024537,9.984858536804614,0.03162277660168379,-0.20430552153622888,1.988094536727294
23183171,1616,1,199203.0,228587,0.83,-0.36,9.99,-0.03,-0.01,0.0,31.13,21.263685,9.082125929861041,1078.5514568476358,10.030882314133688,0.03162277660168379,0.15202516852446782,1.3865409377496594
23223191,1605,1,197422.0,225443,0.86,-0.35,9.98,-0.03,-0.01,0.0,31.13,21.303705,0.3237779107878198,321.67043307007157,10.023098323372869,0.03162277660168379,-0.00452449265151766,0.41875817174831687
23263191,1616,1,196928.0,225115,0.86,-0.37,9.96,-0.03,-0.01,-0.0,31.13,21.343705,3.9334951915857768,-345.1999090730287,10.003904237846342,0.03162277660168379,0.059996809313121194,-0.433932811389847
23303191,1618,1,197029.0,225590,0.84,-0.36,9.98,-0.03,-0.01,-0.0,31.13,21.383705,11.200517599616296,-635.5321097312358,10.021756333098505,0.03162277660168379,0.18989001443102585,-0.805164869514258
23343192,1607,1,197253.0,226388,0.84,-0.36,9.95,-0.03,-0.01,-0.0,31.13,21.423706,-17.302531530065504,-533.56023035754,9.99188170466404,0.03162277660168379,-0.31958308186714146,-0.6747789510219574
23383191,1621,1,197611.0,226773,0.83,-0.36,10.0,-0.03,-0.01,-0.0,31.13,21.463705,11.843406265671337,-248.80286220342333,10.040841598192852,0.03162277660168379,0.20138122289015806,-0.3106751292402617
23423191,1663,1,197706.0,226702,0.85,-0.35,9.96,-0.03,-0.01,-0.0,31.13,21.503705,23.108036227547714,-9.59654618774963,10.002329728618228,0.03162277660168379,0.4027290113046228,-0.004814970396228956
23463878,1602,1,197741.0,226892,0.86,-0.36,9.96,-0.03,-0.01,-0.0,31.25,21.544392,-15.753974655404175,112.41512255158779,10.003539373641713,0.03162277660168379,-0.2919036549350261,0.15119474123276497
23504191,1664,1,197841.0,227512,0.86,-0.36,9.96,-0.03,-0.01,-0.0,31.25,21.584705,13.164198080104319,208.69547722181505,10.003539373641713,0.03162277660168379,0.22498950045382787,0.27430321538804586
23544192,1664,1,198049.0,228444,0.85,-0.35,9.95,-0.03,-0.01,0.0,31.25,21.624706,26.998868961561595,391.8700535123274,9.992372090750022,0.03162277660168379,0.472275065523505,0.5085186238003115
23584205,1667,1,198350.0,229309,0.85,-0.35,9.99,-0.03,-0.01,-0.0,31.25,21.664719,10.732060030850802,645.8585709637432,10.032203147863385,0.03162277660168379,0.18151664613076454,0.8332799828906803
23624191,1684,1,198562.0,229382,0.85,-0.34,9.95,-0.03,-0.01,-0.0,31.25,21.704705,22.676208369407348,802.9132762723125,9.992026821421167,0.03162277660168379,0.3950103747842417,1.0340973271523353
23664192,1686,1,198521.0,229252,0.84,-0.34,9.94,-0.03,-0.01,-0.0,31.25,21.744706,22.239948013819603,670.5792143793925,9.981222370030636,0.03162277660168379,0.38721251031219217,0.8648889305463173
23704192,1703,1,198332.0,227195,0.85,-0.36,9.97,-0.03,-0.01,-0.0,31.25,21.784706,21.4579126855308,204.79508323156807,10.012642008980446,0.03162277660168379,0.3732341475656274,0.26931599287117436
23744191,1699,1,197195.0,225139,0.85,-0.36,9.95,-0.03,-0.01,-0.0,31.25,21.824705,20.36812289210732,-419.17227413244046,9.992727355432049,0.03162277660168379,0.3537548778971967,-0.5285172676199157
23784236,1712,1,196681.0,224563,0.85,-0.35,9.96,-0.03,-0.01,-0.0,31.25,21.86475,16.797034208631377,-908.5725353551217,10.002329728618228,0.03162277660168379,0.28992403648622567,-1.1542868715716452
23824192,1724,1,196772.0,224949,0.84,-0.36,9.96,-0.03,-0.01,-0.0,31.25,21.904706,26.08196148753697,-1054.134073302392,10.001839830751141,0.03162277660168379,0.45588595263649817,-1.3404085252959415
23864192,1744,1,196980.0,225974,0.85,-0.33,9.97,-0.03,-0.01,-0.0,31.25,21.944706,37.00160085684539,-868.3993362044238,10.011608262412189,0.03162277660168379,0.651067263051025,-1.10291957793923
23904192,1739,1,197438.0,227238,0.87,-0.34,9.98,-0.03,-0.01,-0.0,31.25,21.984706,24.13953313998927,-550.8180960802234,10.023617111601979,0.03162277660168379,0.42116633439285145,-0.6968456490890063
23944192,1722,1,197709.0,227251,0.88,-0.36,9.99,-0.03,-0.01,-0.0,31.25,22.024706,0.4586647339528549,-315.4513317495242,10.03514324760738,0.03162277660168379,-0.002113480161764394,-0.3958949170018289
23984211,1750,1,197670.0,227109,0.85,-0.37,9.96,-0.03,-0.01,-0.0,31.25,22.064725,23.42700870710493,-228.79744699686685,10.00304953501681,0.03162277660168379,0.40843043279305896,-0.2850952884787943
24024202,1782,1,197636.0,227204,0.86,-0.36,9.98,-0.03,-0.01,-0.0,31.25,22.104716,44.495032253093086,-189.21001601693243,10.0234524990145,0.03162277660168379,0.785007378649697,-0.2344769848761563
24064192,1770,1,197763.0,227567,0.83,-0.35,9.96,-0.03,-0.01,-0.0,31.25,22.144706,33.53168694608357,-55.273686063365,10.000649978876375,0.03162277660168379,0.5890448535901729,-0.06321985489343177
24104191,1783,1,198040.0,228259,0.87,-0.36,9.98,-0.03,-0.01,-0.0,31.25,22.184705,33.45693897026747,195.57640629861604,10.024315437973808,0.03162277660168379,0.5877087831049492,0.25752857003882834
24144192,1777,1,198395.0,228832,0.88,-0.34,9.96,-0.03,-0.01,-0.0,31.25,22.224706,28.488643816155694,421.1031097630652,10.004578951660086,0.03162277660168379,0.4989038028387286,0.5458973493175816
24184191,1780,1,198604.0,229279,0.86,-0.38,10.01,-0.03,-0.01,-0.0,31.25,22.264705,24.123463038806136,426.15686580750946,10.054058881864577,0.03162277660168379,0.4208790919939647,0.552359313417273
24224192,1776,1,198470.0,227484,0.87,-0.35,9.98,-0.03,-0.01,-0.0,31.25,22.304706,15.239339880096935,137.987055555166,10.023961292822316,0.03162277660168379,0.26208128362726524,0.18389218677141414
24264191,1770,1,197369.0,225930,0.86,-0.34,9.96,-0.03,-0.01,-0.0,31.25,22.344705,9.038939570211953,-310.8775431858083,10.002839596834491,0.03162277660168379,0.1512532409924988,-0.39004666132063065
24304192,1779,1,197171.0,226159,0.88,-0.34,9.96,-0.03,-0.01,-0.0,31.25,22.384706,11.331475130357262,-670.48672285346,10.004578951660086,0.03162277660168379,0.19223079342511193,-0.849859439874995
24344192,1771,1,197337.0,227058,0.86,-0.37,9.97,-0.03,-0.01,-0.0,31.25,22.424706,2.0248026998428474,-758.1528059840017,10.013860394473252,0.03162277660168379,0.025880197114018188,-0.9619533116345715
24384192,1785,1,197560.0,227263,0.84,-0.37,9.98,-0.03,-0.01,-0.0,31.25,22.464706,16.681210939833278,-581.5346562102443,10.02212053409856,0.03162277660168379,0.28785377238537574,-0.7361212506575487
24424192,1765,1,197823.0,227879,0.84,-0.36,9.96,-0.03,-0.01,-0.0,31.25,22.504706,-12.10027118316653,-303.06830229270815,10.001839830751141,0.03162277660168379,-0.22659612897571277,-0.3800614080054196
24464878,1697,1,198111.0,228073,0.87,-0.34,9.97,-0.03,-0.01,-0.0,30.99,22.545392,-71.5932471141222,-89.55249352708411,10.013660669305706,0.03162277660168379,-1.2899936103340415,-0.10705030916601109
24503191,1741,1,198092.0,228008,0.86,-0.37,9.97,-0.03,-0.01,-0.0,30.99,22.583705,-38.24784385377218,19.933461056874943,10.013860394473252,0.03162277660168379,-0.6939666460233924,0.03294345027153675
24543191,1761,1,198208.0,228609,0.88,-0.34,9.97,-0.03,-0.01,-0.0,30.99,22.623705,-11.649106351302107,122.02857404394142,10.014534437506319,0.03162277660168379,-0.21853185687678678,0.1634869409098756
24583191,1745,1,198506.0,229333,0.86,-0.36,9.96,-0.03,-0.01,-0.0,30.99,22.663705,-30.66192811797288,334.01752036356885,10.003539373641713,0.03162277660168379,-0.5583734342027663,0.4345457234474232
24623191,1754,1,198604.0,229741,0.85,-0.34,9.99,-0.03,-0.01,-0.0,30.99,22.703705,-22.695846383622296,655.6147667538194,10.031859249411347,0.03162277660168379,-0.4159850073331118,0.8457547019690455
24663191,1744,1,198986.0,230626,0.85,-0.36,9.95,-0.03,-0.01,-0.0,30.99,22.743705,-28.74384875429856,928.2733393356359,9.992727355432049,0.03162277660168379,-0.5240890378944727,1.1943884492259418
24703191,1732,1,199262.0,231534,0.86,-0.37,9.96,-0.03,-0.01,0.0,30.99,22.783705,-43.1614591251743,939.5260905569052,10.003904237846342,0.03162277660168379,-0.7817942596569216,1.2087767326680239
24743191,1748,1,199235.0,229480,0.87,-0.34,9.98,-0.03,-0.01,-0.0,30.99,22.823705,-26.07439847852813,599.4448758183365,10.023617111601979,0.03162277660168379,-0.4763743849384666,0.7739333050680829
24783192,1770,1,197880.0,227278,0.86,-0.34,9.99,-0.03,-0.01,-0.0,30.99,22.863706,1.6300867284207934,41.21580850659392,10.032711497895273,0.03162277660168379,0.01882491095134168,0.0601560351228432
24823191,1778,1,197480.0,227097,0.85,-0.35,9.97,-0.03,-0.01,-0.0,30.99,22.903705,1.369800817334971,-452.88684453049956,10.012287450927486,0.03162277660168379,0.014172472945837535,-0.571626262520506
24863192,1746,1,197516.0,227255,0.85,-0.37,9.96,-0.03,-0.01,-0.0,30.99,22.943706,-15.893970103640827,-649.6104684879605,10.00304953501681,0.03162277660168379,-0.29440598070923607,-0.8231661042530303
24903191,1754,1,197655.0,227727,0.87,-0.36,9.96,-0.03,-0.01,-0.0,30.99,22.983705,-20.75174012501403,-523.1235550142738,10.004404030225889,0.03162277660168379,-0.38123539754226426,-0.6614341395994788
24943192,1744,1,197952.0,228314,0.85,-0.34,9.95,-0.03,-0.01,-0.0,30.99,23.023706,-16.781674075197703,-245.1260160780442,9.992026821421167,0.03162277660168379,-0.31027310036115774,-0.30597374526894616
24983191,1758,1,198236.0,228696,0.85,-0.34,9.94,-0.03,-0.01,-0.0,30.99,23.063705,-8.183659888186943,-25.57995059856578,9.982068923825361,0.03162277660168379,-0.1565893000792318,-0.02525208381943939
25023191,1758,1,198170.0,228175,0.84,-0.37,9.97,-0.03,-0.01,-0.0,30.99,23.103705,-6.574145493082962,55.51034116201488,10.01216260355374,0.03162277660168379,-0.1278202979040862,0.0784336797160645
25063192,1757,1,198183.0,228002,0.84,-0.35,9.98,-0.03,-0.01,-0.0,30.99,23.143706,2.21177141198489,87.28880459997056,10.021402097511107,0.03162277660168379,0.02922213882181577,0.11906707952276331
25103191,1774,1,198115.0,228238,0.86,-0.36,9.97,-0.03,-0.01,-0.0,30.99,23.183705,6.378000314973349,213.3474352562885,10.01349589304355,0.03162277660168379,0.10369071688289365,0.2802514221371795
25143192,1738,1,198377.0,229178,0.85,-0.36,9.98,-0.03,-0.01,-0.0,30.99,23.223706,-9.135984937432571,467.7209768810709,10.022599463213124,0.03162277660168379,-0.17361147862981452,0.6055050907818535
25183192,1771,1,198713.0,229773,0.85,-0.36,9.96,-0.03,-0.01,0.0,30.99,23.263706,6.3103849124853815,709.5244260654736,10.002684639635502,0.03162277660168379,0.10248213641466863,0.914686063125955
25223205,1761,1,198910.0,229909,0.85,-0.34,9.99,-0.03,-0.01,-0.0,30.99,23.303719,14.557716275323797,722.9814866148024,10.031859249411347,0.03162277660168379,0.24989771383254955,0.9318928775017167
25263191,1742,1,198723.0,227879,0.88,-0.35,9.97,-0.03,-0.01,-0.0,30.99,23.343705,-13.428717444947354,404.5384614420576,10.014878930870807,0.03162277660168379,-0.2503412247083095,0.5247170307915149
25303192,1744,1,197503.0,225743,0.85,-0.36,9.930000000000001,-0.03,-0.01,0.0,30.99,23.383706,-7.134369883721138,-126.19257677826943,9.972813043469731,0.03162277660168379,-0.13783393727374096,-0.15389999888127687
25343191,1757,1,197024.0,225748,0.85,-0.35,9.96,-0.03,-0.01,-0.0,30.99,23.423705,14.212355784613607,-595.1806567593696,10.002329728618228,0.03162277660168379,0.24372462414868318,-0.7535696523764555
25383191,1784,1,197159.0,226144,0.84,-0.35,10.0,-0.03,-0.01,-0.0,30.99,23.463705,26.056764837036233,-768.1507860051421,10.04131963439069,0.03162277660168379,0.4554355792224628,-0.9747371871121115
25423210,1771,1,197298.0,226232,0.85,-0.38,9.97,-0.03,-0.01,-0.0,30.99,23.503724,40.47836380936131,-608.0643042923655,10.013381047378553,0.03162277660168379,0.7132120945900645,-0.77004327458915
25463191,1778,1,197492.0,226952,0.89,-0.33,9.96,-0.03,-0.01,-0.0,30.99,23.543705,15.396253448185222,-274.4699865630145,10.005128684829597,0.03162277660168379,0.2648860095715462,-0.3434942908094725
25503878,1712,1,197789.0,227632,0.86,-0.35,9.97,-0.03,-0.01,-0.0,31.01,23.584392,-11.790345250964876,18.834346463954713,10.013141365226,0.03162277660168379,-0.2210564085204214,0.03153807197894874
25544192,1767,1,197836.0,227933,0.85,-0.37,9.97,-0.03,-0.01,-0.0,31.01,23.624706,7.256545284884263,165.58348647038179,10.013006541493919,0.03162277660168379,0.11939412545582377,0.2191782481256771
25584191,1757,1,198039.0,228248,0.86,-0.33,9.97,-0.03,-0.01,-0.0,31.01,23.664705,29.862053658360736,225.1847966744049,10.012462234635395,0.03162277660168379,0.5234525927457679,0.2953872149705179
25624197,1777,1,197861.0,227748,0.84,-0.36,9.98,-0.03,-0.01,-0.0,31.01,23.704711,29.646124872269635,338.82260787486547,10.021756333098505,0.03162277660168379,0.5195930089261835,0.4406897285637779
25664191,1762,1,197961.0,228256,0.87,-0.35,9.930000000000001,-0.03,-0.01,-0.0,31.01,23.744705,23.116107294003395,572.2810454366493,9.974181670693593,0.03162277660168379,0.4028732762637468,0.7392003865827247
25704191,1757,1,198184.0,228947,0.85,-0.36,9.98,-0.03,-0.01,-0.0,31.01,23.784705,25.621667788810807,816.6761287427101,10.022599463213124,0.03162277660168379,0.4476585080978594,1.0516951410932807
25744191,1753,1,198440.0,229684,0.85,-0.37,9.98,-0.03,-0.01,0.0,31.01,23.824705,3.439297601240221,845.060325280965,10.022963633576648,0.03162277660168379,0.051163355201215295,1.0879884756776483
25784187,1717,1,198539.0,228230,0.85,-0.34,10.0,-0.03,-0.01,-0.0,31.01,23.864701,-6.0744242003505295,498.1004760208072,10.041817564564694,0.03162277660168379,-0.11888811127604605,0.6443497107202045
25824191,1759,1,197116.0,224689,0.84,-0.36,9.97,-0.03,-0.01,-0.0,31.01,23.904705,10.08794964819938,-153.22607037103623,10.01179804031224,0.03162277660168379,0.17000360029787193,-0.18846626277478967
25864191,1726,1,196259.0,223269,0.87,-0.35,9.96,-0.03,-0.01,-0.0,31.01,23.944705,-2.6580750775951842,-821.0637421843095,10.004049180206984,0.03162277660168379,-0.05782313686974035,-1.042394117963415
25904191,1747,1,196133.0,223021,0.86,-0.35,9.96,-0.03,-0.01,-0.0,31.01,23.984705,9.788405752439367,-1194.7812878871014,10.003184492950233,0.03162277660168379,0.16464945185727056,-1.5202464999380125
25944191,1744,1,196109.0,223995,0.85,-0.37,9.94,-0.03,-0.01,0.0,31.01,24.024705,3.334074584726121,-1155.0752271966387,9.983135779904027,0.03162277660168379,0.04928256357848864,-1.4694765109505146
25984171,1712,1,196733.0,225711,0.85,-0.35,9.98,-0.03,-0.01,0.0,31.01,24.064685,-15.343682399909785,-829.7390430338388,10.022245257426103,0.03162277660168379,-0.28456995302675525,-1.053486755231751
26024188,1742,1,196961.0,225690,0.82,-0.38,10.0,-0.03,-0.01,-0.0,31.01,24.104702,-2.6821041396381857,-457.88079879160745,10.040756943577511,0.03162277660168379,-0.05825264041458883,-0.5780117613192175
26064192,1670,1,197126.0,225723,0.85,-0.34,9.95,-0.03,-0.01,-0.0,31.01,24.144706,-60.32216965298967,-193.8090341043753,9.992026821421167,0.03162277660168379,-1.0885305771471852,-0.24035750018269902
26104188,1663,1,197204.0,226019,0.87,-0.36,9.96,-0.03,-0.01,-0.0,31.01,24.184702,-73.81842203023368,-18.953724593532893,10.004404030225889,0.03162277660168379,-1.3297671359368086,-0.016779487559468467
26144192,1725,1,197299.0,226872,0.85,-0.36,9.97,-0.03,-0.01,-0.0,31.01,24.224706,-16.63612431679306,178.29051843563053,10.012642008980446,0.03162277660168379,-0.3076714949770291,0.23542604157889227
26184192,1708,1,197673.0,228279,0.86,-0.35,10.0,-0.03,-0.01,0.0,31.01,24.264706,-19.743501637106213,443.8242477641574,10.043012496258282,0.03162277660168379,-0.3632138033645921,0.5749496377098157
26224171,1728,1,197877.0,228557,0.84,-0.35,10.0,-0.03,-0.01,-0.0,31.01,24.304685,-20.563570203398992,672.3210534423375,10.04131963439069,0.03162277660168379,-0.37787198501193375,0.8671161258033112
26264188,1713,1,198005.0,228753,0.84,-0.34,9.98,-0.03,-0.01,-0.0,31.01,24.344702,-14.463148051342102,677.9865070071651,10.021057828393168,0.03162277660168379,-0.26883098562994767,0.874360234387585
