timestamp_us,ecg,leads,ir,red,accX,accY,accZ,gyroX,gyroY,gyroZ,temp,time_sec,ecg_filtered,ppg_filtered,accel_magnitude,gyro_magnitude,ecg_norm,ppg_norm
2457945,1739.0,1,199907.0,239805,-0.64,-0.21,9.67,0.11,0.12,0.57,34.47,0.030464,3.952260962026084,-92.47581283620809,9.69343076521414,0.5927900134111572,0.060432275885425386,-0.05732434256015652
2498160,1757.0,1,199625.0,239268,-0.68,-0.39,10.23,0.06,0.12,0.45,34.47,0.070679,17.003653113775528,-414.1821563442073,10.259990253406677,0.4695742752749558,0.2292077415169504,-0.26540363171682274
2538150,1685.0,1,199418.0,239216,-0.75,-0.67,10.4,-0.03,-0.02,0.32,34.47,0.110669,-50.00843989578502,-614.4581135216804,10.448511855762044,0.3220248437620924,-0.6373662660011381,-0.3949418880975935
2578180,1691.0,1,199436.0,239665,-0.83,-1.07,10.35,-0.08,-0.08,0.36,34.47,0.150699,-55.89443602418486,-627.7577362148247,10.438213448670227,0.37735924528226417,-0.7134816509137643,-0.40354406860129416
2618186,1698.0,1,199583.0,240025,-0.52,-1.12,9.92,-0.11,-0.29,0.32,34.47,0.190705,-43.05837540845283,-475.4243604553671,9.996559408116374,0.44564559910314383,-0.54749076794085,-0.3050150181721872
2658181,1706.0,1,199775.0,240711,0.05,-1.11,9.34,-0.08,-0.39,0.26,34.47,0.2307,-43.11599459263845,-255.91829041640105,9.405859875630723,0.47549973711874965,-0.5482358765489714,-0.16303874713808575
2698165,1678.0,1,200022.0,241176,0.22,-0.74,9.19,-0.03,-0.15,0.3,34.47,0.270684,-73.5041062684685,-92.6809450080416,9.222369543669348,0.3367491648096547,-0.9412029744737338,-0.057457021810533866
2738165,1647.0,1,200082.0,241253,0.0,-0.62,9.57,-0.1,-0.0,0.27,34.47,0.310684,-105.32489331120267,-62.725569354650496,9.590062564967969,0.2879236009777594,-1.352696866271259,-0.038081919646210084
2778165,1682.0,1,200029.0,240973,-0.6,-0.13,10.34,-0.18,0.07,0.18,34.47,0.350684,-77.9641705929512,-148.8968475339085,10.358209304701273,0.2640075756488817,-0.9988787706155439,-0.09381740224111736
2818167,1696.0,1,199840.0,240854,-0.51,-0.42,10.36,-0.25,-0.01,0.14,34.47,0.390686,-66.29348172366626,-253.72669262781073,10.381045226758237,0.28670542373662905,-0.8479580163195973,-0.16162122423507264
2858188,1713.0,1,199816.0,240972,-0.61,-0.73,10.44,-0.33,0.12,0.08,34.47,0.430707,-51.16452211671566,-273.95339870917775,10.483253311830254,0.36013886210738216,-0.6523162661909448,-0.1747038342249717
2898167,1734.0,1,199842.0,241346,-0.99,-0.79,10.46,-0.21,0.12,0.07,34.47,0.470686,-43.66854508691235,-184.2951636287366,10.536403560987972,0.25179356624028343,-0.5553812420296574,-0.11671299195823978
2938167,1725.0,1,200088.0,241633,-1.4,-0.5,10.44,0.06,0.06,0.16,34.47,0.510686,-44.03968969043633,-61.37354792077668,10.54531175451916,0.18110770276274835,-0.5601807379415162,-0.03720743375383587
2978158,1765.0,1,200150.0,241525,-1.43,-0.3,10.01,0.22,0.03,0.26,34.47,0.550677,-26.936653558378744,-20.116655425027268,10.116076314461056,0.3419064199455752,-0.3390110072845539,-0.010522523628291279
3018158,1749.0,1,200119.0,241088,-1.79,-0.11,9.94,0.17,0.08,0.35,34.47,0.590677,-31.418031932781872,-109.87533904370657,10.100485136863476,0.39724048132082407,-0.3969624283296684,-0.06857833589283398
3058159,1807.0,1,199845.0,239074,-2.19,0.18,9.91,0.07,0.12,0.52,34.47,0.630678,5.209382709202854,-260.2918281492002,10.150694557516742,0.5382378656319156,0.0766888794544811,-0.1658675462615885
3098135,1813.0,1,199386.0,238461,-2.3,0.21,9.64,-0.07,0.16,0.67,34.47,0.670654,15.421465031241182,-329.8815475362545,9.912804850293382,0.6923871749245505,0.20874750806127337,-0.2108780958975489
3138159,1799.0,1,199867.0,238953,-2.46,0.02,9.79,-0.19,0.2,0.79,34.47,0.710678,-11.970759909415307,-218.60874442728002,10.094359811300565,0.8367795408588813,-0.1454779619337473,-0.1389069761461929
3178155,1826.0,1,200183.0,239722,-2.31,-0.45,9.79,-0.23,0.11,0.82,34.47,0.750674,11.564606043755418,53.05808653338014,10.06889765565228,0.8587199776411399,0.15887212588598665,0.03680681444100698
3218167,1839.0,1,200372.0,239875,-1.75,-0.66,9.57,-0.27,-0.12,0.84,34.47,0.790686,14.420922913613476,361.44812569480825,9.75105122538078,0.8904493247793498,0.19580889125908554,0.23627313341992026
3258187,1857.0,1,200269.0,240343,-1.18,-0.93,9.44,-0.35,-0.15,0.85,34.47,0.830706,29.486688928035473,568.4984954248199,9.558812687776657,0.9313968005098578,0.39063344672528866,0.37019307196777324
3298187,1874.0,1,200372.0,240492,-0.94,-1.24,9.77,-0.34,-0.09,0.9,34.47,0.870706,31.929081554609876,609.5000103053209,9.893133982717508,0.9662815324738439,0.4222175067253434,0.39671280414852517
3338187,1826.0,1,200261.0,240607,-1.08,-1.65,10.15,-0.16,0.01,0.95,34.47,0.910706,-13.339422636383485,529.5488002332053,10.339796903227839,0.9634313675607619,-0.16317696954540684,0.34500045437756877
3378167,1857.0,1,200239.0,240123,-1.07,-1.55,10.23,0.02,-0.09,1.02,34.47,0.950686,-1.6590983477395052,459.7073944905903,10.401937319557353,1.0241581909060729,-0.012131613799287948,0.29982711429929243
3418167,1866.0,1,200142.0,239903,-1.03,-1.3,10.07,0.09,-0.12,1.08,34.47,0.990686,12.65014205238395,542.5177239518356,10.205674891941248,1.0903669107231748,0.1729098502287886,0.3533887391688275
3458167,1875.0,1,200155.0,240034,-0.96,-1.05,10.03,0.05,-0.08,1.05,34.47,1.030686,3.293575576147694,830.6739430576436,10.130399794677404,1.054229576515476,0.051914415766464474,0.5397678468475612
3498851,1879.0,1,200246.0,240745,-1.11,-1.1,10.01,-0.07,0.03,1.03,34.37,1.07137,9.950294406966469,1214.9438820450741,10.13124868908073,1.032811696293182,0.13799648327211242,0.7883131968611268
3537167,1893.0,1,200627.0,241486,-1.23,-1.07,9.98,-0.32,0.11,0.81,34.37,1.109686,10.558317361433474,1454.222557110921,10.112279663854238,0.8778382538941899,0.1458591967713056,0.9430783658507532
3577167,1904.0,1,200581.0,241496,-1.14,-0.74,9.66,-0.38,0.09,0.81,34.37,1.149686,20.428992897341313,1324.7245670429138,9.755142233714484,0.8992218858546538,0.27350288721449273,0.8593192163520492
3617167,1902.0,1,200100.0,239754,-1.1,-0.68,9.45,-0.41,-0.05,0.87,34.37,1.189686,9.40568021762517,791.1832272807533,9.53807632596846,0.9630680142129111,0.1309537469626918,0.514225297771469
3657187,1887.0,1,198337.0,235921,-0.93,-0.78,9.55,-0.45,-0.0,1.0,34.37,1.229706,-8.131020853518445,45.7493931341961,9.626827099309512,1.0965856099730655,-0.09582396797451449,0.03207956004315138
3697187,1930.0,1,197287.0,235024,-0.8,-1.24,9.58,-0.59,0.24,0.96,34.37,1.269706,27.694610121772957,-640.5497682947041,9.692987155670846,1.1520850663036997,0.36745898905375196,-0.41181794008615774
3737167,1945.0,1,197307.0,234946,-1.24,-1.32,9.99,-0.56,0.18,0.79,34.37,1.309686,41.49019242250242,-1123.8285029057336,10.152837041930693,0.9849365461794989,0.5458580287417549,-0.7244020640603738
3777164,1936.0,1,197097.0,234086,-0.88,-1.21,9.62,-0.4,-0.05,0.67,34.37,1.349683,25.2453862201088,-1455.185534183974,9.735650979775311,0.7819207120929846,0.33578658969336495,-0.9387234068526867
3817180,1949.0,1,196123.0,232523,-0.83,-1.22,9.35,-0.39,-0.12,0.52,34.37,1.389699,39.626981945416176,-1760.554112405443,9.465717088525306,0.6609841147864297,0.5217637243040774,-1.1362354484065864
3857182,1942.0,1,195169.0,231120,-1.75,-1.16,9.66,-0.36,-0.06,0.52,34.37,1.429701,25.649061776037463,-2075.2920230169625,9.885529828997534,0.6352952069707436,0.34100676307592576,-1.3398075632631619
3897186,1934.0,1,194749.0,230848,0.02,-1.58,10.775,-0.19,0.13,0.44,34.37,1.469705,19.579974895291805,-2295.015700028063,10.890244487613675,0.4965883607174054,0.2625237206275593,-1.4819245822339793
3937158,1970.0,1,194917.0,231083,-0.3,-1.34,9.9,-0.41,0.09,0.21,34.37,1.509677,52.87662565448051,-2256.5336879058427,9.994778636868352,0.4693612681080534,0.6931029010331584,-1.4570344615096094
3977165,1961.0,1,195032.0,231640,-1.37,-1.36,10.11,-0.28,-0.26,0.09,34.37,1.549684,41.23944064439055,-1846.4864717961636,10.292647861459168,0.39255572852781045,0.5426154054555417,-1.1918163986066925
4017188,1947.0,1,195379.0,232108,-1.89,-1.3,10.25,-0.04,0.02,0.5,34.37,1.589707,33.542245061084934,-1061.1516397537837,10.503551780231295,0.5019960159204453,0.4430783021699593,-0.683862741804507
4057194,1968.0,1,195908.0,232999,-1.31,-1.54,10.72,0.25,0.29,0.6,34.37,1.629713,44.79128064301846,-22.263008920760026,10.908991704094381,0.7117583859709697,0.5885464021375123,-0.01191078257525821
4097158,1936.0,1,196670.0,233608,-1.19,-1.32,9.83,0.3,0.1,0.32,34.37,1.669677,26.773430877951597,1029.6362287955383,9.989364344141222,0.44988887516807974,0.3555466616944667,0.6684564220677052
4137158,1930.0,1,197133.0,233243,-1.64,-1.23,9.77,0.2,-0.06,0.21,34.37,1.709677,9.328806005126491,1784.0319594570728,9.982755130724183,0.29614185789921693,0.12995963990815954,1.1563987040481436
4177167,1919.0,1,196931.0,232608,-1.68,-0.9,9.7,0.11,-0.25,0.22,34.37,1.749686,10.962969594663178,1978.7450071176015,9.885464076106897,0.3507135583350036,0.15109200016025484,1.2823388770174822
4217167,1919.0,1,196508.0,230398,-1.64,-0.86,9.55,0.0,-0.32,0.26,34.37,1.789686,8.029903215509949,1551.0340760125264,9.727882606199563,0.41231056256176607,0.11316274034536204,1.0056959437808644
4257202,1885.0,1,195079.0,225257,-1.85,-0.81,9.89,-0.08,-0.17,0.46,34.37,1.829721,-23.92119808109132,714.1081699761794,10.094092331656176,0.4968903299521938,-0.3000163240850227,0.4643732402684553
4297188,1883.0,1,193333.0,221375,-1.58,-0.94,10.2,-0.03,0.01,0.53,34.37,1.869707,-15.16219942599198,-131.25751524028044,10.364362016062541,0.5309425580983315,-0.1867484014533258,-0.08240830261058708
4337167,1897.0,1,192729.0,220655,-1.46,-0.88,9.93,0.04,-0.08,0.37,34.37,1.909686,-9.744574650546747,-618.8771575588141,10.075261783199482,0.38065732621348564,-0.11668981050292732,-0.3978001206458613
4377168,1826.0,1,192683.0,220157,-1.53,-0.79,9.71,0.02,0.0,0.3,34.37,1.949687,-62.211671735454786,-619.2441824601682,9.861495829741045,0.30066592756745814,-0.7951736563547902,-0.3980375119255724
4417158,1856.0,1,192367.0,220355,-1.54,-0.68,9.75,0.07,0.06,0.18,34.37,1.989677,-41.64033527759549,-273.4458501804168,9.894266016233846,0.20223748416156684,-0.5291532311794896,-0.17437555242634295
4457158,1867.0,1,192427.0,220936,-1.37,-0.83,9.86,0.08,-0.06,0.06,34.37,2.029677,-15.958064271824828,150.8888298713876,9.989264237169822,0.11661903789690602,-0.19704021234778243,0.10008362555223918
4497167,1843.0,1,192344.0,220600,-1.15,-0.75,9.84,0.06,-0.04,0.08,34.37,2.069686,-40.42570295248645,454.42523123849224,9.935320830250022,0.10770329614269007,-0.5134460840906712,0.2964106172457343
4537851,1842.0,1,192017.0,219492,-1.05,-0.62,9.82,-0.01,0.03,0.07,34.33,2.11037,-36.98822995284995,606.838997588414,9.895418131640522,0.07681145747868609,-0.4689940364191375,0.39499166421533927
4578167,1795.0,1,191633.0,218687,-1.1,-0.76,10.02,-0.08,0.0,0.12,34.33,2.150686,-73.984912045513,701.852915548006,10.108808040515953,0.14422205101855956,-0.9474205655134862,0.45644655594497685
4618165,1776.0,1,191531.0,217967,-1.37,-0.45,9.92,-0.04,0.04,0.17,34.33,2.190684,-96.55487900974626,828.3764108400852,10.024260571234171,0.17916472867168917,-1.239286493637177,0.5382818056789879
4658168,1793.0,1,191318.0,216827,-1.54,-0.36,9.99,-0.11,0.14,0.18,34.33,2.230687,-64.39701443586672,970.3565738328265,10.114410511740168,0.25317977802344327,-0.8234336478973047,0.6301144101210654
4698168,1776.0,1,190894.0,214977,-1.64,-0.14,9.98,-0.08,-0.1,0.12,34.33,2.270687,-86.30941532185096,1012.2911241481406,10.114820809089997,0.17549928774784243,-1.1067961903476826,0.6572376285368629
4738188,1776.0,1,190221.0,213486,-1.57,-0.02,9.79,-0.07,-0.11,0.18,34.33,2.310707,-73.80369161812445,843.1581507833931,9.915109681692885,0.22226110770892868,-0.9450770942838406,0.547842617897867
4778187,1856.0,1,190003.0,212766,-1.32,-0.33,9.67,-0.17,-0.03,0.17,34.33,2.350706,8.04871691715601,479.1341566502727,9.7652547329806,0.2422808287917144,0.11340603172904336,0.3123923214901846
4818187,1886.0,1,189245.0,209798,-1.44,-0.68,9.92,-0.28,-0.01,0.08,34.33,2.390706,39.58722094481686,103.42963044361518,10.047009505320476,0.29137604568666936,0.5212495506962278,0.0693870705101724
4858187,1873.0,1,188419.0,208269,-1.43,-0.98,10.13,-0.19,-0.09,0.01,34.33,2.430706,42.30937488104111,-34.04566533281029,10.27726617345294,0.2104756517984919,0.5564513738247553,-0.019531791051069294
4898188,1887.0,1,188262.0,208726,-1.25,-1.1,9.73,-0.13,-0.2,0.01,34.33,2.470707,42.12902270787532,191.97509562999397,9.871443663416208,0.23874672772626646,0.5541191305169306,0.12665817450246872
4938188,1853.0,1,188709.0,209975,-0.99,-1.31,9.7,-0.14,-0.24,0.0,34.33,2.510707,38.324296348681706,652.5056796498966,9.83799776377287,0.2778488797889961,0.5049179069687313,0.42452882110780354
4978188,1883.0,1,189311.0,210955,-0.98,-1.46,9.62,-0.13,-0.18,-0.05,34.33,2.550707,42.534341279386126,1034.6440119658143,9.779386483824023,0.22759613353482083,0.5593605507302273,0.6716954504031717
5018201,1846.0,1,189186.0,209316,-1.26,-1.44,9.82,-0.03,-0.11,-0.03,34.33,2.59072,41.31664855438564,1083.6677514542787,10.004678905392216,0.11789826122551596,0.5436138277547377,0.703403948138491
5058205,1883.0,1,188302.0,207174,-1.27,-1.4,9.86,0.04,-0.01,0.01,34.33,2.630724,53.03695829850627,812.7066666210769,10.039546802520519,0.042426406871192854,0.6951762596708233,0.528146633326451
5098167,1854.0,1,187840.0,206029,-1.23,-1.4,9.98,0.04,0.01,-0.02,34.33,2.670686,51.92150054776332,483.3255420670357,10.152502154641486,0.045825756949558406,0.6807515991376786,0.31510330470733705
5138167,1829.0,1,187633.0,205450,-1.26,-1.39,9.91,0.08,-0.05,-0.01,34.33,2.710686,14.4069988022617,367.05143384534716,10.08602002774137,0.09486832980505139,0.19562883013230484,0.23989734662061798
5178188,1798.0,1,187865.0,206916,-1.04,-1.2,9.91,0.07,-0.13,-0.09,34.33,2.750707,-5.7317385425324705,503.16603401435714,10.036418683972885,0.17291616465790582,-0.06479739360529213,0.32793611184411814
5218189,1809.0,1,188501.0,207485,-0.85,-1.41,9.67,0.08,-0.17,-0.16,34.33,2.790708,9.902244280126387,667.3495650973628,9.809153888078217,0.24677925358506134,0.13737511794672824,0.4341298289665589
5258189,1774.0,1,188246.0,205626,-0.88,-1.66,9.65,0.07,-0.01,-0.24,34.33,2.830708,-30.701730432762577,564.8557797662933,9.831200333631697,0.2501999200639361,-0.3876994993031958,0.3678369677126912
5298189,1717.0,1,187395.0,203367,-1.0,-2.0,9.67,-0.0,0.07,-0.26,34.33,2.870708,-70.9172917406831,62.548731722306925,9.925164986034238,0.26925824035672524,-0.9077513072988376,0.04294535272102979
5338185,1827.0,1,186846.0,201200,-1.27,-1.56,10.0,0.05,0.29,-0.14,34.33,2.910704,24.49359375449999,-736.5514096129401,10.200318622474496,0.32588341473600646,0.3260647054708921,-0.4739116901364271
5378169,1850.0,1,186332.0,198857,-1.39,-1.12,10.19,0.1,0.07,-0.15,34.33,2.950688,68.59199122631108,-1606.1863911510407,10.345172787343863,0.19339079605813717,0.8963278222611831,-1.0363905856752684
5418168,1835.0,1,185471.875,196379,-1.28,-0.86,9.93,0.07,-0.1,-0.26,34.33,2.990687,35.835452239086926,-2362.8665664466,10.049024828310456,0.2872281323269015,0.47273315467586324,-1.5258104437904583
5458188,1866.0,1,185471.875,194961,-1.08,-0.59,10.01,-0.03,0.05,-0.24,34.33,3.030707,89.30475968362526,-2935.2773811345555,10.085365635414513,0.2469817807045694,1.1641771903787888,-1.8960450935865274
5498185,1893.0,1,185471.875,195432,-1.07,-0.51,10.01,-0.06,0.1,-0.18,34.33,3.070704,95.73010232588295,-3306.0462484619134,10.079935515666754,0.21447610589527216,1.2472671920951017,-2.135857966138668
5538874,1839.0,1,185471.875,196619,-1.1,-0.46,9.86,-0.08,0.12,-0.12,34.23,3.111393,65.83195494855921,-3421.5869046210487,9.931827626373707,0.18761663039293716,0.8606361196043879,-2.210589528283602
5577188,1865.0,1,185603.0,199468,-1.22,-0.6,9.88,-0.12,0.09,-0.05,34.23,3.149707,69.4193795624387,-3185.9212956871993,9.973103829801433,0.15811388300841897,0.9070272825229235,-2.0581612862697516
5617187,1792.0,1,187011.0,202722,-1.1,-0.66,9.67,-0.12,-0.04,0.02,34.23,3.189706,18.582925046913804,-2553.498917317751,9.754716807780737,0.12806248474865697,0.24963026447657835,-1.6491112268182166
5657184,1776.0,1,188169.0,205466,-0.97,-0.73,9.47,-0.23,-0.12,0.08,34.23,3.229703,-15.986221824123483,-1617.3707828276954,9.547497054202216,0.27147743920996453,-0.1974043347299003,-1.043624637215412
5697194,1759.0,1,189469.0,209479,-0.84,-0.97,9.55,-0.28,-0.1,0.12,34.23,3.269713,-19.04491951812824,-579.987244470262,9.635818595220648,0.32062439083762795,-0.23695820925374006,-0.37264617005045053
5737188,1735.0,1,191314.0,214077,-0.83,-1.26,9.77,-0.31,-0.11,0.16,34.23,3.309707,-53.046236706646184,388.3050622003973,9.88581812497074,0.36578682316343764,-0.6766498585317886,0.25364416874384677
5777189,1681.0,1,192835.0,216621,-0.88,-1.4,9.79,-0.26,0.04,0.21,34.23,3.349708,-102.95173060487055,1265.0776736901955,9.928670605876698,0.3366006535941367,-1.322008060347449,0.8207396750414859
5817167,1663.0,1,193354.0,217061,-0.96,-1.56,10.06,-0.14,0.06,0.25,34.23,3.389686,-124.26871405356499,2118.9351656258223,10.22539974768713,0.29274562336608895,-1.597670898884613,1.3730137086389655
5857167,1712.0,1,193786.0,219683,-0.65,-1.49,9.4,-0.24,0.09,0.23,34.23,3.429686,-76.3634722635762,2895.8144409368665,9.539528290224837,0.34438350715445126,-0.9781791699342741,1.8754983211727205
5897185,1745.0,1,195413.0,223146,-1.26,-1.3,9.94,-0.35,0.5750000000000001,0.29,34.23,3.469704,-45.620298315823554,3273.2720526167004,10.10352413764623,0.7329563424925116,-0.5806205464791192,2.1196374657996895
5937167,1712.0,1,196310.0,224091,-1.98,-1.8,10.775,-0.18,0.41,0.22,34.23,3.509686,-79.9595545986985,2815.5391547236777,11.102298185510962,0.49889878733065685,-1.0246822910958135,1.823576359330296
5977167,1693.0,1,195129.0,218131,-1.78,-1.96,10.35,-0.09,0.01,0.09,34.23,3.549686,-102.79501811163564,1373.6710452733764,10.683281331126686,0.12767145334803703,-1.3199815160747408,0.8909777415954709
6038170,1749.0,1,192379.0,211058,-1.37,-1.52,10.1,-0.14,0.05,0.15,34.23,3.610689,-48.049894424701506,-639.1723439270762,10.30520742149327,0.21118712081942875,-0.6120391269496672,-0.41092702360574973
6078167,1837.0,1,190574.0,209344,-1.24,-1.72,9.99,-0.03,0.02,0.16,34.23,3.650686,36.136896155492956,-2417.2544487229693,10.212546205525829,0.16401219466856726,0.47663130873955817,-1.560988462847835
6118167,1834.0,1,190712.0,211862,-1.55,-1.73,9.6,0.02,0.04,-0.09,34.23,3.690686,30.60675311085029,-3276.4354315122896,9.87701371873098,0.1004987562112089,0.40511767582466673,-2.1167057241435616
6158165,1809.0,1,191773.0,216183,-1.4,-1.98,9.64,-0.06,0.14,-0.37,34.23,3.730684,1.4866096429302749,-3069.9221371545273,9.940321926376429,0.4001249804748511,0.0285474436294581,-1.9831331653223954
6198187,1808.0,1,193172.0,218980,-1.23,-2.38,9.73,0.2,0.17,-0.35,34.23,3.770706,0.7852008942091578,-2171.7871927823485,10.092086008353279,0.43749285708454716,0.01947710180024842,-1.4022205269395653
6238167,1809.0,1,193710.0,219670,-1.25,-1.78,9.24,0.35,0.01,-0.21,34.23,3.810686,-10.113003814715876,-1114.3798899096064,9.492549710167443,0.40828911325187206,-0.12145419142198072,-0.7182907121538122
6278167,1797.0,1,194393.0,221305,-1.22,-1.59,9.29,0.21,0.13,-0.06,34.23,3.850686,-8.893196667508466,-236.994332901229,9.503715063068757,0.2541653005427767,-0.10568012557085257,-0.15079875340700147
6318167,1831.0,1,195649.0,223445,-1.57,-1.39,9.56,0.14,0.31,0.0,34.23,3.890686,-3.639204443740414,406.2862904640095,9.787267238611603,0.340147027033899,-0.03773756636485992,0.265274406290478
6358159,1824.0,1,196757.0,224186,-2.31,-0.88,9.58,0.21,0.4,0.03,34.23,3.930678,20.578182240771735,919.4517234214227,9.893780874872862,0.45276925690687087,0.2754321450754142,0.5971892120266488
6398158,1841.0,1,197047.0,223862,-2.36,-1.06,9.46,0.27,0.32,0.09,34.23,3.970677,-5.041544410648142,1402.2511631877683,9.80738497256022,0.4282522621072771,-0.05587207478638673,0.9094633286522661
6438159,1731.0,1,197309.0,224538,-2.54,-1.36,9.84,0.2,0.17,-0.04,34.23,4.010678,-77.90594419261129,1868.5181932270991,10.253136105602032,0.2655183609470351,-0.9981258097271455,1.2110443018771893
6478167,1787.0,1,197765.0,225395,-3.19,-1.58,9.63,0.16,0.0,-0.15,34.23,4.050686,-57.14589960573816,2246.968673089935,10.266908005821422,0.2193171219946131,-0.7296650853123117,1.4558256324912064
6518167,1874.0,1,197992.0,226389,-2.66,-1.39,9.62,0.25,-0.12,-0.19,34.23,4.090686,46.46692371811253,2430.6806382653826,10.077306187667416,0.3361547262794322,0.610215158768454,1.574650318092505
6558874,1878.0,1,198060.0,226167,-2.26,-1.69,9.15,0.12,-0.1,-0.44,34.33,4.131393,49.28850661150615,2349.4591594797007,9.575291118289826,0.4669047011971501,0.6467027580309297,1.5221163599936722
6597187,1793.0,1,197279.0,224511,-2.57,-1.44,9.75,0.06,-0.21,-0.55,34.33,4.169706,-59.22942653446798,2029.3509555564647,10.185332591525915,0.5917769850205397,-0.7566084353751676,1.315070745663385
6637187,1872.0,1,196728.0,223461,-2.63,-1.3,9.36,0.1,-0.1,-0.43,34.33,4.209706,59.40021280720364,1594.9125347268193,9.80900096849827,0.452658811910251,0.7774633620849012,1.0340764798902904
6677181,2064.0,1,196289.0,222298,-2.63,-1.13,9.39,0.13,0.11,-0.33,34.33,4.2497,198.18545315335612,1203.4350344592676,9.816613469012621,0.3713488925525429,2.572179457491263,0.780869287615963
6717204,1941.0,1,195757.0,219925,-2.73,-1.23,9.44,0.17,0.1,-0.22,34.33,4.289723,128.7023303560588,956.4134498971972,9.90350443025094,0.29546573405388316,1.6736510654779742,0.621096013761477
6757164,2025.0,1,195122.0,217709,-2.67,-1.21,9.26,0.16,0.06,-0.15,34.33,4.329683,168.02823890743278,857.587458350057,9.712908936050002,0.22737634001804144,2.1821982342373802,0.5571754772650609
6797164,1949.0,1,194854.0,218073,-2.98,-1.12,9.44,0.18,0.14,-0.1,34.33,4.369683,119.68615738152599,856.0044917154613,9.962349120563884,0.24899799195977465,1.5570574657839236,0.5561516162852193
6837164,1871.0,1,195363.0,219366,-2.03,-0.84,9.3,0.29,0.06,-0.28,34.33,4.409683,35.92076144049192,942.0382340122352,9.555966722420083,0.40755367744629667,0.4738363396865023,0.6117981408311531
6877164,1940.0,1,195159.0,218455,-1.97,-0.55,9.38,0.2,0.05,-0.64,34.33,4.449683,94.25315649433341,1194.9818865025495,9.60040624140458,0.6723838189605696,1.2281679100005933,0.775401801340156
6917185,1845.0,1,194349.0,217116,-2.28,-0.8,9.69,0.21,0.18,-0.67,34.33,4.489704,23.939148491830828,1689.2710029553214,9.986716177002329,0.724844810976805,0.31889483759119336,1.0951074274954946
6957159,1837.0,1,194457.0,218792,-2.63,-0.92,9.84,0.26,0.52,-0.65,34.33,4.529678,-7.371920304002312,2303.3384502821086,10.22687146687588,0.8720665112249181,-0.08600757848777621,1.492285538877154
6997164,1851.0,1,195364.0,219370,-3.17,-0.58,10.01,0.28,0.47,-0.84,34.33,4.569683,27.082264095031796,2634.7675417047362,10.515959300035352,1.0024470060806208,0.35954037128568495,1.7066534900871224
7037159,1803.0,1,194929.0,216242,-3.22,-0.41,9.97,0.36,0.35,-0.8,34.33,4.609678,-23.565147867452428,2191.193400677986,10.485103719086426,0.94451045520947,-0.2954120228812578,1.419750251106291
7077164,1783.0,1,192834.0,208270,-2.91,-0.1,9.36,0.43,0.2,-0.81,34.33,4.649683,-51.17621735275039,760.7102450848682,9.802433371362438,0.9386160024205853,-0.6524675043795214,0.49451540829692137
7117159,1774.0,1,189334.0,201775,-3.02,0.04,9.32,0.36,0.2,-0.92,34.33,4.689678,-32.73694202164643,-1356.6881139939567,9.79716285462276,1.0079682534683323,-0.4140180544104765,-0.8750153899282562
7158153,1809.0,1,187285.0,197077,-3.16,0.03,9.35,0.3,0.16,-1.06,34.33,4.730672,-28.617836284919054,-3477.792769833522,9.869599789251842,1.1131936040060597,-0.3607514005073171,-2.246943416591546
7198149,1678.0,1,185960.0,195467,-3.66,0.03,9.63,0.41,0.41,-1.13,34.33,4.770668,-118.12586078803771,-4921.5457663421885,10.302106580695039,1.2700787377166818,-1.5182339385863564,-3.180761177085474
7238153,1634.0,1,185508.0,194529,-4.14,0.01,9.57,0.52,0.33,-1.19,34.33,4.810672,-194.81349472107888,-5348.734531462711,10.427108899402556,1.3399253710561645,-2.5099282325543792,-3.4570663739700422
7278153,1632.0,1,185471.875,193554,-3.75,0.21,9.21,0.53,0.06,-1.14,34.33,4.850672,-162.7923371637027,-4853.237988349192,9.946391305393128,1.2586103447850727,-2.0958432281372703,-3.136579785653568
7318153,1678.0,1,185471.875,195828,-3.45,-0.23,9.15,0.29,0.14,-1.2837500000000002,34.33,4.890672,-134.7778365821239,-3825.3154469335404,9.781508063688339,1.3235233517018128,-1.7335707345123805,-2.4717206803168272
7358158,1629.0,1,186980.0,201053,-4.25,-0.75,9.7,0.05,0.28,-1.2837500000000002,34.33,4.930677,-166.30393788865217,-2716.0832629660918,10.616732077244862,1.314881767498508,-2.141253866372204,-1.7542705926597773
7398164,1655.0,1,188380.0,203216,-4.31,-0.6,9.39,0.2,-0.23,-1.2837500000000002,34.33,4.970683,-142.8158160587058,-1812.6489626818716,10.34930915568764,1.3194370248329401,-1.8375147209563787,-1.1699303370309158
7438179,1789.0,1,188408.0,204057,-3.38,-0.17,8.77,0.29,-0.5,-1.24,34.33,5.010698,-2.04653452258612,-1112.1315266247393,9.400329781449159,1.3681008734738824,-0.01714178589832103,-0.716836473393769
7478181,1854.0,1,188784.0,206794,-3.0,-0.24,8.69,0.21,-0.23,-0.99,34.33,5.0507,65.93850262368159,-376.76389551811064,9.196396033229538,1.0378342834961658,0.862013952196624,-0.24120154409470118
7518182,1804.0,1,190190.0,210649,-3.15,-0.79,9.22,0.03,0.09,-0.85,34.33,5.090701,22.69856308120551,631.7152102908609,9.775223782604673,0.8552777326693358,0.30285207541689924,0.4110815696850039
7558853,1792.0,1,191081.0,213776,-3.34,-1.19,9.62,-0.04,-0.25,-0.88,34.43,5.131372,10.349243028196113,1890.4629415330687,10.252614300752759,0.9156964562561111,0.1431555297959013,1.2252381395815881
7597201,1773.0,1,192736.0,217899,-3.3,-1.35,9.38,-0.06,-0.38,-0.83,34.43,5.16972,3.194438027345332,3040.2356801141327,10.034784501921305,0.9148223871331528,0.05063240801080572,1.9689098108544068
7637204,1774.0,1,193507.0,218741,-3.12,-1.48,9.6,-0.02,-0.23,-0.72,34.43,5.209723,-0.5372192278939294,3585.542532278551,10.202195842072431,0.7561084578286371,0.002376085351322746,2.3216136491851858
7677200,1801.0,1,193290.0,216583,-3.04,-1.46,9.49,0.12,-0.11,-0.66,34.43,5.249719,40.77759412894849,3238.0928445636296,10.07141003037807,0.6797793759742936,0.5366429881235268,2.096883594909371
7717186,1825.0,1,192456.0,214432,-2.98,-1.28,9.33,0.21,-0.08,-0.61,34.43,5.289705,60.74610804920272,2139.047271608621,9.87763635694289,0.6500769185258003,0.7948679495433509,1.3860221954182768
7757187,1811.0,1,191594.0,210897,-2.76,-1.08,9.35,0.24,0.05,-0.58,34.43,5.329706,57.08757265561139,771.7505421795842,9.808491219346633,0.6296824596572466,0.7475572100143097,0.5016562596289057
7797166,1830.0,1,189762.0,207205,-2.55,-0.93,9.18,0.25,0.06,-0.7,34.43,5.369685,79.06578414866634,-380.67805397302305,9.572867908834844,0.7457211275000862,1.031770789329009,-0.24373321723506772
7837167,1842.0,1,189798.0,209905,-3.01,-0.99,9.49,0.21,0.18,-0.69,34.43,5.409686,92.42547086463475,-1152.9910536425039,10.005013743118997,0.7433707016018319,1.204532998904991,-0.7432643679898936
7877167,1834.0,1,190903.0,211028,-2.9,-0.88,9.64,0.19,0.1,-0.6,34.43,5.449686,96.656408267461,-1708.2446550921163,10.105147203282097,0.6372597586541928,1.2592458158916542,-1.1024017522001661
7917165,1842.0,1,190400.0,210048,-2.77,-0.77,9.43,0.17,-0.08,-0.64,34.43,5.489684,98.10761620634713,-2230.1578499877137,9.858534373830626,0.6670082458260918,1.2780122656899495,-1.439974600193013
7957187,1811.0,1,190508.0,211477,-3.08,-0.82,9.45,-0.03,-0.24,-0.63,34.43,5.529706,83.86412264299855,-2611.857011653076,9.973028627252605,0.6748333127521196,1.0938210138738316,-1.6868571744219203
7997201,1787.0,1,190771.0,211755,-2.25,-0.78,9.25,0.1,-0.36,-0.5,34.43,5.56972,52.48580459052027,-2491.3682966337474,9.55161766403995,0.6241794613730894,0.688048956880568,-1.608925213555881
8037187,1744.0,1,191237.0,216097,-1.96,-1.15,9.73,0.06,-0.21,-0.61,34.43,5.609706,22.77736010505335,-1640.898881297943,9.991846676165524,0.6479197481170025,0.30387104751088506,-1.0588425839662057
8077187,1791.0,1,194776.0,224235,-2.64,-0.82,9.97,0.21,-0.11,-0.47,34.43,5.649706,67.75852906388619,-323.5960665460774,10.346153874749785,0.5264028875300742,0.8855498176687256,-0.20681265409686128
8117187,1791.0,1,197197.0,227338,-2.19,-1.04,9.55,0.1,-0.16,-0.31,34.43,5.689706,74.70868467006655,780.4784565919215,9.8529284986749,0.3629049462324811,0.9754264940420894,0.5073014645289272
8158187,1712.0,1,197598.0,227378,-2.19,-0.7,9.76,-0.0,-0.36,-0.35,34.43,5.730706,-2.8315230363045294,1057.8157873961914,10.027148148900563,0.5020956084253276,-0.027292948347337198,0.6866829278258259
8198204,1712.0,1,197079.0,225566,-1.72,-0.56,9.59,-0.02,-0.46,-0.56,34.43,5.770723,3.252829217165178,413.8757682677155,9.759103442427486,0.7249827584156744,0.05138749989188924,0.2701832717149056
8238201,1731.0,1,196071.0,224845,-1.86,-0.55,9.64,-0.08,-0.18,-0.56,34.43,5.81072,19.642512142890407,-708.3479296811144,9.833193784320535,0.5936328831862332,0.26333242769574383,-0.45566971208910056
8278204,1705.0,1,196547.0,226900,-2.01,-0.83,10.19,0.02,0.02,-0.42,34.43,5.850723,5.167840144650265,-1702.5040681085807,10.419457759403796,0.42095130359698374,0.07615166736289966,-1.0986887472098046
8318167,1727.0,1,197598.0,228301,-1.76,-1.08,10.02,0.04,0.13,-0.29,34.43,5.890686,17.179211670048737,-2174.536302602773,10.230562056895995,0.32031234756093935,0.23147799565812546,-1.403998647976937
8358189,1675.0,1,198558.0,229211,-1.99,-0.92,10.11,-0.03,-0.0,-0.17,34.43,5.930708,-19.019363785361517,-2026.6069196586348,10.344979458655295,0.1726267650163207,-0.236627732577604,-1.3083180949833182
8398201,1654.0,1,199068.0,230224,-1.69,-0.74,9.7,-0.04,-0.22,-0.08,34.43,5.97072,-52.9166560124479,-1321.4317580992551,9.873889811011665,0.23748684174075835,-0.6749741720038008,-0.8522116199036173
8438202,1635.0,1,200532.0,233243,-2.19,-0.84,9.98,0.07,-0.19,0.04,34.43,6.010721,-58.261648316461105,-183.14829670611363,10.251931525327313,0.20639767440550294,-0.7440935084253815,-0.1159711997653521
8478167,1619.0,1,203295.0,237495,-2.26,-0.49,10.13,0.24,-0.24,0.31,34.43,6.050686,-84.14540344668144,1170.2454664845561,10.390601522529868,0.4596737973824481,-1.078812040640333,0.7594023136163561
8518168,1614.0,1,205525.0,241442,-0.85,-0.65,9.5,0.15,-0.49,0.14,34.43,6.090687,-81.83372819393593,2402.3195852271188,9.560073221476914,0.5312249994117371,-1.0489183662617954,1.5563064219430351
8558215,1630.0,1,206876.0,243129,-0.91,-0.59,9.41,-0.09,-0.32,-0.04,34.43,6.130734,-71.15507686085341,3177.882248801515,9.472291169511207,0.33481338085566414,-0.9108262508688699,2.057939451535435
8598889,1601.0,1,207605.0,244412,-0.95,-1.15,9.78,-0.34,-0.34,-0.27,34.31,6.171408,-98.32946225265714,3359.149596867088,9.893098604582892,0.5514526271584895,-1.2622347055705712,2.1751829616307234
8637201,1584.0,1,207641.0,244762,-0.75,-1.08,9.76,-0.49,-0.5850000000000001,-0.32,34.31,6.20972,-118.85864079452985,3086.214039704644,9.848172419286737,0.8274811176093386,-1.5277099611717788,1.998648560410476
8677205,1579.5,1,207720.0,245823,-0.57,-1.57,9.58,-0.55,-0.5,-0.22,34.31,6.249724,-123.04714109592682,2652.5720198741765,9.724515412091236,0.7751773990513398,-1.581873998268105,1.7181694058782278
8717201,1579.5,1,208309.0,247195,-0.47,-2.01,9.21,-0.59,0.22,-0.31,34.31,6.28972,-128.98138628218544,2285.668127954097,9.438490345388928,0.7018546858146635,-1.65861332100374,1.4808563949283953
8757188,1579.5,1,208768.0,247565,-0.61,-1.8,10.15,-0.28,0.42,-0.26,34.31,6.329707,-126.44964101180055,2019.6175501010962,10.326403052370171,0.5678027826631356,-1.6258737877875578,1.3087751903251164
8797187,1598.0,1,208579.0,247406,-0.35,-1.48,10.24,-0.27,-0.1,0.02,34.31,6.369706,-118.29559276052757,1741.2076387394197,10.352318580878393,0.28861739379323625,-1.5204288456396775,1.1286999831700306
8837188,1627.0,1,208646.0,247626,-0.44,-2.16,9.84,-0.1,-0.27,0.24,34.31,6.409707,-84.64455577947253,1332.9876222240032,10.0838881390067,0.37483329627982626,-1.0852668821168865,0.8646637508414682
8877188,1685.0,1,208568.0,247544,-0.26,-2.57,9.7,-0.07,0.07,0.03,34.31,6.449707,-38.369291221588234,782.5305050287856,10.03805259998173,0.10344080432788601,-0.48685337709228743,0.5086287270734008
8917167,1728.0,1,208332.0,246600,-0.57,-2.08,10.17,0.04,0.3,0.1,34.31,6.489686,6.3163003266152,190.65500831987785,10.396162753631746,0.31874754901018454,0.09100310234521425,0.1258043435642334
8957155,1803.0,1,208258.0,246002,-0.92,-2.03,10.36,0.32,0.04,0.4,34.31,6.529674,74.82236872441294,-299.94787189467763,10.597023166908713,0.5138093031466052,0.976896611481218,-0.19151702927565104
8997158,1856.0,1,208102.0,246224,-0.79,-1.98,9.81,0.42,-0.21,0.39,34.31,6.569677,120.7113133913226,-592.9250233015987,10.0389541287925,0.6104096984812741,1.5703143797503918,-0.3810143103647983
9037167,1882.0,1,208399.0,246744,-0.83,-1.77,9.66,0.42,-0.06,0.27,34.31,6.609686,149.3267590224572,-688.3407607472783,9.855830761534007,0.5028916384272063,1.9403580581943773,-0.44272909847112124
9077187,1927.0,1,208586.0,247138,-0.91,-1.4,9.62,0.575,-0.05,0.39,34.31,6.649706,178.4705383322679,-671.0084784847791,9.763836336194906,0.6965809357138623,2.3172339397926773,-0.43151859844393153
9117167,1904.0,1,208804.0,247527,-1.15,-1.08,9.67,0.54,0.1,0.38,34.31,6.689686,163.41866463066359,-650.0648750883271,9.797846702209624,0.6678323142825601,2.1225890342471296,-0.4179723001036736
9157159,1887.0,1,208908.0,247802,-1.24,-0.65,9.73,0.2,0.21,0.14,34.31,6.729678,129.21448825882845,-690.0371893540638,9.830208543057466,0.3220248437620924,1.6802740898658535,-0.44382634652273195
9198158,1854.0,1,209003.0,247931,-1.21,-0.47,9.87,-0.15,0.12,-0.06,34.31,6.770677,100.60892942423308,-777.4341998973595,9.954993721745884,0.20124611797498107,1.3103582635827797,-0.5003546313863919
9238187,1847.0,1,208943.0,247763,-1.14,-0.42,9.63,-0.31,0.02,-0.05,34.31,6.810706,83.90893689906487,-843.8327809622979,9.706332984191302,0.31464265445104544,1.0944005341921688,-0.5433011564637258
9278188,1856.0,1,209023.0,247974,-1.41,-0.84,9.54,-0.39,0.1,-0.01,34.31,6.850707,87.24738262367497,-829.0600134421861,9.680149792229457,0.40274061131204536,1.137572000125105,-0.5337461475977439
9318188,1856.0,1,209211.0,248259,-1.66,-0.96,9.41,-0.37,-0.04,-0.05,34.31,6.890707,88.23653256388452,-738.8078558378495,9.603400439427693,0.37549966711037175,1.150363297773447,-0.47537115693269716
9358200,1838.0,1,209269.0,248370,-1.53,-0.73,9.66,-0.2,-0.01,0.07,34.31,6.930719,55.444756685346455,-651.1644072949454,9.807619486909145,0.21213203435596428,0.7263129605806427,-0.4186834762572526
9398187,1791.0,1,209283.0,248315,-1.51,-0.85,9.67,0.07,-0.06,0.3,34.31,6.970706,15.666940176180072,-661.1047660451994,9.824026669344908,0.3138470965295043,0.21192189600443803,-0.4251128887461726
9438167,1801.0,1,209280.0,247993,-1.55,-0.98,9.79,0.12,0.0,0.26,34.31,7.010686,8.741035431337759,-800.4254425925004,9.960271080648356,0.2863564212655271,0.12235882222355683,-0.5152253404456753
9478158,1769.0,1,209002.0,246744,-1.51,-0.56,9.97,0.03,0.0,0.18,34.31,7.050677,-17.64480791625697,-997.0859910193674,10.09923759498706,0.18248287590894657,-0.21885251717166979,-0.6424251546476762
9518154,1755.0,1,208532.0,245832,-1.55,-0.52,9.51,0.02,-0.16,0.31,34.31,7.090673,-43.68187821705665,-1115.1524807101914,9.649507759466283,0.349428104193123,-0.5555536608201026,-0.7187904229858764
9558166,1763.0,1,208734.0,246933,-1.77,-0.89,9.69,-0.03,0.17,0.15,34.31,7.130685,-36.649025744718806,-1052.0664375734768,9.89045499458948,0.22869193252058545,-0.464607581127176,-0.6779864435913329
9598165,1753.0,1,209109.0,247364,-1.76,-0.6,10.41,-0.2,0.15,0.04,34.31,7.170684,-51.44727970247169,-816.1895946656481,10.574767136916066,0.25317977802344327,-0.65597277598254,-0.5254215756885672
9638853,1765.0,1,209202.0,247699,-1.81,-1.02,10.43,-0.17,0.02,0.12,34.17,7.211372,-47.11450375968959,-520.7258890095354,10.634914198055384,0.20904544960366872,-0.5999430230858654,-0.3343159942004307
9677165,1776.0,1,209325.0,248107,-1.61,-1.32,10.56,-0.15,0.09,-0.01,34.17,7.249684,-35.1314086330196,-301.90514869462595,10.763275523742761,0.1752141546793523,-0.44498235404800424,-0.19278299363549262
9717188,1746.0,1,209342.0,248341,-1.64,-1.05,10.775,-0.17,0.09,-0.23,34.17,7.289707,-77.33948348625495,-228.70238326145133,10.949553643870603,0.299833287011299,-0.9908005628595583,-0.14543553001527837
9757187,1719.0,1,209278.0,248398,-1.18,-1.03,10.12,-0.18,0.06,-0.41,34.17,7.329706,-100.17167269878288,-267.86566908771545,10.240493152187543,0.4517742799230607,-1.2860574458745209,-0.1707662977797808
9797188,1743.0,1,209107.0,248236,-0.85,-1.04,9.59,0.01,0.12,-0.48,34.17,7.369707,-89.92614483449232,-319.27224086399065,9.683604700729992,0.4948737212663449,-1.153566312681146,-0.20401600866999367
9837167,1752.0,1,209049.0,248197,-0.92,-1.53,9.23,0.35,0.22,-0.57,34.17,7.409686,-77.21817316987354,-289.19188285133,9.401074406683525,0.7041306696913577,-0.9892318256018677,-0.18456006806092443
9877168,1792.0,1,209230.0,248621,-0.74,-0.08,9.5,0.28,0.49,-0.45,34.17,7.449687,-48.26093543242974,-150.81210000782684,9.529113285085868,0.7218032973047436,-0.6147682261854069,-0.0950561853157152
9917165,1791.0,1,209331.0,248469,-1.51,-0.79,9.88,0.25,0.33,-0.11,34.17,7.489684,-50.443771671536574,43.95298793708599,10.025896468645586,0.4283689998120779,-0.6429958051569912,0.03091764724909198
9957167,1781.0,1,209398.0,248545,-1.74,-0.5,9.43,0.04,0.31,-0.26,34.17,7.529686,-64.77422801631681,202.82143989675424,9.60221328652931,0.40657102700512243,-0.8283116254297218,0.13367357737070543
9997167,1811.0,1,209436.0,248528,-1.62,-0.35,9.62,-0.06,0.27,-0.17,34.17,7.569686,-43.64134119726011,252.64162812806453,9.761726281759799,0.32465366161495857,-0.5550294520374741,0.16589721722742024
10037188,1814.0,1,209303.0,248269,-1.54,-0.58,9.62,-0.02,0.14,0.0,34.17,7.609707,-36.793545612553146,182.90621914656296,9.75973360292175,0.14142135623730953,-0.46647645516782593,0.12079243573106334
10077167,1840.0,1,209235.0,247423,-1.79,-0.87,9.98,-0.01,0.15,-0.03,34.17,7.649686,-27.308691597517157,49.74193199990604,10.1765121726454,0.1532970971675589,-0.343822056754078,0.03466192954214334
10117188,1861.0,1,208911.0,246777,-1.71,-0.99,10.19,-0.06,0.03,-0.16,34.17,7.689707,4.754690557082038,-59.67006331225038,10.379802502938098,0.17349351572897473,0.07080897953262454,-0.03610562188849831
10157188,1891.0,1,208902.0,247141,-1.94,-0.57,9.76,0.06,-0.01,-0.17,34.17,7.729707,12.609549105585005,-79.51992238327863,9.967251376382558,0.18055470085267789,0.17238491822018068,-0.04894448767000832
10197225,1888.0,1,209162.0,247532,-2.24,-0.23,10.01,0.18,0.07,0.06,34.17,7.769744,25.238378831208713,-1.274593041939184,10.260146197788801,0.20223748416156684,0.3356959728985647,0.0016645004265236122
10237158,1926.0,1,209078.0,247694,-2.2,-0.49,9.76,0.12,-0.1,0.17,34.17,7.809677,39.1906270799456,128.40525897195982,10.016870768857908,0.23086792761230393,0.5161209549547167,0.08554127802050607
10277167,1904.0,1,209204.0,247927,-2.62,-0.64,9.72,0.02,0.06,0.13,34.17,7.849686,33.209580677218916,241.72965796017297,10.087239463797815,0.14456832294800961,0.4387764173109954,0.15883936760258943
10317158,1934.0,1,209288.0,247922,-2.61,-0.43,9.94,0.03,-0.04,0.22,34.17,7.889677,41.727088076190405,290.8154193216026,10.285941862561735,0.22561028345356957,0.5489214700813759,0.19058798101327298
10357167,1913.0,1,209219.0,247771,-2.6,-0.42,9.73,0.02,-0.14,0.33,34.17,7.929686,33.81592997972516,272.79259780700335,10.080143848179947,0.35902646142032485,0.44661748780186444,0.17893084100023487
10397167,1930.0,1,209241.0,247758,-2.19,-0.22,9.67,-0.11,-0.14,0.25,34.17,7.969686,33.52112672943312,228.7354591764666,9.917328269246713,0.3069201850644561,0.44280520821826025,0.1504347349286092
10437188,1936.0,1,209181.0,247679,-1.65,0.06,9.85,-0.38,-0.15,0.15,34.17,8.009707,50.6928722993474,217.6479573010952,9.98742208980876,0.43520110293977887,0.6648634622781446,0.14326335159934914
10477167,1927.0,1,209180.0,247789,-1.44,-0.14,10.01,-0.52,-0.13,0.21,34.17,8.049686,25.70118082979316,277.5484662338575,10.11401502866196,0.5756735185849702,0.34168074616245137,0.1820069311723823
10517188,1906.0,1,209327.0,248097,-1.86,-0.91,10.24,-0.54,-0.09,0.23,34.17,8.089707,17.821001847137858,395.8883117773636,10.44726279941306,0.5938013135721409,0.23977737358781523,0.2585490057584563
10557188,1930.0,1,209513.0,248439,-1.8,-1.1,10.16,-0.57,-0.35,0.2,34.17,8.129707,24.305181144686788,511.255530652613,10.376685405272726,0.6981403870282824,0.3236282277693305,0.33316838886970823
10597188,1904.0,1,209498.0,248548,-1.51,-1.18,9.51,-0.43,-0.51,0.27,34.17,8.169707,13.95175650315407,549.6986113993485,9.701164878508148,0.7196526940128828,0.1897418159261799,0.35803332882565336
10637187,1931.0,1,209428.0,248614,-1.35,-1.47,9.21,-0.32,-0.46,0.34,34.17,8.209706,24.34242152336536,472.6938530111908,9.423773129697045,0.6554387843269576,0.32410980568674275,0.30822674058009003
10677877,1923.0,1,209261.0,248052,-1.21,-1.58,8.94,-0.24,-0.27,0.28,34.29,8.250396,29.81168156585372,303.3811396055819,9.158826344024654,0.4570557952810576,0.39483612358434234,0.1987154742915238
10718188,1931.0,1,208943.0,247289,-1.48,-1.59,8.99,-0.09,-0.04,0.36,34.29,8.290707,27.528217597223797,114.13891785309694,9.24870801788012,0.37322915213043045,0.3653072664266278,0.07631382516238208
10758188,1916.0,1,209001.0,247390,-2.23,-1.78,9.19,0.09,0.18,0.41,34.29,8.330707,19.68217218411074,-13.0109822723845,9.62275428346791,0.4567274898667694,0.26384529573664706,-0.005926582489988077
10798158,1915.0,1,208916.0,247533,-2.19,-1.31,9.51,0.09,0.16,0.33,34.29,8.370677,15.75613179192259,-26.160442019239802,9.846435903411955,0.37762415176998415,0.21307528686897917,-0.014431637774519057
10838158,1909.0,1,208961.0,247630,-1.9,-1.29,9.45,-0.07,0.03,0.3,34.29,8.410677,13.314545107336942,76.73972625548693,9.725050128405508,0.3095157508108432,0.1815016489934643,0.05212407149508719
10878167,1889.0,1,209189.0,248023,-1.75,-1.45,9.48,-0.25,0.1,0.18,34.29,8.450686,-8.596751177309667,251.86507332511735,9.748610157350637,0.323882694814033,-0.10184660918724123,0.16539494248323441
10918167,1888.0,1,209329.0,248474,-2.07,-1.82,9.93,-0.34,0.18,0.08,34.29,8.490686,-1.4882795240812468,430.90435434329237,10.305445162631258,0.39293765408777004,-0.009922652014495706,0.2811973414012903
10958168,1916.0,1,209434.0,248524,-2.06,-1.98,9.86,-0.35,0.06,-0.06,34.29,8.530687,17.47002412763125,551.031843129032,10.265651464958275,0.3601388621073821,0.23523866788138384,0.35889566155919106
10998187,1895.0,1,209547.0,248417,-2.43,-2.02,9.99,-0.2,0.06,0.02,34.29,8.570706,14.608752397480202,582.4831135903223,10.477852833476904,0.20976176963403032,0.19823782820545463,0.3792383067470271
11038167,1904.0,1,209421.0,248230,-2.46,-1.88,9.8,-0.1,-0.03,0.06,34.29,8.610686,5.71786612206957,540.3007896327534,10.277451045857626,0.12041594578792296,0.08326438678539702,0.35195482862733346
11078187,1879.0,1,209444.0,248173,-2.5,-1.55,9.75,-0.07,0.03,0.19,34.29,8.650706,5.81083415333876,470.6518628608683,10.18405616638086,0.2046948949045872,0.08446661276894471,0.3069059837236637
11118167,1904.0,1,209266.0,248115,-2.33,-1.57,9.55,-0.07,-0.08,0.35,34.29,8.690686,10.637104139358986,416.2291110642879,9.954712451899352,0.3657868231634376,0.14687803636905714,0.27170541110113305
11158188,1860.0,1,209312.0,248051,-2.23,-1.56,9.37,-0.08,-0.03,0.42,34.29,8.730707,-10.232131185696261,383.1039671105105,9.757222965577858,0.42860237983473676,-0.12299469968906078,0.2502801064834053
11198188,1875.0,1,209206.0,248310,-2.06,-1.64,9.24,-0.21,0.07,0.31,34.29,8.770707,-9.271050687943335,336.8788638683429,9.607850956379371,0.3809199390948182,-0.1105663850210439,0.22038176342016202
11238167,1864.0,1,209360.0,248202,-1.96,-1.5,9.54,-0.24,0.19,0.38,34.29,8.810686,-5.57738174886542,236.7360749852143,9.854095595233487,0.4879549159502341,-0.06280131231207518,0.15560952393695343
11278167,1835.0,1,209146.0,247209,-2.18,-1.72,9.79,-0.13,0.19,0.58,34.29,8.850686,-39.83034517325919,81.32077314734704,10.176192804777235,0.6240192304729077,-0.5057471516520375,0.05508708730154394
11318167,1824.0,1,208808.0,246683,-2.48,-1.71,10.21,-0.12,0.16,0.74,34.29,8.890686,-43.908567040954736,-77.10775360777585,10.645120948115151,0.766550715869472,-0.5584851114547947,-0.04738429970896477
11358167,1824.0,1,208862.0,247010,-2.91,-2.16,10.14,-0.19,-0.01,0.81,34.29,8.930686,-43.94000405533614,-168.88688530294596,10.768161402950831,0.8320456718233682,-0.5588916425496079,-0.10674693544161142
11398188,1817.0,1,209035.0,247241,-2.55,-2.32,9.87,-0.32,-0.23,0.71,34.29,8.970707,-47.49308579634308,-164.1521167221422,10.454750116573805,0.8120344820264715,-0.6048386969552128,-0.10368449262537126
11438187,1840.0,1,209104.0,247617,-2.38,-2.69,9.58,-0.43,-0.31,0.57,34.29,9.010706,-23.31208546458553,-101.21110601094834,10.231172953283508,0.7783957862167549,-0.29213951950528894,-0.06297432003512612
11478190,1842.0,1,209174.0,247703,-2.03,-2.33,9.34,-0.3,-0.19,0.64,34.29,9.050709,-19.001287518799163,-63.54185616640535,9.83795710500915,0.7319152956456095,-0.2363939774141342,-0.03860989300752395
11518187,1830.0,1,209089.0,247565,-2.18,-2.32,9.3,-0.13,-0.24,0.88,34.29,9.090706,-29.621958875262855,-124.22126942008026,9.829791452518208,0.9213576938409967,-0.37373631857321793,-0.07785726699023286
11558189,1823.0,1,209083.0,247599,-2.37,-2.26,9.43,-0.1,-0.28,1.0,34.29,9.130708,-35.5857584073032,-294.06872764054845,9.982454607960909,1.0432641084595982,-0.4508578264744468,-0.187714405603674
11598187,1822.0,1,209074.0,247695,-2.44,-2.24,9.44,-0.23,-0.42,0.9,34.29,9.170706,-34.78281056369757,-503.5819156051672,10.004239101500923,1.019460641712077,-0.4404744210410116,-0.3232272921238643
11638188,1829.0,1,208964.0,247602,-1.86,-1.59,9.14,-0.35,-0.48,0.9,34.29,9.210707,-28.07896583036944,-635.3848583810343,9.461886704035301,1.0783784122468327,-0.35378293991520376,-0.4084772823556461
11678874,1840.0,1,208908.0,247711,-1.3,-1.53,8.52,-0.65,-0.57,0.91,34.17,9.251393,-15.19969831825866,-601.490008088977,8.753359355127607,1.2551892287619426,-0.1872333223666957,-0.38655413257272137
11717187,1869.0,1,209158.0,248214,-1.02,-1.83,8.69,-0.665,-0.44,0.81,34.17,9.289706,12.322764842817445,-422.63559778522114,8.938982044953441,1.1366287872476222,0.1686763370265721,-0.2708713078179311
11757186,1865.0,1,209584.0,248780,-1.81,-3.42,9.77,-0.61,-0.16,1.07,34.17,9.329705,10.934266841559186,-242.70295215620445,10.508349061579558,1.242014492669067,0.1507208274559404,-0.15449108170767675
11797185,1870.0,1,209781.0,248865,-2.27,-3.66125,10.47,-0.18,-0.17,1.11,34.17,9.369704,11.226081573588,-243.94705905885445,11.32159668785724,1.1372774507568504,0.15449446069779346,-0.15529576860665262
11837225,1888.0,1,209656.0,247758,-2.24,-3.07,10.37,0.18,-0.2,1.09,34.17,9.409744,35.99219646502088,-512.5769448962668,11.044428459635201,1.122719911643149,0.4747601093033441,-0.32904526661708056
11877165,1892.0,1,208894.0,246076,-1.73,-2.29,9.89,0.21,-0.3,0.9,34.17,9.449684,28.171226355385276,-961.991803678371,10.298014371712636,0.9716480844420988,0.37362240256705137,-0.6197262750551331
11917165,1877.0,1,208633.0,246069,-1.25,-1.61,9.44,0.06,-0.16,0.72,34.17,9.489684,26.9600764290645,-1382.510002781365,9.657546272216354,0.74,0.3579602884885179,-0.891716957590794
11957165,1889.0,1,208697.0,246314,-1.23,-1.48,9.37,-0.08,-0.04,0.74,34.17,9.529684,20.087053744989134,-1579.4519600795097,9.56557368901625,0.7453858061433689,0.26908106470047444,-1.0190987867237389
11997181,1859.0,1,208804.0,246886,-1.77,-2.09,9.38,-0.13,-0.01,0.76,34.17,9.5697,6.830409291816517,-1490.9290748642986,9.77166311330881,0.7711031059462801,0.09765135710442498,-0.9618422874305558
12037202,1898.0,1,209193.0,247700,-1.86,-2.15,9.65,-0.15,-0.04,0.7,34.17,9.609721,28.228553004051985,-1206.1780629599034,10.060049701666488,0.717007670809734,0.3743637282209987,-0.7776656638128288
12077180,1879.0,1,209379.0,248109,-1.64,-1.97,9.52,-0.19,-0.22,0.67,34.17,9.649699,17.95051968119699,-891.0147263824857,9.859051678533792,0.7303423854604086,0.24145224723322833,-0.5738183839358574
12117187,1861.0,1,209570.0,248439,-1.7,-2.03,9.43,-0.12,-0.25,0.73,34.17,9.689706,-5.040337863861659,-683.6231100320077,9.794682230680074,0.7808969202141854,-0.05585647219830054,-0.4396777274704169
12157186,1873.0,1,209729.0,248811,-1.4,-2.1,9.49,-0.31,-0.27,0.46,34.17,9.729705,-0.9057292283248607,-620.985479793002,9.819882891358736,0.6169278726074873,-0.002389340910447119,-0.3991637810170535
12197187,1882.0,1,209785.0,249122,-1.23,-2.23,9.5,-0.46,-0.24,0.29,34.17,9.769706,19.42387694729889,-626.5915825163561,9.83543593339919,0.5943904440685432,0.26050512341200494,-0.4027898017442008
12237186,1905.0,1,209823.0,249234,-1.2,-2.5,9.65,-0.29,-0.18,0.26,34.17,9.809705,20.409356518903557,-566.500938031337,10.040542814011602,0.42906875905849867,0.2732489572983876,-0.36392324271690635
12277186,1855.0,1,209828.0,249107,-0.94,-2.49,9.56,-0.07,-0.06,0.22,34.17,9.849705,-9.650146876972482,-356.23826395230356,9.92357294526523,0.23853720883753127,-0.11546870770651732,-0.22792558944881908
12317186,1901.0,1,209750.0,249162,-1.52,-2.88,9.61,0.19,0.26,0.16,34.17,9.889705,11.345949046740504,-58.397692208419805,10.14676795832052,0.3595830919273041,0.15604453967482246,-0.03528265373704199
12357158,1901.0,1,209906.0,249279,-1.9,-2.56,9.9,0.42,0.3,0.09,34.17,9.929677,28.492480530241608,122.13631562403909,10.400653825601543,0.5239274758971894,0.3777767350947259,0.08148653274761306
12397158,1886.0,1,209912.0,249293,-2.1,-1.71,9.97,0.42,0.35,-0.05,34.17,9.969677,-5.505706477823989,-4.534176320982228,10.331263233506347,0.5489990892524321,-0.061874435921906966,-0.0004437942507100899
12437167,1875.0,1,209716.0,247813,-2.27,-1.03,10.15,0.23,0.28,-0.12,34.17,10.009686,-6.424010916582534,-390.0482344532717,10.45161709976021,0.38170669367984633,-0.07374958743378571,-0.24979383908149805
12477167,1904.0,1,208987.0,246150,-2.4,-0.82,9.89,0.33,0.15,0.08,34.17,10.049686,8.719594545209032,-669.3370646986945,10.210019588619799,0.3712142238654117,0.12208155712433573,-0.4304375299492828
12517159,1879.0,1,208661.0,245953,-2.21,-0.54,9.43,0.5,0.09,0.3,34.17,10.089678,-7.771162627487601,-383.73785953845794,9.700546376364581,0.59,-0.0911704230535193,-0.24571229591928231
12557158,1893.0,1,208829.0,246072,-2.08,1.50875,10.775,0.15,-0.1,0.57,34.17,10.129677,-10.468604519388032,605.0234068219467,11.07715448851825,0.5978294071054049,-0.12605267975273682,0.39381734221731335
12597159,1914.0,1,208306.0,245326,-1.75,-0.21,8.77,-0.14,-0.35,0.75,34.17,10.169678,25.722213426796696,1882.5077803331346,8.945361926719343,0.8394045508573325,0.3419527314274283,1.220092750561406
12637187,1947.0,1,215710.875,262143,-2.01,-1.46,8.74,0.37,0.33,0.98,34.17,10.209706,33.48301260774731,2732.697329624943,9.086214833471637,1.098271369015873,0.44231233140022697,1.769994363119031
12656985,1915.0,1,208906.0,246419,-2.3,-3.66125,8.495,-0.32,0.5750000000000001,-0.26,34.17,10.229504,24.66115516844629,2722.0906134479756,9.532039475500508,0.7075485849042453,0.32823154371556723,1.7631339514208233
12735150,1959.0,1,208768.0,246283,-2.3,-3.66125,8.495,-0.32,0.5750000000000001,-0.26,34.15,10.307669,39.45449207872539,2078.267212460685,9.532039475500508,0.7075485849042453,0.5195331532485938,1.3467097237881107
12777188,1935.0,1,208465.0,246214,-1.88,0.76,9.69,-0.25,-0.27,0.06,34.15,10.349707,36.53945748184505,1497.5327507182546,9.899904039938972,0.372827037646145,0.48183707334385073,0.9710913487493248
12817165,1925.0,1,208657.0,246939,-1.25,0.39,8.98,-0.09,0.27,0.05,34.15,10.389684,7.789316386857623,1588.0433113424237,9.07496556467296,0.2889636655359978,0.11005156618413163,1.0296334741873336
12857152,1905.0,1,209255.0,248156,-2.41,-0.91,9.66,0.35,0.53,0.23,34.15,10.429671,-8.967226801671087,2454.2157235363875,9.997589709524991,0.6754998149518622,-0.10663745412391316,1.5898727838979096
12897153,1876.0,1,209700.0,248541,-2.76,0.01,10.34,0.5,0.14,0.1,34.15,10.469672,-32.305817846011045,3686.0083451668756,10.702023173213558,0.5287721626560914,-0.4084429262830057,2.3865948202195995
12937132,1842.0,1,209523.0,248389,-2.34,0.7,9.86,0.33,-0.28,-0.08,34.15,10.509651,-89.08107216049248,4632.320626733941,10.15801161645329,0.44011362169330775,-1.142638165523474,2.9986685043177865
12977159,1819.0,1,209077.0,248167,-1.92,1.50875,9.8,-0.04,-0.21,-0.28,34.15,10.549678,-82.23514198185725,4723.933261316281,10.099639922418028,0.35227829907617075,-1.0541092913508294,3.057923449911325
13017181,1878.0,1,208698.0,246441,-2.89,1.50875,10.45,-0.1,-0.02,-0.12,34.15,10.5897,-61.422574059878635,3724.6528962612942,10.94673131864028,0.15748015748023622,-0.7849693558421995,2.411590070962317
13057180,1830.0,1,206524.0,240766,-2.43,0.61,9.6,-0.12,-0.39,-0.11,34.15,10.629699,-75.28917089141086,1863.6207587342342,9.921542218828684,0.4226109321823088,-0.9642867274877044,1.2078766469380466
13097188,1871.0,1,202983.0,235540,-1.43,0.77,8.75,-0.23,-0.46,-0.2,34.15,10.669707,-61.536076173181904,-230.5430009080642,8.899455039495395,0.5518151864528558,-0.7864371204913794,-0.14662603937030105
13137187,1837.0,1,200510.0,233695,-2.12,0.47,9.37,-0.35,0.02,-0.15,34.15,10.709706,-83.91241356919312,-1836.764057635257,9.618326257722805,0.38131351929875235,-1.075799107261019,-1.1855279524249098
13177167,1874.0,1,199996.0,232989,-2.56,0.32,9.58,-0.36,0.37,0.13,34.15,10.749686,-42.06781588819017,-2541.933457886369,9.921310397321514,0.5323532661682466,-0.5346812421581417,-1.6416307010971178
13217158,1937.0,1,199989.0,233282,-1.46,-0.4,9.9,-0.35,0.2,-0.09,34.15,10.789677,0.6765155363438794,-2443.766433282949,10.01506864679419,0.41303752856126763,0.01807162553627895,-1.5781363836541773
13257183,1881.0,1,200027.0,232946,-2.62,-0.59,9.33,-0.25,-0.13,-0.4,34.15,10.829702,-23.12839036146026,-1994.4401932081466,9.708831031591806,0.48928519290900274,-0.2897640467431712,-1.2875126936930321
13297199,1997.0,1,199455.0,232114,-2.66,-0.27,9.46,-0.28,-0.11,-0.11,34.15,10.869718,58.86205676634132,-1629.6739795358544,9.830569668132158,0.32031234756093935,0.7705041400093633,-1.0515823305498762
13337202,1978.0,1,199194.0,231700,-2.35,-0.47,9.87,-0.22,-0.25,-0.07,34.15,10.909721,73.32712243727607,-1494.2880961563444,10.156785908937925,0.3402939905434711,0.9575606750990209,-0.9640148984990522
13377198,1952.0,1,198916.0,231281,-2.45,-0.57,9.74,-0.13,-0.35,-0.0,34.15,10.949717,26.94388222022531,-1451.0873939074718,10.059572555531373,0.3733630940518894,0.35775087135465283,-0.9360727344839037
13417203,1970.0,1,198790.0,230935,-2.22,-0.58,9.68,-0.08,-0.29,0.04,34.15,10.989722,58.19115305577996,-1303.3276737120161,9.948225972503842,0.30347981810987035,0.7618282773253404,-0.8405019191589835
13457179,1971.0,1,198785.0,230756,-2.32,-0.71,9.62,-0.15,-0.25,0.07,34.15,11.029698,64.08387774129532,-1015.9103757424089,9.921234802180622,0.29983328701129897,0.838030673289891,-0.6546007448125145
13497188,2000.0,1,198625.0,230329,-2.07,-0.79,10.1,-0.09,-0.25,0.17,34.15,11.069707,85.46246692855647,-770.3068903672405,10.340164408750956,0.3154362059117501,1.114490172987127,-0.4957446958642787
13537181,1982.0,1,198412.0,229305,-1.61,-0.52,9.97,0.17,-0.55,0.11,34.15,11.1097,89.77963661481095,-841.0079765438346,10.112536773727946,0.5860887304837041,1.1703181119177828,-0.5414740762482999
13577167,1970.0,1,197432.0,226924,-1.24,-0.27,8.96,0.27,-0.5850000000000001,0.11,34.15,11.149686,62.014265499258556,-1404.1664544320356,9.049425396123226,0.6536245099443565,0.8112672624778391,-0.9057243253535473
13617167,1937.0,1,196066.0,223178,-1.2,-0.56,9.91,-0.04,0.05,0.1,34.15,11.189686,55.0886046905765,-2411.7956677715315,9.998084816603628,0.11874342087037917,0.7217073431833569,-1.5574577296715746
13657167,1902.0,1,194709.0,219203,-1.67,-0.7,10.775,-0.03,0.26,0.03,34.15,11.229686,8.342470973618187,-3598.923820750622,10.926093766758548,0.2634387974463898,0.11720474355105444,-2.3252908395698664
13697854,1844.0,1,193696.0,216119,-1.24,-0.66,10.26,0.05,-0.02,-0.1,34.15,11.270373,-29.561030893693896,-4601.150850763619,10.355713398892421,0.11357816691600547,-0.37294842189984184,-2.9735301179896774
13738188,1853.0,1,192973.0,214560,-0.91,-0.51,9.78,0.0,0.1,-0.03,34.15,11.310707,-20.789811174220105,-5109.746466159224,9.835476602585153,0.1044030650891055,-0.25952246127447126,-3.30248917103702
13778165,1862.0,1,192613.0,214533,-0.79,-0.39,9.54,-0.12,0.08,0.09,34.15,11.350684,-3.6888650381891486,-4992.202871073906,9.580594971086086,0.16999999999999998,-0.03837975762339934,-3.2264621103220557
13818167,1826.0,1,193084.0,216479,-0.93,-0.13,9.61,-0.16,0.01,0.18,34.15,11.390686,-23.9509550334684,-4326.882691178681,9.655770295527955,0.241039415863879,-0.30040112927935164,-2.7961337910710506
13858167,1791.0,1,194231.0,219613,-1.11,-0.11,9.44,-0.21,0.17,0.32,34.15,11.430686,-65.2700939250575,-3329.7588768342193,9.505671990974651,0.41880783182743847,-0.834723968164155,-2.1511952666156877
13898168,1771.0,1,195455.0,221795,-1.14,-0.2,9.41,-0.39,0.22,0.36,34.15,11.470687,-55.160636622581194,-2209.581912462607,9.480912403350219,0.574543296888929,-0.703992445912044,-1.4266661077111116
13938167,1774.0,1,196212.0,223205,-1.42,-0.32,9.99,-0.45,-0.02,0.36,34.15,11.510686,-65.90593633143789,-1056.110201290782,10.095489091668615,0.5766281297335398,-0.8429464318643767,-0.6806019452648131
13978188,1747.0,1,196834.0,225127,-1.34,-0.47,9.85,-0.46,-0.19,0.31,34.15,11.550707,-62.495105319428326,139.45963521329915,9.951834001831019,0.5863446085707619,-0.7988389078892278,0.09269123572816634
14018187,1759.0,1,198023.0,227735,-1.49,-0.35,9.91,-0.53,-0.07,0.36,34.15,11.590706,-51.781540620870175,1352.2030553496152,10.027497195212772,0.6445153217728807,-0.6602953065976026,0.877092270658689
14058188,1700.0,1,199098.0,229923,-1.42,-0.82,10.49,-0.42,-0.19,0.28,34.15,11.630707,-103.41542986978062,2428.461784169643,10.61738668411394,0.539351462406472,-1.3280044367062505,1.5732151658416997
14098186,1706.0,1,200193.0,232739,-1.21,-1.1,10.42,-0.24,-0.38,0.13,34.15,11.670705,-65.50034953569453,3156.9322052833713,10.547535257111019,0.4678675026115834,-0.8377015430808911,2.0443889877319505
14198198,1771.0,1,200170.0,232286,-0.61,-0.82,10.27,0.1,-0.02,0.05,34.15,11.770717,-28.880440541724667,3457.181812691788,10.320726718598841,0.11357816691600547,-0.36414729538227464,2.2385900849122367
14235958,1724.0,1,199200.0,229770,-4.6,-3.66125,10.775,-0.665,0.5750000000000001,-1.02,34.15,11.808477,-12.27473053444064,3489.4462464165936,12.274582541272025,1.346569715982058,-0.14940879039866928,2.2594586831540147
14457180,1831.0,1,199519.0,230202,-1.64,-1.38,9.99,-0.24,0.31,-0.35,34.15,12.029699,47.47675289861483,3548.088388744448,10.217343098868707,0.5255473337388366,0.6232738722118879,2.2973883526692216
14497218,1755.0,1,199758.0,230404,-1.93,-1.4,9.46,-0.08,0.51,-0.35,34.15,12.069737,35.73238888572231,3814.0940540009137,9.755844402203225,0.623698645180507,0.47140037996099665,2.46944050785725
14538188,1808.0,1,199606.0,230278,-2.22,-1.59,9.5,-0.13,0.5750000000000001,-0.33,34.15,12.110707,60.27195829934991,4185.4070162326525,9.88465983228558,0.6755923326977594,0.7887364316270993,2.709605300361303
14578187,1807.0,1,199558.0,229644,-2.49,-1.56,9.54,-0.19,0.5750000000000001,-0.33,34.15,12.150706,87.69033139148141,4340.784937649063,9.982249245535797,0.6896557112066861,1.1433000392237862,2.810103559383551
14618188,1810.0,1,199096.0,228501,-2.81,-1.67,9.43,-0.22,0.43,-0.32,34.15,12.190707,106.32257504728152,3997.6317553521903,9.98047594055514,0.5793962374748389,1.3842448796059037,2.5881524798195703
14658188,1885.0,1,198354.0,225972,-2.85,-1.37,9.17,-0.12,0.21,-0.13,34.15,12.230707,164.57662212957487,3162.583308846952,9.699912370738202,0.2745906043549196,2.1375632847935795,2.0480441149502653
14698888,1835.0,1,196474.0,219600,-2.22,-1.9,8.495,-0.13,-0.09,0.02,34.15,12.271407,164.8302955407694,2162.266054767074,8.983508501693533,0.15937377450509227,2.1408436894887184,1.401040077384827
14737187,1845.0,1,194333.0,217185,-2.29,-2.24,8.64,-0.23,0.02,0.06,34.15,12.309706,136.6428288650099,1405.2704031930703,9.214732768778486,0.23853720883753127,1.776334466421912,0.911416169579324
14777167,1716.0,1,195049.0,219650,-3.31,-2.36,9.61,-0.19,0.18,-0.17,34.15,12.349686,60.1143542701103,1060.255369465918,10.434452549127817,0.3120897306865447,0.7866983583617309,0.688260846673719
14817186,1717.0,1,194740.0,216591,-3.37,-2.55,9.63,-0.09,0.01,-0.33,34.15,12.389705,32.92217656569745,925.3377646567612,10.516477547163785,0.34219877264537346,0.4350598204773045,0.6009962966580576
14857188,1690.0,1,193121.0,212728,-3.19,-2.52,9.07,0.03,-0.12,-0.4,34.15,12.429707,36.18347435571982,595.2715267001531,9.939386298962326,0.41868842830916647,0.47723363968940347,0.38750983748626855
14897187,1614.0,1,191978.0,209707,-2.78,-2.53,9.38,0.03,0.27,-0.37,34.15,12.469706,-46.15985686398447,-230.47890212517424,10.105132359350867,0.45902069670114004,-0.5875979052269462,-0.14658458035201094
14937168,1594.0,1,190540.0,205928,-3.02,-2.13,9.61,0.15,0.24,-0.47,34.15,12.509687,-58.212425492933484,-1546.7596043267088,10.296086635222142,0.5486346689738081,-0.7434569782480654,-0.9979534090115008
14977167,1600.0,1,188748.0,200523,-2.29,-1.91,9.35,0.29,0.27,-0.43,34.15,12.549686,-46.36585507834734,-3066.43227695144,9.814005298551658,0.5847221562417487,-0.5902617930439784,-1.980875927798273
15017167,1579.5,1,185744.0,194167,-1.81,-1.99,9.21,0.34,0.33,-0.79,34.15,12.589686,-67.93626698299597,-4399.988407196229,9.59480588652006,0.9211948762341224,-0.8692018686115395,-2.8434184832420093
15057167,1579.5,1,185471.875,191403,-2.88,-1.47,9.11,0.48,0.35,-0.48,34.15,12.629686,-62.72260800541165,-5227.056265103788,9.666819539021093,0.763740793725201,-0.8017808830680299,-3.3783650126798177
15097167,1579.5,1,185471.875,194825,-0.7,-1.7,9.3,0.575,0.23,-0.47,34.15,12.669686,-64.68617133686814,-5339.0296918764025,9.479978902930112,0.7774477474403022,-0.8271729111145655,-3.450789295002688
15137167,1579.5,1,185525.0,195416,-2.95,-1.59,9.22,0.51,0.5750000000000001,-0.66,34.15,12.709686,-63.212407456913986,-4583.00212041147,9.810147807245311,1.0130769960866746,-0.8081147767655149,-2.9617915402868187
15177166,1579.5,1,185495.0,200390,-3.72,-1.61,10.65,0.23,0.2,-0.9,34.15,12.749685,-67.33202440621297,-2855.5245245890737,11.39530605117739,0.9502105029939418,-0.8613880414684117,-1.84446103864611
15217165,1579.5,1,188906.0,207452,-3.78,-1.42,9.63,0.12,-0.28,-1.09,34.15,12.789684,-66.81950307258238,-227.8493819801775,10.442303385747802,1.1317685275708986,-0.8547603173357031,-0.144883809777742
15257189,1579.5,1,191759.0,214111,-3.29,-1.34,9.67,0.03,-0.37,-1.18,34.15,12.829708,-74.93608270688728,2905.439159068599,10.301873615998208,1.237012530251816,-0.9597207300784572,1.8817235776763568
15297186,1579.5,1,194306.0,219239,-3.34,-1.64,9.81,0.11,-0.22,-1.27,34.15,12.869705,-76.29616355232494,5838.1098126007055,10.491963591244492,1.293599628942433,-0.9773087601764181,3.7785715486036167
15337189,1609.0,1,195592.0,222047,-3.31,-1.58,9.5,0.28,-0.3,-1.25,34.15,12.909708,-54.750360819033844,7781.373551520015,10.183442443496206,1.3156367279762298,-0.698686920725463,5.03547227685488
15377182,1579.5,1,195856.0,221137,-2.7,-1.34,9.07,0.34,-0.12,-1.23,34.15,12.949701,-93.33303957865154,8195.995929490171,9.557745550076127,1.2817566071606574,-1.1976229343899643,5.303649549132793
15417187,1579.5,1,194937.0,217290,-2.25,-1.02,8.69,0.4,-0.07,-1.2837500000000002,34.15,12.989706,-95.22872083250267,7048.2783172250465,9.034323438974276,1.3464449719539229,-1.2221371381306583,4.561307131173058
15457187,1636.0,1,192991.0,211266,-2.5,-1.11,8.495,0.38,0.25,-1.2837500000000002,34.15,13.029706,-58.57342592014513,4846.025476620704,8.924523796819637,1.3619522981734715,-0.7481252936651038,3.1368925528984883
15497167,1597.0,1,189700.0,202200,-2.87,-1.13,8.97,0.37,0.5750000000000001,-1.09,34.15,13.069686,-93.5339260928395,2402.2749723796755,9.485499459701636,1.2867109232457772,-1.2002207197125532,1.5562775664051491
15537167,1646.0,1,186862.0,200085,-3.56,-1.11,9.32,0.41,0.5750000000000001,-0.82,34.15,13.109686,-71.15760928345547,426.3967398382019,10.038331534672484,1.0821852891256654,-0.9108589991610727,0.2782818215772674
15577167,1701.0,1,187353.0,201979,-3.57,-0.96,9.84,0.37,0.42,-0.7,34.15,13.149686,-11.19068673014431,-807.3860627003149,10.51152224941754,0.8962700485902672,-0.13539036265488577,-0.5197274614431359
15617167,1731.0,1,187249.0,200279,-3.69,-1.25,9.94,0.25,0.12,-0.82,34.15,13.189686,-9.370506137108967,-1484.6678423115534,10.676244658118321,0.8656211642514292,-0.11185250373905914,-0.9577925294910222
15657167,1742.0,1,185515.0,195195,-3.95,-1.54,10.21,0.27,0.17,-0.74,34.15,13.229686,5.068864544309886,-1983.1731284027471,11.055234054510109,0.8058535847162311,0.07487175386100031,-1.280225169269283
15697167,1803.0,1,185471.875,190802,-3.31,-1.65,9.6,0.39,0.08,-0.65,34.15,13.269686,37.068327969244706,-2563.4495614141874,10.287788878082598,0.7622335600063802,0.48867621829726354,-1.6555472918570957
15737853,1838.0,1,185471.875,187303,-2.69,-1.38,8.81,0.28,-0.34,-0.75,34.29,13.310372,75.84583864938608,-3246.773004793973,9.314322304923746,0.8697700845625814,0.9901317216624755,-2.097520101010036
15778187,1893.0,1,185471.875,188377,-2.35,-1.3,8.69,0.25,-0.23,-0.72,34.29,13.350706,99.3782201743234,-3898.51194733741,9.095526372893435,0.7961155694998057,1.294443216031114,-2.5190640917233673
15818188,1876.0,1,185471.875,188974,-2.43,-1.18,8.83,0.27,0.06,-0.71,34.29,13.390707,88.35169282865517,-4393.587903080961,9.2339698938214,0.7619711280619496,1.1518525049846724,-2.8392786446176705
15858167,1921.0,1,185471.875,188520,-2.77,-1.03,9.33,0.25,0.11,-0.72,34.29,13.430686,99.55186690575,-4750.923755904181,9.786863644702526,0.7700649323271382,1.2966887472059616,-3.070403058997762
15898167,1936.0,1,185471.875,191753,-2.96,-1.15,9.88,0.15,0.29,-0.75,34.29,13.470686,122.15603557682304,-5171.062482877524,10.377788781816674,0.8179853299418028,1.5889969583390173,-3.342148299400913
15938188,1954.0,1,185471.875,190081,-3.11,-1.07,10.3,0.19,0.08,-0.86,34.29,13.510707,106.03681986889694,-5928.610811808673,10.812354045257676,0.8843641783790205,1.3805496061264373,-3.8321296782788035
15978167,1906.0,1,185471.875,186935,-2.99,-0.81,9.92,0.22,-0.03,-0.68,34.29,13.550686,65.83192176547512,-7123.609777445876,10.392429937218726,0.7153320907103218,0.8606356904938068,-4.60505362065844
16018187,1925.0,1,185471.875,191636,-2.56,-1.06,10.29,0.27,0.21,-0.5,34.29,13.590706,52.130885734459795,-8429.7636102428,10.656514439534156,0.6058052492344383,0.6834592859476488,-5.4498724019545
16058168,1936.0,1,185471.875,195077,-2.34,-0.57,9.83,0.17,0.06,-0.43,34.29,13.630687,70.45892246848456,-9085.913026821181,10.120741079585033,0.46626172907499064,0.9204702421682913,-5.87426908214864
16098167,1969.0,1,186098.0,201775,-2.12,-0.67,9.45,0.09,-0.11,-0.37,34.29,13.670686,73.00254575602041,-8275.119885348557,9.708027606058812,0.39635842365212826,0.9533633772264934,-5.34984902038965
16139208,1955.0,1,189072.0,211428,-2.5,-0.72,9.92,-0.12,-0.09,-0.47,34.29,13.711727,65.53900912098209,-5704.540800952764,10.255476585707756,0.49335585534176035,0.8568478594801594,-3.687201455627624
16177201,1981.0,1,196087.0,227362,-3.12,-0.85,9.82,-0.06,-0.41,-0.37,34.29,13.74972,64.3087502055218,-1925.7131209717609,10.338728161626072,0.555517776493246,0.8409386354763191,-1.2430601032317241
16217203,1965.0,1,200868.0,233473,-2.15,-0.89,9.51,-0.11,-0.35,-0.19,34.29,13.789722,53.0410555921761,1930.7551844895333,9.790541353776103,0.41315856520227195,0.6952292442596636,1.2512991155060507
16257200,1971.0,1,203495.0,239191,-2.48,-0.88,9.81,-0.1,0.09,-0.28,34.29,13.829719,36.511879366100025,4833.178206045111,10.15681544579796,0.31064449134018135,0.48148044400714946,3.128582953218785
16297187,1932.0,1,206556.0,243592,-2.39,-1.67,9.92,-0.14,0.11,-0.32,34.29,13.869706,-0.6277259695896411,6396.370939300299,10.339603474021622,0.3661966684720111,0.001205687795653686,4.1396541966508185
16337201,1900.0,1,207768.0,244949,-2.0,-2.25,9.34,-0.46,-0.01,-0.62,34.29,13.90972,-49.84684274000056,6902.519811172187,9.813159531975417,0.7720751258783047,-0.6352765551951842,4.467030698830149
16377204,1882.0,1,208543.0,247035,-2.11,-2.33,8.63,-0.47,0.5750000000000001,-0.94,34.29,13.949723,-68.5021950101716,6885.126102439987,9.184655682169039,1.197967027926896,-0.8765202270816506,4.455780468233734
16417187,1889.0,1,210457.0,249407,-2.21,-1.28,9.61,-0.37,0.5750000000000001,-0.48,34.29,13.989706,-74.53630455925499,6694.489905016749,9.943570787197121,0.835419056521935,-0.954550956445772,4.332477197260555
16457189,1883.0,1,211022.0,249585,-3.31,-1.97,10.18,-0.09,0.53,-0.07,34.29,14.029708,-82.02413807073239,6373.1684012384,10.884364933242544,0.5421254467371921,-1.0513806718337613,4.124646821993842
16497187,1914.0,1,210920.0,249441,-3.62,-2.06,9.28,0.09,-0.23,-0.05,34.29,14.069706,-61.692016956945,5827.325626585604,10.171843490734608,0.2519920633670831,-0.7884536853209814,3.771596349620325
16537187,1936.0,1,210852.0,249430,-3.7,-2.18,9.02,0.07,-0.17,-0.18,34.29,14.109706,-40.53825654530376,5040.775565807459,9.990135134221159,0.25729360660537215,-0.5149015828463112,3.262856684283948
16577187,1923.0,1,211111.0,249660,-3.41,-1.91,9.11,0.04,-0.18,-0.21,34.29,14.149706,-62.729462679608964,4130.442880745953,9.91303687070718,0.27946377224964236,-0.80186952501641,2.6740545613970936
16617188,1909.0,1,211221.0,249919,-3.25,-1.78,9.14,0.08,-0.14,-0.0,34.29,14.189707,-76.98986536029942,3254.8166965163214,9.86258079814812,0.161245154965971,-0.9862794388817261,2.1077005629191765
16657187,1936.0,1,211340.0,250109,-2.75,-1.6,9.28,0.11,-0.17,0.25,34.29,14.229706,-56.837544069071804,2511.2826233474925,9.810244645267517,0.32171415884290827,-0.7256775528961665,1.626783588383722
16697167,1937.0,1,211335.0,250351,-2.96,-1.67,9.18,0.07,-0.23,0.47,34.29,14.269686,-57.167190657737784,1911.7133699779602,9.788917202632781,0.5279204485526204,-0.7299404128155573,1.2389828920066446
16737853,1934.0,1,211563.0,250760,-2.96,-1.76,9.12,0.12,-0.07,0.57,34.33,14.310372,-62.84599312591191,1420.4739883442742,9.748517836061028,0.5866856057549051,-0.8033764508758396,0.9212498307884842
16778167,1951.0,1,211750.0,251141,-3.06,-2.26,9.04,0.12,0.11,0.41,34.33,14.350686,-49.9141013325119,995.6183604191981,9.807792819997779,0.4411349000022555,-0.6361463168372249,0.646453704330814
16818158,1946.0,1,211921.0,251640,-2.93,-2.48,9.37,0.08,0.24,-0.06,34.33,14.390677,-52.503715390300975,602.9416731858146,10.125818485436128,0.26,-0.6696341864320948,0.39247087932044755
16858167,1946.0,1,212069.0,251976,-3.12,-2.38,9.56,0.07,0.01,-0.39,34.33,14.430686,-59.49806821832073,214.39312406443327,10.334040835994408,0.3963584236521283,-0.7600824038800683,0.14115812924400795
16898167,1968.0,1,212224.0,252076,-2.92,-1.97,9.82,-0.04,-0.18,-0.49,34.33,14.470686,-30.6154375500629,-187.61481709685054,10.432626706635295,0.523545604508337,-0.3865835937132797,-0.1188601399639627
16938204,2045.0,1,212098.0,251989,-3.28,-1.35,9.61,-0.04,-0.03,-0.13,34.33,14.510723,37.51062578811565,-598.2679589100983,10.243680979023116,0.1392838827718412,0.49439583958055666,-0.38447011490785915
16978201,2086.0,1,212031.0,251942,-3.63,-1.35,9.58,-0.04,-0.08,0.01,34.33,14.55072,88.4445980858243,-987.9959279182232,10.333237633965455,0.09,1.1530539191982692,-0.6365457123965529
17018188,2086.0,1,211927.0,251759,-3.61,-1.01,9.26,-0.1,-0.41,0.07,34.33,14.590707,79.2832099574243,-1320.8310674442446,9.9899849849737,0.4277849927241487,1.034582454298291,-0.8518230938859618
17058187,2059.0,1,211863.0,251801,-3.06,-0.77,8.74,-0.13,-0.47,0.22,34.33,14.630706,63.318622265309216,-1580.655315652297,9.292152603137769,0.5349766350038102,0.8281346907169271,-1.0198771157099127
17098187,2064.0,1,211952.0,251536,-2.93,-0.83,8.63,-0.1,-0.17,0.46,34.33,14.670706,61.147698923168996,-1780.183007778942,9.151540853867179,0.500499750249688,0.8000611646394084,-1.1489313951252955
17138187,2027.0,1,211805.0,251216,-2.72,-1.07,9.03,0.01,-0.13,0.6,34.33,14.710706,33.54415965509124,-1943.1991076330626,9.49126967270449,0.6140032573203501,0.4431030609459698,-1.254370019085454
17177167,2013.0,1,211637.0,250919,-2.79,-1.24,8.8,0.02,-0.16,0.67,34.33,14.749686,17.275936365859035,-2077.231230070625,9.31459607283107,0.6891298861608022,0.2327288013487094,-1.3410618401321028
17217167,2014.0,1,211578.0,250883,-2.89,-0.94,9.1,0.1,-0.03,0.75,34.33,14.789686,23.08319208689525,-2161.861145343407,9.594045028036922,0.7572318007057021,0.30782594630943655,-1.3958003709901723
17257167,1982.0,1,211614.0,251045,-3.17,-1.24,9.31,0.1,0.09,0.72,34.33,14.829686,-3.768563815569423,-2161.2067020351365,9.912749366346352,0.7324616030891995,-0.03941039083909166,-1.3953770778188492
17297158,1975.0,1,211581.0,251125,-3.04,-1.12,9.65,-0.0,0.09,0.49,34.33,14.869677,-12.516842227612656,-2049.0018012308697,10.179317265907375,0.498196748283246,-0.15253968350760608,-1.3228030783612803
17337167,1982.0,1,211605.0,251542,-3.0,-1.17,9.47,-0.14,0.08,0.3,34.33,14.909686,7.912003492891677,-1828.757997509748,10.002489690072167,0.340587727318528,0.11163810754363757,-1.1803496420388109
17377167,1961.0,1,211851.0,251969,-2.82,-1.53,9.37,-0.22,0.47,-0.02,34.33,14.949686,-20.901504927922545,-1537.0633088525988,9.904049676773637,0.5193264869039514,-0.2609668409291532,-0.991681856365988
17417188,1935.0,1,212013.0,252380,-3.03,-1.32,9.68,-0.29,0.5750000000000001,-0.17,34.33,14.989707,-27.873368957865804,-1228.0977393664682,10.22867049034233,0.6660517997873739,-0.35112424209310705,-0.7918432850418262
17457187,1979.0,1,212049.0,252474,-3.84,-1.87,9.46,-0.03,0.51,-0.25,34.33,15.029706,7.176839778345617,-949.4951291722822,10.379503841706502,0.568770604022395,0.10213125978400749,-0.6116434405057903
17497188,1968.0,1,212001.0,252446,-3.85,-1.01,9.63,0.26,0.4,-0.45,34.33,15.069707,13.575393334338811,-725.8535993537561,10.420148751337479,0.6558200972827838,0.18487483558226026,-0.46699235889169344
17537167,1983.0,1,212003.0,252432,-3.48,-0.34,9.93,0.25,0.21,-0.37,34.33,15.109686,26.50959807860078,-557.6241752848406,10.527625563250243,0.4934571916590131,0.3521348797909297,-0.3581817628873132
17577167,1979.0,1,211953.0,252190,-3.33,-0.35,9.45,0.3,-0.02,-0.28,34.33,15.149686,30.924431025092996,-428.21155192692,10.02566207290072,0.4108527716834828,0.4092257615578793,-0.2744778284774966
17617187,1970.0,1,211834.0,252099,-3.36,-0.24,9.16,0.37,0.22,-0.22,34.33,15.189706,31.02825853931849,-309.61453938770006,9.759754095262851,0.4834252786108728,0.4105684181001871,-0.19776941857742417
17657167,1991.0,1,211788.0,251872,-3.5,0.29,9.29,0.41,0.31,0.06,34.33,15.229686,51.17819321564134,-168.3121339251065,9.9316765956207,0.5174939613174244,0.6711394413212882,-0.1063751869182887
17697135,1970.0,1,211670.0,251684,-3.74,-0.09,9.17,0.32,0.18,0.12,34.33,15.269654,46.00723649844851,20.44363478485523,9.903766960101596,0.3862641583165593,0.604270664599435,0.015711824948209774
17737159,1951.0,1,211707.0,251899,-3.22,-0.28,8.85,-0.01,0.13,-0.14,34.33,15.309678,24.557564588120247,252.26300974939514,9.421746122667496,0.19131126469708992,0.3268919511091782,0.16565232730005325
17777900,1915.0,1,211875.0,251735,-3.04,-0.39,8.495,-0.37,0.13,-0.28,34.37,15.350419,1.6664781046740256,484.65120699262076,9.030986933884911,0.48187135212627036,0.030873431771585795,0.31596074324077644
17818188,1907.0,1,211769.0,251531,-3.31,-1.69,8.495,-0.52,-0.05,-0.32,34.37,15.390707,-1.9484793210667146,655.2187037394833,9.272390468482223,0.6126173356998641,-0.01587377463165992,0.4262836019364013
17858201,1900.0,1,211693.0,251718,-4.15,-2.53,8.74,-0.61,0.14,-0.74,34.37,15.43072,-4.585534322501517,721.1815001960225,10.000549984875832,0.9691749068150702,-0.04997513183464935,0.4689482620354063
17898188,1854.0,1,211715.0,251536,-3.97,-2.24,9.49,-0.42,0.13,-0.82,34.37,15.470707,-37.34095214419193,692.30909469358,10.52799126139455,0.9304300081145276,-0.4735553009486333,0.4502736237062996
17938188,1855.0,1,211373.0,251048,-3.31,-2.11,9.48,-0.14,-0.17,-0.74,34.37,15.510707,-39.245983105410886,628.4852738882935,10.260536048374862,0.7720751258783046,-0.49819041142449955,0.40899245057302486
17978232,1851.0,1,211127.0,250943,-3.38,-1.33,9.13,0.22,0.18,-0.41,34.37,15.550751,-25.761442176195946,597.8978012769625,9.825996132708378,0.49889878733065685,-0.32381363631162036,0.3892085088308052
18018168,1835.0,1,211303.0,251289,-4.07,-0.77,9.2,0.55,0.5750000000000001,0.18,34.37,15.590687,-46.02862028534088,626.523016219958,10.089489580746887,0.8157971561607702,-0.5859008054531498,0.4077232645932982
18058158,1809.0,1,211428.0,251122,-4.605,-1.13,8.99,0.575,0.49,0.48,34.37,15.630677,-56.56235993225478,681.871170512853,10.163809571218856,0.8950558641783204,-0.7221189799649657,0.44352238647512315
18098159,1814.0,1,211279.0,251068,-4.605,-0.75,8.84,0.44,0.32,0.12,34.37,15.670678,-52.17116604146506,704.928293551899,9.995705327789532,0.5571355310873648,-0.6653337891608566,0.4584357068642909
18138158,1797.0,1,211251.0,251183,-4.605,0.0,8.71,0.09,-0.1,-0.24,34.37,15.710677,-59.15989465490402,660.2387063467652,9.85241721609474,0.2751363298439521,-0.755709276479841,0.42953053378952416
18178167,1808.0,1,211247.0,251264,-4.56,0.44,8.495,0.05,-0.01,0.02,34.37,15.750686,-44.044943927928315,561.5088438461114,9.65154003255439,0.05477225575051661,-0.5602486836724342,0.3656721734486731
18218158,1830.0,1,211241.0,251189,-4.605,0.2,8.71,0.02,0.26,0.4,34.37,15.790677,-16.51331615771308,456.78750177359024,9.854446965710457,0.4774934554525329,-0.20422051116142362,0.29793853108286605
18258135,1825.0,1,211207.0,250831,-4.605,-0.23,8.77,-0.09,0.21,0.48,34.37,15.830654,-15.625348724574824,390.1231625000922,9.90816960896411,0.5316013544000805,-0.19273766586407726,0.25482011390504816
18298167,1819.0,1,211204.0,251012,-4.59,0.03,8.495,-0.22,0.27,0.44,34.37,15.870686,-16.768359658709308,369.4833328296814,9.655776768339251,0.561159513863928,-0.2075186333185425,0.24147029605780712
18338158,1827.0,1,211539.0,251832,-4.605,-0.12,8.495,-0.41,0.53,0.54,34.37,15.910677,-4.864632601274076,362.69692823186983,9.663614748115737,0.8605811989580066,-0.05358432090881886,0.23708085744977717
18378167,1838.0,1,211570.0,251856,-4.605,-0.91,8.67,-0.46,0.11,0.33,34.37,15.950686,12.567174302722355,321.8925296244116,9.859159446930555,0.5767148342118485,0.17183694395038376,0.21068861984537926
18418167,1842.0,1,211478.0,251913,-4.605,-0.98,8.67,-0.6,-0.04,0.05,34.37,15.990686,18.490566644092873,215.02690560739393,9.86586666238704,0.6034069936618236,0.24843592196814357,0.14156805840953773
18458187,1845.0,1,211512.0,252074,-4.605,-1.2,8.63,-0.62,-0.12,0.03,34.37,16.030706,26.7304829437207,39.9653385251434,9.855096397296174,0.6322183167229498,0.3549912759154285,0.028338440243115177
18498187,1852.0,1,211495.0,251959,-4.605,-1.92,8.495,-0.47,-0.07,0.03,34.37,16.070706,38.57767727865106,-183.51775606652214,9.851773951933732,0.47613023428469653,0.508194529411801,-0.11621016565035078
18538187,1841.0,1,211373.0,251761,-4.605,-1.64,8.58,-0.28,-0.08,0.05,34.37,16.110706,25.713120361305688,-428.52181459562036,9.874817719836654,0.29546573405388316,0.3418351434839799,-0.2746785060110853
18578188,1837.0,1,211287.0,251603,-4.605,-1.78,8.495,-0.09,-0.28,0.22,34.37,16.150707,34.51287086535597,-668.5059825998906,9.825449099150633,0.3672873534441392,0.4556300529843626,-0.4298999870134978
18618188,1859.0,1,211243.0,251559,-4.605,-1.34,8.495,-0.04,-0.16,0.21,34.37,16.190707,45.07681675049622,-878.2987940182926,9.755339563541598,0.26702059845637377,0.5922388426782489,-0.5655937336586714
18658187,1833.0,1,211179.0,251528,-4.605,-1.13,8.495,-0.05,-0.11,0.34,34.37,16.230706,38.463983892363636,-1037.673686718945,9.728717798353491,0.36083237105337435,0.5067242912956845,-0.6686772290630668
18698188,1863.0,1,211184.0,251395,-4.605,-1.0,8.495,-0.12,-0.13,0.42,34.37,16.270707,52.669790787719975,-1140.929105965809,9.71447631115543,0.4557411546042336,0.6904281939566673,-0.7354627142486482
18738187,1837.0,1,211214.0,251618,-4.605,-0.67,8.68,-0.24,-0.11,0.53,34.37,16.310706,44.60364999937679,-1204.8473109110323,9.848721998310237,0.5921148537234985,0.5861200365146603,-0.7768049349339592
18778875,1835.0,1,211272.0,251570,-4.605,-1.01,8.495,-0.27,-0.12,0.76,34.33,16.351394,31.299882227403305,-1263.347187546673,9.71551079460056,0.8154140052758476,0.41408094870995216,-0.8146425871647556
18817187,1815.0,1,211186.0,251342,-4.605,-1.56,8.71,-0.35,-0.19,0.52,34.33,16.389706,20.17899391643521,-1346.0979699809495,9.975155387260894,0.6549809157525126,0.2702699988054062,-0.8681656970864412
18857188,1805.0,1,211156.0,251237,-4.605,-1.41,8.85,-0.58,-0.39,0.21,34.33,16.429707,8.141530325181419,-1453.838056088845,10.075545890918267,0.7297944916207576,0.11460625818566986,-0.9378518595865333
18897187,1825.0,1,211009.0,251012,-4.605,-1.24,8.495,-0.54,-0.46,0.26,34.33,16.469706,26.39322931061739,-1550.7082632934985,9.742107061616599,0.7555130707009642,0.3506300446918839,-1.0005073970428597
18937190,1807.0,1,210883.0,251038,-4.49,-1.37,8.495,-0.5,-0.24,0.45,34.33,16.509709,14.68072107984921,-1584.2941675401623,9.705772766761026,0.7142128534267638,0.19916849887540983,-1.0222307208826207
18977187,1798.0,1,210919.0,250881,-3.98,-1.3,8.495,-0.51,-0.33,0.62,34.33,16.549706,-4.684358938518039,-1522.0753395148292,9.47076686440966,0.8679861750051092,-0.05125309286670748,-0.9819876552144107
19017188,1776.0,1,210798.0,250985,-4.14,-1.72,8.51,-0.46,-0.07,0.86,34.33,16.589707,-13.764962561873086,-1375.1640440452836,9.618632959002023,0.9778036612735708,-0.16867988434822997,-0.8869656000163355
19057181,1776.0,1,210922.0,251157,-4.55,-1.98,8.74,-0.5,0.1,0.8,34.33,16.6297,-32.00279871534713,-1183.786025408706,10.050398002069372,0.9486832980505139,-0.40452440216861024,-0.7631825199443689
19097167,1779.0,1,210968.0,251245,-4.605,-1.97,8.98,-0.56,0.04,0.78,34.33,16.669686,-9.624669025951835,-967.9934114326376,10.282379345268293,0.9610411021387171,-0.11513923816646339,-0.6236081079766959
19137167,1793.0,1,211038.0,251384,-4.55,-2.19,8.61,-0.5,-0.18,0.75,34.33,16.709686,-20.795728232512367,-683.9866344980198,9.98151792063712,0.9191844211038392,-0.25959897834305934,-0.43991285467261637
19177188,1744.0,1,211045.0,251596,-4.14,-1.73,8.495,-0.44,-0.18,0.72,34.33,16.749707,-46.976580867145906,-237.09677587612143,9.607160090266008,0.8627861844049196,-0.5981594585327777,-0.15086501340412267
19217179,1797.0,1,211396.0,252142,-3.81,-2.23,8.6,-0.41,-0.21,1.01,34.33,16.789698,-20.142516452012963,437.0550386469565,9.66690229597879,1.1100900864344299,-0.25115190073417704,0.2851755968617758
19257181,1763.0,1,211655.0,252061,-3.89,-3.4,8.495,-0.14,-0.15,1.2862500000000001,34.33,16.8297,-36.02329520141841,1281.522348864451,9.942692039885374,1.3025125959083852,-0.45651588005977406,0.8313760718354033
19297179,1749.0,1,212050.0,253914,-3.67,-3.43,8.495,0.1,0.03,1.28,34.33,16.869698,-68.39558231691393,2111.704388111544,9.8690843040274,1.2842507543311001,-0.8751415537004832,1.3683368501449287
19337157,1729.0,1,212778.0,253292,-4.605,-1.3,8.56,-0.665,-0.4,1.2862500000000001,34.33,16.909676,-81.86264043246057,2735.939123841681,9.806611290348975,1.5022197117931853,-1.0492922479491058,1.7720911518514366
19377180,1741.0,1,212313.0,252659,-4.605,-2.57,8.495,-0.665,-0.5,0.45,34.33,16.949699,-77.10065295316434,3124.4942746883826,9.998797427690992,0.9458990432387593,-0.9877121004211671,2.023408171916142
19417216,1792.0,1,212013.0,252315,-3.7,-2.34,8.55,-0.665,-0.29,0.67,34.33,16.989735,-29.889109633529664,3466.663831445955,9.605628558298514,0.9875348095130623,-0.37719100701534336,2.2447230436242807
19457180,1791.0,1,211968.0,252150,-2.85,-1.9,8.65,-0.4,-0.43,1.05,34.33,17.029699,-31.870205406811483,4018.685678557867,9.30349396732217,1.2030793822520607,-0.40280975769792604,2.6017701328842424
19497181,1763.0,1,211901.0,252293,-3.39,-2.38,8.495,-0.06,0.07,0.95,34.33,17.0697,-66.86543569554566,4830.601052059052,9.451006560150088,0.9544631999192006,-0.8553542999345071,3.126916053015267
19537164,1787.0,1,212068.0,252647,-4.05,-1.92,8.495,0.28,0.5750000000000001,1.11,34.33,17.109683,-44.46953042120819,5586.447641249528,9.604890681314389,1.281064010890947,-0.5657392690652394,3.61579674860632
19577153,1842.0,1,211867.0,252391,-4.605,-0.04,10.775,0.01,-0.18,0.83,34.33,17.149672,5.62780810057094,5743.405079369839,11.717860299559813,0.8493526947034429,0.0820997919026781,3.7173166371972446
19617202,1872.0,1,210895.0,249870,-4.605,0.28,9.25,-0.37,-0.5850000000000001,0.37,34.33,17.189721,30.991849639597547,4915.893152256149,10.336678625167757,0.7848726011270875,0.4100975925413436,3.1820828843129214
19657164,1847.0,1,208074.0,243845,-3.91,-1.0,9.35,-0.08,-0.5850000000000001,0.57,34.33,17.229683,3.0427280612772853,3209.315722648618,10.1838401401436,0.8206856889211607,0.04867055445017653,2.0782705858938946
19697179,1823.0,1,204058.0,240104,-3.89,-0.85,9.34,-0.17,-0.5850000000000001,0.81,34.33,17.269698,-26.18934856282234,1202.900335997806,10.153334427664637,1.0135210900617708,-0.3293471532583081,0.7805234452724118
19737181,1877.0,1,202992.0,238730,-3.43,-0.68,9.36,-0.41,-0.34,0.87,34.33,17.3097,23.417668475786737,-436.2531065525482,9.99184167208428,1.0200980345045274,0.3121512633040949,-0.27967909666502805
19777179,1935.0,1,201107.0,235255,-2.92,-0.46,9.76,-0.36,-0.5850000000000001,0.64,34.33,17.349698,79.14869039634586,-1399.86827275365,10.197823297155134,0.9388423722862108,1.0328429002879917,-0.9029442664384751
19817867,1925.0,1,199624.0,233514,-2.08,-0.85,9.65,-0.16,-0.36,0.7,34.23,17.390386,60.996607062855794,-1886.350296960832,9.908148161992735,0.8032434251209281,0.7981073041790837,-1.2176002744012449
19858179,1929.0,1,199092.0,231038,-2.24,-0.14,9.05,-0.15,0.05,0.94,34.23,17.430698,65.9749228182241,-2355.701900949926,9.324146073501852,0.9532051195833979,0.8624849238156539,-1.521176346472585
19898164,2001.0,1,197518.0,225941,-2.12,-0.34,9.38,-0.2,0.05,0.75,34.23,17.470683,128.7340049096987,-3118.8411522182514,9.622598401679248,0.7778174593052023,1.674060668336971,-2.014773927421483
19938164,2032.0,1,194979.0,219377,-2.72,-0.36,10.01,-0.05,0.01,0.45,34.23,17.510683,158.30114209904528,-4091.551621678074,10.379214806525589,0.4528796749689701,2.056411247378782,-2.6439219287738847
19978164,1994.0,1,193489.0,217348,-3.1,-0.36,9.63,0.02,0.07,0.68,34.23,17.550683,118.05395141347573,-4870.935776275174,10.123067716853425,0.6838859554048468,1.5359504207222738,-3.1480266943191793
20018149,1963.0,1,193718.0,218951,-2.81,-0.38,9.65,-0.08,-0.06,0.56,34.23,17.590668,74.23385870416276,-5021.1849010373735,10.057981904935005,0.5688585061331157,0.9692862315660585,-3.2452076536251693
20058180,1954.0,1,193876.0,219927,-3.01,-0.35,9.51,-0.16,-0.2,0.52,34.23,17.630699,77.68946213482837,-4337.121042173848,9.981117171940223,0.5796550698475775,1.0139727348346244,-2.802755944597712
20098179,1948.0,1,194083.0,221724,-3.02,-0.4,9.78,-0.19,-0.13,0.58,34.23,17.670698,43.21480226295822,-2958.883113556761,10.24347597253979,0.6240192304729077,0.5681600043066085,-1.9113132538872362
20138180,1899.0,1,194708.0,223567,-2.9,-0.6,9.66,-0.14,-0.0,0.67,34.23,17.710699,20.38282988011345,-1351.8047178876352,10.103741881105238,0.6844705983459042,0.27290592524775387,-0.8718568150012171
20178179,1968.0,1,195297.0,224990,-2.52,-0.73,9.86,-0.11,-0.02,0.56,34.23,17.750698,51.832974975786605,-166.94107491644053,10.203082867447465,0.5710516614107695,0.6796068212889289,-0.10548838754466067
20218181,1890.0,1,195490.0,225579,-2.64,-0.71,9.61,-0.08,-0.21,0.38,34.23,17.7907,2.4184920630597646,48.274701211235325,9.991286203487517,0.4414748010928823,0.040598180251459365,0.033712926372960306
20257179,1882.0,1,195340.0,226003,-2.55,-0.75,9.65,-0.13,-0.34,0.19,34.23,17.829698,-38.746413307082335,-786.2661219546726,10.0093706095838,0.4106093033529562,-0.4917301714479506,-0.5060671083103264
20297180,1840.0,1,195161.0,0,-2.26,-0.62,9.58,-0.11,-0.38,0.02,34.23,17.869699,-62.753687369021776,-2127.4517453833114,9.862474334567365,0.3961060464067672,-0.8021827891638579,-1.3735444110798698
20565958,1759.0,1,185471.875,221720,-4.6,-3.66125,10.775,-0.665,0.5750000000000001,-1.02,34.23,18.138477,-162.41168260197233,-3117.2688566056845,12.274582541272025,1.346569715982058,-2.0909207531894776,-2.0137569684462897
20978178,1767.0,1,192797.0,222429,-1.35,-1.46,8.8,-0.21,-0.47,-0.3,34.23,18.550697,-153.41183804165615,-3195.1885493109926,9.021867877551744,0.5958187643906492,-1.9745383061204034,-2.064155335145028
21018885,1813.0,1,192441.0,221280,-1.28,-1.75,9.07,-0.29,-0.36,-0.36,34.09,18.591404,-108.91173468076376,-2465.486518300478,9.325545560448461,0.5859180830116101,-1.3990804869038629,-1.5921849094046725
21057209,1778.0,1,191950.0,220515,-1.43,-1.56,9.15,-0.14,-0.17,-0.11,34.09,18.629728,-159.44016947894346,-1472.2140013049714,9.391538745061961,0.24617067250182342,-2.052494315217329,-0.9497373995993877
21097198,1832.0,1,192058.0,221535,-1.31,-1.69,9.58,-0.1,0.2,0.11,34.09,18.669717,-93.18516868221474,-659.1998636684195,9.815732270187487,0.24919871588754228,-1.1957107261665583,-0.423880800102377
21137165,1921.0,1,192646.0,222593,-1.79,-1.73,10.13,-0.16,0.2,0.1,34.09,18.709684,-29.779474217747925,-72.26715522550235,10.431390127878451,0.2749545416973504,-0.37577324497638814,-0.044253406300108704
21177165,1873.0,1,193198.0,224065,-1.97,-1.58,10.17,-0.11,0.08,0.13,34.09,18.749684,-60.99357429343223,488.9439321554543,10.478845356240353,0.1881488772222678,-0.779421699738088,0.3187372728879301
21217165,1967.0,1,193962.0,225617,-1.91,-1.3,10.26,-0.07,0.07,0.12,34.09,18.789684,8.010747631125103,1137.4942382214567,10.516924455371923,0.15556349186104046,0.11291502786868475,0.7382188572328671
21257180,1968.0,1,194378.0,226413,-1.8,-1.3,10.0,-0.04,0.09,0.08,34.09,18.829699,21.300900647725125,1748.7418073678425,10.243534546239399,0.1268857754044952,0.28477805501634584,1.1335730746841546
21297165,1957.0,1,194713.0,226789,-1.76,-1.24,10.19,-0.07,0.14,0.06,34.09,18.869684,-9.809414756864651,2101.853717025875,10.414955592800192,0.1676305461424021,-0.11752829723355053,1.3619654475332446
21337165,1968.0,1,194640.0,226560,-1.63,-1.2,10.08,-0.06,-0.02,0.08,34.09,18.909684,11.962310109953648,2134.0728231075677,10.281211018163182,0.1019803902718557,0.1640150783140278,1.3828047279081284
21377181,1969.0,1,194507.0,226225,-1.44,-1.25,9.94,-0.13,-0.1,0.18,34.09,18.9497,-11.615321950594014,2044.346446513291,10.121249922810916,0.24351591323771843,-0.1408815781682697,1.3247698117894284
21417179,1996.0,1,194435.0,226163,-1.06,-1.31,9.66,-0.2,-0.24,0.25,34.09,18.989698,37.319952750027646,2127.782478380891,9.805880888528067,0.4001249804748512,0.4919301309103619,1.3787361402483245
21457198,2046.0,1,194581.0,226381,-0.78,-1.33,9.28,-0.32,-0.25,0.29,34.09,19.029717,48.13562559068553,2465.295657867809,9.407215315915757,0.498998997994986,0.6317941545007947,1.5970392725485365
21497179,1968.0,1,194798.0,226275,-0.76,-1.19,8.96,-0.43,0.16,0.34,34.09,19.069698,6.324215403996633,2749.2607841245353,9.070573300514143,0.5710516614107694,0.09110545701014414,1.7807075862425539
21537164,2065.0,1,194658.0,224770,-1.27,-1.85,10.0,-0.45,0.32,0.32,34.09,19.109683,56.61156055972062,2462.054870363506,10.248677963522905,0.638200595424354,0.7414016089722069,1.5949431349565637
21577158,2000.0,1,193909.0,221384,-1.64,-1.8,10.43,-0.32,-0.16,0.29,34.09,19.149677,26.523221175005975,1346.6148973440975,10.710485516539388,0.4605431575867782,0.3523110483109157,0.8734778565541864
21617181,2025.0,1,192985.0,218806,-1.13,-1.74,9.95,-0.21,-0.33,0.34,34.09,19.1897,17.509938041818863,-200.83651497317157,10.164005116094737,0.5182663407939976,0.23575481890756295,-0.12741191878669106
21657179,2066.0,1,192819.0,0,-1.01,-1.8,10.09,-0.24,-0.35,0.31,34.09,19.229698,73.63810864392406,-1242.6215626318626,10.298941693203238,0.5255473337388366,0.9615822263038063,-0.8012372770531313
21925958,2017.0,1,185471.875,225740,-4.6,-3.66125,10.775,-0.665,0.5750000000000001,-1.02,34.09,19.498477,15.645189770353152,-975.2433619412121,12.274582541272025,1.346569715982058,0.21164062831832223,-0.6282973675411647
22185179,1982.0,1,195830.0,225405,-1.4,-2.57,9.59,-0.06,-0.36,-0.23,34.09,19.757698,-26.913037897245676,547.033760281778,10.026614583198059,0.4313930922024598,-0.3387056188510759,0.35630970621937846
22217883,1999.0,1,195630.0,225036,-1.35,-2.43,9.47,0.09,-0.3,-0.31,33.93000000000001,19.790402,0.27238329474304696,2338.4390719842477,9.869564326757287,0.4406812907306141,0.012845546474379814,1.5149885802070076
22258178,2023.0,1,195107.0,223692,-1.15,-2.32,9.19,0.26,-0.12,-0.33,33.93000000000001,19.830697,6.819926077942603,3199.0974750073465,9.547826977904448,0.43692104549906957,0.09751579230932014,2.071661435193173
22298180,2032.0,1,194276.0,221390,-0.87,-1.93,8.93,0.31,0.13,-0.25,33.93000000000001,19.870699,29.201166496007264,2599.0728761921205,9.17751055570082,0.4189272013130682,0.38694118303008224,1.6835662219109344
22338158,2066.0,1,192911.0,217440,-0.78,-1.6,9.12,0.3,0.12,-0.26,33.93000000000001,19.910677,52.023721368707236,984.2959260974014,9.292082651375848,0.4147288270665544,0.6820734785549432,0.6391303669681986
22378164,2022.0,1,191114.0,213654,-0.51,-1.82,9.37,0.06,0.26,-0.29,33.93000000000001,19.950683,11.466142277149089,-647.3181877131167,9.558734225827182,0.3940812099047606,0.1575988312164529,-0.41619574590105135
22418158,2011.0,1,190561.0,214073,-1.14,-2.25,10.26,-0.07,0.38,-0.38,33.93000000000001,19.990677,3.8412296311984444,-1451.1635834199258,10.565495729022846,0.5419409561935691,0.05899646242259791,-0.9361220137720263
22458181,2055.0,1,191130.0,215708,-1.31,-2.15,10.39,-0.03,0.22,-0.51,33.93000000000001,20.0307,39.09826331432966,-1187.916720130258,10.690682859387422,0.5562373594069352,0.5149265430967279,-0.7658542484903818
22498179,2027.0,1,191752.0,216718,-1.04,-1.94,9.66,0.04,0.17,-0.65,33.93000000000001,20.070698,25.726261183827692,-215.4898868873043,9.907613234275953,0.6730527468185536,0.3420050754279554,-0.13688970271346396
22538164,2028.0,1,192219.0,217445,-1.07,-1.69,9.45,0.17,0.29,-0.69,33.93000000000001,20.110683,12.97430863315631,829.4588132161064,9.65937368570033,0.7675285010994706,0.17710184484330188,0.5389819022780417
22578164,1987.0,1,192714.0,217875,-1.05,-1.43,9.24,0.27,0.44,-0.69,33.93000000000001,20.150683,-10.604603983544692,1389.6401242595869,9.408772502298055,0.8617424209124208,-0.12781137128708026,0.9013065233276057
22618164,2000.0,1,192909.0,217135,-1.08,-1.21,9.44,0.24,0.37,-0.72,33.93000000000001,20.190683,-9.355152738151542,1212.9157863644639,9.578314047889638,0.8443340571124678,-0.11165395962760061,0.7870014269315649
22658158,2033.0,1,192377.0,213352,-1.14,-1.22,9.58,0.18,0.29,-0.82,33.93000000000001,20.230677,39.839115682526256,406.22780142160303,9.72442286205202,0.8882004278314664,0.5245069542860307,0.26523657564581404
22698158,2026.0,1,190610.0,207719,-1.54,-1.44,10.0,0.14,0.32,-0.99,33.93000000000001,20.270677,23.746460763466402,-668.3304334649175,10.219843443027882,1.0498095065296371,0.3164030757394259,-0.4297864420369862
22738164,1995.0,1,188942.0,205952,-1.74,-1.61,10.27,0.16,0.22,-1.21,33.93000000000001,20.310683,8.82390126636882,-1608.5239258768513,10.540047438223416,1.2402015965156632,0.12343041058207825,-1.0379025004196962
22778165,1993.0,1,189224.0,207706,-1.81,-1.61,10.13,0.21,0.14,-1.2837500000000002,33.93000000000001,20.350684,-0.7774030809144629,-2179.3010421852164,10.415618080555758,1.3083249070853924,-0.0007298776876685075,-1.4070804760022113
22818164,1925.0,1,189236.0,207095,-1.91,-1.44,10.1,0.29,0.15,-1.2837500000000002,33.93000000000001,20.390683,-53.680732845405664,-2369.35818799624,10.379388228599987,1.324618459217597,-0.6848549128290945,-1.5300092170654702
22858164,1938.0,1,188816.0,206203,-2.03,-1.24,10.03,0.37,0.33,-1.2837500000000002,33.93000000000001,20.430683,-43.77516887274867,-2273.3355132312004,10.308220020934748,1.3761591704813803,-0.5567600588556854,-1.4679018626062492
22898164,1953.0,1,189042.0,206126,-2.51,-1.16,9.79,0.47,0.46,-1.23,33.93000000000001,20.470683,-19.447939515903922,-1941.5979392908475,10.172993659685432,1.3947759676736617,-0.24216990521632667,-1.2533343852622747
22938164,1922.0,1,189575.0,207192,-2.67,-0.84,9.48,0.575,0.42,-1.1,33.93000000000001,20.510683,-44.70708139035379,-1357.763161012576,9.884578898466035,1.310353005872845,-0.5688111846863937,-0.8757107290906894
22978164,1915.0,1,190570.0,208612,-2.27,-0.37,8.82,0.575,0.27,-1.07,33.93000000000001,20.550683,-50.6722756810616,-552.5379752198318,9.114943773825486,1.244357263811322,-0.6459507290576639,-0.3548920145954542
23018165,1921.0,1,191151.0,210218,-2.3,-0.11,8.74,0.41,0.26,-1.06,33.93000000000001,20.590684,-31.13330781790637,286.77806909930473,9.03823544725407,1.165890217816412,-0.39328048815762356,0.18797662758091097
23058164,1936.0,1,192104.0,212499,-2.67,-0.59,9.45,0.34,0.19,-1.0,33.93000000000001,20.630683,-19.095651307937512,851.7509605106295,9.837657241437109,1.0731728658515365,-0.23761425278900639,0.5534004372445576
23098190,1943.0,1,192315.0,212045,-2.77,-0.95,9.34,0.22,0.24,-0.96,33.93000000000001,20.670709,1.9109415774978666,899.2123257060724,9.788309353509419,1.013706071797935,0.03403473716920293,0.584098393102637
23138164,1941.0,1,191682.0,212287,-2.74,-1.6,10.01,0.1,0.03,-1.11,33.93000000000001,20.710683,1.2003703245452042,448.84162588925915,10.500842823316612,1.1148990985734988,0.02484590944208675,0.29279914779402644
23178164,1882.0,1,191295.0,213187,-2.39,-1.86,9.67,0.15,-0.06,-1.21,33.93000000000001,20.750683,-50.995294491352496,-181.7523452745596,10.133143638575346,1.2207374820165062,-0.6501278811561302,-0.11506830000152517
23218181,1889.0,1,190868.0,214517,-1.87,-2.22,9.59,0.17,0.02,-1.27,33.93000000000001,20.7907,-33.98710083954587,-564.7115467407497,10.019650692514185,1.2814835153056008,-0.4301846161190719,-0.3627658665094357
23258851,1936.0,1,191371.0,216043,-1.9,-2.13,9.38,0.18,0.06,-1.2837500000000002,34.25,20.83137,12.308932679754191,-455.8567967700012,9.804657056725647,1.2976956740700034,0.1684974649388631,-0.292358740718095
23297164,1903.0,1,191465.0,218139,-1.9,-1.97,9.57,0.18,0.12,-1.2837500000000002,34.25,20.869683,-6.654517581136704,20.992913455465136,9.953682735550696,1.301850245804025,-0.07673040888095102,0.01606709775409582
23337165,1911.0,1,193089.0,221097,-2.01,-1.71,9.24,0.09,0.13,-1.2837500000000002,34.25,20.909684,1.0421428203858514,451.57586911367105,9.609464084952917,1.293450448413081,0.02279977364448686,0.2945676531343724
23377164,1904.0,1,193226.0,220624,-2.24,-1.71,9.79,-0.08,0.08,-1.2837500000000002,34.25,20.949683,3.002124402935475,430.01932439570066,10.18753159504303,1.2887257514692567,0.04814548392411285,0.2806249050595971
23417185,1904.0,1,192455.0,219314,-2.48,-1.77,10.26,0.11,0.16,-1.2837500000000002,34.25,20.989704,9.913679096698507,-142.07889075624618,10.702845416056423,1.2983505160394864,0.13752298849332825,-0.0894075557198237
23457164,1927.0,1,191771.0,219216,-1.96,-1.67,9.91,0.21,0.17,-1.2837500000000002,34.25,21.029683,33.97627857863044,-985.3157909614094,10.239072223595262,1.3118742555976928,0.4486910527617506,-0.6348122029272177
23497164,1889.0,1,191728.0,219789,-2.22,-1.39,9.64,0.15,0.22,-1.2837500000000002,34.25,21.069683,7.911195124167609,-1641.1315725721395,9.989499486961297,1.311073629702009,0.11162765403751193,-1.0589930884119674
23537164,1904.0,1,191960.0,222012,-2.36,-1.1,9.62,0.1,0.13,-1.22,34.25,21.109683,21.36823296966314,-1765.4411644756153,9.966142684108029,1.2309752231462663,0.2856487700983087,-1.139396388006796
23577165,1904.0,1,193139.0,225320,-2.16,-0.79,8.61,-0.13,-0.09,-1.21,34.25,21.149684,32.17653328022379,-1301.5338733264023,8.911890932905317,1.2202868515230343,0.42541745503171724,-0.8393416911539732
23617197,1875.0,1,194195.0,228598,-1.52,-1.03,9.3,-0.33,-0.03,-1.2837500000000002,34.25,21.189716,2.691265644027059,-457.31413769092273,9.479520030043716,1.3258258039802968,0.044125580823325766,-0.29330134713230993
23657198,1872.0,1,195314.0,231245,-2.23,-1.42,9.9,-0.18,0.34,-1.27,34.25,21.229717,9.46894831786647,430.67791969604644,10.246916609400119,1.3269890730522238,0.1317719051295519,0.2810508837345698
23697181,1897.0,1,196345.0,232381,-2.62,-1.39,10.2,0.02,0.43,-1.04,34.25,21.2697,30.819294322973686,1033.3786812833978,10.622452635808736,1.1255665240224588,0.4078661751130899,0.670877035988105
23737165,1909.0,1,196503.0,233356,-2.82,-1.56,10.56,0.29,0.43,-0.79,34.25,21.309684,57.545432287160196,1131.331506374655,11.040815187294822,0.9450396817065408,0.7534780705332521,0.7342328094354795
23777164,1894.0,1,197482.0,235277,-2.69,-1.42,10.25,0.38,0.29,-0.5,34.25,21.349683,30.48623656668736,706.5081217111228,10.691819302625722,0.6917369442208504,0.4035592033168374,0.4594575378819091
23817165,1842.0,1,197633.0,233162,-2.18,-1.41,9.96,0.36,0.23,-0.45,34.25,21.389684,-0.5511706750746033,0.8114145804536377,10.292817884330802,0.6204836822995429,0.002195670728363445,0.003013727732736469
23857164,1894.0,1,196252.0,229571,-2.47,-1.44,9.86,0.31,0.24,-0.47,34.25,21.429683,34.77209023242147,-554.9703535541533,10.266162866426773,0.6120457499239742,0.45898217579766143,-0.3564652740756582
23897165,1877.0,1,196223.0,232483,-2.58,-1.39,9.59,0.31,0.06,-0.46,34.25,21.469684,36.0674877919924,-580.6514912671475,10.027791381954453,0.5579426493825329,0.4757337471053414,-0.3730758041068182
23937164,1878.0,1,198753.0,236618,-2.37,-1.44,9.3,0.17,0.02,-0.36,34.25,21.509683,27.264257498306762,-7.735908785971504,9.70466382725337,0.39862262855989494,0.361893838335212,-0.0025146710886367373
23977165,1879.0,1,200103.0,238671,-2.72,-1.13,9.73,0.22,0.14,-0.08,34.25,21.549684,32.72882372057498,869.2160923379007,10.166031674158802,0.27276363393971714,0.4325594575974449,0.56469686421587
24017164,1853.0,1,200779.0,240751,-2.38,-0.73,9.42,0.22,0.21,0.21,34.25,21.589683,11.131724098583831,1609.0426580990472,9.743392632959015,0.3695943722515266,0.15327426697481894,1.0432158272681764
24057152,1841.0,1,201363.0,242327,-2.55,-0.8,9.46,0.06,0.32,0.29,34.25,21.629671,-11.748650081722399,1915.1706448941234,9.830264492881156,0.4360045871318328,-0.1426057250754606,1.241219053405049
24097153,1831.0,1,201833.0,243241,-2.67,-0.56,9.33,-0.08,-0.01,0.36,34.25,21.669672,-8.242535526371455,1768.2494481861663,9.720668701277706,0.36891733491393436,-0.0972660318261467,1.1461905940974746
24137182,1846.0,1,201818.0,243394,-2.9,-1.23,9.2,-0.16,0.01,0.29,34.25,21.709701,-8.921833941526382,1350.0507634664016,9.72434573634648,0.3313608305156178,-0.10605045152540167,0.8757001707695998
24177164,1807.0,1,202094.0,244034,-3.43,-1.47,9.98,-0.19,-0.04,0.26,34.25,21.749683,-38.90947502463033,881.741876023333,10.654867432305293,0.32449961479175904,-0.4938388213901065,0.5727985265485871
24217185,1831.0,1,202144.0,243920,-2.34,-1.55,9.63,-0.21,-0.5850000000000001,0.01,34.25,21.789704,-21.898695845175077,508.93416933404137,10.030702866698824,0.6216309194369277,-0.2738621213272879,0.3316669350662891
24257181,1856.0,1,201886.0,243993,-2.42,-1.12,9.41,-0.09,-0.48,0.0,34.25,21.8297,-2.4712042287818288,270.0855673867277,9.780536795084409,0.4883646178829912,-0.02263344736779701,0.17717993686998287
24297868,1821.0,1,202198.0,245154,-3.0,-1.32,10.58,0.31,-0.06,0.33,34.31,21.870387,-31.20686889838131,116.99563971196989,11.076046225977933,0.4567274898667695,-0.3942317510930378,0.07816154954117666
24338164,1851.0,1,202596.0,245634,-2.73,-0.52,10.09,0.57,-0.5850000000000001,0.37,34.31,21.910683,-19.193239638598914,-39.9230277402208,10.465725010719515,0.8966744113668016,-0.2388762266655153,-0.023333262226659227
24378164,1853.0,1,202817.0,245523,-1.89,-0.33,9.82,0.48,-0.5850000000000001,0.25,34.31,21.950683,-5.525213522584577,-270.82485298078626,10.005668393465776,0.7969473006416423,-0.062126693345811126,-0.1726802944832332
24418164,1854.0,1,202597.0,244598,-1.46,-0.36,9.17,0.19,-0.5850000000000001,-0.03,34.31,21.990683,-22.77437993408625,-574.1576793868434,9.292475450599802,0.6158124714553938,-0.28518612325242276,-0.36887561412847786
24458183,1841.0,1,202499.0,244290,-1.72,-0.42,9.29,-0.02,-0.22,0.26,34.31,22.030702,-32.17540612177305,-871.9306815853195,9.457214177547211,0.3411744421846396,-0.40675649320167906,-0.5614748459368014
24498180,1827.0,1,202650.0,244264,-1.35,-0.85,9.72,-0.03,-0.38,0.08,34.31,22.070699,-51.503881742588916,-1060.7860982599407,9.850045685173242,0.3894868418830089,-0.6567047312839672,-0.6836263099910502
24538181,1831.0,1,202989.0,245014,-1.63,-0.63,9.35,-0.02,-0.23,0.1,34.31,22.1107,-62.250041145520946,-1076.967967273194,9.51190306931268,0.2515949125081825,-0.7956698344616641,-0.6940927240654134
24578179,1777.0,1,203424.0,245752,-1.37,-0.72,9.79,0.04,-0.05,0.2,34.31,22.150698,-101.86926665688915,-925.7793124172989,9.911579087108167,0.21000000000000002,-1.3080100626836206,-0.5963040777865595
24618164,1744.0,1,203638.0,245813,-1.15,0.71,9.28,0.12,-0.29,0.6,34.31,22.190683,-169.1871279764133,-667.1143969213917,9.37789955160536,0.6771262806892079,-2.178538145620595,-0.42899991101367396
24658153,1763.0,1,204091.0,245926,-1.0,0.07,9.52,-0.02,0.01,0.65,34.31,22.230672,-120.30910334103713,-383.3876271405289,9.572632866667352,0.650384501660364,-1.5464667718492544,-0.2454857660112735
24698152,1839.0,1,204501.0,246140,-0.96,-0.41,9.61,-0.35,0.14,0.4,34.31,22.270671,-87.29387754386825,-150.0781190744837,9.666529884089739,0.5496362433464519,-1.1195268682696804,-0.09458144730091822
24738169,1771.0,1,204900.0,246677,-0.92,-0.34,10.13,-0.34,0.45,0.17,34.31,22.310688,-125.42128059239158,-9.113430920383054,10.177371959400915,0.5890670590009257,-1.6125754356573971,-0.0034056508044868284
24778164,1926.0,1,205012.0,246826,-0.55,-0.37,10.43,-0.14,0.33,0.03,34.31,22.350683,-3.5154449871072684,51.164672899346634,10.451043010149753,0.359722114972099,-0.03613715778953687,0.035582156702669794
24818164,2031.0,1,204983.0,246795,-0.64,0.21,10.15,0.3,0.23,0.15,34.31,22.390683,114.79802659472375,89.66887502403019,10.172325201250695,0.4066939881532551,1.4938460826595759,0.06048662989484834
24858133,2055.0,1,205065.0,246978,-0.62,0.72,10.06,0.575,0.1,0.36,34.31,22.430652,127.1242586723712,170.03755793778492,10.104771150303208,0.685729538520837,1.6532440636717645,0.1124690006146715
24898130,2087.0,1,205312.0,247158,-1.1,0.62,9.92,0.575,0.15,0.33,34.31,22.470649,153.17002571246513,309.3000565196148,10.00003999992,0.6797242087788252,1.990057670129283,0.2025438228737106
24938133,2038.0,1,205538.0,247563,-2.28,0.38,9.99,0.35,0.5750000000000001,0.18,34.31,22.510652,108.58046137340676,463.8489956435612,10.253921201179576,0.6967962399439308,1.4134429767593757,0.30250589711247367
24978131,2031.0,1,205696.0,247375,-2.71,0.1,10.58,0.06,0.5,-0.02,34.31,22.55065,88.41301807899781,567.4714521900248,10.922019044114508,0.5039841267341661,1.152645538981445,0.3695287815969369
25018153,2065.0,1,205542.0,247106,-2.78,0.39,10.19,-0.1,-0.09,-0.08,34.31,22.590672,128.78470430457756,584.3305306013274,10.56960737208341,0.15652475842498528,1.6747162929537494,0.3804332139230378
25058180,2037.0,1,205386.0,247047,-2.16,-0.08,9.71,-0.18,-0.29,-0.1,34.31,22.630699,93.6036689327217,526.0720109936159,9.947668068446998,0.3556683848755748,1.2197689925243298,0.34275167113744803
25098198,2018.0,1,205225.0,247014,-1.87,-0.13,9.62,-0.11,-0.16,-0.12,34.31,22.670717,73.95724157375273,423.41098314917,9.800928527440652,0.22825424421026652,0.9657091277258103,0.2763506376202651
25138198,2032.0,1,205135.0,246957,-1.73,0.0,9.95,-0.0,-0.01,-0.06,34.31,22.710717,90.9888657845492,291.8392423536955,10.099277201859547,0.0608276253029822,1.185955387528296,0.19125018856074344
25178181,1987.0,1,204977.0,246935,-1.84,0.44,9.8,-0.01,-0.03,-0.01,34.31,22.7507,39.14739875209617,132.25450464459098,9.980941839325586,0.033166247903554,0.5155619432357805,0.08803096564872204
25218180,1930.0,1,204701.0,246835,-1.48,1.07,9.73,-0.16,-0.16,-0.1,34.31,22.790699,-9.341698376142402,-39.3756718489714,9.899909090491692,0.24738633753705963,-0.1114799731144022,-0.022979233072229273
25258183,1935.0,1,204275.0,246723,-1.23,1.04,9.01,-0.38,0.01,0.01,34.31,22.830702,-9.775158267541018,-177.07213011358328,9.152846551756452,0.38026306683663086,-0.11708530579866958,-0.11204114227383807
25298838,1911.0,1,204160.0,246640,-2.17,1.03,9.56,-0.28,0.48,0.59,34.43,22.871357,-28.749304032994946,-231.4809420010076,9.857149689438627,0.8104936767180853,-0.3624514896732121,-0.14723269857932483
25337155,1899.0,1,204202.0,246517,-2.43,0.34,9.65,-0.07,-0.08,1.0,34.43,22.909674,-36.272364333812156,-193.69236654532276,9.957057798365941,1.0056341282991543,-0.45973674403393333,-0.12279109188509305
25377165,1900.0,1,204275.0,246463,-2.89,-0.3,9.15,-0.06,-0.13,1.06,34.43,22.949684,-40.31138559291507,-108.7627961225971,9.600239580343816,1.0696261028976435,-0.5119677769976734,-0.06785874442424056
25417185,1872.0,1,204223.0,246319,-2.41,-0.32,9.44,-0.29,-0.17,0.72,34.43,22.989704,-50.90958558310538,-43.82888360951174,9.748030570325474,0.7946068210127571,-0.6490195272939534,-0.025859565264293432
25457181,1920.0,1,203933.0,246341,-1.77,-0.15,9.18,-0.49,-0.26,0.51,34.43,23.0297,-17.487389915680062,-42.652298140588506,9.350283418164393,0.7535250493513802,-0.21681684955573735,-0.025098551150191818
25497185,1899.0,1,203835.0,246386,-1.84,-0.18,9.46,-0.54,0.12,0.52,34.43,23.069704,-12.429129889057366,-105.51120030270089,9.6389625997822,0.7592101158440923,-0.15140542207333335,-0.06575561602630156
25537164,1897.0,1,203832.0,246209,-1.91,-0.22,10.15,-0.49,0.05,0.52,34.43,23.109683,-32.164654131271554,-200.66929449965946,10.330488855809294,0.7162401831787993,-0.4066174526930301,-0.12730376077873443
25577165,1873.0,1,203583.0,246084,-1.9,-0.3,9.96,-0.52,-0.2,0.39,34.43,23.149684,-29.831628015899465,-286.8734887000067,10.144042586661396,0.6800735254367721,-0.37644767736376367,-0.1830605334178336
25617179,1876.0,1,203369.0,246059,-1.62,-0.1,10.25,-0.48,-0.15,0.38,34.43,23.189698,-38.6696117490854,-330.3949911981829,10.37771169381767,0.630317380372777,-0.4907370039328345,-0.21121019066146018
25657185,1895.0,1,203367.0,246011,-2.11,-0.08,10.53,-0.39,-0.1,0.62,34.43,23.229704,-3.6873896018897225,-314.7549296930794,10.739618242749598,0.7392563831310488,-0.038360677861980025,-0.20109421705378544
25697181,1894.0,1,203457.0,245921,-2.8,-0.73,10.6,-0.23,-0.25,0.73,34.43,23.2697,0.444087610391274,-244.3630425254525,10.9878523834278,0.8051707893360265,0.01506595909301279,-0.15556482622947346
25737185,1887.0,1,203470.0,245826,-2.31,-0.43,10.13,-0.25,-0.51,0.61,34.43,23.309704,-12.434093817386978,-141.35494768304542,10.398937445720117,0.833486652562595,-0.15146961364044365,-0.08893931018130276
25777182,1926.0,1,203488.0,245889,-2.39,-1.07,9.54,-0.19,-0.44,0.63,34.43,23.349701,57.11822908610819,-38.20199506258648,9.892856008251611,0.7915806970865321,0.7479536469056036,-0.022220100290613536
25817185,1950.0,1,203537.0,245939,-2.18,-1.3,9.35,-0.15,-0.35,0.49,34.43,23.389704,50.566317067752955,30.01751685234851,9.688389959121174,0.6205642593640082,0.6632268998415777,0.02190420074456774
25857180,1936.0,1,203458.0,245848,-2.04,-0.84,9.1,-0.09,-0.21,0.67,34.43,23.429699,85.07908713814942,35.9487288831757,9.363610414791935,0.7078841713161836,1.1095324564548725,0.02574050179401005
25897181,1934.0,1,203486.0,245916,-2.31,-1.16,9.27,-0.01,0.11,0.8,34.43,23.4697,46.16883504878126,-22.90002707021918,9.623647956985957,0.8075890043827987,0.6063603934391383,-0.012322805174110262
25937164,1611.0,1,203467.0,245962,-2.16,-0.69,9.83,-0.07,0.12,0.75,34.43,23.509683,-238.53288664106796,-108.61251248489644,10.088141553328839,0.7627581530209953,-3.0752901987438803,-0.06776154114200608
25977164,1669.0,1,203340.0,245977,-1.52,-0.27,9.22,-0.17,-0.1,0.67,34.43,23.549683,-192.69702087067594,-151.68661646176227,9.348352796081244,0.6984268036093689,-2.482558825869988,-0.09562182154192835
26017180,1921.0,1,203247.0,246126,-1.24,-0.3,9.43,-0.29,0.16,0.78,34.43,23.589699,60.70998491754364,-96.61368578287305,9.51590773389486,0.8474078120952155,0.7944008194245911,-0.060000713973831284
26057164,1889.0,1,203401.0,246171,-1.72,-0.61,10.03,-0.35,0.28,1.03,34.43,23.629683,55.11169452312528,42.4795942760947,10.19467508064872,1.1232987136109434,0.7220059318085751,0.029964657941253286
26097164,1899.0,1,203722.0,246139,-2.72,-1.79,10.69,-0.21,0.16,1.2862500000000001,34.43,23.669683,31.71636473724032,171.4743789969075,11.174909395605853,1.3130647594463878,0.4194667365790038,0.11339833480611904
26137164,1856.0,1,203833.0,245797,-2.29,-1.77,10.775,-0.19,-0.41,1.2,34.43,23.709683,36.19978730936919,179.05495187183573,11.156954109433274,1.2822636234409834,0.47744459238441,0.11830144053296074
26177202,1887.0,1,203641.0,245927,-1.19,-1.78,10.55,-0.4,-0.5850000000000001,0.8,34.43,23.749721,25.740203480618355,29.33870727651678,10.765082442786957,1.0687492690055982,0.34218537172167307,0.02146514749969974
26217185,1856.0,1,203228.0,246033,0.13,-0.77,9.89,-0.45,-0.5850000000000001,0.52,34.43,23.789704,34.18061714191069,-199.69156578993702,9.920781219238735,0.9028427327059791,0.45133347862430334,-0.12667136698541137
26257165,1863.0,1,203083.0,246001,0.53,-0.45,9.62,-0.38,-0.5850000000000001,1.02,34.43,23.829684,15.949274774354159,-372.8036368428943,9.645092016149976,1.235728530058281,0.2155729358871324,-0.23864005338541075
26297165,1829.0,1,203248.0,245913,-0.65,-1.48,10.05,0.02,-0.1,1.2862500000000001,34.43,23.869684,-2.098150047871829,-401.3301217276693,10.179164995224314,1.290286426534822,-0.01780925755288652,-0.2570909506609715
26337851,1831.0,1,203407.0,245994,-0.81,-1.56,9.84,0.19,-0.4,1.2862500000000001,34.21,23.91037,-4.157343063311788,-304.2914094421705,9.99576410285877,1.3603451997562972,-0.04443793102811251,-0.19432642431415806
26378193,1857.0,1,203478.0,246142,-0.64,-1.32,9.54,-0.05,-0.13,0.98,34.21,23.950712,18.535091598516434,-181.7987054310339,9.652129298760972,0.9898484732523458,0.24901170115151994,-0.11509828569686203
26418180,1841.0,1,203499.0,246134,-0.87,-1.05,9.83,-0.1,-0.04,0.84,34.21,23.990699,9.057397151795987,-134.49459606449247,9.924127165650388,0.8468766143896052,0.12644988745686767,-0.08450204272618406
26458182,1808.0,1,203448.0,246149,-0.91,-1.18,9.43,-0.15,-0.25,0.77,34.21,24.030701,-32.91275062657653,-198.1195152020795,9.547010003137107,0.8233468284993876,-0.416291542082451,-0.12565456649191542
26498181,1797.0,1,203337.0,246201,-0.61,-1.16,8.95,-0.09,-0.23,0.71,34.21,24.0707,-40.19365351369209,-334.782324547238,9.045451895842461,0.7517313349861106,-0.5104453120943441,-0.21404791277352672
26538186,1823.0,1,203174.0,246222,-0.07,-0.98,8.71,-0.05,-0.02,0.58,34.21,24.110705,-17.419107349472483,-471.9119493840346,8.765238159913284,0.5824946351684279,-0.21593384628894371,-0.30274319477268774
26578204,1849.0,1,203043.0,246095,-0.43,-0.97,9.13,0.03,0.32,0.61,34.21,24.150723,1.309768064173759,-550.0283055824717,9.191447111309515,0.6894925670375279,0.026260597946590136,-0.35326876319025785
26618157,1801.0,1,203082.0,246204,-0.09,-1.05,9.63,0.2,0.08,0.54,34.21,24.190676,-38.66468226103206,-545.1308439406159,9.687491935480516,0.5813776741499453,-0.4906732577338196,-0.3501010906911794
26658153,1798.0,1,203196.0,246360,0.01,-1.25,9.61,0.23,0.19,0.24,34.21,24.230672,-62.64755458743564,-459.3408487227657,9.690959704797043,0.38288379438153297,-0.8008103218115097,-0.29461222147265803
26698134,1813.0,1,203241.0,246223,-0.05,-0.94,10.01,0.26,0.52,-0.04,34.21,24.270653,-27.51704128965969,-301.58699683772437,10.054163316755899,0.5827520913733386,-0.3465163529560987,-0.19257721338414266
26738164,1840.0,1,203304.0,245999,-0.5,-0.28,10.68,0.575,0.5750000000000001,0.39,34.21,24.310683,-33.208369438001164,-84.57218407593462,10.695363481434374,0.9018591907831288,-0.42011436818157655,-0.052212284662066
26778153,1810.0,1,203436.0,245935,-0.73,0.38,10.61,0.575,0.32,0.7,34.21,24.350672,-35.7815052030819,161.11693939189578,10.641870136399898,0.9607419008245658,-0.45338914698181504,0.10669915490499175
26818134,1841.0,1,203698.0,246064,-1.11,0.67,10.3,0.43,0.46,0.49,34.21,24.390653,-40.09502412364844,383.29258653723866,10.381281231139056,0.7978721702127478,-0.5091698756477165,0.2504021053094364
26858134,1800.0,1,203874.0,246081,-1.39,0.77,10.52,-0.2,0.33,0.01,34.21,24.430653,-58.65318571476415,536.2997407665226,10.639332685840781,0.38600518131237566,-0.7491567159317082,0.3493669548698933
26898152,1858.0,1,203708.0,246273,-0.54,1.03,9.8,-0.61,-0.28,-0.29,34.21,24.470671,-23.815332211845778,622.1475162910082,9.868763853695153,0.7311634564172365,-0.2986473083379932,0.4048931963236053
26938187,1847.0,1,203546.0,246357,0.09,0.79,8.94,-0.665,-0.27,-0.32,34.21,24.510706,-30.811935061424006,699.2246310918869,8.975288296205308,0.78582758923316,-0.3891246221790408,0.4547465846128381
26978164,1847.0,1,203534.0,246276,-0.22,0.25,9.49,-0.26,0.21,0.1,34.21,24.550683,-32.185294351476486,839.4745606213176,9.4958411949653,0.34885527085024814,-0.4068843638957065,0.5454600760613859
27018157,1911.0,1,203736.0,246162,-0.88,-0.04,10.21,0.26,0.21,0.39,34.21,24.590676,15.08120052732995,1068.8182761991436,10.247931498600096,0.5136146415358503,0.20434734144166875,0.6937993247986308
27058153,1895.0,1,203899.0,246250,-1.21,0.08,10.07,0.36,0.14,0.32,34.21,24.630672,14.57015578639332,1344.081836679522,10.142751106085568,0.5015974481593781,0.1977387120244184,0.8718394758597676
27098135,1910.0,1,203895.0,246370,-1.21,0.32,10.09,0.22,0.26,0.05,34.21,24.670654,3.3975779406598274,1581.2359894199292,10.167330033002765,0.34423828956117014,0.0532593334038494,1.0252305062780047
27138134,1900.0,1,203787.0,246386,-1.14,0.68,9.76,0.26,0.2,-0.08,34.21,24.710653,12.408570789142045,1700.78845375597,9.849852790778144,0.33763886032268264,0.169785945746968,1.1025569012900214
27178157,1994.0,1,203447.0,246378,-0.64,0.34,9.21,0.31,0.16,-0.06,34.21,24.750676,82.5533074089707,1651.3262364831037,9.238468487796016,0.35397740040855713,1.0768700672692357,1.070564796633264
27218153,1983.0,1,202985.0,246055,-0.59,1.36,8.495,0.575,0.1,0.34,34.21,24.790672,87.80567953882044,1409.6601246472044,8.623382457017662,0.6754442982215484,1.144791676058426,0.9142554363149807
27258135,1970.0,1,202607.0,245676,-2.09,1.50875,10.775,0.05,-0.5850000000000001,0.13,34.21,24.830654,53.62364305948776,985.1099141384444,11.07903658097129,0.6013526419664257,0.7027630360516325,0.6396568534872872
27298152,2030.0,1,201709.0,243727,-2.21,1.17,10.2,0.14,-0.5850000000000001,0.24,34.21,24.870671,130.854398017221,440.1211178228097,10.50204741943208,0.6476302957706658,1.7014807573116157,0.287158733309919
27338844,1984.0,1,200773.0,242187,-0.28,0.95,10.65,0.08,-0.44,0.29,34.31,24.911363,63.45598254221478,-98.55250213005831,10.695952505504128,0.5330103188494572,0.8299109797460561,-0.06125473813427686
27377157,1935.0,1,200303.0,242065,0.04,0.95,9.52,-0.25,-0.15,0.19,34.31,24.949676,29.525200165761785,-472.8889419561219,9.56736640878774,0.3479942528261063,0.39113145889163314,-0.30337511243304377
27417157,2032.0,1,200061.0,242128,-0.12,0.31,8.69,-0.665,0.31,-0.13,34.31,24.989676,117.25028588025557,-570.3658630462045,8.696355558508403,0.7451342160980128,1.525557734409262,-0.3664230717254613
27457166,1975.0,1,199720.0,241871,-0.91,-0.18,9.6,-0.665,0.5750000000000001,-0.14,34.31,25.029685,52.68755120084302,-400.41809392882095,9.644713577914068,0.8901966074974674,0.6906578646277955,-0.2565010521404571
27497186,1988.0,1,199777.0,242824,-1.02,-1.12,10.59,-0.665,0.22,-0.26,34.31,25.069705,90.83735779959308,-113.33517673797098,10.697798839013565,0.7471445643247363,1.1839961459078963,-0.07081615489313627
27537186,2022.0,1,199992.0,242842,-0.96,-0.71,9.9,-0.39,0.36,-0.18,34.31,25.109705,79.11908348370748,68.75052427951361,9.971745082983219,0.5604462507680821,1.0324600353485007,0.0469566649405185
27577186,1855.0,1,199540.0,241221,-1.77,-0.98,10.41,-0.06,0.52,-0.0,34.31,25.149705,-28.16944303679475,-17.98357817185729,10.604781940238093,0.523450093132096,-0.35495295553238254,-0.00914285173958689
27617186,1995.0,1,198809.0,239689,-2.01,-0.65,10.34,0.04,0.21,-0.11,34.31,25.189705,46.17094270520427,-369.9657661569199,10.553587067912028,0.24041630560342614,0.6063876488223227,-0.2368045219233418
27657166,1940.0,1,198244.0,238462,-1.81,-0.04,9.83,-0.0,-0.02,-0.22,34.31,25.229685,51.458742893573074,-813.7628492448757,9.995328909045465,0.22090722034374521,0.6747673993180415,-0.5238519595703014
27697199,1953.0,1,197685.0,237333,-2.09,0.48,9.75,0.05,-0.3,-0.41,34.31,25.269718,18.76338841608269,-1128.0686989736485,9.983035610474401,0.5104899607240087,0.2519639457273429,-0.7271446179499731
27737166,1882.0,1,197208.0,235594,-2.23,0.96,8.52,0.42,-0.23,-0.09,34.31,25.309685,-25.958843375838004,-1214.3881945366877,8.85917039005346,0.4872371086031933,-0.32636635091849425,-0.7829759673764808
27777166,1841.0,1,196777.0,234339,-2.29,0.17,8.71,0.27,0.5750000000000001,0.35,34.31,25.349685,-74.60875923448076,-1190.5575689741952,9.007613446412986,0.725275809606249,-0.95548791178404,-0.7675623464539613
27817134,1890.0,1,196818.0,233784,-3.1,0.14,10.775,-0.06,0.5750000000000001,0.29,34.31,25.389653,-30.281083504441646,-1317.0698387423558,11.212948987666001,0.646780488264759,-0.38225985881363167,-0.8493903355321459
27857155,1847.0,1,196310.0,231485,-3.04,-0.07,10.775,-0.07,-0.15,0.04,34.31,25.429674,-66.42224669053522,-1783.4060162662422,11.195853026902416,0.17029386365926402,-0.8496231541828729,-1.15101603326973
