timestamp_us,ecg,leads,ir,red,accX,accY,accZ,gyroX,gyroY,gyroZ,temp
1919500,2399,1,200505,244336,0.00,0.00,0.00,0.00,0.00,0.00,0.00
1949972,1796,1,200345,244579,1.07,-1.13,9.74,-0.07,-0.02,-0.00,26.79
1990211,1553,1,200419,244658,1.09,-0.71,10.05,-0.06,-0.01,-0.00,26.79
2030203,1364,1,200373,244450,0.83,-1.25,10.50,-0.03,-0.02,0.00,26.79
2070190,1143,1,200330,243541,0.83,-0.99,10.00,-0.05,0.01,-0.00,26.79
2110185,1007,1,199974,243122,0.99,-1.59,9.83,-0.04,-0.01,-0.00,26.79
2150206,826,1,199482,242295,1.26,-1.18,9.29,-0.07,-0.00,-0.00,26.79
2190203,105,1,199096,241814,1.27,-1.60,8.74,-0.06,-0.03,-0.00,26.79
2230203,0,1,198943,241553,1.29,-0.99,9.31,-0.04,-0.03,-0.01,26.79
2270203,0,1,198801,241902,0.80,-1.15,9.46,-0.02,-0.02,0.00,26.79
2310197,0,1,198934,242249,0.85,-1.20,9.92,-0.01,-0.02,0.00,26.79
2350183,0,1,199042,242535,1.03,-1.45,9.75,-0.01,-0.01,0.00,26.79
2390183,0,1,199223,242798,0.98,-1.38,9.42,-0.06,0.00,-0.00,26.79
2430180,0,1,199252,243256,1.12,-1.18,9.08,-0.03,-0.01,0.00,26.79
2470183,0,1,199293,243690,1.16,-1.10,9.37,-0.03,-0.00,-0.00,26.79
2510216,80,1,199106,243291,0.95,-0.84,9.40,-0.02,0.01,-0.00,26.79
2548182,594,1,198714,241750,0.52,-0.79,10.39,0.03,-0.01,0.01,26.79
2588172,1053,1,198266,241497,0.95,-1.36,10.61,-0.01,0.00,0.01,26.79
2628172,1313,1,198303,241458,0.81,-1.02,9.62,-0.06,0.03,0.00,26.79
2668172,1531,1,198363,241503,0.51,-1.51,10.58,-0.01,-0.00,0.01,26.79
2708235,1869,1,198444,242082,1.09,-0.50,10.21,-0.04,0.01,-0.09,26.79
2748182,2179,1,198548,242453,0.70,-0.99,9.99,-0.05,-0.00,-0.11,26.79
2788205,2283,1,198917,242738,0.55,-0.43,10.72,-0.02,-0.01,-0.02,26.79
2828204,2367,1,199264,243111,0.50,-0.58,10.90,0.01,-0.03,0.01,26.79
2868172,2439,1,199488,243294,0.68,-1.29,9.97,-0.05,-0.02,0.00,26.79
2908222,2465,1,199584,243332,0.54,-1.20,10.24,-0.03,-0.01,0.00,26.79
2948184,2533,1,199738,243467,0.72,-1.49,9.50,-0.04,-0.04,0.00,26.79
2988869,2687,1,199786,243539,0.87,-1.35,8.75,-0.08,-0.00,-0.00,26.59
3029206,2891,1,199597,243896,0.18,-1.54,9.68,-0.02,-0.01,0.00,26.59
3069183,3070,1,199325,243924,0.69,-0.87,10.60,-0.01,-0.07,-0.00,26.59
3109216,3139,1,199785,245001,0.37,-1.72,10.13,-0.04,-0.02,0.00,26.59
3148183,3139,1,199860,244683,0.66,-1.10,9.18,-0.05,-0.02,-0.00,26.59
3188206,3082,1,199622,244310,0.20,-1.28,11.11,0.04,-0.06,0.01,26.59
3228172,2934,1,198667,243395,0.84,-0.66,8.77,-0.10,0.03,0.00,26.59
3268172,2816,1,197970,243255,0.19,-0.96,10.71,0.03,-0.04,0.01,26.59
3308172,2757,1,197191,242640,0.82,-0.98,9.52,-0.05,0.00,0.01,26.59
3348172,2671,1,196751,242482,0.60,-1.03,9.98,-0.02,-0.02,0.08,26.59
3388182,2555,1,196578,242291,0.62,-0.92,9.34,-0.06,0.00,0.06,26.59
3428172,2494,1,196603,242359,0.60,-0.79,10.20,-0.03,-0.01,0.02,26.59
3468182,2435,1,196659,242304,0.79,-0.77,9.57,-0.07,0.01,0.00,26.59
3508172,2395,1,196993,242535,0.51,-0.75,10.01,-0.04,-0.01,0.00,26.59
3548182,2333,1,197196,242597,0.54,-0.88,10.18,-0.04,0.00,0.00,26.59
3588172,2309,1,197089,242598,0.39,-0.65,10.15,-0.04,-0.01,0.00,26.59
3628182,2281,1,196938,242427,0.71,-0.65,10.60,-0.01,-0.02,0.00,26.59
3668182,2210,1,196680,242114,0.37,-0.77,10.01,-0.04,-0.01,0.01,26.59
3708182,2118,1,196303,241664,0.44,-0.94,10.21,-0.02,-0.01,0.01,26.59
3748184,2015,1,195943,241365,0.72,-1.32,9.77,-0.04,-0.07,0.01,26.59
3788182,1931,1,195659,241028,0.71,-1.30,9.54,-0.08,-0.02,-0.00,26.59
3828203,1887,1,195400,240189,0.06,-0.77,9.13,-0.08,0.01,0.00,26.59
3868172,1823,1,194869,239083,0.00,-0.31,9.74,-0.02,-0.01,0.00,26.59
3908181,1826,1,194505,238535,-0.11,-0.35,9.98,-0.04,-0.01,0.05,26.59
3948202,1776,1,194430,238492,-0.25,-0.47,9.83,-0.04,0.01,0.06,26.59
3988869,1821,1,194600,238644,-0.33,-0.58,10.20,-0.04,-0.00,0.07,26.49
4027204,1814,1,195027,239536,0.07,-1.10,9.65,-0.03,-0.09,0.15,26.49
4067184,1850,1,195793,240705,0.19,-0.97,9.51,-0.07,-0.02,0.13,26.49
4107181,1815,1,196948,241976,0.33,-0.93,10.05,-0.03,-0.05,0.22,26.49
4148182,1664,1,197847,242843,0.48,-0.72,10.06,-0.04,-0.02,0.18,26.49
4188182,1392,1,198656,243605,0.44,-0.93,10.24,-0.03,0.02,0.14,26.49
4228172,1150,1,199344,243727,0.28,-0.25,9.54,-0.04,-0.00,0.08,26.49
4268183,1038,1,199842,243811,0.31,-0.53,10.36,0.01,-0.01,0.05,26.49
4308172,1163,1,199867,243806,0.69,-0.58,10.16,-0.04,-0.01,0.00,26.49
4348197,1210,1,199632,243899,0.44,-1.29,9.98,-0.03,-0.01,0.01,26.49
4388183,1244,1,199269,244097,0.29,-0.97,9.71,-0.06,-0.01,-0.00,26.49
4428203,1304,1,198478,243802,0.22,-1.24,9.72,-0.02,-0.02,-0.04,26.49
4468203,1402,1,197434,243576,0.09,-0.69,9.26,-0.06,0.00,-0.05,26.49
4508182,1573,1,196765,243220,0.16,-0.35,9.40,0.02,-0.02,-0.17,26.49
4548206,1709,1,196307,242645,0.13,-0.36,9.81,0.00,-0.02,0.00,26.49
4588172,1830,1,196051,242329,0.08,-0.65,9.77,0.01,-0.02,0.01,26.49
4628172,1903,1,196037,242503,-0.29,-1.26,9.91,-0.02,0.02,0.01,26.49
4668183,1930,1,195846,242321,0.14,-0.87,9.83,-0.02,-0.01,0.01,26.49
4708182,1913,1,195786,242441,-0.02,-1.47,10.62,-0.01,-0.02,0.01,26.49
4748220,1821,1,195609,242176,0.42,-0.52,10.03,-0.06,-0.01,0.00,26.49
4788182,1771,1,195462,241927,0.31,-0.99,10.25,-0.01,-0.01,0.00,26.49
4826181,1712,1,195185,240478,0.30,-0.30,10.45,-0.03,0.01,-0.00,26.49
4866184,1697,1,195398,240876,0.30,-0.94,10.86,0.03,-0.02,0.00,26.49
4906172,1665,1,195700,241310,0.15,-0.99,10.31,-0.07,0.01,-0.00,26.49
4946184,1681,1,195706,240680,0.26,-1.18,10.51,-0.02,-0.04,0.00,26.49
4986181,1674,1,195278,240409,0.15,-0.88,9.39,-0.09,-0.00,-0.01,26.49
5026895,1734,1,195009,239499,0.07,-0.69,9.63,-0.03,-0.02,-0.00,26.97
5067202,1769,1,194792,239237,0.06,-0.11,9.69,-0.01,-0.02,-0.00,26.97
5107202,1786,1,194878,239027,0.05,-0.37,9.80,-0.00,-0.03,-0.00,26.97
5147203,1821,1,194886,238071,-0.14,-0.62,9.75,-0.01,-0.02,0.00,26.97
5186205,1934,1,194452,236410,0.18,-1.32,9.49,-0.08,-0.04,0.19,26.97
5226181,1991,1,194419,235660,0.01,-0.59,8.96,-0.05,-0.01,0.14,26.97
5266184,2038,1,194501,235813,0.57,-0.56,9.51,-0.02,-0.04,0.10,26.97
5306182,1957,1,194787,236231,0.30,-0.23,9.95,-0.00,0.00,-0.00,26.97
5346185,1535,1,194986,237087,0.23,-0.66,10.15,-0.00,0.01,-0.03,26.97
5386181,1317,1,195336,237770,0.26,-0.85,10.41,-0.01,-0.00,-0.04,26.97
5426205,1313,1,195726,238624,0.32,-1.29,9.79,-0.08,0.01,-0.02,26.97
5466181,1266,1,196088,239025,0.64,-0.68,9.57,-0.03,-0.03,-0.05,26.97
5506206,1255,1,196395,239421,0.18,-0.69,9.66,-0.04,0.00,-0.01,26.97
5546181,1337,1,196469,239516,0.11,-0.33,10.29,-0.01,0.00,-0.05,26.97
5586184,1405,1,196268,239806,0.16,-0.57,10.22,-0.01,-0.01,-0.03,26.97
5626203,1491,1,196376,240316,0.08,-1.01,9.85,-0.07,0.01,-0.01,26.97
5666184,1574,1,196539,240539,0.37,-0.60,9.74,-0.03,-0.03,-0.00,26.97
5706203,1518,1,196704,240962,0.14,-0.72,10.13,-0.02,-0.02,0.00,26.97
5746184,1595,1,196529,240765,0.28,-0.77,10.11,-0.05,-0.01,-0.00,26.97
5786271,1673,1,196434,240523,0.03,-0.77,10.35,-0.02,-0.01,0.00,26.97
5826182,1716,1,196317,240073,0.27,-1.04,10.04,-0.05,-0.03,0.00,26.97
5866182,1827,1,196153,239842,0.33,-0.87,9.77,-0.05,-0.03,-0.00,26.97
5906206,1919,1,196056,239647,0.30,-0.54,9.92,-0.03,-0.02,0.00,26.97
5946182,1902,1,195890,239522,0.28,-0.88,10.21,-0.04,-0.02,-0.00,26.97
5986203,1847,1,195618,238952,0.33,-0.79,9.80,-0.06,-0.01,-0.00,26.97
6026893,1840,1,195419,239008,0.11,-1.04,9.72,-0.05,-0.02,0.00,26.83
6065183,1885,1,195305,238743,0.24,-0.74,9.72,-0.05,-0.02,-0.02,26.83
6105202,1902,1,195346,238853,0.12,-0.66,10.06,-0.01,-0.03,-0.05,26.83
6145205,1895,1,195396,239493,0.07,-0.83,10.13,-0.02,-0.02,-0.01,26.83
6185233,1889,1,195417,239931,0.24,-1.01,9.67,-0.05,-0.02,-0.01,26.83
6225205,1876,1,195409,239886,0.31,-1.07,9.33,-0.04,-0.02,-0.02,26.83
6265203,1895,1,195310,240047,0.25,-0.52,9.43,-0.02,-0.02,-0.03,26.83
6305205,1872,1,195262,240200,0.22,-0.96,10.02,-0.01,-0.01,-0.03,26.83
6345203,1840,1,195224,240355,0.41,-0.94,9.71,-0.03,0.00,-0.01,26.83
6385184,1818,1,195214,240459,0.39,-0.92,9.67,-0.03,-0.00,-0.02,26.83
6425202,1774,1,195098,240324,0.31,-0.72,9.48,-0.04,0.01,-0.03,26.83
6465184,1817,1,194849,239571,0.22,-0.79,10.17,0.01,-0.02,-0.07,26.83
6505181,1920,1,194745,239905,0.22,-0.78,10.20,-0.01,0.00,-0.01,26.83
6545182,2084,1,194766,240264,0.31,-0.98,9.64,-0.05,0.00,-0.02,26.83
6585181,2108,1,194844,240400,0.10,-0.64,9.92,-0.02,-0.00,-0.02,26.83
6625203,2077,1,194781,240242,0.22,-0.55,10.15,-0.01,-0.01,-0.01,26.83
6665202,2127,1,194831,240298,0.15,-0.89,10.22,-0.03,-0.01,-0.00,26.83
6705205,2179,1,194765,240025,0.21,-0.88,9.62,-0.06,-0.01,-0.00,26.83
6745202,2177,1,194754,240001,0.17,-0.58,10.06,-0.03,-0.02,-0.00,26.83
6785203,2165,1,194788,239814,0.12,-0.43,10.51,-0.02,-0.02,-0.00,26.83
6825202,2121,1,194914,240057,0.21,-0.74,10.39,-0.03,-0.02,0.00,26.83
6865182,2105,1,195019,240224,0.38,-0.90,9.84,-0.05,-0.02,0.00,26.83
6905182,2043,1,195264,240389,0.30,-0.75,10.11,-0.03,-0.03,0.01,26.83
6945184,2046,1,195578,240481,0.23,-0.53,10.36,-0.01,-0.03,0.03,26.83
6985181,2018,1,195646,240695,0.28,-1.00,9.80,-0.05,-0.01,0.02,26.83
7025186,1994,1,195611,240780,0.43,-0.86,9.67,-0.04,-0.02,0.00,26.83
7065869,1925,1,195486,240730,0.07,-0.71,9.31,-0.05,-0.01,0.00,26.77
7104183,1927,1,195344,239631,0.14,-0.53,10.19,-0.00,-0.01,0.00,26.77
7144181,1958,1,194802,239429,0.11,-0.96,9.65,-0.04,-0.01,0.00,26.77
7184183,1936,1,194799,239527,0.34,-1.01,9.49,-0.04,-0.01,-0.00,26.77
7224201,1872,1,194852,239772,0.29,-0.61,9.70,-0.02,-0.01,-0.00,26.77
7264202,1781,1,194959,240207,0.07,-0.73,9.80,-0.02,0.01,0.00,26.77
7304172,1709,1,194916,240343,0.00,-0.64,9.60,-0.02,0.01,0.00,26.77
7344172,1692,1,194968,240555,0.09,-0.70,9.74,-0.03,0.00,-0.00,26.77
7384181,1634,1,194941,240567,0.00,-0.34,10.31,-0.01,-0.00,-0.00,26.77
7424202,1581,1,194888,240860,0.04,-0.67,10.09,-0.02,0.00,-0.00,26.77
7464182,1571,1,194890,240956,0.06,-0.68,9.91,-0.04,0.01,-0.00,26.77
7504181,1566,1,194971,241212,0.03,-0.60,10.20,-0.01,-0.02,0.00,26.77
7544181,1583,1,195100,241375,0.09,-0.43,10.52,-0.02,-0.01,0.00,26.77
7584181,1491,1,195194,241556,-0.03,-0.80,9.80,-0.06,0.00,0.01,26.77
7624184,1483,1,195356,241617,-0.10,-0.57,10.18,-0.03,-0.01,0.00,26.77
7664202,1520,1,195569,241768,0.13,-0.49,10.62,-0.02,-0.02,0.00,26.77
7704181,1509,1,195878,241975,-0.05,-0.71,9.84,-0.08,-0.01,0.00,26.77
7744202,1535,1,196088,241085,-0.03,-0.78,10.10,-0.04,-0.02,0.00,26.77
7784202,1603,1,195827,240314,-0.01,-0.59,10.42,-0.03,-0.03,0.00,26.77
7824214,1649,1,195558,239824,0.08,-0.79,9.85,-0.06,-0.02,-0.00,26.77
7864202,1703,1,195502,239469,-0.08,-0.78,9.57,-0.05,-0.02,0.00,26.77
7904202,1744,1,195587,239452,0.01,-0.71,9.69,-0.04,-0.02,0.00,26.77
7944181,1782,1,195749,239707,0.17,-0.52,9.79,-0.03,-0.03,0.00,26.77
7984181,1776,1,195931,240253,0.27,-1.15,9.44,-0.05,-0.01,0.00,26.77
8024209,1712,1,196023,240168,0.42,-0.69,9.52,-0.03,-0.03,0.00,26.77
8064181,1659,1,196061,240340,0.33,-0.92,9.72,-0.02,-0.02,0.00,26.77
8104869,1631,1,195880,240376,0.30,-0.80,9.29,-0.05,0.00,-0.00,26.83
8145182,1606,1,195749,240592,0.30,-0.90,10.01,-0.01,-0.01,-0.01,26.83
8185199,1580,1,195649,240791,0.30,-0.84,9.99,-0.03,-0.01,-0.00,26.83
8223204,1533,1,195462,240817,0.08,-0.95,9.69,-0.02,0.01,-0.00,26.83
8263181,1433,1,195283,240876,0.19,-0.73,10.01,-0.01,0.00,0.00,26.83
8303172,1415,1,195107,240950,0.00,-1.07,9.97,-0.00,0.01,-0.12,26.83
8343181,1379,1,195075,241178,0.23,-0.70,10.14,-0.01,0.00,-0.12,26.83
8383184,1369,1,195006,240955,0.13,-0.84,10.39,-0.01,0.00,-0.11,26.83
8423181,1389,1,194759,240772,0.10,-0.79,9.90,-0.05,0.01,-0.08,26.83
8463183,1451,1,194800,240381,0.14,-0.71,10.10,-0.01,-0.02,-0.07,26.83
8503201,1473,1,194573,240371,0.23,-0.86,10.41,-0.02,-0.03,0.01,26.83
8543184,1488,1,194299,240056,0.39,-0.88,9.87,-0.05,-0.03,0.00,26.83
8583181,1535,1,194247,239881,0.31,-1.01,10.17,-0.02,-0.04,0.00,26.83
8623182,1603,1,194109,239680,0.48,-0.68,10.21,-0.05,-0.04,-0.00,26.83
8663201,1606,1,194119,239282,0.20,-0.89,9.89,-0.04,-0.03,0.00,26.83
8703181,1648,1,194212,238921,0.30,-0.68,10.07,-0.04,-0.03,0.00,26.83
8743181,1725,1,194412,239078,0.32,-0.63,10.29,-0.03,-0.03,0.02,26.83
8783184,1807,1,194676,239231,0.30,-0.70,9.70,-0.06,-0.02,0.01,26.83
8823181,1887,1,194911,239254,0.28,-0.74,9.91,-0.04,-0.01,0.00,26.83
8863181,1949,1,195096,239555,0.38,-0.85,9.34,-0.05,-0.03,0.01,26.83
8903181,2022,1,195270,239470,0.22,-0.64,9.29,-0.05,-0.00,0.01,26.83
8943182,2064,1,195597,239928,0.19,-0.83,9.76,0.02,-0.06,0.17,26.83
8983172,2139,1,195694,240024,0.25,-0.93,9.38,0.02,-0.05,0.05,26.83
9023180,2311,1,195481,239101,0.32,-0.96,9.50,-0.03,0.00,0.00,26.83
9063172,2426,1,195344,239138,0.51,-0.82,10.14,-0.02,-0.03,-0.00,26.83
9103203,2491,1,195282,239074,0.39,-0.64,9.44,-0.03,-0.01,-0.00,26.83
9143889,2551,1,195332,238982,0.12,-0.67,10.31,-0.05,0.01,-0.00,26.77
9184182,2481,1,195375,239516,0.20,-0.82,10.24,-0.02,-0.00,0.00,26.77
9224179,2270,1,195501,239889,0.24,-0.97,9.48,-0.03,-0.00,0.00,26.77
9264185,2433,1,195795,240213,0.33,-0.94,10.25,-0.03,-0.00,0.01,26.77
9304183,2381,1,195843,240120,0.54,-1.02,9.66,-0.02,-0.02,0.01,26.77
9342183,2409,1,195744,239466,0.76,-0.85,9.80,-0.05,-0.01,-0.00,26.77
9382201,2224,1,195758,239801,0.71,-0.80,10.52,-0.04,-0.02,-0.00,26.77
9422204,2177,1,195636,239685,0.83,-0.98,9.50,-0.04,-0.03,-0.00,26.77
9462201,1965,1,195707,239935,0.75,-0.94,10.54,-0.06,-0.00,-0.01,26.77
9502204,1451,1,195852,240466,1.01,-0.95,11.03,-0.03,-0.04,-0.00,26.77
9542201,557,1,195707,240123,1.13,-1.12,10.26,-0.03,-0.05,-0.01,26.77
9582204,0,1,195420,239636,0.93,-1.09,10.64,-0.04,-0.02,-0.01,26.77
9622201,0,1,194702,238449,0.89,-0.97,10.60,-0.03,-0.02,-0.01,26.77
9662201,0,1,193855,237605,0.32,-1.07,9.85,-0.03,-0.01,-0.00,26.77
9702201,0,1,193565,237900,0.26,-1.10,10.15,-0.03,0.00,-0.02,26.77
9742181,0,1,193577,238491,0.33,-0.93,9.06,-0.01,-0.01,-0.06,26.77
9782201,0,1,193559,238034,0.80,-0.64,9.22,-0.02,-0.03,-0.13,26.77
9822201,0,1,193562,238404,0.86,-1.04,10.08,-0.03,-0.02,-0.00,26.77
9862201,0,1,193443,238556,0.79,-0.65,9.33,-0.02,-0.02,-0.03,26.77
9902201,199,1,193681,238613,0.82,-1.01,10.03,-0.04,-0.02,-0.01,26.77
9942201,682,1,193770,239371,0.90,-1.05,10.53,-0.01,-0.02,-0.00,26.77
9982202,998,1,193852,239262,0.84,-1.34,9.74,-0.01,-0.03,-0.01,26.77
10022201,1334,1,193932,239152,0.90,-1.20,10.47,-0.02,-0.02,-0.01,26.77
10062205,1535,1,193964,239099,0.78,-1.05,10.73,-0.02,-0.01,-0.01,26.77
10102201,1789,1,193836,238814,0.47,-1.01,10.37,-0.02,0.01,-0.01,26.77
10142184,1912,1,193775,238772,0.52,-0.78,11.00,-0.02,0.00,-0.01,26.77
10182869,2097,1,193687,239304,-0.04,-1.04,10.17,0.01,0.00,0.01,26.67
10223172,2136,1,193651,238246,0.20,-0.90,9.42,-0.01,-0.01,0.00,26.67
10263179,2191,1,193242,237716,0.17,-1.24,10.50,-0.01,0.00,0.01,26.67
10303172,2215,1,192910,237462,0.31,-1.02,9.09,0.00,-0.02,0.02,26.67
10343171,2303,1,193065,237339,0.10,-1.43,9.22,-0.04,0.03,0.01,26.67
10383172,2367,1,193367,238008,0.33,-1.08,10.20,-0.01,0.00,0.01,26.67
10423171,2431,1,193446,238717,0.59,-1.46,9.47,-0.00,-0.02,0.01,26.67
10463182,2448,1,193786,238893,0.49,-1.30,9.58,-0.02,0.00,-0.00,26.67
10503179,2479,1,193869,239150,0.81,-1.36,10.85,-0.02,-0.01,-0.00,26.67
10541204,2489,1,193743,238871,0.72,-1.41,9.72,-0.01,-0.01,-0.00,26.67
10581202,2490,1,193637,238532,0.62,-1.65,9.98,-0.03,0.00,-0.01,26.67
10621184,2643,1,193545,238219,1.00,-1.04,10.08,-0.03,-0.02,-0.01,26.67
10661201,2882,1,193462,238123,0.85,-1.07,10.39,-0.03,-0.01,-0.01,26.67
10701205,3443,1,193338,238143,1.33,-1.20,9.58,-0.03,-0.03,-0.01,26.67
10741205,3560,1,193231,237577,1.39,-1.30,9.81,-0.03,-0.04,-0.02,26.67
10781205,3600,1,193061,237628,1.23,-1.20,9.52,-0.03,-0.02,-0.01,26.67
10821205,3623,1,193073,237275,1.14,-1.60,9.16,-0.04,-0.02,-0.01,26.67
10861205,3631,1,192781,236349,0.96,-1.55,9.25,-0.04,-0.01,-0.01,26.67
10901208,3636,1,192684,236635,0.67,-1.00,10.18,-0.02,0.01,-0.01,26.67
10941184,3639,1,192821,237527,0.59,-1.11,10.56,-0.02,0.00,-0.01,26.67
10981181,3642,1,192934,237609,1.13,-1.12,10.13,-0.03,-0.03,-0.01,26.67
11021213,2938,1,193042,237698,1.02,-1.04,10.07,-0.05,-0.02,-0.01,26.67
11061201,3165,1,193101,237810,0.87,-1.01,10.38,-0.04,-0.01,-0.00,26.67
11101230,3213,1,193177,238258,1.01,-1.63,10.34,-0.02,-0.02,-0.00,26.67
11141202,3106,1,193217,237973,1.09,-1.30,9.99,-0.01,-0.05,-0.01,26.67
11181205,2981,1,193206,237554,0.88,-0.91,10.01,-0.06,-0.03,-0.01,26.67
11221889,2837,1,193354,237604,0.73,-1.14,10.38,-0.07,0.01,-0.00,26.65
11262182,2665,1,193326,237472,0.94,-1.27,9.89,-0.01,-0.02,-0.00,26.65
11302220,2463,1,193370,237751,1.19,-1.36,9.90,-0.01,-0.04,-0.01,26.65
11342202,2407,1,193391,237558,1.21,-0.93,9.22,-0.06,-0.03,-0.01,26.65
11382202,2333,1,193418,237464,0.68,-1.59,9.78,-0.06,0.01,-0.01,26.65
11422182,2224,1,193246,237279,1.23,-1.55,9.77,-0.02,-0.03,-0.01,26.65
11462202,2112,1,193017,236461,1.08,-1.57,9.04,-0.03,-0.03,-0.01,26.65
11502202,2120,1,192327,234134,1.00,-1.32,8.74,-0.06,0.01,-0.01,26.65
11542182,1927,1,191868,233630,1.03,-1.28,9.86,-0.04,-0.01,-0.02,26.65
11582202,1595,1,191958,234815,0.82,-1.37,9.67,-0.04,0.02,-0.01,26.65
11622182,1190,1,191980,235050,1.09,-1.54,9.40,-0.01,-0.02,-0.02,26.65
11662202,507,1,192097,235325,1.01,-1.39,9.39,-0.01,-0.02,-0.02,26.65
11702202,0,1,192058,235259,1.01,-1.12,9.52,-0.03,-0.01,-0.01,26.65
11740202,0,1,192004,235018,0.60,-1.22,9.86,-0.02,0.01,-0.02,26.65
11780181,0,1,192098,234976,1.01,-1.31,10.61,-0.03,-0.01,-0.01,26.65
11820204,0,1,192209,235364,1.06,-1.34,9.61,-0.03,-0.01,-0.01,26.65
11860201,0,1,192614,236327,1.05,-1.47,9.75,-0.03,-0.03,-0.02,26.65
11900202,0,1,193142,237412,0.85,-0.86,10.01,-0.07,0.01,-0.01,26.65
11940181,0,1,193655,237990,0.83,-0.93,11.34,-0.04,-0.01,-0.01,26.65
11980201,0,1,194071,238447,0.72,-1.06,10.77,-0.03,0.01,-0.00,26.65
12020181,0,1,194189,238798,1.36,-1.46,10.62,0.00,-0.05,-0.01,26.65
12060180,0,1,194482,239197,1.01,-1.58,9.47,-0.03,-0.01,-0.01,26.65
12100201,0,1,194632,239257,1.26,-1.27,9.79,-0.03,-0.05,-0.01,26.65
12141202,394,1,194813,238946,0.85,-1.11,10.04,-0.07,0.00,-0.02,26.65
12181179,759,1,194483,237092,0.91,-1.13,9.78,-0.06,-0.01,-0.01,26.65
12221202,1122,1,193760,235448,0.52,-1.42,10.43,-0.03,0.00,-0.01,26.65
12261868,1407,1,193397,236113,0.77,-1.26,9.62,-0.03,-0.01,-0.01,26.59
12300202,1686,1,193673,236671,0.87,-1.47,9.80,-0.02,-0.03,-0.01,26.59
12340201,1869,1,193870,237354,1.07,-1.52,9.45,-0.03,-0.02,-0.01,26.59
12380202,1906,1,194012,237427,1.24,-1.22,9.18,-0.03,-0.05,-0.02,26.59
12420201,2006,1,194117,237243,0.99,-1.25,9.56,-0.04,-0.00,-0.02,26.59
12460202,2114,1,194176,237074,0.88,-1.05,10.00,-0.06,0.02,-0.02,26.59
12500181,2110,1,194028,237136,0.98,-1.15,10.23,-0.02,-0.01,-0.02,26.59
12540214,2126,1,194008,237279,0.99,-1.18,9.86,-0.01,0.00,-0.01,26.59
12580181,2170,1,194077,237685,1.15,-1.13,10.02,-0.01,-0.03,-0.01,26.59
12620205,2192,1,194304,238199,1.20,-0.98,9.94,0.01,-0.04,0.00,26.59
12660172,2192,1,194757,238582,1.16,-1.37,10.10,-0.01,-0.03,0.22,26.59
12700182,2217,1,195180,239091,1.41,-0.65,9.75,-0.01,-0.04,0.12,26.59
12740213,2265,1,195818,239602,0.73,-1.21,10.19,-0.03,-0.01,0.10,26.59
12780181,2271,1,196258,239468,1.04,-0.40,9.68,-0.01,-0.03,0.14,26.59
12820182,2240,1,196895,239635,1.05,-0.74,10.54,-0.01,-0.03,0.16,26.59
12860182,2217,1,197130,238612,1.52,-0.63,10.56,-0.00,-0.03,0.14,26.59
12900182,2233,1,197153,238258,1.30,-1.18,9.54,-0.02,-0.01,0.00,26.59
12940206,2273,1,197325,238819,0.96,-1.40,9.27,-0.06,0.02,-0.00,26.59
12980179,2319,1,197685,239715,0.90,-0.90,10.31,-0.04,-0.02,-0.03,26.59
13020202,2315,1,197843,240675,0.90,-1.34,10.50,-0.02,-0.02,-0.01,26.59
13060202,2290,1,197715,240037,1.23,-0.62,9.97,-0.00,-0.04,-0.02,26.59
13100202,2291,1,197861,240000,0.94,-1.17,10.27,-0.04,-0.01,0.01,26.59
13140182,2185,1,198050,241086,1.00,-0.58,10.50,-0.02,0.00,0.00,26.59
13179172,2183,1,198261,242252,1.17,-1.14,10.33,-0.03,-0.01,0.01,26.59
13219181,2140,1,198589,243630,0.68,-1.56,9.14,-0.02,-0.01,0.01,26.59
13259183,2209,1,199080,243619,1.34,-1.23,9.90,-0.05,-0.03,0.00,26.59
13299868,2162,1,199260,244970,1.13,-0.79,9.55,0.00,-0.07,0.02,26.65
13340172,2124,1,199717,245177,1.41,-1.89,8.63,-0.08,0.00,0.01,26.65
13380172,2058,1,199640,245536,0.92,-1.13,10.23,-0.04,0.00,0.01,26.65
13420172,2065,1,199201,244870,1.48,-1.57,9.30,-0.05,-0.03,0.01,26.65
13460182,2018,1,199309,245192,0.78,-1.70,10.07,-0.03,-0.01,0.01,26.65
13500182,1984,1,198856,243530,1.09,-1.69,8.83,-0.04,-0.02,0.01,26.65
13540182,1927,1,197885,241725,0.75,-1.45,9.68,-0.03,-0.01,0.01,26.65
13580182,1872,1,197199,241163,1.17,-1.68,9.56,-0.03,-0.01,0.01,26.65
13620182,1790,1,196662,241377,0.95,-1.64,9.43,-0.02,-0.01,-0.01,26.65
13660202,1700,1,196163,241192,1.37,-1.51,9.14,-0.03,-0.00,-0.14,26.65
13700202,1617,1,195572,240705,0.93,-1.47,9.84,-0.03,0.01,-0.07,26.65
13740182,1579,1,195227,240473,1.07,-1.82,9.81,-0.04,0.02,-0.07,26.65
13780182,1478,1,194974,240279,1.21,-1.39,10.70,-0.01,-0.00,-0.10,26.65
13820203,1441,1,194739,240989,1.03,-1.72,10.12,-0.00,0.00,-0.08,26.65
13860179,1360,1,195058,241642,0.95,-1.73,9.66,-0.01,-0.01,-0.26,26.65
13900202,1270,1,195361,242317,0.87,-1.75,10.26,-0.01,0.00,-0.20,26.65
13938181,1218,1,195582,242681,0.86,-2.01,10.49,-0.01,-0.02,-0.11,26.65
13978204,1266,1,195658,242750,0.92,-1.83,10.06,-0.03,-0.01,-0.06,26.65
14018205,1347,1,195838,242874,0.85,-1.52,10.20,-0.05,0.03,-0.03,26.65
14058183,1469,1,195689,243136,0.90,-1.07,10.12,-0.04,0.03,-0.02,26.65
14098182,1562,1,195985,243246,0.77,-0.70,10.56,-0.03,0.02,-0.10,26.65
14138184,1569,1,195734,242953,1.22,-0.92,10.21,-0.03,-0.01,-0.04,26.65
14179206,1670,1,195356,242109,1.58,-0.79,9.99,-0.03,-0.02,-0.03,26.65
14219205,1746,1,194877,241897,1.11,-1.15,9.63,-0.01,-0.03,0.00,26.65
14259182,1814,1,194607,240490,0.82,-0.97,8.94,-0.01,-0.03,0.00,26.65
14299182,1895,1,194366,240201,0.55,-1.44,9.31,-0.05,-0.00,-0.00,26.65
14339886,1945,1,194152,239617,0.92,-0.84,10.75,-0.01,-0.05,-0.00,26.65
14378240,1955,1,193898,239815,0.72,-1.25,10.19,0.02,-0.04,0.01,26.65
14418172,1925,1,193987,239987,0.43,-1.16,10.12,0.01,-0.03,0.03,26.65
14458172,1927,1,194239,240818,0.63,-1.44,10.26,0.01,-0.03,0.11,26.65
14498172,1925,1,194619,241297,0.81,-1.60,9.03,-0.03,-0.03,0.03,26.65
14538181,1984,1,195071,241909,0.73,-0.42,9.38,-0.06,0.00,0.01,26.65
14578191,2037,1,196193,242796,-0.26,-1.16,11.14,-0.07,0.03,0.12,26.65
14618183,2086,1,197147,243574,0.78,0.14,10.15,-0.02,-0.02,-0.00,26.65
14658181,2097,1,198018,244519,0.48,-1.27,9.66,-0.07,0.01,0.00,26.65
14698172,2135,1,198406,245111,0.77,-0.23,8.91,-0.04,-0.03,-0.01,26.65
14738201,2133,1,198829,245627,0.67,-0.80,10.05,-0.08,-0.01,-0.01,26.65
14778202,2109,1,199478,246444,0.94,-0.33,8.75,-0.04,-0.06,-0.00,26.65
14818202,2128,1,200186,246907,0.63,-0.66,10.07,-0.10,0.00,0.02,26.65
14858172,2144,1,200594,247738,0.71,-0.44,9.33,-0.05,-0.03,0.02,26.65
14898181,2128,1,200835,247979,0.54,-0.90,9.70,-0.09,0.01,-0.01,26.65
14938181,2091,1,201025,248048,0.21,-0.71,9.18,-0.06,0.01,-0.01,26.65
14978181,2064,1,201314,247895,0.74,-0.46,10.64,-0.08,0.00,-0.01,26.65
15018181,2034,1,201431,247182,0.46,-0.51,10.31,-0.03,-0.02,-0.01,26.65
15058202,1986,1,200917,245361,0.70,-1.24,9.50,-0.05,-0.04,-0.01,26.65
15098202,1951,1,200921,245546,0.24,-0.91,10.65,-0.04,-0.01,0.02,26.65
15138182,1941,1,201184,246129,0.26,-1.54,10.15,-0.06,0.01,0.12,26.65
15178172,1893,1,201369,246230,0.68,-0.56,9.68,-0.02,-0.04,0.05,26.65
15217180,1894,1,201657,247300,0.55,-1.02,9.54,-0.05,-0.01,0.00,26.65
15257183,1841,1,201946,248268,0.43,-0.57,9.57,-0.04,-0.01,-0.01,26.65
15297201,1794,1,202156,248397,0.68,-0.79,10.37,-0.05,-0.02,-0.01,26.65
15337204,1803,1,202293,248663,0.47,-0.76,9.67,-0.02,-0.02,0.08,26.65
15377868,1744,1,202310,248546,0.49,-1.23,9.55,-0.02,-0.01,-0.00,26.65
15418202,1687,1,202325,248929,0.53,-0.93,9.40,-0.04,-0.02,-0.00,26.65
15458198,1691,1,202219,248764,0.63,-0.96,8.52,-0.05,-0.01,-0.01,26.65
15498202,1667,1,202260,249149,0.29,-0.52,10.61,-0.06,0.03,-0.01,26.65
15538182,1618,1,202021,249402,0.67,-0.62,9.90,-0.00,-0.02,-0.00,26.65
15578202,1581,1,201790,249475,0.54,-1.05,8.98,-0.02,-0.02,-0.01,26.65
15618202,1531,1,201394,249186,0.58,-0.97,9.02,-0.06,0.01,-0.00,26.65
15658182,1535,1,201125,248796,0.34,-1.11,9.87,-0.04,0.02,-0.00,26.65
15698183,1523,1,200765,248252,0.72,-0.70,9.76,-0.01,-0.01,-0.00,26.65
15738202,1508,1,200350,247433,0.22,-1.25,8.98,-0.04,0.01,-0.00,26.65
15778183,1526,1,200213,246998,0.65,-0.42,10.00,-0.03,-0.01,-0.00,26.65
15818203,1563,1,200050,247366,0.58,-0.99,10.09,-0.01,-0.01,-0.00,26.65
15858203,1607,1,200031,247377,0.70,-0.94,8.99,-0.03,-0.01,-0.01,26.65
15898202,1569,1,199954,247205,0.42,-1.29,10.62,-0.06,0.03,-0.00,26.65
15938182,1572,1,199773,247178,0.88,-0.79,9.16,-0.01,-0.05,-0.01,26.65
15978203,1570,1,199594,246964,0.47,-1.30,9.80,-0.07,0.02,-0.01,26.65
16018217,1535,1,199191,246783,0.73,-0.88,9.86,-0.03,-0.02,-0.00,26.65
16058202,1520,1,198913,246556,0.97,-1.14,9.19,-0.06,-0.04,-0.04,26.65
16098203,1561,1,198862,246269,0.75,-1.15,9.99,-0.06,-0.01,-0.01,26.65
16138203,1622,1,198779,246185,1.35,-1.12,10.08,-0.04,-0.07,-0.01,26.65
16178203,1635,1,198647,245962,0.90,-0.97,9.19,-0.05,-0.03,-0.01,26.65
16218202,1661,1,198458,245418,0.95,-0.91,10.20,-0.05,-0.02,-0.02,26.65
16256201,1697,1,198228,245337,0.84,-1.35,10.43,-0.01,-0.03,-0.01,26.65
16296204,1728,1,197774,244703,0.75,-1.32,8.60,-0.02,-0.03,-0.02,26.65
16336201,1702,1,197650,244234,0.17,-1.39,10.02,-0.04,0.02,-0.01,26.65
16376182,1680,1,197425,244155,0.37,-1.16,8.97,-0.01,0.01,-0.03,26.65
16416868,1648,1,197132,243186,0.27,-1.86,9.23,-0.03,0.03,-0.10,26.55
16457182,1649,1,196476,242488,0.60,-0.69,9.28,-0.00,0.02,-0.11,26.55
16497179,1642,1,196147,242145,0.49,-1.64,9.06,-0.02,0.02,-0.10,26.55
16537182,1601,1,196070,241970,0.80,-0.91,9.01,-0.03,0.01,-0.21,26.55
16577179,1582,1,196199,242167,0.30,-1.73,10.41,-0.05,0.02,-0.02,26.55
16617182,1558,1,196193,243004,0.84,-1.40,8.85,-0.01,-0.01,-0.02,26.55
16657202,1569,1,196427,243057,0.41,-1.83,9.63,-0.06,0.03,-0.06,26.55
16697182,1535,1,196488,243851,0.95,-1.13,10.65,-0.02,-0.04,-0.01,26.55
16737202,1616,1,196490,243647,1.07,-1.54,8.86,-0.05,-0.04,-0.02,26.55
16777203,1675,1,196720,244036,0.82,-1.73,9.49,-0.07,-0.01,-0.01,26.55
16817202,1744,1,196885,243719,0.72,-1.01,10.29,-0.06,-0.00,-0.02,26.55
16857202,1776,1,197101,244184,0.84,-0.96,9.46,-0.04,-0.02,0.01,26.55
16897183,1837,1,197318,244058,0.86,-1.24,9.09,-0.08,-0.00,-0.00,26.55
16937202,1914,1,197587,244201,0.48,-0.76,9.77,-0.06,0.00,0.00,26.55
16977171,1917,1,197805,244272,0.85,-1.22,9.03,-0.04,-0.01,-0.01,26.55
17017202,1920,1,197995,244676,0.92,-1.33,9.01,-0.05,-0.02,-0.01,26.55
17057203,1899,1,198341,244917,1.14,-1.20,8.61,-0.05,-0.03,0.04,26.55
17097182,1910,1,198690,244962,1.09,-1.49,8.54,-0.05,-0.03,0.08,26.55
17137182,1904,1,198803,243917,0.93,-1.58,7.75,-0.05,-0.02,0.07,26.55
17177182,1923,1,198638,242222,0.45,-1.18,8.55,-0.06,0.01,0.01,26.55
17217172,1943,1,198684,243334,0.30,-1.51,9.23,-0.03,0.04,0.08,26.55
17257172,1952,1,199114,244310,0.24,-1.19,9.00,-0.01,0.03,-0.01,26.55
17297182,1934,1,199377,245172,0.50,-1.21,10.47,0.02,0.02,-0.01,26.55
17337172,1895,1,199471,245882,0.55,-1.67,9.77,0.05,-0.01,-0.01,26.55
17377183,1856,1,199515,245765,0.85,-1.58,9.64,0.01,-0.00,-0.02,26.55
17415871,1855,1,199360,245647,0.57,-1.62,10.69,0.00,0.01,-0.02,26.55
17456204,1823,1,199090,245589,0.91,-1.36,11.11,0.01,-0.03,-0.02,26.55
17496182,1787,1,198767,245665,0.61,-1.40,9.98,-0.01,-0.02,-0.03,26.55
17536202,1808,1,198772,245690,0.71,-0.75,11.39,-0.03,-0.01,-0.03,26.55
17576203,1778,1,198986,246271,0.89,-0.99,11.58,-0.00,-0.04,-0.02,26.55
17616202,1747,1,198862,246231,1.34,-0.91,10.16,-0.00,-0.05,-0.02,26.55
17656202,1701,1,198791,245917,0.74,-1.37,10.06,-0.03,-0.01,-0.01,26.55
17696202,1687,1,198860,246157,1.09,-0.86,10.39,-0.00,-0.04,-0.01,26.55
17736202,1737,1,198968,246225,0.79,-1.03,10.14,0.02,-0.03,-0.01,26.55
17776183,1779,1,199419,246546,0.79,-0.37,9.13,0.01,-0.02,0.04,26.55
17816172,1823,1,200116,245463,0.62,-0.63,11.21,-0.00,-0.02,0.28,26.55
17856182,1794,1,200268,244036,1.12,-0.33,9.98,0.06,-0.03,0.47,26.55
17896172,1827,1,200659,243746,1.06,-0.77,8.21,0.00,-0.06,0.18,26.55
17936171,1792,1,201633,244644,0.99,-1.15,10.04,-0.05,-0.04,0.19,26.55
17976182,1776,1,202110,244969,1.24,-0.54,8.45,-0.04,-0.06,-0.00,26.55
18016202,1791,1,203212,247726,0.47,-0.89,9.61,-0.06,0.05,0.02,26.55
18056172,1815,1,203992,248301,1.07,-0.87,8.76,-0.03,0.00,-0.01,26.55
18096183,1840,1,204369,249178,0.52,-0.34,11.32,-0.02,0.04,-0.01,26.55
18136182,1863,1,204356,249861,1.30,-0.68,10.22,0.03,-0.06,-0.04,26.55
18176182,1891,1,204554,250182,0.95,-0.76,9.10,-0.04,-0.02,-0.01,26.55
18216202,1911,1,204765,250749,1.09,-0.84,9.82,-0.06,-0.02,0.01,26.55
18256183,1889,1,204873,251596,0.98,-0.65,10.28,-0.02,-0.00,0.00,26.55
18296182,1811,1,204875,251178,0.76,-0.36,9.51,0.01,0.01,-0.00,26.55
18336171,1776,1,204936,251898,1.17,-1.16,9.78,-0.01,-0.03,0.02,26.55
18376182,1817,1,205089,251675,1.58,-0.48,10.08,-0.08,-0.02,-0.01,26.55
18416202,1794,1,204739,250954,0.77,-0.71,7.42,-0.11,0.00,0.00,26.55
18456859,1818,1,205148,251438,1.10,-1.46,11.92,-0.19,0.12,-0.02,26.65
18495182,1810,1,204281,249441,1.66,-0.49,8.45,0.01,-0.07,-0.14,26.65
18535182,1853,1,204222,249321,0.82,-1.18,12.33,-0.16,0.10,-0.01,26.65
18575182,1842,1,203363,249113,1.84,-0.17,9.39,0.05,-0.14,-0.04,26.65
18615182,1776,1,203378,249098,0.43,-1.49,9.10,-0.09,0.07,-0.00,26.65
18655179,1749,1,202750,248568,1.42,-0.61,9.12,0.00,-0.04,-0.01,26.65
18695182,1709,1,202236,247803,1.08,-1.92,10.63,-0.07,0.02,-0.01,26.65
18735182,1685,1,200901,247113,1.48,-0.43,8.57,0.01,-0.05,-0.33,26.65
18775182,1642,1,200320,246587,0.92,-1.91,9.33,-0.09,0.04,-0.04,26.65
18815182,1606,1,200327,247095,0.57,-1.45,10.28,-0.03,0.01,0.01,26.65
18855172,1595,1,199794,246562,0.93,-1.35,10.62,0.00,-0.02,-0.15,26.65
18895182,1535,1,199507,247224,0.74,-0.91,10.78,-0.04,0.04,-0.00,26.65
18935182,1561,1,199018,247159,0.64,-1.29,8.93,-0.02,0.04,-0.20,26.65
18975182,1530,1,198885,247489,0.56,-0.97,11.70,-0.00,0.03,-0.08,26.65
19015182,1602,1,198639,246752,0.84,-0.51,9.80,-0.02,0.00,-0.16,26.65
19055182,1518,1,198348,246720,1.01,-0.32,11.15,-0.01,0.00,0.01,26.65
19095172,1583,1,198409,247066,1.10,-2.06,10.72,-0.01,0.00,-0.02,26.65
19135182,1603,1,198518,247399,0.64,-0.91,9.36,0.01,0.00,-0.26,26.65
19175172,1691,1,198719,247219,0.77,-0.26,10.47,-0.04,0.01,-0.18,26.65
19215182,1737,1,198688,246716,-0.06,-1.02,10.87,0.01,0.06,-0.01,26.65
19255182,1771,1,198135,246486,1.07,0.24,10.98,0.01,-0.00,-0.01,26.65
19295172,1842,1,198190,246629,0.29,-1.23,9.71,-0.04,0.02,0.01,26.65
19335172,1865,1,197626,245536,1.31,-0.82,9.16,-0.01,-0.06,0.01,26.65
19375182,1895,1,197604,245161,0.64,-1.56,10.73,-0.07,-0.01,0.02,26.65
19415182,1898,1,197309,245178,0.76,-1.20,9.47,-0.01,-0.04,0.03,26.65
19455182,1936,1,197290,244344,1.03,-1.16,9.26,-0.01,-0.05,0.01,26.65
19495868,1921,1,197411,244889,0.93,-1.64,10.32,-0.07,-0.04,0.09,26.67
19534182,1936,1,197313,244048,1.15,-0.89,8.68,-0.06,-0.04,-0.00,26.67
19574202,1894,1,197537,244631,0.49,-1.16,11.42,-0.04,-0.00,0.02,26.67
19614182,1903,1,197279,244160,1.28,-0.94,9.71,-0.03,-0.08,0.01,26.67
19654182,1891,1,197402,244818,0.68,-1.50,10.84,0.01,0.01,0.03,26.67
19694151,1831,1,197072,244849,1.82,-1.44,8.28,-0.02,-0.09,0.00,26.67
19734182,1795,1,197348,244784,0.49,-1.47,9.65,-0.09,0.03,-0.00,26.67
19774182,1787,1,197077,244034,1.61,-0.66,10.54,-0.01,-0.08,0.00,26.67
19814182,1781,1,197294,244697,0.55,-1.17,11.34,-0.04,0.02,0.01,26.67
19854172,1744,1,196804,243309,1.12,-0.64,9.24,0.04,-0.06,0.01,26.67
19894172,1712,1,196479,242387,0.68,-1.40,9.57,-0.05,0.03,0.09,26.67
19934171,1779,1,196083,240562,1.06,-0.32,9.03,-0.03,-0.01,-0.00,26.67
19974202,1776,1,195894,241066,1.63,-0.47,11.55,-0.02,-0.03,0.26,26.67
20014182,1779,1,195856,240124,0.85,-0.88,8.17,-0.01,0.01,0.08,26.67
20054172,1771,1,195939,240282,0.98,-1.12,10.34,-0.01,-0.02,0.21,26.67
20094182,1818,1,195792,239772,1.24,-0.99,7.95,-0.01,-0.01,0.06,26.67
20134182,1815,1,196134,240860,0.78,-1.77,9.48,-0.05,-0.00,0.05,26.67
20174179,1841,1,196252,240894,1.51,-0.53,8.04,-0.05,-0.03,0.00,26.67
20214182,1842,1,196705,242057,0.75,-0.95,10.39,-0.07,0.05,0.01,26.67
20254172,1837,1,196948,243192,0.96,-0.72,9.45,-0.03,0.02,0.01,26.67
20294172,1827,1,197369,243794,0.96,-1.45,10.38,-0.05,0.01,0.00,26.67
20334172,1822,1,197529,244432,1.30,-0.69,9.21,-0.01,-0.01,0.00,26.67
20374182,1840,1,197783,244853,1.04,-0.85,10.16,-0.03,-0.00,0.00,26.67
20414179,1809,1,197916,245453,0.98,-0.85,9.77,-0.03,0.02,0.00,26.67
20454172,1799,1,197883,245402,1.17,-0.95,10.96,-0.02,-0.01,-0.03,26.67
20494202,1776,1,197989,245869,0.55,-1.26,11.04,-0.02,0.03,0.00,26.67
20534858,1728,1,197665,245722,1.46,-1.10,10.41,0.01,-0.05,-0.27,26.67
20573181,1719,1,197447,245300,0.52,-1.48,11.14,-0.05,0.03,-0.01,26.67
20613181,1728,1,197140,244642,1.08,-0.19,10.42,-0.04,-0.06,-0.15,26.67
20653202,1721,1,197253,244861,0.80,-1.05,10.87,-0.06,0.02,-0.00,26.67
20693181,1754,1,197263,244182,0.82,-0.12,10.17,-0.07,-0.01,-0.01,26.67
20733202,1767,1,197581,244386,0.81,-0.60,11.34,-0.04,0.01,0.01,26.67
20773172,1786,1,197586,244208,1.24,-0.89,8.10,-0.03,-0.05,0.01,26.67
20813179,1773,1,197890,244512,1.13,-1.60,9.28,-0.06,-0.01,0.04,26.67
20853181,1744,1,198004,244452,1.07,-1.46,8.10,-0.07,-0.04,0.01,26.67
20893182,1744,1,198327,244859,0.97,-1.45,8.91,-0.11,-0.06,0.09,26.67
20933186,1777,1,198701,245793,0.79,-1.13,10.31,-0.07,-0.01,0.03,26.67
20973181,1763,1,198753,246307,0.93,-0.42,9.42,-0.05,0.00,0.00,26.67
21013172,1757,1,198796,246259,0.62,-0.87,10.00,-0.06,-0.00,0.00,26.67
21053179,1690,1,198636,245997,0.59,-1.20,10.31,-0.02,0.03,0.01,26.67
21093172,1632,1,198345,245990,1.28,-0.88,10.49,-0.02,-0.01,-0.09,26.67
21133201,1617,1,197933,245934,0.90,-1.30,9.96,-0.03,-0.02,-0.16,26.67
21173202,1610,1,197750,245773,0.67,-1.50,10.33,-0.03,0.01,-0.03,26.67
21213182,1584,1,197676,245490,1.33,-0.63,10.35,-0.03,-0.03,-0.06,26.67
21253203,1617,1,197438,244288,0.63,-1.16,9.96,-0.05,0.01,-0.00,26.67
21293182,1625,1,197096,243653,0.79,-0.97,10.58,-0.01,0.02,0.00,26.67
21333172,1649,1,196972,242754,1.01,-0.88,9.61,-0.03,-0.01,-0.00,26.67
21373199,1674,1,196772,243229,0.80,-1.60,9.95,-0.00,0.02,0.01,26.67
21413172,1728,1,196829,242986,0.96,-1.05,8.95,0.01,0.01,0.01,26.67
21453151,1712,1,197164,244209,0.88,-1.39,9.59,-0.03,0.03,0.00,26.67
21493172,1728,1,197493,244349,0.70,-0.87,9.66,-0.01,0.01,-0.04,26.67
21533179,1683,1,197796,246148,0.93,-1.42,10.21,-0.01,0.00,0.01,26.67
21573858,1715,1,198208,247022,1.24,-0.94,9.15,0.01,-0.03,-0.12,26.71
21612181,1711,1,198625,248010,0.86,-1.37,10.33,-0.02,-0.03,-0.07,26.71
21652205,1761,1,198734,248153,0.76,-0.91,8.91,-0.01,-0.05,-0.13,26.71
21692202,1775,1,198789,248337,0.67,-0.91,11.02,-0.02,-0.02,-0.08,26.71
21732204,1803,1,198736,247818,0.83,-0.83,10.44,-0.02,-0.01,-0.10,26.71
21772202,1782,1,198615,248151,0.81,-0.90,11.54,-0.03,-0.03,-0.01,26.71
21812202,1743,1,198242,246938,0.89,-0.92,9.89,-0.02,-0.05,-0.05,26.71
21852202,1697,1,197607,245719,0.77,-1.11,9.83,-0.04,-0.04,0.00,26.71
21892181,1702,1,197231,244637,1.21,-0.85,10.88,-0.01,-0.04,0.01,26.71
21932182,1681,1,196792,243770,1.43,-0.66,9.63,-0.03,-0.06,0.19,26.71
21972182,1758,1,196718,241840,0.40,-1.64,9.84,-0.06,0.01,0.20,26.71
22012172,1852,1,196384,241088,1.14,-0.22,8.85,-0.03,-0.05,0.32,26.71
22052181,1845,1,196869,241818,1.13,-1.07,10.02,-0.03,-0.03,0.21,26.71
22092182,1805,1,197106,241999,1.41,-0.42,8.85,0.00,-0.07,0.01,26.71
22132172,1735,1,197953,243525,0.88,-1.65,10.29,-0.06,0.00,0.05,26.71
22172172,1755,1,198257,243652,1.25,-0.71,9.22,-0.05,-0.06,-0.00,26.71
22212202,1744,1,198688,244256,1.15,-1.09,9.38,-0.09,-0.03,0.03,26.71
22252182,1793,1,198959,244520,0.68,-1.21,9.62,-0.06,-0.01,0.02,26.71
22292182,1791,1,199191,245062,1.22,-0.42,10.11,-0.05,-0.04,0.01,26.71
22332182,1568,1,199827,245743,0.41,-0.41,11.21,-0.05,0.05,0.05,26.71
22372172,1202,1,199977,246104,1.48,-0.50,9.51,-0.06,-0.03,0.09,26.71
22412182,1087,1,200517,246084,0.92,-0.96,10.03,-0.10,0.01,0.03,26.71
22452172,945,1,200382,245987,0.89,-0.98,8.88,-0.04,-0.00,0.03,26.71
22492182,944,1,200576,246066,0.64,-1.24,9.38,-0.06,0.01,0.03,26.71
22532172,974,1,200308,245929,0.82,-1.17,9.25,-0.03,0.03,0.01,26.71
22572172,1058,1,200250,246147,1.25,-1.43,9.47,-0.05,-0.02,0.00,26.71
22612872,1189,1,200107,246360,0.95,-1.04,8.72,-0.02,-0.01,0.01,26.65
22651181,1283,1,200171,246318,1.20,-1.41,10.15,-0.04,-0.00,-0.00,26.65
22691205,1438,1,199810,245118,0.87,-1.84,9.93,-0.04,0.01,0.00,26.65
22731172,1517,1,198984,243014,1.18,-0.87,9.15,-0.03,-0.01,-0.00,26.65
22771219,1606,1,199147,244199,0.40,-1.96,11.06,-0.05,0.05,0.00,26.65
22811172,1676,1,198685,244472,1.34,-0.98,8.12,0.01,-0.06,-0.05,26.65
22851184,1730,1,199069,245381,0.37,-1.97,10.58,-0.06,0.04,0.00,26.65
22891172,1787,1,199037,245989,1.09,-1.16,9.62,0.02,-0.03,-0.03,26.65
22931184,1797,1,198977,246203,0.83,-1.27,10.93,-0.01,-0.03,0.00,26.65
22971181,1840,1,198767,246089,0.85,-1.35,9.49,0.00,0.02,-0.03,26.65
23011172,1883,1,198381,245772,1.04,-1.50,10.79,-0.00,-0.01,-0.14,26.65
23051202,1947,1,198164,245234,0.78,-1.06,9.70,-0.01,-0.02,-0.04,26.65
23091205,1973,1,198076,245419,1.31,-1.55,10.91,0.00,-0.06,0.01,26.65
23131172,2018,1,198060,245440,0.59,-1.36,9.04,-0.02,-0.03,0.01,26.65
23171184,2063,1,198089,245717,1.30,-0.89,10.81,-0.03,-0.05,0.00,26.65
23210181,2097,1,198231,245756,0.86,-0.98,10.31,-0.03,-0.04,0.00,26.65
23250184,2067,1,198223,245993,1.36,-1.33,10.19,-0.02,-0.07,0.00,26.65
23290182,2085,1,198266,245258,1.08,-1.02,9.41,-0.04,-0.09,-0.00,26.65
23330205,2099,1,198352,245073,1.16,-1.17,9.79,-0.03,-0.05,0.00,26.65
23370182,2094,1,197857,242945,1.30,-0.87,9.04,-0.04,-0.09,-0.00,26.65
23410204,2061,1,197480,242950,1.20,-0.97,9.49,-0.02,-0.04,-0.01,26.65
23450202,2063,1,197598,243731,1.08,-0.63,8.69,-0.02,-0.04,-0.00,26.65
23490205,2039,1,197775,244556,1.31,-1.29,9.38,-0.02,-0.05,-0.00,26.65
23530202,2005,1,197952,245242,1.01,-0.80,9.35,-0.01,-0.05,-0.00,26.65
23570205,1974,1,197989,245494,1.02,-1.05,9.97,0.01,-0.03,0.00,26.65
23610172,1904,1,198044,245704,1.10,-1.13,9.24,0.01,-0.04,0.01,26.65
23650860,1862,1,197855,245042,1.13,-1.49,9.17,-0.01,-0.04,0.00,26.59
23691182,1841,1,197743,244888,0.48,-1.67,10.21,-0.01,0.05,0.00,26.59
23731172,1857,1,197485,244639,1.16,-1.56,9.78,-0.02,-0.04,-0.01,26.59
23771202,1867,1,197695,244998,0.62,-1.40,10.05,-0.01,0.02,-0.00,26.59
23811182,1862,1,197751,244639,0.78,-1.89,9.67,-0.03,0.00,0.00,26.59
23851172,1866,1,197570,244600,1.19,-1.59,10.59,-0.01,-0.02,0.00,26.59
23891183,1778,1,197360,243321,0.86,-1.06,9.88,-0.01,0.00,-0.00,26.59
23931182,1743,1,197275,243465,1.08,-1.50,10.68,-0.01,-0.01,0.00,26.59
23971183,1802,1,197336,243412,0.89,-1.35,9.69,-0.01,-0.01,0.00,26.59
24011183,1778,1,197503,244403,0.92,-1.19,10.42,-0.01,-0.03,0.01,26.59
24051185,1766,1,197859,244786,0.44,-1.50,10.05,-0.02,0.03,0.00,26.59
24091172,1715,1,197705,244478,0.63,-1.20,10.58,-0.03,-0.02,0.00,26.59
24131183,1714,1,197573,244691,0.24,-1.29,11.23,-0.03,0.03,-0.00,26.59
24171182,1689,1,197440,245141,0.49,-1.37,10.45,-0.02,-0.03,-0.06,26.59
24210205,1695,1,197504,245233,0.61,-1.85,10.98,-0.05,-0.02,-0.08,26.59
24250202,1703,1,197519,245140,1.13,-0.86,11.26,-0.07,-0.08,-0.07,26.59
24290205,1719,1,197601,244678,1.20,-0.89,11.23,-0.05,-0.06,-0.01,26.59
24330202,1683,1,197699,244280,0.72,-0.79,9.32,-0.06,-0.04,-0.00,26.59
24370205,1663,1,197588,243636,0.96,-1.21,9.07,-0.08,-0.05,-0.00,26.59
24410202,1673,1,197535,243380,0.99,-0.93,8.62,-0.08,-0.03,-0.01,26.59
24450205,1757,1,197555,243714,1.41,-0.59,8.79,-0.07,-0.03,-0.00,26.59
24490202,1779,1,197673,244261,1.40,-0.55,8.97,-0.05,-0.01,-0.01,26.59
24530205,1754,1,197816,244515,1.02,-0.81,8.84,-0.02,-0.01,-0.00,26.59
24570202,1754,1,197819,244740,1.01,-1.36,8.43,0.00,-0.03,0.00,26.59
24610172,1744,1,197849,245261,1.03,-1.65,8.61,-0.00,-0.03,0.01,26.59
24650869,1698,1,197845,245559,0.97,-1.60,8.83,-0.03,-0.02,0.01,26.67
24689184,1677,1,197851,245497,0.67,-1.65,10.18,-0.02,0.03,0.00,26.67
24729172,1682,1,197736,245960,0.61,-1.65,10.75,-0.00,0.01,0.01,26.67
24769172,1721,1,197707,246525,0.43,-1.51,10.37,0.01,0.04,0.00,26.67
24809150,1747,1,197944,247115,0.13,-1.45,11.18,0.00,0.05,-0.00,26.67
24849172,1779,1,197708,246283,0.42,-0.86,10.98,-0.01,0.01,-0.08,26.67
24889181,1781,1,197251,245705,0.27,-0.90,11.94,-0.01,0.01,-0.00,26.67
24929184,1781,1,196990,245149,0.54,-0.76,10.77,-0.02,-0.01,-0.00,26.67
24969202,1722,1,197135,245098,0.29,-0.88,11.30,-0.01,0.01,-0.00,26.67
25009184,1719,1,197177,244760,0.08,-0.82,10.02,-0.02,0.00,-0.01,26.67
25049181,1673,1,197229,245062,0.57,-0.29,10.13,-0.04,-0.05,-0.01,26.67
25089205,1680,1,197589,244767,0.25,-0.51,10.13,-0.06,-0.01,-0.01,26.67
25129202,1756,1,197769,245686,0.86,-0.22,9.79,-0.02,-0.09,0.01,26.67
25169184,1751,1,198187,245680,0.55,-1.19,9.38,-0.09,-0.06,0.01,26.67
25209182,1821,1,198749,246728,0.70,0.00,8.83,-0.06,-0.07,0.12,26.67
25250172,1876,1,199448,246843,0.56,-0.73,9.18,-0.10,-0.07,0.01,26.67
25290182,1852,1,200292,247792,0.78,0.04,9.20,-0.07,-0.05,0.23,26.67
25330172,1827,1,200918,248042,0.66,-0.91,8.80,-0.10,-0.05,0.00,26.67
25370182,1828,1,201406,248914,0.73,-0.51,8.59,-0.06,-0.04,0.08,26.67
25410182,1856,1,202257,249809,0.56,-0.94,9.47,-0.08,0.01,0.00,26.67
25450171,1821,1,202980,250587,0.59,-0.40,9.06,-0.03,-0.02,-0.00,26.67
25490202,1870,1,203933,250923,0.03,-0.63,9.07,-0.05,0.07,0.02,26.67
25530171,1897,1,204350,250281,0.87,-0.69,10.46,0.01,0.02,0.13,26.67
25570151,1903,1,203954,249205,0.77,-0.99,9.03,0.01,0.04,0.10,26.67
25610152,1878,1,203772,249554,0.62,-1.44,8.90,-0.01,0.00,-0.00,26.67
25650182,1865,1,203617,250221,0.88,-1.34,9.19,0.00,-0.00,-0.00,26.67
25688868,1847,1,203430,250750,0.33,-1.25,9.51,-0.00,0.01,-0.00,26.61
25729184,1808,1,202754,250437,0.13,-0.44,9.48,-0.03,0.03,-0.01,26.61
25769182,1713,1,201919,249956,0.15,-0.64,11.69,0.00,0.07,-0.01,26.61
25809172,1679,1,201388,249736,0.10,-0.63,10.70,0.01,0.01,-0.01,26.61
25849172,1648,1,200940,249430,0.54,-0.80,10.45,-0.01,-0.01,-0.06,26.61
25889205,1659,1,200662,249037,0.62,-0.28,10.44,-0.00,-0.02,-0.19,26.61
25929202,1680,1,200561,248709,0.32,-0.91,11.52,-0.03,-0.01,-0.05,26.61
25969206,1653,1,200432,248239,0.62,-0.23,10.79,-0.02,-0.07,-0.02,26.61
26009202,1648,1,200486,248562,0.11,-0.75,10.08,-0.03,-0.03,0.00,26.61
26049213,1653,1,200524,248490,0.32,-0.19,9.56,-0.03,-0.04,-0.00,26.61
26089203,1682,1,200807,249370,0.28,-0.96,11.08,-0.04,-0.02,-0.00,26.61
26129204,1695,1,200716,249057,0.34,0.01,8.70,-0.01,-0.08,-0.00,26.61
26169183,1724,1,201098,249662,0.29,-1.19,10.44,-0.08,-0.01,0.00,26.61
26209182,1773,1,201284,249244,0.17,0.00,8.81,-0.02,-0.04,0.00,26.61
26249172,1766,1,201337,248757,0.85,-0.94,10.47,-0.07,-0.01,0.23,26.61
26288183,1814,1,200867,246645,0.56,-0.89,7.96,-0.04,-0.07,0.00,26.61
26328181,1856,1,201037,247829,0.24,-1.66,9.81,-0.07,-0.01,0.10,26.61
26368184,1867,1,201134,247046,0.44,-0.37,7.72,-0.07,-0.05,0.00,26.61
26408181,1814,1,201455,248351,0.66,-1.15,10.45,-0.08,0.01,0.02,26.61
26448172,1755,1,201522,247573,0.53,-0.40,9.11,-0.03,-0.02,-0.00,26.61
26488202,1616,1,201489,248159,0.95,-0.66,9.15,-0.06,-0.01,0.15,26.61
26528184,1635,1,201550,247838,0.70,-0.64,8.60,-0.02,-0.01,0.01,26.61
26568182,1584,1,201422,248463,0.72,-0.96,10.05,-0.00,0.04,0.00,26.61
26608172,1511,1,201249,248351,0.45,-1.31,8.87,0.02,0.04,0.00,26.61
26648151,1495,1,200828,248582,0.92,-0.72,9.21,-0.01,-0.02,-0.00,26.61
26688205,1518,1,200826,249063,0.15,-1.04,9.70,-0.05,0.05,0.00,26.61
26728859,1521,1,200460,248611,0.39,-0.25,10.20,-0.00,0.03,-0.00,26.67
26769182,1535,1,200824,248911,0.50,-1.19,12.09,0.00,0.00,0.01,26.67
26809151,1577,1,201165,249118,1.06,-0.86,9.73,-0.01,-0.09,0.02,26.67
26847184,1639,1,201800,248811,0.29,-1.04,10.64,-0.11,0.05,0.03,26.67
26887172,1707,1,201950,249313,0.71,-0.75,11.17,-0.00,-0.00,0.02,26.67
26927184,1789,1,202256,249509,0.62,-1.00,11.23,-0.02,0.03,-0.00,26.67
26967181,1808,1,201876,248936,0.50,-0.81,10.83,0.00,-0.01,-0.00,26.67
27007184,1861,1,201179,248505,0.44,-0.64,11.00,-0.05,-0.00,-0.01,26.67
27047202,1879,1,200869,248712,0.68,-0.72,10.83,-0.06,-0.06,-0.00,26.67
27087205,1889,1,200733,248693,0.89,-1.19,8.74,-0.10,-0.09,-0.02,26.67
27127202,1911,1,201161,248206,0.40,-0.96,9.26,-0.13,0.00,-0.01,26.67
27167184,1950,1,201400,248274,0.71,-0.76,10.22,-0.08,-0.02,0.00,26.67
27207182,1933,1,201033,247262,0.21,-0.57,10.08,-0.03,0.02,0.00,26.67
27247172,1862,1,200479,246967,0.60,-0.91,9.42,-0.05,0.01,-0.00,26.67
27288182,1862,1,200471,246170,0.79,-0.86,10.18,-0.08,-0.02,-0.02,26.67
27328204,1825,1,200323,247118,1.24,-1.37,9.46,-0.06,-0.11,0.00,26.67
27368182,1818,1,200939,247802,0.59,-1.57,8.13,-0.05,-0.03,0.00,26.67
27408182,1744,1,201316,247578,0.55,-1.18,8.57,-0.04,-0.00,0.00,26.67
27448182,1729,1,201138,247341,0.46,-0.34,10.37,0.01,0.04,0.00,26.67
27488186,1621,1,200756,246578,0.36,-0.53,10.76,0.01,0.07,-0.00,26.67
27528172,1616,1,200235,245870,0.91,-1.02,9.04,0.01,-0.00,0.01,26.67
27568172,1641,1,200231,246211,1.48,-1.29,8.52,-0.03,-0.04,-0.00,26.67
27608203,1668,1,200729,247366,0.69,-1.39,8.98,-0.03,0.06,0.00,26.67
27648172,1690,1,200798,247712,0.82,-1.23,8.83,0.00,0.03,-0.00,26.67
27688208,1665,1,200666,247129,-0.16,-1.10,10.59,-0.00,0.10,0.00,26.67
27728869,1664,1,200103,246742,0.29,-0.32,11.64,0.04,0.03,-0.08,26.65
27767172,1658,1,200054,247167,0.73,-0.98,12.40,0.00,0.02,-0.03,26.65
27807172,1685,1,199783,246818,0.82,0.04,8.80,0.00,-0.03,-0.14,26.65
27847172,1680,1,199895,246776,0.28,-1.41,10.38,-0.04,0.03,0.01,26.65
27887172,1709,1,199851,247508,-0.03,-0.45,11.39,0.03,0.06,0.00,26.65
27927172,1685,1,199887,247485,0.51,-1.25,12.50,0.02,0.01,-0.07,26.65
27967172,1632,1,199755,248259,0.12,-1.56,9.88,0.04,-0.10,0.00,26.65
28007172,1629,1,200240,247404,-0.00,-1.55,11.70,-0.07,0.02,0.00,26.65
28047182,1645,1,200403,248648,0.82,-0.86,10.19,0.05,-0.17,0.07,26.65
28087172,1717,1,200974,248497,0.43,-2.16,10.14,-0.07,-0.02,0.01,26.65
28127184,1707,1,200909,248358,0.83,-0.71,6.73,-0.01,-0.19,0.05,26.65
28167182,1710,1,201588,247659,0.21,-2.55,11.09,-0.19,0.03,0.10,26.65
28207172,1770,1,201174,246983,0.90,-0.01,6.58,-0.02,-0.19,0.11,26.65
28247182,1808,1,201832,248755,0.17,-1.55,11.34,-0.10,0.08,0.08,26.65
28287172,1925,1,201362,248468,0.69,-0.57,8.66,0.04,-0.06,-0.22,26.65
28327182,1882,1,201197,248739,1.13,-0.98,10.77,0.03,-0.06,-0.02,26.65
28367184,1895,1,200623,246629,1.00,-0.91,8.06,-0.01,-0.10,0.01,26.65
28407182,1922,1,200284,245227,1.11,-0.71,7.64,-0.09,-0.05,0.49,26.65
28447182,1858,1,200182,243236,0.53,-1.82,9.57,-0.08,0.04,0.22,26.65
28487172,1813,1,200074,244252,-0.08,-2.03,11.28,-0.01,0.09,0.11,26.65
28527182,1781,1,199525,244996,1.30,0.14,11.34,0.10,-0.07,-0.11,26.65
28567172,1759,1,199645,247003,-0.23,-1.85,8.68,-0.02,0.07,0.02,26.65
28607182,1887,1,199851,248086,0.57,-0.21,11.14,0.02,0.02,-0.13,26.65
28647172,1873,1,199582,247877,0.32,-0.37,11.60,0.03,0.04,0.01,26.65
28687151,1863,1,199770,248336,1.76,-0.59,10.29,0.08,-0.15,0.00,26.65
28727172,1917,1,200354,246879,1.06,-0.74,7.85,-0.12,-0.04,0.05,26.65
28767869,1979,1,201339,248520,0.35,-0.50,10.84,-0.10,0.03,0.19,26.65
28806172,2032,1,201304,248076,0.37,-1.07,9.12,-0.13,0.05,-0.35,26.65
28846183,2047,1,202011,250245,0.19,-0.98,12.85,-0.08,0.08,-0.02,26.65
28886181,2108,1,202475,249648,0.66,-0.25,10.67,-0.07,-0.01,0.00,26.65
28926182,2062,1,203979,250639,0.95,-0.11,11.93,0.01,-0.10,0.56,26.65
28966172,2102,1,204377,250283,0.98,-0.69,6.38,-0.10,-0.00,0.07,26.65
29006182,2075,1,204018,249881,0.72,-1.31,10.56,-0.12,0.04,-0.10,26.65
29046181,2063,1,201529,246964,0.93,-0.21,6.52,-0.04,-0.04,-0.66,26.65
29086203,2045,1,200866,248288,0.06,-0.53,10.75,-0.10,0.05,-0.10,26.65
29126181,2018,1,200628,247562,1.31,0.27,11.35,-0.01,0.01,-0.32,26.65
29166172,1814,1,199985,247666,1.86,-0.10,8.74,0.10,-0.25,-0.01,26.65
29206182,1707,1,200469,246565,0.34,-2.06,9.03,-0.20,0.12,0.03,26.65
29246172,1706,1,200086,245898,1.72,0.24,7.44,-0.03,-0.16,0.30,26.65
29286172,1394,1,200046,245629,2.43,1.36,11.85,-0.09,0.00,0.02,26.65
29326178,1258,1,199489,245140,0.03,-1.21,5.62,-0.09,0.11,0.03,26.65
29366172,1331,1,199790,244365,2.15,-0.44,9.07,-0.17,0.01,-0.01,26.65
29406184,1243,1,200559,244776,-1.03,-2.05,12.16,-0.14,0.08,0.27,26.65
29446182,1382,1,200416,244921,1.09,-0.67,8.30,0.02,0.03,0.28,26.65
29486151,1563,1,201571,246425,0.27,-1.42,13.11,-0.13,0.10,0.03,26.65
29526172,1472,1,200487,247078,0.93,-0.83,5.57,0.10,-0.13,0.01,26.65
29566172,1616,1,201930,248041,0.60,-1.22,11.18,-0.20,0.19,-0.06,26.65
29606182,1883,1,201196,249019,0.29,-1.23,7.55,0.03,-0.11,0.01,26.65
29646172,1889,1,201560,249531,1.75,-1.61,12.80,-0.15,0.08,-0.21,26.65
29686182,1889,1,200436,248424,-0.33,-1.36,8.11,-0.04,-0.01,-0.26,26.65
29726219,1829,1,200382,248856,1.07,-1.74,11.14,-0.02,-0.10,0.00,26.65
29766182,1789,1,199873,246834,1.18,-1.89,14.13,0.07,0.09,-0.43,26.65
29806859,1853,1,199048,247018,1.12,-1.04,8.09,0.11,-0.26,0.03,26.71
29845172,1791,1,199526,247268,1.19,-1.97,13.12,-0.20,0.13,-0.01,26.71
29885183,1927,1,199002,246077,-0.59,0.08,7.55,0.04,-0.12,-0.01,26.71
29925181,1891,1,199415,245747,1.83,0.83,13.12,-0.05,-0.02,0.01,26.71
29965172,1967,1,199385,246182,0.39,-0.90,9.88,-0.07,0.02,0.16,26.71
30005172,2021,1,199662,246823,1.83,-0.91,11.67,-0.01,-0.12,0.01,26.71
30045184,1983,1,199602,245748,0.13,-0.33,8.19,-0.06,0.00,-0.02,26.71
30085181,1973,1,199669,246380,1.67,-0.85,9.36,-0.04,-0.14,0.08,26.71
30125181,1917,1,200238,245578,0.56,-0.11,9.20,-0.05,0.01,0.05,26.71
30165171,1933,1,199855,246472,0.73,-1.17,8.77,-0.04,-0.02,0.04,26.71
30205181,1930,1,200159,246175,1.50,-0.87,10.54,-0.04,-0.02,-0.01,26.71
30245202,1922,1,199247,244670,0.52,-1.58,6.83,0.03,-0.12,0.04,26.71
30285172,1840,1,200359,245737,0.89,-1.79,10.60,-0.10,0.08,0.61,26.71
30325172,1841,1,200066,243692,1.34,-0.54,8.72,0.00,-0.09,0.02,26.71
30365172,1926,1,200040,246277,0.21,-2.00,11.29,0.05,0.05,0.02,26.71
30405151,1906,1,199545,245311,0.69,0.28,7.19,0.04,-0.03,-0.38,26.71
30445172,1871,1,199829,247144,0.06,-2.66,11.57,0.01,0.04,0.03,26.71
30485150,1778,1,199171,244635,0.99,-0.11,8.45,0.03,-0.02,-0.18,26.71
30525185,1803,1,198990,245906,-0.22,-2.09,12.10,0.03,0.02,0.05,26.71
30565171,1739,1,198618,244615,0.67,-1.70,9.63,0.02,0.07,-0.10,26.71
30605172,1739,1,198558,245775,0.51,-2.25,12.24,0.01,-0.01,-0.04,26.71
30645182,1671,1,198529,245683,0.23,-0.93,8.41,-0.03,0.04,-0.10,26.71
30685185,1746,1,198650,246023,0.37,-0.68,12.56,0.00,0.02,-0.04,26.71
30725172,1658,1,198523,246192,0.67,-1.06,9.66,-0.05,-0.05,-0.01,26.71
30765240,1655,1,198448,245687,0.46,-0.63,10.33,-0.05,0.01,-0.01,26.71
30805182,1535,1,198269,245200,0.40,-2.15,9.28,-0.07,0.00,0.02,26.71
30845859,1521,1,198024,244379,0.49,-0.01,10.75,-0.07,-0.03,-0.00,26.71
30884202,1486,1,198304,245352,-0.12,-2.06,10.91,-0.07,0.06,0.01,26.71
30924181,1530,1,198072,244660,1.12,-0.24,9.63,-0.05,-0.10,-0.02,26.71
30964208,1535,1,198675,245554,0.04,-2.16,9.59,-0.12,-0.01,0.06,26.71
31004181,1535,1,198545,244499,1.28,-0.52,8.38,-0.06,-0.09,-0.01,26.71
31044201,1566,1,198740,244219,0.75,-1.03,8.64,-0.12,-0.03,0.11,26.71
31084181,1579,1,198710,243527,0.97,-0.62,8.06,-0.08,-0.00,0.12,26.71
31124181,1617,1,198453,243262,0.63,-1.83,8.80,-0.08,0.03,0.02,26.71
31164172,1660,1,197995,242292,0.47,-1.01,7.29,-0.08,0.05,-0.02,26.71
31204181,1766,1,197708,242774,0.79,-1.45,10.05,-0.04,0.04,-0.03,26.71
31244181,1810,1,197674,242872,0.64,-0.66,8.66,-0.05,0.02,-0.07,26.71
31284181,1833,1,197791,242649,0.46,-1.35,10.22,-0.03,0.05,-0.00,26.71
31324181,1806,1,197869,243304,0.80,-1.22,10.22,-0.03,0.02,-0.00,26.71
31364181,1698,1,198255,245221,0.36,-2.16,9.97,-0.04,0.06,0.01,26.71
31404172,1645,1,198965,246967,0.73,-1.48,11.00,-0.00,0.02,-0.03,26.71
31444182,1637,1,199298,247792,0.46,-1.27,11.65,-0.01,0.00,-0.08,26.71
31484184,1637,1,199397,247440,0.02,-1.59,12.48,0.00,0.06,-0.08,26.71
31524172,1646,1,198945,246675,0.46,-1.65,11.72,-0.02,-0.07,-0.00,26.71
31564202,1520,1,198816,245828,-0.03,-1.39,9.91,-0.04,0.01,-0.00,26.71
31604199,1479,1,198687,245067,0.55,-1.22,10.33,-0.04,-0.05,0.03,26.71
31644181,1526,1,198627,244120,0.43,-1.05,9.26,-0.05,-0.06,0.00,26.71
31684182,1555,1,198394,244137,0.51,-0.49,9.60,-0.02,-0.03,0.01,26.71
31724181,1594,1,198682,245216,0.48,-1.41,9.61,-0.07,-0.05,-0.01,26.71
31764202,1670,1,198737,245865,0.78,-1.61,9.23,-0.06,-0.05,-0.01,26.71
31804202,1739,1,199234,246901,0.34,-1.63,9.06,-0.09,-0.12,-0.01,26.71
31844202,1750,1,199541,246919,0.49,-0.79,9.01,-0.06,-0.10,-0.00,26.71
31884889,1773,1,200331,245890,0.10,-1.75,11.82,-0.06,-0.03,0.28,26.67
31923181,1814,1,199755,244376,1.25,-0.75,8.32,-0.07,-0.09,0.08,26.67
31963181,1856,1,200020,245674,0.37,-2.21,11.26,-0.04,0.06,-0.01,26.67
32003181,1911,1,199412,245465,0.89,-1.26,8.45,-0.04,-0.02,-0.14,26.67
32043204,1915,1,199346,245290,0.39,-1.86,10.34,-0.02,-0.01,-0.01,26.67
32083202,1922,1,199624,246440,0.09,-1.01,11.87,0.05,0.04,0.00,26.67
32123149,1847,1,199222,245595,0.66,-1.70,11.99,0.03,-0.01,-0.06,26.67
32163181,1837,1,199209,247002,0.15,-3.02,12.65,0.08,-0.06,0.02,26.67
32203172,1793,1,198929,244705,-0.12,-2.16,8.63,0.04,-0.05,0.00,26.67
32243181,1856,1,198737,244613,0.10,-1.37,11.30,0.05,-0.07,0.08,26.67
32283172,1898,1,198287,243364,0.57,-1.03,7.50,-0.01,-0.05,0.06,26.67
32323181,1854,1,198749,243471,0.22,-0.74,11.30,-0.00,-0.02,0.06,26.67
32363181,1818,1,198559,242240,0.79,-0.69,6.53,-0.07,-0.07,0.29,26.67
32403221,1808,1,199673,242907,0.80,-1.39,11.00,-0.06,-0.01,0.66,26.67
32443181,1721,1,200392,243038,0.32,-1.78,6.46,-0.07,-0.04,0.29,26.67
32483181,1859,1,201315,244552,0.94,-0.76,9.51,-0.04,0.02,0.16,26.67
32523178,1846,1,202358,245630,0.80,-0.52,8.64,-0.06,0.01,0.00,26.67
32563169,1885,1,203270,248670,0.82,-0.51,11.17,-0.00,0.02,-0.01,26.67
32603215,1879,1,204239,249646,0.96,-3.20,10.18,-0.06,-0.06,-0.04,26.67
32643202,1911,1,204249,250657,1.52,-0.81,8.49,0.01,-0.11,-0.07,26.67
32683181,1823,1,205422,251459,-0.20,-2.99,11.07,-0.09,0.09,0.01,26.67
32723182,1844,1,204803,250230,1.60,-0.41,9.25,0.00,-0.09,-0.02,26.67
32763182,1712,1,205186,250854,0.61,-1.53,13.14,-0.07,0.10,0.02,26.67
32803172,1707,1,204037,249604,0.67,-0.41,9.60,0.01,0.01,-0.01,26.67
32843172,1683,1,203968,249757,0.33,-1.08,11.49,-0.06,0.08,-0.00,26.67
32883182,1751,1,203248,249467,0.61,-1.18,8.83,0.00,-0.02,0.01,26.67
32923859,1771,1,203898,249435,0.33,-1.62,9.49,-0.09,0.04,0.01,26.65
32962172,1739,1,203667,249415,0.55,-0.67,9.53,-0.03,-0.01,0.01,26.65
33002181,1724,1,203606,249427,0.82,-1.04,8.91,-0.07,-0.02,0.01,26.65
33042181,1732,1,204047,250232,0.20,-0.90,10.09,-0.07,0.07,-0.00,26.65
33082180,1793,1,203953,251014,0.84,-1.60,8.88,-0.08,-0.06,0.01,26.65
33122181,1840,1,204367,251729,0.44,-1.73,9.76,-0.07,0.02,0.00,26.65
33162172,1845,1,204456,252487,0.50,-1.48,8.80,-0.10,-0.05,0.00,26.65
33202181,1835,1,204530,252357,0.53,-1.24,10.71,-0.07,0.00,-0.10,26.65
33242181,1806,1,204453,252332,0.57,-1.35,10.67,-0.08,-0.02,-0.04,26.65
33282201,1793,1,204284,251632,0.61,-1.08,10.98,-0.02,0.01,-0.07,26.65
33322181,1755,1,203948,251484,0.58,-1.98,10.46,-0.08,-0.01,-0.01,26.65
33362201,1718,1,203454,251042,0.84,-1.56,10.65,-0.02,-0.03,-0.12,26.65
33402204,1680,1,202895,250068,0.34,-1.50,9.35,-0.07,-0.03,-0.06,26.65
33442201,1648,1,202289,249184,0.68,-1.09,10.54,-0.01,-0.05,-0.04,26.65
33482202,1607,1,201768,247431,0.59,-0.67,9.61,-0.05,-0.03,0.00,26.65
33522181,1587,1,201465,247430,0.42,-1.30,10.78,0.00,0.00,0.01,26.65
33562150,1585,1,201105,247134,0.69,-1.24,9.48,-0.02,-0.01,0.01,26.65
33602181,1535,1,200865,247607,0.39,-1.94,9.80,-0.01,-0.01,0.01,26.65
33642182,1535,1,200726,247988,0.48,-1.42,8.71,-0.03,-0.03,-0.00,26.65
33682202,1517,1,200786,248445,0.45,-1.44,9.76,-0.03,-0.06,0.01,26.65
33722181,1493,1,200857,248849,0.83,-1.25,10.74,0.01,-0.03,0.01,26.65
33762172,1501,1,200808,248954,0.33,-1.13,9.48,-0.02,-0.02,0.01,26.65
33802181,1527,1,201127,249632,0.31,-1.52,10.55,0.01,0.01,0.00,26.65
33842150,1600,1,201101,250008,0.75,-1.09,11.04,0.00,-0.05,-0.07,26.65
33882181,1646,1,201199,250019,0.36,-1.50,10.66,0.01,-0.01,-0.04,26.65
33922181,1692,1,201259,249941,0.53,-0.87,9.27,-0.04,-0.08,-0.00,26.65
33962888,1728,1,201316,249610,0.68,-0.66,11.43,0.00,-0.05,-0.00,26.73
34001180,1754,1,201374,249540,0.78,-0.43,9.97,-0.05,-0.05,-0.00,26.73
34041217,1828,1,201700,249489,0.52,-0.84,11.20,-0.02,-0.04,0.00,26.73
34081181,1892,1,201676,248746,0.91,-0.91,8.84,-0.08,-0.06,0.00,26.73
34121181,1901,1,201926,247728,0.55,-2.16,10.39,-0.06,-0.01,0.13,26.73
34161180,1952,1,201754,246686,1.15,-0.83,8.36,-0.06,-0.06,0.00,26.73
34201181,1959,1,202214,247268,0.51,-1.34,9.57,-0.08,-0.02,0.21,26.73
34241216,1955,1,202339,246380,0.96,-0.20,9.03,-0.04,0.01,-0.00,26.73
34281180,1899,1,202398,246096,0.48,-1.01,10.21,-0.06,0.03,0.00,26.73
34321172,1904,1,201877,245392,1.12,-0.43,9.34,0.03,-0.03,0.00,26.73
34361172,1907,1,202353,246741,0.24,-2.21,9.52,-0.06,0.04,0.05,26.73
34401172,1955,1,202114,246764,1.06,-1.09,8.50,0.01,-0.03,0.01,26.73
34441172,1927,1,202491,247652,0.72,-1.63,9.34,-0.06,0.03,0.01,26.73
34481172,1941,1,202294,248033,0.93,-0.51,8.86,-0.01,-0.03,0.01,26.73
34521184,1891,1,202759,248492,0.54,-1.25,10.61,-0.05,0.08,0.01,26.73
34561172,1873,1,202419,248510,0.67,-0.34,9.67,-0.00,-0.01,0.02,26.73
34601181,1833,1,202594,248755,0.64,-1.88,11.37,-0.02,0.02,0.10,26.73
34641172,1838,1,202549,249790,0.65,-1.01,9.66,-0.04,0.01,0.07,26.73
34681172,1850,1,202394,249427,0.43,-1.87,10.50,-0.03,0.06,-0.01,26.73
34721181,1842,1,202358,250274,0.51,-1.25,10.66,-0.06,0.00,0.00,26.73
34761172,1836,1,202223,249924,0.37,-0.81,11.41,-0.03,-0.01,-0.06,26.73
34801202,1818,1,202277,250040,0.51,-0.89,11.60,-0.03,-0.01,0.00,26.73
34841181,1803,1,202518,248805,0.38,-1.20,10.84,-0.06,-0.02,0.00,26.73
34881181,1791,1,202276,249205,0.55,-1.42,12.13,-0.04,-0.05,0.01,26.73
34921181,1727,1,202530,248502,0.51,-1.95,9.96,-0.09,-0.07,0.01,26.73
34961182,1718,1,202986,249298,0.77,-1.44,10.86,-0.03,-0.13,0.03,26.73
35001869,1613,1,203883,248630,0.32,-2.38,8.94,-0.11,-0.04,0.12,26.61
35040180,1635,1,203697,246638,0.78,-0.41,9.41,-0.07,-0.10,0.18,26.61
35080183,1712,1,203845,245935,0.48,-1.75,9.53,-0.10,-0.02,0.17,26.61
35120180,1763,1,203729,246069,0.80,-1.19,8.20,-0.05,-0.06,0.12,26.61
35160183,1823,1,204604,248426,0.41,-1.83,9.15,-0.06,0.04,-0.02,26.61
35200180,1847,1,204821,249806,0.91,-1.13,8.84,-0.01,0.00,-0.08,26.61
35240181,1851,1,204802,250049,0.77,-1.77,8.54,-0.02,-0.03,-0.07,26.61
35281202,1847,1,204871,250289,0.60,-1.62,8.80,-0.00,-0.02,0.02,26.61
35321181,1797,1,204793,250796,0.86,-1.25,9.51,-0.01,-0.04,0.01,26.61
35361182,1677,1,204233,250210,0.56,-1.46,9.18,0.02,0.03,0.01,26.61
35401151,1587,1,203495,249826,0.90,-1.41,10.36,-0.01,0.05,-0.01,26.61
35441182,1571,1,202747,249234,0.49,-1.68,10.34,0.05,0.02,-0.21,26.61
35481172,1535,1,202285,249508,0.74,-1.45,10.46,0.03,0.02,-0.02,26.61
35521178,1535,1,201920,248600,0.43,-1.99,10.00,0.03,-0.01,-0.08,26.61
35561182,1491,1,201472,248341,0.51,-1.54,10.95,0.04,-0.01,0.00,26.61
35601172,1557,1,200810,245293,0.21,-1.51,8.87,-0.03,-0.01,-0.00,26.61
35641202,1583,1,200193,245335,0.67,-0.46,11.04,0.01,-0.04,0.00,26.61
35681172,1648,1,200786,246106,0.23,-1.39,10.55,-0.05,0.05,0.00,26.61
35721172,1684,1,200970,247222,0.76,-0.37,10.70,-0.02,-0.07,0.00,26.61
35761179,1711,1,201586,247005,0.29,-1.24,10.25,-0.06,-0.01,0.01,26.61
35801182,1729,1,202131,248837,0.86,-0.81,10.28,-0.05,-0.07,0.34,26.61
35841182,1712,1,202607,248316,0.66,-1.53,8.94,-0.10,-0.05,0.01,26.61
35881185,1779,1,203236,249690,0.80,-0.97,10.05,-0.09,-0.03,0.33,26.61
35921182,1790,1,203916,249591,1.00,-0.89,8.76,-0.11,-0.04,-0.00,26.61
35961202,1907,1,204431,250505,0.44,-1.18,9.96,-0.05,-0.03,0.00,26.61
36001868,1965,1,204557,250039,1.02,-0.37,9.46,-0.05,0.01,-0.02,26.65
36040181,1984,1,204280,248716,0.35,-1.69,9.00,-0.09,0.01,-0.00,26.65
36080179,1966,1,204379,248926,0.94,-1.54,10.65,-0.05,-0.01,0.00,26.65
36120181,1941,1,203713,246775,0.74,-1.48,8.60,-0.04,-0.05,0.00,26.65
36160179,1901,1,203822,248982,0.45,-2.74,10.27,-0.01,0.05,0.23,26.65
36200172,1919,1,203568,248205,0.31,-1.99,8.27,-0.01,0.04,-0.12,26.65
36240181,1863,1,203510,249822,0.95,-0.68,10.48,-0.00,-0.02,-0.00,26.65
36280202,1841,1,203294,249154,0.19,-1.58,8.77,-0.01,0.07,0.00,26.65
36319171,1759,1,203244,249342,1.04,-1.03,10.12,-0.02,0.00,0.00,26.65
36359172,1768,1,202456,247204,0.53,-1.52,9.35,-0.03,0.03,-0.01,26.65
36399181,1715,1,202208,249320,0.36,-1.55,9.56,0.00,0.00,0.01,26.65
36439149,1703,1,202986,250283,0.75,-2.15,10.62,-0.04,0.03,-0.09,26.65
36479180,1671,1,202716,250820,0.05,-1.67,11.49,0.03,0.02,-0.06,26.65
36519171,1678,1,202472,250911,1.00,-0.99,9.69,-0.04,-0.00,-0.30,26.65
36559201,1689,1,202229,250886,0.12,-1.86,12.59,-0.02,-0.02,-0.06,26.65
36599204,1728,1,201884,250314,0.38,-0.46,10.97,-0.02,-0.03,-0.18,26.65
36639202,1712,1,201753,250244,0.15,-1.24,11.30,-0.06,-0.03,0.00,26.65
36679181,1751,1,201561,248721,0.35,-1.09,10.19,-0.04,-0.03,-0.00,26.65
36719201,1760,1,201401,248702,0.48,-1.69,11.07,-0.04,-0.05,0.09,26.65
36759181,1712,1,201306,246929,0.83,-1.37,8.51,-0.06,-0.07,0.00,26.65
36799181,1728,1,200770,245964,0.68,-0.91,8.36,-0.04,-0.07,0.20,26.65
36839181,1710,1,201137,245855,1.33,-1.38,8.08,-0.08,-0.04,0.13,26.65
36879181,1760,1,201391,246383,0.79,-0.93,7.64,-0.06,-0.06,0.01,26.65
36919181,1783,1,201999,248118,0.85,-1.41,8.61,-0.05,0.03,0.00,26.65
36959172,1827,1,202262,249524,0.74,-1.26,10.04,-0.04,0.01,-0.03,26.65
36999181,1808,1,202323,250151,0.66,-1.57,9.51,-0.02,-0.01,-0.06,26.65
37039888,1783,1,201985,249257,0.18,-1.62,10.23,0.01,0.04,-0.01,26.71
37080172,1739,1,201290,248633,1.21,-1.25,10.18,-0.01,0.01,-0.02,26.71
37120182,1677,1,200890,248243,0.70,-1.98,10.14,0.00,0.02,-0.08,26.71
37160172,1671,1,200434,247894,0.74,-0.98,9.24,0.02,0.01,-0.06,26.71
37200170,1696,1,200439,248271,0.80,-1.65,10.38,-0.01,-0.02,-0.03,26.71
37238204,1696,1,200308,247927,0.32,-0.69,9.57,0.00,-0.01,-0.07,26.71
37278181,1673,1,200309,247968,0.40,-1.00,11.29,0.00,-0.01,0.02,26.71
37319207,1658,1,200537,248070,0.47,-0.58,10.50,-0.02,-0.05,0.00,26.71
37359179,1650,1,200886,248725,-0.09,-1.56,11.39,-0.01,-0.03,0.05,26.71
37399202,1684,1,201305,249106,0.43,-1.08,9.66,-0.03,-0.03,0.00,26.71
37439181,1793,1,201626,249732,0.66,-1.38,11.21,-0.06,-0.04,0.00,26.71
37479181,1667,1,201559,249236,0.45,-1.68,9.76,-0.05,-0.04,0.00,26.71
37519184,1761,1,201720,249218,0.62,-1.19,10.13,-0.07,-0.05,0.00,26.71
37559181,1776,1,201764,248451,0.86,-0.81,9.26,-0.08,-0.09,-0.01,26.71
37599201,1795,1,201926,248089,0.52,-1.31,9.47,-0.06,-0.03,0.00,26.71
37639181,1821,1,201624,247054,1.18,-0.79,8.36,-0.05,-0.04,-0.01,26.71
37679202,1858,1,201719,247703,0.56,-1.35,9.88,-0.07,0.00,0.06,26.71
37719172,1924,1,201832,248198,0.61,-1.59,8.87,-0.01,-0.02,-0.00,26.71
37759202,1987,1,201530,247489,0.82,-1.60,9.63,-0.01,0.01,-0.02,26.71
37799181,1863,1,201138,247318,0.71,-1.66,9.45,-0.03,-0.02,0.00,26.71
37839182,1870,1,200644,246797,0.74,-1.90,9.14,0.00,-0.03,0.01,26.71
37879172,1808,1,200260,246204,0.75,-1.51,9.27,-0.00,0.02,0.01,26.71
37919172,1766,1,199830,246023,0.81,-1.04,9.83,-0.02,0.03,0.00,26.71
37959172,1815,1,199862,246865,0.40,-1.26,9.71,0.01,0.03,0.00,26.71
37999151,1815,1,200117,247438,0.49,-0.74,10.46,0.03,0.02,-0.17,26.71
38039172,1776,1,200271,248018,0.51,-0.71,10.89,0.01,-0.00,0.00,26.71
38079858,1715,1,200288,247549,0.36,-1.04,10.86,0.01,-0.02,0.01,26.79
38118172,1694,1,199903,247389,0.63,-1.20,10.59,-0.01,-0.05,0.04,26.79
38158181,1681,1,199833,247436,0.81,-0.67,10.37,-0.01,-0.07,0.07,26.79
38198181,1664,1,200326,248866,0.74,-1.37,11.42,-0.02,-0.07,0.32,26.79
38238181,1757,1,200810,248590,0.84,-0.90,9.24,-0.04,-0.09,0.02,26.79
38278182,1709,1,201378,249368,0.62,-0.38,12.07,-0.06,-0.05,0.13,26.79
38318182,1806,1,201653,248276,0.58,-0.73,9.58,-0.04,-0.07,0.01,26.79
38358182,1802,1,202262,248648,0.69,-0.86,11.09,-0.05,-0.02,0.23,26.79
38398182,1858,1,202765,248182,0.95,-0.81,8.41,-0.06,-0.03,0.01,26.79
38438182,1872,1,203178,248938,0.70,-0.83,9.74,-0.03,-0.05,0.02,26.79
38478179,1959,1,202797,247296,0.57,-2.19,8.78,-0.03,0.01,-0.19,26.79
38518182,1951,1,201665,247635,1.92,-0.26,10.01,0.03,-0.04,-0.12,26.79
38558181,1879,1,201054,246605,1.59,-0.82,7.98,-0.01,-0.09,-0.04,26.79
38598202,1823,1,200924,247524,0.86,-1.43,9.17,-0.00,-0.04,0.05,26.79
38638182,1811,1,201178,246849,1.69,-0.58,9.23,-0.01,-0.02,0.00,26.79
38678182,1771,1,200930,247423,0.60,-0.63,9.43,-0.02,0.01,0.02,26.79
38718171,1747,1,201178,248196,0.87,-0.91,10.06,0.00,0.05,0.02,26.79
38758152,1763,1,201040,248289,1.07,-0.74,10.46,0.02,0.00,-0.07,26.79
38798172,1798,1,200926,248548,0.75,-0.66,10.11,-0.01,0.04,0.01,26.79
38838172,1815,1,200713,247933,0.58,-0.64,10.15,0.00,0.01,-0.03,26.79
38878172,1825,1,200697,248487,0.83,-0.81,10.90,-0.01,0.01,0.02,26.79
38918172,1875,1,200738,248918,1.16,-0.54,10.23,-0.03,-0.05,0.02,26.79
38958186,1957,1,201180,249477,0.28,-1.43,10.58,-0.04,0.02,0.02,26.79
38998172,2128,1,201104,248882,1.19,-0.43,10.51,-0.02,-0.06,-0.09,26.79
39038202,2114,1,201138,248713,0.64,-1.00,10.48,-0.08,-0.04,0.02,26.79
39078182,2097,1,200922,247341,0.55,-0.28,9.83,-0.06,-0.05,0.01,26.79
39118869,2039,1,200642,246275,0.99,-0.47,9.90,-0.08,-0.03,0.18,26.83
39157233,1990,1,200432,243689,1.11,-0.58,8.96,-0.06,-0.03,0.12,26.83
39197181,1969,1,199905,243694,0.75,-1.51,9.39,-0.10,0.01,0.02,26.83
39237172,1984,1,200009,244771,0.68,-1.02,8.92,-0.05,0.02,-0.06,26.83
39277181,1965,1,200249,246047,1.34,-1.27,10.23,-0.05,-0.02,-0.00,26.83
39317202,1874,1,200536,246527,0.79,-1.90,9.38,-0.05,0.00,0.01,26.83
39357171,1729,1,199854,246124,1.03,-1.08,9.25,-0.03,-0.03,0.01,26.83
39397181,1589,1,199974,245942,0.63,-1.25,9.32,-0.03,0.05,0.01,26.83
39437172,1487,1,199320,245958,1.30,-0.58,9.82,-0.01,-0.01,-0.00,26.83
39477202,1453,1,199454,245771,0.38,-1.72,9.63,-0.03,0.08,-0.17,26.83
39517182,1387,1,198988,245941,0.95,-0.24,9.49,0.04,-0.03,-0.00,26.83
39557182,1346,1,199540,245761,0.99,-1.29,10.50,-0.05,0.07,0.01,26.83
39597170,1427,1,198891,245333,0.60,-0.54,9.10,-0.01,-0.02,0.02,26.83
39637182,1487,1,199344,245698,0.82,-0.94,10.21,-0.05,0.03,0.01,26.83
39677172,1505,1,199606,247921,0.38,-1.06,11.12,-0.01,0.01,0.02,26.83
39717172,1535,1,200241,248809,0.72,-1.36,10.35,-0.04,-0.00,0.01,26.83
39757182,1598,1,200451,249385,0.40,-0.98,11.57,-0.03,-0.03,0.02,26.83
39797182,1565,1,200335,249417,0.68,-1.27,10.91,-0.02,-0.06,0.03,26.83
39837182,1584,1,200051,247625,0.52,-0.79,10.17,-0.04,-0.05,0.01,26.83
39877182,1593,1,199331,245741,1.15,-0.91,10.46,-0.07,-0.06,0.00,26.83
39917182,1623,1,198937,245099,0.72,-0.67,9.62,-0.05,-0.06,0.01,26.83
39957182,1678,1,199229,246356,0.84,-1.40,9.85,-0.04,-0.03,0.01,26.83
39997182,1715,1,199478,246960,1.09,-0.72,9.19,-0.04,-0.05,0.00,26.83
40037182,1743,1,199942,248287,0.59,-1.32,9.36,-0.06,-0.01,0.01,26.83
40077182,1747,1,199799,247418,0.32,-1.13,9.05,-0.02,-0.02,0.02,26.83
40117182,1700,1,199518,247598,1.19,-1.61,10.03,-0.01,-0.02,0.01,26.83
40157869,1738,1,199459,246696,1.09,-0.80,9.18,-0.02,-0.02,0.01,26.97
40196181,1725,1,199495,248051,0.71,-2.05,9.31,-0.03,0.02,0.02,26.97
40236172,1802,1,199579,247179,1.22,-1.05,9.21,-0.00,-0.05,-0.07,26.97
40276202,1825,1,199637,247915,0.91,-1.53,10.31,-0.02,0.02,0.02,26.97
40316172,1858,1,199287,246668,1.03,-0.34,8.89,-0.03,-0.02,0.00,26.97
40356181,1872,1,199130,246798,0.26,-1.15,10.20,-0.03,0.04,0.04,26.97
40396172,1858,1,199147,246848,0.92,-0.42,9.57,0.00,-0.01,0.01,26.97
40436172,1859,1,199710,248368,0.87,-0.84,11.44,-0.03,0.02,0.02,26.97
40476172,1913,1,199994,248734,0.74,-0.50,9.75,-0.03,-0.01,0.01,26.97
40516181,1898,1,200000,248332,0.09,-1.21,10.85,-0.04,0.02,0.01,26.97
40556172,1922,1,199761,247496,0.62,-0.83,10.86,-0.03,-0.02,0.01,26.97
40596215,1903,1,199317,247249,1.06,-1.41,10.16,-0.06,-0.07,0.03,26.97
40636182,1856,1,199621,246889,0.67,-1.16,9.60,-0.08,-0.02,0.01,26.97
40676182,1819,1,199600,247081,0.67,-1.54,9.26,-0.08,-0.05,0.02,26.97
40716182,1870,1,200084,247411,0.68,-1.49,10.18,-0.05,-0.01,0.01,26.97
40756182,1909,1,199843,247312,1.18,-0.93,9.87,-0.05,-0.06,0.01,26.97
40796186,1904,1,199923,246748,0.58,-1.20,9.12,-0.07,-0.02,0.01,26.97
40836182,1851,1,199442,246918,0.43,-1.00,9.52,-0.04,-0.02,0.01,26.97
40876179,1809,1,199721,247161,0.82,-1.08,9.16,-0.03,0.00,0.01,26.97
40916172,1776,1,199764,248264,0.90,-0.82,9.45,-0.02,0.02,0.01,26.97
40956171,1788,1,199879,248203,0.74,-1.22,9.86,-0.01,0.01,-0.15,26.97
40996182,1763,1,199738,248503,0.40,-1.23,9.71,-0.02,0.01,0.01,26.97
41036172,1714,1,199433,247005,0.78,-1.26,9.51,-0.01,0.00,0.01,26.97
41076172,1700,1,199090,247553,0.90,-1.28,10.55,-0.01,-0.01,0.02,26.97
41116182,1703,1,199157,246807,0.83,-0.96,9.01,-0.04,-0.00,0.01,26.97
41156182,1728,1,199356,248259,0.34,-1.58,10.36,-0.04,0.01,0.04,26.97
41196859,1781,1,199756,248326,0.53,-1.00,10.30,-0.00,-0.02,0.00,26.83
41235181,1728,1,199623,248211,0.67,-0.76,10.77,-0.00,-0.03,0.02,26.83
41275181,1825,1,199391,247223,0.89,-1.04,9.79,-0.04,-0.01,0.01,26.83
41315181,1730,1,199000,247051,0.73,-0.72,10.45,-0.04,-0.08,0.02,26.83
41355182,1680,1,199303,246879,0.60,-0.96,9.56,-0.03,0.01,0.01,26.83
41395172,1692,1,199089,246916,1.14,-0.85,10.46,-0.02,-0.05,0.02,26.83
41435181,1619,1,199389,246503,0.85,-1.48,9.55,-0.05,-0.00,0.01,26.83
41475181,1680,1,199075,246595,0.83,-0.59,10.56,-0.02,-0.05,0.01,26.83
41515182,1696,1,199565,247244,0.25,-1.59,9.35,-0.04,0.01,0.01,26.83
41555172,1670,1,199194,246277,0.78,-0.86,10.00,0.01,-0.06,0.02,26.83
41595171,1669,1,199130,246130,1.24,-1.23,10.08,-0.00,-0.02,0.01,26.83
41635182,1643,1,198941,246548,0.97,-0.90,9.82,-0.02,-0.03,0.01,26.83
41675182,1671,1,199564,247468,0.57,-1.79,9.10,-0.04,0.01,0.01,26.83
41715172,1683,1,199558,247745,0.88,-0.93,9.75,0.01,-0.03,0.02,26.83
41755171,1709,1,199705,247523,1.01,-0.92,10.21,0.01,0.01,0.01,26.83
41795150,1706,1,199204,246865,0.89,-0.87,9.38,-0.02,-0.03,0.01,26.83
41835182,1679,1,199351,246696,0.74,-0.71,9.67,-0.02,0.03,0.01,26.83
41875172,1709,1,199148,247041,0.51,-0.67,9.90,-0.01,-0.01,0.01,26.83
41915179,1705,1,199802,248337,0.68,-0.94,10.22,-0.01,0.01,0.02,26.83
41955172,1715,1,199928,248598,0.97,-0.42,10.55,-0.00,-0.02,0.01,26.83
41995182,1725,1,199910,248191,0.95,-0.95,11.26,-0.04,0.00,0.01,26.83
42035172,1744,1,199078,246354,0.68,-0.12,9.40,-0.03,-0.09,0.02,26.83
42075179,1680,1,199380,246241,0.17,-1.90,10.21,-0.09,0.02,0.08,26.83
42115172,1715,1,199264,246066,1.34,-0.34,9.52,-0.02,-0.09,0.02,26.83
42155182,1773,1,200105,246533,0.84,-1.46,10.73,-0.11,0.01,0.05,26.83
42195172,1899,1,199962,246999,1.01,-0.71,8.75,0.01,-0.06,0.02,26.83
42235859,1968,1,200699,247183,0.82,-1.63,9.23,-0.12,0.02,0.01,26.61
42274172,1949,1,200258,247136,0.87,-0.77,8.69,-0.01,-0.05,0.02,26.61
42314181,1969,1,200652,247167,1.12,-1.71,10.03,-0.08,0.01,0.01,26.61
42354172,1950,1,200412,247803,0.94,-0.48,8.61,-0.03,-0.06,0.02,26.61
42394181,1841,1,201218,248840,0.83,-1.27,9.96,-0.11,0.06,0.01,26.61
42434189,1856,1,201206,249393,0.67,-0.92,9.34,-0.03,0.01,0.01,26.61
42474172,1850,1,201056,248680,0.71,-1.13,9.63,-0.04,0.03,0.01,26.61
42514172,1781,1,200372,247759,1.04,-0.73,9.91,-0.01,-0.01,0.01,26.61
42554181,1727,1,200259,247818,1.02,-1.17,9.84,-0.05,0.03,0.01,26.61
42594172,1697,1,200271,248099,0.54,-0.78,9.73,-0.04,0.04,0.01,26.61
42634172,1767,1,200402,248704,0.39,-1.56,9.68,-0.05,0.02,0.02,26.61
42674172,1781,1,200320,248895,0.41,-0.78,10.41,-0.01,0.01,-0.02,26.61
42714182,1762,1,200393,248864,0.79,-1.49,11.50,-0.02,0.00,0.01,26.61
42754172,1712,1,199784,247227,0.73,-0.72,9.50,-0.04,-0.04,0.00,26.61
42794178,1694,1,199854,247710,0.49,-1.44,11.14,-0.07,0.01,0.01,26.61
42834172,1732,1,199694,247071,0.85,-1.03,9.94,-0.04,-0.06,0.01,26.61
42874182,1691,1,199936,247586,0.33,-1.79,10.02,-0.05,-0.00,0.02,26.61
42914181,1743,1,199970,247801,0.84,-1.07,9.78,-0.03,-0.07,0.02,26.61
42954182,1747,1,200134,247960,0.82,-1.56,10.56,-0.06,-0.02,-0.01,26.61
42994202,1785,1,199811,247432,0.84,-0.84,9.36,-0.05,-0.02,-0.01,26.61
43034202,1789,1,199913,248095,0.76,-1.26,10.42,-0.08,0.01,0.01,26.61
43074172,1775,1,199931,248398,0.42,-0.92,9.59,-0.05,-0.00,-0.04,26.61
43114199,1794,1,199837,248480,0.83,-1.19,10.25,-0.04,-0.04,-0.06,26.61
43154202,1815,1,199771,248555,0.66,-1.04,9.61,-0.03,-0.01,-0.06,26.61
43194202,1728,1,199636,248136,0.90,-1.09,10.24,-0.04,-0.02,-0.04,26.61
43234202,1707,1,199382,247509,0.66,-0.82,9.89,-0.03,0.01,-0.02,26.61
43274869,1712,1,199152,247189,0.55,-1.27,9.15,-0.04,-0.00,0.01,26.65
43313181,1671,1,199310,247583,0.27,-1.24,9.54,-0.03,-0.01,0.01,26.65
43353181,1680,1,199383,247796,0.73,-1.37,10.13,-0.01,-0.02,-0.01,26.65
43393202,1680,1,199443,247903,0.69,-1.20,10.18,-0.01,-0.01,-0.01,26.65
43433201,1648,1,199355,247725,0.73,-1.49,9.74,-0.02,-0.02,0.01,26.65
43473181,1637,1,199241,246991,0.66,-1.32,10.01,-0.04,-0.02,0.01,26.65
43513181,1658,1,198931,246400,0.89,-1.29,9.69,-0.05,-0.04,0.01,26.65
43553181,1691,1,198863,246552,0.55,-1.63,10.00,-0.03,-0.03,0.02,26.65
43593181,1731,1,198860,246417,0.78,-1.55,9.96,-0.02,-0.04,0.01,26.65
43633181,1737,1,198574,245624,0.94,-1.24,9.49,-0.01,-0.06,0.01,26.65
43673181,1739,1,198506,245281,1.24,-0.86,9.91,-0.02,-0.02,0.01,26.65
43713181,1727,1,198249,244734,0.93,-1.14,9.06,-0.05,-0.03,0.04,26.65
43753182,1740,1,198277,244499,0.49,-0.79,8.27,-0.05,-0.00,0.03,26.65
43793181,1711,1,198647,245778,0.43,-1.11,9.89,-0.04,-0.00,0.07,26.65
43833182,1717,1,199055,245917,0.67,-0.75,9.15,-0.01,-0.01,0.01,26.65
43873185,1719,1,199259,247149,0.94,-1.07,10.09,-0.00,-0.01,0.01,26.65
43913179,1786,1,199652,247103,0.85,-0.65,9.57,-0.01,0.01,0.00,26.65
43953172,1776,1,199652,248154,0.91,-0.94,10.63,-0.02,0.02,0.01,26.65
43993172,1771,1,199946,248381,0.78,-0.69,9.43,-0.04,0.02,-0.00,26.65
44033181,1815,1,200044,248859,0.21,-1.44,10.67,-0.03,0.03,0.01,26.65
44073181,1841,1,199836,248497,0.84,-0.52,10.39,0.01,-0.04,-0.06,26.65
44113182,1863,1,199667,248557,0.09,-1.30,10.96,0.00,0.01,0.01,26.65
44153151,1869,1,199498,247920,0.80,-1.11,9.93,0.00,-0.06,0.01,26.65
44193172,1847,1,199406,247743,0.68,-1.31,10.60,-0.02,-0.04,0.01,26.65
44233182,1839,1,199281,246885,1.09,-0.98,10.03,-0.03,-0.06,0.01,26.65
44273182,1859,1,199212,246754,0.49,-1.69,9.93,-0.07,-0.05,0.02,26.65
44313868,1856,1,199226,246437,0.53,-1.33,9.26,-0.05,-0.05,0.01,26.71
44352182,1815,1,199523,247701,0.38,-1.28,10.80,-0.02,-0.04,0.02,26.71
44392181,1847,1,199402,245500,0.62,-1.34,8.82,-0.03,-0.07,0.01,26.71
44432181,1863,1,199555,246762,0.24,-1.47,11.83,0.01,0.07,0.46,26.71
44472150,1611,1,200463,248566,0.79,-1.45,11.07,0.00,-0.03,0.01,26.71
44512172,1429,1,200361,248416,0.34,-1.76,12.40,0.03,-0.03,-0.00,26.71
44552181,1397,1,199520,246623,1.34,-0.93,5.34,-0.01,-0.22,-0.01,26.71
44592205,1344,1,200011,245593,-0.25,-2.72,9.67,-0.12,0.05,0.18,26.71
44632181,1421,1,198416,241379,1.09,0.40,5.84,0.03,-0.16,0.05,26.71
44672150,1305,1,198982,244968,0.33,-1.72,11.26,-0.09,0.12,0.11,26.71
44712172,1456,1,199041,246879,1.28,-0.44,8.29,0.08,-0.03,-0.51,26.71
44752182,1739,1,199532,248282,1.27,-0.90,11.94,0.04,0.05,-0.57,26.71
44792172,1847,1,198976,247371,0.08,-0.03,8.22,-0.01,-0.01,-0.15,26.71
44832201,1769,1,198617,246199,0.33,-1.53,11.51,-0.04,0.03,0.03,26.71
44872172,1762,1,198095,244122,1.25,-2.19,9.58,-0.05,-0.12,0.02,26.71
44912182,1780,1,198232,246007,0.99,-1.38,9.86,-0.03,-0.05,0.16,26.71
44952182,1849,1,199324,244235,0.28,-3.07,10.73,-0.05,0.04,-0.02,26.71
44992182,1917,1,197525,240882,0.85,0.91,9.54,0.18,-0.21,0.20,26.71
45032151,1734,1,198456,240601,-0.39,-2.52,10.53,-0.08,0.11,0.21,26.71
45072182,1613,1,197204,239038,0.59,-0.40,5.86,0.05,-0.09,0.40,26.71
45112172,1173,1,198530,240653,0.89,-2.09,10.59,-0.18,0.10,0.09,26.71
45152172,1241,1,197627,239869,0.66,-0.03,5.38,0.01,-0.15,0.03,26.71
45192172,1200,1,199712,243778,1.06,-1.62,11.24,-0.15,0.09,0.05,26.71
45232172,1289,1,200054,244194,0.58,-0.28,9.00,0.05,-0.07,0.00,26.71
45272172,1301,1,200516,246300,1.40,-1.75,11.16,-0.00,-0.03,0.02,26.71
45312185,1408,1,201283,246696,0.31,-0.79,10.09,-0.03,0.03,0.01,26.71
45352859,1459,1,201203,247878,1.26,-1.35,12.29,-0.01,-0.02,0.01,26.65
45391184,1535,1,202192,248783,0.60,-0.05,12.13,-0.04,0.07,0.00,26.65
45431172,1682,1,202400,250113,0.93,-0.98,10.74,-0.04,-0.06,0.01,26.65
45471184,1733,1,203648,250263,0.52,-0.36,11.98,-0.09,0.07,-0.00,26.65
45511219,1843,1,203407,250798,0.91,-0.82,9.46,-0.02,-0.16,0.02,26.65
45551184,1887,1,204314,250054,0.34,-0.89,10.67,-0.19,0.08,0.02,26.65
45591172,2034,1,203923,249683,0.56,0.56,8.76,-0.05,-0.12,0.34,26.65
45631172,1989,1,204785,248634,0.77,-1.23,11.04,-0.18,-0.01,0.13,26.65
45671181,2000,1,203752,245549,0.55,-0.26,8.46,-0.06,-0.08,0.18,26.65
45711184,2122,1,203846,245461,1.14,-1.17,9.85,-0.14,0.02,-0.03,26.65
45751181,2245,1,203979,246181,0.69,-0.91,8.97,-0.10,-0.02,-0.04,26.65
45791205,2206,1,204362,245763,1.19,-0.85,9.70,-0.10,-0.01,-0.04,26.65
45831202,2176,1,204054,246096,1.01,-1.45,8.60,-0.09,0.02,-0.00,26.65
45871182,2161,1,204230,246946,1.33,-1.62,8.08,-0.10,-0.00,-0.01,26.65
45911202,2143,1,205115,249832,0.79,-1.57,9.20,-0.09,0.09,-0.05,26.65
45951182,2126,1,205296,250893,0.42,-2.06,9.11,-0.07,0.07,0.01,26.65
45991172,2063,1,204941,251045,0.57,-1.03,10.26,-0.00,0.02,-0.07,26.65
46031182,1895,1,204482,251038,-0.11,-2.53,9.14,-0.00,0.07,0.02,26.65
46071182,1883,1,203481,249051,0.89,-0.95,9.27,0.01,0.00,-0.00,26.65
46111172,1760,1,202910,249007,-0.06,-1.89,10.61,0.01,0.11,0.01,26.65
46151172,1804,1,202379,248960,0.93,-1.53,9.90,0.03,0.02,-0.15,26.65
46191172,1744,1,202065,249715,0.45,-1.75,10.46,0.02,0.04,-0.20,26.65
46231172,1618,1,202048,250168,0.33,-1.35,9.97,0.00,-0.01,-0.09,26.65
46271182,1519,1,201993,250827,0.23,-2.10,11.55,-0.02,-0.02,0.02,26.65
46311182,1484,1,201866,250634,0.23,-1.36,10.13,-0.01,-0.04,-0.02,26.65
46350205,1493,1,201684,250481,0.31,-2.13,11.51,-0.02,-0.08,0.02,26.65
46390869,1506,1,201356,249591,0.61,-0.95,10.81,-0.04,-0.06,-0.19,26.65
46431206,1518,1,201220,250048,-0.31,-1.90,12.74,-0.02,-0.07,0.01,26.65
46471203,1594,1,201051,247698,0.00,-0.90,9.69,-0.04,-0.08,-0.04,26.65
46511202,1603,1,200670,248259,0.33,-1.19,11.91,0.01,-0.11,0.03,26.65
46551172,1654,1,200471,245771,1.20,-0.47,7.77,-0.04,-0.10,-0.01,26.65
46591203,1679,1,200430,247870,0.50,-1.67,9.95,-0.01,-0.07,0.01,26.65
46631183,1776,1,200971,247710,1.05,-1.26,7.81,-0.06,-0.01,-0.03,26.65
46671204,1882,1,201441,248608,0.93,-1.05,10.37,-0.01,-0.08,0.00,26.65
46711183,1904,1,201340,248587,1.10,-0.77,8.09,0.00,-0.08,0.00,26.65
46751172,1884,1,201255,248749,1.38,-0.86,9.43,0.00,-0.06,0.00,26.65
46791172,1911,1,201165,249063,1.06,-1.64,7.74,-0.03,-0.02,0.00,26.65
46831182,1934,1,200951,248193,1.07,-0.30,9.40,0.00,-0.03,0.00,26.65
46871171,1887,1,200998,249506,0.51,-1.88,9.04,-0.02,0.02,0.02,26.65
46911172,1882,1,200782,248793,0.81,-0.83,9.12,0.02,-0.02,0.00,26.65
46951171,1818,1,200653,249577,0.65,-1.71,10.70,0.02,0.00,0.01,26.65
46989151,1819,1,200267,247964,0.80,0.37,9.08,0.03,-0.02,-0.19,26.65
47029172,1682,1,200208,248637,0.78,-0.93,12.26,0.03,0.00,0.02,26.65
47069151,1680,1,199959,247601,1.13,0.14,9.73,0.01,-0.02,-0.09,26.65
47109172,1683,1,200155,248652,1.07,-0.71,11.86,0.01,-0.01,0.00,26.65
47149172,1700,1,199844,247097,1.06,-0.26,10.21,-0.01,-0.03,-0.02,26.65
47189202,1670,1,199369,246274,1.04,-0.78,10.44,-0.03,-0.05,0.01,26.65
47229183,1651,1,199410,245710,0.86,-0.50,9.63,-0.05,0.01,-0.01,26.65
47269181,1647,1,199146,245014,1.10,-0.53,9.42,-0.05,-0.06,-0.01,26.65
47309205,1734,1,199464,246011,0.91,-0.92,9.84,-0.07,-0.02,0.06,26.65
47349183,1821,1,199663,245839,0.88,-0.60,9.15,-0.06,-0.03,-0.00,26.65
47389205,1904,1,200039,246280,0.59,-0.96,8.63,-0.08,0.01,0.00,26.65
47429860,1888,1,200299,246151,0.41,-0.87,9.13,-0.04,-0.01,0.01,26.65
47470183,1829,1,200412,246087,0.73,-0.90,9.66,-0.04,0.01,0.08,26.65
47510172,1824,1,200455,246790,0.67,-0.81,8.84,0.00,0.02,0.11,26.65
47550160,1853,1,200668,247172,0.97,-1.52,8.44,-0.05,0.01,0.00,26.65
47590172,1853,1,200817,247555,-0.06,-1.49,9.59,-0.05,0.08,0.01,26.65
47630182,1843,1,200559,246908,0.53,-0.82,10.41,0.01,0.00,0.01,26.65
47670151,1762,1,200563,247794,0.47,-1.32,11.34,0.02,0.02,0.01,26.65
47710151,1718,1,200096,246712,0.89,-0.92,9.89,0.03,-0.02,0.00,26.65
47750171,1731,1,200250,247830,0.68,-1.64,10.59,-0.02,0.01,0.01,26.65
47790172,1719,1,200324,248052,0.86,-1.12,10.93,-0.00,-0.01,-0.00,26.65
47830203,1712,1,200232,247891,0.67,-1.31,10.59,-0.02,-0.02,0.01,26.65
47870183,1680,1,200050,247339,0.64,-1.35,10.51,-0.03,0.00,0.00,26.65
47910172,1661,1,199638,246370,1.12,-0.73,10.42,-0.05,-0.05,0.00,26.65
47950182,1653,1,199391,245928,0.86,-1.55,9.29,-0.05,-0.02,-0.00,26.65
47990203,1665,1,199745,247185,0.92,-0.76,10.46,-0.06,-0.00,0.00,26.65
48030182,1712,1,199985,247041,0.80,-1.15,8.87,-0.06,-0.00,0.00,26.65
48070183,1731,1,200180,247887,0.52,-1.30,10.56,-0.07,0.02,0.00,26.65
48110172,1742,1,200010,246474,0.90,-1.20,9.26,-0.05,-0.02,-0.00,26.65
48148201,1740,1,199456,245659,0.74,-1.58,9.43,-0.04,-0.04,0.01,26.65
48188184,1711,1,199810,247524,0.50,-1.55,9.61,-0.03,0.02,0.01,26.65
48228172,1771,1,200270,247086,0.46,-1.38,10.01,-0.03,0.01,-0.01,26.65
48268184,1798,1,200428,248771,0.07,-1.93,11.34,0.04,0.01,0.02,26.65
48308150,1728,1,200101,246999,0.38,-1.03,8.77,0.04,-0.06,-0.03,26.65
48348184,1622,1,199705,247317,0.07,-2.41,10.34,0.03,-0.02,0.07,26.65
48388172,1617,1,198967,244941,0.49,-1.27,8.23,0.04,-0.06,0.00,26.65
48428172,1626,1,199408,247161,-0.05,-1.21,12.18,0.01,0.04,0.01,26.65
48468860,1651,1,199180,247380,0.68,-1.14,8.27,0.03,-0.07,-0.04,26.73
48509184,1625,1,199649,246905,0.64,-0.71,11.25,-0.02,-0.01,0.00,26.73
48549182,1621,1,198354,243708,0.99,-0.73,8.07,0.01,-0.12,0.06,26.73
48589172,1587,1,198140,241829,0.83,-0.12,9.66,-0.10,0.01,0.15,26.73
48629172,1641,1,197792,240991,0.78,-1.38,8.42,-0.03,0.01,0.32,26.73
48669172,1684,1,198148,241482,1.70,0.19,8.05,-0.07,-0.01,-0.07,26.73
48709180,1811,1,199340,244645,0.40,-1.96,10.61,-0.04,0.11,-0.02,26.73
48749182,1932,1,198604,244091,2.06,0.48,7.29,0.06,-0.12,-0.29,26.73
48789178,1901,1,199560,244675,0.73,-1.47,10.89,-0.11,0.12,-0.01,26.73
48829183,1875,1,198806,244268,1.20,0.00,8.28,0.04,-0.11,0.02,26.73
48869151,1831,1,199964,245800,1.32,-1.14,12.09,-0.14,0.14,-0.00,26.73
48909185,1872,1,199816,247326,0.88,-1.43,9.43,0.04,-0.05,0.00,26.73
48949172,1888,1,200278,246028,0.95,-1.77,10.94,-0.07,0.05,-0.23,26.73
48989232,1843,1,199320,246419,0.15,-1.18,11.10,0.03,-0.01,0.01,26.73
49029172,1813,1,199319,243448,1.27,-0.86,10.98,-0.06,0.04,-0.04,26.73
49069182,1752,1,198039,244671,-0.12,-1.07,10.56,0.04,-0.03,0.01,26.73
49109182,1777,1,199518,245996,1.34,-1.29,11.23,-0.08,0.06,-0.13,26.73
49149183,1841,1,199666,246792,0.56,-0.30,11.13,0.00,-0.09,-0.04,26.73
49189212,1761,1,199405,245434,1.29,-1.34,9.65,-0.08,-0.04,-0.01,26.73
49229203,1763,1,199627,245758,0.48,-0.68,11.11,-0.07,-0.04,-0.00,26.73
49269203,1745,1,199328,246830,1.42,-0.61,9.85,-0.05,-0.09,-0.01,26.73
49307204,1737,1,200023,247962,1.25,0.29,10.16,-0.10,-0.01,-0.11,26.73
49347183,1787,1,200168,247865,1.05,-0.15,9.65,-0.14,-0.03,-0.21,26.73
49387204,1782,1,200019,246423,1.21,-0.43,10.87,-0.12,-0.07,-0.02,26.73
49428202,1730,1,200462,245403,1.03,-1.47,11.22,-0.09,-0.02,0.26,26.73
49468869,1761,1,199377,240693,1.13,0.11,5.77,-0.10,-0.06,0.18,26.67
49507172,1782,1,199156,241093,1.32,-2.21,10.09,-0.16,0.05,0.61,26.67
49547172,1816,1,198290,240179,1.30,-1.78,5.94,-0.02,-0.06,-0.43,26.67
49587201,1933,1,199109,244235,0.82,-1.94,9.36,-0.07,0.15,-0.30,26.67
49627183,1928,1,199220,246371,1.72,-0.35,7.48,-0.02,-0.01,-0.64,26.67
49667202,1788,1,199734,247380,1.03,-1.52,10.90,-0.03,0.02,-0.14,26.67
49707183,1667,1,199208,246017,0.56,-1.31,8.34,-0.02,-0.07,-0.06,26.67
49747202,1514,1,198689,245735,1.38,-1.73,10.42,0.00,-0.02,0.00,26.67
49787172,1433,1,198195,243805,0.70,-0.97,9.66,-0.02,0.06,-0.00,26.67
49827181,1441,1,197757,243817,1.23,-1.69,10.86,-0.04,0.02,-0.01,26.67
49867183,1523,1,197890,243373,0.38,-0.68,10.56,-0.01,0.07,-0.02,26.67
49907181,1653,1,197273,242538,0.41,-0.88,9.79,-0.01,-0.01,0.02,26.67
49947183,1611,1,197440,241783,0.46,-0.85,10.04,-0.02,-0.01,-0.00,26.67
49987202,1648,1,197622,242662,0.94,-1.20,10.53,-0.03,-0.04,0.25,26.67
50027183,1677,1,198324,242269,0.60,-0.77,8.72,-0.03,-0.03,0.00,26.67
50067181,1793,1,198387,242500,0.56,-1.15,10.19,-0.04,-0.03,0.15,26.67
50107184,1843,1,198900,243975,0.47,-1.40,9.98,-0.01,-0.02,0.04,26.67
50147181,1924,1,198777,244127,0.60,-0.54,9.45,-0.02,-0.03,-0.00,26.67
50187203,1879,1,199684,246839,0.62,-1.62,10.16,-0.03,-0.04,-0.00,26.67
50227202,1855,1,200370,247653,0.48,-0.53,10.31,0.01,-0.03,-0.00,26.67
50267182,1787,1,201131,249154,0.37,-1.91,11.35,-0.03,-0.00,0.00,26.67
50307181,1772,1,200944,248381,0.32,-0.48,10.55,0.02,-0.03,-0.00,26.67
50347184,1749,1,200344,246370,0.08,-1.01,11.07,-0.01,0.02,-0.00,26.67
50387181,1755,1,199268,244770,0.14,-0.76,10.28,0.01,-0.04,0.00,26.67
50426207,1738,1,199409,246066,0.11,-0.85,10.60,0.01,-0.00,0.00,26.67
50466172,1792,1,199636,246057,0.20,-1.25,9.14,-0.01,-0.05,0.00,26.67
50506870,1762,1,200138,246509,0.13,-0.72,10.21,-0.03,-0.02,-0.00,26.77
50547202,1739,1,200571,246841,0.15,-0.20,10.87,-0.02,-0.03,-0.00,26.77
50587202,1723,1,200547,247390,0.45,-0.36,9.71,-0.04,-0.05,0.04,26.77
50627218,1741,1,200664,246640,0.32,-1.04,9.30,-0.04,-0.03,-0.00,26.77
50667202,1730,1,201048,247241,0.42,-1.06,10.17,-0.04,-0.02,0.15,26.77
50707182,1765,1,201439,246612,0.06,-0.91,8.98,-0.05,-0.00,-0.01,26.77
50747202,1817,1,201454,247529,0.26,-1.30,10.24,-0.02,0.00,-0.00,26.77
50787182,1872,1,201335,246881,0.54,-1.24,8.48,-0.03,-0.05,-0.01,26.77
50827219,1872,1,201484,248683,0.50,-1.31,9.95,-0.04,-0.01,-0.01,26.77
50867202,1844,1,201544,248276,0.26,-0.61,8.92,-0.03,0.00,-0.01,26.77
50907182,1778,1,202118,250530,0.23,-0.87,12.20,-0.02,0.03,-0.01,26.77
50947182,1817,1,202258,249537,0.04,-0.67,11.23,0.02,0.03,-0.09,26.77
50987172,1761,1,201849,250248,0.20,-1.07,11.77,0.02,-0.05,0.00,26.77
51027171,1744,1,201817,247568,0.03,-1.35,9.00,-0.05,0.03,-0.01,26.77
51067182,1702,1,200549,247354,0.22,-0.99,10.23,0.02,-0.07,0.01,26.77
51107172,1721,1,201244,247693,0.49,-0.59,10.47,-0.04,0.03,-0.01,26.77
51147182,1744,1,201018,249023,0.23,-1.09,10.57,0.01,-0.08,-0.00,26.77
51187182,1757,1,201319,247426,0.22,-1.03,8.89,-0.06,-0.01,-0.07,26.77
51227203,1709,1,201009,248098,0.13,-1.11,10.83,-0.03,-0.09,0.01,26.77
51267182,1714,1,200663,245748,0.82,-0.36,9.14,-0.06,-0.05,-0.02,26.77
51307203,1711,1,200187,245288,0.10,-1.30,9.54,-0.05,-0.03,0.39,26.77
51347183,1801,1,200175,243050,1.10,-0.90,7.84,-0.07,-0.02,-0.00,26.77
51387202,1878,1,200027,244532,0.01,-1.84,10.04,-0.02,-0.03,0.29,26.77
51427182,1974,1,200384,244561,0.80,-1.00,8.23,-0.01,0.03,-0.02,26.77
51467182,1995,1,200570,246752,-0.27,-1.32,10.00,-0.03,0.05,-0.00,26.77
51507886,1950,1,200542,247828,0.92,-0.32,9.07,0.02,-0.02,-0.04,26.73
51546181,1921,1,201021,249175,0.30,-1.04,11.15,0.01,-0.01,-0.00,26.73
51586182,1870,1,201424,250393,0.49,-0.68,10.61,0.01,-0.01,-0.00,26.73
51626182,1814,1,201430,249544,-0.06,-1.03,11.31,0.01,0.01,-0.00,26.73
51666179,1751,1,201026,249123,0.27,-0.94,11.34,0.01,0.01,-0.01,26.73
51706172,1777,1,200415,247675,0.07,-0.66,11.06,0.01,-0.01,-0.05,26.73
51746182,1761,1,199896,246627,0.12,-1.07,9.85,-0.01,-0.03,-0.00,26.73
51786202,1788,1,199713,246738,0.24,-0.37,10.06,-0.02,-0.07,-0.01,26.73
51826202,1714,1,200535,248131,-0.08,-1.35,11.02,-0.03,0.00,-0.01,26.73
51866202,1763,1,200038,246703,0.64,0.43,9.23,0.00,-0.12,-0.06,26.73
51906172,1767,1,200474,248192,0.37,-1.37,10.28,-0.08,-0.04,0.20,26.73
51946182,1727,1,200663,246837,0.49,0.01,8.39,-0.05,-0.11,-0.00,26.73
51986182,1700,1,201208,247466,0.13,-1.50,9.75,-0.08,-0.04,0.30,26.73
52026184,1717,1,201687,247725,0.78,-0.11,9.11,-0.06,-0.01,-0.01,26.73
52066206,1769,1,202176,248435,0.14,-1.07,10.06,-0.04,-0.02,-0.01,26.73
52106202,1808,1,202271,248803,0.73,-0.14,9.85,0.02,-0.08,0.00,26.73
52146171,1781,1,202718,248523,0.30,-1.56,8.59,-0.03,-0.01,-0.00,26.73
52186202,1763,1,202379,247459,0.88,0.36,8.22,0.02,-0.10,0.00,26.73
52226151,1651,1,202603,248019,-0.09,-1.48,9.29,-0.09,0.06,0.10,26.73
52266229,1707,1,202529,247927,0.87,-0.08,8.18,0.02,-0.04,-0.04,26.73
52306179,1709,1,202715,247835,0.48,-0.35,10.61,-0.02,0.07,-0.01,26.73
52346182,1711,1,201452,244118,0.03,-0.99,7.97,0.04,-0.02,0.01,26.73
52386171,1732,1,201126,242719,0.39,-1.01,9.54,-0.03,0.06,0.02,26.73
52426172,1696,1,200644,243797,1.03,-0.79,9.52,0.01,-0.01,0.23,26.73
52466194,1741,1,201212,245752,0.30,-0.85,8.83,-0.03,0.07,-0.05,26.73
52506182,1745,1,201471,248160,0.06,-0.91,10.40,-0.03,0.07,-0.11,26.73
52546869,1774,1,201894,249789,0.37,-0.79,11.65,0.01,0.07,-0.11,26.71
52585172,1706,1,201430,249751,0.40,-0.26,11.14,0.00,-0.03,-0.14,26.71
52625182,1674,1,200989,249719,0.51,-0.79,11.06,-0.05,0.01,-0.04,26.71
52665182,1615,1,200757,248659,0.26,-0.60,11.26,-0.05,-0.05,-0.01,26.71
52705202,1582,1,200581,247582,0.82,-0.24,10.76,-0.07,-0.05,-0.01,26.71
52745202,1627,1,200947,246403,-0.17,-1.10,11.87,-0.08,0.01,0.10,26.71
52785181,1680,1,200173,244696,0.84,-0.05,8.21,-0.02,-0.10,0.04,26.71
52825182,1693,1,200342,243843,0.14,-2.13,9.15,-0.14,0.01,0.17,26.71
52865172,1776,1,199909,243444,0.91,-0.28,7.46,-0.08,-0.07,-0.00,26.71
52905202,1826,1,200889,246024,0.43,-1.13,9.90,-0.16,0.06,0.01,26.71
52945172,1906,1,201419,247695,0.79,-0.30,9.69,-0.05,-0.05,-0.03,26.71
52985202,1906,1,202304,248774,-0.01,-1.52,10.93,-0.10,0.05,0.00,26.71
53025186,1921,1,201324,247155,0.96,-0.72,9.38,0.04,-0.13,-0.00,26.71
53065182,1883,1,201234,245950,0.64,-1.84,9.06,-0.10,0.03,0.00,26.71
53105171,1853,1,200074,243536,0.95,-0.92,8.41,-0.03,-0.02,0.00,26.71
53145182,1851,1,199778,243252,1.05,-0.95,9.69,-0.08,0.06,-0.01,26.71
53185182,1866,1,199645,244441,0.47,-1.39,9.57,-0.00,0.04,0.00,26.71
53225172,1872,1,199706,245330,0.42,-1.84,8.98,-0.03,0.01,-0.18,26.71
53265182,1855,1,199836,247348,0.49,-1.18,10.03,0.00,0.01,-0.02,26.71
53305172,1810,1,199933,246512,0.41,-0.88,9.01,-0.00,0.01,-0.24,26.71
53345180,1703,1,199733,247601,0.23,-1.15,11.00,0.01,0.01,0.01,26.71
53385151,1690,1,200274,248219,0.43,-1.67,11.44,0.00,0.06,-0.02,26.71
53425172,1584,1,199957,249064,0.80,-0.78,10.67,0.05,-0.10,-0.01,26.71
53465182,1622,1,200026,248826,0.30,-1.87,10.11,-0.04,0.03,-0.07,26.71
53505182,1618,1,199847,248840,0.31,-0.67,10.30,0.00,-0.07,0.02,26.71
53545172,1623,1,200070,248216,0.64,-0.83,10.87,-0.04,0.02,0.00,26.71
53585859,1606,1,199686,247945,0.82,-0.41,11.04,-0.02,-0.10,0.01,26.71
53624182,1591,1,200279,248442,0.41,-0.79,10.37,-0.04,0.01,0.01,26.71
53664172,1606,1,200187,248247,0.40,-0.79,10.00,-0.02,-0.07,0.01,26.71
53704205,1740,1,200172,247550,0.67,-1.07,9.71,-0.03,-0.03,0.00,26.71
53744182,1773,1,199336,245097,0.49,-0.14,8.95,-0.03,-0.07,0.00,26.71
53784181,1712,1,199734,245732,0.58,-0.97,9.56,-0.08,-0.00,0.21,26.71
53824182,1772,1,199826,244849,0.77,0.24,9.96,0.01,-0.00,0.01,26.71
53864150,1799,1,200055,246407,0.69,-1.52,8.52,-0.06,0.01,0.08,26.71
53904208,1833,1,200550,245806,0.81,-0.66,9.02,-0.02,-0.00,0.00,26.71
53944182,1849,1,200567,246850,0.78,-0.95,8.88,-0.04,-0.04,0.03,26.71
53984182,1862,1,200971,246368,0.67,-0.40,8.83,-0.02,0.02,0.01,26.71
54024186,1842,1,200834,245891,0.84,-0.36,9.98,0.01,-0.00,0.21,26.71
54064172,1804,1,200902,245943,0.89,-0.90,9.34,-0.01,0.02,0.23,26.71
54104189,1790,1,201395,247926,0.98,-1.27,9.32,-0.00,0.01,0.03,26.71
54144171,1778,1,201499,247745,0.83,-0.86,7.87,-0.01,0.01,0.01,26.71
54184172,1779,1,201923,249336,0.50,-0.98,10.14,-0.07,0.06,0.00,26.71
54224171,1724,1,201928,248611,1.01,0.07,9.91,-0.03,0.01,-0.01,26.71
54264172,1658,1,202275,250632,0.67,-1.03,11.51,-0.03,0.05,0.01,26.71
54304172,1664,1,202590,250886,0.62,-0.58,9.15,-0.03,0.00,-0.04,26.71
54344182,1648,1,202725,251286,0.65,-1.48,11.30,-0.01,0.01,0.00,26.71
54384172,1601,1,202255,250857,0.67,0.16,8.80,-0.03,-0.02,-0.17,26.71
54424182,1569,1,202161,250972,0.94,-1.52,12.90,-0.05,-0.00,-0.05,26.71
54464202,1594,1,201586,247808,0.34,0.51,8.23,-0.05,-0.08,-0.19,26.71
54504182,1564,1,201902,250073,0.93,-1.41,10.80,-0.11,-0.02,0.80,26.71
54544182,991,1,203103,249100,0.63,-3.51,11.35,-0.14,0.15,-0.44,26.71
54584185,363,1,202087,250586,1.23,0.33,8.60,0.20,-0.32,-0.10,26.71
54624886,321,1,202928,250248,0.09,-1.92,11.81,-0.20,0.25,-0.02,26.73
54663185,0,1,202078,248817,0.29,0.86,6.58,0.02,-0.35,0.01,26.73
54703151,0,1,203482,249975,-0.16,-2.27,11.09,-0.13,0.15,0.16,26.73
54743184,0,1,202416,249051,0.86,-0.93,7.10,-0.11,-0.06,-0.01,26.73
54783203,309,1,203170,250687,0.23,-2.94,10.27,-0.13,0.12,-0.01,26.73
54823185,933,1,202171,249963,1.40,0.67,7.30,-0.06,-0.10,-0.46,26.73
54863182,1197,1,201927,250460,0.78,-2.11,11.84,-0.05,0.09,-0.13,26.73
54903184,1746,1,200884,247486,-0.97,-0.01,6.16,-0.08,0.02,-0.36,26.73
54943204,1850,1,201107,250162,0.85,-3.04,13.00,-0.02,0.08,0.38,26.73
54983172,2336,1,200337,246748,0.55,1.86,5.68,-0.07,0.10,-0.42,26.73
55023178,2559,1,200322,250460,0.77,-3.53,10.98,-0.03,-0.02,0.20,26.73
55063184,2625,1,199858,244104,1.24,2.09,5.91,-0.06,0.09,-0.45,26.73
55103172,2593,1,199461,247481,-1.08,-2.86,12.19,0.03,0.03,0.42,26.73
55143172,2678,1,199624,246825,1.43,-0.88,8.82,0.02,-0.03,-0.05,26.73
55183183,2672,1,200690,250187,-0.10,-3.14,15.25,0.04,0.08,0.02,26.73
55223172,2656,1,200155,250419,-0.90,-0.99,9.96,0.02,0.02,-0.32,26.73
55263182,2585,1,198537,247701,-0.23,-0.23,16.93,0.04,-0.01,-0.49,26.73
55303206,2679,1,197048,245525,-1.08,-0.49,14.02,-0.00,-0.09,-0.13,26.73
55343221,2665,1,196382,244895,-0.27,-0.98,14.60,-0.05,-0.19,-0.00,26.73
55383219,2608,1,197539,245481,1.06,-0.20,8.79,-0.06,-0.34,0.10,26.73
55423182,2317,1,199187,245423,-0.03,-1.88,10.14,-0.22,-0.12,0.90,26.73
55463206,2640,1,199781,241543,-0.12,-0.59,5.26,-0.10,-0.05,0.54,26.73
55503202,2676,1,199903,241940,1.36,-0.54,10.17,-0.04,-0.09,0.39,26.73
55543225,2624,1,200225,241876,0.42,-1.13,3.68,0.01,-0.16,-0.29,26.73
55583182,2650,1,201162,246393,1.25,-0.26,7.26,0.05,-0.20,-0.30,26.73
55623185,2166,1,202757,247741,0.83,-1.73,5.23,-0.09,0.02,-0.48,26.73
55663872,2000,1,203350,250140,2.18,-0.47,8.60,0.04,-0.10,-0.14,26.87
55702184,1535,1,203090,249112,1.90,-0.27,8.44,0.05,0.02,-0.22,26.87
55742187,1568,1,204297,250318,1.20,-1.23,8.16,0.06,0.03,0.01,26.87
55782152,1717,1,206006,249085,0.92,-1.56,9.63,0.06,0.09,0.36,26.87
55822151,1776,1,205357,245930,0.37,0.15,9.30,0.10,0.11,0.67,26.87
55862132,2041,1,204436,244418,1.96,-1.08,10.80,0.15,0.15,0.33,26.87
55902151,2239,1,204632,249891,0.72,-0.59,9.11,0.25,0.06,-0.01,26.87
55942172,2380,1,206020,253055,0.14,-2.25,10.57,0.09,0.20,-0.61,26.87
55982172,1471,1,203815,252050,0.66,1.59,10.84,0.09,0.05,-0.40,26.87
56022153,982,1,202175,250742,0.13,-0.76,13.14,0.02,-0.03,0.02,26.87
56062172,759,1,201045,249864,0.17,0.10,13.49,0.00,0.01,0.03,26.87
56102132,685,1,200351,249305,0.20,-0.77,13.30,-0.06,-0.03,0.07,26.87
56142183,722,1,200389,249324,0.75,0.29,11.09,-0.03,-0.16,0.01,26.87
56182172,754,1,200521,248251,-0.01,-1.53,11.16,-0.14,0.00,0.00,26.87
56222183,880,1,199811,246498,0.99,1.50,6.65,-0.03,-0.30,0.01,26.87
56262172,1154,1,201531,247561,0.89,-1.38,12.49,-0.26,0.00,0.16,26.87
56302172,1287,1,200922,248201,1.10,0.95,7.47,-0.11,-0.14,-0.01,26.87
56342185,1358,1,202327,249607,1.27,-1.20,11.68,-0.18,-0.02,-0.29,26.87
56382206,1665,1,202702,250573,1.32,-0.56,10.33,-0.15,-0.11,-0.03,26.87
56422205,1906,1,202660,248471,1.31,-0.95,9.27,-0.13,-0.17,-0.02,26.87
56462203,2189,1,204130,249945,1.57,0.55,10.29,-0.12,-0.08,0.32,26.87
56502172,2331,1,205159,248386,1.09,-1.30,6.61,-0.16,-0.04,0.38,26.87
56542182,2293,1,205123,247552,1.20,-0.54,10.07,-0.05,0.07,0.32,26.87
56582172,1871,1,204246,244391,0.74,-2.43,5.98,-0.07,0.16,0.05,26.87
56622172,1790,1,203314,242573,1.03,-1.08,8.54,-0.05,0.10,-0.15,26.87
56662184,1789,1,201636,244755,0.51,-2.19,8.09,-0.04,0.07,-0.10,26.87
56702870,2167,1,200537,244975,1.04,-0.83,6.75,0.00,0.08,-0.59,26.73
56741172,2224,1,200264,246879,0.99,-0.92,10.52,0.01,0.06,-0.24,26.73
56781172,2101,1,200299,248024,0.19,-0.64,8.76,-0.00,0.02,-0.03,26.73
56821184,2077,1,201926,250077,0.34,-0.74,10.89,0.03,0.06,0.01,26.73
56861151,2032,1,202809,252304,0.38,-1.15,10.37,-0.01,0.07,0.02,26.73
56901172,2000,1,202171,251858,0.51,-0.95,11.91,-0.01,0.03,-0.07,26.73
56941184,1949,1,201722,251879,-0.25,-1.48,10.70,-0.03,0.07,-0.03,26.73
56981208,1903,1,201294,251647,-0.02,-0.11,10.88,-0.02,0.00,-0.11,26.73
57021213,1838,1,200995,251426,0.46,-0.78,13.03,-0.02,0.05,-0.10,26.73
57061184,1815,1,200640,250849,0.43,-0.54,10.80,-0.03,-0.05,-0.03,26.73
57101203,1771,1,200559,250639,-0.12,-1.08,11.90,-0.04,0.02,-0.01,26.73
57141205,1741,1,200175,250245,0.16,-1.42,10.07,-0.04,-0.08,0.01,26.73
57181202,1707,1,200054,250498,0.27,-1.27,11.02,-0.05,-0.02,-0.00,26.73
57221205,1629,1,199804,249885,0.34,-0.86,10.60,-0.05,-0.10,-0.08,26.73
57261202,1571,1,199768,250099,0.53,-0.46,10.74,-0.03,-0.06,-0.02,26.73
57301205,1606,1,199673,248529,0.26,-1.30,10.25,-0.06,-0.02,-0.06,26.73
57341203,1607,1,199484,249021,0.77,-1.57,9.82,-0.01,-0.10,0.02,26.73
57381204,1645,1,199819,247245,0.93,-0.77,8.50,-0.07,-0.05,-0.02,26.73
57421202,1737,1,199476,249195,0.19,-1.84,8.44,0.00,-0.05,0.00,26.73
57461172,1783,1,200143,248237,1.07,-0.85,8.58,-0.04,0.01,-0.08,26.73
57501182,1840,1,199947,250088,0.32,-1.21,10.10,0.02,-0.01,-0.01,26.73
57541184,1897,1,200341,250038,0.86,-0.19,8.06,-0.02,-0.04,-0.17,26.73
57581203,1838,1,200447,250975,0.17,-1.10,10.92,0.02,-0.01,0.00,26.73
57621172,1808,1,200207,250352,1.09,-0.85,9.04,0.03,-0.05,-0.01,26.73
57661182,1691,1,200269,250812,0.50,-1.31,10.90,-0.00,-0.01,-0.00,26.73
57701205,1682,1,200139,250740,1.17,-1.23,9.38,0.02,-0.05,-0.00,26.73
57741870,1612,1,200036,249960,0.22,-0.50,10.11,-0.01,-0.00,-0.01,26.79
57780205,1631,1,199533,248912,0.81,-1.17,10.33,0.01,-0.00,-0.00,26.79
57820183,1699,1,199390,248342,0.76,-0.32,10.80,0.00,-0.04,-0.01,26.79
57860184,1698,1,199233,247473,0.35,-1.32,9.38,0.00,0.01,0.01,26.79
57900151,1713,1,199338,248139,0.82,-0.61,10.45,-0.01,-0.02,0.03,26.79
57940184,1655,1,199757,247973,0.51,-1.32,10.51,0.00,-0.01,-0.01,26.79
57980184,1649,1,199041,247368,1.18,0.21,9.06,-0.02,-0.08,0.05,26.79
58020172,1668,1,199967,247391,0.46,-0.85,10.22,-0.05,0.04,0.01,26.79
58060172,1687,1,199474,246351,1.07,0.33,9.08,-0.03,-0.07,0.04,26.79
58100172,1689,1,200843,247124,0.66,-1.52,11.14,-0.09,0.01,0.12,26.79
58140172,1725,1,201039,248201,0.96,-0.21,8.65,-0.03,-0.03,0.08,26.79
58180184,1806,1,202098,249536,0.27,-1.31,9.90,-0.09,0.07,-0.01,26.79
58220181,1853,1,202421,251386,0.79,-0.87,10.34,-0.03,-0.02,-0.01,26.79
58260205,1872,1,203147,251885,0.59,-0.85,10.70,-0.09,0.03,-0.01,26.79
58300181,1863,1,202900,251971,0.54,-0.79,10.34,-0.03,-0.06,-0.01,26.79
58340205,1829,1,202968,251947,0.96,-0.92,11.70,-0.11,0.06,-0.01,26.79
58380181,1764,1,202786,251807,0.29,-1.06,11.62,-0.07,-0.02,-0.00,26.79
58421204,1773,1,202811,251597,0.67,-1.67,10.61,-0.09,0.02,-0.01,26.79
58461183,1766,1,202430,249840,0.26,-1.48,10.02,-0.12,-0.03,-0.01,26.79
58501206,1770,1,201975,249487,0.53,-1.73,9.70,-0.10,0.00,-0.01,26.79
58541183,1687,1,201554,248614,0.81,-1.00,8.78,-0.13,-0.04,-0.02,26.79
58579205,1667,1,201359,248818,0.51,-0.94,9.30,-0.09,0.03,-0.03,26.79
58619198,1662,1,201325,248904,0.25,-1.57,9.67,-0.09,0.03,-0.15,26.79
58659184,1717,1,201278,249185,0.46,-1.60,9.03,-0.09,-0.02,-0.02,26.79
58699202,1712,1,201418,249158,0.36,-1.80,9.64,-0.06,0.02,-0.02,26.79
58739183,1662,1,200733,248314,0.72,-1.62,8.37,-0.07,-0.05,-0.01,26.79
58779892,1655,1,200889,248425,0.61,-2.20,9.75,-0.05,0.03,-0.00,26.73
58820201,1679,1,200571,247441,0.46,-1.74,8.23,-0.05,0.01,-0.01,26.73
58860182,1678,1,200030,246877,0.64,-0.92,9.58,-0.02,0.01,-0.00,26.73
58900184,1723,1,200195,247003,0.23,-1.79,9.47,-0.03,0.06,-0.01,26.73
58940182,1808,1,200023,247082,0.37,-1.18,9.60,-0.02,0.01,-0.01,26.73
58980182,1831,1,200374,247984,-0.03,-1.57,9.83,0.01,0.05,-0.00,26.73
59020192,1814,1,200422,249147,0.45,-1.42,10.02,-0.00,-0.01,-0.00,26.73
59060204,1823,1,200671,248851,0.16,-1.36,10.69,0.03,0.01,-0.03,26.73
59100172,1791,1,200092,249269,0.37,-1.53,9.42,-0.01,-0.04,0.01,26.73
59140182,1759,1,200496,247842,0.26,-0.61,10.56,0.02,-0.00,-0.05,26.73
59180182,1654,1,199777,248528,0.46,-0.94,10.39,0.00,-0.03,0.01,26.73
59220172,1650,1,200648,248364,0.51,-1.30,10.07,-0.03,-0.01,-0.01,26.73
59260203,1617,1,200464,249124,0.03,-0.99,10.44,0.01,-0.01,-0.01,26.73
59300183,1697,1,200705,249293,0.57,-1.30,10.15,-0.02,-0.04,-0.01,26.73
59340203,1687,1,200560,249219,0.23,-1.44,10.17,-0.02,-0.11,0.01,26.73
59380185,1708,1,200691,248644,0.83,-0.95,9.65,-0.01,-0.07,-0.01,26.73
59420203,1728,1,200602,249007,0.51,-0.62,9.56,-0.04,-0.06,-0.01,26.73
59459205,1782,1,200956,248538,0.57,-1.03,9.98,-0.02,-0.00,-0.02,26.73
59499202,1778,1,200483,248658,0.57,-0.76,9.76,-0.03,-0.04,-0.02,26.73
59539205,1806,1,201077,249261,0.18,-1.12,9.67,-0.01,0.01,-0.02,26.73
59579181,1835,1,200752,249191,0.97,-0.86,10.13,-0.02,-0.05,-0.01,26.73
59619205,1841,1,200934,249623,0.48,-1.85,9.38,-0.05,-0.03,-0.01,26.73
59659202,1808,1,200764,249666,0.63,-0.82,9.57,0.00,-0.04,-0.01,26.73
59699182,1808,1,201226,248813,0.68,-1.64,9.69,-0.06,-0.00,-0.01,26.73
59739202,1776,1,199867,245758,0.70,-0.66,9.53,0.00,-0.07,-0.01,26.73
59779869,1798,1,199409,244036,0.77,-1.24,9.70,-0.03,0.04,-0.01,26.79
59818182,1771,1,198364,241372,0.47,-1.00,8.35,-0.03,-0.05,-0.01,26.79
59858205,1753,1,198682,243096,0.98,-1.45,10.19,-0.03,0.02,0.02,26.79
59898172,1759,1,199108,245386,0.36,-1.55,8.41,-0.03,0.00,-0.01,26.79
59938184,1792,1,199604,246484,0.50,-1.13,8.90,-0.03,-0.00,-0.01,26.79
59978202,1803,1,200502,249766,0.34,-1.92,10.77,0.01,0.06,-0.01,26.79
60018172,1755,1,200571,249384,0.76,-0.23,8.45,-0.03,-0.03,-0.10,26.79
60058203,1706,1,200851,250557,-0.07,-1.05,11.45,-0.01,0.07,-0.01,26.79
60098227,1712,1,200611,250314,0.80,-0.55,10.59,-0.01,0.01,-0.10,26.79
60138181,1648,1,200435,250323,0.20,-1.29,11.28,-0.03,0.02,-0.04,26.79
60178184,1703,1,200277,249915,0.29,-0.93,10.98,-0.00,0.01,-0.05,26.79
60218182,1705,1,200223,249050,0.16,-0.91,11.27,-0.04,0.01,-0.01,26.79
60258186,1723,1,199426,247641,0.59,-1.24,9.36,-0.05,-0.09,-0.01,26.79
60298202,1745,1,200247,247989,0.00,-1.43,10.80,-0.04,0.00,-0.02,26.79
60338184,1763,1,199049,245273,0.89,-0.25,9.22,-0.05,-0.09,-0.02,26.79
60378202,1715,1,199069,246236,0.35,-1.47,10.30,-0.08,-0.00,0.18,26.79
60418184,1747,1,198364,241068,0.68,-0.41,8.64,-0.04,-0.05,-0.02,26.79
60459203,1712,1,197295,241249,0.95,-1.46,9.03,-0.07,-0.03,0.26,26.79
60499183,1777,1,197945,241110,0.62,-1.15,8.54,-0.04,-0.01,-0.01,26.79
60539203,1815,1,198267,244622,0.47,-1.91,9.58,-0.03,-0.02,-0.01,26.79
60579204,1846,1,198827,245200,0.92,-1.16,9.18,-0.02,-0.05,-0.08,26.79
60619203,1787,1,199210,247080,0.11,-2.07,9.85,-0.01,-0.01,-0.01,26.79
60659203,1777,1,199142,245846,1.15,-0.97,8.83,-0.01,-0.09,-0.03,26.79
60699203,1745,1,199649,247536,0.59,-1.26,10.30,-0.03,-0.01,-0.01,26.79
60737205,1745,1,199660,246365,0.80,-1.01,8.93,0.00,0.02,-0.02,26.79
60777172,1745,1,199653,247327,0.35,-0.67,10.34,-0.02,0.05,-0.01,26.79
60817871,1783,1,199662,247400,0.12,-1.12,9.65,-0.00,0.02,-0.01,26.79
60858182,1777,1,199771,248097,0.62,-1.11,10.45,0.00,-0.01,-0.01,26.79
60898184,1792,1,200106,248303,0.63,-1.32,9.77,-0.03,-0.03,-0.01,26.79
60938202,1773,1,200490,249443,0.27,-1.07,10.23,-0.02,-0.01,-0.01,26.79
60978205,1805,1,200830,248772,0.27,-1.12,10.21,-0.02,-0.01,-0.01,26.79
61018202,1786,1,200461,249194,0.61,-1.00,9.70,-0.03,-0.03,-0.01,26.79
61058202,1786,1,200522,246940,0.25,-0.32,10.07,-0.03,-0.00,-0.02,26.79
61098202,1740,1,199689,247284,0.68,-1.14,9.31,-0.02,-0.00,-0.01,26.79
61138205,1738,1,200349,247475,1.17,-0.75,9.80,-0.03,-0.03,-0.02,26.79
61178225,1714,1,200542,248863,0.16,-1.30,10.27,-0.03,-0.00,-0.01,26.79
61218205,1769,1,200721,248737,0.71,-1.49,9.69,-0.01,-0.05,-0.01,26.79
61258202,1787,1,200932,248688,0.37,-1.40,9.95,-0.03,-0.01,-0.01,26.79
61298204,1759,1,200165,246363,0.46,-1.61,9.37,-0.03,-0.06,-0.01,26.79
61338203,1761,1,199958,247238,0.36,-1.52,9.99,-0.01,0.01,-0.01,26.79
61378185,1746,1,200410,247433,0.66,-1.16,9.59,-0.03,-0.01,-0.02,26.79
61418203,1754,1,199829,248091,0.91,-0.98,9.84,-0.03,-0.06,-0.01,26.79
61458204,1776,1,200863,249784,-0.21,-1.74,9.13,-0.03,0.08,-0.00,26.79
61497201,1787,1,200990,249184,0.76,-0.48,10.81,-0.02,-0.02,-0.01,26.79
61537205,1774,1,200891,250486,0.68,-1.30,11.25,-0.03,0.00,-0.00,26.79
61577181,1744,1,201134,250396,0.42,-1.94,10.45,-0.07,-0.03,-0.01,26.79
61617205,1765,1,201025,249505,0.33,-0.74,10.19,-0.01,-0.02,-0.01,26.79
61657202,1733,1,201023,249162,0.69,-1.29,10.75,-0.05,-0.05,0.03,26.79
