timestamp_us,ecg,leads,ir,red,accX,accY,accZ,gyroX,gyroY,gyroZ,temp
2425485,1846,1,196333,235332,0.00,0.00,0.00,0.00,0.00,0.00,0.00
2455958,1959,1,196665,235881,0.51,-0.21,9.71,-0.03,-0.01,-0.01,31.75
2496197,1979,1,196761,235807,0.50,-0.20,9.94,-0.03,-0.01,-0.01,31.75
2536187,1950,1,196759,235994,0.52,-0.21,9.96,-0.03,-0.01,-0.01,31.75
2576190,2007,1,197085,236481,0.52,-0.22,9.96,-0.04,-0.01,-0.01,31.75
2616188,1995,1,197256,237083,0.52,-0.21,9.97,-0.03,-0.01,-0.01,31.75
2656190,1979,1,197498,237659,0.51,-0.21,9.97,-0.03,-0.01,-0.01,31.75
2696190,1979,1,197472,234192,0.51,-0.20,9.97,-0.03,-0.01,-0.01,31.75
2736190,1975,1,194686,228558,0.51,-0.20,9.98,-0.04,-0.01,-0.01,31.75
2776187,1955,1,193925,228297,0.53,-0.21,10.00,-0.04,-0.01,-0.01,31.75
2816190,1968,1,194268,229396,0.51,-0.21,9.97,-0.03,-0.01,-0.01,31.75
2856187,1966,1,194733,231054,0.55,-0.20,9.95,-0.03,-0.01,-0.01,31.75
2896190,1946,1,195475,232977,0.52,-0.22,9.98,-0.03,-0.01,-0.01,31.75
2936190,1995,1,196112,233911,0.52,-0.21,9.99,-0.04,-0.01,-0.01,31.75
2976190,1959,1,196317,234361,0.52,-0.19,9.99,-0.03,-0.01,-0.01,31.75
3016187,1962,1,196416,234725,0.51,-0.20,9.96,-0.03,-0.01,-0.01,31.75
3056190,1967,1,196487,235044,0.51,-0.20,9.98,-0.04,-0.01,-0.01,31.75
3096223,1982,1,196645,235739,0.53,-0.20,9.96,-0.03,-0.01,-0.01,31.75
3136190,1984,1,196992,236475,0.52,-0.23,9.95,-0.04,-0.01,-0.01,31.75
3176187,1993,1,197188,236581,0.53,-0.22,9.98,-0.03,-0.01,-0.01,31.75
3216190,2001,1,195841,229394,0.53,-0.22,9.99,-0.03,-0.01,-0.01,31.75
3256187,1984,1,193801,227606,0.54,-0.21,10.00,-0.03,-0.01,-0.01,31.75
3296191,2006,1,193813,228076,0.51,-0.23,9.98,-0.03,-0.01,-0.01,31.75
3336187,2000,1,194133,229274,0.52,-0.20,9.96,-0.03,-0.01,-0.01,31.75
3376190,2023,1,194751,230890,0.51,-0.20,9.96,-0.03,-0.01,-0.01,31.75
3416190,1998,1,195392,232494,0.52,-0.20,9.95,-0.03,-0.01,-0.01,31.75
3456190,2007,1,195831,233350,0.52,-0.22,9.97,-0.03,-0.01,-0.01,31.75
3496877,1991,1,196017,233652,0.52,-0.22,10.00,-0.03,-0.01,-0.01,31.69
3535190,2017,1,196051,233885,0.52,-0.20,9.97,-0.03,-0.01,-0.01,31.69
3575190,2005,1,196183,234603,0.52,-0.22,9.97,-0.03,-0.01,-0.01,31.69
3615190,2032,1,196501,235464,0.53,-0.21,9.97,-0.03,-0.01,-0.01,31.69
3655190,2016,1,196809,236600,0.52,-0.19,9.96,-0.03,-0.01,-0.01,31.69
3695190,2029,1,197049,234347,0.52,-0.22,9.96,-0.03,-0.01,-0.01,31.69
3735190,2027,1,194538,228068,0.53,-0.21,9.97,-0.03,-0.01,-0.00,31.69
3775189,2029,1,193625,227721,0.53,-0.20,9.97,-0.03,-0.01,-0.01,31.69
3815187,2027,1,193849,228723,0.54,-0.21,9.96,-0.04,-0.01,-0.01,31.69
3855190,2018,1,194293,230102,0.53,-0.22,9.98,-0.03,-0.01,-0.01,31.69
3895190,2000,1,194953,231955,0.53,-0.21,9.97,-0.03,-0.01,-0.01,31.69
3935190,1987,1,195677,233585,0.53,-0.21,9.98,-0.03,-0.01,-0.00,31.69
3975190,1961,1,196107,234369,0.53,-0.20,9.95,-0.03,-0.01,-0.01,31.69
4015195,1969,1,196175,234611,0.53,-0.21,9.96,-0.03,-0.01,-0.01,31.69
4055190,1984,1,196303,234994,0.51,-0.21,10.00,-0.03,-0.01,-0.01,31.69
4095190,1982,1,196525,235807,0.53,-0.23,9.96,-0.03,-0.01,-0.01,31.69
4135190,1965,1,196791,236522,0.53,-0.22,9.97,-0.03,-0.01,-0.01,31.69
4175190,1971,1,197079,237078,0.53,-0.21,9.95,-0.03,-0.01,-0.01,31.69
4215190,1991,1,196592,231337,0.53,-0.20,9.97,-0.03,-0.01,-0.01,31.69
4255190,1989,1,193929,227854,0.54,-0.19,9.97,-0.03,-0.01,-0.01,31.69
4295190,1994,1,193699,228372,0.52,-0.20,9.98,-0.03,-0.01,-0.01,31.69
4335190,1974,1,194139,229678,0.54,-0.21,9.98,-0.03,-0.01,-0.01,31.69
4375190,1983,1,194694,231262,0.53,-0.21,9.99,-0.03,-0.01,-0.00,31.69
4415190,1962,1,195402,233132,0.52,-0.23,9.96,-0.03,-0.01,-0.01,31.69
4455189,1959,1,195884,234087,0.52,-0.21,9.96,-0.04,-0.01,-0.01,31.69
4495191,1918,1,196056,234532,0.51,-0.20,9.98,-0.03,-0.01,-0.01,31.69
4535877,1883,1,196240,234941,0.53,-0.21,9.98,-0.04,-0.01,-0.01,31.81
4576190,1906,1,196425,235514,0.51,-0.20,9.95,-0.03,-0.01,-0.00,31.81
4616187,1859,1,196653,236411,0.52,-0.22,9.96,-0.03,-0.01,-0.01,31.81
4656190,1857,1,196983,237104,0.51,-0.21,9.99,-0.03,-0.01,-0.01,31.81
4696190,1842,1,197207,237026,0.53,-0.24,9.96,-0.03,-0.01,-0.01,31.81
4736190,1866,1,195690,229658,0.53,-0.21,9.99,-0.03,-0.01,-0.01,31.81
4776187,1844,1,193707,228020,0.52,-0.22,9.96,-0.03,-0.01,-0.01,31.81
4816190,1849,1,193788,228800,0.53,-0.22,9.96,-0.03,-0.01,-0.01,31.81
4856187,1857,1,194331,230323,0.52,-0.22,9.99,-0.04,-0.01,-0.01,31.81
4896190,1817,1,194983,232305,0.53,-0.19,9.97,-0.03,-0.01,-0.01,31.81
4936190,1818,1,195730,233961,0.55,-0.23,9.97,-0.03,-0.01,-0.01,31.81
4976190,1815,1,196091,234443,0.51,-0.21,9.96,-0.03,-0.01,-0.01,31.81
5016190,1798,1,196150,234538,0.51,-0.21,9.97,-0.03,-0.01,-0.01,31.81
5055190,1863,1,196150,234926,0.51,-0.20,9.98,-0.03,-0.01,-0.01,31.81
5095190,1862,1,196376,235636,0.53,-0.22,9.99,-0.03,-0.01,-0.01,31.81
5135190,1861,1,196610,236396,0.53,-0.20,9.98,-0.03,-0.01,-0.01,31.81
5175189,1851,1,196929,237152,0.53,-0.21,9.96,-0.03,-0.01,-0.01,31.81
5215190,1851,1,196942,233743,0.53,-0.23,10.01,-0.03,-0.01,-0.02,31.81
5255190,1829,1,194219,228266,0.52,-0.22,9.97,-0.03,-0.01,-0.02,31.81
5295190,1838,1,193590,228312,0.52,-0.20,9.97,-0.03,-0.01,-0.01,31.81
5335190,1827,1,193894,229420,0.52,-0.22,9.97,-0.03,-0.01,-0.01,31.81
5375190,1841,1,194403,230852,0.53,-0.22,9.96,-0.03,-0.01,-0.01,31.81
5415190,1826,1,195140,232840,0.53,-0.20,10.00,-0.04,-0.01,-0.01,31.81
5455239,1818,1,195729,234042,0.52,-0.20,9.97,-0.03,-0.01,-0.01,31.81
5495190,1799,1,195997,234460,0.52,-0.20,9.99,-0.03,-0.01,-0.01,31.81
5535190,1792,1,196070,234763,0.50,-0.23,9.97,-0.03,-0.01,-0.01,31.81
5575877,1711,1,196364,235573,0.52,-0.20,10.01,-0.03,-0.01,-0.01,31.81
5616191,1712,1,196654,236410,0.51,-0.21,10.00,-0.03,-0.01,-0.01,31.81
5656205,1721,1,196996,237252,0.53,-0.20,9.96,-0.03,-0.01,-0.01,31.81
5696190,1691,1,197321,237925,0.54,-0.21,9.95,-0.03,-0.00,-0.01,31.81
5736187,1668,1,196404,231099,0.52,-0.20,9.95,-0.03,-0.01,-0.01,31.81
5776190,1671,1,194013,228481,0.51,-0.21,9.96,-0.03,-0.01,-0.01,31.81
5816190,1649,1,193889,229169,0.53,-0.20,9.98,-0.03,-0.01,-0.01,31.81
5856213,1634,1,194399,230530,0.53,-0.21,9.96,-0.03,-0.01,-0.01,31.81
5896187,1617,1,194932,232035,0.52,-0.21,9.97,-0.03,-0.01,-0.01,31.81
5936190,1616,1,195616,233705,0.52,-0.20,9.97,-0.03,-0.01,-0.01,31.81
5976187,1615,1,196062,234451,0.53,-0.21,9.98,-0.03,-0.00,-0.01,31.81
6016190,1609,1,196236,234810,0.53,-0.21,9.93,-0.03,-0.01,-0.01,31.81
6056190,1623,1,196327,235129,0.52,-0.20,9.96,-0.03,-0.01,-0.01,31.81
6096190,1616,1,196479,235636,0.54,-0.20,9.98,-0.03,-0.01,-0.01,31.81
6136196,1600,1,196692,236310,0.53,-0.22,9.97,-0.03,-0.01,-0.01,31.81
6176190,1569,1,196947,237022,0.52,-0.19,9.97,-0.03,-0.01,-0.01,31.81
6216190,1564,1,197140,235698,0.53,-0.20,9.97,-0.03,-0.01,-0.00,31.81
6256191,1573,1,194801,228613,0.50,-0.22,9.96,-0.03,-0.01,-0.01,31.81
6296187,1535,1,193594,227881,0.51,-0.20,9.97,-0.03,-0.01,-0.01,31.81
6336190,1563,1,193761,228819,0.52,-0.21,10.00,-0.03,-0.01,-0.01,31.81
6376187,1535,1,194261,230291,0.54,-0.22,9.96,-0.03,-0.01,-0.00,31.81
6416190,1523,1,194943,232294,0.51,-0.22,9.96,-0.03,-0.01,-0.01,31.81
6456190,1557,1,195713,233991,0.54,-0.21,9.97,-0.03,-0.01,-0.01,31.81
6496190,1519,1,196070,234682,0.52,-0.22,9.97,-0.03,-0.01,-0.01,31.81
6536190,1511,1,196241,235018,0.52,-0.20,9.97,-0.03,-0.01,-0.01,31.81
6576877,1490,1,196349,235397,0.53,-0.19,9.95,-0.03,-0.01,-0.01,31.71
6615190,1573,1,196506,236100,0.52,-0.23,10.00,-0.03,-0.01,-0.00,31.71
6655190,1583,1,196749,236957,0.50,-0.22,9.97,-0.03,-0.01,-0.01,31.71
6695189,1600,1,197058,237763,0.53,-0.21,10.00,-0.03,-0.01,-0.01,31.71
6735190,1601,1,197175,234730,0.52,-0.21,9.97,-0.03,-0.01,-0.01,31.71
6775190,1643,1,194366,228497,0.51,-0.22,9.97,-0.03,-0.01,-0.01,31.71
6815190,1658,1,193552,228272,0.54,-0.21,9.99,-0.03,-0.01,-0.01,31.71
6855190,1680,1,193890,229446,0.52,-0.22,9.98,-0.03,-0.01,-0.01,31.71
6895190,1728,1,194407,230974,0.53,-0.20,9.97,-0.03,-0.01,-0.00,31.71
6935190,1739,1,195164,233142,0.52,-0.22,9.94,-0.03,-0.01,-0.01,31.71
6975190,1765,1,195884,234659,0.53,-0.20,9.96,-0.04,-0.01,-0.00,31.71
7015187,1789,1,196254,235167,0.52,-0.20,9.95,-0.03,-0.01,-0.01,31.71
7055190,1818,1,196324,235524,0.51,-0.21,9.97,-0.03,-0.01,-0.01,31.71
7095202,1872,1,196495,236154,0.53,-0.21,9.96,-0.03,-0.01,-0.01,31.71
7135190,1865,1,196699,236748,0.54,-0.21,9.98,-0.03,-0.01,-0.00,31.71
7175190,1910,1,196893,237542,0.54,-0.22,9.94,-0.03,-0.01,-0.01,31.71
7215190,1927,1,197204,238138,0.55,-0.22,9.97,-0.03,-0.01,-0.01,31.71
7255190,1951,1,196928,233147,0.52,-0.22,9.96,-0.03,-0.01,-0.01,31.71
7295218,1983,1,194091,228709,0.52,-0.20,9.99,-0.04,-0.01,-0.01,31.71
7335189,1946,1,193742,229288,0.54,-0.22,9.97,-0.03,-0.01,-0.01,31.71
7375190,1970,1,194282,230759,0.53,-0.22,9.98,-0.03,-0.01,-0.01,31.71
7415190,2003,1,194954,232805,0.51,-0.22,9.98,-0.04,-0.01,-0.01,31.71
7455190,2022,1,195838,235180,0.54,-0.21,9.97,-0.03,-0.01,-0.01,31.71
7495208,2012,1,196421,236106,0.52,-0.20,9.97,-0.04,-0.01,-0.01,31.71
7535190,2013,1,196531,236334,0.51,-0.22,9.97,-0.03,-0.01,-0.01,31.71
7575190,2018,1,196613,236569,0.51,-0.19,9.98,-0.03,-0.01,-0.01,31.71
7615877,1934,1,196744,236923,0.53,-0.22,9.97,-0.03,-0.01,-0.01,31.77
7656190,1938,1,196940,237398,0.52,-0.21,9.95,-0.04,-0.01,-0.01,31.77
7696190,1937,1,197118,238097,0.52,-0.21,9.98,-0.03,-0.01,-0.00,31.77
7736188,1970,1,197428,238309,0.53,-0.22,9.97,-0.03,-0.01,-0.01,31.77
7776190,1938,1,196048,230800,0.54,-0.22,9.96,-0.03,-0.01,-0.00,31.77
7816187,1919,1,193823,228844,0.53,-0.21,9.98,-0.03,-0.01,-0.01,31.77
7856190,1904,1,193946,229817,0.51,-0.21,9.99,-0.03,-0.01,-0.01,31.77
7896187,1922,1,194489,231424,0.53,-0.21,9.99,-0.03,-0.01,-0.01,31.77
7936190,1919,1,195144,233290,0.54,-0.22,9.99,-0.03,-0.01,-0.01,31.77
7976187,1920,1,195936,235133,0.53,-0.22,9.96,-0.03,-0.01,-0.01,31.77
8016190,1920,1,196436,235926,0.53,-0.20,9.96,-0.03,-0.01,-0.01,31.77
8056188,1915,1,196524,236154,0.54,-0.21,9.96,-0.03,-0.01,-0.01,31.77
8096190,1894,1,196637,236442,0.53,-0.21,9.97,-0.04,-0.01,-0.01,31.77
8136190,1879,1,196767,236953,0.52,-0.21,9.96,-0.03,-0.01,-0.01,31.77
8176190,1851,1,196967,237547,0.51,-0.21,9.97,-0.03,-0.01,-0.00,31.77
8216187,1835,1,197196,238317,0.53,-0.22,9.96,-0.03,-0.01,-0.01,31.77
8256190,1805,1,197307,235723,0.52,-0.22,9.97,-0.03,-0.01,-0.01,31.77
8296190,1797,1,194568,229080,0.51,-0.20,9.95,-0.03,-0.01,-0.01,31.77
8336190,1780,1,193652,228829,0.51,-0.23,9.97,-0.04,-0.01,-0.01,31.77
8376190,1754,1,193969,230025,0.53,-0.21,9.99,-0.03,-0.01,-0.01,31.77
8416190,1742,1,194513,231502,0.54,-0.22,9.98,-0.03,-0.01,-0.01,31.77
8456190,1744,1,195215,233635,0.51,-0.20,10.00,-0.03,-0.01,-0.01,31.77
8496190,1733,1,196021,235297,0.53,-0.22,9.99,-0.03,-0.01,-0.01,31.77
8535190,1829,1,196253,235789,0.53,-0.23,9.98,-0.03,-0.01,-0.01,31.77
8575190,1836,1,196386,236202,0.52,-0.21,9.97,-0.03,-0.01,-0.01,31.77
8615876,1744,1,196616,236812,0.53,-0.21,9.97,-0.03,-0.01,-0.01,31.67
8656190,1771,1,196875,237485,0.54,-0.19,9.95,-0.03,-0.01,-0.01,31.67
8696187,1775,1,197103,238167,0.52,-0.21,9.98,-0.04,-0.01,-0.01,31.67
8736190,1810,1,197376,238716,0.51,-0.20,9.96,-0.03,-0.01,-0.01,31.67
8776187,1816,1,196793,232569,0.52,-0.21,9.95,-0.04,-0.01,-0.01,31.67
8816190,1834,1,194041,229062,0.52,-0.20,9.99,-0.03,-0.01,-0.00,31.67
8856186,1854,1,193818,229812,0.52,-0.20,9.97,-0.03,-0.01,-0.01,31.67
8896190,1916,1,194424,231693,0.52,-0.20,9.98,-0.03,-0.01,-0.01,31.67
8936187,1954,1,195143,233802,0.51,-0.21,9.99,-0.03,-0.01,-0.01,31.67
8976190,1968,1,196056,235992,0.52,-0.21,9.97,-0.03,-0.01,-0.01,31.67
9016190,1979,1,196608,237020,0.53,-0.20,9.96,-0.03,-0.01,-0.01,31.67
9056190,1985,1,196820,237337,0.52,-0.22,9.97,-0.03,-0.01,-0.01,31.67
9096188,2043,1,196889,237512,0.54,-0.21,9.96,-0.03,-0.01,-0.01,31.67
9136231,2064,1,196947,237707,0.51,-0.21,10.00,-0.04,-0.01,-0.01,31.67
9176188,2087,1,197099,238407,0.51,-0.23,9.96,-0.03,-0.01,-0.01,31.67
9216191,2101,1,197349,239104,0.51,-0.21,9.97,-0.03,-0.01,-0.01,31.67
9256190,2112,1,197555,238389,0.52,-0.22,9.95,-0.03,-0.01,-0.01,31.67
9296191,2127,1,195598,230874,0.53,-0.21,9.96,-0.03,-0.01,-0.01,31.67
9336190,2144,1,193980,229781,0.51,-0.21,9.97,-0.03,-0.01,-0.01,31.67
9376190,2160,1,194229,231112,0.52,-0.20,9.96,-0.03,-0.01,-0.01,31.67
9416188,2175,1,194865,232930,0.54,-0.20,9.95,-0.03,-0.01,-0.00,31.67
9456190,2162,1,195616,235165,0.52,-0.20,9.97,-0.03,-0.01,-0.01,31.67
9496188,2171,1,196367,236697,0.52,-0.20,9.98,-0.03,-0.01,-0.00,31.67
9536191,2175,1,196741,237074,0.52,-0.22,9.95,-0.03,-0.01,-0.01,31.67
9577188,2162,1,196712,237300,0.51,-0.21,9.96,-0.03,-0.01,-0.01,31.67
9617877,2109,1,196875,237665,0.53,-0.22,9.98,-0.03,-0.01,-0.00,31.83
9656188,2146,1,197005,238074,0.53,-0.21,9.95,-0.03,-0.01,-0.01,31.83
9696190,2177,1,197177,238696,0.53,-0.23,10.01,-0.03,-0.01,-0.01,31.83
9736188,2163,1,197420,239305,0.53,-0.21,9.96,-0.03,-0.01,-0.01,31.83
9776190,2174,1,197157,234563,0.53,-0.20,9.96,-0.04,-0.01,-0.01,31.83
9816187,2147,1,194366,229906,0.53,-0.22,9.96,-0.03,-0.01,-0.01,31.83
9856190,2156,1,193947,230378,0.51,-0.22,9.96,-0.03,-0.01,-0.00,31.83
9896188,2133,1,194508,232203,0.54,-0.23,9.99,-0.03,-0.01,-0.01,31.83
9936190,2133,1,195305,234415,0.56,-0.21,9.96,-0.03,-0.01,-0.01,31.83
9976187,2136,1,196236,236589,0.51,-0.21,9.96,-0.03,-0.01,-0.01,31.83
10016190,2116,1,196734,237466,0.51,-0.21,9.96,-0.03,-0.01,-0.01,31.83
10056190,2078,1,196941,237786,0.51,-0.21,9.98,-0.03,-0.01,-0.01,31.83
10096190,2091,1,197028,238087,0.52,-0.20,9.97,-0.03,-0.01,-0.01,31.83
10136191,2065,1,197144,238579,0.53,-0.21,9.96,-0.03,-0.01,-0.01,31.83
10176190,2064,1,197274,238990,0.53,-0.22,9.98,-0.03,-0.01,-0.01,31.83
10216190,2058,1,197446,239484,0.52,-0.22,9.98,-0.03,-0.01,-0.01,31.83
10256190,2042,1,197583,238938,0.55,-0.22,9.98,-0.03,-0.01,-0.01,31.83
10296191,2032,1,195886,231639,0.52,-0.22,9.97,-0.03,-0.01,-0.01,31.83
10336190,2015,1,194075,230308,0.54,-0.22,9.99,-0.03,-0.01,-0.02,31.83
10376191,2002,1,194341,231744,0.52,-0.20,9.95,-0.03,-0.01,-0.01,31.83
10416190,1991,1,195097,234141,0.50,-0.21,9.98,-0.03,-0.01,-0.01,31.83
10456187,1982,1,196087,236538,0.53,-0.21,9.95,-0.04,-0.00,-0.01,31.83
10496190,1938,1,196581,237584,0.61,-0.38,9.97,-0.04,-0.01,-0.07,31.83
10536190,1919,1,196835,238006,0.42,-0.11,10.01,-0.04,-0.00,-0.14,31.83
10577203,1934,1,196906,238278,0.50,-0.13,9.96,-0.04,-0.01,-0.03,31.83
10617875,1913,1,197030,238530,0.52,-0.20,9.95,-0.03,-0.01,-0.01,31.97
10656190,1883,1,197162,238878,0.53,-0.20,9.96,-0.03,-0.01,-0.01,31.97
10696191,1874,1,197360,239486,0.52,-0.19,9.99,-0.03,-0.01,-0.01,31.97
10736190,1873,1,197536,239729,0.53,-0.22,9.96,-0.03,-0.01,-0.01,31.97
10776223,1872,1,197035,234494,0.53,-0.21,9.96,-0.04,-0.01,-0.01,31.97
10816191,1854,1,194532,230876,0.54,-0.21,9.97,-0.03,-0.01,-0.01,31.97
10856190,1870,1,194504,231896,0.53,-0.21,10.01,-0.03,-0.01,-0.01,31.97
10896190,1891,1,195131,233746,0.54,-0.21,9.96,-0.04,-0.01,-0.00,31.97
10936191,1899,1,195853,235597,0.53,-0.22,9.98,-0.04,-0.01,-0.01,31.97
10976209,1891,1,196500,237137,0.53,-0.22,9.99,-0.03,-0.00,-0.00,31.97
11016190,1909,1,196883,237795,0.51,-0.22,10.00,-0.04,-0.00,-0.00,31.97
11056190,1948,1,196985,238034,0.55,-0.18,9.98,-0.04,-0.01,-0.00,31.97
11096191,1950,1,196998,238259,0.52,-0.21,9.99,-0.03,-0.01,-0.01,31.97
11136190,1952,1,197133,238621,0.53,-0.23,9.97,-0.03,-0.00,-0.01,31.97
11176191,1976,1,197294,239165,0.51,-0.22,9.98,-0.03,-0.01,-0.01,31.97
11216190,1972,1,197534,239752,0.53,-0.21,9.97,-0.03,-0.01,-0.01,31.97
11256190,1981,1,197446,236130,0.51,-0.21,9.98,-0.03,-0.00,-0.01,31.97
11296190,1946,1,194737,230359,0.52,-0.22,9.98,-0.03,-0.01,-0.02,31.97
11336191,1927,1,194173,230887,0.52,-0.19,9.96,-0.03,-0.01,-0.01,31.97
11376190,1904,1,194742,232642,0.51,-0.20,9.98,-0.03,-0.01,-0.01,31.97
11416190,1890,1,195464,234674,0.52,-0.20,9.97,-0.03,-0.01,-0.01,31.97
11456190,1874,1,196301,236770,0.55,-0.20,9.93,-0.04,-0.01,-0.01,31.97
11496191,1840,1,196860,237732,0.54,-0.20,9.97,-0.03,-0.00,-0.01,31.97
11536190,1808,1,197058,237979,0.58,-0.32,10.00,-0.04,-0.00,-0.02,31.97
11576187,1774,1,197149,238263,0.51,-0.22,10.01,-0.04,-0.00,-0.06,31.97
11617190,1723,1,197291,238696,0.51,-0.17,9.95,-0.04,-0.01,-0.02,31.97
11657877,1664,1,197570,239211,0.53,-0.20,9.98,-0.03,-0.01,-0.01,32.63
11696190,1662,1,197768,239718,0.51,-0.19,10.00,-0.03,-0.01,-0.01,32.63
11736190,1616,1,197852,237804,0.51,-0.20,9.98,-0.03,-0.01,-0.01,32.63
11776190,1535,1,195410,230739,0.51,-0.22,9.99,-0.03,-0.01,-0.01,32.63
11816190,1523,1,194356,230174,0.52,-0.20,9.96,-0.03,-0.01,-0.01,32.63
11856191,1505,1,194629,231452,0.51,-0.21,9.97,-0.03,-0.01,-0.01,32.63
11896191,1482,1,195234,233073,0.53,-0.20,9.97,-0.03,-0.01,-0.01,32.63
11936190,1456,1,195913,235326,0.51,-0.21,9.99,-0.03,-0.01,-0.01,32.63
11976190,1449,1,196696,237037,0.51,-0.22,9.97,-0.03,-0.02,-0.01,32.63
12016190,1438,1,197023,237857,0.51,-0.22,10.04,-0.03,-0.01,-0.01,32.63
12056190,1426,1,197192,238425,0.52,-0.22,9.94,-0.03,-0.01,-0.01,32.63
12096190,1441,1,197388,238977,0.55,-0.20,9.95,-0.03,-0.01,-0.01,32.63
12136191,1457,1,197563,239510,0.54,-0.20,9.98,-0.03,-0.01,-0.01,32.63
12176190,1471,1,197779,239996,0.53,-0.20,10.00,-0.03,-0.01,-0.01,32.63
12216190,1489,1,197927,239047,0.56,-0.22,9.96,-0.04,-0.01,-0.01,32.63
12256191,1505,1,196081,232332,0.54,-0.22,9.96,-0.03,-0.01,-0.01,32.63
12296190,1535,1,194681,231480,0.52,-0.23,9.96,-0.03,-0.01,-0.01,32.63
12336191,1535,1,194975,232741,0.53,-0.22,9.96,-0.03,-0.01,-0.01,32.63
12376190,1580,1,195472,234454,0.53,-0.20,9.96,-0.03,-0.01,-0.00,32.63
12416191,1632,1,196202,236359,0.54,-0.21,9.94,-0.03,-0.01,-0.00,32.63
12456191,1650,1,196812,237579,0.55,-0.20,9.96,-0.03,-0.01,-0.01,32.63
12496190,1697,1,197008,237879,0.53,-0.21,9.98,-0.03,-0.01,-0.01,32.63
12536190,1715,1,197068,238048,0.54,-0.22,9.95,-0.03,-0.01,-0.01,32.63
12576191,1745,1,197171,238477,0.53,-0.22,9.95,-0.03,-0.01,-0.01,32.63
12616190,1791,1,197323,238998,0.53,-0.21,9.98,-0.03,-0.01,-0.01,32.63
12656191,1827,1,197566,239446,0.55,-0.20,9.97,-0.03,-0.01,-0.01,32.63
12696877,1791,1,197602,238563,0.52,-0.20,9.94,-0.03,-0.01,-0.01,32.89
12737191,1821,1,195731,231591,0.53,-0.21,9.95,-0.03,-0.01,-0.00,32.89
12777190,1853,1,194301,230818,0.55,-0.21,9.95,-0.03,-0.01,-0.01,32.89
12817191,1863,1,194670,232296,0.54,-0.21,9.94,-0.03,-0.01,-0.01,32.89
12857191,1856,1,195344,234265,0.54,-0.20,9.96,-0.03,-0.01,-0.01,32.89
12897191,1872,1,196205,236463,0.53,-0.20,9.96,-0.03,-0.01,-0.01,32.89
12937188,1891,1,196860,237739,0.55,-0.20,9.97,-0.03,-0.01,-0.01,32.89
12977190,1881,1,197157,238166,0.52,-0.22,9.95,-0.03,-0.01,-0.00,32.89
13017191,1908,1,197149,238306,0.51,-0.21,9.97,-0.03,-0.01,-0.01,32.89
13057191,1904,1,197259,238643,0.52,-0.23,9.96,-0.03,-0.01,-0.01,32.89
13097191,1886,1,197464,239186,0.53,-0.23,9.99,-0.03,-0.01,-0.01,32.89
13137191,1894,1,197683,239722,0.53,-0.22,9.96,-0.03,-0.01,-0.01,32.89
13177191,1892,1,197787,239304,0.56,-0.20,9.98,-0.03,-0.01,-0.01,32.89
13217191,1878,1,196360,232654,0.54,-0.21,9.97,-0.03,-0.01,-0.01,32.89
13257191,1854,1,194694,231586,0.54,-0.20,9.96,-0.03,-0.01,-0.01,32.89
13297191,1863,1,194944,233141,0.52,-0.19,9.96,-0.03,-0.01,-0.01,32.89
13337191,1829,1,195658,235047,0.53,-0.22,9.96,-0.03,-0.01,-0.01,32.89
13377191,1821,1,196395,236997,0.54,-0.21,9.97,-0.03,-0.01,-0.01,32.89
13417190,1808,1,197090,238142,0.54,-0.20,9.96,-0.04,-0.01,-0.01,32.89
13457190,1801,1,197377,238496,0.52,-0.21,9.93,-0.03,-0.01,-0.01,32.89
13497190,1787,1,197438,238569,0.54,-0.21,9.95,-0.03,-0.01,-0.00,32.89
13537190,1758,1,197502,238737,0.53,-0.22,9.99,-0.03,-0.01,-0.01,32.89
13577190,1714,1,197571,239070,0.53,-0.20,9.97,-0.03,-0.01,-0.01,32.89
13617190,1680,1,197743,239465,0.55,-0.21,9.96,-0.03,-0.01,-0.01,32.89
13657190,1662,1,197857,238683,0.54,-0.20,9.96,-0.03,-0.01,-0.01,32.89
13697877,1594,1,195951,231775,0.53,-0.19,9.96,-0.03,-0.01,-0.01,32.77
13736190,1629,1,194524,230912,0.52,-0.20,10.02,-0.03,-0.01,-0.01,32.77
13776190,1589,1,194790,232211,0.52,-0.23,9.95,-0.03,-0.01,-0.00,32.77
13816190,1557,1,195470,233867,0.54,-0.22,10.00,-0.04,-0.01,-0.01,32.77
13856190,1535,1,196216,235983,0.53,-0.21,9.96,-0.03,-0.01,-0.01,32.77
13896190,1514,1,196863,237170,0.53,-0.22,9.93,-0.03,-0.01,-0.01,32.77
13936190,1491,1,197091,237521,0.52,-0.23,9.98,-0.04,-0.01,-0.01,32.77
13976190,1475,1,197058,237473,0.52,-0.22,9.96,-0.03,-0.01,-0.01,32.77
14016190,1467,1,197150,237792,0.53,-0.22,9.95,-0.03,-0.01,-0.01,32.77
14056233,1505,1,197338,238412,0.52,-0.23,9.99,-0.03,-0.01,-0.01,32.77
14096190,1479,1,197459,238897,0.53,-0.20,9.97,-0.03,-0.01,-0.01,32.77
14136187,1505,1,197645,236886,0.53,-0.21,9.97,-0.03,-0.01,-0.00,32.77
14176190,1535,1,195119,230315,0.52,-0.22,10.00,-0.03,-0.01,-0.00,32.77
14216187,1571,1,194103,229842,0.52,-0.20,9.96,-0.03,-0.01,-0.01,32.77
14256240,1603,1,194293,230684,0.52,-0.21,9.95,-0.03,-0.01,-0.01,32.77
14296190,1652,1,194822,232112,0.52,-0.21,9.93,-0.03,-0.01,-0.01,32.77
14336190,1695,1,195407,234090,0.53,-0.22,9.92,-0.03,-0.01,-0.01,32.77
14376190,1699,1,196210,235654,0.53,-0.20,9.98,-0.03,-0.01,-0.00,32.77
14416190,1761,1,196529,236187,0.54,-0.20,9.96,-0.03,-0.01,-0.01,32.77
14456190,1795,1,196549,236387,0.53,-0.20,9.95,-0.03,-0.01,-0.01,32.77
14496190,1857,1,196756,237039,0.52,-0.22,9.95,-0.03,-0.01,-0.01,32.77
14536190,1890,1,197031,237830,0.53,-0.20,9.96,-0.03,-0.01,-0.01,32.77
14576190,1959,1,197230,238437,0.52,-0.21,10.01,-0.03,-0.01,-0.01,32.77
14616190,1993,1,197505,237534,0.51,-0.21,9.96,-0.03,-0.01,-0.01,32.77
14656190,2034,1,195411,230462,0.50,-0.21,9.96,-0.03,-0.01,-0.01,32.77
14696190,2092,1,193997,229613,0.53,-0.20,9.98,-0.03,-0.01,-0.01,32.77
14736876,2053,1,194170,230365,0.52,-0.22,9.96,-0.03,-0.01,-0.01,32.63
14777190,2083,1,194673,231727,0.52,-0.22,9.98,-0.03,-0.01,-0.01,32.63
14817190,2128,1,195283,233848,0.53,-0.21,9.96,-0.03,-0.01,-0.01,32.63
14857190,2163,1,196075,235524,0.54,-0.21,9.96,-0.03,-0.01,-0.00,32.63
14897190,2160,1,196391,235941,0.53,-0.21,9.96,-0.03,-0.01,-0.00,32.63
14937187,2167,1,196584,236171,0.51,-0.20,9.97,-0.04,-0.01,-0.01,32.63
14977190,2170,1,196649,236601,0.50,-0.20,9.95,-0.03,-0.01,-0.01,32.63
15017187,2190,1,196834,237229,0.51,-0.19,9.99,-0.03,-0.01,-0.01,32.63
15057190,2195,1,197093,237991,0.52,-0.20,9.95,-0.03,-0.01,-0.01,32.63
15097187,2198,1,197387,238690,0.54,-0.19,9.96,-0.03,-0.01,-0.01,32.63
15137189,2185,1,196837,232826,0.53,-0.22,10.01,-0.03,-0.01,-0.01,32.63
15177190,2202,1,194205,229432,0.51,-0.22,9.96,-0.03,-0.01,-0.00,32.63
15217190,2180,1,193968,230037,0.53,-0.19,9.99,-0.03,-0.01,-0.00,32.63
15257187,2180,1,194471,231492,0.52,-0.19,9.96,-0.03,-0.01,-0.01,32.63
15297190,2179,1,195033,233371,0.54,-0.21,9.96,-0.03,-0.01,-0.00,32.63
15337190,2182,1,195926,235513,0.54,-0.23,9.97,-0.03,-0.01,-0.01,32.63
15377190,2176,1,196455,236446,0.51,-0.22,10.00,-0.03,-0.01,-0.00,32.63
15417187,2160,1,196614,236790,0.54,-0.21,9.98,-0.03,-0.01,-0.01,32.63
15457190,2174,1,196762,237214,0.51,-0.21,9.97,-0.03,-0.01,-0.01,32.63
15497190,2172,1,196933,237714,0.52,-0.21,9.99,-0.03,-0.01,-0.01,32.63
15537190,2171,1,197150,238433,0.54,-0.21,9.99,-0.03,-0.01,-0.01,32.63
15577190,2142,1,197421,239186,0.53,-0.21,9.98,-0.03,-0.01,-0.01,32.63
15617190,2103,1,197541,238452,0.52,-0.21,9.95,-0.03,-0.01,-0.00,32.63
15657190,2058,1,195607,231150,0.53,-0.21,9.96,-0.03,-0.01,-0.00,32.63
15697193,2096,1,194064,230307,0.52,-0.21,9.94,-0.04,-0.01,-0.01,32.63
15737876,1931,1,194416,231867,0.53,-0.20,9.97,-0.03,-0.01,-0.01,32.63
15776190,1946,1,195147,233612,0.53,-0.22,9.96,-0.03,-0.01,-0.01,32.63
15816189,1933,1,195916,235904,0.51,-0.21,9.96,-0.03,-0.01,-0.01,32.63
15856190,1879,1,196509,237069,0.53,-0.21,9.97,-0.03,-0.01,-0.01,32.63
15896225,1776,1,196762,237260,0.53,-0.22,9.97,-0.03,-0.01,-0.01,32.63
15936190,1529,1,196718,237236,0.53,-0.22,9.95,-0.03,-0.01,-0.01,32.63
15976190,1649,1,196813,237489,0.51,-0.21,9.97,-0.03,-0.01,-0.01,32.63
16016190,1648,1,196929,237945,0.52,-0.21,9.98,-0.03,-0.01,-0.01,32.63
16056190,1654,1,197053,238593,0.51,-0.20,9.97,-0.03,-0.01,-0.00,32.63
16096221,1874,1,197356,239081,0.52,-0.20,9.97,-0.03,-0.01,-0.01,32.63
16136188,1859,1,196684,232799,0.53,-0.21,9.97,-0.03,-0.01,-0.01,32.63
16176190,1872,1,193863,229493,0.52,-0.20,9.98,-0.03,-0.01,-0.00,32.63
16216187,1895,1,193692,230010,0.54,-0.21,9.97,-0.03,-0.01,-0.01,32.63
16256190,1949,1,194118,231420,0.51,-0.19,9.95,-0.03,-0.01,-0.01,32.63
16296190,2007,1,194847,233373,0.51,-0.20,9.94,-0.03,-0.01,-0.01,32.63
16336190,2074,1,195710,235500,0.52,-0.21,9.98,-0.03,-0.01,-0.01,32.63
16376190,2098,1,196196,236166,0.52,-0.22,9.97,-0.03,-0.01,-0.01,32.63
16416190,2119,1,196304,236308,0.51,-0.21,9.98,-0.03,-0.01,-0.01,32.63
16456190,2096,1,196344,236729,0.51,-0.21,9.94,-0.03,-0.01,-0.01,32.63
16496190,2133,1,196529,237322,0.52,-0.21,9.99,-0.03,-0.01,-0.01,32.63
16536190,2080,1,196810,237924,0.52,-0.22,9.96,-0.03,-0.01,-0.01,32.63
16576190,2084,1,196998,238456,0.51,-0.21,9.96,-0.03,-0.01,-0.01,32.63
16616190,2029,1,197124,236034,0.53,-0.21,9.97,-0.03,-0.01,-0.00,32.63
16656190,2082,1,194358,229469,0.53,-0.21,9.97,-0.03,-0.01,-0.01,32.63
16696190,2027,1,193382,229257,0.53,-0.20,9.97,-0.03,-0.01,-0.01,32.63
16736190,2000,1,193699,230410,0.52,-0.22,9.96,-0.03,-0.01,-0.00,32.63
16776877,1923,1,194278,231839,0.51,-0.21,9.96,-0.03,-0.01,-0.01,32.45
16817190,1894,1,195064,233965,0.51,-0.23,9.99,-0.03,-0.01,-0.01,32.45
16857190,1870,1,195747,235379,0.52,-0.21,9.98,-0.03,-0.01,-0.01,32.45
16897190,1842,1,196107,235892,0.53,-0.21,9.96,-0.03,-0.01,-0.01,32.45
16937190,1808,1,196172,236254,0.53,-0.21,9.99,-0.03,-0.01,-0.01,32.45
16977190,1792,1,196305,236754,0.49,-0.21,9.97,-0.03,-0.01,-0.01,32.45
17017190,1767,1,196586,237583,0.51,-0.23,9.98,-0.03,-0.01,-0.00,32.45
17057190,1767,1,196853,238482,0.52,-0.20,9.97,-0.03,-0.01,-0.00,32.45
17097187,1754,1,197158,239111,0.52,-0.19,9.96,-0.03,-0.01,-0.01,32.45
17137190,1730,1,196788,233640,0.52,-0.20,9.95,-0.03,-0.01,-0.01,32.45
17177187,1740,1,193951,229784,0.50,-0.22,9.95,-0.04,-0.01,-0.01,32.45
17217190,1751,1,193614,230066,0.52,-0.22,9.97,-0.03,-0.01,-0.01,32.45
17257190,1787,1,194141,231608,0.52,-0.19,9.99,-0.03,-0.01,-0.01,32.45
17297190,1805,1,194896,233595,0.52,-0.21,9.96,-0.03,-0.01,-0.00,32.45
17337187,1795,1,195765,235698,0.52,-0.21,9.97,-0.03,-0.01,-0.01,32.45
17377190,1821,1,196299,236619,0.51,-0.22,9.96,-0.04,-0.01,-0.01,32.45
17417190,1840,1,196397,236996,0.52,-0.21,9.96,-0.03,-0.01,-0.01,32.45
17457190,1863,1,196545,237201,0.52,-0.21,9.97,-0.03,-0.01,-0.01,32.45
17497190,1826,1,196686,237549,0.51,-0.21,9.95,-0.04,-0.01,-0.01,32.45
17537216,1904,1,196867,238128,0.52,-0.21,9.97,-0.03,-0.01,-0.01,32.45
17577191,1890,1,197020,238714,0.51,-0.20,9.94,-0.04,-0.01,-0.01,32.45
17617190,1914,1,197274,238758,0.53,-0.20,9.97,-0.03,-0.01,-0.01,32.45
17657190,1927,1,195705,231259,0.54,-0.21,9.98,-0.03,-0.01,-0.01,32.45
17697191,1938,1,193674,229372,0.53,-0.21,9.95,-0.03,-0.01,-0.01,32.45
17737218,1968,1,193754,230365,0.51,-0.20,9.98,-0.03,-0.01,-0.00,32.45
17777877,2000,1,194206,231891,0.52,-0.21,9.98,-0.04,-0.01,-0.01,32.49
17816190,2004,1,194854,234020,0.53,-0.21,9.96,-0.03,-0.01,-0.01,32.49
17856190,2054,1,195745,235873,0.52,-0.20,9.96,-0.03,-0.01,-0.01,32.49
17896190,2065,1,196182,236334,0.51,-0.21,9.96,-0.04,-0.01,-0.00,32.49
17936190,2081,1,196259,236194,0.51,-0.20,9.97,-0.03,-0.01,-0.01,32.49
17976190,2069,1,196248,236243,0.52,-0.22,9.98,-0.03,-0.01,-0.01,32.49
18016190,2043,1,196287,236502,0.53,-0.22,9.97,-0.03,-0.01,-0.01,32.49
18056190,2045,1,196477,237295,0.52,-0.22,9.98,-0.03,-0.01,-0.01,32.49
18096190,2010,1,196744,238264,0.53,-0.20,9.97,-0.03,-0.01,-0.00,32.49
18136188,1997,1,196801,234213,0.52,-0.19,9.97,-0.03,-0.01,-0.01,32.49
18176190,1974,1,193773,228750,0.51,-0.22,9.97,-0.04,-0.01,-0.01,32.49
18216191,1975,1,193100,228619,0.52,-0.22,9.96,-0.03,-0.01,-0.01,32.49
18256190,1962,1,193370,229576,0.52,-0.21,9.96,-0.03,-0.01,-0.00,32.49
18296190,1948,1,193905,231377,0.52,-0.21,9.96,-0.03,-0.01,-0.01,32.49
18336190,1934,1,194628,233467,0.51,-0.22,9.97,-0.03,-0.01,-0.00,32.49
18376190,1922,1,195326,234634,0.52,-0.21,9.96,-0.03,-0.01,-0.01,32.49
18416190,1938,1,195621,234766,0.53,-0.20,9.97,-0.03,-0.01,-0.01,32.49
18456187,1907,1,195593,235035,0.51,-0.22,9.99,-0.03,-0.01,-0.01,32.49
18496190,1904,1,195645,235629,0.53,-0.21,9.97,-0.03,-0.01,-0.01,32.49
18536190,1914,1,196022,236562,0.52,-0.20,9.98,-0.03,-0.01,-0.01,32.49
18576190,1904,1,196362,237484,0.51,-0.21,9.97,-0.03,-0.01,-0.01,32.49
18616190,1904,1,196691,237676,0.52,-0.21,9.95,-0.03,-0.01,-0.01,32.49
18656190,1893,1,195333,230132,0.54,-0.22,9.98,-0.03,-0.01,-0.01,32.49
18696190,1901,1,192969,228047,0.51,-0.21,9.98,-0.03,-0.01,-0.01,32.49
18736190,1883,1,192920,228622,0.53,-0.20,9.97,-0.03,-0.01,-0.01,32.49
18776190,1897,1,193250,229795,0.52,-0.22,9.97,-0.03,-0.01,-0.01,32.49
18816877,1842,1,193880,231643,0.52,-0.22,9.96,-0.03,-0.01,-0.00,32.41
18857187,1872,1,194769,233687,0.52,-0.22,9.99,-0.03,-0.01,-0.00,32.41
18897190,1867,1,195361,234549,0.55,-0.20,9.96,-0.03,-0.01,-0.01,32.41
18937190,1851,1,195467,234798,0.52,-0.21,9.98,-0.03,-0.01,-0.01,32.41
18977190,1856,1,195493,235158,0.53,-0.21,9.96,-0.03,-0.01,-0.01,32.41
19017190,1865,1,195795,235765,0.52,-0.21,10.00,-0.04,-0.01,-0.01,32.41
19057190,1872,1,196038,236710,0.52,-0.22,9.96,-0.03,-0.01,-0.01,32.41
19097190,1839,1,196346,237532,0.53,-0.23,9.96,-0.03,-0.01,-0.01,32.41
19137190,1841,1,196618,236314,0.53,-0.20,9.96,-0.03,-0.01,-0.01,32.41
19177196,1860,1,194198,228989,0.52,-0.22,9.98,-0.03,-0.01,-0.01,32.41
19217190,1835,1,192828,228305,0.52,-0.21,9.95,-0.03,-0.01,-0.01,32.41
19257190,1853,1,193047,229490,0.53,-0.23,9.96,-0.04,-0.01,-0.01,32.41
19297190,1856,1,193655,231103,0.51,-0.21,10.00,-0.03,-0.01,-0.01,32.41
19337187,1865,1,194475,233524,0.52,-0.21,9.97,-0.03,-0.01,-0.00,32.41
19377210,1871,1,195463,235207,0.53,-0.19,10.00,-0.03,-0.01,-0.01,32.41
19417187,1862,1,195722,235847,0.53,-0.22,9.97,-0.03,-0.01,-0.01,32.41
19457190,1852,1,195842,235938,0.52,-0.18,9.97,-0.03,-0.01,-0.01,32.41
19497190,1846,1,195958,236161,0.52,-0.20,9.99,-0.03,-0.01,-0.01,32.41
19537190,1845,1,196118,236819,0.54,-0.23,9.96,-0.03,-0.01,-0.01,32.41
19577190,1861,1,196403,237436,0.54,-0.21,9.98,-0.03,-0.01,-0.01,32.41
19617190,1855,1,196657,238417,0.52,-0.22,9.97,-0.04,-0.01,-0.01,32.41
19657190,1858,1,196822,235657,0.51,-0.20,9.97,-0.03,-0.01,-0.01,32.41
19697190,1850,1,193960,229410,0.52,-0.21,9.99,-0.03,-0.01,-0.00,32.41
19737187,1839,1,193198,229251,0.52,-0.19,9.99,-0.03,-0.01,-0.01,32.41
19777190,1840,1,193726,230897,0.53,-0.20,9.97,-0.03,-0.01,-0.01,32.41
19817874,1815,1,194396,233053,0.50,-0.21,9.98,-0.03,-0.01,-0.01,32.41
19856190,1869,1,195335,235237,0.51,-0.21,10.00,-0.03,-0.01,-0.01,32.41
19896190,1872,1,196017,236203,0.51,-0.21,9.98,-0.03,-0.00,-0.01,32.41
19936190,1847,1,196140,236538,0.53,-0.20,9.95,-0.03,-0.01,-0.01,32.41
19976190,1854,1,196142,236687,0.52,-0.20,9.95,-0.03,-0.01,-0.01,32.41
20016190,1836,1,196310,236862,0.53,-0.21,9.97,-0.03,-0.01,-0.00,32.41
20056190,1809,1,196399,237469,0.52,-0.22,9.96,-0.03,-0.01,-0.01,32.41
20096190,1805,1,196593,237925,0.52,-0.21,9.97,-0.03,-0.01,-0.01,32.41
20136190,1799,1,196767,238442,0.52,-0.21,9.96,-0.03,-0.01,-0.01,32.41
20176190,1802,1,196386,232673,0.51,-0.22,9.99,-0.03,-0.01,-0.01,32.41
20216190,1792,1,193355,228548,0.50,-0.20,9.95,-0.03,-0.01,-0.01,32.41
20256190,1802,1,193018,229116,0.52,-0.20,9.99,-0.03,-0.01,-0.01,32.41
20296190,1806,1,193566,230609,0.51,-0.21,9.96,-0.04,-0.01,-0.01,32.41
20336190,1823,1,194266,232334,0.52,-0.22,9.99,-0.03,-0.01,-0.01,32.41
20376190,1861,1,195082,234797,0.52,-0.22,9.98,-0.03,-0.01,-0.01,32.41
20416190,1857,1,195779,235659,0.51,-0.21,9.95,-0.04,-0.01,-0.01,32.41
20456190,1872,1,195832,236016,0.53,-0.21,9.98,-0.03,-0.01,-0.01,32.41
20496190,1899,1,196032,236246,0.53,-0.22,9.96,-0.03,-0.01,-0.01,32.41
20536190,1899,1,196096,236740,0.53,-0.22,10.00,-0.03,-0.01,-0.01,32.41
20576190,1910,1,196371,237505,0.51,-0.23,9.96,-0.03,-0.01,-0.01,32.41
20616190,1933,1,196572,238205,0.52,-0.21,9.98,-0.03,-0.01,-0.00,32.41
20656189,1937,1,196860,237913,0.54,-0.21,9.97,-0.03,-0.01,-0.01,32.41
20696190,1932,1,195082,229888,0.53,-0.21,9.96,-0.03,-0.01,-0.01,32.41
20736190,1939,1,193005,228279,0.49,-0.21,9.97,-0.03,-0.01,-0.01,32.41
20776190,1923,1,193051,229040,0.53,-0.22,9.96,-0.03,-0.01,-0.01,32.41
20816203,1907,1,193558,230626,0.53,-0.21,9.98,-0.03,-0.01,-0.01,32.41
20856877,1808,1,194226,232456,0.51,-0.23,9.99,-0.04,-0.01,-0.01,32.49
20897191,1814,1,195033,234336,0.51,-0.22,9.98,-0.04,-0.01,-0.01,32.49
20937190,1795,1,195556,235063,0.50,-0.20,9.97,-0.03,-0.01,-0.01,32.49
20977190,1789,1,195679,235255,0.53,-0.20,9.98,-0.03,-0.01,-0.01,32.49
21017203,1792,1,195724,235756,0.54,-0.20,10.00,-0.03,-0.01,-0.01,32.49
21057190,1754,1,196043,236471,0.53,-0.20,9.98,-0.03,-0.01,-0.01,32.49
21097191,1758,1,196314,237167,0.51,-0.19,9.96,-0.03,-0.01,-0.01,32.49
21137190,1725,1,196514,237843,0.52,-0.20,9.96,-0.03,-0.01,-0.01,32.49
21177187,1731,1,196653,236008,0.53,-0.22,9.95,-0.03,-0.01,-0.01,32.49
21217200,1712,1,194000,228895,0.50,-0.20,9.98,-0.03,-0.01,-0.01,32.49
21257190,1712,1,192937,228459,0.51,-0.22,9.97,-0.03,-0.01,-0.01,32.49
21297190,1709,1,193147,229607,0.52,-0.21,9.98,-0.03,-0.01,-0.01,32.49
21337190,1710,1,193862,231240,0.54,-0.22,9.97,-0.03,-0.01,-0.01,32.49
21377191,1687,1,194559,233472,0.51,-0.21,9.97,-0.03,-0.01,-0.01,32.49
21417190,1712,1,195372,235216,0.52,-0.21,9.97,-0.03,-0.01,-0.01,32.49
21457190,1709,1,195719,235711,0.51,-0.20,9.98,-0.03,-0.01,-0.01,32.49
21497190,1712,1,195894,236027,0.51,-0.21,9.96,-0.03,-0.01,-0.01,32.49
21537190,1709,1,196016,236519,0.53,-0.23,9.96,-0.04,-0.01,-0.01,32.49
21577190,1712,1,196261,237308,0.53,-0.21,9.96,-0.03,-0.01,-0.00,32.49
21617190,1723,1,196536,237797,0.52,-0.21,9.98,-0.03,-0.01,-0.01,32.49
21656190,1803,1,196646,238548,0.51,-0.22,9.99,-0.03,-0.01,-0.01,32.49
21696190,1825,1,196727,235928,0.52,-0.20,10.00,-0.03,-0.01,-0.00,32.49
21736187,1823,1,193911,229420,0.54,-0.20,9.97,-0.03,-0.01,-0.01,32.49
21776190,1824,1,193121,229277,0.52,-0.22,9.97,-0.03,-0.01,-0.01,32.49
21816190,1840,1,193591,230665,0.52,-0.23,9.95,-0.03,-0.01,-0.00,32.49
21856190,1821,1,194206,232429,0.51,-0.21,9.99,-0.03,-0.01,-0.00,32.49
21896877,1744,1,195048,234659,0.53,-0.21,9.95,-0.03,-0.01,-0.01,32.59
21937190,1786,1,195708,236142,0.52,-0.23,9.97,-0.03,-0.01,-0.01,32.59
21977190,1787,1,196056,236511,0.53,-0.20,9.97,-0.04,-0.01,-0.01,32.59
22017190,1785,1,196048,236647,0.53,-0.20,9.97,-0.03,-0.01,-0.01,32.59
22057187,1788,1,196242,237296,0.52,-0.21,9.98,-0.03,-0.01,-0.01,32.59
22097190,1789,1,196522,238005,0.55,-0.21,9.97,-0.04,-0.01,-0.01,32.59
22137190,1807,1,196685,238587,0.52,-0.21,9.98,-0.03,-0.01,-0.01,32.59
22177190,1814,1,196924,239257,0.51,-0.21,9.99,-0.04,-0.01,-0.01,32.59
22217190,1820,1,197099,238016,0.52,-0.23,9.97,-0.04,-0.01,-0.01,32.59
22257190,1841,1,194735,230539,0.52,-0.21,9.96,-0.03,-0.01,-0.01,32.59
22297190,1843,1,193495,229996,0.51,-0.22,9.97,-0.03,-0.01,-0.01,32.59
22337190,1838,1,193929,231679,0.53,-0.21,9.98,-0.03,-0.01,-0.00,32.59
22377190,1813,1,194601,233529,0.52,-0.21,9.96,-0.03,-0.01,-0.01,32.59
22417190,1819,1,195370,235621,0.51,-0.21,9.97,-0.03,-0.01,-0.00,32.59
22457190,1840,1,196052,236895,0.53,-0.23,9.98,-0.03,-0.01,-0.01,32.59
22497190,1812,1,196235,237136,0.53,-0.19,9.99,-0.04,-0.01,-0.01,32.59
22537190,1825,1,196276,237329,0.53,-0.21,9.96,-0.03,-0.01,-0.01,32.59
22577190,1843,1,196389,237742,0.52,-0.21,9.97,-0.03,-0.01,-0.01,32.59
22617190,1866,1,196545,238247,0.50,-0.21,9.97,-0.03,-0.01,-0.01,32.59
22658228,1847,1,196794,238934,0.51,-0.22,9.97,-0.03,-0.01,-0.01,32.59
22698190,1838,1,196961,239388,0.53,-0.22,9.98,-0.03,-0.01,-0.01,32.59
22738190,1843,1,197042,236892,0.54,-0.21,9.98,-0.03,-0.01,-0.01,32.59
22778190,1856,1,194144,229718,0.52,-0.20,9.98,-0.03,-0.01,-0.01,32.59
22818190,1856,1,193168,229606,0.50,-0.21,9.96,-0.03,-0.01,-0.01,32.59
22858209,1866,1,193756,231348,0.53,-0.22,9.98,-0.03,-0.01,-0.01,32.59
22898877,1834,1,194457,233167,0.51,-0.22,9.95,-0.03,-0.01,-0.01,32.41
22937190,1923,1,195202,235211,0.51,-0.20,9.97,-0.03,-0.01,-0.01,32.41
22977190,1911,1,195741,235933,0.52,-0.22,9.98,-0.04,-0.01,-0.01,32.41
23017190,1913,1,195884,235888,0.50,-0.20,9.97,-0.04,-0.01,-0.01,32.41
23057190,1903,1,195814,236191,0.51,-0.21,9.95,-0.03,-0.01,-0.01,32.41
23097190,1903,1,196054,236850,0.52,-0.22,9.97,-0.03,-0.01,-0.01,32.41
23137190,1897,1,196196,237467,0.52,-0.23,9.97,-0.03,-0.01,-0.01,32.41
23177190,1904,1,196493,238078,0.51,-0.21,9.96,-0.03,-0.01,-0.01,32.41
23217190,1902,1,196816,238921,0.52,-0.20,9.96,-0.03,-0.01,-0.01,32.41
23257190,1876,1,196783,235647,0.53,-0.22,10.00,-0.03,-0.01,-0.00,32.41
23297190,1891,1,193819,229247,0.51,-0.22,9.98,-0.03,-0.01,-0.00,32.41
23337190,1901,1,192981,229129,0.54,-0.20,9.97,-0.03,-0.01,-0.01,32.41
23377190,1888,1,193479,230642,0.51,-0.21,9.97,-0.03,-0.01,-0.01,32.41
23417190,1904,1,194167,232513,0.51,-0.23,9.98,-0.03,-0.01,-0.01,32.41
23457190,1882,1,194866,234770,0.50,-0.22,9.98,-0.03,-0.01,-0.01,32.41
23497190,1887,1,195682,236150,0.52,-0.21,9.96,-0.04,-0.00,-0.01,32.41
23537190,1904,1,196014,236428,0.52,-0.21,9.96,-0.04,-0.01,-0.01,32.41
23577190,1895,1,195957,236579,0.53,-0.21,9.97,-0.03,-0.01,-0.01,32.41
23617190,1904,1,196096,237072,0.51,-0.21,9.98,-0.03,-0.01,-0.01,32.41
23657190,1898,1,196295,237719,0.51,-0.19,9.97,-0.03,-0.01,-0.01,32.41
23697190,1899,1,196560,238304,0.52,-0.21,9.99,-0.03,-0.01,-0.01,32.41
23737190,1893,1,196832,239028,0.54,-0.20,9.97,-0.04,-0.01,-0.00,32.41
23777190,1917,1,196935,237487,0.52,-0.19,9.98,-0.03,-0.00,-0.01,32.41
23817190,1917,1,194452,229731,0.53,-0.22,9.97,-0.03,-0.01,-0.01,32.41
23857190,1917,1,193088,229171,0.53,-0.19,9.98,-0.03,-0.01,-0.01,32.41
23897190,1915,1,193345,230419,0.53,-0.24,9.96,-0.03,-0.01,-0.01,32.41
23937877,1866,1,193948,232128,0.51,-0.23,9.98,-0.03,-0.01,-0.00,32.39
23978190,1886,1,194622,234432,0.53,-0.23,9.97,-0.03,-0.01,-0.01,32.39
24018190,1884,1,195558,236213,0.52,-0.21,9.99,-0.03,-0.01,-0.00,32.39
24058190,1886,1,195804,236687,0.53,-0.20,9.96,-0.04,-0.01,-0.01,32.39
24098190,1892,1,196058,237051,0.52,-0.21,9.96,-0.03,-0.01,-0.01,32.39
24138190,1890,1,196068,237313,0.52,-0.20,9.97,-0.03,-0.01,-0.01,32.39
24178191,1904,1,196355,237948,0.53,-0.20,9.99,-0.03,-0.01,-0.00,32.39
24218188,1915,1,196452,238574,0.53,-0.22,9.96,-0.03,-0.01,-0.01,32.39
24258190,1916,1,196721,239213,0.52,-0.21,9.96,-0.03,-0.01,-0.01,32.39
24298194,1919,1,196949,239403,0.53,-0.21,9.99,-0.04,-0.01,-0.01,32.39
24338191,1909,1,196000,231897,0.52,-0.21,9.98,-0.04,-0.01,-0.01,32.39
24378190,1919,1,193248,229308,0.53,-0.22,9.98,-0.03,-0.01,-0.01,32.39
24418190,1935,1,193418,230392,0.51,-0.21,9.97,-0.03,-0.01,-0.01,32.39
24458191,1925,1,193937,232165,0.52,-0.19,9.94,-0.03,-0.01,-0.00,32.39
24498220,1963,1,194788,234396,0.55,-0.20,9.95,-0.03,-0.01,-0.01,32.39
24538190,1945,1,195635,236545,0.54,-0.23,9.98,-0.03,-0.01,-0.01,32.39
24578191,1949,1,196073,237205,0.54,-0.20,9.98,-0.04,-0.01,-0.01,32.39
24618191,1946,1,196245,237383,0.51,-0.19,9.97,-0.03,-0.01,-0.00,32.39
24658190,1940,1,196376,237626,0.53,-0.20,9.99,-0.04,-0.01,-0.01,32.39
24698222,1930,1,196369,237911,0.53,-0.21,9.96,-0.03,-0.01,-0.01,32.39
24738190,1945,1,196672,238404,0.53,-0.21,9.95,-0.03,-0.01,-0.01,32.39
24778190,1959,1,196852,239088,0.51,-0.20,9.98,-0.03,-0.01,-0.01,32.39
24818190,1950,1,197156,239670,0.54,-0.21,9.95,-0.03,-0.01,-0.00,32.39
24858190,1952,1,196855,234850,0.52,-0.20,9.97,-0.03,-0.01,-0.01,32.39
24898190,1959,1,193871,229979,0.53,-0.20,9.97,-0.03,-0.01,-0.01,32.39
24938874,1924,1,193509,230576,0.51,-0.20,9.97,-0.03,-0.01,-0.01,32.41
24977190,1953,1,194295,232965,0.53,-0.20,9.99,-0.03,-0.01,-0.00,32.41
25017187,1968,1,195194,235462,0.52,-0.21,9.97,-0.04,-0.01,-0.01,32.41
25057190,1953,1,196008,237282,0.51,-0.23,9.97,-0.03,-0.01,-0.00,32.41
25097190,1971,1,196520,238205,0.52,-0.20,9.96,-0.03,-0.01,-0.00,32.41
25137191,1968,1,196655,238379,0.52,-0.21,9.97,-0.03,-0.01,-0.01,32.41
25177190,1949,1,196710,238603,0.53,-0.20,9.96,-0.03,-0.01,-0.01,32.41
25217190,1945,1,196837,238957,0.52,-0.21,9.98,-0.04,-0.01,-0.00,32.41
25257190,1942,1,196968,239399,0.50,-0.20,9.97,-0.03,-0.01,-0.01,32.41
25297190,1936,1,197135,239853,0.51,-0.21,9.98,-0.03,-0.01,-0.01,32.41
25337190,1925,1,197334,240311,0.52,-0.21,9.98,-0.03,-0.01,-0.01,32.41
25377190,1923,1,197266,237494,0.51,-0.21,9.98,-0.03,-0.01,-0.01,32.41
25417190,1919,1,194607,230878,0.53,-0.21,9.97,-0.03,-0.01,-0.00,32.41
25457190,1909,1,193772,231108,0.50,-0.21,9.98,-0.03,-0.01,-0.01,32.41
25497190,1905,1,194382,233012,0.54,-0.21,9.95,-0.03,-0.01,-0.01,32.41
25537190,1904,1,195230,235443,0.51,-0.21,9.98,-0.03,-0.01,-0.01,32.41
25577190,1911,1,196119,237449,0.51,-0.22,9.99,-0.03,-0.01,-0.00,32.41
25617190,1899,1,196557,238291,0.55,-0.20,9.95,-0.03,-0.01,-0.01,32.41
25657190,1905,1,196769,238467,0.52,-0.21,9.95,-0.03,-0.01,-0.01,32.41
25697190,1885,1,196777,238512,0.54,-0.21,9.97,-0.03,-0.01,-0.00,32.41
25737190,1886,1,196788,238653,0.51,-0.21,9.98,-0.03,-0.01,-0.01,32.41
25777190,1855,1,196890,239115,0.51,-0.21,9.98,-0.03,-0.01,-0.01,32.41
25817190,1853,1,197084,239732,0.51,-0.19,9.97,-0.04,-0.01,-0.01,32.41
25857190,1852,1,197312,240256,0.51,-0.20,9.98,-0.03,-0.01,-0.01,32.41
25897190,1831,1,197213,236852,0.53,-0.20,9.96,-0.03,-0.01,-0.01,32.41
25937197,1835,1,194290,230400,0.52,-0.22,9.98,-0.03,-0.01,-0.01,32.41
25977877,1809,1,193591,230407,0.52,-0.21,9.98,-0.03,-0.01,-0.01,32.39
26018190,1827,1,194116,232323,0.53,-0.21,9.96,-0.03,-0.01,-0.00,32.39
26058190,1838,1,194919,234469,0.51,-0.21,9.95,-0.03,-0.01,-0.01,32.39
26098190,1823,1,195781,236601,0.52,-0.21,9.94,-0.04,-0.01,-0.01,32.39
26138198,1829,1,196305,237545,0.52,-0.22,9.96,-0.03,-0.01,-0.01,32.39
26178190,1842,1,196480,237758,0.51,-0.21,9.96,-0.03,-0.01,-0.01,32.39
26218190,1854,1,196503,237987,0.52,-0.22,9.95,-0.03,-0.01,-0.01,32.39
26258190,1870,1,196625,238265,0.52,-0.22,9.97,-0.03,-0.01,-0.01,32.39
26298190,1902,1,196745,238765,0.51,-0.23,9.99,-0.03,-0.01,-0.01,32.39
26338194,1903,1,196932,239256,0.51,-0.21,9.96,-0.03,-0.01,-0.01,32.39
26378190,1934,1,197123,239821,0.53,-0.20,9.96,-0.03,-0.01,-0.00,32.39
26418190,1942,1,196815,234551,0.51,-0.22,9.97,-0.03,-0.01,-0.01,32.39
26458190,1943,1,193845,229802,0.53,-0.22,9.96,-0.03,-0.01,-0.01,32.39
26498190,1949,1,193397,230175,0.51,-0.22,9.98,-0.03,-0.01,-0.01,32.39
26538190,1957,1,193880,231645,0.53,-0.21,9.99,-0.03,-0.01,-0.01,32.39
26578191,1953,1,194584,233454,0.52,-0.20,9.98,-0.03,-0.01,-0.01,32.39
26618190,1929,1,195365,235693,0.53,-0.20,9.98,-0.03,-0.01,-0.01,32.39
26658190,1904,1,195959,236647,0.51,-0.20,9.97,-0.04,-0.01,-0.00,32.39
26698191,1886,1,196128,236935,0.52,-0.22,10.01,-0.03,-0.01,-0.01,32.39
26738190,1868,1,196218,237275,0.52,-0.22,9.96,-0.03,-0.01,-0.00,32.39
26778190,1823,1,196269,237688,0.52,-0.21,9.96,-0.04,-0.01,-0.01,32.39
26818190,1789,1,196458,238240,0.53,-0.22,9.99,-0.03,-0.01,-0.00,32.39
26858190,1774,1,196779,238977,0.52,-0.22,9.97,-0.03,-0.01,-0.00,32.39
26898190,1742,1,196965,239202,0.49,-0.22,9.98,-0.03,-0.01,-0.00,32.39
26938190,1738,1,195960,232024,0.51,-0.20,9.94,-0.03,-0.01,-0.01,32.39
26978877,1693,1,193317,229382,0.53,-0.21,9.97,-0.03,-0.01,-0.01,32.41
27017190,1705,1,193289,230057,0.50,-0.20,9.97,-0.03,-0.01,-0.01,32.41
27057191,1711,1,193775,231517,0.51,-0.20,9.97,-0.03,-0.01,-0.01,32.41
27097190,1702,1,194461,233559,0.55,-0.19,9.98,-0.03,-0.01,-0.01,32.41
27137190,1687,1,195334,235685,0.52,-0.20,9.96,-0.03,-0.01,-0.01,32.41
27177191,1679,1,195876,236610,0.52,-0.20,9.96,-0.03,-0.01,-0.01,32.41
27217190,1705,1,196029,236780,0.50,-0.21,9.99,-0.03,-0.01,-0.01,32.41
27257190,1701,1,196046,236932,0.51,-0.21,9.96,-0.04,-0.01,-0.01,32.41
27297190,1679,1,196087,237353,0.53,-0.22,9.97,-0.04,-0.01,-0.01,32.41
27337190,1682,1,196296,238037,0.52,-0.21,9.96,-0.03,-0.01,-0.01,32.41
27377190,1685,1,196615,238823,0.52,-0.22,9.97,-0.03,-0.01,-0.01,32.41
27417190,1679,1,196838,238334,0.52,-0.21,9.98,-0.03,-0.01,-0.01,32.41
27457190,1686,1,194832,230538,0.52,-0.20,9.97,-0.03,-0.01,-0.01,32.41
27497190,1670,1,193114,229373,0.50,-0.22,9.96,-0.04,-0.01,-0.01,32.41
27537190,1682,1,193305,230483,0.52,-0.20,9.97,-0.03,-0.01,-0.01,32.41
27577190,1709,1,193984,232254,0.52,-0.22,9.96,-0.04,-0.01,-0.00,32.41
27617190,1730,1,194718,234520,0.54,-0.20,9.95,-0.03,-0.01,-0.01,32.41
27657190,1731,1,195560,236159,0.51,-0.22,9.99,-0.04,-0.01,-0.01,32.41
27697190,1771,1,195870,236623,0.51,-0.22,9.98,-0.03,-0.01,-0.00,32.41
27737190,1791,1,195891,236882,0.51,-0.22,9.96,-0.03,-0.01,-0.01,32.41
27777233,1828,1,195967,237228,0.52,-0.21,9.98,-0.04,-0.01,-0.01,32.41
27817190,1821,1,196189,237749,0.50,-0.19,9.97,-0.04,-0.01,-0.00,32.41
27857190,1834,1,196384,238319,0.51,-0.22,9.94,-0.04,-0.01,-0.01,32.41
27897190,1853,1,196616,239035,0.52,-0.21,9.98,-0.03,-0.01,-0.01,32.41
27937190,1858,1,196662,235745,0.52,-0.22,9.99,-0.04,-0.01,-0.01,32.41
27977226,1862,1,193875,229813,0.51,-0.21,9.98,-0.03,-0.01,-0.01,32.41
28017877,1792,1,193207,229974,0.52,-0.22,10.00,-0.03,-0.01,-0.01,32.47
28058191,1803,1,193683,231410,0.51,-0.20,9.96,-0.03,-0.01,-0.01,32.47
28098190,1783,1,194305,233249,0.52,-0.20,9.97,-0.03,-0.01,-0.01,32.47
28138190,1771,1,195195,235575,0.52,-0.20,9.99,-0.03,-0.01,-0.01,32.47
28178190,1733,1,195806,236649,0.51,-0.22,9.98,-0.03,-0.01,-0.00,32.47
28218190,1728,1,195975,236829,0.51,-0.20,9.98,-0.03,-0.01,-0.01,32.47
28258190,1702,1,195970,236911,0.50,-0.21,9.96,-0.03,-0.01,-0.01,32.47
28298190,1681,1,196071,237326,0.51,-0.22,9.96,-0.03,-0.01,-0.01,32.47
28338190,1659,1,196224,237974,0.53,-0.21,9.96,-0.03,-0.01,-0.00,32.47
28378190,1647,1,196443,238599,0.52,-0.21,9.94,-0.03,-0.01,-0.00,32.47
28418190,1621,1,196719,238731,0.52,-0.20,9.97,-0.03,-0.01,-0.01,32.47
28458190,1602,1,195430,231195,0.53,-0.22,9.97,-0.03,-0.01,-0.01,32.47
28498191,1598,1,193103,229127,0.52,-0.21,9.96,-0.03,-0.01,-0.01,32.47
28538190,1581,1,193107,229934,0.53,-0.20,9.98,-0.03,-0.01,-0.01,32.47
28578190,1585,1,193631,231377,0.53,-0.20,9.97,-0.03,-0.01,-0.01,32.47
28618190,1616,1,194288,233333,0.52,-0.18,9.96,-0.03,-0.01,-0.01,32.47
28658190,1603,1,195128,235247,0.53,-0.20,9.96,-0.04,-0.01,-0.01,32.47
28698190,1600,1,195538,235797,0.51,-0.23,9.96,-0.03,-0.01,-0.01,32.47
28738190,1635,1,195544,235660,0.51,-0.21,9.97,-0.03,-0.01,-0.01,32.47
28778190,1663,1,195558,235850,0.53,-0.20,9.97,-0.03,-0.01,-0.01,32.47
28818190,1671,1,195693,236615,0.51,-0.21,9.96,-0.03,-0.01,-0.01,32.47
28858190,1698,1,196037,237511,0.52,-0.21,9.98,-0.03,-0.01,-0.01,32.47
28898191,1730,1,196285,238129,0.51,-0.21,9.97,-0.03,-0.01,-0.01,32.47
28938190,1726,1,196371,234862,0.51,-0.21,9.96,-0.03,-0.01,-0.01,32.47
28978190,1772,1,193484,228823,0.53,-0.20,9.98,-0.03,-0.01,-0.01,32.47
29018877,1753,1,192713,228530,0.52,-0.22,9.98,-0.03,-0.01,-0.01,32.45
29057190,1883,1,192872,229227,0.51,-0.22,9.99,-0.03,-0.01,-0.01,32.45
29097190,1933,1,193329,230587,0.51,-0.21,9.96,-0.03,-0.01,-0.01,32.45
29137190,1936,1,193980,232380,0.51,-0.20,9.96,-0.04,-0.01,-0.01,32.45
29177190,1961,1,194561,233444,0.52,-0.19,9.96,-0.03,-0.01,-0.00,32.45
29217190,2015,1,194756,233489,0.53,-0.22,9.96,-0.03,-0.01,-0.01,32.45
29257190,2021,1,194770,233555,0.52,-0.22,9.96,-0.04,-0.01,-0.00,32.45
29297190,2061,1,194843,233904,0.51,-0.23,9.95,-0.04,-0.01,-0.01,32.45
29337190,2044,1,195036,234577,0.51,-0.20,9.98,-0.03,-0.01,-0.01,32.45
29377190,2062,1,195294,235268,0.51,-0.21,9.97,-0.03,-0.01,-0.01,32.45
29417196,2080,1,195512,235838,0.52,-0.21,9.97,-0.03,-0.01,-0.01,32.45
29457190,2062,1,194655,229580,0.53,-0.22,9.95,-0.04,-0.01,-0.00,32.45
29497190,2032,1,192442,227414,0.51,-0.22,9.96,-0.03,-0.01,-0.01,32.45
29537190,2046,1,192312,227568,0.52,-0.20,9.97,-0.03,-0.01,-0.01,32.45
29577190,2033,1,192500,228164,0.51,-0.20,9.95,-0.03,-0.01,-0.01,32.45
29617210,2046,1,192805,229059,0.53,-0.20,9.99,-0.03,-0.01,-0.01,32.45
29657190,2047,1,193341,230579,0.52,-0.20,10.01,-0.04,-0.01,-0.01,32.45
29697190,2032,1,193875,231562,0.52,-0.22,9.95,-0.03,-0.01,-0.01,32.45
29737190,2013,1,194060,231966,0.54,-0.21,9.97,-0.03,-0.00,-0.01,32.45
29777190,1969,1,194186,232423,0.52,-0.21,9.97,-0.03,-0.01,-0.01,32.45
29817207,1951,1,194401,233088,0.53,-0.20,9.96,-0.03,-0.01,-0.01,32.45
29857190,1968,1,194749,234147,0.50,-0.22,9.96,-0.03,-0.01,-0.01,32.45
29897190,1990,1,195137,235254,0.51,-0.21,9.97,-0.03,-0.01,-0.01,32.45
29937191,2035,1,195444,234347,0.51,-0.21,9.96,-0.03,-0.01,-0.01,32.45
29977190,2065,1,193308,227821,0.53,-0.21,9.96,-0.03,-0.01,-0.01,32.45
30017190,2032,1,192182,227140,0.52,-0.19,9.98,-0.03,-0.01,-0.01,32.45
30057877,1875,1,192270,227878,0.52,-0.21,9.97,-0.03,-0.01,-0.01,32.33
30098190,1891,1,192718,228964,0.52,-0.21,9.96,-0.03,-0.01,-0.01,32.33
30138190,1892,1,193247,230633,0.52,-0.20,9.97,-0.03,-0.01,-0.01,32.33
30178190,1872,1,193963,232182,0.54,-0.20,9.96,-0.03,-0.01,-0.01,32.33
30218190,1899,1,194309,232720,0.54,-0.20,9.98,-0.04,-0.01,-0.01,32.33
30258190,1904,1,194413,232991,0.51,-0.21,9.97,-0.03,-0.01,-0.01,32.33
30298190,1888,1,194529,233391,0.52,-0.20,9.98,-0.03,-0.01,-0.00,32.33
30338190,1808,1,194720,234127,0.52,-0.21,9.99,-0.03,-0.01,-0.01,32.33
30378190,1878,1,195053,235047,0.54,-0.22,9.99,-0.03,-0.01,-0.01,32.33
30418191,1929,1,195440,236197,0.53,-0.21,9.97,-0.03,-0.01,-0.00,32.33
30458190,1837,1,195603,233242,0.53,-0.22,9.98,-0.03,-0.01,-0.01,32.33
30498191,1840,1,192884,227682,0.50,-0.21,9.96,-0.03,-0.01,-0.01,32.33
30538190,1997,1,192197,227508,0.51,-0.23,9.96,-0.03,-0.01,-0.01,32.33
30578191,2097,1,192456,228430,0.52,-0.21,9.96,-0.03,-0.01,-0.01,32.33
30618190,2155,1,192948,229869,0.51,-0.21,9.98,-0.03,-0.01,-0.01,32.33
30658191,2165,1,193629,231798,0.51,-0.20,9.99,-0.03,-0.01,-0.01,32.33
30698190,2192,1,194245,232779,0.51,-0.20,9.97,-0.04,-0.00,-0.01,32.33
30738190,2176,1,194373,232796,0.51,-0.21,9.99,-0.03,-0.01,-0.00,32.33
30778190,2178,1,194333,232841,0.51,-0.22,10.01,-0.03,-0.01,-0.01,32.33
30818190,2141,1,194423,233529,0.51,-0.23,9.97,-0.03,-0.01,-0.01,32.33
30858190,2123,1,194812,234618,0.55,-0.21,9.99,-0.03,-0.01,-0.01,32.33
30898190,2106,1,195208,235840,0.53,-0.21,9.94,-0.03,-0.01,-0.01,32.33
30938190,2083,1,195648,236665,0.53,-0.21,9.98,-0.03,-0.01,-0.01,32.33
30978190,2082,1,194799,230127,0.52,-0.22,9.95,-0.03,-0.01,-0.01,32.33
31018190,2073,1,192330,227669,0.52,-0.20,9.98,-0.03,-0.01,-0.01,32.33
31058877,2055,1,192248,228132,0.53,-0.20,9.99,-0.03,-0.01,-0.00,32.33
31097190,2079,1,192561,229164,0.53,-0.23,9.97,-0.04,-0.01,-0.01,32.33
31137191,2075,1,192992,230584,0.55,-0.21,9.96,-0.03,-0.01,-0.00,32.33
31177190,2057,1,193775,232486,0.53,-0.22,9.96,-0.03,-0.01,-0.01,32.33
31217190,2017,1,194250,233356,0.52,-0.20,9.96,-0.03,-0.01,-0.01,32.33
31257204,2000,1,194444,233867,0.54,-0.21,9.96,-0.03,-0.01,-0.01,32.33
31297191,1965,1,194669,234636,0.51,-0.21,9.96,-0.03,-0.00,-0.00,32.33
31337189,1936,1,195021,235635,0.52,-0.22,9.99,-0.03,-0.01,-0.01,32.33
31377190,1915,1,195299,236248,0.51,-0.21,9.95,-0.03,-0.01,-0.01,32.33
31417190,1873,1,195502,236895,0.50,-0.21,9.98,-0.03,-0.01,-0.01,32.33
31457190,1844,1,195673,235822,0.55,-0.22,9.99,-0.03,-0.01,-0.01,32.33
31497190,1831,1,193298,228118,0.52,-0.21,9.96,-0.03,-0.01,-0.01,32.33
31537190,1813,1,191875,227247,0.52,-0.22,9.98,-0.04,-0.01,-0.01,32.33
31577190,1811,1,192065,228123,0.52,-0.22,9.97,-0.04,-0.01,-0.00,32.33
31617190,1791,1,192565,229313,0.51,-0.19,9.98,-0.03,-0.01,-0.01,32.33
31657190,1782,1,193090,230917,0.52,-0.22,9.95,-0.03,-0.01,-0.01,32.33
31697190,1779,1,193797,232412,0.50,-0.20,9.96,-0.03,-0.01,-0.01,32.33
31737190,1760,1,194143,233004,0.55,-0.21,9.96,-0.03,-0.01,-0.01,32.33
31779191,1749,1,194289,233184,0.53,-0.20,9.99,-0.03,-0.01,-0.00,32.33
31819188,1747,1,194391,233705,0.53,-0.20,10.01,-0.03,-0.01,-0.01,32.33
31859190,1772,1,194591,234391,0.51,-0.20,9.98,-0.03,-0.01,-0.00,32.33
31899188,1727,1,194879,235178,0.53,-0.21,9.96,-0.03,-0.01,-0.01,32.33
31939190,1742,1,195172,236024,0.52,-0.21,9.98,-0.03,-0.01,-0.01,32.33
31979190,1751,1,195407,234009,0.54,-0.20,9.97,-0.04,-0.01,-0.01,32.33
32019190,1770,1,192673,227382,0.54,-0.20,9.99,-0.04,-0.01,-0.01,32.33
32059874,1808,1,191798,226864,0.54,-0.20,9.98,-0.03,-0.01,-0.01,32.35
32098190,1783,1,191954,227487,0.51,-0.20,9.98,-0.03,-0.01,-0.01,32.35
32138187,1791,1,192272,228405,0.53,-0.21,9.98,-0.03,-0.01,-0.01,32.35
32178190,1808,1,192821,229940,0.53,-0.20,9.97,-0.03,-0.01,-0.01,32.35
32218190,1817,1,193421,231081,0.52,-0.23,9.98,-0.03,-0.01,-0.01,32.35
32258190,1825,1,193591,231291,0.52,-0.21,9.97,-0.03,-0.01,-0.01,32.35
32298190,1833,1,193712,231706,0.51,-0.23,9.93,-0.03,-0.01,-0.01,32.35
32338190,1858,1,193908,232539,0.53,-0.21,9.96,-0.03,-0.01,-0.01,32.35
32378190,1871,1,194288,233397,0.54,-0.22,9.97,-0.04,-0.01,-0.01,32.35
32418190,1874,1,194601,234303,0.52,-0.22,9.95,-0.03,-0.01,-0.00,32.35
32458190,1863,1,194971,235248,0.54,-0.21,9.95,-0.04,-0.01,-0.01,32.35
32498190,1875,1,195264,234012,0.51,-0.21,9.99,-0.03,-0.01,-0.01,32.35
32538190,1872,1,192776,227082,0.51,-0.22,9.98,-0.03,-0.01,-0.01,32.35
32578190,1872,1,191622,226542,0.52,-0.21,9.97,-0.03,-0.01,-0.00,32.35
32618190,1872,1,191810,227380,0.53,-0.21,9.99,-0.03,-0.01,-0.01,32.35
32658190,1869,1,192304,228530,0.52,-0.20,9.95,-0.03,-0.01,-0.01,32.35
32699187,1885,1,192749,230125,0.50,-0.22,9.97,-0.03,-0.01,-0.00,32.35
32739190,1883,1,193481,231491,0.53,-0.20,9.97,-0.03,-0.01,-0.01,32.35
32779190,1870,1,193809,232032,0.51,-0.21,9.99,-0.03,-0.01,-0.01,32.35
32819190,1879,1,193903,232325,0.54,-0.22,9.95,-0.03,-0.01,-0.00,32.35
32859190,1840,1,193989,232750,0.52,-0.20,9.96,-0.04,-0.01,-0.00,32.35
32899197,1870,1,194240,233538,0.52,-0.20,10.00,-0.03,-0.01,-0.01,32.35
32939187,1856,1,194580,234403,0.52,-0.21,9.96,-0.03,-0.01,-0.00,32.35
32979190,1852,1,194915,235383,0.52,-0.21,9.97,-0.03,-0.01,-0.01,32.35
33019190,1815,1,195232,235697,0.51,-0.21,9.97,-0.03,-0.01,-0.01,32.35
33059876,1821,1,193745,228288,0.52,-0.20,9.95,-0.03,-0.01,-0.01,32.41
33098193,1818,1,191816,226846,0.53,-0.21,9.96,-0.03,-0.01,-0.01,32.41
33138190,1789,1,191824,227500,0.53,-0.21,9.98,-0.03,-0.01,-0.01,32.41
33178190,1805,1,192276,228640,0.51,-0.22,9.98,-0.03,-0.01,-0.01,32.41
33218190,1812,1,192783,230187,0.53,-0.21,9.96,-0.03,-0.01,-0.01,32.41
33258190,1808,1,193473,231805,0.51,-0.22,9.99,-0.03,-0.01,-0.01,32.41
33298190,1769,1,193945,232492,0.53,-0.22,9.99,-0.03,-0.01,-0.01,32.41
33338190,1791,1,194059,232548,0.51,-0.21,9.99,-0.03,-0.01,-0.01,32.41
33378190,1794,1,194072,232856,0.52,-0.20,9.98,-0.03,-0.01,-0.01,32.41
33418190,1793,1,194328,233598,0.53,-0.22,9.96,-0.03,-0.01,-0.01,32.41
33458190,1787,1,194645,234513,0.50,-0.21,9.95,-0.03,-0.01,-0.01,32.41
33498187,1793,1,194919,235482,0.51,-0.23,9.95,-0.03,-0.01,-0.01,32.41
33538190,1798,1,195311,235822,0.52,-0.22,9.96,-0.03,-0.01,-0.01,32.41
33578190,1793,1,193766,228356,0.51,-0.22,9.97,-0.03,-0.01,-0.01,32.41
33618190,1793,1,191757,226982,0.52,-0.21,9.96,-0.03,-0.01,-0.01,32.41
33658190,1793,1,191904,227759,0.52,-0.21,9.97,-0.04,-0.01,-0.01,32.41
33698190,1774,1,192341,228895,0.51,-0.22,9.98,-0.03,-0.01,-0.00,32.41
33739190,1745,1,192869,230543,0.52,-0.19,9.96,-0.03,-0.01,-0.01,32.41
33779190,1744,1,193683,232364,0.52,-0.22,9.97,-0.03,-0.01,-0.01,32.41
33819190,1745,1,194118,232977,0.52,-0.22,9.95,-0.03,-0.01,-0.01,32.41
33859190,1744,1,194180,232953,0.53,-0.22,9.95,-0.03,-0.01,-0.01,32.41
33899190,1754,1,194251,233207,0.53,-0.21,9.98,-0.04,-0.01,-0.01,32.41
33939190,1751,1,194377,233727,0.53,-0.21,9.96,-0.03,-0.01,-0.01,32.41
33979190,1771,1,194608,234507,0.52,-0.22,9.99,-0.03,-0.01,-0.01,32.41
34019190,1775,1,194994,235555,0.54,-0.21,9.96,-0.03,-0.01,-0.01,32.41
34059876,1744,1,195379,236147,0.53,-0.21,9.97,-0.03,-0.01,-0.01,32.41
34098190,1826,1,194126,228692,0.52,-0.21,9.98,-0.03,-0.01,-0.01,32.41
34138190,1860,1,191719,226675,0.53,-0.21,9.95,-0.03,-0.01,-0.01,32.41
34178190,1854,1,191654,227019,0.54,-0.20,9.96,-0.03,-0.01,-0.01,32.41
34218187,1840,1,192002,227956,0.52,-0.21,9.95,-0.03,-0.01,-0.01,32.41
34258190,1807,1,192492,229440,0.51,-0.22,9.98,-0.04,-0.01,-0.00,32.41
34298190,1833,1,193217,231298,0.51,-0.22,9.98,-0.03,-0.01,-0.01,32.41
34338190,1846,1,193751,232125,0.51,-0.22,9.99,-0.03,-0.01,-0.01,32.41
34378190,1845,1,193873,232194,0.52,-0.23,9.97,-0.03,-0.01,-0.01,32.41
34418189,1847,1,193880,232411,0.53,-0.21,9.96,-0.04,-0.01,-0.01,32.41
34458190,1855,1,194063,233037,0.51,-0.22,9.95,-0.03,-0.01,-0.01,32.41
34498190,1858,1,194312,234024,0.52,-0.20,9.96,-0.03,-0.01,-0.01,32.41
34538203,1873,1,194800,235171,0.53,-0.19,9.99,-0.03,-0.01,-0.00,32.41
34578190,1852,1,195165,236075,0.52,-0.21,9.95,-0.03,-0.01,-0.01,32.41
34618190,1857,1,194742,229904,0.54,-0.22,9.97,-0.03,-0.01,-0.01,32.41
34658190,1851,1,191773,226711,0.52,-0.22,9.97,-0.03,-0.01,-0.01,32.41
34698189,1856,1,191619,227039,0.51,-0.22,9.96,-0.03,-0.01,-0.01,32.41
34739190,1814,1,191946,227926,0.52,-0.20,9.98,-0.03,-0.01,-0.00,32.41
34779187,1791,1,192408,229280,0.51,-0.22,9.96,-0.04,-0.01,-0.01,32.41
34819190,1791,1,193050,231107,0.52,-0.21,9.96,-0.04,-0.01,-0.01,32.41
34859190,1799,1,193789,232526,0.52,-0.19,9.97,-0.03,-0.01,-0.01,32.41
34899190,1799,1,194067,232876,0.52,-0.22,9.95,-0.03,-0.01,-0.01,32.41
34939190,1793,1,194155,233130,0.51,-0.21,9.98,-0.03,-0.01,-0.01,32.41
34979190,1791,1,194283,233675,0.51,-0.21,9.99,-0.03,-0.01,-0.01,32.41
35019190,1788,1,194539,234402,0.55,-0.21,9.95,-0.03,-0.01,-0.01,32.41
35059877,1732,1,194799,235297,0.52,-0.22,10.00,-0.03,-0.01,-0.01,32.35
35098190,1830,1,195164,236406,0.52,-0.20,9.98,-0.03,-0.01,-0.01,32.35
35138190,1829,1,195424,234331,0.51,-0.19,9.97,-0.03,-0.01,-0.01,32.35
35178190,1825,1,192531,227375,0.52,-0.20,9.97,-0.04,-0.01,-0.01,32.35
35218190,1829,1,191560,227027,0.54,-0.22,9.99,-0.03,-0.01,-0.01,32.35
35258190,1826,1,191846,228006,0.53,-0.20,9.97,-0.03,-0.01,-0.01,32.35
35298190,1828,1,192344,229191,0.52,-0.21,9.97,-0.03,-0.01,-0.01,32.35
35338190,1819,1,192874,230898,0.54,-0.22,9.97,-0.03,-0.01,-0.01,32.35
35378191,1840,1,193617,232429,0.52,-0.23,9.97,-0.03,-0.01,-0.00,32.35
35418191,1831,1,194026,233124,0.55,-0.22,9.97,-0.03,-0.01,-0.01,32.35
35458191,1840,1,194133,233430,0.52,-0.22,10.00,-0.03,-0.01,-0.01,32.35
35498190,1828,1,194308,233895,0.51,-0.20,9.96,-0.03,-0.01,-0.01,32.35
35538190,1838,1,194522,234521,0.52,-0.21,9.94,-0.03,-0.01,-0.00,32.35
35578190,1824,1,194791,235449,0.52,-0.21,9.97,-0.03,-0.01,-0.01,32.35
35618191,1824,1,195192,236491,0.53,-0.21,9.96,-0.03,-0.01,-0.01,32.35
35658190,1835,1,195494,236473,0.51,-0.21,9.97,-0.03,-0.01,-0.01,32.35
35698191,1825,1,193741,228668,0.54,-0.21,9.97,-0.03,-0.01,-0.01,32.35
35738191,1822,1,191733,227342,0.51,-0.21,9.98,-0.03,-0.01,-0.01,32.35
35779190,1817,1,191956,228485,0.50,-0.22,9.98,-0.03,-0.01,-0.01,32.35
35819190,1805,1,192595,230098,0.51,-0.21,9.98,-0.03,-0.01,-0.01,32.35
35859190,1806,1,193288,231932,0.51,-0.21,9.97,-0.03,-0.01,-0.01,32.35
35899190,1776,1,194010,233420,0.52,-0.22,10.00,-0.03,-0.01,-0.01,32.35
35939191,1785,1,194314,233960,0.52,-0.22,9.98,-0.03,-0.01,-0.00,32.35
35979191,1803,1,194368,233937,0.52,-0.21,9.98,-0.03,-0.01,-0.00,32.35
36019190,1798,1,194342,234130,0.50,-0.22,9.97,-0.04,-0.01,-0.01,32.35
36059877,1769,1,194530,234880,0.52,-0.23,9.96,-0.03,-0.01,-0.01,32.19
36098191,1867,1,194870,235877,0.52,-0.20,9.96,-0.03,-0.01,-0.01,32.19
36138190,1865,1,195194,236675,0.53,-0.20,9.98,-0.03,-0.01,-0.01,32.19
36178190,1887,1,195422,236510,0.53,-0.22,9.95,-0.03,-0.01,-0.01,32.19
36218190,1872,1,193524,228459,0.53,-0.19,9.98,-0.03,-0.01,-0.01,32.19
36258191,1871,1,191552,227192,0.51,-0.19,9.96,-0.03,-0.01,-0.01,32.19
36298190,1873,1,191606,227926,0.52,-0.22,9.94,-0.03,-0.01,-0.00,32.19
36338190,1881,1,192087,229018,0.52,-0.22,9.97,-0.03,-0.01,-0.01,32.19
36378196,1894,1,192590,230614,0.51,-0.21,9.97,-0.03,-0.01,-0.01,32.19
36418190,1871,1,193415,232562,0.52,-0.22,9.98,-0.03,-0.01,-0.01,32.19
36458190,1878,1,193952,233201,0.52,-0.21,9.97,-0.03,-0.01,-0.01,32.19
36498190,1879,1,194012,233151,0.52,-0.21,9.94,-0.03,-0.01,-0.01,32.19
36538190,1885,1,193944,233369,0.51,-0.22,9.96,-0.03,-0.01,-0.01,32.19
36578217,1893,1,194116,233954,0.50,-0.20,9.95,-0.04,-0.01,-0.01,32.19
36618190,1892,1,194407,234738,0.53,-0.21,9.97,-0.03,-0.01,-0.01,32.19
36658190,1897,1,194768,235736,0.51,-0.22,10.00,-0.04,-0.01,-0.01,32.19
36698190,1902,1,195078,236368,0.51,-0.19,9.98,-0.03,-0.01,-0.01,32.19
36738191,1895,1,193970,229015,0.49,-0.21,9.95,-0.03,-0.01,-0.00,32.19
36778190,1902,1,191523,227044,0.50,-0.22,9.98,-0.03,-0.01,-0.00,32.19
36819190,1840,1,191515,227614,0.53,-0.22,9.97,-0.03,-0.01,-0.01,32.19
36859190,1854,1,191945,228750,0.52,-0.22,9.98,-0.03,-0.01,-0.01,32.19
36899190,1851,1,192412,229910,0.52,-0.22,9.98,-0.04,-0.01,-0.01,32.19
36939190,1869,1,193031,231567,0.52,-0.22,9.98,-0.03,-0.01,-0.00,32.19
36979190,1881,1,193509,232387,0.51,-0.22,9.96,-0.03,-0.01,-0.01,32.19
37019191,1886,1,193641,232457,0.53,-0.19,9.97,-0.03,-0.01,-0.01,32.19
37059877,1827,1,193643,232646,0.52,-0.20,9.96,-0.03,-0.01,-0.01,32.27
37098190,1942,1,193793,233191,0.52,-0.20,9.95,-0.03,-0.01,-0.01,32.27
37138190,1936,1,194055,234146,0.51,-0.21,9.96,-0.03,-0.01,-0.01,32.27
37178190,1938,1,194526,235287,0.51,-0.22,9.99,-0.03,-0.01,-0.00,32.27
37218190,1937,1,194896,236252,0.52,-0.22,9.97,-0.03,-0.01,-0.01,32.27
37258190,1949,1,194846,231312,0.50,-0.22,10.01,-0.03,-0.01,-0.01,32.27
37298190,1950,1,191718,226997,0.51,-0.21,9.97,-0.03,-0.01,-0.01,32.27
37338190,1952,1,191339,227053,0.50,-0.20,9.97,-0.03,-0.01,-0.01,32.27
37378190,1952,1,191554,227898,0.52,-0.21,9.98,-0.03,-0.01,-0.00,32.27
37418190,1950,1,192016,229091,0.51,-0.21,9.95,-0.03,-0.01,-0.01,32.27
37458190,1964,1,192640,230850,0.52,-0.21,9.96,-0.03,-0.01,-0.01,32.27
37498190,1975,1,193260,231853,0.51,-0.20,9.96,-0.03,-0.01,-0.01,32.27
37538190,1971,1,193428,231983,0.51,-0.21,10.01,-0.03,-0.01,-0.00,32.27
37578190,1979,1,193421,232102,0.52,-0.19,9.98,-0.03,-0.01,-0.01,32.27
37618190,1969,1,193558,232641,0.52,-0.20,9.98,-0.03,-0.01,-0.01,32.27
37658190,1973,1,193849,233353,0.52,-0.21,9.97,-0.03,-0.01,-0.01,32.27
37698190,1983,1,194130,234275,0.52,-0.20,9.96,-0.03,-0.01,-0.01,32.27
37738190,1965,1,194485,235396,0.51,-0.22,9.98,-0.03,-0.01,-0.01,32.27
37778190,1958,1,194948,234469,0.52,-0.20,9.98,-0.03,-0.01,-0.01,32.27
37819191,1933,1,192409,227345,0.51,-0.21,9.98,-0.03,-0.01,-0.01,32.27
37859190,1923,1,191327,226795,0.51,-0.21,9.96,-0.03,-0.01,-0.01,32.27
37899190,1920,1,191483,227754,0.52,-0.21,10.00,-0.04,-0.01,-0.01,32.27
37939190,1925,1,192085,229222,0.52,-0.21,9.99,-0.03,-0.01,-0.01,32.27
37979190,1934,1,192621,230802,0.51,-0.21,9.95,-0.03,-0.01,-0.01,32.27
38019230,1964,1,193344,232151,0.51,-0.22,9.95,-0.03,-0.01,-0.01,32.27
38059877,1893,1,193533,232551,0.51,-0.22,9.95,-0.04,-0.01,-0.01,32.21
38098190,1977,1,193686,233111,0.51,-0.22,9.99,-0.03,-0.01,-0.01,32.21
38138191,1983,1,193913,233736,0.51,-0.22,9.97,-0.03,-0.01,-0.01,32.21
38178191,1979,1,194208,234707,0.51,-0.21,9.96,-0.03,-0.01,-0.01,32.21
38218196,1975,1,194558,235656,0.50,-0.20,9.96,-0.03,-0.01,-0.01,32.21
38258190,1959,1,194910,236418,0.52,-0.22,9.98,-0.03,-0.01,-0.01,32.21
38298190,1954,1,195183,237042,0.53,-0.21,9.95,-0.03,-0.01,-0.00,32.21
38338190,1951,1,194680,230801,0.54,-0.22,9.99,-0.03,-0.01,-0.01,32.21
38378190,1951,1,191557,227045,0.52,-0.22,9.99,-0.04,-0.01,-0.01,32.21
38418190,1951,1,191322,227430,0.51,-0.21,9.98,-0.03,-0.01,-0.01,32.21
38458190,1941,1,191722,228768,0.51,-0.21,9.98,-0.03,-0.01,-0.01,32.21
38498190,1923,1,192429,230495,0.51,-0.21,9.98,-0.04,-0.01,-0.01,32.21
38538190,1925,1,193236,232578,0.53,-0.21,9.97,-0.03,-0.01,-0.00,32.21
38578190,1915,1,193916,233696,0.51,-0.21,9.98,-0.04,-0.01,-0.00,32.21
38618190,1909,1,194031,233727,0.50,-0.20,9.98,-0.03,-0.01,-0.01,32.21
38658190,1899,1,193951,233672,0.50,-0.22,9.97,-0.04,-0.01,-0.01,32.21
38698190,1886,1,194104,234175,0.52,-0.21,9.96,-0.03,-0.01,-0.01,32.21
38738191,1886,1,194398,235149,0.53,-0.20,9.98,-0.03,-0.01,-0.01,32.21
38778190,1901,1,194793,236129,0.51,-0.22,9.96,-0.03,-0.01,-0.01,32.21
38818190,1897,1,195218,237035,0.53,-0.22,9.98,-0.03,-0.01,-0.00,32.21
38859190,1903,1,195406,235123,0.53,-0.21,9.98,-0.03,-0.01,-0.01,32.21
38899190,1925,1,192514,227824,0.52,-0.19,9.96,-0.03,-0.01,-0.01,32.21
38939190,1939,1,191416,227417,0.51,-0.21,9.96,-0.03,-0.01,-0.01,32.21
38979190,1959,1,191754,228615,0.52,-0.21,9.95,-0.03,-0.01,-0.01,32.21
39019190,1972,1,192359,229964,0.54,-0.23,9.98,-0.03,-0.01,-0.01,32.21
39059190,1994,1,192952,231685,0.53,-0.22,9.95,-0.04,-0.01,-0.00,32.21
39099877,2019,1,193657,232953,0.52,-0.22,9.98,-0.03,-0.01,-0.01,32.17
39138191,2055,1,193890,233250,0.51,-0.22,9.96,-0.03,-0.01,-0.01,32.17
39178190,2062,1,193843,233197,0.51,-0.22,9.98,-0.03,-0.01,-0.01,32.17
39218191,2064,1,193900,233520,0.51,-0.23,9.96,-0.04,-0.01,-0.01,32.17
39258190,2073,1,194111,234209,0.51,-0.23,9.97,-0.04,-0.01,-0.01,32.17
39298191,2079,1,194432,235085,0.50,-0.23,10.01,-0.04,-0.01,-0.01,32.17
39338190,2073,1,194782,236207,0.50,-0.21,9.98,-0.03,-0.01,-0.01,32.17
39378191,2077,1,195184,236275,0.51,-0.22,9.97,-0.03,-0.01,-0.01,32.17
39418190,2043,1,193254,228409,0.51,-0.22,9.96,-0.03,-0.01,-0.01,32.17
39458191,2032,1,191444,227349,0.51,-0.21,9.98,-0.03,-0.01,-0.00,32.17
39498190,2025,1,191581,228203,0.53,-0.24,9.99,-0.03,-0.01,-0.01,32.17
39538191,1999,1,192119,229521,0.52,-0.21,9.96,-0.03,-0.01,-0.01,32.17
39578190,1973,1,192714,231250,0.53,-0.20,9.98,-0.03,-0.01,-0.01,32.17
39618190,1963,1,193512,233097,0.50,-0.22,9.97,-0.03,-0.01,-0.01,32.17
39658195,1954,1,194044,233962,0.50,-0.21,9.98,-0.03,-0.01,-0.00,32.17
39698190,1935,1,194179,234062,0.53,-0.21,9.96,-0.03,-0.01,-0.00,32.17
39738190,1906,1,194254,234319,0.51,-0.21,9.97,-0.04,-0.01,-0.01,32.17
39778191,1890,1,194391,234934,0.49,-0.21,9.96,-0.03,-0.01,-0.00,32.17
39818190,1868,1,194687,235817,0.50,-0.22,9.98,-0.03,-0.01,-0.01,32.17
39858223,1871,1,194996,236571,0.51,-0.20,9.97,-0.03,-0.01,-0.00,32.17
39898190,1849,1,195300,237224,0.51,-0.20,9.96,-0.03,-0.01,-0.01,32.17
39938191,1840,1,194700,230617,0.53,-0.20,9.97,-0.03,-0.01,-0.01,32.17
39978190,1830,1,191614,227363,0.51,-0.20,9.99,-0.03,-0.01,-0.01,32.17
40018190,1823,1,191426,227730,0.50,-0.22,9.96,-0.03,-0.01,-0.01,32.17
40058212,1806,1,191816,228795,0.51,-0.22,9.96,-0.03,-0.01,-0.01,32.17
40098190,1812,1,192363,230135,0.52,-0.21,9.96,-0.03,-0.01,-0.01,32.17
40138877,1780,1,192966,231917,0.52,-0.21,9.97,-0.03,-0.01,-0.01,32.17
40179190,1776,1,193659,232905,0.54,-0.21,9.98,-0.03,-0.01,-0.00,32.17
40219190,1754,1,193904,233394,0.51,-0.21,9.97,-0.03,-0.01,-0.01,32.17
40259190,1750,1,194002,233863,0.49,-0.21,9.96,-0.03,-0.01,-0.00,32.17
40299190,1745,1,194204,234472,0.51,-0.20,9.98,-0.03,-0.01,-0.01,32.17
40339190,1754,1,194486,235406,0.54,-0.23,10.00,-0.03,-0.01,-0.01,32.17
40379190,1762,1,194912,236368,0.53,-0.22,9.97,-0.03,-0.01,-0.00,32.17
40419190,1744,1,195232,237184,0.52,-0.22,9.98,-0.03,-0.01,-0.01,32.17
40459190,1744,1,195453,235815,0.51,-0.21,9.96,-0.03,-0.01,-0.00,32.17
40499190,1751,1,192702,228161,0.52,-0.22,9.97,-0.03,-0.01,-0.00,32.17
40539191,1750,1,191410,227622,0.51,-0.19,9.97,-0.04,-0.01,-0.01,32.17
40579190,1758,1,191653,228603,0.54,-0.21,9.97,-0.03,-0.01,-0.01,32.17
40619190,1763,1,192204,230011,0.53,-0.21,9.98,-0.03,-0.01,-0.01,32.17
40659190,1744,1,192849,231813,0.52,-0.20,9.96,-0.03,-0.01,-0.00,32.17
40699187,1759,1,193642,233566,0.51,-0.22,9.96,-0.03,-0.01,-0.01,32.17
40739190,1762,1,194060,234199,0.52,-0.22,9.96,-0.04,-0.01,-0.01,32.17
40779190,1774,1,194190,234469,0.50,-0.21,9.99,-0.03,-0.01,-0.01,32.17
40819190,1771,1,194240,234808,0.49,-0.21,9.97,-0.03,-0.01,-0.01,32.17
40859190,1747,1,194442,235510,0.51,-0.21,9.97,-0.03,-0.01,-0.01,32.17
40899190,1739,1,194760,236330,0.50,-0.22,9.96,-0.04,-0.01,-0.01,32.17
40939191,1743,1,195086,237177,0.51,-0.21,9.99,-0.03,-0.01,-0.01,32.17
40979190,1735,1,195406,237789,0.54,-0.21,9.99,-0.03,-0.01,-0.00,32.17
41019190,1731,1,194673,231017,0.51,-0.21,9.96,-0.03,-0.01,-0.00,32.17
41059190,1742,1,191632,227730,0.51,-0.23,9.97,-0.04,-0.01,-0.01,32.17
41099190,1744,1,191429,228129,0.51,-0.20,9.97,-0.03,-0.01,-0.01,32.17
41139876,1713,1,191845,229485,0.53,-0.20,9.96,-0.03,-0.01,-0.01,32.27
41178190,1790,1,192384,231038,0.53,-0.22,9.96,-0.03,-0.01,-0.01,32.27
41218191,1778,1,193119,232865,0.50,-0.21,9.95,-0.03,-0.01,-0.01,32.27
41258190,1793,1,193756,233935,0.51,-0.23,9.99,-0.04,-0.01,-0.01,32.27
41298191,1808,1,193945,234181,0.51,-0.22,9.96,-0.03,-0.01,-0.01,32.27
41338189,1779,1,193979,234303,0.52,-0.23,9.96,-0.03,-0.01,-0.00,32.27
41378190,1777,1,194098,234776,0.51,-0.19,9.95,-0.03,-0.01,-0.01,32.27
41420191,1693,1,194299,235419,0.52,-0.23,9.98,-0.03,-0.01,-0.01,32.27
41460190,1706,1,194596,236310,0.52,-0.22,9.96,-0.03,-0.01,-0.01,32.27
41500195,1726,1,194937,237171,0.51,-0.21,9.97,-0.03,-0.01,-0.01,32.27
41540190,1726,1,195172,235377,0.51,-0.21,9.95,-0.03,-0.01,-0.01,32.27
41580191,1701,1,192331,228206,0.52,-0.21,9.97,-0.04,-0.01,-0.01,32.27
41620191,1717,1,191243,227768,0.52,-0.20,9.95,-0.03,-0.01,-0.00,32.27
41660188,1709,1,191509,228770,0.51,-0.22,9.99,-0.03,-0.01,-0.01,32.27
41700195,1713,1,192046,230151,0.51,-0.21,9.96,-0.03,-0.01,-0.01,32.27
41740191,1680,1,192687,231944,0.52,-0.21,9.96,-0.03,-0.01,-0.01,32.27
41780190,1680,1,193418,233408,0.50,-0.20,9.98,-0.03,-0.01,-0.01,32.27
41820188,1696,1,193796,233845,0.51,-0.20,9.95,-0.03,-0.01,-0.01,32.27
41860190,1680,1,193795,233694,0.54,-0.20,9.96,-0.03,-0.01,-0.01,32.27
41900204,1678,1,193746,233812,0.50,-0.23,9.97,-0.03,-0.01,-0.01,32.27
41940191,1690,1,193902,234272,0.53,-0.22,9.98,-0.03,-0.01,-0.01,32.27
41980190,1691,1,194143,235139,0.52,-0.22,9.96,-0.03,-0.01,-0.01,32.27
42020191,1703,1,194608,236294,0.52,-0.20,9.99,-0.03,-0.01,-0.01,32.27
42060191,1712,1,194958,236669,0.52,-0.22,9.96,-0.03,-0.01,-0.01,32.27
42100190,1702,1,193540,229314,0.51,-0.21,9.99,-0.03,-0.01,-0.01,32.27
42140878,1696,1,191306,227597,0.51,-0.22,9.98,-0.03,-0.01,-0.01,32.25
42179190,1759,1,191336,228304,0.51,-0.21,9.98,-0.03,-0.01,-0.01,32.25
42219190,1747,1,191849,229736,0.52,-0.22,9.99,-0.03,-0.01,-0.01,32.25
42259190,1745,1,192493,231494,0.51,-0.21,9.96,-0.03,-0.01,-0.01,32.25
42299190,1741,1,193326,233382,0.51,-0.23,9.95,-0.03,-0.01,-0.01,32.25
42339190,1749,1,193802,234054,0.52,-0.21,9.96,-0.04,-0.01,-0.01,32.25
42379190,1734,1,193907,234127,0.51,-0.20,9.97,-0.03,-0.01,-0.01,32.25
42419190,1733,1,193941,234363,0.52,-0.22,9.98,-0.03,-0.01,-0.01,32.25
42459191,1741,1,194011,234947,0.51,-0.19,9.97,-0.03,-0.01,-0.01,32.25
42499190,1734,1,194350,235768,0.52,-0.22,9.96,-0.03,-0.01,-0.01,32.25
42539190,1776,1,194628,236568,0.51,-0.20,9.98,-0.03,-0.01,-0.01,32.25
42579190,1783,1,194954,236909,0.51,-0.21,9.97,-0.03,-0.01,-0.01,32.25
42619190,1781,1,193705,229515,0.51,-0.22,9.99,-0.03,-0.01,-0.01,32.25
42659190,1763,1,191193,227327,0.52,-0.22,9.94,-0.03,-0.01,-0.00,32.25
42699190,1783,1,191178,227930,0.52,-0.21,9.97,-0.03,-0.01,-0.00,32.25
42739190,1738,1,191658,229087,0.54,-0.22,9.98,-0.03,-0.01,-0.01,32.25
42779190,1765,1,192079,230417,0.52,-0.22,9.98,-0.03,-0.01,-0.01,32.25
42819190,1753,1,192736,231748,0.54,-0.18,9.96,-0.03,-0.01,-0.01,32.25
42859190,1762,1,193126,232325,0.51,-0.20,9.96,-0.03,-0.01,-0.01,32.25
42899190,1745,1,193215,232306,0.51,-0.22,9.98,-0.03,-0.01,-0.01,32.25
42939190,1763,1,193208,232600,0.52,-0.22,9.97,-0.03,-0.01,-0.01,32.25
42979191,1763,1,193426,233269,0.51,-0.21,9.98,-0.03,-0.01,-0.01,32.25
43019190,1772,1,193712,234251,0.52,-0.20,9.95,-0.03,-0.01,-0.01,32.25
43059190,1758,1,194163,235457,0.51,-0.21,9.96,-0.03,-0.01,-0.01,32.25
43099190,1771,1,194496,235231,0.52,-0.21,9.96,-0.03,-0.01,-0.01,32.25
43139204,1801,1,192436,227988,0.52,-0.20,9.98,-0.03,-0.01,-0.01,32.25
43179877,1715,1,190825,227084,0.54,-0.20,10.02,-0.04,-0.01,-0.00,32.25
43220191,1740,1,191005,227881,0.53,-0.21,9.96,-0.03,-0.01,-0.01,32.25
43260190,1741,1,191414,228960,0.54,-0.23,9.98,-0.03,-0.01,-0.01,32.25
43300191,1734,1,191945,230421,0.53,-0.22,9.95,-0.03,-0.01,-0.01,32.25
43340201,1739,1,192600,231736,0.52,-0.21,9.98,-0.03,-0.01,-0.00,32.25
43380191,1712,1,192933,232037,0.52,-0.21,9.96,-0.03,-0.01,-0.01,32.25
43420190,1718,1,192894,232203,0.52,-0.22,9.98,-0.03,-0.01,-0.01,32.25
43460190,1728,1,193053,232633,0.52,-0.21,9.99,-0.03,-0.01,-0.01,32.25
43500190,1716,1,193300,233536,0.52,-0.20,9.95,-0.03,-0.01,-0.00,32.25
43540190,1712,1,193717,234596,0.52,-0.22,9.97,-0.03,-0.01,-0.01,32.25
43580190,1761,1,194122,235642,0.52,-0.21,9.96,-0.03,-0.01,-0.01,32.25
43620191,1742,1,194438,233732,0.54,-0.21,9.96,-0.03,-0.01,-0.01,32.25
43660190,1747,1,191672,227115,0.53,-0.22,9.99,-0.03,-0.01,-0.01,32.25
43700204,1743,1,190624,226576,0.52,-0.23,9.98,-0.03,-0.01,-0.01,32.25
43740190,1741,1,190757,227445,0.54,-0.22,9.97,-0.03,-0.01,-0.01,32.25
43780191,1727,1,191259,228548,0.53,-0.22,9.97,-0.03,-0.01,-0.01,32.25
43820190,1723,1,191817,230218,0.52,-0.22,9.96,-0.03,-0.01,-0.01,32.25
43860191,1679,1,192626,231806,0.53,-0.22,9.99,-0.03,-0.01,-0.01,32.25
43900190,1683,1,193068,232649,0.52,-0.22,9.96,-0.03,-0.01,-0.01,32.25
43940190,1694,1,193324,233105,0.52,-0.22,9.97,-0.03,-0.01,-0.01,32.25
43980190,1683,1,193487,233716,0.50,-0.19,9.98,-0.03,-0.01,-0.01,32.25
44020190,1680,1,193786,234492,0.53,-0.21,9.97,-0.03,-0.01,-0.00,32.25
44060190,1681,1,194112,235457,0.52,-0.23,9.97,-0.04,-0.01,-0.01,32.25
44100190,1680,1,194599,236723,0.50,-0.22,9.98,-0.03,-0.01,-0.01,32.25
44140191,1686,1,194729,233532,0.53,-0.22,9.96,-0.03,-0.01,-0.01,32.25
44180877,1648,1,191733,227784,0.54,-0.21,9.96,-0.03,-0.01,-0.00,32.21
44219190,1765,1,191021,227778,0.53,-0.20,9.97,-0.03,-0.01,-0.00,32.21
44259190,1776,1,191387,228892,0.51,-0.22,9.96,-0.03,-0.01,-0.01,32.21
44299190,1803,1,191976,230482,0.51,-0.21,9.94,-0.03,-0.01,-0.01,32.21
44339190,1837,1,192760,232519,0.52,-0.22,9.96,-0.03,-0.01,-0.01,32.21
44379191,1887,1,193461,233715,0.53,-0.21,9.97,-0.03,-0.01,-0.01,32.21
44419191,1929,1,193669,233828,0.53,-0.20,9.97,-0.03,-0.01,-0.01,32.21
44459190,1942,1,193620,233707,0.53,-0.20,9.97,-0.03,-0.01,-0.01,32.21
44499190,1988,1,193637,234101,0.51,-0.21,9.95,-0.03,-0.01,-0.01,32.21
44539190,2015,1,193891,234991,0.52,-0.21,9.99,-0.03,-0.01,-0.01,32.21
44579191,2029,1,194265,235924,0.51,-0.22,9.96,-0.03,-0.01,-0.01,32.21
44619191,2055,1,194563,236088,0.53,-0.20,9.97,-0.03,-0.01,-0.00,32.21
44659190,2061,1,193024,228808,0.52,-0.20,9.99,-0.03,-0.01,-0.01,32.21
44699190,2064,1,190822,227009,0.52,-0.22,9.97,-0.03,-0.01,-0.01,32.21
44739190,2059,1,190803,227548,0.52,-0.20,9.96,-0.03,-0.01,-0.01,32.21
44779190,2064,1,191142,228180,0.52,-0.21,9.98,-0.04,-0.01,-0.01,32.21
44819191,2032,1,191552,229588,0.51,-0.22,9.98,-0.03,-0.01,-0.01,32.21
44859190,1997,1,192268,231198,0.53,-0.19,9.95,-0.04,-0.00,-0.00,32.21
44899190,1968,1,192694,231857,0.51,-0.20,9.98,-0.04,-0.00,-0.01,32.21
44939190,1941,1,192840,232142,0.51,-0.21,9.97,-0.03,-0.01,-0.01,32.21
44979191,1937,1,192903,232446,0.52,-0.22,9.97,-0.03,-0.01,-0.01,32.21
45019190,1887,1,193040,232835,0.53,-0.24,9.95,-0.03,-0.01,-0.01,32.21
45059191,1866,1,193274,233665,0.50,-0.20,10.00,-0.03,-0.01,-0.01,32.21
45099187,1856,1,193754,234764,0.52,-0.21,9.95,-0.03,-0.01,-0.01,32.21
45139191,1861,1,193598,230133,0.51,-0.21,9.96,-0.03,-0.01,-0.01,32.21
45179190,1850,1,190736,226583,0.53,-0.23,9.98,-0.03,-0.01,-0.01,32.21
45219877,1789,1,190430,226637,0.52,-0.22,9.98,-0.03,-0.01,-0.01,32.31
45260190,1787,1,190661,227336,0.52,-0.19,9.95,-0.03,-0.01,-0.01,32.31
45300191,1790,1,191015,228447,0.53,-0.20,9.96,-0.04,-0.01,-0.01,32.31
45340190,1801,1,191715,230326,0.51,-0.21,9.97,-0.03,-0.01,-0.01,32.31
45380190,1814,1,192389,231365,0.52,-0.20,9.97,-0.04,-0.01,-0.01,32.31
45420191,1807,1,192575,231562,0.53,-0.20,9.96,-0.03,-0.01,-0.01,32.31
45460190,1810,1,192614,231937,0.51,-0.21,9.98,-0.04,-0.01,-0.01,32.31
45500191,1809,1,192920,232777,0.51,-0.20,9.99,-0.03,-0.01,-0.01,32.31
45540191,1819,1,193294,233801,0.52,-0.22,10.00,-0.03,-0.01,-0.01,32.31
45580190,1766,1,193686,234781,0.53,-0.21,9.97,-0.03,-0.01,-0.00,32.31
45620191,1741,1,194110,234890,0.53,-0.20,9.97,-0.03,-0.01,-0.01,32.31
45660190,1683,1,192341,227944,0.52,-0.22,9.95,-0.04,-0.01,-0.01,32.31
45700190,1618,1,190518,226689,0.53,-0.22,9.98,-0.03,-0.01,-0.01,32.31
45740190,1349,1,190536,227194,0.52,-0.19,9.97,-0.04,-0.01,-0.01,32.31
45780190,1146,1,190904,228158,0.51,-0.21,9.98,-0.03,-0.01,-0.01,32.31
45820190,1330,1,191422,229504,0.53,-0.20,9.97,-0.03,-0.01,-0.01,32.31
45860190,1535,1,192147,231171,0.53,-0.21,9.98,-0.04,-0.01,-0.01,32.31
45900190,1819,1,192640,231925,0.54,-0.21,9.97,-0.03,-0.01,-0.01,32.31
45940190,1757,1,192845,232389,0.53,-0.21,9.99,-0.03,-0.01,-0.01,32.31
45980190,1994,1,192999,233021,0.53,-0.22,9.96,-0.03,-0.00,-0.01,32.31
46020191,2131,1,193360,233981,0.53,-0.21,9.96,-0.03,-0.00,-0.01,32.31
46060190,2262,1,193665,234610,0.51,-0.23,9.99,-0.03,-0.02,-0.01,32.31
46100191,2056,1,193832,235183,0.53,-0.22,9.97,-0.03,-0.01,-0.01,32.31
46140190,1713,1,193506,233009,0.52,-0.21,9.96,-0.03,-0.02,-0.01,32.31
46180185,1433,1,187036,226591,0.71,-0.22,9.45,-0.03,-0.04,-0.01,32.31
46220876,810,1,184426,226457,0.59,-0.19,9.84,-0.03,-0.00,-0.00,32.19
46259182,464,1,190353,227026,1.02,-1.29,9.95,-0.03,-0.02,0.08,32.19
46299168,128,1,189991,228146,0.18,0.64,9.91,-0.03,-0.02,0.00,32.19
46339155,511,1,191623,229717,0.56,-0.19,9.95,-0.03,-0.04,-0.01,32.19
46379187,821,1,192460,231233,0.53,-0.20,10.00,-0.04,-0.01,-0.01,32.19
46419190,1299,1,192838,231740,0.56,-0.22,9.94,-0.03,-0.01,-0.00,32.19
46459189,1753,1,192804,231942,0.54,-0.21,10.01,-0.03,-0.01,-0.01,32.19
46499189,2195,1,193192,232399,0.57,-0.20,9.92,-0.04,0.00,-0.00,32.19
46539167,2386,1,193528,233156,0.54,-0.21,9.99,-0.04,0.01,-0.00,32.19
46579168,2615,1,193876,234001,0.54,-0.20,9.96,-0.03,-0.00,-0.01,32.19
46619238,2862,1,194157,234466,0.53,-0.20,9.98,-0.04,-0.01,-0.01,32.19
46659188,2906,1,193201,228457,0.55,-0.21,9.98,-0.03,-0.01,-0.01,32.19
46699188,2819,1,190924,226227,0.54,-0.20,9.97,-0.04,-0.00,-0.00,32.19
46739188,2766,1,190746,226430,0.53,-0.18,9.95,-0.03,-0.01,-0.00,32.19
46779189,2880,1,190986,227220,0.54,-0.20,10.00,-0.03,-0.01,-0.01,32.19
46819215,2832,1,191378,228315,0.54,-0.21,9.99,-0.04,-0.01,-0.01,32.19
46859188,2807,1,191999,229691,0.54,-0.21,9.96,-0.03,-0.01,-0.00,32.19
46899188,2681,1,192462,230220,0.55,-0.20,9.95,-0.04,-0.01,-0.01,32.19
46939185,2551,1,192480,230197,0.56,-0.19,9.94,-0.04,-0.01,-0.01,32.19
46979185,2417,1,192494,230405,0.54,-0.21,9.95,-0.04,0.00,-0.01,32.19
47019167,2306,1,192658,231095,0.52,-0.22,9.96,-0.03,0.00,-0.01,32.19
47059167,2209,1,192992,232028,0.52,-0.20,9.98,-0.04,-0.00,-0.00,32.19
47099182,2072,1,193456,233171,0.53,-0.19,9.94,-0.03,-0.00,-0.01,32.19
47139184,1993,1,193796,232315,0.57,-0.21,9.98,-0.04,-0.00,-0.01,32.19
47179182,1831,1,191590,226350,0.53,-0.21,9.96,-0.03,-0.01,-0.01,32.19
47219184,1777,1,190375,225404,0.51,-0.21,9.96,-0.04,-0.01,-0.01,32.19
47259868,1710,1,190347,225591,0.53,-0.22,9.98,-0.03,-0.01,-0.01,32.17
47300184,1681,1,190533,226122,0.52,-0.21,9.93,-0.03,-0.01,-0.01,32.17
47340182,1669,1,190818,227117,0.51,-0.22,9.96,-0.03,-0.00,-0.01,32.17
47380183,1707,1,191334,228188,0.53,-0.22,9.95,-0.03,-0.00,-0.01,32.17
47420182,1742,1,191574,228455,0.53,-0.21,9.96,-0.03,-0.00,-0.01,32.17
47460183,1728,1,191632,228605,0.54,-0.21,9.97,-0.03,-0.01,-0.02,32.17
47500182,1792,1,191683,228886,0.53,-0.20,9.96,-0.03,-0.01,-0.01,32.17
47540183,1825,1,191831,229404,0.52,-0.21,9.98,-0.04,-0.01,-0.01,32.17
47580182,1866,1,192201,230219,0.50,-0.20,9.95,-0.03,-0.01,-0.01,32.17
47620183,1936,1,192552,231154,0.54,-0.22,9.97,-0.03,-0.01,-0.01,32.17
47660182,1993,1,192909,230892,0.53,-0.22,9.99,-0.04,-0.01,-0.01,32.17
47700183,2066,1,191111,225737,0.55,-0.21,9.96,-0.03,-0.01,-0.01,32.17
47740182,2109,1,190003,224870,0.52,-0.21,9.99,-0.03,-0.01,-0.00,32.17
47780183,2174,1,190041,225221,0.53,-0.22,9.98,-0.03,-0.01,-0.01,32.17
47820182,2215,1,190260,225948,0.54,-0.21,9.99,-0.03,-0.01,-0.00,32.17
47860183,2238,1,190621,226942,0.53,-0.19,9.97,-0.03,-0.01,-0.01,32.17
47900182,2256,1,191182,228248,0.51,-0.21,9.96,-0.03,-0.00,-0.01,32.17
47940183,2257,1,191582,228879,0.53,-0.21,9.98,-0.03,-0.00,-0.01,32.17
47980182,2249,1,191755,229375,0.52,-0.22,9.97,-0.03,-0.01,-0.01,32.17
48020184,2234,1,191951,229987,0.54,-0.22,9.99,-0.03,-0.01,-0.02,32.17
48060182,2167,1,192270,230755,0.53,-0.20,9.94,-0.04,-0.01,-0.02,32.17
48100183,2127,1,192567,231726,0.52,-0.22,9.96,-0.03,-0.01,-0.01,32.17
48140181,1979,1,193027,232930,0.50,-0.21,10.00,-0.03,-0.01,-0.01,32.17
48180183,2000,1,193513,233857,0.52,-0.21,9.96,-0.03,-0.01,-0.01,32.17
48220182,2047,1,193017,228379,0.51,-0.21,9.97,-0.04,-0.01,-0.01,32.17
48260870,2060,1,190306,225549,0.52,-0.20,9.96,-0.04,-0.01,-0.01,32.11
48299182,1997,1,190091,225722,0.52,-0.22,9.95,-0.03,-0.01,-0.00,32.11
48339183,2064,1,190327,226528,0.52,-0.20,10.00,-0.03,-0.01,-0.01,32.11
48379182,2083,1,190752,227561,0.53,-0.23,9.96,-0.03,-0.01,-0.01,32.11
48419184,2128,1,191265,228881,0.51,-0.22,9.99,-0.03,-0.01,-0.01,32.11
48459228,2121,1,191737,229466,0.52,-0.21,9.98,-0.03,-0.01,-0.01,32.11
48499184,2127,1,191712,229273,0.52,-0.21,9.95,-0.03,-0.01,-0.01,32.11
48539182,2155,1,191724,229418,0.52,-0.22,10.00,-0.03,-0.01,-0.00,32.11
48579183,2056,1,191828,229840,0.53,-0.20,9.95,-0.03,-0.01,-0.01,32.11
48619182,2091,1,192164,230780,0.51,-0.20,9.97,-0.03,-0.00,-0.01,32.11
48659218,2076,1,192529,231754,0.53,-0.21,9.97,-0.04,-0.01,-0.01,32.11
48699182,1914,1,192927,232602,0.51,-0.20,9.96,-0.04,-0.01,-0.01,32.11
48739183,1776,1,193112,230519,0.53,-0.21,10.00,-0.03,-0.01,-0.01,32.11
48779182,1600,1,190631,225661,0.52,-0.20,9.93,-0.03,-0.02,-0.01,32.11
48819183,1319,1,189932,225382,0.54,-0.19,9.97,-0.03,-0.01,-0.01,32.11
48859182,1152,1,190219,226217,0.53,-0.23,9.98,-0.03,-0.00,-0.01,32.11
48900183,970,1,190687,227257,0.50,-0.23,10.05,-0.04,-0.01,-0.01,32.11
48940182,1126,1,191175,228685,0.52,-0.22,9.95,-0.04,0.00,-0.00,32.11
48980166,1114,1,191821,229865,0.53,-0.22,9.96,-0.03,-0.01,-0.01,32.11
49020181,1405,1,192078,230087,0.55,-0.18,9.94,-0.03,-0.01,-0.01,32.11
49060183,2380,1,192103,230088,0.54,-0.22,9.96,-0.03,-0.02,-0.01,32.11
49100182,3172,1,192154,230473,0.53,-0.21,9.96,-0.03,-0.01,-0.01,32.11
49140183,3453,1,192358,231263,0.53,-0.21,9.98,-0.03,-0.01,-0.00,32.11
49180182,3601,1,192748,232246,0.53,-0.20,9.96,-0.03,-0.01,-0.01,32.11
49220183,3423,1,193104,232988,0.54,-0.22,9.95,-0.03,-0.01,-0.01,32.11
49260868,3514,1,193355,231632,0.51,-0.20,9.95,-0.03,-0.01,-0.01,32.25
49299183,3334,1,190922,225933,0.53,-0.20,9.95,-0.03,-0.01,-0.01,32.25
49339182,2128,1,190091,225449,0.52,-0.21,9.96,-0.03,-0.01,-0.01,32.25
49379183,970,1,190275,226186,0.54,-0.22,9.98,-0.03,-0.01,-0.01,32.25
49419181,179,1,190664,227166,0.52,-0.23,9.98,-0.03,-0.01,-0.01,32.25
49459182,163,1,191149,228710,0.51,-0.20,9.94,-0.03,-0.01,-0.01,32.25
49499181,164,1,191890,230186,0.52,-0.21,9.96,-0.04,-0.00,-0.01,32.25
49539183,222,1,192287,230928,0.52,-0.23,9.99,-0.03,-0.01,-0.01,32.25
49579181,817,1,192448,231237,0.53,-0.20,9.97,-0.03,-0.01,-0.01,32.25
49619182,161,1,192666,231906,0.53,-0.20,9.98,-0.03,-0.01,-0.01,32.25
49659181,164,1,192942,232776,0.53,-0.20,9.96,-0.03,-0.01,-0.01,32.25
49699182,166,1,193368,234005,0.52,-0.22,9.97,-0.03,-0.01,-0.01,32.25
49739181,479,1,193830,234959,0.53,-0.22,9.99,-0.03,-0.01,-0.01,32.25
49779183,888,1,194104,233128,0.53,-0.22,9.96,-0.03,-0.01,-0.01,32.25
49819181,1168,1,191238,226275,0.54,-0.21,9.99,-0.03,-0.01,-0.01,32.25
49859183,1340,1,190131,225731,0.52,-0.21,9.94,-0.03,-0.01,-0.00,32.25
49900181,1578,1,190327,226400,0.53,-0.21,9.92,-0.03,-0.01,-0.01,32.25
49940182,1681,1,190710,227322,0.54,-0.22,9.97,-0.03,-0.01,-0.01,32.25
49980181,1744,1,191182,228596,0.52,-0.20,10.01,-0.03,-0.01,-0.01,32.25
50020182,1761,1,191810,229796,0.53,-0.22,9.94,-0.03,-0.01,-0.01,32.25
50060181,1834,1,192073,230002,0.55,-0.19,9.97,-0.03,-0.01,-0.00,32.25
50100212,1845,1,192101,230058,0.52,-0.21,9.97,-0.04,-0.01,-0.01,32.25
50140181,1895,1,192183,230578,0.51,-0.21,9.98,-0.03,-0.01,-0.01,32.25
50180183,1898,1,192534,231689,0.52,-0.23,9.98,-0.03,-0.01,-0.01,32.25
50220181,1962,1,193017,232822,0.52,-0.22,9.97,-0.04,-0.01,-0.00,32.25
50260182,2009,1,193487,233976,0.51,-0.22,9.97,-0.03,-0.01,-0.01,32.25
50300903,2011,1,193727,231871,0.52,-0.20,9.96,-0.03,-0.00,-0.01,32.17
50339183,2055,1,190860,225863,0.51,-0.22,9.97,-0.03,-0.01,-0.00,32.17
50379182,2111,1,190066,225453,0.53,-0.21,9.99,-0.03,-0.01,-0.00,32.17
50419183,2109,1,190246,226082,0.54,-0.21,9.97,-0.03,-0.01,-0.00,32.17
50459181,2022,1,190587,226935,0.52,-0.21,9.97,-0.04,-0.01,-0.01,32.17
50499183,1908,1,191083,228252,0.52,-0.21,9.96,-0.03,-0.01,-0.01,32.17
50539181,1982,1,191701,229460,0.54,-0.20,9.94,-0.03,-0.00,-0.01,32.17
50579182,1685,1,191948,229815,0.53,-0.23,9.93,-0.04,0.00,-0.01,32.17
50619161,1358,1,191995,229857,0.52,-0.23,9.98,-0.04,0.01,-0.01,32.17
50659166,1443,1,192000,230037,0.45,-0.13,9.98,-0.04,-0.01,-0.05,32.17
50699181,1297,1,192199,230541,0.49,-0.19,9.97,-0.03,-0.01,-0.01,32.17
50739183,1214,1,192467,231351,0.51,-0.21,9.97,-0.03,-0.01,-0.01,32.17
50779181,1087,1,192846,232399,0.53,-0.20,9.96,-0.03,-0.01,-0.01,32.17
50819183,1100,1,193158,231037,0.52,-0.22,9.97,-0.04,-0.01,-0.00,32.17
50859181,969,1,190761,225377,0.52,-0.22,9.97,-0.03,-0.01,-0.01,32.17
50899183,930,1,189903,224848,0.52,-0.23,9.98,-0.04,-0.00,-0.01,32.17
50939181,993,1,190015,225336,0.51,-0.21,9.97,-0.03,-0.01,-0.01,32.17
50979183,1321,1,190286,225985,0.52,-0.23,9.98,-0.03,-0.01,-0.01,32.17
51019181,1722,1,190673,227117,0.52,-0.21,9.97,-0.03,-0.01,-0.01,32.17
51059183,2021,1,191200,228206,0.50,-0.21,9.97,-0.03,-0.01,-0.01,32.17
51099181,2131,1,191371,228306,0.51,-0.20,9.96,-0.03,-0.01,-0.00,32.17
51139183,2241,1,191262,228116,0.52,-0.22,9.97,-0.03,-0.02,-0.01,32.17
51179181,2239,1,191183,228039,0.50,-0.21,10.02,-0.03,-0.02,-0.01,32.17
51219183,2309,1,191223,228227,0.53,-0.20,9.96,-0.03,-0.03,-0.01,32.17
51259181,2325,1,191281,228637,0.52,-0.21,9.99,-0.03,-0.05,-0.01,32.17
51299183,2345,1,191625,229723,0.51,-0.18,10.04,-0.02,-0.11,-0.00,32.17
51339867,2273,1,192049,228006,0.52,-0.31,10.06,-0.03,-0.01,0.14,32.13
51380166,2311,1,190166,224514,0.60,-0.22,9.96,-0.03,-0.02,0.14,32.13
51420166,2251,1,189613,224270,0.57,-0.20,9.99,-0.03,-0.01,0.13,32.13
51460166,2263,1,189959,224841,0.60,-0.17,9.93,-0.03,-0.01,0.12,32.13
51500161,2266,1,190055,225395,0.44,-0.30,9.96,-0.02,0.02,0.45,32.13
51540162,2017,1,188559,226200,0.44,-1.02,9.84,-0.02,0.02,0.41,32.13
51580160,2073,1,190430,226912,0.73,-0.35,9.94,-0.03,0.02,0.33,32.13
51620161,2015,1,188853,226305,0.48,-0.42,10.00,-0.02,-0.02,0.30,32.13
51660172,1747,1,186070,226256,0.47,-0.45,9.93,-0.02,-0.01,0.28,32.13
51700170,2038,1,189362,226558,0.51,-0.23,9.98,-0.02,-0.02,0.26,32.13
51740186,1910,1,188853,227774,0.70,-0.25,9.91,-0.03,-0.02,0.18,32.13
51780174,1535,1,190249,228491,0.73,0.12,9.92,-0.03,0.00,0.10,32.13
51820140,1233,1,190627,230208,0.49,-0.13,9.97,-0.03,-0.02,0.14,32.13
51860170,1649,1,191994,226967,0.59,-0.59,9.81,-0.03,-0.02,0.18,32.13
51900170,2046,1,189843,224384,0.57,-0.55,9.89,-0.03,0.01,0.18,32.13
51940177,1989,1,189249,224988,0.54,-0.35,10.05,-0.03,-0.03,0.13,32.13
51980169,1997,1,190379,226601,0.54,-0.09,10.03,-0.03,-0.05,0.07,32.13
52020169,1997,1,191079,228373,0.44,-0.16,10.02,-0.02,-0.09,0.10,32.13
52060169,2039,1,192034,230526,0.84,-0.09,9.96,-0.00,-0.22,0.19,32.13
52100169,1813,1,192681,231859,0.65,-0.69,9.99,-0.03,-0.00,0.15,32.13
52140186,1851,1,193164,232896,0.87,-0.56,10.00,-0.04,0.01,0.07,32.13
52180160,1415,1,193489,233984,0.93,0.13,9.86,-0.03,-0.07,-0.05,32.13
52220169,1059,1,194118,235591,0.84,0.64,9.94,-0.04,-0.03,-0.06,32.13
52260169,880,1,194754,236429,0.79,0.11,9.88,-0.04,0.00,-0.01,32.13
52300156,585,1,195017,236944,0.78,0.06,9.96,-0.04,0.03,-0.01,32.13
52340847,1010,1,195177,237013,0.71,-0.23,9.99,-0.05,0.03,-0.01,32.75
52379169,720,1,194288,230321,0.72,-0.25,9.92,-0.04,0.03,-0.02,32.75
52419169,417,1,191190,226179,0.73,0.00,9.96,-0.03,-0.05,-0.01,32.75
52459167,470,1,190772,226575,0.71,-0.19,9.96,-0.04,-0.01,-0.01,32.75
52499189,762,1,191198,228175,0.71,-0.20,9.97,-0.03,-0.02,-0.01,32.75
52539187,715,1,192039,230031,0.71,-0.21,9.96,-0.04,-0.00,-0.01,32.75
52579189,656,1,192815,231810,0.72,-0.21,9.97,-0.03,-0.01,-0.01,32.75
52619189,1008,1,193355,233446,0.72,-0.24,9.89,-0.04,0.01,-0.00,32.75
52659169,1105,1,193960,234715,0.74,-0.25,9.84,-0.04,0.06,-0.01,32.75
52699169,1067,1,194239,235278,0.63,-0.27,10.07,-0.04,0.04,-0.01,32.75
52739169,990,1,194341,235704,0.65,-0.25,10.00,-0.04,-0.01,-0.02,32.75
52779187,1137,1,194451,236180,0.64,-0.18,9.93,-0.03,-0.05,-0.01,32.75
52819189,1085,1,194695,236799,0.69,-0.22,9.97,-0.03,-0.02,-0.01,32.75
52859189,1409,1,194911,236131,0.69,-0.23,9.96,-0.03,-0.03,-0.01,32.75
52899189,2098,1,192967,229107,0.71,-0.23,9.96,-0.03,-0.02,-0.01,32.75
52939189,1165,1,191526,227717,0.69,-0.21,9.96,-0.03,-0.01,-0.01,32.75
52979189,1386,1,191536,228593,0.72,-0.23,9.94,-0.03,-0.01,-0.01,32.75
53019189,1495,1,192143,230200,0.70,-0.20,9.94,-0.04,0.00,-0.01,32.75
53059169,1680,1,192920,232790,0.68,-0.23,10.00,-0.03,-0.01,-0.01,32.75
53099189,1662,1,193991,234538,0.70,-0.21,9.95,-0.03,-0.02,-0.01,32.75
53139189,1664,1,194371,234998,0.69,-0.22,9.98,-0.04,-0.00,-0.01,32.75
53179186,1618,1,194414,234753,0.70,-0.22,9.97,-0.04,-0.00,-0.01,32.75
53219189,1488,1,194447,234793,0.70,-0.21,9.97,-0.03,-0.02,-0.01,32.75
53259189,1686,1,194539,235420,0.69,-0.24,9.98,-0.04,-0.01,-0.01,32.75
53299189,1531,1,194809,236383,0.67,-0.20,9.96,-0.04,-0.00,-0.00,32.75
53339186,1570,1,195206,236983,0.71,-0.21,9.96,-0.03,-0.01,-0.00,32.75
53379883,1501,1,194365,230310,0.69,-0.21,9.94,-0.03,-0.01,-0.00,32.83
53420190,1483,1,191642,226873,0.67,-0.22,9.96,-0.03,-0.00,-0.01,32.83
53460190,1411,1,191443,227100,0.69,-0.21,9.98,-0.03,-0.02,-0.01,32.83
53500189,1405,1,191793,228251,0.70,-0.22,9.97,-0.03,-0.02,-0.01,32.83
53540189,1506,1,192397,229517,0.70,-0.22,9.97,-0.03,-0.02,-0.01,32.83
53580190,1418,1,193104,231192,0.71,-0.21,9.97,-0.03,-0.01,-0.00,32.83
53620189,1325,1,193517,231257,0.69,-0.21,9.96,-0.04,0.01,-0.00,32.83
53660169,1383,1,193402,230629,0.69,-0.21,9.97,-0.04,0.01,-0.00,32.83
53700169,1389,1,193254,230358,0.68,-0.23,9.98,-0.04,0.01,-0.00,32.83
53740169,1319,1,193346,230709,0.69,-0.21,9.98,-0.04,-0.01,-0.01,32.83
53780189,1320,1,193729,231768,0.68,-0.22,9.96,-0.03,-0.01,-0.00,32.83
53820189,1255,1,194345,233259,0.68,-0.24,9.95,-0.03,-0.01,-0.01,32.83
53860189,1226,1,195102,232668,0.67,-0.24,10.00,-0.03,-0.02,-0.01,32.83
53900187,1037,1,193677,228113,0.70,-0.22,9.98,-0.03,-0.03,-0.01,32.83
53940190,1087,1,193647,228262,0.69,-0.22,9.96,-0.03,-0.03,-0.01,32.83
53980189,1218,1,194329,229399,0.71,-0.20,9.95,-0.03,-0.05,-0.01,32.83
54020189,1075,1,195246,231361,0.72,-0.23,9.95,-0.04,0.00,-0.00,32.83
54060167,1248,1,196467,233482,0.69,-0.22,10.10,-0.04,0.02,-0.00,32.83
54100169,1202,1,197150,235398,0.77,-0.21,9.84,-0.03,-0.01,-0.00,32.83
54140189,1328,1,197706,236339,0.69,-0.22,9.94,-0.04,0.05,-0.00,32.83
54180169,1408,1,197944,237158,0.70,-0.22,9.92,-0.05,0.09,-0.00,32.83
54220167,1382,1,197945,237579,0.63,-0.24,10.00,-0.04,0.04,-0.01,32.83
54260169,1373,1,198009,238083,0.69,-0.33,10.03,-0.04,0.01,-0.06,32.83
54300169,1365,1,198000,238962,0.64,-0.26,9.93,-0.04,0.03,-0.11,32.83
54340169,1791,1,198074,239580,0.59,-0.27,10.10,-0.04,0.03,-0.17,32.83
54380856,1809,1,198015,237310,0.60,-0.22,9.92,-0.04,0.01,-0.13,32.69
54419169,1949,1,195370,229825,0.44,-0.15,10.02,-0.04,-0.02,-0.08,32.69
54459189,2044,1,193729,228629,0.62,-0.20,9.93,-0.03,-0.05,-0.01,32.69
54499189,2076,1,193794,230513,0.63,-0.22,9.90,-0.04,0.05,-0.00,32.69
54539167,2033,1,194625,234138,0.59,-0.23,9.98,-0.04,-0.02,-0.07,32.69
54579189,2125,1,196539,238883,0.70,-0.30,9.99,-0.04,0.00,-0.15,32.69
54619170,1776,1,197392,241025,0.64,-0.22,9.88,-0.05,0.01,-0.29,32.69
54659173,1453,1,197794,241711,0.42,-0.20,9.93,-0.04,0.01,-0.21,32.69
54699170,1556,1,197646,242582,0.70,-0.38,10.00,-0.04,0.02,-0.14,32.69
54739169,1355,1,197483,243105,0.50,-0.19,10.01,-0.04,-0.00,-0.21,32.69
54779187,2007,1,198006,243145,0.44,-0.14,9.98,-0.04,-0.03,-0.11,32.69
54819189,2001,1,198065,242852,0.49,-0.22,10.02,-0.03,-0.04,-0.02,32.69
54859189,1915,1,197882,243072,0.57,-0.24,10.04,-0.02,-0.12,-0.01,32.69
54899189,1977,1,198851,241319,0.63,-0.22,10.09,-0.00,-0.22,-0.01,32.69
54939189,1999,1,197829,235178,0.85,-0.19,9.66,-0.02,-0.14,-0.01,32.69
54979190,2001,1,195920,233440,0.82,-0.19,9.71,-0.07,0.21,0.00,32.69
55019157,2011,1,195983,236275,0.34,-0.27,10.55,-0.06,0.19,-0.00,32.69
55059169,1919,1,197245,240823,0.56,-0.21,9.97,-0.03,-0.03,-0.02,32.69
55099189,1937,1,198351,242666,0.58,-0.23,9.96,-0.03,-0.04,-0.01,32.69
55139190,1430,1,198696,243316,0.63,-0.23,10.00,-0.03,-0.07,-0.01,32.69
55179189,1563,1,198848,243571,0.64,-0.23,9.92,-0.04,-0.01,-0.01,32.69
55219189,1868,1,198744,243667,0.64,-0.23,9.94,-0.04,0.01,-0.01,32.69
55259169,1869,1,198640,243710,0.62,-0.22,9.97,-0.04,0.01,-0.01,32.69
55299169,1857,1,198606,243844,0.63,-0.24,9.94,-0.04,0.01,-0.01,32.69
55339169,1886,1,198558,243923,0.61,-0.22,9.98,-0.04,0.01,-0.01,32.69
55379169,1882,1,198356,243234,0.61,-0.23,9.98,-0.03,-0.01,-0.01,32.69
55419880,1766,1,197194,239931,0.62,-0.23,9.94,-0.04,0.01,-0.01,32.41
55460169,1761,1,197101,241581,0.50,-0.39,10.42,-0.04,0.00,-0.07,32.41
55500172,1297,1,195610,241578,0.77,-0.17,9.64,-0.04,0.01,-0.03,32.41
55540172,1527,1,192839,242106,0.47,-0.24,10.10,-0.04,-0.00,-0.04,32.41
55580191,1648,1,196713,242611,0.56,-0.24,10.00,-0.04,0.01,-0.04,32.41
55620171,1744,1,197047,243330,0.62,-0.21,9.90,-0.04,-0.01,-0.05,32.41
55660191,1453,1,197461,243826,0.59,-0.26,10.01,-0.04,-0.00,-0.05,32.41
55700190,1623,1,197515,243987,0.57,-0.25,9.99,-0.04,-0.00,-0.04,32.41
55740190,1837,1,197545,244099,0.53,-0.21,10.02,-0.03,-0.01,-0.03,32.41
55780190,1710,1,197455,244184,0.59,-0.21,9.93,-0.03,0.00,-0.01,32.41
55820171,1671,1,197430,244114,0.51,-0.23,10.06,-0.04,-0.01,-0.01,32.41
55860190,1642,1,197228,243802,0.58,-0.25,9.98,-0.03,-0.04,-0.01,32.41
55900190,1661,1,197052,241911,0.62,-0.23,9.94,-0.03,-0.01,-0.01,32.41
55940190,1626,1,195857,239078,0.62,-0.23,9.91,-0.04,0.00,-0.01,32.41
55980171,1413,1,194672,240260,0.58,-0.24,9.93,-0.03,-0.01,-0.01,32.41
56020195,1466,1,195805,241564,0.55,-0.22,10.04,-0.04,0.03,-0.01,32.41
56060171,1599,1,196302,241810,0.58,-0.28,10.02,-0.04,0.01,-0.01,32.41
56100173,1697,1,196291,242067,0.51,-0.22,10.00,-0.04,-0.00,-0.03,32.41
56140191,1837,1,196728,242155,0.56,-0.23,9.96,-0.03,-0.00,-0.01,32.41
56180190,1830,1,197286,243252,0.57,-0.25,9.94,-0.04,0.04,-0.00,32.41
56220170,1923,1,198314,245394,0.70,-0.35,9.96,-0.04,0.00,-0.04,32.41
56260170,1995,1,199208,246612,0.58,-0.23,9.90,-0.04,-0.02,-0.07,32.41
56300191,1907,1,199798,247800,0.63,-0.29,9.96,-0.04,-0.00,-0.11,32.41
56340195,2019,1,200287,248570,0.54,-0.26,10.02,-0.04,0.01,-0.16,32.41
56380171,2111,1,200866,249081,0.43,-0.19,10.02,-0.04,-0.00,-0.12,32.41
56420877,2066,1,200525,246651,0.50,-0.21,10.00,-0.04,-0.02,-0.05,32.47
56459190,2171,1,199065,244172,0.54,-0.23,9.97,-0.03,-0.02,-0.01,32.47
56499191,2189,1,198955,245511,0.54,-0.23,9.96,-0.03,-0.02,-0.01,32.47
56539190,2160,1,199418,246675,0.56,-0.23,9.98,-0.03,-0.03,-0.01,32.47
56579190,2102,1,199511,246946,0.57,-0.24,9.97,-0.03,-0.03,-0.01,32.47
56619190,2102,1,199421,247116,0.60,-0.24,9.98,-0.03,-0.04,-0.01,32.47
56659191,2064,1,199467,247018,0.61,-0.23,9.93,-0.03,-0.05,-0.01,32.47
56699190,2091,1,199619,246828,0.63,-0.23,9.95,-0.03,-0.01,-0.01,32.47
56739191,2006,1,199593,246715,0.61,-0.21,9.99,-0.03,-0.00,-0.01,32.47
56779190,1962,1,199689,246767,0.61,-0.23,9.96,-0.03,-0.01,-0.01,32.47
56819191,1918,1,199817,246725,0.61,-0.22,9.95,-0.04,-0.01,-0.01,32.47
56859230,1877,1,199897,246667,0.59,-0.22,9.99,-0.03,0.00,-0.01,32.47
56899169,1839,1,200021,246126,0.59,-0.22,9.99,-0.03,-0.02,-0.00,32.47
56939190,1872,1,199000,240097,0.60,-0.21,9.92,-0.04,-0.00,-0.01,32.47
56979190,1845,1,196484,235395,0.59,-0.23,10.01,-0.03,-0.00,-0.01,32.47
57019190,1794,1,195922,235187,0.60,-0.23,9.95,-0.03,-0.01,-0.01,32.47
57059211,1760,1,196315,236518,0.59,-0.24,10.00,-0.03,-0.03,-0.01,32.47
57099190,1691,1,197167,238688,0.58,-0.23,10.00,-0.03,-0.05,-0.01,32.47
57139194,1613,1,197866,239911,0.60,-0.24,10.07,-0.02,-0.13,-0.01,32.47
57179190,1619,1,198374,240288,0.70,-0.22,10.02,-0.00,-0.22,-0.01,32.47
57219195,1557,1,198364,240881,0.83,-0.07,9.65,-0.01,-0.14,0.07,32.47
57259171,1568,1,199207,241257,0.78,-0.15,9.99,-0.02,-0.04,0.11,32.47
57299170,1672,1,199361,241722,0.91,-0.23,9.89,-0.03,-0.01,0.09,32.47
57339169,1718,1,199417,242313,0.85,-0.23,9.97,-0.03,0.00,0.04,32.47
57379160,1729,1,199686,242942,0.84,-0.22,9.95,-0.04,0.03,0.00,32.47
57419157,1671,1,199276,239417,0.80,-0.20,9.95,-0.04,0.02,-0.00,32.47
57459856,1580,1,196860,234695,0.80,-0.20,9.87,-0.04,0.05,-0.00,32.13
57500167,1511,1,196304,235086,0.76,-0.22,9.86,-0.06,0.14,-0.00,32.13
57540169,1461,1,196584,236331,0.64,-0.23,10.06,-0.05,0.13,-0.00,32.13
57580170,1415,1,197016,237975,0.60,-0.23,10.04,-0.05,0.11,-0.00,32.13
57620170,1394,1,197755,239769,0.71,-0.24,9.90,-0.04,0.02,-0.12,32.13
57660170,1398,1,198337,240507,0.53,-0.24,9.99,-0.04,0.00,-0.14,32.13
57700170,1420,1,198319,240281,0.51,-0.28,9.96,-0.04,0.01,-0.08,32.13
57740170,1424,1,198122,240240,0.53,-0.22,9.98,-0.04,-0.00,-0.04,32.13
57780190,1456,1,198380,241412,0.57,-0.23,9.97,-0.03,-0.02,-0.01,32.13
57820190,1453,1,199009,243075,0.60,-0.22,9.96,-0.03,-0.02,-0.01,32.13
57860190,1520,1,199495,244123,0.58,-0.24,9.95,-0.03,-0.01,-0.01,32.13
57900190,1535,1,199626,244185,0.58,-0.25,9.95,-0.04,-0.01,-0.01,32.13
57940190,1620,1,198433,237268,0.56,-0.23,9.96,-0.04,-0.00,-0.01,32.13
57980190,1685,1,195713,233790,0.60,-0.22,9.96,-0.03,-0.00,-0.01,32.13
58020190,1727,1,195431,234499,0.57,-0.23,9.97,-0.04,-0.00,-0.01,32.13
58060190,1873,1,196054,236812,0.57,-0.24,9.97,-0.03,-0.00,-0.01,32.13
58100190,1838,1,196931,239366,0.57,-0.23,9.98,-0.04,-0.00,-0.01,32.13
58140190,1937,1,197837,241493,0.58,-0.23,9.98,-0.04,0.00,-0.01,32.13
58180170,1954,1,198235,242521,0.59,-0.24,9.96,-0.03,-0.01,-0.01,32.13
58220190,1955,1,198401,243030,0.57,-0.23,9.96,-0.04,0.00,-0.01,32.13
58260170,2007,1,198468,243387,0.57,-0.22,9.98,-0.04,0.00,-0.01,32.13
58300170,1984,1,198549,243932,0.59,-0.26,9.94,-0.04,-0.01,-0.02,32.13
58340190,2029,1,198679,244450,0.57,-0.22,9.95,-0.04,-0.01,-0.02,32.13
58380190,2045,1,198767,244951,0.57,-0.23,9.94,-0.04,-0.01,-0.02,32.13
58420190,2006,1,198877,244697,0.57,-0.23,9.94,-0.04,-0.01,-0.01,32.13
58460877,2000,1,197828,238919,0.56,-0.25,9.93,-0.04,-0.01,-0.01,32.19
58499196,2127,1,195724,236585,0.57,-0.24,9.97,-0.04,-0.01,-0.02,32.19
58539190,2057,1,195982,238945,0.57,-0.23,9.96,-0.04,-0.01,-0.02,32.19
58579193,2071,1,196974,241425,0.56,-0.23,9.96,-0.04,-0.01,-0.02,32.19
58619190,2028,1,197628,242990,0.55,-0.23,10.02,-0.04,-0.01,-0.02,32.19
58659193,2107,1,197989,243923,0.57,-0.24,9.95,-0.04,-0.01,-0.02,32.19
58699218,2134,1,198159,244403,0.57,-0.23,9.97,-0.04,-0.01,-0.01,32.19
58739193,2221,1,198245,244524,0.55,-0.23,9.97,-0.04,-0.01,-0.01,32.19
58779190,2252,1,198324,244827,0.55,-0.23,9.98,-0.04,-0.01,-0.01,32.19
58819191,2304,1,198335,245067,0.58,-0.24,9.96,-0.04,-0.01,-0.01,32.19
58859190,2318,1,198410,245324,0.57,-0.22,9.97,-0.04,-0.01,-0.01,32.19
58899217,2274,1,198399,245485,0.59,-0.23,9.95,-0.03,-0.01,-0.02,32.19
58939191,2277,1,198344,244958,0.56,-0.21,9.96,-0.04,-0.02,-0.03,32.19
58979194,2218,1,197261,241103,0.64,-0.27,9.93,-0.04,-0.00,-0.04,32.19
59019191,2274,1,196252,239720,0.56,-0.20,9.96,-0.04,-0.01,-0.02,32.19
59059194,2256,1,196493,241289,0.53,-0.23,10.02,-0.03,-0.01,-0.02,32.19
59099194,2283,1,196942,242768,0.56,-0.24,9.93,-0.03,-0.01,-0.01,32.19
59139194,2315,1,197384,243748,0.57,-0.24,9.96,-0.04,-0.01,-0.01,32.19
59179194,2256,1,197627,244242,0.60,-0.24,9.96,-0.04,0.01,-0.01,32.19
59219173,2219,1,197685,244361,0.55,-0.23,9.98,-0.03,-0.01,-0.01,32.19
59259194,2213,1,197724,244528,0.57,-0.22,9.97,-0.03,-0.01,-0.01,32.19
59299194,2226,1,197645,244690,0.56,-0.24,9.96,-0.03,-0.00,-0.01,32.19
59339192,2207,1,197775,244902,0.59,-0.23,9.94,-0.04,-0.00,-0.01,32.19
59379194,2181,1,197853,245075,0.56,-0.22,9.96,-0.03,-0.02,-0.01,32.19
59419194,2143,1,197898,245220,0.56,-0.25,9.99,-0.03,-0.01,-0.01,32.19
59459194,2123,1,197687,243287,0.56,-0.23,9.96,-0.03,-0.01,-0.01,32.19
59499879,1936,1,196379,239341,0.58,-0.24,9.94,-0.03,-0.01,-0.01,32.25
59540194,1936,1,195950,240066,0.55,-0.23,9.99,-0.03,-0.01,-0.01,32.25
59580192,1857,1,196494,241737,0.58,-0.26,9.98,-0.04,-0.01,-0.01,32.25
59620211,1777,1,196949,242894,0.59,-0.24,9.97,-0.04,-0.00,-0.01,32.25
59660193,1733,1,197230,243646,0.55,-0.24,9.97,-0.04,-0.01,-0.01,32.25
59700194,1627,1,197364,243896,0.57,-0.23,9.97,-0.03,-0.01,-0.02,32.25
59740193,1623,1,197241,243973,0.57,-0.26,9.99,-0.03,-0.01,-0.02,32.25
59780195,1579,1,197281,244180,0.57,-0.23,9.95,-0.03,-0.01,-0.02,32.25
59820195,1513,1,197345,244348,0.56,-0.23,9.99,-0.04,-0.01,-0.01,32.25
59860194,1435,1,197256,244564,0.56,-0.24,9.97,-0.04,-0.01,-0.01,32.25
59900191,1710,1,197735,244809,0.56,-0.24,10.01,-0.03,-0.05,-0.01,32.25
59939191,1839,1,197776,244523,0.56,-0.22,10.02,-0.04,0.01,-0.01,32.25
59979170,1885,1,197091,240810,0.58,-0.25,9.96,-0.03,-0.01,-0.01,32.25
60019190,1967,1,195712,238985,0.59,-0.21,9.94,-0.03,-0.01,-0.01,32.25
60059190,2069,1,195952,240547,0.56,-0.23,9.95,-0.03,-0.01,-0.01,32.25
60099190,2113,1,196529,242042,0.57,-0.20,9.96,-0.03,-0.01,-0.01,32.25
60139190,2149,1,196909,243146,0.55,-0.23,9.98,-0.03,-0.01,-0.01,32.25
60179191,2143,1,197278,243798,0.58,-0.25,9.95,-0.04,-0.01,-0.01,32.25
60219245,2084,1,197319,244003,0.57,-0.23,9.95,-0.04,-0.01,-0.01,32.25
60259191,2121,1,197445,244191,0.58,-0.24,9.95,-0.03,-0.01,-0.01,32.25
60299190,2119,1,197433,244320,0.56,-0.24,9.96,-0.04,-0.01,-0.01,32.25
60339191,2202,1,197495,244504,0.57,-0.25,9.96,-0.04,-0.01,-0.01,32.25
60379189,2278,1,197497,244664,0.56,-0.23,9.96,-0.03,-0.01,-0.01,32.25
60419191,2363,1,197562,244805,0.59,-0.25,9.96,-0.03,-0.01,-0.01,32.25
60459190,2446,1,197559,243954,0.57,-0.24,9.98,-0.04,-0.01,-0.01,32.25
60499191,2439,1,196579,239907,0.56,-0.24,9.98,-0.04,-0.01,-0.01,32.25
60539883,2467,1,195619,239550,0.55,-0.24,9.96,-0.04,-0.01,-0.01,32.33
60580190,2501,1,196059,241187,0.56,-0.24,9.96,-0.03,-0.01,-0.01,32.33
60620190,2511,1,196586,242450,0.57,-0.25,9.96,-0.03,-0.01,-0.01,32.33
60660190,2416,1,196973,243404,0.58,-0.23,9.96,-0.04,-0.01,-0.01,32.33
60700190,2523,1,197163,243839,0.58,-0.23,9.95,-0.04,-0.01,-0.01,32.33
60740190,2559,1,197247,244034,0.57,-0.23,9.97,-0.04,-0.01,-0.01,32.33
60780190,2593,1,197312,244139,0.58,-0.24,9.97,-0.04,-0.01,-0.01,32.33
60820190,2519,1,197344,244327,0.58,-0.23,9.95,-0.03,-0.01,-0.01,32.33
60860190,2388,1,197415,244554,0.56,-0.25,9.97,-0.03,-0.01,-0.01,32.33
60900190,2473,1,197458,244713,0.59,-0.22,9.93,-0.04,-0.01,-0.01,32.33
60940190,2352,1,197513,244917,0.57,-0.23,9.96,-0.04,-0.00,-0.01,32.33
60981190,2301,1,197455,243982,0.57,-0.23,9.97,-0.03,-0.01,-0.01,32.33
61021201,2159,1,196550,240693,0.57,-0.23,9.96,-0.04,-0.01,-0.01,32.33
61061190,2095,1,195873,240720,0.57,-0.24,9.93,-0.03,-0.01,-0.01,32.33
61101190,1984,1,196306,242182,0.58,-0.24,10.00,-0.03,-0.01,-0.01,32.33
61141191,1983,1,196672,243117,0.58,-0.23,9.96,-0.03,-0.01,-0.01,32.33
61181190,1885,1,196954,243851,0.55,-0.24,9.97,-0.04,-0.01,-0.01,32.33
61221190,1902,1,197123,244199,0.56,-0.24,9.97,-0.03,-0.01,-0.01,32.33
61261191,1794,1,197197,244327,0.57,-0.25,9.96,-0.03,-0.01,-0.00,32.33
61301191,1840,1,197256,244419,0.57,-0.23,9.96,-0.03,-0.01,-0.01,32.33
61341190,1793,1,197264,244573,0.57,-0.23,9.96,-0.03,-0.01,-0.01,32.33
61381190,1738,1,197311,244740,0.56,-0.24,9.97,-0.03,-0.01,-0.01,32.33
61421191,1733,1,197398,244892,0.58,-0.23,9.98,-0.03,-0.01,-0.00,32.33
61461190,1775,1,197448,245005,0.58,-0.24,9.96,-0.03,-0.01,-0.01,32.33
61501190,1751,1,197401,244368,0.58,-0.23,10.00,-0.03,-0.01,-0.01,32.33
61541877,1645,1,196737,241809,0.59,-0.24,9.97,-0.03,-0.01,-0.01,32.31
61580190,1669,1,196143,241662,0.56,-0.22,9.98,-0.04,-0.01,-0.01,32.31
61620191,1680,1,196511,242830,0.58,-0.23,9.96,-0.03,-0.01,-0.01,32.31
61660190,1631,1,196878,243702,0.59,-0.22,9.96,-0.03,-0.01,-0.01,32.31
