timestamp_us,ecg,leads,ir,red,accX,accY,accZ,gyroX,gyroY,gyroZ,temp
1920495,1535,1,196358,242218,0.00,0.00,0.00,0.00,0.00,0.00,0.00
1950966,1071,1,196484,242889,0.36,-0.89,11.03,-0.03,-0.00,0.09,29.71
1991185,631,1,196944,243676,-0.32,-1.08,11.20,-0.01,0.05,-0.02,29.71
2031196,529,1,196770,242688,0.46,-0.88,11.22,-0.01,-0.10,-0.04,29.71
2071200,476,1,196766,242247,-0.70,-1.49,11.45,-0.07,0.07,-0.04,29.71
2111196,535,1,196126,240135,0.44,-1.15,8.19,-0.04,-0.13,0.18,29.71
2151179,627,1,195460,238944,-0.41,-1.47,10.35,-0.12,0.07,0.32,29.71
2191180,582,1,194713,237723,0.08,-1.26,7.38,-0.07,-0.04,0.30,29.71
2231179,727,1,195110,239205,0.25,-0.87,10.13,-0.10,0.16,-0.05,29.71
2271177,1076,1,195349,241334,0.44,-0.11,8.19,-0.00,-0.06,-0.14,29.71
2311200,1533,1,196559,243029,0.74,-1.72,10.13,-0.03,-0.02,-0.38,29.71
2351199,1712,1,196622,243185,-0.32,-0.29,7.75,0.02,-0.04,-0.22,29.71
2391199,1862,1,196522,241786,-0.52,-1.18,9.12,-0.04,0.02,-0.10,29.71
2431197,1899,1,195637,240333,0.24,-0.60,8.10,-0.00,-0.10,0.00,29.71
2471180,1829,1,195571,240289,-0.09,-1.33,10.29,-0.06,0.07,-0.01,29.71
2511197,1781,1,195430,240857,-0.09,-1.18,8.36,0.01,0.03,0.02,29.71
2551170,1747,1,196168,242833,-0.21,-1.14,11.48,-0.04,0.15,-0.05,29.71
2591199,1968,1,196697,244321,-0.14,-0.99,9.12,-0.02,-0.02,-0.10,29.71
2629214,2192,1,197234,244251,0.25,-0.96,11.54,-0.03,-0.07,-0.10,29.71
2669197,2276,1,196907,243663,-0.32,-1.14,11.07,-0.03,-0.01,-0.04,29.71
2709214,2247,1,196992,243416,-0.13,-1.11,11.42,-0.05,0.00,-0.04,29.71
2749200,2237,1,197008,243404,-0.17,-1.23,11.91,-0.02,-0.03,-0.04,29.71
2789217,2256,1,197404,244155,-0.75,-1.81,11.49,-0.04,0.03,-0.03,29.71
2830200,2209,1,197414,244386,-0.34,-1.53,10.34,-0.03,-0.03,-0.03,29.71
2870217,2196,1,197546,245014,-0.09,-1.56,11.53,-0.04,-0.03,-0.03,29.71
2910212,2198,1,197581,244899,-0.48,-1.59,9.36,-0.05,-0.02,-0.05,29.71
2950215,2180,1,197505,244892,0.31,-1.06,10.63,-0.04,-0.08,-0.05,29.71
2990883,2212,1,197559,245109,0.07,-1.15,10.38,-0.04,-0.04,-0.04,30.11
3029204,2311,1,197536,245266,0.07,-1.28,9.64,-0.03,-0.05,-0.10,30.11
3069196,2341,1,197479,245037,-0.15,-0.89,8.82,-0.03,-0.08,-0.11,30.11
3109215,2301,1,197430,245202,0.09,-1.63,9.85,-0.02,-0.07,-0.04,30.11
3149196,2318,1,197506,244863,-0.04,-0.65,9.00,0.00,-0.07,-0.07,30.11
3189199,2222,1,197293,244793,-0.08,-1.26,9.30,0.01,-0.06,-0.04,30.11
3229209,2143,1,197468,245097,-0.11,-1.35,10.21,0.01,-0.00,-0.04,30.11
3269199,2177,1,197200,243856,0.41,-0.94,9.17,0.03,-0.09,-0.04,30.11
3309177,2240,1,197078,244359,-0.22,-1.38,10.64,0.01,0.03,-0.03,30.11
3349179,2256,1,197119,244487,0.62,-0.72,9.70,0.03,-0.11,-0.05,30.11
3389177,2167,1,197298,244755,0.69,-0.26,11.43,0.03,-0.07,-0.04,30.11
3429187,2213,1,197329,244530,0.98,-0.51,9.75,0.02,-0.14,-0.04,30.11
3469177,2185,1,197762,245128,0.57,-0.77,11.83,0.02,-0.05,0.00,30.11
3509171,2190,1,197937,245206,0.88,-0.98,9.88,0.04,-0.15,0.03,30.11
3549166,2093,1,198218,245931,0.23,-0.73,11.08,0.03,-0.05,0.11,30.11
3589171,2143,1,198476,246189,0.60,-1.04,8.95,0.03,-0.14,-0.02,30.11
3629177,2126,1,198841,246988,0.51,-0.85,10.74,0.04,-0.12,-0.02,30.11
3669179,2175,1,199067,247307,0.88,-0.33,10.04,-0.00,-0.12,-0.03,30.11
3709197,2337,1,199293,247794,0.49,-0.55,9.82,0.02,-0.04,-0.03,30.11
3749180,1974,1,199279,247527,1.48,-0.30,9.60,-0.02,-0.10,-0.04,30.11
3789196,1926,1,199221,247303,1.14,-0.23,7.99,-0.03,-0.11,0.29,30.11
3829179,1572,1,199355,247525,1.32,-0.34,8.81,-0.09,0.02,0.26,30.11
3869167,1648,1,199370,247702,1.57,-0.44,7.78,-0.04,-0.04,0.15,30.11
3909180,1698,1,199438,247812,0.80,-0.62,9.82,-0.06,0.11,-0.01,30.11
3949177,1819,1,199087,246810,1.54,0.12,7.99,-0.01,-0.12,-0.02,30.11
3989179,1884,1,199097,247087,0.37,-1.08,10.46,-0.06,0.10,-0.01,30.11
4029866,1876,1,198808,246055,1.21,-0.53,8.87,-0.00,-0.08,-0.02,30.05
4068200,1887,1,198744,246316,0.74,-0.46,11.31,-0.03,0.02,0.04,30.05
4108167,1889,1,198681,245988,1.14,-0.13,8.81,-0.06,-0.01,-0.02,30.05
4148200,1978,1,198719,246375,1.31,-0.32,11.53,-0.06,0.04,0.08,30.05
4188171,1995,1,198878,246502,1.31,-0.45,9.11,-0.06,0.03,-0.01,30.05
4228180,2112,1,198956,246825,0.98,-0.19,10.50,-0.08,0.08,-0.02,30.05
4268187,2118,1,198788,246558,1.11,-1.12,8.97,-0.08,0.01,-0.02,30.05
4308179,2189,1,198840,246739,0.65,-0.90,10.08,-0.07,0.03,-0.02,30.05
4348177,2178,1,198705,246647,0.83,-0.71,9.79,-0.05,0.01,-0.02,30.05
4388180,2189,1,198758,246758,0.04,-1.13,10.85,-0.06,0.10,-0.02,30.05
4428177,2187,1,198689,246540,0.68,-1.09,10.27,-0.02,0.00,-0.08,30.05
4468180,2192,1,198606,246501,0.34,-0.75,10.51,-0.04,0.02,-0.02,30.05
4508177,2138,1,198383,246166,0.36,-1.22,9.60,-0.07,0.03,-0.13,30.05
4548180,2075,1,198063,245273,0.42,-1.36,10.54,-0.05,0.03,-0.04,30.05
4588180,2112,1,197854,244917,0.60,-0.56,9.67,-0.08,0.04,-0.24,30.05
4628179,2112,1,197641,244919,0.54,0.17,9.60,-0.07,-0.01,-0.25,30.05
4668177,2110,1,197619,244283,0.24,-1.24,10.24,-0.10,0.06,-0.07,30.05
4708179,2002,1,197207,243353,0.34,-1.16,9.24,-0.06,-0.05,-0.03,30.05
4748200,1966,1,196903,242420,-0.23,-1.51,8.63,-0.09,0.05,-0.03,30.05
4788200,2013,1,196580,242400,-0.13,-1.84,9.18,-0.06,0.03,-0.01,30.05
4828200,2019,1,196588,242056,0.15,-1.00,9.05,-0.06,0.05,-0.04,30.05
4868179,2077,1,196618,242616,0.08,-1.11,9.04,-0.05,0.05,-0.03,30.05
4908177,2120,1,197021,243508,0.39,-0.56,9.84,-0.04,0.03,-0.03,30.05
4948179,2115,1,197475,243956,0.13,-1.07,9.84,-0.03,-0.01,0.03,30.05
4988177,2149,1,197750,244276,0.47,-1.83,9.92,-0.04,-0.02,0.02,30.05
5028180,2097,1,198013,244462,-0.11,-1.56,9.01,-0.05,0.04,0.00,30.05
5068863,1951,1,198250,244671,0.08,-1.18,10.71,-0.03,0.03,-0.02,29.79
5109179,1859,1,198065,244638,-0.06,-1.43,10.78,-0.02,0.04,-0.02,29.79
5149197,1837,1,197925,244904,-0.11,-1.20,10.96,-0.02,0.04,-0.01,29.79
5189200,1885,1,197628,244108,-0.21,-1.28,11.17,-0.00,-0.03,-0.11,29.79
5229213,1987,1,197247,243550,-0.45,-1.75,11.54,-0.03,0.02,-0.08,29.79
5269200,2010,1,196847,242509,-0.19,-0.68,10.07,-0.06,0.01,-0.07,29.79
5309197,2104,1,196500,242233,-0.36,-1.64,11.58,-0.07,-0.03,-0.04,29.79
5349217,2125,1,196349,241980,0.31,-0.96,9.03,-0.09,-0.02,-0.04,29.79
5389196,2087,1,196479,242173,0.05,-1.14,11.19,-0.07,0.02,-0.04,29.79
5429180,2096,1,196319,242028,0.17,-1.13,8.57,-0.07,-0.00,-0.05,29.79
5469197,2109,1,196459,242640,-0.06,-1.63,10.67,-0.07,-0.01,-0.05,29.79
5509215,2227,1,196526,242417,0.23,-1.19,8.59,-0.05,-0.09,-0.07,29.79
5549197,2069,1,196599,242842,-0.41,-1.60,10.33,-0.04,0.00,-0.05,29.79
5589200,2030,1,196706,242583,-0.32,-1.34,9.99,-0.01,-0.04,-0.08,29.79
5627213,2083,1,196613,242588,-0.47,-1.39,9.87,-0.00,-0.03,-0.05,29.79
5667214,2003,1,196765,242659,0.31,-1.63,9.97,-0.02,-0.02,-0.05,29.79
5707197,1922,1,196849,242831,0.03,-1.39,9.06,-0.03,-0.06,-0.05,29.79
5747200,1686,1,196969,242667,-0.01,-1.19,7.98,-0.04,0.04,-0.05,29.79
5787197,1776,1,197018,242726,0.34,-0.51,8.15,-0.05,-0.01,0.00,29.79
5827180,1746,1,196992,242056,0.26,-1.14,9.04,-0.03,0.06,-0.01,29.79
5867177,1855,1,196951,243328,0.18,-1.26,9.21,-0.02,0.05,-0.05,29.79
5907179,1995,1,197773,245426,-0.06,-1.64,9.86,-0.01,0.07,-0.07,29.79
5947197,2078,1,198226,246291,-0.08,-1.09,9.41,-0.00,-0.06,-0.07,29.79
5987214,1987,1,198557,246448,-0.04,-1.48,11.06,-0.00,-0.04,-0.06,29.79
6027219,2096,1,198787,246710,-0.21,-0.82,9.28,0.01,-0.08,0.02,29.79
6067180,1986,1,198950,246625,-0.37,-1.55,11.80,-0.04,0.06,0.00,29.79
6107863,1535,1,198875,246600,-0.17,-0.97,10.50,0.00,0.01,0.08,29.51
6148171,1694,1,198712,246726,0.08,-0.57,8.83,-0.05,-0.02,-0.03,29.51
6188197,1878,1,198854,247144,-0.18,-0.45,10.97,-0.06,0.09,-0.04,29.51
6228200,1979,1,198843,247013,0.09,-0.96,10.78,-0.05,0.06,-0.05,29.51
6268177,1959,1,198842,246781,-0.22,-1.62,12.33,-0.06,0.02,-0.05,29.51
6308200,1903,1,198712,245942,0.03,-1.57,8.66,-0.10,-0.12,0.04,29.51
6348177,1925,1,198511,245660,0.56,-2.12,9.79,-0.11,-0.09,0.11,29.51
6388179,2021,1,198696,245971,-0.55,-0.68,9.30,-0.04,0.05,-0.02,29.51
6428196,1631,1,198782,245851,-0.72,0.20,7.18,0.01,0.04,-0.04,29.51
6468171,1970,1,198584,244216,-0.36,-0.57,11.09,0.03,0.22,-0.05,29.51
6508238,2017,1,197380,242516,0.27,-1.44,8.52,-0.02,-0.04,-0.03,29.51
6548200,1961,1,197741,242960,-0.87,-1.61,10.38,-0.08,0.13,-0.02,29.51
6588200,2093,1,197680,243409,0.25,-3.51,11.96,-0.06,-0.16,-0.02,29.51
6628200,2037,1,197699,244031,0.14,-0.98,10.21,-0.07,0.03,-0.05,29.51
6668177,2047,1,197937,244134,-1.29,-1.19,7.72,-0.03,0.09,-0.03,29.51
6708248,2112,1,198056,245129,1.09,-0.23,11.59,-0.00,-0.06,-0.05,29.51
6748200,2058,1,198088,244168,-0.32,-1.34,11.24,-0.06,0.19,-0.08,29.51
6788200,2090,1,197895,245015,-0.10,-2.72,12.52,-0.01,0.01,-0.05,29.51
6828200,2077,1,197719,243575,0.04,-0.85,9.67,-0.05,-0.08,-0.11,29.51
6868200,2189,1,197350,244209,-0.83,-2.72,10.83,-0.04,-0.04,0.00,29.51
6908200,2354,1,197727,243689,0.15,-1.18,10.02,-0.04,-0.04,-0.05,29.51
6948200,2367,1,197480,245131,-0.97,-1.65,10.45,0.00,-0.07,-0.03,29.51
6988197,2303,1,198032,244679,0.70,-0.47,9.40,-0.03,-0.04,-0.17,29.51
7028200,2288,1,197668,245003,0.01,-1.42,11.29,-0.02,-0.16,-0.04,29.51
7068200,2240,1,197957,244769,0.73,-0.68,8.46,-0.07,-0.01,-0.05,29.51
7108886,2162,1,197598,243929,0.54,-0.94,11.01,-0.02,-0.08,-0.05,28.83
7147196,2183,1,197449,242970,0.36,-1.24,9.24,-0.06,-0.01,-0.05,28.83
7187200,2207,1,196990,242152,0.19,-0.85,9.84,-0.01,-0.07,-0.05,28.83
7227197,2177,1,196980,242215,0.10,-1.87,9.55,-0.02,-0.03,-0.04,28.83
7267200,2171,1,196990,241662,0.04,-1.09,9.50,0.02,-0.09,-0.04,28.83
7307177,2095,1,196824,242024,-0.58,-1.71,8.56,0.00,-0.02,-0.03,28.83
7347200,2064,1,197010,241884,0.11,-1.73,8.05,-0.01,-0.07,-0.05,28.83
7387197,2078,1,197018,243029,0.21,-1.35,9.85,0.00,-0.05,-0.05,28.83
7427180,2134,1,197913,245062,-0.04,-1.19,11.54,-0.01,0.03,-0.06,28.83
7467200,2252,1,197762,244450,0.36,0.04,8.37,0.03,-0.14,-0.13,28.83
7507171,1846,1,198171,245294,0.20,-1.48,12.59,-0.05,0.12,-0.05,28.83
7547180,1887,1,197486,243301,1.50,0.10,7.99,-0.03,-0.13,-0.09,28.83
7587179,1730,1,197546,243886,0.47,-1.04,12.45,-0.11,0.07,-0.05,28.83
7627180,1942,1,197339,243048,1.41,0.22,7.91,-0.06,0.00,-0.10,28.83
7667171,1815,1,197649,244277,-0.51,-1.39,13.58,-0.09,0.21,-0.05,28.83
7707199,2023,1,197506,243616,0.39,-0.66,8.11,-0.06,0.01,-0.19,28.83
7747179,1886,1,197638,243437,-1.22,-2.09,14.02,-0.05,0.14,-0.05,28.83
7787199,2027,1,196742,239868,0.39,-1.29,6.75,-0.07,-0.04,-0.08,28.83
7827200,1797,1,196564,240988,-0.91,-2.16,13.18,-0.07,0.10,-0.05,28.83
7867200,1844,1,196417,239088,-0.05,-0.70,6.93,-0.06,0.07,-0.06,28.83
7907200,1762,1,196218,239828,-0.10,-1.33,11.66,-0.03,0.01,-0.03,28.83
7947197,1843,1,196573,240923,-0.09,-1.82,9.40,-0.08,0.13,-0.04,28.83
7987200,1902,1,196795,241847,-0.21,-1.67,10.84,-0.04,0.04,-0.05,28.83
8027203,1872,1,196817,241575,0.01,-1.47,8.72,-0.08,0.02,-0.06,28.83
8067179,1959,1,196906,241646,-0.08,-1.51,10.96,-0.04,-0.03,-0.03,28.83
8107213,1968,1,196895,241144,0.02,-1.22,9.58,-0.04,-0.03,-0.03,28.83
8147890,1900,1,196738,240997,-0.29,-1.56,9.95,-0.05,0.02,-0.02,29.15
8186199,1861,1,196810,240890,-0.36,-1.67,9.36,-0.04,0.01,-0.02,29.15
8226199,1829,1,196664,241400,-0.06,-1.54,10.03,-0.03,-0.00,0.02,29.15
8266197,1847,1,196991,242645,-0.11,-1.16,9.56,-0.05,0.05,-0.04,29.15
8306200,1865,1,197299,243610,-0.44,-1.41,10.72,-0.05,0.03,-0.05,29.15
8346230,1883,1,197333,244148,-0.12,-1.25,10.30,-0.05,0.03,-0.06,29.15
8386199,1925,1,197323,242936,0.34,-0.68,11.16,-0.03,-0.01,-0.06,29.15
8426199,1936,1,196449,241441,0.45,-0.96,10.14,-0.02,-0.04,-0.05,29.15
8466200,1938,1,196513,242235,-0.09,-1.76,10.01,-0.06,-0.03,-0.05,29.15
8506213,1918,1,196528,242024,0.33,-0.92,10.40,-0.02,-0.07,-0.05,29.15
8546200,1935,1,196708,243089,-0.39,-1.63,10.63,-0.04,-0.01,-0.04,29.15
8586213,1977,1,196856,242944,0.03,-0.73,10.58,-0.01,-0.07,-0.06,29.15
8626200,1968,1,196773,243053,-0.23,-1.41,11.28,-0.03,-0.04,-0.04,29.15
8666213,1947,1,196329,241422,0.16,-1.52,8.16,-0.05,-0.07,-0.01,29.15
8706200,1868,1,195815,240190,-0.26,-1.25,9.21,-0.06,0.00,0.03,29.15
8746177,1795,1,195334,237875,0.20,-1.42,7.05,-0.06,-0.03,0.02,29.15
8786179,1975,1,194688,237077,0.66,-0.91,8.99,-0.04,-0.01,0.14,29.15
8826177,2001,1,194861,237595,0.67,-1.41,7.85,-0.03,0.06,-0.06,29.15
8866180,2055,1,195269,240008,0.36,-1.23,9.85,-0.00,-0.01,-0.07,29.15
8906197,2083,1,195904,240672,0.04,-1.13,8.22,0.02,-0.00,-0.16,29.15
8946180,2061,1,196264,241393,0.08,-1.66,10.60,0.05,-0.08,-0.05,29.15
8986177,2034,1,196496,240784,0.27,-1.35,8.70,0.03,-0.08,-0.04,29.15
9026200,1975,1,196044,237258,-0.22,-1.05,10.68,0.04,-0.01,0.04,29.15
9066180,1963,1,194861,235162,0.39,-0.99,10.09,0.04,-0.01,0.02,29.15
9106171,1904,1,194679,235558,0.23,-1.01,10.32,0.03,-0.04,0.04,29.15
9146167,2009,1,195328,239112,0.42,-0.84,11.03,0.01,-0.02,-0.03,29.15
9186866,1951,1,196147,240578,0.37,-1.94,11.59,-0.01,-0.02,-0.18,29.15
9225200,2035,1,196327,241303,0.91,0.35,10.46,0.02,-0.08,-0.19,29.15
9265185,1958,1,196392,241421,0.18,-1.03,11.46,-0.09,0.02,-0.03,29.15
9305177,1958,1,196244,240994,0.85,-0.70,10.58,-0.03,-0.06,-0.01,29.15
9345200,2009,1,196177,241467,0.88,-0.65,10.56,-0.05,-0.07,-0.02,29.15
9385197,1922,1,196630,242015,0.14,-1.50,11.08,-0.08,0.02,-0.04,29.15
9425179,1929,1,196306,241576,1.01,0.06,9.10,-0.03,-0.19,-0.09,29.15
9465177,1936,1,196471,242065,-0.12,-1.42,10.70,-0.10,0.02,-0.03,29.15
9505199,1977,1,196419,241698,0.99,-1.08,9.67,-0.04,-0.12,-0.04,29.15
9545197,2007,1,196223,240821,-0.03,-0.54,9.79,-0.08,0.02,-0.03,29.15
9585200,1945,1,196053,240594,1.31,-0.85,8.24,-0.09,-0.12,-0.04,29.15
9625200,1957,1,196335,240341,0.44,-0.68,10.12,-0.11,0.09,-0.03,29.15
9665179,1955,1,195310,236257,1.21,-1.15,6.47,-0.07,-0.12,-0.04,29.15
9705199,1742,1,194414,234376,0.78,-0.43,9.80,-0.10,0.20,-0.05,29.15
9745179,1885,1,193611,233570,1.01,-1.26,7.38,-0.04,-0.09,-0.04,29.15
9785197,1906,1,193904,234035,0.42,-1.33,9.05,-0.04,0.10,-0.04,29.15
9825180,2045,1,194119,236211,0.65,-1.22,9.47,0.01,-0.04,-0.03,29.15
9865177,2103,1,195117,237530,-0.29,-1.84,8.41,0.01,0.07,-0.07,29.15
9905180,2066,1,195489,238298,0.21,-1.36,10.00,0.03,-0.00,-0.04,29.15
9945177,2017,1,195476,238085,0.08,-1.08,9.53,0.00,0.08,-0.03,29.15
9985171,1966,1,195564,238962,0.17,-0.64,9.52,0.01,0.04,-0.04,29.15
10025186,1882,1,196118,240469,0.11,-1.16,11.26,-0.04,0.14,-0.04,29.15
10065180,1903,1,196453,242058,0.10,-0.81,11.08,-0.01,0.06,-0.04,29.15
10105177,2076,1,196796,242733,0.55,-0.68,11.25,-0.03,0.02,-0.16,29.15
10145179,2242,1,197092,243316,0.10,-0.96,11.89,-0.04,-0.02,-0.06,29.15
10185197,2159,1,197182,243207,0.20,-0.89,11.35,-0.09,0.02,-0.02,29.15
10225866,2032,1,196854,242371,0.06,-0.81,11.20,-0.05,-0.04,-0.03,29.23
10264196,1951,1,196591,241428,0.19,-1.15,11.23,-0.09,-0.04,-0.02,29.23
10305200,1778,1,195997,239068,-0.38,-1.19,10.56,-0.07,-0.01,-0.02,29.23
10345214,1831,1,195505,238929,0.05,-1.56,10.14,-0.08,-0.02,-0.03,29.23
10385200,1904,1,195633,238690,-0.29,-1.23,10.23,-0.09,0.01,-0.04,29.23
10425200,1966,1,195490,238539,0.07,-1.40,9.93,-0.08,-0.05,-0.04,29.23
10465200,1990,1,195366,237716,0.57,-0.72,8.79,-0.08,-0.03,-0.05,29.23
10505197,2000,1,195627,239388,0.68,-1.19,10.91,-0.03,0.01,-0.04,29.23
10545179,2029,1,195817,238648,0.46,-1.33,7.78,-0.09,-0.03,-0.05,29.23
10585200,2022,1,195674,237864,0.32,-1.86,8.03,-0.04,-0.07,-0.03,29.23
10625200,1887,1,195356,236971,0.51,-1.31,8.20,-0.03,0.00,-0.04,29.23
10665177,1898,1,195347,238014,-0.32,-1.82,8.79,0.01,0.00,-0.02,29.23
10705179,1914,1,195755,238983,0.18,-1.46,8.96,0.01,0.02,-0.04,29.23
10745171,1950,1,196310,240866,-0.10,-1.31,9.46,0.04,-0.03,-0.06,29.23
10785200,1920,1,197324,242365,0.07,-1.15,9.51,0.02,-0.04,-0.01,29.23
10825180,1927,1,198314,243573,0.08,-1.42,10.13,0.02,-0.02,-0.05,29.23
10865180,1925,1,198735,243572,0.01,-1.07,9.32,0.00,0.06,-0.05,29.23
10905171,1919,1,198698,242973,0.60,-0.83,10.88,0.02,0.00,-0.05,29.23
10945171,1870,1,198067,241525,-0.02,-0.86,10.92,-0.02,0.04,-0.01,29.23
10985200,1947,1,197887,242413,0.13,-1.12,11.63,0.00,0.00,-0.05,29.23
11025186,2032,1,198260,243222,0.13,-1.62,11.91,-0.04,-0.02,-0.08,29.23
11065200,2058,1,198413,243590,-0.22,-0.95,12.47,-0.02,-0.05,-0.12,29.23
11105217,2041,1,198369,242733,-0.32,-1.41,11.43,-0.08,-0.09,-0.10,29.23
11145213,1991,1,198206,241728,-0.15,-1.39,11.71,-0.07,-0.04,-0.05,29.23
11185217,1921,1,197703,240232,0.07,-1.21,9.96,-0.11,-0.03,-0.04,29.23
11225886,1874,1,197211,238722,-0.35,-1.40,8.49,-0.10,0.01,-0.01,29.15
11264199,1849,1,196156,237504,0.43,-1.53,8.08,-0.12,-0.00,-0.01,29.15
11304200,1924,1,195937,238628,0.31,-1.20,8.59,-0.07,0.04,-0.04,29.15
11345179,1993,1,196295,240281,0.44,-0.83,8.72,-0.08,-0.01,-0.06,29.15
11385200,2087,1,197335,242545,0.07,-1.49,10.05,-0.05,-0.00,-0.08,29.15
11425200,2123,1,198231,243486,0.01,-1.22,9.29,-0.04,-0.05,-0.07,29.15
11465200,2034,1,199227,244408,-0.53,-1.64,9.58,-0.02,-0.00,-0.05,29.15
11505216,1982,1,199566,243979,0.00,-1.13,8.44,-0.05,0.01,0.02,29.15
11545168,1877,1,198926,241886,-0.38,-1.96,10.11,-0.01,0.07,-0.01,29.15
11585200,1858,1,197767,240771,0.17,-0.79,8.61,-0.01,0.02,-0.05,29.15
11625180,1910,1,197725,242355,0.14,-1.03,11.20,-0.01,0.04,-0.05,29.15
11665179,1939,1,198115,243075,-0.15,-1.04,8.88,-0.02,0.02,-0.11,29.15
11705200,1942,1,198277,243318,-0.07,-1.26,11.27,-0.01,0.01,-0.09,29.15
11745200,1957,1,198153,242730,0.11,-1.03,9.36,-0.04,-0.03,-0.07,29.15
11785200,1936,1,198136,242893,0.15,-1.63,10.49,-0.03,-0.00,-0.06,29.15
11823200,2020,1,198189,243049,0.20,-1.42,10.28,-0.02,-0.02,-0.06,29.15
11863199,2003,1,198311,243652,-0.51,-1.36,11.17,-0.00,0.01,-0.05,29.15
11903200,1979,1,198465,243802,-0.11,-1.39,10.89,0.01,-0.07,-0.16,29.15
11943200,2000,1,198609,244325,-0.30,-1.72,11.07,-0.01,-0.04,-0.12,29.15
11983217,1962,1,198876,244562,-0.01,-0.89,10.49,-0.03,-0.06,-0.08,29.15
12023226,1953,1,199191,245636,-0.16,-1.07,12.70,-0.05,-0.00,-0.05,29.15
12063214,1997,1,199184,243954,-0.13,-0.49,8.87,-0.05,-0.01,-0.08,29.15
12103213,1933,1,198661,243687,0.14,-1.07,11.30,-0.07,-0.07,-0.06,29.15
12143200,1933,1,198275,241074,-0.06,-1.04,8.75,-0.15,0.11,-0.03,29.15
12183200,2037,1,196919,236373,0.71,-0.18,8.39,-0.04,-0.11,0.18,29.15
12223179,1936,1,195995,235203,0.18,-2.52,8.73,-0.13,0.07,0.01,29.15
12263857,1989,1,195474,236065,0.41,-0.81,6.58,-0.01,-0.12,-0.04,29.19
12304199,2014,1,196188,238562,-0.19,-2.50,10.49,-0.03,0.11,-0.09,29.19
12343200,2093,1,197068,241673,0.49,-0.81,7.36,0.03,-0.17,-0.09,29.19
12383179,2029,1,198337,242764,0.10,-1.42,9.84,0.03,-0.03,-0.16,29.19
12423180,1922,1,199444,243843,-0.49,-1.55,9.17,0.12,-0.02,0.05,29.19
12463179,1910,1,200105,243843,0.62,-0.70,10.58,0.01,0.02,-0.03,29.19
12503167,1934,1,199450,243681,0.52,-0.51,10.38,0.05,-0.02,-0.02,29.19
12543179,1904,1,199804,245095,0.29,-0.78,12.36,-0.01,0.07,-0.04,29.19
12583179,1699,1,199661,245174,0.51,-0.05,11.28,0.00,-0.08,-0.07,29.19
12623179,1617,1,199769,245742,-0.23,-1.77,14.02,-0.07,0.03,-0.03,29.19
12663199,1679,1,199256,244443,0.68,-0.78,9.20,-0.05,-0.17,0.01,29.19
12703179,1831,1,199224,244432,0.23,-1.04,12.86,-0.09,-0.06,0.24,29.19
12743180,1857,1,199220,243345,0.35,-1.64,6.32,-0.11,-0.09,0.24,29.19
12783180,1815,1,198997,242577,0.13,-0.36,9.28,-0.08,-0.01,0.03,29.19
12823179,1799,1,198055,239954,0.98,-1.20,6.92,-0.02,-0.11,-0.05,29.19
12863200,2097,1,197788,240764,0.37,-1.34,9.35,-0.07,0.09,-0.05,29.19
12903180,2298,1,198251,242663,1.09,-0.96,8.92,0.02,-0.07,-0.12,29.19
12943179,2069,1,199087,243938,0.54,-1.30,9.36,0.01,-0.02,-0.26,29.19
12983180,1925,1,199871,244956,1.02,-0.86,9.56,0.03,-0.06,-0.09,29.19
13023194,1979,1,200125,244895,1.07,-0.45,9.58,0.03,-0.08,-0.04,29.19
13063177,2037,1,200139,244784,0.31,-1.07,10.53,0.04,0.01,-0.02,29.19
13103171,1952,1,199689,244230,0.27,-0.62,10.06,0.04,-0.04,-0.03,29.19
13143177,1872,1,199584,245239,0.63,-1.00,11.07,0.04,-0.03,-0.02,29.19
13183179,1878,1,199530,245683,0.60,-1.13,10.31,0.01,-0.01,-0.04,29.19
13223180,2179,1,199424,246004,0.83,-0.04,10.96,0.01,-0.08,-0.06,29.19
13263866,2205,1,199200,245331,0.62,-0.56,10.90,-0.06,-0.02,-0.03,28.85
13304200,2323,1,198786,244280,1.26,-0.32,10.09,-0.05,-0.08,0.12,28.85
13344180,2347,1,198766,244098,1.16,-0.90,10.11,-0.10,-0.02,0.31,28.85
13384180,2240,1,199167,245639,0.84,-0.62,11.20,-0.09,0.01,0.14,28.85
13424171,2253,1,199451,246377,1.35,-0.83,9.88,0.01,-0.04,-0.08,28.85
13464179,2304,1,199278,245727,1.21,-0.08,11.05,-0.05,-0.07,-0.21,28.85
13504200,2002,1,198996,245001,0.51,-0.77,9.81,-0.05,-0.01,-0.07,28.85
13544200,2062,1,199093,244697,0.91,-0.56,9.75,-0.03,-0.05,-0.02,28.85
13584200,2093,1,199261,244643,0.85,-0.88,9.73,-0.06,-0.01,-0.01,28.85
13624200,1900,1,199482,245329,0.73,-0.78,9.33,-0.06,0.05,-0.02,28.85
13664179,1849,1,199675,245633,1.31,-0.58,8.78,-0.07,0.03,-0.03,28.85
13704180,1930,1,199802,246142,1.31,-0.21,9.33,-0.08,0.02,-0.02,28.85
13744179,2062,1,199954,245888,0.74,-0.88,8.99,-0.10,0.04,-0.02,28.85
13782177,2198,1,199617,244351,0.94,-0.46,8.49,-0.06,0.03,-0.02,28.85
13822179,2159,1,199364,243031,1.06,-1.03,8.68,-0.07,0.03,0.07,28.85
13862167,2094,1,199139,241930,0.74,-1.11,8.51,-0.05,0.03,0.18,28.85
13902171,2198,1,198917,241819,0.81,-1.10,8.58,-0.04,0.03,0.11,28.85
13942168,2223,1,199053,243267,0.43,-1.14,8.65,-0.02,0.08,-0.01,28.85
13982185,2233,1,199463,244873,0.65,-1.08,9.68,-0.02,0.06,-0.02,28.85
14022189,2170,1,199769,245603,0.51,-0.70,9.72,-0.02,0.08,-0.03,28.85
14062180,2143,1,199867,244994,0.99,-0.89,10.21,-0.03,0.09,-0.03,28.85
14102180,2120,1,199174,242367,0.69,-0.94,10.35,-0.03,0.10,-0.02,28.85
14142179,1962,1,198539,242461,0.37,-0.72,9.87,-0.03,0.06,-0.02,28.85
14182207,1899,1,198991,244116,0.40,-1.01,11.76,-0.05,0.15,-0.02,28.85
14222179,1908,1,199367,244991,0.75,-0.31,11.73,-0.04,0.00,-0.08,28.85
14262179,1925,1,199194,243861,-0.08,-0.76,10.50,-0.06,0.00,-0.02,28.85
14302886,1902,1,198808,242312,-0.07,-1.07,8.98,-0.10,-0.02,-0.01,28.91
14343213,1920,1,198348,240199,-0.06,-1.95,9.23,-0.09,0.03,0.25,28.91
14383179,1967,1,197438,237524,0.67,-0.30,6.50,-0.09,-0.01,0.34,28.91
14423177,1885,1,197220,238747,-0.08,-1.60,9.45,-0.06,0.09,0.09,28.91
14463180,1789,1,196937,240508,0.83,-1.11,8.54,-0.00,0.06,-0.17,28.91
14503180,1931,1,197961,243281,1.04,-0.66,10.61,0.04,-0.03,-0.27,28.91
14543179,2128,1,199016,244100,-0.40,-1.31,10.13,-0.03,0.01,-0.05,28.91
14583200,2353,1,199223,243668,-0.50,-1.63,11.03,-0.01,-0.02,-0.05,28.91
14623214,2240,1,199676,243528,0.16,-1.33,10.43,0.00,-0.08,-0.03,28.91
14663180,2161,1,200746,244318,-0.66,-1.61,12.01,-0.00,-0.02,0.04,28.91
14703200,1885,1,200648,243109,0.36,-0.79,10.75,-0.01,-0.05,-0.03,28.91
14743200,1846,1,200144,243596,0.02,-1.21,12.51,-0.01,-0.03,0.00,28.91
14783179,1943,1,200351,244244,-0.15,-1.16,11.43,-0.04,-0.05,-0.10,28.91
14823213,1996,1,200506,244689,0.02,-0.83,12.60,-0.03,-0.07,-0.11,28.91
14863200,1996,1,200628,244221,0.64,-0.73,11.55,-0.10,-0.09,-0.05,28.91
14903200,2003,1,200514,242629,0.66,-0.63,9.37,-0.09,-0.11,-0.04,28.91
14943200,1925,1,200888,244140,0.45,-1.47,10.69,-0.10,-0.03,-0.03,28.91
14983200,1872,1,201145,245805,1.35,-0.97,9.39,-0.07,-0.09,-0.05,28.91
15023207,1950,1,201767,247816,-0.16,-3.13,12.66,-0.03,0.02,-0.39,28.91
15063200,2624,1,201762,248356,1.02,0.40,7.13,-0.02,-0.14,-0.51,28.91
15103179,2155,1,201974,248592,0.22,-1.37,12.07,0.01,-0.06,-0.31,28.91
15143179,1861,1,201654,247597,0.73,-0.93,7.53,-0.05,-0.20,-0.06,28.91
15183200,1930,1,201683,246972,0.02,-1.03,10.82,-0.02,0.05,-0.04,28.91
15223177,2054,1,201521,246576,0.91,0.07,5.35,-0.04,-0.16,0.14,28.91
15263171,1846,1,202012,247186,0.30,-1.55,9.86,-0.09,0.09,0.06,28.91
15303853,1554,1,201586,246661,1.34,-0.48,7.47,0.00,-0.06,-0.04,28.83
15342179,1616,1,200860,245826,0.38,-1.00,8.92,-0.03,0.08,-0.03,28.83
15382177,1509,1,200332,244950,1.56,-0.62,7.69,0.01,-0.06,-0.06,28.83
15423179,1649,1,200415,244734,0.00,-0.75,9.12,0.01,0.01,-0.03,28.83
15463166,1815,1,200571,244208,0.28,-1.11,8.53,0.02,0.00,0.03,28.83
15501149,1968,1,200607,244008,0.45,-1.09,9.31,0.00,0.03,0.14,28.83
15541148,1797,1,201191,244835,-0.25,-1.93,9.02,0.02,0.04,0.21,28.83
15581171,1813,1,201851,246358,0.91,-0.68,9.16,0.02,-0.00,0.17,28.83
15621197,1864,1,202635,248078,0.02,-1.29,10.55,-0.00,0.11,-0.01,28.83
15661179,1943,1,202311,248064,1.02,-0.09,10.29,0.04,-0.01,-0.11,28.83
15701180,1936,1,202400,248141,0.32,-1.04,12.53,0.01,0.06,-0.10,28.83
15741171,1910,1,202220,248121,1.05,-0.26,10.89,-0.04,-0.07,-0.05,28.83
15781200,1920,1,202330,248239,-0.12,-1.36,13.99,-0.05,0.06,-0.04,28.83
15821238,1917,1,201950,247764,0.67,-0.63,10.58,-0.05,-0.07,-0.04,28.83
15861200,1866,1,202007,247862,-0.17,-1.15,13.53,-0.09,0.01,-0.04,28.83
15901200,1870,1,201440,246781,0.61,-0.87,9.22,-0.11,-0.15,-0.03,28.83
15941200,1902,1,201174,244439,0.83,-0.17,10.51,-0.09,-0.06,-0.03,28.83
15981199,1857,1,200023,240917,-0.07,-1.05,8.92,-0.10,-0.00,0.06,28.83
16021199,1966,1,199300,240296,0.67,-1.09,8.99,-0.12,-0.04,0.12,28.83
16061179,2061,1,199226,240780,1.33,-0.57,8.12,-0.09,-0.03,-0.05,28.83
16101200,2125,1,199900,243386,0.62,-0.99,10.35,-0.10,0.07,-0.03,28.83
16141179,2071,1,199815,243277,1.19,-0.87,8.42,-0.04,-0.04,-0.29,28.83
16181200,2081,1,200193,243910,0.19,-1.15,10.85,-0.03,0.02,-0.03,28.83
16221179,2114,1,200273,242025,0.93,-0.75,7.78,-0.05,-0.10,-0.05,28.83
16261197,2270,1,200889,242245,0.74,-1.72,11.71,-0.03,-0.00,0.31,28.83
16301183,2002,1,201417,242337,0.07,-1.69,6.74,-0.02,-0.01,0.07,28.83
16341863,1951,1,201760,244539,0.40,-0.90,10.25,-0.01,0.08,-0.04,28.89
16382179,1829,1,201809,246149,1.09,-1.13,9.74,0.04,0.03,-0.13,28.89
16422170,1821,1,201636,246212,0.06,-1.37,9.73,0.01,0.07,-0.19,28.89
16461170,1904,1,201326,245019,1.21,0.25,9.95,0.03,-0.01,-0.18,28.89
16501170,1966,1,201115,244913,0.31,-1.34,9.94,0.01,-0.04,-0.03,28.89
16541179,1985,1,201459,244708,0.54,-1.18,9.78,0.00,0.02,-0.04,28.89
16581167,2032,1,200770,241653,0.67,-0.96,10.16,0.00,-0.03,-0.03,28.89
16621179,2064,1,200412,243812,0.18,-1.41,11.74,-0.02,0.03,-0.03,28.89
16661180,2062,1,200866,243574,0.46,-1.35,11.01,-0.01,-0.01,-0.19,28.89
16701200,2026,1,200358,243397,0.19,-1.06,12.09,0.04,-0.13,-0.03,28.89
16741180,1968,1,200295,242347,0.46,-0.47,10.00,-0.10,0.06,0.02,28.89
16781170,1913,1,200272,241949,-0.13,-0.91,9.13,-0.07,-0.04,0.40,28.89
16821197,1874,1,200793,242070,1.21,-0.45,11.23,-0.11,0.03,-0.01,28.89
16861179,1921,1,200588,242740,0.72,-0.57,9.36,-0.05,-0.01,0.22,28.89
16901179,1962,1,200785,243093,0.63,-1.11,10.42,-0.12,0.12,-0.08,28.89
16941180,1943,1,200517,242505,0.76,-0.74,8.22,-0.01,-0.17,-0.00,28.89
16981200,1985,1,200724,243107,0.23,-1.82,9.73,-0.13,0.12,-0.02,28.89
17021183,2016,1,200671,243697,-0.36,-1.67,8.17,-0.04,-0.05,0.03,28.89
17061199,2055,1,200595,243152,-0.82,-2.01,8.40,-0.05,0.12,-0.06,28.89
17101200,2128,1,200520,243124,0.75,-0.06,6.97,0.04,-0.15,0.02,28.89
17141167,2119,1,200484,242893,-0.92,-1.98,8.87,-0.08,0.21,-0.02,28.89
17181199,2079,1,199560,240362,0.18,-0.87,7.71,0.00,-0.03,-0.03,28.89
17221177,2096,1,199289,241365,0.31,-1.36,10.32,-0.00,0.05,-0.15,28.89
17261196,2078,1,199786,242824,0.05,-1.06,8.49,-0.03,0.06,-0.07,28.89
17301177,2077,1,200131,243628,0.15,-0.98,9.66,0.00,-0.00,-0.10,28.89
17341179,2087,1,200631,244876,-0.18,-1.49,10.60,-0.01,0.08,-0.06,28.89
17381886,2091,1,201089,245146,0.06,-0.81,11.24,0.02,-0.02,-0.10,28.91
17420179,2118,1,201068,245187,-0.60,-1.20,11.11,0.00,0.01,-0.02,28.91
17460206,2047,1,201521,246048,0.25,-1.09,11.60,-0.03,-0.01,-0.01,28.91
17500200,1939,1,201566,245364,-0.44,-1.41,11.46,-0.04,-0.01,-0.05,28.91
17540213,1904,1,201240,245350,-0.14,-0.98,10.38,-0.06,-0.04,-0.03,28.91
17580217,1865,1,201415,244538,-0.31,-1.48,10.58,-0.09,0.02,-0.03,28.91
17620200,1897,1,202281,245672,0.55,-0.02,9.21,-0.07,-0.08,0.00,28.91
17660179,1712,1,203227,246557,0.19,-1.29,10.43,-0.13,0.10,0.02,28.91
17700171,1808,1,204151,247232,-0.27,-1.44,10.03,-0.03,0.00,0.05,28.91
17740179,1887,1,204171,247688,-0.06,-1.60,9.18,-0.07,0.03,-0.03,28.91
17780197,1909,1,204497,246921,-1.08,-2.02,11.37,-0.03,0.01,-0.01,28.91
17820199,1983,1,203595,244641,0.05,-1.17,9.33,-0.07,-0.04,-0.05,28.91
17860199,2023,1,203558,244569,-0.87,-1.60,10.57,-0.02,-0.00,-0.04,28.91
17900216,2064,1,203673,243919,-0.15,-1.26,8.35,-0.07,-0.04,-0.05,28.91
17940213,2037,1,203736,244547,-0.88,-1.78,10.64,-0.03,0.06,-0.01,28.91
17980200,2045,1,203903,245942,0.52,-1.22,9.60,-0.03,-0.02,-0.05,28.91
18020200,2080,1,204296,247000,-0.65,-1.35,9.94,-0.04,0.04,-0.05,28.91
18060199,2096,1,204213,247560,0.70,-0.90,8.93,-0.03,-0.12,-0.06,28.91
18100197,2170,1,204747,248123,0.11,-1.12,12.03,-0.04,0.04,-0.05,28.91
18140179,2224,1,204616,248517,-0.25,-1.18,10.24,-0.01,-0.13,-0.05,28.91
18180214,2194,1,204849,248247,-0.52,-1.61,11.48,-0.04,-0.00,-0.05,28.91
18220216,2137,1,204338,248819,-0.55,-1.24,10.65,-0.01,-0.10,-0.04,28.91
18260213,2135,1,204912,249335,0.29,-1.67,13.33,-0.04,-0.01,-0.07,28.91
18300199,2017,1,204455,249116,0.06,-1.01,8.78,-0.01,-0.19,-0.06,28.91
18340199,1999,1,205084,249776,-0.39,-1.45,11.74,-0.07,0.09,-0.06,28.91
18380199,1967,1,204167,246250,0.80,-0.08,7.49,-0.03,-0.18,-0.09,28.91
18420883,1805,1,203203,245410,-0.13,-1.54,10.11,-0.03,0.02,-0.05,28.71
18461200,1891,1,203339,247042,-0.23,-1.70,7.23,-0.08,0.03,-0.06,28.71
18501199,1965,1,204035,248704,0.39,-1.65,10.33,0.04,-0.09,-0.31,28.71
18541179,2309,1,204219,248734,-0.41,-1.31,6.63,0.01,-0.11,-0.24,28.71
18581200,2033,1,204623,249623,-0.42,-1.70,9.74,0.04,-0.03,-0.18,28.71
18621199,2000,1,204853,249362,-0.49,-1.24,7.38,0.02,-0.08,-0.07,28.71
18661199,1936,1,205360,250058,0.09,-1.29,8.86,0.05,-0.02,-0.06,28.71
18701179,1817,1,205649,249336,-0.52,-1.56,7.68,-0.01,0.07,-0.04,28.71
18741199,1834,1,205699,249312,0.79,-0.35,8.18,0.01,-0.01,0.06,28.71
18781170,1823,1,205933,250176,-0.08,-1.03,9.45,-0.02,0.08,0.01,28.71
18821177,1938,1,206496,251733,0.32,-0.87,9.99,0.01,0.02,-0.06,28.71
18861171,1904,1,207434,253004,-0.37,-1.18,11.69,-0.01,0.06,-0.07,28.71
18901199,1874,1,208102,254194,-0.29,-1.06,11.73,0.01,-0.04,-0.07,28.71
18941199,1767,1,208759,254193,-0.76,-1.52,12.74,-0.05,0.04,-0.06,28.71
18981199,1669,1,208824,254043,-0.54,-1.34,10.86,-0.07,-0.04,-0.00,28.71
19021219,1648,1,208974,251973,-0.94,-1.50,11.98,-0.09,0.09,-0.02,28.71
19061200,1607,1,208058,250736,-0.22,-0.86,10.59,-0.10,-0.05,0.07,28.71
19101202,1613,1,208387,251540,-0.35,-1.29,11.82,-0.15,0.11,-0.04,28.71
19141199,1600,1,208404,251850,-0.00,-0.49,8.79,-0.11,-0.04,-0.02,28.71
19181214,1735,1,208507,252670,-0.39,-1.67,11.20,-0.14,0.12,-0.06,28.71
19221199,1799,1,208041,251444,0.53,-0.88,7.14,-0.13,-0.10,-0.08,28.71
19261200,1857,1,207689,250686,-0.43,-1.76,9.89,-0.11,0.09,-0.00,28.71
19301200,1991,1,207091,249652,-0.18,-1.06,6.85,-0.11,-0.02,0.03,28.71
19339199,2132,1,206653,250045,-0.95,-1.74,10.83,-0.04,0.10,-0.02,28.71
19379199,2201,1,206276,250030,-0.39,-1.34,7.76,-0.03,-0.00,-0.05,28.71
19419216,2255,1,206662,251039,-0.92,-1.80,9.15,0.02,0.00,-0.05,28.71
19459863,2196,1,206978,251478,0.15,-1.41,8.17,-0.02,-0.03,-0.07,28.65
19500199,2235,1,207364,252239,-0.38,-1.23,8.95,-0.00,-0.01,-0.05,28.65
19540212,2160,1,207586,252445,-0.45,-1.31,8.57,-0.00,0.01,-0.06,28.65
19580199,2107,1,207693,253007,-0.66,-1.16,10.10,0.03,-0.01,-0.06,28.65
19620199,2064,1,207638,251832,-0.20,-0.80,10.41,0.02,-0.02,-0.11,28.65
19660199,2043,1,207353,252630,-0.56,-1.75,11.33,0.02,-0.06,-0.06,28.65
19700200,1983,1,208030,252948,-0.63,-1.23,11.41,0.02,-0.05,-0.12,28.65
19740199,1856,1,207765,252341,-0.25,-0.88,10.87,0.03,-0.14,-0.06,28.65
19780199,1853,1,208081,251922,-1.21,-1.50,12.52,-0.01,0.02,-0.04,28.65
19820199,1806,1,207733,251221,-0.08,-0.74,11.59,0.01,-0.16,-0.06,28.65
19860199,1797,1,208286,251633,-0.62,-1.52,11.59,-0.05,-0.07,0.12,28.65
19900200,1753,1,208456,250920,-0.34,-1.01,9.28,-0.09,-0.07,0.13,28.65
19940199,1708,1,208434,250594,-0.35,-1.39,9.93,-0.07,-0.08,0.14,28.65
19980199,1860,1,208594,251330,0.00,-0.85,8.04,-0.08,-0.10,0.07,28.65
20020177,1941,1,209237,253143,0.33,-1.15,10.48,-0.10,-0.00,-0.05,28.65
20060200,1994,1,209242,252989,0.35,-0.48,7.52,0.00,-0.18,-0.05,28.65
20100177,2004,1,209858,255167,0.21,-1.49,10.64,-0.08,0.01,0.13,28.65
20140171,2046,1,210740,255136,0.00,-1.49,7.96,-0.06,-0.08,-0.05,28.65
20180197,2142,1,210569,255646,0.81,-0.58,8.97,0.00,-0.11,0.17,28.65
20220171,2112,1,210998,254464,0.35,-1.53,7.63,-0.03,0.08,0.11,28.65
20260171,2207,1,210175,254020,0.85,0.02,9.32,0.03,-0.08,0.00,28.65
20300148,2091,1,209203,254347,0.44,-2.17,10.11,0.01,0.09,-0.22,28.65
20340170,2123,1,209179,255179,0.62,-0.73,11.05,0.06,0.03,-0.20,28.65
20380171,2169,1,208504,254478,0.47,-0.88,9.85,0.03,-0.03,-0.80,28.65
20420179,2011,1,208082,254814,0.70,-1.29,11.29,0.01,-0.03,-0.09,28.65
20460866,1811,1,207733,253686,0.83,-0.07,10.58,-0.03,0.03,-0.45,28.43
20499179,1853,1,207224,253812,0.36,0.20,10.10,0.03,-0.08,-0.05,28.43
20539170,1605,1,207355,253933,0.62,-1.85,14.07,-0.09,0.13,-0.22,28.43
20579179,1632,1,206637,253333,-0.40,0.33,9.45,-0.02,-0.14,-0.05,28.43
20619200,1653,1,206611,252569,0.16,-1.32,11.87,-0.08,0.07,-0.06,28.43
20659180,1745,1,206234,251833,-0.37,-1.37,10.26,-0.11,-0.01,0.00,28.43
20699199,1759,1,206598,251739,-0.03,-1.79,10.81,-0.14,0.00,0.05,28.43
20739195,1933,1,207778,252209,0.28,-0.16,9.48,-0.09,-0.01,0.39,28.43
20779180,1968,1,208438,251591,0.39,-0.71,9.61,-0.17,0.04,0.45,28.43
20819170,1939,1,208547,250025,-0.09,-1.32,7.73,-0.16,0.06,0.49,28.43
20859180,1913,1,208057,247584,0.20,-1.19,7.57,-0.15,0.10,0.25,28.43
20899171,2033,1,207299,246066,0.08,-1.78,9.35,-0.07,0.09,-0.05,28.43
20939196,2059,1,206385,246488,-0.03,-1.04,8.49,-0.03,0.00,-0.31,28.43
20979197,2091,1,206192,245937,-0.08,-1.39,8.66,-0.04,0.03,-0.45,28.43
21019200,2145,1,205987,246458,0.16,-0.88,10.14,-0.02,0.02,-0.05,28.43
21059179,2075,1,206418,247378,0.01,-1.21,7.92,-0.01,0.07,-0.08,28.43
21099179,1987,1,207217,250302,0.29,-0.76,10.44,-0.01,0.07,-0.04,28.43
21139180,1931,1,207709,251384,0.03,-1.82,9.29,-0.01,0.08,-0.15,28.43
21179179,1947,1,207673,252141,0.44,-0.60,8.44,-0.01,0.02,-0.06,28.43
21219177,1979,1,207941,252642,-0.11,-1.26,10.97,-0.02,0.10,-0.34,28.43
21259200,2042,1,207796,252980,0.09,-0.15,9.64,0.02,-0.01,-0.20,28.43
21299177,2083,1,208148,252984,-0.70,-1.34,11.68,-0.02,0.08,-0.32,28.43
21339200,2062,1,207820,253477,-0.80,-1.47,9.64,-0.01,-0.08,-0.05,28.43
21379212,2055,1,208151,253276,-0.18,-1.55,11.07,-0.05,0.00,-0.15,28.43
21419200,2069,1,207955,253968,-1.07,-1.96,10.62,-0.03,-0.04,-0.04,28.43
21459213,2001,1,207836,251581,-0.12,-0.77,9.51,-0.03,0.01,-0.39,28.43
21499886,1979,1,207044,251906,-0.31,-1.20,12.87,-0.02,-0.04,-0.05,28.59
21538213,2032,1,206592,248394,0.77,-0.51,7.72,-0.12,-0.00,-0.18,28.59
21578200,1959,1,206564,250165,-0.09,-0.99,10.54,-0.06,-0.04,0.03,28.59
21618199,1847,1,207237,251026,-0.23,-1.68,10.78,-0.10,0.19,-0.10,28.59
21658200,2043,1,206934,250075,0.25,-0.80,7.91,0.03,-0.23,-0.09,28.59
21698180,1961,1,207932,252511,-0.38,-1.47,13.10,-0.09,0.07,-0.03,28.59
21738200,2065,1,208406,251922,-1.37,-0.74,6.97,-0.06,0.10,-0.06,28.59
21778200,2037,1,208467,252142,0.01,-1.81,12.74,0.03,-0.05,-0.04,28.59
21818180,2047,1,209166,252907,-1.92,-3.23,8.63,-0.10,0.02,0.15,28.59
21858180,1991,1,209116,252066,-0.24,-0.65,10.46,0.03,-0.02,-0.04,28.59
21898200,2011,1,209047,253363,-1.35,-2.83,12.32,0.00,-0.07,0.07,28.59
21938180,2001,1,209926,255212,-0.80,-1.99,10.16,-0.03,0.04,-0.04,28.59
21978200,1917,1,209412,254030,-0.75,-1.05,11.20,0.02,-0.09,-0.23,28.59
22018200,1913,1,209313,255430,-0.61,-2.22,12.00,-0.02,-0.07,-0.04,28.59
22058217,1961,1,209091,250970,0.38,-0.51,10.78,-0.05,0.00,-0.11,28.59
22098180,1921,1,207712,252023,-1.10,-3.15,12.34,0.00,-0.11,-0.04,28.59
22138200,1968,1,208010,249617,0.79,0.43,8.47,-0.02,-0.05,-0.13,28.59
22178180,1885,1,207845,252249,-1.30,-3.06,12.53,0.00,-0.14,0.21,28.59
22218180,1898,1,208299,251255,-0.34,-1.35,8.17,-0.03,0.04,-0.05,28.59
22258200,2127,1,208218,252813,-1.41,-2.02,12.18,0.08,-0.21,-0.03,28.59
22298200,2142,1,208263,252839,0.50,-0.86,7.56,0.02,-0.17,-0.05,28.59
22338177,2160,1,208642,254233,-0.05,-2.27,11.53,-0.02,-0.07,0.08,28.59
22378200,2128,1,208472,253016,0.19,-0.28,8.78,0.01,-0.05,-0.06,28.59
22418180,2176,1,208112,252534,0.78,-0.68,8.45,0.01,-0.16,0.37,28.59
22458171,2087,1,208300,251672,-0.13,-1.24,8.95,-0.03,0.10,-0.00,28.59
22498200,2137,1,207874,250702,0.62,-0.46,5.81,0.07,-0.23,0.38,28.59
22538858,2971,1,208536,252450,0.86,-1.63,9.64,-0.01,0.02,0.04,28.63
22579186,2210,1,208897,253907,-0.65,-1.69,7.84,0.04,0.02,-0.03,28.63
22619179,2073,1,208748,254832,0.23,-1.47,7.78,0.10,-0.06,-0.33,28.63
22659180,2087,1,208849,254563,-0.11,-1.36,12.03,0.04,0.05,-0.15,28.63
22699179,1984,1,207940,251503,0.92,-0.35,6.78,0.08,-0.12,-0.10,28.63
22739180,1994,1,208207,252646,-0.22,-1.31,13.12,-0.00,0.06,-0.04,28.63
22779200,1979,1,208297,252550,1.64,0.14,7.95,0.04,-0.18,-0.04,28.63
22819171,1919,1,208799,254583,0.12,-0.41,12.28,-0.05,0.18,-0.02,28.63
22859180,1773,1,208697,254604,2.15,0.70,9.71,0.02,-0.10,-0.19,28.63
22899171,1851,1,208763,255662,0.02,-0.31,12.78,-0.07,0.11,-0.03,28.63
22939179,1845,1,208505,254524,1.70,-0.28,11.34,-0.09,-0.00,-0.12,28.63
22979200,1920,1,208069,253849,-0.33,-0.82,12.37,-0.08,-0.04,-0.03,28.63
23019217,1945,1,208052,252886,1.36,-0.27,9.35,-0.17,-0.04,0.43,28.63
23057180,1924,1,208699,253184,0.66,-0.88,10.09,-0.17,-0.02,0.55,28.63
23097180,1987,1,208863,253764,0.31,-1.81,9.14,-0.11,0.01,0.16,28.63
23137171,1971,1,209155,254904,1.19,-0.71,7.88,-0.07,-0.04,-0.07,28.63
23177200,2033,1,209178,255707,0.06,-1.42,10.04,-0.13,0.12,-0.10,28.63
23217180,1982,1,208958,255834,0.90,-0.25,8.04,-0.03,0.00,-0.45,28.63
23257180,1986,1,209090,254230,0.01,-1.56,10.98,-0.07,0.14,-0.18,28.63
23297180,1949,1,207888,250007,1.47,-0.27,8.04,-0.06,-0.07,-0.08,28.63
23337200,2046,1,207987,250164,-0.08,-2.27,11.71,-0.11,0.13,0.20,28.63
23377180,1947,1,208167,250853,0.12,-0.41,6.12,-0.05,-0.00,-0.00,28.63
23418200,1813,1,208814,253765,-0.53,-2.03,11.71,-0.10,0.20,-0.01,28.63
23458200,1938,1,208609,254214,0.47,-0.62,7.31,0.02,-0.01,-0.35,28.63
23498179,1949,1,208029,254185,-0.34,-1.27,9.57,-0.01,0.05,-0.38,28.63
23538200,2032,1,207930,254073,1.33,-0.17,10.32,-0.00,-0.03,-0.13,28.63
23578887,2007,1,207816,252682,-0.70,-0.92,9.59,-0.01,0.06,-0.02,28.65
23617197,1995,1,207480,252035,0.63,-0.89,9.98,-0.00,-0.03,-0.00,28.65
23657200,2014,1,207136,250588,-0.46,-0.43,10.43,-0.03,0.10,-0.02,28.65
23697200,1927,1,206983,251522,0.46,-0.43,8.04,0.01,-0.04,0.36,28.65
23737171,1971,1,207698,253865,-0.61,-2.38,13.34,-0.04,0.24,-0.08,28.65
23777200,2127,1,207559,254530,0.20,0.16,10.43,0.11,-0.13,-0.41,28.65
23817171,2055,1,207561,255003,0.28,-0.96,14.07,0.04,-0.02,-0.24,28.65
23857180,1909,1,207262,253176,-0.65,-1.24,12.95,-0.03,-0.03,-0.09,28.65
23897217,1822,1,205616,246668,-0.16,-1.08,11.83,-0.02,-0.20,-0.02,28.65
23937213,1605,1,204597,245275,0.11,-1.28,11.78,-0.13,-0.12,0.79,28.65
23977180,1584,1,205210,245012,-0.74,-1.26,9.31,-0.09,-0.03,0.10,28.65
24017204,1703,1,204956,245422,0.44,-0.30,9.23,-0.01,-0.30,0.50,28.65
24057180,1789,1,205238,246062,-0.18,-1.35,6.88,-0.09,-0.03,0.09,28.65
24097200,2089,1,205546,247828,-0.21,-0.97,8.17,-0.05,-0.05,0.01,28.65
24137200,2211,1,205544,249284,0.97,-1.45,7.29,-0.02,-0.11,-0.21,28.65
24177200,2249,1,206239,250016,0.22,-1.82,8.40,0.00,-0.04,-0.34,28.65
24217196,2352,1,206088,249881,1.66,-0.61,8.04,0.01,-0.15,-0.41,28.65
24257180,2315,1,206661,249539,0.74,-1.14,9.78,-0.02,0.04,-0.06,28.65
24297179,2176,1,207059,248778,0.19,-1.30,8.19,0.02,-0.04,0.10,28.65
24337168,2115,1,207606,248645,0.58,-1.08,9.61,0.02,0.01,0.04,28.65
24377148,2129,1,207137,248473,0.85,-0.46,8.61,0.05,-0.10,0.12,28.65
24417170,1843,1,207286,250084,-0.26,-2.17,9.39,-0.01,0.17,0.12,28.65
24458180,1947,1,207144,250487,0.14,-0.37,10.27,0.07,0.07,-0.04,28.65
24498171,2228,1,206029,250000,0.40,-0.98,10.97,0.04,-0.01,-0.47,28.65
24538180,2241,1,205703,250901,0.99,0.07,12.00,-0.02,0.04,-0.12,28.65
24578167,1879,1,205555,249172,-0.25,-1.47,11.09,-0.02,0.04,-0.28,28.65
24618887,1921,1,205428,249534,1.13,-0.45,13.68,0.02,-0.10,-0.03,28.71
24657180,1919,1,205996,251387,0.33,-1.33,12.15,-0.10,0.09,-0.03,28.71
24697179,1872,1,206105,251119,-0.54,-1.17,13.21,-0.06,0.07,-0.04,28.71
24737200,1681,1,205155,250618,1.03,-0.81,10.75,-0.10,-0.18,-0.10,28.71
24777200,1682,1,206100,252166,0.06,-0.79,12.65,-0.14,0.04,-0.04,28.71
24817180,1910,1,205475,250692,1.41,-0.59,7.81,-0.16,-0.15,-0.06,28.71
24857201,1578,1,205657,251810,-0.60,-1.81,10.99,-0.14,0.05,-0.01,28.71
24897200,1915,1,205842,251076,1.21,-0.23,6.98,-0.11,0.03,-0.05,28.71
24937179,1921,1,206198,252102,-1.31,-2.35,11.33,-0.07,0.06,0.18,28.71
24977180,2073,1,206156,252422,1.51,-0.32,7.67,-0.06,-0.01,-0.08,28.71
25017199,2160,1,206648,252544,-0.13,-1.97,10.87,-0.02,0.05,-0.18,28.71
25057200,2176,1,206046,248995,1.48,-0.14,6.52,-0.09,-0.09,-0.08,28.71
25097200,2081,1,206282,248955,-0.05,-2.31,11.41,-0.06,0.11,0.00,28.71
25137180,2131,1,207263,248712,1.22,-0.22,6.66,-0.02,-0.07,-0.05,28.71
25177200,2125,1,208832,253085,-0.37,-2.18,12.91,-0.06,0.11,-0.03,28.71
25217200,2207,1,209618,253897,0.25,-0.40,7.98,-0.02,0.11,-0.07,28.71
25257179,1996,1,209804,254679,0.30,-1.41,11.74,0.02,-0.04,-0.06,28.71
25297180,2096,1,210452,254727,-0.10,-0.89,10.69,-0.06,0.11,0.02,28.71
25337180,1885,1,209956,253774,0.30,-0.45,9.31,-0.01,-0.08,-0.06,28.71
25377197,1887,1,210085,252794,0.37,-0.96,11.74,-0.05,0.06,-0.05,28.71
25417180,1705,1,209880,254085,-0.16,-1.42,10.78,-0.06,0.02,0.07,28.71
25456180,1982,1,210002,253430,0.90,-0.28,10.41,-0.06,0.04,-0.06,28.71
25496180,1909,1,209822,255138,0.62,-1.61,12.18,-0.07,-0.03,-0.05,28.71
25536200,2096,1,210089,253753,0.81,-0.29,9.75,-0.08,0.06,-0.08,28.71
25576180,1835,1,209434,254250,0.60,-0.93,11.82,-0.03,-0.19,-0.04,28.71
25616200,2064,1,210161,254427,-0.33,-1.95,12.91,-0.07,0.11,0.00,28.71
25656906,1902,1,208856,249869,-0.59,-1.24,7.82,-0.05,-0.19,-0.00,28.75
25697213,1879,1,208613,250594,-1.35,-2.83,12.43,-0.05,0.08,0.11,28.75
25737180,2033,1,208119,248984,-0.35,-0.52,5.38,-0.10,-0.11,0.03,28.75
25777199,1815,1,208467,250848,-0.94,-2.59,10.70,-0.02,0.07,-0.00,28.75
25817200,2111,1,208318,251447,0.32,-0.45,7.74,-0.04,-0.07,-0.04,28.75
25857203,2192,1,208744,252420,-0.76,-1.98,9.81,0.01,-0.01,-0.08,28.75
25897200,2274,1,208455,251823,0.96,-0.62,9.28,0.00,-0.09,-0.07,28.75
25937177,2240,1,208614,252019,-0.53,-1.77,9.50,-0.02,-0.04,-0.04,28.75
25977215,2223,1,208515,251328,0.91,-0.69,8.38,-0.00,-0.16,-0.04,28.75
26017200,2075,1,208895,251718,-0.09,-1.44,10.61,0.02,0.01,-0.03,28.75
26057179,2067,1,208990,251679,0.49,-0.81,9.02,0.03,-0.11,-0.04,28.75
26097177,2020,1,209341,253044,-0.67,-1.68,10.77,0.02,0.00,-0.03,28.75
26137179,2137,1,209718,253633,0.38,-1.01,9.13,0.02,-0.13,-0.04,28.75
26177180,2067,1,210092,254492,-0.62,-1.38,10.80,0.01,0.02,-0.04,28.75
26217179,2035,1,210112,255011,0.10,-1.31,10.46,0.02,-0.06,-0.05,28.75
26257180,1967,1,210326,254556,0.13,-1.12,12.09,0.01,-0.06,-0.23,28.75
26297180,1808,1,209561,252855,0.40,-0.58,10.50,-0.01,-0.05,-0.09,28.75
26337197,1797,1,209617,253165,0.35,-0.87,12.04,-0.04,-0.01,-0.05,28.75
26377200,1791,1,209356,252162,0.46,-0.94,10.78,-0.06,-0.04,-0.06,28.75
26417200,1501,1,208909,250457,0.92,0.01,8.64,-0.08,-0.08,-0.02,28.75
26457180,1535,1,209100,250360,0.41,-1.33,9.13,-0.14,0.05,0.35,28.75
26496171,1603,1,209197,250093,0.18,-1.43,7.14,-0.11,-0.00,0.23,28.75
26536179,1749,1,209240,251116,1.03,-1.59,9.66,-0.09,0.08,-0.00,28.75
26576177,1946,1,208794,251662,0.88,-1.19,6.92,-0.01,-0.08,-0.26,28.75
26616200,2169,1,208836,252786,-0.36,-1.66,9.28,-0.06,0.14,-0.17,28.75
26656887,2128,1,208519,252150,0.55,-0.49,7.69,-0.03,0.04,-0.17,28.59
26697179,2163,1,208540,251700,0.00,-0.92,10.27,-0.05,0.13,-0.05,28.59
26737177,2112,1,208549,251358,0.64,-0.65,8.94,-0.05,0.05,-0.05,28.59
26777180,1935,1,209048,251766,0.03,-1.31,10.15,-0.03,0.15,-0.03,28.59
26817180,1919,1,209207,252187,0.67,-0.96,8.68,-0.06,0.08,-0.05,28.59
26857179,2131,1,209060,252349,-0.01,-1.39,10.09,-0.06,0.19,-0.04,28.59
26897200,2330,1,208625,251911,0.95,-0.31,10.00,-0.02,0.08,-0.27,28.59
26937179,2122,1,208468,252374,-0.44,-0.96,10.80,-0.04,0.07,-0.16,28.59
26977200,2065,1,208726,252396,-0.45,-1.32,10.25,-0.06,0.10,-0.10,28.59
27015199,2128,1,208681,252018,-0.40,-1.51,12.15,-0.05,0.00,-0.09,28.59
27055200,2125,1,208852,252017,-0.71,-1.68,11.61,-0.07,0.07,-0.04,28.59
27095201,2062,1,208819,251908,-0.73,-1.36,10.19,-0.07,-0.01,-0.04,28.59
27135213,2089,1,209090,252488,-0.94,-1.63,11.41,-0.06,0.06,-0.03,28.59
27175200,2055,1,208932,252308,-0.32,-1.69,10.55,-0.06,-0.04,-0.04,28.59
27215214,2055,1,209233,252881,-1.09,-1.30,11.12,-0.04,0.08,-0.00,28.59
27255200,2037,1,208852,252674,-1.05,-1.56,9.20,-0.06,-0.02,-0.01,28.59
27295253,2068,1,209218,254045,-0.25,-1.71,10.79,-0.06,-0.02,-0.04,28.59
27335217,2113,1,209002,253786,-0.17,-1.29,8.96,-0.08,-0.04,-0.04,28.59
27375213,2022,1,209204,254765,-0.05,-1.54,10.28,-0.03,-0.01,-0.05,28.59
27415217,2095,1,209331,253914,-0.00,-0.98,10.00,-0.05,-0.03,-0.13,28.59
27455213,1998,1,208315,251742,-0.34,-1.46,9.96,-0.02,-0.09,-0.05,28.59
27495255,2054,1,207696,249764,-0.11,-1.73,9.46,-0.05,-0.05,-0.04,28.59
27535213,2058,1,206999,248807,-0.38,-1.53,9.27,-0.01,-0.11,-0.05,28.59
27575217,2101,1,206966,248383,-0.79,-1.58,8.81,-0.03,-0.04,-0.04,28.59
27615213,2000,1,207488,247888,-0.50,-1.23,8.34,-0.00,-0.09,-0.02,28.59
27655214,1947,1,207780,248441,-0.49,-2.11,9.27,0.00,-0.03,0.06,28.59
27695866,2032,1,208184,249827,0.14,-1.48,8.44,0.01,-0.04,0.03,28.53
27736171,2140,1,208791,251944,-0.35,-1.30,9.20,0.00,0.04,-0.05,28.53
27776177,2134,1,209183,252220,0.25,-1.12,8.83,0.01,-0.03,-0.06,28.53
27816179,2102,1,209542,252433,0.76,-0.90,10.12,0.03,-0.04,-0.06,28.53
27856177,2029,1,209844,252377,0.24,-0.97,9.70,0.02,-0.04,-0.05,28.53
27896179,1989,1,210283,252896,-0.19,-1.46,9.96,0.02,-0.01,0.02,28.53
27936180,1963,1,210479,253471,0.02,-1.13,10.32,0.03,-0.04,-0.04,28.53
27976179,1903,1,210838,254572,0.05,-1.28,10.26,0.02,-0.08,-0.04,28.53
28016180,1947,1,210944,253929,-0.55,-1.00,9.60,0.00,0.02,-0.04,28.53
28056180,2027,1,210443,253824,0.00,-1.04,10.84,0.02,-0.06,-0.05,28.53
28096180,2003,1,210502,253893,-0.38,-1.25,10.74,-0.03,0.01,-0.05,28.53
28136200,1981,1,210333,254711,-0.15,-1.07,11.31,0.00,-0.05,-0.04,28.53
28176200,1877,1,210369,254635,0.08,-0.77,10.92,-0.03,-0.04,-0.05,28.53
28216200,1811,1,210225,255039,0.72,-0.45,11.29,-0.04,-0.06,-0.04,28.53
28256200,1681,1,210269,254449,0.46,-0.88,10.94,-0.08,-0.01,-0.04,28.53
28296200,1664,1,209867,253225,0.67,-0.08,10.43,-0.08,-0.06,0.25,28.53
28336180,1641,1,209986,252831,0.45,-0.73,9.62,-0.13,-0.01,0.31,28.53
28376180,1651,1,210456,253220,0.59,-1.30,10.83,-0.13,-0.01,0.35,28.53
28416180,1712,1,210362,253231,0.34,-1.15,8.52,-0.10,-0.06,0.08,28.53
28456180,1809,1,210480,254352,0.14,-1.47,11.17,-0.08,0.02,0.09,28.53
28496171,1771,1,210442,254141,0.88,-0.43,8.87,-0.03,-0.16,-0.06,28.53
28536200,1785,1,210620,254341,-0.12,-2.05,10.46,-0.09,-0.01,0.14,28.53
28576200,1818,1,210802,253699,0.48,-1.11,8.24,-0.03,-0.07,0.05,28.53
28616180,1891,1,210163,250965,-0.04,-1.39,8.81,-0.08,0.09,-0.03,28.53
28656200,1841,1,209156,249726,0.46,-0.61,6.79,0.00,-0.08,-0.06,28.53
28696866,1959,1,209701,251998,0.29,-1.51,9.19,-0.09,0.16,-0.04,28.65
28735180,2130,1,210210,253468,0.97,-0.66,7.93,0.05,-0.13,-0.15,28.65
28775179,2224,1,210445,254247,0.49,-1.27,9.92,-0.03,0.15,-0.04,28.65
28815180,2189,1,210402,254575,0.98,-0.60,7.68,0.05,-0.07,-0.07,28.65
28855180,2211,1,210516,254608,0.72,-1.07,10.28,-0.02,0.08,-0.05,28.65
28895180,2160,1,210558,254591,1.07,-0.68,9.21,0.06,-0.10,-0.06,28.65
28935196,2142,1,210567,254354,0.34,-0.87,10.35,-0.04,0.06,-0.03,28.65
28975180,2097,1,210405,254835,-0.03,-0.70,10.77,0.04,0.02,-0.01,28.65
29015179,2097,1,210404,255288,0.73,-0.60,11.74,-0.02,0.05,-0.02,28.65
29055177,2005,1,210362,255830,0.16,-0.91,12.07,-0.01,0.00,-0.01,28.65
29095179,1908,1,210187,255016,0.16,-0.51,11.08,-0.05,0.06,-0.01,28.65
29135200,1795,1,209806,253770,0.57,0.09,10.08,-0.07,-0.03,0.18,28.65
29175171,1763,1,209714,250758,0.99,-0.82,12.38,-0.12,0.03,0.13,28.65
29215171,1648,1,208239,246797,0.51,-0.63,9.10,-0.10,-0.04,0.27,28.65
29255179,1600,1,207897,246733,0.91,-1.02,11.04,-0.17,0.06,0.41,28.65
29295171,1844,1,207976,245998,0.61,-1.17,7.81,-0.13,0.05,-0.01,28.65
29335200,1999,1,207670,247562,0.98,-1.26,10.40,-0.12,0.04,0.06,28.65
29375170,2199,1,207955,247855,0.51,-1.45,8.55,-0.08,0.05,-0.17,28.65
29415180,2126,1,207694,248882,0.17,-0.90,9.60,-0.05,0.07,-0.03,28.65
29455177,2160,1,207810,249276,-0.15,-1.84,9.33,-0.09,0.07,-0.16,28.65
29495200,2108,1,207659,250149,0.51,-0.91,9.45,-0.04,0.03,-0.08,28.65
29535177,2160,1,208203,250957,-0.03,-1.54,10.13,-0.03,0.15,-0.12,28.65
29575200,2091,1,208084,251314,0.30,-0.99,9.77,-0.01,0.04,-0.04,28.65
29615177,2096,1,208257,252218,0.11,-1.31,10.48,-0.05,0.13,-0.06,28.65
29655179,2156,1,208373,251883,0.38,-1.26,10.24,-0.01,0.05,-0.13,28.65
29695180,2065,1,208280,252408,0.31,-1.16,10.86,-0.02,0.04,-0.12,28.65
29735866,2096,1,208024,250297,0.12,-1.19,8.64,-0.03,0.04,-0.21,28.65
29774180,2033,1,207470,250734,0.43,-1.12,10.32,-0.05,0.04,-0.04,28.65
29814179,2063,1,207460,250692,0.03,-1.19,10.58,0.00,0.03,-0.52,28.65
29854171,1909,1,206653,250092,0.20,-0.53,10.07,0.02,-0.01,-0.17,28.65
29894180,1916,1,206851,250768,-0.99,-2.27,11.18,-0.07,0.13,-0.16,28.65
29934200,1919,1,206298,249995,-0.40,-0.93,8.93,0.00,-0.03,-0.18,28.65
29974200,1937,1,206370,250612,-0.55,-2.06,10.87,-0.03,0.02,-0.13,28.65
30014200,1970,1,206193,249684,-0.68,-1.26,8.48,-0.02,0.04,-0.10,28.65
30054200,1963,1,206109,249863,0.06,-1.04,12.00,0.03,-0.04,-0.15,28.65
30094177,1998,1,205823,249229,-0.36,-0.95,8.07,-0.06,0.03,-0.07,28.65
30134200,2041,1,206211,250203,0.28,-1.41,12.83,-0.00,-0.01,-0.07,28.65
30174200,2053,1,206214,249507,-0.64,-0.87,8.27,-0.06,0.03,-0.09,28.65
30214200,1909,1,206772,251202,-0.45,-1.45,11.70,-0.02,-0.00,-0.01,28.65
30254213,2002,1,207088,250493,-0.04,-0.96,8.57,-0.05,0.05,-0.07,28.65
30294200,1851,1,207529,249568,-0.67,-1.43,10.87,-0.04,-0.03,0.11,28.65
30334200,2015,1,207066,246476,0.41,-1.61,9.64,-0.07,0.03,-0.03,28.65
30374179,1843,1,206360,246438,-1.29,-1.80,9.35,-0.02,-0.03,0.19,28.65
30414200,1975,1,206665,247062,-0.16,-2.02,9.04,-0.04,-0.01,-0.02,28.65
30454214,2009,1,207008,249339,-0.94,-1.52,9.03,-0.02,0.04,-0.01,28.65
30494200,2106,1,207674,251151,0.46,-0.77,9.50,-0.00,0.01,-0.06,28.65
30534180,2119,1,207945,251278,-0.48,-1.38,10.12,-0.01,0.07,-0.04,28.65
30574200,2095,1,207518,250066,0.59,-1.00,9.92,-0.02,-0.03,-0.03,28.65
30614200,2068,1,207287,248640,0.45,-1.06,10.08,-0.02,0.02,-0.03,28.65
30654180,2032,1,207502,248541,0.17,-0.97,10.01,-0.03,0.02,0.17,28.65
30694171,2045,1,207510,248644,0.22,-0.71,9.12,-0.03,0.04,-0.02,28.65
30734177,1947,1,207604,250597,-0.15,-1.41,10.51,-0.02,0.01,-0.01,28.65
30774905,1968,1,207616,250509,0.39,-0.94,9.36,-0.03,0.02,-0.12,28.71
30813180,2018,1,207738,252108,-0.23,-1.06,11.49,-0.01,-0.05,-0.01,28.71
30853217,2003,1,207455,249913,-0.08,-1.41,10.13,-0.03,0.03,-0.22,28.71
30893200,1991,1,206273,249393,-0.88,-1.17,11.35,-0.00,-0.03,-0.03,28.71
30933217,2027,1,205859,247295,0.58,-0.80,10.27,-0.07,-0.05,-0.06,28.71
30973225,1951,1,205414,246005,-0.76,-1.42,11.05,-0.05,0.02,0.14,28.71
31013180,1938,1,205483,246555,-0.13,-1.27,10.51,-0.04,0.01,0.03,28.71
31053180,1922,1,206017,248806,-0.00,-0.97,10.74,-0.07,0.03,-0.02,28.71
31093200,1920,1,206344,249730,0.45,-0.99,9.92,-0.08,-0.02,-0.02,28.71
31133200,1941,1,206180,249110,0.37,-0.66,9.09,-0.07,-0.02,-0.06,28.71
31173200,1969,1,205968,249275,0.45,-1.03,10.26,-0.07,-0.02,-0.02,28.71
31213200,1968,1,206122,249131,-0.45,-1.32,10.29,-0.06,0.06,-0.02,28.71
31253200,1963,1,205883,248236,0.62,-0.63,8.88,-0.02,-0.10,-0.02,28.71
31293197,1942,1,206160,249148,-0.03,-1.51,9.78,-0.09,0.02,0.01,28.71
31333179,1977,1,206577,249646,-0.51,-1.25,8.16,-0.05,0.03,0.10,28.71
31373179,1978,1,206753,249006,-0.16,-1.16,9.47,-0.02,-0.01,-0.01,28.71
31413217,1919,1,206142,246121,-0.84,-1.63,8.31,-0.03,0.06,0.12,28.71
31453180,1950,1,205893,247023,-0.07,-1.56,9.49,0.00,0.02,-0.01,28.71
31493179,2147,1,206079,247824,-0.14,-1.20,8.87,-0.02,-0.02,-0.02,28.71
31533213,2256,1,206620,249342,-0.45,-1.11,8.35,0.02,0.05,-0.01,28.71
31573179,2256,1,206941,249736,-0.14,-1.07,9.60,0.05,0.02,-0.12,28.71
31613180,2229,1,206919,250237,0.51,-0.79,9.54,0.02,-0.05,-0.02,28.71
31653179,2245,1,207307,250213,0.96,-0.47,8.51,0.01,0.00,-0.03,28.71
31693167,2201,1,207940,252050,-0.63,-1.31,10.60,0.02,0.14,-0.01,28.71
31733179,2187,1,208288,252766,0.33,-0.03,9.25,0.02,0.04,-0.11,28.71
31773167,2093,1,208883,254503,-0.05,-0.90,12.36,0.02,0.02,-0.06,28.71
31813866,1898,1,209358,253941,-0.21,-0.64,10.79,-0.02,-0.01,-0.09,28.91
31854213,1839,1,209203,254261,-0.85,-0.77,12.21,-0.03,-0.03,-0.00,28.91
31894216,1799,1,209448,253900,-0.07,-0.99,12.14,-0.06,-0.02,-0.02,28.91
31934213,1775,1,209248,253155,-1.00,-0.88,12.37,-0.06,-0.03,-0.01,28.91
31974217,1787,1,208341,249905,-0.17,-1.24,9.80,-0.10,-0.07,0.02,28.91
32014200,1728,1,207975,251071,0.17,-0.65,11.55,-0.08,-0.04,-0.02,28.91
32054200,1802,1,208238,251576,-0.17,-0.84,9.86,-0.11,-0.00,-0.01,28.91
32094213,1776,1,208190,252204,0.04,-0.85,10.29,-0.09,-0.03,-0.02,28.91
32134200,1789,1,208309,252262,-0.14,-1.16,9.82,-0.10,0.01,-0.02,28.91
32174200,1829,1,207851,251986,0.75,-0.64,8.94,-0.10,-0.09,-0.02,28.91
32214200,1821,1,208079,252268,0.18,-1.32,9.67,-0.10,0.01,-0.02,28.91
32254180,1862,1,207889,251173,0.08,-1.11,8.46,-0.07,-0.04,-0.01,28.91
32294200,1856,1,207376,250052,0.59,-0.86,8.54,-0.05,-0.06,-0.02,28.91
32334197,1897,1,207628,250587,0.28,-1.46,9.28,-0.04,0.00,0.05,28.91
32374171,1903,1,207781,251253,0.17,-1.11,8.49,-0.02,-0.05,-0.01,28.91
32414224,1930,1,208106,252639,-0.50,-1.51,9.44,-0.02,0.04,-0.01,28.91
32454200,1923,1,208308,252586,-0.05,-0.60,9.13,0.02,-0.02,-0.06,28.91
32492196,2015,1,207932,249011,-0.38,-1.22,10.23,0.02,0.02,-0.00,28.91
32532179,2023,1,205839,244214,0.11,-1.02,9.26,0.00,-0.04,-0.01,28.91
32572177,2000,1,205307,243758,-0.40,-1.09,10.07,-0.00,0.03,-0.00,28.91
32612228,2091,1,205308,243966,-0.11,-0.87,9.19,-0.01,0.02,-0.00,28.91
32652200,2126,1,205814,245451,0.03,-0.79,11.22,0.00,0.05,0.00,28.91
32692149,2198,1,206000,245633,0.24,-0.44,9.78,-0.02,0.01,-0.01,28.91
32732180,2169,1,206267,247368,0.05,-0.91,10.70,-0.03,0.05,0.02,28.91
32772171,2157,1,206813,248726,0.05,-0.76,10.70,-0.04,0.05,-0.01,28.91
32812177,2045,1,206350,247223,0.82,-0.43,10.12,-0.03,-0.07,-0.01,28.91
32852886,2000,1,206391,247755,0.24,-0.87,10.27,-0.06,0.03,-0.01,28.77
32893180,2005,1,206276,246894,0.95,-0.50,9.37,-0.06,-0.09,0.00,28.77
32933180,1986,1,206743,249661,0.05,-1.09,10.85,-0.07,0.06,0.01,28.77
32973170,2015,1,206909,250069,0.20,-1.08,9.04,-0.07,-0.03,-0.00,28.77
33013200,1998,1,207162,251036,-0.45,-1.25,10.54,-0.06,0.04,-0.00,28.77
33053200,1967,1,205994,245571,0.49,-0.34,9.04,-0.05,-0.08,-0.01,28.77
33093200,1909,1,205269,245960,-0.76,-1.00,11.37,-0.06,0.08,0.11,28.77
33133180,1882,1,204730,243192,-0.18,-0.57,8.00,-0.04,-0.03,0.01,28.77
33173200,1765,1,204257,243586,-0.59,-1.01,11.06,-0.07,0.04,0.41,28.77
33213180,1727,1,204279,242581,0.10,-0.87,6.81,-0.07,0.01,0.19,28.77
33253171,1769,1,204659,246540,-0.47,-0.22,11.64,-0.03,0.06,0.21,28.77
33293180,1903,1,205310,248082,0.18,-0.96,8.53,0.01,-0.00,-0.17,28.77
33333179,1906,1,205467,249898,-0.21,-0.35,11.12,0.00,0.06,-0.01,28.77
33373180,1824,1,205513,248236,-0.20,0.09,9.13,-0.03,0.02,-0.01,28.77
33413179,1849,1,204899,247546,-0.21,-0.03,10.02,0.00,-0.01,0.27,28.77
33453180,1827,1,205146,246976,0.36,-0.16,9.76,-0.05,0.02,0.05,28.77
33493171,1808,1,205145,247706,-0.84,-0.44,9.55,0.01,0.03,0.35,28.77
33533171,1775,1,205844,250021,0.60,0.12,10.31,-0.00,0.05,0.02,28.77
33573150,1920,1,206199,251088,-0.40,-0.39,9.55,0.01,0.02,0.01,28.77
33613167,1935,1,206172,250925,0.05,0.45,9.98,0.04,0.03,-0.11,28.77
33653149,1938,1,205631,250635,-0.18,0.17,10.76,0.01,-0.02,-0.41,28.77
33693180,1868,1,205222,250126,-0.51,0.85,10.52,0.02,-0.01,-0.12,28.77
33733179,1925,1,204809,249014,-0.12,0.18,10.07,-0.03,-0.06,-0.04,28.77
33773200,1923,1,204965,250249,-0.48,-0.09,10.71,-0.00,-0.04,0.01,28.77
33813200,2096,1,204994,250442,-0.50,-0.60,10.62,-0.04,-0.02,-0.10,28.77
33853899,2084,1,204738,250530,-0.82,-0.33,10.69,0.01,-0.03,-0.00,28.83
33892200,2147,1,204587,250433,-0.16,0.26,10.69,-0.04,-0.04,-0.12,28.83
33932199,2187,1,204392,250589,-0.76,-0.69,10.56,-0.02,-0.12,0.00,28.83
33972200,2239,1,204493,250407,-0.46,0.19,10.19,-0.07,-0.04,0.01,28.83
34012180,2238,1,204253,250287,-0.32,-0.25,10.71,-0.03,-0.09,0.01,28.83
34052203,2298,1,204115,249733,-0.41,0.31,10.33,-0.06,-0.04,0.01,28.83
34092180,2214,1,204000,249871,-0.09,-0.60,10.31,-0.07,-0.11,0.02,28.83
34132200,2256,1,203891,249023,0.00,-0.38,8.86,-0.10,-0.08,0.02,28.83
34172177,2205,1,203876,248353,-0.32,0.01,9.05,-0.05,-0.07,0.08,28.83
34212180,2254,1,203814,246829,-0.08,-0.51,9.62,-0.06,-0.02,0.01,28.83
34252211,2219,1,202931,246099,-0.75,-0.02,8.77,-0.04,-0.03,0.02,28.83
34292200,2190,1,202919,245660,0.13,-0.38,9.34,-0.04,-0.07,0.00,28.83
34332177,2176,1,202968,245115,-0.02,0.00,8.47,-0.03,-0.06,0.01,28.83
34372179,2160,1,203512,246066,-0.44,-0.74,9.63,-0.02,-0.04,0.01,28.83
34412200,2153,1,203980,245989,0.07,0.02,8.30,-0.01,-0.03,0.00,28.83
34452171,2121,1,204394,246448,-0.50,-0.37,9.26,-0.00,0.01,0.09,28.83
34491177,2060,1,204818,246618,0.23,-0.08,8.35,0.00,0.00,0.01,28.83
34531149,1955,1,205212,249226,-0.62,-0.80,11.15,0.06,0.01,0.10,28.83
34571167,1968,1,205196,250459,0.08,-0.14,9.64,0.02,0.03,0.00,28.83
34611149,2096,1,205234,251538,-0.63,-1.06,12.69,0.05,0.02,-0.05,28.83
34651179,2083,1,205386,251769,-0.60,0.90,11.18,0.01,0.02,-0.16,28.83
34691171,2210,1,205611,252294,-0.60,-0.01,14.31,-0.01,-0.05,-0.10,28.83
34731213,2160,1,205789,252178,-0.25,0.95,13.27,-0.07,-0.01,-0.09,28.83
34771199,2116,1,205506,250431,-0.40,0.35,14.84,-0.06,-0.05,-0.10,28.83
34811200,2182,1,204502,246774,0.33,0.67,12.27,-0.14,-0.14,-0.01,28.83
34851180,2000,1,203943,244796,0.05,0.33,9.85,-0.22,-0.06,0.17,28.83
34891857,1961,1,204075,245078,-0.03,-0.17,8.02,-0.18,-0.07,0.38,28.17
34932200,1926,1,204687,246601,-0.44,-0.19,8.06,-0.14,0.03,0.18,28.17
34972180,2094,1,204872,249106,0.36,0.02,7.36,-0.11,-0.06,0.10,28.17
35012171,2180,1,205222,250911,0.05,-0.18,7.30,-0.11,0.00,-0.06,28.17
35052177,2149,1,205422,250949,-0.18,-0.98,7.99,-0.06,-0.00,-0.12,28.17
35092217,2160,1,205984,251236,0.30,-0.77,9.24,-0.04,-0.05,-0.00,28.17
35132196,2160,1,206145,250489,0.26,-1.14,8.15,-0.09,-0.04,0.00,28.17
35172179,2203,1,207920,251169,-0.54,-1.16,9.75,0.01,-0.02,0.07,28.17
35212180,2035,1,209432,251834,0.20,-0.04,7.89,0.00,0.02,0.01,28.17
35252149,1798,1,210400,252492,0.03,-2.07,9.55,0.01,0.04,0.16,28.17
35292148,1568,1,211418,253733,0.50,-1.02,8.32,0.05,0.02,-0.10,28.17
35332170,1665,1,212194,256762,0.25,-0.30,10.47,0.06,0.08,-0.10,28.17
35372170,1773,1,212339,257704,0.39,-0.64,9.02,0.09,0.04,-0.18,28.17
35412171,1744,1,211767,256641,0.05,-0.53,10.91,0.04,0.03,-0.27,28.17
35452171,1759,1,211145,253886,-0.21,-0.65,9.62,0.05,0.01,-0.01,28.17
35491179,1771,1,210706,252456,-0.14,-0.50,11.13,-0.00,0.01,0.00,28.17
35531177,1684,1,211273,253592,-0.55,-1.13,10.93,-0.01,0.05,0.01,28.17
35571179,1883,1,212002,255375,0.25,-0.17,10.44,-0.01,0.00,-0.00,28.17
35611177,1847,1,212601,257522,0.08,-0.55,12.26,-0.08,0.00,0.01,28.17
35651171,2103,1,212772,258134,0.06,-0.50,9.65,-0.10,0.04,0.01,28.17
35691201,2127,1,212843,258096,0.10,-0.48,10.84,-0.04,0.01,0.01,28.17
35731170,2123,1,212468,257646,0.00,-0.70,10.28,-0.10,-0.01,0.03,28.17
35771177,2096,1,212427,257818,-0.11,-0.27,9.92,-0.09,0.02,0.03,28.17
35811179,2109,1,212159,257355,-0.19,-0.55,9.20,-0.09,-0.02,0.05,28.17
35851197,2050,1,212094,257828,-0.32,-0.76,9.90,-0.09,0.04,0.04,28.17
35891906,2015,1,212112,258100,0.21,-0.40,8.99,-0.07,0.02,0.02,28.19
35932166,1907,1,211966,258220,-0.12,-0.97,9.93,-0.07,0.00,0.04,28.19
35972179,2003,1,211987,258352,-0.18,-0.09,8.83,-0.05,0.02,0.03,28.19
36012177,1993,1,211707,256932,-0.50,-0.50,9.29,-0.05,0.05,0.07,28.19
36052179,1983,1,211058,256197,-0.57,-1.18,9.50,-0.04,-0.00,0.05,28.19
36092197,2015,1,211069,256638,-0.19,-0.56,9.18,-0.02,0.02,0.01,28.19
36132180,1920,1,211121,256910,-0.65,-0.34,8.90,-0.01,0.05,0.06,28.19
36170177,1968,1,211170,257304,-0.23,-0.80,9.98,0.01,0.04,0.01,28.19
36210171,1946,1,211331,257757,-0.57,-0.85,10.63,0.01,0.02,-0.04,28.19
36250180,1927,1,211496,258217,-0.85,-0.62,10.11,0.02,-0.02,-0.01,28.19
36290200,1872,1,211697,258218,-0.65,-0.18,10.89,0.01,0.04,-0.06,28.19
36330180,1729,1,211787,258286,-0.87,-0.91,12.07,-0.01,0.01,-0.03,28.19
36370200,1805,1,211903,258326,-0.72,-0.56,12.06,-0.02,-0.02,-0.08,28.19
36410213,1777,1,211928,258355,-1.01,-0.28,11.90,-0.04,-0.03,-0.06,28.19
36450217,1706,1,211900,258204,-1.05,-0.42,11.29,-0.05,-0.00,0.00,28.19
36490197,1664,1,212017,258620,-0.97,-0.74,12.67,-0.05,0.01,-0.01,28.19
36531199,1585,1,211971,258205,-0.89,-0.78,10.23,-0.11,-0.11,-0.02,28.19
36571214,1574,1,211889,257646,-0.78,-0.47,9.78,-0.09,-0.06,-0.01,28.19
36611214,1620,1,211392,255728,-1.35,-0.49,8.63,-0.11,0.01,0.00,28.19
36651180,1580,1,210620,254329,-0.26,-0.79,8.35,-0.08,-0.10,0.05,28.19
36691200,1743,1,210563,254722,-0.42,-0.85,8.26,-0.10,-0.02,0.04,28.19
36731200,1958,1,210849,256829,-1.05,-1.08,7.95,-0.05,0.01,0.02,28.19
36771179,2219,1,211303,257814,-0.30,-1.36,9.09,-0.01,-0.02,-0.08,28.19
36811213,2239,1,211622,257785,-1.11,-1.30,9.73,-0.01,-0.04,-0.09,28.19
36851217,2199,1,211641,256460,-0.22,-0.82,8.91,-0.04,-0.07,-0.02,28.19
36891900,2167,1,212102,256555,-0.75,-0.33,9.25,0.00,-0.01,0.03,28.43
36930179,2029,1,212884,256281,-0.65,-0.63,8.96,0.00,-0.02,0.07,28.43
36970177,2118,1,213425,256304,-0.08,-1.14,10.14,-0.01,0.00,0.02,28.43
37010179,2306,1,213825,257083,-0.47,-1.35,8.77,0.03,-0.05,-0.00,28.43
37050200,2151,1,214359,258645,-0.20,-0.56,8.98,0.03,0.02,-0.01,28.43
37090180,2325,1,214519,259590,-0.89,-1.59,10.79,0.03,0.01,-0.08,28.43
37130180,2333,1,214241,259758,-0.42,-0.72,10.69,0.03,-0.05,-0.07,28.43
37170200,2316,1,214031,259700,-0.56,-0.44,11.19,0.02,-0.03,-0.08,28.43
37210200,2263,1,213759,259047,-0.53,-0.37,11.30,0.00,-0.04,-0.03,28.43
37250200,2313,1,213239,258252,-0.85,-0.63,12.77,-0.04,-0.01,-0.01,28.43
37290213,2190,1,212713,257617,-1.02,-0.47,11.26,-0.04,-0.02,0.02,28.43
37330238,2078,1,212500,257884,-0.57,0.09,10.84,-0.05,-0.03,-0.00,28.43
37370197,1989,1,212330,257662,-0.80,-0.64,11.38,-0.08,-0.00,0.02,28.43
37410200,1815,1,211917,257602,-0.63,-0.20,9.56,-0.09,-0.07,0.02,28.43
37450197,1703,1,211896,257786,-0.65,0.11,9.01,-0.09,-0.01,0.07,28.43
37490179,1689,1,211649,257991,-0.40,0.33,7.88,-0.08,-0.06,0.05,28.43
37530212,1725,1,211752,258690,-0.27,-0.28,9.02,-0.09,0.00,0.01,28.43
37570179,1897,1,211628,259078,-0.34,0.14,8.77,-0.10,-0.01,-0.01,28.43
37610199,2034,1,211159,258932,-0.37,0.16,8.18,-0.06,0.00,-0.01,28.43
37650179,2097,1,211080,259196,-0.51,0.16,9.01,-0.03,0.04,-0.01,28.43
37690177,2110,1,210969,258656,-0.46,0.03,9.69,-0.05,0.04,-0.01,28.43
37730179,2064,1,210757,258025,-0.43,-0.16,9.16,-0.02,-0.02,0.00,28.43
37770197,2076,1,211171,258324,-0.71,0.27,9.68,-0.01,0.06,0.08,28.43
37810171,2038,1,211364,258693,-0.90,-0.53,9.78,0.01,0.03,-0.00,28.43
37850177,2063,1,211549,258714,-0.63,-0.24,9.99,0.01,0.01,-0.01,28.43
37890180,2070,1,211311,258062,-1.23,-0.07,10.07,0.00,0.03,-0.01,28.43
37930866,2041,1,211087,257940,-1.03,-0.09,9.38,0.02,-0.01,-0.01,28.51
37971200,2073,1,211422,258164,-0.35,-0.36,10.85,-0.00,0.01,-0.02,28.51
38011200,2081,1,211713,258606,-1.21,-0.20,10.24,-0.01,-0.02,-0.02,28.51
38049217,2192,1,211730,258116,-0.61,0.27,9.78,-0.01,-0.03,-0.02,28.51
38089200,2160,1,211967,259270,-1.06,-0.23,11.09,-0.03,0.02,-0.02,28.51
38129200,2142,1,211865,258039,-0.60,0.28,10.13,-0.05,-0.01,-0.14,28.51
38169199,2090,1,211679,258139,-0.81,-0.04,11.60,-0.04,-0.05,-0.02,28.51
38209214,2071,1,211811,257484,-0.38,0.45,10.26,-0.07,0.01,-0.03,28.51
38249180,1987,1,211804,257286,-1.00,-0.14,11.09,-0.05,-0.01,-0.02,28.51
38289215,1966,1,211952,257518,-0.36,-0.19,10.34,-0.09,-0.02,-0.02,28.51
38329213,2010,1,212135,257215,-1.11,0.30,9.78,-0.09,0.01,-0.02,28.51
38369179,1936,1,212076,257293,-0.95,-0.29,9.55,-0.07,-0.02,-0.02,28.51
38409213,2005,1,212369,257469,-0.21,-0.40,9.62,-0.10,-0.01,-0.03,28.51
38449214,2014,1,212828,258116,-0.92,-0.66,9.86,-0.07,-0.01,0.05,28.51
38489200,2096,1,212545,256556,-0.11,0.43,9.27,-0.05,-0.01,-0.02,28.51
38529200,2096,1,212341,256777,-1.25,-0.67,11.25,-0.04,0.06,-0.00,28.51
38570200,2063,1,211990,255976,-0.15,0.05,8.89,-0.05,-0.07,-0.01,28.51
38610200,2032,1,212080,256194,-0.94,-0.30,10.33,-0.06,0.00,0.03,28.51
38650177,2064,1,212092,255966,-0.45,-0.18,8.88,-0.05,-0.00,0.18,28.51
38690200,2065,1,212500,256394,-0.69,-0.19,10.51,-0.04,0.03,0.01,28.51
38730180,1989,1,212598,257055,-0.78,-0.21,9.66,-0.02,-0.01,0.00,28.51
38770200,1874,1,212793,257755,-0.40,0.36,10.19,-0.02,0.03,0.00,28.51
38810167,1808,1,212641,258050,-0.94,-0.50,10.42,-0.01,-0.00,0.01,28.51
38850200,1883,1,212367,258326,-0.73,0.23,9.96,-0.04,-0.00,0.01,28.51
38890177,1778,1,211915,258609,-1.01,-0.51,10.72,-0.02,-0.01,0.19,28.51
38930200,1890,1,211534,258862,-0.45,0.34,9.72,-0.01,-0.03,0.20,28.51
38970881,1888,1,211074,258480,-1.25,-0.41,10.96,-0.01,0.07,0.02,28.45
39009179,1889,1,211169,258930,-0.97,1.06,10.17,0.02,-0.04,0.09,28.45
39049170,1829,1,211200,258268,-0.93,0.28,10.15,-0.05,-0.00,-0.03,28.45
39089200,1808,1,210989,257001,-1.43,0.23,9.35,-0.02,-0.05,0.01,28.45
39129180,1827,1,210477,254931,-0.91,-0.02,10.35,-0.06,0.02,-0.00,28.45
39169205,1782,1,210161,255606,-1.40,-0.07,9.70,-0.03,-0.05,0.23,28.45
39209197,1771,1,210511,255964,-1.06,0.31,9.27,-0.04,0.03,0.01,28.45
39249171,1797,1,210324,256241,-0.86,0.19,9.96,-0.03,-0.02,0.13,28.45
39289180,1934,1,210554,256500,-0.86,0.32,9.32,-0.05,0.00,0.01,28.45
39329171,2004,1,210612,256192,-0.84,0.88,8.98,-0.01,-0.02,0.02,28.45
39369177,1961,1,210731,256091,-0.67,0.16,9.87,-0.04,0.01,0.05,28.45
39409171,1973,1,210758,256001,-0.78,0.24,9.66,-0.04,0.01,0.04,28.45
39449168,1994,1,210889,256365,-1.05,0.51,9.31,-0.01,-0.01,0.01,28.45
39489180,2039,1,211064,256862,-0.93,0.63,9.83,0.00,0.04,0.01,28.45
39529148,2046,1,211467,258089,-1.14,0.02,10.95,-0.01,0.03,0.01,28.45
39569171,2053,1,211724,258478,-0.96,0.70,10.82,0.00,-0.03,-0.07,28.45
39609177,2098,1,211980,258885,-0.92,0.80,11.56,-0.00,-0.02,-0.02,28.45
39649200,2176,1,212282,259003,-0.74,0.63,11.19,-0.02,-0.03,0.00,28.45
39689180,2144,1,212583,258628,-1.05,0.31,12.58,-0.04,-0.04,0.01,28.45
39729179,2137,1,211920,256559,-0.63,0.93,11.34,-0.02,-0.07,0.01,28.45
39769180,2150,1,211255,256414,-0.99,0.57,11.55,-0.07,-0.06,0.01,28.45
39809179,2106,1,211292,256502,-0.95,0.40,10.92,-0.07,-0.03,0.01,28.45
39849180,2035,1,211006,255956,-0.91,1.02,9.28,-0.06,-0.09,0.07,28.45
39889180,1952,1,210870,255875,-0.63,0.77,8.97,-0.09,-0.04,0.14,28.45
39929180,1884,1,210774,255716,-0.66,0.61,8.00,-0.07,-0.04,0.18,28.45
39969179,1840,1,210884,257150,-0.57,0.36,9.84,-0.09,-0.01,0.07,28.45
40009867,1954,1,210771,257324,-0.49,0.88,7.49,-0.03,-0.12,-0.02,28.51
40050200,1865,1,210743,258063,-0.84,0.44,9.24,-0.02,-0.06,0.05,28.51
40090180,1947,1,210811,257697,-0.60,0.54,8.78,-0.04,-0.04,0.02,28.51
40130179,1930,1,211134,257873,-0.63,0.99,9.93,0.03,-0.13,0.09,28.51
40170170,2012,1,211515,257742,-0.08,0.81,8.81,-0.01,-0.07,0.03,28.51
40208180,2033,1,212256,258479,-0.15,0.50,10.76,0.01,-0.04,0.18,28.51
40248171,2086,1,212544,258671,-0.48,-0.05,9.94,0.02,-0.06,0.01,28.51
40288180,2053,1,212774,259296,-0.07,0.95,11.20,0.07,-0.09,-0.11,28.51
40328180,2005,1,212624,257413,-0.45,0.74,10.70,0.06,-0.01,-0.13,28.51
40368179,1963,1,211935,256497,-0.80,0.20,11.72,0.05,-0.05,-0.00,28.51
40408177,1990,1,211771,255602,0.05,1.05,10.08,0.05,-0.13,-0.13,28.51
40448171,1792,1,211806,256118,-0.87,1.37,9.77,0.02,-0.01,0.03,28.51
40488171,1879,1,211835,256467,0.31,1.24,8.62,0.03,-0.08,0.02,28.51
40528149,1993,1,211992,258321,-1.21,0.32,11.26,0.01,0.06,0.08,28.51
40568148,2122,1,211725,257931,0.18,1.20,8.03,0.04,-0.08,-0.03,28.51
40608171,2117,1,211017,257919,-1.04,0.42,11.30,-0.01,0.02,0.04,28.51
40648168,2157,1,210495,257245,-0.57,1.52,9.14,-0.01,-0.01,-0.03,28.51
40688200,2090,1,210179,257239,-0.41,1.02,9.68,0.02,-0.08,0.04,28.51
40728168,2096,1,210167,256689,-0.52,1.14,10.01,-0.05,0.00,0.04,28.51
40768171,2086,1,209790,256255,-0.63,1.07,9.56,-0.03,-0.07,0.04,28.51
40808213,2032,1,210048,256691,-0.20,0.84,10.37,-0.07,-0.04,0.14,28.51
40848179,2007,1,210076,257245,-0.06,1.07,9.35,-0.07,-0.04,0.12,28.51
40888180,2027,1,210423,257569,-0.51,0.39,11.13,-0.04,0.04,0.04,28.51
40928171,2014,1,210073,255914,-0.40,0.34,10.64,-0.06,-0.05,0.04,28.51
40968180,2004,1,209463,254095,-0.40,0.89,10.14,-0.06,-0.02,0.04,28.51
41008198,2032,1,209304,253652,-0.13,0.76,10.17,-0.01,-0.04,-0.08,28.51
41048886,2057,1,209841,254714,-0.36,0.41,11.63,-0.06,0.01,-0.01,28.51
41089179,2080,1,209801,254133,-0.01,1.32,8.78,-0.03,-0.05,-0.15,28.51
41129200,2019,1,210053,255387,-0.69,0.46,11.04,-0.04,0.03,0.04,28.51
41169171,2083,1,210149,255444,-0.21,0.72,10.01,-0.06,0.01,0.03,28.51
41209167,2056,1,209994,255551,-0.41,0.81,10.41,-0.03,-0.02,0.04,28.51
41249179,2095,1,210236,255689,-0.28,1.11,9.44,-0.04,0.03,0.04,28.51
41289171,2062,1,210219,255960,-0.36,1.01,11.17,-0.02,0.02,0.03,28.51
41329171,2086,1,210013,256191,-0.16,1.02,9.61,-0.06,-0.07,0.04,28.51
41369179,2079,1,210001,256564,-0.47,1.15,10.85,-0.08,0.06,0.04,28.51
41409171,2058,1,209662,256646,-0.70,0.80,9.93,-0.03,-0.03,0.05,28.51
41449177,1988,1,209386,256151,-0.62,0.66,10.36,-0.06,0.04,0.14,28.51
41489171,1965,1,209254,256261,-0.68,1.25,10.34,-0.08,0.01,0.30,28.51
41529171,1936,1,208814,253675,-0.48,0.63,9.02,-0.06,0.02,0.11,28.51
41569171,1884,1,208093,253747,-0.80,1.41,10.94,-0.04,0.04,0.11,28.51
41609171,1855,1,208214,254397,-0.42,1.25,9.56,-0.09,-0.01,0.03,28.51
41649179,1818,1,208506,255144,-0.74,0.75,10.44,-0.07,0.01,0.01,28.51
41689171,1827,1,208518,255454,-0.83,1.23,9.49,-0.03,0.02,0.05,28.51
41729171,1843,1,208983,256305,-1.12,0.45,10.91,-0.08,0.08,0.03,28.51
41769171,1822,1,208879,256195,-0.62,1.56,9.63,-0.05,-0.07,0.01,28.51
41809179,1831,1,209138,256683,-1.01,1.09,10.10,-0.05,0.06,0.03,28.51
41849167,1834,1,209068,256389,-0.62,1.17,9.99,-0.06,-0.00,-0.03,28.51
41889200,1870,1,209060,256618,-0.79,0.95,10.25,-0.06,-0.05,0.01,28.51
41929180,1885,1,209111,256243,-0.63,1.63,9.54,-0.05,0.01,-0.06,28.51
41969179,1888,1,209088,256167,-0.76,0.74,10.69,-0.02,0.00,0.03,28.51
42007167,2007,1,209115,255910,-0.75,0.49,10.41,-0.05,-0.02,-0.01,28.51
42047200,2030,1,209204,255731,-1.06,1.16,9.56,-0.02,0.01,-0.00,28.51
42087866,1984,1,209005,254417,-1.08,0.94,9.27,-0.01,0.00,0.03,28.71
42128171,1984,1,208355,252570,-0.98,0.52,10.54,-0.05,0.01,0.04,28.71
42168170,1997,1,207878,251602,-0.80,0.96,8.95,-0.05,-0.03,0.01,28.71
42208179,2011,1,208148,252671,-0.97,1.11,9.52,0.01,0.02,0.03,28.71
42248148,2064,1,208666,253327,-0.80,0.72,10.07,-0.03,0.05,-0.03,28.71
42288179,2118,1,208828,253990,-0.97,0.74,10.19,-0.01,-0.02,0.01,28.71
42328179,2143,1,209086,254404,-0.96,1.00,9.14,-0.04,-0.01,0.04,28.71
42368179,2161,1,209223,254657,-1.01,0.53,10.74,-0.02,0.03,0.03,28.71
42408170,2174,1,209009,253821,-1.34,0.27,10.30,-0.04,-0.02,0.03,28.71
42448179,2142,1,208800,253502,-1.05,0.88,9.94,-0.01,-0.00,0.03,28.71
42488177,2065,1,208590,252759,-0.63,0.59,10.38,-0.05,0.01,0.02,28.71
42528171,2032,1,208773,253065,-0.89,0.44,10.82,-0.05,-0.03,0.03,28.71
42568180,2046,1,209230,253413,-1.03,0.66,10.21,-0.07,0.01,0.03,28.71
42608171,2011,1,209423,253783,-0.83,0.66,10.27,-0.03,-0.02,0.04,28.71
42648180,2042,1,209673,254206,-1.02,0.03,10.51,-0.06,0.02,0.04,28.71
42688171,2042,1,209624,252743,-0.90,0.41,9.99,-0.06,-0.04,0.03,28.71
42728177,2047,1,209115,251458,-0.91,0.59,9.98,-0.03,-0.01,0.03,28.71
42768179,2042,1,208868,251688,-0.91,0.11,10.15,-0.03,0.01,0.03,28.71
42808170,2065,1,209159,252057,-1.15,0.21,10.03,-0.05,-0.01,0.03,28.71
42848179,2034,1,209326,252728,-0.97,0.52,9.58,-0.02,-0.03,0.03,28.71
42888180,2062,1,209645,253253,-0.92,0.23,9.74,-0.04,0.02,0.03,28.71
42928171,2035,1,209912,254013,-1.43,-0.31,10.43,-0.03,-0.00,0.03,28.71
42968200,2055,1,210301,254550,-1.02,0.18,9.80,-0.03,-0.03,0.01,28.71
43008179,2059,1,210518,254837,-1.24,0.08,9.50,-0.02,0.01,-0.01,28.71
43048177,2057,1,210688,255143,-1.13,-0.01,9.78,-0.03,0.02,-0.02,28.71
43088886,2064,1,210980,255704,-1.02,0.03,10.64,-0.02,-0.02,-0.04,28.45
43127200,2101,1,211191,256069,-1.22,0.02,9.49,-0.04,-0.04,-0.05,28.45
43167199,2064,1,211395,256437,-1.13,0.16,10.18,-0.03,0.00,-0.03,28.45
43207180,2017,1,211510,256642,-1.53,-0.48,10.68,-0.04,0.00,-0.04,28.45
43247200,1975,1,211413,255852,-1.38,-0.19,10.15,-0.04,-0.03,0.00,28.45
43287199,1979,1,210767,253212,-1.28,0.15,9.90,-0.02,0.02,0.06,28.45
43327170,1927,1,209544,251422,-1.37,-0.25,9.94,-0.03,0.02,0.10,28.45
43367180,1882,1,209172,251233,-1.30,-0.35,10.08,-0.04,-0.01,0.07,28.45
43407200,1904,1,209249,251338,-1.38,0.03,9.67,-0.05,-0.00,0.06,28.45
43447180,1952,1,209187,251505,-1.56,-0.10,9.09,-0.03,0.02,0.05,28.45
43487179,1978,1,209239,252077,-1.79,-0.65,10.23,-0.04,0.04,0.04,28.45
43527179,2044,1,209347,252386,-1.66,-0.27,9.14,-0.05,-0.02,-0.01,28.45
43567217,2043,1,209249,252220,-1.64,-0.05,9.18,-0.03,0.02,-0.01,28.45
43607200,2016,1,209168,252335,-1.54,-0.61,10.26,-0.03,0.03,-0.03,28.45
43647200,2035,1,209270,252406,-1.54,-0.62,10.23,-0.06,-0.03,-0.02,28.45
43687214,2096,1,209424,252551,-1.58,-0.03,9.88,-0.02,-0.01,-0.04,28.45
43727217,2137,1,209534,252689,-1.47,-0.33,10.25,-0.01,0.01,-0.04,28.45
43767200,2138,1,209643,252887,-1.71,-0.56,10.99,-0.02,-0.00,-0.04,28.45
43807217,2118,1,209731,253221,-1.69,-0.01,10.01,-0.02,-0.03,-0.04,28.45
43847213,2127,1,209648,252188,-1.64,0.09,10.03,-0.01,0.01,-0.03,28.45
43887180,2084,1,208938,251314,-1.63,-0.35,10.59,-0.02,-0.02,-0.06,28.45
43927213,2061,1,208843,251320,-1.57,-0.35,10.21,-0.05,-0.05,-0.06,28.45
43967217,2064,1,209008,251450,-1.39,0.27,10.12,-0.03,-0.04,-0.06,28.45
44007199,2037,1,209092,251580,-1.35,-0.20,10.15,-0.02,-0.02,-0.06,28.45
44047217,2009,1,209381,252166,-1.53,-0.38,10.62,-0.04,-0.01,-0.06,28.45
44087218,1978,1,209486,252143,-1.21,0.04,9.75,-0.03,-0.07,-0.06,28.45
44127886,1941,1,209497,252312,-1.36,0.29,9.19,-0.02,-0.02,-0.05,28.31
44168199,1904,1,209782,252517,-1.18,-0.11,9.99,-0.03,-0.02,-0.05,28.31
44208217,1863,1,209886,252928,-1.23,0.05,9.60,-0.04,-0.07,-0.05,28.31
44248197,1819,1,210151,253399,-0.91,0.46,9.31,-0.02,-0.04,-0.06,28.31
44286200,1901,1,210377,253734,-1.34,-0.04,9.76,-0.01,0.01,-0.05,28.31
44326199,1862,1,210517,254163,-1.09,-0.20,10.57,-0.03,-0.02,-0.06,28.31
44366216,1868,1,210770,254612,-1.08,0.20,9.58,-0.03,-0.06,-0.04,28.31
44406197,1811,1,210857,253360,-1.01,0.29,9.42,-0.03,-0.01,-0.01,28.31
44446200,1865,1,209959,250326,-0.96,-0.18,10.65,-0.04,-0.01,0.02,28.31
44486199,1852,1,209494,249514,-1.00,0.09,9.73,-0.04,-0.05,0.03,28.31
44526182,1865,1,209508,249422,-0.98,0.33,9.45,-0.03,0.01,0.10,28.31
44566167,1887,1,209582,249653,-0.83,0.24,10.58,-0.03,0.02,0.10,28.31
44606171,1935,1,209702,250452,-0.80,0.21,10.13,-0.04,-0.03,0.07,28.31
44646179,1961,1,210121,252042,-0.79,0.43,9.43,-0.03,0.01,0.02,28.31
44686170,1893,1,210274,252918,-0.81,0.59,9.82,-0.01,0.04,-0.00,28.31
44726177,1850,1,210288,253042,-0.86,0.38,10.41,-0.04,-0.02,0.02,28.31
44766179,1882,1,210128,252716,-0.86,0.49,9.72,-0.05,-0.01,0.08,28.31
44806179,1876,1,209915,252547,-0.87,0.50,9.68,-0.02,0.04,0.09,28.31
44846170,1904,1,209871,252808,-0.87,0.56,10.72,-0.02,0.03,0.09,28.31
44886170,1897,1,209854,253376,-0.79,0.56,10.19,-0.06,-0.01,0.03,28.31
44926179,1901,1,210037,254161,-0.77,0.86,9.68,-0.03,0.02,0.06,28.31
44966167,1930,1,210344,254524,-1.03,0.22,10.60,-0.04,0.03,-0.03,28.31
45006179,1925,1,210008,252086,-0.94,0.50,10.20,-0.06,-0.02,-0.05,28.31
45046197,1954,1,209137,250275,-0.84,0.69,9.35,-0.04,0.01,-0.04,28.31
45086179,1991,1,209023,250693,-1.01,0.37,10.24,-0.04,0.04,-0.04,28.31
45126180,2005,1,209267,251685,-1.11,0.30,10.37,-0.05,-0.01,-0.06,28.31
45166887,1957,1,209618,252697,-1.02,0.67,9.49,-0.04,-0.02,-0.21,28.37
45207200,1936,1,209803,253388,-0.96,0.47,10.02,-0.02,0.05,-0.16,28.37
45247179,1951,1,210015,253933,-1.23,0.20,10.57,-0.04,0.00,-0.15,28.37
45287179,1923,1,210042,254136,-0.97,0.62,9.57,-0.04,-0.02,-0.08,28.37
45327200,1939,1,210028,254124,-1.09,0.42,9.68,-0.02,0.04,-0.11,28.37
45367180,1987,1,209938,254109,-1.21,0.16,10.56,-0.02,-0.00,-0.09,28.37
45407200,2006,1,209927,254066,-1.06,0.54,10.13,-0.03,-0.04,-0.08,28.37
45447200,2055,1,209950,253842,-0.98,0.56,9.90,-0.03,-0.01,-0.05,28.37
45487200,2033,1,209939,253820,-1.15,0.09,10.61,-0.03,-0.01,-0.03,28.37
45526203,2027,1,209961,253797,-1.19,0.19,10.61,-0.04,-0.03,-0.03,28.37
45566199,2011,1,209943,253310,-0.98,0.42,9.75,-0.04,-0.05,-0.04,28.37
45606200,2023,1,209427,251491,-1.16,0.12,10.08,-0.03,0.01,-0.03,28.37
45646179,2069,1,208940,250888,-1.18,0.07,10.35,-0.03,-0.02,-0.05,28.37
45686199,2103,1,208976,251247,-0.90,0.39,9.81,-0.04,-0.06,-0.04,28.37
45726232,2109,1,209224,251661,-0.83,0.27,9.92,-0.03,-0.01,-0.04,28.37
45766200,2093,1,209360,251973,-0.95,-0.09,10.32,-0.03,-0.02,-0.06,28.37
45806216,2055,1,209532,252233,-0.85,0.13,10.11,-0.04,-0.06,-0.07,28.37
45846200,2032,1,209653,252262,-0.75,0.28,9.52,-0.04,-0.03,-0.03,28.37
45886199,2022,1,209783,252228,-0.89,-0.15,10.01,-0.03,-0.01,-0.04,28.37
45926254,1985,1,210029,252401,-0.73,-0.01,10.12,-0.04,-0.05,-0.04,28.37
45966214,2000,1,210460,252876,-0.53,0.21,9.47,-0.04,-0.06,-0.06,28.37
46006200,2026,1,210961,253500,-0.53,0.02,9.98,-0.03,-0.01,-0.05,28.37
46046200,2065,1,211532,254226,-0.68,-0.34,10.52,-0.03,-0.03,-0.05,28.37
46086213,2075,1,212063,254890,-0.51,0.05,9.84,-0.04,-0.05,-0.05,28.37
46126200,2091,1,212320,255533,-0.55,-0.05,9.71,-0.02,0.00,-0.04,28.37
46166883,2094,1,212530,255962,-0.57,-0.49,10.48,-0.03,0.00,-0.04,28.33
46207200,2101,1,212133,253823,-0.48,-0.25,9.78,-0.05,-0.04,-0.07,28.33
46245213,2112,1,211270,252426,-0.40,0.02,9.43,-0.03,-0.02,-0.08,28.33
46285200,2080,1,211114,252781,-0.27,-0.38,10.25,-0.03,0.01,-0.05,28.33
46325200,2063,1,211268,253237,-0.56,-0.62,10.27,-0.05,-0.02,-0.04,28.33
46365217,2097,1,211362,253115,-0.36,-0.26,9.74,-0.04,-0.04,-0.05,28.33
46405213,1931,1,211482,253454,-0.46,-0.44,9.77,-0.03,-0.00,-0.04,28.33
46445214,1837,1,211792,253898,-0.52,-0.87,10.28,-0.04,-0.01,-0.04,28.33
46485213,1870,1,212022,254315,-0.43,-0.66,9.80,-0.05,-0.03,-0.04,28.33
46525223,1991,1,211997,254411,-0.30,-0.38,9.28,-0.04,0.01,-0.04,28.33
46566200,2085,1,211897,254409,-0.30,-0.66,10.19,-0.04,0.02,-0.06,28.33
46606200,2279,1,211777,254200,-0.40,-0.68,10.02,-0.05,-0.04,-0.05,28.33
46646212,2480,1,211544,253838,-0.26,-0.65,9.68,-0.04,-0.02,-0.04,28.33
46686217,2391,1,211309,253532,-0.49,-1.05,9.92,-0.04,0.02,-0.01,28.33
46726200,2519,1,211349,253797,-0.47,-1.31,10.26,-0.05,-0.02,-0.02,28.33
46766216,2386,1,211532,253906,-0.18,-0.97,9.47,-0.05,-0.03,-0.01,28.33
46806213,2559,1,210796,250416,-0.36,-0.98,9.61,-0.04,0.03,-0.01,28.33
46846200,2416,1,209649,248693,-0.35,-1.21,10.28,-0.04,0.01,-0.01,28.33
46886200,2096,1,209386,249169,-0.34,-0.99,9.80,-0.05,-0.02,-0.01,28.33
46926214,1712,1,209629,249890,-0.26,-0.85,9.67,-0.03,0.01,-0.02,28.33
46966200,1203,1,209745,250421,-0.44,-1.28,10.30,-0.03,0.03,-0.02,28.33
47006200,954,1,210407,252450,-0.52,-1.24,9.97,-0.05,-0.07,0.00,28.33
47046199,974,1,211644,253467,-0.27,-1.11,9.39,-0.03,-0.04,0.02,28.33
47086199,1335,1,211623,253612,-0.44,-1.27,9.91,-0.03,0.04,-0.01,28.33
47126200,1748,1,211783,254128,-0.46,-1.30,10.20,-0.04,-0.02,-0.01,28.33
47166903,1877,1,211933,254814,-0.43,-0.86,9.48,-0.03,-0.03,-0.01,28.33
47205213,1987,1,212234,255410,-0.35,-0.84,9.85,-0.01,0.00,-0.01,28.33
47245200,2026,1,212361,255826,-0.52,-1.28,10.22,-0.02,0.01,-0.01,28.33
47285200,1984,1,212407,256224,-0.38,-1.19,10.04,-0.04,-0.03,-0.01,28.33
47325217,1847,1,212501,256462,-0.36,-0.96,9.62,-0.03,-0.04,-0.01,28.33
47365265,1876,1,212500,256311,-0.56,-0.91,9.61,-0.02,-0.00,-0.00,28.33
47405217,1875,1,211934,253873,-0.33,-0.88,10.03,-0.02,-0.01,0.01,28.33
47445200,1847,1,211090,252381,-0.20,-1.13,10.48,-0.03,-0.02,0.01,28.33
47485200,1829,1,211031,252869,-0.21,-1.00,10.07,-0.04,-0.04,0.01,28.33
47525205,1840,1,211228,253436,-0.38,-0.83,9.40,-0.03,-0.03,0.02,28.33
47565228,1919,1,211324,253577,-0.53,-0.77,9.55,-0.02,0.01,0.02,28.33
47605179,2103,1,211222,253588,-0.29,-0.91,10.15,-0.01,0.01,-0.00,28.33
47645200,2128,1,211328,253852,-0.07,-1.07,10.43,-0.03,-0.03,-0.01,28.33
47685213,2171,1,211436,254019,-0.11,-0.98,10.10,-0.05,-0.04,-0.01,28.33
47725216,2288,1,211491,254082,-0.41,-0.82,9.40,-0.04,-0.03,-0.00,28.33
47765212,2340,1,211528,254352,-0.59,-0.77,9.37,-0.02,-0.00,0.00,28.33
47805200,2247,1,211690,254805,-0.26,-0.86,10.05,-0.01,0.02,-0.01,28.33
47845200,2224,1,211812,254935,-0.08,-1.07,10.37,-0.03,-0.00,-0.01,28.33
47885214,2203,1,211894,255031,-0.08,-0.96,9.95,-0.06,-0.05,-0.01,28.33
47925213,2115,1,211944,255180,-0.36,-0.80,9.20,-0.04,-0.03,-0.01,28.33
47965214,2139,1,212064,255414,-0.57,-0.74,9.28,-0.02,0.01,-0.00,28.33
48005197,2082,1,211805,253263,-0.30,-0.86,9.93,-0.01,0.02,-0.00,28.33
48045200,1984,1,210463,250069,-0.13,-1.03,10.36,-0.03,0.01,-0.01,28.33
48085200,2040,1,209790,250475,-0.13,-1.03,10.29,-0.05,-0.03,-0.01,28.33
48125217,1903,1,210190,251644,-0.27,-0.94,9.60,-0.05,-0.03,-0.01,28.33
48165213,1839,1,210350,252161,-0.47,-0.91,9.47,-0.03,0.00,-0.00,28.33
48205886,1842,1,210468,252465,-0.33,-1.20,10.06,-0.03,0.01,-0.01,28.45
48244200,1877,1,210596,252736,-0.20,-1.52,10.40,-0.03,0.00,-0.03,28.45
48284200,1847,1,210585,252648,-0.02,-1.39,10.58,-0.05,-0.02,-0.03,28.45
48324213,1842,1,210662,252608,-0.13,-1.24,9.70,-0.07,-0.05,-0.02,28.45
48364216,1817,1,210757,252765,-0.24,-1.09,9.23,-0.04,-0.03,-0.01,28.45
48404213,1805,1,210963,253164,-0.46,-1.14,9.68,-0.03,0.02,-0.02,28.45
48444199,1803,1,211085,253369,-0.37,-1.43,9.98,-0.03,0.01,-0.05,28.45
48484200,1856,1,211145,253615,-0.13,-1.60,10.31,-0.04,-0.00,-0.07,28.45
48524229,1975,1,211129,253905,-0.12,-1.44,9.73,-0.06,-0.04,-0.06,28.45
48564213,2110,1,211226,254421,-0.23,-1.21,9.19,-0.04,-0.03,-0.03,28.45
48604217,2157,1,211358,254173,-0.36,-1.15,9.73,-0.01,0.00,-0.02,28.45
48644200,2186,1,210587,251189,-0.36,-1.45,10.15,-0.02,0.01,-0.03,28.45
48684200,2298,1,209820,250716,-0.17,-1.75,10.46,-0.03,-0.00,-0.04,28.45
48724213,2350,1,209954,251307,-0.05,-1.64,10.19,-0.05,-0.06,-0.03,28.45
48764217,2359,1,210097,251761,-0.16,-1.38,9.57,-0.05,-0.05,-0.02,28.45
48804213,2342,1,210279,252215,-0.38,-1.25,9.72,-0.02,-0.00,-0.01,28.45
48844217,2325,1,210410,252604,-0.43,-1.23,9.81,-0.02,0.01,-0.01,28.45
48884199,2291,1,210504,252908,-0.28,-1.52,10.17,-0.02,0.02,-0.01,28.45
48924200,2277,1,210685,253311,-0.05,-1.42,10.17,-0.04,-0.03,-0.01,28.45
48964213,2253,1,210833,253623,-0.12,-1.24,9.56,-0.04,-0.05,-0.01,28.45
49004222,2211,1,210957,254110,-0.27,-1.06,9.42,-0.02,-0.01,-0.00,28.45
49044213,2153,1,211031,254297,-0.48,-1.15,9.76,-0.01,0.01,0.01,28.45
49084179,2151,1,211142,254572,-0.33,-1.53,10.28,-0.02,0.02,0.01,28.45
49124179,2112,1,211194,254662,-0.09,-1.53,10.64,-0.03,-0.02,-0.00,28.45
49164216,2097,1,211243,254901,-0.06,-1.32,10.05,-0.05,-0.06,-0.00,28.45
49204219,2047,1,211310,254295,-0.21,-1.11,9.56,-0.03,-0.03,0.01,28.45
49244887,1987,1,210530,251428,-0.49,-1.01,9.45,-0.02,0.00,0.02,28.51
49285180,1937,1,209899,251022,-0.35,-1.31,10.01,-0.02,0.02,0.01,28.51
49325179,1863,1,210068,251853,-0.10,-1.39,10.49,-0.03,-0.01,-0.01,28.51
49365213,1825,1,210243,252258,0.00,-1.23,10.04,-0.05,-0.06,-0.01,28.51
49405217,1829,1,210322,252312,-0.11,-1.09,9.52,-0.04,-0.03,-0.01,28.51
49445213,1812,1,210387,252545,-0.42,-1.04,9.36,-0.02,0.00,-0.00,28.51
49485200,1775,1,210550,252680,-0.28,-1.34,9.92,-0.02,0.02,0.00,28.51
49525183,1767,1,210699,252796,0.01,-1.43,10.45,-0.03,-0.00,-0.01,28.51
49565199,1793,1,210823,253167,0.09,-1.39,10.25,-0.05,-0.05,-0.01,28.51
49605199,1775,1,210936,253706,-0.02,-1.14,9.45,-0.05,-0.04,-0.00,28.51
49644216,1789,1,211183,254107,-0.26,-1.04,9.05,-0.03,-0.01,0.00,28.51
49684196,1792,1,211324,254579,-0.38,-1.12,9.45,-0.01,0.02,0.00,28.51
49724179,1777,1,211568,255249,-0.11,-1.36,10.15,-0.02,0.02,-0.00,28.51
49764200,1826,1,211861,255896,-0.01,-1.52,10.52,-0.04,-0.02,-0.01,28.51
49804217,1840,1,212068,255791,-0.05,-1.35,9.91,-0.06,-0.05,-0.01,28.51
49844213,1830,1,211450,252600,-0.24,-1.16,9.17,-0.03,-0.03,-0.00,28.51
49884216,1862,1,210590,251105,-0.47,-1.14,9.43,-0.02,0.02,0.00,28.51
49924180,1833,1,210589,251811,-0.29,-1.36,10.07,-0.02,0.02,-0.00,28.51
49964200,1853,1,210946,252913,-0.06,-1.55,10.48,-0.03,-0.01,-0.01,28.51
50004213,1845,1,211327,253913,-0.07,-1.38,9.98,-0.06,-0.04,-0.01,28.51
50044217,1867,1,211624,254645,-0.23,-1.15,9.17,-0.04,-0.03,-0.00,28.51
50084213,1911,1,211847,255167,-0.43,-1.09,9.34,-0.02,0.02,0.00,28.51
50124179,1920,1,211987,255298,-0.30,-1.27,10.03,-0.02,0.02,-0.00,28.51
50164197,1957,1,211924,255234,-0.10,-1.59,10.59,-0.03,-0.01,-0.01,28.51
50204217,1970,1,211918,255191,-0.04,-1.45,10.18,-0.05,-0.04,-0.01,28.51
50244213,1954,1,211950,255214,-0.16,-1.23,9.32,-0.05,-0.04,-0.01,28.51
50284903,1965,1,211960,255241,-0.37,-1.07,9.28,-0.02,0.00,0.00,28.57
50323177,2005,1,212006,255571,-0.32,-1.13,9.84,-0.01,0.02,-0.00,28.57
50363200,1989,1,212052,255851,-0.11,-1.46,10.34,-0.03,0.00,-0.01,28.57
50403199,2014,1,212117,256057,-0.10,-1.47,10.23,-0.04,-0.03,-0.01,28.57
50443216,2023,1,212044,255257,-0.17,-1.23,9.47,-0.05,-0.06,-0.02,28.57
50483213,2042,1,211223,253129,-0.28,-1.11,9.26,-0.03,-0.03,-0.01,28.57
50523216,2043,1,210816,252908,-0.38,-1.13,9.75,-0.01,0.01,-0.01,28.57
50563199,2027,1,210802,253291,-0.29,-1.39,10.15,-0.01,0.01,-0.01,28.57
50603200,2001,1,210924,253572,-0.07,-1.50,10.45,-0.04,-0.02,-0.01,28.57
50644219,1968,1,210918,253617,-0.11,-1.27,9.67,-0.05,-0.06,-0.01,28.57
50684217,1959,1,210927,253791,-0.25,-1.08,9.28,-0.03,-0.03,-0.00,28.57
50724213,1938,1,211040,254020,-0.37,-1.07,9.79,-0.02,0.01,-0.00,28.57
50764199,1955,1,211104,254022,-0.20,-1.36,10.26,-0.02,0.01,-0.01,28.57
50804200,1943,1,211126,254029,-0.04,-1.49,10.41,-0.04,-0.03,-0.01,28.57
50844236,1970,1,211275,254268,-0.03,-1.26,9.72,-0.05,-0.06,-0.01,28.57
50884213,1958,1,211383,254362,-0.22,-1.09,9.33,-0.03,-0.03,-0.00,28.57
50924216,1936,1,211445,254453,-0.30,-1.06,9.76,-0.02,0.01,-0.00,28.57
50964197,1986,1,211508,254625,-0.17,-1.35,10.15,-0.02,0.01,-0.00,28.57
51004200,2001,1,211669,254986,-0.03,-1.48,10.34,-0.04,-0.01,-0.01,28.57
51044236,2031,1,211758,255232,-0.00,-1.29,9.77,-0.05,-0.05,-0.01,28.57
51084214,1968,1,211738,253786,-0.23,-1.11,9.22,-0.04,-0.03,-0.00,28.57
51124213,2062,1,210780,251448,-0.32,-1.03,9.63,-0.02,0.01,0.00,28.57
51164179,2032,1,210456,251476,-0.24,-1.31,10.06,-0.02,0.02,-0.00,28.57
51204200,2036,1,210667,252491,-0.07,-1.48,10.39,-0.04,-0.00,-0.01,28.57
51244217,2065,1,210939,253182,-0.03,-1.36,9.96,-0.06,-0.05,-0.01,28.57
51284899,1999,1,211150,253855,-0.24,-1.14,9.38,-0.04,-0.04,-0.00,28.51
51323216,1989,1,211455,254452,-0.35,-0.95,9.50,-0.02,0.01,0.00,28.51
51363177,1951,1,211559,254640,-0.37,-1.32,10.06,-0.02,0.03,-0.00,28.51
51403199,1958,1,211542,254699,-0.43,-1.79,10.59,-0.04,-0.00,-0.01,28.51
51443213,1956,1,211577,254851,-0.02,-1.06,9.48,-0.04,-0.05,-0.01,28.51
51483214,1959,1,211560,255009,-0.09,-1.39,9.59,-0.03,0.02,-0.00,28.51
51523197,1958,1,211586,255221,-0.31,-1.41,10.19,-0.04,-0.02,-0.01,28.51
51563217,1937,1,211629,255251,0.10,-1.01,9.54,-0.03,-0.01,-0.01,28.51
51603200,1939,1,211619,255285,-0.30,-1.57,10.32,-0.04,-0.00,-0.00,28.51
51643216,1957,1,211640,255336,0.10,-1.30,9.59,-0.04,-0.03,-0.01,28.51
51684197,1967,1,211504,253949,-0.16,-1.34,10.10,-0.03,-0.01,-0.00,28.51
51724216,1974,1,210352,250372,0.10,-1.55,9.68,-0.05,-0.02,-0.01,28.51
51764199,1994,1,209656,249222,-0.00,-1.47,10.24,-0.04,-0.02,-0.02,28.51
51804216,2032,1,209738,249999,-0.24,-1.72,9.55,-0.03,0.01,-0.04,28.51
51844199,2025,1,210044,250835,0.35,-1.78,9.69,-0.06,-0.07,-0.05,28.51
51884199,2015,1,210519,252295,-0.25,-1.51,10.36,-0.02,0.01,-0.05,28.51
51924199,2011,1,210968,253136,-0.04,-1.84,8.86,-0.05,-0.03,-0.04,28.51
51964216,1996,1,211239,253658,0.09,-1.80,10.35,-0.04,-0.04,-0.06,28.51
52004199,1970,1,211353,253910,-0.18,-1.50,9.93,-0.01,0.01,-0.03,28.51
52044200,1984,1,211492,254186,-0.23,-2.00,9.12,-0.04,-0.00,-0.01,28.51
52084212,1998,1,211510,254396,0.35,-2.05,9.87,-0.04,-0.05,-0.04,28.51
52122200,2106,1,211718,254946,-0.17,-1.57,9.81,-0.02,0.02,-0.02,28.51
52162199,2096,1,211905,255596,-0.13,-1.86,9.39,-0.03,-0.01,-0.00,28.51
52202216,2069,1,212110,255749,0.35,-1.90,9.95,-0.04,-0.04,-0.01,28.51
52242199,2063,1,212162,255922,0.05,-1.67,10.28,-0.01,0.00,-0.01,28.51
52282196,2071,1,212130,255288,-0.16,-1.64,9.33,-0.03,-0.01,-0.00,28.51
52322900,1991,1,211344,252463,-0.16,-1.96,9.69,-0.04,-0.02,-0.01,28.47
52363216,2021,1,210592,251359,0.41,-1.88,10.11,-0.03,-0.03,-0.02,28.47
52403200,2038,1,210535,251674,-0.05,-1.58,9.97,-0.02,0.01,-0.01,28.47
52443199,2059,1,210628,252324,-0.19,-2.03,9.33,-0.04,-0.01,-0.00,28.47
52483213,2068,1,210901,253005,0.40,-1.70,10.29,-0.04,-0.04,-0.02,28.47
52523199,2061,1,211111,253733,-0.14,-1.51,10.31,-0.01,0.01,-0.01,28.47
52563199,2046,1,211188,253786,-0.20,-2.27,9.10,-0.05,-0.03,-0.01,28.47
52603217,2019,1,211232,254041,0.37,-1.85,10.39,-0.04,-0.04,-0.02,28.47
52643199,1995,1,211331,254318,-0.37,-1.54,9.64,-0.01,0.02,-0.00,28.47
52683199,1961,1,211452,254487,0.16,-2.19,9.35,-0.05,-0.03,-0.01,28.47
52723200,1904,1,211441,254695,0.28,-1.58,10.52,-0.03,-0.02,-0.02,28.47
52763200,1933,1,211565,255135,-0.31,-1.91,9.61,-0.02,0.04,-0.01,28.47
52803199,1914,1,211652,255556,0.27,-1.66,9.86,-0.04,-0.03,-0.02,28.47
52843199,1903,1,211738,255736,-0.18,-2.07,10.18,-0.03,0.03,-0.01,28.47
52883200,1893,1,211673,255837,0.17,-1.54,9.32,-0.04,-0.02,-0.02,28.47
52923200,1904,1,211661,254501,-0.01,-2.07,10.13,-0.04,0.02,-0.01,28.47
52963200,1901,1,210684,252429,-0.02,-1.65,9.62,-0.04,-0.03,-0.02,28.47
53003216,1920,1,210497,252674,0.25,-1.83,9.81,-0.02,0.02,-0.01,28.47
53043180,1905,1,210692,254257,-0.29,-1.94,10.03,-0.04,-0.02,-0.01,28.47
53083217,1895,1,210901,255153,-0.23,-0.99,8.93,-0.02,-0.04,-0.01,28.47
53123213,1886,1,210951,255845,-0.49,-1.23,9.29,0.00,0.02,-0.01,28.47
53163179,1888,1,210918,256268,-0.09,-1.90,10.25,-0.02,0.02,-0.01,28.47
53203200,1872,1,210876,256710,-0.11,-1.48,10.23,-0.03,-0.05,-0.02,28.47
53243216,1870,1,210591,256656,-0.08,-0.79,9.34,-0.02,-0.02,-0.01,28.47
53283213,1965,1,210174,256630,-0.19,-1.04,9.82,-0.00,0.04,-0.00,28.47
53323887,2119,1,209694,256596,-0.41,-1.31,10.38,-0.02,0.02,0.13,28.69
53362180,2269,1,209463,256431,-0.32,-1.08,10.05,-0.03,-0.03,0.06,28.69
53402200,2194,1,209442,255938,-0.20,-1.12,9.78,-0.03,-0.00,-0.01,28.69
53442213,2064,1,209430,255890,-0.44,-1.51,10.59,-0.04,-0.02,-0.01,28.69
53482217,1924,1,209725,256081,0.00,-0.92,9.74,-0.03,-0.05,-0.02,28.69
53522200,1829,1,209953,256394,-0.13,-1.17,9.92,-0.02,0.01,-0.01,28.69
53562199,1805,1,210073,256420,-0.34,-1.34,10.67,-0.04,-0.01,-0.02,28.69
53602213,1728,1,209897,254996,-0.21,-0.83,9.39,-0.04,-0.04,-0.02,28.69
53642216,1766,1,209458,254127,-0.09,-1.02,10.00,-0.03,0.02,-0.01,28.69
53682197,1808,1,209469,254298,-0.36,-1.38,10.45,-0.04,-0.01,-0.02,28.69
53722217,1851,1,209544,254215,-0.18,-0.97,9.40,-0.05,-0.05,-0.02,28.69
53762213,1871,1,209687,254205,-0.17,-0.94,9.29,-0.03,-0.01,-0.01,28.69
53802216,1907,1,209894,254610,-0.43,-1.67,10.24,-0.05,0.01,-0.02,28.69
53842199,1929,1,210090,254807,-0.10,-1.19,9.50,-0.06,-0.07,-0.02,28.69
53882214,1947,1,210185,254858,-0.11,-0.76,9.22,-0.03,-0.00,-0.01,28.69
53922213,1942,1,210216,254764,-0.23,-1.45,10.06,-0.03,0.02,-0.01,28.69
53962199,1973,1,210200,254839,-0.23,-1.32,10.17,-0.04,-0.04,-0.02,28.69
54002213,2014,1,210309,254815,-0.17,-0.81,9.21,-0.02,-0.01,-0.01,28.69
54042217,2036,1,210422,255035,-0.22,-1.36,10.06,-0.02,0.02,-0.01,28.69
54082199,2031,1,210541,255123,-0.32,-1.47,10.25,-0.05,-0.03,-0.02,28.69
54122221,2043,1,210650,255239,-0.12,-0.87,9.32,-0.03,-0.03,-0.01,28.69
54162212,2055,1,210734,255435,-0.12,-1.20,9.90,-0.02,0.01,-0.01,28.69
54202200,2064,1,210718,254280,-0.27,-1.39,10.46,-0.04,-0.02,-0.02,28.69
54242214,2066,1,209806,251748,-0.14,-0.91,9.62,-0.03,-0.03,-0.01,28.69
54282217,2092,1,209507,251826,-0.18,-1.06,10.12,-0.02,0.02,-0.01,28.69
54322205,2067,1,209673,252759,-0.39,-1.51,10.59,-0.03,-0.00,-0.01,28.69
54362903,2058,1,209926,253343,-0.23,-1.17,9.85,-0.04,-0.04,-0.01,28.85
54401213,2107,1,210040,253799,-0.22,-0.95,9.64,-0.02,0.00,-0.01,28.85
54441199,2095,1,210226,254282,-0.33,-1.68,10.35,-0.04,0.00,-0.01,28.85
54481199,2095,1,210343,254306,-0.19,-1.35,10.01,-0.05,-0.05,-0.02,28.85
54521216,2096,1,210349,254227,-0.03,-0.87,9.35,-0.02,-0.01,-0.01,28.85
54561212,2064,1,210381,254109,-0.12,-1.69,10.41,-0.03,0.01,-0.01,28.85
54601201,2067,1,210335,253935,-0.23,-1.73,10.34,-0.05,-0.04,-0.02,28.85
54641214,2054,1,210414,254035,0.07,-1.17,9.44,-0.03,-0.01,-0.02,28.85
54681199,2036,1,210579,254318,-0.33,-1.91,10.10,-0.04,-0.00,-0.02,28.85
54721213,2003,1,210908,254775,-0.11,-1.52,9.64,-0.03,-0.03,-0.09,28.85
54761216,1994,1,211168,255152,-0.13,-2.15,9.95,-0.03,0.00,-0.10,28.85
54801200,1988,1,211394,255339,0.08,-1.65,9.57,-0.04,-0.05,-0.12,28.85
54841199,1998,1,211277,253484,-0.13,-2.07,9.64,-0.03,0.01,-0.07,28.85
54881200,2038,1,210412,251757,0.22,-1.87,10.00,-0.03,-0.04,-0.08,28.85
54921200,2013,1,210168,252340,-0.17,-2.16,9.70,-0.02,0.03,-0.04,28.85
54961199,2000,1,210359,252956,0.27,-2.03,9.78,-0.04,-0.03,-0.05,28.85
55001199,1993,1,210495,253575,-0.16,-1.78,10.03,-0.02,0.02,-0.02,28.85
55041200,1975,1,210654,253749,-0.05,-2.15,9.34,-0.04,-0.01,-0.02,28.85
55081217,1967,1,210676,253861,0.31,-1.82,10.46,-0.04,-0.01,-0.03,28.85
55121199,1981,1,210658,253766,-0.16,-2.02,9.34,-0.03,0.02,-0.01,28.85
55161199,1985,1,210657,254066,0.43,-2.09,9.56,-0.05,-0.03,-0.02,28.85
55201199,1968,1,210764,254256,0.34,-1.80,10.40,-0.02,-0.01,-0.03,28.85
55241199,1983,1,210896,254696,-0.04,-1.98,9.31,-0.03,0.02,-0.01,28.85
55281200,1973,1,210965,254614,0.47,-1.91,9.33,-0.04,-0.06,-0.02,28.85
55321200,1979,1,211084,255013,0.15,-1.59,10.52,-0.02,-0.00,-0.03,28.85
55361200,1963,1,211170,255140,0.13,-1.96,9.89,-0.03,-0.01,-0.02,28.85
55401886,1918,1,211333,255194,0.18,-2.21,10.27,-0.04,0.01,-0.02,28.69
55442180,1904,1,211466,255488,0.18,-2.21,10.19,-0.02,0.02,-0.02,28.69
55482180,1904,1,211473,254345,0.05,-2.08,8.61,-0.04,-0.01,-0.01,28.69
55522200,1903,1,210638,251584,0.20,-1.99,9.49,-0.04,-0.02,-0.02,28.69
55562200,1906,1,210001,251129,0.18,-1.98,9.22,-0.06,-0.03,-0.02,28.69
55602199,1943,1,210157,251878,0.12,-1.70,9.03,-0.06,-0.05,-0.02,28.69
55642200,1973,1,210444,253047,0.09,-1.70,9.85,-0.05,-0.04,-0.02,28.69
55682197,1965,1,210586,253667,0.14,-1.79,9.24,-0.06,-0.05,-0.03,28.69
55722200,1988,1,210833,254150,0.03,-1.75,9.38,-0.07,-0.04,-0.03,28.69
55762234,1925,1,210828,254274,0.07,-1.75,9.58,-0.06,-0.03,-0.02,28.69
55802200,1936,1,210659,254108,0.07,-2.00,8.59,-0.06,-0.02,-0.03,28.69
55842197,1966,1,210361,253595,0.00,-2.22,8.90,-0.05,-0.00,-0.03,28.69
55882200,1985,1,210222,253605,0.11,-2.23,9.90,-0.03,0.03,-0.03,28.69
55922179,2042,1,210195,253853,-0.04,-2.25,10.12,-0.02,0.03,-0.04,28.69
55962204,2078,1,210322,254334,-0.26,-2.16,9.84,-0.03,0.00,-0.05,28.69
56002200,2014,1,210547,254735,-0.14,-1.95,9.91,-0.04,-0.03,-0.06,28.69
56042217,1950,1,210689,255035,-0.11,-1.94,9.53,-0.04,-0.00,-0.04,28.69
56082213,1969,1,210749,255355,-0.08,-2.54,9.47,-0.03,0.03,-0.02,28.69
56122200,2027,1,210883,255627,-0.20,-2.20,10.09,-0.03,0.01,-0.03,28.69
56162200,2087,1,211097,254736,-0.17,-1.72,10.26,-0.05,-0.03,-0.04,28.69
56200217,2096,1,210246,252287,-0.12,-2.00,10.17,-0.04,-0.01,-0.03,28.69
56240213,2000,1,209622,251324,0.21,-2.46,9.28,-0.05,-0.01,-0.01,28.69
56280200,2023,1,209690,251756,0.17,-2.16,10.02,-0.03,-0.02,-0.03,28.69
56320200,2032,1,210006,252168,-0.12,-1.69,10.47,-0.04,-0.02,-0.04,28.69
56360216,2005,1,210224,252452,-0.06,-2.29,9.73,-0.05,-0.01,-0.03,28.69
56400213,2000,1,210531,252966,0.13,-2.70,10.00,-0.03,0.02,0.01,28.69
56440857,1966,1,210736,253196,0.07,-2.18,9.67,-0.05,-0.04,-0.02,28.65
56481200,1981,1,210960,253410,0.06,-2.06,9.33,-0.06,-0.05,-0.04,28.65
56521199,1993,1,211080,253775,0.24,-2.68,10.01,-0.02,0.01,-0.06,28.65
56561180,1981,1,211256,254423,0.12,-2.55,10.28,-0.02,-0.01,-0.07,28.65
56601201,1955,1,211486,255040,-0.02,-2.17,9.27,-0.05,-0.06,-0.07,28.65
56641213,1935,1,211805,255460,0.13,-2.06,9.01,-0.04,-0.03,-0.08,28.65
56681200,1913,1,211971,255927,0.24,-2.37,9.95,-0.01,0.02,-0.10,28.65
56721180,1922,1,212175,256241,0.16,-2.72,10.22,-0.01,0.00,-0.09,28.65
56761179,1925,1,212325,256502,0.28,-2.47,9.92,-0.03,-0.04,-0.07,28.65
56801200,1922,1,212480,255916,0.22,-2.30,10.32,-0.03,-0.04,-0.06,28.65
56841200,1965,1,211782,253650,0.29,-2.21,10.23,-0.03,-0.04,-0.07,28.65
56881200,1968,1,211320,253227,0.33,-2.24,9.34,-0.04,-0.05,-0.06,28.65
56921200,2002,1,211647,254142,0.32,-1.91,9.57,-0.05,-0.07,-0.06,28.65
56961200,1991,1,212002,255375,0.25,-1.72,10.07,-0.03,-0.04,-0.05,28.65
57001200,1991,1,212327,256258,0.17,-1.74,9.47,-0.04,-0.04,-0.05,28.65
57041200,1963,1,212562,256978,0.07,-1.58,10.23,-0.03,-0.02,-0.05,28.65
57081200,1963,1,212682,257783,-0.02,-1.38,10.81,-0.01,-0.00,-0.05,28.65
57121213,1941,1,212590,258136,0.06,-1.32,9.87,-0.01,-0.01,-0.05,28.65
57161200,2005,1,212305,258310,-0.07,-1.33,10.66,-0.01,0.01,-0.04,28.65
57201200,2002,1,211823,258164,-0.11,-1.14,10.36,-0.01,-0.02,-0.04,28.65
57241217,1998,1,211311,257880,-0.04,-1.20,9.40,-0.03,-0.02,-0.04,28.65
57281213,1969,1,211006,257775,0.06,-1.28,9.31,-0.03,-0.01,-0.04,28.65
57321200,1937,1,210785,257772,0.22,-1.47,10.51,-0.01,0.02,-0.04,28.65
57361180,1920,1,210667,257866,-0.19,-1.40,10.56,-0.02,0.01,-0.03,28.65
57401207,1891,1,210560,257685,-0.04,-1.79,9.71,-0.05,-0.02,-0.04,28.65
57441900,1840,1,210410,257222,0.12,-1.73,10.29,-0.02,0.02,-0.04,28.69
57480180,1862,1,210057,254961,-0.01,-1.44,10.44,-0.06,-0.01,-0.05,28.69
57520213,1878,1,209093,252425,0.20,-2.04,10.33,-0.05,0.01,-0.05,28.69
57560180,1840,1,208692,251822,-0.08,-2.13,10.28,-0.06,-0.01,-0.04,28.69
57600240,1894,1,208881,252081,0.09,-2.28,9.29,-0.08,-0.02,-0.05,28.69
57640200,1947,1,209193,252359,0.04,-1.97,9.95,-0.05,0.01,-0.11,28.69
57680180,1936,1,209353,252370,0.03,-1.69,9.63,-0.09,-0.03,-0.16,28.69
57720200,1973,1,209760,252718,0.33,-2.10,9.71,-0.05,0.03,-0.11,28.69
57760180,2064,1,210133,253108,0.02,-2.27,10.00,-0.04,-0.01,-0.08,28.69
57800200,2112,1,210348,253741,0.03,-2.04,8.59,-0.06,-0.01,-0.05,28.69
57840200,2119,1,210716,254765,0.18,-2.03,9.58,-0.04,0.00,-0.05,28.69
57880179,2139,1,210974,255171,-0.17,-1.39,9.33,-0.05,0.01,-0.04,28.69
57920200,2109,1,211160,255541,0.07,-1.86,9.91,-0.02,0.02,-0.04,28.69
57960180,2086,1,211271,255824,-0.17,-1.79,9.98,-0.01,0.00,-0.04,28.69
58000200,2091,1,211204,255963,0.06,-2.03,9.30,-0.01,0.00,-0.03,28.69
58040179,2059,1,211186,256157,0.14,-1.64,9.52,-0.02,-0.02,-0.02,28.69
58080200,2053,1,211343,256270,0.14,-1.55,9.75,-0.01,-0.01,-0.02,28.69
58120200,2038,1,211176,254947,0.12,-1.71,9.81,-0.01,-0.01,-0.03,28.69
58160200,2014,1,210461,253584,0.02,-1.66,10.59,0.00,0.00,-0.03,28.69
58200171,2028,1,210282,253497,-0.03,-1.92,10.39,-0.01,-0.00,-0.02,28.69
58240213,2030,1,210453,254177,-0.04,-2.30,10.14,-0.02,-0.01,-0.03,28.69
58280217,2015,1,210578,254084,0.17,-1.97,10.29,-0.03,-0.05,-0.03,28.69
58320200,1986,1,210483,254120,0.08,-1.96,9.94,-0.03,-0.04,-0.03,28.69
58360200,1987,1,210630,254315,0.35,-1.78,9.55,-0.03,-0.06,-0.03,28.69
58400200,1944,1,210847,254346,0.30,-1.49,10.13,-0.04,-0.06,-0.02,28.69
58440200,1959,1,210822,254234,0.36,-1.19,10.11,-0.03,-0.05,0.03,28.69
58480866,1937,1,210896,254284,0.23,-1.27,9.82,-0.03,-0.04,0.01,28.69
58519180,1973,1,211004,254720,0.35,-1.39,10.27,-0.02,-0.04,0.03,28.69
58559180,1936,1,211185,255397,0.38,-1.45,9.93,-0.02,-0.03,0.02,28.69
58599179,1967,1,211417,255874,0.08,-1.77,9.40,-0.03,-0.02,0.02,28.69
58639177,2014,1,211650,256390,0.17,-1.54,9.54,-0.03,-0.03,0.03,28.69
58679179,1965,1,211856,256688,0.09,-1.52,9.90,-0.02,-0.02,0.00,28.69
58719177,1918,1,211771,256819,0.13,-1.64,9.66,-0.02,-0.01,0.00,28.69
58759180,1912,1,211712,255702,0.26,-1.61,9.59,-0.02,-0.02,-0.01,28.69
58799200,1706,1,210932,253724,0.23,-1.65,10.39,-0.02,-0.01,-0.01,28.69
58839200,1835,1,210563,253575,0.42,-1.51,9.90,-0.01,-0.02,-0.01,28.69
58879200,1877,1,210839,254427,0.20,-1.87,9.87,-0.03,0.00,-0.00,28.69
58919179,1858,1,211088,254689,0.48,-1.63,10.06,-0.02,-0.03,-0.01,28.69
58959200,1890,1,211267,255019,0.32,-1.60,10.44,-0.03,-0.00,-0.00,28.69
58999200,1941,1,211378,255376,0.37,-1.74,10.20,-0.02,-0.01,-0.00,28.69
59039206,2021,1,211537,255748,0.21,-1.86,9.95,-0.03,0.00,-0.01,28.69
59079179,2055,1,211729,255891,0.35,-1.61,9.91,-0.03,-0.01,-0.02,28.69
59119200,2064,1,211935,256443,0.31,-1.55,10.29,-0.03,0.01,-0.00,28.69
59159179,2064,1,212157,256992,0.28,-1.58,9.98,-0.02,-0.00,0.00,28.69
59199180,2020,1,212379,257717,0.23,-1.60,9.79,-0.03,-0.00,0.01,28.69
59239183,2019,1,212493,257956,0.24,-1.35,9.61,-0.04,-0.00,0.01,28.69
59279180,1970,1,212524,258398,0.13,-1.11,10.04,-0.02,0.01,0.01,28.69
59319171,1957,1,212276,258557,0.13,-1.07,9.72,-0.02,0.01,0.01,28.69
59359168,1934,1,212002,258398,0.01,-1.12,9.62,-0.02,0.01,0.02,28.69
59399171,1936,1,211442,256907,0.13,-0.80,9.47,-0.02,0.00,0.02,28.69
59439167,1936,1,210408,255488,0.33,-0.71,9.86,-0.02,0.01,0.03,28.69
59479171,1999,1,209948,255617,0.17,-0.92,10.00,-0.03,0.01,0.06,28.69
59519854,1937,1,209778,256284,-0.04,-0.94,10.11,-0.04,0.02,0.06,28.65
59560180,1922,1,209571,256585,0.10,-0.98,10.95,-0.04,0.03,0.03,28.65
59600168,1891,1,209252,256558,-0.23,-1.02,11.05,-0.05,0.03,0.05,28.65
59640179,1893,1,209188,256671,-0.30,-1.43,10.22,-0.06,0.01,0.03,28.65
59679180,1907,1,209186,256675,-0.28,-1.46,10.52,-0.06,0.01,0.02,28.65
59719180,1901,1,209090,256530,-0.16,-1.23,9.35,-0.06,-0.02,0.02,28.65
59759200,1906,1,209096,256301,0.16,-1.05,9.47,-0.05,0.01,0.02,28.65
59799171,1965,1,209117,256160,-0.17,-0.96,10.55,-0.04,0.01,0.02,28.65
59839179,1954,1,209164,255793,0.08,-1.26,9.39,-0.05,-0.05,0.01,28.65
59879179,1935,1,209244,255719,-0.28,-1.58,8.80,-0.06,-0.00,-0.06,28.65
59919213,1984,1,209317,255607,-0.04,-1.18,8.84,-0.03,-0.02,-0.13,28.65
59959217,2078,1,209509,255477,-0.04,-1.10,9.92,-0.03,0.00,-0.08,28.65
59999197,2093,1,209434,254943,-0.19,-1.34,9.75,-0.03,-0.00,-0.02,28.65
60039217,2038,1,208817,252751,-0.22,-1.31,9.55,-0.03,0.01,-0.02,28.65
60079200,2082,1,208415,253140,-0.27,-1.41,10.35,-0.02,0.01,-0.09,28.65
60119200,2081,1,208743,254098,-0.23,-1.47,10.36,-0.02,0.00,-0.07,28.65
60159200,2067,1,208995,254448,-0.29,-1.38,10.13,-0.02,0.01,-0.03,28.65
60199201,2095,1,209044,254417,-0.29,-1.33,10.80,-0.01,0.01,-0.01,28.65
60239200,2093,1,209145,254835,-0.29,-1.32,10.46,-0.02,0.01,0.00,28.65
60279186,2096,1,209353,254951,-0.27,-1.38,10.18,-0.02,-0.01,0.01,28.65
60319200,2128,1,209494,254966,-0.12,-1.29,10.64,-0.02,-0.01,0.02,28.65
60359200,2145,1,209338,254652,-0.17,-1.23,9.99,-0.03,-0.03,0.03,28.65
60399200,2147,1,209377,254673,-0.30,-1.19,10.20,-0.03,-0.03,0.05,28.65
60439200,2145,1,209400,255151,-0.17,-1.60,10.20,-0.03,-0.03,0.03,28.65
60479200,2130,1,209547,255420,-0.13,-1.06,10.00,-0.04,-0.04,0.03,28.65
60519886,2099,1,209561,255672,-0.58,-1.25,10.04,-0.02,-0.02,0.03,28.83
60558200,2112,1,209514,255555,0.07,-1.22,9.87,-0.04,-0.06,0.01,28.83
60598180,2089,1,209442,255687,-0.35,-1.21,9.96,-0.03,-0.03,0.02,28.83
60638199,2064,1,209367,254643,-0.07,-1.16,9.15,-0.03,-0.05,0.01,28.83
60679203,1962,1,208627,253089,-0.18,-1.22,9.72,-0.03,-0.06,0.02,28.83
60719200,1866,1,208459,253174,-0.10,-0.94,9.00,-0.03,-0.04,0.02,28.83
60759200,1871,1,208707,254368,-0.21,-0.91,10.21,-0.02,-0.03,0.01,28.83
60799200,1891,1,208973,255022,-0.33,-1.01,9.13,-0.00,-0.02,0.02,28.83
60839200,1803,1,209265,255707,-0.05,-1.41,9.82,-0.01,-0.02,0.02,28.83
60879223,1695,1,209373,256221,0.23,-1.04,9.47,-0.01,-0.05,0.01,28.83
60919180,1646,1,209592,256198,-0.11,-1.20,9.60,-0.03,-0.03,0.01,28.83
60959197,1687,1,209731,256184,0.36,-1.59,10.26,-0.03,-0.07,0.01,28.83
60999179,1733,1,210010,256396,0.25,-1.66,9.73,-0.04,-0.05,0.01,28.83
61039180,1845,1,210199,256467,0.10,-1.15,9.62,-0.03,-0.05,0.01,28.83
61079196,1799,1,210350,256098,0.33,-1.56,10.36,-0.04,-0.04,0.01,28.83
61119180,1715,1,210628,256118,0.40,-1.58,9.08,-0.04,-0.06,0.01,28.83
61159179,1744,1,211224,256363,0.33,-1.34,9.40,-0.06,-0.06,0.00,28.83
61199180,1793,1,212038,257121,0.34,-1.41,9.38,-0.06,-0.05,-0.02,28.83
61239200,1877,1,212481,257365,0.40,-1.57,8.61,-0.06,-0.06,-0.03,28.83
61279200,1968,1,212283,255046,0.68,-1.71,9.40,-0.06,-0.04,-0.01,28.83
61319200,2030,1,211428,253250,0.67,-1.40,9.78,-0.05,-0.05,-0.01,28.83
61359200,2110,1,211415,253699,0.66,-1.58,9.73,-0.05,-0.02,0.01,28.83
61399179,2135,1,212042,255058,0.62,-1.65,10.28,-0.03,-0.00,0.02,28.83
61439180,2149,1,212299,255913,0.45,-1.49,9.12,-0.02,0.01,0.07,28.83
61479171,2122,1,212488,256447,0.63,-1.27,8.57,-0.04,-0.03,0.09,28.83
61519180,2129,1,212681,257480,0.32,-1.54,10.07,-0.02,-0.00,0.06,28.83
61559866,2067,1,212956,258003,0.46,-1.36,9.70,-0.00,0.01,0.03,28.57
61598167,1997,1,213059,258139,0.17,-1.39,10.16,-0.01,0.04,0.03,28.57
61638171,1971,1,213028,258267,0.24,-1.41,10.49,0.01,0.04,0.03,28.57
61678148,1936,1,213067,258301,0.20,-1.44,9.30,-0.00,0.04,0.03,28.57
