timestamp_us,ecg,leads,ir,red,accX,accY,accZ,gyroX,gyroY,gyroZ,temp
1918491,1903,1,186117,225934,0.00,0.00,0.00,0.00,0.00,0.00,0.00
1948962,1809,1,185855,225720,0.89,-1.40,8.98,-0.06,-0.03,-0.00,26.91
1989202,1781,1,186024,226487,0.96,-1.37,10.70,-0.02,0.08,-0.00,26.91
2029173,1795,1,186210,228036,0.51,-1.25,8.90,-0.06,0.01,-0.00,26.91
2069176,1831,1,186691,230439,0.53,-0.98,10.18,-0.01,0.09,-0.00,26.91
2109173,1902,1,186875,231127,0.60,-1.01,9.85,-0.05,0.03,-0.00,26.91
2149176,1929,1,186724,232249,0.44,-1.64,9.09,-0.05,0.02,-0.00,26.91
2189173,1871,1,186852,232545,0.30,-1.32,9.25,-0.05,0.03,-0.01,26.91
2229176,1889,1,186782,234093,0.32,-1.15,9.38,-0.06,0.01,-0.01,26.91
2269176,1792,1,186811,233612,0.30,-0.80,9.61,-0.04,0.07,-0.01,26.91
2309176,1835,1,186597,234639,0.04,-1.63,9.11,-0.05,0.03,-0.01,26.91
2349173,1823,1,186635,233994,0.65,-1.22,9.92,-0.03,0.08,-0.00,26.91
2389177,1872,1,186241,234086,0.57,-1.44,9.52,-0.05,0.00,-0.01,26.91
2429173,1826,1,186117,233787,0.75,-1.09,9.83,-0.02,0.08,-0.01,26.91
2469176,1862,1,186396,234500,0.10,-1.82,9.91,-0.02,0.09,-0.00,26.91
2509173,1865,1,186046,233462,0.90,-0.85,10.24,-0.02,0.02,-0.01,26.91
2549175,1851,1,186258,234482,0.21,-1.50,11.06,-0.02,0.10,-0.00,26.91
2589207,1888,1,185925,233756,0.80,-0.83,9.53,-0.02,-0.06,-0.01,26.91
2627196,1886,1,186324,234329,0.64,-1.59,11.87,-0.01,0.03,-0.00,26.91
2667173,1859,1,185916,234503,0.79,-0.98,9.68,-0.02,-0.00,-0.01,26.91
2707196,1904,1,186319,234651,0.19,-1.44,10.90,-0.01,0.03,-0.00,26.91
2747173,1929,1,186121,234815,0.39,-0.82,9.75,-0.02,-0.03,-0.01,26.91
2787196,1857,1,186282,234617,0.55,-1.19,11.57,-0.04,-0.01,-0.01,26.91
2827196,1951,1,185847,234787,0.41,-0.94,9.30,-0.05,-0.04,-0.01,26.91
2867196,1933,1,186206,234706,0.46,-1.73,10.80,-0.05,-0.04,-0.02,26.91
2907193,1935,1,185877,234800,0.77,-0.94,9.75,-0.04,-0.07,-0.01,26.91
2947196,1939,1,186234,235205,0.75,-1.59,11.32,-0.05,-0.02,-0.02,26.91
2987883,1926,1,185636,233863,1.22,-0.92,9.83,-0.04,-0.09,-0.02,27.41
3028196,1923,1,185112,232242,1.10,-1.62,9.89,-0.03,-0.10,-0.01,27.41
3068193,1906,1,184549,231092,1.11,-0.65,9.16,-0.04,-0.09,-0.01,27.41
3108196,1954,1,184751,231886,0.69,-1.40,9.33,-0.04,-0.09,-0.01,27.41
3148193,1970,1,185052,233231,0.79,-0.87,10.27,-0.04,-0.05,-0.01,27.41
3188196,1998,1,185567,233525,0.42,-1.48,9.75,-0.04,-0.03,-0.01,27.41
3228201,1961,1,185476,233038,0.92,-1.35,10.12,-0.04,-0.09,-0.02,27.41
3268196,1968,1,185045,228069,1.03,-1.76,10.06,-0.02,-0.06,-0.01,27.41
3308193,1966,1,184652,228403,0.92,-1.20,10.21,-0.02,-0.05,0.04,27.41
3348176,1835,1,185015,227737,0.98,-1.55,10.53,-0.02,0.02,-0.01,27.41
3388176,1854,1,185018,230234,0.66,-1.38,9.53,0.01,-0.03,-0.00,27.41
3428196,1573,1,185600,228444,0.84,-1.29,10.31,-0.03,-0.02,-0.01,27.41
3468196,1700,1,185022,228331,0.66,-0.90,7.82,-0.02,-0.08,0.10,27.41
3508176,1729,1,185158,227137,1.00,-1.15,9.41,-0.05,-0.03,-0.01,27.41
3548193,1809,1,184569,228503,0.50,-1.28,7.91,-0.04,0.01,0.06,27.41
3588167,1849,1,184887,230033,1.22,-1.15,9.13,-0.06,0.01,-0.01,27.41
3628176,1844,1,184666,230489,1.09,-1.10,8.68,-0.03,-0.01,-0.01,27.41
3668196,1894,1,184463,228359,1.45,-0.83,9.19,-0.02,-0.03,-0.02,27.41
3708193,1776,1,183832,226543,0.70,-0.64,9.05,-0.01,-0.01,0.00,27.41
3748176,1514,1,183254,225432,1.10,-1.17,9.21,-0.03,0.07,0.31,27.41
3788166,1872,1,182903,225732,1.15,-0.93,9.70,-0.05,0.11,-0.00,27.41
3828176,1904,1,182715,230372,0.60,-1.37,7.06,-0.03,0.09,-0.01,27.41
3868173,1989,1,184954,232501,1.45,-0.85,9.80,-0.06,0.05,-0.02,27.41
3908176,1968,1,184538,233032,1.30,-0.84,9.02,0.01,0.04,-0.01,27.41
3948162,1986,1,184638,231008,1.24,-0.73,9.15,-0.01,0.00,-0.01,27.41
3986862,2019,1,184485,231548,1.19,-0.99,9.98,-0.01,0.10,-0.01,27.55
4027196,1997,1,184440,231420,0.83,-0.61,9.81,-0.01,0.04,-0.00,27.55
4067175,2084,1,184888,232692,1.13,-0.58,11.28,-0.03,0.08,-0.00,27.55
4107173,2041,1,185667,234833,0.31,-1.44,11.10,-0.05,0.07,-0.00,27.55
4147176,1993,1,185711,233972,0.96,0.06,11.03,-0.04,-0.02,-0.01,27.55
4187173,1903,1,186613,237250,-0.03,-1.13,12.28,-0.09,0.10,-0.00,27.55
4227241,1897,1,186989,237184,0.44,-0.34,10.62,-0.07,0.00,-0.01,27.55
4267173,1856,1,186906,236398,0.44,-0.64,12.83,-0.08,-0.03,-0.01,27.55
4307196,1924,1,186134,234348,0.63,-0.66,10.01,-0.11,-0.09,-0.01,27.55
4347193,1991,1,186151,233488,0.41,-1.20,11.26,-0.12,-0.07,-0.01,27.55
4387196,2011,1,186312,232795,0.57,-1.07,9.23,-0.10,-0.14,-0.00,27.55
4427212,1984,1,186304,233064,0.86,-0.72,10.03,-0.11,-0.03,-0.01,27.55
4467196,1973,1,186309,233639,0.16,-1.10,9.62,-0.09,0.01,-0.00,27.55
4507173,1913,1,186085,233659,0.66,-0.90,8.98,-0.08,-0.06,-0.01,27.55
4547196,1919,1,186003,233766,0.39,-1.07,9.93,-0.06,-0.00,-0.01,27.55
4587193,1886,1,185955,234185,0.51,-0.95,9.43,-0.05,-0.04,0.00,27.55
4627176,1894,1,186144,232451,0.37,-1.47,9.36,-0.04,-0.04,0.00,27.55
4667173,1825,1,185687,230475,0.01,-1.55,8.69,-0.02,-0.03,0.01,27.55
4707176,1863,1,185606,229423,0.68,-1.21,9.62,-0.02,-0.05,-0.00,27.55
4747192,1897,1,185461,229417,0.56,-0.98,9.00,-0.00,-0.03,-0.00,27.55
4787196,1981,1,185300,229489,0.82,-0.83,9.34,-0.00,0.00,0.00,27.55
4827163,1913,1,185213,230555,0.58,-1.06,7.92,0.02,-0.02,0.01,27.55
4867168,1855,1,185447,230798,1.07,-0.75,8.61,0.02,-0.05,0.00,27.55
4907163,1830,1,185512,232080,0.30,-0.76,9.45,0.02,0.07,0.01,27.55
4947145,1813,1,185305,231151,1.07,-0.55,8.11,0.03,-0.09,0.00,27.55
4987162,1874,1,185664,231362,0.76,-0.87,9.50,0.02,-0.01,-0.00,27.55
5027862,1873,1,185567,232861,1.27,-0.41,9.95,0.03,-0.02,-0.00,27.79
5066173,1869,1,185957,232991,0.50,-0.67,9.72,0.02,0.04,-0.00,27.79
5106167,1879,1,186218,234848,0.34,-1.22,10.34,0.01,0.04,0.00,27.79
5146144,1899,1,186329,234261,1.37,-0.11,10.58,-0.01,-0.04,-0.01,27.79
5186196,1882,1,186529,235426,0.18,-0.87,11.15,-0.00,0.03,0.01,27.79
5226163,1875,1,186680,235171,1.04,-0.59,9.88,-0.04,-0.05,-0.00,27.79
5266196,1905,1,186944,236316,0.22,-0.79,12.24,-0.03,0.05,0.00,27.79
5306163,1908,1,186701,233972,0.76,-0.23,9.64,-0.04,-0.08,0.00,27.79
5346176,1915,1,186541,234131,0.46,-1.00,13.17,-0.08,0.02,0.00,27.79
5386163,1925,1,186253,231195,0.71,-0.41,8.70,-0.06,-0.13,-0.00,27.79
5426196,1823,1,186490,231748,0.48,-0.73,11.69,-0.08,0.02,0.00,27.79
5466173,1746,1,185988,230378,0.51,-0.82,9.04,-0.10,0.03,0.01,27.79
5506167,1753,1,185810,231732,0.05,-1.19,9.74,-0.08,0.04,0.01,27.79
5546163,1727,1,185500,229803,0.68,-0.56,9.07,-0.11,-0.05,-0.00,27.79
5586196,1761,1,184737,229768,0.07,-0.94,9.20,-0.07,0.01,0.01,27.79
5626163,1819,1,184152,227928,0.98,-0.91,8.45,-0.09,-0.08,-0.00,27.79
5666199,1854,1,184398,230129,0.24,-1.24,10.06,-0.09,0.04,0.00,27.79
5706164,1870,1,184441,231115,0.66,-1.10,7.97,-0.06,-0.01,0.00,27.79
5746176,1837,1,185231,233120,0.36,-0.96,10.21,-0.03,0.00,0.01,27.79
5786163,1902,1,185624,233449,0.76,-0.49,9.83,-0.02,0.01,0.01,27.79
5826167,1920,1,185796,233744,0.53,-1.36,9.74,-0.02,0.01,0.01,27.79
5866177,1967,1,185768,234182,0.70,-1.10,9.59,-0.01,0.06,0.00,27.79
5906167,1970,1,185760,234345,-0.08,-1.78,9.72,-0.03,0.05,0.00,27.79
5946173,1969,1,185449,235078,0.73,-1.36,9.60,-0.01,-0.00,0.00,27.79
5986176,1977,1,186078,235533,-0.09,-0.75,9.63,-0.02,0.05,0.01,27.79
6026176,1953,1,185575,235919,0.83,-0.81,10.06,0.01,-0.01,-0.00,27.79
6066890,1943,1,186403,236473,0.19,-0.84,11.10,-0.02,0.07,0.00,27.75
6105163,1955,1,186160,237389,0.19,-1.01,9.52,-0.01,0.00,0.01,27.75
6145167,1968,1,186967,237466,0.01,-1.40,11.35,-0.05,0.00,0.00,27.75
6185163,1953,1,186681,237505,-0.09,-1.13,9.82,-0.03,-0.03,0.01,27.75
6225196,1878,1,186351,236035,0.48,-1.42,9.89,-0.07,-0.04,-0.00,27.75
6265193,1904,1,185753,235081,0.59,-0.61,10.62,-0.05,-0.02,-0.01,27.75
6305196,1885,1,185314,234297,1.06,-0.84,9.74,-0.04,-0.04,-0.00,27.75
6345192,1872,1,185490,234987,0.25,-0.74,10.37,-0.06,-0.00,0.00,27.75
6385176,1877,1,185744,235444,0.87,-1.10,10.40,-0.06,0.01,0.00,27.75
6425163,1894,1,185946,235717,0.28,-1.51,9.73,-0.07,0.02,0.00,27.75
6465167,1887,1,185667,235385,0.76,-1.36,9.34,-0.07,-0.07,-0.00,27.75
6505193,1885,1,185727,235499,0.55,-0.94,9.70,-0.05,-0.01,0.00,27.75
6545176,1893,1,185883,237165,0.51,-1.08,9.42,-0.05,-0.00,-0.00,27.75
6585192,1906,1,186732,237286,0.48,-0.69,10.20,-0.03,0.04,0.00,27.75
6625167,1898,1,186557,238096,0.80,-1.21,10.44,-0.02,0.00,0.00,27.75
6665163,1932,1,186872,237443,0.67,-1.22,10.45,-0.04,0.00,0.00,27.75
6705167,1874,1,186525,237667,0.80,-1.54,9.76,-0.03,-0.05,0.00,27.75
6745173,1799,1,186313,237180,0.76,-1.35,9.22,-0.05,-0.04,-0.00,27.75
6785196,1808,1,186547,238320,0.11,-1.51,9.07,-0.02,-0.00,0.00,27.75
6825173,1833,1,186642,238448,0.70,-0.80,8.89,-0.02,-0.06,-0.00,27.75
6865196,1851,1,187023,238772,0.49,-1.33,10.86,-0.02,0.01,-0.00,27.75
6905176,1856,1,186740,238337,0.57,-1.11,8.79,-0.01,-0.05,-0.01,27.75
6945196,1877,1,187016,238506,0.33,-1.24,11.41,-0.02,-0.01,0.00,27.75
6985176,1904,1,186889,238749,0.47,-1.47,9.66,-0.02,-0.02,0.00,27.75
7025181,1905,1,187231,238725,-0.29,-1.81,10.69,-0.01,-0.01,0.00,27.75
7065196,1903,1,187026,238925,-0.04,-2.02,10.33,-0.02,-0.01,0.00,27.75
7105883,1913,1,186726,237162,0.53,-1.07,10.66,-0.02,-0.06,-0.01,27.79
7144196,1903,1,185971,237073,0.60,-1.41,9.64,-0.01,-0.06,0.00,27.79
7184176,1941,1,186243,236874,0.32,-1.27,10.58,-0.05,-0.02,-0.00,27.79
7224193,1959,1,185737,236804,0.57,-1.19,9.27,-0.03,-0.03,-0.00,27.79
7264196,1810,1,185946,235678,0.68,-1.67,10.36,-0.06,-0.00,-0.01,27.79
7304213,1814,1,185320,235637,0.44,-1.38,9.79,-0.07,-0.08,-0.00,27.79
7344196,1853,1,185750,235935,0.23,-1.75,10.28,-0.06,-0.01,-0.00,27.79
7384196,1872,1,185113,234323,1.24,-0.83,9.34,-0.05,-0.12,-0.00,27.79
7424196,1929,1,185263,234682,0.15,-1.75,10.82,-0.05,-0.03,0.00,27.79
7464176,1936,1,185159,234566,0.50,-0.99,10.32,-0.05,0.01,0.00,27.79
7505174,2004,1,185541,234620,-0.27,-1.68,10.89,-0.05,0.07,0.01,27.79
7545176,1979,1,184637,232107,0.74,-1.84,8.24,-0.05,-0.07,0.00,27.79
7585176,1981,1,183952,228635,-0.16,-1.36,8.37,-0.08,-0.09,0.00,27.79
7625193,1984,1,183794,232567,0.47,-1.01,9.10,-0.03,0.16,0.02,27.79
7665167,1927,1,184901,233453,0.26,-1.58,7.22,-0.04,0.05,-0.00,27.79
7705173,1840,1,185198,237979,0.58,-0.90,9.25,-0.01,0.00,-0.00,27.79
7745176,1935,1,186929,238652,1.28,-2.09,10.17,-0.04,0.01,-0.17,27.79
7785176,1872,1,187556,240629,0.37,-0.62,10.74,0.02,-0.01,-0.01,27.79
7825176,1797,1,186876,237669,1.51,-0.54,8.78,-0.02,-0.05,-0.02,27.79
7865193,1847,1,186999,238907,-0.63,-1.29,11.37,0.00,0.13,0.00,27.79
7905167,1911,1,186233,236418,1.58,-0.81,9.52,-0.02,-0.04,-0.01,27.79
7945193,1890,1,187145,240293,-0.56,-1.92,11.10,-0.02,0.18,0.01,27.79
7985176,1874,1,185941,234324,1.41,0.95,7.06,0.02,-0.07,-0.12,27.79
8025168,1556,1,186568,238130,-0.26,-1.82,14.64,-0.02,0.09,0.02,27.79
8065176,1762,1,185837,236830,1.37,-0.01,9.16,-0.00,0.05,-0.01,27.79
8105173,1705,1,186878,238450,-0.03,-1.44,13.93,-0.07,0.04,0.01,27.79
8143862,1754,1,186399,239441,0.94,-1.47,8.59,-0.03,0.01,-0.00,27.69
8184173,1858,1,187530,238765,-0.40,-1.70,12.47,-0.07,0.02,-0.00,27.69
8224196,2000,1,186738,239414,0.33,-1.56,10.30,-0.04,-0.01,-0.01,27.69
8264196,2042,1,186821,237521,0.57,-1.25,11.31,-0.06,-0.03,-0.01,27.69
8304196,2057,1,186124,237401,0.37,-1.16,10.81,-0.06,-0.03,-0.01,27.69
8344196,2064,1,185714,235205,0.91,-1.39,9.87,-0.07,-0.06,-0.01,27.69
8384196,2061,1,185031,233811,-0.09,-1.57,10.49,-0.08,-0.01,-0.01,27.69
8424209,2045,1,184037,231542,0.67,-1.75,8.36,-0.08,-0.06,-0.00,27.69
8464196,2026,1,183714,231222,0.19,-1.52,9.52,-0.06,0.00,0.00,27.69
8504163,1995,1,183408,230842,0.27,-1.81,7.97,-0.06,-0.04,0.00,27.69
8543176,1968,1,183669,231159,0.03,-1.72,9.46,-0.04,0.03,0.01,27.69
8583163,1937,1,183942,233177,0.22,-1.33,8.34,-0.03,-0.03,0.01,27.69
8623176,1927,1,184839,234634,0.55,-1.38,9.66,-0.03,-0.03,0.00,27.69
8663173,1906,1,185392,235985,0.64,-1.16,10.07,-0.01,0.03,0.01,27.69
8703167,1904,1,185860,236908,0.44,-0.99,10.14,-0.01,0.03,0.01,27.69
8743164,1895,1,186090,238316,0.57,-1.58,8.96,-0.01,0.02,0.01,27.69
8783167,1891,1,187051,239858,-0.17,-1.74,9.42,-0.00,0.01,0.01,27.69
8823173,1882,1,187489,240470,0.39,-1.27,9.58,-0.01,-0.01,0.01,27.69
8863176,1875,1,187749,241258,0.51,-1.43,9.85,0.01,0.01,0.00,27.69
8903144,1872,1,187810,241360,0.68,-0.71,10.18,-0.00,-0.04,-0.00,27.69
8943196,1865,1,188123,241902,0.56,-1.23,10.75,-0.02,-0.00,0.00,27.69
8983173,1861,1,188094,241778,0.78,-0.83,9.98,-0.01,-0.03,-0.01,27.69
9023211,1871,1,188227,241075,0.21,-1.25,11.59,-0.05,-0.02,0.00,27.69
9063173,1874,1,187466,240042,0.64,-1.15,9.93,-0.03,-0.04,-0.00,27.69
9103196,1878,1,187066,238608,-0.02,-1.30,10.31,-0.04,-0.04,-0.01,27.69
9143223,1891,1,186409,237591,0.03,-1.53,10.36,-0.05,-0.03,-0.00,27.69
9183883,1898,1,185750,235518,0.78,-1.26,10.46,-0.05,-0.02,-0.00,27.63
9224193,1890,1,185171,234481,0.01,-1.43,9.01,-0.05,-0.03,0.00,27.63
9264176,1872,1,184849,233072,0.96,-1.25,10.47,-0.05,-0.05,-0.01,27.63
9304196,1871,1,184480,232044,0.27,-1.58,10.03,-0.05,-0.01,0.00,27.63
9344199,1863,1,183999,231048,0.60,-1.17,9.33,-0.05,-0.05,0.00,27.63
9384173,1877,1,184200,231640,0.38,-1.74,10.31,-0.06,0.03,0.01,27.63
9424168,1877,1,184139,232542,0.60,-1.77,8.66,-0.04,-0.05,0.01,27.63
9464173,1878,1,184540,232011,0.30,-1.38,9.62,-0.05,-0.01,0.01,27.63
9504176,1885,1,184190,232420,0.59,-1.57,8.65,-0.03,-0.05,0.01,27.63
9544176,1861,1,184477,233032,0.77,-0.99,8.98,-0.03,-0.03,0.00,27.63
9583176,1875,1,184750,234681,0.55,-0.99,8.65,-0.02,0.02,0.01,27.63
9623163,1894,1,185250,235486,1.32,-0.76,9.44,-0.01,-0.03,0.00,27.63
9663176,1886,1,185608,236230,0.47,-1.02,10.02,-0.03,0.03,0.01,27.63
9703163,1893,1,185693,236153,0.66,-1.32,9.22,-0.01,-0.02,0.01,27.63
9743175,1893,1,185855,236268,0.90,-0.95,10.84,-0.02,0.00,0.01,27.63
9783163,1906,1,185959,236742,0.29,-1.39,9.96,-0.03,0.02,0.01,27.63
9823168,1899,1,186106,236835,0.43,-1.18,10.60,-0.02,-0.02,0.01,27.63
9863173,1914,1,186069,236569,0.58,-0.92,10.48,-0.01,-0.00,0.01,27.63
9903176,1914,1,185320,233615,0.66,-1.02,10.22,-0.02,-0.05,0.01,27.63
9943173,1920,1,184718,232818,0.91,-1.10,10.81,-0.03,-0.00,0.01,27.63
9983176,1915,1,184666,233555,0.84,-0.69,10.35,-0.04,-0.04,0.01,27.63
10023189,1925,1,185141,234053,0.27,-1.27,10.58,-0.05,0.01,0.02,27.63
10063168,1920,1,185093,234180,0.39,-1.81,10.10,-0.04,-0.04,0.02,27.63
10103176,1920,1,185142,233970,0.48,-1.10,10.55,-0.05,-0.06,0.01,27.63
10143175,1919,1,185200,234264,0.37,-1.57,9.72,-0.05,-0.04,0.01,27.63
10183176,1917,1,185316,234034,0.70,-1.37,9.41,-0.05,-0.09,0.01,27.63
10223862,1909,1,185472,234589,0.31,-1.32,9.73,-0.06,-0.04,0.01,27.31
10262176,1907,1,185443,234300,0.83,-1.16,9.03,-0.05,-0.06,0.01,27.31
10302176,1916,1,185416,234194,0.78,-1.28,9.72,-0.05,-0.04,0.01,27.31
10342176,1920,1,185280,233624,0.66,-0.65,8.38,-0.04,-0.02,0.01,27.31
10382176,1917,1,185470,234257,0.61,-1.31,10.15,-0.04,0.02,0.02,27.31
10422167,1935,1,185572,234689,0.59,-1.26,8.83,-0.04,-0.01,0.01,27.31
10462176,1923,1,185860,235602,0.33,-1.20,10.46,-0.04,0.03,0.02,27.31
10502167,1909,1,186035,235939,0.56,-1.14,9.50,-0.02,0.04,0.02,27.31
10542167,1918,1,186173,236054,0.81,-1.04,9.80,-0.02,-0.04,0.01,27.31
10583173,1913,1,186225,236113,0.58,-0.56,10.03,-0.02,0.03,0.01,27.31
10623167,1919,1,186183,235742,0.78,-1.00,10.28,-0.01,0.04,0.01,27.31
10663164,1904,1,185733,234686,0.90,-0.80,10.34,-0.01,0.05,0.01,27.31
10703167,1902,1,185566,234864,0.18,-1.31,10.48,-0.03,0.02,0.02,27.31
10743167,1907,1,185493,234464,0.95,-1.54,10.49,-0.04,0.00,0.02,27.31
10783195,1899,1,185359,234805,-0.05,-1.85,9.45,-0.04,-0.01,0.02,27.31
10823196,1904,1,185435,235155,0.52,-1.08,9.74,-0.04,-0.02,0.02,27.31
10863176,1916,1,185833,236480,0.15,-1.47,9.89,-0.03,0.05,0.02,27.31
10903167,1900,1,185870,236670,0.62,-1.15,9.24,-0.03,-0.05,0.01,27.31
10943176,1901,1,186213,236816,0.23,-0.82,10.85,-0.05,0.03,0.01,27.31
10983189,1899,1,185829,236474,0.86,-0.93,9.29,-0.03,-0.05,0.01,27.31
11023192,1898,1,186044,236662,0.23,-1.30,10.52,-0.06,0.02,0.01,27.31
11063167,1902,1,186136,237198,0.00,-1.11,9.96,-0.05,0.03,0.02,27.31
11101168,1901,1,186335,237214,0.06,-1.22,10.03,-0.05,0.00,0.02,27.31
11141164,1905,1,186324,237501,-0.38,-1.18,10.46,-0.05,0.04,0.02,27.31
11181176,1908,1,186196,236790,0.37,-0.51,9.43,-0.03,-0.04,0.01,27.31
11221173,1904,1,186051,236288,0.27,-0.48,10.13,-0.04,0.01,0.01,27.31
11261854,1891,1,185820,235807,0.83,-1.16,10.30,-0.04,-0.04,0.01,27.17
11302176,1890,1,185745,233948,0.76,-0.56,11.00,-0.04,-0.02,0.02,27.17
11342176,1899,1,185083,230818,0.49,-0.82,9.69,-0.03,-0.04,0.03,27.17
11382173,1851,1,185009,229831,0.54,-0.78,10.09,-0.04,-0.01,0.13,27.17
11422176,1797,1,185071,229388,0.65,-0.84,9.82,-0.04,0.03,0.26,27.17
11462167,1774,1,185023,229232,0.91,-0.65,8.79,-0.04,-0.04,0.15,27.17
11502176,1806,1,185231,229778,0.44,-1.13,9.06,-0.03,-0.05,0.04,27.17
11542173,1854,1,185891,230941,0.73,-0.67,9.67,-0.01,-0.08,0.03,27.17
11582176,1881,1,186717,231638,0.39,-0.01,10.04,0.00,-0.05,0.04,27.17
11621164,1861,1,187397,231860,0.42,0.01,9.41,0.02,-0.16,0.10,27.17
11661145,1868,1,187668,231970,0.33,-0.18,10.72,-0.01,-0.01,0.10,27.17
11701176,1911,1,187855,234301,0.10,-0.17,9.60,0.00,0.10,0.06,27.17
11741145,1910,1,188249,237128,-0.08,-0.07,9.58,0.01,0.02,0.04,27.17
11781163,1929,1,188537,238702,-0.42,-0.34,10.18,0.02,0.02,0.05,27.17
11821168,1949,1,188533,238899,-0.18,0.16,8.96,0.04,-0.09,0.04,27.17
11861164,1967,1,188661,239169,-0.02,0.42,10.50,0.02,-0.06,0.04,27.17
11901167,1974,1,188474,239767,-0.24,0.63,10.30,0.02,-0.00,0.04,27.17
11941163,1978,1,188715,241532,-0.32,0.89,10.94,0.02,0.02,0.05,27.17
11981145,1990,1,189080,241986,-0.15,0.14,10.70,-0.02,-0.02,0.01,27.17
12021183,1970,1,188780,241325,-0.97,1.28,11.24,-0.01,-0.02,0.07,27.17
12061176,1802,1,187798,239509,-0.49,0.47,9.73,-0.02,-0.10,0.04,27.17
12101173,2082,1,187718,239981,-0.60,1.06,10.81,-0.05,-0.05,0.04,27.17
12141176,2066,1,187949,240721,-0.62,0.97,9.93,-0.04,-0.01,0.04,27.17
12181173,2018,1,188528,242584,-0.65,1.27,10.52,-0.04,-0.03,0.04,27.17
12221176,2033,1,189968,244453,-0.69,0.77,9.94,-0.08,0.09,0.04,27.17
12261850,2054,1,190769,244929,-0.66,0.09,8.65,-0.06,-0.00,0.05,26.93
12302175,2059,1,190332,242931,-0.98,0.57,8.49,-0.05,-0.01,-0.03,26.93
12342196,1984,1,188951,240826,-0.63,0.65,9.25,-0.04,-0.04,0.03,26.93
12382176,1977,1,187623,237958,-0.34,0.42,9.97,-0.05,-0.07,0.03,26.93
12422227,1829,1,186690,236298,-0.28,0.52,10.59,-0.05,-0.02,0.03,26.93
12460175,1821,1,186972,238052,-0.09,-0.22,9.82,-0.06,0.00,0.03,26.93
12500173,1899,1,188660,242801,0.00,0.06,10.02,-0.04,0.06,0.03,26.93
12540145,1861,1,190011,245120,0.09,-0.21,11.05,-0.05,0.05,0.03,26.93
12580164,1861,1,190365,245699,0.40,-0.18,11.23,-0.05,-0.02,0.03,26.93
12620176,1845,1,190665,246248,0.43,-0.21,11.64,-0.06,-0.01,0.03,26.93
12660176,1856,1,190684,246040,-0.10,-1.02,10.13,-0.07,0.03,0.03,26.93
12700176,1834,1,190078,245094,0.38,-0.59,10.03,-0.07,-0.03,0.03,26.93
12740175,1857,1,189773,243688,0.05,-0.87,10.33,-0.09,-0.05,0.03,26.93
12780175,1891,1,188627,240666,0.57,-0.84,9.58,-0.07,-0.04,0.03,26.93
12820173,1920,1,187768,238884,0.04,-1.17,9.56,-0.07,-0.04,0.03,26.93
12860176,1899,1,187503,239389,0.17,-1.04,8.52,-0.06,-0.01,0.03,26.93
12900176,1801,1,187637,239832,0.30,-1.32,9.22,-0.07,0.01,0.02,26.93
12940167,1872,1,187498,240134,-0.03,-1.43,10.55,-0.06,0.00,0.02,26.93
12980175,1884,1,187384,240369,-0.01,-1.21,9.92,-0.05,-0.01,0.02,26.93
13020196,1906,1,187123,240228,0.03,-1.61,9.35,-0.03,0.03,0.02,26.93
13060163,1907,1,187399,240691,0.11,-1.56,9.27,0.00,-0.03,0.01,26.93
13100167,1904,1,188055,241141,0.41,-1.22,9.40,-0.03,-0.05,0.01,26.93
13140173,1879,1,188523,241982,0.00,-1.28,10.43,-0.02,0.00,0.01,26.93
13180167,1887,1,188763,242204,0.29,-1.45,9.94,-0.04,0.02,0.01,26.93
13220166,1903,1,188767,242154,0.39,-1.44,9.92,-0.01,0.03,0.01,26.93
13260167,1907,1,188595,241961,0.60,-0.84,9.27,-0.01,0.01,0.01,26.93
13300849,1847,1,188716,241945,0.34,-1.03,10.68,-0.04,-0.01,0.01,27.15
13341175,1872,1,188720,241830,0.41,-1.04,9.68,-0.02,-0.00,0.01,27.15
13381173,1894,1,188587,241140,0.26,-1.39,9.73,-0.03,0.00,0.01,27.15
13421167,1899,1,188232,240338,0.57,-1.64,9.45,-0.05,-0.01,0.00,27.15
13461176,1919,1,187891,239329,0.26,-1.34,8.91,-0.03,-0.02,0.01,27.15
13501176,1915,1,187630,239047,0.39,-0.75,10.57,-0.03,0.03,0.01,27.15
13541167,1886,1,187413,238667,0.13,-1.43,9.74,-0.07,0.02,0.01,27.15
13581167,1897,1,187416,239296,0.01,-1.72,9.36,-0.03,0.01,0.01,27.15
13621167,1904,1,187620,239357,0.62,-1.41,9.50,-0.02,0.01,0.00,27.15
13661167,1899,1,187905,240217,0.03,-1.54,11.24,-0.03,0.00,0.01,27.15
13701166,1919,1,187939,240494,0.41,-1.12,9.21,-0.02,0.02,0.01,27.15
13741167,1878,1,188051,241215,-0.09,-1.53,10.77,-0.03,0.07,0.01,27.15
13781176,1901,1,187815,240865,0.46,-1.04,9.12,-0.03,-0.02,0.00,27.15
13821175,1885,1,187879,241262,0.42,-1.40,10.62,-0.04,-0.00,0.01,27.15
13861176,1872,1,187833,241078,0.32,-1.37,10.24,-0.04,0.02,0.01,27.15
13901167,1897,1,187617,240332,0.23,-1.27,11.12,-0.07,-0.05,0.01,27.15
13941176,1872,1,186978,239380,0.02,-1.56,8.97,-0.06,-0.02,0.01,27.15
13981175,1885,1,186643,238590,0.27,-1.11,9.77,-0.05,-0.02,0.01,27.15
14019176,1905,1,186364,237974,0.19,-1.38,10.96,-0.05,-0.03,0.01,27.15
14059198,1914,1,186290,238162,0.11,-1.53,9.99,-0.06,-0.03,0.01,27.15
14099176,1910,1,186379,237587,-0.06,-2.16,10.04,-0.04,0.00,0.01,27.15
14139176,1909,1,185998,237295,-0.18,-1.54,9.99,-0.03,-0.03,0.01,27.15
14179196,1904,1,186176,236855,-0.10,-1.61,9.69,-0.06,-0.04,0.01,27.15
14219196,1922,1,185908,236725,0.31,-1.31,10.35,-0.01,-0.06,0.01,27.15
14259179,1923,1,185880,236204,0.15,-1.71,9.80,-0.03,-0.03,0.01,27.15
14299175,1917,1,185485,235719,0.39,-1.25,9.07,-0.02,-0.05,0.01,27.15
14339860,1905,1,185434,235391,0.63,-1.67,9.27,-0.01,-0.03,0.01,27.09
14380175,1915,1,185392,235397,0.53,-0.97,10.26,-0.03,-0.06,0.01,27.09
14420176,1904,1,185587,236011,0.28,-1.21,9.29,-0.02,-0.04,0.01,27.09
14460175,1899,1,185905,237160,0.37,-1.32,9.26,0.01,-0.01,0.01,27.09
14500166,1908,1,186298,237238,0.60,-1.22,9.58,0.00,-0.05,0.01,27.09
14540167,1906,1,186395,237764,0.56,-1.05,9.84,-0.01,-0.05,0.01,27.09
14580173,1910,1,186681,237873,0.66,-1.64,10.13,-0.03,-0.02,0.01,27.09
14620175,1902,1,186698,237882,0.00,-1.56,10.29,-0.04,-0.07,0.02,27.09
14660173,1904,1,186659,237673,0.39,-1.65,9.37,-0.02,-0.06,0.01,27.09
14700175,1904,1,186515,237796,0.39,-1.32,9.39,-0.01,0.00,0.01,27.09
14740163,1904,1,186623,237632,0.39,-1.36,10.76,-0.02,-0.04,0.01,27.09
14780176,1897,1,186329,236690,0.82,-1.19,10.48,0.00,-0.04,0.02,27.09
14820166,1898,1,186347,237005,0.30,-1.86,10.56,-0.03,0.01,0.02,27.09
14860168,1903,1,186479,237311,0.36,-1.12,9.27,-0.01,-0.05,0.01,27.09
14900176,1904,1,186674,237887,0.89,-1.15,9.53,0.01,-0.05,0.02,27.09
14940167,1914,1,186712,237899,0.89,-0.72,10.36,-0.01,0.01,0.02,27.09
14980167,1902,1,186748,238076,0.58,-1.07,10.75,-0.02,-0.05,0.02,27.09
15020176,1889,1,186518,237769,1.30,-0.99,8.89,-0.02,-0.03,0.02,27.09
15060173,1920,1,186570,237952,0.10,-1.35,10.21,-0.06,0.01,0.02,27.09
15100167,1918,1,186324,237705,1.16,-0.65,9.07,-0.03,-0.07,0.02,27.09
15140173,1904,1,186543,238551,1.02,-1.06,10.97,-0.06,0.02,0.02,27.09
15180167,1904,1,186738,238981,0.73,-0.87,9.51,-0.06,0.00,0.02,27.09
15220163,1918,1,186928,239494,0.65,-1.56,9.50,-0.04,-0.06,0.02,27.09
15260176,1907,1,187244,240270,0.86,-1.24,10.48,-0.06,0.03,0.02,27.09
15300166,1919,1,187481,240457,0.23,-1.53,10.04,-0.06,-0.04,0.02,27.09
15340862,1914,1,187480,240718,0.57,-1.06,10.02,-0.04,-0.01,0.03,27.05
15379175,1904,1,187485,240574,0.84,-1.81,9.99,-0.07,0.02,0.03,27.05
15419166,1913,1,187217,240243,0.02,-1.20,8.62,-0.01,-0.02,0.02,27.05
15459173,1903,1,186945,239018,1.13,-1.52,9.80,-0.05,-0.02,0.02,27.05
15499175,1904,1,186613,238713,0.70,-1.30,10.08,-0.03,0.02,0.02,27.05
15539162,1901,1,186810,239218,0.29,-1.22,9.08,-0.03,-0.03,0.03,27.05
15579176,1892,1,186831,239407,1.08,-1.11,9.23,-0.02,0.02,0.03,27.05
15619166,1893,1,186981,240195,0.35,-1.40,9.03,-0.03,0.01,0.03,27.05
15659166,1894,1,187050,240317,1.08,-0.80,8.37,-0.01,-0.03,0.02,27.05
15699235,1904,1,187533,241844,0.80,-1.71,10.70,-0.03,0.03,0.03,27.05
15739166,1895,1,188098,242841,0.36,-0.89,9.33,-0.02,-0.03,0.03,27.05
15779173,1891,1,188468,243596,0.47,-1.45,9.85,0.01,-0.02,0.03,27.05
15819167,1887,1,188647,244105,0.58,-1.16,10.02,-0.00,-0.01,0.02,27.05
15859176,1889,1,188827,244516,0.44,-1.30,10.86,-0.02,-0.05,0.02,27.05
15899178,1887,1,189013,245040,0.39,-1.61,11.21,-0.00,-0.02,0.02,27.05
15939176,1895,1,189168,245233,0.09,-1.62,11.14,-0.03,-0.06,0.02,27.05
15979175,1913,1,189254,245886,0.07,-1.58,10.58,0.01,-0.06,0.02,27.05
16019166,1929,1,189296,245409,0.47,-1.83,10.86,-0.00,-0.06,0.00,27.05
16059175,1934,1,189002,244995,0.22,-0.86,11.70,-0.01,-0.12,-0.01,27.05
16099196,1911,1,188777,244319,0.54,-1.52,10.97,-0.01,-0.07,0.02,27.05
16139175,1894,1,188504,243750,0.50,-1.38,11.22,-0.02,-0.10,0.02,27.05
16179175,1906,1,188171,242961,0.35,-1.45,9.55,-0.03,-0.10,0.02,27.05
16219176,1901,1,187778,242156,1.23,-0.82,9.13,-0.01,-0.15,0.02,27.05
16259176,1891,1,187606,241021,0.53,-1.04,10.24,-0.03,-0.09,0.02,27.05
16299175,1899,1,186865,239434,1.29,-0.98,8.29,-0.01,-0.12,0.02,27.05
16339176,1904,1,186514,239168,0.88,-1.72,9.18,-0.03,-0.05,0.02,27.05
16379862,1903,1,186052,238131,1.10,-0.95,6.51,-0.02,-0.10,0.02,27.11
16418173,1915,1,185593,237700,1.12,-1.02,7.34,0.02,-0.07,0.02,27.11
16458167,1924,1,185666,238676,1.29,-0.80,8.26,0.00,-0.02,0.02,27.11
16498164,1913,1,186448,240729,1.06,-0.92,8.78,0.06,-0.01,0.02,27.11
16538168,1890,1,187239,242385,1.63,-1.60,8.59,0.06,-0.03,0.02,27.11
16578167,1895,1,187993,243082,1.26,-1.24,8.99,0.02,-0.05,0.01,27.11
16618167,1909,1,188328,243286,0.72,-1.06,8.02,0.08,-0.06,0.02,27.11
16658163,1916,1,188244,242804,1.07,-0.84,9.49,0.09,0.02,0.01,27.11
16698144,1922,1,188248,243097,0.21,-1.40,10.32,0.05,0.07,0.01,27.11
16738144,1922,1,187938,242692,1.59,-1.13,7.73,0.07,-0.02,0.01,27.11
16778168,1933,1,188234,242506,0.41,-1.30,10.95,0.00,0.04,0.01,27.11
16818144,1932,1,187700,240588,0.75,-0.62,8.83,0.03,0.05,0.01,27.11
16858144,1929,1,187437,239651,1.14,-0.45,11.65,0.01,0.03,0.01,27.11
16898145,1918,1,187021,239661,0.75,-0.77,10.07,-0.05,0.11,0.01,27.11
16938168,1975,1,187209,239869,0.89,-0.95,10.70,-0.04,0.05,0.01,27.11
16978163,1936,1,187248,239847,1.25,-0.66,11.50,-0.05,0.06,0.01,27.11
17018168,1878,1,186950,238785,0.97,-0.73,10.78,-0.10,0.02,0.01,27.11
17058166,1901,1,186407,237409,1.46,-0.22,11.30,-0.09,0.05,0.01,27.11
17098167,1910,1,185690,236008,1.11,-0.57,10.69,-0.13,0.06,0.02,27.11
17138167,1904,1,185097,235188,0.93,-1.10,9.88,-0.13,0.10,0.01,27.11
17178167,1901,1,184656,234023,0.68,-0.90,9.66,-0.15,0.04,0.01,27.11
17218163,1904,1,184094,232813,1.40,-0.56,9.42,-0.13,0.02,0.02,27.11
17258168,1931,1,183574,232161,1.08,-0.64,9.35,-0.16,0.09,0.02,27.11
17298164,1942,1,183411,232546,0.93,-1.02,9.38,-0.14,0.09,0.02,27.11
17338173,1922,1,183776,234433,0.80,-1.66,9.78,-0.14,0.10,0.02,27.11
17378166,1865,1,184327,235048,0.38,-1.30,9.45,-0.13,0.07,0.02,27.11
17418853,1858,1,184462,235519,0.48,-1.50,9.57,-0.10,0.06,0.03,27.05
17457163,1835,1,184561,234216,0.66,-1.08,10.45,-0.10,0.03,0.02,27.05
17497167,1826,1,184407,234151,0.48,-1.91,10.93,-0.08,0.06,0.02,27.05
17537202,1878,1,184387,234626,0.07,-1.86,9.34,-0.08,0.02,0.02,27.05
17577167,1881,1,184980,236287,-0.01,-1.94,10.14,-0.05,0.02,0.02,27.05
17617176,1907,1,185443,237527,-0.00,-1.84,9.40,-0.04,0.01,0.02,27.05
17657176,1915,1,186053,238683,-0.11,-1.80,10.97,-0.04,0.00,0.02,27.05
17697176,1915,1,186714,241323,-0.02,-2.08,11.99,-0.04,-0.01,0.02,27.05
17737196,1926,1,187727,242800,-0.22,-1.97,10.51,-0.04,-0.04,0.02,27.05
17777196,1952,1,188172,243663,-0.06,-1.98,11.27,-0.02,-0.04,0.01,27.05
17817196,2031,1,188262,243621,-0.53,-1.64,9.74,-0.05,-0.05,0.01,27.05
17857196,1991,1,188170,243508,0.32,-2.08,10.65,-0.01,-0.06,0.01,27.05
17897175,1965,1,187781,242484,0.22,-1.66,10.59,-0.08,-0.08,0.01,27.05
17937176,1950,1,187370,242132,-0.02,-1.91,10.39,-0.03,-0.05,0.01,27.05
17977196,1936,1,187041,241564,0.04,-1.42,9.13,-0.06,-0.08,0.01,27.05
18017173,1903,1,187037,241905,-0.12,-2.37,10.13,-0.04,-0.04,0.01,27.05
18057196,1893,1,186888,241536,0.45,-1.64,7.86,-0.02,-0.11,0.01,27.05
18097176,1883,1,187173,241999,0.24,-1.87,9.61,-0.03,-0.06,0.01,27.05
18137175,1886,1,187043,241632,0.78,-1.26,8.66,-0.00,-0.06,0.01,27.05
18177176,1878,1,187801,243500,0.19,-2.09,9.99,0.01,-0.01,0.01,27.05
18217167,1888,1,188621,245497,0.67,-2.03,9.10,-0.00,-0.08,0.01,27.05
18257173,1894,1,189904,246972,0.38,-1.74,9.18,0.02,-0.06,0.00,27.05
18297167,1914,1,190309,247576,0.70,-1.06,8.87,0.04,-0.05,-0.03,27.05
18337173,1904,1,190736,247436,0.43,-1.58,10.12,0.03,-0.01,-0.00,27.05
18377175,1905,1,190474,247422,0.69,-1.51,9.96,0.05,-0.04,0.01,27.05
18417166,1904,1,190836,247879,0.20,-1.36,10.95,0.00,-0.03,0.02,27.05
18457853,1917,1,190718,248272,0.58,-1.15,8.76,0.06,-0.03,0.02,27.17
18496166,1926,1,191106,248383,0.57,-1.33,9.71,0.02,-0.04,0.01,27.17
18536167,1948,1,191151,248756,0.74,-1.25,10.09,0.02,-0.00,0.02,27.17
18576164,1927,1,191221,248492,0.60,-1.02,10.67,-0.01,-0.04,0.02,27.17
18616176,1925,1,191150,248475,0.96,-0.96,11.38,-0.01,-0.02,0.02,27.17
18656176,1935,1,191154,248318,0.40,-1.02,10.56,-0.03,-0.01,0.02,27.17
18696175,1936,1,190743,247570,0.99,-1.34,10.63,-0.02,-0.04,0.02,27.17
18736176,1953,1,190181,246649,0.96,-0.74,10.49,-0.06,-0.05,0.02,27.17
18776175,1956,1,189619,245250,1.02,-1.18,9.61,-0.05,-0.04,0.02,27.17
18816176,1951,1,188654,242883,1.42,-0.56,10.70,-0.06,-0.09,0.02,27.17
18856176,1938,1,188243,242330,1.04,-1.36,11.52,-0.08,0.00,0.03,27.17
18896167,1914,1,187788,241789,1.06,-0.82,8.51,-0.06,-0.06,0.02,27.17
18936175,1873,1,187694,241261,0.87,-1.63,9.88,-0.07,-0.02,0.03,27.17
18976178,1861,1,187427,241833,0.97,-0.92,7.92,-0.05,-0.02,0.03,27.17
19016176,1861,1,187942,242158,1.26,-1.54,9.50,-0.07,-0.00,0.02,27.17
19056173,1877,1,188049,243137,0.86,-0.75,9.38,-0.05,-0.02,0.03,27.17
19096175,1850,1,188618,243687,1.07,-1.30,10.14,-0.04,0.02,0.03,27.17
19136166,1836,1,188823,244752,0.69,-1.30,9.98,-0.03,0.01,0.03,27.17
19176168,1852,1,189275,244881,0.88,-1.65,9.73,-0.04,0.01,0.03,27.17
19216167,1872,1,189358,246159,0.39,-1.53,9.42,-0.02,0.01,0.03,27.17
19256167,1883,1,189900,246625,1.25,-0.98,10.03,-0.03,0.01,0.03,27.17
19296167,1892,1,190227,247406,0.85,-1.15,10.93,-0.02,0.02,0.03,27.17
19336168,1902,1,190533,247758,0.78,-1.34,10.70,-0.03,0.01,0.03,27.17
19376166,1913,1,191020,248207,0.55,-1.16,11.40,-0.03,-0.01,0.03,27.17
19416176,1922,1,190954,248273,0.45,-1.13,10.24,-0.04,-0.01,0.03,27.17
19456176,1935,1,190750,247239,0.71,-1.62,10.85,-0.04,0.01,0.03,27.17
19496854,1959,1,190011,246203,0.50,-1.28,9.88,-0.05,-0.06,0.02,27.35
19535173,1981,1,189639,244635,1.18,-0.96,10.99,-0.06,-0.06,0.02,27.35
19575175,1968,1,188765,243153,0.46,-1.04,11.00,-0.06,-0.02,0.03,27.35
19616173,1947,1,187990,241571,0.93,-1.31,9.69,-0.06,-0.03,0.03,27.35
19656175,1925,1,187517,240949,0.61,-1.50,9.69,-0.07,-0.02,0.03,27.35
19696173,1918,1,187221,240485,0.82,-1.51,8.45,-0.06,-0.01,0.03,27.35
19736176,1936,1,187244,241175,1.03,-1.26,9.19,-0.04,-0.02,0.03,27.35
19776176,1870,1,187510,241585,0.95,-1.41,9.06,-0.05,-0.01,0.03,27.35
19816175,1861,1,187845,242001,0.79,-1.33,10.19,-0.03,-0.02,0.03,27.35
19856176,1871,1,187766,241835,0.88,-1.06,9.76,-0.02,-0.03,0.03,27.35
19896175,1875,1,187804,241861,0.75,-2.03,10.51,-0.02,0.03,0.03,27.35
19936167,1907,1,187631,241853,0.46,-1.63,8.92,-0.02,-0.02,0.03,27.35
19976176,1911,1,187941,243123,0.54,-1.73,10.20,-0.01,0.04,0.03,27.35
20016167,1879,1,188510,244067,0.51,-1.23,8.68,0.02,0.01,0.03,27.35
20056144,1865,1,189194,245361,0.73,-1.41,10.87,-0.01,0.00,0.03,27.35
20096166,1865,1,189688,246112,0.38,-1.18,9.94,-0.01,-0.01,0.03,27.35
20136176,1873,1,189928,245059,0.55,-1.22,11.32,-0.02,-0.03,0.03,27.35
20176176,1878,1,189507,245034,0.80,-1.44,10.56,-0.02,-0.02,0.03,27.35
20216175,1883,1,189466,244855,0.21,-1.68,10.18,-0.05,-0.02,0.03,27.35
20256176,1897,1,189225,244077,0.49,-1.56,9.87,-0.02,-0.04,0.03,27.35
20296175,1904,1,188621,242831,0.58,-1.05,9.06,-0.06,-0.05,0.03,27.35
20336173,1913,1,188231,242085,0.70,-1.51,10.27,-0.06,0.01,0.03,27.35
20376168,1917,1,187760,241511,0.77,-0.88,9.09,-0.05,-0.07,0.03,27.35
20416173,1922,1,187840,241582,0.38,-1.50,10.75,-0.07,0.03,0.03,27.35
20456167,1917,1,187729,241499,0.59,-1.38,9.26,-0.04,-0.01,0.03,27.35
20496176,1906,1,187627,240977,0.46,-1.51,9.45,-0.06,-0.03,0.03,27.35
20536862,1904,1,187358,241624,0.95,-1.53,8.84,-0.05,0.00,0.03,27.25
20575167,1923,1,187583,241268,0.83,-1.08,8.26,-0.03,0.00,0.03,27.25
20616167,1919,1,187647,242620,0.69,-1.39,10.04,-0.03,0.02,0.03,27.25
20656167,1878,1,188170,243339,1.02,-0.83,9.23,-0.04,0.02,0.03,27.25
20696167,1901,1,188660,244360,0.41,-1.13,10.02,-0.02,0.04,0.04,27.25
20736164,1917,1,189001,244572,1.10,-1.21,9.66,-0.03,0.03,0.03,27.25
20776167,1911,1,189134,245361,0.03,-1.53,9.91,-0.05,0.04,0.04,27.25
20816186,1899,1,189126,245101,0.99,-1.28,8.26,-0.01,0.01,0.03,27.25
20856168,1879,1,189441,245325,0.70,-0.87,10.58,-0.04,0.03,0.03,27.25
20896164,1899,1,189481,245459,0.76,-1.10,9.66,-0.02,0.03,0.03,27.25
20934167,1903,1,189596,245228,0.87,-0.72,10.90,-0.05,-0.00,0.03,27.25
20974173,1901,1,189643,245767,0.35,-1.01,10.61,-0.06,0.05,0.04,27.25
21014167,1918,1,189739,245856,1.03,-1.41,9.97,-0.04,0.00,0.03,27.25
21054167,1907,1,190131,247045,0.21,-1.40,11.08,-0.06,0.01,0.03,27.25
21094168,1903,1,190593,247600,0.81,-1.04,9.53,-0.04,-0.01,0.03,27.25
21134173,1917,1,190818,247919,0.56,-1.26,10.24,-0.04,0.00,0.03,27.25
21174168,1914,1,190742,247835,0.81,-1.28,10.83,-0.05,-0.00,0.03,27.25
21214176,1925,1,190831,247752,0.88,-0.96,11.19,-0.06,-0.01,0.03,27.25
21254176,1933,1,190622,247953,0.62,-1.22,10.19,-0.04,-0.01,0.03,27.25
21294175,1922,1,190732,248137,0.71,-1.79,10.65,-0.05,-0.00,0.03,27.25
21334176,1920,1,190723,248074,0.16,-1.58,9.69,-0.04,-0.02,0.03,27.25
21374176,1919,1,190577,247916,0.34,-1.44,8.94,-0.04,-0.05,0.03,27.25
21414175,1914,1,190648,248327,0.32,-2.16,10.19,-0.04,0.01,0.03,27.25
21454167,1920,1,190534,248247,0.56,-1.36,8.76,-0.03,-0.07,0.02,27.25
21494176,1889,1,190539,247800,0.41,-1.53,10.30,-0.03,-0.03,0.03,27.25
21534176,1905,1,190578,248181,0.78,-1.81,10.14,-0.02,-0.05,-0.03,27.25
21574883,1819,1,191187,249144,0.56,-1.52,10.74,-0.01,-0.04,-0.09,27.47
21615196,1792,1,191587,249831,0.17,-1.72,9.47,-0.01,-0.04,0.03,27.47
21654176,1801,1,192081,249810,0.35,-1.87,10.52,-0.01,-0.03,0.02,27.47
21694176,1840,1,192115,250219,-0.12,-1.64,9.55,-0.01,-0.05,0.03,27.47
21734196,1827,1,192088,249858,0.72,-1.44,9.02,-0.01,-0.06,0.03,27.47
21774176,1867,1,192173,250020,0.40,-1.14,9.06,-0.00,-0.04,0.03,27.47
21814176,1882,1,191852,249499,0.93,-1.04,9.30,-0.00,-0.06,0.02,27.47
21854173,1871,1,191921,249560,0.77,-1.04,10.42,-0.02,-0.03,0.02,27.47
21894176,1904,1,191577,249280,1.19,-0.74,9.37,0.00,-0.06,0.02,27.47
21934164,1891,1,191829,249510,0.71,-1.21,11.04,-0.01,-0.00,0.03,27.47
21974175,1959,1,191570,249463,0.67,-1.29,9.05,-0.00,-0.03,0.02,27.47
22014173,1950,1,191477,248422,0.82,-0.88,10.11,-0.01,-0.06,0.02,27.47
22054176,1968,1,190726,247903,0.66,-1.65,10.35,-0.02,0.00,0.03,27.47
22094167,1953,1,190326,247168,0.81,-1.20,9.32,-0.01,-0.05,0.02,27.47
22134175,1958,1,189991,246570,0.72,-0.66,10.50,-0.02,-0.04,0.02,27.47
22174173,1953,1,189736,245896,1.17,-1.18,10.37,-0.03,-0.01,0.02,27.47
22214176,1969,1,189459,246034,0.81,-1.00,10.27,-0.02,-0.03,0.03,27.47
22254178,1968,1,189834,246325,0.07,-1.55,10.59,-0.05,-0.00,0.03,27.47
22294176,1977,1,189683,245886,0.78,-1.75,9.89,-0.03,-0.03,0.03,27.47
22334176,1968,1,189615,246350,-0.08,-1.99,10.11,-0.04,-0.03,0.03,27.47
22374196,1961,1,189801,246583,0.57,-1.21,9.30,-0.03,-0.03,0.03,27.47
22414176,1951,1,189908,247021,0.68,-1.53,9.78,-0.03,-0.02,0.03,27.47
22454198,1942,1,190070,247312,0.67,-1.40,8.85,-0.03,-0.03,0.02,27.47
22494176,1941,1,190420,247421,0.70,-0.81,10.02,-0.04,-0.03,0.02,27.47
22534176,1929,1,190495,248157,1.13,-1.14,9.10,-0.04,-0.01,0.02,27.47
22574862,1904,1,190984,249067,0.93,-0.85,9.89,-0.04,-0.00,0.02,27.37
22613175,1904,1,191321,249268,0.98,-0.92,9.28,-0.03,-0.02,0.03,27.37
22653180,1872,1,191494,249597,1.10,-1.13,10.39,-0.04,0.01,0.03,27.37
22694167,1872,1,191516,249183,0.90,-1.32,9.45,-0.05,-0.01,0.02,27.37
22734176,1872,1,191187,249186,0.67,-1.36,9.34,-0.02,-0.00,0.02,27.37
22774176,1877,1,191346,249454,0.74,-1.43,9.91,-0.05,0.04,0.02,27.37
22814167,1886,1,191315,249466,0.36,-1.51,9.80,-0.03,0.00,0.02,27.37
22854167,1885,1,191358,249270,0.99,-0.77,10.34,-0.05,-0.02,0.02,27.37
22894176,1872,1,191545,250127,0.71,-1.60,11.08,-0.05,0.02,0.02,27.37
22934167,1882,1,191657,249837,0.47,-1.48,9.63,-0.03,-0.01,0.02,27.37
22974176,1872,1,191644,249526,-0.02,-1.53,11.00,-0.05,-0.02,0.02,27.37
23014196,1891,1,191290,248906,0.19,-1.70,9.91,-0.05,-0.01,0.02,27.37
23054176,1897,1,191266,248847,0.44,-1.69,10.47,-0.03,-0.02,0.02,27.37
23094175,1918,1,190878,248322,-0.01,-1.59,8.51,-0.02,-0.01,0.02,27.37
23134196,1907,1,190967,248463,-0.04,-1.90,10.40,-0.05,0.00,0.02,27.37
23174176,1931,1,190775,248280,0.80,-1.20,8.38,-0.01,-0.04,0.02,27.37
23214173,1902,1,191202,249403,0.49,-1.19,10.57,-0.04,-0.01,0.02,27.37
23254175,1897,1,191519,249693,1.24,-0.64,9.63,-0.03,-0.01,0.02,27.37
23294176,1874,1,191693,250059,0.78,-1.47,10.31,-0.02,-0.04,0.02,27.37
23334175,1887,1,191716,249837,0.97,-1.10,10.82,-0.04,-0.00,0.01,27.37
23374176,1904,1,191621,249628,0.04,-1.63,10.63,-0.03,-0.03,0.02,27.37
23414176,1905,1,191409,249589,0.81,-1.36,10.75,-0.03,-0.04,0.01,27.37
23454176,1915,1,191363,249000,0.12,-1.81,9.78,-0.03,-0.01,0.01,27.37
23494176,1923,1,190470,247474,0.37,-1.45,8.62,-0.02,-0.09,0.01,27.37
23534176,1904,1,189944,246699,0.26,-1.72,9.78,-0.06,-0.04,0.02,27.37
23574862,1903,1,189705,247652,1.22,-1.18,8.35,-0.01,-0.05,0.01,27.29
23613176,1901,1,190695,248314,0.66,-1.21,10.14,-0.04,-0.02,0.01,27.29
23653175,1911,1,190715,248552,0.31,-1.17,8.50,-0.03,-0.04,0.01,27.29
23692176,1920,1,190308,247161,1.79,-0.85,8.73,-0.02,-0.07,0.01,27.29
23732176,1929,1,190023,247037,0.62,-0.96,9.90,-0.02,-0.00,0.01,27.29
23772173,1935,1,189923,247335,0.83,-1.22,8.83,-0.01,0.00,0.01,27.29
23812166,1907,1,190828,248615,0.34,-1.59,10.70,-0.01,0.04,0.01,27.29
23852167,1902,1,191472,249864,0.50,-1.41,9.44,0.02,0.00,0.01,27.29
23892167,1920,1,192296,250594,0.53,-1.19,10.88,-0.01,0.01,0.01,27.29
23932167,1910,1,192502,251546,-0.06,-1.99,9.40,0.00,0.02,0.01,27.29
23972167,1899,1,192902,252251,0.79,-2.10,10.57,0.01,-0.03,-0.02,27.29
24012176,1874,1,193421,252656,0.54,-1.12,11.37,0.02,-0.03,-0.06,27.29
24052175,1919,1,193145,252419,0.19,-0.74,10.94,-0.02,-0.03,-0.04,27.29
24092227,1927,1,192687,251676,0.42,-1.33,11.26,-0.03,-0.05,-0.02,27.29
24132196,1939,1,191931,250081,0.76,-0.92,11.89,-0.04,-0.07,0.01,27.29
24172176,1968,1,190812,248373,0.52,-1.02,10.86,-0.05,-0.06,0.01,27.29
24212176,1968,1,190288,247036,-0.20,-1.06,11.81,-0.05,-0.03,0.02,27.29
24252196,1971,1,189434,246091,1.64,-0.97,11.91,-0.10,-0.08,0.01,27.29
24292202,1968,1,188546,244481,1.19,-1.76,8.93,-0.13,-0.10,0.00,27.29
24332175,1957,1,188165,243052,0.10,-1.20,9.05,-0.05,-0.04,0.01,27.29
24372175,1907,1,188123,242587,-0.21,-1.99,12.32,-0.14,-0.09,0.01,27.29
24412196,1872,1,187725,243729,1.11,-1.36,8.83,-0.06,0.03,0.02,27.29
24452168,1835,1,187683,243224,1.63,-2.52,5.31,-0.01,-0.06,-0.00,27.29
24492196,1767,1,188481,243904,-0.13,-2.02,10.22,-0.10,-0.05,-0.01,27.29
24532213,1854,1,188480,244704,-0.02,-0.56,8.22,-0.05,0.01,0.02,27.29
24572173,1880,1,188606,245974,1.33,-1.40,7.49,-0.03,-0.01,0.00,27.29
24612862,1886,1,189812,247889,0.56,-1.52,7.97,-0.03,-0.03,0.01,27.17
24653176,1806,1,191051,250595,1.20,-1.61,10.38,-0.01,0.00,-0.00,27.17
24693176,1903,1,192149,251058,0.57,-2.22,7.04,0.06,0.02,-0.01,27.17
24732164,1920,1,192934,250976,0.12,-0.24,11.19,0.09,0.03,0.03,27.17
24772145,1875,1,192216,250417,1.66,-1.82,11.54,-0.06,-0.06,0.01,27.17
24812176,1903,1,191277,249352,-0.50,-1.38,5.28,0.06,0.05,0.02,27.17
24852166,1921,1,190996,247654,0.26,-1.74,10.49,0.04,-0.00,-0.01,27.17
24892176,1968,1,190581,247978,-0.23,-1.46,12.15,-0.03,0.00,0.01,27.17
24932176,1939,1,189761,247561,1.69,-1.07,7.70,0.06,0.01,0.01,27.17
24972145,1931,1,190189,247059,0.14,-1.55,9.37,-0.03,-0.04,-0.00,27.17
25012196,1927,1,190007,247207,0.14,-0.89,11.27,0.00,-0.02,0.00,27.17
25052163,1949,1,189834,247185,0.96,-0.52,11.18,-0.02,-0.03,0.00,27.17
25092175,1973,1,189733,246500,1.16,-0.48,10.42,-0.00,-0.01,-0.00,27.17
25132196,1957,1,189388,245193,0.82,-1.12,11.41,-0.05,-0.04,-0.01,27.17
25172196,1973,1,188697,244205,0.15,-0.92,11.37,-0.06,-0.02,0.00,27.17
25212176,1984,1,188300,243221,0.62,-1.52,10.66,-0.07,-0.03,-0.00,27.17
25252196,1974,1,187712,241996,0.32,-1.51,10.52,-0.05,-0.04,-0.00,27.17
25292196,1963,1,187233,241159,0.37,-1.49,10.12,-0.06,-0.03,-0.00,27.17
25332196,1937,1,186766,240259,-0.12,-1.40,9.24,-0.07,-0.02,0.00,27.17
25372193,1931,1,186129,238785,0.33,-1.53,7.77,-0.07,-0.06,0.01,27.17
25412175,1899,1,185812,238188,0.90,-1.26,9.75,-0.06,-0.03,0.00,27.17
25452173,1897,1,185483,238611,1.45,-0.64,8.26,-0.03,-0.03,-0.00,27.17
25492196,1871,1,185986,239216,0.46,-1.09,8.75,-0.05,0.01,-0.00,27.17
25532173,1792,1,186096,238607,0.93,-0.83,8.72,-0.05,-0.01,0.00,27.17
25572176,1772,1,186302,239356,1.00,-1.16,10.19,-0.06,0.01,0.01,27.17
25612853,1794,1,186323,239826,1.44,-1.29,9.24,-0.01,0.01,-0.00,27.21
25651175,1818,1,186930,241407,0.43,-1.46,9.66,-0.03,0.02,0.01,27.21
25691167,1827,1,187665,242879,-0.03,-1.70,9.61,-0.01,0.03,0.01,27.21
25731205,1845,1,188474,244193,0.19,-1.56,10.77,-0.03,0.03,0.01,27.21
25771166,1875,1,188880,245011,0.22,-1.79,9.84,-0.01,0.02,0.01,27.21
25811168,1877,1,189251,245717,0.54,-1.14,10.10,0.02,0.00,0.00,27.21
25851144,1914,1,189826,247229,0.23,-1.18,10.57,-0.02,0.04,0.01,27.21
25891168,1939,1,190573,247864,-0.18,-1.21,9.54,-0.02,0.03,0.01,27.21
25931195,1943,1,190446,247212,0.97,-0.84,11.43,-0.02,-0.04,0.00,27.21
25971176,1957,1,190097,247006,0.94,-1.37,11.22,-0.05,-0.00,0.00,27.21
26011176,1980,1,189623,246564,1.00,-1.29,10.21,-0.03,-0.01,-0.01,27.21
26051196,1978,1,189604,246338,0.22,-1.27,10.41,-0.07,-0.02,0.00,27.21
26091176,1979,1,189313,245677,0.20,-1.18,10.31,-0.07,-0.05,0.00,27.21
26131175,1949,1,188919,244741,0.55,-1.12,10.85,-0.06,-0.04,0.00,27.21
26171176,1954,1,188225,242964,0.66,-1.23,9.58,-0.05,-0.05,-0.00,27.21
26211196,1940,1,186949,239250,0.86,-1.25,9.04,-0.04,-0.06,-0.01,27.21
26251196,1923,1,186342,239175,-0.00,-1.43,9.90,-0.06,0.00,0.00,27.21
26291175,1918,1,186359,239918,0.29,-1.39,8.23,-0.03,-0.00,0.01,27.21
26331176,1872,1,187223,241243,0.34,-1.82,10.97,-0.03,0.01,0.01,27.21
26371168,1851,1,187127,241174,0.79,-1.58,8.65,-0.00,-0.02,0.01,27.21
26411176,1859,1,187549,242756,0.06,-2.09,9.53,-0.01,0.01,0.01,27.21
26451167,1889,1,188084,243596,-0.10,-1.60,8.06,0.00,-0.02,0.01,27.21
26491173,1875,1,188639,244706,-0.05,-1.77,10.05,-0.00,-0.02,0.01,27.21
26531196,1884,1,189062,245343,0.88,-0.94,9.33,0.02,0.03,0.01,27.21
26571144,1891,1,189446,245929,1.09,-1.15,9.50,0.00,-0.01,0.00,27.21
26611167,1903,1,189856,246743,0.98,-1.12,9.62,0.02,0.02,-0.00,27.21
26651865,1887,1,190535,248011,0.73,-0.80,10.31,-0.01,-0.02,-0.00,27.31
26690196,1905,1,191254,249390,0.40,-1.28,10.98,-0.01,0.00,0.00,27.31
26730166,1932,1,191696,249423,0.85,-0.98,11.10,-0.02,-0.04,0.00,27.31
26770175,1955,1,190981,248146,0.64,-1.29,11.97,-0.03,-0.04,-0.00,27.31
26810196,1961,1,189816,246211,0.29,-1.24,10.78,-0.02,-0.07,-0.00,27.31
26850196,1963,1,188570,243361,-0.02,-1.36,10.25,-0.05,-0.10,0.00,27.31
26890195,1951,1,187237,241111,-0.19,-1.35,10.86,-0.07,-0.03,0.01,27.31
26930196,1955,1,186466,239033,0.53,-0.98,10.53,-0.06,-0.03,0.00,27.31
26970176,1936,1,185402,237271,0.87,-1.34,8.94,-0.06,-0.02,0.00,27.31
27010176,1917,1,184989,236286,0.82,-2.00,9.77,-0.06,0.00,-0.00,27.31
27050173,1791,1,185078,237431,0.33,-1.23,10.07,-0.05,-0.01,0.01,27.31
27090175,1792,1,185448,238357,-0.04,-1.89,8.45,-0.06,0.01,0.01,27.31
27130176,1824,1,185674,238703,0.28,-1.49,8.61,-0.06,-0.04,0.01,27.31
27170179,1873,1,186098,239890,0.59,-1.80,9.48,-0.05,-0.00,0.00,27.31
27210173,1873,1,186664,241131,1.29,-1.00,9.29,-0.01,0.03,-0.00,27.31
27250175,1873,1,187280,242563,0.90,-1.08,9.05,-0.02,0.03,0.00,27.31
27290163,1894,1,188171,244346,0.62,-1.02,8.59,-0.01,0.04,-0.01,27.31
27330175,1905,1,189009,245187,0.52,-1.03,10.14,-0.03,0.00,-0.00,27.31
27370176,1922,1,189300,245727,0.38,-1.39,9.85,-0.05,0.01,0.00,27.31
27410167,1925,1,189168,245546,0.64,-1.54,9.84,-0.03,-0.02,-0.00,27.31
27450196,1930,1,189097,245763,0.52,-1.24,10.63,-0.03,0.01,-0.00,27.31
27490175,1951,1,189281,245924,0.53,-1.10,10.33,-0.03,0.00,0.00,27.31
27530163,1938,1,188977,244949,0.48,-0.98,9.93,-0.03,-0.02,-0.00,27.31
27570196,1935,1,188536,244159,-0.01,-1.49,10.49,-0.06,-0.01,0.00,27.31
27610196,1949,1,188039,243100,0.33,-1.17,10.48,-0.05,-0.02,0.00,27.31
27650176,1927,1,187721,243166,0.07,-1.65,10.81,-0.06,0.02,0.00,27.31
27690853,1882,1,187601,242662,0.12,-1.78,9.32,-0.05,0.01,0.00,27.17
27731168,1869,1,187587,242618,0.13,-2.03,10.75,-0.05,-0.02,0.00,27.17
27771173,1863,1,187589,242426,0.13,-1.60,10.11,-0.04,0.01,0.00,27.17
27811167,1871,1,187426,242769,0.18,-1.63,8.78,-0.02,-0.01,-0.00,27.17
27851196,1918,1,187693,243446,0.04,-1.06,8.93,-0.02,0.02,0.00,27.17
27891167,1919,1,188325,244204,-0.08,-1.23,9.88,-0.04,0.01,0.00,27.17
27929173,1922,1,188505,244472,0.58,-1.46,10.03,-0.02,0.01,0.00,27.17
27969167,1937,1,188511,244447,0.83,-1.53,10.06,-0.02,-0.01,-0.00,27.17
28009196,1935,1,188552,244679,0.47,-1.41,9.41,-0.01,-0.02,-0.00,27.17
28049196,1957,1,188722,244928,0.31,-1.26,10.23,-0.02,-0.03,-0.00,27.17
28089196,1943,1,188960,245483,0.03,-1.27,9.00,-0.03,-0.02,-0.00,27.17
28129196,1941,1,189106,245397,0.13,-1.44,9.78,-0.04,-0.06,-0.00,27.17
28169196,1919,1,188912,245077,0.71,-0.99,10.95,-0.03,-0.05,-0.01,27.17
28209196,1913,1,188748,244858,0.51,-1.56,10.77,-0.02,-0.01,-0.01,27.17
28249196,1911,1,188670,244708,0.71,-1.39,10.31,-0.01,-0.04,-0.01,27.17
28289196,1923,1,188749,244726,0.45,-1.40,10.30,-0.01,-0.03,-0.01,27.17
28329196,1918,1,188578,244379,-0.51,-1.66,9.99,-0.03,-0.05,-0.00,27.17
28369213,1916,1,188129,243710,0.17,-1.64,9.52,-0.03,-0.08,-0.01,27.17
28409196,1897,1,187955,243429,-0.36,-1.67,9.64,-0.02,-0.05,-0.01,27.17
28449213,1906,1,187991,243599,0.33,-1.25,10.65,-0.03,-0.04,-0.01,27.17
28489196,1904,1,187933,243533,0.79,-1.28,10.19,-0.00,-0.02,-0.01,27.17
28529196,1897,1,187636,242911,0.69,-1.61,8.79,0.01,-0.01,-0.01,27.17
28569176,1903,1,187372,242125,0.63,-1.89,9.90,-0.01,-0.05,-0.01,27.17
28609196,1898,1,187002,241916,0.25,-1.49,9.49,0.00,-0.02,-0.01,27.17
28649176,1900,1,187188,242428,-0.23,-1.63,9.13,-0.02,-0.01,-0.00,27.17
28689213,1902,1,187397,242883,0.10,-1.25,8.85,-0.01,-0.00,-0.00,27.17
28729880,1917,1,187660,243134,0.04,-1.13,9.85,-0.02,0.03,-0.00,27.11
28770176,1914,1,187747,243356,0.58,-1.14,9.61,-0.02,-0.00,-0.00,27.11
28810196,1908,1,187978,243804,0.82,-1.30,9.89,-0.01,0.01,-0.00,27.11
28850175,1905,1,188326,244321,0.82,-1.09,10.41,-0.01,-0.01,-0.01,27.11
28890196,1920,1,188189,243710,1.20,-1.00,10.05,-0.02,-0.03,-0.01,27.11
28930196,1904,1,187571,242336,0.46,-1.13,9.54,-0.04,-0.00,-0.01,27.11
28970196,1920,1,186898,241397,0.62,-1.25,8.95,-0.05,-0.07,-0.01,27.11
29010234,1910,1,186957,241754,0.72,-0.87,10.51,-0.06,-0.03,-0.01,27.11
29050196,1907,1,187169,242152,0.61,-1.02,10.69,-0.06,-0.00,-0.01,27.11
29090196,1904,1,187334,242744,0.51,-1.12,10.68,-0.07,0.00,-0.00,27.11
29130176,1904,1,187446,243047,0.68,-1.29,9.91,-0.08,-0.01,-0.01,27.11
29170196,1905,1,187533,243244,0.98,-1.34,10.80,-0.05,-0.01,-0.01,27.11
29210233,1903,1,187501,243064,0.83,-1.01,9.82,-0.05,-0.00,-0.01,27.11
29250196,1902,1,187467,243002,0.65,-1.43,9.82,-0.06,-0.03,-0.01,27.11
29290196,1892,1,187356,242497,0.78,-0.87,9.48,-0.04,-0.01,-0.01,27.11
29330196,1888,1,187152,241913,0.32,-1.39,10.14,-0.07,-0.02,-0.01,27.11
29370196,1899,1,186943,241821,0.20,-1.58,10.12,-0.06,0.00,-0.01,27.11
29410175,1907,1,186988,242169,-0.31,-1.78,9.43,-0.07,0.01,0.00,27.11
29448176,1904,1,187147,242377,0.17,-1.60,9.21,-0.05,-0.00,0.00,27.11
29488176,1895,1,187378,242594,0.43,-1.49,10.83,-0.04,0.01,0.00,27.11
29528166,1909,1,187247,242445,0.61,-1.53,8.88,-0.02,0.01,-0.00,27.11
29568175,1920,1,187564,242657,0.35,-1.74,9.32,-0.02,0.03,-0.00,27.11
29608176,1905,1,187642,242708,0.64,-1.53,9.76,-0.02,0.01,-0.00,27.11
29648176,1935,1,188252,244349,0.16,-1.64,9.73,-0.03,0.05,0.00,27.11
29688164,1922,1,188915,245430,-0.23,-2.01,9.17,-0.03,0.01,0.00,27.11
29728176,1915,1,189244,245692,-0.32,-1.77,10.19,-0.04,-0.01,-0.00,27.11
29768897,1914,1,189204,245974,-0.08,-1.55,10.19,-0.03,0.00,0.00,27.15
29809175,1910,1,189505,246858,0.32,-0.90,10.99,-0.02,0.01,0.00,27.15
29849163,1921,1,189834,246655,0.34,-1.35,10.22,-0.02,0.04,-0.00,27.15
29889175,1925,1,189123,245685,0.74,-1.24,9.56,-0.03,-0.05,-0.01,27.15
29929196,1840,1,189208,245763,0.72,-1.79,11.83,-0.06,0.04,-0.01,27.15
29969176,1855,1,188385,244722,0.98,-0.96,7.12,-0.00,-0.09,-0.01,27.15
30009193,1820,1,188474,245021,1.38,-1.35,10.67,-0.09,-0.02,-0.02,27.15
30049196,1803,1,188220,244529,0.85,-0.30,8.10,-0.05,-0.02,-0.01,27.15
30089192,1795,1,187988,243925,0.66,-1.27,9.96,-0.05,-0.03,-0.01,27.15
30129196,1810,1,187646,242771,0.62,-0.95,9.61,-0.08,-0.00,-0.01,27.15
30169193,1847,1,187328,242981,0.11,-1.64,10.13,-0.05,-0.02,-0.01,27.15
30209196,1902,1,187944,243212,-0.51,-2.01,10.77,-0.05,0.05,-0.00,27.15
30249196,1878,1,187597,243099,0.31,-0.45,9.71,-0.03,-0.06,0.00,27.15
30289175,1918,1,187586,242228,-0.19,-2.08,9.15,-0.04,0.08,-0.00,27.15
30329193,1888,1,187190,242597,0.90,-1.13,8.47,-0.01,-0.08,-0.01,27.15
30369196,1957,1,188263,243782,0.79,-1.45,10.99,-0.02,0.04,-0.00,27.15
30409176,1890,1,188340,245022,0.60,-1.02,8.35,0.03,-0.02,-0.00,27.15
30449176,1906,1,189308,246011,1.24,-1.83,10.67,-0.02,-0.01,-0.00,27.15
30489196,1877,1,189554,246768,-0.05,-0.98,8.83,0.02,0.01,0.00,27.15
30529167,1941,1,189387,245899,0.90,-1.50,9.69,-0.01,-0.07,-0.00,27.15
30569193,2005,1,189449,246905,-0.08,-1.02,10.32,-0.03,0.05,0.00,27.15
30609176,2041,1,189784,247429,-0.09,-1.53,8.81,-0.01,-0.02,-0.00,27.15
30649259,2047,1,190044,247603,0.08,-1.36,10.76,-0.02,-0.01,-0.00,27.15
30689196,2014,1,189978,247494,-0.25,-1.81,11.67,-0.05,-0.01,0.00,27.15
30729196,2010,1,189424,246418,-0.28,-1.44,10.00,-0.02,-0.03,-0.00,27.15
30769899,2003,1,188776,245675,-0.08,-1.60,11.24,-0.04,-0.05,-0.00,27.21
30808209,1997,1,188544,245591,0.46,-1.03,10.88,-0.01,0.01,-0.00,27.21
30848211,1971,1,188605,245077,0.25,-1.64,11.08,-0.03,-0.02,-0.01,27.21
30888196,1962,1,188050,244186,0.51,-1.55,10.69,-0.05,-0.01,-0.01,27.21
30928196,1957,1,187752,243472,0.23,-2.02,9.02,-0.04,-0.04,-0.01,27.21
30968193,1942,1,187416,242904,0.24,-1.39,10.50,-0.04,-0.02,-0.01,27.21
31008196,1911,1,187289,242122,0.23,-1.73,9.67,-0.06,-0.01,-0.01,27.21
31048196,1872,1,187077,241984,0.10,-1.43,9.28,-0.04,-0.01,-0.01,27.21
31088196,1872,1,186971,241514,0.63,-1.94,9.31,-0.06,-0.01,-0.01,27.21
31128196,1872,1,187070,242347,0.13,-1.55,9.72,-0.05,-0.00,-0.01,27.21
31168196,1901,1,187548,243139,-0.04,-2.09,9.53,-0.06,0.01,-0.00,27.21
31208193,1894,1,187889,243869,-0.44,-1.52,9.20,-0.05,-0.01,0.00,27.21
31248196,1888,1,187944,243541,0.14,-1.72,8.96,-0.05,-0.01,-0.01,27.21
31288196,1890,1,187825,243754,-0.05,-1.42,10.19,-0.04,-0.02,-0.00,27.21
31328212,1909,1,187969,244105,0.27,-1.43,9.41,-0.04,0.02,-0.00,27.21
31368176,1903,1,188317,244717,-0.39,-1.77,9.71,-0.03,-0.00,0.00,27.21
31408196,1881,1,188399,244774,0.57,-1.45,10.16,-0.02,-0.02,-0.00,27.21
31448196,1883,1,188376,244582,0.27,-1.40,10.47,-0.02,-0.01,0.00,27.21
31488176,1888,1,188012,244214,0.68,-1.24,9.31,0.00,-0.03,-0.00,27.21
31528173,1895,1,187933,244337,0.77,-1.43,9.80,-0.01,-0.01,-0.00,27.21
31568215,1897,1,188242,245218,0.50,-1.41,9.50,0.01,0.01,-0.01,27.21
31608164,1913,1,188579,244953,0.88,-1.32,10.21,0.00,-0.04,-0.01,27.21
31648176,1903,1,188302,244828,0.46,-1.69,10.22,-0.01,-0.01,-0.01,27.21
31688196,1895,1,188282,244677,0.76,-1.55,9.23,0.01,-0.05,-0.01,27.21
31728176,1904,1,188395,245094,0.76,-1.03,10.76,-0.01,-0.02,-0.01,27.21
31768196,1903,1,188470,244672,0.80,-1.22,9.67,-0.02,-0.02,-0.01,27.21
31808882,1881,1,187886,243440,0.73,-1.42,9.63,-0.02,-0.04,-0.01,27.25
31847196,1881,1,187398,242870,0.55,-1.70,9.44,-0.04,-0.04,-0.02,27.25
31887196,1884,1,187145,242377,0.66,-0.98,9.18,-0.04,-0.07,-0.01,27.25
31927196,1875,1,187156,242638,0.27,-1.45,10.06,-0.06,-0.03,-0.01,27.25
31967197,1875,1,187016,242013,0.87,-0.59,8.50,-0.05,-0.07,-0.01,27.25
32007193,1883,1,186741,241650,0.66,-1.28,9.48,-0.08,-0.06,-0.01,27.25
32047196,1886,1,186519,241235,0.70,-1.06,9.16,-0.07,-0.04,-0.01,27.25
32087193,1872,1,186481,241169,0.74,-1.05,9.57,-0.06,-0.05,-0.01,27.25
32127196,1891,1,186606,241570,0.29,-1.36,9.30,-0.06,-0.01,-0.00,27.25
32167193,1904,1,186505,241232,0.91,-0.60,8.66,-0.04,-0.05,-0.00,27.25
32207196,1903,1,186506,241344,0.76,-1.13,10.12,-0.06,-0.02,-0.00,27.25
32247196,1891,1,186393,240923,1.13,-0.83,8.85,-0.03,-0.02,-0.00,27.25
32287236,1889,1,186246,240740,0.63,-1.30,10.07,-0.04,-0.02,0.00,27.25
32327173,1920,1,186114,240273,0.94,-0.99,8.79,-0.02,-0.03,0.00,27.25
32367176,1921,1,186203,240415,0.74,-0.57,10.46,-0.03,-0.06,0.01,27.25
32407176,1919,1,186165,240485,1.09,-0.66,10.25,-0.03,-0.01,0.00,27.25
32447176,1924,1,186324,240915,0.82,-1.08,10.38,-0.03,-0.02,0.01,27.25
32487224,1930,1,186741,241950,0.98,-1.10,10.57,-0.03,-0.02,0.01,27.25
32527176,1946,1,186966,241776,0.91,-0.58,10.64,-0.02,-0.05,0.01,27.25
32567176,1943,1,186627,241034,0.68,-0.99,10.55,-0.04,-0.05,0.01,27.25
32607176,1923,1,186260,240059,0.82,-0.99,10.34,-0.04,-0.03,0.01,27.25
32647176,1917,1,185979,239425,0.94,-0.89,10.41,-0.04,-0.04,0.01,27.25
32687176,1919,1,185887,239121,0.85,-1.01,10.28,-0.03,-0.01,0.01,27.25
32727176,1924,1,185764,239098,0.77,-1.00,10.27,-0.05,-0.02,0.01,27.25
32767176,1942,1,185720,239032,0.94,-0.90,9.65,-0.04,-0.00,0.01,27.25
32807173,1910,1,185679,239178,0.80,-0.89,8.83,-0.03,-0.03,0.01,27.25
32847862,1904,1,185894,239704,1.13,-0.96,10.34,-0.04,-0.02,0.01,27.23
32886176,1905,1,186120,240292,1.14,-0.83,9.58,-0.02,-0.02,0.01,27.23
32926176,1895,1,186309,239676,0.96,-0.97,9.87,-0.03,-0.01,0.02,27.23
32966176,1905,1,185730,238321,0.70,-1.05,8.78,-0.03,-0.04,0.01,27.23
33006176,1920,1,185814,239273,0.90,-0.87,10.33,-0.02,-0.01,0.01,27.23
33046173,1920,1,186324,240360,1.06,-0.56,10.63,-0.03,-0.01,0.02,27.23
33086176,1913,1,186616,241108,0.99,-0.78,10.07,-0.02,-0.03,0.01,27.23
33126173,1899,1,186831,241113,0.91,-1.10,10.65,-0.03,-0.03,0.01,27.23
33166176,1915,1,186841,241250,0.76,-1.26,10.84,-0.02,-0.05,0.01,27.23
33206176,1914,1,186718,240979,0.81,-0.57,10.55,-0.03,-0.02,0.02,27.23
33246176,1911,1,186702,240726,0.96,-0.90,11.40,-0.03,-0.03,0.02,27.23
33286173,1908,1,186343,239839,0.96,-0.77,9.88,-0.04,-0.04,0.02,27.23
33326176,1904,1,185987,239050,1.18,-0.77,10.10,-0.06,-0.08,0.02,27.23
33366176,1909,1,185887,239144,0.82,-0.91,9.62,-0.06,0.00,0.02,27.23
33406167,1899,1,186185,240039,1.07,-0.66,9.99,-0.05,-0.03,0.02,27.23
33446173,1895,1,186441,240549,0.87,-0.82,9.62,-0.04,-0.01,0.02,27.23
33486176,1890,1,186604,240677,0.89,-0.67,9.91,-0.05,-0.05,0.02,27.23
33526173,1895,1,186609,240516,1.24,-1.13,10.15,-0.06,-0.06,0.01,27.23
33566176,1904,1,186533,240413,0.80,-0.91,9.22,-0.05,-0.02,0.02,27.23
33606173,1890,1,186384,239616,0.93,-0.86,9.34,-0.04,-0.02,0.01,27.23
33646175,1907,1,185931,238480,0.91,-0.62,8.20,-0.03,-0.03,0.01,27.23
33686173,1927,1,185724,237845,1.02,-0.79,9.90,-0.07,0.00,0.01,27.23
33727167,1936,1,185335,237329,1.05,-0.99,8.31,-0.04,-0.02,0.01,27.23
33765173,1934,1,185471,238394,0.54,-1.02,9.08,-0.04,0.00,0.01,27.23
33805167,1917,1,186300,240047,0.52,-1.05,9.45,-0.03,0.04,0.02,27.23
33845164,1904,1,186824,241005,0.88,-0.92,9.54,-0.03,-0.01,0.01,27.23
33885862,1911,1,187202,241297,0.92,-1.01,10.07,-0.06,0.03,0.01,27.17
33926181,1921,1,187244,241747,0.81,-1.10,9.25,-0.03,0.01,0.01,27.17
33966167,1904,1,187403,242305,0.69,-1.27,10.19,-0.05,0.03,0.01,27.17
34006167,1914,1,187664,242985,0.88,-0.65,9.74,-0.05,0.04,0.01,27.17
34046167,1920,1,188061,243292,0.68,-1.13,11.00,-0.07,0.05,0.01,27.17
34086166,1921,1,187997,242947,0.80,-1.21,10.31,-0.09,0.05,0.00,27.17
34126167,1924,1,187777,242587,0.62,-1.41,10.07,-0.09,0.01,-0.00,27.17
34166173,1936,1,187620,242357,0.78,-1.36,9.89,-0.09,0.01,-0.01,27.17
34206176,1947,1,187410,241975,1.03,-0.73,10.11,-0.10,0.00,-0.01,27.17
34246176,1935,1,187136,241052,1.02,-1.15,9.86,-0.10,0.04,-0.01,27.17
34286175,1967,1,186514,239539,0.81,-1.42,8.96,-0.10,0.00,-0.02,27.17
34326173,1957,1,185972,238708,1.07,-1.05,9.45,-0.09,0.01,-0.02,27.17
34366175,1920,1,186072,239321,0.30,-1.16,9.22,-0.08,0.04,-0.01,27.17
34406176,1911,1,186164,239195,0.84,-0.88,9.41,-0.07,0.03,-0.01,27.17
34446176,1904,1,186149,239048,0.28,-1.70,9.42,-0.08,0.03,-0.01,27.17
34486176,1920,1,186021,239145,0.28,-1.44,9.12,-0.05,0.03,-0.01,27.17
34526175,1904,1,186357,240117,-0.15,-1.57,9.89,-0.05,0.04,-0.01,27.17
34566196,1925,1,186770,240937,0.01,-0.99,9.40,-0.03,0.04,-0.01,27.17
34606176,1910,1,187133,241469,-0.18,-1.51,10.13,-0.04,0.05,-0.01,27.17
34646196,1904,1,187279,242319,-0.33,-1.76,9.49,-0.03,0.02,-0.01,27.17
34686196,1907,1,187644,242878,-0.43,-1.82,10.09,-0.03,-0.00,-0.01,27.17
34726209,1890,1,187907,243843,-0.64,-1.55,10.44,-0.03,0.01,-0.01,27.17
34765197,1902,1,188192,244084,-0.40,-1.42,10.00,-0.02,-0.00,-0.01,27.17
34805209,1919,1,188038,243881,-0.57,-1.75,9.79,-0.03,-0.01,-0.01,27.17
34845213,1909,1,187969,243653,-0.39,-1.74,10.45,-0.03,-0.02,-0.02,27.17
34885896,1885,1,187712,243602,-0.09,-1.21,10.40,-0.02,-0.06,-0.01,27.25
34926213,1892,1,187896,243980,-0.57,-1.77,10.33,-0.04,-0.00,-0.01,27.25
34966210,1910,1,187974,244012,-0.36,-1.55,9.72,-0.02,-0.05,-0.01,27.25
35006213,1921,1,187786,243241,-0.01,-1.92,10.27,-0.03,-0.05,-0.02,27.25
35046209,1907,1,187620,243176,-0.39,-1.78,10.12,-0.04,-0.07,-0.02,27.25
35086213,1917,1,187746,243772,-0.35,-1.86,10.99,-0.02,-0.07,-0.02,27.25
35126210,1940,1,187876,243425,-0.40,-1.48,9.93,-0.02,-0.05,-0.02,27.25
35166213,1941,1,187469,242590,-0.02,-1.89,10.58,-0.03,-0.08,-0.02,27.25
35204209,1932,1,187201,242050,0.27,-1.54,9.96,-0.05,-0.05,-0.02,27.25
35244196,1908,1,186891,241526,-0.13,-1.75,9.37,-0.04,-0.07,-0.02,27.25
35284209,1919,1,186689,240640,0.05,-1.81,9.16,-0.04,-0.06,-0.02,27.25
35324196,1909,1,186447,240310,-0.26,-1.54,8.78,-0.03,-0.07,-0.02,27.25
35364209,1914,1,186269,239933,0.43,-1.73,9.01,-0.02,-0.04,-0.02,27.25
35404195,1919,1,186297,240137,-0.01,-1.71,9.42,-0.02,-0.03,-0.02,27.25
35444209,1905,1,186536,240892,0.33,-1.45,10.29,-0.02,-0.03,-0.01,27.25
35484196,1887,1,186615,240609,-0.26,-1.48,8.33,0.01,-0.01,-0.01,27.25
35524202,1909,1,186397,240254,-0.08,-1.98,9.47,-0.01,-0.01,-0.01,27.25
35564255,1921,1,186311,240038,-0.28,-2.04,9.86,-0.00,0.03,-0.02,27.25
35604193,1936,1,186150,240730,-0.23,-1.78,9.52,0.02,0.02,-0.02,27.25
35644175,1917,1,186832,241976,-0.80,-2.32,9.92,-0.01,0.06,-0.01,27.25
35684196,1873,1,187235,243419,-0.72,-1.46,8.46,0.02,-0.01,-0.02,27.25
35724196,1879,1,187955,244051,-0.37,-1.47,10.15,0.00,0.02,-0.02,27.25
35764208,1872,1,187932,243610,-0.23,-1.36,9.80,0.01,0.00,-0.02,27.25
35804175,1899,1,187846,243357,-0.60,-1.83,10.67,-0.01,0.03,-0.02,27.25
35844196,1919,1,187638,242698,-0.74,-0.88,9.90,-0.00,0.00,-0.02,27.25
35884196,1920,1,187358,242177,-0.86,-1.67,10.65,-0.03,0.03,-0.02,27.25
35924882,1931,1,187138,241467,-0.36,-1.06,11.13,-0.03,0.02,-0.02,27.29
35965212,1930,1,186700,240509,-0.56,-1.54,11.05,-0.05,0.02,-0.02,27.29
36005196,1931,1,186528,240191,-0.68,-0.93,10.63,-0.05,0.04,-0.02,27.29
36045196,1920,1,186241,238800,-0.59,-1.62,10.48,-0.06,-0.01,-0.03,27.29
36085209,1911,1,185627,237417,-0.79,-1.39,10.83,-0.07,0.01,-0.02,27.29
36125196,1917,1,185186,236103,-0.43,-1.70,10.43,-0.08,0.03,-0.03,27.29
36165196,1920,1,184736,235847,-0.71,-1.45,10.06,-0.07,0.06,-0.02,27.29
36205196,1923,1,184848,236432,-0.65,-1.80,9.91,-0.07,0.05,-0.02,27.29
36245196,1923,1,184977,237466,-1.09,-1.33,9.59,-0.05,0.03,-0.02,27.29
36285196,1915,1,185175,238022,-0.87,-1.67,9.47,-0.05,0.00,-0.02,27.29
36325196,1900,1,185222,238595,-0.71,-1.70,9.51,-0.05,0.00,-0.03,27.29
36365196,1901,1,185559,239400,-0.65,-1.81,10.00,-0.04,0.00,-0.03,27.29
36405193,1876,1,185900,239838,-0.77,-1.61,10.16,-0.03,-0.01,-0.03,27.29
36445213,1905,1,185962,240449,-0.89,-1.49,10.12,-0.02,0.01,-0.02,27.29
36485196,1918,1,186183,240600,-0.93,-1.90,9.97,-0.02,-0.00,-0.03,27.29
36525216,1909,1,186013,240588,-0.71,-1.66,9.55,-0.02,-0.03,-0.02,27.29
36565209,1926,1,186115,240450,-0.72,-1.51,10.78,-0.03,-0.01,-0.03,27.29
36603213,1921,1,185898,240404,-0.76,-1.46,9.82,0.00,-0.03,-0.02,27.29
36643196,1931,1,185954,239409,-0.86,-2.01,10.22,-0.03,-0.02,-0.03,27.29
36683213,1925,1,185324,238160,-0.97,-1.28,9.45,-0.01,-0.05,-0.02,27.29
36723209,1927,1,185432,238352,-0.60,-1.43,10.14,-0.01,-0.02,-0.03,27.29
36763213,1927,1,185901,239421,-0.90,-1.73,10.68,-0.01,-0.01,-0.02,27.29
36803209,1927,1,186238,239632,-0.62,-1.57,9.80,0.00,-0.04,-0.02,27.29
36843196,1907,1,186032,239048,-0.65,-1.26,9.60,-0.00,-0.05,-0.02,27.29
36883209,1909,1,186061,239712,-0.70,-1.75,10.52,-0.00,-0.02,-0.02,27.29
36923211,1914,1,186280,240548,-0.30,-0.88,10.20,0.00,-0.03,-0.02,27.29
36963879,1925,1,186719,241087,-0.63,-1.40,10.51,-0.01,-0.02,-0.02,27.29
37004213,1917,1,186666,240939,-0.29,-0.91,9.93,-0.01,-0.05,-0.02,27.29
37044209,1920,1,186548,240435,-0.20,-1.56,11.53,-0.03,-0.07,-0.03,27.29
37084213,1906,1,186283,240325,-0.38,-0.87,10.34,-0.02,-0.04,-0.02,27.29
37124210,1927,1,186309,240468,-0.30,-1.42,11.15,-0.03,-0.04,-0.02,27.29
37164213,1927,1,186377,240612,-0.62,-1.14,10.26,-0.03,-0.01,-0.02,27.29
37204209,1915,1,186173,239688,-0.24,-1.33,10.41,-0.05,-0.07,-0.02,27.29
37244212,1909,1,185775,238877,-0.34,-1.42,10.44,-0.05,-0.02,-0.02,27.29
37284209,1905,1,185517,238427,-0.31,-1.33,9.80,-0.05,-0.03,-0.02,27.29
37324213,1919,1,185484,238234,-0.48,-1.42,9.91,-0.05,0.01,-0.01,27.29
37364196,1915,1,185112,237412,-0.14,-1.04,8.70,-0.04,-0.03,-0.01,27.29
37404266,1921,1,184760,236409,0.07,-1.15,10.10,-0.05,-0.02,-0.02,27.29
37444196,1915,1,184396,236039,-0.13,-1.48,9.16,-0.04,0.01,-0.01,27.29
37484196,1915,1,184500,236435,-0.27,-1.24,9.55,-0.03,0.00,-0.01,27.29
37524202,1903,1,184973,237243,-0.31,-1.28,9.78,-0.02,0.01,-0.01,27.29
37564196,1895,1,185016,236115,0.14,-0.64,9.73,-0.00,0.01,-0.00,27.29
37604195,1887,1,184983,236504,-0.04,-1.35,10.32,-0.02,0.05,-0.00,27.29
37644196,1895,1,185065,237272,-0.04,-1.16,8.83,0.01,0.01,-0.00,27.29
37684176,1904,1,185668,238454,-0.03,-1.34,10.50,-0.01,0.01,-0.00,27.29
37724196,1909,1,185929,239120,-0.02,-0.97,10.04,0.01,0.02,0.00,27.29
37764163,1926,1,186137,239478,-0.28,-1.40,10.06,-0.00,0.03,0.00,27.29
37804176,1926,1,185969,239316,0.06,-1.17,9.67,0.01,-0.03,-0.00,27.29
37844176,1935,1,186005,239623,-0.16,-1.41,10.58,-0.00,0.00,-0.00,27.29
37884196,1931,1,186321,240665,-0.19,-1.24,10.79,0.00,0.01,0.00,27.29
37924164,1923,1,186772,241473,-0.04,-1.16,10.43,0.00,-0.02,0.00,27.29
37964862,1933,1,187094,241957,-0.57,-1.49,10.68,-0.01,-0.02,-0.00,27.17
38003210,1921,1,186910,241557,-0.05,-1.37,10.30,-0.01,-0.05,-0.01,27.17
38043213,1946,1,186938,241646,-0.24,-1.22,11.69,-0.02,-0.03,0.00,27.17
38083196,1946,1,186908,241430,0.03,-1.21,10.44,-0.03,-0.03,-0.00,27.17
38123196,1971,1,186742,240845,-0.25,-1.00,10.34,-0.03,-0.04,-0.00,27.17
38163209,1966,1,186350,239724,0.11,-0.77,9.48,-0.04,-0.05,-0.00,27.17
38203196,1945,1,185866,238799,0.18,-0.59,9.45,-0.05,-0.06,-0.00,27.17
38243193,1914,1,185652,238719,-0.15,-0.56,8.96,-0.05,-0.01,-0.00,27.17
38283210,1895,1,185591,238728,-0.02,-0.22,8.58,-0.04,-0.04,-0.00,27.17
38323208,1888,1,185641,238493,0.08,-0.08,9.48,-0.04,-0.03,-0.00,27.17
38363196,1901,1,185124,235849,0.26,-0.16,8.60,-0.04,-0.05,0.00,27.17
38403173,1901,1,184157,234099,-0.09,-0.31,8.10,-0.01,-0.06,0.00,27.17
38443196,1905,1,184058,234368,0.00,-0.27,8.35,-0.01,-0.03,0.00,27.17
38483173,1883,1,184274,234797,0.06,-0.08,8.96,0.01,-0.03,0.00,27.17
38523173,1865,1,184536,236000,0.06,0.09,9.43,-0.01,0.02,0.00,27.17
38563145,1879,1,184889,236635,0.29,-0.18,9.75,-0.01,0.02,-0.01,27.17
38603175,1874,1,185263,238092,-0.05,-0.06,10.49,-0.00,0.03,-0.00,27.17
38643193,1883,1,185944,239549,0.01,-0.23,11.38,-0.03,0.03,-0.00,27.17
38683176,1835,1,186409,240468,-0.13,0.01,11.01,-0.01,-0.01,0.00,27.17
38723173,1902,1,186578,240790,-0.45,-0.47,10.59,-0.03,-0.03,-0.00,27.17
38763212,1861,1,186685,241239,0.11,-0.11,11.03,-0.03,-0.04,-0.00,27.17
38803195,1921,1,187103,241892,-0.16,-0.42,11.48,-0.04,0.01,-0.00,27.17
38843199,1889,1,187148,241927,0.02,-0.25,10.81,-0.06,-0.04,-0.00,27.17
38883196,1919,1,187162,241359,-0.20,-0.38,10.77,-0.06,-0.05,-0.00,27.17
38923213,1920,1,186806,240446,-0.30,-0.46,10.16,-0.09,-0.03,0.00,27.17
38963193,1946,1,186352,239645,-0.19,-1.01,9.18,-0.08,-0.03,-0.00,27.17
39003897,1929,1,186134,239736,-0.60,-0.71,9.21,-0.05,-0.01,0.00,27.09
39042225,1939,1,186236,240345,-0.08,-1.20,9.08,-0.06,-0.01,0.00,27.09
39082195,1920,1,186554,240854,-0.43,-0.86,9.00,-0.06,0.01,0.01,27.09
39122173,1899,1,186600,240970,-0.11,-1.02,8.21,-0.03,-0.02,0.01,27.09
39162196,1875,1,186682,241000,0.10,-1.01,9.05,-0.05,0.01,0.01,27.09
39202163,1840,1,187211,242540,0.21,-0.85,9.52,-0.03,0.00,0.00,27.09
39242184,1862,1,187771,243915,0.61,-0.85,9.39,-0.03,0.02,0.00,27.09
39282163,1874,1,188177,244424,0.20,-0.91,9.13,-0.02,0.02,0.01,27.09
39322166,1885,1,188210,244594,0.12,-1.10,9.60,-0.01,-0.00,0.00,27.09
39362173,1933,1,188415,245551,0.27,-1.02,10.56,-0.02,0.03,0.00,27.09
39402167,1934,1,188912,246275,0.23,-0.80,10.41,0.01,-0.00,0.00,27.09
39442163,1917,1,189239,247513,0.06,-1.14,10.31,0.00,0.00,0.00,27.09
39482144,1911,1,189886,247929,-0.25,-1.06,10.51,-0.01,0.03,0.00,27.09
39522176,1936,1,189919,248394,0.01,-0.75,10.56,0.01,-0.03,0.00,27.09
39562166,1919,1,190126,248040,-0.06,-1.34,10.05,-0.05,0.00,-0.00,27.09
39602193,1914,1,190019,248331,-0.16,-0.88,11.34,-0.03,-0.04,0.00,27.09
39642196,1918,1,190221,248357,0.05,-0.96,10.46,-0.05,0.01,0.00,27.09
39682163,1909,1,190029,247790,-0.21,-0.97,10.15,-0.06,-0.04,0.01,27.09
39722196,1926,1,189498,246904,0.34,-1.03,9.00,-0.07,-0.04,0.00,27.09
39762173,1921,1,189351,247085,0.02,-1.42,11.62,-0.06,-0.01,-0.00,27.09
39802196,1921,1,189196,246913,0.59,-0.57,8.94,-0.05,-0.04,-0.00,27.09
39842193,1922,1,189460,247770,0.01,-1.23,10.70,-0.09,-0.00,-0.00,27.09
39882196,1947,1,189477,247330,0.74,-0.74,8.75,-0.05,-0.04,-0.01,27.09
39922196,1904,1,189289,246468,0.14,-0.93,11.06,-0.07,-0.07,-0.00,27.09
39962196,1892,1,188632,245486,0.85,-0.77,8.93,-0.08,-0.03,-0.01,27.09
40002193,1915,1,188597,245698,-0.01,-1.21,10.73,-0.06,-0.04,-0.00,27.09
40042899,1908,1,188601,246427,1.01,-1.23,10.08,-0.06,-0.03,0.00,27.29
40081173,1881,1,188973,246395,-0.09,-1.23,8.83,-0.04,-0.00,0.00,27.29
40121196,1879,1,188872,246441,-0.30,-1.74,9.23,-0.02,-0.04,0.00,27.29
40161193,1887,1,188692,245754,0.43,-1.22,9.62,-0.02,-0.03,0.00,27.29
40201175,1908,1,188567,246106,-0.30,-1.49,9.73,-0.01,-0.00,0.01,27.29
40241197,1906,1,188425,245980,0.95,-0.85,8.07,0.00,-0.03,0.00,27.29
40281167,1919,1,188979,246852,-0.00,-1.18,10.47,-0.01,0.02,0.01,27.29
40321176,1930,1,188911,246904,0.60,-0.66,8.13,0.01,0.01,0.00,27.29
40361145,1935,1,189225,247029,0.41,-0.97,10.63,-0.02,-0.02,0.00,27.29
40401173,1952,1,189170,247559,0.50,-0.60,8.85,0.01,-0.01,-0.00,27.29
40441176,1945,1,189621,247533,0.51,-0.87,10.91,-0.02,-0.01,-0.00,27.29
40481209,1955,1,189617,248000,-0.11,-0.94,9.89,0.00,-0.00,0.00,27.29
40521179,1931,1,189645,247137,0.25,-1.14,10.58,-0.02,-0.05,-0.00,27.29
40561196,1922,1,189133,246218,0.05,-1.12,11.16,-0.03,-0.02,-0.00,27.29
40601196,1925,1,188440,245287,0.04,-1.32,9.29,-0.03,-0.03,-0.00,27.29
40641193,1927,1,188275,244877,-0.27,-1.22,10.48,-0.05,-0.01,-0.00,27.29
40681215,1906,1,187994,244451,-0.02,-1.13,9.72,-0.04,-0.03,0.00,27.29
40721196,1899,1,187705,243648,0.06,-1.01,10.29,-0.05,0.00,-0.00,27.29
40761175,1904,1,187258,242959,0.68,-0.84,9.48,-0.07,-0.02,-0.01,27.29
40801196,1907,1,187103,242959,0.55,-0.60,9.85,-0.06,-0.02,-0.01,27.29
40841196,1918,1,187101,243201,0.77,-0.70,9.11,-0.07,0.02,-0.01,27.29
40881199,1872,1,187336,243586,0.18,-1.20,9.48,-0.06,0.01,-0.01,27.29
40921176,1899,1,187375,243595,0.48,-0.77,9.51,-0.05,0.01,-0.01,27.29
40961176,1913,1,187315,243366,-0.00,-1.32,9.68,-0.07,0.01,-0.01,27.29
41001196,1904,1,186944,243364,0.15,-1.48,7.79,-0.03,0.00,-0.01,27.29
41041176,1880,1,187347,243990,-0.14,-1.37,9.92,-0.04,0.01,-0.01,27.29
41081883,1893,1,187767,245093,-0.66,-1.64,10.04,-0.02,0.04,0.00,27.29
41120173,1913,1,188078,245154,0.04,-1.14,8.47,-0.01,-0.00,-0.01,27.29
41160196,1905,1,188172,245133,-0.11,-1.52,10.52,-0.03,0.01,-0.00,27.29
41200196,1895,1,188088,245205,0.49,-0.89,9.13,0.01,0.01,-0.01,27.29
41240167,1916,1,188397,245768,0.15,-1.09,10.50,-0.01,0.03,-0.01,27.29
41280176,1924,1,188774,246829,0.18,-0.99,9.77,-0.01,0.02,-0.01,27.29
41320175,1914,1,189315,247420,0.18,-0.84,11.44,-0.02,-0.01,-0.01,27.29
41360196,1929,1,189336,247316,-0.32,-1.11,10.68,-0.02,0.02,-0.01,27.29
41400196,1934,1,188978,246356,-0.15,-1.36,10.16,-0.03,-0.05,-0.01,27.29
41440210,1926,1,188744,245714,-0.57,-1.60,11.60,-0.04,-0.00,-0.01,27.29
41480213,1929,1,188277,244935,-0.57,-1.61,9.87,-0.04,-0.03,-0.01,27.29
41520209,1935,1,187852,243890,-0.37,-1.45,9.97,-0.03,-0.03,-0.01,27.29
41560213,1939,1,187123,242759,-0.39,-1.44,8.97,-0.05,-0.04,-0.01,27.29
41600209,1930,1,186559,241860,0.13,-1.45,9.20,-0.03,-0.03,-0.01,27.29
41640196,1925,1,186206,241467,0.21,-1.24,8.71,-0.03,-0.03,-0.01,27.29
41680196,1915,1,186186,242268,0.40,-0.94,9.50,-0.03,-0.01,-0.01,27.29
41720196,1882,1,186601,243232,0.31,-0.75,8.82,-0.00,0.00,-0.01,27.29
41760173,1871,1,187249,244557,0.25,-1.19,9.45,-0.02,-0.04,-0.01,27.29
41800196,1885,1,187902,244951,0.42,-0.86,10.27,-0.02,-0.02,-0.01,27.29
41840196,1899,1,188277,245754,-0.24,-1.11,10.93,-0.01,-0.03,-0.00,27.29
41880213,1903,1,188415,245750,0.20,-1.25,10.06,-0.02,-0.00,-0.01,27.29
41920196,1893,1,188423,245602,-0.49,-1.40,10.72,-0.02,-0.03,-0.00,27.29
41960213,1904,1,188145,244772,-0.00,-1.36,10.39,-0.02,-0.02,-0.01,27.29
42000209,1909,1,187639,243613,-0.03,-1.20,10.47,-0.03,-0.04,-0.01,27.29
42040213,1911,1,187012,243041,0.53,-1.02,9.52,-0.03,-0.08,-0.01,27.29
42080196,1895,1,186918,242898,0.42,-0.79,10.69,-0.06,-0.03,-0.01,27.29
42120882,1899,1,186898,242816,0.26,-0.88,10.34,-0.05,-0.02,-0.01,27.17
42161196,1873,1,186556,241612,0.40,-0.75,9.10,-0.06,-0.05,-0.01,27.17
42201196,1878,1,186085,239925,0.50,-0.93,10.02,-0.07,-0.03,-0.01,27.17
42241193,1868,1,185329,239121,0.67,-0.98,8.76,-0.06,-0.04,-0.02,27.17
42281196,1875,1,185650,239937,0.22,-1.40,9.26,-0.07,0.01,-0.01,27.17
42321180,1886,1,186033,240873,0.19,-1.20,9.65,-0.04,0.01,-0.01,27.17
42361175,1883,1,186186,240469,0.03,-0.98,8.91,-0.02,0.00,-0.01,27.17
42401173,1892,1,185780,240010,-0.06,-1.55,9.22,-0.04,0.01,-0.01,27.17
42441196,1897,1,185694,239938,0.29,-1.30,9.37,-0.02,0.02,-0.01,27.17
42481176,1905,1,185748,240599,0.28,-0.90,9.28,-0.01,0.02,-0.01,27.17
42521202,1895,1,186135,241634,0.11,-1.29,9.13,-0.01,0.05,-0.00,27.17
42561176,1908,1,186669,242293,0.24,-0.70,10.14,0.00,-0.00,-0.00,27.17
42599176,1917,1,186999,242900,-0.16,-1.10,10.21,-0.01,0.02,0.00,27.17
42639176,1936,1,187127,242974,0.05,-1.11,9.72,-0.00,0.00,-0.00,27.17
42679176,1936,1,187418,243508,-0.19,-1.52,11.32,-0.02,0.01,0.01,27.17
42719176,1940,1,187715,244175,-0.20,-0.95,10.28,-0.00,0.02,0.00,27.17
42759176,1936,1,187938,244259,0.01,-1.47,10.65,-0.02,-0.03,0.00,27.17
42799176,1947,1,187774,244390,0.15,-1.03,10.38,-0.01,-0.03,0.00,27.17
42839176,1936,1,187467,243290,0.72,-0.86,10.60,-0.03,-0.05,-0.01,27.17
42879196,1937,1,187172,243088,0.21,-0.76,10.73,-0.04,-0.05,-0.00,27.17
42919196,1934,1,186892,242426,0.73,-0.66,10.15,-0.04,-0.04,-0.00,27.17
42959196,1930,1,186921,241952,0.11,-0.80,10.61,-0.04,-0.04,0.00,27.17
42999175,1933,1,186483,241161,0.09,-1.09,9.73,-0.04,-0.06,0.00,27.17
43039173,1936,1,185847,239219,0.19,-1.00,9.33,-0.05,-0.07,0.00,27.17
43079176,1930,1,185140,238105,0.09,-1.36,9.64,-0.03,-0.04,0.00,27.17
43119173,1920,1,185009,238748,0.18,-1.23,8.68,-0.03,-0.00,0.01,27.17
43159862,1914,1,185776,240447,-0.08,-1.49,9.71,-0.01,-0.02,0.01,27.11
43200196,1915,1,186155,240881,0.58,-0.76,9.04,0.01,-0.05,0.01,27.11
43240167,1922,1,186315,241207,0.48,-1.11,9.52,-0.01,-0.05,0.01,27.11
43280176,1905,1,186269,241486,0.88,-0.62,8.69,0.02,-0.06,0.00,27.11
43320167,1927,1,186682,242339,0.73,-0.62,10.26,-0.01,-0.03,0.01,27.11
43360176,1927,1,187193,243575,0.36,-0.55,9.91,0.02,0.02,0.01,27.11
43400144,1931,1,187803,244347,0.54,-0.95,10.41,0.00,-0.03,0.01,27.11
43440164,1919,1,187952,244120,0.60,-0.81,10.34,-0.01,-0.01,0.01,27.11
43480176,1923,1,187626,243387,0.66,-0.90,9.94,-0.01,-0.05,0.01,27.11
43520173,1911,1,187580,243654,0.15,-1.21,10.35,-0.01,-0.01,0.01,27.11
43560175,1904,1,187569,243986,0.86,-0.83,10.08,-0.02,-0.02,0.00,27.11
43600173,1907,1,187619,243392,0.62,-0.68,10.01,-0.03,-0.03,0.01,27.11
43640176,1919,1,186938,241893,0.61,-0.57,9.42,-0.03,-0.04,0.00,27.11
43680173,1915,1,186373,240103,0.96,-0.53,10.25,-0.04,-0.04,0.00,27.11
43720176,1907,1,185929,240351,0.51,-0.71,9.92,-0.03,0.01,0.01,27.11
43760164,1909,1,185942,239779,0.74,-0.85,8.41,-0.05,-0.04,0.01,27.11
43800176,1911,1,185937,240167,-0.14,-1.31,10.35,-0.04,0.03,0.01,27.11
43840176,1907,1,185697,239240,0.67,-1.07,8.79,-0.05,-0.03,0.01,27.11
43880175,1923,1,185472,239143,0.01,-1.17,9.76,-0.05,-0.00,0.01,27.11
43920176,1915,1,185326,239072,0.83,-1.23,8.71,-0.03,0.00,0.01,27.11
43960167,1909,1,185565,239603,0.51,-0.57,10.37,-0.02,-0.00,0.01,27.11
44000176,1895,1,185864,240688,0.49,-0.61,9.74,-0.02,0.05,0.01,27.11
44040167,1904,1,186358,241543,0.76,-0.16,10.68,-0.01,0.02,0.01,27.11
44080167,1898,1,186496,241323,1.01,-0.52,10.13,-0.03,-0.00,0.01,27.11
44118175,1909,1,186319,240946,0.16,-1.29,9.68,-0.04,0.01,0.01,27.11
44158173,1907,1,186197,240194,0.63,-0.70,10.31,-0.03,-0.01,0.01,27.11
44198862,1915,1,186137,240762,0.03,-1.32,10.42,-0.04,0.05,0.02,26.85
44239166,1919,1,186209,240635,1.11,-0.59,8.98,-0.04,0.00,0.01,26.85
44279167,1921,1,186485,240830,-0.02,-1.05,10.70,-0.03,0.01,0.02,26.85
44319173,1921,1,186065,240024,1.21,-0.60,8.99,-0.01,-0.04,0.01,26.85
44359175,1932,1,186026,239796,0.06,-1.29,11.16,-0.03,-0.02,0.02,26.85
44399176,1920,1,186016,240489,0.47,-0.66,10.02,0.00,-0.03,0.02,26.85
44439167,1907,1,186411,240607,0.57,-0.86,11.98,-0.03,-0.04,0.03,26.85
44479176,1905,1,186351,240759,-0.10,-1.22,10.44,-0.03,0.02,0.03,26.85
44519176,1921,1,186232,239988,0.66,-1.26,10.06,-0.02,-0.08,0.02,26.85
44559176,1904,1,186158,240785,-0.10,-1.23,11.05,-0.03,0.00,0.03,26.85
44599175,1911,1,186286,240522,0.90,-0.95,8.53,-0.05,-0.06,0.02,26.85
44639173,1898,1,186299,240692,0.27,-0.65,10.53,-0.02,-0.05,0.02,26.85
44679175,1899,1,186021,239471,1.30,-0.45,8.74,-0.05,-0.05,0.02,26.85
44719173,1906,1,185484,237910,0.32,-0.41,8.99,-0.02,-0.07,0.02,26.85
44759175,1927,1,184766,236547,0.83,-0.93,8.77,-0.01,0.00,0.02,26.85
44798163,1915,1,184552,236972,0.47,-0.81,9.19,-0.02,0.02,0.02,26.85
44838167,1911,1,185161,239999,0.57,-1.11,8.51,0.00,0.01,0.02,26.85
44878144,1888,1,186368,241991,0.58,-0.61,8.71,-0.03,-0.02,0.03,26.85
44918176,1905,1,187248,242820,0.43,-1.05,9.86,0.01,0.00,0.02,26.85
44958144,1907,1,187327,243012,0.61,-1.16,9.32,0.00,-0.03,0.02,26.85
44998167,1897,1,187469,242895,0.74,-0.90,10.29,0.00,-0.02,0.02,26.85
45038163,1902,1,187844,244137,0.65,-0.57,11.08,0.03,0.01,0.02,26.85
45078144,1897,1,188556,245677,0.73,-0.67,11.02,0.01,0.05,0.02,26.85
45118144,1922,1,189074,246139,0.14,-0.65,11.31,-0.01,-0.01,0.02,26.85
45158175,1938,1,188736,245357,0.51,-0.90,11.57,-0.02,-0.03,0.02,26.85
45198862,1955,1,187959,244308,0.24,-0.77,11.61,-0.04,-0.04,0.02,27.09
45239175,1979,1,187512,243592,0.28,-1.02,11.26,-0.05,-0.05,0.02,27.09
45279176,1951,1,187053,242658,0.57,-0.74,10.96,-0.07,-0.07,0.02,27.09
45319175,1968,1,186721,241561,0.55,-0.71,9.51,-0.08,-0.07,0.02,27.09
45359173,1922,1,186311,240548,1.00,-0.20,9.80,-0.09,-0.08,0.01,27.09
45399175,1915,1,185968,239571,1.43,-0.15,9.08,-0.10,-0.04,0.02,27.09
45439175,1891,1,185757,239298,0.56,-0.57,8.97,-0.10,-0.02,0.02,27.09
45479175,1825,1,185640,238943,0.79,-0.69,8.23,-0.08,-0.04,0.01,27.09
45519173,1787,1,185857,239671,0.47,-0.91,9.75,-0.08,0.01,0.02,27.09
45559167,1835,1,185981,239717,0.78,-1.23,7.99,-0.04,-0.01,0.02,27.09
45599222,1843,1,186271,240765,0.52,-1.20,9.52,-0.03,0.02,0.02,27.09
45637167,1872,1,186728,241754,0.91,-0.70,8.40,-0.01,0.02,0.02,27.09
45677162,1879,1,187160,242454,0.34,-1.00,9.21,0.00,0.04,0.01,27.09
45717145,1893,1,187383,242934,1.18,-0.46,8.88,0.00,0.03,0.01,27.09
45757144,1915,1,188191,244462,0.39,-0.34,10.35,0.01,0.07,0.02,27.09
45797144,1918,1,188473,244392,0.74,-0.55,8.41,0.02,0.03,0.01,27.09
45837144,1921,1,188925,245402,-0.07,-1.09,11.59,-0.01,0.05,0.02,27.09
45877175,1935,1,189196,246395,0.18,-0.61,9.14,0.01,0.07,0.02,27.09
45917144,1956,1,189750,247086,-0.14,-0.90,11.11,-0.00,0.01,0.02,27.09
45957175,1936,1,189625,246989,0.11,-0.76,9.91,-0.02,0.03,0.01,27.09
45997163,1953,1,189279,245523,-0.03,-0.96,11.79,-0.05,-0.01,0.01,27.09
46037196,1955,1,188366,244550,0.28,-0.55,10.66,-0.04,-0.03,0.00,27.09
46077176,1971,1,188017,243562,0.10,-0.82,12.03,-0.08,-0.02,0.01,27.09
46117175,1965,1,187780,243398,-0.52,-0.96,11.28,-0.08,0.02,0.01,27.09
46157176,1975,1,187444,242290,-0.28,-1.13,9.47,-0.08,-0.01,0.00,27.09
46197196,1921,1,187017,241310,-0.52,-1.40,9.96,-0.11,0.01,0.00,27.09
46237862,1905,1,186540,241301,-0.36,-1.43,8.38,-0.10,0.01,-0.00,27.15
46278196,1913,1,186608,241688,-0.33,-1.22,8.82,-0.09,0.02,-0.01,27.15
46318196,1917,1,186832,242502,-0.06,-0.85,9.65,-0.08,0.05,-0.01,27.15
46358196,1856,1,186979,242414,0.21,-0.97,9.40,-0.08,0.02,-0.01,27.15
46398173,1913,1,186452,240412,-0.49,-1.02,9.66,-0.06,0.05,-0.01,27.15
46438196,1917,1,185416,238505,0.09,-1.44,9.50,-0.06,0.01,-0.01,27.15
46478173,1941,1,185305,239265,-0.53,-1.23,9.99,-0.04,0.06,-0.01,27.15
46518196,1898,1,185522,239819,0.02,-1.55,8.86,-0.03,0.02,-0.01,27.15
46558176,1875,1,186011,240897,-0.10,-1.41,9.80,-0.04,0.02,-0.02,27.15
46598196,1898,1,186704,242521,-0.43,-1.32,9.27,-0.04,-0.01,-0.02,27.15
46638209,1885,1,187766,243890,-0.12,-0.78,10.18,-0.03,-0.04,-0.03,27.15
46678213,1899,1,187576,243305,-0.24,-0.80,10.83,-0.02,-0.00,-0.02,27.15
46718209,1908,1,187212,243013,-0.49,-0.79,10.10,-0.01,0.00,-0.02,27.15
46758196,1937,1,187474,243793,-0.66,-1.69,10.73,-0.02,0.05,-0.02,27.15
46798196,1949,1,187658,243928,-0.41,-1.36,10.18,-0.03,0.01,-0.02,27.15
46838196,1926,1,187617,243890,-0.62,-1.61,10.09,-0.03,-0.00,-0.03,27.15
46878209,1920,1,187461,243823,-0.30,-1.10,9.62,-0.03,-0.06,-0.03,27.15
46918210,1916,1,187547,243842,-0.50,-0.82,11.65,-0.03,-0.01,-0.03,27.15
46958209,1936,1,187443,243956,-0.50,-0.82,10.58,-0.02,-0.02,-0.03,27.15
46998211,1899,1,187705,244409,-0.49,-1.03,11.49,-0.04,0.00,-0.03,27.15
47038196,1903,1,187682,244409,-0.58,-1.60,10.23,-0.03,-0.01,-0.03,27.15
47078213,1903,1,187381,243228,-0.54,-1.48,9.49,-0.05,-0.06,-0.03,27.15
47118209,1878,1,186898,242659,-0.45,-1.58,10.97,-0.06,-0.03,-0.03,27.15
47158212,1907,1,186746,242360,-0.07,-1.11,9.75,-0.07,-0.07,-0.03,27.15
47198209,1904,1,186951,242663,-1.06,-1.11,10.55,-0.06,-0.04,-0.03,27.15
47236899,1894,1,186872,241934,-0.29,-0.71,10.55,-0.05,-0.05,-0.04,27.17
47277209,1885,1,186523,241281,-0.74,-1.80,11.16,-0.06,-0.02,-0.03,27.17
47317213,1878,1,186205,240793,0.06,-1.85,8.52,-0.07,-0.06,-0.03,27.17
47357196,1903,1,186153,240321,-0.50,-1.77,9.43,-0.07,-0.05,-0.03,27.17
47397213,1917,1,185945,240724,-0.45,-1.74,8.79,-0.05,-0.01,-0.03,27.17
47437235,1919,1,186063,240663,-0.01,-1.24,8.57,-0.06,-0.06,-0.04,27.17
47477213,1934,1,185879,240827,-0.28,-1.18,9.26,-0.04,0.00,-0.03,27.17
47517196,1914,1,185622,240539,0.37,-0.94,8.06,-0.03,-0.03,-0.04,27.17
47557196,1883,1,186189,242627,-0.68,-1.59,10.00,-0.02,0.05,-0.02,27.17
47597196,1888,1,186934,244219,0.27,-1.52,8.04,-0.00,0.02,-0.02,27.17
47637175,1875,1,188079,246446,-0.73,-1.86,9.39,-0.00,0.02,-0.02,27.17
47677196,1891,1,188954,247889,0.16,-1.25,7.75,0.02,-0.01,-0.02,27.17
47717175,1879,1,189883,248981,-0.45,-1.38,10.41,0.01,0.02,-0.02,27.17
47757176,1889,1,190191,249538,-0.09,-1.08,8.99,0.04,-0.00,-0.02,27.17
47797196,1904,1,190869,249987,-0.64,-1.61,11.43,0.02,0.03,-0.02,27.17
47837175,1897,1,191218,250832,-0.49,-1.19,10.31,0.05,0.03,-0.02,27.17
47876175,1909,1,191583,250987,-0.19,-1.85,10.08,0.00,-0.02,-0.02,27.17
47916196,1909,1,191714,251002,-0.56,-1.57,10.21,-0.00,-0.02,-0.03,27.17
47956213,1930,1,191252,249875,0.03,-0.97,9.62,-0.01,-0.09,-0.03,27.17
47996193,1904,1,191136,249976,-0.40,-1.01,11.81,-0.02,-0.03,-0.03,27.17
48036213,1930,1,190784,249073,-0.09,-0.93,11.36,-0.03,-0.04,-0.03,27.17
48076209,1943,1,190335,248252,-0.61,-1.11,11.60,-0.04,-0.02,-0.03,27.17
48116213,1949,1,189578,246757,-0.09,-1.26,10.11,-0.07,-0.04,-0.03,27.17
48156209,1950,1,188593,244693,-0.38,-1.61,10.63,-0.08,-0.03,-0.03,27.17
48196213,1943,1,187285,243362,0.44,-1.50,8.39,-0.09,-0.08,-0.03,27.17
48236196,1927,1,187418,243807,-0.23,-1.19,10.60,-0.10,-0.03,-0.03,27.17
48276899,1920,1,187539,244101,0.40,-0.91,9.34,-0.07,-0.01,-0.03,27.17
48317196,1903,1,187612,243617,0.12,-1.52,9.69,-0.10,-0.02,-0.03,27.17
48357196,1901,1,187289,243196,-0.04,-1.54,9.64,-0.07,-0.03,-0.03,27.17
48397209,1899,1,186955,242521,0.60,-1.31,8.75,-0.06,-0.02,-0.03,27.17
48437196,1904,1,187019,244024,0.21,-1.73,9.64,-0.05,0.01,-0.02,27.17
48477176,1895,1,187868,245493,0.66,-1.26,8.13,-0.05,-0.00,-0.02,27.17
48517196,1904,1,188788,247107,-0.13,-0.97,9.73,-0.04,-0.01,-0.01,27.17
48557209,1890,1,189170,247410,0.96,-0.90,9.58,-0.02,-0.02,-0.01,27.17
48597196,1898,1,189324,247314,-0.06,-1.18,10.52,-0.02,0.02,-0.01,27.17
48637196,1909,1,188970,246954,0.62,-1.14,9.33,0.00,0.00,-0.01,27.17
48677167,1923,1,189276,247306,-0.06,-1.23,10.64,-0.00,0.03,0.00,27.17
48715176,1945,1,189591,248461,0.38,-1.28,9.34,0.01,0.03,0.00,27.17
48755144,1904,1,190178,248858,0.11,-1.43,9.18,-0.02,-0.03,-0.00,27.17
48795196,1926,1,190200,248350,0.22,-1.01,9.50,-0.00,-0.04,-0.01,27.17
48835196,1909,1,189733,247490,0.62,-0.93,10.17,-0.00,-0.05,-0.01,27.17
48875227,1914,1,189817,248686,0.23,-1.25,10.91,-0.00,0.00,0.00,27.17
48915167,1913,1,190248,248708,0.53,-1.00,9.25,0.01,-0.03,0.00,27.17
48955162,1915,1,190375,249318,-0.09,-1.90,11.16,-0.02,-0.03,0.00,27.17
48995196,1910,1,190249,248544,0.39,-1.42,9.57,-0.01,-0.05,-0.00,27.17
49035196,1919,1,189809,247664,-0.02,-1.14,10.77,-0.01,-0.05,0.00,27.17
49075226,1919,1,189141,247152,0.72,-1.02,10.13,-0.00,-0.03,-0.00,27.17
49115196,1925,1,189272,247632,-0.09,-1.50,11.49,-0.00,-0.02,-0.00,27.17
49155210,1921,1,189301,247502,0.31,-1.17,10.74,0.00,-0.05,0.00,27.17
49195163,1923,1,189206,247103,0.11,-1.75,10.74,-0.03,-0.03,-0.00,27.17
49235196,1919,1,188735,246423,0.04,-1.63,8.74,-0.03,-0.06,-0.01,27.17
49275196,1905,1,188393,245657,0.30,-1.54,9.81,-0.03,-0.06,-0.01,27.17
49315882,1913,1,188218,246192,0.44,-1.01,9.09,-0.03,-0.06,-0.01,27.25
49356196,1890,1,188452,246220,1.09,-1.33,10.15,-0.03,-0.06,-0.01,27.25
49396196,1904,1,188605,246408,0.35,-1.02,9.79,-0.02,-0.00,-0.00,27.25
49436196,1894,1,188526,245944,0.46,-1.49,8.66,-0.05,-0.08,-0.01,27.25
49476196,1900,1,188431,245546,0.23,-1.67,10.67,-0.03,-0.01,-0.00,27.25
49516196,1904,1,188114,245315,0.47,-1.47,8.78,-0.03,-0.02,0.00,27.25
49556176,1904,1,188406,245883,0.26,-1.84,9.53,-0.04,0.00,0.00,27.25
49596164,1907,1,188754,246549,0.18,-1.55,9.39,-0.03,-0.04,0.00,27.25
49636176,1899,1,188860,246631,0.59,-0.92,9.66,-0.02,-0.03,0.00,27.25
49676173,1900,1,188886,246581,0.16,-1.70,9.70,-0.02,0.02,0.00,27.25
49716167,1901,1,188692,245936,0.88,-0.95,9.70,-0.02,-0.04,-0.00,27.25
49756193,1920,1,188599,246656,-0.02,-1.56,10.58,-0.03,0.04,0.01,27.25
49796176,1917,1,188711,246762,0.46,-1.29,8.32,-0.03,-0.01,-0.00,27.25
49836196,1922,1,189113,247489,-0.23,-1.97,10.56,-0.04,0.01,0.00,27.25
49876176,1909,1,189125,247396,0.36,-0.91,8.11,-0.02,-0.00,-0.00,27.25
49916198,1905,1,189078,247204,0.28,-1.09,10.47,-0.03,-0.02,-0.00,27.25
49956196,1911,1,188926,247587,0.93,-0.54,9.98,-0.01,0.02,-0.00,27.25
49996173,1913,1,189205,247853,0.38,-1.03,10.29,-0.03,0.00,0.00,27.25
50034167,1925,1,189299,247912,0.26,-1.22,10.40,-0.02,0.02,-0.00,27.25
50074176,1920,1,189188,247255,0.49,-1.23,10.76,-0.05,-0.01,-0.00,27.25
50114197,1911,1,188711,246490,0.17,-1.44,9.60,-0.06,-0.02,-0.00,27.25
50154193,1920,1,188154,245285,1.06,-1.10,9.03,-0.05,-0.06,-0.01,27.25
50194196,1915,1,188007,245418,0.13,-0.89,10.61,-0.06,-0.01,-0.00,27.25
50234196,1920,1,187985,245306,1.12,-0.69,9.23,-0.04,-0.01,-0.01,27.25
50274196,1903,1,187936,244401,0.39,-0.89,10.25,-0.06,0.01,-0.00,27.25
50314178,1902,1,187484,243634,0.42,-1.06,10.20,-0.05,-0.00,-0.00,27.25
50354883,1898,1,187214,243004,0.57,-1.07,10.20,-0.05,0.00,-0.00,27.25
50395173,1889,1,187068,243576,0.46,-1.71,10.38,-0.05,0.02,0.00,27.25
50435167,1891,1,187304,243815,0.53,-1.39,9.59,-0.05,0.00,-0.00,27.25
50475173,1893,1,187404,244457,0.34,-1.28,9.27,-0.03,-0.00,0.00,27.25
50515196,1907,1,187657,244278,0.46,-1.19,9.88,-0.05,-0.01,-0.01,27.25
50555196,1902,1,187611,244336,0.06,-1.26,10.63,-0.03,0.01,0.00,27.25
50595167,1907,1,187415,243882,0.94,-0.93,8.29,-0.01,-0.02,-0.01,27.25
50635196,1886,1,187709,244906,-0.08,-1.86,11.15,-0.03,0.02,0.00,27.25
50675175,1904,1,188016,245703,0.40,-1.83,8.28,-0.01,-0.00,0.00,27.25
50715196,1894,1,188601,246474,-0.04,-1.47,9.59,-0.01,-0.00,0.00,27.25
50755195,1908,1,188852,247132,0.16,-1.83,9.01,-0.01,-0.00,0.00,27.25
50795173,1921,1,189025,247134,0.53,-1.18,9.39,-0.01,-0.05,-0.00,27.25
50835196,1930,1,189167,247812,-0.19,-1.10,9.49,0.01,0.01,0.00,27.25
50875164,1929,1,189640,248514,0.65,-0.83,10.24,0.01,-0.00,-0.00,27.25
50915191,1933,1,190024,248950,-0.31,-1.76,10.71,-0.02,0.01,0.01,27.25
50955176,1927,1,189874,248833,0.06,-1.58,9.87,-0.01,-0.01,0.00,27.25
50995176,1932,1,189640,247667,-0.09,-1.89,11.90,-0.04,-0.05,0.00,27.25
51035193,1936,1,188688,246710,-0.02,-1.45,11.06,-0.02,-0.06,-0.00,27.25
51075213,1959,1,188383,246102,-0.03,-1.20,11.02,-0.04,-0.02,-0.00,27.25
51115209,1955,1,188025,245723,0.00,-0.94,10.92,-0.02,-0.07,-0.01,27.25
51155196,1937,1,187629,244230,0.56,-0.89,11.99,-0.06,-0.05,-0.01,27.25
51195196,1921,1,186775,242657,0.24,-1.00,10.91,-0.05,-0.07,-0.01,27.25
51235196,1920,1,186059,240946,0.85,-1.08,9.81,-0.07,-0.11,-0.01,27.25
51275196,1890,1,185888,240742,-0.11,-1.30,10.88,-0.06,-0.00,-0.01,27.25
51315212,1909,1,185687,240287,0.74,-1.33,7.85,-0.06,-0.05,-0.01,27.25
51355882,1881,1,185792,240501,-0.05,-1.24,9.53,-0.07,-0.04,-0.00,27.09
51394213,1873,1,185826,241077,0.88,-1.37,8.04,-0.05,-0.02,-0.01,27.09
51434196,1889,1,186141,241250,0.92,-0.91,8.65,-0.06,-0.05,-0.01,27.09
51474196,1874,1,186393,242551,0.66,-1.00,9.44,-0.03,0.01,-0.01,27.09
51514176,1854,1,186916,243359,1.18,-0.95,8.89,-0.03,-0.02,-0.01,27.09
51554196,1873,1,187481,244421,0.20,-1.26,9.45,-0.01,0.02,0.00,27.09
51594163,1883,1,187878,244819,0.88,-1.15,9.33,-0.01,0.02,-0.00,27.09
51634176,1888,1,188027,244664,-0.05,-1.97,9.82,-0.01,0.05,-0.00,27.09
51674196,1919,1,187696,245021,0.31,-1.45,8.04,0.02,0.00,-0.01,27.09
51714167,1891,1,188393,245743,-0.22,-1.42,9.98,-0.00,0.04,0.00,27.09
51754176,1918,1,188417,246355,-0.19,-1.17,8.49,0.04,0.01,-0.00,27.09
51794176,1904,1,188766,246325,0.45,-0.89,9.84,0.01,0.00,-0.01,27.09
51834164,1914,1,188657,246043,-0.38,-0.60,10.23,0.02,0.03,-0.00,27.09
51874176,1927,1,188132,245179,0.25,-1.25,10.24,0.00,0.01,-0.01,27.09
51914166,1936,1,188206,245849,-0.45,-1.63,11.41,-0.02,0.03,-0.01,27.09
51954196,1942,1,188306,245531,0.15,-1.51,9.84,-0.03,-0.00,-0.01,27.09
51994196,1945,1,188168,244991,-0.23,-1.54,10.64,-0.05,-0.00,-0.01,27.09
52034213,1943,1,187617,244029,0.07,-1.11,9.78,-0.05,-0.04,-0.02,27.09
52074196,1937,1,187225,243102,-0.18,-0.77,10.95,-0.07,-0.00,-0.02,27.09
52114211,1936,1,186876,242614,-0.13,-0.90,11.03,-0.07,0.01,-0.02,27.09
52154213,1904,1,186742,242101,-0.16,-1.11,10.96,-0.07,0.02,-0.02,27.09
52194197,1922,1,186404,241584,-0.02,-1.36,10.02,-0.07,0.01,-0.02,27.09
52234196,1906,1,186315,240843,-0.09,-1.60,9.89,-0.09,0.00,-0.02,27.09
52274196,1891,1,185851,239812,0.12,-1.47,9.25,-0.09,-0.02,-0.02,27.09
52314196,1898,1,185637,239966,0.16,-1.41,9.57,-0.08,0.01,-0.02,27.09
52354232,1918,1,185726,240459,0.03,-1.22,9.03,-0.07,-0.01,-0.02,27.09
52394879,1889,1,185953,240919,-0.17,-1.08,10.86,-0.06,-0.00,-0.02,27.25
52433213,1891,1,185880,240585,0.08,-1.09,9.93,-0.04,0.01,-0.02,27.25
52473173,1909,1,185716,240377,-0.54,-1.96,9.84,-0.05,0.01,-0.01,27.25
52513196,1913,1,185314,239980,0.33,-1.24,9.24,-0.03,-0.01,-0.02,27.25
52553196,1911,1,185424,241363,-0.68,-1.90,10.46,-0.04,0.05,-0.01,27.25
52593196,1900,1,186007,242804,-0.04,-1.78,8.50,-0.03,-0.02,-0.01,27.25
52633209,1894,1,186825,244177,-0.33,-1.57,10.13,-0.03,-0.03,-0.01,27.25
52673213,1901,1,187267,244521,-0.10,-1.02,9.27,-0.02,-0.04,-0.02,27.25
52713209,1905,1,187264,243432,-0.14,-0.99,10.11,-0.01,-0.04,-0.02,27.25
52753213,1904,1,186916,243582,-0.18,-1.18,10.71,-0.01,0.01,-0.02,27.25
52793196,1924,1,187116,243543,-0.13,-1.17,9.84,-0.02,-0.00,-0.02,27.25
52833211,1917,1,187163,243999,-0.47,-1.78,10.58,-0.02,-0.00,-0.01,27.25
52873210,1919,1,187350,243610,-0.15,-1.70,9.87,-0.04,-0.03,-0.02,27.25
52913213,1927,1,187096,243045,-0.41,-1.60,10.01,-0.04,-0.03,-0.02,27.25
52953209,1930,1,186742,242661,0.54,-1.12,9.11,-0.04,-0.07,-0.03,27.25
52993197,1921,1,186946,243105,-0.39,-1.11,11.45,-0.06,-0.01,-0.02,27.25
53033210,1936,1,186647,242387,0.37,-0.62,9.70,-0.03,-0.02,-0.02,27.25
53073196,1920,1,186511,241462,-0.26,-1.07,10.99,-0.05,0.01,-0.02,27.25
53113196,1925,1,185785,239996,-0.10,-1.19,9.83,-0.04,0.00,-0.02,27.25
53153196,1924,1,185070,238454,0.38,-1.31,9.36,-0.06,-0.03,-0.02,27.25
53193196,1925,1,184723,238249,-0.13,-1.51,9.64,-0.06,0.03,-0.02,27.25
53233196,1918,1,184605,238016,0.64,-1.30,8.70,-0.08,-0.04,-0.02,27.25
53273193,1911,1,184773,238746,-0.19,-1.22,9.62,-0.07,0.01,-0.02,27.25
53313196,1895,1,184958,238859,0.19,-0.71,9.20,-0.05,-0.02,-0.03,27.25
53353193,1905,1,184975,238198,0.38,-0.94,10.35,-0.05,-0.00,-0.02,27.25
53393196,1912,1,184624,238276,0.12,-1.47,9.14,-0.04,0.04,-0.02,27.25
53433863,1919,1,184840,238484,-0.06,-1.41,9.38,-0.04,0.02,-0.02,27.17
53472196,1887,1,184993,238485,-0.38,-1.72,9.95,-0.02,0.05,-0.01,27.17
53512196,1881,1,184546,236793,0.09,-1.93,8.84,-0.04,0.01,-0.02,27.17
53552175,1904,1,184249,236517,-0.14,-1.68,9.38,-0.01,0.01,-0.02,27.17
53592196,1904,1,183981,236465,0.40,-1.23,8.80,-0.02,-0.03,-0.02,27.17
53632196,1905,1,184413,237641,-0.25,-1.19,10.72,-0.00,0.03,-0.01,27.17
53672196,1907,1,184862,238838,0.08,-0.81,9.32,0.04,0.01,-0.01,27.17
53712167,1881,1,185431,239471,-0.11,-1.40,10.98,0.00,-0.01,-0.00,27.17
53752196,1905,1,185293,239238,0.07,-1.81,9.90,0.03,-0.03,-0.00,27.17
53792192,1917,1,185122,238458,0.23,-1.74,9.71,0.00,-0.09,0.00,27.17
53832164,1931,1,184975,238790,-0.15,-1.39,9.96,0.01,-0.03,0.00,27.17
53872176,1926,1,185027,238666,0.21,-1.33,9.63,0.00,-0.06,-0.00,27.17
53912173,1922,1,185196,239020,-0.34,-1.04,11.18,0.01,-0.05,0.00,27.17
53952176,1918,1,185051,238769,0.88,-0.57,10.32,0.01,-0.07,-0.00,27.17
53992203,1910,1,184975,238383,0.55,-1.08,11.04,-0.01,-0.07,-0.00,27.17
54032196,1904,1,185044,239497,0.52,-1.33,10.23,-0.01,-0.06,0.00,27.17
54072176,1929,1,185660,240034,-0.05,-1.53,10.66,-0.03,-0.05,0.00,27.17
54112196,1843,1,185971,241450,-0.19,-1.09,10.83,-0.01,-0.04,0.00,27.17
54152196,1839,1,186390,241445,0.43,-1.48,9.62,-0.03,-0.04,-0.00,27.17
54192214,1840,1,186451,242187,0.32,-0.89,10.84,-0.02,-0.10,-0.00,27.17
54232196,1891,1,186358,241552,1.34,-0.59,8.08,-0.02,-0.09,-0.01,27.17
54272196,1937,1,186492,242111,0.54,-1.09,11.60,-0.05,-0.06,-0.00,27.17
54312193,1955,1,186465,241872,1.38,-0.49,8.80,-0.04,-0.05,-0.00,27.17
54352196,1956,1,186475,241954,0.53,-1.19,10.17,-0.05,-0.06,-0.00,27.17
54392196,1913,1,186543,241559,0.76,-1.52,9.90,-0.06,0.00,-0.01,27.17
54432176,1939,1,186373,241623,0.35,-1.19,9.75,-0.04,-0.06,-0.00,27.17
54472883,1967,1,186283,242037,0.86,-1.50,9.09,-0.05,-0.01,-0.00,27.21
54511196,1936,1,186754,242910,0.48,-1.37,9.89,-0.04,0.01,-0.00,27.21
54551176,1949,1,187074,243585,0.66,-0.97,9.59,-0.04,-0.01,-0.00,27.21
54591196,1939,1,187322,244068,0.74,-1.24,9.93,-0.04,-0.01,-0.00,27.21
54631196,1945,1,187475,243917,0.82,-1.06,9.97,-0.05,-0.00,-0.00,27.21
54671196,1939,1,187245,243909,0.48,-1.62,9.57,-0.06,-0.03,-0.00,27.21
54711196,1921,1,187543,244394,0.04,-1.72,10.34,-0.05,0.03,0.00,27.21
54751167,1939,1,187538,243941,-0.05,-1.38,9.19,-0.05,-0.01,-0.00,27.21
54791209,1923,1,187310,243621,-0.24,-1.76,9.97,-0.05,0.04,-0.00,27.21
54831196,1939,1,186854,242155,0.24,-1.37,7.88,-0.04,-0.00,-0.01,27.21
54871196,1936,1,186069,240838,0.85,-0.93,8.44,-0.04,-0.01,-0.01,27.21
54911196,1920,1,186041,241531,0.17,-1.10,9.91,-0.05,0.07,0.00,27.21
54951163,1905,1,186119,241900,0.80,-0.91,7.55,-0.01,0.04,-0.00,27.21
54991176,1904,1,186508,242687,0.43,-0.98,10.66,-0.05,0.05,-0.00,27.21
55031173,1890,1,186579,242948,0.33,-1.19,9.14,-0.01,0.05,0.00,27.21
55071167,1909,1,186729,242546,0.60,-1.48,9.95,-0.01,0.02,-0.00,27.21
55111173,1911,1,186703,242793,0.20,-1.45,9.91,-0.02,0.06,0.00,27.21
55151167,1920,1,187003,243327,0.15,-1.74,10.28,-0.02,0.04,0.00,27.21
55191167,1927,1,187338,244351,0.05,-1.61,10.23,-0.02,0.02,0.00,27.21
55231167,1904,1,187874,245058,-0.12,-1.06,10.78,-0.02,0.00,-0.00,27.21
55271193,1907,1,187924,245060,0.36,-1.17,11.99,-0.02,0.00,-0.01,27.21
55311176,1919,1,188061,245631,-0.14,-1.72,11.55,-0.02,-0.01,-0.01,27.21
55351210,1939,1,187841,244659,0.06,-1.28,10.40,-0.04,-0.08,-0.00,27.21
55391196,1946,1,187661,244572,-0.72,-2.27,11.92,-0.05,-0.00,-0.00,27.21
55431216,1927,1,187069,242579,0.12,-1.53,8.75,-0.06,-0.08,-0.01,27.21
55471196,1923,1,186183,240900,-0.70,-2.01,10.77,-0.07,-0.03,-0.00,27.21
55511895,1911,1,185391,239758,0.47,-1.68,8.49,-0.07,-0.03,-0.01,27.23
55550196,1905,1,185451,240565,0.06,-1.83,9.51,-0.06,-0.04,-0.01,27.23
55590196,1891,1,185940,241513,0.59,-0.65,9.30,-0.05,-0.04,-0.01,27.23
55630213,1878,1,186256,241503,0.95,-1.14,9.55,-0.05,-0.05,-0.01,27.23
55670196,1892,1,185955,241312,0.67,-1.60,7.97,-0.05,-0.08,-0.02,27.23
55710196,1913,1,186182,241819,0.77,-1.25,9.98,-0.05,-0.05,-0.02,27.23
55750196,1895,1,186594,243222,0.35,-1.38,9.90,-0.02,0.03,-0.01,27.23
55790176,1898,1,187093,243623,0.72,-1.40,8.98,-0.01,-0.02,-0.01,27.23
55830196,1886,1,187202,243569,-0.15,-1.91,10.19,-0.02,0.01,-0.00,27.23
55871196,1894,1,187199,243199,0.15,-1.73,9.50,-0.03,-0.04,-0.01,27.23
55911196,1901,1,186784,242385,-0.05,-1.57,9.93,-0.01,-0.02,-0.01,27.23
55951213,1910,1,186662,242939,0.35,-0.99,8.77,0.01,-0.01,-0.01,27.23
55991176,1917,1,186818,243002,0.62,-1.29,9.89,-0.02,-0.04,-0.01,27.23
56031196,1915,1,186869,243562,0.11,-1.29,10.37,-0.01,0.02,-0.00,27.23
56071176,1911,1,186791,242763,0.19,-1.31,7.98,-0.01,-0.03,-0.01,27.23
56111196,1904,1,186804,242749,-0.36,-1.78,11.54,-0.02,-0.03,-0.00,27.23
56151210,1916,1,186464,242531,0.39,-1.23,8.83,-0.00,0.00,-0.01,27.23
56191176,1921,1,186914,243287,-0.25,-1.78,10.55,-0.01,0.00,-0.01,27.23
56231196,1923,1,187137,244386,0.31,-1.46,9.66,-0.02,0.01,-0.00,27.23
56271175,1927,1,188011,245222,-0.31,-1.87,10.03,-0.03,0.03,-0.01,27.23
56311196,1925,1,187745,244508,1.20,-1.09,8.99,-0.01,-0.03,-0.02,27.23
56351196,1920,1,187770,244444,0.16,-1.99,10.55,-0.05,-0.03,-0.01,27.23
56391196,1904,1,187477,244694,0.16,-0.93,8.83,-0.01,-0.01,-0.01,27.23
56431196,1911,1,188082,245337,0.25,-1.42,11.80,-0.04,0.03,-0.01,27.23
56471176,1857,1,187997,245525,-0.07,-1.10,10.18,-0.01,0.01,-0.01,27.23
56511196,1879,1,188050,244534,-0.19,-1.75,11.18,-0.06,-0.02,-0.01,27.23
56551896,1857,1,187143,243391,-0.05,-1.70,9.87,-0.03,-0.02,-0.01,27.25
56590211,1920,1,187233,243368,-0.05,-2.20,11.60,-0.07,-0.03,-0.01,27.25
56630209,1935,1,186828,243222,-0.22,-1.44,9.42,-0.05,-0.04,-0.01,27.25
56670213,1936,1,186908,242948,-0.09,-1.76,10.72,-0.10,-0.03,-0.01,27.25
56710210,1927,1,186465,241620,0.12,-1.14,9.60,-0.06,-0.05,-0.02,27.25
56750196,1946,1,185642,239817,1.09,-0.93,9.50,-0.07,-0.06,-0.03,27.25
56790193,1945,1,185328,240025,-0.14,-1.15,10.00,-0.08,0.03,-0.02,27.25
56830196,1926,1,185066,239063,1.26,-0.82,8.06,-0.06,-0.03,-0.02,27.25
56871195,1903,1,185025,239462,-0.00,-1.28,10.54,-0.06,0.05,-0.01,27.25
56911196,1918,1,184772,239585,0.94,-1.81,7.44,-0.05,-0.02,-0.02,27.25
56951196,1889,1,185308,240712,-0.46,-1.95,9.70,-0.06,-0.01,-0.01,27.25
56989213,1890,1,186136,243290,0.33,-2.09,9.98,-0.02,0.00,-0.01,27.25
57029176,1904,1,187366,245125,-0.51,-2.02,9.56,-0.02,-0.01,-0.00,27.25
57069229,1924,1,188088,246435,-0.53,-2.19,9.58,-0.00,-0.00,-0.01,27.25
57109209,1929,1,188779,247070,-0.15,-1.33,10.76,-0.01,0.01,-0.01,27.25
57149196,1949,1,188544,245860,0.26,-1.38,9.88,0.01,-0.03,-0.01,27.25
57189176,1955,1,187820,244881,0.32,-1.19,9.62,0.00,-0.04,-0.02,27.25
57229176,1947,1,187460,243754,0.32,-0.76,10.61,-0.00,-0.03,-0.01,27.25
57269228,1929,1,187133,243073,0.24,-0.93,10.42,-0.01,0.01,-0.02,27.25
57309176,1910,1,186678,241307,0.47,-1.15,9.49,-0.02,-0.00,-0.02,27.25
57349196,1905,1,186267,240686,0.11,-1.59,10.42,-0.04,-0.06,-0.02,27.25
57389196,1906,1,186109,241054,-0.24,-1.66,10.56,-0.04,0.00,-0.02,27.25
57429196,1906,1,186256,241476,-0.19,-1.96,10.48,-0.04,-0.03,-0.01,27.25
57469240,1904,1,186239,241389,-0.07,-1.87,9.54,-0.03,-0.04,-0.02,27.25
57509209,1906,1,186299,241300,-0.20,-1.41,10.40,-0.05,-0.03,-0.02,27.25
57549213,1923,1,186065,240737,-0.09,-1.92,9.44,-0.05,-0.01,-0.02,27.25
57589896,1915,1,185791,240574,0.52,-1.31,9.52,-0.03,-0.03,-0.02,27.31
57630196,1898,1,185843,240440,0.63,-1.12,9.61,-0.02,-0.01,-0.02,27.31
57670196,1904,1,185705,240543,0.38,-1.14,9.78,-0.01,0.01,-0.02,27.31
57710176,1898,1,185706,240451,0.39,-0.87,8.81,-0.03,-0.01,-0.02,27.31
57750196,1919,1,185771,240475,0.34,-0.98,10.69,-0.02,0.02,-0.02,27.31
57790176,1915,1,185689,240785,0.99,-1.05,9.56,-0.01,-0.00,-0.02,27.31
57830196,1921,1,186265,241750,-0.52,-1.81,10.72,-0.02,0.03,-0.01,27.31
57870196,1923,1,186478,241910,-0.12,-1.72,10.18,-0.03,-0.04,-0.01,27.31
57909209,1904,1,186743,242417,-0.27,-1.69,11.53,-0.04,0.02,-0.01,27.31
57949197,1919,1,186678,242099,-0.09,-1.65,9.10,-0.03,-0.03,-0.01,27.31
57989209,1920,1,186409,241666,-0.05,-2.01,10.13,-0.06,-0.06,-0.01,27.31
58029213,1916,1,186398,241664,-0.20,-1.62,10.50,-0.05,-0.01,-0.01,27.31
58069209,1927,1,185919,240006,0.74,-0.94,9.27,-0.03,-0.03,-0.02,27.31
58109196,1913,1,185543,239839,0.40,-1.16,9.65,-0.05,-0.01,-0.02,27.31
58149196,1914,1,185519,239408,0.15,-1.08,8.92,-0.06,-0.04,-0.02,27.31
58189196,1902,1,185202,239502,0.65,-1.04,9.97,-0.05,-0.02,-0.02,27.31
58229196,1918,1,185509,239544,0.21,-1.22,9.47,-0.03,-0.01,-0.02,27.31
58269196,1889,1,185442,240007,0.83,-1.14,9.87,-0.02,-0.01,-0.02,27.31
58309196,1894,1,185527,239735,0.33,-1.51,8.40,-0.04,-0.03,-0.02,27.31
58349196,1897,1,185361,239699,-0.18,-1.28,9.40,-0.02,-0.02,-0.01,27.31
58389209,1895,1,185239,239199,0.69,-1.43,9.25,-0.02,-0.02,-0.01,27.31
58429196,1901,1,185401,239960,-0.28,-1.27,10.43,0.01,0.02,-0.00,27.31
58469176,1908,1,185545,239992,0.60,-1.11,8.81,0.01,-0.01,-0.01,27.31
58509175,1918,1,185585,240381,-0.09,-1.24,9.78,-0.01,0.01,-0.00,27.31
58549193,1919,1,185716,239888,0.90,-0.87,9.53,-0.01,-0.03,-0.01,27.31
58589196,1904,1,185623,239919,0.28,-1.20,10.85,0.01,0.00,-0.00,27.31
58629850,1917,1,185635,240486,1.04,-0.72,8.91,0.00,-0.05,-0.01,27.23
58668176,1909,1,186081,240886,0.28,-0.83,11.55,-0.01,-0.01,-0.00,27.23
58708196,1911,1,186053,241403,0.47,-0.95,9.81,0.01,-0.01,-0.01,27.23
58748175,1907,1,186289,241049,0.11,-1.36,10.37,-0.03,-0.03,-0.01,27.23
58788196,1906,1,186015,240538,0.10,-1.11,10.96,-0.00,-0.03,-0.01,27.23
58828196,1920,1,185617,239717,0.11,-1.51,10.58,-0.04,-0.05,-0.00,27.23
58868196,1924,1,185437,239952,0.17,-1.30,10.39,-0.03,-0.05,-0.00,27.23
58909196,1938,1,185743,240304,0.19,-1.55,11.01,-0.04,-0.03,-0.01,27.23
58949196,1942,1,185743,239974,0.07,-1.21,10.77,-0.05,-0.04,-0.01,27.23
58989196,1962,1,185593,239433,0.52,-1.15,10.04,-0.06,-0.05,-0.01,27.23
59029196,1937,1,185650,239543,0.38,-1.26,10.52,-0.07,-0.02,-0.01,27.23
59069196,1947,1,185677,239374,0.93,-1.00,9.71,-0.06,-0.05,-0.01,27.23
59109196,1924,1,185598,239381,0.22,-1.17,9.93,-0.06,-0.01,-0.01,27.23
59149196,1915,1,185443,238935,0.60,-0.79,8.77,-0.06,-0.05,-0.01,27.23
59189193,1915,1,185321,238342,0.47,-0.83,9.91,-0.07,-0.05,-0.01,27.23
59229196,1910,1,185109,238257,0.61,-1.20,9.26,-0.06,-0.02,-0.01,27.23
59269196,1904,1,185225,238342,0.59,-1.19,9.35,-0.05,-0.01,-0.00,27.23
59309196,1907,1,185412,238894,0.17,-1.56,9.63,-0.04,0.00,-0.00,27.23
59349173,1909,1,185521,238908,0.42,-1.13,9.74,-0.04,-0.01,0.00,27.23
59389176,1909,1,185380,238546,0.13,-1.69,9.31,-0.04,0.01,0.01,27.23
59429167,1924,1,185208,238612,0.71,-1.77,9.26,-0.02,-0.02,0.00,27.23
59469176,1917,1,185509,239171,0.28,-1.49,9.65,-0.00,0.02,0.01,27.23
59509164,1921,1,185624,239486,-0.20,-1.64,9.51,0.00,0.01,0.01,27.23
59549167,1905,1,185724,239702,0.33,-1.20,9.56,0.01,-0.01,0.01,27.23
59589167,1905,1,185667,239555,0.35,-1.10,9.79,0.02,-0.03,0.00,27.23
59629168,1906,1,185529,240000,0.93,-0.84,9.30,0.04,-0.03,-0.00,27.23
59669860,1911,1,185981,240791,0.36,-0.83,9.95,0.02,-0.00,0.00,27.17
59708167,1918,1,186063,241204,0.76,-0.68,9.98,0.03,-0.05,0.00,27.17
59748164,1917,1,186324,241228,0.85,-0.59,11.18,0.01,-0.04,0.00,27.17
59788167,1933,1,186084,240651,0.66,-0.85,10.22,0.01,-0.04,0.00,27.17
59828164,1934,1,185786,240182,0.44,-1.31,10.43,0.00,-0.06,0.00,27.17
59868168,1920,1,185819,239880,0.10,-1.24,11.53,-0.01,-0.04,0.01,27.17
59908176,1926,1,185650,239747,0.22,-1.38,10.73,-0.01,-0.04,0.01,27.17
59947175,1963,1,185559,239068,0.19,-1.34,10.66,-0.02,-0.03,0.01,27.17
59987176,1968,1,185274,238168,0.37,-1.20,10.27,-0.04,-0.05,0.01,27.17
60027175,1949,1,185027,237760,0.55,-1.17,9.67,-0.05,-0.02,0.01,27.17
60067176,1949,1,185000,237573,0.60,-0.99,9.36,-0.05,-0.04,0.01,27.17
60107176,1926,1,184957,237781,1.15,-0.91,9.53,-0.04,-0.05,0.01,27.17
60147197,1907,1,184990,237212,1.25,-0.56,10.15,-0.04,-0.02,0.00,27.17
60187175,1892,1,184204,234382,1.20,-0.83,8.35,-0.05,-0.08,0.00,27.17
60227173,1886,1,183646,233650,0.97,-1.09,9.68,-0.07,-0.04,0.01,27.17
60267175,1883,1,183665,233689,0.94,-0.85,9.95,-0.05,-0.02,0.01,27.17
60307176,1891,1,183519,234065,0.94,-1.19,10.03,-0.04,-0.01,0.01,27.17
60347175,1889,1,183548,233811,0.65,-1.29,9.30,-0.04,-0.03,0.01,27.17
60387173,1891,1,183674,234446,0.43,-1.18,9.83,-0.04,-0.03,0.01,27.17
60427176,1892,1,184045,236119,0.67,-1.23,8.92,-0.04,0.03,0.01,27.17
60467167,1892,1,184833,237949,0.26,-1.31,9.66,-0.03,0.05,0.02,27.17
60507168,1894,1,185392,239348,0.57,-1.12,9.62,-0.03,0.02,0.01,27.17
60547175,1904,1,185992,240781,0.63,-0.85,11.02,-0.04,0.04,0.01,27.17
60587167,1934,1,186355,241902,0.47,-1.04,8.41,-0.03,0.03,0.01,27.17
60627163,1963,1,186720,242397,0.50,-1.46,10.09,-0.05,0.02,0.01,27.17
60667167,1906,1,187186,243440,0.59,-1.02,10.38,-0.04,0.03,0.01,27.17
60707853,1894,1,187730,244936,0.95,-0.81,10.02,-0.04,-0.00,0.01,27.21
60748200,1887,1,188492,246379,0.61,-0.91,9.83,-0.05,0.05,0.01,27.21
60788163,1894,1,188972,246740,0.75,-0.64,9.60,-0.05,-0.00,0.01,27.21
60828176,1898,1,189147,247011,0.87,-0.71,10.79,-0.06,0.01,0.01,27.21
60868167,1895,1,189452,247082,0.48,-1.05,10.16,-0.06,0.03,0.01,27.21
60908167,1909,1,189412,246961,0.68,-1.24,10.95,-0.06,-0.01,0.01,27.21
60948176,1907,1,189177,245627,0.57,-0.83,10.99,-0.06,-0.01,0.01,27.21
60988175,1905,1,187954,243818,0.36,-1.28,10.25,-0.07,-0.02,0.01,27.21
61028176,1925,1,186790,241397,0.31,-1.42,9.32,-0.08,-0.02,0.01,27.21
61068176,1930,1,186666,241618,-0.06,-1.59,10.90,-0.07,0.01,0.01,27.21
61108176,1931,1,185889,239932,0.49,-1.17,9.57,-0.05,-0.04,0.01,27.21
61148175,1930,1,185509,239677,-0.39,-1.66,10.39,-0.07,0.02,0.01,27.21
61188176,1920,1,185174,238400,-0.06,-1.27,8.71,-0.05,-0.02,0.01,27.21
61226196,1936,1,184830,239083,0.90,-1.26,9.71,-0.06,-0.02,0.00,27.21
61266173,1935,1,185814,241390,0.22,-1.46,9.35,-0.05,0.01,0.00,27.21
61306168,1889,1,186568,243140,0.62,-1.08,9.31,-0.03,-0.02,-0.00,27.21
61346193,1926,1,187594,244500,0.12,-1.52,9.79,-0.06,0.02,-0.01,27.21
61386175,1773,1,187848,245874,0.03,-0.42,8.54,-0.02,0.03,-0.16,27.21
61426176,1344,1,188550,246212,0.82,-1.79,9.81,-0.03,-0.00,-0.25,27.21
61466196,1299,1,188192,245253,-0.04,-1.01,9.57,-0.02,0.02,-0.16,27.21
61506196,1564,1,187586,243084,0.11,-1.53,9.93,-0.02,0.00,-0.08,27.21
61546175,1503,1,186373,240128,-0.16,-1.07,10.11,-0.02,0.02,-0.02,27.21
61586197,1809,1,185205,237422,-0.02,-1.34,10.25,-0.04,-0.00,-0.01,27.21
61626213,1840,1,183968,235920,0.32,-1.13,10.67,-0.03,0.01,-0.01,27.21
61666176,1962,1,183699,234846,-0.25,-1.60,10.60,-0.03,0.03,-0.01,27.21
