timestamp_us,ecg,leads,ir,red,accX,accY,accZ,gyroX,gyroY,gyroZ,temp
1919546,1694,1,209555,247903,0.00,0.00,0.00,0.00,0.00,0.00,0.00
1949974,675,1,209893,250334,-0.30,-1.21,11.54,-0.04,0.09,0.02,31.15
1990191,221,1,210248,250965,-0.04,-1.30,10.56,-0.03,-0.00,-0.00,31.15
2030221,11,1,210517,252303,0.00,-1.28,11.90,-0.04,0.00,-0.02,31.15
2070184,10,1,210823,252783,-0.12,-1.01,10.62,-0.06,0.03,-0.02,31.15
2110204,11,1,210721,251963,0.18,-1.23,10.90,-0.08,-0.05,-0.00,31.15
2150210,11,1,210790,252307,-0.15,-1.30,10.38,-0.09,0.04,-0.00,31.15
2190204,39,1,210663,251896,0.88,-0.69,10.01,-0.06,-0.10,-0.00,31.15
2230207,478,1,210374,250722,0.03,-1.60,11.40,-0.08,0.07,-0.01,31.15
2270184,777,1,209489,248971,0.04,-1.52,8.60,-0.05,-0.08,-0.04,31.15
2310207,968,1,209557,249841,0.08,-1.38,11.56,-0.03,-0.05,-0.08,31.15
2350215,1181,1,209249,248497,0.08,-1.38,8.66,-0.02,-0.11,-0.01,31.15
2390207,1380,1,209689,249624,-0.14,-1.55,11.68,-0.02,-0.02,-0.02,31.15
2430221,1529,1,209348,247955,0.25,-1.33,8.00,0.00,-0.10,0.00,31.15
2470173,1647,1,209486,248343,0.17,-1.09,10.18,-0.01,-0.00,-0.00,31.15
2510204,1819,1,209390,247231,-0.23,-1.42,7.58,-0.03,0.02,0.00,31.15
2550186,1949,1,209167,247865,0.88,-0.99,9.52,-0.01,-0.05,0.00,31.15
2590184,2163,1,209589,249984,0.27,-0.87,10.08,-0.01,0.04,-0.00,31.15
2630186,2207,1,209900,250657,0.47,-1.34,10.03,-0.00,-0.06,-0.01,31.15
2670204,2226,1,209990,250970,0.20,-0.98,9.41,0.02,-0.02,-0.00,31.15
2710186,2206,1,210202,253119,0.35,-1.98,10.75,0.01,-0.04,-0.00,31.15
2750184,2257,1,210681,252167,0.12,-1.10,9.65,0.01,-0.04,-0.00,31.15
2790186,2230,1,210174,250168,-0.04,-1.40,9.38,0.01,-0.03,0.01,31.15
2828183,2288,1,209925,250573,0.36,-0.90,10.61,0.00,0.03,0.00,31.15
2868153,2305,1,210371,252630,-0.14,-1.04,11.13,0.01,0.04,0.02,31.15
2908173,2301,1,210629,253629,0.48,-0.65,10.05,-0.00,-0.03,-0.00,31.15
2948220,2258,1,210650,249618,0.27,-0.83,11.26,-0.06,0.06,0.02,31.15
2988860,2184,1,208554,246645,0.35,-1.23,10.64,-0.03,-0.02,-0.00,30.53
3029207,2195,1,208110,245920,0.99,-0.23,9.62,-0.07,-0.09,0.03,30.53
3069178,2088,1,208214,247421,0.67,-0.94,11.40,-0.07,-0.00,0.12,30.53
3109182,2112,1,208338,245656,0.95,-0.89,8.77,-0.08,-0.10,0.00,30.53
3150178,2065,1,208626,245495,0.27,-0.91,8.68,-0.09,-0.03,0.33,30.53
3188181,2030,1,209022,246145,0.22,-1.76,9.00,-0.11,0.04,0.14,30.53
3228169,2106,1,209630,246507,0.36,-0.68,7.41,-0.02,-0.02,0.08,30.53
3268181,1991,1,209812,247408,0.73,-1.00,10.04,-0.04,0.03,0.04,30.53
3308168,2002,1,209866,247613,0.14,-1.00,7.99,-0.05,0.07,-0.00,30.53
3348198,2042,1,210041,248967,0.29,-1.08,9.65,-0.01,0.06,0.00,30.53
3388168,2035,1,210377,249294,0.78,-1.17,9.85,-0.07,0.03,-0.01,30.53
3428181,1948,1,210609,250585,-0.07,-1.33,9.59,-0.03,0.06,0.00,30.53
3468179,1980,1,210648,248407,1.10,-0.83,10.02,-0.05,-0.11,-0.01,30.53
3508201,1995,1,211192,248823,0.21,-1.37,9.94,-0.08,0.06,0.29,30.53
3548172,2080,1,211849,249442,0.32,-1.03,9.87,-0.04,0.02,0.07,30.53
3588172,2129,1,211975,253165,-0.15,-1.42,11.36,-0.01,0.07,0.02,30.53
3628182,2251,1,212421,255065,0.06,-0.92,10.18,-0.04,0.03,-0.04,30.53
3668182,2256,1,212540,255592,0.08,-2.30,11.65,-0.03,0.01,-0.01,30.53
3708182,2225,1,211689,250113,-0.32,-0.71,9.39,-0.05,-0.02,-0.07,30.53
3748219,2211,1,209864,248749,-0.05,-1.47,11.85,-0.07,0.02,0.02,30.53
3788182,2215,1,209665,246916,0.42,-0.59,9.36,-0.06,-0.04,-0.01,30.53
3828202,2113,1,209738,248867,0.02,-1.20,10.64,-0.05,0.03,0.01,30.53
3868173,2141,1,210023,248451,0.43,-0.94,9.38,-0.07,-0.01,-0.01,30.53
3908203,2109,1,210228,249281,-0.01,-2.00,10.36,-0.04,-0.04,0.00,30.53
3948199,2081,1,210726,248837,0.06,-1.57,8.59,-0.03,-0.07,-0.00,30.53
3988202,2040,1,210998,249727,-0.23,-1.42,10.47,-0.02,-0.04,0.00,30.53
4028901,1984,1,211290,248715,0.34,-1.07,8.75,-0.02,-0.12,0.00,30.45
4069181,1872,1,211246,251162,-0.32,-1.57,10.82,-0.03,0.02,0.00,30.45
4109182,1854,1,211740,250654,0.05,-0.95,8.94,-0.01,-0.06,-0.04,30.45
4149201,1831,1,211651,250597,-0.17,-1.27,10.47,-0.03,0.00,0.00,30.45
4188184,1814,1,212064,249753,0.68,-1.12,9.16,-0.03,-0.09,-0.01,30.45
4228201,1750,1,211990,250059,0.62,-0.64,11.02,-0.02,-0.06,-0.00,30.45
4268197,1761,1,212193,250256,0.44,-0.87,9.10,-0.03,-0.02,-0.01,30.45
4308201,1781,1,212288,250953,0.39,-1.23,11.12,-0.01,-0.05,-0.01,30.45
4348201,1774,1,212452,250244,0.25,-1.41,9.37,-0.02,-0.09,-0.00,30.45
4388201,1782,1,211847,248174,-0.11,-1.09,9.68,-0.00,0.00,-0.00,30.45
4428198,1843,1,210932,248001,0.58,-0.90,11.41,0.02,-0.09,-0.00,30.45
4468181,1872,1,210481,247023,0.28,-0.47,8.87,-0.02,-0.00,-0.04,30.45
4508198,1755,1,211106,246872,-0.37,-1.20,9.62,-0.02,-0.02,0.07,30.45
4548201,1746,1,210769,247378,0.04,-1.30,11.24,-0.04,0.13,-0.02,30.45
4588178,1774,1,211525,247738,0.72,-0.95,9.72,0.04,-0.15,0.16,30.45
4628172,1792,1,211543,249551,0.04,-1.39,10.23,-0.08,0.10,-0.00,30.45
4668178,1793,1,211766,250968,0.11,-1.77,8.87,-0.02,-0.08,-0.01,30.45
4708202,1840,1,212071,253273,0.87,-0.81,10.77,-0.01,-0.04,-0.01,30.45
4748202,1906,1,212483,254911,-0.45,-1.88,8.64,-0.04,0.01,-0.01,30.45
4788205,1934,1,212669,253178,-0.05,-0.74,8.74,0.01,-0.04,-0.08,30.45
4828197,1898,1,212628,252038,0.50,-1.30,9.71,-0.01,-0.14,0.06,30.45
4868181,1856,1,213167,253105,0.19,-0.95,8.15,-0.05,0.07,-0.00,30.45
4908178,1828,1,213416,254914,-0.11,-1.45,9.19,-0.04,0.08,-0.00,30.45
4948202,1919,1,213639,256356,0.58,-1.14,9.76,-0.03,0.04,-0.01,30.45
4988179,1931,1,213723,257033,0.35,-0.42,10.80,-0.03,0.02,-0.03,30.45
5028181,1936,1,213982,256693,0.41,-1.40,9.27,-0.04,-0.01,-0.01,30.45
5068885,1870,1,213631,253945,0.17,-1.17,11.37,-0.03,0.02,-0.01,30.15
5107181,1903,1,211995,249003,0.34,-1.46,10.48,-0.04,-0.03,-0.01,30.15
5147201,1854,1,211517,247949,0.40,-0.97,9.82,-0.03,-0.09,-0.01,30.15
5187201,1776,1,211548,248681,-0.52,-1.81,10.46,-0.07,0.07,-0.01,30.15
5228201,1822,1,211909,248733,-0.10,-0.91,9.97,-0.01,-0.03,-0.00,30.15
5268215,1808,1,212115,249347,0.35,-1.01,12.09,-0.04,-0.03,-0.01,30.15
5308198,1831,1,212378,251107,-0.25,-1.43,9.87,-0.07,0.03,-0.01,30.15
5348202,1878,1,212652,251369,0.45,-1.22,9.94,-0.06,-0.04,-0.01,30.15
5388202,1911,1,212580,251861,0.04,-1.42,9.87,-0.06,0.01,-0.01,30.15
5428181,1967,1,212749,252886,0.12,-1.14,9.92,-0.05,-0.01,-0.01,30.15
5468202,1971,1,213080,253086,0.25,-1.04,11.01,-0.01,-0.05,-0.06,30.15
5508202,1980,1,213150,253153,0.00,-1.33,9.75,-0.01,-0.08,-0.00,30.15
5548198,1904,1,213362,254221,-0.43,-1.83,10.56,-0.02,0.01,-0.02,30.15
5588201,1901,1,213627,253604,-0.19,-1.88,8.83,0.02,-0.11,-0.00,30.15
5628201,1875,1,213799,253726,-0.01,-1.77,9.60,-0.01,-0.04,-0.01,30.15
5668215,1872,1,214527,253620,0.39,-0.31,8.00,0.01,-0.14,0.01,30.15
5708168,1829,1,214643,255982,0.41,-1.28,10.20,-0.03,0.01,-0.01,30.15
5748181,1904,1,215294,255925,0.94,-0.73,8.53,0.02,-0.11,-0.01,30.15
5788178,1779,1,214458,252995,0.07,-1.66,10.65,-0.02,0.09,-0.03,30.15
5828181,1792,1,212606,248249,0.43,-0.89,9.23,0.04,-0.08,-0.01,30.15
5868178,1685,1,212300,248057,0.31,-1.56,9.11,0.01,-0.01,-0.00,30.15
5908180,1707,1,213097,248255,0.24,-1.17,8.99,0.00,-0.05,0.29,30.15
5948172,1686,1,212868,248551,-0.04,-1.24,9.92,0.00,0.06,0.00,30.15
5986172,1863,1,213159,249294,0.45,-0.88,8.88,0.08,-0.11,-0.01,30.15
6026184,1903,1,213437,253608,-0.07,-1.78,11.28,0.01,0.09,-0.01,30.15
6066181,1958,1,213788,253822,-0.17,-1.19,8.23,0.06,-0.09,-0.01,30.15
6106889,1906,1,213708,254265,1.07,-0.56,11.23,0.02,-0.09,-0.02,29.71
6147182,1895,1,213975,254299,0.11,-1.01,9.31,-0.01,0.02,-0.01,29.71
6187178,1907,1,213871,255113,0.96,-0.65,10.03,-0.00,-0.11,-0.02,29.71
6227202,1890,1,214266,257219,0.28,-0.98,12.59,-0.03,0.10,-0.04,29.71
6267182,1925,1,214587,257685,0.42,-0.57,10.62,0.02,-0.08,-0.02,29.71
6307182,1938,1,214637,258030,-0.07,-1.73,11.48,-0.02,-0.02,-0.04,29.71
6347215,1999,1,214635,258216,0.38,-1.00,10.55,-0.02,-0.11,-0.02,29.71
6387203,2032,1,214615,257867,0.46,-0.85,10.52,-0.04,-0.09,-0.03,29.71
6427199,1997,1,214577,258105,-0.01,-1.44,10.37,-0.06,-0.01,-0.01,29.71
6467220,2000,1,214553,257831,0.79,-0.85,10.07,-0.05,-0.06,-0.02,29.71
6507199,1984,1,214162,255432,0.30,-0.68,10.15,-0.04,0.01,-0.01,29.71
6547183,1989,1,212519,250906,0.88,-1.35,9.52,-0.05,-0.08,-0.02,29.71
6587203,1959,1,211841,250454,0.25,-1.07,8.79,-0.06,-0.03,-0.01,29.71
6627202,1967,1,212149,250646,0.85,-1.58,9.46,-0.03,-0.14,-0.02,29.71
6667202,1930,1,212305,250001,0.48,-0.58,10.18,-0.00,-0.08,-0.01,29.71
6707201,1860,1,212660,249732,0.04,-1.59,8.30,-0.02,-0.05,0.00,29.71
6747178,1776,1,213206,250205,0.68,-0.73,9.23,0.00,-0.07,0.02,29.71
6787172,1728,1,213450,251477,-0.10,-1.98,9.79,-0.02,0.05,0.01,29.71
6827178,1783,1,213777,250410,0.66,-0.40,6.51,0.01,-0.15,0.00,29.71
6867172,1664,1,213706,251349,0.32,-1.33,11.03,-0.09,0.17,-0.01,29.71
6907181,1753,1,214297,251109,0.82,-0.87,7.66,0.04,-0.03,-0.01,29.71
6947181,1753,1,214104,253483,0.70,-0.89,11.86,-0.02,0.11,-0.02,29.71
6987180,1813,1,214414,256689,0.11,-1.70,10.07,0.00,0.14,-0.02,29.71
7027173,1921,1,214391,257266,0.37,-0.73,9.09,0.03,-0.05,-0.19,29.71
7067184,1936,1,214067,257709,-0.09,-2.32,12.40,0.00,0.11,-0.08,29.71
7107873,1857,1,213811,257290,0.05,0.08,8.83,-0.02,-0.03,-0.12,29.49
7146184,1885,1,213782,256480,-0.28,-1.17,12.68,0.04,0.08,-0.04,29.49
7186186,1927,1,212561,250834,1.10,-0.45,10.86,-0.05,-0.10,-0.03,29.49
7226204,1904,1,211483,251190,0.17,-1.35,13.07,-0.06,0.02,-0.02,29.49
7266185,1959,1,211803,251556,1.50,-0.42,8.15,-0.05,-0.23,-0.03,29.49
7306203,1930,1,212697,255212,0.34,-0.52,11.64,-0.10,0.08,-0.02,29.49
7346181,1984,1,213267,253904,0.96,-0.28,8.05,-0.04,-0.15,-0.02,29.49
7386199,1858,1,213340,255661,0.19,-1.30,11.35,-0.08,0.05,-0.02,29.49
7426181,1831,1,213974,254542,0.54,-0.79,8.26,-0.06,-0.07,0.13,29.49
7466179,1678,1,213906,255717,-0.00,-1.71,11.13,-0.07,0.06,0.03,29.49
7506181,1783,1,214512,254793,0.60,-1.33,7.82,0.00,-0.10,0.01,29.49
7546169,1771,1,214253,253616,0.03,-1.23,8.46,-0.06,-0.02,0.06,29.49
7586181,1681,1,214288,254781,0.10,-1.83,10.13,-0.03,0.08,0.04,29.49
7626169,1805,1,214745,254633,1.04,-0.28,8.60,0.02,-0.14,0.12,29.49
7666172,1840,1,214871,255792,-0.26,-1.91,9.82,-0.07,0.19,0.00,29.49
7706181,1877,1,215307,255042,0.63,-0.73,8.64,0.02,-0.03,0.15,29.49
7746172,1867,1,215222,255184,0.19,-1.74,9.52,-0.04,-0.01,-0.00,29.49
7786201,1886,1,215329,254839,0.74,-0.79,9.56,-0.03,-0.06,0.24,29.49
7826181,1941,1,215456,252905,-0.73,-1.97,9.75,-0.06,0.21,0.01,29.49
7866181,1989,1,214037,248797,0.26,-0.04,7.35,0.04,-0.13,0.19,29.49
7906172,1885,1,213907,248556,0.74,-0.84,10.02,-0.11,0.07,0.08,29.49
7946169,2046,1,214215,248434,0.02,-0.83,7.31,-0.04,0.01,0.14,29.49
7986173,2193,1,214274,248708,1.56,-0.21,10.04,-0.04,0.05,-0.01,29.49
8026184,2258,1,214466,248983,0.46,-1.23,8.39,-0.04,0.07,0.04,29.49
8066181,2252,1,214318,249291,1.13,-0.80,9.93,-0.04,0.00,-0.02,29.49
8106178,2194,1,214499,249650,0.29,-0.83,8.25,-0.03,0.00,0.04,29.49
8146859,2196,1,214521,250883,0.66,-0.81,10.87,-0.06,0.09,-0.02,29.51
8185181,2234,1,214594,250200,0.20,-0.68,9.42,-0.03,0.06,-0.01,29.51
8225181,2166,1,214487,250951,0.34,-1.44,10.77,-0.02,0.05,-0.01,29.51
8265181,2150,1,214947,251600,0.17,-0.38,11.20,-0.05,0.10,-0.02,29.51
8305181,2125,1,215177,252711,0.45,-1.76,10.65,-0.04,-0.05,-0.01,29.51
8345201,2102,1,215682,252676,0.71,-0.02,10.38,-0.08,0.05,-0.04,29.51
8385181,1995,1,215464,254905,0.35,-1.08,12.60,-0.07,-0.00,-0.00,29.51
8425198,2029,1,216052,253942,0.79,-0.36,9.88,-0.12,0.06,-0.09,29.51
8465181,1938,1,215768,253133,0.16,-1.72,13.53,-0.06,-0.03,0.07,29.51
8505181,1989,1,215940,250992,-0.41,-1.75,7.86,-0.16,0.12,-0.01,29.51
8545201,1943,1,215010,248394,0.09,-0.88,9.69,-0.08,-0.10,0.23,29.51
8585178,1930,1,214744,247584,0.17,-1.63,8.44,-0.14,0.07,0.17,29.51
8625173,1929,1,215126,247614,0.79,-0.82,8.69,-0.07,-0.01,0.09,29.51
8665178,1916,1,215490,247983,0.64,-1.04,9.52,-0.09,0.08,-0.03,29.51
8705181,1857,1,215925,248785,-0.14,-1.35,10.30,-0.03,0.07,-0.01,29.51
8745201,1904,1,215992,248476,0.65,-0.78,9.06,-0.04,-0.00,-0.02,29.51
8785201,1873,1,215751,248141,-0.13,-1.80,10.91,-0.06,0.06,0.17,29.51
8825181,1809,1,215830,247894,-0.08,-1.20,7.33,-0.08,0.15,0.20,29.51
8865181,1829,1,215875,247130,0.53,-1.40,10.20,-0.03,-0.06,0.24,29.51
8905182,2097,1,215725,245237,0.13,-1.95,8.85,-0.06,0.07,0.23,29.51
8945173,1879,1,216105,246147,0.22,-0.63,9.48,-0.03,0.05,-0.01,29.51
8985178,1930,1,216763,248638,0.02,-1.19,9.51,-0.03,0.11,-0.01,29.51
9025250,1917,1,217385,250279,0.21,-0.72,9.92,-0.02,0.03,-0.08,29.51
9065178,1808,1,217262,250628,0.29,-1.41,10.34,-0.03,-0.02,-0.01,29.51
9105202,1802,1,217436,250385,-0.01,-1.39,9.72,-0.07,0.05,-0.01,29.51
9145199,1813,1,217254,251521,-0.02,-1.47,11.31,-0.02,-0.01,-0.01,29.51
9185905,1872,1,217540,249510,0.04,-0.72,10.54,-0.05,0.04,-0.00,29.59
9226178,1913,1,216195,247371,-0.82,-2.01,11.41,-0.03,0.05,0.02,29.59
9266181,1997,1,215770,246488,-0.45,-1.27,10.27,-0.04,0.07,-0.01,29.59
9306201,2035,1,215741,246967,-0.21,-1.52,12.03,-0.05,-0.05,-0.01,29.59
9344218,2125,1,215745,246694,-0.21,-1.64,9.01,-0.10,0.07,0.01,29.59
9384178,2128,1,215780,247235,-0.05,-1.16,10.10,-0.07,-0.03,-0.01,29.59
9424216,2146,1,216006,246992,0.42,-1.18,9.29,-0.09,0.01,-0.02,29.59
9464179,2145,1,216092,248267,0.08,-1.37,9.85,-0.05,0.01,0.00,29.59
9504173,2110,1,216589,248120,-0.07,-1.41,10.06,-0.05,0.05,-0.02,29.59
9544198,2135,1,215899,247024,-0.41,-1.67,9.14,-0.04,-0.09,-0.00,29.59
9584218,2147,1,215794,247365,-0.08,-1.86,9.19,-0.04,-0.01,-0.01,29.59
9624215,2081,1,215837,247084,-0.16,-1.24,8.94,-0.05,-0.03,-0.01,29.59
9664218,2079,1,215870,248086,0.26,-1.39,9.38,-0.05,-0.03,-0.01,29.59
9704206,1991,1,216243,247495,0.56,-0.74,9.15,-0.05,0.02,-0.02,29.59
9744181,1926,1,216056,248254,-0.17,-1.30,9.61,-0.04,0.01,0.01,29.59
9784178,1879,1,216566,249165,0.37,-1.47,9.93,-0.03,0.01,-0.01,29.59
9824181,1914,1,217008,249911,-0.30,-1.69,10.99,0.00,0.04,0.00,29.59
9864169,1951,1,216168,247405,-0.38,-1.30,10.14,-0.04,0.02,-0.04,29.59
9904216,1956,1,215653,246953,-0.18,-1.57,11.57,-0.04,-0.05,-0.08,29.59
9944215,1977,1,215382,246024,-0.60,-1.32,9.04,-0.04,0.03,-0.03,29.59
9984201,1863,1,215486,246539,-0.90,-2.33,11.60,-0.04,0.04,0.03,29.59
10024195,1833,1,215427,246383,0.66,-0.34,9.35,-0.04,-0.10,-0.02,29.59
10064201,1760,1,215962,248463,-0.30,-1.60,10.67,-0.06,0.04,0.02,29.59
10104182,1869,1,216622,250086,0.04,-1.40,9.48,-0.04,0.00,-0.02,29.59
10144182,1926,1,216958,250443,-0.24,-1.76,10.34,-0.04,-0.05,-0.01,29.59
10184215,2003,1,216789,250038,-0.46,-1.64,9.94,-0.03,-0.03,-0.01,29.59
10224905,1989,1,216463,248329,-0.16,-1.42,9.26,-0.04,-0.05,-0.01,29.57
10265215,1903,1,216302,248420,-0.18,-1.98,10.53,-0.04,-0.02,0.27,29.57
10305202,1742,1,216401,248538,0.18,-1.52,8.50,-0.08,-0.01,0.09,29.57
10345178,1713,1,216961,250975,-0.30,-1.31,9.42,-0.04,0.06,0.01,29.57
10385181,1728,1,217696,252532,0.30,-0.90,8.49,-0.05,-0.02,-0.07,29.57
10425198,1803,1,218166,255511,-0.80,-2.06,10.51,-0.04,0.10,-0.00,29.57
10465202,1872,1,218601,255701,0.30,-0.94,10.30,-0.04,-0.05,-0.09,29.57
10505199,1904,1,217499,249840,-0.75,-1.47,9.88,-0.05,0.03,-0.01,29.57
10545201,1968,1,215719,248099,-0.17,-1.75,9.79,-0.04,-0.02,-0.01,29.57
10585215,1925,1,215490,248182,0.07,-1.09,10.74,-0.02,-0.07,-0.14,29.57
10625201,1995,1,215507,250333,-0.49,-1.46,9.84,-0.06,0.03,-0.01,29.57
10665202,1975,1,216243,251135,0.32,-1.01,10.65,-0.03,-0.03,-0.20,29.57
10705202,1969,1,215986,252085,-0.48,-1.15,10.84,-0.03,-0.02,-0.04,29.57
10745216,2013,1,216495,251817,-0.37,-1.67,9.66,-0.07,-0.01,-0.04,29.57
10785218,2077,1,216361,252218,-0.66,-1.49,12.22,-0.00,-0.02,-0.01,29.57
10825216,2071,1,216044,249571,-0.60,-1.77,9.35,-0.06,0.00,0.01,29.57
10865181,2094,1,215776,250245,-0.67,-2.18,10.75,-0.03,-0.04,-0.00,29.57
10905216,2018,1,216073,249763,-0.55,-1.37,9.40,-0.05,0.04,-0.03,29.57
10945201,2022,1,215797,249066,-0.36,-1.34,9.15,-0.03,-0.07,0.05,29.57
10985201,1890,1,215991,249278,0.07,-1.32,8.98,-0.05,0.04,-0.01,29.57
11023181,2000,1,215772,248466,0.05,-0.23,7.56,-0.03,-0.13,0.08,29.57
11063181,1885,1,215887,248867,0.36,-1.41,9.25,-0.06,0.02,0.10,29.57
11103172,1873,1,216046,248872,0.22,-1.31,9.18,-0.00,-0.02,-0.01,29.57
11143201,1847,1,216058,247917,-0.81,-1.90,9.38,-0.01,0.04,0.02,29.57
11183181,1883,1,215386,245793,-0.25,-1.33,8.78,0.00,-0.00,-0.01,29.57
11223202,1808,1,215123,245743,-0.37,-1.75,10.30,0.01,-0.01,0.02,29.57
11263867,1648,1,215346,246096,-0.25,-1.40,9.48,-0.02,0.04,-0.01,29.63
11304201,1598,1,215725,248158,0.14,-1.32,11.66,0.00,0.01,-0.01,29.63
11344203,1607,1,216083,247688,-0.13,-0.69,9.42,-0.01,0.03,-0.16,29.63
11384201,1655,1,215729,249436,-0.26,-1.95,11.18,-0.01,-0.03,-0.01,29.63
11424219,1758,1,216813,250369,0.11,-1.71,11.72,-0.01,0.02,-0.12,29.63
11464181,1863,1,216171,249572,-0.63,-2.15,9.28,0.01,-0.14,0.21,29.63
11504182,1817,1,216827,251425,-0.40,-2.22,10.68,-0.04,0.03,-0.09,29.63
11544201,1971,1,216369,249921,-0.65,-0.94,7.14,0.01,-0.29,0.07,29.63
11584181,1854,1,217059,252605,-0.50,-1.41,10.68,-0.05,0.07,-0.02,29.63
11624201,2019,1,217223,252119,0.22,-1.17,8.20,-0.04,-0.15,-0.03,29.63
11664202,2000,1,217838,253525,0.13,-0.72,10.04,-0.04,-0.02,-0.11,29.63
11704201,2126,1,217595,251710,-0.27,-1.67,8.28,-0.01,-0.11,-0.02,29.63
11744218,1942,1,217394,251038,0.02,-1.37,10.24,-0.04,-0.05,0.00,29.63
11784178,1983,1,217026,250293,-0.49,-1.04,7.80,-0.05,-0.06,0.08,29.63
11824201,1873,1,216847,247874,0.09,-1.13,9.70,-0.02,0.02,0.03,29.63
11864168,1867,1,216047,246311,-0.26,-1.35,9.99,-0.03,-0.04,0.01,29.63
11904202,1795,1,215790,245769,-0.38,-1.61,8.06,-0.04,0.01,0.08,29.63
11944181,1852,1,215790,245420,-0.16,-1.31,9.93,0.01,-0.07,0.00,29.63
11984181,1911,1,215868,245743,0.09,-1.26,9.03,-0.03,-0.01,0.08,29.63
12024194,1956,1,216184,245708,0.18,-1.15,9.29,-0.01,-0.04,-0.01,29.63
12064201,1922,1,216546,246927,-0.57,-1.97,9.84,-0.01,0.01,0.02,29.63
12104181,1927,1,217007,246828,-0.17,-1.21,9.49,-0.01,-0.03,-0.01,29.63
12144218,1904,1,216955,247669,-0.58,-1.81,10.64,0.01,0.01,0.01,29.63
12183172,1899,1,217463,248196,-0.45,-0.89,9.79,-0.01,0.01,-0.02,29.63
12223201,1867,1,217373,249521,-0.12,-1.65,11.04,-0.00,-0.07,-0.01,29.63
12263215,1884,1,218055,251364,0.15,-1.21,9.77,-0.03,0.02,-0.01,29.63
12303867,1955,1,218367,253717,-0.36,-1.50,10.45,-0.01,-0.00,-0.03,29.39
12344215,2079,1,218718,254158,-0.22,-1.13,9.75,-0.02,0.01,-0.10,29.39
12384201,2138,1,218414,254155,-0.85,-1.71,10.95,-0.02,-0.04,-0.01,29.39
12424215,2147,1,218229,250937,-0.31,-1.55,9.33,-0.03,-0.03,-0.01,29.39
12464218,2008,1,216632,247312,-0.15,-1.36,12.17,-0.01,-0.07,0.03,29.39
12504201,1841,1,215820,245054,-0.24,-1.50,8.01,-0.06,0.03,-0.01,29.39
12544201,1703,1,214964,240499,-0.12,-1.28,9.11,-0.08,-0.02,0.40,29.39
12584201,1666,1,213313,231940,-0.12,-1.30,7.67,-0.09,-0.01,0.22,29.39
12624201,1715,1,211354,233225,-0.01,-0.67,9.89,-0.02,0.04,0.19,29.39
12664178,1734,1,216331,245198,-0.18,-1.34,9.59,0.06,0.11,-0.00,29.39
12704181,1846,1,218098,250161,-0.05,-1.28,9.52,0.00,0.01,-0.07,29.39
12744178,2025,1,219364,253220,0.41,-1.68,10.38,0.05,-0.04,-0.28,29.39
12782181,2223,1,219045,251065,-1.09,-1.15,9.36,-0.00,-0.01,-0.12,29.39
12822215,2170,1,218073,249193,-0.93,-1.59,10.28,-0.04,0.05,-0.01,29.39
12862201,2188,1,217832,248879,0.56,-0.59,10.39,-0.01,-0.13,-0.01,29.39
12902201,2033,1,217952,249753,0.64,-0.96,9.56,-0.04,-0.04,0.02,29.39
12942181,1893,1,219200,254443,-0.34,-1.31,11.09,-0.04,0.13,-0.00,29.39
12982250,1862,1,220156,256611,0.06,-1.23,12.04,0.00,-0.04,-0.19,29.39
13022187,1829,1,220496,258099,-0.46,-1.35,12.92,-0.02,-0.01,-0.08,29.39
13062215,1840,1,220473,255567,-0.36,-1.71,10.79,-0.08,-0.07,-0.03,29.39
13102218,1765,1,218834,249338,-0.79,-1.92,11.55,-0.10,0.00,0.00,29.39
13142178,1803,1,217408,249446,0.59,-0.85,9.66,-0.09,-0.05,0.02,29.39
13182214,1786,1,218085,251049,0.49,-1.46,10.89,-0.11,-0.01,-0.08,29.39
13222201,1875,1,218386,256160,0.23,-1.55,11.19,-0.07,-0.07,-0.01,29.39
13262202,2085,1,219401,255921,0.47,-0.28,9.20,-0.02,-0.06,-0.38,29.39
13302201,2155,1,219075,258432,-0.12,-1.73,12.18,-0.01,-0.14,0.00,29.39
13342888,2190,1,219742,257338,-0.44,-1.43,8.35,-0.09,-0.00,-0.15,29.35
13383234,2078,1,219371,257310,-0.63,-1.73,11.54,0.03,-0.14,0.01,29.35
13423181,1887,1,219717,254137,0.94,-1.86,8.61,-0.04,-0.10,-0.01,29.35
13463201,1793,1,218910,254162,0.84,-1.76,10.83,0.01,-0.11,0.35,29.35
13503173,1886,1,219359,252738,1.58,-0.01,6.88,0.03,-0.15,-0.02,29.35
13543181,1825,1,219389,256463,1.51,-1.87,12.59,0.06,-0.13,0.11,29.35
13583172,1970,1,220197,256312,1.41,-0.80,7.12,0.03,-0.07,-0.03,29.35
13623181,1877,1,220276,258662,-0.47,-2.52,12.07,0.04,-0.01,0.02,29.35
13663180,1965,1,220595,257450,0.45,-0.52,7.41,0.04,-0.09,-0.02,29.35
13703178,1856,1,220625,257430,-0.25,-1.94,11.60,0.03,-0.05,0.19,29.35
13743181,1744,1,220555,253639,0.06,-1.05,7.86,0.02,-0.01,0.20,29.35
13783168,1711,1,219409,253155,1.05,-0.90,11.73,0.02,-0.04,0.03,29.35
13823172,1659,1,219845,256287,0.53,-1.24,9.18,0.03,0.03,0.00,29.35
13863150,1652,1,220196,259095,0.27,-1.24,11.48,0.03,-0.02,-0.10,29.35
13903181,1712,1,220513,260430,-0.04,-1.85,11.37,0.02,-0.00,-0.08,29.35
13943201,1779,1,220650,260257,0.81,-0.83,11.04,0.01,-0.17,-0.02,29.35
13983181,1751,1,220775,259977,-0.20,-1.19,9.93,-0.04,0.02,0.00,29.35
14023178,1703,1,220839,259278,0.55,-0.35,9.09,-0.05,-0.07,0.14,29.35
14063181,1711,1,221004,259264,0.65,-0.55,8.82,-0.08,0.00,0.09,29.35
14103168,1712,1,221289,261429,1.37,-0.82,11.00,-0.06,-0.02,0.06,29.35
14143181,1696,1,221361,261925,0.85,-0.86,10.40,-0.04,-0.01,-0.15,29.35
14183201,1789,1,221234,261916,0.30,-0.79,11.51,-0.05,-0.02,-0.06,29.35
14223201,1798,1,221123,261347,0.25,-1.22,9.52,-0.07,0.00,-0.14,29.35
14263181,1746,1,221690,261390,0.18,-1.12,10.89,-0.07,-0.00,0.03,29.35
14303181,1792,1,221845,261829,0.27,-1.38,9.31,-0.10,0.11,-0.00,29.35
14343868,1808,1,221866,262121,0.91,-0.86,10.03,-0.04,-0.03,0.05,29.11
14382181,1872,1,221514,262141,0.45,-1.30,8.67,-0.10,0.07,-0.01,29.11
14422181,1794,1,221397,261797,0.21,-1.41,9.69,-0.02,0.03,0.01,29.11
14462172,1846,1,220900,261427,0.44,-1.65,9.43,-0.02,-0.02,-0.23,29.11
14502201,1902,1,220826,261378,-0.06,-1.10,9.40,-0.01,-0.01,-0.00,29.11
14542216,1927,1,221059,260741,0.38,-1.47,9.61,-0.05,-0.03,0.00,29.11
14582181,1936,1,221052,260335,0.28,-1.19,9.96,-0.05,0.04,0.00,29.11
14622181,1997,1,221311,259889,0.43,-0.99,8.95,-0.05,0.00,0.02,29.11
14662168,2013,1,221433,258898,0.11,-0.89,9.93,-0.05,0.11,-0.00,29.11
14702181,2028,1,220970,257003,0.29,-1.25,9.67,-0.03,0.07,0.05,29.11
14742172,2064,1,220592,255489,0.15,-1.08,10.04,-0.02,0.01,0.01,29.11
14782173,2091,1,220849,258262,-0.39,-1.96,10.98,-0.03,0.10,0.03,29.11
14822221,2135,1,221265,257735,0.44,-0.94,9.40,-0.02,-0.05,-0.02,29.11
14862201,2160,1,221184,259353,-0.62,-2.06,10.35,-0.07,0.02,0.00,29.11
14902178,2186,1,221777,259667,0.35,-0.73,9.96,-0.03,-0.01,-0.10,29.11
14942201,2192,1,221613,260480,0.26,-1.01,11.10,-0.03,-0.03,-0.01,29.11
14982201,2287,1,221954,260057,0.11,-0.64,9.48,-0.04,0.03,-0.10,29.11
15022217,2212,1,221183,257010,-0.16,-1.55,10.86,-0.02,-0.06,0.00,29.11
15062201,2235,1,219873,251190,-0.20,-1.31,9.59,-0.05,0.01,-0.00,29.11
15102201,2240,1,218650,249886,-0.10,-1.85,9.44,-0.04,-0.01,0.23,29.11
15142201,2192,1,218579,249529,-0.04,-1.20,8.82,-0.06,0.01,0.00,29.11
15182181,2194,1,218489,250123,-0.01,-1.42,8.93,-0.05,-0.02,0.09,29.11
15222201,2142,1,218863,250135,0.40,-0.90,9.98,-0.04,0.02,-0.00,29.11
15261181,2015,1,218824,252546,0.16,-1.41,9.66,-0.03,-0.01,0.01,29.11
15301181,1903,1,219865,252470,0.25,-1.15,10.32,-0.01,-0.00,-0.08,29.11
15341201,1783,1,218976,251267,-0.37,-1.44,10.15,-0.00,-0.08,0.04,29.11
15381888,1682,1,219384,251557,-0.42,-1.99,9.22,-0.04,0.07,0.00,29.37
15422181,1655,1,219284,253021,-0.44,-1.73,10.77,-0.01,-0.04,0.00,29.37
15462201,1653,1,220185,254686,0.05,-1.09,9.51,-0.03,0.05,-0.01,29.37
15502181,1664,1,220202,256234,0.08,-1.31,10.71,-0.02,-0.07,-0.01,29.37
15542201,1714,1,220680,254836,0.04,-1.28,9.03,-0.05,-0.03,-0.04,29.37
15582201,1678,1,219787,255149,-0.08,-1.16,10.26,-0.01,-0.01,0.07,29.37
15622201,1698,1,221026,256186,-0.29,-1.47,9.53,-0.02,0.05,-0.01,29.37
15662202,1671,1,219953,253037,-0.21,-2.04,9.97,0.00,-0.09,0.10,29.37
15702178,1665,1,219117,249888,-0.33,-1.44,9.39,-0.03,0.02,-0.01,29.37
15742201,1663,1,218235,249585,-0.27,-1.40,10.13,0.01,-0.07,0.00,29.37
15782181,1713,1,218524,249551,0.00,-1.06,9.39,-0.04,0.03,-0.00,29.37
15822181,1744,1,218081,248863,0.14,-0.69,8.68,-0.02,-0.12,0.08,29.37
15862181,1763,1,218226,249462,0.48,-1.00,9.81,-0.04,-0.05,0.05,29.37
15902181,1793,1,218213,249152,-0.16,-0.51,8.24,-0.03,-0.08,0.06,29.37
15942201,1814,1,218692,251319,-0.12,-1.75,9.98,-0.03,0.06,0.03,29.37
15982181,1872,1,219024,250017,0.32,-0.49,9.50,-0.02,-0.07,-0.01,29.37
16022212,1887,1,218654,250708,-0.02,-1.22,10.89,-0.05,-0.01,0.03,29.37
16062204,1904,1,218994,250659,0.65,-1.29,9.64,-0.07,-0.05,-0.01,29.37
16102201,1933,1,219792,253998,-0.14,-1.59,11.60,-0.04,0.06,0.00,29.37
16142181,1962,1,219971,252593,0.54,-0.66,9.10,-0.04,-0.09,-0.01,29.37
16182199,1952,1,220368,256974,-0.94,-1.48,10.95,-0.05,0.14,0.01,29.37
16222181,2041,1,221099,256007,0.62,-1.24,9.33,-0.03,-0.09,-0.03,29.37
16261204,2055,1,221055,258966,-0.74,-1.67,12.28,-0.04,0.09,0.01,29.37
16301181,2113,1,221326,253815,0.13,-0.61,8.16,-0.04,-0.01,-0.08,29.37
16341201,2091,1,218824,249847,-0.01,-1.63,12.14,-0.03,-0.06,0.04,29.37
16381888,2094,1,218530,248680,0.33,-1.26,8.42,-0.07,-0.03,-0.01,29.29
16422201,2087,1,218401,250572,0.23,-1.81,12.00,-0.00,-0.03,0.12,29.29
16462181,2106,1,218928,249603,0.09,-1.47,7.69,-0.05,-0.02,-0.01,29.29
16502201,2070,1,218592,251769,-0.29,-2.12,10.93,-0.02,-0.03,0.06,29.29
16542202,2115,1,219603,251074,-0.17,-1.34,8.31,-0.03,0.05,-0.01,29.29
16582201,2046,1,218705,251082,0.07,-1.73,10.77,-0.02,-0.05,0.18,29.29
16622181,1985,1,218956,249885,0.60,-1.04,7.05,-0.06,-0.04,-0.01,29.29
16662198,1951,1,218635,251399,0.32,-1.25,10.74,-0.01,-0.04,0.16,29.29
16702181,1925,1,219305,250603,1.06,-0.73,8.03,-0.02,-0.03,-0.01,29.29
16742198,1815,1,219444,254262,-0.29,-1.69,11.65,0.00,0.02,0.01,29.29
16782173,1858,1,220774,255350,0.13,-0.44,8.89,0.01,0.04,-0.16,29.29
16822172,1859,1,220497,255314,-0.48,-1.39,11.45,0.01,-0.03,0.00,29.29
16862181,1776,1,220424,253949,0.34,-1.16,9.72,-0.04,-0.02,-0.01,29.29
16902201,1730,1,220138,255091,0.04,-1.47,10.32,-0.02,-0.01,-0.00,29.29
16942201,1759,1,221552,257754,0.28,-0.91,10.34,-0.03,0.01,-0.01,29.29
16982181,1749,1,220921,255942,-0.05,-0.86,11.17,-0.02,0.02,-0.01,29.29
17022212,1753,1,220430,256345,0.29,-1.34,11.21,-0.01,0.00,-0.16,29.29
17062181,1781,1,220473,257954,0.03,-0.90,11.83,-0.00,-0.10,-0.10,29.29
17102201,1783,1,220842,257407,-0.80,-1.90,11.46,-0.06,0.00,-0.08,29.29
17140199,1854,1,219964,254239,0.30,-0.72,9.76,-0.01,-0.21,-0.01,29.29
17180201,1892,1,220630,258147,-0.28,-1.95,11.82,-0.10,0.06,-0.01,29.29
17220201,1985,1,221137,260437,-0.16,-0.81,8.78,-0.04,-0.10,-0.00,29.29
17260216,2064,1,221491,260474,0.56,-1.05,10.26,-0.05,-0.12,-0.24,29.29
17300201,2112,1,221408,260663,-0.05,-0.99,8.58,-0.02,-0.14,-0.01,29.29
17340219,2046,1,221554,259630,-0.13,-1.51,8.99,-0.06,-0.00,-0.03,29.29
17380215,2080,1,221512,260020,-0.35,-1.00,8.83,0.03,-0.07,0.02,29.29
17420867,1999,1,221973,259740,0.12,-1.62,8.45,-0.03,-0.01,-0.01,29.15
17461201,1907,1,221719,258412,-0.35,-1.29,8.50,-0.01,-0.02,0.02,29.15
17501201,1819,1,221509,257699,0.69,-0.44,7.94,-0.01,-0.07,0.09,29.15
17541181,1823,1,221233,256970,0.29,-1.24,8.12,-0.01,0.03,0.25,29.15
17581173,1782,1,221684,259557,0.65,-1.71,9.95,0.00,0.02,0.12,29.15
17621150,1717,1,221965,256087,0.63,-0.12,11.43,0.06,-0.02,-0.12,29.15
17661181,1506,1,220074,252868,-0.31,-1.63,11.19,0.02,-0.05,0.00,29.15
17701181,1444,1,219780,252670,-0.16,-0.65,11.55,-0.01,0.01,-0.00,29.15
17741201,1616,1,219646,251737,-0.38,-0.75,12.22,0.00,-0.04,0.01,29.15
17781181,1693,1,219253,250760,-0.01,0.23,10.94,-0.05,-0.09,0.06,29.15
17821181,1575,1,219317,251838,0.47,-0.88,13.32,-0.17,0.07,0.22,29.15
17861172,1576,1,219490,252020,-0.04,-0.28,7.53,-0.11,-0.01,0.03,29.15
17901202,1641,1,220292,260010,-0.05,-0.88,15.13,-0.14,0.14,0.03,29.15
17941181,1665,1,220307,258332,0.09,-0.20,6.68,-0.05,0.03,-0.54,29.15
17981181,1730,1,219267,257744,0.48,-1.50,12.11,-0.14,-0.19,0.08,29.15
18021181,1918,1,219579,255823,-0.09,-0.21,6.11,-0.16,-0.03,0.04,29.15
18061201,1994,1,220057,256052,0.64,-1.50,10.36,-0.10,0.02,0.45,29.15
18101183,1994,1,220402,256285,1.10,-0.74,8.19,-0.06,-0.04,-0.05,29.15
18141201,2106,1,220247,256488,0.32,-0.31,7.58,0.01,0.05,0.06,29.15
18181149,2243,1,219906,253588,0.66,-1.67,7.07,-0.02,-0.01,-0.04,29.15
18221201,2330,1,218794,250034,-0.34,-1.24,6.99,-0.02,0.07,0.48,29.15
18261181,2452,1,218485,248596,0.08,-0.48,5.84,-0.03,0.22,0.27,29.15
18301185,2373,1,219367,247300,0.29,-1.32,9.52,-0.02,0.06,0.37,29.15
18341172,2333,1,218648,244217,0.01,-0.39,6.24,0.05,0.09,0.01,29.15
18381151,2210,1,218718,246211,-0.27,-0.57,10.81,0.06,0.09,0.05,29.15
18421858,2254,1,219683,247815,-0.53,-0.99,8.36,0.03,0.10,0.01,29.85
18460172,2159,1,220244,250979,0.23,-0.96,11.39,0.05,0.04,0.01,29.85
18500150,2153,1,221140,253533,-0.39,-1.01,11.24,0.03,0.09,-0.13,29.85
18540181,2151,1,221151,255886,-0.56,-0.55,11.48,0.06,-0.00,-0.11,29.85
18580202,2160,1,222371,258910,0.76,-1.18,16.49,0.05,-0.12,-0.35,29.85
18620182,2063,1,222509,260353,-1.68,-1.15,13.65,0.05,-0.09,-0.26,29.85
18660202,2015,1,222634,260751,-1.71,-1.58,14.11,-0.08,-0.14,-0.22,29.85
18700218,1986,1,222660,260830,-1.69,-1.31,14.08,-0.07,-0.10,-0.10,29.85
18740215,2029,1,222616,260703,0.11,-0.85,11.37,-0.09,-0.21,-0.02,29.85
18780201,1743,1,222496,261221,0.10,-0.01,11.29,-0.11,-0.11,-0.02,29.85
18820201,1746,1,222430,260793,0.28,-0.84,9.30,-0.11,-0.17,-0.02,29.85
18860201,1735,1,221358,255443,0.76,-0.60,7.91,-0.08,-0.22,-0.02,29.85
18900201,1658,1,220856,258606,-0.07,-1.26,9.92,-0.13,0.02,0.01,29.85
18940181,1696,1,220893,256249,0.41,-1.06,5.95,-0.07,-0.22,-0.04,29.85
18980201,1800,1,220911,258467,0.04,-1.42,9.28,-0.09,0.03,-0.00,29.85
19020181,1862,1,221309,257374,0.33,-0.46,7.62,-0.02,-0.07,-0.01,29.85
19060201,1856,1,221318,258577,0.90,-0.83,9.39,0.02,-0.12,-0.01,29.85
19100181,1741,1,221942,257613,0.32,-0.79,8.97,-0.02,0.00,-0.04,29.85
19140178,1712,1,221027,254633,0.06,-0.96,8.67,0.04,-0.01,-0.04,29.85
19180181,1821,1,220541,253223,0.68,-0.74,10.32,0.02,-0.01,-0.07,29.85
19220181,1857,1,220239,255263,0.66,-1.28,9.47,0.05,0.01,0.02,29.85
19260150,1989,1,221348,256552,0.65,-0.88,9.97,0.04,0.00,-0.06,29.85
19300169,1984,1,221359,260205,-0.03,-1.20,10.85,0.03,-0.06,0.02,29.85
19340181,2131,1,222413,260788,0.14,-0.58,9.66,0.03,-0.02,-0.14,29.85
19380181,2115,1,222259,261039,0.52,-0.31,12.33,0.04,-0.12,0.01,29.85
19420173,2098,1,222723,261231,-0.11,-0.92,11.55,-0.03,0.07,0.00,29.85
19460865,2103,1,222109,255986,0.05,0.04,9.68,-0.04,-0.07,0.17,29.31
19499172,2128,1,220234,250796,0.68,-0.70,12.03,-0.14,0.03,-0.01,29.31
19539181,2112,1,219100,249487,-0.57,0.19,6.95,-0.10,0.04,0.10,29.31
19579172,1984,1,219319,250555,0.84,-0.74,10.72,-0.14,0.10,-0.14,29.31
19619181,1634,1,219468,252670,0.45,-0.00,7.66,-0.12,0.02,-0.11,29.31
19659181,1365,1,220926,256707,0.22,-1.41,10.10,-0.14,0.17,-0.07,29.31
19699181,1232,1,220682,254737,1.11,-0.60,7.09,-0.06,-0.15,-0.02,29.31
19739205,1142,1,221309,258612,0.19,-1.45,9.72,-0.13,0.19,0.02,29.31
19779172,1177,1,221213,254562,0.94,0.24,6.22,-0.03,-0.06,-0.01,29.31
19819181,1235,1,220808,257211,0.71,-1.20,11.48,-0.08,0.15,0.05,29.31
19859172,1361,1,220984,254386,0.89,-0.18,7.75,-0.01,0.02,-0.03,29.31
19899181,1414,1,220817,257889,0.38,-1.66,12.10,-0.05,0.11,0.02,29.31
19939173,1569,1,221471,257277,0.83,-0.06,8.71,0.03,-0.03,-0.21,29.31
19979181,1584,1,221203,257665,0.17,-1.26,9.96,-0.06,0.05,0.01,29.31
20019172,1680,1,221386,257701,-0.50,-1.35,9.74,-0.05,0.14,0.01,29.31
20059181,1790,1,221507,259734,-0.18,-1.61,11.42,0.01,0.08,-0.09,29.31
20099181,1981,1,221829,260688,0.40,-0.41,11.46,0.02,0.02,-0.42,29.31
20139173,2175,1,220724,256788,-0.59,-0.89,12.12,-0.04,-0.01,-0.06,29.31
20179215,2342,1,219178,252247,-0.12,-1.37,11.25,-0.05,0.00,-0.09,29.31
20219201,2359,1,217879,249323,0.20,-1.05,11.30,-0.05,-0.11,0.00,29.31
20259178,2251,1,218392,249791,-0.47,-1.71,11.04,-0.09,0.03,0.01,29.31
20299181,2208,1,218190,248782,0.18,-0.53,8.80,-0.05,-0.13,0.01,29.31
20339179,2180,1,218848,251550,-0.19,-2.33,11.75,-0.06,-0.00,0.07,29.31
20379201,2242,1,219528,251631,0.34,-1.02,8.26,-0.05,-0.08,0.00,29.31
20419178,2239,1,219759,254700,-0.38,-1.81,10.11,-0.03,-0.05,0.01,29.31
20459201,2223,1,220325,252949,0.03,-0.57,7.60,-0.03,-0.03,-0.10,29.31
20499884,2145,1,219144,251447,-0.09,-1.18,9.05,-0.01,-0.10,0.02,29.05
20540201,2121,1,219325,252401,0.76,-0.82,7.75,-0.03,0.00,0.01,29.05
20580168,2096,1,220378,257434,0.16,-1.26,9.91,-0.02,0.02,0.01,29.05
20620172,2180,1,221281,258766,0.94,-0.01,7.74,-0.01,-0.05,-0.13,29.05
20660201,2253,1,221657,260907,0.00,-1.54,10.76,-0.00,0.02,0.02,29.05
20700172,2286,1,221875,260656,0.04,-0.61,8.37,0.00,-0.03,-0.02,29.05
20740178,2302,1,221962,262143,-0.31,-1.22,12.05,0.03,-0.01,0.02,29.05
20780181,2274,1,221953,258896,0.02,-0.98,9.65,0.02,0.01,-0.02,29.05
20820169,2201,1,219072,251407,-0.12,-1.47,12.09,0.03,-0.08,0.04,29.05
20860181,1994,1,218279,250710,0.61,-0.82,10.09,0.01,-0.03,0.05,29.05
20900169,1874,1,218884,254706,-0.32,-1.47,12.34,0.01,-0.05,0.03,29.05
20940181,1802,1,219937,257212,0.85,-1.05,10.16,-0.01,-0.10,0.01,29.05
20980181,1761,1,220184,255949,0.46,-0.71,10.81,-0.03,-0.14,0.01,29.05
21020181,1727,1,219947,255903,0.91,-0.79,9.91,-0.05,-0.07,0.13,29.05
21060181,1755,1,220466,256739,0.76,-0.32,10.41,-0.05,-0.06,0.02,29.05
21100181,1750,1,220967,259119,0.09,-1.07,10.42,-0.03,0.03,0.03,29.05
21138169,1762,1,221118,258882,0.99,-0.26,10.32,-0.03,-0.14,0.02,29.05
21178181,1691,1,221315,260190,-0.10,-1.62,9.24,-0.06,0.00,0.03,29.05
21218178,1723,1,221459,260172,0.79,-0.80,8.25,-0.04,-0.09,0.02,29.05
21258181,1697,1,221843,262143,0.23,-1.41,10.44,-0.06,0.01,0.07,29.05
21298171,1693,1,221945,261752,1.36,0.13,8.03,-0.02,-0.14,0.02,29.05
21338172,1677,1,222125,261655,1.06,-0.61,9.52,-0.07,0.07,0.02,29.05
21378197,1697,1,222019,260197,0.88,-0.19,8.69,-0.04,0.02,0.08,29.05
21418172,1727,1,220996,252476,0.51,-0.63,8.40,-0.06,0.02,0.16,29.05
21458169,1723,1,218672,249207,0.44,-1.40,7.52,-0.05,0.08,0.29,29.05
21498172,1689,1,218602,249086,1.52,-0.73,10.94,-0.01,0.02,0.02,29.05
21538859,1693,1,218463,248793,1.44,-0.57,7.74,0.07,-0.09,0.09,28.71
21579173,1743,1,218802,249536,1.30,-0.68,10.81,-0.02,0.08,0.07,28.71
21619172,1663,1,218798,248873,1.12,-0.32,7.52,0.08,-0.09,0.10,28.71
21659172,1488,1,218470,248740,1.13,-0.18,10.28,0.00,-0.01,0.29,28.71
21699172,1392,1,218523,248396,0.72,-0.33,8.27,-0.01,0.05,0.20,28.71
21739172,1282,1,219038,247819,0.68,0.08,8.79,0.00,0.01,0.38,28.71
21779130,1250,1,218832,246785,1.98,-0.32,11.31,-0.01,-0.01,0.01,28.71
21819181,1373,1,219095,250476,1.19,-0.65,11.12,0.02,0.02,0.13,28.71
21859150,1439,1,220843,256040,1.05,-0.45,10.49,0.03,-0.06,-0.44,28.71
21899181,1651,1,221319,260370,1.93,0.34,12.60,0.01,-0.19,0.03,28.71
21939152,1882,1,222190,262143,0.15,-1.50,11.80,-0.09,-0.01,-0.01,28.71
21979203,2038,1,221618,261330,2.49,1.36,9.40,0.02,-0.31,-0.01,28.71
22019173,2006,1,221752,261836,0.69,-0.59,12.46,-0.11,0.17,0.06,28.71
22059173,2128,1,221648,261980,1.42,-0.24,10.27,-0.04,-0.09,0.06,28.71
22099182,2086,1,221347,259911,1.57,-1.01,12.06,-0.03,-0.10,-0.14,28.71
22139202,2138,1,219796,256686,1.60,0.01,8.75,-0.04,-0.14,0.05,28.71
22179169,2028,1,220382,258164,0.90,-0.66,10.18,-0.09,-0.02,-0.13,28.71
22219201,2162,1,220119,255467,2.09,-0.15,7.31,0.00,-0.36,0.04,28.71
22259169,2015,1,220714,258409,1.29,-0.91,12.25,-0.14,0.16,0.02,28.71
22299172,2064,1,221222,257713,2.00,-0.34,7.29,0.02,-0.26,0.03,28.71
22339172,2084,1,221310,259529,0.38,-2.09,11.05,-0.10,0.20,-0.03,28.71
22379182,2336,1,220994,259266,1.21,-1.40,6.80,0.00,-0.05,0.02,28.71
22419173,2430,1,221278,260384,1.00,-1.85,11.12,-0.05,0.08,-0.16,28.71
22459186,2483,1,220664,259478,0.78,-0.77,7.50,-0.01,0.03,-0.06,28.71
22499184,2590,1,220530,257547,0.98,-0.21,9.55,-0.02,0.09,-0.27,28.71
22539873,2623,1,219985,258825,1.58,-0.15,11.05,-0.02,0.01,0.03,28.75
22578173,2655,1,220330,258555,1.06,-0.91,8.10,-0.03,0.02,0.00,28.75
22618173,2611,1,220832,260450,0.79,-0.74,11.84,-0.07,0.16,0.03,28.75
22658173,2602,1,220431,258953,1.10,-0.37,9.20,-0.05,0.03,0.01,28.75
22698173,2480,1,220488,258791,0.12,-0.88,11.67,-0.08,0.12,0.03,28.75
22738173,2454,1,219577,255554,0.48,-0.87,10.01,-0.07,0.05,0.03,28.75
22778173,2336,1,219465,257585,0.35,-0.93,12.00,-0.07,0.08,0.03,28.75
22818173,2322,1,219747,256201,0.42,-0.27,10.38,-0.10,0.03,-0.16,28.75
22858181,2256,1,219731,258197,-0.67,-1.36,11.32,-0.11,0.08,0.03,28.75
22898181,2123,1,220077,254378,1.31,-0.37,9.16,-0.10,-0.04,0.02,28.75
22938181,1921,1,220032,255619,-0.09,-1.66,12.00,-0.11,0.08,0.16,28.75
22978181,1745,1,220382,253373,1.41,-0.96,8.04,-0.10,0.05,0.01,28.75
23018173,1664,1,220618,256096,-0.17,-1.30,12.48,-0.09,0.16,0.04,28.75
23058181,1668,1,220714,256010,1.37,-0.76,7.77,-0.04,-0.08,-0.01,28.75
23098201,1587,1,221704,260342,-0.58,-2.39,13.29,-0.08,0.20,-0.01,28.75
23138201,1571,1,221665,258500,0.16,-1.18,7.33,-0.05,-0.01,-0.00,28.75
23178201,1648,1,221313,257667,0.05,-0.44,11.40,-0.03,-0.04,0.02,28.75
23218211,1808,1,221357,256739,-0.52,-1.80,9.14,-0.09,0.02,0.15,28.75
23258181,1871,1,221973,258855,-0.77,-1.90,10.79,-0.04,0.06,0.07,28.75
23298181,1936,1,222584,260119,0.47,-1.43,10.72,-0.04,0.01,0.03,28.75
23338173,1969,1,222385,256409,-0.19,-1.21,9.33,-0.06,-0.02,0.04,28.75
23378201,1962,1,219984,252395,0.24,-1.53,9.83,-0.03,-0.01,0.05,28.75
23418192,2034,1,219645,251730,0.35,-1.40,9.19,-0.04,-0.04,0.06,28.75
23458181,2041,1,219782,254571,-0.09,-1.38,11.07,0.02,-0.05,0.03,28.75
23498181,2091,1,220761,254725,-0.11,-1.09,9.27,-0.03,-0.04,-0.00,28.75
23538214,2096,1,220203,255544,-0.20,-1.59,11.65,0.04,-0.12,0.03,28.75
23578868,1961,1,221187,254636,0.23,-1.15,9.96,-0.03,-0.05,0.05,28.77
23617181,1785,1,220117,253381,-0.57,-1.22,10.69,0.04,-0.08,0.07,28.77
23657181,1666,1,220324,252204,0.51,-0.39,9.62,-0.02,-0.07,0.03,28.77
23697181,1523,1,219765,253288,0.23,-0.99,10.24,-0.00,-0.07,0.37,28.77
23737181,1389,1,220628,254521,1.61,-0.57,9.43,-0.04,-0.11,0.03,28.77
23777181,1297,1,221345,259651,0.78,-0.53,11.33,0.00,-0.08,0.04,28.77
23817172,1247,1,222391,261769,0.66,-0.68,9.82,-0.01,-0.02,-0.11,28.77
23857201,1328,1,222345,262143,0.70,-0.19,10.44,0.04,-0.20,0.01,28.77
23897172,1457,1,222262,261822,0.01,-1.28,10.17,-0.02,-0.07,0.03,28.77
23937181,1522,1,221956,259351,0.79,-0.41,8.74,-0.00,-0.20,0.17,28.77
23977181,1461,1,220385,253168,-0.10,-1.67,9.57,-0.04,0.02,0.05,28.77
24017181,1258,1,218788,251415,0.89,-0.10,8.26,-0.02,-0.12,0.31,28.77
24057181,1264,1,218959,251023,0.69,-0.97,8.54,-0.07,-0.00,0.04,28.77
24097178,1266,1,219137,253024,1.24,-0.46,8.87,-0.02,-0.05,0.22,28.77
24137181,1270,1,220228,254915,1.27,-0.92,9.41,-0.03,0.02,0.01,28.77
24177172,1282,1,220484,257915,1.11,0.05,9.07,0.03,-0.03,0.03,28.77
24217151,1358,1,221537,259528,1.25,-0.67,10.54,-0.02,0.01,-0.10,28.77
24258181,1447,1,221542,259587,0.82,-0.67,10.63,0.02,-0.05,0.03,28.77
24298172,1595,1,221493,257342,1.23,-0.87,11.02,-0.05,-0.09,0.02,28.77
24338181,1695,1,220839,256058,0.23,-0.66,9.10,-0.03,0.02,0.04,28.77
24378172,1773,1,220802,255361,0.50,-0.54,9.71,-0.04,0.06,0.03,28.77
24418168,1825,1,220689,257920,0.85,-0.63,12.13,-0.02,0.02,0.10,28.77
24458172,1875,1,221439,259325,1.44,0.11,9.27,-0.03,-0.07,0.03,28.77
24498172,1863,1,222041,261999,0.71,-0.60,11.97,-0.07,0.13,0.03,28.77
24538172,1904,1,222212,261364,1.30,-0.51,8.72,-0.06,-0.12,0.04,28.77
24578181,1918,1,221634,258463,0.83,-0.90,10.61,-0.11,0.05,0.03,28.77
24618859,1920,1,219943,252197,1.19,0.02,9.40,-0.05,-0.06,0.03,28.59
24657178,1920,1,218914,252557,1.03,-1.10,10.13,-0.07,0.02,0.05,28.59
24697172,1983,1,219306,251987,0.79,-0.48,9.08,-0.10,0.01,0.04,28.59
24737168,1997,1,219298,253333,0.25,-1.25,9.19,-0.08,0.05,0.05,28.59
24777172,2003,1,220049,254892,0.13,-0.91,9.52,-0.07,0.14,0.03,28.59
24817172,1977,1,220555,257951,0.52,-1.25,9.50,-0.03,0.00,0.05,28.59
24857216,1989,1,221223,259344,0.60,-0.95,9.36,-0.02,-0.03,-0.12,28.59
24897202,2125,1,221254,259762,0.83,-0.73,9.64,-0.00,-0.01,-0.07,28.59
24937202,2256,1,221188,259559,1.12,0.00,9.73,0.01,0.00,-0.09,28.59
24977152,2378,1,220667,258788,0.43,-1.06,10.10,0.00,0.01,-0.06,28.59
25017173,2485,1,220199,259998,1.20,-0.13,10.12,0.02,-0.02,0.00,28.59
25057197,2604,1,221027,261581,0.82,-0.93,11.24,-0.02,-0.05,-0.26,28.59
25097207,2602,1,220887,262143,0.50,-0.46,10.23,0.00,-0.09,-0.00,28.59
25137184,2626,1,221620,262143,0.57,-0.95,12.65,-0.05,-0.02,-0.12,28.59
25177206,2623,1,221341,262143,0.42,0.38,10.05,0.05,-0.12,-0.14,28.59
25217172,2559,1,220813,261323,0.45,-0.65,12.55,-0.07,-0.07,0.01,28.59
25257181,2330,1,219503,256718,0.31,-0.47,8.94,-0.03,-0.07,0.04,28.59
25296181,2137,1,219458,258398,0.41,-1.00,11.34,-0.06,-0.04,0.04,28.59
25336181,1904,1,220124,260832,0.99,-0.41,9.62,-0.03,-0.05,0.03,28.59
25376178,1767,1,220722,262094,0.39,-0.68,9.79,-0.05,-0.02,0.03,28.59
25416181,1645,1,220908,262082,0.97,-1.01,9.29,-0.05,-0.09,0.04,28.59
25456181,1527,1,220859,261755,1.25,-0.23,7.85,-0.02,-0.15,0.09,28.59
25496181,1481,1,220965,260952,0.50,-1.53,9.04,-0.06,-0.00,0.06,28.59
25536178,1461,1,220869,257967,1.25,0.18,6.07,-0.01,-0.08,0.31,28.59
25576172,1474,1,220492,256782,0.46,-1.79,10.09,-0.09,0.07,0.22,28.59
25616172,1489,1,220229,255260,1.02,-0.43,6.84,-0.00,-0.05,0.34,28.59
25656867,1478,1,220635,257625,1.00,-1.23,11.01,-0.04,0.09,0.10,28.65
25697169,1501,1,221184,259608,0.73,-0.25,7.57,0.02,0.05,0.04,28.65
25737150,1525,1,221482,260842,1.33,-0.53,10.20,-0.01,0.04,0.01,28.65
25777172,1595,1,221355,259609,1.10,-0.27,9.10,0.00,0.02,0.03,28.65
25817151,1650,1,220801,258917,1.48,-0.12,10.09,-0.01,-0.05,0.05,28.65
25857181,1719,1,220292,253577,1.13,-0.39,9.82,0.00,0.07,0.04,28.65
25897150,1758,1,218485,253021,0.42,-0.95,11.44,-0.02,-0.00,0.05,28.65
25937181,1778,1,218889,253203,0.77,-0.48,10.50,-0.01,0.01,0.04,28.65
25977172,1827,1,218987,254701,1.11,-0.02,10.62,-0.05,-0.09,0.24,28.65
26017181,1863,1,220396,257834,0.37,-0.77,10.46,-0.12,0.16,0.05,28.65
26057173,1856,1,220896,259727,1.15,0.27,10.85,-0.02,-0.07,0.04,28.65
26097173,1869,1,221744,261970,0.81,-0.20,12.57,-0.08,0.11,0.01,28.65
26137172,1915,1,222099,262143,1.23,-0.37,11.78,-0.06,-0.03,0.04,28.65
26177181,1918,1,222294,261566,0.17,-1.58,10.92,-0.07,0.10,0.04,28.65
26217173,1984,1,221379,260351,0.45,-0.89,7.83,-0.16,-0.06,0.27,28.65
26257181,1897,1,221952,261705,-0.46,-2.09,9.13,-0.07,0.13,0.05,28.65
26296185,1968,1,221941,259868,0.52,-0.31,2.60,-0.07,-0.50,0.44,28.65
26336181,1921,1,222656,262143,0.55,-1.87,10.99,-0.20,0.38,0.09,28.65
26376173,1925,1,223220,262143,0.50,-0.62,4.40,-0.01,-0.43,0.03,28.65
26416178,1792,1,223318,262143,0.37,-1.58,10.16,-0.15,0.38,0.03,28.65
26456172,2007,1,223264,262143,1.87,0.42,7.34,-0.01,-0.09,-0.20,28.65
26496181,2037,1,222700,261166,-1.03,-1.23,9.77,-0.01,0.24,0.04,28.65
26536181,2151,1,221585,255911,2.24,0.03,9.29,0.05,-0.31,-0.03,28.65
26576172,2144,1,221610,260143,0.06,-1.28,12.42,-0.11,0.34,0.10,28.65
26616173,2161,1,221636,256413,1.42,0.23,6.54,0.08,-0.16,-0.10,28.65
26656859,2158,1,221153,260080,0.90,-1.09,11.68,-0.05,0.10,0.10,28.71
26697173,2177,1,221836,261792,0.51,-1.42,8.22,-0.04,0.08,0.02,28.71
26737173,2254,1,221927,262143,1.19,-0.54,11.59,0.06,-0.13,0.03,28.71
26777173,2317,1,222003,262143,0.49,-0.96,10.63,-0.03,0.05,-0.07,28.71
26817183,2315,1,221846,262143,1.38,0.60,10.22,0.03,-0.09,-0.06,28.71
26857173,2336,1,221965,262143,0.01,-1.56,11.31,0.01,-0.03,-0.16,28.71
26897183,2320,1,221507,262143,1.47,0.17,9.88,0.03,-0.15,-0.00,28.71
26937173,2320,1,221730,262143,0.69,-0.24,10.97,-0.03,-0.06,-0.34,28.71
26977204,2320,1,221237,262143,-0.15,-0.82,9.26,0.03,-0.06,0.04,28.71
27017186,2314,1,221425,262143,1.43,-0.67,12.46,-0.04,-0.06,0.03,28.71
27055186,2321,1,221427,262143,0.20,-0.65,8.90,-0.06,-0.02,0.05,28.71
27095186,2304,1,220774,260197,1.46,-0.07,9.39,-0.02,-0.20,0.02,28.71
27135182,2223,1,220078,259856,1.33,-0.68,9.29,-0.09,-0.07,0.04,28.71
27175185,2192,1,220200,259875,1.01,0.03,8.44,-0.05,-0.08,0.04,28.71
27215173,2125,1,220393,260239,1.38,-0.55,8.81,-0.03,-0.07,0.05,28.71
27255185,2054,1,220686,261658,0.73,-0.69,9.43,-0.04,-0.01,0.05,28.71
27295183,1997,1,220812,261140,0.85,-0.76,8.50,-0.01,0.01,0.04,28.71
27336173,1927,1,220996,262143,0.64,-1.46,10.15,-0.02,-0.03,0.05,28.71
27376183,1879,1,221098,261095,1.25,-0.53,9.19,-0.02,-0.01,0.03,28.71
27416181,1856,1,220795,261091,0.51,-0.51,10.32,0.01,0.03,0.05,28.71
27456151,1835,1,220689,259605,1.41,-0.41,9.36,-0.01,-0.00,0.04,28.71
27496181,1772,1,220443,260031,1.01,-0.43,10.52,0.00,-0.00,0.05,28.71
27536169,1630,1,220472,259593,1.41,-0.54,7.87,0.01,-0.05,0.05,28.71
27576172,1515,1,220369,261175,1.00,-0.56,10.50,-0.01,0.02,0.06,28.71
27616169,1519,1,220745,260974,1.46,-0.15,9.16,0.01,-0.04,0.04,28.71
27656173,1535,1,220714,261675,0.48,-0.19,11.40,-0.01,0.09,0.05,28.71
27696855,1534,1,220692,261809,1.30,-0.72,10.94,-0.00,-0.05,0.05,28.63
27735181,1566,1,219837,255684,0.61,-0.76,10.88,-0.00,-0.05,0.06,28.63
27775178,1574,1,218083,252732,0.44,-0.97,11.10,-0.05,0.02,0.05,28.63
27815172,1521,1,217395,251754,1.06,-0.29,11.55,-0.02,-0.08,0.05,28.63
27855181,1470,1,217713,252570,0.67,-1.27,12.35,-0.05,-0.06,0.16,28.63
27895181,1445,1,217906,251719,1.28,0.43,8.93,-0.06,-0.13,0.16,28.63
27935172,1484,1,218546,254021,0.57,-0.92,12.27,-0.11,0.06,0.12,28.63
27975173,1490,1,218582,252240,1.16,0.21,8.04,-0.03,-0.22,0.07,28.63
28015172,1521,1,218897,255357,0.95,-1.37,11.91,-0.10,0.04,0.21,28.63
28055173,1510,1,219374,254773,1.67,-0.44,7.83,-0.03,-0.31,0.06,28.63
28095181,1535,1,219679,257521,0.67,-0.73,10.03,-0.11,0.23,0.07,28.63
28135173,1634,1,219995,257654,1.41,-0.90,8.43,-0.02,-0.15,0.06,28.63
28175181,1663,1,220225,258733,0.57,-0.34,9.58,-0.04,0.08,0.06,28.63
28215173,1719,1,220453,258914,0.93,-1.10,9.06,-0.01,-0.01,0.06,28.63
28255178,1712,1,220669,259866,0.79,-1.05,9.13,-0.02,0.06,0.06,28.63
28295172,1786,1,220960,260112,0.77,-0.60,9.91,-0.01,0.07,0.06,28.63
28335171,1840,1,220945,260325,1.28,-0.70,9.75,-0.02,-0.03,0.05,28.63
28375181,1886,1,220819,257862,0.94,-0.55,9.89,-0.03,0.11,0.05,28.63
28415172,1904,1,219265,254429,0.80,-0.89,9.76,-0.03,0.08,0.05,28.63
28455172,1985,1,218415,255191,1.42,-0.30,10.05,-0.03,-0.03,0.05,28.63
28495181,2022,1,219108,257330,1.08,-0.51,10.92,-0.05,0.06,0.01,28.63
28535173,2112,1,219218,258581,1.38,-0.07,10.87,-0.03,-0.05,0.04,28.63
28575182,2147,1,219973,260711,0.74,-1.32,12.67,-0.05,0.13,-0.02,28.63
28615182,2201,1,219904,260926,1.00,-0.50,10.63,-0.03,-0.12,0.04,28.63
28655183,2212,1,220195,260960,0.38,-0.99,11.11,-0.09,0.03,0.05,28.63
28695173,2224,1,219770,259989,0.73,-0.43,9.20,-0.03,-0.06,0.06,28.63
28735870,2185,1,220130,262143,0.21,-1.43,11.31,-0.10,0.12,0.05,28.69
28776173,2191,1,220082,261968,1.12,0.20,9.14,-0.02,-0.10,0.06,28.69
28814173,2235,1,220454,262143,-0.33,-1.69,11.58,-0.08,0.16,0.06,28.69
28854185,2228,1,220060,261727,0.96,0.35,7.55,-0.03,-0.11,-0.07,28.69
28894182,2211,1,220066,262143,0.54,-1.29,11.54,-0.08,0.06,0.05,28.69
28934172,2235,1,220315,261139,1.49,-0.07,7.56,-0.00,-0.16,0.03,28.69
28974181,2160,1,220678,261307,1.00,-0.73,12.01,-0.05,0.02,0.09,28.69
29014172,2084,1,220581,254765,1.52,-0.75,7.76,0.03,-0.23,0.04,28.69
29054172,1983,1,218682,252507,1.62,-0.46,10.65,-0.04,-0.04,0.08,28.69
29094181,1917,1,218397,254600,0.72,-1.30,8.63,-0.03,0.06,0.05,28.69
29134172,1919,1,218600,255348,0.60,-0.51,9.75,0.01,-0.00,0.04,28.69
29174173,1963,1,218836,255166,0.75,-0.84,10.46,-0.03,0.06,0.04,28.69
29214172,1984,1,218503,254568,0.67,-0.34,10.12,0.01,-0.04,0.05,28.69
29254172,1987,1,219023,255992,1.17,-0.68,11.21,-0.01,-0.02,0.05,28.69
29294181,1968,1,218958,255685,0.68,-0.02,10.75,-0.00,-0.02,0.05,28.69
29334181,1962,1,218979,255250,1.07,-0.72,10.16,-0.05,-0.04,0.04,28.69
29374181,1891,1,218931,256697,1.07,-0.39,10.99,-0.03,-0.02,0.05,28.69
29414181,1810,1,219553,258152,1.40,-0.29,10.62,-0.06,0.01,0.04,28.69
29454172,1760,1,220106,260768,0.46,-0.69,11.23,-0.06,0.13,0.05,28.69
29494172,1745,1,220467,262009,0.73,-0.76,10.19,-0.06,-0.01,0.05,28.69
29534182,1776,1,220761,262140,0.86,-0.62,10.56,-0.05,-0.03,0.05,28.69
29574182,1885,1,220765,262143,0.62,-0.74,10.57,-0.04,-0.01,0.05,28.69
29614182,1936,1,220777,260432,0.67,-1.07,9.90,-0.04,-0.05,0.05,28.69
29654181,1939,1,218755,254249,0.76,-0.77,9.82,-0.04,-0.11,0.05,28.69
29694182,1940,1,217982,253613,0.31,-1.26,9.26,-0.08,0.07,0.05,28.69
29734173,1962,1,217518,253792,1.31,-0.35,9.21,0.00,-0.13,0.05,28.69
29774860,1905,1,218400,256206,0.27,-1.93,9.08,-0.07,0.09,0.05,28.71
29815173,2122,1,218064,254756,1.44,0.17,7.95,0.01,-0.22,0.04,28.71
29855151,2097,1,218910,257073,0.82,-0.86,10.46,-0.08,0.13,0.05,28.71
29895173,2393,1,218468,254896,1.25,-0.06,6.58,0.02,-0.19,0.21,28.71
29935172,2225,1,218706,256657,0.92,-1.42,9.87,-0.07,0.09,0.05,28.71
29975221,1869,1,218696,254629,1.23,0.03,8.77,0.01,-0.12,0.05,28.71
30015149,1597,1,218712,254546,0.71,-1.14,9.49,-0.02,-0.04,0.06,28.71
30055181,1463,1,219265,255032,1.21,-0.27,9.69,0.00,0.01,0.12,28.71
30095149,1489,1,219326,255977,1.25,-0.38,10.36,-0.03,0.00,0.16,28.71
30135173,1514,1,219637,258338,0.51,-0.82,9.60,-0.02,0.08,0.09,28.71
30175168,1558,1,220032,258783,0.83,-0.84,10.68,-0.02,-0.01,0.05,28.71
30215181,1740,1,219956,259120,0.79,-0.87,9.49,-0.02,-0.03,0.05,28.71
30255181,1775,1,219182,253057,1.00,-0.31,10.76,-0.06,-0.01,0.04,28.71
30295181,1842,1,217460,252499,0.80,-0.11,10.62,-0.04,0.12,0.04,28.71
30335172,1805,1,217468,251350,1.32,-0.19,9.30,-0.08,-0.00,0.03,28.71
30375181,1834,1,217640,252907,0.72,-0.71,10.66,-0.10,0.23,0.04,28.71
30415172,1792,1,217866,252234,0.98,-0.42,8.49,-0.07,0.02,0.04,28.71
30455173,1804,1,218229,256303,1.03,-0.57,11.19,-0.08,0.16,0.05,28.71
30495172,1789,1,219294,257806,0.52,-0.68,8.79,-0.07,0.11,0.04,28.71
30535172,1894,1,219451,258124,0.95,-1.24,10.59,-0.06,0.01,0.04,28.71
30575173,2026,1,219320,256000,0.84,-0.47,9.82,-0.09,0.03,0.04,28.71
30615172,2015,1,219005,255601,0.19,-1.08,9.00,-0.07,-0.02,0.04,28.71
30655178,1978,1,219427,256203,0.17,-1.16,9.68,-0.09,0.11,0.03,28.71
30695173,2002,1,219616,257566,0.31,-1.29,10.67,-0.07,0.05,0.04,28.71
30735172,2028,1,220228,257559,0.55,-0.54,9.57,-0.06,0.01,0.04,28.71
30773859,1984,1,220439,258815,0.11,-1.09,11.16,-0.06,0.11,0.05,28.47
30814172,1930,1,220806,259113,0.57,-0.74,9.20,-0.05,0.02,0.04,28.47
30854172,1851,1,220340,255000,0.04,-0.59,10.45,-0.09,0.12,0.04,28.47
30894172,1808,1,218359,251028,1.05,-0.78,8.94,-0.05,-0.04,0.04,28.47
30934180,1787,1,217988,250943,0.51,-0.08,9.33,-0.06,0.08,0.04,28.47
30974168,1783,1,217980,251834,1.03,-0.94,9.75,-0.05,0.00,0.04,28.47
31014172,1802,1,218368,255238,-0.57,-1.27,10.50,-0.07,0.25,0.04,28.47
31054181,1840,1,218965,258802,0.43,-1.05,10.64,0.00,-0.01,0.01,28.47
31094173,1931,1,219509,259583,0.59,-0.40,10.16,-0.02,-0.01,-0.11,28.47
31134202,2000,1,219631,261085,-0.42,-1.57,12.00,-0.03,0.03,-0.08,28.47
31174202,2112,1,219781,261055,0.26,-1.16,11.41,0.03,-0.07,-0.29,28.47
31214182,2146,1,219567,261665,-0.12,-0.82,11.34,-0.01,-0.09,-0.04,28.47
31254220,2211,1,219742,262105,0.12,-1.77,11.87,-0.06,-0.03,-0.09,28.47
31294203,2208,1,219671,262136,-0.14,-0.71,10.22,-0.03,-0.11,0.05,28.47
31334204,2204,1,219646,261934,0.99,-0.15,11.01,-0.02,-0.15,-0.06,28.47
31374202,2176,1,219759,262143,0.42,-0.55,10.59,-0.08,-0.01,0.03,28.47
31414214,2116,1,219720,261689,0.38,-0.79,9.87,-0.06,-0.11,-0.05,28.47
31454203,2128,1,219000,256030,1.08,-0.12,8.70,-0.07,-0.18,0.03,28.47
31494181,2118,1,217200,252797,0.47,-1.05,9.72,-0.09,-0.04,0.03,28.47
31534181,2018,1,216543,250060,0.64,-0.46,6.74,-0.04,-0.20,0.05,28.47
31574181,1956,1,216756,250984,1.10,-1.33,9.97,-0.08,0.02,0.26,28.47
31614172,1904,1,216925,251306,1.32,-0.10,7.99,0.01,-0.14,0.07,28.47
31654172,1879,1,217851,257636,0.21,-1.14,9.73,-0.03,0.14,0.07,28.47
31694173,1825,1,218836,257600,0.73,-1.02,8.08,0.02,-0.07,-0.00,28.47
31734181,1776,1,218731,257227,0.04,-1.36,9.76,-0.01,0.01,0.04,28.47
31774169,1798,1,218643,254915,0.76,-0.91,8.85,0.03,-0.07,0.03,28.47
31814872,1777,1,218165,254877,0.44,-0.91,9.85,0.01,0.02,0.04,28.47
31853150,1754,1,218752,256812,0.57,-0.83,8.95,0.03,0.04,0.04,28.47
31893150,1763,1,218990,259227,0.42,-0.43,9.61,-0.00,0.07,0.04,28.47
31933170,1808,1,219586,261283,0.23,-1.35,10.33,0.00,0.04,-0.12,28.47
31973173,1869,1,219539,261284,1.13,0.53,8.98,0.02,-0.03,-0.05,28.47
32013173,1881,1,219677,262110,0.64,-0.60,12.85,-0.04,0.07,-0.03,28.47
32053182,1876,1,219329,260513,0.75,0.15,9.68,-0.02,-0.03,0.02,28.47
32093173,1947,1,218193,257035,0.62,-1.04,12.75,-0.07,0.04,0.04,28.47
32133173,1978,1,216610,252652,0.91,-0.51,10.13,-0.08,-0.06,0.03,28.47
32173183,2003,1,216217,254045,0.46,-1.12,12.47,-0.07,-0.03,0.04,28.47
32213185,2016,1,216127,249917,0.94,-0.32,9.40,-0.07,-0.09,0.03,28.47
32253178,1940,1,215828,250706,0.47,-1.01,11.69,-0.10,-0.00,0.18,28.47
32293181,1885,1,216001,250167,0.26,-1.11,6.96,-0.10,-0.01,0.04,28.47
32333181,1872,1,216424,255276,0.48,-1.28,11.44,-0.03,-0.05,0.17,28.47
32373185,1846,1,217764,256280,0.55,-1.47,8.44,-0.03,-0.02,-0.04,28.47
32413202,1840,1,217619,258222,0.53,-0.54,9.73,0.00,-0.06,0.04,28.47
32453173,1835,1,218167,257902,0.44,-1.25,8.81,-0.03,-0.01,-0.34,28.47
32493203,1905,1,217935,258469,0.26,-0.79,9.79,0.02,-0.05,0.03,28.47
32533173,1903,1,217994,255128,1.72,-0.74,9.15,-0.02,-0.13,0.01,28.47
32573181,1866,1,217680,254757,0.12,-1.42,9.49,-0.03,0.05,0.12,28.47
32613173,1751,1,217783,253798,1.24,-0.25,8.83,0.02,-0.12,0.03,28.47
32653172,1715,1,217874,257230,0.74,-0.68,10.12,-0.01,0.07,0.05,28.47
32693173,1697,1,218621,259383,0.37,-1.20,8.63,0.00,0.05,0.03,28.47
32733151,1803,1,219076,258700,0.16,-1.69,11.42,0.05,0.00,-0.11,28.47
32773173,1873,1,216575,251794,0.30,-0.75,9.00,0.04,-0.08,0.01,28.47
32813172,1936,1,216507,255625,0.39,-1.54,12.42,0.00,0.02,0.00,28.47
32853839,1996,1,217048,254067,0.29,-0.01,9.23,0.02,-0.12,-0.07,28.43
32892182,2057,1,217120,257929,-0.28,-2.05,13.49,0.02,-0.01,0.04,28.43
32932185,2081,1,217584,256217,0.57,-0.66,10.23,-0.01,-0.05,-0.05,28.43
32972203,2058,1,216803,256130,-0.07,-0.69,11.95,0.05,-0.17,0.04,28.43
33012184,2026,1,217142,254763,0.51,-0.57,9.22,-0.05,-0.01,0.04,28.43
33052242,1975,1,216837,256972,0.23,-0.88,12.33,0.02,-0.11,0.04,28.43
33092173,1967,1,217535,257459,1.07,-0.50,9.81,-0.03,-0.09,0.04,28.43
33132182,1983,1,217493,259335,0.65,-1.02,10.39,0.00,-0.08,0.04,28.43
33172173,1975,1,218006,259993,0.90,-0.48,9.67,-0.01,-0.12,-0.09,28.43
33212203,2011,1,218043,260354,0.87,-0.55,9.90,0.03,-0.16,0.02,28.43
33252209,2001,1,218441,261824,1.16,-0.90,10.92,-0.02,-0.10,0.02,28.43
33292182,1999,1,218643,260918,0.86,-0.33,8.93,-0.00,-0.13,-0.03,28.43
33332203,1949,1,218487,262035,0.85,-1.14,10.66,0.01,-0.14,0.02,28.43
33372173,1981,1,218689,260489,1.08,-0.00,8.77,-0.02,-0.13,-0.01,28.43
33412201,1964,1,218596,262131,0.68,-1.21,10.99,0.01,-0.09,0.03,28.43
33452173,1959,1,218890,259194,1.17,0.33,8.99,0.01,-0.06,0.02,28.43
33492150,1889,1,216510,251868,0.57,-1.53,12.28,-0.01,-0.12,0.18,28.43
33532181,1827,1,215111,249441,1.07,-0.14,8.27,0.01,-0.06,0.07,28.43
33572173,1774,1,215310,252276,1.65,-0.57,13.02,0.04,-0.11,0.31,28.43
33612172,1746,1,216055,251010,2.04,0.46,7.83,-0.01,-0.03,0.03,28.43
33652173,1711,1,216042,256393,1.45,-0.57,10.80,-0.03,0.06,0.10,28.43
33692173,1701,1,217619,256179,2.28,0.18,9.64,-0.05,-0.01,-0.22,28.43
33732181,1775,1,216644,256009,1.47,-0.14,9.64,0.01,-0.14,0.03,28.43
33772173,1780,1,217405,253752,2.32,0.03,10.46,-0.03,0.09,0.02,28.43
33812149,1771,1,216070,253605,1.93,0.40,9.18,-0.05,-0.01,0.26,28.43
33852173,1695,1,216892,253577,1.32,-0.34,9.39,-0.07,0.15,0.04,28.43
33892860,1616,1,216419,253653,1.66,-0.19,9.29,-0.01,-0.06,0.18,28.27
33933182,1681,1,217607,258488,0.95,-0.87,11.65,-0.08,0.14,0.06,28.27
33973173,1717,1,217382,254206,1.61,0.48,7.78,0.05,-0.17,0.04,28.27
34013151,1781,1,217638,258769,0.67,-1.68,13.39,-0.08,0.14,0.14,28.27
34053173,1827,1,217613,255537,1.71,0.41,8.15,0.01,-0.14,0.05,28.27
34093150,1897,1,217835,259728,0.78,-0.66,13.58,-0.04,0.08,0.12,28.27
34133173,2085,1,217851,255297,1.57,-0.05,8.18,-0.02,-0.13,0.05,28.27
34173181,2079,1,216610,254064,1.03,-0.86,13.46,-0.08,0.07,0.11,28.27
34213173,2116,1,216080,251718,1.14,-0.47,9.22,-0.02,0.02,0.05,28.27
34253172,2085,1,216070,257028,1.72,-0.14,11.37,-0.04,-0.06,0.05,28.27
34293182,2114,1,217766,258851,1.53,-0.55,11.84,-0.07,0.00,-0.06,28.27
34333182,2071,1,216937,256971,1.57,0.08,9.42,-0.01,-0.20,0.05,28.27
34373173,2029,1,217711,258555,0.92,-0.98,11.77,-0.12,0.09,0.04,28.27
34413172,2043,1,217120,255731,1.08,-0.25,7.87,-0.02,-0.22,0.05,28.27
34451181,2088,1,217124,256528,2.08,-0.71,12.28,-0.10,-0.08,0.04,28.27
34491181,1984,1,216727,252866,0.97,-0.06,7.56,-0.08,-0.12,0.05,28.27
34531181,1954,1,216641,254961,1.01,-1.38,11.04,-0.09,0.09,0.11,28.27
34571172,1856,1,216694,252546,1.41,0.22,8.17,-0.04,-0.11,0.04,28.27
34611173,1915,1,217050,256187,0.86,-1.30,10.49,-0.08,0.08,0.12,28.27
34651172,1890,1,217748,254651,1.23,-0.43,9.39,-0.04,0.07,0.03,28.27
34691173,1887,1,217143,254617,1.42,-0.47,11.21,-0.04,-0.01,0.05,28.27
34731181,1885,1,217294,252349,0.66,-0.48,8.01,-0.05,0.11,0.04,28.27
34771172,1874,1,217330,254172,0.91,-0.95,12.50,-0.06,0.16,0.10,28.27
34811172,1881,1,217268,252489,1.99,-0.11,8.98,-0.00,-0.09,-0.00,28.27
34851201,1895,1,217073,252451,1.07,-0.68,10.59,-0.06,0.06,0.12,28.27
34891173,1846,1,215856,249038,1.92,-0.10,10.78,-0.05,0.08,-0.02,28.27
34931867,1807,1,215386,250435,0.61,-0.94,11.27,-0.04,0.05,0.07,28.37
34972172,1792,1,215278,248837,1.29,-0.75,9.40,-0.03,-0.05,-0.00,28.37
35012201,1857,1,215396,250387,0.67,-1.29,11.15,-0.03,-0.03,0.06,28.37
35052181,1859,1,215234,250180,0.64,-1.07,8.36,-0.05,-0.05,0.03,28.37
35092205,1919,1,215447,251888,0.46,-0.46,9.77,-0.05,-0.04,0.04,28.37
35132179,1964,1,216342,254648,0.31,-1.24,11.29,-0.07,0.09,-0.01,28.37
35172182,2000,1,216513,255230,0.95,-0.62,9.72,-0.03,-0.04,-0.05,28.37
35212203,2047,1,217175,256175,0.01,-2.04,12.74,-0.05,0.05,-0.28,28.37
35252181,2081,1,215755,250805,1.08,-0.17,6.87,0.01,-0.33,0.00,28.37
35292169,1994,1,216135,251923,0.45,-1.17,11.14,-0.15,0.17,0.03,28.37
35331172,2112,1,216433,250518,0.37,0.53,5.02,-0.07,-0.21,0.26,28.37
35371172,2065,1,217326,251129,1.01,-0.48,10.53,-0.10,0.02,0.08,28.37
35411172,2039,1,218298,252414,0.66,-0.38,7.41,-0.11,0.04,0.30,28.37
35451172,2043,1,219174,253113,0.75,-1.22,8.66,-0.10,0.14,0.02,28.37
35491173,2013,1,219382,253824,1.70,-0.04,10.84,-0.05,-0.07,-0.01,28.37
35531201,1919,1,219927,254121,-0.53,-2.08,9.34,-0.09,0.23,0.03,28.37
35571181,1814,1,219134,251097,1.07,-0.22,9.01,0.02,-0.31,0.01,28.37
35611172,1791,1,218315,249371,0.30,-1.62,12.03,-0.12,0.19,0.04,28.37
35651173,1803,1,217845,248301,0.34,-0.27,7.17,0.02,-0.16,0.06,28.37
35691172,1826,1,217702,248545,-0.09,-1.92,12.72,-0.08,0.19,0.04,28.37
35731181,1808,1,217435,249263,0.21,-0.73,8.73,-0.01,-0.05,0.03,28.37
35771181,1835,1,216965,248978,0.46,-1.02,12.17,-0.00,-0.04,-0.07,28.37
35811201,1845,1,216911,250086,-0.17,-1.28,10.00,-0.01,-0.01,0.03,28.37
35851201,1840,1,216882,249250,0.38,-1.06,11.04,-0.05,-0.04,0.01,28.37
35891181,1845,1,216590,248319,-0.39,-0.95,9.81,-0.02,0.04,0.03,28.37
35931868,1822,1,216602,248582,0.82,-0.84,10.30,-0.04,-0.13,0.02,28.47
35972181,1856,1,216979,250995,0.17,-0.92,10.68,-0.08,0.13,0.02,28.47
36012172,1874,1,217386,253506,0.94,-0.71,9.85,-0.01,-0.07,0.02,28.47
36052181,1954,1,218278,255172,0.96,-0.72,11.23,-0.05,-0.08,-0.10,28.47
36092201,2000,1,217996,254455,0.20,-0.96,9.58,-0.02,-0.11,0.02,28.47
36132182,1995,1,217872,250718,1.32,-0.59,9.40,-0.02,-0.22,0.02,28.47
36172181,1994,1,217787,250697,0.31,-1.41,11.18,-0.04,0.04,0.25,28.47
36212173,1949,1,217847,250322,0.70,-1.17,7.81,-0.05,-0.05,0.13,28.47
36252181,1933,1,217869,249243,0.36,-1.13,11.38,-0.01,-0.04,0.22,28.47
36292181,1914,1,217259,247811,0.30,-1.34,7.82,-0.04,-0.02,0.15,28.47
36331183,1919,1,217137,247732,0.41,-0.71,10.39,0.00,-0.04,0.09,28.47
36371172,1902,1,217224,248673,0.86,-1.22,10.38,-0.01,-0.04,0.04,28.47
36411181,1932,1,217426,249115,0.70,-0.43,10.15,0.01,-0.03,0.04,28.47
36451172,1975,1,217388,249164,0.87,-1.19,11.49,-0.03,0.00,0.04,28.47
36491172,1964,1,217399,248516,0.71,-0.61,9.24,0.01,-0.08,0.04,28.47
36531202,1942,1,217286,248530,0.66,-0.53,12.11,-0.03,-0.02,0.12,28.47
36571181,1965,1,217184,248099,0.70,-0.67,8.37,-0.02,-0.03,0.13,28.47
36611181,1904,1,217168,248441,1.77,-0.68,11.81,-0.04,-0.02,0.04,28.47
36651181,1894,1,217287,248678,0.46,-0.84,8.42,-0.04,0.06,0.05,28.47
36691173,1863,1,217540,250185,1.59,-0.43,9.95,-0.03,-0.05,0.03,28.47
36731198,1859,1,218236,251732,0.75,-0.78,10.49,-0.06,0.12,0.03,28.47
36771173,1838,1,217776,250298,1.01,0.11,7.89,-0.01,-0.13,0.15,28.47
36811172,1873,1,218041,250506,0.71,-1.25,10.84,-0.10,0.11,0.05,28.47
36851173,1857,1,217454,250382,0.72,-1.04,7.88,-0.03,-0.00,0.37,28.47
36891181,1835,1,218185,251405,0.92,-0.89,10.51,-0.06,0.08,0.05,28.47
36931859,1831,1,217909,252471,0.14,-1.44,8.64,-0.02,0.01,0.12,28.23
36970172,1846,1,217068,247758,0.53,-0.79,9.60,-0.04,-0.01,-0.15,28.23
37010201,1915,1,216071,248066,0.07,-0.91,10.09,-0.05,0.09,0.05,28.23
37050168,1936,1,215967,248661,0.74,-1.20,9.80,-0.03,0.01,-0.04,28.23
37090181,2000,1,216502,250068,0.02,-1.02,10.90,-0.02,0.17,0.02,28.23
37130169,2023,1,216059,250751,1.37,0.07,10.11,-0.01,-0.08,-0.01,28.23
37170181,2029,1,216647,250624,0.18,-1.08,11.17,-0.04,0.12,-0.09,28.23
37210182,2111,1,216136,252001,1.01,-0.63,11.25,-0.01,-0.06,0.04,28.23
37250181,2116,1,217028,251741,0.89,-1.15,11.20,-0.07,0.02,0.03,28.23
37290172,2109,1,215943,248643,0.65,-0.30,9.09,-0.01,-0.13,0.06,28.23
37330181,2079,1,215778,247767,1.12,-0.81,9.47,-0.08,-0.09,0.05,28.23
37371181,2034,1,215728,247605,0.87,-0.38,9.26,-0.08,-0.01,0.33,28.23
37411181,2036,1,215891,247624,0.43,-1.05,9.35,-0.04,0.03,0.12,28.23
37451172,1931,1,215912,247859,0.84,-0.38,9.51,0.01,-0.01,0.06,28.23
37491172,1825,1,216425,250214,0.24,-1.36,11.26,-0.02,0.10,0.06,28.23
37531172,1823,1,216191,249075,0.61,-1.13,8.52,0.04,-0.10,0.02,28.23
37571172,1808,1,216702,252140,0.04,-1.53,12.45,-0.01,0.07,0.05,28.23
37611172,1861,1,216598,248408,0.68,-0.43,8.21,0.06,-0.10,0.02,28.23
37651173,1849,1,215388,246574,0.82,-0.90,12.10,0.01,-0.09,0.06,28.23
37691169,1834,1,214986,245572,-0.10,-1.30,9.08,-0.00,0.06,0.06,28.23
37731181,1835,1,214510,246513,0.59,-0.72,9.56,0.05,-0.15,0.07,28.23
37771172,1838,1,214783,246554,1.08,-0.10,10.76,-0.01,-0.02,-0.00,28.23
37811201,1867,1,214738,250742,0.86,-0.56,9.67,0.03,-0.09,0.07,28.23
37851172,1870,1,215742,250220,1.16,-0.54,10.44,-0.00,-0.10,-0.20,28.23
37891201,1983,1,214756,252423,1.27,-0.28,9.61,0.03,-0.15,0.06,28.23
37931860,2014,1,216095,252550,1.41,-0.63,10.92,-0.08,0.05,-0.04,28.43
37970181,2103,1,215282,253128,1.07,-0.52,9.97,0.01,-0.10,0.06,28.43
38010173,2115,1,215705,251896,1.78,-0.12,11.00,-0.05,-0.11,0.01,28.43
38050181,2129,1,215086,250574,1.23,-0.75,9.94,-0.06,-0.02,0.05,28.43
38090181,2065,1,215143,250776,1.28,-0.59,10.14,-0.04,-0.04,0.06,28.43
38130181,2007,1,215441,251191,1.50,-0.53,10.51,-0.04,-0.09,0.06,28.43
38170184,1931,1,215613,251137,0.88,-0.44,9.89,-0.05,-0.02,0.06,28.43
38210181,1866,1,215649,251001,0.92,-0.53,10.30,-0.06,-0.02,0.06,28.43
38250181,1825,1,215878,250942,1.33,-0.75,9.61,-0.06,-0.07,0.08,28.43
38290181,1776,1,215583,248788,1.15,-0.80,10.19,-0.07,0.03,0.07,28.43
38330172,1735,1,214868,247692,1.23,-0.57,8.85,-0.04,-0.01,0.06,28.43
38370181,1726,1,214740,247594,1.37,-0.22,9.70,-0.07,0.02,0.06,28.43
38410169,1713,1,214815,247887,1.44,-0.39,8.92,-0.04,0.02,0.06,28.43
38450172,1697,1,215052,248620,1.39,-0.79,9.87,-0.07,0.05,0.05,28.43
38490172,1697,1,215230,249448,1.80,-0.61,8.93,-0.02,-0.03,0.06,28.43
38530181,1700,1,215434,249987,1.56,-0.47,9.48,-0.05,0.02,0.05,28.43
38570172,1716,1,215614,250410,0.73,-0.81,9.32,-0.03,0.06,0.06,28.43
38610172,1753,1,215570,251138,1.13,-0.15,9.63,-0.01,-0.04,0.04,28.43
38650181,1790,1,216057,253555,1.35,-0.58,11.01,-0.02,-0.05,-0.01,28.43
38690201,1861,1,216433,255319,0.81,-0.74,9.48,0.00,-0.02,-0.02,28.43
38730179,1907,1,217033,257413,1.01,-0.85,10.13,-0.01,-0.04,-0.06,28.43
38770203,1967,1,217260,258240,0.46,-1.01,10.27,-0.00,0.00,-0.03,28.43
38810183,2011,1,217499,259554,0.28,-0.72,10.79,0.01,0.02,0.00,28.43
38850152,2064,1,217625,261402,0.72,-1.43,11.32,0.00,-0.03,0.01,28.43
38890173,2092,1,218015,261015,0.45,-0.58,9.98,0.04,-0.09,-0.20,28.43
38930183,2087,1,217264,259533,0.58,-1.04,11.65,-0.00,0.07,0.05,28.43
38970860,2067,1,216094,254651,0.86,-0.74,10.85,0.00,-0.06,-0.05,28.25
39009182,2139,1,214273,251269,0.71,-0.51,10.66,0.02,-0.12,0.06,28.25
39049173,2110,1,213965,250219,0.80,-0.74,10.74,-0.04,-0.08,0.05,28.25
39089181,2109,1,213940,249762,1.07,-0.41,8.91,-0.03,-0.09,0.05,28.25
39129178,2032,1,214518,251601,0.19,-0.95,8.97,-0.03,0.15,0.07,28.25
39169173,1972,1,214909,255815,2.33,-0.89,10.69,0.04,-0.27,0.06,28.25
39209173,1939,1,216536,258663,1.21,-0.55,11.81,-0.04,0.02,0.02,28.25
39249173,1936,1,215716,255794,1.74,-0.33,8.33,0.02,-0.27,0.04,28.25
39289172,1946,1,216059,255119,1.12,-0.66,11.43,-0.06,0.05,0.04,28.25
39329173,1920,1,215274,252654,1.01,-0.54,7.75,-0.02,-0.19,0.14,28.25
39369181,1887,1,215507,251751,1.31,-0.65,9.43,-0.02,-0.06,0.05,28.25
39410181,1799,1,215461,251893,1.38,0.04,9.70,-0.03,-0.10,0.41,28.25
39450169,1725,1,215764,253035,1.36,-1.08,8.50,-0.04,-0.03,0.09,28.25
39490180,1797,1,216477,256386,0.84,-0.14,9.86,0.01,0.00,0.08,28.25
39530150,1771,1,217014,257222,1.03,-1.10,9.26,-0.01,-0.02,0.06,28.25
39570181,1758,1,216095,250569,1.74,0.13,10.05,-0.00,-0.08,0.05,28.25
39610169,1776,1,214950,249549,1.01,-0.83,10.57,-0.02,0.07,0.06,28.25
39650172,1808,1,215104,249202,1.77,0.37,9.73,-0.01,-0.12,0.04,28.25
39690172,1815,1,215319,249341,1.49,-0.51,11.64,-0.06,0.03,0.14,28.25
39730173,1834,1,215372,248866,1.00,0.01,7.03,-0.05,0.05,0.19,28.25
39770149,1738,1,215547,249567,2.22,-0.56,11.63,-0.09,0.02,0.06,28.25
39810208,1708,1,215562,249962,1.00,-0.16,7.17,-0.05,0.04,0.11,28.25
39850169,1712,1,215928,250705,1.92,-0.16,10.37,-0.09,0.08,0.04,28.25
39890172,1743,1,215784,251788,1.60,-0.26,9.33,-0.06,0.03,0.05,28.25
39930169,1773,1,216049,252375,1.24,-0.62,8.56,-0.07,0.04,0.01,28.25
39970172,1901,1,216052,251262,1.31,-0.48,8.57,-0.05,0.02,0.04,28.25
40010902,1892,1,216233,253465,0.81,-0.97,10.43,-0.05,0.09,0.05,28.27
40049172,1932,1,216589,252793,1.50,-0.69,9.64,-0.01,-0.02,-0.02,28.27
40089201,1974,1,216504,255404,-0.02,-1.21,9.90,-0.05,0.16,0.05,28.27
40129181,1963,1,216989,255883,0.83,-0.58,9.26,-0.01,-0.00,-0.01,28.27
40169201,2043,1,217154,258034,0.15,-1.29,10.77,-0.04,0.13,0.04,28.27
40209173,2098,1,217384,256696,0.75,-0.66,10.30,-0.02,0.04,-0.18,28.27
40249181,2121,1,216249,254058,0.37,-1.47,11.77,-0.02,0.07,-0.08,28.27
40289182,2150,1,215370,252199,0.30,-0.37,11.20,-0.06,0.11,-0.10,28.27
40329182,2134,1,214647,249801,0.17,-1.06,10.90,-0.08,0.09,0.03,28.27
40369172,2134,1,214300,250365,0.39,-0.66,10.86,-0.08,0.01,0.03,28.27
40409172,2149,1,214778,251418,0.63,-0.97,11.16,-0.10,0.05,0.03,28.27
40449172,2157,1,214845,251628,0.62,-0.53,9.64,-0.09,0.04,0.03,28.27
40489169,2094,1,214994,252286,0.99,-1.12,11.41,-0.12,0.03,0.02,28.27
40529173,2086,1,214790,250290,0.99,-0.60,9.53,-0.09,-0.03,0.03,28.27
40569178,2032,1,214719,251196,0.30,-0.83,10.10,-0.10,0.04,0.03,28.27
40609172,2002,1,214971,249963,0.60,-0.89,9.36,-0.08,0.04,0.03,28.27
40649168,1966,1,215141,250073,0.42,-1.23,10.73,-0.06,-0.03,0.07,28.27
40689181,1877,1,215173,249524,0.22,-1.85,8.66,-0.07,0.02,0.03,28.27
40729172,1839,1,215473,251310,-0.35,-2.32,10.52,-0.04,0.09,0.20,28.27
40769181,1792,1,215765,251721,0.12,-1.32,9.27,-0.05,0.04,0.03,28.27
40809172,1797,1,215514,252292,-0.25,-1.39,9.44,-0.03,-0.02,0.03,28.27
40849202,1815,1,215602,249868,-0.02,-1.37,8.96,-0.03,0.02,0.03,28.27
40889182,1885,1,214513,249540,-0.20,-1.28,9.70,-0.01,0.06,0.04,28.27
40929182,1904,1,214949,251677,0.93,-1.04,10.64,0.01,-0.02,-0.08,28.27
40969183,1930,1,214984,252316,-0.40,-0.72,9.90,0.01,0.05,-0.02,28.27
41009182,1961,1,215696,255346,0.50,-1.33,11.78,-0.00,-0.01,-0.10,28.27
41049890,1961,1,215913,254889,-0.28,-0.49,10.21,-0.01,-0.01,-0.07,28.45
41088219,2018,1,215935,257080,0.65,-1.18,11.74,-0.01,-0.08,0.02,28.45
41128182,2037,1,216465,256667,0.17,-1.38,10.48,-0.05,0.02,0.01,28.45
41168173,2015,1,215737,255065,0.80,-0.85,10.61,-0.00,-0.20,0.02,28.45
41208182,2018,1,215684,254090,0.41,-0.52,10.13,-0.04,-0.03,0.03,28.45
41248181,2003,1,215479,254186,0.55,-1.04,9.97,-0.03,-0.11,0.02,28.45
41288182,1991,1,215819,254401,0.14,-1.21,10.07,-0.04,-0.03,0.03,28.45
41328181,1921,1,215465,251946,0.73,-1.14,8.89,-0.02,-0.17,0.04,28.45
41368181,1867,1,215654,252090,0.32,-1.17,9.27,-0.03,-0.05,0.03,28.45
41408181,1809,1,215970,252540,0.47,-1.29,9.32,-0.01,-0.09,0.03,28.45
41448221,1765,1,216067,253936,0.45,-0.76,10.00,-0.01,-0.09,0.02,28.45
41488181,1702,1,216126,251300,-0.15,-1.18,9.07,-0.03,0.02,0.03,28.45
41528181,1711,1,214557,248752,0.37,-1.24,9.02,0.00,-0.07,0.02,28.45
41568172,1727,1,214392,248263,-0.02,-0.96,10.02,-0.01,0.06,0.03,28.45
41608181,1747,1,214564,248060,0.27,-1.03,9.20,0.03,-0.07,0.08,28.45
41648199,1749,1,214768,248981,-0.07,-1.17,11.51,-0.01,0.09,0.03,28.45
41688181,1783,1,214573,248091,0.80,-0.42,7.22,0.03,-0.23,0.03,28.45
41728172,1794,1,214876,249893,0.37,-1.36,10.50,-0.05,0.10,0.02,28.45
41768172,1806,1,214974,249436,1.24,-0.33,7.47,-0.00,-0.14,0.02,28.45
41808181,1821,1,215518,254158,1.04,-1.02,12.45,-0.04,0.09,0.02,28.45
41848172,1876,1,215742,251180,1.78,0.42,9.66,-0.04,-0.10,0.00,28.45
41888172,1929,1,215681,254321,-0.11,-1.40,12.10,-0.05,0.07,0.02,28.45
41928181,1951,1,215841,250598,1.44,0.04,9.17,-0.02,-0.20,0.01,28.45
41968172,1997,1,215790,254763,0.20,-1.59,12.66,-0.08,0.07,0.03,28.45
42008172,1969,1,216533,254263,0.74,-0.87,9.14,-0.03,0.03,0.02,28.45
42048173,1989,1,216758,258126,0.43,-1.32,13.03,-0.04,-0.03,0.03,28.45
42088868,1951,1,217112,256557,0.41,-0.91,8.49,-0.07,-0.03,0.03,28.23
42129181,1955,1,216945,258317,0.03,-0.98,11.00,-0.06,-0.01,0.03,28.23
42169178,1973,1,216712,254310,0.52,-1.12,9.78,-0.06,-0.01,0.03,28.23
42209181,1985,1,215095,251329,0.57,-0.89,10.47,-0.06,0.00,0.03,28.23
42249172,1982,1,214768,250969,0.67,-0.79,10.08,-0.06,-0.00,0.02,28.23
42289181,1925,1,214805,252070,0.73,-0.96,9.88,-0.07,-0.02,0.03,28.23
42329181,1927,1,215422,254404,0.51,-1.02,10.20,-0.09,0.09,0.02,28.23
42369172,1898,1,216016,255707,0.28,-0.99,8.34,-0.05,0.08,0.02,28.23
42409171,1902,1,216147,255992,1.46,-0.52,10.07,-0.04,-0.09,0.01,28.23
42449181,1883,1,216427,257189,0.55,-1.26,9.31,-0.06,0.07,0.02,28.23
42489172,1904,1,216348,256846,0.99,-0.69,9.76,-0.01,-0.08,0.03,28.23
42529181,1889,1,216682,258014,0.18,-1.39,9.07,-0.06,0.08,0.03,28.23
42567172,1941,1,216519,256940,0.76,-0.26,9.01,-0.02,-0.11,0.03,28.23
42607181,1938,1,216729,257798,0.21,-1.23,10.23,-0.02,0.08,0.03,28.23
42647172,1953,1,216620,256402,0.98,-0.97,9.06,0.00,-0.14,0.03,28.23
42687173,1888,1,216958,259327,0.26,-1.65,11.19,-0.03,0.10,0.03,28.23
42727172,1895,1,217206,258940,0.41,-0.72,8.31,0.02,-0.06,0.04,28.23
42767172,1908,1,217404,259808,-0.00,-1.38,11.08,-0.01,-0.01,0.03,28.23
42807198,1948,1,217430,260322,0.22,-0.75,9.03,-0.01,-0.08,0.03,28.23
42847182,1993,1,217544,258959,-0.18,-1.18,11.47,-0.01,0.02,0.03,28.23
42887182,2023,1,216106,255734,0.28,-1.13,10.30,-0.01,-0.01,0.03,28.23
42927181,2025,1,215705,255367,0.17,-1.21,10.98,-0.03,-0.05,0.03,28.23
42967182,2032,1,215810,255645,0.19,-0.74,10.27,0.00,-0.00,0.04,28.23
43007172,2039,1,215774,256624,0.58,-0.46,10.72,-0.01,-0.10,0.03,28.23
43047182,2032,1,216270,257957,0.63,-0.91,11.69,-0.04,-0.06,0.02,28.23
43087244,2003,1,215992,254985,0.71,-0.74,9.39,-0.05,-0.14,0.03,28.23
43127868,1933,1,215846,254309,0.88,-0.55,10.20,-0.03,-0.08,0.03,28.13
43168181,1914,1,215561,252272,1.28,-0.41,8.39,-0.02,-0.13,0.04,28.13
43208182,1840,1,215440,252802,1.07,-0.36,10.05,-0.05,-0.04,0.16,28.13
43248181,1783,1,215759,253034,1.14,-0.50,8.08,-0.04,-0.10,0.09,28.13
43288204,1767,1,216224,257021,0.75,-0.96,10.23,-0.06,0.02,0.04,28.13
43328173,1748,1,216947,256553,1.28,-0.74,8.38,-0.00,-0.13,0.03,28.13
43368181,1750,1,217109,259529,0.51,-1.19,11.06,-0.02,0.06,0.04,28.13
43408172,1780,1,217415,258487,1.35,-0.94,9.58,0.02,-0.18,0.03,28.13
43448172,1813,1,217505,258904,0.56,-0.40,11.21,-0.01,0.00,0.04,28.13
43488184,1840,1,217776,256557,0.72,-1.05,9.14,0.00,-0.07,0.04,28.13
43528169,1871,1,216657,251404,0.89,-1.24,11.18,-0.02,-0.01,0.18,28.13
43568181,1870,1,215615,249901,0.81,-1.17,9.39,-0.01,-0.03,0.16,28.13
43608181,1872,1,215380,249569,1.17,-0.62,9.15,-0.01,-0.04,0.15,28.13
43648181,1867,1,215291,249576,1.60,-0.28,10.84,-0.05,-0.05,0.06,28.13
43688181,1840,1,215223,249519,0.78,-0.38,8.85,-0.05,0.00,0.16,28.13
43728173,1811,1,215275,250130,1.49,-0.31,10.04,-0.06,-0.00,0.06,28.13
43768181,1816,1,215507,250667,1.40,-0.59,9.88,-0.05,0.04,0.09,28.13
43808172,1828,1,215573,250147,1.57,0.04,9.81,-0.04,-0.01,0.04,28.13
43848172,1805,1,215561,249715,1.26,-0.05,9.71,-0.05,0.05,0.10,28.13
43888172,1807,1,215679,249924,1.14,-0.59,9.67,-0.07,0.06,0.27,28.13
43928172,1798,1,215880,250416,1.22,-0.85,9.79,-0.05,0.02,0.04,28.13
43968172,1821,1,215951,251515,0.93,-0.65,9.41,-0.03,-0.01,0.05,28.13
44008181,1822,1,216423,252891,0.67,-1.11,10.22,-0.07,0.07,0.05,28.13
44048173,1860,1,216423,253098,1.08,-0.69,9.94,-0.02,-0.06,0.05,28.13
44088181,1882,1,216821,255649,0.61,-0.76,11.46,-0.05,0.06,0.05,28.13
44128859,1904,1,217113,255374,0.53,-1.08,9.43,-0.01,-0.05,0.05,28.27
44167181,1936,1,217213,255865,0.48,-0.85,11.77,-0.06,0.01,0.04,28.27
44207172,2003,1,216481,250229,0.66,-0.49,9.83,-0.04,-0.06,0.05,28.27
44247181,2019,1,215154,248794,0.81,-0.86,11.65,-0.06,0.03,0.05,28.27
44287172,2003,1,214856,248160,0.91,-0.94,10.24,-0.04,-0.06,0.05,28.27
44327181,1983,1,214778,247847,0.84,-0.52,10.34,-0.06,-0.02,0.05,28.27
44367181,1981,1,214720,247362,0.80,-0.52,9.79,-0.06,-0.05,0.11,28.27
44407181,1955,1,214628,246792,0.98,-0.71,9.70,-0.09,-0.00,0.33,28.27
44447181,1904,1,214785,246800,1.26,-0.87,9.49,-0.08,-0.01,0.05,28.27
44487181,1898,1,214802,246504,1.11,-0.95,9.03,-0.05,0.03,0.04,28.27
44527173,1873,1,214784,246794,1.38,-0.83,9.42,-0.06,0.01,0.02,28.27
44567172,1874,1,215009,247452,1.27,-0.56,9.44,-0.03,-0.01,0.01,28.27
44607181,1889,1,215105,247636,0.97,-0.72,9.59,-0.02,-0.00,-0.07,28.27
44647198,1879,1,215256,248557,0.75,-0.85,10.21,-0.03,0.01,0.00,28.27
44687173,1904,1,215280,248420,1.03,-0.66,9.59,0.00,-0.08,-0.12,28.27
44727204,1929,1,215138,248831,1.08,-1.10,9.71,-0.01,-0.09,0.03,28.27
44767181,1944,1,215238,249514,1.00,-0.96,9.14,-0.02,-0.06,0.03,28.27
44807178,1967,1,215520,252085,0.68,-0.64,11.00,0.00,0.00,0.05,28.27
44847151,1973,1,215752,253035,0.44,-0.51,9.00,0.02,-0.04,-0.03,28.27
44887179,2000,1,216103,255140,0.72,-1.01,12.10,-0.01,-0.04,-0.00,28.27
44927244,2046,1,215445,249773,0.51,-0.49,9.32,0.00,-0.07,-0.08,28.27
44967179,2081,1,213937,249089,0.73,-0.76,11.17,-0.01,-0.06,0.05,28.27
45007182,2109,1,214030,249050,0.64,-1.01,11.22,-0.01,-0.01,-0.07,28.27
45047202,2117,1,213806,249298,0.98,-0.32,11.21,0.02,-0.11,0.01,28.27
45087173,2091,1,214289,249491,0.66,-1.08,11.26,-0.02,0.01,-0.02,28.27
45127201,2038,1,214048,251355,0.55,-0.69,10.08,-0.03,-0.03,0.04,28.27
45167868,2000,1,214973,252933,1.22,-0.74,11.37,-0.02,-0.15,-0.17,28.43
45206201,2021,1,214721,252866,1.02,-0.35,9.73,-0.02,-0.08,0.00,28.43
45246181,1983,1,215132,252153,1.22,-0.79,10.54,-0.06,-0.10,-0.10,28.43
45286201,1946,1,214465,252134,1.52,-0.60,9.07,-0.00,-0.13,0.05,28.43
45326181,1897,1,215044,252871,1.35,-0.70,9.76,-0.07,-0.05,0.03,28.43
45366181,1862,1,215266,254764,0.79,-0.95,9.35,-0.02,-0.01,0.05,28.43
45406181,1839,1,215662,255509,1.51,-0.21,9.13,-0.03,-0.11,-0.01,28.43
45446201,1840,1,215828,255079,1.00,-0.62,10.40,-0.04,-0.05,0.05,28.43
45486181,1837,1,215563,255762,1.27,-1.22,9.77,-0.02,-0.09,0.05,28.43
45526184,1829,1,215771,253231,1.23,-0.97,9.69,-0.01,-0.11,0.05,28.43
45566181,1817,1,215238,252036,0.86,-0.63,9.77,-0.01,-0.06,0.06,28.43
45606181,1789,1,215381,250102,0.94,-0.76,9.00,-0.03,-0.04,0.05,28.43
45646181,1787,1,214754,248045,0.72,-0.87,9.98,-0.01,-0.06,0.31,28.43
45686181,1740,1,214261,247435,1.34,-0.80,8.36,-0.02,-0.04,0.06,28.43
45726181,1759,1,214210,248114,1.11,-0.16,8.73,-0.02,0.06,0.05,28.43
45766172,1744,1,214372,248844,0.95,-0.59,10.06,-0.04,0.12,0.04,28.43
45806173,1726,1,214405,249682,1.50,-0.04,10.36,-0.00,-0.00,0.04,28.43
45846178,1754,1,214986,251040,0.74,-0.66,11.42,-0.04,0.09,-0.01,28.43
45886181,1786,1,214658,249663,1.15,-0.24,8.60,-0.01,-0.05,0.04,28.43
45926181,1827,1,214911,250241,1.51,-0.42,11.28,-0.07,0.07,0.03,28.43
45966173,1850,1,214764,249758,1.52,0.11,9.00,-0.04,-0.02,0.04,28.43
46006168,1861,1,214669,251953,2.04,0.10,10.27,-0.04,0.01,0.04,28.43
46046149,1849,1,215661,255042,1.13,-0.74,10.89,-0.08,0.15,0.02,28.43
46086172,1911,1,215866,256962,0.70,-0.77,9.13,0.00,0.07,0.05,28.43
46126152,1948,1,216518,258153,1.24,-0.59,11.60,-0.05,-0.01,-0.18,28.43
46166201,1969,1,216042,258045,0.98,-0.22,9.80,-0.02,-0.10,0.03,28.43
46206868,2026,1,216560,258252,0.66,-0.43,11.48,-0.05,-0.02,-0.02,28.23
46247201,2075,1,216211,257665,1.17,-0.95,10.15,-0.03,-0.07,0.05,28.23
46287181,2061,1,216159,254648,0.45,-1.03,10.58,-0.08,0.01,0.04,28.23
46327172,2054,1,213968,249677,1.18,-0.43,9.16,-0.02,-0.16,0.05,28.23
46367189,2033,1,214106,252408,0.40,-1.00,10.65,-0.08,0.09,0.04,28.23
46407169,1968,1,214340,251545,0.60,-0.26,9.00,-0.04,-0.02,0.03,28.23
46447181,1965,1,214652,253981,0.23,-1.63,11.14,-0.06,0.12,0.01,28.23
46487172,1965,1,214528,251503,1.00,-0.65,8.47,-0.04,-0.06,0.03,28.23
46527181,1983,1,214410,253180,0.56,-1.31,10.16,-0.06,0.05,0.04,28.23
46565184,2032,1,214750,251989,0.89,-0.49,9.26,-0.04,-0.01,0.04,28.23
46605181,2029,1,214730,254340,0.24,-1.54,10.33,-0.05,0.09,0.04,28.23
46645172,2019,1,215097,254657,0.69,-0.52,9.25,-0.03,-0.04,-0.06,28.23
46685201,2027,1,215224,255527,0.60,-0.47,9.64,-0.05,-0.02,0.01,28.23
46725179,2018,1,215589,255873,0.70,-0.53,9.38,-0.06,0.04,-0.02,28.23
46765201,2000,1,215899,257125,0.81,-0.98,10.94,-0.03,0.00,-0.03,28.23
46805181,2007,1,216225,257727,0.96,-0.40,10.52,-0.03,0.01,-0.03,28.23
46845181,1991,1,216238,257860,0.51,-0.99,9.94,-0.06,0.01,0.03,28.23
46885172,1993,1,216376,258124,0.68,-0.71,10.77,-0.04,-0.01,0.00,28.23
46925180,1979,1,216332,257800,0.61,-0.75,10.29,-0.05,-0.03,0.04,28.23
46965181,1987,1,215398,253178,0.47,-0.66,10.95,-0.06,-0.02,0.02,28.23
47005181,1982,1,213792,249539,0.57,-0.94,9.63,-0.07,-0.05,0.04,28.23
47045178,1953,1,213425,249293,0.53,-0.97,9.93,-0.06,0.01,0.03,28.23
47085172,1909,1,213613,249262,0.23,-1.40,9.77,-0.07,-0.00,0.03,28.23
47125178,1889,1,213479,250372,0.44,-1.33,9.57,-0.03,-0.00,0.03,28.23
47165181,1867,1,213614,249258,0.24,-0.63,10.45,-0.04,-0.04,-0.07,28.23
47205201,1862,1,213608,248712,0.19,-1.23,8.25,-0.03,-0.06,0.04,28.23
47245867,1819,1,213659,248765,0.04,-1.18,9.34,-0.06,0.05,0.03,28.23
47286169,1808,1,213592,248945,0.30,-1.04,8.99,-0.02,-0.00,0.03,28.23
47326181,1798,1,213849,250428,0.25,-1.18,9.74,-0.03,0.08,0.03,28.23
47366172,1788,1,214250,251935,0.66,-0.98,11.18,-0.01,-0.07,-0.03,28.23
47406201,1819,1,214635,252302,0.42,-0.80,9.45,-0.01,-0.00,0.00,28.23
47446178,1820,1,214837,253058,0.10,-1.13,10.24,-0.03,0.01,-0.01,28.23
47486181,1856,1,215036,252938,0.39,-0.69,10.64,-0.01,0.01,0.01,28.23
47526173,1861,1,214999,252648,0.25,-0.51,10.82,-0.04,0.04,0.02,28.23
47566173,1869,1,215038,252761,0.56,-0.89,10.99,-0.05,-0.01,0.01,28.23
47606181,1875,1,215304,253877,0.26,-0.60,10.54,-0.04,0.05,0.03,28.23
47646172,1891,1,215089,251396,0.43,-0.99,10.66,-0.07,0.04,0.04,28.23
47686172,1854,1,213889,249694,0.25,-1.17,10.61,-0.08,0.02,0.03,28.23
47726173,1857,1,213480,248414,0.52,-0.48,9.62,-0.07,-0.03,0.02,28.23
47766181,1856,1,213505,248040,0.80,-0.62,10.10,-0.07,-0.08,0.02,28.23
47806181,1843,1,213459,248268,0.17,-1.10,9.11,-0.08,0.05,0.02,28.23
47846169,1835,1,213451,248857,0.45,-0.95,8.98,-0.05,-0.01,0.03,28.23
47886181,1837,1,213838,249930,0.31,-1.24,9.56,-0.07,0.01,0.02,28.23
47926172,1823,1,214174,250592,0.08,-1.54,9.33,-0.05,0.02,0.03,28.23
47966173,1887,1,214023,250315,0.50,-1.07,9.29,-0.01,-0.06,0.03,28.23
48006181,1888,1,214174,250813,0.23,-1.61,9.51,-0.04,0.00,0.03,28.23
48046172,1918,1,214052,249985,0.06,-1.03,8.81,-0.01,-0.03,0.03,28.23
48086181,1927,1,214170,250270,-0.16,-1.13,9.55,-0.00,0.00,0.03,28.23
48126181,1984,1,214321,251063,0.08,-0.94,9.96,0.01,-0.02,0.05,28.23
48166169,1952,1,214903,254143,-0.17,-1.37,10.60,-0.01,0.06,0.02,28.23
48206202,1943,1,215542,255662,-0.00,-1.15,10.01,0.02,-0.01,-0.04,28.23
48246888,1950,1,215892,256997,0.08,-1.13,11.27,0.01,-0.05,-0.04,28.17
48285181,1982,1,215961,253911,-0.31,-0.93,9.10,0.00,0.00,0.00,28.17
48325168,1978,1,214262,250014,0.04,-1.26,11.75,0.01,0.02,0.03,28.17
48365149,1943,1,213987,248952,0.39,-0.98,11.79,-0.01,0.09,0.02,28.17
48405172,1917,1,213559,248095,-0.35,-1.58,10.71,-0.03,-0.08,0.04,28.17
48445202,1917,1,213893,248598,-0.50,-0.84,11.24,-0.02,0.05,0.03,28.17
48485181,1913,1,214235,247943,0.08,-0.20,8.40,-0.03,-0.12,0.14,28.17
48525186,1895,1,214270,248344,-0.02,-0.89,8.93,-0.07,0.09,0.27,28.17
48565181,1870,1,214614,249065,0.39,-1.83,9.22,-0.10,0.07,0.02,28.17
48605173,1890,1,214695,249730,0.20,-0.35,8.14,-0.02,0.05,0.02,28.17
48645169,1862,1,214980,251743,0.40,-1.02,9.26,-0.06,0.02,0.02,28.17
48685172,1844,1,215715,257671,0.39,-1.86,10.79,0.01,0.05,0.01,28.17
48725150,1878,1,216505,257159,0.59,0.17,7.64,-0.01,-0.03,-0.10,28.17
48765181,1895,1,216049,258240,-0.07,-1.91,10.42,-0.03,-0.03,0.01,28.17
48805201,1947,1,216575,257388,0.67,-0.48,9.79,0.01,-0.01,-0.08,28.17
48845181,2002,1,215539,253817,-0.09,-0.71,9.33,-0.05,-0.14,0.05,28.17
48885201,1983,1,215921,257040,0.10,-1.33,9.26,-0.02,0.01,0.02,28.17
48925173,1983,1,216523,257567,0.05,-0.92,9.70,-0.04,-0.00,0.03,28.17
48965178,1970,1,215585,252945,-0.18,-0.98,8.79,-0.03,0.03,0.02,28.17
49005181,1937,1,214280,250953,0.60,-0.75,11.47,-0.02,-0.06,0.02,28.17
49045181,1933,1,214577,250784,-0.05,-1.73,11.53,-0.04,0.03,0.03,28.17
49085181,1947,1,214289,250610,0.50,-0.59,10.02,-0.02,-0.18,0.04,28.17
49125179,1930,1,215296,255588,-0.25,-2.18,12.87,-0.04,0.07,0.02,28.17
49165181,1947,1,215403,255189,0.15,-0.10,8.95,0.00,-0.16,0.04,28.17
49205169,1937,1,216313,257971,0.20,-1.40,13.45,-0.03,-0.06,-0.02,28.17
49245201,1947,1,216267,257968,0.15,-0.51,9.28,-0.07,-0.08,0.03,28.17
49285868,1971,1,216518,257937,-0.35,-1.83,11.23,-0.03,-0.01,-0.01,28.01
49324218,1982,1,216151,256693,0.53,-0.94,9.39,-0.03,-0.19,0.03,28.01
49364181,1947,1,216470,258360,-0.50,-1.46,9.66,-0.06,0.08,0.03,28.01
49404181,1906,1,216453,258275,1.09,-0.49,9.07,0.01,-0.32,0.03,28.01
49444169,1893,1,216973,260880,0.03,-1.97,11.48,-0.10,0.12,0.02,28.01
49484173,1904,1,217106,261181,-0.15,-1.08,6.94,0.03,-0.10,0.03,28.01
49524197,1883,1,217249,261225,0.56,-1.10,12.12,0.01,-0.09,-0.15,28.01
49564181,1872,1,217206,261462,0.56,-0.62,8.83,0.01,-0.09,0.02,28.01
49604169,1840,1,217137,256174,1.00,-0.16,10.31,0.01,-0.13,-0.05,28.01
49644181,1831,1,214741,250698,0.72,-0.71,9.31,0.01,-0.06,0.03,28.01
49684172,1809,1,214274,249261,1.28,-0.32,9.07,-0.01,-0.07,0.02,28.01
49724181,1799,1,214113,248182,0.34,-0.07,6.95,-0.03,-0.05,0.27,28.01
49764181,1795,1,214327,248025,1.39,-0.50,9.34,-0.05,-0.06,0.37,28.01
49804181,1839,1,214309,247542,1.08,-0.25,6.60,0.03,-0.08,0.10,28.01
49844169,1883,1,214381,249061,1.53,-0.95,8.92,0.02,0.02,0.22,28.01
49884149,1756,1,214790,249689,1.57,-0.21,9.98,0.05,0.07,-0.02,28.01
49924172,1775,1,214488,252386,1.32,-0.47,9.88,0.09,-0.13,0.05,28.01
49964173,1774,1,215302,253199,0.95,-0.58,11.60,0.04,-0.04,-0.22,28.01
50004181,1822,1,214946,254027,1.11,-0.63,11.22,0.05,-0.13,0.04,28.01
50044179,1940,1,215589,253731,0.71,-0.12,10.58,0.03,-0.01,0.00,28.01
50084169,2043,1,215111,251914,1.95,0.65,11.42,0.01,-0.24,0.03,28.01
50124150,2030,1,215847,257677,0.55,-0.85,11.35,-0.04,0.13,0.05,28.01
50164172,1967,1,215967,257274,1.94,0.44,9.18,0.00,-0.30,-0.01,28.01
50204173,1971,1,216848,260426,0.51,-0.79,11.72,-0.09,0.13,0.04,28.01
50244173,1990,1,216550,258155,1.62,-0.08,8.53,-0.03,-0.21,0.01,28.01
50284185,1984,1,215921,256354,0.99,-0.68,11.17,-0.08,0.03,0.05,28.01
50324860,1955,1,213971,249942,1.47,-0.48,8.90,-0.05,-0.17,0.05,27.75
50365182,1966,1,213734,252172,0.75,-1.27,10.18,-0.07,0.08,0.05,27.75
50405173,1951,1,213804,249751,1.29,-0.30,9.61,-0.02,-0.14,0.05,27.75
50445181,1954,1,213510,249311,1.19,-0.86,10.06,-0.06,-0.03,0.07,27.75
50484181,1952,1,213573,248780,0.77,-0.30,8.60,-0.05,-0.02,0.05,27.75
50524199,1913,1,213741,248207,1.33,-0.95,9.97,-0.06,-0.03,0.30,27.75
50564181,1814,1,213770,247363,0.87,-1.05,9.07,-0.06,0.02,0.21,27.75
50604172,1817,1,213637,247067,1.63,-0.88,9.63,-0.05,0.02,0.10,27.75
50644172,1849,1,213745,247114,1.43,-0.40,9.64,-0.04,0.06,0.02,27.75
50684173,1857,1,213851,246753,0.93,-0.91,9.55,-0.07,0.09,0.06,27.75
50724169,1872,1,213553,245763,0.85,-1.03,9.45,-0.07,0.10,0.09,27.75
50764173,1856,1,213159,245182,1.23,-0.76,9.70,-0.08,0.06,0.05,27.75
50804169,1879,1,213325,247031,0.69,-0.68,9.29,-0.07,0.20,0.03,27.75
50844173,1911,1,213797,251656,0.90,-0.73,10.12,-0.07,0.20,-0.03,27.75
50884182,1885,1,215207,256275,0.80,-0.80,10.70,-0.01,-0.01,-0.34,27.75
50924204,1884,1,215516,256905,0.44,-0.74,11.06,-0.04,0.06,-0.25,27.75
50964182,1973,1,214754,253975,0.57,-0.38,10.31,-0.05,0.02,-0.28,27.75
51004182,2030,1,213415,251019,0.40,-0.02,10.34,-0.08,0.04,-0.05,27.75
51044182,2064,1,213177,248443,-0.23,-1.64,11.21,-0.11,0.14,-0.06,27.75
51084202,2118,1,212630,246859,0.71,-0.17,8.68,-0.05,-0.16,0.09,27.75
51124181,2128,1,212946,246825,0.62,-1.33,10.31,-0.15,0.12,0.06,27.75
51164172,2096,1,213056,246977,0.53,-1.16,8.56,-0.07,-0.02,0.03,27.75
51204182,2014,1,213478,249307,0.91,-1.32,10.20,-0.06,0.06,0.02,27.75
51244173,1982,1,214227,252634,0.75,-1.06,9.27,-0.03,-0.01,0.02,27.75
51284182,1941,1,215312,255026,0.68,-1.36,8.62,-0.03,-0.01,-0.10,27.75
51324202,1939,1,215705,255861,0.56,-0.47,9.30,-0.00,-0.03,-0.12,27.75
51364886,1989,1,215909,257108,-0.23,-1.62,9.23,-0.02,0.01,-0.07,28.23
51403205,2083,1,216481,258962,-0.28,-1.19,9.97,0.00,0.02,-0.08,28.23
51443182,2142,1,216810,259967,-0.49,-1.53,9.32,-0.01,0.02,0.02,28.23
51484231,2122,1,217030,261219,0.00,-1.31,10.21,0.00,-0.02,-0.01,28.23
51524199,2103,1,217442,261501,-0.09,-1.41,10.57,-0.01,-0.06,-0.04,28.23
51564219,2070,1,216532,257969,-0.30,-1.34,10.00,-0.01,-0.00,0.01,28.23
51604199,2017,1,215240,255426,-0.02,-1.38,10.54,-0.02,-0.06,0.02,28.23
51644201,1979,1,214384,252698,0.16,-1.51,9.69,-0.03,-0.07,0.01,28.23
51684184,1902,1,213862,250643,0.15,-1.38,9.35,-0.03,-0.10,0.01,28.23
51724180,1827,1,213708,250424,0.08,-1.27,9.21,-0.01,-0.06,0.01,28.23
51764181,1782,1,214524,254762,0.24,-1.07,10.01,-0.01,-0.00,0.01,28.23
51804181,1743,1,215617,256869,0.18,-0.91,9.37,-0.01,0.01,0.01,28.23
51844169,1725,1,216163,259486,0.35,-1.78,11.69,0.00,-0.02,-0.08,28.23
51884181,1709,1,216607,260673,0.08,-0.96,11.39,0.00,-0.06,-0.12,28.23
51924182,1719,1,216762,261424,0.37,-0.77,12.97,0.01,-0.06,-0.14,28.23
51964181,1785,1,216741,260948,-0.14,-1.14,12.33,-0.05,-0.06,-0.09,28.23
52004215,1776,1,216316,257498,0.00,-1.11,10.83,-0.07,-0.07,0.00,28.23
52044181,1751,1,215749,254702,0.44,-0.52,11.68,-0.09,-0.10,0.09,28.23
52084181,1739,1,215578,252928,0.12,-1.19,9.01,-0.12,-0.05,0.44,28.23
52124181,1760,1,216130,253542,0.56,-1.20,9.90,-0.11,-0.02,0.09,28.23
52164181,1738,1,216504,253160,0.90,-1.01,9.45,-0.04,-0.09,0.33,28.23
52204181,1677,1,215775,249546,0.45,-0.84,9.05,-0.08,0.11,0.02,28.23
52244169,1662,1,214702,249743,0.45,-1.01,9.71,-0.03,0.01,0.01,28.23
52284172,1697,1,214688,250412,0.42,-1.27,9.90,-0.01,-0.07,-0.32,28.23
52324202,1726,1,214645,249703,0.25,-1.46,9.63,-0.02,-0.06,-0.00,28.23
52364888,1725,1,215122,249401,0.28,-1.27,9.62,-0.02,0.07,-0.01,27.99
52403181,1811,1,215428,249528,0.45,-1.67,9.91,-0.03,-0.02,0.00,27.99
52443181,1827,1,215695,249784,0.43,-1.31,8.66,-0.00,0.08,0.00,27.99
52483172,1837,1,215648,250448,0.28,-1.09,9.61,-0.02,0.08,0.01,27.99
52523172,1815,1,215507,251070,0.56,-1.58,8.30,0.02,-0.00,0.01,27.99
52563169,1885,1,215466,250916,0.63,-0.47,9.87,-0.01,0.03,0.01,27.99
52603173,1894,1,215635,254139,0.03,-1.72,9.57,-0.02,0.07,0.01,27.99
52643172,1939,1,216328,256200,0.16,0.11,9.88,-0.00,0.02,-0.15,27.99
52683172,1922,1,216756,258852,-0.17,-1.86,11.74,-0.03,0.04,0.03,27.99
52723181,1943,1,217308,260106,0.07,-0.49,11.09,-0.03,0.02,-0.12,27.99
52763181,2039,1,217581,260691,-0.36,-1.64,12.96,-0.03,-0.03,-0.11,27.99
52803216,2089,1,217488,260110,-0.32,-0.76,10.31,-0.07,-0.04,-0.02,27.99
52843219,2046,1,217389,259715,-0.21,-1.67,12.39,-0.11,-0.05,-0.00,27.99
52883215,2025,1,215910,252396,-0.21,-1.24,8.90,-0.10,-0.05,0.00,27.99
52923201,1997,1,214376,251196,-0.02,-1.32,10.34,-0.06,-0.03,-0.00,27.99
52963215,1956,1,214218,250248,0.12,-1.80,8.63,-0.09,-0.05,-0.00,27.99
53003202,1981,1,213895,249230,0.29,-1.17,8.54,-0.04,-0.11,0.00,27.99
53043181,2043,1,214006,249377,0.22,-1.38,8.91,-0.04,-0.03,0.01,27.99
53083181,2032,1,214610,251700,-0.53,-2.18,8.81,-0.04,0.01,0.02,27.99
53123186,1995,1,215540,253349,-0.47,-1.79,9.39,0.00,0.01,0.02,27.99
53163172,1930,1,216109,252477,-0.37,-1.46,8.39,0.02,-0.07,0.02,27.99
53203181,1929,1,216424,251512,-0.26,-2.02,10.18,0.01,0.03,0.15,27.99
53243173,1975,1,216501,251347,-0.07,-2.43,9.50,0.02,0.04,0.28,27.99
53283172,1942,1,216811,251527,-0.06,-1.36,9.00,0.04,0.01,0.21,27.99
53323183,1917,1,216978,252773,0.30,-1.28,9.99,0.05,-0.01,0.12,27.99
53363172,1925,1,217328,253876,0.29,-1.23,8.50,0.05,0.03,0.01,27.99
53403838,1891,1,217493,257932,-0.14,-1.53,12.17,0.05,0.09,-0.01,27.99
53442182,1935,1,218133,259531,0.40,-1.41,10.61,0.08,-0.06,-0.14,27.99
53482181,1914,1,218163,260594,0.12,-0.77,11.38,0.06,-0.10,0.01,27.99
53522173,1904,1,217852,259730,-0.00,-2.52,12.81,0.01,0.04,-0.13,27.99
53562181,1958,1,216805,259361,0.06,-0.33,11.43,0.05,-0.13,-0.19,27.99
53602181,2015,1,217015,260524,0.09,-2.11,14.34,-0.02,-0.07,-0.18,27.99
53642201,2064,1,216369,258395,0.68,-0.40,10.43,-0.07,-0.13,-0.02,27.99
53682202,2081,1,216451,258297,-0.04,-0.86,12.31,-0.10,0.01,-0.14,27.99
53722202,1982,1,215725,255118,0.73,-0.46,9.00,-0.06,-0.04,-0.00,27.99
53762202,1974,1,215566,257603,0.61,-1.37,11.54,-0.15,-0.01,0.06,27.99
53802184,1919,1,215352,255142,0.77,-0.32,7.59,-0.07,-0.02,-0.00,27.99
53842203,1915,1,215430,258219,0.79,-0.55,9.39,-0.07,0.04,0.02,27.99
53882173,1913,1,215939,258617,0.31,-1.77,8.70,-0.08,0.01,-0.09,27.99
53922183,1953,1,215191,256678,1.25,-1.10,8.65,-0.03,-0.14,-0.01,27.99
53962206,1910,1,215074,255441,0.84,-1.56,8.50,-0.09,-0.04,0.01,27.99
54002182,1919,1,215402,253570,0.43,-0.92,6.58,-0.08,0.07,0.48,27.99
54042172,1909,1,216151,253471,0.36,-1.36,9.50,-0.08,0.09,0.24,27.99
54082172,1887,1,216592,253269,0.39,-0.44,7.43,-0.03,0.07,0.43,27.99
54122173,1815,1,217148,253346,0.33,-2.15,10.43,-0.08,0.16,0.13,27.99
54162172,1791,1,216093,250095,0.33,-0.92,8.08,0.01,0.02,0.03,27.99
54202150,1776,1,214763,250025,-0.16,-2.43,11.94,-0.01,0.20,-0.20,27.99
54242202,1776,1,214574,251401,-0.24,-1.03,9.52,-0.01,0.08,-0.07,27.99
54282201,1803,1,215182,252651,-0.52,-1.91,11.11,-0.02,0.06,-0.22,27.99
54322202,1856,1,215161,254266,-0.34,-1.33,10.78,-0.02,-0.01,-0.00,27.99
54362218,1888,1,216147,256914,-0.11,-1.92,11.51,-0.04,0.03,-0.09,27.99
54402201,1934,1,216412,257394,-0.05,-1.00,10.08,-0.03,-0.05,-0.03,27.99
54442903,1925,1,216870,258255,0.04,-1.37,12.11,-0.05,-0.00,-0.15,27.93
54483201,1968,1,216350,256632,-0.04,-1.19,9.11,-0.04,-0.13,-0.01,27.93
54523219,1974,1,217014,258714,-0.30,-2.07,11.36,-0.05,-0.01,-0.09,27.93
54563214,1982,1,216947,258517,-0.13,-0.99,8.47,-0.04,-0.12,-0.00,27.93
54603218,1935,1,217546,259824,0.14,-1.33,12.09,-0.04,-0.05,-0.14,27.93
54643201,1983,1,217722,259081,-0.75,-1.21,7.21,-0.05,-0.15,0.01,27.93
54683202,1978,1,218034,260439,0.17,-1.25,10.92,-0.07,0.03,-0.02,27.93
54723181,1958,1,218479,257931,0.09,-0.86,8.27,-0.04,-0.17,0.01,27.93
54763180,1927,1,218304,258065,-0.39,-2.62,10.23,-0.05,0.05,0.03,27.93
54803181,1936,1,217188,250492,0.52,-0.05,7.02,-0.03,-0.16,0.00,27.93
54843181,1950,1,215995,249419,-0.21,-3.36,10.18,-0.02,-0.04,0.09,27.93
54883201,1925,1,216064,249592,0.77,-0.27,7.64,0.04,-0.10,-0.00,27.93
54923181,1905,1,216943,252857,-0.56,-2.24,10.97,0.02,0.03,-0.02,27.93
54963192,1940,1,217584,252850,0.01,-0.58,7.43,0.03,-0.06,-0.12,27.93
55003181,1908,1,217970,257417,0.06,-1.63,11.74,0.06,-0.06,-0.23,27.93
55043181,1934,1,218296,259206,0.21,-0.94,7.87,0.04,0.04,-0.16,27.93
55083173,1955,1,217789,260258,-0.16,-1.34,11.49,0.04,-0.04,-0.17,27.93
55123204,2000,1,217439,260647,0.48,-0.74,8.85,0.03,-0.01,-0.02,27.93
55161185,2004,1,217321,261667,-0.27,-0.94,10.93,0.04,-0.10,-0.01,27.93
55201206,1983,1,217485,262143,0.45,-1.43,10.40,0.02,-0.08,0.01,27.93
55241173,1923,1,217512,262143,0.23,-0.15,10.44,0.04,-0.08,-0.14,27.93
55281182,1929,1,217279,262143,-0.13,-1.61,11.70,-0.02,-0.01,-0.10,27.93
55321218,1966,1,216845,261022,0.47,-0.03,10.95,0.02,-0.19,-0.04,27.93
55361181,1950,1,216799,260095,-0.03,-0.88,12.00,-0.04,-0.09,-0.01,27.93
55401216,1936,1,216782,257218,0.39,-0.14,9.35,-0.08,-0.07,0.39,27.93
55441181,1898,1,216845,253124,0.16,-1.97,11.50,-0.11,-0.03,0.16,27.93
55481868,1839,1,214842,248270,0.44,-0.19,8.59,-0.06,-0.11,0.16,27.81
55522184,1792,1,214429,247693,0.07,-1.70,10.58,-0.10,0.02,0.06,27.81
55562172,1804,1,214270,247648,0.31,-0.82,7.99,-0.05,-0.14,0.26,27.81
55602180,1813,1,214537,248009,0.36,-1.69,8.71,-0.08,-0.02,-0.01,27.81
55642201,1857,1,214789,248330,0.82,-0.70,9.08,-0.02,-0.08,0.05,27.81
55682178,1855,1,214924,248386,0.39,-1.27,8.74,-0.08,-0.02,0.03,27.81
55722181,1815,1,215027,248228,0.49,-0.56,8.97,-0.02,-0.03,0.21,27.81
55762181,1808,1,215134,248088,0.61,-1.29,9.38,-0.07,0.01,0.16,27.81
55802173,1819,1,215397,247907,0.57,-1.36,9.11,-0.05,0.03,0.21,27.81
55842172,1849,1,215641,247902,0.55,-1.26,9.03,-0.05,0.05,0.15,27.81
55882172,1859,1,216294,248518,0.34,-1.24,8.54,-0.04,0.05,0.20,27.81
55922172,1844,1,217453,249463,0.93,-1.51,10.11,-0.02,0.02,0.25,27.81
55962173,1813,1,218002,249991,0.81,-1.21,8.65,0.02,0.01,-0.06,27.81
56002172,1835,1,218892,252871,0.23,-0.82,9.69,-0.02,0.16,-0.04,27.81
56042181,1840,1,219605,254184,0.16,-1.00,9.70,0.00,0.08,-0.18,27.81
56082168,1830,1,219966,256179,0.22,-0.37,10.44,-0.01,0.05,-0.05,27.81
56122181,1858,1,220041,253853,0.25,-0.90,10.18,-0.02,0.06,-0.04,27.81
56162181,1931,1,218876,251553,0.14,-1.37,10.75,-0.03,0.05,-0.12,27.81
56202181,1942,1,218498,252011,-0.02,-1.47,10.60,-0.05,0.04,-0.11,27.81
56242201,1950,1,218904,252697,0.30,-0.48,10.40,-0.03,0.00,-0.25,27.81
56282181,1930,1,219109,253961,0.36,-0.92,11.42,-0.06,0.01,-0.03,27.81
56322181,1927,1,219314,254552,0.37,-1.22,10.40,-0.08,0.01,-0.02,27.81
56362181,1935,1,219698,256620,-0.06,-1.19,11.32,-0.07,0.01,-0.01,27.81
56402201,1968,1,219705,255640,0.20,-1.05,9.69,-0.09,-0.04,-0.01,27.81
56442201,1997,1,219781,256824,-0.25,-0.87,10.71,-0.09,0.03,-0.03,27.81
56482887,1967,1,219919,257984,-0.34,-1.35,10.24,-0.08,0.02,-0.00,27.87
56521201,1989,1,220049,257454,0.05,-1.48,10.13,-0.09,-0.02,-0.03,27.87
56561201,1948,1,219535,255175,-0.32,-1.60,8.53,-0.10,-0.05,-0.00,27.87
56601272,1938,1,218824,252835,0.22,-1.73,8.55,-0.07,-0.05,-0.00,27.87
56641201,1906,1,218263,252256,-0.10,-1.74,8.55,-0.05,-0.01,0.01,27.87
56681201,1872,1,218206,252669,0.28,-1.72,8.83,-0.02,-0.03,-0.01,27.87
56721201,1855,1,218486,253230,0.03,-1.69,9.13,0.00,-0.03,-0.11,27.87
56761181,1863,1,217845,250200,-0.20,-1.48,7.86,0.02,-0.01,-0.06,27.87
56801224,1851,1,217289,249215,0.02,-0.96,9.15,0.03,-0.03,-0.18,27.87
56841181,1853,1,217358,249486,-0.36,-1.50,10.24,0.02,0.02,-0.00,27.87
56881181,1827,1,217647,249704,-0.12,-1.63,10.65,0.05,-0.05,-0.04,27.87
56921202,1837,1,217904,250185,-0.45,-1.65,10.33,0.03,-0.01,0.01,27.87
56961181,1846,1,218604,252202,0.36,-1.13,11.55,0.05,-0.02,-0.05,27.87
57001181,1891,1,219959,256845,-0.05,-1.55,11.88,0.05,-0.04,-0.15,27.87
57041201,1943,1,220480,259222,-0.26,-1.53,11.71,0.02,-0.03,-0.11,27.87
57081202,1995,1,220139,258772,-0.79,-1.19,11.07,0.00,-0.02,-0.05,27.87
57121201,2034,1,219852,259338,0.06,-1.24,11.57,-0.02,-0.09,-0.01,27.87
57161201,2071,1,219993,258641,-0.11,-0.75,10.52,-0.05,-0.02,-0.00,27.87
57201215,2032,1,219883,259457,0.10,-1.04,10.98,-0.06,-0.06,-0.01,27.87
57241201,2002,1,220140,259594,0.20,-1.14,9.96,-0.07,-0.01,-0.01,27.87
57281201,1980,1,219950,258907,0.74,-0.91,9.68,-0.07,-0.10,-0.01,27.87
57321201,1936,1,220356,260709,0.04,-1.78,10.41,-0.10,0.04,-0.01,27.87
57361181,1950,1,220094,256671,1.00,-0.39,8.76,-0.06,-0.17,-0.02,27.87
57401201,1922,1,218003,250335,0.83,-1.09,10.12,-0.09,-0.04,-0.01,27.87
57441201,1935,1,216980,249828,0.41,-0.33,7.68,-0.11,0.07,0.32,27.87
57481172,1892,1,217397,250090,0.59,-1.51,9.27,-0.09,0.06,-0.01,27.87
57521871,1894,1,217114,250539,0.47,-0.09,6.97,-0.07,-0.09,0.10,27.95
57560181,1891,1,217849,251882,0.38,-1.50,10.47,-0.12,0.19,-0.01,27.95
57600181,1914,1,217555,251583,0.67,-0.80,9.33,-0.01,-0.02,-0.01,27.95
57640201,1870,1,217514,252026,0.22,-1.47,10.06,-0.04,-0.04,-0.00,27.95
57680201,1897,1,217451,250779,0.75,-0.35,8.97,-0.01,-0.02,-0.00,27.95
57720201,1923,1,217277,251467,-0.19,-1.92,10.28,-0.03,-0.01,0.07,27.95
57760201,1946,1,217432,252368,0.51,-1.24,9.11,-0.01,-0.05,0.00,27.95
57800181,1945,1,218889,259251,-0.36,-1.74,12.83,-0.03,0.13,-0.01,27.95
57840201,1966,1,219827,261241,0.51,-0.12,9.31,0.03,-0.07,-0.26,27.95
57880181,1920,1,220179,262143,-0.61,-1.83,11.72,-0.02,-0.04,-0.13,27.95
57920215,1904,1,220221,262143,0.46,-0.69,10.98,0.01,-0.06,-0.04,27.95
57960181,1925,1,220176,262091,0.11,-1.56,10.98,-0.02,-0.03,0.00,27.95
58000181,1905,1,220046,262069,1.01,-0.56,10.93,-0.04,-0.09,-0.01,27.95
58040201,1898,1,219490,257541,-0.65,-1.08,9.82,-0.05,0.13,0.01,27.95
58080181,1881,1,216741,251284,0.60,-0.00,7.86,-0.02,-0.13,0.03,27.95
58120181,1878,1,216841,252192,0.44,-1.00,11.73,-0.12,0.08,0.03,27.95
58160172,1893,1,216367,250576,0.45,-0.57,6.78,-0.02,-0.00,0.21,27.95
58200181,1899,1,216586,250570,0.58,-1.49,9.58,-0.11,0.09,0.01,27.95
58240173,1897,1,216599,251381,0.31,-1.16,7.72,-0.03,0.04,0.09,27.95
58280172,1904,1,217772,253982,0.69,-1.00,10.07,-0.03,0.09,-0.06,27.95
58320178,1875,1,218164,256679,0.82,-1.54,9.87,0.01,-0.05,-0.00,27.95
58360181,1882,1,219676,259878,0.20,-0.79,10.61,-0.01,0.03,-0.01,27.95
58400181,1886,1,220031,259739,0.34,-0.97,10.08,-0.00,-0.02,-0.00,27.95
58440201,1898,1,219561,258117,0.30,-0.67,9.27,-0.02,0.02,-0.00,27.95
58480178,1942,1,219690,260109,0.30,-1.40,12.46,-0.03,0.03,-0.00,27.95
58520181,1947,1,219702,259030,0.16,-1.38,9.99,-0.05,-0.09,0.00,27.95
58560868,1898,1,219722,260656,0.18,-1.03,10.85,-0.04,0.00,0.00,27.55
58601173,1887,1,220162,262133,0.30,-0.76,10.83,-0.03,-0.04,0.01,27.55
58641181,1877,1,220372,262143,-0.19,-1.05,11.14,-0.06,0.01,0.01,27.55
58681181,1904,1,220177,260377,0.16,-0.84,10.58,-0.05,-0.07,-0.08,27.55
58721201,1935,1,218236,256474,-0.37,-1.45,11.04,-0.07,-0.02,0.00,27.55
58761201,1917,1,217787,254481,0.05,-1.56,9.92,-0.08,-0.02,0.00,27.55
58801178,1915,1,217764,258268,0.10,-1.73,10.46,-0.04,-0.01,0.02,27.55
58841181,1897,1,218763,258845,0.53,-1.54,9.50,-0.05,-0.05,-0.00,27.55
58881198,1883,1,218907,261088,0.39,-0.89,9.90,-0.03,0.00,0.01,27.55
58921172,1904,1,219585,262143,0.09,-1.63,9.69,-0.03,-0.03,-0.14,27.55
58961201,1904,1,219605,261452,0.64,-0.71,9.51,-0.01,-0.06,-0.02,27.55
59001201,1902,1,219623,262121,0.12,-1.11,9.62,-0.06,0.05,-0.00,27.55
59041181,1929,1,219496,259707,0.24,-1.11,8.63,-0.04,-0.01,-0.00,27.55
59081201,1935,1,218894,258844,0.84,-1.22,10.17,-0.03,-0.04,-0.00,27.55
59121201,1955,1,218880,257200,0.73,-1.22,8.63,-0.03,-0.06,-0.00,27.55
59159201,2039,1,218374,257206,0.84,-0.90,9.53,-0.02,-0.01,0.12,27.55
59199181,2011,1,218893,258587,0.27,-1.31,8.96,-0.06,0.05,0.00,27.55
59239172,1956,1,218773,259323,0.89,-0.45,9.59,0.02,-0.08,0.00,27.55
59279168,1938,1,219402,260180,0.26,-1.40,9.88,-0.04,0.05,0.00,27.55
59319172,1959,1,218492,254138,0.71,-1.11,9.07,-0.01,-0.11,0.00,27.55
59359181,1930,1,216989,251604,0.05,-0.98,9.82,-0.03,0.03,-0.00,27.55
59399181,1901,1,216545,251273,0.40,-0.95,9.24,-0.01,-0.06,0.00,27.55
59439181,1933,1,217242,255359,0.10,-1.75,11.80,-0.03,0.05,-0.00,27.55
59479181,1939,1,217944,255942,0.26,-1.19,9.62,-0.01,-0.04,-0.03,27.55
59519201,1963,1,218150,258150,0.21,-1.70,11.11,-0.01,-0.06,-0.00,27.55
59559201,1955,1,218683,258790,0.23,-0.85,8.94,-0.02,-0.08,-0.01,27.55
59599888,1936,1,218765,258993,0.04,-1.37,10.90,-0.02,-0.03,-0.00,27.73
59640201,1923,1,218853,259356,-0.19,-1.77,9.29,-0.03,-0.05,-0.00,27.73
59680215,1934,1,218776,259512,0.40,-1.34,10.24,-0.03,-0.08,-0.01,27.73
59720201,1927,1,219191,261415,-0.15,-1.58,9.18,-0.04,0.03,-0.00,27.73
59760201,1922,1,219561,261971,0.24,-1.35,9.68,-0.04,-0.04,-0.04,27.73
59800201,1943,1,219675,262048,0.30,-1.09,9.94,-0.04,-0.04,-0.08,27.73
59840198,1927,1,219633,261998,0.36,-0.88,9.76,-0.05,-0.03,-0.01,27.73
59880235,1893,1,219852,261980,-0.01,-0.94,10.12,-0.06,0.08,-0.01,27.73
59920201,1906,1,219670,261562,0.12,-1.35,10.05,-0.05,-0.03,-0.01,27.73
59960201,1877,1,218440,253922,0.40,-1.02,9.09,-0.06,-0.03,-0.01,27.73
60000198,1879,1,216790,254555,-0.04,-1.76,9.77,-0.06,0.05,-0.01,27.73
60040201,1859,1,216797,252304,0.67,-0.83,7.97,-0.06,-0.04,-0.04,27.73
60080242,1871,1,216925,255672,0.57,-1.36,10.79,-0.05,0.03,-0.01,27.73
60120181,1852,1,217400,253937,0.63,-1.43,8.14,-0.06,-0.04,-0.02,27.73
60160201,1812,1,217501,257234,0.21,-1.34,9.73,-0.04,0.00,-0.01,27.73
60200181,1838,1,218286,257782,0.56,-0.95,8.49,-0.04,-0.04,-0.04,27.73
60240201,1866,1,218438,259582,0.29,-0.50,9.65,-0.02,0.03,-0.01,27.73
60280181,1867,1,219123,260603,0.46,-1.77,10.30,-0.02,0.03,-0.12,27.73
60320181,1878,1,219013,261208,-0.34,-1.23,9.11,-0.01,0.02,-0.02,27.73
60360202,1939,1,219476,262143,0.41,-1.57,10.56,-0.01,-0.00,-0.15,27.73
60400201,1936,1,219592,262143,-0.47,-1.71,9.81,0.01,0.02,-0.04,27.73
60440181,1933,1,219921,262143,0.24,-1.66,11.94,0.01,-0.05,-0.11,27.73
60480181,1936,1,219973,262143,-1.07,-1.71,9.63,-0.00,0.00,-0.03,27.73
60519202,1903,1,219906,262143,-0.33,-1.53,10.94,0.00,-0.08,-0.03,27.73
60559202,1921,1,219666,261328,-0.42,-1.26,10.66,-0.03,-0.01,-0.01,27.73
60599904,1909,1,217802,257102,-0.10,-1.39,10.98,-0.03,-0.06,-0.01,27.63
60640215,1919,1,217429,255486,-0.14,-1.05,10.37,-0.05,0.00,-0.02,27.63
60680201,1929,1,217032,257079,-0.24,-1.90,10.32,-0.06,-0.02,-0.01,27.63
60720215,1898,1,217945,257183,0.18,-1.00,10.28,-0.05,0.00,-0.02,27.63
60760181,1942,1,217418,254987,-0.04,-1.44,9.61,-0.06,-0.05,0.03,27.63
60800201,1915,1,217308,256126,0.04,-1.44,10.00,-0.07,-0.02,0.03,27.63
60840181,1903,1,218096,257000,-0.11,-0.67,9.36,-0.04,0.03,-0.01,27.63
60880201,1917,1,217890,254978,0.33,-0.53,8.23,-0.05,0.02,0.17,27.63
60920173,1904,1,218117,255668,-0.08,-1.62,10.10,-0.07,0.11,0.00,27.63
60960182,1896,1,217615,253808,0.22,-0.66,8.27,-0.02,-0.09,0.01,27.63
61000181,1907,1,217562,252872,0.52,-1.43,8.99,-0.04,-0.01,0.00,27.63
61040181,1985,1,217332,252236,-0.24,-0.63,6.90,-0.06,0.08,0.28,27.63
61080181,1955,1,217756,253384,0.59,-1.91,8.72,-0.04,0.04,0.01,27.63
61120172,1907,1,218080,254488,1.34,0.04,7.52,-0.02,-0.06,-0.02,27.63
61160181,1857,1,219016,259885,0.16,-2.27,10.67,-0.01,0.14,-0.10,27.63
61200181,1870,1,219479,258228,0.52,0.41,7.51,0.01,0.01,-0.17,27.63
61240150,1863,1,217539,256005,0.07,-1.77,12.12,-0.01,-0.00,-0.06,27.63
61280201,1893,1,217265,254445,0.45,-0.55,7.87,-0.02,0.06,-0.12,27.63
61320181,1856,1,216795,256265,-0.22,-2.08,12.85,-0.00,-0.09,-0.03,27.63
61360214,1891,1,217896,257447,-0.05,-1.57,9.71,-0.04,0.07,0.00,27.63
61400181,1921,1,216877,255679,0.19,-1.22,12.25,0.03,-0.22,-0.02,27.63
61440181,1933,1,218071,258719,-0.59,-2.20,11.44,-0.07,0.12,-0.01,27.63
61480201,1946,1,217243,254371,-0.35,-0.66,9.47,0.02,-0.19,0.00,27.63
61519221,1979,1,217583,255612,-1.11,-1.95,12.45,-0.09,0.10,-0.01,27.63
61559202,2007,1,216493,250832,-0.47,-0.34,5.76,-0.08,-0.03,0.48,27.63
61599888,1995,1,216570,250632,-1.02,-2.83,10.51,-0.13,0.10,0.35,27.69
61638181,2064,1,216760,250614,-0.66,-0.86,6.41,-0.09,-0.03,0.45,27.69
61678201,2047,1,217576,251294,0.68,-2.04,10.23,-0.08,0.03,0.26,27.69
