timestamp_us,ecg,leads,ir,red,accX,accY,accZ,gyroX,gyroY,gyroZ,temp
1918484,1776,1,183584,214295,0.00,0.00,0.00,0.00,0.00,0.00,0.00
1948956,1754,1,183672,214779,0.07,-0.80,9.70,-0.03,-0.01,-0.00,30.31
1989196,1777,1,183842,215272,0.06,-0.81,9.93,-0.04,-0.01,-0.01,30.31
2029186,1795,1,184066,215955,0.09,-0.82,9.94,-0.03,-0.01,-0.01,30.31
2069189,1806,1,184345,216817,0.09,-0.81,9.96,-0.03,-0.01,-0.01,30.31
2109190,1822,1,184587,217662,0.06,-0.81,9.93,-0.03,-0.01,-0.00,30.31
2149189,1826,1,184975,218705,0.07,-0.82,9.94,-0.03,-0.01,-0.00,30.31
2189186,1836,1,185217,218958,0.06,-0.79,9.99,-0.04,-0.01,-0.00,30.31
2229189,1835,1,184706,216810,0.09,-0.84,9.93,-0.03,-0.02,-0.00,30.31
2269185,1822,1,184018,215989,0.06,-0.82,9.96,-0.03,0.00,-0.01,30.31
2309169,1838,1,183792,215506,0.07,-0.83,9.96,-0.03,-0.01,-0.01,30.31
2349186,1855,1,183730,215213,0.09,-0.80,9.96,-0.04,-0.01,-0.01,30.31
2389190,1847,1,183626,215256,0.07,-0.81,9.96,-0.03,-0.01,-0.00,30.31
2429186,1855,1,183767,215687,0.07,-0.81,9.94,-0.03,-0.01,-0.01,30.31
2469190,1853,1,184087,216195,0.07,-0.82,9.93,-0.03,-0.01,-0.01,30.31
2509185,1863,1,184086,216423,0.06,-0.81,9.96,-0.03,-0.01,-0.01,30.31
2549189,1867,1,184250,216883,0.06,-0.83,9.96,-0.04,-0.01,-0.00,30.31
2589186,1866,1,184371,217522,0.06,-0.81,9.95,-0.04,-0.01,-0.01,30.31
2629189,1861,1,184542,218319,0.09,-0.83,9.96,-0.04,-0.01,-0.01,30.31
2669186,1862,1,184826,219151,0.05,-0.82,9.96,-0.04,-0.01,-0.01,30.31
2709190,1846,1,185017,219821,0.06,-0.82,9.95,-0.03,-0.01,-0.01,30.31
2749186,1856,1,185217,220489,0.06,-0.82,9.96,-0.03,-0.01,-0.01,30.31
2789190,1854,1,185308,220844,0.06,-0.83,9.95,-0.03,-0.01,-0.01,30.31
2829186,1846,1,185353,220802,0.06,-0.85,9.97,-0.03,-0.01,-0.01,30.31
2869190,1851,1,185290,220141,0.07,-0.81,9.94,-0.03,-0.01,-0.00,30.31
2909195,1830,1,184736,217726,0.09,-0.82,9.96,-0.03,-0.01,-0.00,30.31
2949190,1823,1,183737,215361,0.06,-0.82,9.95,-0.03,-0.01,-0.00,30.31
2989872,1819,1,183206,213995,0.06,-0.81,9.93,-0.03,-0.01,-0.01,30.59
3028196,1828,1,183105,213823,0.07,-0.81,9.95,-0.03,-0.01,-0.01,30.59
3068186,1837,1,183364,215102,0.09,-0.83,9.97,-0.03,-0.01,-0.00,30.59
3108193,1840,1,183802,216550,0.08,-0.82,9.96,-0.03,-0.01,-0.01,30.59
3148186,1843,1,184283,218066,0.07,-0.82,9.97,-0.03,-0.02,-0.01,30.59
3188190,1841,1,184924,219978,0.08,-0.82,9.96,-0.03,-0.03,-0.00,30.59
3228186,1838,1,185744,221386,0.07,-0.83,9.96,-0.03,-0.02,-0.01,30.59
3268190,1823,1,186303,221890,0.08,-0.82,9.95,-0.04,-0.03,-0.00,30.59
3308186,1821,1,186562,221853,0.11,-0.82,9.92,-0.04,-0.03,-0.01,30.59
3348190,1819,1,186782,222270,0.10,-0.83,9.94,-0.04,-0.00,-0.01,30.59
3388185,1826,1,186851,222781,0.09,-0.81,9.94,-0.03,0.00,-0.01,30.59
3428170,1840,1,186909,223094,0.09,-0.83,9.97,-0.03,-0.01,-0.00,30.59
3468186,1846,1,186952,223199,0.09,-0.83,9.97,-0.03,-0.01,-0.01,30.59
3508190,1853,1,186962,223311,0.10,-0.83,9.96,-0.03,-0.01,-0.00,30.59
3548186,1859,1,187206,222842,0.09,-0.83,9.98,-0.03,-0.02,-0.00,30.59
3588190,1869,1,186945,221196,0.10,-0.81,9.97,-0.03,-0.01,-0.01,30.59
3628186,1855,1,186683,220575,0.09,-0.82,9.96,-0.03,-0.01,-0.00,30.59
3668190,1857,1,186575,220235,0.10,-0.81,9.95,-0.03,-0.01,-0.00,30.59
3708186,1859,1,186560,219856,0.10,-0.80,9.97,-0.03,-0.02,-0.01,30.59
3748190,1865,1,186305,219146,0.08,-0.82,9.98,-0.03,-0.01,-0.00,30.59
3788186,1861,1,186054,218446,0.09,-0.81,9.98,-0.03,-0.01,-0.00,30.59
3828189,1847,1,185884,217879,0.12,-0.79,9.92,-0.03,-0.02,-0.00,30.59
3868186,1846,1,185837,217541,0.11,-0.80,9.95,-0.03,-0.01,-0.00,30.59
3908189,1854,1,185843,217312,0.10,-0.82,9.94,-0.03,-0.01,-0.00,30.59
3948186,1855,1,185766,217127,0.11,-0.80,9.96,-0.03,-0.01,-0.01,30.59
3988189,1849,1,185643,216787,0.12,-0.83,9.95,-0.03,-0.01,-0.01,30.59
4028889,1825,1,185612,216742,0.11,-0.81,9.95,-0.03,-0.01,-0.01,30.65
4069189,1837,1,185577,217242,0.10,-0.81,9.94,-0.04,-0.00,-0.01,30.65
4109186,1830,1,185826,218623,0.11,-0.81,9.97,-0.04,0.01,-0.01,30.65
4149193,1822,1,186474,221649,0.11,-0.82,9.92,-0.03,0.07,-0.01,30.65
4189167,1818,1,187770,225731,-0.05,-0.79,10.10,-0.03,0.04,-0.01,30.65
4229190,1822,1,188207,224798,0.05,-0.81,9.92,-0.04,-0.01,-0.01,30.65
4269187,1809,1,187074,222869,0.01,-0.82,9.99,-0.04,-0.01,-0.01,30.65
4309190,1808,1,186512,222368,0.04,-0.81,9.96,-0.04,-0.02,-0.01,30.65
4349186,1806,1,186466,222525,0.06,-0.82,9.95,-0.04,-0.03,-0.00,30.65
4389189,1826,1,186356,222464,0.05,-0.84,9.97,-0.03,-0.03,-0.01,30.65
4429186,1825,1,186385,222712,0.06,-0.82,9.96,-0.03,-0.02,-0.00,30.65
4469190,1839,1,186628,223359,0.05,-0.80,9.95,-0.03,-0.01,-0.00,30.65
4509186,1845,1,186953,224345,0.07,-0.82,9.95,-0.03,-0.03,-0.00,30.65
4549190,1857,1,187453,225315,0.06,-0.81,9.99,-0.03,-0.01,-0.00,30.65
4589186,1872,1,187686,225413,0.10,-0.80,9.94,-0.03,-0.02,-0.00,30.65
4629189,1893,1,187630,224819,0.08,-0.81,9.93,-0.03,-0.01,-0.00,30.65
4669186,1906,1,187461,224301,0.08,-0.79,9.94,-0.03,-0.01,-0.00,30.65
4709189,1920,1,187317,223731,0.07,-0.80,9.98,-0.03,-0.01,-0.00,30.65
4749186,1936,1,187123,222661,0.08,-0.81,9.96,-0.03,0.00,-0.00,30.65
4789170,1952,1,186835,221870,0.08,-0.79,9.95,-0.03,0.01,-0.00,30.65
4829167,1967,1,186725,221823,0.06,-0.81,9.93,-0.03,0.00,-0.00,30.65
4869169,1987,1,186892,221755,0.08,-0.80,9.93,-0.03,0.01,-0.00,30.65
4909167,1984,1,186604,219657,0.03,-0.79,9.97,-0.03,0.02,-0.00,30.65
4949170,2005,1,185441,216680,0.05,-0.79,9.96,-0.03,0.00,-0.00,30.65
4989167,2017,1,184742,215382,0.05,-0.78,9.93,-0.03,-0.01,-0.01,30.65
5029876,2011,1,184610,215138,0.03,-0.79,9.94,-0.03,-0.01,-0.01,30.87
5068187,2030,1,184569,214829,0.02,-0.78,9.98,-0.04,-0.02,-0.00,30.87
5108190,2016,1,184520,215145,0.04,-0.80,9.97,-0.03,-0.02,-0.01,30.87
5148186,2013,1,184675,215687,0.04,-0.80,9.97,-0.04,-0.02,-0.01,30.87
5188190,1993,1,184882,216218,0.03,-0.81,9.96,-0.03,-0.02,-0.00,30.87
5228186,1982,1,185033,216644,0.06,-0.79,9.96,-0.03,-0.02,-0.00,30.87
5268190,1959,1,185336,217301,0.04,-0.80,9.98,-0.03,-0.02,-0.00,30.87
5308186,1940,1,185542,217498,0.06,-0.78,9.95,-0.03,-0.01,-0.00,30.87
5348190,1917,1,185562,216970,0.06,-0.79,9.96,-0.03,-0.00,-0.00,30.87
5388186,1898,1,185144,215699,0.05,-0.79,9.93,-0.03,-0.00,-0.00,30.87
5428190,1882,1,185237,215313,0.05,-0.80,9.93,-0.03,-0.01,-0.00,30.87
5468186,1843,1,185733,215159,0.05,-0.79,9.93,-0.03,0.00,-0.00,30.87
5508169,1826,1,185984,214789,0.02,-0.79,9.95,-0.03,0.01,-0.00,30.87
5548167,1796,1,185743,212621,0.04,-0.79,9.94,-0.03,0.01,-0.00,30.87
5588170,1781,1,184226,206750,-0.01,-0.79,9.96,-0.03,0.00,-0.00,30.87
5628186,1776,1,181915,200913,-0.00,-0.79,9.97,-0.03,-0.01,-0.01,30.87
5668204,1761,1,180607,197395,0.03,-0.80,9.93,-0.03,-0.01,-0.00,30.87
5708186,1757,1,179856,196422,0.01,-0.79,9.95,-0.03,-0.01,-0.01,30.87
5748189,1734,1,179594,195338,0.01,-0.78,9.90,-0.03,-0.01,-0.01,30.87
5788186,1747,1,178915,194313,0.01,-0.78,9.98,-0.04,-0.01,-0.01,30.87
5828189,1738,1,178958,195683,0.04,-0.77,9.95,-0.03,-0.01,-0.00,30.87
5868186,1742,1,179228,195756,0.02,-0.79,9.95,-0.03,-0.01,-0.01,30.87
5908189,1743,1,179070,194534,0.01,-0.79,9.92,-0.03,0.01,-0.01,30.87
5948167,1734,1,178572,192950,0.02,-0.79,10.01,-0.03,-0.03,-0.01,30.87
5988189,1730,1,178120,193282,-0.00,-0.79,9.95,-0.03,-0.00,-0.01,30.87
6028204,1751,1,178496,193843,0.01,-0.79,9.93,-0.03,-0.01,-0.01,30.87
6068876,1730,1,178464,193416,-0.01,-0.79,9.97,-0.03,-0.01,-0.01,30.81
6107202,1750,1,178305,193867,-0.01,-0.78,9.92,-0.03,-0.00,-0.01,30.81
6147204,1745,1,178631,194884,-0.01,-0.77,9.95,-0.03,-0.01,-0.00,30.81
6187203,1744,1,178585,194703,0.00,-0.78,9.97,-0.04,-0.01,-0.01,30.81
6227190,1751,1,178639,197019,0.01,-0.80,9.94,-0.03,-0.02,-0.01,30.81
6267186,1749,1,179757,198955,0.01,-0.78,9.95,-0.04,-0.01,-0.01,30.81
6307190,1757,1,179663,198937,0.01,-0.79,9.97,-0.04,-0.01,-0.01,30.81
6347186,1763,1,179899,200728,0.01,-0.79,9.94,-0.03,-0.01,-0.00,30.81
6387212,1766,1,180746,203534,0.00,-0.79,9.96,-0.03,-0.02,-0.00,30.81
6427185,1775,1,181787,207153,0.03,-0.79,9.98,-0.04,-0.02,-0.00,30.81
6467189,1779,1,183269,210881,0.04,-0.78,9.94,-0.04,-0.04,-0.00,30.81
6507186,1792,1,184577,214140,0.00,-0.76,9.94,-0.04,-0.03,-0.01,30.81
6547190,1787,1,185882,217463,0.03,-0.79,9.96,-0.05,-0.04,-0.01,30.81
6587186,1791,1,187106,219834,0.09,-0.81,9.93,-0.05,-0.04,-0.01,30.81
6627189,1802,1,187819,221974,0.06,-0.81,9.94,-0.05,-0.02,-0.01,30.81
6667186,1805,1,188438,223453,0.06,-0.82,9.94,-0.05,-0.03,-0.01,30.81
6707189,1808,1,188702,224201,0.06,-0.80,9.98,-0.04,-0.02,-0.01,30.81
6747186,1817,1,188881,224445,0.09,-0.82,9.96,-0.04,-0.01,-0.01,30.81
6787189,1808,1,188889,224833,0.06,-0.81,9.96,-0.03,-0.01,-0.00,30.81
6827186,1808,1,189100,225484,0.08,-0.81,9.94,-0.03,-0.02,-0.01,30.81
6867190,1819,1,189734,227703,0.04,-0.81,10.00,-0.03,-0.03,-0.00,30.81
6907186,1823,1,190498,227570,0.06,-0.83,9.96,-0.03,-0.01,-0.00,30.81
6947190,1822,1,189421,223259,0.07,-0.83,9.95,-0.03,-0.01,-0.01,30.81
6987186,1819,1,188460,221944,0.08,-0.81,9.96,-0.03,-0.01,-0.00,30.81
7027193,1831,1,188289,221927,0.08,-0.81,9.95,-0.03,-0.01,-0.00,30.81
7067186,1835,1,188424,222196,0.08,-0.83,9.95,-0.03,-0.02,-0.00,30.81
7107876,1827,1,188677,222608,0.07,-0.82,9.98,-0.03,-0.02,-0.00,32.05
7148186,1808,1,188960,223340,0.08,-0.81,9.95,-0.03,-0.02,-0.01,32.05
7188190,1820,1,189229,223480,0.06,-0.82,9.95,-0.03,-0.01,-0.00,32.05
7228186,1827,1,189163,223193,0.09,-0.82,9.96,-0.03,-0.01,-0.00,32.05
7268190,1837,1,189017,223113,0.07,-0.83,9.97,-0.03,-0.00,-0.01,32.05
7308186,1837,1,188992,223301,0.07,-0.82,9.94,-0.03,-0.01,-0.01,32.05
7348190,1835,1,189078,223479,0.09,-0.83,9.92,-0.03,-0.01,-0.00,32.05
7388186,1835,1,189188,223685,0.09,-0.82,9.95,-0.03,-0.01,-0.01,32.05
7428190,1840,1,189349,224038,0.10,-0.81,9.95,-0.03,-0.01,-0.01,32.05
7468186,1842,1,189646,225104,0.07,-0.81,9.96,-0.03,-0.01,-0.01,32.05
7508189,1856,1,190170,226610,0.10,-0.83,9.92,-0.03,-0.01,-0.01,32.05
7548186,1847,1,190422,226888,0.07,-0.81,9.94,-0.03,-0.01,-0.00,32.05
7588190,1854,1,190042,224098,0.06,-0.83,9.96,-0.03,-0.01,-0.00,32.05
7628186,1839,1,188836,221484,0.08,-0.83,9.96,-0.03,-0.01,-0.01,32.05
7668190,1850,1,188242,220235,0.09,-0.81,9.96,-0.03,-0.01,-0.01,32.05
7708186,1857,1,187790,219040,0.07,-0.81,9.95,-0.03,-0.00,-0.00,32.05
7748190,1851,1,187180,217484,0.07,-0.83,9.94,-0.03,-0.00,-0.00,32.05
7788186,1857,1,186701,217007,0.07,-0.80,9.96,-0.03,-0.01,-0.00,32.05
7827190,1861,1,187009,218447,0.07,-0.80,9.94,-0.03,-0.01,-0.00,32.05
7867186,1856,1,187540,219631,0.06,-0.82,9.95,-0.03,-0.00,-0.01,32.05
7907189,1858,1,188030,220622,0.06,-0.79,9.96,-0.04,-0.02,-0.01,32.05
7947186,1856,1,188323,220891,0.05,-0.82,9.98,-0.03,-0.01,-0.00,32.05
7987190,1863,1,188267,220204,0.06,-0.82,9.96,-0.03,-0.02,-0.01,32.05
8027228,1863,1,187914,219148,0.07,-0.80,9.96,-0.03,-0.02,-0.00,32.05
8067190,1858,1,187838,219187,0.08,-0.80,9.94,-0.03,-0.01,-0.00,32.05
8107872,1854,1,188211,219958,0.06,-0.84,9.94,-0.04,-0.01,-0.01,32.13
8148190,1855,1,188494,220869,0.06,-0.82,9.96,-0.04,-0.00,-0.01,32.13
8188186,1856,1,188765,221996,0.06,-0.81,9.97,-0.04,-0.00,-0.01,32.13
8228189,1856,1,189126,222661,0.06,-0.81,9.97,-0.03,-0.01,-0.01,32.13
8268186,1853,1,188951,221062,0.07,-0.82,9.98,-0.03,-0.01,-0.00,32.13
8308190,1859,1,188367,219910,0.05,-0.81,9.93,-0.03,-0.01,-0.01,32.13
8348186,1856,1,188155,219649,0.04,-0.81,9.97,-0.03,-0.01,-0.00,32.13
8388189,1872,1,188157,219469,0.07,-0.82,9.95,-0.03,-0.01,-0.01,32.13
8428186,1851,1,188064,219107,0.05,-0.83,9.98,-0.03,-0.01,-0.00,32.13
8468190,1853,1,188046,219164,0.07,-0.82,9.96,-0.03,-0.01,-0.00,32.13
8508186,1847,1,188176,219344,0.06,-0.79,9.94,-0.03,-0.01,-0.01,32.13
8548189,1849,1,188239,219293,0.08,-0.81,9.97,-0.03,-0.01,-0.00,32.13
8588186,1856,1,188260,219466,0.07,-0.83,9.95,-0.03,-0.01,-0.00,32.13
8628189,1859,1,188445,220187,0.10,-0.80,9.94,-0.03,-0.01,-0.01,32.13
8668186,1846,1,188677,220789,0.07,-0.80,9.96,-0.03,-0.01,-0.01,32.13
8708189,1850,1,188872,221273,0.08,-0.80,9.95,-0.03,-0.01,-0.00,32.13
8748185,1861,1,189037,221856,0.05,-0.81,9.97,-0.03,-0.01,-0.01,32.13
8788190,1853,1,189352,222616,0.07,-0.82,9.94,-0.03,-0.01,-0.01,32.13
8828187,1862,1,189587,223192,0.07,-0.81,9.97,-0.03,-0.01,-0.00,32.13
8867190,1856,1,189724,223868,0.08,-0.82,9.93,-0.03,-0.01,-0.01,32.13
8907186,1853,1,190045,223519,0.04,-0.80,9.98,-0.03,-0.01,-0.01,32.13
8947190,1856,1,189715,222583,0.07,-0.82,9.95,-0.04,-0.01,-0.01,32.13
8987186,1851,1,189634,222892,0.05,-0.80,9.97,-0.03,-0.01,-0.00,32.13
9027195,1840,1,190176,223777,0.08,-0.82,9.94,-0.03,-0.01,-0.00,32.13
9067186,1846,1,190590,224074,0.06,-0.81,9.97,-0.03,-0.01,-0.00,32.13
9107190,1844,1,190616,223985,0.07,-0.82,9.94,-0.03,-0.01,-0.00,32.13
9147872,1843,1,190659,224124,0.07,-0.82,9.93,-0.03,-0.01,-0.01,32.05
9188190,1853,1,190597,223970,0.05,-0.83,9.96,-0.03,-0.01,-0.01,32.05
9228185,1858,1,190480,223946,0.08,-0.80,9.95,-0.03,-0.01,-0.00,32.05
9268190,1850,1,190573,224397,0.07,-0.81,9.99,-0.03,-0.01,-0.00,32.05
9308185,1854,1,190923,224938,0.10,-0.83,9.95,-0.03,-0.01,-0.01,32.05
9348189,1850,1,191080,225095,0.06,-0.81,9.94,-0.03,-0.01,-0.00,32.05
9388185,1839,1,191085,225194,0.06,-0.80,9.95,-0.03,-0.01,-0.01,32.05
9428189,1841,1,191126,225528,0.06,-0.81,9.96,-0.03,-0.01,-0.01,32.05
9468186,1834,1,191173,225774,0.07,-0.80,9.96,-0.03,-0.01,-0.00,32.05
9508189,1842,1,191198,225884,0.08,-0.83,9.94,-0.04,-0.01,-0.00,32.05
9548185,1841,1,191076,224975,0.06,-0.81,9.95,-0.03,-0.01,-0.00,32.05
9588190,1841,1,190340,222914,0.07,-0.81,9.95,-0.03,-0.01,-0.01,32.05
9628186,1834,1,189706,221788,0.06,-0.81,9.97,-0.03,-0.01,-0.01,32.05
9668196,1830,1,189323,221129,0.05,-0.82,9.96,-0.03,-0.01,-0.00,32.05
9708185,1829,1,189193,220852,0.08,-0.82,9.96,-0.03,-0.01,-0.00,32.05
9748190,1834,1,189072,220807,0.05,-0.82,9.97,-0.03,-0.01,-0.01,32.05
9788185,1822,1,189130,221136,0.04,-0.81,9.95,-0.03,-0.01,-0.01,32.05
9828190,1830,1,189287,221525,0.07,-0.82,9.96,-0.03,-0.01,-0.00,32.05
9869186,1829,1,189286,221657,0.07,-0.80,9.94,-0.03,-0.01,-0.01,32.05
9907190,1836,1,189253,221595,0.07,-0.82,9.97,-0.03,-0.01,-0.01,32.05
9947185,1834,1,189109,221372,0.08,-0.80,9.94,-0.03,-0.01,-0.00,32.05
9987189,1838,1,188970,221145,0.07,-0.81,9.94,-0.03,-0.01,-0.01,32.05
10027193,1835,1,188804,221070,0.04,-0.83,9.95,-0.03,-0.01,-0.00,32.05
10067210,1836,1,188814,221300,0.07,-0.79,9.98,-0.03,-0.01,-0.01,32.05
10107186,1847,1,188913,221877,0.08,-0.82,9.97,-0.03,-0.01,-0.01,32.05
10147189,1840,1,189111,222492,0.07,-0.81,9.97,-0.03,-0.01,-0.00,32.05
10187872,1846,1,189278,223303,0.08,-0.84,9.95,-0.03,-0.01,-0.01,31.97
10228189,1840,1,189559,222900,0.07,-0.82,9.96,-0.03,-0.01,-0.00,31.97
10268186,1845,1,188948,221406,0.05,-0.81,9.99,-0.03,-0.01,-0.01,31.97
10308190,1847,1,188603,221019,0.07,-0.82,9.96,-0.03,-0.01,-0.01,31.97
10348186,1846,1,188571,220983,0.07,-0.80,9.96,-0.03,-0.01,-0.01,31.97
10388190,1854,1,188554,220936,0.06,-0.82,9.96,-0.03,-0.01,-0.00,31.97
10428186,1842,1,188508,220965,0.08,-0.81,9.96,-0.03,-0.01,-0.01,31.97
10468189,1847,1,188490,221204,0.06,-0.80,9.93,-0.03,-0.01,-0.01,31.97
10508187,1842,1,188423,221029,0.09,-0.82,9.93,-0.03,-0.01,-0.01,31.97
10548190,1843,1,188379,220964,0.04,-0.81,9.96,-0.03,-0.01,-0.01,31.97
10588189,1840,1,188192,220881,0.03,-0.82,9.96,-0.03,-0.01,-0.01,31.97
10628189,1842,1,188266,221115,0.05,-0.82,9.93,-0.03,-0.01,-0.01,31.97
10668187,1844,1,188301,221211,0.04,-0.82,9.99,-0.03,-0.00,-0.01,31.97
10708190,1845,1,188332,221314,0.04,-0.82,9.96,-0.03,-0.00,-0.01,31.97
10748187,1842,1,188328,221412,0.04,-0.80,9.96,-0.03,-0.01,-0.01,31.97
10788190,1840,1,188283,221524,0.06,-0.80,9.96,-0.03,-0.01,-0.01,31.97
10828186,1837,1,188225,221610,0.04,-0.82,9.95,-0.03,-0.01,-0.01,31.97
10868189,1840,1,188181,221703,0.04,-0.79,9.94,-0.03,-0.01,-0.00,31.97
10907186,1842,1,188086,221014,0.04,-0.81,9.99,-0.03,-0.01,-0.01,31.97
10947189,1841,1,187519,219480,0.05,-0.81,9.98,-0.03,-0.01,-0.01,31.97
10987187,1842,1,187123,218853,0.06,-0.80,9.96,-0.03,-0.01,-0.01,31.97
11027192,1852,1,186992,218654,0.04,-0.81,9.97,-0.03,-0.01,-0.00,31.97
11067186,1850,1,186968,218729,0.06,-0.83,9.95,-0.03,-0.01,-0.01,31.97
11107190,1840,1,186984,219090,0.05,-0.80,9.97,-0.03,-0.01,-0.01,31.97
11147186,1845,1,187129,219625,0.05,-0.79,9.95,-0.02,0.01,-0.00,31.97
11187169,1853,1,187240,219883,0.03,-0.80,9.96,-0.03,-0.01,-0.00,31.97
11227873,1829,1,187354,220348,0.05,-0.79,9.94,-0.03,-0.01,-0.00,32.27
11266190,1851,1,187492,220648,0.05,-0.80,9.93,-0.03,-0.01,-0.00,32.27
11306202,1853,1,187617,221102,0.07,-0.78,9.96,-0.03,-0.01,-0.00,32.27
11346190,1850,1,187814,221603,0.05,-0.81,9.98,-0.03,-0.01,-0.01,32.27
11386187,1856,1,187986,221782,0.04,-0.80,9.95,-0.03,-0.01,-0.01,32.27
11426189,1843,1,188010,221827,0.06,-0.81,9.98,-0.03,-0.01,-0.00,32.27
11466186,1840,1,188127,222073,0.06,-0.81,9.94,-0.03,-0.02,-0.01,32.27
11506224,1846,1,188306,222623,0.06,-0.80,9.96,-0.03,-0.01,-0.01,32.27
11546186,1840,1,188617,223274,0.05,-0.81,9.95,-0.03,-0.01,-0.01,32.27
11586190,1851,1,188769,223251,0.05,-0.81,9.95,-0.03,-0.01,-0.01,32.27
11626187,1845,1,188380,221132,0.05,-0.78,9.96,-0.03,-0.01,-0.00,32.27
11666189,1850,1,187734,219846,0.05,-0.79,9.99,-0.03,-0.01,-0.00,32.27
11706210,1840,1,187518,219363,0.03,-0.81,9.95,-0.03,-0.01,-0.00,32.27
11746190,1853,1,187447,219147,0.04,-0.80,9.94,-0.03,-0.00,-0.01,32.27
11786186,1850,1,187414,219010,0.05,-0.79,9.97,-0.03,-0.01,-0.00,32.27
11826189,1855,1,187470,219193,0.04,-0.80,9.96,-0.03,-0.01,-0.01,32.27
11866186,1851,1,187624,219360,0.04,-0.78,9.94,-0.03,-0.01,-0.01,32.27
11906190,1857,1,187661,219370,0.04,-0.79,9.98,-0.03,-0.01,-0.00,32.27
11947186,1851,1,187747,219444,0.06,-0.79,9.96,-0.03,-0.01,-0.01,32.27
11987190,1847,1,187810,219665,0.04,-0.78,9.97,-0.03,-0.01,-0.01,32.27
12027192,1853,1,187880,219756,0.03,-0.79,9.94,-0.03,-0.01,-0.01,32.27
12067190,1856,1,187928,219873,0.05,-0.79,9.95,-0.03,-0.01,-0.01,32.27
12107186,1845,1,188006,220187,0.06,-0.77,9.96,-0.04,-0.01,-0.01,32.27
12147190,1855,1,188231,220942,0.05,-0.77,9.98,-0.04,-0.01,-0.01,32.27
12187187,1843,1,188412,221516,0.04,-0.81,9.97,-0.04,-0.01,-0.01,32.27
12227876,1844,1,188506,221951,0.06,-0.80,9.96,-0.04,-0.02,-0.01,32.33
12266186,1856,1,188489,221789,0.07,-0.80,9.96,-0.04,-0.02,-0.01,32.33
12306190,1847,1,187935,219788,0.06,-0.80,9.97,-0.04,-0.01,-0.01,32.33
12346186,1846,1,187243,218800,0.06,-0.81,9.96,-0.04,-0.02,-0.01,32.33
12386190,1850,1,186964,218479,0.07,-0.82,9.95,-0.04,-0.01,-0.01,32.33
12426186,1856,1,186756,217966,0.07,-0.80,9.96,-0.03,-0.01,-0.01,32.33
12466189,1852,1,186586,217591,0.05,-0.80,9.96,-0.03,-0.01,-0.01,32.33
12506186,1841,1,186443,217597,0.07,-0.82,9.96,-0.04,-0.01,-0.01,32.33
12546190,1841,1,186467,217550,0.07,-0.82,9.94,-0.03,-0.01,-0.01,32.33
12586187,1840,1,186361,217337,0.07,-0.82,9.95,-0.03,-0.01,-0.00,32.33
12626189,1841,1,186270,217198,0.07,-0.80,9.97,-0.03,-0.01,-0.01,32.33
12666186,1834,1,186260,217247,0.08,-0.80,9.98,-0.04,-0.01,-0.01,32.33
12706190,1849,1,186355,217646,0.07,-0.83,9.92,-0.04,-0.01,-0.01,32.33
12746187,1835,1,186580,218516,0.06,-0.80,9.97,-0.04,-0.01,-0.00,32.33
12786189,1847,1,186925,219616,0.05,-0.79,9.98,-0.04,-0.02,-0.01,32.33
12826187,1839,1,187224,220426,0.07,-0.82,9.96,-0.04,-0.02,-0.00,32.33
12866189,1851,1,187478,221022,0.08,-0.83,9.97,-0.04,-0.01,-0.01,32.33
12906187,1845,1,187594,221230,0.08,-0.82,9.96,-0.03,-0.01,-0.01,32.33
12946189,1843,1,187437,219829,0.08,-0.81,9.95,-0.03,-0.01,-0.00,32.33
12986186,1840,1,186607,217762,0.07,-0.80,9.93,-0.03,-0.01,-0.01,32.33
13026196,1831,1,186039,216768,0.08,-0.84,9.95,-0.03,-0.01,-0.00,32.33
13066186,1834,1,185798,216333,0.07,-0.83,9.97,-0.03,-0.01,-0.01,32.33
13106190,1834,1,185677,216089,0.07,-0.80,9.93,-0.03,-0.01,-0.00,32.33
13146186,1836,1,185715,216208,0.06,-0.80,9.95,-0.03,-0.01,-0.01,32.33
13186189,1835,1,185885,217014,0.07,-0.82,9.97,-0.03,-0.01,-0.01,32.33
13226187,1847,1,186188,217672,0.06,-0.80,9.96,-0.03,-0.01,-0.01,32.33
13266876,1830,1,186351,217997,0.06,-0.83,9.96,-0.03,-0.01,-0.00,31.43
13307186,1829,1,186506,218404,0.07,-0.80,9.97,-0.03,-0.01,-0.01,31.43
13347222,1839,1,186649,218779,0.06,-0.81,9.94,-0.03,-0.01,-0.01,31.43
13387189,1836,1,186762,219026,0.06,-0.81,9.95,-0.03,-0.01,-0.00,31.43
13427189,1839,1,186873,219349,0.06,-0.81,9.97,-0.03,-0.01,-0.00,31.43
13467186,1840,1,186942,219717,0.06,-0.80,9.96,-0.03,-0.01,-0.01,31.43
13507189,1838,1,187113,220162,0.06,-0.81,9.97,-0.03,-0.01,-0.01,31.43
13547187,1832,1,187229,220467,0.07,-0.83,9.96,-0.03,-0.01,-0.01,31.43
13587190,1831,1,187284,220522,0.07,-0.81,9.93,-0.03,-0.01,-0.01,31.43
13627187,1839,1,187207,219358,0.06,-0.82,9.95,-0.03,-0.01,-0.01,31.43
13667190,1837,1,186494,217571,0.05,-0.79,9.99,-0.03,-0.01,-0.01,31.43
13707187,1834,1,186006,216744,0.08,-0.83,9.97,-0.03,-0.01,-0.01,31.43
13747189,1843,1,185835,216244,0.07,-0.84,9.95,-0.03,-0.01,-0.00,31.43
13787186,1838,1,185811,216206,0.05,-0.82,9.96,-0.03,-0.01,-0.01,31.43
13827189,1830,1,185878,216407,0.07,-0.79,9.95,-0.03,-0.01,-0.00,31.43
13867187,1836,1,186018,216883,0.07,-0.81,9.97,-0.03,-0.01,-0.00,31.43
13907189,1840,1,186243,217348,0.06,-0.82,9.95,-0.03,-0.01,-0.01,31.43
13947187,1839,1,186404,217875,0.05,-0.81,9.93,-0.03,-0.01,-0.01,31.43
13987189,1837,1,186575,218427,0.07,-0.81,9.95,-0.03,-0.01,-0.01,31.43
14027192,1840,1,186821,219124,0.07,-0.81,9.97,-0.03,-0.01,-0.01,31.43
14067190,1837,1,187108,219695,0.06,-0.81,9.97,-0.03,-0.01,-0.01,31.43
14107187,1837,1,187258,220138,0.03,-0.82,9.97,-0.03,-0.01,-0.01,31.43
14147190,1830,1,187443,220717,0.07,-0.80,9.94,-0.03,-0.01,-0.01,31.43
14187186,1836,1,187675,221164,0.07,-0.82,9.98,-0.03,-0.01,-0.00,31.43
14227190,1837,1,187808,221500,0.06,-0.80,9.96,-0.03,-0.01,-0.00,31.43
14267872,1840,1,187856,221652,0.06,-0.80,9.97,-0.03,-0.01,-0.00,31.25
14306190,1836,1,187605,219856,0.07,-0.82,9.96,-0.03,-0.01,-0.00,31.25
14346187,1855,1,186923,218566,0.06,-0.81,9.96,-0.03,-0.01,-0.01,31.25
14386190,1844,1,186636,218126,0.05,-0.82,9.95,-0.03,-0.01,-0.01,31.25
14426187,1845,1,186591,218124,0.08,-0.82,9.96,-0.03,-0.01,-0.01,31.25
14466190,1836,1,186560,218159,0.06,-0.83,9.97,-0.03,-0.01,-0.01,31.25
14506187,1840,1,186653,218409,0.05,-0.81,9.97,-0.03,-0.01,-0.00,31.25
14546190,1840,1,186778,218823,0.05,-0.81,9.96,-0.03,-0.01,-0.00,31.25
14586187,1834,1,186955,219048,0.06,-0.80,9.97,-0.03,-0.01,-0.00,31.25
14626189,1827,1,187034,219231,0.06,-0.82,9.94,-0.03,-0.01,-0.01,31.25
14666186,1840,1,187109,219463,0.08,-0.83,9.95,-0.03,-0.01,-0.01,31.25
14706189,1842,1,187252,219714,0.07,-0.81,9.96,-0.03,-0.01,-0.00,31.25
14746187,1845,1,187323,219969,0.06,-0.83,9.95,-0.03,-0.01,-0.00,31.25
14786235,1850,1,187431,220201,0.08,-0.80,9.95,-0.03,-0.01,-0.00,31.25
14826186,1841,1,187518,220479,0.06,-0.81,9.98,-0.03,-0.01,-0.00,31.25
14866189,1842,1,187570,220537,0.04,-0.83,9.94,-0.03,-0.01,-0.01,31.25
14906187,1841,1,187607,220616,0.07,-0.81,9.95,-0.03,-0.01,-0.01,31.25
14946189,1839,1,187605,220224,0.08,-0.80,9.95,-0.03,-0.01,-0.01,31.25
14986220,1834,1,187186,218503,0.06,-0.83,9.95,-0.03,-0.01,-0.01,31.25
15026196,1841,1,186611,217488,0.05,-0.80,9.95,-0.03,-0.01,-0.01,31.25
15066187,1847,1,186443,217225,0.06,-0.80,9.96,-0.03,-0.01,-0.01,31.25
15106190,1838,1,186346,216932,0.05,-0.81,9.93,-0.03,-0.01,-0.01,31.25
15146187,1840,1,186321,216799,0.07,-0.81,9.95,-0.03,-0.01,-0.00,31.25
15186189,1849,1,186366,217114,0.09,-0.80,9.96,-0.03,-0.01,-0.01,31.25
15226187,1840,1,186468,217243,0.05,-0.81,9.96,-0.03,-0.01,-0.00,31.25
15266189,1839,1,186539,217373,0.07,-0.81,9.96,-0.03,-0.01,-0.00,31.25
15306873,1834,1,186551,217577,0.06,-0.81,9.96,-0.03,-0.01,-0.01,31.35
15347190,1837,1,186623,217941,0.06,-0.79,9.96,-0.03,-0.01,-0.01,31.35
15387187,1835,1,186862,218651,0.07,-0.82,9.97,-0.03,-0.01,-0.01,31.35
15427190,1823,1,187100,219189,0.05,-0.81,9.96,-0.03,-0.01,-0.00,31.35
15467186,1824,1,187294,219492,0.07,-0.79,9.95,-0.03,-0.01,-0.01,31.35
15507190,1837,1,187343,219644,0.08,-0.81,9.96,-0.03,-0.01,-0.01,31.35
15547186,1818,1,187379,219742,0.05,-0.81,9.95,-0.03,-0.01,-0.00,31.35
15587189,1838,1,187423,219856,0.06,-0.82,9.97,-0.03,-0.01,-0.00,31.35
15627187,1840,1,187255,218224,0.06,-0.81,9.95,-0.03,-0.01,-0.00,31.35
15667190,1834,1,186520,216415,0.05,-0.81,9.95,-0.03,-0.01,-0.00,31.35
15707187,1833,1,186013,215240,0.05,-0.80,9.95,-0.03,-0.02,-0.00,31.35
15747190,1840,1,185858,214895,0.08,-0.79,9.96,-0.03,-0.02,-0.00,31.35
15787187,1843,1,186023,215570,0.09,-0.81,9.94,-0.03,-0.01,-0.00,31.35
15827189,1843,1,186495,217195,0.06,-0.81,9.95,-0.04,-0.00,-0.01,31.35
15867186,1840,1,187101,218907,0.07,-0.81,9.95,-0.04,0.00,-0.01,31.35
15907170,1843,1,187463,219859,0.05,-0.80,9.96,-0.04,0.00,-0.01,31.35
15947167,1831,1,187554,220222,0.03,-0.81,9.98,-0.04,-0.00,-0.01,31.35
15987189,1837,1,187588,220546,0.05,-0.81,9.95,-0.03,-0.01,-0.01,31.35
16027192,1837,1,187637,220610,0.04,-0.83,9.96,-0.03,-0.01,-0.00,31.35
16065189,1849,1,187610,220649,0.06,-0.81,9.96,-0.03,-0.01,-0.00,31.35
16105187,1859,1,187625,220891,0.06,-0.79,9.96,-0.03,-0.01,-0.00,31.35
16145190,1858,1,187751,221159,0.05,-0.82,9.96,-0.03,-0.01,-0.00,31.35
16185186,1846,1,187813,221402,0.05,-0.82,9.97,-0.03,-0.01,-0.01,31.35
16225189,1840,1,187857,221257,0.06,-0.78,9.95,-0.03,-0.01,-0.01,31.35
16265186,1856,1,187687,220477,0.05,-0.80,9.93,-0.03,-0.01,-0.00,31.35
16305190,1845,1,187135,218891,0.07,-0.82,9.96,-0.03,-0.01,-0.00,31.35
16345873,1833,1,186797,218278,0.03,-0.81,9.95,-0.04,-0.01,-0.01,31.47
16386189,1840,1,186677,218092,0.06,-0.81,9.97,-0.03,-0.01,-0.01,31.47
16426203,1840,1,186634,217943,0.06,-0.81,9.95,-0.03,-0.01,-0.00,31.47
16466190,1836,1,186624,217951,0.06,-0.80,9.97,-0.03,-0.01,-0.01,31.47
16506187,1839,1,186723,218330,0.04,-0.80,9.95,-0.03,-0.01,-0.00,31.47
16546190,1832,1,186858,218664,0.06,-0.82,9.96,-0.03,-0.01,-0.00,31.47
16586186,1835,1,186913,218768,0.05,-0.83,9.95,-0.03,-0.01,-0.00,31.47
16626223,1842,1,186960,218924,0.04,-0.81,9.94,-0.03,-0.01,-0.00,31.47
16666187,1840,1,187037,219204,0.06,-0.81,9.94,-0.03,-0.01,-0.00,31.47
16706189,1835,1,187118,219380,0.05,-0.82,9.96,-0.03,-0.01,-0.01,31.47
16746187,1837,1,187191,219603,0.06,-0.81,9.92,-0.03,-0.01,-0.00,31.47
16786190,1840,1,187244,219906,0.07,-0.81,9.94,-0.03,-0.01,-0.00,31.47
16826208,1829,1,187348,220184,0.06,-0.81,9.96,-0.03,-0.01,-0.01,31.47
16866190,1837,1,187441,220550,0.06,-0.81,9.96,-0.03,-0.01,-0.01,31.47
16906187,1840,1,187538,220707,0.07,-0.81,9.96,-0.03,-0.01,-0.01,31.47
16946190,1835,1,187354,219300,0.06,-0.81,9.95,-0.03,-0.01,-0.01,31.47
16986187,1833,1,186785,218192,0.06,-0.83,9.95,-0.03,-0.01,-0.01,31.47
17026196,1838,1,186576,217906,0.06,-0.81,9.96,-0.03,-0.01,-0.01,31.47
17066187,1835,1,186525,217765,0.06,-0.80,9.97,-0.03,-0.01,-0.01,31.47
17106190,1831,1,186522,217736,0.06,-0.82,9.96,-0.03,-0.01,-0.01,31.47
17146189,1837,1,186578,218218,0.07,-0.81,9.97,-0.03,-0.01,-0.01,31.47
17186190,1840,1,186833,218910,0.05,-0.81,9.94,-0.03,-0.01,-0.01,31.47
17226187,1842,1,186973,219325,0.06,-0.80,9.93,-0.03,-0.01,-0.01,31.47
17266189,1840,1,187119,219677,0.06,-0.81,9.98,-0.03,-0.01,-0.00,31.47
17306186,1829,1,187196,219961,0.05,-0.79,9.98,-0.03,-0.01,-0.00,31.47
17346876,1839,1,187265,220270,0.05,-0.79,9.96,-0.03,-0.01,-0.01,31.47
17385186,1844,1,187364,220609,0.06,-0.79,9.94,-0.03,-0.01,-0.00,31.47
17425190,1840,1,187511,221080,0.05,-0.81,9.95,-0.03,-0.01,-0.01,31.47
17465187,1842,1,187624,221529,0.04,-0.82,9.97,-0.03,-0.01,-0.01,31.47
17505189,1842,1,187745,221813,0.05,-0.81,9.95,-0.03,-0.01,-0.00,31.47
17545187,1842,1,187813,222055,0.06,-0.80,9.95,-0.03,-0.01,-0.01,31.47
17585190,1831,1,187824,221031,0.03,-0.80,9.95,-0.03,-0.01,-0.01,31.47
17625186,1837,1,187196,219609,0.06,-0.80,9.98,-0.03,-0.01,-0.01,31.47
17665190,1823,1,186867,219164,0.06,-0.82,9.97,-0.03,-0.01,-0.01,31.47
17705190,1829,1,186803,218974,0.04,-0.81,9.98,-0.03,-0.01,-0.01,31.47
17745190,1827,1,186758,218836,0.06,-0.83,9.97,-0.03,-0.01,-0.00,31.47
17785187,1840,1,186756,219098,0.06,-0.81,9.95,-0.03,-0.01,-0.01,31.47
17825189,1839,1,186962,219646,0.06,-0.82,9.94,-0.03,-0.01,-0.01,31.47
17865187,1840,1,187055,219779,0.07,-0.80,9.95,-0.03,-0.01,-0.00,31.47
17905189,1840,1,187068,219828,0.04,-0.82,9.97,-0.03,-0.01,-0.00,31.47
17945187,1840,1,187052,219887,0.05,-0.81,9.95,-0.03,-0.01,-0.00,31.47
17985190,1851,1,187124,220161,0.06,-0.83,9.96,-0.03,-0.01,-0.00,31.47
18025212,1834,1,187190,220490,0.06,-0.82,9.97,-0.03,-0.01,-0.01,31.47
18065190,1840,1,187307,220696,0.05,-0.82,9.95,-0.03,-0.01,-0.01,31.47
18105187,1840,1,187347,220911,0.04,-0.83,9.96,-0.03,-0.01,-0.01,31.47
18145189,1830,1,187506,221300,0.04,-0.81,9.97,-0.03,-0.01,-0.01,31.47
18185187,1838,1,187618,221607,0.05,-0.81,9.92,-0.03,-0.01,-0.01,31.47
18225189,1840,1,187530,220717,0.05,-0.81,9.97,-0.03,-0.01,-0.01,31.47
18265207,1845,1,187002,219450,0.09,-0.81,9.93,-0.03,-0.01,-0.01,31.47
18305189,1831,1,186711,219082,0.06,-0.82,9.96,-0.03,-0.01,-0.00,31.47
18345186,1839,1,186636,218878,0.06,-0.83,9.94,-0.03,-0.01,-0.01,31.47
18385876,1833,1,186609,218732,0.05,-0.81,9.98,-0.03,-0.01,-0.01,31.35
18426187,1835,1,186586,218923,0.05,-0.82,9.95,-0.03,-0.01,-0.00,31.35
18466196,1834,1,186763,219423,0.03,-0.80,9.96,-0.03,-0.01,-0.01,31.35
18506186,1840,1,186853,219461,0.05,-0.80,9.94,-0.03,-0.01,-0.01,31.35
18546189,1839,1,186818,219396,0.06,-0.81,9.96,-0.03,-0.01,-0.00,31.35
18586187,1838,1,186828,219442,0.05,-0.81,9.96,-0.03,-0.01,-0.00,31.35
18626189,1837,1,186867,219601,0.07,-0.79,9.94,-0.03,-0.01,-0.01,31.35
18666186,1840,1,186935,219724,0.07,-0.81,9.97,-0.03,-0.01,-0.01,31.35
18706190,1840,1,186986,219994,0.06,-0.80,9.95,-0.03,-0.01,-0.01,31.35
18746186,1841,1,187085,220257,0.06,-0.81,9.97,-0.03,-0.01,-0.00,31.35
18786190,1840,1,187161,220503,0.05,-0.81,9.97,-0.03,-0.01,-0.00,31.35
18826186,1840,1,187278,220806,0.06,-0.81,9.94,-0.03,-0.01,-0.01,31.35
18866189,1841,1,187283,220167,0.05,-0.82,9.94,-0.04,-0.01,-0.01,31.35
18906187,1833,1,186835,218591,0.06,-0.81,9.94,-0.03,-0.01,-0.01,31.35
18946189,1835,1,186432,217854,0.06,-0.81,9.99,-0.03,-0.01,-0.00,31.35
18986186,1834,1,186297,217603,0.05,-0.82,9.97,-0.03,-0.01,-0.00,31.35
19026196,1838,1,186225,217366,0.04,-0.84,9.95,-0.03,-0.01,-0.00,31.35
19066186,1821,1,186194,217343,0.06,-0.81,9.98,-0.03,-0.01,-0.01,31.35
19106189,1831,1,186327,217795,0.04,-0.81,9.94,-0.03,-0.01,-0.01,31.35
19146186,1835,1,186454,217987,0.07,-0.81,9.96,-0.03,-0.01,-0.01,31.35
19186190,1827,1,186457,218014,0.06,-0.80,9.95,-0.03,-0.01,-0.01,31.35
19226187,1831,1,186483,218198,0.07,-0.82,9.97,-0.03,-0.01,-0.00,31.35
19266189,1827,1,186555,218545,0.04,-0.79,9.95,-0.03,-0.01,-0.01,31.35
19306187,1836,1,186669,218852,0.06,-0.81,9.96,-0.03,-0.01,-0.01,31.35
19346190,1837,1,186735,219077,0.06,-0.80,9.94,-0.03,-0.01,-0.00,31.35
19386872,1835,1,186750,219281,0.05,-0.80,9.95,-0.03,-0.01,-0.00,31.35
19425189,1834,1,186803,219504,0.03,-0.80,9.96,-0.03,-0.01,-0.00,31.35
19465186,1833,1,186930,219868,0.04,-0.82,9.93,-0.03,-0.01,-0.01,31.35
19505189,1842,1,187049,220118,0.05,-0.82,9.97,-0.04,-0.01,-0.01,31.35
19545187,1825,1,186905,218871,0.05,-0.80,9.93,-0.03,-0.01,-0.01,31.35
19585189,1836,1,186342,217638,0.06,-0.82,9.95,-0.03,-0.01,-0.01,31.35
19625190,1833,1,186075,217184,0.05,-0.80,9.95,-0.03,-0.01,-0.00,31.35
19665190,1830,1,185995,216983,0.05,-0.82,9.96,-0.03,-0.01,-0.00,31.35
19705187,1829,1,185912,216877,0.05,-0.82,9.98,-0.03,-0.01,-0.01,31.35
19745189,1838,1,185952,217129,0.05,-0.82,9.95,-0.03,-0.01,-0.00,31.35
19785186,1834,1,186135,217589,0.05,-0.81,9.97,-0.03,-0.01,-0.01,31.35
19825190,1841,1,186237,217689,0.05,-0.82,9.96,-0.03,-0.01,-0.01,31.35
19865186,1837,1,186239,217847,0.06,-0.80,9.96,-0.03,-0.01,-0.01,31.35
19906232,1845,1,186305,218257,0.06,-0.82,9.95,-0.04,-0.01,-0.01,31.35
19946189,1836,1,186485,218748,0.05,-0.82,9.96,-0.03,-0.01,-0.01,31.35
19986190,1834,1,186582,219062,0.07,-0.81,9.98,-0.03,-0.01,-0.01,31.35
20026195,1831,1,186614,219317,0.04,-0.83,9.96,-0.03,-0.01,-0.00,31.35
20066189,1835,1,186764,219676,0.06,-0.83,9.97,-0.03,-0.01,-0.00,31.35
20106209,1839,1,186912,220039,0.08,-0.81,9.95,-0.03,-0.01,-0.01,31.35
20146190,1833,1,187050,220398,0.07,-0.82,9.94,-0.03,-0.01,-0.00,31.35
20186186,1839,1,187103,220567,0.06,-0.79,10.00,-0.03,-0.01,-0.00,31.35
20226189,1833,1,186992,219302,0.05,-0.81,9.98,-0.03,-0.01,-0.01,31.35
20266187,1838,1,186401,217947,0.05,-0.81,9.95,-0.03,-0.01,-0.01,31.35
20306190,1840,1,186071,217529,0.06,-0.79,9.94,-0.03,-0.01,-0.01,31.35
20346186,1840,1,185964,217231,0.06,-0.82,9.95,-0.03,-0.01,-0.01,31.35
20386190,1838,1,185941,216965,0.07,-0.82,9.97,-0.03,-0.01,-0.01,31.35
20426873,1837,1,185916,217167,0.07,-0.81,9.93,-0.03,-0.01,-0.01,31.43
20465190,1835,1,186054,217679,0.05,-0.80,9.96,-0.03,-0.01,-0.01,31.43
20505187,1839,1,186190,217828,0.08,-0.80,9.93,-0.03,-0.01,-0.00,31.43
20545190,1838,1,186244,218064,0.05,-0.82,9.97,-0.03,-0.01,-0.01,31.43
20585187,1830,1,186356,218400,0.05,-0.80,9.96,-0.03,-0.01,-0.01,31.43
20625189,1835,1,186405,218659,0.06,-0.81,9.96,-0.03,-0.01,-0.01,31.43
20665187,1838,1,186495,218924,0.05,-0.80,9.95,-0.03,-0.01,-0.01,31.43
20705190,1841,1,186600,219311,0.06,-0.82,9.94,-0.03,-0.01,-0.00,31.43
20745186,1856,1,186758,219733,0.07,-0.82,9.96,-0.03,-0.01,-0.01,31.43
20785190,1840,1,186918,220290,0.04,-0.82,9.99,-0.03,-0.01,-0.01,31.43
20825187,1845,1,187069,220624,0.06,-0.79,9.95,-0.03,-0.01,-0.00,31.43
20865189,1840,1,187194,220299,0.06,-0.84,9.94,-0.03,-0.01,-0.01,31.43
20905190,1840,1,186735,218827,0.06,-0.81,9.97,-0.03,-0.01,-0.01,31.43
20945189,1852,1,186319,218152,0.05,-0.82,9.94,-0.03,-0.01,-0.01,31.43
20985187,1834,1,186217,217970,0.06,-0.81,9.97,-0.03,-0.01,-0.01,31.43
21025216,1838,1,186171,217904,0.06,-0.81,9.95,-0.03,-0.01,-0.00,31.43
21065187,1844,1,186243,218096,0.06,-0.80,9.96,-0.03,-0.01,-0.01,31.43
21105189,1842,1,186361,218650,0.06,-0.81,9.93,-0.03,-0.01,-0.01,31.43
21145190,1847,1,186618,219025,0.05,-0.82,9.95,-0.03,-0.01,-0.01,31.43
21185190,1833,1,186663,219122,0.05,-0.83,9.98,-0.03,-0.01,-0.01,31.43
21225186,1838,1,186706,219417,0.05,-0.81,9.95,-0.03,-0.01,-0.00,31.43
21265189,1840,1,186796,219719,0.06,-0.82,9.96,-0.03,-0.01,-0.01,31.43
21305187,1839,1,186896,220050,0.04,-0.80,9.95,-0.03,-0.01,-0.00,31.43
21345189,1824,1,186986,220305,0.06,-0.82,9.95,-0.03,-0.01,-0.01,31.43
21385190,1842,1,187093,220688,0.07,-0.80,9.92,-0.03,-0.01,-0.01,31.43
21425189,1842,1,187287,221178,0.07,-0.82,9.95,-0.03,-0.01,-0.01,31.43
21465876,1839,1,187561,221688,0.08,-0.81,9.91,-0.03,-0.01,-0.01,31.39
21504190,1856,1,187682,221814,0.06,-0.83,9.95,-0.03,-0.01,-0.00,31.39
21544224,1856,1,187556,220477,0.06,-0.81,9.97,-0.03,-0.01,-0.01,31.39
21584189,1841,1,186928,218909,0.05,-0.81,9.95,-0.03,-0.01,-0.01,31.39
21624187,1850,1,186559,218444,0.05,-0.81,9.96,-0.03,-0.01,-0.01,31.39
21664190,1847,1,186425,218223,0.08,-0.83,9.93,-0.03,-0.01,-0.00,31.39
21704187,1845,1,186378,218156,0.06,-0.80,9.95,-0.03,-0.01,-0.00,31.39
21744227,1840,1,186384,218191,0.07,-0.82,9.95,-0.03,-0.01,-0.00,31.39
21784187,1839,1,186501,218500,0.06,-0.80,9.94,-0.03,-0.01,-0.01,31.39
21824189,1840,1,186549,218723,0.04,-0.79,9.96,-0.03,-0.01,-0.01,31.39
21864187,1841,1,186661,218963,0.06,-0.82,9.97,-0.03,-0.01,-0.00,31.39
21904189,1850,1,186704,219151,0.05,-0.81,9.95,-0.03,-0.01,-0.01,31.39
21944187,1845,1,186800,219280,0.06,-0.81,9.95,-0.03,-0.01,-0.00,31.39
21984190,1846,1,186758,219323,0.06,-0.82,9.95,-0.03,-0.01,-0.01,31.39
22024199,1839,1,186826,219578,0.05,-0.84,9.95,-0.03,-0.01,-0.01,31.39
22064189,1843,1,186908,219809,0.05,-0.80,9.95,-0.03,-0.01,-0.00,31.39
22104186,1839,1,187032,220066,0.06,-0.81,9.93,-0.03,-0.01,-0.01,31.39
22144190,1843,1,187126,220538,0.06,-0.81,9.96,-0.03,-0.01,-0.00,31.39
22184187,1843,1,187331,220952,0.04,-0.82,9.97,-0.04,-0.01,-0.01,31.39
22224189,1842,1,187355,220424,0.06,-0.82,9.96,-0.03,-0.01,-0.01,31.39
22264189,1841,1,186842,218486,0.06,-0.81,9.97,-0.03,-0.01,-0.01,31.39
22304189,1840,1,186334,217568,0.05,-0.80,9.95,-0.03,-0.01,-0.01,31.39
22344186,1841,1,186128,217354,0.07,-0.84,9.97,-0.03,-0.01,-0.00,31.39
22384190,1839,1,186147,217316,0.07,-0.82,9.97,-0.03,-0.01,-0.01,31.39
22424186,1838,1,186098,217440,0.06,-0.81,9.96,-0.03,-0.01,-0.01,31.39
22464189,1837,1,186234,217883,0.06,-0.80,9.98,-0.03,-0.01,-0.00,31.39
22504873,1826,1,186382,218143,0.07,-0.83,9.97,-0.03,-0.01,-0.00,31.19
22545190,1825,1,186411,218269,0.07,-0.82,9.94,-0.03,-0.01,-0.01,31.19
22585187,1834,1,186518,218528,0.06,-0.83,9.96,-0.03,-0.01,-0.01,31.19
22625190,1834,1,186654,218962,0.06,-0.83,9.93,-0.03,-0.01,-0.01,31.19
22665189,1841,1,186801,219319,0.07,-0.82,9.97,-0.03,-0.01,-0.00,31.19
22705190,1833,1,186903,219730,0.06,-0.82,9.94,-0.03,-0.01,-0.00,31.19
22745186,1830,1,186967,219967,0.05,-0.84,9.96,-0.03,-0.01,-0.01,31.19
22785190,1830,1,187155,220345,0.07,-0.81,9.95,-0.03,-0.01,-0.00,31.19
22825187,1829,1,187254,220938,0.06,-0.82,9.94,-0.03,-0.01,-0.01,31.19
22865189,1825,1,187532,221545,0.05,-0.80,9.94,-0.03,-0.01,-0.01,31.19
22905186,1827,1,187652,221400,0.06,-0.81,9.96,-0.03,-0.01,-0.01,31.19
22945190,1829,1,187181,219491,0.05,-0.82,9.92,-0.03,-0.01,-0.00,31.19
22984186,1827,1,186629,218570,0.06,-0.81,9.94,-0.03,-0.01,-0.01,31.19
23024199,1840,1,186515,218548,0.06,-0.81,9.92,-0.03,-0.01,-0.00,31.19
23064187,1828,1,186489,218442,0.05,-0.80,9.95,-0.03,-0.01,-0.01,31.19
23104189,1835,1,186512,218526,0.08,-0.81,9.95,-0.03,-0.01,-0.00,31.19
23144186,1826,1,186661,219122,0.05,-0.82,9.96,-0.03,-0.01,-0.00,31.19
23184206,1840,1,186900,219539,0.05,-0.81,9.97,-0.03,-0.01,-0.01,31.19
23224186,1835,1,186972,219680,0.05,-0.79,9.96,-0.03,-0.01,-0.01,31.19
23264190,1841,1,187026,219883,0.05,-0.82,9.97,-0.03,-0.01,-0.01,31.19
23304186,1840,1,187080,220192,0.06,-0.82,9.96,-0.03,-0.01,-0.01,31.19
23344189,1835,1,187207,220552,0.07,-0.82,9.93,-0.03,-0.01,-0.00,31.19
23384226,1837,1,187336,220739,0.05,-0.80,9.96,-0.03,-0.01,-0.01,31.19
23424189,1836,1,187339,221043,0.05,-0.82,9.96,-0.03,-0.01,-0.01,31.19
23464186,1831,1,187517,221456,0.06,-0.82,9.95,-0.03,-0.01,-0.01,31.19
23504189,1831,1,187710,221951,0.06,-0.80,9.96,-0.03,-0.01,-0.01,31.19
23544873,1836,1,187924,222366,0.07,-0.80,9.95,-0.03,-0.01,-0.00,31.13
23585198,1822,1,187895,221430,0.07,-0.80,9.98,-0.03,-0.01,-0.01,31.13
23625186,1838,1,187304,219834,0.05,-0.82,9.97,-0.03,-0.01,-0.01,31.13
23665190,1826,1,186908,219323,0.08,-0.82,9.97,-0.03,-0.01,-0.01,31.13
23705187,1827,1,186824,219196,0.06,-0.81,9.93,-0.03,-0.01,-0.00,31.13
23745190,1831,1,186828,219240,0.06,-0.81,9.96,-0.03,-0.01,-0.01,31.13
23785189,1833,1,186860,219519,0.07,-0.81,9.96,-0.03,-0.01,-0.00,31.13
23825190,1831,1,187025,219986,0.05,-0.81,9.96,-0.03,-0.01,-0.01,31.13
23865187,1837,1,187175,220131,0.06,-0.81,9.95,-0.03,-0.01,-0.00,31.13
23905190,1835,1,187183,220238,0.06,-0.82,9.94,-0.03,-0.01,-0.01,31.13
23945189,1837,1,187242,220463,0.05,-0.82,9.94,-0.03,-0.01,-0.00,31.13
23985189,1837,1,187303,220678,0.06,-0.80,9.95,-0.03,-0.01,-0.00,31.13
24025212,1834,1,187474,220961,0.07,-0.83,9.96,-0.03,-0.01,-0.01,31.13
24065190,1824,1,187556,221226,0.06,-0.79,9.93,-0.03,-0.01,-0.01,31.13
24105189,1833,1,187692,221703,0.07,-0.81,9.95,-0.03,-0.01,-0.01,31.13
24145190,1830,1,187789,221938,0.07,-0.81,9.96,-0.03,-0.01,-0.01,31.13
24185187,1835,1,187905,222230,0.07,-0.82,9.96,-0.03,-0.01,-0.01,31.13
24225190,1842,1,188016,222277,0.07,-0.81,9.95,-0.03,-0.01,-0.00,31.13
24265186,1835,1,187686,220374,0.06,-0.81,9.99,-0.03,-0.01,-0.00,31.13
24305189,1827,1,186995,219130,0.06,-0.82,9.95,-0.03,-0.01,-0.00,31.13
24345186,1840,1,186791,218832,0.04,-0.80,9.96,-0.03,-0.01,-0.00,31.13
24385189,1834,1,186718,218773,0.05,-0.83,9.94,-0.03,-0.01,-0.01,31.13
24425187,1830,1,186696,218736,0.07,-0.84,9.96,-0.03,-0.01,-0.00,31.13
24465190,1837,1,186746,219070,0.06,-0.82,9.97,-0.03,-0.01,-0.01,31.13
24505187,1830,1,186922,219490,0.06,-0.83,9.96,-0.03,-0.01,-0.01,31.13
24545876,1833,1,186943,219633,0.07,-0.83,9.94,-0.03,-0.01,-0.01,31.15
24584190,1831,1,187038,219874,0.08,-0.80,9.94,-0.03,-0.01,-0.01,31.15
24624189,1840,1,187038,220000,0.06,-0.81,9.96,-0.03,-0.01,-0.00,31.15
24664186,1834,1,187159,220270,0.06,-0.83,9.95,-0.03,-0.01,-0.01,31.15
24704189,1840,1,187230,220589,0.05,-0.82,9.96,-0.03,-0.01,-0.01,31.15
24744187,1834,1,187340,220826,0.05,-0.78,9.97,-0.03,-0.01,-0.01,31.15
24784190,1834,1,187476,221139,0.06,-0.80,9.98,-0.03,-0.01,-0.00,31.15
24824187,1837,1,187593,221521,0.05,-0.82,9.96,-0.03,-0.01,-0.01,31.15
24864190,1839,1,187714,221959,0.07,-0.79,9.93,-0.03,-0.01,-0.00,31.15
24904186,1830,1,187775,221537,0.06,-0.81,9.95,-0.03,-0.01,-0.00,31.15
24944189,1840,1,187238,219689,0.07,-0.81,9.94,-0.03,-0.01,-0.01,31.15
24984187,1834,1,186765,218988,0.06,-0.81,9.97,-0.03,-0.01,-0.01,31.15
25024199,1838,1,186672,218910,0.06,-0.81,9.95,-0.03,-0.01,-0.00,31.15
25064186,1823,1,186645,218909,0.05,-0.81,9.97,-0.03,-0.01,-0.01,31.15
25104190,1819,1,186639,218934,0.07,-0.81,9.95,-0.03,-0.01,-0.00,31.15
25144186,1833,1,186718,219392,0.06,-0.81,9.94,-0.03,-0.01,-0.01,31.15
25184189,1843,1,186875,219628,0.06,-0.81,9.93,-0.03,-0.01,-0.01,31.15
25224190,1831,1,186944,219655,0.08,-0.80,9.97,-0.03,-0.01,-0.01,31.15
25264190,1838,1,186979,219962,0.06,-0.81,9.97,-0.03,-0.01,-0.01,31.15
25304189,1833,1,187044,220255,0.07,-0.81,9.93,-0.03,-0.01,-0.01,31.15
25344189,1832,1,187143,220594,0.06,-0.84,9.95,-0.03,-0.01,-0.00,31.15
25384186,1831,1,187303,220944,0.06,-0.79,9.95,-0.03,-0.01,-0.01,31.15
25424189,1840,1,187421,221214,0.05,-0.79,9.98,-0.03,-0.01,-0.01,31.15
25464187,1840,1,187515,221462,0.08,-0.83,9.94,-0.03,-0.01,-0.01,31.15
25504189,1840,1,187610,221933,0.06,-0.80,9.95,-0.03,-0.01,-0.00,31.15
25544186,1835,1,187777,222314,0.07,-0.81,9.97,-0.03,-0.01,-0.00,31.15
25584876,1837,1,187724,221206,0.06,-0.82,9.94,-0.03,-0.01,-0.01,31.25
25625187,1837,1,187093,219621,0.07,-0.80,9.97,-0.03,-0.01,-0.01,31.25
25665189,1840,1,186784,219205,0.05,-0.81,9.96,-0.03,-0.01,-0.00,31.25
25705186,1833,1,186739,219191,0.06,-0.81,9.95,-0.03,-0.01,-0.00,31.25
25745189,1834,1,186730,219211,0.07,-0.82,9.97,-0.03,-0.01,-0.00,31.25
25785186,1839,1,186741,219532,0.07,-0.81,9.96,-0.04,-0.01,-0.01,31.25
25825190,1841,1,186981,220180,0.07,-0.81,9.95,-0.04,-0.01,-0.01,31.25
25865186,1830,1,187161,220418,0.06,-0.79,9.97,-0.03,-0.01,-0.00,31.25
25905189,1835,1,187163,220539,0.07,-0.81,9.97,-0.03,-0.01,-0.00,31.25
25945186,1822,1,187238,220714,0.07,-0.81,9.94,-0.03,-0.01,-0.01,31.25
25985189,1826,1,187316,220955,0.06,-0.82,9.96,-0.03,-0.01,-0.01,31.25
26023186,1845,1,187453,221182,0.06,-0.81,9.96,-0.03,-0.01,-0.00,31.25
26064189,1837,1,187570,221616,0.07,-0.83,9.96,-0.03,-0.01,-0.01,31.25
26104189,1837,1,187704,221972,0.07,-0.82,9.97,-0.03,-0.01,-0.01,31.25
26144190,1838,1,187779,222280,0.07,-0.83,9.97,-0.03,-0.01,-0.01,31.25
26184187,1836,1,187982,222661,0.06,-0.82,9.96,-0.03,-0.01,-0.01,31.25
26224189,1836,1,188001,222219,0.07,-0.81,9.92,-0.03,-0.01,-0.00,31.25
26264186,1830,1,187520,220369,0.08,-0.81,9.95,-0.03,-0.01,-0.01,31.25
26304189,1840,1,187010,219600,0.06,-0.79,9.98,-0.03,-0.01,-0.01,31.25
26344186,1834,1,186929,219474,0.06,-0.81,9.96,-0.03,-0.01,-0.00,31.25
26384189,1830,1,186843,219303,0.07,-0.82,9.96,-0.03,-0.01,-0.01,31.25
26424189,1824,1,186863,219480,0.07,-0.81,9.95,-0.03,-0.01,-0.01,31.25
26464190,1829,1,187038,220075,0.07,-0.82,9.98,-0.03,-0.01,-0.01,31.25
26504187,1829,1,187216,220312,0.06,-0.81,9.97,-0.03,-0.01,-0.00,31.25
26544190,1819,1,187214,220259,0.05,-0.80,9.96,-0.03,-0.01,-0.00,31.25
26584872,1817,1,187360,220463,0.07,-0.80,9.96,-0.03,-0.01,-0.00,31.27
26623190,1830,1,187468,220700,0.07,-0.82,9.99,-0.03,-0.01,-0.00,31.27
26663201,1838,1,187527,220934,0.06,-0.83,9.94,-0.03,-0.01,-0.00,31.27
26703190,1841,1,187614,221278,0.05,-0.80,9.95,-0.03,-0.01,-0.01,31.27
26743186,1842,1,187721,221551,0.07,-0.81,9.93,-0.03,-0.01,-0.01,31.27
26783190,1837,1,187747,221808,0.07,-0.82,9.96,-0.03,-0.01,-0.00,31.27
26823186,1838,1,187865,222053,0.08,-0.80,9.94,-0.03,-0.01,-0.01,31.27
26863211,1841,1,187819,221445,0.05,-0.82,9.99,-0.03,-0.01,-0.00,31.27
26903186,1838,1,187312,219823,0.06,-0.83,9.95,-0.03,-0.01,-0.00,31.27
26943189,1847,1,186890,219292,0.06,-0.83,9.95,-0.03,-0.01,-0.00,31.27
26983186,1856,1,186811,219173,0.05,-0.83,9.97,-0.03,-0.01,-0.01,31.27
27023189,1871,1,186685,218972,0.06,-0.83,9.95,-0.03,-0.01,-0.00,31.27
27063186,1882,1,186688,218983,0.07,-0.82,9.98,-0.03,-0.01,-0.00,31.27
27103189,1902,1,186752,219410,0.06,-0.79,9.96,-0.03,-0.01,-0.01,31.27
27143190,1915,1,186816,219537,0.07,-0.81,9.95,-0.03,-0.01,-0.01,31.27
27183190,1929,1,186855,219609,0.06,-0.82,9.95,-0.03,-0.01,-0.00,31.27
27223186,1930,1,186892,219789,0.07,-0.81,9.96,-0.03,-0.01,-0.01,31.27
27263190,1953,1,186990,219946,0.06,-0.79,9.96,-0.03,-0.01,-0.00,31.27
27303186,1968,1,187023,220114,0.06,-0.83,9.95,-0.03,-0.01,-0.00,31.27
27343189,1986,1,187113,220391,0.07,-0.81,9.96,-0.03,-0.01,-0.01,31.27
27383187,2002,1,187190,220682,0.06,-0.81,9.94,-0.03,-0.01,-0.01,31.27
27423190,2022,1,187297,221011,0.05,-0.82,9.96,-0.03,-0.01,-0.00,31.27
27463187,2035,1,187417,221317,0.06,-0.83,9.93,-0.03,-0.01,-0.01,31.27
27503189,2054,1,187396,220654,0.06,-0.81,10.00,-0.03,-0.01,-0.00,31.27
27543186,2058,1,186848,219106,0.05,-0.80,9.96,-0.03,-0.01,-0.00,31.27
27583190,2064,1,186407,218439,0.05,-0.81,9.95,-0.03,-0.01,-0.01,31.27
27623873,2064,1,186300,218149,0.08,-0.82,9.92,-0.03,-0.01,-0.01,31.13
27664190,2069,1,186215,217927,0.05,-0.81,9.97,-0.03,-0.01,-0.01,31.13
27704186,2059,1,186192,217998,0.05,-0.80,9.98,-0.03,-0.01,-0.01,31.13
27744189,2064,1,186308,218429,0.06,-0.80,9.94,-0.03,-0.01,-0.01,31.13
27784186,2055,1,186449,218576,0.06,-0.80,9.96,-0.03,-0.01,-0.01,31.13
27824189,2047,1,186529,218871,0.06,-0.80,9.96,-0.03,-0.01,-0.00,31.13
27864186,2034,1,186584,219127,0.06,-0.80,9.96,-0.03,-0.01,-0.01,31.13
27904189,2025,1,186670,219303,0.06,-0.82,9.96,-0.03,-0.01,-0.00,31.13
27944187,2009,1,186716,219491,0.08,-0.80,9.96,-0.03,-0.01,-0.01,31.13
27984189,1984,1,186779,219959,0.06,-0.80,9.96,-0.03,-0.01,-0.01,31.13
28024198,1975,1,186952,220344,0.03,-0.82,9.96,-0.03,-0.01,-0.00,31.13
28064189,1949,1,187097,220663,0.07,-0.80,9.95,-0.03,-0.01,-0.00,31.13
28104186,1926,1,187192,221040,0.06,-0.79,9.97,-0.03,-0.01,-0.01,31.13
28144190,1911,1,187295,220902,0.05,-0.82,9.96,-0.03,-0.01,-0.01,31.13
28184186,1898,1,186871,219345,0.06,-0.82,9.97,-0.03,-0.01,-0.01,31.13
28224190,1875,1,186387,218475,0.06,-0.80,9.95,-0.03,-0.01,-0.01,31.13
28264186,1856,1,186187,218204,0.07,-0.81,9.96,-0.03,-0.01,-0.01,31.13
28304202,1847,1,186143,218008,0.06,-0.83,9.97,-0.03,-0.01,-0.00,31.13
28344186,1845,1,186108,217983,0.07,-0.82,9.96,-0.04,-0.01,-0.01,31.13
28384190,1826,1,186258,218513,0.07,-0.81,9.95,-0.03,-0.01,-0.01,31.13
28424186,1819,1,186440,218957,0.06,-0.84,9.95,-0.03,-0.01,-0.01,31.13
28464189,1807,1,186547,219156,0.08,-0.79,9.97,-0.03,-0.01,-0.00,31.13
28504228,1783,1,186614,219294,0.08,-0.82,9.97,-0.03,-0.01,-0.01,31.13
28544189,1776,1,186686,219525,0.05,-0.82,9.95,-0.03,-0.01,-0.00,31.13
28584186,1776,1,186851,219963,0.08,-0.80,9.97,-0.03,-0.01,-0.01,31.13
28624876,1762,1,186940,220296,0.04,-0.81,9.95,-0.03,-0.01,-0.01,30.99
28663187,1763,1,187043,220654,0.06,-0.82,9.95,-0.03,-0.01,-0.01,30.99
28703189,1761,1,187188,221016,0.05,-0.82,9.94,-0.03,-0.01,-0.01,30.99
28743186,1758,1,187330,221470,0.06,-0.81,9.97,-0.03,-0.01,-0.00,30.99
28783190,1764,1,187452,221496,0.06,-0.82,9.95,-0.03,-0.01,-0.00,30.99
28823187,1778,1,187243,219941,0.06,-0.81,9.96,-0.03,-0.01,-0.01,30.99
28863189,1767,1,186626,218786,0.06,-0.82,9.94,-0.03,-0.01,-0.01,30.99
28903187,1764,1,186420,218457,0.07,-0.81,9.95,-0.03,-0.01,-0.01,30.99
28943190,1775,1,186317,218132,0.05,-0.81,9.94,-0.03,-0.01,-0.01,30.99
28983186,1772,1,186278,218091,0.08,-0.81,9.94,-0.03,-0.01,-0.00,30.99
29023189,1776,1,186331,218420,0.07,-0.82,9.95,-0.03,-0.01,-0.01,30.99
29063186,1773,1,186527,218858,0.08,-0.82,9.96,-0.03,-0.01,-0.01,30.99
29103189,1772,1,186574,218921,0.05,-0.84,9.96,-0.03,-0.01,-0.01,30.99
29143187,1763,1,186603,219018,0.06,-0.81,9.95,-0.03,-0.01,-0.01,30.99
29183189,1773,1,186652,219225,0.05,-0.81,9.96,-0.03,-0.01,-0.00,30.99
29223186,1773,1,186705,219515,0.07,-0.80,9.95,-0.03,-0.01,-0.01,30.99
29263189,1782,1,186793,219721,0.06,-0.83,9.96,-0.03,-0.01,-0.01,30.99
29303189,1783,1,186847,220096,0.07,-0.82,9.94,-0.03,-0.01,-0.01,30.99
29343190,1791,1,186956,220440,0.05,-0.82,9.94,-0.03,-0.01,-0.01,30.99
29383187,1794,1,187091,220895,0.07,-0.80,9.96,-0.03,-0.01,-0.00,30.99
29423189,1793,1,187221,220984,0.06,-0.80,9.95,-0.03,-0.01,-0.01,30.99
29463186,1799,1,187007,219603,0.06,-0.81,9.96,-0.03,-0.01,-0.01,30.99
29503189,1803,1,186331,218228,0.06,-0.84,9.97,-0.03,-0.01,-0.01,30.99
29543187,1799,1,185967,217495,0.05,-0.81,9.96,-0.03,-0.01,-0.00,30.99
29583189,1799,1,185733,216849,0.06,-0.81,9.93,-0.03,-0.01,-0.00,30.99
29623186,1803,1,185547,216483,0.07,-0.82,9.97,-0.03,-0.01,-0.01,30.99
29663876,1792,1,185549,216696,0.06,-0.80,9.99,-0.03,-0.01,-0.00,31.01
29704185,1803,1,185753,217197,0.05,-0.80,9.96,-0.03,-0.01,-0.01,31.01
29744190,1795,1,185946,217637,0.07,-0.79,9.93,-0.03,-0.01,-0.01,31.01
29784190,1799,1,186045,218083,0.07,-0.81,9.97,-0.04,-0.01,-0.00,31.01
29824189,1805,1,186247,218493,0.06,-0.82,9.96,-0.03,-0.01,-0.01,31.01
29864186,1807,1,186340,218897,0.08,-0.80,9.95,-0.03,-0.01,-0.01,31.01
29904189,1802,1,186459,219275,0.08,-0.82,9.95,-0.03,-0.01,-0.01,31.01
29944186,1799,1,186536,219652,0.07,-0.80,9.94,-0.03,-0.01,-0.00,31.01
29984189,1808,1,186694,220096,0.07,-0.81,9.96,-0.03,-0.01,-0.01,31.01
30024198,1808,1,186819,220328,0.06,-0.82,9.93,-0.03,-0.01,-0.01,31.01
30064190,1811,1,186832,220517,0.07,-0.81,9.96,-0.03,-0.01,-0.01,31.01
30104186,1808,1,186827,220292,0.06,-0.82,9.95,-0.03,-0.01,-0.01,31.01
30144189,1818,1,186386,218457,0.06,-0.80,9.96,-0.03,-0.01,-0.01,31.01
30184186,1815,1,185849,217449,0.07,-0.80,9.95,-0.03,-0.01,-0.01,31.01
30224190,1829,1,185629,217047,0.07,-0.81,9.93,-0.03,-0.01,-0.00,31.01
30264186,1822,1,185544,216791,0.06,-0.81,9.95,-0.03,-0.01,-0.01,31.01
30304190,1822,1,185593,216935,0.05,-0.82,9.96,-0.03,-0.01,-0.01,31.01
30344187,1825,1,185655,217371,0.06,-0.81,9.96,-0.03,-0.01,-0.00,31.01
30384189,1836,1,185839,217912,0.06,-0.80,9.94,-0.03,-0.01,-0.01,31.01
30424186,1836,1,185932,218221,0.06,-0.82,9.93,-0.03,-0.01,-0.01,31.01
30464190,1835,1,186032,218502,0.04,-0.80,9.97,-0.03,-0.01,-0.01,31.01
30504186,1835,1,186113,218766,0.05,-0.83,9.97,-0.03,-0.01,-0.01,31.01
30544189,1840,1,186266,219162,0.06,-0.83,9.97,-0.03,-0.01,-0.00,31.01
30584186,1835,1,186426,219610,0.07,-0.82,9.95,-0.03,-0.01,-0.01,31.01
30624189,1831,1,186568,219938,0.07,-0.82,9.95,-0.03,-0.01,-0.01,31.01
30664876,1841,1,186656,220256,0.06,-0.82,9.95,-0.03,-0.01,-0.00,31.01
30703189,1838,1,186772,220504,0.06,-0.82,9.97,-0.03,-0.01,-0.01,31.01
30743186,1841,1,186946,221122,0.06,-0.79,9.94,-0.03,-0.01,-0.00,31.01
30783189,1841,1,187089,221387,0.04,-0.79,9.97,-0.03,-0.01,-0.00,31.01
30823186,1840,1,186986,219978,0.05,-0.81,9.96,-0.03,-0.01,-0.01,31.01
30863189,1840,1,186321,218602,0.08,-0.82,9.95,-0.03,-0.01,-0.01,31.01
30903186,1844,1,186048,218248,0.06,-0.82,9.96,-0.03,-0.01,-0.01,31.01
30943189,1842,1,185998,218167,0.06,-0.80,9.95,-0.03,-0.01,-0.01,31.01
30983187,1845,1,186001,218177,0.05,-0.83,9.98,-0.03,-0.01,-0.01,31.01
31023190,1838,1,186072,218507,0.06,-0.82,9.96,-0.03,-0.01,-0.00,31.01
31063186,1835,1,186262,219185,0.06,-0.80,9.95,-0.03,-0.01,-0.01,31.01
31103189,1839,1,186474,219482,0.06,-0.83,9.94,-0.03,-0.01,-0.01,31.01
31143189,1838,1,186532,219766,0.07,-0.80,9.97,-0.03,-0.01,-0.01,31.01
31183190,1838,1,186633,220202,0.04,-0.82,9.95,-0.03,-0.01,-0.01,31.01
31223187,1845,1,186798,220653,0.06,-0.80,9.96,-0.03,-0.01,-0.00,31.01
31263189,1834,1,186954,221143,0.07,-0.80,9.96,-0.03,-0.01,-0.01,31.01
31303186,1839,1,187094,221543,0.06,-0.82,9.95,-0.03,-0.01,-0.01,31.01
31343189,1834,1,187210,221789,0.06,-0.82,9.98,-0.03,-0.01,-0.01,31.01
31383186,1840,1,187295,222250,0.06,-0.82,9.95,-0.03,-0.01,-0.00,31.01
31423190,1839,1,187486,222750,0.06,-0.80,9.96,-0.03,-0.01,-0.01,31.01
31463186,1840,1,187650,223209,0.05,-0.82,9.94,-0.03,-0.01,-0.01,31.01
31503190,1836,1,187750,223374,0.07,-0.82,9.95,-0.03,-0.01,-0.01,31.01
31543190,1842,1,187507,221071,0.06,-0.80,9.97,-0.03,-0.01,-0.01,31.01
31583190,1839,1,186611,219447,0.07,-0.81,9.98,-0.03,-0.01,-0.00,31.01
31623186,1837,1,186350,219244,0.06,-0.85,9.93,-0.03,-0.01,-0.01,31.01
31663189,1831,1,186449,219485,0.08,-0.80,9.96,-0.03,-0.01,-0.01,31.01
31703872,1827,1,186646,219781,0.04,-0.81,9.99,-0.03,-0.01,-0.01,30.99
31742189,1847,1,186771,220268,0.06,-0.81,9.98,-0.03,-0.01,-0.01,30.99
31782189,1841,1,187064,220961,0.07,-0.80,9.95,-0.03,-0.01,-0.00,30.99
31822190,1857,1,187161,221213,0.06,-0.80,9.94,-0.04,-0.01,-0.00,30.99
31862186,1843,1,187312,221521,0.07,-0.82,9.95,-0.03,-0.01,-0.00,30.99
31902189,1843,1,187401,221897,0.07,-0.81,9.97,-0.04,-0.01,-0.01,30.99
31942190,1840,1,187599,222404,0.07,-0.79,9.93,-0.03,-0.01,-0.01,30.99
31982189,1843,1,187797,222962,0.06,-0.82,9.96,-0.03,-0.01,-0.00,30.99
32022196,1840,1,187992,223500,0.07,-0.82,9.95,-0.03,-0.01,-0.00,30.99
32062189,1854,1,188185,224154,0.08,-0.81,9.96,-0.03,-0.01,-0.00,30.99
32102186,1859,1,188458,224875,0.06,-0.82,9.96,-0.03,-0.01,-0.01,30.99
32142189,1847,1,188716,225503,0.07,-0.82,9.93,-0.03,-0.01,-0.01,30.99
32182189,1845,1,188948,225757,0.07,-0.84,9.96,-0.04,-0.01,-0.00,30.99
32222189,1841,1,188415,222837,0.08,-0.83,9.96,-0.03,-0.01,-0.01,30.99
32262187,1846,1,187668,221724,0.06,-0.80,9.97,-0.03,-0.01,-0.01,30.99
32302189,1841,1,187554,221718,0.06,-0.81,9.95,-0.03,-0.01,-0.01,30.99
32342187,1839,1,187634,221946,0.05,-0.81,9.96,-0.03,-0.01,-0.01,30.99
32382190,1842,1,187708,222403,0.07,-0.83,9.98,-0.03,-0.01,-0.01,30.99
32422190,1846,1,187949,223288,0.08,-0.83,9.96,-0.03,-0.01,-0.00,30.99
32462189,1841,1,188381,224128,0.06,-0.80,9.96,-0.03,-0.01,-0.00,30.99
32502186,1845,1,188543,224302,0.07,-0.81,9.96,-0.03,-0.01,-0.01,30.99
32542189,1848,1,188537,224411,0.06,-0.82,9.96,-0.03,-0.01,-0.00,30.99
32582186,1840,1,188679,224910,0.06,-0.81,9.95,-0.03,-0.01,-0.01,30.99
32622190,1845,1,188894,225399,0.08,-0.81,9.97,-0.03,-0.01,-0.00,30.99
32662186,1843,1,189081,225816,0.07,-0.79,9.97,-0.03,-0.01,-0.01,30.99
32702190,1835,1,189232,226320,0.08,-0.80,9.98,-0.03,-0.01,-0.01,30.99
32742873,1823,1,189432,226887,0.06,-0.84,9.95,-0.03,-0.01,-0.01,31.07
32783190,1840,1,189670,227508,0.08,-0.80,9.97,-0.03,-0.01,-0.01,31.07
32823185,1825,1,189900,228137,0.08,-0.81,9.97,-0.03,-0.01,-0.00,31.07
32863190,1840,1,190068,227540,0.07,-0.83,9.96,-0.03,-0.01,-0.01,31.07
32903190,1835,1,189138,223911,0.06,-0.82,9.96,-0.03,-0.01,-0.01,31.07
32943189,1830,1,188338,222890,0.06,-0.81,9.98,-0.03,-0.01,-0.01,31.07
32983186,1829,1,188205,222849,0.07,-0.82,9.95,-0.03,-0.01,-0.01,31.07
33023189,1830,1,188214,222809,0.08,-0.80,9.96,-0.03,-0.01,-0.01,31.07
33063186,1840,1,188223,222880,0.07,-0.81,10.00,-0.03,-0.01,-0.00,31.07
33103189,1834,1,188284,223492,0.08,-0.80,9.97,-0.03,-0.01,-0.01,31.07
33143186,1835,1,188548,224050,0.09,-0.81,9.97,-0.03,-0.01,-0.00,31.07
33183190,1844,1,188662,224176,0.05,-0.82,9.97,-0.03,-0.01,-0.00,31.07
33223186,1838,1,188712,224426,0.07,-0.81,9.96,-0.03,-0.01,-0.00,31.07
33263189,1841,1,188860,224750,0.06,-0.83,9.94,-0.03,-0.01,-0.00,31.07
33303186,1830,1,188951,224982,0.07,-0.82,9.96,-0.03,-0.01,-0.00,31.07
33343189,1841,1,189027,225499,0.07,-0.80,9.96,-0.03,-0.01,-0.01,31.07
33383186,1829,1,189227,225867,0.06,-0.83,9.96,-0.03,-0.01,-0.00,31.07
33423196,1840,1,189377,226442,0.05,-0.82,9.95,-0.03,-0.01,-0.01,31.07
33463186,1841,1,189590,227056,0.08,-0.80,9.97,-0.03,-0.01,-0.01,31.07
33503189,1837,1,189828,227726,0.06,-0.82,9.96,-0.03,-0.01,-0.01,31.07
33543186,1838,1,190021,227797,0.06,-0.80,9.96,-0.03,-0.01,-0.01,31.07
33583189,1822,1,189658,224833,0.07,-0.82,9.96,-0.03,-0.01,-0.01,31.07
33623193,1829,1,188466,222976,0.06,-0.81,9.96,-0.03,-0.01,-0.01,31.07
33663189,1834,1,188204,222606,0.08,-0.82,9.97,-0.03,-0.01,-0.01,31.07
33703186,1843,1,188091,222531,0.07,-0.81,9.98,-0.03,-0.01,-0.01,31.07
33743876,1838,1,188098,222582,0.08,-0.81,9.98,-0.03,-0.01,-0.00,31.13
33782186,1836,1,188119,223004,0.07,-0.80,9.96,-0.03,-0.01,-0.01,31.13
33822189,1837,1,188447,223773,0.07,-0.81,9.97,-0.03,-0.01,-0.00,31.13
33862187,1834,1,188676,224239,0.08,-0.82,9.94,-0.03,-0.01,-0.01,31.13
33902190,1835,1,188819,224597,0.07,-0.81,9.97,-0.03,-0.01,-0.01,31.13
33942189,1833,1,188978,225145,0.06,-0.82,9.95,-0.03,-0.01,-0.01,31.13
33982190,1835,1,189230,225697,0.06,-0.81,9.97,-0.03,-0.01,-0.01,31.13
34022200,1840,1,189417,226121,0.07,-0.82,9.92,-0.03,-0.01,-0.01,31.13
34063190,1830,1,189625,226731,0.08,-0.80,9.94,-0.03,-0.01,-0.01,31.13
34103186,1837,1,189871,227450,0.06,-0.80,9.95,-0.03,-0.01,-0.00,31.13
34143189,1839,1,190068,228005,0.06,-0.81,9.98,-0.03,-0.01,-0.00,31.13
34183186,1839,1,190235,228410,0.08,-0.82,9.96,-0.03,-0.01,-0.00,31.13
34223190,1839,1,190310,228555,0.09,-0.82,9.94,-0.03,-0.01,-0.01,31.13
34263187,1827,1,190217,226851,0.07,-0.81,9.95,-0.03,-0.01,-0.00,31.13
34303190,1837,1,189052,223751,0.05,-0.81,9.96,-0.03,-0.01,-0.00,31.13
34343186,1831,1,188479,223100,0.07,-0.82,9.93,-0.03,-0.01,-0.01,31.13
34383190,1834,1,188449,223227,0.08,-0.83,9.94,-0.03,-0.01,-0.01,31.13
34423187,1834,1,188495,223317,0.08,-0.83,9.98,-0.03,-0.01,-0.00,31.13
34463189,1830,1,188608,223702,0.08,-0.81,9.97,-0.03,-0.01,-0.01,31.13
34503187,1840,1,188909,224632,0.08,-0.82,9.97,-0.03,-0.01,-0.01,31.13
34543189,1838,1,189135,225059,0.08,-0.82,9.94,-0.03,-0.01,-0.01,31.13
34583187,1838,1,189241,225183,0.07,-0.82,9.97,-0.03,-0.01,-0.01,31.13
34623190,1840,1,189329,225498,0.06,-0.81,9.96,-0.03,-0.01,-0.01,31.13
34663187,1838,1,189409,225943,0.07,-0.82,9.96,-0.03,-0.01,-0.00,31.13
34703190,1843,1,189653,226528,0.08,-0.81,9.94,-0.03,-0.01,-0.01,31.13
34743873,1840,1,189764,226838,0.06,-0.82,9.96,-0.03,-0.01,-0.00,31.15
34782189,1850,1,189928,227274,0.08,-0.80,9.95,-0.03,-0.01,-0.00,31.15
34822186,1842,1,190127,227837,0.06,-0.82,9.97,-0.03,-0.01,-0.00,31.15
34862189,1842,1,190342,228592,0.07,-0.81,9.96,-0.03,-0.01,-0.01,31.15
34902189,1837,1,190669,229300,0.07,-0.81,9.94,-0.03,-0.01,-0.01,31.15
34942190,1839,1,190552,226617,0.05,-0.82,9.98,-0.03,-0.01,-0.01,31.15
34982187,1839,1,189339,224358,0.07,-0.82,9.97,-0.03,-0.01,-0.00,31.15
35022200,1838,1,188992,224107,0.05,-0.83,9.95,-0.03,-0.01,-0.01,31.15
35063193,1835,1,189013,224175,0.07,-0.82,9.97,-0.03,-0.01,-0.00,31.15
35103189,1826,1,189071,224432,0.07,-0.80,9.95,-0.03,-0.01,-0.00,31.15
35143186,1830,1,189191,224946,0.07,-0.83,9.97,-0.03,-0.01,-0.01,31.15
35183189,1840,1,189520,225723,0.06,-0.81,9.97,-0.03,-0.01,-0.01,31.15
35223190,1840,1,189649,225892,0.06,-0.82,9.95,-0.03,-0.01,-0.00,31.15
35263206,1843,1,189673,225996,0.07,-0.80,9.95,-0.03,-0.01,-0.01,31.15
35303186,1826,1,189741,226394,0.07,-0.82,9.95,-0.03,-0.01,-0.01,31.15
35343189,1840,1,189892,226809,0.08,-0.82,9.95,-0.03,-0.01,-0.01,31.15
35383187,1839,1,190097,227274,0.06,-0.79,9.98,-0.03,-0.01,-0.01,31.15
35423189,1831,1,190197,227680,0.08,-0.81,9.95,-0.03,-0.01,-0.01,31.15
35463200,1838,1,190335,228191,0.07,-0.81,9.95,-0.03,-0.01,-0.01,31.15
35503190,1840,1,190504,228650,0.06,-0.81,9.97,-0.03,-0.01,-0.00,31.15
35543186,1836,1,190764,229085,0.08,-0.81,9.94,-0.03,-0.01,-0.01,31.15
35583190,1838,1,190808,228792,0.07,-0.82,9.96,-0.03,-0.01,-0.01,31.15
35623187,1839,1,190152,225442,0.08,-0.82,9.96,-0.03,-0.01,-0.01,31.15
35663189,1841,1,189195,224133,0.07,-0.81,9.94,-0.03,-0.01,-0.00,31.15
35703187,1839,1,189079,224092,0.06,-0.82,9.95,-0.03,-0.01,-0.00,31.15
35743190,1837,1,189079,224147,0.07,-0.80,9.96,-0.03,-0.01,-0.01,31.15
35783873,1836,1,189063,224221,0.06,-0.83,9.96,-0.03,-0.01,-0.00,31.11
35822190,1835,1,189116,224734,0.06,-0.81,9.96,-0.03,-0.01,-0.01,31.11
35862187,1825,1,189487,225467,0.06,-0.79,9.96,-0.03,-0.01,-0.01,31.11
35902190,1840,1,189642,225705,0.07,-0.83,9.95,-0.03,-0.01,-0.00,31.11
35942186,1838,1,189660,226011,0.08,-0.81,9.97,-0.03,-0.01,-0.01,31.11
35982190,1836,1,189888,226460,0.08,-0.82,9.95,-0.03,-0.01,-0.01,31.11
36022196,1837,1,189932,226693,0.08,-0.81,9.95,-0.03,-0.01,-0.01,31.11
36062190,1841,1,190055,226921,0.09,-0.81,9.95,-0.03,-0.01,-0.00,31.11
36103187,1838,1,190101,227077,0.06,-0.82,9.94,-0.03,-0.01,-0.00,31.11
36143189,1845,1,190213,227267,0.05,-0.82,9.95,-0.03,-0.01,-0.00,31.11
36183186,1840,1,190377,227780,0.06,-0.80,9.95,-0.03,-0.01,-0.00,31.11
36223189,1840,1,190528,228207,0.06,-0.80,9.96,-0.03,-0.01,-0.01,31.11
36263186,1840,1,190667,228168,0.06,-0.81,9.94,-0.03,-0.01,-0.00,31.11
36303189,1837,1,190024,225062,0.05,-0.81,9.96,-0.03,-0.01,-0.01,31.11
36343186,1825,1,189220,223930,0.07,-0.80,9.96,-0.03,-0.01,-0.01,31.11
36383190,1833,1,189061,223831,0.06,-0.80,9.95,-0.03,-0.01,-0.00,31.11
36423187,1840,1,188990,223694,0.06,-0.82,9.95,-0.03,-0.01,-0.01,31.11
36463189,1840,1,188936,223688,0.06,-0.82,9.96,-0.03,-0.01,-0.01,31.11
36503187,1840,1,188985,224132,0.06,-0.80,9.97,-0.03,-0.01,-0.01,31.11
36543190,1840,1,189267,224665,0.07,-0.80,9.96,-0.03,-0.01,-0.01,31.11
36583186,1835,1,189301,224728,0.07,-0.81,9.96,-0.03,-0.01,-0.01,31.11
36623190,1838,1,189330,224860,0.06,-0.81,9.93,-0.03,-0.01,-0.01,31.11
36663187,1835,1,189362,225167,0.07,-0.80,9.96,-0.03,-0.01,-0.01,31.11
36703189,1834,1,189531,225608,0.07,-0.84,9.97,-0.03,-0.01,-0.01,31.11
36743189,1832,1,189653,226106,0.07,-0.83,9.95,-0.03,-0.01,-0.01,31.11
36783189,1837,1,189872,226611,0.07,-0.83,9.95,-0.03,-0.01,-0.01,31.11
36823873,1825,1,189999,227076,0.05,-0.79,9.96,-0.03,-0.01,-0.00,31.11
36862190,1839,1,190174,227637,0.07,-0.81,9.93,-0.03,-0.01,-0.00,31.11
36902187,1835,1,190488,228369,0.06,-0.83,9.96,-0.03,-0.01,-0.01,31.11
36942189,1830,1,190615,228366,0.06,-0.82,9.96,-0.03,-0.01,-0.00,31.11
36982186,1830,1,190105,225259,0.06,-0.81,9.94,-0.03,-0.01,-0.00,31.11
37022200,1839,1,189149,223857,0.08,-0.83,9.96,-0.03,-0.01,-0.00,31.11
37062186,1845,1,188950,223730,0.06,-0.81,9.97,-0.03,-0.01,-0.01,31.11
37102189,1830,1,188924,223759,0.06,-0.81,9.96,-0.03,-0.01,-0.01,31.11
37142190,1835,1,188972,223965,0.07,-0.80,9.96,-0.03,-0.01,-0.01,31.11
37182189,1834,1,189058,224462,0.07,-0.80,9.97,-0.03,-0.01,-0.01,31.11
37222187,1840,1,189307,224905,0.06,-0.81,9.96,-0.03,-0.01,-0.01,31.11
37262190,1842,1,189377,225003,0.09,-0.83,9.94,-0.03,-0.01,-0.00,31.11
37302186,1838,1,189443,225271,0.07,-0.81,9.96,-0.03,-0.01,-0.01,31.11
37342190,1838,1,189545,225590,0.07,-0.81,9.96,-0.03,-0.01,-0.01,31.11
37382190,1840,1,189655,225943,0.08,-0.81,9.97,-0.03,-0.01,-0.01,31.11
37422190,1839,1,189830,226520,0.06,-0.81,9.95,-0.03,-0.01,-0.00,31.11
37462187,1837,1,190031,227232,0.06,-0.80,9.95,-0.03,-0.01,-0.01,31.11
37502189,1847,1,190286,227726,0.07,-0.82,9.97,-0.03,-0.01,-0.00,31.11
37542186,1839,1,190411,228132,0.07,-0.80,9.97,-0.03,-0.01,-0.00,31.11
37582190,1838,1,190584,228629,0.06,-0.79,9.96,-0.03,-0.01,-0.01,31.11
37622187,1835,1,190625,227673,0.07,-0.80,9.96,-0.03,-0.01,-0.00,31.11
37662190,1836,1,189728,224747,0.08,-0.80,9.96,-0.03,-0.01,-0.01,31.11
37702186,1837,1,189113,224095,0.08,-0.83,9.97,-0.03,-0.01,-0.01,31.11
37742190,1844,1,189014,223991,0.07,-0.81,9.96,-0.03,-0.01,-0.00,31.11
37782186,1839,1,189032,224064,0.07,-0.82,9.95,-0.03,-0.01,-0.01,31.11
37822190,1830,1,189063,224349,0.08,-0.80,9.98,-0.03,-0.01,-0.01,31.11
37862873,1831,1,189194,224993,0.05,-0.82,9.96,-0.03,-0.01,-0.00,31.05
37903190,1841,1,189423,225357,0.08,-0.82,9.95,-0.03,-0.01,-0.01,31.05
37943186,1840,1,189458,225342,0.06,-0.81,9.95,-0.03,-0.01,-0.00,31.05
37983190,1840,1,189494,225642,0.09,-0.83,9.99,-0.03,-0.01,-0.01,31.05
38023186,1840,1,189587,225981,0.09,-0.83,9.96,-0.03,-0.01,-0.00,31.05
38063190,1840,1,189758,226417,0.06,-0.82,9.95,-0.03,-0.01,-0.01,31.05
38103189,1834,1,189852,226720,0.06,-0.81,9.94,-0.03,-0.01,-0.01,31.05
38143190,1840,1,189923,227109,0.05,-0.80,9.95,-0.03,-0.01,-0.01,31.05
38183186,1831,1,190127,227601,0.10,-0.82,9.96,-0.03,-0.01,-0.01,31.05
38223190,1840,1,190338,228251,0.07,-0.83,9.96,-0.03,-0.01,-0.01,31.05
38263186,1840,1,190421,228190,0.07,-0.83,9.97,-0.03,-0.01,-0.01,31.05
38303190,1841,1,189911,225085,0.07,-0.82,9.96,-0.03,-0.01,-0.01,31.05
38343190,1840,1,189067,223989,0.06,-0.82,9.95,-0.03,-0.01,-0.00,31.05
38383190,1847,1,188888,223782,0.06,-0.83,9.93,-0.03,-0.01,-0.00,31.05
38423186,1837,1,188925,223857,0.06,-0.83,9.97,-0.03,-0.01,-0.01,31.05
38463190,1854,1,188891,223945,0.08,-0.81,9.95,-0.03,-0.01,-0.01,31.05
38503186,1845,1,188966,224408,0.10,-0.81,9.96,-0.03,-0.01,-0.01,31.05
38541194,1863,1,189222,224959,0.06,-0.81,9.97,-0.03,-0.01,-0.00,31.05
38581186,1867,1,189258,224965,0.06,-0.81,9.94,-0.03,-0.01,-0.01,31.05
38621190,1863,1,189229,224925,0.07,-0.81,9.94,-0.03,-0.01,-0.01,31.05
38661186,1855,1,189279,225230,0.06,-0.81,9.96,-0.04,-0.01,-0.01,31.05
38701190,1855,1,189354,225527,0.06,-0.81,9.96,-0.03,-0.01,-0.00,31.05
38741192,1851,1,189433,225977,0.08,-0.80,9.95,-0.03,-0.01,-0.00,31.05
38781190,1843,1,189695,226371,0.08,-0.83,9.95,-0.03,-0.01,-0.00,31.05
38821186,1856,1,189822,226862,0.08,-0.81,9.96,-0.03,-0.01,-0.01,31.05
38861190,1853,1,190045,227309,0.06,-0.79,9.95,-0.03,-0.01,-0.00,31.05
38901872,1840,1,190220,227795,0.06,-0.82,9.94,-0.03,-0.01,-0.01,31.01
38942190,1850,1,190256,227395,0.06,-0.82,9.96,-0.03,-0.01,-0.01,31.01
38982186,1845,1,189618,224591,0.06,-0.79,9.93,-0.03,-0.01,-0.01,31.01
39022200,1840,1,188912,223592,0.06,-0.80,9.95,-0.03,-0.01,-0.00,31.01
39062186,1849,1,188862,223475,0.08,-0.81,9.98,-0.03,-0.01,-0.01,31.01
39102190,1852,1,188811,223489,0.07,-0.82,9.95,-0.03,-0.01,-0.00,31.01
39142187,1847,1,188761,223521,0.06,-0.81,9.96,-0.03,-0.01,-0.01,31.01
39182190,1846,1,188861,224097,0.07,-0.81,9.95,-0.03,-0.01,-0.01,31.01
39222190,1845,1,189157,224677,0.06,-0.83,9.96,-0.03,-0.01,-0.01,31.01
39262190,1843,1,189284,224903,0.06,-0.82,9.96,-0.03,-0.01,-0.01,31.01
39302186,1845,1,189375,225223,0.07,-0.83,9.94,-0.03,-0.01,-0.01,31.01
39342190,1841,1,189500,225560,0.08,-0.81,9.98,-0.03,-0.01,-0.00,31.01
39382186,1842,1,189643,225811,0.06,-0.82,9.97,-0.03,-0.01,-0.01,31.01
39422189,1840,1,189696,226025,0.06,-0.82,9.95,-0.03,-0.01,-0.01,31.01
39462189,1840,1,189795,226360,0.06,-0.81,9.96,-0.03,-0.01,-0.00,31.01
39502190,1844,1,189970,226737,0.07,-0.82,9.96,-0.03,-0.01,-0.00,31.01
39542186,1841,1,190012,227186,0.07,-0.81,9.94,-0.03,-0.01,-0.01,31.01
39582189,1854,1,190233,227838,0.06,-0.81,9.95,-0.03,-0.01,-0.01,31.01
39622187,1844,1,190412,228250,0.06,-0.79,9.97,-0.03,-0.01,-0.00,31.01
39662189,1837,1,190360,226155,0.06,-0.81,9.97,-0.03,-0.01,-0.00,31.01
39702186,1840,1,189238,224017,0.07,-0.78,9.96,-0.03,-0.01,-0.01,31.01
39742190,1841,1,188884,223699,0.06,-0.83,9.94,-0.03,-0.01,-0.01,31.01
39782189,1839,1,188826,223654,0.06,-0.80,9.99,-0.03,-0.01,-0.01,31.01
39822189,1839,1,188920,223677,0.06,-0.81,9.97,-0.03,-0.01,-0.01,31.01
39862190,1836,1,188943,224015,0.06,-0.81,9.94,-0.03,-0.01,-0.01,31.01
39902876,1835,1,189167,224734,0.06,-0.79,9.95,-0.03,-0.01,-0.01,31.07
39941190,1845,1,189366,225156,0.06,-0.82,9.94,-0.03,-0.01,-0.00,31.07
39981190,1839,1,189441,225236,0.09,-0.82,9.96,-0.03,-0.01,-0.01,31.07
40021186,1840,1,189506,225524,0.05,-0.80,9.94,-0.03,-0.01,-0.01,31.07
40061190,1839,1,189601,225827,0.06,-0.82,9.94,-0.03,-0.01,-0.01,31.07
40101186,1845,1,189721,226279,0.05,-0.81,9.93,-0.03,-0.01,-0.01,31.07
40141189,1843,1,189856,226605,0.05,-0.81,9.98,-0.03,-0.01,-0.01,31.07
40181220,1833,1,190054,227004,0.08,-0.81,9.96,-0.03,-0.01,-0.01,31.07
40221189,1835,1,190269,227834,0.08,-0.79,9.94,-0.03,-0.01,-0.01,31.07
40261187,1836,1,190444,228301,0.09,-0.83,9.95,-0.03,-0.01,-0.01,31.07
40301189,1842,1,190524,228580,0.09,-0.82,9.96,-0.03,-0.01,-0.01,31.07
40341187,1841,1,190691,228274,0.07,-0.81,9.94,-0.03,-0.01,-0.01,31.07
40381192,1842,1,190006,225179,0.07,-0.81,9.96,-0.03,-0.01,-0.01,31.07
40421190,1840,1,189272,224308,0.07,-0.83,9.96,-0.03,-0.01,-0.01,31.07
40461190,1840,1,189149,224323,0.08,-0.82,9.97,-0.03,-0.01,-0.00,31.07
40501186,1842,1,189118,224293,0.04,-0.82,9.95,-0.03,-0.01,-0.01,31.07
40541189,1845,1,189213,224467,0.06,-0.82,9.96,-0.03,-0.01,-0.00,31.07
40581187,1852,1,189334,225219,0.06,-0.81,9.98,-0.03,-0.01,-0.00,31.07
40621189,1840,1,189595,225627,0.06,-0.81,9.94,-0.03,-0.01,-0.00,31.07
40661186,1831,1,189497,225712,0.06,-0.80,9.92,-0.03,-0.01,-0.01,31.07
40701189,1840,1,189607,226077,0.08,-0.82,9.96,-0.03,-0.01,-0.00,31.07
40741186,1842,1,189739,226549,0.07,-0.83,9.94,-0.03,-0.01,-0.00,31.07
40781189,1843,1,189921,226990,0.07,-0.82,9.97,-0.03,-0.01,-0.01,31.07
40821187,1837,1,190013,227263,0.06,-0.82,9.97,-0.03,-0.01,-0.01,31.07
40861189,1842,1,190093,227637,0.08,-0.80,9.97,-0.03,-0.01,-0.00,31.07
40901186,1842,1,190289,228173,0.06,-0.81,9.96,-0.03,-0.01,-0.01,31.07
40941876,1834,1,190521,228708,0.06,-0.82,9.94,-0.03,-0.01,-0.00,31.05
40982186,1836,1,190713,229113,0.07,-0.81,9.96,-0.03,-0.01,-0.01,31.05
41022200,1828,1,190662,227306,0.06,-0.80,9.96,-0.03,-0.01,-0.01,31.05
41062186,1837,1,189549,224832,0.08,-0.82,9.97,-0.03,-0.01,-0.01,31.05
41102190,1838,1,189096,224467,0.05,-0.82,9.95,-0.03,-0.01,-0.00,31.05
41142186,1835,1,189058,224480,0.06,-0.82,9.98,-0.03,-0.01,-0.01,31.05
41182190,1837,1,189064,224473,0.06,-0.82,9.97,-0.03,-0.01,-0.01,31.05
41222186,1831,1,189091,224659,0.07,-0.81,9.96,-0.03,-0.01,-0.01,31.05
41262190,1839,1,189298,225521,0.06,-0.81,9.97,-0.03,-0.01,-0.00,31.05
41302186,1838,1,189467,225822,0.06,-0.83,9.96,-0.03,-0.01,-0.00,31.05
41342190,1835,1,189513,225930,0.05,-0.83,9.95,-0.03,-0.01,-0.01,31.05
41382190,1830,1,189531,226121,0.07,-0.83,9.97,-0.04,-0.01,-0.01,31.05
41422189,1841,1,189571,226383,0.06,-0.81,9.96,-0.03,-0.01,-0.00,31.05
41462186,1829,1,189664,226554,0.04,-0.81,9.94,-0.03,-0.01,-0.00,31.05
41502190,1838,1,189743,226785,0.08,-0.82,9.96,-0.03,-0.01,-0.00,31.05
41542186,1843,1,189905,227257,0.07,-0.80,9.94,-0.03,-0.01,-0.01,31.05
41582190,1840,1,190026,227734,0.06,-0.81,9.94,-0.03,-0.01,-0.00,31.05
41622186,1833,1,190164,228235,0.09,-0.83,9.96,-0.03,-0.01,-0.00,31.05
41662190,1835,1,190352,228699,0.06,-0.80,9.96,-0.03,-0.01,-0.00,31.05
41702186,1839,1,190335,226884,0.06,-0.82,9.94,-0.03,-0.01,-0.01,31.05
41742190,1833,1,189254,224682,0.06,-0.84,9.96,-0.03,-0.01,-0.01,31.05
41782189,1840,1,188895,224213,0.07,-0.82,9.95,-0.03,-0.01,-0.01,31.05
41822190,1828,1,188806,224058,0.07,-0.82,9.96,-0.03,-0.01,-0.01,31.05
41862189,1825,1,188851,224123,0.07,-0.82,9.94,-0.03,-0.01,-0.00,31.05
41902190,1831,1,188877,224407,0.06,-0.81,9.93,-0.03,-0.01,-0.00,31.05
41942872,1828,1,189022,225168,0.06,-0.81,9.97,-0.03,-0.01,-0.01,30.97
41981190,1840,1,189184,225552,0.06,-0.79,9.96,-0.03,-0.01,-0.01,30.97
42021194,1834,1,189261,225604,0.06,-0.81,9.96,-0.03,-0.01,-0.00,30.97
42061190,1839,1,189391,225971,0.06,-0.80,9.96,-0.03,-0.01,-0.00,30.97
42101186,1840,1,189507,226513,0.07,-0.82,9.95,-0.03,-0.01,-0.01,30.97
42141189,1851,1,189717,227149,0.06,-0.82,9.97,-0.03,-0.01,-0.01,30.97
42181190,1851,1,190102,228029,0.07,-0.80,9.96,-0.03,-0.01,-0.01,30.97
42221220,1840,1,190291,228433,0.07,-0.82,9.96,-0.03,-0.01,-0.01,30.97
42261190,1851,1,190441,228868,0.07,-0.81,9.95,-0.03,-0.01,-0.01,30.97
42301189,1841,1,190606,229167,0.08,-0.80,9.95,-0.03,-0.01,-0.01,30.97
42341187,1847,1,190661,229356,0.08,-0.83,9.94,-0.03,-0.01,-0.01,30.97
42381189,1840,1,190781,228505,0.08,-0.81,9.99,-0.03,-0.01,-0.01,30.97
42421187,1842,1,189772,225041,0.07,-0.82,9.97,-0.03,-0.01,-0.01,30.97
42461189,1840,1,189018,224164,0.06,-0.81,9.98,-0.03,-0.01,-0.00,30.97
42501186,1840,1,188824,224002,0.07,-0.82,9.96,-0.03,-0.01,-0.00,30.97
42541190,1839,1,188814,223907,0.04,-0.81,9.97,-0.03,-0.01,-0.01,30.97
42581189,1839,1,188806,224054,0.07,-0.81,9.96,-0.03,-0.01,-0.00,30.97
42621190,1840,1,188948,224543,0.07,-0.80,9.93,-0.03,-0.01,-0.01,30.97
42661186,1840,1,189139,225088,0.08,-0.82,9.96,-0.03,-0.01,-0.01,30.97
42701189,1840,1,189213,225322,0.06,-0.81,9.94,-0.03,-0.01,-0.01,30.97
42741186,1840,1,189353,225592,0.05,-0.81,9.95,-0.03,-0.01,-0.01,30.97
42781190,1831,1,189486,225923,0.06,-0.83,9.95,-0.03,-0.01,-0.01,30.97
42821190,1837,1,189686,226503,0.05,-0.82,9.93,-0.03,-0.01,-0.00,30.97
42861189,1838,1,189843,227005,0.05,-0.82,9.95,-0.03,-0.01,-0.01,30.97
42901190,1830,1,190115,227770,0.06,-0.80,9.96,-0.03,-0.01,-0.01,30.97
42941190,1833,1,190363,228387,0.08,-0.80,9.95,-0.03,-0.01,-0.01,30.97
42981873,1827,1,190581,228971,0.06,-0.83,9.97,-0.03,-0.01,-0.01,30.91
43022200,1838,1,190877,229816,0.08,-0.82,9.94,-0.03,-0.01,-0.00,30.91
43062186,1837,1,191147,230234,0.05,-0.82,9.95,-0.03,-0.01,-0.00,30.91
43102189,1839,1,190808,227425,0.07,-0.83,9.98,-0.03,-0.01,-0.01,30.91
43142187,1851,1,189529,225067,0.06,-0.81,9.98,-0.03,-0.01,-0.01,30.91
43182190,1853,1,189238,224811,0.09,-0.80,9.95,-0.03,-0.01,-0.01,30.91
43222186,1861,1,189270,224891,0.07,-0.82,9.96,-0.03,-0.01,-0.01,30.91
43262190,1867,1,189316,224970,0.09,-0.82,9.95,-0.03,-0.01,-0.01,30.91
43302190,1872,1,189358,225530,0.07,-0.80,9.94,-0.03,-0.01,-0.01,30.91
43342189,1883,1,189815,226880,0.07,-0.81,9.96,-0.03,-0.02,-0.00,30.91
43382186,1898,1,190200,227493,0.07,-0.81,9.95,-0.03,-0.02,-0.01,30.91
43422190,1913,1,190264,227765,0.07,-0.82,9.94,-0.03,-0.01,-0.01,30.91
43462190,1925,1,190478,228286,0.09,-0.81,9.95,-0.03,-0.02,-0.01,30.91
43502189,1938,1,190811,229141,0.07,-0.81,9.96,-0.03,-0.01,-0.01,30.91
43542190,1965,1,191077,229506,0.07,-0.79,9.97,-0.03,-0.01,-0.01,30.91
43582189,1971,1,191022,229713,0.05,-0.81,9.96,-0.03,-0.01,-0.01,30.91
43622187,2000,1,191221,230164,0.08,-0.81,9.97,-0.03,-0.01,-0.00,30.91
43662235,2006,1,191376,230517,0.05,-0.83,9.97,-0.03,-0.01,-0.01,30.91
43702186,2003,1,191505,231076,0.07,-0.83,9.98,-0.03,-0.01,-0.01,30.91
43742190,2023,1,191777,231621,0.07,-0.82,9.94,-0.03,-0.01,-0.00,30.91
43782187,2034,1,191574,228738,0.06,-0.82,9.96,-0.03,-0.01,-0.00,30.91
43822190,2041,1,190401,226542,0.04,-0.80,9.97,-0.03,-0.01,-0.01,30.91
43862228,2027,1,190111,226979,0.07,-0.82,9.97,-0.03,-0.02,-0.01,30.91
43902190,2030,1,190485,227861,0.10,-0.80,9.98,-0.03,-0.01,-0.01,30.91
43942186,2031,1,190760,228383,0.08,-0.84,9.99,-0.03,-0.01,-0.01,30.91
43982876,2029,1,191018,229379,0.05,-0.81,9.97,-0.03,-0.01,-0.01,30.91
44021190,2016,1,191481,230404,0.06,-0.81,9.96,-0.03,-0.01,-0.01,30.91
44061190,2007,1,191698,230867,0.08,-0.83,9.94,-0.03,-0.01,-0.00,30.91
44102187,1995,1,191805,231453,0.09,-0.84,9.98,-0.03,-0.01,-0.01,30.91
44142189,1984,1,192139,232282,0.07,-0.81,9.97,-0.03,-0.01,-0.01,30.91
44182190,1966,1,192463,233133,0.07,-0.81,9.96,-0.03,-0.01,-0.00,30.91
44222190,1965,1,192747,233874,0.07,-0.84,9.95,-0.03,-0.01,-0.00,30.91
44262187,1939,1,192982,234326,0.07,-0.81,9.95,-0.03,-0.01,-0.00,30.91
44302189,1935,1,193201,235321,0.07,-0.82,9.96,-0.03,-0.01,-0.01,30.91
44342190,1918,1,193532,236193,0.08,-0.80,9.97,-0.03,-0.01,-0.00,30.91
44382190,1895,1,193839,236672,0.08,-0.81,9.96,-0.03,-0.01,-0.01,30.91
44422187,1878,1,193893,235963,0.07,-0.82,9.94,-0.03,-0.01,-0.01,30.91
44462189,1867,1,192655,230586,0.09,-0.82,9.94,-0.03,-0.01,-0.01,30.91
44502190,1849,1,191268,228921,0.06,-0.81,9.96,-0.03,-0.01,-0.01,30.91
44542189,1839,1,191091,228913,0.07,-0.82,9.96,-0.03,-0.01,-0.01,30.91
44582187,1840,1,191049,228756,0.08,-0.81,9.95,-0.03,-0.01,-0.01,30.91
44622190,1824,1,191018,228853,0.07,-0.81,9.97,-0.03,-0.01,-0.01,30.91
44662186,1819,1,191165,229564,0.08,-0.81,9.95,-0.03,-0.01,-0.01,30.91
44702189,1803,1,191521,230397,0.06,-0.81,9.95,-0.03,-0.01,-0.01,30.91
44742189,1799,1,191629,230632,0.08,-0.82,9.94,-0.03,-0.01,-0.01,30.91
44782189,1798,1,191597,230826,0.07,-0.82,9.97,-0.03,-0.01,-0.01,30.91
44822186,1801,1,191664,231052,0.07,-0.82,9.93,-0.03,-0.01,-0.01,30.91
44862189,1795,1,191788,231244,0.07,-0.83,9.98,-0.03,-0.01,-0.01,30.91
44902187,1787,1,191794,231475,0.08,-0.81,9.95,-0.03,-0.01,-0.01,30.91
44942189,1792,1,191877,231813,0.08,-0.82,9.97,-0.03,-0.01,-0.01,30.91
44982873,1795,1,191971,231951,0.06,-0.82,9.95,-0.03,-0.01,-0.01,30.87
45021190,1793,1,192047,232331,0.06,-0.81,9.94,-0.03,-0.01,-0.00,30.87
45061187,1789,1,192300,233032,0.08,-0.82,9.95,-0.03,-0.01,-0.00,30.87
45102190,1776,1,192440,232268,0.06,-0.82,9.96,-0.03,-0.01,-0.01,30.87
45142187,1777,1,191207,228069,0.07,-0.80,9.96,-0.03,-0.01,-0.01,30.87
45182189,1773,1,190416,227160,0.06,-0.83,9.96,-0.03,-0.01,-0.01,30.87
45222190,1773,1,190416,227292,0.06,-0.81,9.96,-0.03,-0.01,-0.00,30.87
45262189,1773,1,190376,227409,0.05,-0.80,9.95,-0.03,-0.01,-0.01,30.87
45302203,1763,1,190459,227840,0.06,-0.82,9.96,-0.03,-0.01,-0.00,30.87
45342189,1767,1,190747,228993,0.08,-0.82,9.95,-0.03,-0.01,-0.00,30.87
45382186,1771,1,191167,229753,0.06,-0.82,9.95,-0.03,-0.01,-0.01,30.87
45422190,1770,1,191351,229926,0.07,-0.82,9.95,-0.03,-0.01,-0.00,30.87
45462187,1774,1,191368,230085,0.07,-0.81,9.95,-0.03,-0.01,-0.01,30.87
45502218,1779,1,191450,230281,0.07,-0.82,9.95,-0.03,-0.01,-0.00,30.87
45542187,1777,1,191533,230713,0.05,-0.82,9.97,-0.03,-0.01,-0.01,30.87
45582190,1776,1,191645,231129,0.07,-0.81,9.96,-0.03,-0.01,-0.01,30.87
45622189,1775,1,191735,231486,0.07,-0.82,9.95,-0.03,-0.01,-0.01,30.87
45662189,1789,1,191898,231898,0.08,-0.82,9.94,-0.03,-0.01,-0.00,30.87
45702211,1776,1,192037,232269,0.08,-0.82,9.95,-0.03,-0.01,-0.01,30.87
45742190,1789,1,192145,232838,0.07,-0.81,9.95,-0.03,-0.01,-0.00,30.87
45780187,1798,1,192264,232327,0.08,-0.82,9.99,-0.03,-0.01,-0.00,30.87
45820190,1810,1,191401,228272,0.09,-0.85,9.96,-0.03,-0.01,-0.00,30.87
45860186,1810,1,190405,227018,0.10,-0.82,9.94,-0.03,-0.01,-0.01,30.87
45900190,1810,1,190242,227065,0.06,-0.80,9.95,-0.04,-0.01,-0.01,30.87
45940186,1810,1,190284,227184,0.06,-0.80,9.96,-0.03,-0.01,-0.00,30.87
45980190,1815,1,190434,227334,0.07,-0.81,9.95,-0.03,-0.01,-0.00,30.87
46020873,1795,1,190583,228384,0.07,-0.82,9.94,-0.03,-0.01,-0.00,30.73
46061189,1806,1,191075,229359,0.04,-0.81,9.98,-0.03,-0.01,-0.01,30.73
46101187,1808,1,191251,229585,0.07,-0.81,9.96,-0.03,-0.01,-0.01,30.73
46140189,1821,1,191269,229791,0.08,-0.81,9.95,-0.03,-0.01,-0.01,30.73
46180187,1826,1,191419,230211,0.07,-0.82,9.95,-0.03,-0.01,-0.01,30.73
46220190,1835,1,191590,230694,0.07,-0.82,9.93,-0.03,-0.01,-0.01,30.73
46260189,1834,1,191807,231091,0.09,-0.81,9.97,-0.03,-0.01,-0.01,30.73
46300190,1837,1,191841,231359,0.08,-0.82,9.95,-0.03,-0.01,-0.01,30.73
46340187,1833,1,191987,231835,0.09,-0.83,9.94,-0.03,-0.01,-0.01,30.73
46380190,1840,1,192189,232245,0.08,-0.80,9.96,-0.03,-0.01,-0.01,30.73
46420186,1844,1,192473,232761,0.06,-0.82,9.96,-0.03,-0.01,-0.00,30.73
46460190,1838,1,192553,231804,0.07,-0.82,9.94,-0.03,-0.01,-0.00,30.73
46500186,1834,1,191403,228152,0.08,-0.81,9.93,-0.03,-0.01,-0.01,30.73
46540189,1841,1,190641,227266,0.06,-0.80,9.96,-0.03,-0.01,-0.01,30.73
46580186,1836,1,190549,227327,0.07,-0.80,9.97,-0.03,-0.01,-0.01,30.73
46620189,1840,1,190633,227506,0.07,-0.84,9.95,-0.03,-0.01,-0.01,30.73
46660190,1846,1,190745,227937,0.09,-0.80,9.94,-0.03,-0.01,-0.01,30.73
46700189,1843,1,190957,229098,0.04,-0.81,9.97,-0.03,-0.01,-0.01,30.73
46740187,1840,1,191353,229771,0.08,-0.82,9.97,-0.03,-0.01,-0.01,30.73
46780189,1841,1,191562,230098,0.07,-0.82,9.95,-0.03,-0.01,-0.01,30.73
46820190,1852,1,191688,230443,0.07,-0.82,9.94,-0.03,-0.01,-0.01,30.73
46860190,1851,1,191679,230879,0.08,-0.81,9.96,-0.03,-0.01,-0.00,30.73
46900186,1846,1,191878,231205,0.07,-0.79,9.93,-0.03,-0.01,-0.00,30.73
46940202,1843,1,191967,231519,0.04,-0.82,9.94,-0.03,-0.01,-0.00,30.73
46980186,1859,1,192033,232089,0.09,-0.83,9.95,-0.03,-0.01,-0.00,30.73
47020189,1868,1,192318,232694,0.10,-0.83,9.93,-0.03,-0.01,-0.01,30.73
47060873,1850,1,192535,233376,0.08,-0.82,9.95,-0.03,-0.01,-0.00,30.77
47101190,1850,1,192725,233449,0.06,-0.81,9.96,-0.03,-0.01,-0.00,30.77
47142187,1851,1,192048,229319,0.09,-0.81,9.97,-0.03,-0.01,-0.01,30.77
47180190,1857,1,190747,227555,0.09,-0.81,9.96,-0.03,-0.01,-0.01,30.77
47220186,1846,1,190509,227468,0.07,-0.82,9.98,-0.03,-0.01,-0.00,30.77
47260190,1858,1,190552,227658,0.06,-0.81,9.95,-0.03,-0.01,-0.01,30.77
47300190,1850,1,190622,227952,0.06,-0.82,9.95,-0.03,-0.01,-0.00,30.77
47340205,1845,1,190745,228631,0.07,-0.82,9.97,-0.03,-0.01,-0.00,30.77
47380187,1853,1,191050,229437,0.09,-0.83,9.94,-0.03,-0.01,-0.01,30.77
47420190,1856,1,191198,229663,0.06,-0.83,9.95,-0.03,-0.01,-0.01,30.77
47460186,1855,1,191205,229603,0.05,-0.81,9.96,-0.03,-0.01,-0.00,30.77
47500189,1846,1,191173,229849,0.07,-0.82,9.93,-0.03,-0.01,-0.01,30.77
47540190,1842,1,191219,230197,0.08,-0.80,9.96,-0.03,-0.01,-0.00,30.77
47580189,1844,1,191515,230833,0.06,-0.81,9.96,-0.03,-0.01,-0.00,30.77
47620187,1853,1,191757,231513,0.07,-0.84,9.97,-0.03,-0.01,-0.00,30.77
47660189,1856,1,191954,231998,0.07,-0.83,9.96,-0.03,-0.01,-0.00,30.77
47700187,1845,1,191993,232639,0.09,-0.83,9.95,-0.03,-0.01,-0.01,30.77
47740189,1845,1,192162,232888,0.07,-0.81,9.96,-0.03,-0.01,-0.01,30.77
47780190,1840,1,191839,229704,0.06,-0.83,9.97,-0.03,-0.01,-0.00,30.77
47820190,1840,1,190672,227595,0.08,-0.82,9.95,-0.03,-0.01,-0.00,30.77
47860186,1846,1,190352,227297,0.06,-0.80,9.95,-0.03,-0.01,-0.01,30.77
47900189,1840,1,190280,227346,0.06,-0.80,9.93,-0.03,-0.01,-0.01,30.77
47940186,1829,1,190329,227440,0.07,-0.83,9.96,-0.03,-0.01,-0.00,30.77
47980189,1831,1,190441,227936,0.06,-0.82,9.95,-0.03,-0.01,-0.01,30.77
48020189,1831,1,190781,228814,0.07,-0.81,9.96,-0.03,-0.01,-0.01,30.77
48060876,1839,1,190987,229342,0.06,-0.80,9.95,-0.03,-0.01,-0.01,30.73
48101186,1834,1,191123,229776,0.08,-0.80,9.93,-0.03,-0.01,-0.00,30.73
48141190,1834,1,191336,230539,0.08,-0.81,9.95,-0.03,-0.01,-0.01,30.73
48180186,1842,1,191596,231098,0.07,-0.83,9.95,-0.03,-0.01,-0.01,30.73
48220189,1835,1,191708,231669,0.06,-0.82,9.98,-0.03,-0.01,-0.00,30.73
48260186,1839,1,191967,232407,0.07,-0.78,9.97,-0.03,-0.01,-0.01,30.73
48300189,1840,1,192253,233400,0.06,-0.84,9.94,-0.03,-0.01,-0.01,30.73
48340190,1840,1,192625,234649,0.09,-0.82,9.91,-0.04,-0.01,-0.01,30.73
48380190,1840,1,193041,235549,0.07,-0.83,9.98,-0.04,-0.01,-0.01,30.73
48420190,1844,1,192902,232414,0.09,-0.83,9.96,-0.04,-0.01,-0.01,30.73
48460190,1839,1,191348,229499,0.07,-0.81,9.97,-0.03,-0.01,-0.00,30.73
48500187,1837,1,191018,229543,0.07,-0.82,9.95,-0.03,-0.01,-0.01,30.73
48540190,1840,1,191168,229652,0.06,-0.83,9.96,-0.03,-0.01,-0.01,30.73
48580187,1837,1,191141,229794,0.07,-0.81,9.95,-0.03,-0.01,-0.01,30.73
48620189,1840,1,191151,230453,0.06,-0.80,9.96,-0.03,-0.01,-0.00,30.73
48660185,1835,1,191678,231824,0.09,-0.82,9.93,-0.03,-0.01,-0.00,30.73
48700190,1838,1,192024,232310,0.07,-0.81,9.96,-0.03,-0.01,-0.01,30.73
48740190,1838,1,192120,232507,0.07,-0.80,9.95,-0.03,-0.01,-0.00,30.73
48780193,1835,1,192187,233039,0.06,-0.82,9.93,-0.03,-0.01,-0.01,30.73
48820189,1845,1,192377,233590,0.05,-0.82,9.95,-0.03,-0.01,-0.01,30.73
48860190,1839,1,192497,233698,0.05,-0.83,9.96,-0.03,-0.01,-0.01,30.73
48900187,1840,1,192522,234027,0.08,-0.80,9.96,-0.03,-0.01,-0.00,30.73
48940190,1844,1,192655,234634,0.07,-0.81,9.96,-0.03,-0.01,-0.01,30.73
48980186,1840,1,192920,235203,0.06,-0.82,9.98,-0.03,-0.01,-0.00,30.73
49020190,1846,1,192987,235066,0.07,-0.82,9.98,-0.04,-0.01,-0.01,30.73
49060876,1838,1,192438,230558,0.07,-0.83,9.96,-0.03,-0.01,-0.01,31.15
49101190,1837,1,190975,228451,0.07,-0.82,9.96,-0.03,-0.01,-0.00,31.15
49141186,1835,1,190729,228316,0.08,-0.80,9.96,-0.03,-0.01,-0.00,31.15
49181189,1840,1,190707,228244,0.07,-0.84,9.94,-0.03,-0.01,-0.01,31.15
49221189,1841,1,190712,228380,0.07,-0.81,9.98,-0.04,-0.01,-0.01,31.15
49261189,1840,1,190882,229302,0.06,-0.82,9.95,-0.03,-0.01,-0.01,31.15
49301190,1840,1,191326,230075,0.06,-0.81,9.95,-0.03,-0.01,-0.01,31.15
49341190,1838,1,191410,230312,0.07,-0.82,9.97,-0.03,-0.01,-0.00,31.15
49381186,1840,1,191351,230775,0.05,-0.83,9.96,-0.03,-0.01,-0.01,31.15
49421190,1837,1,191627,231122,0.06,-0.80,9.94,-0.03,-0.01,-0.01,31.15
49461186,1834,1,191636,231470,0.06,-0.81,9.94,-0.03,-0.01,-0.00,31.15
49501190,1841,1,191800,231590,0.08,-0.83,9.96,-0.03,-0.01,-0.00,31.15
49541186,1834,1,191804,232194,0.06,-0.83,9.95,-0.03,-0.01,-0.01,31.15
49581190,1839,1,192068,232963,0.07,-0.82,9.96,-0.03,-0.01,-0.01,31.15
49621190,1835,1,192310,233485,0.06,-0.83,9.92,-0.03,-0.01,-0.01,31.15
49661189,1831,1,192325,231950,0.07,-0.82,9.95,-0.03,-0.01,-0.00,31.15
49701187,1838,1,191066,228414,0.07,-0.83,9.95,-0.03,-0.01,-0.01,31.15
49741189,1845,1,190341,227812,0.06,-0.83,9.97,-0.03,-0.01,-0.00,31.15
49781187,1838,1,190417,227905,0.05,-0.80,9.98,-0.03,-0.01,-0.01,31.15
49821189,1840,1,190421,228146,0.06,-0.83,9.95,-0.03,-0.01,-0.00,31.15
49861187,1844,1,190566,228734,0.07,-0.81,10.01,-0.03,-0.01,-0.01,31.15
49901190,1846,1,190846,229582,0.06,-0.81,9.97,-0.03,-0.01,-0.00,31.15
49941186,1847,1,191057,230038,0.08,-0.83,9.94,-0.03,-0.01,-0.01,31.15
49981190,1852,1,191226,230242,0.09,-0.80,9.96,-0.03,-0.01,-0.00,31.15
50021185,1858,1,191415,231000,0.09,-0.83,9.94,-0.03,-0.01,-0.01,31.15
50061876,1859,1,191590,231552,0.06,-0.82,9.97,-0.03,-0.01,-0.00,30.93
50100187,1861,1,191758,231911,0.06,-0.83,9.98,-0.03,-0.01,-0.00,30.93
50140190,1875,1,191902,232163,0.06,-0.82,9.98,-0.03,-0.01,-0.01,30.93
50180187,1876,1,191900,232657,0.07,-0.83,9.97,-0.03,-0.01,-0.01,30.93
50220189,1879,1,192139,233062,0.09,-0.81,9.94,-0.03,-0.01,-0.00,30.93
50260186,1872,1,192188,233293,0.07,-0.81,9.97,-0.03,-0.01,-0.01,30.93
50300189,1891,1,191951,230678,0.06,-0.82,9.93,-0.03,-0.01,-0.01,30.93
50340190,1888,1,190694,228097,0.06,-0.82,9.98,-0.03,-0.01,-0.00,30.93
50380189,1890,1,190352,227681,0.07,-0.82,9.94,-0.03,-0.01,-0.01,30.93
50420223,1894,1,190320,227996,0.05,-0.82,9.97,-0.03,-0.01,-0.01,30.93
50460189,1897,1,190519,228365,0.07,-0.83,9.97,-0.03,-0.01,-0.01,30.93
50500189,1901,1,190716,229122,0.06,-0.81,9.98,-0.03,-0.01,-0.01,30.93
50540189,1893,1,191057,230267,0.07,-0.81,9.96,-0.03,-0.01,-0.01,30.93
50580190,1890,1,191356,230681,0.07,-0.80,9.95,-0.03,-0.01,-0.01,30.93
50620232,1889,1,191478,230891,0.07,-0.83,9.95,-0.03,-0.01,-0.01,30.93
50660190,1890,1,191543,231516,0.07,-0.83,9.98,-0.03,-0.01,-0.00,30.93
50700189,1890,1,191827,231844,0.09,-0.83,9.93,-0.03,-0.01,-0.01,30.93
50740186,1869,1,191799,232263,0.09,-0.82,9.93,-0.03,-0.01,-0.01,30.93
50780189,1881,1,191985,232785,0.07,-0.80,9.96,-0.03,-0.01,-0.01,30.93
50820186,1872,1,192153,233583,0.06,-0.81,9.93,-0.03,-0.01,-0.01,30.93
50860189,1868,1,192533,234344,0.08,-0.80,9.96,-0.03,-0.01,-0.01,30.93
50900186,1859,1,192668,234273,0.07,-0.83,9.94,-0.03,-0.01,-0.01,30.93
50940190,1854,1,191907,229967,0.07,-0.81,9.94,-0.03,-0.01,-0.01,30.93
50980187,1850,1,190731,228341,0.08,-0.83,9.98,-0.03,-0.01,-0.01,30.93
51020190,1849,1,190546,228220,0.06,-0.82,9.96,-0.03,-0.01,-0.01,30.93
51060190,1847,1,190458,228460,0.06,-0.81,9.96,-0.03,-0.01,-0.00,30.93
51100876,1841,1,190548,228523,0.07,-0.82,9.97,-0.03,-0.01,-0.01,30.65
51141190,1834,1,190705,229340,0.07,-0.82,9.95,-0.03,-0.01,-0.01,30.65
51181190,1835,1,190931,230084,0.07,-0.81,9.93,-0.04,-0.01,-0.01,30.65
51221190,1839,1,191127,230213,0.08,-0.81,9.96,-0.03,-0.01,-0.01,30.65
51261190,1835,1,191179,230562,0.06,-0.80,9.93,-0.03,-0.01,-0.00,30.65
51301186,1823,1,191302,230751,0.06,-0.82,9.95,-0.03,-0.01,-0.00,30.65
51339189,1838,1,191283,231162,0.08,-0.82,9.96,-0.03,-0.01,-0.01,30.65
51379187,1842,1,191476,231684,0.07,-0.79,9.96,-0.03,-0.01,-0.01,30.65
51419189,1841,1,191715,232005,0.08,-0.81,9.96,-0.03,-0.01,-0.00,30.65
51459186,1841,1,191774,232538,0.07,-0.80,9.94,-0.03,-0.01,-0.01,30.65
51499190,1837,1,191888,232939,0.08,-0.81,9.94,-0.03,-0.01,-0.01,30.65
51539186,1818,1,191780,230365,0.07,-0.81,9.96,-0.03,-0.01,-0.00,30.65
51579189,1831,1,190553,227645,0.07,-0.80,9.98,-0.03,-0.01,-0.01,30.65
51619187,1827,1,190041,227297,0.08,-0.81,9.92,-0.03,-0.01,-0.00,30.65
51659190,1827,1,190021,227303,0.08,-0.83,9.95,-0.03,-0.01,-0.01,30.65
51699186,1831,1,190079,227243,0.07,-0.81,9.95,-0.03,-0.01,-0.00,30.65
51739189,1824,1,190040,227748,0.06,-0.80,9.96,-0.03,-0.01,-0.00,30.65
51779186,1839,1,190411,228740,0.09,-0.81,9.95,-0.03,-0.01,-0.01,30.65
51819189,1830,1,190673,229053,0.06,-0.79,9.91,-0.03,-0.01,-0.01,30.65
51859187,1823,1,190822,229231,0.07,-0.80,9.99,-0.03,-0.01,-0.01,30.65
51899189,1834,1,190860,229527,0.06,-0.83,9.96,-0.03,-0.01,-0.00,30.65
51939187,1825,1,190909,229983,0.09,-0.82,9.92,-0.03,-0.01,-0.00,30.65
51979189,1833,1,191167,230364,0.08,-0.81,9.96,-0.03,-0.01,-0.01,30.65
52019187,1836,1,191224,230773,0.07,-0.80,10.01,-0.03,-0.01,-0.01,30.65
52059235,1826,1,191301,231335,0.07,-0.81,9.97,-0.03,-0.01,-0.01,30.65
52099189,1840,1,191528,231781,0.08,-0.80,9.94,-0.03,-0.01,-0.01,30.65
52139876,1811,1,191624,232159,0.08,-0.83,9.95,-0.03,-0.01,-0.01,30.65
52180186,1819,1,191418,229216,0.07,-0.80,9.96,-0.03,-0.01,-0.01,30.65
52220190,1826,1,190207,226845,0.08,-0.82,9.95,-0.03,-0.01,-0.01,30.65
52260219,1823,1,189780,226626,0.07,-0.83,9.94,-0.03,-0.01,-0.00,30.65
52300190,1829,1,189727,226575,0.06,-0.83,9.94,-0.03,-0.01,-0.01,30.65
52340189,1835,1,189672,226652,0.08,-0.79,9.98,-0.03,-0.01,-0.00,30.65
52380190,1837,1,189739,227014,0.08,-0.81,9.92,-0.03,-0.01,-0.01,30.65
52420186,1829,1,190046,227821,0.06,-0.81,9.95,-0.03,-0.01,-0.01,30.65
52460206,1823,1,190295,228155,0.08,-0.84,9.94,-0.03,-0.01,-0.01,30.65
52500187,1839,1,190331,228344,0.06,-0.82,9.96,-0.03,-0.01,-0.00,30.65
52540190,1840,1,190352,228700,0.05,-0.83,9.95,-0.03,-0.01,-0.01,30.65
52580189,1839,1,190487,229068,0.06,-0.81,9.95,-0.03,-0.01,-0.00,30.65
52620189,1843,1,190617,229503,0.07,-0.81,9.94,-0.03,-0.01,-0.01,30.65
52660190,1837,1,190779,229837,0.08,-0.80,9.98,-0.03,-0.01,-0.00,30.65
52700190,1843,1,190953,230304,0.06,-0.82,9.92,-0.03,-0.01,-0.00,30.65
52740187,1840,1,191162,231125,0.06,-0.82,9.97,-0.03,-0.01,-0.00,30.65
52780190,1840,1,191472,231866,0.06,-0.81,9.95,-0.03,-0.01,-0.01,30.65
52820189,1831,1,191605,231290,0.06,-0.82,9.97,-0.03,-0.01,-0.00,30.65
52860189,1835,1,190519,227800,0.07,-0.83,9.95,-0.03,-0.01,-0.01,30.65
52900190,1837,1,189836,226771,0.09,-0.83,9.97,-0.03,-0.01,-0.01,30.65
52940190,1834,1,189628,226764,0.06,-0.82,9.94,-0.03,-0.01,-0.00,30.65
52980187,1840,1,189690,226578,0.07,-0.81,9.95,-0.03,-0.01,-0.01,30.65
53020190,1841,1,189625,227036,0.06,-0.80,9.97,-0.03,-0.01,-0.01,30.65
53060186,1839,1,189947,228008,0.06,-0.80,9.95,-0.04,-0.01,-0.01,30.65
53100190,1844,1,190318,228682,0.08,-0.83,9.96,-0.03,-0.01,-0.00,30.65
53140873,1845,1,190417,229024,0.08,-0.82,9.96,-0.03,-0.01,-0.01,30.77
53179189,1869,1,190517,229449,0.07,-0.82,9.94,-0.03,-0.01,-0.01,30.77
53219189,1881,1,190778,230160,0.07,-0.81,9.96,-0.03,-0.01,-0.00,30.77
53259189,1899,1,190983,231029,0.06,-0.80,9.96,-0.03,-0.01,-0.00,30.77
53299186,1913,1,191255,231657,0.07,-0.81,9.95,-0.03,-0.01,-0.01,30.77
53339189,1932,1,191521,232162,0.07,-0.84,9.96,-0.03,-0.01,-0.00,30.77
53379187,1942,1,191662,232803,0.09,-0.82,9.96,-0.03,-0.01,-0.00,30.77
53419190,1963,1,191837,233282,0.07,-0.83,9.93,-0.03,-0.01,-0.00,30.77
53459187,1984,1,191930,233512,0.06,-0.83,9.95,-0.03,-0.01,-0.01,30.77
53499189,2000,1,191988,232207,0.10,-0.81,9.96,-0.03,-0.01,-0.01,30.77
53539187,2025,1,190751,228348,0.07,-0.81,9.95,-0.03,-0.01,-0.01,30.77
53579190,2032,1,190022,227397,0.07,-0.83,9.96,-0.03,-0.01,-0.01,30.77
53619190,2061,1,189904,227258,0.07,-0.83,9.96,-0.03,-0.01,-0.00,30.77
53659189,2070,1,189880,227239,0.06,-0.82,9.96,-0.03,-0.01,-0.01,30.77
53699203,2076,1,189847,227637,0.08,-0.82,9.94,-0.03,-0.01,-0.01,30.77
53739189,2066,1,190176,228637,0.05,-0.82,9.95,-0.03,-0.01,-0.01,30.77
53779187,2076,1,190473,229071,0.06,-0.82,9.97,-0.03,-0.01,-0.01,30.77
53819189,2065,1,190575,229036,0.07,-0.83,9.97,-0.04,-0.01,-0.01,30.77
53859190,2067,1,190496,229610,0.09,-0.82,9.95,-0.03,-0.01,-0.00,30.77
53899214,2064,1,190813,230058,0.08,-0.80,9.97,-0.03,-0.01,-0.01,30.77
53939186,2041,1,190980,230737,0.06,-0.81,9.94,-0.03,-0.01,-0.01,30.77
53979189,2015,1,191158,230965,0.08,-0.80,9.95,-0.03,-0.01,-0.01,30.77
54019187,1987,1,191211,231339,0.10,-0.81,9.98,-0.03,-0.01,-0.00,30.77
54059190,1963,1,191345,231707,0.07,-0.83,9.96,-0.03,-0.01,-0.00,30.77
54099206,1938,1,191571,231947,0.09,-0.82,9.98,-0.03,-0.01,-0.01,30.77
54139190,1912,1,191571,231592,0.10,-0.81,9.98,-0.03,-0.01,-0.01,30.77
54179873,1887,1,190864,227875,0.07,-0.84,9.97,-0.03,-0.01,-0.01,31.11
54220189,1877,1,189959,226969,0.06,-0.81,9.95,-0.03,-0.01,-0.01,31.11
54260187,1859,1,189869,227101,0.06,-0.85,9.97,-0.03,-0.01,-0.01,31.11
54300190,1845,1,189946,227040,0.06,-0.82,9.97,-0.03,-0.01,-0.01,31.11
54340190,1839,1,189849,227405,0.06,-0.81,9.96,-0.03,-0.01,-0.01,31.11
54380189,1830,1,190179,228426,0.08,-0.81,9.96,-0.03,-0.01,-0.01,31.11
54420187,1818,1,190490,229123,0.07,-0.83,9.96,-0.03,-0.01,-0.00,31.11
54460190,1804,1,190621,229053,0.08,-0.85,9.93,-0.03,-0.01,-0.00,31.11
54500186,1790,1,190590,229332,0.07,-0.82,9.96,-0.03,-0.01,-0.01,31.11
54540189,1791,1,190690,229948,0.07,-0.81,9.96,-0.03,-0.01,-0.00,31.11
54580187,1789,1,190965,230335,0.08,-0.82,9.96,-0.03,-0.01,-0.01,31.11
54620190,1776,1,191024,231119,0.05,-0.82,9.98,-0.03,-0.01,-0.01,31.11
54660187,1777,1,191346,231697,0.07,-0.81,9.96,-0.03,-0.01,-0.01,31.11
54700189,1776,1,191517,232388,0.06,-0.81,9.97,-0.03,-0.01,-0.00,31.11
54740186,1773,1,191704,232909,0.06,-0.81,9.95,-0.03,-0.01,-0.00,31.11
54780190,1758,1,191916,232375,0.06,-0.82,9.97,-0.03,-0.01,-0.01,31.11
54820187,1761,1,190961,228490,0.06,-0.83,9.96,-0.03,-0.01,-0.00,31.11
54860190,1759,1,190034,227025,0.07,-0.82,9.95,-0.03,-0.01,-0.01,31.11
54900190,1749,1,189711,227007,0.05,-0.82,9.94,-0.03,-0.01,-0.01,31.11
54940189,1747,1,189748,227150,0.10,-0.81,9.95,-0.03,-0.01,-0.01,31.11
54980187,1754,1,189805,227506,0.08,-0.82,9.95,-0.03,-0.01,-0.00,31.11
55020190,1747,1,190196,228764,0.07,-0.82,9.97,-0.03,-0.01,-0.01,31.11
55060187,1753,1,190619,230028,0.08,-0.82,9.98,-0.03,-0.01,-0.00,31.11
55100190,1761,1,190784,230495,0.09,-0.83,9.93,-0.03,-0.01,-0.00,31.11
55140187,1753,1,190990,230775,0.07,-0.81,9.99,-0.03,-0.01,-0.01,31.11
55180876,1757,1,191091,231640,0.06,-0.82,9.96,-0.03,-0.01,-0.00,30.97
55219187,1765,1,191476,232277,0.09,-0.80,9.94,-0.03,-0.01,-0.00,30.97
55259190,1766,1,191642,232726,0.09,-0.84,9.96,-0.03,-0.01,-0.00,30.97
55299187,1776,1,191674,233023,0.07,-0.80,9.94,-0.03,-0.01,-0.00,30.97
55339190,1777,1,191852,233465,0.06,-0.81,9.96,-0.03,-0.01,-0.01,30.97
55379189,1787,1,191972,233771,0.07,-0.81,9.95,-0.03,-0.01,-0.00,30.97
55419189,1797,1,192185,233950,0.08,-0.82,9.93,-0.03,-0.01,-0.01,30.97
55459187,1801,1,192077,232337,0.09,-0.82,9.96,-0.03,-0.01,-0.01,30.97
55499190,1799,1,190645,228363,0.07,-0.80,9.96,-0.03,-0.01,-0.01,30.97
55539186,1797,1,189949,227656,0.06,-0.81,9.96,-0.03,-0.01,-0.01,30.97
55579189,1803,1,189910,227526,0.08,-0.81,9.95,-0.03,-0.01,-0.01,30.97
55619187,1803,1,189828,227422,0.08,-0.83,9.95,-0.03,-0.01,-0.01,30.97
55659190,1815,1,189831,227744,0.06,-0.81,9.97,-0.03,-0.01,-0.00,30.97
55699186,1814,1,190145,228804,0.08,-0.82,9.94,-0.03,-0.01,-0.00,30.97
55739199,1808,1,190336,229496,0.07,-0.83,9.96,-0.03,-0.01,-0.01,30.97
55779190,1823,1,190556,229364,0.09,-0.80,9.97,-0.03,-0.01,-0.01,30.97
55819190,1820,1,190457,229631,0.06,-0.81,9.97,-0.03,-0.01,-0.00,30.97
55859186,1821,1,190519,229955,0.08,-0.81,9.95,-0.03,-0.01,-0.01,30.97
55899190,1825,1,190626,230179,0.08,-0.82,9.95,-0.03,-0.01,-0.01,30.97
55939187,1822,1,190863,230600,0.07,-0.82,9.95,-0.03,-0.01,-0.00,30.97
55979189,1824,1,191010,231474,0.08,-0.81,9.95,-0.03,-0.01,-0.01,30.97
56019187,1826,1,191239,232060,0.07,-0.80,9.98,-0.03,-0.01,-0.00,30.97
56059189,1820,1,191542,232590,0.08,-0.84,9.95,-0.03,-0.01,-0.01,30.97
56099186,1821,1,191723,232905,0.07,-0.82,9.93,-0.03,-0.01,-0.01,30.97
56139190,1819,1,191576,230355,0.06,-0.81,9.96,-0.03,-0.01,-0.01,30.97
56179187,1824,1,190140,227401,0.06,-0.81,9.97,-0.03,-0.01,-0.00,30.97
56219883,1828,1,189641,227011,0.06,-0.80,9.94,-0.03,-0.01,-0.01,30.97
56258186,1847,1,189620,227183,0.08,-0.84,9.96,-0.03,-0.01,-0.01,30.97
56298189,1843,1,189610,227220,0.03,-0.82,9.96,-0.03,-0.01,-0.01,30.97
56338189,1845,1,189744,227870,0.07,-0.80,9.96,-0.03,-0.01,-0.01,30.97
56378190,1842,1,190238,228741,0.06,-0.82,9.95,-0.03,-0.01,-0.01,30.97
56418187,1840,1,190364,229034,0.06,-0.80,9.97,-0.03,-0.01,-0.01,30.97
56458190,1849,1,190356,229246,0.06,-0.82,9.96,-0.03,-0.01,-0.01,30.97
56498189,1849,1,190615,229525,0.06,-0.82,9.93,-0.03,-0.01,-0.01,30.97
56538189,1852,1,190668,229965,0.06,-0.82,9.93,-0.03,-0.01,-0.01,30.97
56578190,1841,1,190910,230251,0.08,-0.83,9.94,-0.04,-0.01,-0.01,30.97
56618190,1854,1,190937,230713,0.08,-0.81,9.96,-0.03,-0.01,-0.01,30.97
56658186,1844,1,191290,231208,0.07,-0.83,9.94,-0.03,-0.01,-0.00,30.97
56698190,1849,1,191412,231766,0.09,-0.79,9.94,-0.03,-0.01,-0.01,30.97
56738187,1843,1,191595,232348,0.08,-0.83,9.94,-0.03,-0.01,-0.01,30.97
56778189,1837,1,191802,232086,0.06,-0.81,9.96,-0.03,-0.01,-0.01,30.97
56818189,1839,1,190921,228332,0.07,-0.81,9.96,-0.03,-0.01,-0.01,30.97
56858190,1845,1,189973,227290,0.07,-0.83,9.97,-0.03,-0.01,-0.01,30.97
56898189,1848,1,189881,227168,0.07,-0.81,9.93,-0.03,-0.01,-0.01,30.97
56938189,1845,1,189878,227170,0.09,-0.83,9.95,-0.03,-0.01,-0.00,30.97
56978186,1846,1,189816,227474,0.07,-0.82,9.96,-0.03,-0.01,-0.01,30.97
57018190,1840,1,190097,228375,0.07,-0.81,9.96,-0.03,-0.01,-0.00,30.97
57058186,1846,1,190338,228959,0.08,-0.83,9.96,-0.03,-0.01,-0.01,30.97
57098190,1847,1,190513,228937,0.07,-0.82,9.96,-0.03,-0.01,-0.01,30.97
57138189,1842,1,190421,229156,0.08,-0.82,9.94,-0.03,-0.01,-0.01,30.97
57179230,1840,1,190469,229719,0.06,-0.84,9.96,-0.03,-0.01,-0.01,30.97
57219876,1834,1,190794,230073,0.06,-0.81,9.94,-0.03,-0.01,-0.01,30.79
57258190,1840,1,190907,230470,0.09,-0.82,9.96,-0.03,-0.01,-0.01,30.79
57298187,1835,1,191063,230953,0.08,-0.81,9.95,-0.03,-0.01,-0.01,30.79
57338190,1840,1,191193,231403,0.08,-0.82,9.96,-0.03,-0.01,-0.00,30.79
57378219,1834,1,191317,232017,0.07,-0.82,9.95,-0.03,-0.01,-0.01,30.79
57418189,1840,1,191435,232093,0.06,-0.82,9.97,-0.03,-0.01,-0.01,30.79
57458189,1841,1,190911,228513,0.07,-0.79,9.98,-0.03,-0.01,-0.01,30.79
57498190,1846,1,189877,227067,0.09,-0.83,9.95,-0.03,-0.01,-0.01,30.79
57538186,1846,1,189609,227011,0.08,-0.82,9.92,-0.03,-0.01,-0.01,30.79
57578190,1852,1,189659,227286,0.07,-0.80,9.95,-0.03,-0.01,-0.01,30.79
57618186,1843,1,189667,227590,0.07,-0.80,9.99,-0.03,-0.01,-0.00,30.79
57658189,1839,1,189959,228568,0.07,-0.84,9.95,-0.03,-0.01,-0.01,30.79
57698189,1847,1,190394,229417,0.07,-0.82,9.93,-0.03,-0.01,-0.01,30.79
57738189,1847,1,190568,229426,0.08,-0.82,9.96,-0.03,-0.01,-0.00,30.79
57778186,1840,1,190481,229320,0.07,-0.83,9.96,-0.03,-0.01,-0.01,30.79
57818190,1850,1,190430,229663,0.08,-0.80,9.94,-0.03,-0.01,-0.01,30.79
57858186,1847,1,190673,230113,0.09,-0.82,9.96,-0.03,-0.01,-0.01,30.79
57898190,1851,1,190752,230587,0.07,-0.81,9.94,-0.03,-0.01,-0.00,30.79
57938186,1845,1,190933,231015,0.07,-0.81,9.96,-0.03,-0.01,-0.01,30.79
57978190,1851,1,191108,231509,0.07,-0.82,9.95,-0.03,-0.01,-0.01,30.79
58018187,1840,1,191280,232050,0.08,-0.82,9.95,-0.03,-0.01,-0.00,30.79
58058190,1847,1,191405,232591,0.10,-0.82,9.95,-0.03,-0.01,-0.00,30.79
58098186,1843,1,191356,230382,0.06,-0.80,9.97,-0.03,-0.01,-0.00,30.79
58138189,1843,1,190039,227356,0.07,-0.82,9.97,-0.03,-0.01,-0.01,30.79
58178189,1840,1,189618,226811,0.08,-0.82,9.99,-0.03,-0.01,-0.01,30.79
58218190,1843,1,189468,226932,0.07,-0.82,9.97,-0.03,-0.01,-0.01,30.79
58258876,1823,1,189414,226995,0.08,-0.82,9.95,-0.03,-0.01,-0.01,30.79
58299189,1828,1,189550,227139,0.07,-0.82,9.98,-0.03,-0.01,-0.01,30.79
58339190,1825,1,189754,227817,0.07,-0.83,9.95,-0.03,-0.01,-0.00,30.79
58379190,1839,1,189940,227973,0.08,-0.81,9.96,-0.03,-0.01,-0.01,30.79
58419187,1823,1,189962,228135,0.06,-0.82,9.96,-0.03,-0.01,-0.01,30.79
58459189,1840,1,190019,228665,0.08,-0.82,9.95,-0.03,-0.01,-0.01,30.79
58499187,1835,1,190099,228920,0.06,-0.83,9.97,-0.03,-0.01,-0.01,30.79
58539189,1840,1,190365,229334,0.06,-0.80,9.98,-0.03,-0.01,-0.01,30.79
58579186,1836,1,190400,229723,0.07,-0.82,9.96,-0.03,-0.01,-0.01,30.79
58619189,1840,1,190566,229764,0.07,-0.82,9.95,-0.03,-0.01,-0.01,30.79
58659189,1847,1,190545,230170,0.08,-0.82,9.97,-0.03,-0.01,-0.00,30.79
58699190,1847,1,190765,230934,0.07,-0.82,9.97,-0.03,-0.01,-0.00,30.79
58739186,1847,1,190960,231306,0.07,-0.82,9.95,-0.03,-0.01,-0.01,30.79
58779189,1840,1,190868,228702,0.05,-0.81,9.94,-0.03,-0.01,-0.01,30.79
58819193,1841,1,189614,226742,0.07,-0.82,9.98,-0.03,-0.01,-0.01,30.79
58859189,1836,1,189395,226362,0.07,-0.82,9.95,-0.03,-0.01,-0.01,30.79
58899189,1833,1,189366,226342,0.07,-0.81,9.96,-0.03,-0.01,-0.01,30.79
58939189,1842,1,189357,226485,0.07,-0.81,9.95,-0.03,-0.01,-0.01,30.79
58979190,1843,1,189371,226952,0.09,-0.83,9.96,-0.03,-0.01,-0.00,30.79
59019216,1849,1,189710,227701,0.06,-0.82,9.95,-0.03,-0.01,-0.01,30.79
59059190,1842,1,190048,228343,0.06,-0.81,9.93,-0.03,-0.01,-0.01,30.79
59099190,1841,1,190140,228625,0.08,-0.81,9.97,-0.03,-0.01,-0.01,30.79
59139186,1840,1,190236,229162,0.06,-0.82,9.95,-0.03,-0.01,-0.01,30.79
59179189,1843,1,190514,229815,0.07,-0.83,9.95,-0.03,-0.01,-0.00,30.79
59219212,1831,1,190852,230670,0.07,-0.82,9.95,-0.03,-0.01,-0.01,30.79
59259876,1827,1,191068,231394,0.08,-0.83,9.98,-0.03,-0.01,-0.01,30.67
59298186,1838,1,191390,232016,0.08,-0.82,9.94,-0.03,-0.01,-0.00,30.67
59338189,1832,1,191625,232599,0.08,-0.82,9.96,-0.03,-0.01,-0.01,30.67
59378187,1836,1,191715,233134,0.09,-0.83,9.98,-0.03,-0.01,-0.01,30.67
59418189,1840,1,191781,233162,0.07,-0.80,9.95,-0.03,-0.01,-0.01,30.67
59458186,1846,1,191472,230253,0.07,-0.82,9.97,-0.03,-0.01,-0.00,30.67
59498190,1840,1,190145,227825,0.08,-0.84,9.98,-0.03,-0.01,-0.00,30.67
59538186,1839,1,189912,227575,0.06,-0.83,9.95,-0.03,-0.01,-0.01,30.67
59578190,1844,1,189906,228042,0.08,-0.81,9.95,-0.03,-0.01,-0.00,30.67
59618186,1840,1,190046,228338,0.09,-0.83,9.96,-0.03,-0.01,-0.00,30.67
59658190,1843,1,190199,229101,0.07,-0.82,9.96,-0.03,-0.01,-0.01,30.67
59698190,1845,1,190710,230168,0.06,-0.81,9.96,-0.03,-0.01,-0.00,30.67
59738189,1837,1,190954,230416,0.07,-0.81,9.95,-0.03,-0.01,-0.01,30.67
59778189,1840,1,191132,230892,0.08,-0.82,9.95,-0.03,-0.01,-0.00,30.67
59818190,1840,1,191282,231331,0.09,-0.79,9.95,-0.03,-0.01,-0.01,30.67
59858186,1843,1,191487,231827,0.07,-0.83,9.95,-0.03,-0.01,-0.01,30.67
59898190,1840,1,191586,232464,0.07,-0.82,9.96,-0.03,-0.01,-0.01,30.67
59938189,1845,1,191923,232840,0.06,-0.85,9.97,-0.03,-0.01,-0.01,30.67
59978190,1835,1,192092,233565,0.07,-0.81,9.93,-0.04,-0.01,-0.01,30.67
60018187,1839,1,192346,234313,0.08,-0.83,9.98,-0.03,-0.01,-0.01,30.67
60058189,1842,1,192548,234834,0.07,-0.79,9.96,-0.03,-0.01,-0.00,30.67
60098216,1840,1,192540,233459,0.07,-0.81,9.96,-0.03,-0.01,-0.01,30.67
60138190,1836,1,191228,229309,0.09,-0.81,9.96,-0.03,-0.01,-0.01,30.67
60178187,1840,1,190602,228594,0.08,-0.81,9.95,-0.03,-0.01,-0.00,30.67
60218189,1851,1,190491,228988,0.09,-0.84,9.96,-0.03,-0.01,-0.01,30.67
60259187,1840,1,190704,229654,0.08,-0.83,9.95,-0.03,-0.01,-0.01,30.67
60299876,1838,1,191060,230748,0.07,-0.82,9.94,-0.03,-0.01,-0.00,30.87
60338187,1843,1,191638,232649,0.08,-0.81,9.93,-0.03,-0.01,-0.00,30.87
60378189,1850,1,192147,233450,0.08,-0.81,9.97,-0.03,-0.01,-0.01,30.87
60418187,1840,1,192159,233780,0.09,-0.82,9.97,-0.03,-0.01,-0.01,30.87
60458190,1840,1,192312,234168,0.07,-0.82,9.96,-0.03,-0.01,-0.01,30.87
60498186,1849,1,192448,234717,0.08,-0.83,9.96,-0.03,-0.01,-0.01,30.87
60538190,1839,1,192587,235144,0.07,-0.80,9.95,-0.03,-0.01,-0.00,30.87
60578187,1830,1,192801,235644,0.07,-0.82,9.95,-0.03,-0.01,-0.00,30.87
60618190,1839,1,193018,236243,0.11,-0.84,9.94,-0.03,-0.01,-0.00,30.87
60658201,1838,1,193233,236671,0.06,-0.82,9.96,-0.03,-0.01,-0.01,30.87
60698189,1835,1,193353,237149,0.08,-0.84,9.96,-0.03,-0.01,-0.00,30.87
60738186,1846,1,193406,236229,0.07,-0.82,9.95,-0.03,-0.01,-0.00,30.87
60778189,1845,1,192133,231410,0.07,-0.83,9.99,-0.03,-0.01,-0.01,30.87
60818189,1843,1,191073,230168,0.04,-0.81,9.96,-0.03,-0.01,-0.00,30.87
60858194,1831,1,191028,230253,0.08,-0.84,9.96,-0.03,-0.01,-0.00,30.87
60898186,1834,1,191102,230537,0.08,-0.85,9.95,-0.03,-0.01,-0.00,30.87
60938190,1846,1,191108,231129,0.05,-0.82,9.97,-0.03,-0.01,-0.01,30.87
60978186,1842,1,191440,232641,0.06,-0.80,9.96,-0.03,-0.01,-0.01,30.87
61018189,1846,1,192043,233813,0.08,-0.84,9.96,-0.03,-0.01,-0.01,30.87
61058187,1839,1,192407,234972,0.08,-0.84,9.95,-0.04,-0.01,-0.01,30.87
61098189,1838,1,192808,236102,0.08,-0.80,9.95,-0.04,-0.01,-0.01,30.87
61138186,1840,1,193012,236333,0.09,-0.80,9.95,-0.03,-0.01,-0.00,30.87
61178190,1840,1,193175,236570,0.09,-0.83,9.96,-0.03,-0.01,-0.00,30.87
61218187,1834,1,193260,236930,0.08,-0.81,9.95,-0.03,-0.01,-0.01,30.87
61258190,1839,1,193317,237270,0.10,-0.80,9.96,-0.03,-0.01,-0.01,30.87
61298186,1841,1,193510,237456,0.07,-0.83,9.99,-0.03,-0.01,-0.01,30.87
61338876,1837,1,193646,237975,0.08,-0.82,9.96,-0.03,-0.01,-0.01,30.99
61379186,1835,1,193802,237992,0.07,-0.81,9.96,-0.03,-0.01,-0.00,30.99
61419190,1839,1,193367,234349,0.08,-0.84,9.95,-0.03,-0.01,-0.01,30.99
61459186,1840,1,191704,231035,0.08,-0.81,9.97,-0.03,-0.01,-0.01,30.99
61499190,1840,1,191122,230383,0.08,-0.81,9.97,-0.03,-0.01,-0.01,30.99
61539187,1840,1,190971,230186,0.07,-0.82,9.95,-0.03,-0.01,-0.01,30.99
61579189,1837,1,190953,230640,0.08,-0.82,9.95,-0.03,-0.01,-0.00,30.99
61619187,1850,1,191110,231608,0.07,-0.81,9.95,-0.03,-0.01,-0.00,30.99
61659190,1845,1,191504,232708,0.08,-0.80,9.96,-0.03,-0.01,-0.00,30.99
