timestamp_us,ecg,leads,ir,red,accX,accY,accZ,gyroX,gyroY,gyroZ,temp
1922501,2079,1,207627,254770,0.00,0.00,0.00,0.00,0.00,0.00,0.00
1952971,1308,1,207013,254118,0.64,-0.79,11.50,-0.02,-0.02,-0.09,27.15
1993206,790,1,204963,249924,0.61,0.43,9.17,-0.05,-0.09,-0.03,27.15
2033176,910,1,204096,249748,0.55,-1.49,10.75,-0.10,-0.06,0.03,27.15
2073204,1078,1,204687,248528,0.97,0.25,8.49,-0.08,0.03,-0.07,27.15
2113166,1170,1,205562,254195,1.51,0.44,11.99,0.18,0.22,-0.09,27.15
2153149,1137,1,208248,255224,1.29,0.61,9.27,-0.03,0.08,-0.23,27.15
2193171,1173,1,207920,255784,0.76,0.61,12.00,-0.02,-0.06,-0.04,27.15
2233180,1221,1,206584,252357,0.57,-1.09,9.78,-0.07,0.02,-0.01,27.15
2273176,1291,1,204785,248240,0.97,-0.48,10.84,-0.08,-0.12,-0.00,27.15
2313199,1321,1,204292,247556,0.76,-1.25,9.84,-0.05,0.09,-0.06,27.15
2353177,1453,1,205120,249366,1.03,0.35,9.96,-0.03,0.04,-0.14,27.15
2393171,1424,1,206496,251299,0.78,-0.99,9.38,-0.07,0.09,-0.05,27.15
2433177,1486,1,206663,251631,0.95,-0.52,10.37,-0.01,0.00,-0.01,27.15
2473181,1478,1,206179,251712,0.91,-0.70,11.04,-0.02,-0.02,0.04,27.15
2513177,1504,1,205315,250584,0.36,0.26,9.32,-0.04,-0.02,0.04,27.15
2553171,1441,1,205000,249856,1.01,-0.80,10.57,-0.05,0.04,-0.01,27.15
2593176,1578,1,204276,248020,1.25,0.05,8.66,-0.12,-0.09,-0.04,27.15
2633179,1669,1,204861,250612,1.04,-0.83,10.84,-0.05,0.17,-0.03,27.15
2673180,1710,1,205352,250475,1.05,0.04,8.57,-0.08,-0.06,-0.02,27.15
2713180,1721,1,206870,254623,0.79,-0.85,11.62,-0.01,0.16,-0.01,27.15
2753181,1890,1,206616,252953,0.48,0.23,8.98,-0.07,-0.02,0.01,27.15
2793171,1904,1,206600,254177,0.53,-1.13,11.45,0.00,0.16,0.01,27.15
2833148,1939,1,205696,253375,1.27,-0.36,10.00,-0.08,-0.11,-0.02,27.15
2873200,1861,1,206241,253417,0.47,-0.97,10.59,-0.05,0.07,-0.01,27.15
2913177,1745,1,204479,247668,1.07,0.55,8.98,-0.08,-0.12,-0.02,27.15
2953179,1719,1,204633,248841,1.08,-1.27,9.55,-0.08,0.11,-0.03,27.15
2993868,1868,1,206530,253539,0.80,-0.33,10.38,0.03,0.16,-0.07,26.93
3032171,1878,1,208154,253814,1.16,0.01,10.50,0.04,-0.01,-0.11,26.93
3072189,1897,1,207960,254872,0.48,-0.72,11.30,-0.04,0.00,-0.06,26.93
3112180,1872,1,205984,249529,0.36,-1.08,9.12,-0.09,-0.13,0.06,26.93
3152176,1645,1,204559,249079,1.03,-0.59,9.95,-0.04,-0.06,-0.00,26.93
3192199,1895,1,205509,251030,0.45,-0.85,9.30,-0.04,0.13,-0.01,26.93
3232177,1831,1,207235,255248,1.03,-0.68,11.07,-0.01,0.09,-0.03,26.93
3272181,1837,1,208539,255529,0.69,-0.13,10.61,-0.02,0.03,-0.06,26.93
3312181,1831,1,207617,254328,0.79,-0.14,10.72,-0.01,-0.07,0.01,26.93
3352180,1835,1,206820,253716,0.58,-0.79,10.14,-0.02,-0.02,-0.00,26.93
3392201,1782,1,206768,252500,0.77,-0.37,9.18,-0.06,-0.04,-0.01,26.93
3432201,1869,1,206842,252924,0.64,-0.62,9.84,-0.04,0.04,-0.01,26.93
3472181,2005,1,206939,252082,0.73,-0.16,9.05,-0.08,-0.05,-0.00,26.93
3512201,2139,1,206516,251885,1.20,-0.58,10.01,-0.04,-0.02,-0.01,26.93
3552201,2230,1,206543,250993,0.67,-0.35,9.13,-0.03,-0.00,-0.01,26.93
3592202,2234,1,206441,250128,0.59,-0.38,9.59,-0.03,0.03,-0.02,26.93
3632182,2235,1,205850,249019,0.85,-0.30,9.34,-0.06,-0.02,-0.02,26.93
3672201,2222,1,205146,247943,0.90,-0.57,9.39,-0.06,-0.03,-0.00,26.93
3712202,2162,1,204844,248178,0.79,-1.14,8.87,-0.02,0.03,-0.08,26.93
3752181,2022,1,205625,250014,0.94,-0.32,9.52,-0.01,0.09,-0.01,26.93
3792181,2001,1,207027,252903,0.39,-0.40,10.31,0.01,0.12,0.01,26.93
3832150,2042,1,207656,253259,0.74,-0.18,10.83,-0.03,0.01,0.01,26.93
3872171,2058,1,206551,251087,0.69,-0.34,10.56,-0.05,-0.07,0.05,26.93
3912180,2000,1,204859,249711,0.73,-0.68,9.98,-0.05,-0.07,0.01,26.93
3952177,1941,1,205726,251410,0.58,-0.22,10.71,-0.05,0.08,-0.01,26.93
3992181,1828,1,206413,253729,0.45,-0.56,10.22,-0.04,0.01,-0.01,26.93
4032868,1833,1,207896,254791,0.56,-0.22,10.32,-0.05,0.03,-0.00,26.59
4071182,1941,1,208090,255496,0.63,-0.85,10.33,-0.03,0.02,0.01,26.59
4111171,2032,1,208530,255262,0.43,-0.44,10.23,-0.03,0.02,0.01,26.59
4152171,2068,1,207446,253109,1.01,-0.27,10.31,-0.07,-0.11,-0.00,26.59
4192202,2034,1,205930,250486,0.79,-0.59,8.30,-0.11,-0.14,-0.01,26.59
4232203,1947,1,205945,249516,0.80,-0.94,9.13,-0.05,0.05,-0.01,26.59
4272182,1961,1,206226,252016,0.95,-0.60,8.54,-0.02,0.04,-0.05,26.59
4312184,1994,1,208446,253542,1.48,-0.58,10.87,0.05,0.06,-0.11,26.59
4352171,1983,1,207799,253300,0.23,-1.02,9.46,-0.07,-0.08,0.06,26.59
4392184,2000,1,206319,250649,0.45,-0.60,9.04,-0.06,-0.02,0.03,26.59
4432177,1979,1,205029,250670,0.80,-0.17,10.18,-0.02,0.02,0.03,26.59
4472171,1945,1,204874,250840,1.00,-0.69,9.49,-0.01,0.01,-0.00,26.59
4512177,1754,1,205689,254437,0.80,-0.85,10.15,-0.07,0.06,-0.01,26.59
4550188,1808,1,206759,252975,0.80,-0.64,9.04,0.01,0.00,-0.03,26.59
4590171,1847,1,206801,255835,0.41,-0.63,10.85,-0.03,0.04,0.03,26.59
4630171,1883,1,207340,254685,0.78,-0.31,10.78,0.01,-0.00,-0.07,26.59
4670181,1865,1,206625,255750,0.44,-0.41,11.03,-0.04,-0.03,0.00,26.59
4710181,1877,1,206935,254208,0.59,-0.94,9.99,-0.07,0.01,-0.01,26.59
4750180,1863,1,206422,254801,0.59,-0.62,9.80,-0.07,-0.04,-0.01,26.59
4790205,1853,1,207789,254970,0.42,-0.67,9.97,-0.02,0.06,0.00,26.59
4830171,1837,1,206820,254689,1.10,-0.14,9.91,-0.07,-0.08,-0.01,26.59
4870205,1809,1,208189,255669,-0.21,-1.15,9.75,-0.06,0.13,-0.00,26.59
4910202,1803,1,206188,250102,0.78,0.28,8.71,-0.08,-0.17,0.00,26.59
4950171,1730,1,204670,248282,1.07,-1.00,10.67,-0.01,0.11,-0.04,26.59
4990180,1771,1,204386,248346,0.31,-0.56,7.77,-0.04,0.02,0.01,26.59
5030171,1725,1,205760,250368,0.80,-1.12,10.33,0.02,0.07,0.00,26.59
5070838,1759,1,206345,251789,0.55,-0.57,9.66,-0.03,-0.01,-0.04,27.11
5111205,1740,1,206232,250946,0.33,-0.95,9.36,-0.07,-0.01,0.05,27.11
5150181,1777,1,206353,253922,0.40,-1.08,11.37,-0.02,0.04,0.01,27.11
5190171,1786,1,206094,250254,0.50,0.09,9.72,-0.02,-0.04,0.03,27.11
5230167,1742,1,205023,250784,0.42,-0.88,10.06,-0.05,0.06,-0.01,27.11
5270181,1699,1,205421,250296,0.59,-0.73,8.98,-0.10,-0.03,-0.05,27.11
5310202,1717,1,207022,253611,0.59,-0.59,10.71,0.01,0.13,-0.01,27.11
5350171,1732,1,208448,255791,0.40,-1.21,9.15,-0.06,0.01,0.02,27.11
5390171,1699,1,208921,256509,1.00,-0.51,9.73,-0.03,-0.01,-0.10,27.11
5430205,1712,1,208893,257542,0.45,-0.47,11.71,-0.05,0.00,-0.04,27.11
5470181,1711,1,207829,256008,0.56,-1.26,10.69,-0.07,-0.06,0.01,27.11
5510183,1734,1,207346,256402,0.23,-0.24,10.91,-0.02,0.03,-0.01,27.11
5550181,1781,1,207313,255998,1.25,-0.87,10.26,-0.10,-0.05,-0.02,27.11
5590205,1775,1,207521,255311,0.90,-0.31,9.69,-0.04,0.01,-0.02,27.11
5630182,1847,1,208527,258447,0.37,-1.10,10.00,-0.08,0.08,-0.04,27.11
5670184,1861,1,209065,256749,0.58,-0.19,8.92,-0.07,0.04,-0.14,27.11
5710182,1856,1,208351,254176,0.56,-1.30,9.33,-0.07,0.02,-0.01,27.11
5750184,1815,1,205777,248659,0.80,-0.70,8.60,-0.06,-0.04,-0.01,27.11
5790201,1805,1,205503,252786,0.78,-1.29,10.24,-0.00,0.14,-0.01,27.11
5830184,1841,1,207249,254338,1.05,-0.45,8.71,-0.02,0.00,-0.07,27.11
5870181,1801,1,208067,254908,0.64,-1.20,9.51,-0.06,0.05,-0.05,27.11
5910184,1839,1,207538,255288,0.70,-0.58,10.20,-0.03,0.02,0.01,27.11
5950171,1795,1,207448,253873,0.10,0.12,10.68,-0.01,0.01,0.04,27.11
5990150,1815,1,207742,258844,0.49,-2.29,11.61,-0.07,0.10,-0.01,27.11
6030232,1786,1,208736,256058,0.27,-0.08,9.31,-0.03,0.05,-0.07,27.11
6070868,1761,1,208053,259540,0.74,-1.26,13.49,0.01,-0.05,-0.01,26.93
6109182,1840,1,208846,258576,0.08,-1.33,8.67,-0.09,0.05,-0.04,26.93
6149184,1802,1,208115,258918,0.82,-0.51,12.77,0.01,-0.05,-0.00,26.93
6190181,1847,1,207196,256195,-0.20,-0.51,10.12,-0.07,-0.00,-0.05,26.93
6230214,1851,1,205964,257326,0.85,-0.27,12.69,-0.03,-0.11,-0.01,26.93
6270201,1858,1,207260,257768,1.08,-3.36,10.90,-0.04,-0.08,0.00,26.93
6310181,1887,1,206319,254996,0.90,1.51,9.69,-0.05,-0.30,-0.04,26.93
6350178,1886,1,206500,256409,-0.15,-2.84,10.16,-0.05,0.19,-0.01,26.93
6390201,1927,1,205970,255042,0.85,0.32,7.81,-0.07,-0.31,-0.03,26.93
6430181,1856,1,206466,254851,-0.05,-0.91,12.13,0.01,0.21,-0.00,26.93
6470179,1953,1,203867,247283,0.81,0.61,7.11,-0.09,-0.30,-0.03,26.93
6510177,1859,1,203658,249056,1.09,-1.92,10.65,-0.06,0.11,-0.02,26.93
6550180,1939,1,203982,249707,1.31,-0.30,7.75,-0.00,-0.11,-0.06,26.93
6590202,1879,1,205809,253303,0.32,-0.62,9.45,-0.01,0.11,0.00,26.93
6630171,1936,1,205206,252624,0.90,-0.05,8.46,-0.04,-0.07,-0.01,26.93
6670202,1889,1,205764,254160,1.01,-1.24,9.72,-0.03,0.00,0.01,26.93
6710171,1946,1,205352,254375,0.75,-0.41,8.30,-0.02,-0.07,-0.01,26.93
6750201,1876,1,206956,257107,1.11,-0.94,11.71,0.02,0.13,-0.01,26.93
6790221,1891,1,206931,256751,0.68,-0.19,9.10,-0.02,-0.08,-0.01,26.93
6830201,1853,1,206962,257059,0.75,-0.64,10.00,-0.01,-0.01,-0.00,26.93
6870202,1906,1,206480,256614,1.24,-0.45,8.57,-0.01,-0.12,-0.01,26.93
6910202,1847,1,207603,258388,0.77,-1.15,11.43,-0.00,0.13,-0.01,26.93
6950184,1882,1,207201,257640,0.65,0.28,9.12,-0.01,-0.08,-0.05,26.93
6990221,1818,1,206857,257377,0.43,-0.01,12.10,-0.01,0.05,-0.00,26.93
7030181,1862,1,205937,255650,0.80,-0.07,9.36,-0.07,-0.17,0.01,26.93
7070177,1776,1,205993,257819,0.83,-0.92,11.45,-0.06,0.06,-0.06,26.93
7110869,1843,1,206746,254036,1.14,0.76,9.41,-0.07,-0.05,-0.09,26.77
7149181,1805,1,205907,255738,0.69,-1.53,10.50,-0.06,0.05,-0.03,26.77
7189184,1856,1,205941,251124,0.86,-0.33,8.41,-0.07,-0.02,-0.03,26.77
7230202,1826,1,205012,253016,0.99,-1.18,10.77,-0.04,-0.00,0.00,26.77
7268184,1861,1,205250,252663,1.29,-0.28,9.30,-0.06,-0.08,-0.01,26.77
7308202,1839,1,206500,256382,0.45,-0.92,10.73,-0.06,0.08,0.01,26.77
7348171,1866,1,206333,254827,0.49,-0.94,9.45,-0.07,-0.06,0.08,26.77
7388181,1808,1,205414,253944,0.66,-0.51,9.29,-0.06,-0.09,0.01,26.77
7428181,1726,1,205605,254504,0.98,-0.91,10.09,-0.04,0.01,0.01,26.77
7468171,1687,1,206443,257672,0.68,-0.55,8.90,-0.08,-0.05,-0.01,26.77
7508205,1745,1,209636,260133,0.69,-1.81,10.57,-0.05,0.14,-0.06,26.77
7548184,1780,1,208840,258040,-0.03,-0.80,6.69,-0.10,-0.12,0.06,26.77
7588205,1759,1,209309,257907,0.60,-1.14,10.53,-0.05,0.24,0.02,26.77
7628171,1803,1,207407,254914,0.42,-0.52,8.48,-0.03,-0.14,0.02,26.77
7668184,1750,1,208016,257867,0.97,-1.05,11.13,-0.01,0.08,-0.00,26.77
7708182,1799,1,207594,255619,-0.06,-0.53,8.03,-0.09,-0.08,-0.01,26.77
7748219,1755,1,208153,257472,0.31,-2.32,10.30,-0.05,0.12,0.00,26.77
7788171,1812,1,207046,252788,0.54,-0.55,10.20,-0.03,-0.05,0.03,26.77
7828184,1778,1,206140,256375,0.14,-1.72,11.55,-0.04,-0.01,-0.01,26.77
7868205,1862,1,206703,255666,0.20,-0.67,9.81,-0.11,-0.01,-0.03,26.77
7908205,1851,1,206805,258003,0.10,-1.94,10.91,-0.07,-0.02,0.06,26.77
7948182,1890,1,207903,258321,0.51,-0.45,11.30,-0.02,0.01,-0.06,26.77
7988184,1945,1,207761,259005,0.37,-0.57,11.49,-0.05,-0.10,-0.02,26.77
8028203,1917,1,207771,257975,0.21,-1.81,10.57,-0.15,0.03,-0.13,26.77
8068184,1840,1,208107,258707,0.19,-1.99,10.08,-0.08,-0.09,-0.01,26.77
8108203,1861,1,207763,254173,0.73,-0.16,8.52,-0.05,-0.13,-0.02,26.77
8148892,1915,1,206719,256248,0.52,-1.39,9.03,-0.08,-0.05,-0.01,26.85
8189203,1884,1,209810,259805,-0.02,-2.57,6.94,-0.05,0.16,-0.13,26.85
8228205,1937,1,211417,261032,1.07,0.09,10.05,-0.01,-0.08,-0.14,26.85
8268182,1934,1,211243,260306,0.35,-1.14,9.21,-0.02,0.07,-0.14,26.85
8308184,1921,1,209287,257101,-0.26,-0.66,9.24,-0.02,-0.06,0.01,26.85
8348203,1846,1,206956,254617,0.21,-1.66,9.95,0.01,0.05,0.02,26.85
8388149,1877,1,205492,253474,0.89,0.16,9.15,0.01,-0.10,0.11,26.85
8428184,1840,1,205862,255948,0.29,-1.93,10.24,0.01,0.12,0.02,26.85
8468151,1896,1,206654,255595,-0.29,-0.97,9.36,0.03,0.04,-0.00,26.85
8508182,1850,1,206066,254480,0.47,-0.54,11.09,0.05,0.02,-0.00,26.85
8548171,1938,1,205878,256194,-0.03,-1.25,9.15,0.01,0.01,-0.00,26.85
8588182,1873,1,207223,258738,0.38,-1.17,10.87,0.03,0.01,-0.12,26.85
8628215,1875,1,208706,260052,0.10,-1.36,10.29,0.04,0.02,-0.23,26.85
8668171,1929,1,209107,260792,0.20,-0.30,10.87,0.02,-0.06,-0.02,26.85
8708184,1776,1,209776,262116,-0.24,-1.93,12.35,0.05,0.07,-0.17,26.85
8748184,1712,1,210368,261874,0.57,-1.03,12.96,0.05,-0.07,-0.30,26.85
8788184,1664,1,209249,258664,-0.21,-1.30,10.56,-0.07,-0.15,-0.13,26.85
8828219,1695,1,207405,259048,0.28,-1.49,11.88,-0.05,-0.10,-0.01,26.85
8868205,1760,1,208895,258266,0.25,-1.17,9.33,-0.04,-0.04,-0.02,26.85
8908203,1777,1,209409,261988,0.68,-0.76,11.91,0.00,0.01,-0.06,26.85
8948171,1823,1,211200,260353,0.84,-0.08,8.85,-0.06,-0.06,-0.37,26.85
8988203,1838,1,208945,260762,0.84,-0.73,8.84,-0.00,-0.32,-0.03,26.85
9028205,1809,1,210039,257795,0.19,-1.17,7.17,-0.11,0.09,-0.10,26.85
9068183,1931,1,208101,258094,0.73,0.09,8.92,0.07,-0.08,0.07,26.85
9108151,1811,1,209218,253467,0.49,-0.76,7.44,-0.04,0.15,-0.07,26.85
9148182,1882,1,206435,254188,1.08,-0.45,9.96,-0.04,-0.14,0.09,26.85
9188871,1812,1,208108,251545,-0.35,-0.71,8.20,-0.06,0.27,0.05,27.03
9227182,1921,1,205182,248952,-0.78,-0.69,5.73,-0.10,-0.21,0.43,27.03
9267205,1502,1,204254,248246,2.11,-0.96,11.20,-0.03,0.25,0.17,27.03
9307171,1360,1,203067,250175,0.32,0.91,8.39,0.04,-0.11,0.10,27.03
9347152,1070,1,206813,256336,-0.00,-1.93,12.52,0.00,0.34,0.01,27.03
9387171,1221,1,206992,256402,0.47,0.34,10.16,0.04,-0.02,-0.10,27.03
9427171,1167,1,206892,254966,0.23,-0.72,13.23,-0.01,0.02,0.14,27.03
9467171,1509,1,204785,253435,0.49,-0.60,9.28,0.00,-0.17,0.04,27.03
9507171,1392,1,206371,256285,0.02,0.13,11.74,-0.03,0.14,0.01,27.03
9547151,1575,1,206957,257834,0.51,-1.69,11.98,-0.02,-0.03,-0.01,27.03
9587205,1632,1,206875,255367,0.18,0.42,10.80,-0.07,-0.08,-0.01,27.03
9627181,1724,1,205341,255793,0.61,-0.68,11.76,-0.05,-0.02,-0.01,27.03
9667205,1811,1,205747,255862,0.59,-0.02,9.94,-0.09,-0.04,-0.01,27.03
9707202,1862,1,205625,256666,1.21,-0.66,9.95,-0.10,-0.10,-0.02,27.03
9747205,1978,1,206545,254903,0.43,-1.27,9.46,-0.13,0.03,-0.01,27.03
9787182,1987,1,204751,251109,1.01,-0.35,9.00,-0.08,-0.14,-0.01,27.03
9827205,1999,1,204548,252875,1.05,-1.09,10.11,-0.11,0.03,-0.01,27.03
9867182,2032,1,204506,250534,0.61,-0.61,6.92,-0.10,-0.16,-0.02,27.03
9907205,2032,1,204686,252186,1.18,-1.50,8.34,-0.09,0.02,-0.09,27.03
9947182,2007,1,205679,254173,0.87,-1.43,7.55,-0.06,0.02,-0.04,27.03
9987184,2031,1,205931,252365,1.09,-0.15,8.26,-0.05,-0.04,-0.00,27.03
10027203,2073,1,205414,251900,0.41,-0.77,8.34,-0.05,0.10,-0.00,27.03
10067232,2069,1,205179,252815,0.90,0.27,9.95,-0.00,0.05,-0.00,27.03
10107171,2062,1,205701,254239,0.35,-1.12,10.35,0.00,0.10,0.01,27.03
10147152,2064,1,205337,253420,0.62,-0.21,9.60,0.01,-0.10,-0.01,27.03
10187182,2054,1,205453,254583,0.51,-1.01,10.03,-0.01,0.03,0.00,27.03
10227859,2115,1,205578,255742,0.34,-0.77,9.77,-0.01,-0.05,-0.00,26.93
10266226,2032,1,207311,257959,-0.23,-1.34,11.09,-0.01,0.13,0.00,26.93
10306184,2026,1,208044,258829,0.40,-0.13,11.94,0.04,0.01,0.01,26.93
10346151,1937,1,207514,256420,-0.23,-0.53,11.85,-0.02,0.02,0.01,26.93
10386184,1950,1,205161,254593,0.82,-0.21,12.36,-0.03,-0.18,-0.01,26.93
10426201,1931,1,205762,255175,-0.18,-1.41,12.36,-0.08,0.01,-0.00,26.93
10466203,1955,1,204801,253899,0.70,-0.51,9.47,-0.01,-0.34,-0.02,26.93
10506201,1921,1,206448,254735,-0.16,-1.81,9.56,-0.12,0.07,-0.01,26.93
10546204,2046,1,205753,255116,0.39,-1.33,8.59,-0.05,-0.20,-0.07,26.93
10586205,1872,1,208374,259037,0.32,-1.93,9.69,-0.04,0.12,-0.06,26.93
10626184,2002,1,208985,259692,0.57,-0.77,8.41,-0.04,-0.16,-0.05,26.93
10666206,1821,1,209202,257342,0.72,-1.19,9.22,0.00,0.03,-0.13,26.93
10706171,1905,1,207011,254763,0.86,-0.83,7.85,-0.00,-0.26,-0.00,26.93
10746205,1786,1,208094,256956,0.66,-1.68,9.58,0.01,0.12,0.01,26.93
10786153,1891,1,207658,256539,0.72,-0.37,7.84,0.03,-0.12,0.00,26.93
10826171,1771,1,209132,258178,0.42,-0.97,10.46,-0.02,0.14,0.02,26.93
10866171,1889,1,208436,257593,0.46,-0.59,9.01,0.00,-0.06,0.00,26.93
10906171,1809,1,208607,256672,0.55,-0.53,10.27,0.03,0.00,0.03,26.93
10946152,1904,1,207033,255607,0.53,-1.14,9.09,0.00,-0.07,0.00,26.93
10986171,1792,1,207498,253040,0.53,-1.28,10.11,0.03,0.03,0.00,26.93
11026162,1831,1,206119,252148,0.21,-0.76,9.52,0.00,-0.05,0.00,26.93
11066171,1813,1,206717,251797,0.26,-0.90,10.03,0.02,0.05,0.00,26.93
11106151,1789,1,206820,254885,0.45,-0.68,10.72,0.00,-0.01,0.00,26.93
11146171,1792,1,208513,257451,0.17,-1.14,11.18,0.00,0.05,0.00,26.93
11186153,1794,1,208014,257499,0.53,-0.02,11.01,-0.02,-0.13,-0.01,26.93
11226203,1790,1,208855,258726,0.08,-1.11,12.00,-0.05,0.06,0.01,26.93
11266858,1827,1,207972,256803,0.69,-0.13,10.18,-0.02,-0.21,0.00,26.55
11307182,1809,1,208327,258015,0.47,-1.24,10.95,-0.06,0.06,-0.00,26.55
11347184,1847,1,208123,257902,0.52,-0.65,9.78,-0.08,-0.08,-0.01,26.55
11387203,1821,1,209373,260008,0.26,-1.09,11.01,-0.05,0.10,0.01,26.55
11427171,1850,1,208285,256413,0.45,0.13,9.57,-0.03,-0.14,0.04,26.55
11467171,1808,1,206859,256243,1.13,-0.99,9.84,-0.09,-0.07,-0.01,26.55
11507205,1859,1,208088,256454,0.29,-0.56,8.65,-0.10,0.11,-0.02,26.55
11547184,1846,1,207688,255563,0.99,-0.51,8.88,-0.01,-0.07,-0.06,26.55
11587205,1874,1,209336,256630,0.68,0.08,9.41,-0.04,0.15,-0.03,26.55
11627171,1865,1,208825,255271,0.77,-1.07,9.16,-0.04,-0.06,0.01,26.55
11665184,1849,1,208218,254023,0.46,-0.49,9.23,-0.02,0.07,0.01,26.55
11705215,1862,1,206505,252114,0.47,0.17,9.43,-0.02,-0.02,0.01,26.55
11745171,1853,1,206265,255059,0.92,-1.58,10.58,-0.03,0.11,0.00,26.55
11785171,1847,1,206999,252493,0.45,0.05,9.16,-0.04,-0.00,0.06,26.55
11825171,1856,1,206265,254018,0.51,-1.07,10.05,0.01,0.05,0.02,26.55
11865151,1861,1,207415,256146,0.42,0.17,9.96,0.01,0.06,-0.00,26.55
11905196,1793,1,208975,259526,0.56,-0.75,11.09,0.01,0.07,0.00,26.55
11945151,1802,1,209149,259717,0.31,0.05,10.78,-0.04,0.02,-0.01,26.55
11985171,1794,1,208461,257218,0.32,-0.09,11.05,-0.04,0.02,0.04,26.55
12025177,1788,1,206537,257172,0.90,-0.03,10.57,-0.04,-0.09,0.00,26.55
12065184,1776,1,207499,258273,0.53,-0.15,11.25,-0.09,0.02,-0.01,26.55
12105184,1807,1,207914,258451,0.01,0.19,9.44,-0.08,0.01,-0.01,26.55
12145171,1798,1,210901,261363,0.37,-0.97,11.07,-0.12,0.18,0.01,26.55
12185171,1823,1,211150,258704,0.92,-1.18,10.47,-0.05,-0.00,0.00,26.55
12225184,1819,1,209914,259240,0.62,-0.41,10.72,-0.08,-0.12,-0.00,26.55
12265205,1841,1,207978,254350,0.63,-0.31,9.68,-0.06,-0.13,-0.00,26.55
12305892,1839,1,205838,254569,0.94,-0.61,9.07,-0.07,-0.17,-0.01,26.67
12346203,1836,1,206511,252990,0.98,-0.75,7.97,-0.10,-0.08,-0.01,26.67
12386205,1860,1,206677,255256,1.18,-0.34,8.11,-0.06,-0.04,-0.00,26.67
12426205,1902,1,209518,257985,0.00,-1.43,8.50,-0.07,0.17,-0.00,26.67
12466184,1901,1,208927,255179,0.63,-0.17,9.46,-0.02,-0.05,0.00,26.67
12506182,1871,1,207077,253901,0.69,-0.92,10.41,-0.04,-0.03,0.01,26.67
12546184,1859,1,205862,251302,1.05,-0.62,9.35,-0.03,-0.17,0.02,26.67
12586181,1825,1,205513,252349,0.78,-1.63,9.37,-0.03,-0.01,0.02,26.67
12626184,1855,1,206336,253411,0.56,-0.96,9.48,-0.01,0.00,0.01,26.67
12666171,1838,1,207501,257174,0.68,-2.29,10.38,-0.03,-0.03,0.01,26.67
12706184,1861,1,208003,254189,0.24,-0.30,9.30,-0.00,-0.08,0.00,26.67
12746182,1823,1,206541,253635,0.91,-0.89,10.57,-0.02,-0.13,0.00,26.67
12786184,1831,1,206641,253821,0.30,-0.62,10.19,-0.00,0.00,0.00,26.67
12826171,1808,1,206212,254164,0.01,-0.16,9.78,-0.02,-0.10,0.01,26.67
12866184,1813,1,206071,253582,0.26,-1.06,10.17,-0.06,0.05,0.01,26.67
12906171,1797,1,206736,255087,0.04,-0.61,10.39,-0.05,0.08,0.02,26.67
12946171,1802,1,207746,254607,0.65,-1.24,10.68,-0.03,0.10,0.02,26.67
12986171,1809,1,208127,259919,0.59,-1.25,11.91,-0.01,-0.01,-0.04,26.67
13026208,1859,1,210007,257526,0.17,-2.26,9.34,0.00,-0.09,0.02,26.67
13066171,1858,1,208505,258922,0.16,-1.13,9.85,-0.03,-0.11,0.01,26.67
13106184,1878,1,208114,255637,1.01,-1.44,9.54,-0.02,-0.14,0.01,26.67
13146182,1853,1,206373,257546,0.58,-0.75,10.63,-0.00,-0.15,-0.02,26.67
13186205,1856,1,208102,256648,0.50,-1.47,8.46,-0.09,-0.08,-0.04,26.67
13224203,1850,1,207796,257713,1.16,-0.41,10.27,0.03,-0.06,-0.12,26.67
13264184,1935,1,208534,256277,1.01,-0.54,9.27,-0.02,-0.11,-0.00,26.67
13304203,1942,1,207324,253157,0.20,-1.19,6.28,-0.13,-0.01,0.14,26.67
13344909,1910,1,207694,253121,0.69,-1.97,7.83,-0.07,0.12,0.11,26.71
13385171,1879,1,206899,253282,1.19,-0.05,7.44,0.01,-0.18,0.02,26.71
13425171,1781,1,208598,255148,0.70,-0.50,10.84,-0.03,0.16,0.03,26.71
13465171,1872,1,206350,250725,0.71,-0.63,8.91,0.01,-0.15,0.02,26.71
13505171,1827,1,205049,250714,1.08,-1.52,10.60,0.00,0.04,0.07,26.71
13545188,1914,1,204816,250259,0.22,-0.83,9.08,0.00,0.00,0.03,26.71
13585151,1798,1,204873,250737,0.94,-0.78,11.03,0.02,0.06,0.04,26.71
13625151,1895,1,205285,252978,0.38,-0.68,10.32,-0.01,0.06,0.02,26.71
13665171,1840,1,206719,254274,0.68,0.16,11.14,0.00,0.03,0.02,26.71
13705132,1813,1,207186,257729,0.20,-1.14,10.97,-0.02,0.08,0.03,26.71
13745191,1780,1,207180,255688,0.74,-0.37,11.23,-0.01,-0.08,0.02,26.71
13785181,1790,1,205992,256115,0.38,0.02,10.63,-0.05,-0.04,0.02,26.71
13825171,1825,1,206665,255217,0.74,-0.30,10.13,-0.07,0.04,0.02,26.71
13865171,1847,1,206575,255185,0.95,-0.61,9.97,-0.04,0.03,0.02,26.71
13905171,1872,1,208515,256588,0.35,-0.68,9.79,-0.08,0.08,0.02,26.71
13945171,1856,1,208185,257774,1.00,-0.28,10.75,-0.05,-0.06,0.01,26.71
13985184,1772,1,208170,256004,0.50,-0.08,10.30,-0.05,-0.03,-0.13,26.71
14025215,1829,1,205983,253413,1.07,-0.10,9.69,-0.07,-0.15,0.00,26.71
14065184,1893,1,205940,254100,0.55,-0.70,10.20,-0.08,0.04,0.00,26.71
14105171,1875,1,205834,252569,0.74,-0.11,8.77,-0.08,-0.10,0.00,26.71
14145184,1865,1,206160,254730,0.50,-0.77,10.37,-0.08,0.15,0.00,26.71
14185171,1941,1,207332,256202,0.36,-0.17,9.64,-0.06,0.02,0.01,26.71
14225171,1815,1,207898,257571,0.65,-0.96,10.70,-0.06,0.03,0.00,26.71
14265171,1888,1,208408,258948,0.46,-0.58,9.98,-0.07,0.02,-0.05,26.71
14305184,1815,1,208816,257649,0.45,-1.22,10.26,-0.06,0.02,0.01,26.71
14345858,1819,1,207058,254119,0.38,-0.29,9.78,-0.07,-0.01,0.01,26.37
14384184,1814,1,205866,252247,0.61,-1.22,9.02,-0.11,-0.03,0.09,26.37
14424182,2053,1,205428,252244,0.63,-0.57,8.92,-0.06,0.07,-0.00,26.37
14464184,2001,1,206724,254338,0.24,-1.27,9.00,-0.09,0.09,0.00,26.37
14504171,1925,1,207469,255304,0.40,-0.30,8.58,-0.04,0.05,-0.10,26.37
14544184,1835,1,208420,256114,0.58,-0.75,10.46,-0.02,0.10,-0.02,26.37
14584182,1821,1,208045,255481,0.68,-0.42,9.49,-0.00,-0.08,0.01,26.37
14624184,1814,1,207768,255369,0.39,-0.63,9.96,-0.03,0.02,0.05,26.37
14664171,1817,1,208235,256766,0.51,-1.13,10.09,-0.02,0.03,0.10,26.37
14704171,1817,1,208884,258162,0.93,-0.34,10.91,0.00,-0.03,0.04,26.37
14744171,1957,1,210171,260285,0.02,-1.44,10.26,-0.04,0.01,0.01,26.37
14784171,2279,1,210376,260029,0.62,-0.53,10.81,-0.02,-0.08,0.00,26.37
14824182,2448,1,210122,259507,-0.03,-0.53,10.64,-0.05,-0.04,0.00,26.37
14864205,2524,1,209579,259190,0.42,-0.35,11.17,-0.03,-0.05,0.00,26.37
14904184,2535,1,209580,258970,0.26,-0.68,11.22,-0.05,-0.04,-0.00,26.37
14944205,2523,1,208033,253580,0.38,0.14,9.56,-0.07,-0.15,-0.01,26.37
14984202,2501,1,206498,253516,0.68,-1.17,9.79,-0.02,0.02,-0.01,26.37
15024209,2490,1,207334,254656,0.32,-0.04,9.97,-0.01,-0.06,-0.01,26.37
15064203,2417,1,208612,257214,0.65,-2.14,10.51,-0.03,0.00,-0.05,26.37
15104184,2402,1,208129,254173,0.21,-0.38,8.65,-0.04,-0.12,-0.02,26.37
15144205,2320,1,206685,253325,0.41,-1.27,9.16,-0.05,-0.05,0.03,26.37
15185184,2320,1,206478,254214,0.35,-1.12,8.58,-0.03,0.01,0.04,26.37
15223171,2238,1,207694,255742,0.52,-0.80,9.68,-0.01,0.01,0.01,26.37
15263171,2176,1,208193,256163,0.58,-1.14,9.79,-0.02,0.02,0.02,26.37
15303171,2149,1,207279,255587,0.68,-0.72,8.54,-0.02,-0.09,0.01,26.37
15343184,2101,1,209373,260575,0.77,-1.67,11.79,0.03,0.13,0.01,26.37
15383857,2065,1,208825,256920,0.42,0.18,8.20,-0.02,-0.21,-0.04,26.37
15424184,1971,1,209411,261003,0.09,-2.04,11.21,-0.07,0.19,0.02,26.37
15464171,2021,1,208766,256047,0.48,-0.18,8.93,0.00,-0.16,0.01,26.37
15504171,1935,1,207708,257156,1.10,-0.87,12.60,0.07,-0.00,0.12,26.37
15544171,1958,1,207972,255544,0.34,-1.33,8.77,-0.05,-0.01,0.02,26.37
15584184,1900,1,208808,257830,0.43,-0.97,11.32,0.09,0.03,0.03,26.37
15624151,1885,1,209455,256896,0.04,-1.20,9.57,-0.03,-0.06,-0.02,26.37
15664205,1872,1,209201,258331,0.90,-1.06,10.87,0.03,-0.06,0.02,26.37
15704171,1819,1,209097,255894,0.40,-0.77,9.38,0.00,-0.12,0.02,26.37
15744171,1761,1,208043,256994,0.73,-1.26,10.24,0.03,-0.04,0.05,26.37
15784171,1757,1,209082,257257,0.56,-0.94,10.36,-0.03,0.04,0.02,26.37
15824171,1739,1,209080,257749,0.22,-0.93,10.12,0.00,0.00,0.02,26.37
15864151,1719,1,208995,258017,1.09,-0.05,11.39,-0.01,-0.01,0.02,26.37
15904184,1680,1,209153,259753,0.13,-0.75,9.74,-0.03,-0.03,0.02,26.37
15944182,1699,1,208986,257815,1.16,-0.49,10.72,-0.03,-0.06,0.02,26.37
15984183,1665,1,207602,259028,0.68,-0.91,8.65,-0.02,-0.07,0.03,26.37
16024213,1692,1,208725,257887,1.05,0.70,9.96,-0.07,0.04,0.02,26.37
16064151,1666,1,208007,258009,0.75,-0.44,10.05,-0.02,-0.03,0.16,26.37
16104184,1687,1,208593,257203,0.66,0.56,8.71,-0.06,0.07,0.03,26.37
16144153,1699,1,208246,258414,1.00,-0.41,9.15,-0.07,-0.02,0.04,26.37
16184182,1677,1,208926,256397,0.86,0.25,9.24,-0.05,0.07,0.02,26.37
16223152,1664,1,208182,255447,0.80,0.40,9.93,-0.05,0.06,0.03,26.37
16263151,1697,1,207610,256196,1.18,-0.15,9.73,-0.03,0.00,0.02,26.37
16303171,1687,1,208443,254896,0.23,-0.78,10.92,-0.05,0.13,0.02,26.37
16343171,1695,1,206207,254856,0.45,-0.60,9.09,0.00,-0.07,0.08,26.37
16383171,1694,1,207444,254793,0.49,0.12,10.78,-0.03,0.15,0.04,26.37
16423839,1680,1,206239,255071,0.87,-0.64,9.61,0.05,-0.09,0.26,26.43
16462171,1690,1,207965,255971,0.45,-0.09,10.57,-0.05,0.21,0.03,26.43
16502171,1719,1,206938,257536,0.60,-0.64,7.31,-0.00,-0.09,0.19,26.43
16542184,1741,1,209890,260416,0.67,-0.94,12.18,-0.09,0.24,-0.03,26.43
16582184,1740,1,209341,259118,-0.06,0.04,10.25,-0.01,-0.09,0.01,26.43
16622197,1747,1,208078,258861,1.45,0.06,10.82,-0.03,-0.09,0.02,26.43
16662171,1718,1,207695,258382,0.48,-0.01,9.29,-0.08,-0.08,0.02,26.43
16702184,1743,1,208079,260310,1.06,-0.78,8.84,-0.05,-0.01,0.01,26.43
16742182,1749,1,210373,259478,0.55,-0.42,9.70,-0.10,0.13,-0.01,26.43
16782184,1781,1,209253,260750,1.33,-1.30,10.26,-0.03,-0.14,0.02,26.43
16822225,1774,1,210548,258993,0.60,0.06,10.18,-0.07,0.04,-0.15,26.43
16862171,1764,1,208459,256853,0.78,-0.91,8.69,-0.03,-0.15,0.02,26.43
16902184,1776,1,207294,254298,1.18,0.37,9.27,-0.07,0.00,0.01,26.43
16942152,1781,1,206343,253896,0.83,-0.07,8.09,-0.08,-0.14,0.09,26.43
16982182,1783,1,206216,254580,1.78,-0.09,9.74,-0.03,0.02,0.01,26.43
17022191,1781,1,207768,257900,0.52,-1.33,9.75,-0.06,0.04,0.02,26.43
17062171,1749,1,208450,257629,0.66,-0.12,8.70,-0.03,-0.02,-0.08,26.43
17102205,1724,1,208554,258574,-0.00,-0.51,11.48,-0.02,0.09,0.02,26.43
17142183,1799,1,207188,254921,0.67,-0.14,9.47,0.00,-0.13,0.03,26.43
17182171,1763,1,206256,256110,0.68,-0.88,10.71,-0.02,0.03,0.05,26.43
17222171,1801,1,207754,257922,0.56,-1.19,10.94,-0.05,0.03,0.02,26.43
17262171,1827,1,207954,257756,0.65,-0.91,10.73,-0.02,-0.09,0.02,26.43
17302182,1846,1,208089,257818,0.25,-0.98,10.52,-0.03,-0.01,0.03,26.43
17342184,1872,1,207094,257171,1.15,-1.23,10.61,-0.03,-0.19,0.02,26.43
17382184,1877,1,207484,256603,-0.15,-1.50,10.14,-0.07,0.03,0.02,26.43
17422184,1891,1,206544,256392,0.66,-1.15,9.98,-0.03,-0.16,0.02,26.43
17462871,1872,1,207622,256987,0.54,-0.74,10.51,-0.01,0.03,0.02,26.35
17503171,1879,1,207345,255832,0.63,0.01,9.25,-0.03,-0.17,0.01,26.35
17543171,1881,1,207962,258366,1.09,-1.26,10.68,-0.01,0.02,0.01,26.35
17583171,1870,1,208236,257319,0.60,0.28,9.33,-0.04,-0.16,-0.02,26.35
17623182,1857,1,207452,257491,0.85,-0.80,10.05,-0.05,-0.08,0.01,26.35
17663184,1847,1,207119,255640,0.44,-0.09,9.36,-0.03,-0.05,0.02,26.35
17701182,1839,1,206402,255179,1.28,-0.77,8.80,-0.02,-0.13,0.01,26.35
17741184,1847,1,207172,255944,1.48,0.29,9.58,-0.02,0.07,-0.03,26.35
17781171,1857,1,207511,255897,0.90,-0.94,7.57,-0.00,-0.08,0.02,26.35
17821184,1866,1,209299,259043,0.84,-0.46,10.03,-0.03,0.13,0.01,26.35
17861171,1894,1,209647,256795,0.51,-0.63,8.26,0.02,-0.01,-0.02,26.35
17901184,1904,1,208950,257958,0.76,-1.40,9.89,0.02,0.03,0.03,26.35
17941150,1931,1,208130,255025,0.17,-0.32,8.80,0.03,-0.03,0.02,26.35
17981171,1959,1,206033,255191,0.84,-1.00,10.74,0.04,0.00,0.30,26.35
18021165,1936,1,206735,256649,0.38,-0.32,9.03,0.01,0.08,0.05,26.35
18061152,1893,1,207418,257706,0.58,-0.02,10.38,0.03,0.00,0.06,26.35
18101151,1872,1,208020,258461,0.87,-0.49,11.06,-0.05,0.07,0.02,26.35
18141171,1854,1,207877,257847,0.52,0.11,11.34,-0.03,-0.03,0.02,26.35
18181171,1840,1,207169,258893,0.45,-0.70,11.55,-0.07,0.04,0.03,26.35
18221171,1840,1,207218,256997,0.32,-0.18,11.27,-0.07,0.02,0.06,26.35
18261177,1825,1,206099,258565,0.90,-0.00,11.46,-0.06,-0.04,0.07,26.35
18301184,1802,1,208747,260605,0.67,-0.48,11.48,-0.12,0.10,0.02,26.35
18341171,1785,1,209741,262121,0.50,-0.82,10.73,-0.08,-0.02,0.02,26.35
18381184,1812,1,211004,261555,0.66,-0.92,11.14,-0.07,0.05,-0.01,26.35
18421184,1811,1,209165,260139,0.58,-0.16,9.59,-0.05,-0.14,0.03,26.35
18461209,1808,1,209196,260305,0.57,-1.00,10.55,-0.09,0.07,0.01,26.35
18501859,1830,1,208034,258696,0.86,0.69,9.38,-0.06,-0.16,0.02,26.37
18542171,1849,1,208070,258279,0.29,-0.89,9.17,-0.09,0.07,0.02,26.37
18582171,1840,1,207310,256834,1.01,0.06,8.50,-0.10,-0.11,0.01,26.37
18622171,1849,1,207683,257762,0.45,-0.79,9.60,-0.05,0.12,0.03,26.37
18662171,1872,1,207730,257250,0.75,-0.01,9.29,-0.05,0.02,0.01,26.37
18702171,1847,1,208223,256712,0.50,-1.34,9.68,-0.09,0.07,0.02,26.37
18742171,1869,1,206326,253916,0.77,-0.05,8.18,-0.05,-0.11,0.05,26.37
18782184,1870,1,206374,255643,0.72,-1.34,10.26,-0.00,0.13,0.04,26.37
18822171,1904,1,206117,255427,1.02,-0.40,9.32,-0.01,-0.06,0.02,26.37
18862184,1847,1,206987,256921,0.71,-1.34,10.33,-0.05,0.09,0.01,26.37
18902171,1877,1,206022,254353,0.63,-0.24,8.75,-0.03,-0.10,0.01,26.37
18942184,1852,1,205626,255163,0.64,-0.94,10.37,0.00,0.11,0.02,26.37
18982151,1880,1,205687,254503,0.68,0.20,9.59,-0.01,-0.03,0.01,26.37
19022171,1824,1,206066,256288,0.62,-0.84,11.13,0.00,0.07,0.01,26.37
19062151,1825,1,206452,256130,0.35,-0.48,10.32,-0.04,-0.05,0.01,26.37
19102184,1817,1,206925,257847,0.32,-1.36,10.48,0.01,0.03,0.02,26.37
19142151,1831,1,207281,257699,0.41,-0.41,10.34,0.01,-0.06,0.02,26.37
19182171,1791,1,207349,259259,0.82,-0.62,11.15,-0.00,-0.06,0.01,26.37
19222182,1781,1,208073,258726,0.17,-0.43,10.17,-0.06,-0.02,0.01,26.37
19262184,1763,1,207453,258190,0.45,-1.48,10.41,-0.04,-0.07,0.01,26.37
19301184,1782,1,207255,256549,0.51,-0.23,10.67,-0.01,-0.03,0.01,26.37
19341184,1773,1,206883,256096,0.56,-0.19,10.62,-0.02,-0.10,0.01,26.37
19381182,1802,1,207052,257109,0.62,-0.81,10.80,-0.04,-0.05,0.01,26.37
19421184,1802,1,206807,254762,0.29,-0.33,9.26,-0.07,-0.13,0.01,26.37
19461184,1798,1,205676,254186,0.51,-1.21,8.92,-0.06,-0.06,0.00,26.37
19501184,1825,1,206373,256192,0.68,-0.72,9.59,-0.02,-0.02,0.00,26.37
19541869,1806,1,207972,257548,0.66,-0.73,10.48,0.01,-0.02,0.00,26.61
19580171,1792,1,207912,257455,0.19,-1.15,9.94,-0.08,-0.10,-0.01,26.61
19620205,1808,1,206922,255266,0.37,-1.47,9.58,-0.05,-0.09,0.01,26.61
19660184,1821,1,205230,255273,0.60,-1.20,9.86,-0.02,-0.14,0.01,26.61
19700182,1894,1,206143,254879,0.30,-1.39,8.88,-0.03,0.00,0.02,26.61
19740171,1893,1,205820,255674,0.78,-1.55,10.15,-0.02,0.02,0.01,26.61
19780171,1891,1,207139,256292,0.28,-1.57,9.32,-0.05,0.06,0.02,26.61
19820171,1874,1,206246,256349,0.98,-1.25,9.23,0.01,-0.13,0.01,26.61
19860171,1815,1,207552,258927,0.17,-1.81,9.74,-0.01,0.05,0.02,26.61
19900171,1819,1,206650,255160,0.66,-0.38,8.48,-0.03,-0.18,0.02,26.61
19940184,1801,1,205953,255986,0.27,-1.68,10.27,-0.02,0.10,0.01,26.61
19980171,1857,1,205348,253944,0.52,-0.05,8.56,-0.07,-0.17,0.01,26.61
20020182,1799,1,205928,256118,0.48,-1.28,10.35,-0.00,0.15,0.02,26.61
20060171,1855,1,206069,254105,0.45,-0.17,8.04,-0.04,-0.07,0.01,26.61
20100182,1794,1,206269,255916,1.22,-2.04,11.10,0.06,0.02,0.01,26.61
20140153,1806,1,208092,259305,0.44,-1.13,10.46,0.06,0.04,0.01,26.61
20180151,1746,1,210340,262143,1.02,-1.40,12.31,0.04,-0.08,-0.15,26.61
20220183,1707,1,210591,262143,-0.24,-1.00,10.55,-0.09,-0.03,-0.30,26.61
20260219,1575,1,209029,260459,-0.72,-1.80,12.32,-0.05,-0.09,-0.05,26.61
20300220,1949,1,207180,258732,-0.04,-1.37,11.25,-0.05,-0.06,-0.00,26.61
20340218,2128,1,207009,260764,0.62,-1.93,13.77,-0.02,-0.04,0.16,26.61
20380184,1811,1,209208,260934,-0.31,-1.32,10.10,0.00,0.03,0.02,26.61
20420171,1814,1,208913,260127,0.23,-2.06,10.38,-0.04,-0.21,0.01,26.61
20460184,1813,1,208611,257598,-0.53,-2.22,8.24,-0.05,0.06,0.03,26.61
20500184,1447,1,207366,257272,0.20,-1.66,9.26,-0.01,-0.21,0.01,26.61
20540184,1535,1,207506,254535,-0.05,-1.69,7.77,-0.03,0.04,-0.28,26.61
20580892,1648,1,206178,254845,0.21,-1.35,10.71,-0.04,-0.08,-0.01,26.41
20621205,1681,1,206029,253273,-0.68,-0.72,6.62,-0.04,-0.05,0.01,26.41
20661203,1714,1,205025,252758,0.94,0.78,9.07,-0.04,-0.12,0.14,26.41
20701171,1717,1,205322,254441,0.75,-2.32,8.99,-0.02,0.25,0.03,26.41
20741171,1874,1,206331,255845,0.74,0.53,7.62,-0.05,-0.12,-0.00,26.41
20781184,1810,1,208168,258094,1.03,-2.35,10.92,-0.02,0.21,0.02,26.41
20821171,1947,1,207576,255792,-0.29,0.55,6.89,-0.09,-0.06,0.13,26.41
20861184,1865,1,207817,256742,0.48,-1.43,12.10,0.07,0.26,0.09,26.41
20899151,2138,1,206603,255385,0.42,1.07,8.41,-0.08,-0.17,0.09,26.41
20939171,1874,1,208212,259088,0.05,-2.12,11.68,-0.02,0.26,0.04,26.41
20979171,2027,1,209261,258587,0.55,-0.16,9.54,-0.03,-0.04,-0.00,26.41
21019205,1891,1,210544,261597,-0.15,-0.76,12.64,-0.00,0.10,0.01,26.41
21059182,2003,1,211080,261180,0.20,-0.43,10.89,-0.07,-0.01,-0.01,26.41
21099205,1931,1,211161,261934,0.02,-1.02,13.12,-0.03,-0.04,-0.01,26.41
21139205,1993,1,210667,259447,0.52,-0.54,11.04,-0.08,-0.07,-0.02,26.41
21179205,1966,1,209148,256964,0.02,-0.91,10.98,-0.05,-0.09,-0.01,26.41
21219203,1999,1,207937,254764,0.56,-0.49,10.96,-0.05,-0.05,-0.02,26.41
21259205,1991,1,207667,255366,0.26,-1.16,10.45,-0.08,-0.05,-0.07,26.41
21299205,2000,1,207700,254585,0.53,-0.92,10.22,-0.07,-0.04,-0.05,26.41
21339205,1989,1,206713,253578,0.79,-0.73,9.75,-0.06,-0.14,-0.02,26.41
21379205,1953,1,206027,253039,0.49,-0.64,8.89,-0.05,-0.12,-0.03,26.41
21419205,1953,1,205803,253919,0.74,-0.84,9.28,-0.01,-0.06,-0.02,26.41
21459203,1957,1,206442,255772,0.77,-0.72,8.81,-0.04,-0.06,-0.03,26.41
21499205,1925,1,207781,256777,0.51,-1.13,9.14,-0.04,0.01,-0.08,26.41
21539185,1911,1,207529,255185,0.34,-0.82,9.30,-0.02,-0.02,-0.00,26.41
21579205,1938,1,206507,254905,0.45,-1.15,9.72,0.02,-0.02,0.01,26.41
21619858,1905,1,205872,253610,0.73,-0.54,8.79,-0.01,-0.09,-0.01,26.37
21660205,1840,1,205823,255895,0.91,-1.60,10.16,-0.02,0.04,-0.00,26.37
21700182,1808,1,207078,255425,-0.01,0.02,7.74,0.01,0.01,0.01,26.37
21740200,1741,1,208146,258760,0.60,-1.00,10.98,0.03,0.11,0.01,26.37
21780151,1725,1,209754,259819,0.42,-0.98,10.03,0.03,0.02,0.00,26.37
21820152,1664,1,209755,258981,0.08,-0.30,9.77,-0.01,-0.04,0.00,26.37
21860182,1689,1,209688,257671,-0.26,-1.34,10.78,0.01,0.12,0.01,26.37
21900171,1717,1,208785,258818,0.86,0.27,11.47,0.04,-0.10,-0.00,26.37
21940215,1690,1,210450,260279,0.11,-1.08,11.90,0.00,0.08,0.01,26.37
21980152,1694,1,209112,259440,0.73,0.23,10.90,-0.02,-0.20,-0.00,26.37
22020182,1692,1,210161,259325,-0.28,-0.53,12.21,-0.05,0.11,0.01,26.37
22060184,1733,1,208293,257221,0.73,0.06,10.64,-0.03,-0.23,-0.01,26.37
22100184,1712,1,207513,255356,0.62,-0.40,10.70,-0.05,-0.04,-0.01,26.37
22140205,1712,1,207502,258507,0.69,-1.11,10.67,-0.04,-0.00,-0.04,26.37
22180205,1767,1,209480,256076,-0.29,-0.41,9.64,-0.03,0.10,0.00,26.37
22220184,1793,1,207136,256957,0.52,-0.79,11.71,0.10,-0.12,0.02,26.37
22260171,1825,1,207512,255701,0.44,-0.85,9.35,-0.08,-0.09,0.00,26.37
22300184,1856,1,206648,256203,0.54,-1.02,8.54,0.03,-0.01,0.06,26.37
22340171,1891,1,207989,257640,1.25,-0.54,10.85,-0.04,0.08,-0.03,26.37
22380184,1872,1,208247,258135,-0.02,-0.14,8.55,-0.06,-0.05,0.00,26.37
22420202,1878,1,208132,256945,0.73,-0.85,9.76,-0.05,-0.02,0.01,26.37
22460184,1863,1,206308,253716,0.68,0.07,8.85,-0.00,-0.15,0.01,26.37
22500171,1901,1,205074,252741,1.50,-0.35,11.11,0.09,0.05,0.00,26.37
22538152,1906,1,204422,250286,1.07,0.12,8.31,-0.01,-0.10,0.02,26.37
22578171,1862,1,203379,251074,0.70,-1.04,8.76,-0.04,-0.01,0.03,26.37
22618184,1804,1,204075,249905,0.42,-0.72,8.40,-0.05,0.18,0.02,26.37
22658858,1812,1,203484,252450,0.82,-1.07,10.83,-0.04,0.01,0.01,26.31
22699171,1845,1,204413,251865,0.49,0.05,9.73,0.03,0.09,0.01,26.31
22739132,1791,1,204039,254925,0.45,-0.60,11.48,-0.02,0.03,0.00,26.31
22779171,1815,1,205837,255668,0.36,-0.68,10.80,-0.02,0.11,0.00,26.31
22819171,1814,1,206007,257945,0.70,-0.22,11.58,0.02,-0.05,0.01,26.31
22859171,1815,1,206337,254143,0.40,-0.62,10.07,-0.02,0.05,0.08,26.31
22899171,1639,1,204855,255791,0.31,-1.22,11.34,-0.03,0.01,-0.00,26.31
22939184,1686,1,206693,255165,0.03,-0.83,10.90,-0.01,0.14,0.01,26.31
22979171,1712,1,205453,255491,0.99,-0.29,10.75,-0.02,-0.17,-0.02,26.31
23019205,1730,1,206678,256730,0.59,-1.09,11.06,-0.03,0.07,0.00,26.31
23059171,1791,1,205595,254727,0.28,-0.17,8.08,-0.03,-0.22,0.00,26.31
23099184,1781,1,205948,257703,0.68,-0.90,10.59,-0.01,0.06,0.00,26.31
23139171,1826,1,206627,256091,0.24,-0.04,9.75,-0.04,-0.05,0.00,26.31
23179184,1823,1,206112,256510,0.66,-1.13,11.33,-0.05,-0.00,0.00,26.31
23219184,1853,1,205321,253657,0.20,-0.32,10.10,-0.04,-0.02,0.10,26.31
23259184,1851,1,203464,251603,1.23,-0.40,10.97,0.02,-0.14,0.02,26.31
23299171,1870,1,203145,250799,0.41,-1.00,8.63,-0.07,0.01,0.06,26.31
23339171,1866,1,203964,253552,1.03,-0.84,9.63,-0.07,-0.01,-0.04,26.31
23379205,1842,1,206758,256161,0.26,-1.61,9.28,0.02,0.14,-0.19,26.31
23419171,1808,1,206309,254183,0.44,-0.51,9.16,-0.05,-0.14,-0.04,26.31
23459205,1751,1,205526,255744,0.38,-1.87,10.08,-0.03,0.07,-0.01,26.31
23499184,1993,1,205439,253149,0.35,0.24,8.86,-0.04,-0.13,-0.03,26.31
23539184,2103,1,204354,253679,0.17,-1.23,9.77,-0.02,0.03,-0.03,26.31
23579184,1808,1,205324,255742,0.47,-1.06,9.29,-0.01,0.08,-0.00,26.31
23619182,1813,1,206420,254972,0.63,-0.04,9.79,-0.01,0.03,-0.00,26.31
23659872,1813,1,205726,255140,0.42,-1.50,9.42,-0.03,0.03,-0.00,26.15
23698182,1903,1,206156,255329,0.85,-1.04,9.65,0.01,-0.05,-0.00,26.15
23738184,1886,1,206665,257149,0.22,-1.37,9.25,-0.04,-0.02,0.00,26.15
23778182,1925,1,207485,256694,0.33,-1.25,10.02,0.00,0.02,-0.00,26.15
23818171,1906,1,206088,254995,0.65,-0.41,10.31,-0.01,-0.08,-0.00,26.15
23858205,1942,1,206109,254712,0.32,-1.38,9.96,-0.03,0.03,-0.00,26.15
23898184,1907,1,205805,255306,0.33,-0.63,10.34,-0.01,-0.03,-0.01,26.15
23938205,1919,1,207549,257072,0.23,-1.26,11.37,-0.00,0.13,0.00,26.15
23978171,1904,1,206920,254682,-0.07,-0.24,10.01,-0.05,-0.05,0.00,26.15
24018203,1871,1,206064,255444,0.57,-1.41,12.03,-0.01,0.05,-0.00,26.15
24058184,1845,1,204782,252971,0.66,-0.25,9.79,-0.08,-0.18,0.01,26.15
24098184,1808,1,204105,253209,0.51,-0.96,10.38,-0.06,0.03,-0.01,26.15
24138184,1831,1,204672,254636,0.30,-0.63,9.42,-0.08,0.01,-0.01,26.15
24178182,1777,1,205974,254260,0.22,-1.52,9.48,-0.04,0.07,0.00,26.15
24218171,1793,1,205009,254752,0.72,-0.68,10.29,-0.05,-0.02,-0.00,26.15
24258203,1857,1,204906,253046,0.32,-1.39,9.29,-0.06,-0.06,-0.00,26.15
24298205,1863,1,203394,252013,0.75,-1.17,9.44,-0.07,-0.06,-0.01,26.15
24338205,1861,1,204026,253274,0.46,-2.48,9.35,-0.03,0.07,0.01,26.15
24378171,1890,1,204170,252426,0.69,-1.29,8.86,-0.02,-0.08,0.04,26.15
24418185,1893,1,204305,253961,0.01,-1.51,9.93,-0.03,0.06,0.01,26.15
24458171,1904,1,204313,252420,0.39,-0.60,9.36,-0.05,-0.10,0.01,26.15
24498183,1873,1,203434,252720,-0.06,-2.01,9.21,-0.04,0.01,0.00,26.15
24538184,1845,1,204184,252509,0.55,-0.48,10.72,-0.00,0.01,-0.01,26.15
24578184,1840,1,203815,252835,0.63,-1.12,10.07,-0.02,-0.10,-0.00,26.15
24618205,1875,1,204282,253764,0.07,-0.77,9.77,-0.05,0.01,-0.01,26.15
24658182,1861,1,205197,255567,0.31,-1.13,10.93,-0.02,0.01,-0.00,26.15
24698871,1823,1,205804,256947,0.41,-0.95,10.92,-0.03,-0.02,-0.01,26.17
24737205,1740,1,206411,255888,0.05,-0.37,10.71,-0.04,-0.00,-0.01,26.17
24777205,1730,1,205147,256005,0.59,-0.89,11.14,-0.04,-0.05,-0.01,26.17
24817205,1744,1,205482,254522,0.12,-0.94,10.75,-0.06,-0.02,-0.01,26.17
24857205,1808,1,204520,254395,0.67,-0.87,10.61,-0.06,-0.04,-0.01,26.17
24897205,1834,1,205197,254505,0.01,-1.26,9.84,-0.06,0.03,-0.01,26.17
24937184,1829,1,205065,253848,0.49,-0.78,9.82,-0.06,-0.01,-0.01,26.17
24977205,1838,1,205018,254922,0.44,-1.48,10.01,-0.04,-0.01,-0.00,26.17
25017250,1829,1,205618,253974,0.14,-0.41,9.78,-0.05,-0.04,-0.01,26.17
25057203,1821,1,203982,252818,0.67,-1.82,9.64,-0.05,-0.19,-0.01,26.17
25097205,1808,1,203800,254543,0.54,-0.76,10.30,-0.02,-0.06,-0.01,26.17
25137205,1840,1,204507,253858,1.01,-0.91,8.94,-0.03,-0.17,-0.01,26.17
25177205,1806,1,203964,252820,0.54,-0.92,8.68,-0.07,-0.03,-0.01,26.17
25217243,1803,1,204076,250746,-0.08,-1.00,9.33,-0.05,0.10,-0.00,26.17
25257205,1815,1,202722,249889,0.62,-1.41,9.57,-0.03,-0.05,-0.01,26.17
25297205,1783,1,203709,252137,0.51,-0.96,11.44,0.01,0.16,-0.00,26.17
25337171,1810,1,204578,254107,0.09,-1.76,9.79,-0.02,-0.07,0.00,26.17
25377182,1777,1,205367,253571,-0.06,-1.36,10.19,-0.01,0.08,-0.01,26.17
25417205,1765,1,204193,253933,0.07,-1.53,9.72,-0.06,-0.14,-0.00,26.17
25457205,1782,1,205057,254482,-0.31,-1.68,9.92,0.04,0.12,0.00,26.17
25497171,1790,1,205741,255630,-0.05,-0.49,11.25,-0.00,0.02,-0.00,26.17
25537203,1790,1,204957,254213,0.63,-0.29,10.86,-0.00,-0.11,-0.01,26.17
25577205,1770,1,205496,257889,-0.07,-1.64,10.01,-0.04,-0.04,0.00,26.17
25617203,1766,1,206514,255299,0.15,-0.91,8.71,-0.03,-0.08,-0.06,26.17
25657205,1755,1,205995,257603,0.28,-2.20,10.16,-0.03,0.05,-0.00,26.17
25697182,1825,1,207041,256118,-0.23,-1.29,9.53,-0.04,0.01,0.00,26.17
25737871,1811,1,206346,258240,0.90,-0.44,12.35,0.03,-0.00,-0.01,26.21
25778182,1869,1,206572,256824,0.35,-0.82,9.79,-0.07,-0.09,-0.01,26.21
25816205,1849,1,205791,256563,0.87,-0.67,9.91,-0.05,-0.03,-0.02,26.21
25856203,1859,1,205843,254438,-0.32,-1.44,7.90,-0.06,0.02,-0.01,26.21
25896205,1883,1,204664,252156,0.61,-0.41,8.75,-0.02,-0.03,-0.02,26.21
25936203,1855,1,204909,252531,1.04,-1.15,10.30,0.01,0.06,-0.02,26.21
25976171,1903,1,205654,253454,0.09,-0.62,8.60,-0.03,-0.03,-0.01,26.21
26016203,1870,1,206737,255525,0.66,-1.74,10.02,-0.02,0.00,-0.05,26.21
26056184,1885,1,206931,255366,0.35,-0.39,8.53,-0.04,-0.06,-0.02,26.21
26096205,1902,1,207587,257713,0.48,-1.72,9.71,0.00,0.05,0.02,26.21
26136152,1921,1,206735,256592,0.61,0.05,8.92,-0.02,-0.07,-0.00,26.21
26176182,1867,1,207175,258772,0.07,-1.77,10.51,-0.04,0.13,0.02,26.21
26216171,1908,1,206936,256310,0.39,-0.69,8.86,-0.05,-0.05,-0.01,26.21
26256203,1849,1,207412,257464,0.15,-1.19,11.35,-0.00,0.14,0.00,26.21
26296171,1915,1,207290,257195,0.31,-0.40,9.76,-0.02,-0.02,-0.01,26.21
26336203,1872,1,208258,258716,0.34,-0.65,12.06,0.01,0.08,-0.01,26.21
26376171,1873,1,207763,257602,0.31,-0.13,10.55,-0.08,-0.10,-0.02,26.21
26416205,1857,1,206646,256536,0.61,-0.84,11.13,-0.05,-0.05,-0.01,26.21
26456205,1847,1,205879,255092,0.28,-1.14,10.16,-0.05,-0.01,0.07,26.21
26496185,1851,1,205256,254395,0.23,-0.73,9.86,-0.05,-0.02,0.00,26.21
26536184,1835,1,205599,255919,0.31,-1.26,11.06,-0.06,0.06,-0.01,26.21
26576184,1841,1,205466,252388,0.19,-0.93,9.54,-0.12,-0.11,-0.01,26.21
26616205,1794,1,203956,251315,0.68,-1.46,10.14,-0.08,-0.03,-0.01,26.21
26656252,1770,1,204203,250943,0.50,-0.69,10.40,-0.03,-0.02,-0.01,26.21
26696205,1753,1,203532,250365,0.56,-0.18,9.10,-0.07,-0.08,0.05,26.21
26736182,1776,1,204123,251952,0.19,-1.09,9.60,-0.06,0.09,-0.01,26.21
26776871,1790,1,203690,250191,0.92,-0.60,8.44,-0.09,-0.17,-0.02,26.27
26817203,1776,1,203316,250964,0.56,-1.37,9.85,-0.05,0.05,-0.00,26.27
26857229,1808,1,202978,248965,0.43,-0.79,8.22,-0.06,-0.10,0.03,26.27
26897182,1798,1,202143,249821,0.92,-1.35,9.92,-0.01,0.01,0.00,26.27
26937171,1802,1,202917,252106,0.81,-0.62,10.57,-0.02,0.00,-0.01,26.27
26977183,1797,1,203717,252562,0.20,-1.21,9.83,-0.04,-0.03,-0.01,26.27
27017205,1837,1,203446,251642,0.24,-1.69,8.63,-0.03,0.02,-0.00,26.27
27057205,1839,1,203332,251939,0.47,-0.85,9.53,-0.02,0.04,-0.01,26.27
27097184,1855,1,203832,253631,0.13,-0.99,9.56,0.02,0.09,-0.00,26.27
27137171,1831,1,205082,255246,0.39,-0.89,9.94,-0.04,0.01,-0.02,26.27
27177184,1808,1,205985,256583,0.13,-0.79,9.53,-0.03,0.01,-0.06,26.27
27217184,1791,1,206906,257733,0.34,-1.05,10.79,-0.01,0.03,-0.03,26.27
27255184,1821,1,206605,254342,0.03,-0.93,9.56,-0.02,-0.03,-0.03,26.27
27296203,1809,1,205379,254040,-0.79,-1.64,9.52,-0.03,0.06,0.00,26.27
27336184,1840,1,206664,255482,0.47,-1.67,11.39,0.01,0.11,-0.01,26.27
27376171,1829,1,206180,254612,0.06,-1.12,10.36,0.00,-0.13,-0.01,26.27
27416184,1837,1,206910,256743,0.02,-1.63,10.48,-0.03,0.05,-0.00,26.27
27456185,1850,1,207092,256931,0.34,-1.20,9.81,-0.01,-0.12,-0.01,26.27
27496205,1856,1,207815,259651,0.49,-1.36,11.00,0.01,0.01,-0.04,26.27
27536171,1873,1,208589,259331,0.19,-0.60,9.42,-0.08,-0.09,-0.04,26.27
27576205,1854,1,207330,256961,0.54,-1.24,10.18,-0.04,-0.08,-0.01,26.27
27616206,1831,1,206736,255932,0.14,-1.48,10.35,-0.05,-0.01,-0.00,26.27
27656205,1856,1,205151,253368,0.66,-0.73,9.70,-0.02,-0.10,-0.01,26.27
27696203,1840,1,204578,253151,0.51,-0.92,9.22,-0.04,0.03,-0.01,26.27
27736184,1826,1,205297,255513,0.10,-0.73,9.40,-0.07,0.05,-0.01,26.27
27776869,1813,1,206619,256321,0.55,-0.31,9.93,-0.03,-0.01,-0.08,26.21
27815205,1827,1,206894,258934,0.27,-1.38,9.53,-0.08,-0.05,-0.02,26.21
27855205,1833,1,207319,256922,0.56,-0.66,9.43,-0.01,-0.04,-0.04,26.21
27895205,1823,1,206500,258082,0.63,-0.94,9.26,-0.03,0.00,-0.01,26.21
27935182,1839,1,207381,256331,0.43,-0.74,9.17,-0.04,0.09,-0.11,26.21
27975184,1806,1,207548,256408,0.27,-0.93,9.76,-0.05,0.09,-0.07,26.21
28015183,1820,1,207626,255710,0.17,-1.02,9.17,-0.04,0.03,-0.03,26.21
28055184,1792,1,207942,255624,0.39,-0.88,10.83,-0.01,0.09,0.01,26.21
28095171,1836,1,207045,254959,0.56,-0.92,10.06,0.00,0.00,-0.00,26.21
28135171,1808,1,207997,256200,0.55,-0.88,10.88,-0.03,0.09,-0.01,26.21
28175184,1814,1,207310,255869,0.72,-0.96,9.90,-0.03,-0.11,-0.00,26.21
28215205,1792,1,208292,256695,-0.05,-1.35,11.11,-0.00,0.03,0.01,26.21
28255182,1797,1,206706,253728,0.42,-1.05,9.66,-0.01,-0.20,0.02,26.21
28296185,1791,1,205782,253244,0.75,-0.63,11.06,0.00,-0.04,-0.01,26.21
28336182,1839,1,205762,254710,0.38,-0.84,10.57,-0.03,-0.03,-0.01,26.21
28376205,1808,1,205885,253584,0.52,-0.41,9.75,-0.03,-0.09,-0.01,26.21
28416203,1808,1,205627,254081,-0.17,-1.57,9.67,-0.06,0.04,0.00,26.21
28456184,1854,1,204788,251824,0.74,-0.67,9.95,0.00,-0.07,0.00,26.21
28496171,1813,1,203460,251839,0.20,-0.91,10.40,-0.03,0.00,0.09,26.21
28536171,1822,1,203889,251985,0.42,-0.85,9.23,-0.05,0.01,0.00,26.21
28576171,1802,1,203699,251274,0.27,-0.78,9.33,-0.07,0.02,-0.01,26.21
28616184,1810,1,203889,253517,0.36,-1.56,11.23,-0.01,0.12,0.02,26.21
28656171,1799,1,204324,250412,0.35,-0.35,10.02,0.01,-0.03,0.02,26.21
28696184,1774,1,202205,248839,0.79,-1.82,11.27,-0.00,-0.07,0.06,26.21
28736185,1795,1,201889,248703,0.50,-0.99,9.10,-0.08,-0.09,0.05,26.21
28776872,1798,1,202153,248900,0.36,-1.19,9.31,-0.01,-0.07,-0.02,26.17
28815206,1836,1,202136,249488,0.55,-1.35,9.44,-0.07,-0.01,-0.01,26.17
28855206,1834,1,203148,250323,0.49,-1.23,10.09,-0.00,0.08,0.01,26.17
28895171,1839,1,202463,248812,0.71,-0.38,9.72,-0.05,-0.04,-0.01,26.17
28935205,1865,1,202593,249234,0.21,-1.37,10.02,-0.04,0.11,-0.01,26.17
28975185,1905,1,202155,248326,0.02,0.13,8.69,-0.05,-0.06,0.05,26.17
29015171,1857,1,202491,249045,0.79,0.20,11.64,0.02,0.13,0.01,26.17
29055132,1919,1,201899,248713,0.70,-0.52,9.24,-0.08,-0.10,0.14,26.17
29095183,1859,1,202695,249757,0.61,-0.89,10.56,0.03,0.06,0.01,26.17
29135151,1887,1,202098,249602,0.42,-0.59,8.25,-0.06,-0.15,0.04,26.17
29175184,1863,1,203022,250947,0.41,-1.60,9.78,-0.03,0.05,0.01,26.17
29215171,1853,1,203257,252427,0.35,-1.37,9.91,-0.02,0.05,0.01,26.17
29255171,1859,1,203778,251804,0.41,-0.70,10.56,-0.03,0.03,0.00,26.17
29295171,1815,1,202872,251978,0.33,-0.51,10.63,-0.03,-0.01,0.01,26.17
29334184,1839,1,203218,252421,0.72,-0.64,10.85,-0.01,-0.04,-0.00,26.17
29374205,1844,1,203317,252870,0.51,-0.37,10.54,-0.03,-0.01,-0.01,26.17
29414205,1861,1,203749,254104,0.62,-1.24,10.44,-0.01,-0.01,0.01,26.17
29454184,1867,1,204044,254490,0.37,-0.75,10.81,-0.04,-0.04,0.01,26.17
29494184,1870,1,203618,253168,0.26,-1.02,10.56,-0.03,-0.04,0.03,26.17
29534185,1835,1,202575,251140,0.62,-0.23,10.01,-0.08,-0.09,0.06,26.17
29574184,1813,1,202151,248827,0.74,-0.52,9.74,-0.05,0.04,-0.01,26.17
29614183,1776,1,202057,249988,0.69,-0.90,9.42,-0.06,-0.04,-0.03,26.17
29654205,1795,1,204258,251498,0.52,-1.12,9.86,-0.03,0.03,0.00,26.17
29694171,1776,1,203302,249882,0.66,-0.68,8.70,-0.08,-0.14,-0.01,26.17
29734205,1791,1,203244,249254,0.41,-1.30,9.48,-0.04,0.02,-0.01,26.17
29774182,1797,1,202138,247786,0.62,-0.73,9.14,-0.06,-0.15,-0.02,26.17
29814893,1813,1,201694,247041,0.66,-1.11,9.16,-0.01,-0.05,-0.06,26.35
29855205,1822,1,201322,247800,1.05,-1.05,9.50,-0.00,-0.02,-0.00,26.35
29895205,1825,1,201888,246735,0.67,-0.65,9.01,0.00,0.01,0.01,26.35
29935150,1823,1,201028,246908,0.09,-1.14,8.87,-0.02,0.06,0.02,26.35
29975171,1835,1,201594,248077,0.50,-0.85,9.94,0.01,0.04,0.01,26.35
30015151,1818,1,201939,250433,0.45,-0.79,9.89,-0.01,0.03,0.00,26.35
30055171,1855,1,203692,253976,0.60,-0.89,10.09,0.00,0.07,0.00,26.35
30095151,1855,1,205083,256014,0.19,-1.12,10.11,-0.01,0.03,0.07,26.35
30135177,1854,1,205454,256251,0.52,-0.84,10.36,0.00,0.00,-0.03,26.35
30175171,1837,1,205625,256006,0.31,-1.08,10.64,-0.03,-0.00,-0.01,26.35
30215205,1846,1,204729,254609,0.87,-0.62,9.48,-0.02,-0.08,-0.00,26.35
30255203,1840,1,205332,256011,0.32,-1.21,10.49,-0.00,0.01,0.00,26.35
30295171,1843,1,205536,255645,0.38,-0.52,10.14,-0.03,-0.03,-0.02,26.35
30333213,1856,1,205104,255858,0.26,-0.36,10.53,-0.02,-0.05,0.00,26.35
30374184,1876,1,204597,253046,0.17,-0.83,10.82,-0.03,-0.02,0.01,26.35
30414184,1876,1,201961,248379,0.64,-0.44,9.82,-0.06,-0.12,-0.01,26.35
30454204,1872,1,202145,249549,0.06,-1.22,10.26,-0.04,0.16,0.01,26.35
30494171,1871,1,202628,250360,0.29,-0.71,9.52,-0.04,-0.03,0.00,26.35
30534184,1859,1,203225,252078,0.72,-1.03,11.40,-0.03,0.05,0.00,26.35
30574171,1857,1,203073,252102,0.27,-1.21,9.88,-0.06,-0.09,0.02,26.35
30614184,1835,1,202732,250108,0.73,-0.86,10.04,-0.02,-0.07,-0.01,26.35
30654205,1852,1,202070,250394,0.27,-1.73,9.57,-0.05,-0.03,-0.00,26.35
30694205,1859,1,202161,249724,0.87,-1.11,9.85,-0.03,-0.09,-0.01,26.35
30734205,1845,1,202105,250775,0.77,-1.00,9.87,-0.05,-0.01,-0.02,26.35
30774205,1859,1,202677,251601,0.29,-0.75,9.24,-0.05,-0.01,-0.01,26.35
30814892,1834,1,203026,251926,0.27,-0.93,9.96,-0.04,0.01,-0.01,26.23
30853184,1851,1,202934,253074,0.62,-1.48,9.62,-0.04,0.00,-0.01,26.23
30893184,1866,1,203898,253786,0.14,-1.07,9.50,-0.01,0.05,-0.00,26.23
30933184,1859,1,203649,254691,0.48,-0.96,9.48,-0.04,-0.02,0.00,26.23
30973182,1855,1,204630,256667,0.64,-1.69,10.19,-0.03,0.03,-0.01,26.23
31013183,1856,1,204862,256120,0.32,-0.79,8.83,-0.10,-0.05,0.02,26.23
31053182,1840,1,205674,258270,0.44,-1.99,9.84,-0.02,0.11,-0.00,26.23
31093184,1854,1,206286,256019,0.16,-0.15,9.21,-0.07,-0.00,-0.03,26.23
31133203,1813,1,205237,253491,0.54,-1.23,10.81,-0.03,0.06,-0.02,26.23
31173184,1845,1,205381,255391,0.22,-1.08,10.71,-0.05,0.08,-0.02,26.23
31213184,1839,1,206346,255987,0.28,-1.00,10.71,-0.01,-0.01,-0.09,26.23
31253205,1802,1,206168,256433,0.35,-1.25,10.35,-0.07,-0.06,-0.03,26.23
31293205,1823,1,205702,253470,0.58,-1.14,10.22,-0.04,-0.03,0.02,26.23
31333184,1809,1,204089,253052,-0.09,-1.30,9.60,-0.04,-0.05,0.02,26.23
31374202,1831,1,205069,254160,0.15,-1.74,10.35,-0.00,0.12,-0.00,26.23
31414183,1781,1,205324,254636,-0.09,-1.52,10.41,-0.04,0.01,-0.00,26.23
31454205,1758,1,204032,251727,0.53,-1.26,9.71,-0.06,-0.09,-0.01,26.23
31494205,1770,1,203669,252222,-0.17,-2.17,9.98,-0.02,0.05,0.04,26.23
31534184,1799,1,202811,250315,1.12,-0.86,8.44,-0.03,-0.17,0.05,26.23
31574184,1773,1,203400,254599,0.59,-1.22,9.42,-0.02,0.08,-0.01,26.23
31614184,1805,1,206173,256534,0.58,-0.52,8.61,-0.02,0.02,-0.23,26.23
31654184,1783,1,206448,255679,0.57,-1.17,10.91,0.02,0.02,-0.05,26.23
31694171,1793,1,205472,255261,0.03,-1.01,10.44,-0.03,0.01,-0.00,26.23
31734184,1791,1,205147,255472,0.26,-2.11,10.10,0.04,-0.00,0.01,26.23
31774171,1785,1,205143,256706,0.73,-0.69,10.64,-0.03,-0.06,-0.01,26.23
31814205,1776,1,206059,254532,0.02,-1.70,9.25,-0.03,-0.02,-0.00,26.23
31852890,1809,1,203439,249752,0.70,-0.94,9.08,-0.02,-0.15,-0.02,26.27
31893205,1785,1,203256,249916,0.44,-2.26,11.15,0.02,0.10,0.01,26.27
31933150,1831,1,202236,248709,0.57,-0.42,9.67,-0.00,-0.14,-0.00,26.27
31973215,1810,1,202431,249408,0.50,-0.89,10.90,-0.01,0.03,-0.01,26.27
32013182,1857,1,201572,248747,0.47,-0.55,10.02,-0.04,-0.19,-0.01,26.27
32053205,1845,1,201283,248814,0.56,-0.75,10.65,0.01,-0.07,-0.03,26.27
32093184,1875,1,201149,248211,-0.38,-1.91,7.82,-0.11,-0.10,0.09,26.27
32133205,1857,1,201014,247317,0.73,-0.97,9.39,-0.04,-0.00,-0.00,26.27
32173203,1797,1,200651,246788,0.69,-0.62,9.39,-0.05,-0.00,0.04,26.27
32213184,1777,1,200544,247098,0.87,-0.91,9.59,-0.04,-0.01,-0.00,26.27
32253203,1777,1,200859,248166,0.55,-0.22,9.95,-0.02,-0.06,-0.01,26.27
32293205,1776,1,201291,250327,0.77,-0.97,10.64,-0.06,-0.01,-0.00,26.27
32333205,1792,1,201685,249694,0.56,-0.58,9.67,-0.01,-0.06,0.05,26.27
32373184,1750,1,201370,249591,0.43,-0.99,10.07,-0.03,-0.02,0.00,26.27
32413182,1756,1,201121,249741,0.37,-1.08,10.28,-0.07,-0.05,-0.02,26.27
32453205,1758,1,201774,250731,0.42,-0.85,9.83,-0.01,0.07,-0.00,26.27
32493182,1774,1,201474,250123,1.11,-0.84,9.10,-0.04,-0.16,-0.01,26.27
32533205,1786,1,201550,248821,0.68,-1.06,9.11,-0.03,0.01,0.00,26.27
32573171,1776,1,201164,247317,0.19,-1.62,8.72,-0.04,-0.01,0.03,26.27
32613184,1791,1,200687,247265,0.81,-0.81,9.47,-0.05,-0.04,-0.01,26.27
32653203,1805,1,201226,249930,0.38,-0.87,10.84,0.01,0.08,0.01,26.27
32693153,1838,1,201089,247939,0.47,0.29,8.68,-0.11,-0.15,-0.02,26.27
32733184,1812,1,201155,248982,0.65,-1.25,11.09,-0.02,0.22,0.02,26.27
32773171,1845,1,200901,247179,0.33,0.03,8.47,-0.08,-0.17,0.14,26.27
32813171,1819,1,200818,248962,1.59,-0.78,10.98,0.01,0.17,-0.02,26.27
32853171,1911,1,201167,248109,0.55,-0.42,8.66,-0.08,-0.05,0.00,26.27
32893869,1885,1,201368,249405,0.21,-1.14,9.74,-0.04,0.14,0.00,26.37
32932171,1914,1,201297,248859,0.67,-0.37,9.71,-0.02,-0.01,-0.00,26.37
32972203,1867,1,201478,249848,0.35,-0.64,11.24,0.02,0.07,0.00,26.37
33012150,1838,1,200836,248498,1.15,-0.66,9.41,-0.06,-0.16,-0.01,26.37
33052205,1817,1,201255,250644,0.21,-2.02,10.24,-0.00,0.16,0.01,26.37
33092171,1817,1,201565,250533,0.53,-0.53,9.80,-0.02,-0.06,-0.01,26.37
33132203,1819,1,201665,252728,0.29,-1.30,11.98,-0.04,0.10,-0.00,26.37
33172184,2209,1,201924,252581,0.31,-0.40,10.20,-0.06,-0.09,0.07,26.37
33212182,2064,1,201653,251865,0.55,-1.38,11.79,0.05,-0.01,0.02,26.37
33252171,2039,1,201221,250581,0.36,-1.06,10.42,-0.06,-0.07,0.01,26.37
33292184,2011,1,201107,250958,0.50,-1.59,10.72,-0.07,-0.04,-0.01,26.37
33332205,1994,1,201217,249981,0.56,-1.06,9.62,-0.09,-0.14,-0.01,26.37
33372205,1961,1,201351,250262,0.45,-1.65,9.86,-0.07,0.03,-0.01,26.37
33412184,1942,1,201287,249245,0.43,-0.47,9.22,-0.05,-0.10,-0.01,26.37
33452203,1921,1,201475,250404,0.22,-0.86,9.24,-0.04,-0.00,-0.02,26.37
33492205,1933,1,201488,249400,0.73,-0.19,8.51,-0.08,-0.07,-0.03,26.37
33532203,1883,1,201479,249531,0.62,-0.97,8.94,-0.04,0.02,-0.03,26.37
33572184,1877,1,201488,249225,0.36,-0.66,8.80,-0.05,-0.03,-0.01,26.37
33612203,1851,1,201667,249523,0.55,-1.16,9.83,0.00,0.04,0.00,26.37
33652152,1859,1,201420,249791,0.76,-0.91,9.48,-0.05,-0.05,-0.01,26.37
33692205,1853,1,201664,250177,0.21,-1.20,9.65,-0.01,0.03,-0.00,26.37
33732184,1872,1,201229,249496,1.02,-0.55,9.10,-0.04,-0.06,-0.02,26.37
33772203,1847,1,201348,251043,0.32,-1.23,9.14,-0.00,0.07,0.00,26.37
33812171,1819,1,202544,254227,0.43,-1.19,10.12,0.00,0.07,-0.00,26.37
33852171,1777,1,203510,253459,0.33,-0.19,9.80,0.03,0.05,-0.11,26.37
33892171,1776,1,203043,252470,0.06,-1.35,11.16,0.01,0.03,0.00,26.37
33932839,1771,1,202301,252798,0.35,-1.37,10.74,0.00,-0.02,-0.00,26.15
33971184,1744,1,202550,252662,0.38,-1.08,10.93,0.03,-0.02,-0.00,26.15
34011182,1777,1,201994,252819,0.66,-1.67,10.80,-0.03,-0.11,-0.01,26.15
34051205,1790,1,202362,251703,0.20,-1.46,9.28,-0.03,-0.06,-0.01,26.15
34091205,1766,1,202138,252951,0.50,-0.57,10.55,-0.02,-0.00,-0.01,26.15
34131205,1770,1,202606,252893,-0.03,-1.23,9.68,-0.05,-0.02,-0.01,26.15
34171219,1783,1,202271,251917,0.68,-0.78,9.78,-0.05,-0.01,-0.01,26.15
34211205,1798,1,202089,251910,0.10,-1.44,8.86,-0.08,0.03,-0.01,26.15
34251182,1810,1,202388,253073,0.97,-0.67,10.08,-0.05,0.02,-0.01,26.15
34291184,1783,1,202854,252302,0.43,-1.07,8.68,-0.08,-0.01,-0.00,26.15
34331203,1778,1,202506,253602,0.88,-1.75,10.19,-0.05,-0.02,-0.01,26.15
34371205,1804,1,202937,251525,0.14,-0.40,9.51,-0.08,-0.02,-0.01,26.15
34411203,1767,1,201702,251207,0.15,-2.26,9.18,-0.09,0.03,0.04,26.15
34451171,1790,1,202004,250350,0.57,0.49,10.36,0.02,0.08,-0.00,26.15
34491151,1776,1,201113,248296,0.32,-2.02,9.75,-0.05,-0.05,0.06,26.15
34531184,1844,1,200485,246959,0.40,-0.46,8.10,-0.07,-0.01,-0.03,26.15
34571203,1793,1,201340,249634,0.73,-1.89,11.02,-0.02,0.10,-0.00,26.15
34611184,1818,1,200717,246709,0.60,-0.16,8.52,-0.03,-0.14,-0.01,26.15
34651205,1767,1,200408,248854,0.47,-2.29,10.59,-0.03,0.12,0.02,26.15
34691171,1851,1,200615,248003,0.86,-0.45,10.20,-0.02,-0.12,0.03,26.15
34731184,1802,1,200493,249162,0.82,-1.19,10.29,-0.03,-0.04,-0.00,26.15
34771205,1872,1,201007,249267,0.04,-1.37,9.27,-0.05,0.03,0.00,26.15
34811171,1853,1,200954,249968,0.50,-0.06,10.47,-0.07,0.00,-0.01,26.15
34851184,1841,1,201669,250761,-0.07,-1.99,10.47,-0.02,0.16,0.02,26.15
34891184,1856,1,201230,250785,0.10,-1.03,10.43,-0.04,-0.09,0.04,26.15
34931184,1807,1,201529,251686,0.39,-1.93,10.54,-0.02,0.05,0.01,26.15
34971858,1809,1,201435,253111,0.45,-1.21,10.67,-0.08,-0.12,-0.01,25.97
35010205,1822,1,202113,252231,0.01,-1.64,9.60,-0.05,0.03,-0.00,25.97
35050193,1839,1,201451,252487,0.51,-0.98,9.25,-0.08,-0.09,-0.01,25.97
35090205,1836,1,202365,251079,0.28,-0.62,10.09,-0.03,0.12,-0.00,25.97
35130182,1858,1,200965,247808,0.39,-0.78,8.48,-0.07,-0.10,-0.02,25.97
35170205,1895,1,201169,247557,0.17,-0.99,10.26,-0.01,0.21,-0.03,25.97
35210184,1936,1,200699,248019,0.57,-1.34,9.12,-0.04,-0.16,-0.02,25.97
35250205,1938,1,201438,248961,0.64,-0.90,10.41,-0.02,0.07,-0.04,25.97
35290182,1962,1,201485,250640,-0.35,-1.46,8.75,-0.04,-0.02,0.02,25.97
35330205,1933,1,201673,248096,1.13,-0.61,9.99,0.01,-0.09,-0.01,25.97
35370184,1914,1,200574,247251,0.05,-0.70,8.78,-0.05,-0.01,-0.01,25.97
35410205,1959,1,200614,247098,0.86,-1.24,9.60,-0.01,0.05,-0.01,25.97
35450182,1901,1,201277,248158,0.07,-0.61,9.26,-0.01,0.11,-0.01,25.97
35490184,1897,1,202698,251416,0.35,-1.52,9.67,0.02,0.10,-0.01,25.97
35530171,1872,1,204002,252586,0.13,-0.46,9.64,-0.00,-0.03,0.01,25.97
35570184,1859,1,203629,253020,0.89,-1.79,9.30,0.00,-0.07,-0.00,25.97
35610182,1855,1,204670,256582,0.11,-1.23,9.94,0.00,0.01,-0.00,25.97
35650171,1835,1,205566,256332,0.50,-1.10,10.78,0.00,-0.00,-0.04,25.97
35690182,1789,1,203996,255454,0.11,-1.32,9.44,-0.09,-0.07,-0.01,25.97
35730205,1809,1,204577,256822,0.51,-0.84,11.95,0.06,0.10,0.01,25.97
35770170,1791,1,204552,256441,0.23,-0.68,10.96,0.01,-0.09,0.03,25.97
35810171,1746,1,204391,256393,-0.10,-1.54,11.57,-0.04,0.09,-0.01,25.97
35850206,1808,1,203083,251437,0.56,-0.80,11.52,-0.08,-0.13,-0.01,25.97
35890205,1775,1,200855,250794,0.64,-1.23,10.86,-0.03,-0.07,-0.01,25.97
35930205,1824,1,201405,250589,0.47,-0.75,9.19,-0.10,-0.09,-0.02,25.97
35970205,1809,1,201973,252500,1.07,-1.20,10.48,-0.05,-0.04,-0.02,25.97
36010893,1814,1,202620,250455,0.51,0.19,8.25,-0.13,-0.10,-0.04,25.99
36051184,1795,1,202756,252240,0.77,-0.86,8.60,-0.09,0.04,-0.09,25.99
36091182,1754,1,203292,250956,0.89,0.38,7.91,-0.08,-0.07,-0.03,25.99
36131184,1808,1,205131,255300,0.56,-0.99,10.12,-0.04,0.28,-0.04,25.99
36171184,1867,1,205311,253494,0.45,0.58,8.53,-0.05,-0.02,-0.03,25.99
36211184,1839,1,203511,252521,1.15,-1.66,10.43,-0.04,-0.03,0.02,25.99
36251184,1853,1,201940,248802,0.69,-0.58,8.03,-0.04,-0.10,0.09,25.99
36291181,1855,1,200484,247808,0.42,-1.76,9.26,-0.01,0.02,0.09,25.99
36331171,1855,1,200148,247531,1.32,-0.94,9.83,0.02,0.09,0.07,25.99
36371152,1815,1,200766,249939,0.87,-0.48,10.24,0.02,0.02,0.03,25.99
36411151,1819,1,202002,251657,0.37,-0.83,10.44,0.02,0.07,0.00,25.99
36451152,1819,1,202023,251559,0.44,-0.83,10.06,0.04,-0.05,0.02,25.99
36491171,2107,1,202007,251723,0.34,-0.74,11.11,0.01,0.03,-0.00,25.99
36531171,1968,1,201643,251416,0.47,-1.58,11.06,-0.02,-0.04,-0.01,25.99
36571205,1856,1,201757,251417,0.50,-1.07,11.16,-0.01,-0.07,-0.00,25.99
36609205,1824,1,201819,251111,0.27,-1.07,10.46,0.00,-0.02,0.02,25.99
36649171,1823,1,201820,251481,0.38,-0.45,11.50,-0.01,-0.04,0.00,25.99
36689184,1826,1,202068,250857,0.23,-0.96,11.05,-0.03,-0.02,-0.01,25.99
36729205,1964,1,201801,252362,0.51,-0.56,10.71,-0.08,-0.05,-0.01,25.99
36769205,1984,1,203030,251538,0.12,-1.15,9.34,-0.08,-0.03,-0.00,25.99
36809203,1969,1,202442,252056,0.84,-0.55,8.95,-0.09,-0.10,-0.01,25.99
36849205,1941,1,204687,254393,0.41,-2.00,9.25,-0.05,0.05,0.00,25.99
36889171,1942,1,204052,252426,0.61,-0.34,7.90,-0.10,-0.20,-0.02,25.99
36929205,1936,1,204546,252911,1.00,-1.03,9.39,-0.07,0.10,-0.03,25.99
36969182,1926,1,203503,253826,0.74,-0.61,7.97,-0.08,-0.12,-0.00,25.99
37009205,1905,1,204680,252696,0.53,-0.78,9.80,0.00,0.08,0.04,25.99
37049838,1901,1,202735,251603,0.74,-1.18,8.39,-0.06,-0.04,0.02,25.93
37090184,1905,1,203222,253269,0.32,-1.01,10.40,-0.01,0.15,0.02,25.93
37130171,1838,1,202891,252710,0.41,-0.85,10.07,-0.02,0.01,0.03,25.93
37170171,1840,1,201889,251287,0.71,-0.37,9.25,-0.04,-0.13,0.00,25.93
37210182,1907,1,202063,252889,0.65,-1.10,10.28,0.01,0.09,0.03,25.93
37250152,1818,1,202729,251955,0.41,-0.77,8.55,-0.02,0.01,0.00,25.93
37290171,1821,1,203590,253326,0.26,-0.36,11.05,0.01,0.15,0.00,25.93
37330152,1821,1,203574,253160,0.02,-0.94,10.78,-0.01,0.01,0.02,25.93
37370171,1887,1,202085,250077,0.40,-0.03,10.80,0.00,-0.06,0.00,25.93
37410171,2386,1,201399,253242,0.06,-1.05,11.84,-0.01,0.05,0.01,25.93
37450171,2357,1,202635,252154,0.64,-0.28,10.95,-0.01,-0.08,-0.00,25.93
37490205,1823,1,202311,252533,0.92,-1.41,10.58,-0.05,-0.10,-0.00,25.93
37530205,1815,1,203912,253968,0.05,-1.50,9.79,-0.03,0.04,0.01,25.93
37570171,1819,1,204002,254130,0.60,-0.79,9.76,-0.04,-0.11,0.00,25.93
37610182,1817,1,203881,253310,0.68,-1.70,10.26,0.00,-0.03,0.01,25.93
37650171,1965,1,203214,252422,0.41,-0.54,10.09,-0.05,-0.08,0.00,25.93
37690182,1983,1,203230,253116,-0.08,-2.37,8.61,-0.05,0.05,0.01,25.93
37730184,2009,1,204214,254361,0.54,-1.35,10.51,0.01,0.04,0.00,25.93
37770150,2000,1,203336,252975,0.51,-1.32,8.83,-0.07,-0.14,-0.00,25.93
37810205,2007,1,202901,253756,0.98,-0.86,8.77,-0.02,-0.08,-0.00,25.93
37850203,2010,1,203890,255335,0.87,-1.34,10.09,0.00,-0.02,0.00,25.93
37890171,1998,1,203708,253623,0.22,-0.14,8.57,-0.04,-0.07,-0.01,25.93
37930205,1987,1,204091,254483,0.52,-0.96,10.84,-0.02,0.12,0.01,25.93
37970171,2017,1,203612,253430,0.28,-0.47,8.83,-0.01,-0.06,-0.00,25.93
38010205,1965,1,203671,254212,0.67,0.16,10.95,-0.03,0.04,-0.00,25.93
38050858,1968,1,203518,254424,0.25,-2.06,8.35,-0.09,-0.05,0.01,25.97
38089184,1903,1,204423,253878,1.02,-1.41,10.72,0.04,0.01,0.01,25.97
38129153,1839,1,203344,252536,0.56,-1.22,9.98,-0.04,-0.13,0.01,25.97
38169184,1856,1,202345,251085,0.95,-0.16,9.84,-0.06,-0.09,-0.01,25.97
38209205,1824,1,202429,251284,0.12,-0.60,10.57,-0.05,0.02,-0.00,25.97
38249182,1822,1,201840,249692,0.80,0.10,9.61,-0.03,-0.05,-0.01,25.97
38289184,1793,1,202888,251239,0.10,-0.86,10.54,-0.05,0.16,0.01,25.97
38329209,1793,1,203102,251918,0.40,-1.32,10.57,-0.02,-0.01,0.00,25.97
38369184,1773,1,203056,252524,0.43,-0.27,10.92,-0.01,-0.04,0.00,25.97
38409184,1759,1,202918,253105,0.23,-1.70,10.41,-0.04,-0.03,0.00,25.97
38449184,1769,1,201769,251344,1.37,0.19,11.14,-0.08,-0.23,-0.04,25.97
38489184,1724,1,202780,254095,0.07,-2.08,10.03,-0.06,0.14,0.02,25.97
38529188,1782,1,202883,252232,0.74,0.35,9.07,-0.05,-0.16,-0.01,25.97
38569182,1759,1,203673,254754,0.93,-1.62,12.06,-0.05,0.14,0.01,25.97
38609171,1894,1,202633,252142,0.55,-0.53,8.00,-0.14,-0.29,-0.01,25.97
38649205,1827,1,203037,250341,0.42,-1.36,8.97,-0.04,0.11,0.00,25.97
38689171,1908,1,202000,249903,0.33,-1.30,8.31,-0.18,0.15,0.00,25.97
38729171,1822,1,202718,248864,1.00,-1.58,8.79,0.02,0.09,0.11,25.97
38769152,1858,1,201488,249615,0.12,-1.27,7.17,-0.10,-0.16,-0.00,25.97
38809205,2315,1,202735,248627,1.13,-0.74,8.72,-0.03,0.15,0.01,25.97
38849171,1965,1,201601,249421,0.52,-0.80,9.15,-0.11,0.03,-0.01,25.97
38889182,2139,1,202910,249088,1.05,-0.11,10.68,0.10,0.10,-0.19,25.97
38929171,1949,1,201398,251021,0.43,-1.20,10.26,-0.08,-0.24,-0.02,25.97
38969205,1953,1,201952,249546,-0.31,-1.03,10.96,-0.01,0.11,0.18,25.97
39009179,2166,1,199768,247966,0.66,-0.51,9.03,-0.10,-0.32,-0.00,25.97
39049202,1871,1,201179,251821,1.03,-1.31,12.04,-0.01,0.29,0.02,25.97
39089859,1817,1,201174,252004,0.29,0.81,10.38,-0.11,-0.20,0.01,25.93
39128171,1821,1,201574,252429,0.27,-0.76,13.80,0.04,0.20,-0.20,25.93
39168171,2259,1,200898,249871,0.67,0.49,9.31,-0.15,-0.31,-0.01,25.93
39208181,2462,1,201108,252058,-0.00,-2.01,10.89,-0.03,0.17,0.01,25.93
39248184,1813,1,201724,252748,0.39,-0.25,8.73,-0.07,-0.14,-0.00,25.93
39288205,1818,1,204362,255014,0.55,-2.37,9.72,-0.01,0.12,-0.12,25.93
39328184,1815,1,203719,253624,0.99,-0.88,8.62,-0.08,-0.31,-0.04,25.93
39368205,1922,1,204064,251969,0.05,-1.65,8.88,-0.03,-0.02,-0.04,25.93
39408205,2110,1,202501,251285,1.02,-0.94,7.14,-0.01,-0.17,-0.01,25.93
39448205,2067,1,204599,255032,0.68,-1.33,12.24,0.09,0.20,-0.45,25.93
39488171,2213,1,203974,254086,0.26,-1.28,5.53,-0.10,-0.28,-0.01,25.93
39528206,2053,1,204719,255315,0.93,-0.91,12.89,0.05,0.24,-0.14,25.93
39568171,2071,1,203567,253988,0.08,-1.45,7.70,0.06,-0.20,0.11,25.93
39608171,1813,1,203764,256269,0.84,-1.17,10.56,0.04,-0.04,0.02,25.93
39648171,1813,1,204474,253787,0.82,-1.94,8.17,0.02,0.01,0.01,25.93
39688151,1815,1,204839,253149,0.00,-0.58,7.75,0.03,0.02,-0.00,25.93
39728171,1813,1,206622,254326,-0.04,-2.64,9.92,0.04,0.30,-0.07,25.93
39768183,1905,1,205749,251654,-0.08,-0.77,8.38,0.03,-0.07,-0.01,25.93
39808205,1897,1,204636,251007,0.43,-1.73,11.16,0.10,0.04,0.05,25.93
39848151,2028,1,205147,249061,-0.27,-1.35,9.11,0.03,-0.03,0.23,25.93
39888184,1994,1,200502,241776,0.19,-0.91,9.40,-0.00,-0.12,0.33,25.93
39928184,2043,1,199534,247470,0.01,-1.12,10.32,0.02,0.05,-0.01,25.93
39968177,2068,1,201973,250189,0.62,0.40,9.93,0.01,-0.17,-0.14,25.93
40008171,1985,1,200741,248471,0.84,-1.01,10.13,-0.05,-0.08,-0.06,25.93
40048205,2006,1,201262,247671,-0.05,-1.08,10.68,-0.04,0.13,-0.05,25.93
40088205,1984,1,199915,244347,0.74,-0.79,11.35,0.01,-0.04,-0.01,25.93
40128871,1937,1,196680,239785,0.80,-0.61,10.61,-0.04,-0.07,-0.04,26.41
40167250,1913,1,189667,217087,-1.02,-1.36,6.77,-0.14,-0.05,0.10,26.41
40207205,1833,1,168168,194058,0.73,-0.34,7.36,-0.18,0.08,0.26,26.41
40247171,1936,1,161481,194268,1.94,-0.19,9.76,0.12,-0.19,0.35,26.41
40287170,1895,1,174208,228331,0.75,0.53,7.41,-0.01,0.02,0.23,26.41
40327151,1687,1,204510,251255,0.77,-0.69,9.73,-0.09,0.20,-0.02,26.41
40367184,1711,1,209638,254475,1.02,-0.09,10.41,-0.13,0.10,-0.06,26.41
40407185,1764,1,208474,253159,-0.62,-0.85,11.83,-0.08,-0.16,0.04,26.41
40447205,1764,1,203857,246691,0.49,0.26,9.28,0.04,-0.03,-0.03,26.41
40487171,1858,1,201511,246434,1.77,-0.22,11.83,-0.08,0.08,0.06,26.41
40527171,1831,1,202147,247690,0.35,0.00,11.42,-0.13,0.26,0.09,26.41
40567151,1872,1,202173,246911,0.85,0.39,11.14,-0.03,-0.03,0.04,26.41
40607171,1790,1,201437,245298,0.02,-0.41,10.28,-0.06,0.02,0.05,26.41
40647171,1754,1,201182,249008,-0.22,-2.33,11.51,-0.12,0.11,-0.00,26.41
40687204,1769,1,202593,248640,0.61,0.22,11.53,-0.03,-0.03,-0.02,26.41
40727180,1767,1,201801,249888,0.40,-1.77,10.81,-0.12,-0.13,-0.02,26.41
40767201,1804,1,202560,248832,1.33,-0.98,9.77,-0.16,-0.06,-0.04,26.41
40807199,1764,1,201975,251373,0.23,-1.77,10.31,-0.12,-0.04,-0.02,26.41
40847201,1776,1,202653,251470,0.65,-0.23,9.40,-0.13,0.02,-0.13,26.41
40887180,1766,1,202540,252837,0.11,-1.85,10.03,-0.07,-0.02,-0.02,26.41
40927200,1906,1,202943,250435,0.49,-1.07,7.95,-0.16,-0.04,-0.05,26.41
40967200,1842,1,202412,249195,0.29,-1.76,10.06,-0.06,0.13,0.02,26.41
41007171,1879,1,202015,248303,0.50,-1.68,8.93,-0.06,0.03,-0.01,26.41
41047180,1819,1,201918,248869,0.97,-1.09,11.30,0.02,0.06,-0.03,26.41
41087171,1831,1,202231,249876,-0.44,-1.57,9.75,-0.05,0.03,-0.11,26.41
41127200,1702,1,202824,250815,0.54,-2.48,9.93,0.01,-0.02,-0.11,26.41
41167866,1638,1,202460,248815,-0.16,-1.53,8.71,-0.03,-0.04,-0.12,26.09
41206213,1565,1,201696,250084,-0.41,-1.83,9.23,0.05,0.11,-0.16,26.09
41246183,1357,1,203035,255465,0.61,-0.56,11.11,0.04,0.01,-0.14,26.09
41286171,1776,1,204942,257924,-0.12,-2.45,9.27,0.00,0.01,-0.05,26.09
41326184,1825,1,205886,258804,0.27,-1.91,10.70,0.05,0.01,-0.06,26.09
41366171,1823,1,205832,255562,-0.39,-1.69,9.87,0.03,-0.08,-0.06,26.09
41407205,1818,1,203696,256245,-0.53,-2.93,9.61,0.03,0.01,-0.01,26.09
41447184,1719,1,205947,259475,0.27,-1.08,11.16,0.02,0.02,-0.23,26.09
41487171,1691,1,208286,262143,0.01,-1.88,12.43,0.07,-0.01,-0.24,26.09
41527184,1779,1,208688,261509,-0.00,-0.25,11.79,-0.01,0.03,-0.44,26.09
41567205,1850,1,207190,259569,-0.70,-1.88,12.69,0.01,-0.10,-0.00,26.09
41607219,1886,1,205432,257521,0.29,-0.08,12.27,-0.04,-0.11,-0.04,26.09
41647205,1872,1,204548,257950,-0.01,-1.37,11.25,-0.03,-0.11,-0.02,26.09
41687218,1943,1,204801,257719,0.42,-0.27,9.58,-0.09,-0.17,-0.03,26.09
41727205,1918,1,205016,258316,0.74,-2.19,9.52,-0.08,-0.14,-0.02,26.09
41767205,1917,1,204416,256748,0.98,0.60,8.39,-0.05,-0.14,-0.07,26.09
41807217,1905,1,204875,258460,0.59,-2.08,10.30,-0.03,0.02,-0.02,26.09
41847182,1973,1,204933,257443,0.94,0.69,7.29,-0.07,-0.15,-0.15,26.09
41887183,1915,1,206336,257902,0.17,-1.98,10.96,-0.03,0.20,-0.11,26.09
41927184,1951,1,204577,252453,0.90,-0.91,8.58,-0.05,-0.16,-0.03,26.09
41967205,2089,1,204036,251760,0.54,-1.41,9.99,-0.00,0.01,-0.01,26.09
42007205,2248,1,202616,250063,0.80,-1.26,8.75,-0.02,-0.07,0.13,26.09
42047183,2029,1,202538,250205,0.43,-1.08,8.46,-0.02,-0.02,0.06,26.09
42087182,1808,1,202302,249468,0.74,-1.16,8.59,-0.00,-0.02,0.20,26.09
42127184,1819,1,202231,249111,0.68,-0.82,7.89,-0.02,0.07,0.12,26.09
42167171,1822,1,202412,249467,0.64,-0.94,8.33,0.00,0.07,0.00,26.09
42207839,1779,1,202519,249779,0.49,-1.46,8.49,-0.02,0.06,-0.01,26.03
42246184,1857,1,202350,250438,0.39,-0.51,8.73,-0.01,0.06,-0.01,26.03
42286184,1923,1,203172,253801,0.26,-1.31,10.22,-0.01,0.14,-0.00,26.03
42326184,2006,1,204103,254158,0.30,-1.07,9.28,-0.01,0.04,-0.01,26.03
42366184,2005,1,204822,257451,0.34,-1.39,10.79,-0.00,0.07,-0.01,26.03
42406184,2027,1,208317,261789,-0.01,-0.72,11.68,0.02,0.14,-0.00,26.03
42447184,1979,1,208923,261448,0.47,-1.13,11.64,-0.03,-0.04,-0.01,26.03
42487205,1975,1,207446,258658,-0.08,-0.49,11.57,-0.02,-0.02,-0.01,26.03
42525224,1970,1,205019,256903,0.46,0.27,12.53,-0.04,-0.05,-0.02,26.03
42565184,1955,1,204188,254909,-0.13,-0.63,10.81,-0.11,-0.02,-0.03,26.03
42605222,1946,1,204237,256810,0.12,-1.13,11.71,-0.09,0.07,-0.02,26.03
42645184,1904,1,204565,253161,0.31,-0.66,9.25,-0.10,-0.13,-0.02,26.03
42685205,1856,1,203837,255472,0.45,-1.45,10.47,-0.09,-0.02,-0.02,26.03
42725205,1805,1,204423,252951,-0.09,-1.02,7.92,-0.10,-0.01,-0.02,26.03
42765219,1813,1,202661,252209,1.01,-0.60,8.75,-0.08,-0.16,-0.01,26.03
42805205,1791,1,203116,251624,0.11,-1.58,7.87,-0.08,0.06,-0.01,26.03
42845184,1808,1,202730,253086,1.09,-1.04,8.34,-0.04,-0.06,-0.01,26.03
42885205,1776,1,204183,255286,0.53,-1.09,10.29,-0.04,0.06,-0.02,26.03
42925184,1790,1,202748,251248,0.64,-1.17,7.39,-0.05,-0.21,-0.02,26.03
42965205,1762,1,201663,251214,0.74,-1.57,9.21,-0.04,0.05,0.04,26.03
43005171,1755,1,201437,250615,0.49,-2.44,8.24,-0.02,0.01,0.20,26.03
43045171,1711,1,201469,251362,0.48,-1.16,8.81,-0.03,0.08,-0.00,26.03
43085184,1766,1,202164,252837,0.59,-2.26,10.25,0.03,0.15,-0.00,26.03
43125171,1817,1,202206,253665,-0.21,-0.28,9.29,0.01,0.03,-0.01,26.03
43165184,1798,1,202980,255481,0.06,-2.12,13.13,0.10,0.16,-0.16,26.03
43205171,1830,1,202859,255155,-0.36,-0.96,11.01,0.03,-0.07,-0.03,26.03
43245906,1790,1,202725,252069,0.03,-1.08,11.77,0.00,0.05,-0.01,25.85
43286171,1871,1,201595,252643,0.32,-1.74,11.38,-0.00,-0.04,-0.01,25.85
43326205,1906,1,203809,251760,0.10,-1.08,11.04,0.02,-0.05,-0.03,25.85
43366182,1879,1,203371,253405,0.31,-1.69,10.14,-0.01,-0.09,-0.01,25.85
43406205,1931,1,203502,250593,0.28,-0.03,9.04,-0.07,-0.12,-0.05,25.85
43447203,1928,1,202754,251737,0.47,-0.67,10.64,-0.02,-0.04,-0.02,25.85
43485205,1957,1,203215,250563,0.36,-0.75,7.92,-0.05,-0.07,-0.08,25.85
43525208,1945,1,203015,250674,0.67,-0.21,8.57,-0.04,-0.09,-0.02,25.85
43565205,1911,1,203477,251748,0.59,0.48,8.81,-0.02,-0.01,-0.09,25.85
43605182,1950,1,204817,254905,0.81,-0.79,9.53,-0.05,0.03,-0.06,25.85
43645202,1939,1,204919,253883,1.03,-0.92,9.18,-0.03,-0.13,-0.03,25.85
43685205,1934,1,203739,252566,0.40,-0.45,9.44,0.01,-0.03,0.00,25.85
43725171,1899,1,202494,250732,0.90,-0.53,9.26,-0.04,-0.07,0.09,25.85
43765182,1889,1,202034,250505,0.63,-1.11,10.26,0.02,0.06,0.08,25.85
43805153,1900,1,202213,250154,0.62,-0.73,9.58,-0.03,-0.01,0.08,25.85
43845182,1894,1,201872,249858,0.48,-0.81,10.20,0.01,0.05,0.09,25.85
43885152,1899,1,201109,248430,0.90,-0.98,10.51,0.03,-0.04,0.01,25.85
43925171,1825,1,200371,247686,0.16,-1.24,10.47,-0.00,0.06,-0.00,25.85
43965183,1807,1,199929,247478,0.74,-0.92,10.39,0.01,-0.08,-0.01,25.85
44005181,1762,1,200024,248793,0.36,-1.40,10.73,-0.04,0.01,-0.01,25.85
44045183,1776,1,199875,248920,0.66,0.10,9.65,-0.03,-0.10,-0.01,25.85
44085181,1792,1,200590,251815,0.47,-0.77,11.13,-0.07,0.03,-0.01,25.85
44125184,1808,1,201425,252611,0.40,-0.62,9.82,-0.05,-0.05,-0.01,25.85
44165203,1810,1,202058,252778,0.41,0.07,10.53,-0.09,0.01,-0.01,25.85
44205171,1797,1,201321,253154,0.59,-0.78,10.32,-0.05,-0.02,-0.00,25.85
44245890,1754,1,201834,252424,1.17,-0.50,10.06,-0.05,-0.10,-0.01,25.93
44284205,1765,1,202056,254179,0.52,-1.24,9.09,-0.08,-0.02,-0.01,25.93
44324205,1808,1,203154,254105,0.59,-0.68,9.67,-0.04,-0.03,-0.01,25.93
44364205,1751,1,202598,254693,1.21,-0.98,9.54,-0.06,-0.09,-0.01,25.93
44404205,1773,1,202741,253840,0.69,-0.45,9.39,-0.03,-0.04,-0.01,25.93
44444205,1773,1,202228,252935,0.38,-0.59,9.07,-0.07,-0.02,-0.01,25.93
44485203,1769,1,202211,253038,0.57,-1.17,9.57,-0.04,0.09,-0.00,25.93
44525186,1794,1,202828,253967,0.48,-0.79,9.93,-0.02,0.07,0.00,25.93
44565171,1783,1,202527,252645,1.07,-1.35,10.21,-0.02,-0.03,0.00,25.93
44605184,1798,1,202647,251953,0.26,-1.14,9.15,-0.01,0.01,0.00,25.93
44645171,1798,1,201066,250709,1.08,-1.28,9.28,-0.06,-0.11,-0.01,25.93
44685205,1753,1,200608,250715,0.81,-0.95,8.48,-0.05,-0.08,-0.00,25.93
44725203,1797,1,201994,253299,0.19,-0.84,9.50,-0.02,0.14,0.00,25.93
44765171,1836,1,202350,252177,0.38,-0.59,8.96,-0.05,0.03,-0.01,25.93
44805184,1843,1,203242,256010,0.54,-0.62,10.96,-0.03,0.11,0.00,25.93
44845171,1875,1,203344,253387,0.82,-0.31,9.21,-0.01,-0.08,-0.01,25.93
44885205,1853,1,202494,252951,0.65,-0.60,8.84,-0.04,-0.01,-0.01,25.93
44925205,1887,1,202840,254434,0.32,-0.96,10.23,-0.01,0.04,0.00,25.93
44965171,1854,1,202823,253557,0.36,-0.83,9.65,-0.02,-0.03,-0.00,25.93
45005205,1840,1,202442,254923,0.45,-0.79,11.23,0.00,0.04,-0.00,25.93
45045171,1831,1,202324,254438,0.44,-0.38,10.53,-0.01,-0.08,-0.01,25.93
45085219,1829,1,202216,255914,0.74,-0.65,11.73,0.00,0.05,-0.01,25.93
45125171,1827,1,203013,256433,0.55,-0.63,11.05,-0.00,-0.05,-0.00,25.93
45165205,1797,1,203438,257359,0.40,-1.44,11.22,-0.02,-0.02,-0.01,25.93
45205206,1812,1,203179,253227,0.54,-1.07,9.82,-0.03,-0.06,-0.01,25.93
45245893,1797,1,202316,254265,-0.02,-0.93,11.02,-0.01,0.04,-0.00,26.09
45284224,1825,1,201970,251324,0.65,-0.57,10.02,-0.07,-0.14,-0.01,26.09
45324205,1840,1,201652,253559,0.46,-1.34,9.92,-0.06,-0.02,-0.01,26.09
45364205,1886,1,202655,252438,0.66,-0.77,9.15,-0.04,-0.08,-0.01,26.09
45404205,1900,1,203313,256731,0.40,-1.49,9.55,-0.04,-0.03,-0.00,26.09
45444203,1968,1,205147,257709,0.96,-0.61,9.68,-0.02,-0.08,-0.01,26.09
45484205,1938,1,204629,256499,0.57,-1.24,8.56,-0.06,-0.13,-0.01,26.09
45524208,1917,1,203274,254438,1.03,-0.31,9.40,-0.04,-0.09,-0.01,26.09
45564205,1899,1,202790,254759,0.38,-0.65,9.18,-0.01,0.00,-0.00,26.09
45604182,1892,1,203198,255449,0.52,-0.17,9.73,-0.03,0.04,-0.01,26.09
45644184,1872,1,203284,255122,0.76,-0.59,10.65,-0.02,-0.01,-0.00,26.09
45684203,1873,1,202547,255348,0.52,-1.04,10.13,-0.01,-0.01,-0.00,26.09
45724205,1872,1,202380,254394,1.14,-0.67,10.21,0.00,-0.09,-0.01,26.09
45764184,1827,1,202017,255093,0.32,-1.65,9.36,-0.01,0.01,0.00,26.09
45804171,1822,1,202493,253133,1.02,-1.04,9.54,0.00,-0.05,-0.01,26.09
45844182,1776,1,201781,253545,0.36,-1.18,9.86,-0.02,0.06,-0.00,26.09
45884184,1807,1,201649,252116,0.69,-0.28,9.57,-0.02,-0.09,-0.01,26.09
45924203,1766,1,201575,253120,0.10,-0.88,10.07,-0.02,0.04,-0.00,26.09
45964184,1807,1,200894,251281,1.11,-0.66,8.82,-0.05,-0.09,-0.01,26.09
46004205,1781,1,201699,252418,0.11,-0.61,8.91,-0.04,0.11,-0.00,26.09
46044184,1803,1,202469,256890,0.63,-1.39,9.59,-0.03,0.01,-0.00,26.09
46084182,1838,1,204852,256451,0.63,-0.74,9.59,-0.02,0.02,-0.01,26.09
46124184,1808,1,203768,257012,0.85,-0.92,10.43,-0.05,-0.02,-0.00,26.09
46164205,1839,1,203649,255417,0.14,-1.19,9.26,-0.04,-0.01,0.00,26.09
46204184,1817,1,202815,255706,0.69,-0.64,10.53,-0.01,-0.01,-0.00,26.09
46244205,1821,1,203493,256864,0.96,-0.78,10.11,-0.05,0.02,-0.01,26.09
46284871,1855,1,204519,258428,0.08,-0.76,10.00,-0.05,0.08,-0.00,25.99
46323185,1862,1,204215,256669,0.76,-0.68,11.11,-0.02,0.02,-0.00,25.99
46363184,1858,1,203165,257092,0.31,-1.23,10.06,-0.06,0.02,0.00,25.99
46403171,1856,1,203797,256908,0.42,-1.61,10.44,0.00,0.05,0.01,25.99
46443153,1821,1,203567,257260,0.47,-1.43,9.54,-0.04,-0.07,-0.00,25.99
46483205,1837,1,204303,255152,0.38,-1.19,10.46,-0.01,0.07,0.01,25.99
46523184,1841,1,202029,251603,0.43,-0.36,9.43,-0.06,-0.11,-0.01,25.99
46563205,1840,1,201725,251456,0.79,-0.65,10.17,-0.04,0.00,-0.01,25.99
46603184,1855,1,201401,251756,0.64,-0.02,8.91,-0.05,-0.08,-0.01,25.99
46643203,1853,1,202635,252582,0.49,-0.86,10.13,-0.03,0.11,-0.00,25.99
46683184,1905,1,201570,252485,0.88,-0.20,9.37,-0.05,-0.10,-0.01,25.99
46723221,1872,1,203062,254662,0.68,-1.17,10.51,-0.02,0.05,-0.00,25.99
46763184,1906,1,201861,253025,0.56,-0.20,8.72,-0.04,-0.14,-0.02,25.99
46803205,1905,1,202699,252921,0.50,-1.12,9.48,-0.02,0.09,0.01,25.99
46843171,1952,1,201582,252104,0.63,-0.88,9.08,-0.02,-0.09,-0.00,25.99
46883202,1895,1,202773,253672,0.88,-0.85,10.97,0.00,0.10,0.01,25.99
46923171,1903,1,202553,255563,0.55,-1.31,9.24,-0.03,-0.09,0.00,25.99
46963184,1847,1,204212,257289,0.63,-1.31,10.33,0.01,0.02,-0.05,25.99
47003171,1870,1,203992,258236,0.37,-0.95,10.20,-0.01,-0.07,0.00,25.99
47043182,1849,1,204413,258543,0.78,-1.12,10.67,0.02,0.01,0.00,25.99
47083153,1818,1,204112,258332,0.51,-0.22,9.86,-0.03,-0.07,-0.00,25.99
47123205,1812,1,204242,258123,0.76,-1.16,10.33,-0.01,-0.01,0.00,25.99
47163184,1808,1,204046,256448,0.15,-0.83,9.47,-0.04,-0.03,-0.00,25.99
47203203,1789,1,203512,253765,0.79,-0.87,10.79,-0.02,0.05,-0.03,25.99
47243184,1808,1,202437,252129,0.45,0.11,9.67,0.01,-0.06,0.00,25.99
47283151,1797,1,202744,253566,0.41,-0.91,9.97,-0.02,-0.01,-0.04,25.99
47323892,1823,1,202952,253779,0.77,-0.74,10.03,0.00,-0.06,-0.03,25.73
47362182,1821,1,202692,251988,0.79,-1.00,8.63,-0.03,-0.08,0.00,25.73
47402184,1809,1,201922,253312,0.87,-1.12,8.85,0.01,-0.02,-0.04,25.73
47442184,1847,1,203555,254259,0.85,-1.12,10.21,0.03,0.03,0.02,25.73
47482153,1835,1,202713,253892,1.01,-0.47,9.62,-0.00,-0.07,0.00,25.73
47522182,1833,1,202710,254102,0.73,0.09,10.49,-0.02,0.06,0.00,25.73
47562152,1847,1,201601,254515,0.60,-0.44,9.33,-0.02,-0.06,0.00,25.73
47602182,1854,1,202484,254998,0.93,-0.44,10.16,-0.01,0.01,0.00,25.73
47642171,1861,1,202423,256338,0.68,-0.45,10.35,0.02,0.02,0.01,25.73
47682151,1846,1,204091,258632,0.48,-1.30,10.61,-0.03,0.08,0.01,25.73
47722171,1820,1,204491,258140,0.25,-0.45,10.94,0.01,0.00,0.01,25.73
47762151,1789,1,203483,257681,0.52,-1.02,11.25,-0.01,-0.07,0.01,25.73
47802184,1783,1,203134,257477,0.81,-0.13,10.60,-0.01,-0.09,0.01,25.73
47842184,1773,1,203631,258390,0.46,-1.17,10.55,-0.05,-0.01,0.01,25.73
47882184,1807,1,203735,255532,0.77,-0.12,9.47,-0.05,-0.06,0.01,25.73
47922185,1782,1,203464,257540,1.19,-0.70,10.11,-0.05,-0.08,0.01,25.73
47962184,1847,1,204318,255024,0.90,-0.39,8.52,-0.07,-0.04,0.00,25.73
48002182,1872,1,203429,253801,1.00,0.15,8.90,-0.09,0.00,0.02,25.73
48042151,1847,1,203630,255712,0.68,0.11,8.92,-0.07,0.04,0.01,25.73
48082151,1885,1,204844,257467,0.72,-0.12,9.43,-0.03,0.01,0.01,25.73
48122171,1892,1,203946,255185,1.39,-0.08,10.30,-0.03,-0.07,-0.00,25.73
48162203,1904,1,202592,254491,0.28,-1.21,9.95,-0.04,0.03,0.01,25.73
48202171,1894,1,201418,252269,0.91,0.10,8.59,-0.05,-0.06,0.14,25.73
48242171,1902,1,200777,251242,0.64,-1.15,10.33,-0.02,0.07,0.27,25.73
48282171,1937,1,201094,254393,0.83,-0.40,10.26,0.02,0.06,0.06,25.73
48322151,1887,1,202073,254860,1.57,0.41,10.20,-0.01,-0.04,0.00,25.73
48362858,1878,1,202477,256385,0.05,-1.40,9.93,-0.09,0.09,0.01,25.81
48401171,1925,1,202245,254954,0.88,0.39,10.17,-0.01,-0.09,0.01,25.81
48441171,1847,1,201585,255646,0.91,0.07,10.87,-0.01,-0.00,0.01,25.81
48481171,1865,1,202104,256364,0.83,-0.11,9.50,-0.07,0.02,0.00,25.81
48521177,1842,1,202366,253847,0.73,-0.45,10.36,-0.07,0.03,0.00,25.81
48561188,1854,1,201434,252429,0.43,-0.24,9.99,-0.06,0.00,0.01,25.81
48601171,1835,1,201268,250567,0.92,-0.24,8.97,-0.05,-0.07,0.01,25.81
48641182,1845,1,201886,255239,0.43,-1.65,9.61,-0.06,0.11,0.01,25.81
48681171,1844,1,203201,251741,0.73,0.23,9.04,-0.05,-0.05,-0.01,25.81
48721183,1833,1,201977,254165,0.44,-1.65,11.17,-0.07,0.05,0.02,25.81
48761171,1877,1,201741,251426,0.59,-0.49,8.27,-0.03,-0.08,0.00,25.81
48801182,1863,1,201059,252172,0.94,-0.60,11.07,-0.02,0.02,0.01,25.81
48841171,1919,1,200580,252710,1.37,-0.50,9.15,-0.05,-0.07,0.00,25.81
48881182,1919,1,202940,253482,0.24,-0.86,9.42,-0.05,0.10,0.01,25.81
48921171,1937,1,201176,254184,1.17,-0.93,10.30,-0.02,-0.10,0.01,25.81
48961185,1879,1,202664,254364,0.53,-0.51,10.37,-0.03,0.07,0.01,25.81
49001171,1840,1,200996,254286,1.02,-0.78,10.12,0.02,-0.14,0.01,25.81
49041171,1891,1,202344,255508,0.17,-1.56,10.18,-0.04,0.12,0.02,25.81
49081171,1893,1,201842,255443,0.25,-1.08,9.07,0.00,-0.16,0.01,25.81
49121171,1878,1,202840,256094,0.46,-0.53,10.09,-0.01,0.05,0.01,25.81
49161171,1877,1,202649,256719,0.62,-0.73,9.99,-0.02,-0.08,0.01,25.81
49201182,1839,1,202369,253061,1.04,0.49,10.05,-0.01,-0.07,0.00,25.81
49241171,1855,1,200909,250649,0.52,-0.73,8.95,-0.07,-0.01,0.01,25.81
49281182,1847,1,200480,249366,0.79,-1.39,8.21,-0.03,-0.05,0.00,25.81
49321184,1821,1,201245,252901,0.46,-0.59,10.77,-0.00,0.08,0.02,25.81
49361171,1813,1,201701,251745,0.48,-1.26,9.09,0.01,-0.10,0.01,25.81
49401858,1801,1,200960,253325,1.19,-0.75,11.29,-0.03,-0.01,0.00,25.93
49442184,1794,1,201617,255184,-0.08,-0.94,9.56,0.00,0.02,0.02,25.93
49482171,1791,1,201809,255997,0.49,0.11,10.01,0.00,-0.02,0.01,25.93
49522151,1808,1,202428,257413,0.86,-0.85,11.88,-0.04,0.05,0.01,25.93
49562171,1841,1,202408,257124,0.75,0.40,10.85,-0.00,-0.11,0.01,25.93
49602171,1830,1,201964,257019,1.63,-0.03,11.06,-0.01,-0.11,0.00,25.93
49642184,1851,1,202750,257832,0.35,-1.04,9.47,-0.06,-0.01,0.01,25.93
49682185,1834,1,203357,257932,0.55,-1.08,9.95,-0.02,-0.00,0.01,25.93
49720184,1823,1,203353,256730,0.18,-0.30,10.07,-0.04,0.01,0.01,25.93
49760171,1840,1,202183,256054,1.04,-0.41,9.57,-0.06,-0.16,-0.00,25.93
49800205,1797,1,202857,255238,0.31,-0.65,8.46,-0.04,0.05,0.01,25.93
49840171,1840,1,202954,257205,1.02,-1.38,9.83,-0.04,-0.02,0.01,25.93
49880184,1840,1,204351,257126,0.51,-1.45,8.96,-0.01,-0.03,-0.21,25.93
49920205,1859,1,203671,256847,0.43,-1.06,10.23,-0.02,-0.05,-0.00,25.93
49960205,2209,1,202423,251861,0.59,-1.07,8.99,-0.03,-0.04,-0.04,25.93
50000220,2054,1,201345,253029,0.76,-1.15,10.37,-0.03,0.00,0.01,25.93
50040171,1857,1,202137,254109,0.79,-0.93,9.69,-0.04,0.03,-0.00,25.93
50080182,1781,1,203648,256552,0.05,-0.76,10.50,-0.06,0.11,0.00,25.93
50120171,1829,1,203613,257081,0.33,-0.52,9.03,-0.05,0.00,-0.01,25.93
50160182,1830,1,204895,259453,0.73,-0.81,11.82,-0.03,0.07,-0.03,25.93
50200184,1823,1,204479,257356,0.31,-0.29,8.84,-0.08,-0.06,-0.04,25.93
50240205,1811,1,203977,257033,0.49,-0.77,9.45,-0.11,0.08,-0.01,25.93
50280184,1950,1,204208,258529,0.73,-0.36,11.20,-0.06,0.05,-0.01,25.93
50320184,1943,1,203872,257128,0.54,-0.02,10.10,-0.05,-0.02,-0.01,25.93
50360205,1956,1,204353,258428,-0.11,-1.34,11.14,-0.09,0.10,0.00,25.93
50400185,1830,1,203024,253867,0.78,-0.40,9.58,-0.05,-0.17,-0.01,25.93
50440892,1826,1,202104,253776,0.28,-1.34,9.72,-0.06,0.04,-0.00,25.59
50481185,1826,1,202154,251597,0.57,-0.34,7.65,-0.08,-0.06,-0.01,25.59
50521209,1827,1,202217,253739,0.70,-0.54,10.74,-0.03,0.09,-0.01,25.59
50561183,1872,1,203129,253618,0.33,-0.62,7.25,-0.07,-0.04,-0.09,25.59
50601205,2130,1,203359,254436,0.88,-1.68,10.65,-0.03,0.02,-0.00,25.59
50641184,2124,1,202926,252848,0.43,-0.86,8.24,-0.02,-0.02,-0.05,25.59
50681205,2033,1,203725,256024,-0.03,-1.16,9.95,-0.02,0.06,0.00,25.59
50721182,1824,1,204408,257657,0.87,-0.35,10.97,0.01,0.07,-0.01,25.59
50761171,1827,1,205764,259643,-0.10,-1.12,11.19,-0.02,0.07,0.00,25.59
50801185,1825,1,205175,257062,0.68,-0.56,9.86,-0.02,-0.04,-0.02,25.59
50841205,1846,1,205641,259632,0.27,-1.58,11.09,-0.01,0.05,0.00,25.59
50881171,2023,1,205915,259098,0.32,-0.30,8.76,-0.03,-0.12,-0.04,25.59
50921205,2027,1,207110,261518,0.29,-1.18,11.39,0.02,0.04,-0.10,25.59
50961171,2130,1,206832,260534,0.25,-0.90,9.79,-0.08,-0.10,0.05,25.59
51001184,2128,1,206579,261010,0.30,-0.79,11.05,-0.01,0.01,-0.00,25.59
51041182,2141,1,205948,260060,0.28,-0.65,9.34,-0.05,-0.07,-0.01,25.59
51079205,2124,1,205787,259999,0.68,-0.27,10.39,-0.02,0.00,-0.01,25.59
51119182,2129,1,206127,259918,0.26,-1.10,9.83,-0.04,-0.01,-0.01,25.59
51159205,2086,1,205584,258319,0.53,-0.35,10.00,-0.04,-0.08,-0.02,25.59
51199203,2064,1,205565,258822,0.14,-1.13,9.42,0.00,0.05,-0.00,25.59
51239171,2038,1,205498,259472,0.78,-0.68,9.83,-0.00,-0.06,-0.01,25.59
51279203,2032,1,206367,259967,0.33,-0.80,10.40,-0.01,0.08,-0.01,25.59
51319184,1956,1,205283,257093,0.64,-0.49,9.17,-0.04,-0.12,-0.00,25.59
51359203,1991,1,204703,257282,0.35,-1.07,10.05,-0.03,0.04,-0.00,25.59
51399184,1989,1,204872,258360,0.23,0.07,10.18,-0.02,0.00,-0.01,25.59
51440171,1947,1,205041,257189,0.61,0.02,10.91,-0.03,0.01,-0.01,25.59
51480859,1911,1,204516,259070,0.42,-1.00,10.90,-0.04,0.01,-0.01,25.55
51519182,1895,1,205497,259680,0.91,-0.99,10.76,0.01,-0.04,-0.01,25.55
51559184,1792,1,205157,259794,0.60,-0.91,10.87,-0.03,-0.08,-0.01,25.55
51599205,1808,1,204179,255377,0.33,-1.05,8.90,-0.10,-0.13,-0.01,25.55
51639203,1762,1,202518,255827,0.25,-1.59,8.83,-0.08,-0.03,0.01,25.55
51679184,1762,1,204557,257340,0.82,-0.54,9.55,-0.00,0.04,-0.01,25.55
51719184,1744,1,205038,258629,0.56,-1.01,9.27,-0.06,-0.09,-0.01,25.55
51759205,1774,1,204457,254581,0.31,-1.21,7.20,-0.07,-0.04,-0.06,25.55
51799205,1841,1,202431,252500,1.20,-0.82,7.49,-0.09,-0.18,-0.06,25.55
51839206,2145,1,202763,255732,0.63,-0.38,8.14,-0.01,0.16,-0.02,25.55
51879184,2093,1,205668,261038,0.92,-0.16,9.13,-0.02,0.08,-0.28,25.55
51919184,2100,1,208463,262143,0.71,0.05,10.76,-0.02,0.16,-0.46,25.55
51959171,1829,1,208625,262143,-0.62,-0.13,9.90,-0.10,0.01,-0.01,25.55
51999203,1877,1,207690,262143,0.41,-1.65,12.01,0.04,0.07,0.01,25.55
52039153,1823,1,207935,262143,0.05,0.19,13.00,0.05,0.04,-0.01,25.55
52079151,1824,1,207583,261724,0.30,-1.90,11.46,-0.06,-0.08,-0.01,25.55
52119205,1823,1,206000,256960,0.40,-1.39,10.00,-0.11,-0.07,-0.02,25.55
52159205,1923,1,204057,254141,0.04,-1.10,8.35,-0.03,-0.12,0.01,25.55
52199184,2174,1,204569,255486,-0.75,-1.38,9.16,-0.02,0.21,-0.01,25.55
52239206,2268,1,204731,256134,0.48,-0.67,8.90,-0.10,-0.08,-0.02,25.55
52279205,2545,1,205521,258330,0.41,-2.44,11.15,-0.00,0.04,-0.02,25.55
52319185,2159,1,205186,258766,0.09,-0.65,8.83,-0.01,-0.23,-0.01,25.55
52359205,2064,1,205848,259061,0.10,-1.93,9.93,0.01,0.01,-0.01,25.55
52399171,2063,1,204789,257792,0.60,-1.18,9.28,-0.05,-0.10,-0.02,25.55
52439205,1828,1,205967,260089,0.38,-1.75,11.15,0.04,0.15,-0.01,25.55
52480171,2170,1,206435,261439,0.39,0.02,10.30,-0.00,-0.06,-0.02,25.55
52520875,1936,1,207629,262143,-0.01,-2.21,10.94,0.05,0.10,-0.11,25.69
52559184,1975,1,207952,262143,0.54,-1.10,9.85,-0.02,-0.10,-0.02,25.69
52599205,1905,1,207338,262143,0.41,-1.76,9.70,0.02,-0.10,-0.01,25.69
52639183,1822,1,207235,261927,-0.01,-1.18,8.54,0.00,-0.07,-0.01,25.69
52679205,1823,1,206602,259252,0.66,-1.12,10.52,-0.00,-0.06,-0.01,25.69
52719206,1824,1,205701,257328,-0.43,0.25,9.24,-0.00,0.02,-0.02,25.69
52759184,2019,1,203657,255980,1.08,-0.00,10.23,-0.01,-0.15,-0.02,25.69
52799205,2311,1,203534,255879,0.93,-0.76,10.17,-0.01,0.03,-0.02,25.69
52839184,2466,1,203137,256630,0.79,-1.01,9.31,-0.02,-0.11,-0.03,25.69
52879206,2499,1,204298,258686,0.82,0.04,10.34,-0.00,-0.00,-0.03,25.69
52919184,2516,1,204499,258665,0.20,-0.78,9.34,-0.05,-0.10,-0.01,25.69
52959203,2500,1,203726,257176,0.60,-0.70,9.35,-0.06,-0.10,-0.02,25.69
52999205,2406,1,203107,256907,0.23,-0.28,9.16,-0.04,0.03,-0.02,25.69
53039183,2420,1,203058,258199,1.04,-0.47,9.84,-0.02,-0.01,0.02,25.69
53079184,2379,1,204366,259077,0.62,-0.68,9.85,-0.04,0.01,-0.01,25.69
53119182,2347,1,204608,259541,0.76,-0.87,9.59,-0.01,-0.04,-0.01,25.69
53159205,2271,1,204493,258185,0.95,-0.90,9.65,-0.04,-0.04,-0.01,25.69
53199203,2221,1,204076,259712,-0.02,-0.92,9.13,-0.02,0.03,-0.00,25.69
53239205,2176,1,204909,258751,0.81,-0.28,10.27,-0.05,0.04,-0.02,25.69
53279233,2091,1,204367,259004,0.51,-1.00,10.81,-0.06,0.03,-0.01,25.69
53319184,2083,1,203817,254603,0.55,-0.28,8.74,-0.08,-0.07,-0.02,25.69
53359205,1970,1,202501,254460,0.12,-2.34,11.23,-0.05,0.12,0.12,25.69
53399171,1943,1,202603,251713,0.57,-0.29,8.79,-0.02,-0.09,-0.01,25.69
53439205,1883,1,203316,256496,0.23,-1.24,11.14,-0.03,0.08,0.05,25.69
53479204,1853,1,203790,253032,0.39,-0.53,9.13,-0.03,-0.14,-0.01,25.69
53519205,1793,1,202228,253433,0.52,-0.18,10.50,-0.04,-0.03,0.11,25.69
53559871,1694,1,202209,253406,1.01,-0.29,8.70,-0.07,-0.03,0.07,25.91
53598182,1712,1,202563,254912,0.57,-0.02,9.15,-0.03,0.03,0.00,25.91
53638171,1699,1,204129,258235,0.60,-0.70,11.08,-0.06,0.11,0.00,25.91
53678171,1711,1,203607,256054,0.73,-0.58,9.96,-0.02,-0.10,-0.00,25.91
53718205,1669,1,202714,256343,0.62,-1.11,10.50,-0.03,0.02,0.01,25.91
53758171,1642,1,202821,255988,0.22,-0.79,9.32,-0.06,-0.03,0.01,25.91
53798183,1637,1,204173,259591,0.60,-1.07,10.89,-0.05,0.11,-0.01,25.91
53838185,1648,1,206019,260897,0.36,-0.48,10.54,-0.02,-0.01,0.00,25.91
53878184,1660,1,205354,259152,0.63,-0.40,10.31,-0.02,-0.09,-0.01,25.91
53918205,1618,1,204300,258527,-0.48,-0.64,10.22,-0.02,0.01,0.01,25.91
53958184,1644,1,203716,257776,0.75,-0.13,10.46,-0.01,-0.10,0.00,25.91
53998182,1665,1,203573,256969,0.74,-0.44,9.55,-0.05,-0.05,0.12,25.91
54038184,1683,1,203267,253639,1.20,-0.26,9.25,-0.06,-0.07,-0.01,25.91
54078205,1695,1,204641,256529,0.09,-0.02,9.12,-0.06,0.08,-0.00,25.91
54118184,1721,1,205671,257730,1.45,-0.87,10.41,-0.01,-0.05,-0.00,25.91
54158206,1719,1,205102,256829,0.34,-0.46,8.91,-0.02,-0.10,0.00,25.91
54198184,1726,1,204127,256234,0.42,-1.26,9.79,-0.03,-0.02,0.00,25.91
54238182,1726,1,202965,255597,0.62,0.03,9.90,-0.03,-0.08,-0.00,25.91
54278184,1690,1,203175,255632,0.30,-1.09,9.33,-0.05,0.03,0.00,25.91
54318171,1702,1,203447,255376,0.72,-1.12,8.93,-0.04,-0.01,0.06,25.91
54358183,1743,1,204397,256149,0.51,-0.31,10.08,-0.03,0.10,0.01,25.91
54398171,1773,1,204499,259048,0.82,-0.53,9.68,0.01,-0.04,0.06,25.91
54438171,1773,1,205148,257327,0.52,-0.28,8.80,0.01,-0.08,-0.00,25.91
54478181,1783,1,204111,257479,0.28,-0.71,9.45,-0.04,-0.02,0.00,25.91
54518184,1803,1,203579,255292,0.53,-0.71,9.50,-0.05,-0.02,-0.01,25.91
54558203,1789,1,202425,254434,0.12,-0.50,9.90,-0.07,-0.01,0.11,25.91
54598871,1797,1,202586,254408,1.43,0.04,10.76,-0.02,0.09,0.11,25.85
54637151,1829,1,202856,255003,0.94,-0.46,10.44,-0.01,0.02,0.09,25.85
54677171,1829,1,203241,257189,0.78,-0.84,10.79,-0.02,0.00,0.04,25.85
54717171,1788,1,203504,254822,0.28,-0.68,9.29,-0.01,-0.02,0.01,25.85
54757184,1804,1,202185,252570,0.20,-0.51,10.45,-0.03,0.04,0.01,25.85
54797171,1838,1,201034,251582,0.50,0.41,11.26,-0.04,0.00,-0.00,25.85
54837171,1866,1,201543,253101,0.17,0.01,11.95,-0.04,0.07,0.00,25.85
54877151,1889,1,200989,250479,0.08,-0.42,8.25,-0.09,-0.18,0.04,25.85
54917222,1866,1,201044,250752,1.20,-1.11,10.27,-0.11,0.05,0.05,25.85
54957171,1847,1,201391,251462,0.44,-0.93,7.27,-0.07,-0.14,0.01,25.85
54997184,1791,1,203979,255713,0.21,-0.96,10.10,-0.09,0.19,0.01,25.85
55037171,1837,1,203792,252983,0.27,0.36,7.86,-0.09,-0.03,-0.03,25.85
55077184,1792,1,203245,253277,1.06,-0.46,11.87,-0.04,0.09,0.01,25.85
55117215,1818,1,202041,252951,0.81,0.04,10.18,-0.01,-0.09,0.01,25.85
55157171,1795,1,202520,256310,0.82,-0.41,12.31,-0.02,0.04,0.01,25.85
55197171,1825,1,202203,255065,0.50,-0.46,9.70,-0.03,-0.14,0.01,25.85
55237184,1845,1,201990,255691,0.80,-1.39,11.24,-0.01,-0.02,0.02,25.85
55277184,1859,1,202146,255835,0.50,-0.35,10.62,-0.02,-0.04,0.00,25.85
55317184,1865,1,202872,257474,0.24,-0.72,10.74,-0.03,0.01,0.00,25.85
55357171,1868,1,203098,256394,0.80,-0.21,10.83,0.01,-0.11,0.01,25.85
55397171,1855,1,202694,256443,0.58,-0.94,9.36,-0.03,-0.12,0.00,25.85
55437184,1859,1,202849,252936,0.49,-0.82,9.40,-0.05,-0.05,0.00,25.85
55477184,1873,1,201305,250662,1.16,-1.06,8.03,-0.04,-0.13,-0.00,25.85
55517203,1856,1,202263,251393,0.34,-0.18,8.56,-0.04,0.12,0.01,25.85
55556171,1830,1,203381,255218,0.44,-1.06,11.73,-0.02,0.09,0.01,25.85
55596171,1851,1,203019,251614,0.68,-0.15,9.97,-0.03,-0.08,-0.05,25.85
55636892,1862,1,200832,250998,0.28,-1.77,9.11,0.00,-0.09,0.04,25.73
55677171,2483,1,201281,252752,0.38,-1.25,8.84,0.01,0.12,0.01,25.73
55717159,2194,1,202110,255906,0.52,-1.80,11.13,-0.02,0.03,0.00,25.73
55757171,2096,1,202490,256477,0.53,-1.55,11.02,0.01,0.03,-0.01,25.73
55797171,2045,1,202590,256916,0.17,-0.27,10.90,-0.01,-0.06,0.01,25.73
55837184,2166,1,202705,256885,0.61,-1.16,11.45,0.02,0.01,0.00,25.73
55877152,2068,1,203030,257356,-0.03,-0.40,9.73,-0.03,-0.04,-0.00,25.73
55917218,1746,1,203602,258203,0.90,-1.03,11.20,-0.03,0.01,-0.00,25.73
55957184,1825,1,203837,257806,0.04,-0.38,8.36,-0.06,-0.12,-0.01,25.73
55997205,1826,1,204086,258816,0.69,-0.96,10.80,-0.07,0.02,0.01,25.73
56037171,1825,1,203943,257718,0.26,-0.57,8.61,-0.05,-0.12,0.00,25.73
56077185,1472,1,203167,256627,1.14,-0.99,9.61,-0.05,-0.10,-0.00,25.73
56117205,1677,1,202836,252344,0.05,-0.81,8.59,-0.08,0.01,-0.00,25.73
56157181,1874,1,201200,250365,1.10,-1.50,9.58,-0.08,-0.03,-0.02,25.73
56197205,2083,1,201940,251700,-0.00,-1.54,10.29,-0.05,0.14,0.00,25.73
56237184,2063,1,201389,251823,1.04,-1.28,9.69,0.01,-0.15,-0.02,25.73
56277184,1923,1,202700,255719,0.18,-1.38,10.23,0.00,0.03,-0.20,25.73
56317171,2156,1,202884,256820,0.55,-1.48,7.86,-0.08,-0.22,-0.07,25.73
56357228,1991,1,204601,257731,0.54,-1.98,10.81,-0.02,0.10,-0.03,25.73
56397184,1973,1,202495,251096,-0.06,-0.68,6.95,-0.08,-0.23,0.12,25.73
56437205,1823,1,201373,254574,0.02,-1.91,11.70,-0.01,0.29,0.15,25.73
56477171,2132,1,203075,254391,0.37,0.38,9.07,-0.12,-0.02,-0.11,25.73
56517184,1919,1,202943,256176,-0.05,-2.00,10.97,-0.04,0.06,-0.01,25.73
56556203,1831,1,202638,253129,0.65,-0.77,9.23,-0.16,0.00,-0.06,25.73
56596183,1883,1,201492,256131,1.20,-2.11,12.25,-0.03,-0.01,0.10,25.73
56636871,2175,1,202531,254933,-0.28,0.50,9.03,-0.16,0.04,-0.11,25.59
56677184,2559,1,201190,254562,0.29,-0.25,10.15,-0.11,0.00,0.15,25.59
56717171,1879,1,201926,255905,0.04,-0.17,10.63,-0.07,0.26,0.01,25.59
56757191,1822,1,201924,254651,0.26,-1.83,10.27,-0.06,-0.17,-0.01,25.59
56797205,2160,1,201348,250754,0.79,-1.95,10.82,-0.02,0.12,-0.02,25.59
56837181,2011,1,199717,250293,-0.43,-3.16,10.98,-0.09,-0.08,0.08,25.59
56877202,1916,1,200245,250858,0.53,-1.24,12.07,-0.02,-0.06,-0.03,25.59
56917203,1876,1,199804,248713,-0.32,-0.56,8.18,-0.14,-0.17,-0.01,25.59
56957239,2273,1,199296,248165,0.04,-1.93,8.47,-0.06,0.07,0.04,25.59
56997171,1877,1,199179,247602,0.22,-0.53,8.37,-0.09,0.02,-0.04,25.59
57035181,1845,1,199500,248008,0.45,-1.55,10.39,-0.00,0.12,-0.03,25.59
57075183,1835,1,199421,249366,1.07,0.06,9.77,-0.01,-0.09,-0.02,25.59
57115181,1839,1,200307,251813,-0.17,-2.33,9.81,-0.03,0.00,-0.16,25.59
57155204,1851,1,200527,252148,0.55,-1.28,8.56,-0.05,-0.15,-0.06,25.59
57195205,1832,1,201238,254400,-0.13,-2.08,11.32,0.05,0.13,-0.07,25.59
57235183,1904,1,200886,254681,1.05,-0.92,10.63,-0.02,-0.21,-0.02,25.59
57275205,2457,1,201284,253960,0.00,-0.13,10.47,-0.01,0.03,-0.02,25.59
57315182,1849,1,200416,252860,0.59,-0.48,10.15,-0.00,-0.13,0.14,25.59
57355181,1823,1,201058,254246,0.36,-0.81,10.73,0.02,0.02,-0.05,25.59
57395171,1830,1,201026,254774,0.45,-0.54,9.69,0.01,-0.18,-0.03,25.59
57435182,1831,1,201301,254942,0.07,-1.95,9.06,-0.01,-0.00,-0.05,25.59
57475200,1839,1,200937,251873,0.38,-0.10,9.25,0.01,-0.20,-0.03,25.59
57515181,1833,1,199449,248758,1.40,-0.32,11.37,0.07,0.07,-0.00,25.59
57555171,1833,1,198963,247319,0.07,-0.26,7.72,-0.05,-0.18,0.08,25.59
57595182,1830,1,199047,250616,1.77,0.28,10.78,0.01,0.06,-0.04,25.59
57635152,1891,1,200210,250040,0.79,1.03,9.62,0.02,-0.05,-0.01,25.59
57675859,2040,1,199696,252358,0.60,-0.54,11.60,0.06,-0.01,0.00,25.67
57716171,1946,1,200604,249773,0.73,0.68,8.33,0.01,-0.04,-0.01,25.67
57756169,2507,1,199823,249770,0.73,-0.24,11.92,0.04,0.03,0.38,25.67
57796149,2256,1,199910,248925,1.05,-0.38,8.98,0.03,-0.01,0.00,25.67
57836171,1827,1,199714,251489,0.81,0.30,11.66,0.07,0.04,0.01,25.67
57876131,1829,1,200913,252486,0.26,-1.23,9.85,0.02,0.04,0.00,25.67
57916151,1834,1,200645,252064,0.75,-0.00,10.01,0.05,-0.11,0.00,25.67
57956171,1828,1,200908,254447,-0.02,-0.51,11.45,-0.06,0.09,0.00,25.67
57996181,1984,1,201101,254192,1.00,0.76,10.14,0.08,-0.15,0.01,25.67
58036151,1838,1,201070,255212,0.54,-0.32,11.61,-0.05,0.05,0.00,25.67
58076171,1830,1,201208,253697,0.40,1.38,7.87,-0.00,-0.13,0.06,25.67
58116171,1829,1,201177,254959,0.58,-1.32,10.70,-0.14,0.12,0.08,25.67
58156171,1828,1,201282,254309,1.02,1.33,10.73,-0.02,-0.10,0.00,25.67
58196177,1790,1,201031,255374,1.36,-0.42,12.03,-0.08,-0.00,0.02,25.67
58236181,1921,1,200898,249799,0.26,0.12,8.41,-0.09,-0.01,0.00,25.67
58276171,1975,1,199399,247892,0.48,-1.23,10.19,-0.09,-0.01,0.12,25.67
58316180,1946,1,199196,247483,0.82,-0.58,9.56,-0.08,0.03,0.10,25.67
58356171,1967,1,199319,248240,0.90,-0.83,10.02,-0.07,0.04,0.01,25.67
58396200,1975,1,199702,249171,0.75,-0.44,9.61,-0.07,0.04,0.00,25.67
58436171,1920,1,200267,249737,0.19,-0.16,9.74,-0.11,0.07,-0.00,25.67
58474179,1814,1,200254,249821,1.17,-0.68,10.26,-0.05,-0.02,0.01,25.67
58514179,1974,1,200434,249789,0.74,-0.48,10.40,-0.06,0.06,0.00,25.67
58554167,2295,1,200450,250844,0.53,-0.80,9.79,-0.08,0.05,0.00,25.67
58594171,1999,1,200858,251499,-0.08,-1.45,10.48,-0.06,0.06,-0.26,25.67
58634200,2035,1,200780,251401,0.78,-0.37,9.68,-0.03,-0.08,-0.01,25.67
58674203,1860,1,201134,252159,0.16,-1.79,9.84,-0.10,0.10,-0.00,25.67
58714867,1941,1,200913,250497,0.39,-0.68,8.92,-0.06,-0.03,0.00,25.35
58755181,1889,1,200562,250965,0.58,-1.62,11.07,-0.10,0.09,-0.00,25.35
58795181,1886,1,200491,250413,0.28,-0.37,9.25,-0.04,-0.05,0.00,25.35
58835180,1829,1,200547,251122,0.68,-1.08,10.52,-0.05,0.01,-0.00,25.35
58875181,2005,1,200656,250172,0.39,-0.80,8.51,-0.05,-0.04,-0.01,25.35
58915201,1891,1,200358,251004,0.62,-0.36,10.04,-0.06,0.04,-0.01,25.35
58955181,1891,1,200288,249854,-0.26,-1.02,10.90,-0.04,0.06,-0.38,25.35
58995205,1827,1,199767,249182,0.24,-0.16,9.80,-0.05,-0.03,-0.11,25.35
59035202,1904,1,199799,248472,0.74,-0.70,9.49,-0.05,0.03,-0.13,25.35
59075184,1831,1,199586,248182,-0.30,-1.55,9.11,-0.04,0.05,-0.01,25.35
59115202,1831,1,199533,248001,0.60,-0.76,9.65,-0.03,0.04,-0.01,25.35
59155184,1834,1,200146,251695,0.49,-1.64,11.32,0.01,0.05,-0.11,25.35
59195171,2154,1,201211,252986,-0.11,-0.53,8.46,-0.06,-0.07,-0.12,25.35
59235222,2106,1,202233,254746,0.34,-1.52,11.72,0.03,0.03,-0.14,25.35
59275171,2105,1,201364,250754,-0.04,-0.61,8.36,-0.05,-0.19,0.02,25.35
59315205,1834,1,200562,251110,0.38,-1.03,11.19,0.01,0.08,-0.01,25.35
59355171,1832,1,200626,253044,0.53,-1.16,9.74,-0.06,-0.04,-0.01,25.35
59395205,1829,1,202449,254749,0.00,-1.08,10.40,0.01,0.05,-0.01,25.35
59435171,1834,1,202236,254756,-0.05,-1.47,9.48,-0.04,-0.02,0.00,25.35
59475205,2432,1,202359,256451,0.42,-1.44,10.24,0.02,-0.06,-0.01,25.35
59515184,2529,1,202725,256438,-0.16,-1.01,11.28,0.00,0.02,-0.01,25.35
59555184,2608,1,201439,253866,0.67,-0.58,8.38,-0.05,-0.20,-0.02,25.35
59595203,2599,1,201963,255090,0.60,-1.03,11.05,-0.01,0.16,-0.00,25.35
59635184,2659,1,201354,250213,0.27,-0.29,7.92,-0.04,-0.16,-0.02,25.35
59675205,2491,1,201089,251049,0.57,-1.88,10.68,-0.01,0.11,-0.01,25.35
59715871,2414,1,201591,253140,-0.02,-0.79,9.29,-0.03,-0.04,-0.01,25.41
59754219,1946,1,202222,252172,0.11,-0.62,10.46,0.01,-0.01,-0.04,25.41
59794184,1869,1,200946,253136,0.43,-1.21,11.59,-0.01,-0.02,-0.01,25.41
59834219,1722,1,200819,250981,1.08,-0.30,8.78,-0.05,-0.18,-0.03,25.41
59874205,1827,1,200798,252254,0.40,-0.96,9.50,-0.04,0.04,-0.02,25.41
59914182,1830,1,201975,253507,0.66,-1.50,9.57,-0.05,0.00,-0.02,25.41
59954184,1828,1,202915,255026,0.53,-0.51,10.88,-0.01,0.02,-0.03,25.41
59994185,2166,1,203074,255287,0.01,-1.01,9.73,-0.02,-0.02,-0.02,25.41
60034245,2115,1,203010,256807,0.39,-0.44,11.03,0.00,-0.02,-0.02,25.41
60074182,2192,1,203539,257901,0.25,-1.20,10.19,-0.00,-0.00,-0.01,25.41
60114205,2224,1,203168,256490,0.79,-0.82,9.72,-0.04,-0.09,-0.02,25.41
60154230,2234,1,203464,257170,0.15,-2.12,10.85,-0.02,0.08,-0.00,25.41
60194184,2252,1,202515,253942,0.65,-0.52,9.41,-0.05,-0.13,-0.02,25.41
60234229,2217,1,202061,255313,0.42,-0.62,11.27,-0.01,0.08,-0.01,25.41
60274184,2238,1,202390,255320,0.48,-0.69,9.41,-0.06,-0.08,-0.01,25.41
60314203,2186,1,202001,251638,0.27,-1.13,9.77,-0.05,0.01,-0.01,25.41
60354184,2177,1,200166,248867,0.54,-1.03,10.58,-0.04,-0.04,0.00,25.41
60394182,2154,1,199414,248559,0.72,-0.90,10.81,-0.03,-0.04,0.03,25.41
60434184,2119,1,199581,248029,0.23,-0.52,8.86,-0.07,-0.03,-0.01,25.41
60474202,2061,1,199654,248588,0.51,-1.44,9.01,-0.06,0.06,-0.02,25.41
60514184,2032,1,200852,250976,0.51,-1.15,10.19,-0.04,0.08,-0.02,25.41
60554184,1927,1,201201,252520,0.40,-1.31,10.36,-0.05,-0.03,-0.01,25.41
60594206,1968,1,200942,251976,0.53,-0.73,10.22,-0.00,-0.04,-0.01,25.41
60634205,2235,1,200760,253018,-0.07,-1.49,10.74,-0.02,0.08,0.00,25.41
60674184,2493,1,200401,251247,0.68,-1.03,9.50,-0.09,-0.09,-0.01,25.41
60714202,2304,1,200625,254986,1.23,-1.05,11.50,0.01,0.01,-0.00,25.41
60754859,1887,1,201436,251751,0.51,-0.41,8.05,-0.07,-0.14,-0.02,25.35
60793205,2418,1,200850,254061,-0.51,-1.82,9.94,-0.09,0.16,-0.00,25.35
60833205,2016,1,201928,255182,-0.08,-1.78,12.19,0.03,0.11,0.01,25.35
60873171,1975,1,201149,253187,-0.28,-0.92,8.39,-0.04,-0.28,0.01,25.35
60913205,1847,1,201153,254339,0.18,-2.65,8.90,-0.06,0.10,-0.00,25.35
60953182,1950,1,201615,254568,0.73,-0.63,10.13,-0.01,-0.13,-0.02,25.35
60993205,1861,1,201702,254405,0.31,-0.31,10.12,-0.05,-0.04,-0.01,25.35
61033205,1896,1,200745,251224,0.85,-0.81,9.32,-0.07,-0.11,-0.01,25.35
61073205,1844,1,200621,252083,0.03,-1.48,10.12,0.01,0.03,-0.01,25.35
61113171,2192,1,200211,248349,0.42,0.03,8.16,-0.08,-0.14,-0.02,25.35
61153184,2454,1,199388,248894,0.83,-1.72,10.81,0.01,0.06,-0.00,25.35
61193171,2016,1,200295,249734,0.14,-0.71,9.01,-0.05,-0.05,-0.01,25.35
61233205,1825,1,200726,251283,0.61,-1.37,9.78,-0.02,-0.05,-0.00,25.35
61273203,1853,1,201607,252826,-0.15,-1.48,9.27,-0.00,0.04,0.01,25.35
61313184,2000,1,201619,252738,0.52,-1.36,10.26,-0.00,-0.08,-0.00,25.35
61353205,2033,1,201479,254018,0.23,-1.29,10.01,0.00,0.00,0.00,25.35
61393152,1831,1,201614,252957,0.30,-0.09,10.07,-0.01,-0.10,-0.01,25.35
61433202,1830,1,201651,255953,0.20,-1.28,10.12,-0.03,0.04,-0.01,25.35
61473185,1831,1,203356,256629,0.54,-0.08,9.99,0.03,-0.06,-0.14,25.35
61513184,2155,1,202669,256989,0.48,-0.63,11.42,-0.02,-0.04,-0.01,25.35
61553205,1927,1,202885,257492,0.14,-0.90,10.47,-0.02,-0.06,-0.01,25.35
61593205,2044,1,202470,256529,0.49,-0.35,10.23,-0.02,-0.13,-0.01,25.35
61633205,1819,1,202224,256312,0.16,-0.57,10.38,-0.03,-0.02,-0.01,25.35
61673238,1835,1,201962,254758,0.59,0.42,10.42,-0.05,-0.09,-0.02,25.35
