timestamp_us,ecg,leads,ir,red,accX,accY,accZ,gyroX,gyroY,gyroZ,temp
1919494,576,1,193682,242487,0.00,0.00,0.00,0.00,0.00,0.00,0.00
1949970,0,1,194232,243287,0.89,-1.41,9.99,-0.03,0.03,-0.24,27.69
1990186,0,1,193874,241179,-0.12,-0.17,7.93,-0.02,0.06,-0.11,27.69
2030197,0,1,194137,242158,0.83,-1.27,10.65,-0.08,0.02,-0.06,27.69
2070180,0,1,194304,241881,0.66,0.20,8.46,-0.03,0.06,-0.06,27.69
2110183,0,1,194634,244111,0.34,-2.38,9.58,-0.05,0.11,-0.06,27.69
2150181,0,1,195194,244891,0.46,-0.02,9.54,-0.02,0.05,-0.06,27.69
2190177,0,1,195261,243356,-0.06,-1.83,9.45,-0.05,0.07,-0.07,27.69
2230201,0,1,193693,241374,0.54,-1.09,8.47,-0.05,0.01,-0.06,27.69
2270178,0,1,194557,242235,-0.01,-0.89,10.35,-0.06,0.10,-0.06,27.69
2310220,550,1,193784,243286,1.34,-1.26,10.38,-0.02,-0.08,-0.06,27.69
2350202,925,1,195776,245405,0.58,-1.66,12.39,-0.04,0.07,-0.22,27.69
2390183,1445,1,195844,246173,-0.14,-0.69,9.58,0.01,-0.01,-0.11,27.69
2430203,1781,1,196442,246624,0.68,-1.65,13.23,-0.05,0.01,-0.21,27.69
2470184,2032,1,195899,243464,-0.19,-1.35,10.86,-0.03,-0.08,-0.15,27.69
2510215,2082,1,194304,242670,0.31,-1.11,11.03,-0.03,-0.08,-0.06,27.69
2550202,2163,1,195260,245122,0.03,-2.62,10.58,-0.10,0.06,-0.07,27.69
2590182,2261,1,194597,243619,0.43,0.23,7.66,-0.04,-0.05,-0.09,27.69
2630184,2285,1,195436,245612,-0.07,-2.46,10.54,-0.15,0.12,-0.10,27.69
2670202,2478,1,194859,241168,-0.50,0.28,6.76,-0.05,-0.00,-0.22,27.69
2708213,2559,1,193607,241308,-0.29,-2.57,10.26,-0.04,-0.14,0.23,27.69
2748204,2430,1,194584,242843,0.22,-2.15,10.45,-0.09,0.13,-0.13,27.69
2788182,2509,1,193984,242746,0.83,-0.79,7.79,0.01,-0.13,-0.08,27.69
2828182,2477,1,195232,244857,-0.07,-2.62,11.10,-0.11,0.16,-0.10,27.69
2868204,2512,1,194938,240969,-0.05,-1.00,10.60,0.01,0.04,-0.23,27.69
2908204,2495,1,193620,241224,-0.30,-2.31,11.00,-0.07,-0.15,0.18,27.69
2948204,2387,1,194374,240906,0.44,-1.64,9.71,-0.05,0.05,-0.15,27.69
2988867,2473,1,193166,240520,0.10,-0.69,7.38,-0.07,-0.08,0.18,27.55
3029180,2334,1,194271,241329,0.94,-2.28,10.57,-0.09,0.12,-0.23,27.55
3069181,2331,1,192986,238297,0.22,1.44,6.74,-0.07,-0.03,-0.10,27.55
3109210,2494,1,193888,241955,0.82,-2.60,11.58,-0.09,0.07,-0.14,27.55
3149181,2537,1,193830,241915,0.14,-0.07,7.96,-0.05,0.04,-0.15,27.55
3189183,2646,1,194726,245165,-0.23,-2.18,8.74,-0.08,0.03,-0.16,27.55
3229204,2626,1,195908,246194,-0.02,-2.15,9.86,-0.01,0.06,-0.22,27.55
3269204,2590,1,196448,245509,-0.24,0.11,10.81,-0.05,-0.00,-0.18,27.55
3309203,2618,1,196138,247901,0.14,-2.27,12.41,-0.07,0.00,-0.10,27.55
3349183,2421,1,195966,245642,-0.57,-0.03,8.64,-0.04,0.05,-0.19,27.55
3389201,2259,1,195494,247978,0.12,-3.65,12.69,-0.07,-0.05,-0.03,27.55
3429204,2339,1,195075,244344,0.26,-0.17,9.08,-0.05,0.00,-0.15,27.55
3469181,2115,1,194394,244945,0.34,-2.38,11.91,-0.06,-0.11,-0.01,27.55
3509202,2270,1,193927,242089,0.67,0.11,8.26,-0.09,-0.07,-0.09,27.55
3549181,1903,1,194173,244299,-0.26,-1.93,11.48,-0.09,0.05,-0.02,27.55
3589205,2071,1,194782,246414,0.79,-0.42,9.97,-0.01,-0.04,-0.09,27.55
3629202,2128,1,195511,243741,-0.17,-1.01,9.68,-0.06,0.01,-0.13,27.55
3669202,1929,1,193431,242918,1.14,-1.03,8.70,-0.09,-0.12,0.12,27.55
3709181,1887,1,193651,240793,0.57,-0.61,7.87,-0.05,-0.01,-0.06,27.55
3749201,1770,1,192787,242479,0.03,-1.76,9.95,-0.05,0.01,0.61,27.55
3789171,1777,1,193904,242982,0.48,-0.04,8.43,-0.02,0.07,-0.06,27.55
3829181,1651,1,193855,245001,-0.01,-1.79,9.46,0.02,-0.01,-0.06,27.55
3869201,1618,1,194094,241659,1.08,-1.10,10.03,-0.02,-0.01,-0.08,27.55
3909201,1392,1,192569,238386,0.61,0.92,8.56,-0.02,-0.13,0.56,27.55
3949170,1427,1,194109,242629,1.17,-2.09,13.13,-0.10,-0.02,0.25,27.55
3989868,1535,1,195874,244995,0.32,0.53,8.41,0.08,0.09,-0.07,27.55
4028149,1199,1,196978,247182,0.64,-0.83,11.98,-0.05,0.05,-0.15,27.55
4068183,1233,1,197099,246536,0.17,-1.73,12.65,-0.06,-0.00,-0.13,27.55
4108201,1151,1,198860,248584,0.16,-1.28,10.89,0.02,-0.04,0.57,27.55
4147171,1239,1,201570,250483,1.05,-2.20,14.02,-0.13,-0.04,0.10,27.55
4187180,1312,1,201322,250794,0.58,-0.68,8.96,0.00,-0.09,-0.07,27.55
4227183,1211,1,200296,249686,0.08,-0.65,9.82,-0.06,0.13,-0.56,27.55
4267180,1070,1,199726,247368,-0.38,0.54,11.54,-0.10,0.11,-0.09,27.55
4307182,1089,1,198688,246746,1.25,0.97,9.90,-0.11,-0.20,-0.00,27.55
4347195,1229,1,199188,246702,0.42,-1.51,11.09,-0.15,0.10,-0.01,27.55
4387182,1424,1,198313,245994,1.14,-0.34,8.19,-0.00,-0.13,-0.06,27.55
4427200,1568,1,198970,247636,0.72,-0.99,13.69,-0.17,0.05,-0.07,27.55
4467183,1562,1,197874,244904,0.26,-0.74,4.96,0.01,-0.07,-0.09,27.55
4507180,1740,1,198489,247652,0.76,-2.93,13.13,-0.10,-0.05,0.10,27.55
4547223,1883,1,198192,245987,0.67,-1.06,6.59,-0.02,0.01,-0.05,27.55
4587180,2067,1,198588,248174,1.03,-1.65,11.25,-0.08,0.01,-0.05,27.55
4627182,1911,1,198334,246276,0.46,-0.62,9.38,-0.03,-0.03,-0.05,27.55
4667200,1920,1,197948,246470,0.30,-0.48,9.47,-0.05,0.03,0.31,27.55
4707171,1987,1,198504,247128,0.72,-0.71,10.93,-0.01,0.04,-0.02,27.55
4747200,2000,1,198618,247271,0.11,-1.62,9.54,0.02,0.01,-0.04,27.55
4787171,1968,1,198430,246111,0.97,-1.25,9.24,-0.01,-0.05,-0.04,27.55
4827200,1869,1,198755,246074,0.05,-1.08,8.13,-0.04,0.02,0.50,27.55
4867171,1905,1,200390,247964,0.22,-1.53,8.76,-0.01,0.05,0.30,27.55
4907171,1904,1,200863,247635,0.80,-0.54,9.89,0.02,0.01,-0.05,27.55
4947171,1845,1,200731,247432,-0.15,-1.66,9.83,0.02,0.00,-0.04,27.55
4987180,1798,1,200968,246792,0.57,-0.52,8.89,-0.01,0.01,-0.04,27.55
5027869,1763,1,200401,244869,-0.04,-0.53,8.09,0.05,0.04,-0.03,27.43
5068178,1790,1,200019,246797,1.11,-0.88,9.00,0.03,0.03,-0.04,27.43
5108171,1798,1,201083,248207,0.58,-0.14,11.80,-0.00,0.04,-0.04,27.43
5148181,1747,1,200306,248768,0.27,-1.74,10.56,0.04,-0.08,-0.04,27.43
5188181,1674,1,200523,249149,-0.22,-1.01,10.48,-0.00,0.01,-0.04,27.43
5228201,1611,1,200747,249648,0.11,-2.18,10.47,0.00,-0.04,-0.03,27.43
5268181,1621,1,201034,250961,-0.23,-1.29,11.27,0.00,0.04,-0.04,27.43
5308181,1594,1,200863,250207,-0.21,-0.11,11.04,0.00,-0.05,-0.04,27.43
5348201,1525,1,200717,251455,1.28,-0.42,14.06,-0.01,-0.15,-0.04,27.43
5386200,1533,1,200874,251278,0.06,-1.31,11.14,-0.09,-0.04,-0.08,27.43
5426217,1535,1,200255,251183,1.71,1.05,9.78,0.00,-0.09,-0.10,27.43
5466171,1567,1,200506,250086,-0.22,-1.78,12.88,-0.20,0.20,-0.06,27.43
5506203,1429,1,199973,250288,0.04,1.09,6.43,0.01,-0.30,-0.04,27.43
5546171,1441,1,200746,250376,0.95,-1.52,11.95,-0.18,0.02,-0.01,27.43
5586182,1477,1,200486,250285,-0.15,-1.39,5.27,-0.02,-0.10,-0.01,27.43
5626217,1557,1,200446,248678,1.25,-0.55,11.08,-0.11,-0.00,-0.05,27.43
5666203,1507,1,199214,248428,0.44,-1.02,8.11,-0.06,-0.14,-0.04,27.43
5706200,1600,1,199566,247601,-0.13,-1.74,6.27,-0.05,0.04,-0.04,27.43
5746204,1626,1,199846,249791,0.74,-2.07,10.03,-0.04,-0.08,-0.03,27.43
5786200,1772,1,199743,248497,1.03,0.55,9.11,0.03,-0.01,-0.28,27.43
5826171,1727,1,199786,249371,0.07,-1.68,8.86,-0.05,-0.01,-0.03,27.43
5866200,1800,1,199968,248589,1.34,-0.08,9.63,0.01,-0.02,-0.04,27.43
5906181,1792,1,200780,249258,0.10,-1.88,10.69,-0.07,0.06,0.40,27.43
5946171,1875,1,200945,249051,0.73,-0.53,6.97,0.03,0.09,-0.02,27.43
5986171,1901,1,201587,250240,0.48,-1.01,10.90,-0.04,0.13,-0.01,27.43
6026182,1904,1,201066,249492,0.57,0.32,8.51,0.02,0.01,-0.06,27.43
6066837,1864,1,201600,250568,0.48,-0.67,11.47,-0.06,0.08,-0.03,27.43
6107181,1911,1,201438,250182,0.46,-0.56,9.01,0.02,-0.05,-0.02,27.43
6147181,1876,1,201691,251052,-0.11,-1.29,10.59,-0.04,0.08,-0.02,27.43
6187201,1903,1,201959,251686,0.40,-1.36,11.63,-0.02,0.04,-0.03,27.43
6227181,1904,1,201652,251316,0.58,-0.55,11.26,-0.03,-0.04,-0.02,27.43
6267201,1855,1,201577,251396,0.12,-1.35,10.62,-0.08,0.03,-0.03,27.43
6307181,1854,1,201554,251051,0.22,-0.33,10.41,-0.08,0.01,-0.03,27.43
6347181,1827,1,201401,249726,0.32,-1.05,10.54,-0.09,0.05,-0.03,27.43
6387181,1839,1,200814,250187,1.23,-0.17,10.50,-0.04,-0.07,-0.03,27.43
6427201,1851,1,201311,250369,0.44,-1.19,10.03,-0.05,-0.00,-0.03,27.43
6467202,1831,1,200588,249683,0.75,0.02,10.10,-0.03,-0.09,-0.03,27.43
6507181,1766,1,200640,249441,0.21,-1.82,9.67,-0.09,0.01,-0.03,27.43
6547181,1776,1,200252,249668,0.43,-0.88,8.72,-0.04,-0.03,-0.02,27.43
6587201,1719,1,200855,251302,0.52,-1.27,11.35,-0.09,0.04,-0.03,27.43
6627181,1745,1,200811,251162,0.14,-1.34,9.50,-0.04,0.01,-0.05,27.43
6667181,1694,1,200302,249706,0.20,-0.80,9.17,-0.07,-0.04,-0.04,27.43
6707201,1617,1,200436,249331,1.44,-0.57,10.41,-0.08,-0.07,-0.03,27.43
6747201,1631,1,200379,249156,0.98,0.79,8.20,-0.00,-0.12,-0.00,27.43
6785182,1597,1,200842,249493,0.72,-2.02,9.63,-0.09,0.14,-0.01,27.43
6825180,1664,1,200320,249963,0.67,-0.14,8.38,0.02,-0.04,-0.02,27.43
6865182,1616,1,200707,249763,0.40,-0.88,10.45,-0.03,0.05,-0.14,27.43
6905180,1648,1,200070,248833,0.59,-0.85,8.34,0.02,-0.05,-0.02,27.43
6945182,1610,1,200234,249363,0.75,-0.57,9.89,-0.03,0.02,-0.02,27.43
6985180,1623,1,200420,249727,0.46,-0.48,10.71,0.00,0.07,-0.02,27.43
7025177,1642,1,200085,250576,0.89,-0.98,10.56,-0.03,0.02,-0.02,27.43
7065182,1725,1,200124,251073,-0.07,-0.89,9.37,-0.02,0.07,-0.04,27.43
7105892,1709,1,200212,250916,0.84,-0.60,11.75,-0.02,-0.00,-0.08,27.49
7146201,1691,1,200042,250751,-0.00,-0.36,9.77,-0.01,-0.01,-0.01,27.49
7186217,1639,1,200585,251949,0.80,-0.93,11.70,-0.02,-0.01,-0.01,27.49
7226201,1712,1,200955,251865,0.27,-0.23,11.92,0.01,0.00,-0.02,27.49
7266171,1718,1,200504,251223,0.65,-0.56,9.98,-0.03,-0.16,-0.01,27.49
7306201,1696,1,200505,250919,0.93,-1.58,8.53,-0.03,-0.10,-0.01,27.49
7346201,1728,1,200402,250196,0.26,-0.95,7.76,-0.01,0.01,-0.01,27.49
7386181,1727,1,199854,248666,0.31,-1.53,7.88,-0.06,0.06,-0.02,27.49
7426183,1744,1,199863,251820,-0.06,-0.82,9.67,-0.06,0.06,-0.02,27.49
7466202,1829,1,201660,252935,0.47,-2.27,9.48,0.01,0.01,-0.67,27.49
7506171,1842,1,201040,251321,0.29,-0.36,9.29,0.02,-0.08,-0.07,27.49
7546181,1867,1,199518,249797,0.21,-1.78,8.51,-0.01,-0.05,-0.01,27.49
7586202,1779,1,199706,250775,0.86,0.06,10.13,0.00,-0.01,0.05,27.49
7626150,1763,1,200312,251106,0.06,-1.33,8.91,-0.04,0.12,-0.02,27.49
7666181,1861,1,200553,252296,0.88,-0.64,11.54,-0.02,0.05,-0.02,27.49
7706181,1841,1,199854,249306,0.47,-0.79,8.55,-0.01,0.00,-0.03,27.49
7746180,1808,1,199796,251592,-0.28,-1.86,10.37,-0.06,0.08,0.02,27.49
7786181,1840,1,200394,250349,1.02,0.21,11.19,-0.04,0.08,-0.05,27.49
7826185,1735,1,200518,252304,0.28,-0.42,12.37,-0.07,0.01,-0.03,27.49
7866181,1826,1,199677,249071,0.92,0.29,8.59,-0.08,-0.08,-0.04,27.49
7906181,1755,1,200032,250739,-0.48,-2.01,11.58,-0.12,0.07,0.26,27.49
7946181,1879,1,200128,250397,0.68,-0.19,8.00,-0.05,-0.03,-0.04,27.49
7986201,1820,1,200544,253037,0.95,-0.67,11.58,-0.11,0.03,-0.03,27.49
8026219,1822,1,200719,252708,0.32,-1.39,9.71,-0.04,0.00,-0.30,27.49
8066181,1712,1,200087,251725,0.59,0.14,10.49,-0.07,-0.08,-0.03,27.49
8106868,1654,1,200093,251749,0.29,-3.02,10.35,-0.15,0.04,0.07,27.49
8145171,1687,1,199979,251508,0.82,0.69,10.05,-0.05,-0.08,-0.02,27.49
8185181,1637,1,199856,250288,0.35,-2.84,10.27,-0.09,-0.01,0.11,27.49
8225183,1679,1,199307,248906,0.32,-1.03,6.45,-0.09,0.05,0.86,27.49
8265171,1657,1,199904,249506,0.55,-3.53,8.01,-0.13,0.02,0.05,27.49
8305171,1675,1,199397,248300,0.87,0.44,6.10,0.05,-0.01,-0.01,27.49
8345171,1643,1,200078,250211,-0.13,-2.25,9.76,-0.12,0.17,-0.05,27.49
8385204,1719,1,200280,250944,0.48,-0.03,9.80,0.07,0.05,-0.84,27.49
8425171,1708,1,200521,250263,-0.46,-1.30,11.00,0.04,0.04,-0.59,27.49
8465181,1722,1,199611,247791,0.64,-0.27,9.91,-0.00,-0.04,-0.05,27.49
8505201,1684,1,198709,243882,1.03,1.19,6.78,-0.05,-0.00,0.74,27.49
8545171,1715,1,199900,245083,-0.87,-3.16,10.77,-0.10,0.13,1.26,27.49
8585181,1759,1,203296,248747,1.83,-0.65,9.61,0.01,-0.16,0.64,27.49
8625171,1744,1,205153,253272,0.37,-1.76,11.60,0.00,0.09,-0.15,27.49
8665171,1645,1,204528,254437,0.69,0.91,7.91,0.08,-0.05,-0.72,27.49
8705171,1474,1,204634,253076,0.06,-0.85,13.86,-0.12,0.12,-0.61,27.49
8745180,1349,1,203544,252746,0.43,-0.08,10.38,-0.00,-0.20,-0.02,27.49
8785201,1380,1,205433,254231,0.99,0.85,14.06,-0.10,0.01,0.25,27.49
8825150,1319,1,206207,254426,0.43,-1.09,10.66,-0.10,-0.01,0.18,27.49
8865183,1165,1,205863,253682,1.36,0.80,10.50,-0.06,-0.06,-0.03,27.49
8905181,1072,1,205777,253654,0.11,-1.67,9.73,-0.10,0.05,-0.02,27.49
8945183,1093,1,204823,252442,1.42,1.90,9.00,-0.10,-0.07,-0.03,27.49
8985181,1136,1,205038,254788,0.27,-1.58,12.06,-0.16,0.04,-0.12,27.49
9025204,1395,1,204642,254464,0.96,2.08,6.95,0.03,-0.07,-0.82,27.49
9065171,1456,1,204714,252754,0.21,-1.75,11.12,-0.12,-0.06,-0.38,27.49
9105204,1627,1,202827,250667,0.76,0.00,7.94,-0.03,-0.08,-0.02,27.49
9145868,1782,1,203265,251136,1.16,-1.68,10.09,-0.12,-0.02,0.01,27.55
9184182,1851,1,203010,252141,0.50,-0.73,8.43,-0.02,-0.04,-0.00,27.55
9224201,1959,1,203606,251039,0.04,-1.20,9.91,-0.04,0.08,-0.04,27.55
9264183,1953,1,202805,251145,0.24,-1.78,8.68,0.02,-0.05,-0.00,27.55
9304180,2000,1,203040,249921,0.79,-0.86,10.56,-0.04,-0.04,-0.01,27.55
9344203,1994,1,202779,250462,-0.27,-2.00,9.32,0.05,0.02,0.04,27.55
9384171,2071,1,203172,250722,0.82,-1.13,10.32,-0.00,0.01,-0.01,27.55
9424183,2031,1,203311,251884,-0.17,-1.32,10.08,0.03,-0.00,0.00,27.55
9464181,2047,1,203089,251586,0.25,-0.42,8.98,0.04,-0.02,-0.05,27.55
9504183,1983,1,203393,251960,0.37,-0.45,11.31,0.00,0.00,-0.01,27.55
9544171,1965,1,202635,251946,0.54,-0.61,9.01,0.05,-0.04,-0.01,27.55
9584183,1979,1,203349,252083,0.41,-1.09,11.07,-0.01,0.05,-0.02,27.55
9624181,1919,1,202686,251694,0.21,-0.47,10.01,0.03,-0.06,-0.01,27.55
9664188,1913,1,202926,252085,0.06,-1.16,10.72,-0.03,-0.00,-0.02,27.55
9704201,1868,1,202761,251346,0.41,-0.33,11.00,-0.02,-0.02,-0.02,27.55
9744204,1872,1,203064,252718,-0.17,-0.80,11.24,-0.05,0.05,-0.01,27.55
9784202,1893,1,203165,252414,0.17,-0.31,10.44,-0.03,-0.02,-0.02,27.55
9824205,1824,1,202956,252690,0.12,-0.90,10.92,-0.04,-0.05,-0.01,27.55
9864201,1776,1,202414,251410,0.55,-0.49,9.76,-0.03,-0.10,-0.01,27.55
9904204,1795,1,202108,250477,0.44,-0.76,10.38,-0.04,-0.04,0.19,27.55
9944180,1806,1,201886,250095,0.53,-1.25,9.30,-0.05,-0.01,0.17,27.55
9984184,1835,1,202147,250215,0.73,-1.04,9.75,-0.07,-0.01,-0.01,27.55
10024226,1795,1,201961,250363,0.30,-0.59,9.45,-0.05,-0.00,-0.01,27.55
10064204,1793,1,201983,250144,0.55,-0.96,9.09,-0.06,-0.03,-0.01,27.55
10104201,1818,1,201848,249966,0.56,-0.61,9.39,-0.05,-0.04,-0.01,27.55
10144204,1834,1,202056,249644,0.49,-1.01,9.70,-0.02,-0.00,-0.01,27.55
10184889,1840,1,201874,249844,0.71,-0.41,9.27,-0.00,-0.02,0.00,27.55
10223183,1859,1,202234,249934,0.72,-0.89,9.68,-0.01,0.00,-0.00,27.55
10263181,1877,1,202311,250043,1.20,0.54,9.59,-0.01,-0.03,0.11,27.55
10303171,1850,1,202677,250003,0.79,0.03,9.83,-0.02,-0.01,0.10,27.55
10343171,1841,1,202895,250124,0.65,-0.02,9.49,-0.01,0.04,0.22,27.55
10383171,1882,1,203093,249156,0.73,-0.21,9.27,-0.00,0.02,0.01,27.55
10423171,1845,1,203355,250006,0.71,0.24,10.79,-0.01,0.04,0.01,27.55
10463150,1825,1,203120,249164,1.20,-0.10,10.29,0.01,-0.04,0.01,27.55
10503171,1825,1,202938,249434,0.82,0.03,10.52,0.00,-0.02,0.05,27.55
10543151,1819,1,202819,249068,1.10,0.01,10.66,-0.02,-0.04,0.30,27.55
10583171,1771,1,203152,250696,0.20,-1.03,11.32,-0.03,-0.01,0.33,27.55
10623183,1774,1,203546,250647,0.87,-0.12,9.67,0.02,-0.05,0.04,27.55
10663171,1755,1,203862,251752,0.75,-0.70,11.18,-0.03,-0.03,0.12,27.55
10703183,1833,1,204240,251384,1.01,-0.22,10.28,-0.01,-0.03,0.03,27.55
10743181,1897,1,204377,252397,1.02,-0.25,11.26,-0.04,-0.04,0.03,27.55
10783183,1934,1,204566,252338,0.82,-0.62,9.52,-0.01,-0.05,0.04,27.55
10823181,1891,1,204771,252270,0.75,0.06,10.71,-0.02,-0.07,0.04,27.55
10863171,1904,1,204588,251677,1.18,-0.25,9.64,0.01,-0.08,0.04,27.55
10903171,1909,1,204699,252056,1.10,-0.04,10.06,-0.02,-0.02,0.04,27.55
10943183,1948,1,204614,251839,1.50,-0.29,9.13,-0.02,-0.06,0.03,27.55
10983181,1929,1,204635,252148,1.12,-0.04,9.39,-0.03,-0.00,0.03,27.55
11023198,1887,1,204448,251424,1.36,0.53,8.85,-0.03,-0.04,0.03,27.55
11063171,1866,1,204083,250641,1.15,-0.16,8.88,-0.04,-0.01,0.03,27.55
11104225,1837,1,203750,248568,1.42,0.27,8.93,-0.03,-0.04,0.03,27.55
11144171,1808,1,203806,250420,1.11,0.14,10.23,-0.05,0.01,0.04,27.55
11184150,1806,1,204383,249471,1.20,-0.09,9.11,-0.02,0.00,0.03,27.55
11224858,1797,1,204169,250438,1.28,0.22,9.99,-0.06,0.01,0.04,27.47
11263150,1751,1,204953,250919,0.88,-0.42,9.00,-0.07,0.06,0.03,27.47
11303198,1717,1,204845,252063,1.17,0.19,9.78,-0.07,0.03,0.04,27.47
11343150,1691,1,205421,252353,0.95,-0.45,10.08,-0.08,0.05,0.03,27.47
11383171,1715,1,205175,252850,0.73,-0.16,9.41,-0.03,0.01,0.04,27.47
11423171,1666,1,205576,253084,1.16,-0.50,10.89,-0.06,0.01,0.04,27.47
11463171,1629,1,205635,254275,0.64,-0.34,10.60,-0.05,-0.01,0.04,27.47
11503183,1622,1,205906,254595,0.92,-0.53,10.61,-0.06,0.02,0.04,27.47
11543171,1571,1,206069,255386,0.88,-0.15,11.21,-0.08,0.03,0.04,27.47
11583171,1520,1,206015,255323,0.59,-0.65,10.55,-0.09,0.02,0.04,27.47
11623171,1456,1,205673,254921,0.76,-0.09,10.03,-0.05,-0.02,0.04,27.47
11663181,1435,1,205816,255095,0.51,-0.98,9.76,-0.08,0.04,0.04,27.47
11703171,1447,1,205457,254206,1.07,-0.25,9.50,-0.04,-0.03,0.03,27.47
11743181,1466,1,205016,253428,0.94,-0.75,10.44,-0.07,0.02,0.03,27.47
11783171,1501,1,204284,252225,0.61,-0.51,8.32,-0.04,0.00,0.02,27.47
11823171,1530,1,203840,250959,0.89,-0.57,8.94,-0.07,-0.03,-0.15,27.47
11863201,1515,1,203443,250338,0.88,-0.42,8.64,-0.06,-0.01,0.01,27.47
11903183,1513,1,203423,250008,0.77,-0.57,8.36,-0.05,-0.01,0.01,27.47
11943181,1517,1,203612,250756,0.80,-0.62,9.12,-0.04,0.03,0.01,27.47
11983171,1611,1,203899,250843,0.53,-0.58,9.05,-0.03,0.02,-0.02,27.47
12023197,1653,1,204216,252010,0.73,-0.66,10.18,-0.04,0.03,0.01,27.47
12063171,1649,1,204569,252485,0.53,-0.77,9.78,-0.04,0.03,0.01,27.47
12103171,1674,1,205329,254697,0.10,-1.04,10.19,-0.08,0.08,0.01,27.47
12143171,1719,1,205740,255499,0.52,-1.37,11.28,-0.07,0.04,-0.03,27.47
12183181,1797,1,205641,255316,-0.04,-1.13,10.78,-0.07,0.05,0.00,27.47
12223182,1792,1,205026,254750,0.31,-1.09,9.94,-0.06,-0.01,0.00,27.47
12263868,1680,1,204920,254718,0.46,-0.82,11.32,-0.05,-0.01,0.00,27.47
12302183,1659,1,204760,254332,0.30,-1.28,9.65,-0.06,0.01,0.01,27.47
12342171,1680,1,204690,253682,0.28,-1.36,10.59,-0.06,0.02,0.01,27.47
12382171,1728,1,204002,252350,0.12,-1.50,10.03,-0.04,-0.00,0.01,27.47
12422181,1716,1,203324,252067,0.58,-1.06,10.19,-0.06,-0.05,0.00,27.47
12462183,1725,1,203181,251901,0.43,-1.18,10.07,-0.03,-0.03,0.00,27.47
12502181,1727,1,203126,252231,0.10,-1.47,9.63,-0.04,-0.01,0.00,27.47
12542183,1690,1,203463,252400,0.23,-1.12,10.69,-0.01,-0.02,0.00,27.47
12582181,1717,1,203578,252506,0.38,-0.81,10.52,0.02,-0.05,0.01,27.47
12622171,1741,1,203414,252790,1.01,-0.92,11.02,0.03,-0.09,0.00,27.47
12662171,1806,1,203613,253431,0.51,-1.26,9.98,-0.01,-0.05,0.00,27.47
12702183,1776,1,203887,254668,0.48,-1.26,10.14,-0.02,-0.04,-0.00,27.47
12742260,1791,1,204449,254723,0.02,-0.92,11.10,-0.04,0.02,-0.01,27.47
12782183,1718,1,203959,254623,0.16,-0.74,9.68,-0.02,-0.10,-0.00,27.47
12822201,1649,1,204080,254270,0.41,-0.64,11.55,-0.04,-0.04,-0.01,27.47
12862205,1664,1,203512,253564,0.85,-0.47,9.85,-0.00,-0.14,-0.00,27.47
12902201,1675,1,203873,253677,0.20,-1.50,9.74,-0.04,-0.03,-0.00,27.47
12942243,1783,1,203364,251934,0.57,-0.85,8.94,-0.02,-0.09,-0.01,27.47
12982201,1803,1,202813,251102,0.49,-0.70,9.33,-0.05,-0.01,-0.01,27.47
13022205,1868,1,202351,248288,0.54,-1.42,8.03,-0.06,0.00,-0.01,27.47
13062181,1920,1,201179,247218,1.13,-0.32,9.27,-0.04,0.00,-0.01,27.47
13102183,1936,1,201876,247874,-0.07,-1.63,7.99,-0.06,0.07,-0.01,27.47
13142201,1931,1,201214,246701,0.88,-0.55,8.62,-0.03,-0.05,-0.01,27.47
13182205,1866,1,201090,246012,0.43,-1.14,9.53,-0.04,0.01,-0.01,27.47
13222181,1796,1,200636,245315,0.14,-1.15,9.00,-0.05,0.04,0.47,27.47
13262171,1834,1,200646,244735,0.52,-1.32,9.36,-0.04,-0.00,0.32,27.47
13302868,1823,1,200856,245480,0.20,-1.34,11.19,-0.04,0.04,0.62,27.43
13341171,1877,1,201633,246278,0.55,-0.99,9.55,0.02,-0.01,0.05,27.43
13381171,1883,1,202544,249269,-0.01,-1.31,10.69,-0.00,0.05,0.09,27.43
13421183,1938,1,203348,250308,0.50,-1.04,10.68,-0.00,-0.00,-0.00,27.43
13461200,1936,1,203873,251869,-0.13,-1.14,12.18,-0.03,0.00,0.00,27.43
13501183,1968,1,204041,252166,0.42,-1.30,11.86,-0.03,-0.07,-0.01,27.43
13541201,1898,1,204246,252259,-0.14,-1.08,11.69,-0.05,-0.04,-0.00,27.43
13581217,1851,1,203901,251198,0.58,-0.31,11.23,-0.06,-0.03,0.38,27.43
13621181,1805,1,203140,248695,0.57,0.07,10.35,-0.08,-0.06,0.35,27.43
13661171,1725,1,202311,245551,0.34,-0.89,9.83,-0.10,-0.01,0.72,27.43
13701180,1758,1,201281,243162,1.07,-0.18,7.78,-0.07,-0.11,0.18,27.43
13741183,1745,1,201194,243184,0.13,-1.48,10.10,-0.10,0.01,0.30,27.43
13781171,1826,1,201000,242571,0.67,-0.99,7.39,-0.05,-0.06,-0.01,27.43
13821204,1858,1,201857,245178,0.44,-1.17,9.74,-0.08,0.04,-0.01,27.43
13861180,1920,1,202433,246757,0.57,-1.38,8.18,-0.01,-0.05,-0.29,27.43
13901204,1835,1,203484,248630,0.32,-0.91,10.31,-0.02,-0.02,-0.19,27.43
13941201,1754,1,204325,247478,1.04,-0.77,8.15,0.03,-0.10,-0.03,27.43
13981183,1767,1,205553,247694,0.55,-0.86,9.43,-0.04,-0.01,-0.00,27.43
14021212,1835,1,205111,247498,0.57,-0.69,8.64,0.01,0.03,-0.01,27.43
14061171,1850,1,204967,249982,0.07,-1.07,8.99,-0.03,0.07,-0.02,27.43
14101181,1801,1,204938,251655,0.24,-1.08,9.22,0.03,0.00,-0.26,27.43
14141171,1569,1,204555,252357,0.44,-0.24,9.81,0.04,-0.03,-0.25,27.43
14181180,1347,1,204331,252255,-0.04,-1.12,9.39,0.00,0.01,-0.01,27.43
14221183,1225,1,204252,252157,0.25,-0.89,10.48,-0.01,0.00,-0.01,27.43
14261180,1197,1,204462,252738,0.11,-0.92,10.44,-0.02,0.04,-0.01,27.43
14301183,1157,1,204324,252908,0.57,-0.94,9.82,-0.05,-0.00,-0.01,27.43
14341888,1535,1,204406,252663,0.25,-1.01,10.14,-0.04,0.00,-0.01,27.37
14380221,1627,1,204734,253489,0.16,-1.25,10.36,-0.05,0.01,-0.01,27.37
14420180,1662,1,204973,253572,0.27,-1.03,10.11,-0.05,-0.01,-0.01,27.37
14460203,1670,1,204959,253218,-0.05,-1.28,10.83,-0.07,0.00,-0.01,27.37
14500201,1680,1,204844,252335,-0.10,-0.79,11.18,-0.06,0.01,-0.01,27.37
14540204,1707,1,204128,252405,0.30,-0.69,9.79,-0.07,-0.01,-0.00,27.37
14580241,1786,1,204290,252204,0.40,-1.18,9.87,-0.07,0.02,-0.01,27.37
14620183,1776,1,204089,252636,0.34,-0.87,9.52,-0.06,-0.01,-0.00,27.37
14660201,1827,1,204463,252222,0.28,-1.08,10.43,-0.05,-0.00,-0.01,27.37
14700204,1699,1,204083,252270,0.39,-0.82,10.15,-0.05,-0.06,-0.00,27.37
14740200,1871,1,204098,251926,0.63,-1.28,9.42,-0.04,-0.05,-0.00,27.37
14780203,1793,1,203853,251292,0.61,-0.93,9.60,-0.04,-0.02,-0.01,27.37
14820201,1801,1,203860,251938,0.68,-1.36,9.73,-0.05,0.02,-0.00,27.37
14860183,1791,1,204220,252611,0.15,-1.57,9.63,-0.04,0.04,-0.00,27.37
14900180,1859,1,203907,252324,0.74,-1.13,9.58,-0.04,-0.04,-0.00,27.37
14940204,1841,1,204114,252134,0.01,-1.20,10.08,-0.06,0.02,-0.00,27.37
14980180,1856,1,203296,249644,0.76,-0.66,10.18,-0.02,-0.04,0.01,27.37
15020183,2003,1,203192,250483,-0.23,-2.16,11.46,-0.06,0.04,0.14,27.37
15060180,2064,1,203306,250320,0.57,-1.06,9.82,0.02,-0.05,0.00,27.37
15100171,2094,1,203531,251494,0.08,-0.77,10.57,-0.01,-0.03,0.01,27.37
15140180,2010,1,203714,250319,0.15,-1.27,10.57,0.01,-0.04,0.01,27.37
15180171,1878,1,203232,251806,1.00,0.32,9.67,-0.01,-0.06,0.19,27.37
15220171,1930,1,204151,251937,0.23,-1.19,10.81,-0.03,0.02,0.01,27.37
15260171,1856,1,203399,252875,0.51,-0.44,9.17,0.03,-0.07,0.01,27.37
15300171,1789,1,203874,252000,0.25,-0.63,10.24,-0.01,0.02,0.01,27.37
15340171,1733,1,203132,252990,0.73,-0.53,9.34,0.02,-0.08,0.02,27.37
15380858,1682,1,203834,253216,0.35,-0.95,9.79,0.01,-0.02,0.01,27.49
15421171,1698,1,203859,254839,0.47,-0.51,10.02,0.01,-0.06,0.01,27.49
15461171,1756,1,204437,254763,0.32,-0.89,11.47,0.01,-0.04,-0.05,27.49
15501184,1776,1,203148,253802,0.74,-0.71,9.43,0.02,-0.12,-0.01,27.49
15541182,1687,1,203272,254178,0.79,-0.82,10.32,-0.01,-0.05,0.01,27.49
15581184,1677,1,203311,253130,0.47,-0.01,10.35,0.02,-0.04,0.01,27.49
15619171,1622,1,203192,254741,1.00,-0.67,9.78,-0.01,-0.04,0.01,27.49
15659182,1712,1,202932,251435,0.40,-0.31,9.79,-0.01,-0.07,-0.01,27.49
15699201,1676,1,202343,252819,0.50,-1.06,9.02,-0.02,-0.07,0.01,27.49
15739184,1791,1,202838,251842,0.58,-0.39,9.65,-0.02,-0.04,0.00,27.49
15779182,1808,1,202750,253606,1.00,-0.99,10.09,-0.03,-0.10,0.01,27.49
15819184,1825,1,202521,252407,0.46,-0.55,9.14,-0.02,-0.07,0.00,27.49
15859180,1769,1,202636,252325,0.07,-0.17,9.60,-0.03,-0.01,0.01,27.49
15899183,1754,1,202414,252500,0.70,-0.81,9.96,-0.03,-0.01,0.01,27.49
15939180,1763,1,202592,252654,0.49,-0.67,10.17,-0.05,-0.01,0.01,27.49
15979183,1775,1,202821,253655,0.54,-1.12,9.83,-0.02,0.00,0.01,27.49
16019214,1762,1,202735,252854,0.78,-0.42,9.97,-0.01,-0.07,0.01,27.49
16059183,1728,1,202653,253644,0.70,-0.49,10.19,-0.01,-0.03,0.01,27.49
16099180,1711,1,202614,252791,0.67,-0.59,9.13,-0.01,-0.03,0.01,27.49
16139183,1689,1,203142,254213,0.13,-0.95,9.95,-0.06,0.08,0.01,27.49
16179171,1712,1,203019,252998,0.94,-0.36,10.48,-0.02,-0.02,0.01,27.49
16219215,1631,1,202776,253160,0.69,-0.42,10.02,-0.04,-0.02,0.01,27.49
16259180,1648,1,202419,251355,0.99,-0.78,9.17,-0.02,-0.05,0.01,27.49
16299183,1655,1,202517,252027,0.47,-0.75,9.05,-0.05,0.03,0.01,27.49
16339171,1696,1,202898,251555,0.82,-1.16,9.55,-0.05,0.02,0.00,27.49
16379171,1701,1,202542,250914,0.95,-0.54,8.79,-0.04,-0.00,0.01,27.49
16419868,1692,1,202626,249718,0.61,-0.99,8.84,-0.04,0.02,0.01,27.47
16460171,1701,1,202370,248141,1.13,-0.74,8.07,-0.02,-0.01,0.01,27.47
16500181,1727,1,202490,249692,0.76,-0.82,9.66,-0.04,0.04,0.01,27.47
16540171,1772,1,202829,249050,0.83,-0.36,9.13,-0.02,0.00,0.01,27.47
16580171,1744,1,202938,251101,0.36,-1.32,9.55,-0.04,0.10,0.01,27.47
16620171,1783,1,203289,250773,0.72,-0.49,9.58,-0.02,0.00,0.01,27.47
16660171,1769,1,203657,252308,0.56,-1.01,10.23,-0.05,0.06,0.01,27.47
16700171,1729,1,203807,252430,0.77,-0.40,9.96,-0.03,-0.01,0.01,27.47
16740182,1714,1,203937,252674,0.64,-0.56,10.52,-0.04,0.04,0.01,27.47
16780171,1678,1,204177,253673,-0.09,-1.15,9.66,-0.07,0.09,0.02,27.47
16820181,1701,1,203527,251100,0.89,-0.18,9.48,-0.05,-0.02,0.01,27.47
16860181,1712,1,203247,251488,-0.45,-1.82,10.76,-0.11,0.06,0.28,27.47
16900181,1767,1,203015,249425,0.88,-0.29,7.80,-0.04,-0.01,0.01,27.47
16940181,1747,1,203444,251734,0.40,-1.56,11.11,-0.11,0.07,0.05,27.47
16980171,1689,1,202970,249472,0.79,0.12,7.92,-0.01,-0.04,-0.06,27.47
17018182,1584,1,203571,251468,0.37,-0.92,11.43,-0.08,0.04,0.01,27.47
17058171,1599,1,203370,250177,0.74,-0.59,8.66,-0.00,-0.04,-0.00,27.47
17098203,1645,1,203756,250323,0.35,-0.84,11.31,-0.05,0.07,0.01,27.47
17138171,1649,1,203355,250059,0.54,-1.17,8.90,0.01,-0.00,0.00,27.47
17178171,1662,1,203695,249923,0.75,-0.45,10.33,-0.02,-0.04,0.01,27.47
17218181,1721,1,204057,250814,-0.02,-1.67,9.47,-0.04,0.07,0.01,27.47
17258182,1758,1,203558,250127,0.85,-0.33,8.74,-0.01,-0.03,0.01,27.47
17298181,1777,1,204225,252288,0.40,-1.20,12.45,-0.10,0.12,0.01,27.47
17338171,1793,1,203648,252736,0.40,-0.59,8.76,-0.00,-0.06,-0.01,27.47
17378201,1784,1,204206,252150,0.32,-0.74,12.48,-0.06,0.07,0.00,27.47
17418171,1783,1,203712,254059,0.36,-1.12,9.59,-0.03,-0.09,0.02,27.47
17458868,1764,1,204447,253008,0.38,-0.69,11.80,-0.07,0.03,0.01,27.43
17499171,1745,1,203749,253719,0.48,-0.95,10.62,-0.04,-0.02,0.02,27.43
17539181,1773,1,204400,253807,-0.13,-1.02,10.69,-0.09,0.09,0.01,27.43
17579181,1803,1,203868,252356,0.32,-0.82,10.35,-0.05,0.01,0.01,27.43
17619171,1792,1,204021,253272,-0.01,-2.08,11.43,-0.12,0.05,0.01,27.43
17659202,1778,1,203651,251698,0.24,-0.71,10.48,-0.05,-0.00,0.01,27.43
17699181,1779,1,203972,253063,-0.20,-2.50,11.73,-0.09,0.02,0.01,27.43
17739181,1851,1,203233,250628,0.13,-0.77,8.64,-0.03,-0.09,0.01,27.43
17779181,1835,1,203369,250152,-0.03,-1.79,10.51,-0.06,0.00,0.01,27.43
17819181,1856,1,202237,246087,0.74,-0.42,8.24,-0.00,-0.09,0.01,27.43
17859215,1893,1,202513,249234,-0.01,-0.98,10.88,-0.05,0.06,0.00,27.43
17899181,1922,1,202902,248767,0.00,-1.21,8.55,0.03,-0.03,-0.15,27.43
17939181,1866,1,202628,248950,0.67,-0.22,9.39,-0.01,-0.05,0.00,27.43
17979181,1868,1,203614,250382,-0.18,-1.60,10.12,-0.04,0.06,0.01,27.43
18019181,1903,1,203466,250436,0.54,-0.21,9.33,0.04,-0.07,0.01,27.43
18059185,1910,1,204127,251457,-0.09,-1.72,11.65,-0.05,0.10,0.01,27.43
18099181,1905,1,203886,252537,0.24,-0.65,9.47,0.03,-0.05,0.01,27.43
18139170,1920,1,204338,252266,-0.25,-1.83,11.71,-0.04,0.04,-0.08,27.43
18179201,1871,1,203960,254046,0.15,-0.64,10.38,0.02,-0.05,0.00,27.43
18219171,1840,1,204334,253545,-0.05,-2.01,11.02,-0.03,0.00,-0.10,27.43
18259201,1773,1,204110,254704,0.27,-1.13,10.99,-0.02,-0.03,-0.00,27.43
18299205,1744,1,203961,252774,-0.31,-1.19,10.01,-0.03,-0.03,-0.05,27.43
18339216,1648,1,203771,254128,0.14,-1.07,10.93,-0.05,0.01,0.00,27.43
18379171,1654,1,203990,253343,0.03,-0.99,11.05,-0.05,0.02,-0.00,27.43
18419182,1559,1,203513,253813,0.41,-0.88,10.66,-0.05,-0.06,0.00,27.43
18457869,1585,1,203506,252706,-0.28,-1.55,10.00,-0.07,-0.01,-0.01,27.43
18498218,1627,1,202724,251227,0.10,-1.24,9.56,-0.05,-0.04,-0.00,27.43
18538205,1697,1,201791,248444,0.54,-1.43,8.89,-0.07,-0.04,-0.00,27.43
18578204,1693,1,202265,250150,-0.16,-1.26,10.31,-0.08,0.07,-0.00,27.43
18618205,1730,1,202177,249532,0.44,-0.33,9.43,-0.02,-0.02,-0.15,27.43
18658205,1744,1,202691,252158,-0.74,-1.25,10.60,-0.07,0.06,-0.01,27.43
18698205,1770,1,202253,249455,0.55,-0.69,8.98,-0.01,-0.05,-0.19,27.43
18738204,1723,1,202281,251131,-0.08,-1.55,10.75,-0.06,0.03,-0.01,27.43
18778205,1727,1,201913,248587,0.33,-1.17,9.06,-0.03,-0.06,-0.01,27.43
18818201,1697,1,202144,250296,-0.38,-2.03,10.66,-0.07,0.04,-0.01,27.43
18858204,1775,1,201686,246857,-0.29,-1.59,8.31,-0.03,-0.01,-0.01,27.43
18898216,1676,1,200951,247076,-0.36,-1.90,10.07,-0.06,0.04,0.03,27.43
18938183,1674,1,201153,247336,-0.05,-1.31,9.82,-0.03,0.06,-0.01,27.43
18978202,1687,1,200888,247863,-0.06,-1.11,9.87,-0.02,-0.04,-0.01,27.43
19018218,1764,1,201321,248823,-0.12,-1.94,9.97,-0.03,0.00,-0.01,27.43
19058201,1782,1,201969,249434,-0.29,-1.43,10.16,-0.03,-0.01,-0.01,27.43
19098218,1787,1,202481,250508,-0.06,-1.90,10.25,-0.04,0.02,-0.01,27.43
19138201,1793,1,202957,251389,-0.13,-0.99,10.81,-0.03,0.00,-0.01,27.43
19178202,1797,1,203446,252949,-0.05,-1.87,12.05,-0.05,0.02,-0.01,27.43
19218201,1775,1,203658,253013,-0.75,-1.16,9.97,-0.03,0.01,-0.01,27.43
19258204,1701,1,203596,253094,0.50,-1.08,11.32,-0.05,-0.03,-0.02,27.43
19298204,1716,1,204011,253217,-0.71,-1.75,10.84,-0.05,0.04,-0.01,27.43
19338204,1712,1,203124,251082,0.05,-0.99,10.41,-0.04,-0.04,-0.02,27.43
19378201,1725,1,203140,251744,-0.42,-2.04,10.19,-0.09,0.02,-0.02,27.43
19418204,1729,1,202535,250540,0.23,-1.00,9.21,-0.04,-0.07,-0.02,27.43
19458201,1743,1,202829,249976,-0.33,-1.96,10.18,-0.09,-0.01,-0.02,27.43
19498925,1724,1,201891,248977,0.36,-0.81,8.70,-0.02,-0.08,-0.01,27.37
19537201,1677,1,202222,249115,-0.47,-2.06,9.82,-0.09,0.04,-0.02,27.37
19577204,1654,1,201976,249757,-0.05,-1.64,9.62,-0.05,0.00,-0.02,27.37
19617202,1700,1,201863,248148,-0.25,-1.31,9.49,-0.05,-0.02,-0.01,27.37
19657218,1705,1,201989,249542,-0.12,-1.80,10.04,-0.03,0.00,-0.01,27.37
19697225,1833,1,202470,249046,-0.31,-1.54,9.16,-0.02,-0.03,-0.01,27.37
19737217,1872,1,202955,250554,-0.53,-1.75,10.71,-0.04,0.07,-0.01,27.37
19777201,1946,1,202919,250232,0.06,-1.09,9.35,0.02,-0.03,-0.01,27.37
19817183,1921,1,203465,251958,-0.25,-1.38,11.04,-0.03,0.03,-0.01,27.37
19857201,1895,1,203278,251501,0.10,-1.46,8.77,0.04,-0.07,-0.01,27.37
19897183,1843,1,203791,252396,-0.18,-1.43,10.67,-0.02,0.01,-0.01,27.37
19937201,1861,1,203711,252475,0.15,-1.15,9.92,0.02,-0.03,-0.01,27.37
19977183,1872,1,203928,252742,-0.40,-1.44,10.01,-0.03,0.02,-0.01,27.37
20017201,1807,1,203605,251505,0.17,-1.39,10.00,-0.01,-0.01,-0.01,27.37
20057204,1712,1,203150,252136,0.09,-1.31,9.93,-0.02,-0.02,-0.01,27.37
20097201,1696,1,203073,250941,0.20,-1.01,10.31,-0.00,-0.03,-0.01,27.37
20137202,1646,1,202934,252378,-0.01,-1.34,10.22,-0.02,-0.04,-0.01,27.37
20177216,1649,1,202883,250678,0.06,-1.19,9.67,-0.00,-0.05,-0.01,27.37
20217202,1584,1,202692,251905,0.17,-1.41,9.98,-0.03,-0.04,-0.01,27.37
20257201,1645,1,203015,250962,-0.10,-0.98,10.03,-0.01,-0.01,-0.01,27.37
20297218,1646,1,203266,253445,-0.19,-1.64,10.93,-0.02,0.01,-0.00,27.37
20337201,1667,1,203764,252588,-0.16,-1.14,10.63,0.01,-0.04,-0.01,27.37
20377204,1638,1,203543,253826,0.08,-1.02,10.35,-0.03,-0.08,-0.00,27.37
20417201,1683,1,203753,252839,0.29,-1.32,9.69,-0.02,-0.03,-0.01,27.37
20457204,1699,1,204095,254527,0.16,-1.32,10.91,-0.04,-0.01,-0.01,27.37
20497201,1702,1,204249,254057,0.22,-1.64,9.28,-0.03,-0.05,-0.01,27.37
20537891,1710,1,204079,254152,0.05,-0.91,9.56,-0.05,-0.02,-0.01,27.43
20576201,1717,1,204441,254445,-0.55,-1.68,9.48,-0.06,0.05,-0.01,27.43
20616204,1744,1,204207,254027,0.67,-0.61,10.34,-0.05,-0.05,-0.01,27.43
20656201,1775,1,204347,254450,0.01,-1.78,9.90,-0.06,0.02,-0.01,27.43
20696183,1750,1,204195,254076,0.17,-0.83,9.72,-0.02,-0.02,-0.01,27.43
20736200,1767,1,204207,253613,0.16,-1.24,10.12,-0.04,-0.01,-0.00,27.43
20776204,1799,1,203642,252466,0.05,-1.15,9.59,-0.03,-0.01,-0.00,27.43
20816201,1791,1,203837,253300,0.44,-1.70,10.82,-0.04,0.00,-0.00,27.43
20856183,1813,1,204009,252934,0.15,-1.37,9.73,-0.02,-0.02,-0.00,27.43
20896201,1765,1,203985,254401,0.41,-1.24,10.74,-0.02,-0.01,-0.00,27.43
20936213,1787,1,204758,254135,-0.32,-1.42,10.71,-0.03,-0.01,-0.00,27.43
20976217,1749,1,203764,254614,0.49,-0.77,9.83,-0.01,-0.07,-0.01,27.43
21016204,1799,1,204938,254966,-0.26,-1.64,11.21,-0.07,0.03,-0.01,27.43
21056201,1738,1,204247,255225,0.85,-0.68,10.02,0.00,-0.12,-0.01,27.43
21096183,1745,1,204628,253697,-0.23,-1.50,10.84,-0.07,-0.00,-0.01,27.43
21137216,1670,1,203402,253480,0.76,-1.08,9.31,-0.01,-0.12,0.00,27.43
21177184,1702,1,203831,252765,0.18,-1.25,9.25,-0.05,-0.03,-0.01,27.43
21217202,1690,1,202989,252742,0.63,-0.83,8.98,-0.01,-0.06,-0.01,27.43
21255203,1650,1,203782,253438,-0.27,-1.40,9.13,-0.04,0.06,-0.01,27.43
21295201,1653,1,203526,252450,0.21,-0.51,9.37,-0.02,-0.04,-0.00,27.43
21335221,1607,1,203174,252266,-0.05,-1.67,8.73,-0.02,-0.01,0.00,27.43
21375201,1682,1,203144,251799,0.64,-0.88,10.09,-0.00,-0.02,-0.01,27.43
21415203,1712,1,203371,251937,-0.17,-1.64,9.56,-0.02,0.02,0.00,27.43
21455181,1685,1,203323,252128,0.49,-0.78,9.35,0.02,0.01,-0.00,27.43
21495171,1713,1,203433,251734,0.32,-1.37,9.91,0.00,-0.01,-0.00,27.43
21535180,1745,1,202868,250805,0.45,-0.92,8.73,0.03,-0.01,-0.00,27.43
21575869,1722,1,203509,251758,-0.32,-0.96,10.28,-0.02,0.05,-0.00,27.41
21616201,1748,1,203093,251444,0.54,-0.73,10.21,0.02,-0.03,-0.00,27.41
21656181,1776,1,203170,250911,0.05,-0.97,10.00,-0.02,0.01,-0.00,27.41
21696181,1755,1,202448,249727,0.64,-0.87,9.55,0.01,-0.05,0.00,27.41
21736171,1776,1,202539,250672,0.46,-0.49,10.85,-0.01,-0.01,-0.00,27.41
21776201,1751,1,202985,252712,0.34,-0.79,11.04,-0.02,0.01,0.00,27.41
21816171,1743,1,203508,254129,0.23,-1.13,10.96,-0.02,-0.03,0.00,27.41
21856181,1765,1,204295,255323,-0.16,-1.16,12.47,-0.05,-0.01,0.00,27.41
21896202,1746,1,204090,254918,1.13,-0.20,12.27,-0.04,-0.16,-0.00,27.41
21936201,1724,1,205121,256421,-0.08,-1.99,13.58,-0.10,0.03,0.29,27.41
21976183,1744,1,205119,255638,0.13,-0.77,10.58,-0.06,-0.10,-0.00,27.41
22016201,1711,1,205241,255824,-0.21,-1.36,11.77,-0.10,-0.02,0.10,27.41
22056204,1735,1,204962,254065,0.75,-0.55,9.79,-0.11,-0.12,0.00,27.41
22096181,1721,1,204906,253903,0.38,-1.66,10.77,-0.15,-0.03,0.51,27.41
22136183,1751,1,205283,253173,0.25,-1.22,8.85,-0.11,-0.03,0.00,27.41
22175180,1731,1,204457,253200,0.58,-0.55,8.37,-0.10,-0.08,0.08,27.41
22215183,1730,1,204417,250790,-0.34,-1.78,7.92,-0.09,0.09,0.00,27.41
22255180,1649,1,202655,248229,0.42,-0.74,7.26,-0.06,-0.15,0.01,27.41
22295183,1682,1,203064,248466,0.37,-1.52,8.14,-0.07,0.07,0.01,27.41
22335171,1766,1,203382,250269,0.28,-1.43,8.58,-0.03,0.02,0.02,27.41
22375171,1778,1,203816,250148,0.56,-1.64,9.09,-0.01,0.03,0.01,27.41
22415171,1815,1,204125,250955,0.02,-0.40,9.31,0.02,0.05,0.02,27.41
22455149,1822,1,204774,251374,0.35,-1.63,9.27,0.01,0.06,0.02,27.41
22495149,1872,1,205225,252483,0.61,-1.01,9.73,0.04,0.05,0.02,27.41
22535150,1919,1,205687,253875,-0.03,-1.24,10.53,0.03,0.05,0.02,27.41
22575171,1901,1,205779,255479,-0.27,-0.79,10.37,0.06,0.04,0.02,27.41
22615858,1891,1,205926,255936,-0.48,-1.30,12.38,0.02,0.04,0.00,27.37
22656171,1790,1,205625,255839,0.24,-0.64,11.83,0.05,-0.08,-0.00,27.37
22696182,1763,1,204895,254490,-0.31,-0.96,13.81,-0.02,-0.04,0.00,27.37
22736201,1649,1,204529,254573,0.48,-0.54,11.96,0.02,-0.17,0.01,27.37
22776171,1524,1,204429,254193,-0.22,-1.21,12.33,-0.08,-0.00,0.00,27.37
22814204,1431,1,204167,254173,0.40,-0.56,10.30,-0.04,-0.12,0.01,27.37
22854183,1407,1,203944,253857,0.33,-0.48,10.92,-0.08,-0.04,0.00,27.37
22894180,1396,1,203738,253350,0.43,-0.63,10.16,-0.07,-0.09,0.00,27.37
22934183,1407,1,203713,253510,0.23,-1.21,9.59,-0.08,-0.10,0.01,27.37
22974203,1447,1,203566,252436,0.28,-0.91,8.89,-0.05,-0.10,0.01,27.37
23014183,1523,1,203253,252159,0.73,-0.88,7.98,-0.04,-0.15,0.01,27.37
23054181,1584,1,203404,251549,0.44,-1.40,8.83,-0.06,0.02,0.01,27.37
23094171,1632,1,203021,251903,0.52,-1.06,7.73,-0.03,-0.05,0.01,27.37
23134180,1675,1,203722,252185,0.60,-1.52,8.98,-0.04,0.02,0.01,27.37
23174171,1755,1,203500,252608,0.64,-0.67,9.17,0.00,-0.06,0.01,27.37
23215171,1791,1,203752,252682,0.77,-0.76,9.69,-0.00,0.00,0.01,27.37
23255171,1790,1,204227,254001,0.08,-1.10,10.10,-0.01,0.02,0.01,27.37
23295171,1810,1,204704,254604,0.48,-0.91,10.73,0.01,0.00,0.00,27.37
23335150,1878,1,204851,254682,0.15,-0.98,10.12,-0.01,0.02,0.01,27.37
23375171,1868,1,204693,254893,0.53,-0.80,10.17,-0.00,-0.01,0.01,27.37
23415181,1858,1,204844,254311,0.00,-0.54,11.07,-0.02,0.03,0.01,27.37
23455171,1842,1,204272,254938,0.55,-0.64,10.21,-0.02,-0.02,0.01,27.37
23495181,1856,1,204725,254364,-0.25,-1.14,10.49,-0.05,0.06,0.01,27.37
23535181,1858,1,204002,253288,0.69,-0.48,10.13,-0.01,-0.06,0.01,27.37
23575181,1786,1,204248,253322,0.16,-0.95,11.24,-0.08,0.02,0.01,27.37
23615858,1762,1,204453,254490,-0.08,-1.11,11.39,-0.04,-0.02,0.01,27.47
23654204,1747,1,204516,254204,-0.06,-1.03,10.69,-0.04,-0.03,0.01,27.47
23694200,1744,1,204779,255270,0.30,-0.79,11.82,-0.08,0.03,0.01,27.47
23734171,1765,1,204672,254450,0.20,-0.70,11.38,-0.06,-0.06,0.01,27.47
23774180,1716,1,204139,254377,0.52,-1.00,10.17,-0.07,-0.05,0.01,27.47
23814183,1761,1,204566,253985,0.12,-1.07,11.09,-0.11,0.02,0.01,27.47
23854171,1776,1,203578,252278,0.78,-0.10,9.15,-0.02,-0.12,0.01,27.47
23894183,1791,1,204271,253623,-0.76,-1.61,10.95,-0.15,0.10,0.01,27.47
23934180,1801,1,203361,251334,0.78,-0.31,8.26,-0.02,-0.12,0.00,27.47
23974183,1825,1,203389,253475,0.42,-0.92,9.45,-0.08,-0.04,0.01,27.47
24014181,1838,1,203747,252125,0.41,-0.91,8.93,-0.06,0.02,-0.00,27.47
24054181,1808,1,203334,252391,0.75,-0.90,9.23,-0.05,-0.09,0.01,27.47
24094181,1813,1,203482,251548,-0.04,-1.31,9.00,-0.07,0.01,0.00,27.47
24134181,1805,1,202886,251356,0.98,-0.07,9.17,-0.03,-0.08,-0.00,27.47
24174201,1776,1,203695,251558,0.12,-1.06,10.49,-0.04,0.07,0.00,27.47
24215171,1713,1,203097,251011,1.18,-1.14,9.28,0.00,-0.11,0.00,27.47
24255171,1759,1,204386,252315,-0.36,-1.35,10.84,-0.05,0.08,-0.00,27.47
24295201,1826,1,203794,252745,0.48,-0.34,9.34,0.03,-0.07,-0.01,27.47
24335181,1840,1,205340,255082,-0.55,-1.82,13.11,-0.07,0.12,-0.00,27.47
24375205,1885,1,205373,255348,0.60,-0.67,10.57,0.01,-0.06,-0.09,27.47
24415222,1834,1,205239,255085,0.37,-0.71,12.71,-0.08,-0.11,-0.01,27.47
24455205,1791,1,204936,255435,0.30,-0.55,10.47,-0.01,-0.09,0.00,27.47
24493180,1723,1,204798,253448,0.35,-0.29,9.37,-0.04,-0.11,-0.01,27.47
24533203,1698,1,203745,253262,0.76,-0.05,9.55,-0.05,-0.07,-0.01,27.47
24573200,1713,1,204635,252892,-0.08,-0.75,9.70,-0.08,0.03,-0.01,27.47
24613217,1744,1,203559,253103,1.93,0.17,9.36,-0.06,-0.16,-0.09,27.47
24653868,1744,1,204677,252422,-0.97,-2.69,9.39,-0.09,0.06,-0.16,27.49
24694204,1669,1,202815,250102,1.95,-0.45,6.68,-0.03,-0.23,-0.06,27.49
24734201,1695,1,204033,252989,-1.24,-2.47,10.02,-0.16,0.16,0.05,27.49
24774183,1808,1,202913,249330,1.34,0.91,6.60,0.02,-0.05,-0.20,27.49
24814171,1674,1,203587,253959,-0.86,-1.54,12.27,-0.10,0.16,0.07,27.49
24854184,1868,1,204278,249615,0.07,-1.47,6.41,0.05,0.15,-0.44,27.49
24894171,1803,1,201982,249700,2.06,-0.58,12.12,-0.07,-0.42,0.32,27.49
24934183,1889,1,203582,252183,-0.78,-2.06,9.94,-0.05,0.18,0.01,27.49
24974181,1856,1,203742,252771,0.05,-0.92,8.71,0.10,-0.10,0.01,27.49
25014171,1879,1,203873,254157,1.01,-1.35,12.59,-0.06,0.01,-0.01,27.49
25054181,1936,1,204101,254570,0.09,-0.41,10.73,-0.00,-0.00,-0.01,27.49
25094202,1959,1,204762,255118,0.57,-0.47,13.13,-0.02,0.02,-0.01,27.49
25134181,1797,1,204135,253966,0.35,0.78,11.47,-0.02,-0.06,-0.01,27.49
25174183,1819,1,203967,253844,0.28,-2.59,11.01,-0.09,-0.03,-0.01,27.49
25214201,1727,1,204616,253876,-0.21,-0.60,10.87,-0.03,-0.04,-0.01,27.49
25254218,1741,1,203781,254149,0.91,-0.85,10.94,-0.05,-0.19,-0.01,27.49
25294201,1720,1,204655,255155,0.45,-1.15,11.38,-0.10,-0.07,-0.01,27.49
25334204,1672,1,204683,254161,-1.69,-1.84,9.51,-0.01,-0.03,-0.01,27.49
25374218,1674,1,204284,254253,0.95,0.58,10.38,-0.03,-0.11,-0.01,27.49
25414183,1661,1,203236,251445,1.01,1.45,9.39,-0.02,-0.19,-0.03,27.49
25454181,1535,1,203461,254099,1.84,-2.05,11.11,-0.12,-0.06,0.02,27.49
25494183,1604,1,203944,252147,-0.15,-0.33,7.80,0.03,-0.02,-0.23,27.49
25534201,1680,1,202573,251025,2.37,-0.15,9.39,0.04,-0.14,-0.03,27.49
25574183,1746,1,204138,253467,-0.08,-2.23,9.83,-0.11,0.10,-0.02,27.49
25614201,1794,1,203795,251252,1.28,0.29,9.03,0.06,-0.16,-0.08,27.49
25654858,1713,1,204499,253482,-0.50,-1.82,10.48,-0.02,-0.00,0.10,27.49
25693201,1781,1,204115,251049,1.73,-0.30,8.13,-0.00,-0.06,0.00,27.49
25733183,1805,1,205146,254165,-1.73,-3.84,9.94,-0.00,0.18,0.31,27.49
25773180,1814,1,203903,250463,1.47,1.73,7.62,0.04,-0.13,-0.39,27.49
25813171,1675,1,204753,254678,-1.01,-4.41,11.45,-0.02,0.11,0.28,27.49
25853181,1794,1,204715,252313,1.33,1.19,8.09,0.05,0.02,-0.28,27.49
25893150,1661,1,205133,255106,0.32,-1.35,12.95,0.03,-0.07,0.03,27.49
25933171,1769,1,204313,253675,2.21,0.81,8.34,0.04,-0.07,-0.07,27.49
25973171,1658,1,205311,255051,-0.80,-1.98,12.38,-0.04,0.16,0.01,27.49
26013180,1730,1,204101,253840,1.81,-0.52,7.61,0.07,-0.18,-0.04,27.49
26053204,1706,1,204980,254783,-0.52,-0.52,13.20,-0.04,0.14,0.01,27.49
26093180,1715,1,203983,254037,0.56,-0.71,7.54,0.05,-0.10,0.00,27.49
26133171,1667,1,204648,253729,-0.05,-0.93,13.51,-0.02,0.07,0.01,27.49
26173180,1725,1,203380,253552,0.73,-0.97,8.10,0.05,-0.12,0.02,27.49
26213171,1679,1,203818,251890,0.94,-0.05,11.65,-0.03,-0.08,0.01,27.49
26253205,1682,1,202862,252109,1.33,-0.66,9.68,0.01,-0.12,0.02,27.49
26293171,1674,1,203269,252109,1.17,0.11,9.74,-0.04,-0.07,0.01,27.49
26333171,1728,1,203512,252483,0.92,-0.56,10.32,-0.02,-0.03,0.04,27.49
26373183,1710,1,203608,252149,1.39,-0.06,10.22,-0.06,-0.05,0.02,27.49
26413180,1690,1,203753,251583,0.89,-0.62,10.17,-0.07,-0.00,0.05,27.49
26453181,1685,1,203702,252176,1.47,-0.31,9.95,-0.06,-0.03,0.06,27.49
26493181,1759,1,203604,250452,1.17,-0.62,9.08,-0.07,-0.04,0.01,27.49
26533181,1781,1,203803,252080,0.93,-1.43,10.71,-0.09,0.02,0.01,27.49
26573171,1791,1,203862,250391,0.28,-0.77,8.98,-0.06,0.02,0.01,27.49
26613171,1776,1,204091,252039,0.75,-0.33,8.25,-0.07,0.01,0.22,27.49
26653171,1807,1,204761,252727,1.43,-0.19,10.73,-0.12,-0.01,0.01,27.49
26693870,1811,1,204858,254092,0.37,-0.70,9.32,-0.06,-0.07,0.02,27.41
26732180,1825,1,204488,252758,1.41,-0.46,8.79,-0.03,-0.07,0.01,27.41
26772183,1774,1,204756,253778,0.39,-1.79,9.84,-0.08,0.05,0.02,27.41
26812171,1751,1,204277,253248,0.62,-0.76,8.53,-0.01,0.00,0.02,27.41
26852171,1718,1,204713,252923,0.34,-0.44,11.07,-0.09,0.09,0.02,27.41
26892171,1655,1,203653,252723,0.99,-0.60,8.87,-0.03,0.04,0.02,27.41
26932171,1691,1,203957,251412,0.40,-0.51,10.62,-0.06,0.09,0.01,27.41
26972171,1705,1,203201,252013,1.29,-0.18,9.68,-0.04,-0.02,0.02,27.41
27012183,1659,1,203923,252263,0.84,-0.65,10.78,-0.06,0.02,0.02,27.41
27052171,1680,1,203880,252609,0.49,-0.94,9.30,-0.05,0.03,0.02,27.41
27092171,1708,1,204092,252557,0.85,-0.61,10.94,-0.07,0.02,0.01,27.41
27132171,1726,1,203689,251207,0.38,-0.65,9.50,-0.08,0.02,0.02,27.41
27172171,1717,1,203147,250300,0.89,-0.70,9.28,-0.06,-0.01,0.02,27.41
27212180,1734,1,203172,250319,0.34,-0.80,9.40,-0.04,0.02,0.01,27.41
27252171,1765,1,203136,251114,0.39,-0.66,9.57,-0.02,-0.01,0.02,27.41
27292180,1794,1,204035,253164,-0.08,-0.81,10.77,-0.03,0.04,0.02,27.41
27332183,1799,1,204249,253438,0.33,-0.80,10.48,-0.01,-0.06,0.01,27.41
27372180,1803,1,204785,254103,0.09,-1.03,11.09,-0.03,-0.02,0.02,27.41
27412181,1841,1,204897,253999,0.72,-0.27,10.61,-0.02,-0.06,0.01,27.41
27452180,1850,1,205134,254257,0.31,-1.12,11.26,-0.04,0.00,0.01,27.41
27492171,1854,1,204859,254117,0.44,-1.19,9.90,-0.01,-0.04,0.01,27.41
27532180,1856,1,204786,253132,0.50,-0.97,9.88,-0.04,-0.05,0.02,27.41
27572181,1827,1,204301,253683,0.47,-0.86,9.33,-0.04,-0.01,0.01,27.41
27612180,1825,1,204811,253334,0.65,-1.18,10.34,-0.06,-0.02,0.01,27.41
27652183,1828,1,204399,253489,0.26,-1.03,8.96,-0.06,-0.01,0.01,27.41
27692181,1828,1,204832,254066,0.07,-1.55,10.22,-0.05,-0.04,-0.14,27.41
27732891,1824,1,204555,253399,0.66,-0.36,10.15,0.00,-0.07,-0.01,27.35
27771180,1775,1,204543,254072,0.16,-1.68,10.04,-0.05,-0.02,0.02,27.35
27811182,1734,1,204424,253119,0.01,-1.35,8.83,-0.05,0.00,0.02,27.35
27851171,1642,1,204270,253422,0.41,-1.34,10.06,-0.05,0.04,0.02,27.35
27891171,1607,1,204284,252938,0.07,-1.53,10.08,-0.04,0.04,0.02,27.35
27931171,1623,1,203715,252275,0.79,-1.16,9.71,-0.02,-0.03,0.01,27.35
27971182,1687,1,204058,253041,0.32,-1.39,10.56,-0.00,-0.01,0.02,27.35
28011181,1697,1,203446,251829,1.00,-1.12,9.68,0.01,-0.08,0.02,27.35
28051171,1671,1,203827,252998,0.52,-1.76,10.67,-0.04,0.00,0.02,27.35
28091171,1673,1,203463,251011,0.76,-0.88,8.90,-0.02,-0.03,0.02,27.35
28131183,1658,1,203248,252035,0.81,-1.24,10.02,-0.04,-0.00,0.02,27.35
28171180,1707,1,203788,252498,0.71,-0.42,9.60,-0.01,0.01,0.01,27.35
28211171,1702,1,203987,252784,1.07,-1.00,10.41,-0.04,-0.05,0.02,27.35
28251180,1791,1,203960,253234,0.62,-1.19,9.36,-0.01,-0.01,0.02,27.35
28291183,1840,1,203981,252297,0.59,-0.99,9.75,-0.04,-0.03,0.02,27.35
28331180,1833,1,203702,252879,0.87,-0.85,9.39,-0.04,-0.01,0.02,27.35
28371183,1819,1,204022,251939,0.49,-0.70,10.59,-0.05,0.02,0.02,27.35
28411180,1779,1,203680,253656,0.60,-0.79,9.86,-0.01,-0.00,0.02,27.35
28451183,1807,1,204403,253724,0.56,-0.91,11.11,-0.03,0.00,0.02,27.35
28491171,1766,1,204455,254789,0.60,-0.31,10.86,0.00,-0.03,0.03,27.35
28531171,1745,1,204567,254899,0.79,-0.67,10.92,-0.02,-0.03,0.02,27.35
28571180,1709,1,204717,255005,0.62,-0.68,11.22,-0.05,-0.02,0.03,27.35
28611200,1712,1,204203,254049,1.65,-0.22,9.99,-0.05,-0.08,0.02,27.35
28651180,1625,1,204390,253596,0.38,-0.84,10.95,-0.08,0.04,0.02,27.35
28691171,1641,1,203111,251572,1.75,-0.40,8.71,-0.04,-0.11,0.02,27.35
28731180,1674,1,203229,251405,0.60,-0.68,9.86,-0.08,0.03,0.02,27.35
28771858,1712,1,202777,250670,0.62,-0.91,7.93,-0.08,-0.04,0.02,27.31
28812181,1722,1,202794,250896,0.79,-0.67,9.92,-0.09,0.02,0.01,27.31
28852171,1759,1,202772,251503,0.57,-0.98,8.13,-0.06,0.01,0.02,27.31
28892171,1795,1,203177,252018,1.08,-0.57,8.67,-0.06,-0.03,0.01,27.31
28932181,1840,1,203956,253315,0.36,-1.16,9.49,-0.04,0.03,0.02,27.31
28972171,1840,1,204061,254220,0.96,-0.84,9.71,-0.01,-0.04,0.02,27.31
29012181,1840,1,204420,255074,0.37,-1.21,10.22,-0.01,0.01,0.02,27.31
29052171,1797,1,204283,254805,0.45,-0.90,9.70,-0.01,0.01,0.02,27.31
29092171,1763,1,203849,254269,0.68,-0.51,10.39,-0.02,-0.01,0.02,27.31
29132181,1717,1,203910,254627,0.32,-0.62,10.99,-0.01,0.03,0.02,27.31
29170171,1702,1,203407,252730,0.66,-0.78,10.34,-0.02,-0.03,0.00,27.31
29210181,1738,1,203024,252450,0.54,-0.92,11.07,-0.04,0.01,0.02,27.31
29250171,1762,1,202828,251358,0.61,-1.09,10.48,-0.05,-0.02,0.00,27.31
29290180,1771,1,202788,252288,0.56,-0.86,10.39,-0.06,-0.03,0.02,27.31
29330182,1810,1,203356,252324,0.29,-1.12,10.17,-0.06,-0.02,0.02,27.31
29370181,1770,1,203112,252379,0.46,-0.88,9.91,-0.06,-0.07,0.02,27.31
29410182,1771,1,203268,251707,0.31,-1.49,9.50,-0.07,-0.03,0.02,27.31
29450180,1732,1,202461,250122,0.75,-0.74,9.36,-0.03,-0.08,0.02,27.31
29490183,1724,1,202278,250260,0.42,-1.72,9.35,-0.07,0.00,0.02,27.31
29530171,1767,1,202297,249766,0.46,-0.71,9.08,-0.05,0.00,0.02,27.31
29570171,1777,1,202148,250554,0.54,-1.30,9.96,-0.03,0.03,0.03,27.31
29610171,1824,1,202807,252134,0.31,-1.48,9.61,-0.01,0.03,0.02,27.31
29650171,1889,1,203116,252509,0.90,-1.07,9.46,-0.00,-0.04,-0.06,27.31
29690201,1934,1,203561,253780,0.38,-1.45,10.14,-0.02,0.00,0.03,27.31
29730171,1866,1,203631,253054,0.60,-1.14,9.98,0.00,-0.02,0.02,27.31
29770171,1752,1,203201,252938,0.88,-1.39,10.20,-0.04,0.00,0.02,27.31
29810858,1687,1,203114,251853,0.50,-1.25,10.19,-0.05,0.04,0.02,27.29
29851171,1639,1,202823,252061,0.89,-0.59,10.59,-0.03,0.01,0.02,27.29
29891171,1665,1,203196,252675,0.46,-0.97,10.58,-0.04,0.01,0.02,27.29
29931171,1710,1,203602,253605,0.49,-1.16,11.30,-0.04,-0.02,0.02,27.29
29971181,1727,1,204006,254547,0.33,-1.27,11.06,-0.04,-0.02,0.02,27.29
30011181,1744,1,204306,254663,0.28,-0.86,11.86,-0.06,-0.03,0.02,27.29
30051183,1724,1,203909,254486,0.89,-0.90,10.61,-0.04,-0.08,0.02,27.29
30091181,1673,1,204170,254047,0.03,-1.13,11.00,-0.06,-0.01,0.02,27.29
30131181,1657,1,203233,252537,0.81,-0.65,9.46,-0.01,-0.09,0.02,27.29
30171181,1655,1,203274,252529,0.46,-1.14,10.90,-0.06,-0.01,0.02,27.29
30211183,1727,1,202632,251634,0.75,-0.79,8.67,-0.02,-0.08,0.02,27.29
30251186,1779,1,202898,253162,0.63,-0.77,10.49,-0.03,-0.01,0.02,27.29
30291184,1871,1,203283,253104,1.05,-0.43,9.51,-0.02,-0.09,-0.02,27.29
30331201,1861,1,203215,253413,1.30,-0.12,10.62,-0.02,-0.06,0.02,27.29
30371181,1828,1,203115,251743,0.52,-0.83,9.09,0.01,-0.04,0.02,27.29
30411171,1692,1,202111,249993,1.42,0.38,6.54,-0.02,-0.10,0.16,27.29
30451177,1680,1,202540,249402,0.54,-1.39,9.45,-0.09,0.07,0.09,27.29
30491171,1690,1,201426,246916,1.28,-0.42,6.94,0.02,-0.07,0.02,27.29
30529171,1729,1,201883,250030,0.31,-1.99,10.60,-0.03,0.07,-0.18,27.29
30569181,1840,1,202231,251705,0.50,0.32,7.27,0.07,-0.01,-0.49,27.29
30609171,1906,1,202514,251355,0.97,-0.45,10.19,-0.01,-0.02,-0.13,27.29
30649201,1877,1,202311,252970,0.66,-0.48,10.37,0.05,-0.01,0.02,27.29
30689171,1781,1,202633,252922,0.59,-0.67,9.72,0.06,-0.00,0.02,27.29
30729171,1712,1,203038,254377,0.17,-1.13,11.20,0.00,0.09,0.02,27.29
30769151,1680,1,202909,254115,1.02,-0.30,11.69,0.00,-0.01,0.01,27.29
30809171,1681,1,202880,254282,0.59,-0.45,11.51,-0.01,-0.01,0.01,27.29
30849871,1699,1,202614,253632,0.71,-0.45,11.16,-0.03,-0.06,0.01,27.21
30890184,1715,1,202422,253081,0.70,-0.48,11.63,-0.04,-0.06,0.01,27.21
30930181,1699,1,201925,251765,0.54,-0.75,9.83,-0.07,-0.06,0.01,27.21
30970181,1631,1,201473,249928,0.77,-0.15,10.18,-0.10,-0.03,0.01,27.21
31010183,1610,1,201058,249417,0.58,-1.27,8.23,-0.09,-0.02,0.03,27.21
31050181,1631,1,201294,248951,0.79,-0.44,8.84,-0.11,-0.00,0.01,27.21
31090181,1648,1,201279,249405,0.79,-0.69,8.18,-0.07,-0.01,0.02,27.21
31130181,1712,1,201757,250396,0.61,-1.48,8.80,-0.07,-0.00,0.01,27.21
31170182,1753,1,202059,250033,0.61,-1.19,9.28,-0.03,-0.02,0.01,27.21
31210181,1762,1,202136,250464,0.93,-0.95,10.11,-0.03,-0.03,0.02,27.21
31250181,1776,1,202415,250024,0.54,-1.05,9.82,-0.01,-0.00,0.02,27.21
31290181,1744,1,201987,250429,1.15,-0.74,9.89,0.02,0.00,0.03,27.21
31330150,1744,1,202294,250079,0.71,-1.11,9.55,0.01,0.03,0.02,27.21
31370151,1712,1,202242,250336,1.21,-0.96,9.88,0.02,0.00,0.02,27.21
31410150,1707,1,202607,251814,0.80,-0.96,10.52,-0.00,0.01,0.02,27.21
31450171,1767,1,202876,253001,0.29,-1.19,9.81,0.01,0.01,0.02,27.21
31490152,1859,1,203165,254098,0.86,-1.02,10.93,-0.02,-0.02,-0.07,27.21
31530203,1895,1,203242,254271,0.17,-1.07,10.67,-0.01,-0.00,0.02,27.21
31570181,1852,1,202841,253348,0.97,-0.71,10.30,-0.01,-0.08,0.01,27.21
31610181,1757,1,202770,253400,0.25,-0.99,11.10,-0.01,-0.01,0.02,27.21
31650184,1753,1,202347,252152,0.51,-0.76,10.24,0.02,-0.06,0.02,27.21
31690171,1775,1,202076,252430,0.51,-0.68,11.18,-0.03,-0.02,0.02,27.21
31730183,1791,1,202311,253003,0.78,-1.19,10.86,-0.02,-0.05,0.02,27.21
31770184,1823,1,201945,252743,0.88,-0.26,9.55,-0.01,-0.09,0.00,27.21
31810184,1875,1,202551,253423,0.68,-0.60,10.72,-0.02,-0.03,0.01,27.21
31850868,1830,1,201963,251665,1.44,-0.19,9.50,-0.01,-0.13,0.01,27.15
31889183,1744,1,201809,251293,0.57,-1.17,9.99,-0.07,0.03,0.01,27.15
31929171,1715,1,201178,249676,0.96,-0.68,8.78,-0.06,-0.06,0.01,27.15
31969183,1735,1,201067,250308,0.75,-0.69,9.87,-0.07,0.01,0.01,27.15
32009171,1791,1,201695,251438,0.39,-0.65,9.77,-0.05,0.03,0.00,27.15
32049171,1823,1,201720,252127,0.81,-0.15,8.64,-0.03,-0.04,-0.10,27.15
32089202,1847,1,202321,252482,0.28,-0.80,9.86,-0.04,-0.01,-0.00,27.15
32129202,1845,1,201792,250904,1.20,-0.07,9.33,-0.00,-0.10,0.00,27.15
32169181,1727,1,201371,250242,0.88,-0.78,9.36,-0.02,-0.02,0.01,27.15
32209183,1673,1,201087,249785,0.73,-0.73,8.75,-0.02,0.02,0.01,27.15
32249171,1674,1,200971,250024,0.87,-0.67,9.38,-0.05,0.05,0.00,27.15
32289171,1745,1,201235,249944,0.66,-0.83,9.22,-0.04,0.06,-0.02,27.15
32329181,1775,1,200800,249671,1.07,-0.80,8.82,-0.02,-0.01,-0.01,27.15
32369205,1795,1,201400,251226,0.59,-1.15,9.51,-0.04,0.04,0.01,27.15
32409171,1798,1,201687,251552,0.48,-0.88,9.12,-0.02,0.01,0.01,27.15
32449171,1799,1,202035,252919,0.67,-0.91,10.43,-0.06,0.04,0.01,27.15
32489171,1789,1,202412,253546,-0.03,-1.64,9.65,-0.03,0.06,0.01,27.15
32529183,1778,1,202279,252549,0.37,-1.04,10.55,-0.04,0.01,-0.00,27.15
32569182,1791,1,202136,252901,0.25,-1.06,11.18,-0.02,0.03,0.01,27.15
32609171,1806,1,202012,252579,0.46,-1.01,11.04,0.00,-0.02,0.01,27.15
32649171,1797,1,202065,252531,0.23,-1.34,11.02,-0.01,-0.01,0.01,27.15
32689183,1776,1,201633,250888,0.56,-1.49,11.36,-0.04,-0.04,0.01,27.15
32728183,1742,1,200846,249780,0.91,-1.12,10.75,-0.05,-0.07,0.00,27.15
32768182,1707,1,201017,250089,0.34,-1.31,10.51,-0.06,-0.02,0.01,27.15
32808180,1662,1,200791,249296,0.55,-1.10,9.30,-0.05,-0.05,0.00,27.15
32848183,1642,1,201180,250308,0.24,-1.37,9.99,-0.08,-0.00,0.01,27.15
32888871,1727,1,201135,249377,0.61,-1.00,9.45,-0.04,-0.08,0.00,27.09
32929183,1742,1,201001,250162,0.30,-1.38,9.42,-0.04,-0.05,0.00,27.09
32969181,1771,1,201220,249582,0.34,-1.09,9.24,-0.03,-0.04,0.00,27.09
33009181,1762,1,200948,249736,0.60,-0.93,9.02,-0.03,-0.03,0.00,27.09
33049181,1766,1,201138,250483,0.68,-1.04,9.78,0.00,-0.01,-0.00,27.09
33089184,1776,1,201148,250517,0.56,-0.60,9.07,0.02,-0.05,0.00,27.09
33129171,1773,1,201043,250699,0.82,-0.89,9.32,0.03,-0.03,0.00,27.09
33169171,1776,1,201561,251465,0.60,-0.68,10.76,0.01,-0.02,0.00,27.09
33209171,1744,1,201435,251368,0.96,-0.50,9.90,0.03,-0.03,0.00,27.09
33249171,1707,1,201635,251488,0.28,-1.12,10.04,-0.02,0.03,-0.00,27.09
33289181,1685,1,201133,250375,1.30,-0.14,8.93,-0.00,-0.06,-0.01,27.09
33329202,1649,1,201060,250701,0.53,-0.79,9.76,-0.04,0.02,-0.01,27.09
33369181,1670,1,200970,249928,0.57,-0.31,9.34,-0.01,-0.04,-0.01,27.09
33407204,1696,1,200887,250303,0.32,-0.73,9.91,0.00,-0.00,0.00,27.09
33447171,1774,1,201331,251003,0.30,-0.88,10.01,0.01,0.01,0.00,27.09
33487150,1790,1,201186,251343,0.82,-0.61,10.66,0.00,-0.05,-0.00,27.09
33527188,1803,1,201657,252525,0.55,-0.99,9.63,-0.00,-0.01,-0.00,27.09
33567205,1819,1,201709,251727,0.84,-0.65,9.29,-0.03,-0.06,-0.01,27.09
33607201,1745,1,201857,252739,0.77,-0.74,10.77,-0.03,-0.00,-0.01,27.09
33647204,1682,1,202023,251341,0.14,-1.02,10.10,-0.03,-0.00,-0.00,27.09
33687201,1670,1,201214,250954,1.00,-0.65,10.09,-0.03,-0.06,0.00,27.09
33727183,1669,1,201506,251040,0.27,-1.16,10.52,-0.03,-0.02,0.00,27.09
33767183,1680,1,201293,250767,0.45,-1.10,10.16,-0.03,-0.03,0.00,27.09
33807182,1669,1,201492,252121,0.41,-1.12,10.03,-0.03,-0.03,0.00,27.09
33847180,1683,1,201885,250860,0.66,-0.91,10.21,-0.03,-0.07,0.00,27.09
33887183,1674,1,200958,249834,0.72,-0.73,9.53,-0.01,-0.08,0.01,27.09
33927867,1645,1,201154,248480,0.40,-0.93,10.11,-0.02,-0.01,0.01,27.11
33968183,1617,1,200270,248293,1.04,-0.71,9.22,-0.01,-0.04,0.14,27.11
34008181,1639,1,200769,249034,0.45,-1.55,9.52,-0.03,0.04,0.01,27.11
34048171,1702,1,200744,248832,0.88,-0.81,9.61,-0.01,-0.03,0.01,27.11
34088181,1743,1,201117,249761,0.72,-1.30,9.41,-0.04,0.02,0.01,27.11
34128171,1749,1,201822,249740,0.69,-0.87,10.19,-0.02,-0.01,0.01,27.11
34168181,1773,1,201715,250458,0.85,-1.17,9.39,-0.01,-0.02,0.01,27.11
34208181,1850,1,202623,251100,0.65,-0.97,10.85,-0.03,0.02,0.01,27.11
34248171,1849,1,202201,252108,1.21,-0.78,9.67,0.00,-0.07,0.01,27.11
34288171,1801,1,203306,253956,0.02,-1.08,10.50,-0.05,0.07,0.00,27.11
34328171,1798,1,203367,253933,0.82,0.18,10.26,0.00,-0.05,0.01,27.11
34368149,1728,1,203310,254560,0.86,-0.07,10.86,-0.02,-0.03,0.02,27.11
34408181,1643,1,203645,253963,0.34,-0.78,12.72,-0.05,0.03,0.01,27.11
34448171,1616,1,202914,252088,0.85,-1.11,9.34,0.05,-0.08,0.02,27.11
34488171,1664,1,202569,253334,0.67,-0.97,12.34,-0.11,0.06,0.42,27.11
34528171,1695,1,201794,249893,1.36,-0.31,7.62,-0.05,-0.08,0.01,27.11
34568181,1675,1,201246,250796,0.66,-1.24,9.46,-0.07,0.04,0.00,27.11
34608171,1564,1,200648,248564,0.93,-0.32,6.62,-0.08,-0.01,0.00,27.11
34648181,1655,1,201429,249511,1.44,-0.08,10.95,-0.07,0.06,-0.03,27.11
34688181,1714,1,200399,249102,0.88,-0.77,6.88,-0.00,-0.06,-0.01,27.11
34728201,1737,1,201526,248284,0.96,0.36,9.76,-0.04,0.06,-0.01,27.11
34767171,1735,1,200181,248391,1.33,-2.52,6.55,-0.06,-0.02,0.32,27.11
34807183,1806,1,201332,248609,-0.02,-0.59,9.08,-0.05,0.15,0.02,27.11
34847181,1834,1,200584,249299,1.50,-1.14,9.11,0.03,-0.02,0.01,27.11
34887171,1781,1,202289,252396,0.54,-0.92,11.77,-0.07,0.13,-0.01,27.11
34927183,1798,1,202245,250430,1.47,-0.55,10.44,0.02,-0.08,-0.03,27.11
34967868,1758,1,202476,253294,0.91,-0.15,11.36,-0.02,-0.01,0.01,27.03
35006182,1802,1,203973,254017,-0.60,-2.15,12.28,-0.07,0.18,0.01,27.03
35046182,1807,1,203352,254370,0.61,-0.45,9.47,0.10,-0.12,-0.02,27.03
35086182,1823,1,203657,253408,-0.20,-1.44,14.25,-0.10,0.12,-0.01,27.03
35126203,1739,1,201611,249013,0.83,1.39,4.31,0.01,-0.32,0.15,27.03
35166149,1714,1,201577,248655,0.37,-2.86,11.97,-0.16,0.02,0.34,27.03
35206171,1766,1,200438,248014,0.41,0.27,6.88,0.03,-0.00,0.02,27.03
35246151,1845,1,202151,253688,0.49,-2.60,11.48,-0.01,0.03,-0.50,27.03
35286184,1936,1,203918,255040,0.37,-0.75,12.51,0.12,0.01,-1.11,27.03
35326171,1770,1,201661,251593,1.32,3.32,7.66,0.11,-0.19,-0.54,27.03
35366171,1675,1,201318,251773,0.34,-2.82,13.53,-0.14,0.10,-0.00,27.03
35406183,1680,1,200210,248206,1.61,1.36,8.30,0.02,-0.16,-0.01,27.03
35446171,1557,1,200719,251233,-0.73,-4.00,17.36,-0.12,0.04,0.92,27.03
35486182,1895,1,200020,247271,1.31,0.61,5.37,0.03,-0.01,0.01,27.03
35526149,1706,1,201913,252125,-1.77,-2.65,15.55,-0.02,0.02,0.38,27.03
35566182,1761,1,201279,248962,1.57,0.52,6.79,0.03,-0.10,-0.09,27.03
35606171,1616,1,201908,253014,1.14,-0.05,14.21,0.01,-0.07,0.02,27.03
35646171,1748,1,202352,251921,-0.08,-1.59,8.60,-0.00,0.03,-0.07,27.03
35686201,1611,1,202239,252536,1.15,-0.24,10.37,0.10,-0.18,0.02,27.03
35726171,1605,1,202457,251261,0.57,-1.83,11.20,-0.07,0.02,-0.00,27.03
35766181,1520,1,201345,250394,1.19,-0.76,7.61,0.04,-0.15,0.02,27.03
35806171,1509,1,201803,249247,-0.14,-2.17,10.45,-0.09,0.09,0.00,27.03
35846180,1564,1,200827,249262,1.67,-0.49,7.42,0.06,-0.12,-0.00,27.03
35886183,1616,1,202041,251820,-0.01,-1.94,11.41,-0.03,0.07,-0.25,27.03
35926205,1717,1,202522,256174,2.23,1.69,6.96,0.13,-0.10,-0.57,27.03
35966171,1813,1,206653,258495,0.32,-0.77,10.75,0.02,0.05,-0.73,27.03
36006858,1854,1,203738,256656,1.04,0.07,6.84,0.11,-0.10,-0.05,27.09
36047171,1929,1,204513,255919,1.05,-0.20,11.30,-0.01,0.01,-0.02,27.09
36087182,1910,1,202734,256671,0.98,-0.40,7.76,0.06,-0.04,-0.01,27.09
36127184,1898,1,204281,256913,0.71,-0.26,11.50,-0.02,0.02,-0.02,27.09
36167182,1889,1,203849,256658,0.52,-0.11,10.00,0.04,-0.01,-0.01,27.09
36207207,1856,1,203218,256421,0.74,-0.18,10.86,-0.02,-0.02,-0.02,27.09
36247205,1872,1,203994,256705,0.17,-0.41,11.47,-0.05,0.06,-0.02,27.09
36287183,1850,1,202644,254756,1.07,0.02,10.61,-0.05,-0.06,-0.02,27.09
36327182,1837,1,201973,253544,0.53,-0.07,11.21,-0.08,0.03,-0.01,27.09
36367181,1775,1,200960,251147,1.54,-0.15,9.53,-0.10,-0.05,0.07,27.09
36405182,1739,1,200311,250618,0.23,-1.16,9.58,-0.10,0.02,0.21,27.09
36445171,1763,1,200177,249369,0.77,-0.93,8.60,-0.10,-0.05,-0.01,27.09
36485202,1792,1,199894,249416,0.30,-0.74,8.77,-0.08,0.00,-0.00,27.09
36525186,1782,1,200196,248444,0.34,-1.31,9.47,-0.08,0.04,-0.01,27.09
36565181,1808,1,199486,247321,1.04,-0.87,8.96,-0.07,-0.02,-0.01,27.09
36605202,1841,1,199910,247900,0.62,-0.93,10.37,-0.06,0.03,-0.01,27.09
36645182,1838,1,199989,247966,0.87,-0.79,9.79,-0.02,-0.03,-0.01,27.09
36685203,1818,1,200260,248889,0.99,-1.11,10.10,-0.01,-0.03,0.01,27.09
36725183,1808,1,200711,248852,0.57,-1.37,10.12,-0.03,0.02,0.10,27.09
36765171,1786,1,200687,249821,0.92,-1.17,10.90,-0.04,0.02,0.16,27.09
36806198,1778,1,201519,251968,0.16,-1.33,10.69,-0.05,0.11,-0.01,27.09
36846183,1731,1,201736,252648,0.87,-0.70,10.25,-0.03,0.00,-0.02,27.09
36886181,1675,1,202115,253068,0.50,-1.20,11.00,-0.05,-0.00,-0.01,27.09
36926201,1662,1,202021,251974,0.55,-1.05,10.32,-0.03,-0.05,-0.01,27.09
36966201,1661,1,201495,251268,0.58,-1.23,10.39,-0.03,-0.03,-0.01,27.09
37006896,1686,1,201403,250835,0.20,-1.12,10.23,-0.03,-0.01,-0.01,27.03
37045204,1678,1,200613,250744,0.88,-0.78,9.35,-0.00,-0.07,-0.01,27.03
37085203,1744,1,201275,251597,0.21,-0.92,10.76,-0.02,0.00,-0.01,27.03
37125181,1748,1,200624,250490,1.07,-0.49,8.51,0.03,-0.10,-0.02,27.03
37165183,1739,1,201166,251388,0.76,-0.96,10.36,-0.01,-0.01,-0.02,27.03
37205201,1771,1,201315,250486,0.64,-0.84,9.73,0.01,-0.05,-0.02,27.03
37245182,1774,1,200586,249517,0.93,-0.64,9.60,0.01,-0.03,-0.01,27.03
37285180,1762,1,200634,250866,0.81,-1.43,9.85,-0.00,-0.00,-0.02,27.03
37325204,1793,1,200912,251435,0.91,-0.57,9.31,-0.01,-0.03,-0.03,27.03
37365205,1839,1,201356,253197,0.65,-0.55,9.78,-0.01,-0.01,-0.03,27.03
37405204,1843,1,202197,254322,0.41,-0.55,10.99,0.01,-0.04,-0.05,27.03
37445184,1825,1,201672,253958,1.09,-0.04,10.02,0.04,-0.10,-0.04,27.03
37485182,1758,1,201462,252761,-0.06,-1.26,10.41,-0.02,-0.04,-0.02,27.03
37525220,1674,1,200431,250122,1.29,0.06,9.85,0.03,-0.12,-0.03,27.03
37565171,1627,1,200049,251073,-0.04,-1.01,9.85,-0.04,0.02,0.11,27.03
37605182,1661,1,200059,249915,0.96,-0.21,8.28,0.01,-0.01,-0.02,27.03
37645183,1694,1,200772,252753,0.37,-0.62,11.08,-0.03,0.04,-0.02,27.03
37685182,1731,1,201461,252236,0.57,-0.58,10.30,-0.02,-0.05,-0.12,27.03
37725204,1737,1,201106,253066,1.04,-0.33,10.40,0.01,-0.09,-0.02,27.03
37765180,1767,1,201864,253231,0.59,-1.35,10.73,-0.07,0.06,-0.03,27.03
37805183,1700,1,201570,253122,1.02,-0.41,9.37,0.01,-0.07,-0.02,27.03
37845180,1723,1,201647,253218,1.46,-0.61,10.95,-0.07,-0.02,-0.03,27.03
37885204,1714,1,201651,252690,0.31,-0.71,9.48,-0.04,-0.01,-0.02,27.03
37925201,1715,1,201085,251534,1.01,-0.69,9.56,-0.04,-0.02,-0.03,27.03
37965204,1741,1,201458,252093,0.35,-0.20,11.10,-0.06,0.00,-0.02,27.03
38005181,1721,1,200811,252028,0.93,-0.45,9.70,-0.02,-0.11,-0.02,27.03
38045891,1729,1,201504,252142,0.18,-0.78,10.34,-0.07,0.03,-0.02,26.91
38084181,1722,1,200330,250504,1.07,-0.58,8.34,0.01,-0.10,-0.01,26.91
38124182,1695,1,200850,251503,0.76,-0.85,10.37,-0.06,0.02,-0.01,26.91
38164181,1719,1,200750,251026,0.96,-0.31,9.34,0.01,-0.04,-0.01,26.91
38204182,1754,1,200588,251546,0.72,-1.00,9.04,-0.03,-0.01,-0.01,26.91
38244202,1777,1,200795,251099,0.93,-1.01,9.96,-0.02,0.02,-0.01,26.91
38284181,1773,1,200325,250729,1.02,-0.61,9.31,-0.02,-0.02,-0.01,26.91
38324202,1806,1,200613,251444,0.71,-0.65,9.54,-0.02,0.03,-0.01,26.91
38364183,1815,1,200971,251648,0.92,-0.95,9.83,-0.01,-0.01,-0.01,26.91
38404201,1812,1,200653,251790,1.08,-0.51,9.77,0.00,-0.02,-0.01,26.91
38444235,1786,1,201445,252928,0.51,-1.00,10.49,-0.02,0.02,-0.01,26.91
38484180,1795,1,201241,253181,1.18,-0.34,10.03,0.01,-0.05,-0.01,26.91
38524186,1775,1,202004,254672,0.39,-0.78,11.01,-0.03,0.05,-0.01,26.91
38564181,1805,1,201912,254168,0.72,0.12,10.18,0.03,-0.05,-0.01,26.91
38604171,1777,1,202116,254398,0.68,-0.44,12.36,-0.04,-0.02,-0.01,26.91
38644251,1763,1,201921,253851,0.68,-0.43,10.81,0.01,-0.07,-0.01,26.91
38684183,1741,1,201875,253939,1.01,-0.24,11.34,-0.01,-0.07,-0.01,26.91
38724201,1742,1,201860,253736,0.81,-0.02,11.04,-0.04,-0.02,-0.01,26.91
38764204,1708,1,201329,253343,1.18,0.11,9.53,-0.03,-0.07,-0.01,26.91
38804180,1692,1,201151,252795,1.31,-0.35,9.31,-0.06,-0.01,-0.02,26.91
38844205,1677,1,200802,252357,1.20,-0.16,8.44,-0.06,-0.06,-0.02,26.91
38884204,1689,1,200399,252528,1.36,0.13,8.65,-0.03,-0.06,-0.02,26.91
38924184,1728,1,200623,252194,0.99,-0.15,8.74,-0.04,-0.04,-0.02,26.91
38964202,1742,1,200292,252387,1.08,-0.39,8.56,-0.03,-0.04,-0.02,26.91
39004205,1761,1,200721,252108,1.10,-0.43,9.84,-0.03,-0.04,-0.02,26.91
39044200,1732,1,200534,252430,1.02,-0.07,9.48,0.00,-0.04,-0.02,26.91
39084871,1670,1,200427,251912,1.30,-0.22,9.01,0.01,-0.07,-0.02,27.03
39125181,1600,1,201109,253422,0.44,-0.19,10.29,0.00,0.05,-0.01,27.03
39165171,1670,1,201314,253664,1.02,0.15,9.85,0.02,-0.03,-0.01,27.03
39203171,1680,1,201820,254632,0.50,-0.65,11.19,-0.02,0.06,-0.02,27.03
39243180,1718,1,201505,253514,1.25,-0.18,10.00,-0.00,-0.06,-0.02,27.03
39283201,1700,1,201583,253903,0.45,-0.54,10.03,-0.04,0.01,-0.02,27.03
39323182,1766,1,201523,252225,1.06,-0.35,9.96,-0.04,-0.01,-0.02,27.03
39363201,1759,1,200920,252177,0.90,0.01,9.70,-0.05,0.01,-0.01,27.03
39403171,1773,1,201050,251492,0.38,-1.02,9.03,-0.07,0.05,-0.01,27.03
39443180,1735,1,200236,250421,0.88,-0.21,9.34,-0.03,-0.04,-0.01,27.03
39483203,1744,1,200523,251203,0.54,-0.85,10.11,-0.08,0.02,-0.02,27.03
39523195,1759,1,200520,250713,0.73,-0.18,8.83,-0.03,-0.06,-0.02,27.03
39563203,1786,1,201601,252493,0.68,-1.08,9.64,-0.05,-0.01,-0.02,27.03
39603201,1850,1,203148,253530,0.84,-0.74,9.31,-0.02,-0.03,-0.02,27.03
39643204,1999,1,203733,254187,0.79,-0.46,10.42,-0.03,0.05,-0.02,27.03
39683180,2083,1,203244,254241,0.76,-0.60,10.68,-0.03,0.05,-0.02,27.03
39723182,2055,1,202573,254799,0.56,-1.09,10.34,-0.02,0.05,-0.01,27.03
39763181,2000,1,202429,255235,1.15,-0.55,10.53,-0.03,-0.01,-0.02,27.03
39803205,1984,1,202203,254195,0.72,-0.58,10.80,-0.04,-0.02,-0.02,27.03
39843201,1935,1,201709,254190,1.05,-0.60,10.28,-0.03,-0.05,-0.02,27.03
39883203,1840,1,202057,253469,0.47,-0.77,10.14,-0.06,-0.01,-0.02,27.03
39923202,1792,1,201418,253077,0.90,-0.25,10.63,-0.03,-0.03,-0.02,27.03
39963205,1797,1,201618,253320,0.81,-0.69,12.08,-0.08,-0.02,-0.02,27.03
40003202,1773,1,201254,250594,0.34,-0.54,9.35,-0.02,-0.07,-0.02,27.03
40043204,1670,1,199679,248882,1.20,-0.65,7.64,-0.01,-0.14,-0.01,27.03
40083206,1627,1,200881,248662,-0.35,-1.42,11.19,-0.09,0.17,0.01,27.03
40123870,1664,1,198686,246207,1.15,0.80,6.26,0.04,-0.21,0.06,26.91
40164150,1658,1,199957,249618,0.48,-1.73,11.27,-0.12,0.24,-0.13,26.91
40204183,1675,1,199658,250357,1.66,1.29,6.17,0.02,-0.09,-0.27,26.91
40244171,1685,1,201588,253157,0.51,-0.71,12.35,-0.06,0.08,-0.48,26.91
40284236,1739,1,201637,253945,1.06,-0.23,9.58,-0.01,-0.02,-0.10,26.91
40324205,1706,1,201763,253141,1.17,-0.43,11.52,-0.03,-0.04,-0.04,26.91
40364205,1718,1,201343,253813,0.30,-0.87,9.06,-0.02,0.03,-0.02,26.91
40404181,1685,1,200991,253840,1.91,0.93,11.81,-0.02,-0.14,-0.05,26.91
40444183,1699,1,201945,254577,-0.29,-0.68,9.66,-0.05,0.14,-0.04,26.91
40484227,1648,1,201210,253811,0.89,0.57,8.00,0.00,-0.04,-0.13,26.91
40524177,1698,1,202115,254351,0.95,-0.70,12.84,-0.12,-0.01,-0.26,26.91
40564205,1723,1,201512,255678,0.12,-1.35,7.88,0.02,-0.06,-0.03,26.91
40604183,1754,1,202261,251441,1.32,0.69,9.68,-0.09,-0.03,-0.38,26.91
40642181,1750,1,200516,253554,0.36,-1.30,9.00,-0.02,-0.02,0.00,26.91
40682181,1774,1,201359,250266,0.76,-0.25,9.27,-0.10,0.00,-0.16,26.91
40722182,1743,1,200893,253255,0.22,-0.52,11.60,0.01,-0.00,-0.02,26.91
40762181,1802,1,201550,251993,1.08,-0.42,9.73,-0.07,-0.00,-0.04,26.91
40802202,1772,1,201319,252953,0.36,-0.53,10.83,-0.01,-0.02,-0.03,26.91
40842205,1767,1,200901,251910,0.97,-1.05,8.37,-0.09,-0.00,-0.05,26.91
40882203,1749,1,201291,253056,-0.07,-0.99,11.40,-0.07,0.08,-0.03,26.91
40922203,1780,1,200387,250928,1.18,-0.74,7.79,-0.02,-0.05,-0.03,26.91
40962204,1729,1,200353,249669,-0.56,-0.82,10.35,-0.09,0.13,-0.04,26.91
41002203,1718,1,199145,247943,1.18,-0.69,8.11,-0.02,-0.04,-0.04,26.91
41042204,1719,1,200014,248225,-0.12,-1.01,11.50,-0.09,0.11,0.02,26.91
41082183,1742,1,198278,246593,0.94,0.27,7.09,0.05,-0.12,0.19,26.91
41122149,1738,1,200529,252156,-0.02,-1.74,12.89,-0.11,0.19,-0.02,26.91
41162891,1762,1,200835,250982,0.52,-0.55,7.49,0.12,-0.12,-0.10,26.99
41203181,1731,1,201090,253467,-0.30,-1.73,12.51,0.00,0.02,-0.02,26.99
41243182,1778,1,201243,252240,0.37,-0.64,9.30,0.04,-0.03,-0.02,26.99
41283181,1680,1,200361,252397,0.61,-0.56,11.23,0.01,-0.05,0.36,26.99
41323171,1678,1,201491,251384,-0.42,-1.44,9.93,-0.05,0.09,0.02,26.99
41363181,1621,1,200696,251898,1.64,0.82,11.09,0.06,-0.14,0.60,26.99
41403150,1649,1,202409,252903,-0.07,-1.06,10.24,-0.05,0.04,-0.00,26.99
41443201,1584,1,202240,253612,1.18,-0.00,9.93,0.13,-0.18,-0.00,26.99
41483183,1606,1,203546,255021,0.50,-1.22,12.43,-0.05,-0.02,-0.02,26.99
41523207,1605,1,203571,255172,1.05,0.06,8.95,0.04,-0.17,-0.02,26.99
41563171,1649,1,204068,255021,1.21,0.19,11.08,-0.01,-0.11,-0.02,26.99
41603181,1666,1,204564,256240,1.10,-0.01,10.86,-0.01,-0.04,-0.02,26.99
41643202,1727,1,204620,255646,1.32,0.03,9.64,-0.01,-0.10,-0.02,26.99
41683181,1727,1,204655,256291,0.64,-0.34,10.55,-0.03,0.02,-0.02,26.99
41723183,1695,1,203919,254178,1.33,0.09,7.69,-0.01,-0.12,-0.02,26.99
41763181,1648,1,203627,255263,1.13,-0.11,10.05,-0.06,-0.05,-0.02,26.99
41803202,1653,1,203349,253125,1.37,0.17,7.70,-0.04,-0.07,-0.02,26.99
41843181,1710,1,202435,253460,0.90,-0.20,7.80,-0.01,-0.02,-0.02,26.99
41883202,1765,1,203038,253904,1.46,-0.41,8.88,-0.04,0.02,-0.02,26.99
41923213,1777,1,202571,253608,0.90,-0.06,8.27,0.02,-0.05,-0.02,26.99
41963181,1742,1,202510,253448,1.32,-0.42,8.94,-0.01,-0.04,-0.02,26.99
42003201,1726,1,202996,254503,1.00,0.01,9.32,-0.01,-0.01,-0.02,26.99
42043181,1734,1,203296,254472,1.36,-0.56,9.45,-0.02,0.01,-0.03,26.99
42081183,1742,1,203820,255820,1.10,-0.06,10.36,-0.04,0.08,-0.02,26.99
42121183,1771,1,204059,256301,1.07,-0.42,9.93,-0.03,0.03,-0.02,26.99
42161181,1808,1,204029,256309,0.58,0.03,10.38,-0.05,0.06,-0.02,26.99
42201858,1808,1,203872,256048,0.52,-0.22,11.84,-0.06,0.04,-0.02,26.87
42242181,1809,1,203472,255302,0.66,-0.52,11.23,-0.06,-0.01,-0.02,26.87
42282204,1808,1,203385,255408,0.37,-0.78,10.54,-0.09,0.02,-0.02,26.87
42322181,1810,1,203216,254417,0.70,-0.45,10.82,-0.10,-0.01,-0.02,26.87
42362205,1787,1,202776,254572,0.65,-0.59,9.27,-0.07,-0.02,-0.01,26.87
42402201,1781,1,202868,253799,0.57,-0.91,9.87,-0.11,0.06,-0.01,26.87
42442183,1745,1,202074,253731,0.72,-0.41,8.63,-0.05,-0.04,-0.01,26.87
42482203,1741,1,202821,254713,0.78,-1.00,10.96,-0.11,0.08,-0.02,26.87
42522183,1759,1,202732,254127,0.74,-0.69,9.39,-0.03,-0.04,-0.01,26.87
42562201,1733,1,202695,253452,0.82,-0.99,10.30,-0.06,-0.02,-0.02,26.87
42602205,1744,1,202634,252482,1.00,-0.71,10.44,-0.05,-0.05,-0.02,26.87
42642201,1737,1,202368,252566,1.05,-0.87,9.54,-0.05,-0.03,-0.02,26.87
42682202,1769,1,203000,253156,0.69,-1.42,10.37,-0.07,0.07,-0.02,26.87
42722180,1793,1,202614,252993,0.60,-0.73,8.87,-0.03,-0.00,-0.02,26.87
42761203,1826,1,203303,254726,0.90,-0.53,10.96,-0.05,0.05,-0.02,26.87
42801181,1822,1,203320,253827,0.60,-0.29,8.65,-0.00,-0.04,-0.02,26.87
42841204,1808,1,203674,255130,1.13,-0.63,11.06,-0.03,0.01,-0.02,26.87
42881180,1826,1,204179,254896,0.51,-0.50,10.42,-0.00,-0.02,-0.02,26.87
42921204,1795,1,203646,254636,1.41,0.01,9.91,0.02,-0.07,-0.02,26.87
42961171,1810,1,204267,255269,0.51,-0.91,10.57,-0.05,0.02,-0.02,26.87
43001183,1824,1,203702,254424,1.27,-0.01,9.01,0.01,-0.04,-0.02,26.87
43041181,1792,1,203884,255005,0.93,-1.05,9.74,-0.08,0.03,-0.03,26.87
43081183,1794,1,203464,253757,1.07,0.11,8.78,-0.02,-0.03,-0.04,26.87
43121181,1775,1,203723,254941,0.83,-0.68,9.92,-0.06,0.01,-0.03,26.87
43161182,1787,1,203737,254817,0.86,-0.07,9.06,-0.01,-0.03,-0.03,26.87
43201889,1786,1,203791,254403,0.44,-0.94,9.99,-0.04,-0.02,-0.02,26.85
43242203,1792,1,203368,254640,0.67,-0.59,9.69,-0.03,0.00,-0.03,26.85
43282181,1754,1,203386,253970,0.51,-0.51,10.04,-0.04,-0.01,-0.03,26.85
43322203,1719,1,203025,254670,0.65,-0.61,9.62,-0.02,0.01,-0.02,26.85
43362181,1722,1,203117,253124,0.69,-0.28,10.43,-0.02,-0.03,-0.02,26.85
43402205,1709,1,202504,253968,0.59,-0.09,9.84,-0.00,-0.01,-0.02,26.85
43442202,1722,1,203188,254360,0.87,-1.17,10.32,-0.04,-0.00,-0.02,26.85
43482205,1712,1,203189,254627,0.61,-0.47,9.59,-0.01,-0.02,-0.02,26.85
43522202,1744,1,203149,254006,0.70,-0.56,9.50,-0.04,-0.01,-0.03,26.85
43562205,1728,1,203070,253911,1.17,-0.03,10.41,-0.05,-0.02,-0.03,26.85
43602201,1715,1,202560,253163,0.88,-0.81,8.65,-0.05,-0.03,-0.03,26.85
43640203,1744,1,202777,252389,0.59,-0.90,9.39,-0.06,0.03,-0.03,26.85
43680180,1751,1,202183,251870,1.03,-0.91,8.73,-0.04,-0.05,-0.03,26.85
43720203,1785,1,202955,252984,0.57,-0.73,9.77,-0.08,0.04,-0.03,26.85
43760180,1789,1,203028,252668,0.48,-0.78,8.17,-0.04,0.01,-0.02,26.85
43801181,1835,1,203364,253542,0.64,-0.74,9.88,-0.06,0.07,-0.03,26.85
43841181,1813,1,203789,253039,0.45,-0.73,10.12,-0.03,0.05,-0.02,26.85
43881183,1757,1,202926,252683,1.40,-0.45,10.27,0.00,-0.05,-0.02,26.85
43921180,1744,1,203484,252768,0.29,-1.07,10.75,-0.02,0.05,-0.02,26.85
43961183,1733,1,202878,253092,0.91,-0.59,9.49,0.03,-0.03,-0.02,26.85
44001180,1763,1,203808,253531,0.94,-0.90,11.75,-0.08,0.05,-0.02,26.85
44041181,1746,1,203409,253664,0.78,-0.17,9.69,0.01,-0.03,-0.02,26.85
44081181,1747,1,203931,254116,1.08,-0.98,11.05,-0.07,0.00,-0.03,26.85
44121181,1767,1,203945,254756,0.72,0.02,10.70,-0.02,-0.01,-0.02,26.85
44161181,1745,1,203519,253861,1.13,-0.61,10.30,-0.05,-0.06,-0.02,26.85
44201202,1708,1,203595,254784,0.41,-1.32,10.26,-0.08,0.03,-0.02,26.85
44241867,1694,1,203340,253461,0.78,-0.65,9.24,-0.06,-0.03,-0.02,26.83
44280204,1697,1,203331,254877,0.64,-0.86,10.18,-0.08,0.01,-0.02,26.83
44320180,1712,1,203627,254363,0.59,-0.51,10.82,-0.05,-0.01,-0.02,26.83
44360204,1712,1,203038,254798,0.94,-0.09,9.20,-0.01,-0.09,-0.02,26.83
44400201,1675,1,203678,254878,0.79,-1.24,10.77,-0.07,0.01,-0.02,26.83
44440182,1671,1,202983,253685,0.87,-0.30,8.76,0.01,-0.08,-0.02,26.83
44480180,1686,1,203332,254649,0.74,-0.91,10.60,-0.06,0.06,-0.02,26.83
44520182,1675,1,203083,253201,0.69,-0.07,9.88,-0.01,-0.01,-0.02,26.83
44560200,1669,1,202508,254028,1.54,-0.01,10.20,-0.02,-0.06,-0.02,26.83
44600204,1687,1,203043,253235,0.60,-0.54,10.19,-0.04,0.00,-0.02,26.83
44640180,1655,1,202564,254219,1.68,-0.32,9.47,0.01,-0.10,-0.02,26.83
44680183,1699,1,203388,253916,0.56,-0.63,9.80,-0.05,0.01,-0.02,26.83
44720180,1721,1,202663,254337,1.19,-0.07,8.48,-0.01,-0.04,-0.02,26.83
44760204,1771,1,203144,254009,0.98,-0.48,10.41,-0.08,0.04,-0.03,26.83
44801181,1791,1,202484,253842,1.07,-0.17,9.23,-0.01,-0.06,-0.03,26.83
44841204,1799,1,202622,254049,1.05,-0.53,9.97,-0.02,-0.05,-0.03,26.83
44881201,1811,1,202818,254501,0.66,0.06,10.24,-0.01,-0.04,-0.02,26.83
44921181,1833,1,202803,254481,0.68,-0.57,9.91,-0.02,-0.04,-0.03,26.83
44961201,1830,1,203126,254609,0.40,-0.62,9.96,-0.04,-0.00,-0.03,26.83
45001201,1810,1,203070,254555,0.82,-0.51,9.72,-0.01,-0.03,-0.03,26.83
45041202,1823,1,202870,254671,1.00,0.23,9.93,0.01,-0.06,-0.03,26.83
45081171,1834,1,203413,255590,0.38,-0.32,11.13,-0.01,0.03,-0.02,26.83
45121182,1828,1,202863,254953,1.12,0.29,8.89,0.02,-0.10,-0.02,26.83
45161171,1808,1,203438,255434,0.49,-1.04,11.42,-0.06,0.04,-0.02,26.83
45199218,1793,1,203086,254750,1.05,-0.05,9.77,-0.01,-0.08,-0.03,26.83
45239203,1757,1,203351,255328,0.98,-0.56,11.02,-0.08,-0.01,-0.02,26.83
45279891,1751,1,203015,253839,0.74,-0.44,9.34,-0.06,-0.01,-0.03,26.87
45320204,1714,1,202172,252388,1.04,-0.12,8.99,-0.08,-0.01,-0.03,26.87
45360201,1701,1,201866,251146,0.45,-1.00,9.08,-0.10,0.07,-0.02,26.87
45400185,1683,1,200838,250247,1.33,-0.31,8.03,-0.05,-0.04,-0.03,26.87
45440205,1676,1,201568,251950,0.22,-0.83,10.02,-0.09,0.10,-0.03,26.87
45480183,1712,1,201334,252112,1.05,-0.34,7.62,0.00,-0.08,-0.02,26.87
45520181,1727,1,202556,253954,0.50,-0.91,10.91,-0.08,0.05,-0.03,26.87
45560183,1728,1,202408,252453,0.58,-0.55,8.74,0.00,-0.07,-0.03,26.87
45600181,1674,1,202207,252539,0.63,-0.85,9.30,-0.03,-0.00,-0.02,26.87
45640201,1668,1,202393,252626,0.78,-0.46,9.44,-0.03,0.05,-0.02,26.87
45680181,1663,1,202296,253042,0.31,-1.03,9.74,-0.01,0.07,-0.02,26.87
45720181,1755,1,202464,253849,0.79,-0.63,10.32,-0.01,0.05,-0.02,26.87
45760181,1712,1,202662,253936,0.52,-0.79,11.00,0.00,0.01,-0.02,26.87
45800171,1680,1,202645,254095,0.67,-0.64,10.56,0.00,-0.01,-0.02,26.87
45839180,1667,1,202648,253863,0.34,-0.47,12.36,-0.03,0.00,-0.02,26.87
45879183,1683,1,201929,252926,0.87,-0.65,10.65,-0.01,-0.08,-0.02,26.87
45919201,1673,1,201973,252677,0.56,-1.06,10.88,-0.07,0.02,-0.02,26.87
45959183,1675,1,201210,250977,0.95,-0.72,10.06,-0.05,-0.04,-0.03,26.87
45999201,1671,1,200897,251086,0.81,-0.49,9.94,-0.04,-0.04,-0.03,26.87
46039203,1712,1,201026,251066,0.81,-0.33,10.11,-0.03,-0.06,-0.02,26.87
46079201,1750,1,200843,251243,0.58,-0.60,9.42,-0.03,-0.07,-0.02,26.87
46119202,1791,1,201679,252268,0.47,-0.74,11.02,-0.05,-0.00,-0.03,26.87
46159201,1803,1,201492,251681,1.05,-0.26,9.73,-0.00,-0.10,-0.02,26.87
46199204,1785,1,201829,252611,0.59,-0.91,10.21,-0.03,-0.03,-0.02,26.87
46239201,1808,1,201417,250599,1.05,-0.40,8.94,0.00,-0.11,-0.02,26.87
46279182,1792,1,201354,252128,0.90,-0.40,10.64,-0.02,-0.01,-0.02,26.87
46319888,1812,1,201547,251400,0.57,-0.56,9.30,0.00,-0.02,-0.02,26.91
46360181,1773,1,201649,252707,0.69,-0.57,10.25,-0.00,-0.04,-0.02,26.91
46400201,1781,1,202138,252754,0.83,-0.54,9.52,-0.01,-0.04,-0.02,26.91
46440202,1763,1,201688,251783,0.99,0.19,9.51,0.01,-0.09,-0.02,26.91
46480171,1775,1,202083,253420,0.94,-0.89,10.78,-0.03,-0.01,-0.03,26.91
46520205,1761,1,201995,251757,0.99,-0.37,9.13,0.02,-0.06,-0.03,26.91
46560181,1725,1,201551,252432,0.90,-0.22,9.80,-0.02,-0.02,-0.02,26.91
46600202,1763,1,202042,252428,1.17,0.12,10.76,-0.04,-0.00,-0.03,26.91
46640181,1754,1,201580,252436,0.94,-0.52,8.83,-0.01,-0.04,-0.02,26.91
46680202,1755,1,201878,252378,1.11,-0.42,9.70,-0.05,0.01,-0.03,26.91
46720181,1727,1,201554,251379,1.14,-0.37,8.55,-0.02,-0.08,-0.02,26.91
46760202,1751,1,201673,252276,0.90,-0.41,9.66,-0.04,0.01,-0.03,26.91
46800181,1743,1,201641,251111,0.89,0.18,9.13,-0.02,-0.01,-0.03,26.91
46839183,1761,1,201317,252261,0.88,-0.70,8.76,-0.05,0.01,-0.03,26.91
46879181,1776,1,202146,252498,0.85,-0.34,10.09,-0.05,0.05,-0.03,26.91
46919183,1771,1,201665,252416,1.06,0.07,8.83,0.00,-0.08,-0.03,26.91
46959171,1746,1,202541,253707,0.21,-0.93,10.15,-0.06,0.08,-0.03,26.91
46999183,1770,1,202540,252746,0.76,-0.18,9.39,-0.01,-0.01,-0.03,26.91
47039201,1749,1,202524,253594,0.71,-0.47,10.98,-0.06,0.05,-0.02,26.91
47079183,1741,1,202771,254247,0.48,-0.51,10.88,-0.07,0.06,-0.03,26.91
47119181,1712,1,202670,253973,0.94,-0.53,10.79,-0.04,-0.04,-0.03,26.91
47159204,1721,1,202981,254654,0.55,-0.64,10.44,-0.08,0.01,-0.03,26.91
47199181,1706,1,202339,250759,0.90,-0.00,8.83,-0.06,-0.07,-0.03,26.91
47239202,1651,1,200700,248311,1.06,-0.16,8.66,-0.08,-0.01,-0.02,26.91
47279201,1661,1,199672,245041,0.85,-1.39,8.09,-0.15,0.09,0.01,26.91
47319858,1693,1,198183,244216,0.81,-0.23,8.22,-0.04,0.03,-0.03,26.79
47358181,1725,1,198715,247315,0.25,-2.39,9.98,-0.09,0.10,-0.22,26.79
47398183,1759,1,199469,249350,0.54,-0.19,8.44,-0.01,0.00,-0.46,26.79
47438181,1761,1,200884,252423,0.07,-1.89,10.55,-0.07,0.04,-0.16,26.79
47478184,1776,1,201529,251985,0.57,-0.17,10.51,-0.02,0.02,-0.09,26.79
47518180,1733,1,201399,252848,0.24,-1.35,11.60,-0.04,0.03,-0.02,26.79
47558182,1702,1,201771,253217,0.17,-0.78,10.45,-0.03,0.04,-0.02,26.79
47598181,1712,1,202258,254293,0.35,-0.52,13.03,-0.05,0.05,-0.02,26.79
47638183,1747,1,202364,254549,0.29,-0.81,11.25,-0.01,-0.00,-0.03,26.79
47678202,1717,1,202266,252739,0.03,-0.89,11.72,-0.04,-0.02,-0.03,26.79
47718204,1697,1,201794,253079,0.41,-1.12,11.42,-0.03,-0.05,-0.02,26.79
47758202,1738,1,201660,251177,0.47,-1.44,10.41,-0.05,-0.06,-0.03,26.79
47798204,1743,1,200870,251844,0.98,-0.76,9.84,-0.05,-0.11,-0.03,26.79
47838200,1765,1,201481,251296,0.41,-1.29,9.85,-0.10,-0.01,-0.04,26.79
47879202,1758,1,200577,250689,0.77,-0.64,8.39,-0.02,-0.10,-0.03,26.79
47919202,1779,1,201291,251343,0.34,-1.40,9.90,-0.09,0.02,-0.03,26.79
47959181,1792,1,201186,250787,0.42,-0.87,8.98,-0.02,-0.04,-0.02,26.79
47999201,1790,1,201163,251416,1.20,-1.84,10.52,-0.06,-0.05,-0.03,26.79
48039205,1782,1,201321,251818,0.55,-1.28,9.22,-0.01,-0.03,-0.02,26.79
48079201,1779,1,201370,252612,0.75,-1.65,9.52,-0.01,-0.01,-0.02,26.79
48119205,1789,1,201620,253392,0.68,-0.45,10.08,0.01,0.00,-0.03,26.79
48159171,1787,1,201867,254100,0.27,-0.30,10.20,0.02,0.02,-0.02,26.79
48199171,1771,1,201875,254505,1.14,-0.08,10.39,0.04,-0.04,-0.02,26.79
48239181,1771,1,202016,254372,0.20,-0.58,10.95,0.04,-0.01,-0.02,26.79
48279181,1744,1,201612,254203,1.14,0.13,10.21,0.06,-0.11,-0.02,26.79
48319171,1743,1,201671,253351,0.74,-0.10,12.07,0.01,-0.07,-0.02,26.79
48359869,1699,1,200512,251518,0.57,-0.23,8.61,0.08,-0.10,-0.01,26.71
48398181,1670,1,201086,252027,0.97,-0.47,11.00,-0.03,0.01,-0.01,26.71
48438183,1691,1,200471,251165,1.00,0.09,9.30,0.03,-0.10,-0.02,26.71
48478171,1676,1,201001,252853,1.11,-0.00,10.49,-0.01,-0.03,-0.02,26.71
48518205,1725,1,201453,252901,1.05,0.36,9.67,0.00,-0.07,-0.02,26.71
48558171,1728,1,201862,253836,1.26,-0.28,10.17,-0.03,-0.09,-0.02,26.71
48598204,1749,1,201947,253394,1.14,0.11,9.80,-0.01,-0.06,-0.02,26.71
48638180,1729,1,201862,253210,1.06,-0.11,9.69,-0.03,-0.07,-0.02,26.71
48678222,1724,1,201523,252658,0.79,-0.10,8.50,-0.03,-0.01,-0.02,26.71
48718201,1744,1,201637,252520,0.92,0.23,9.60,-0.05,0.01,-0.02,26.71
48758171,1792,1,201310,252788,1.18,0.27,9.48,-0.02,-0.02,-0.01,26.71
48798181,1792,1,201550,252797,0.83,-0.04,9.00,-0.03,-0.03,-0.02,26.71
48838201,1792,1,201117,251872,1.47,0.20,8.56,0.00,-0.08,-0.02,26.71
48878171,1778,1,201485,253120,0.98,0.26,9.45,-0.02,-0.00,-0.02,26.71
48918181,1801,1,201547,251619,0.86,0.23,8.51,-0.01,-0.01,-0.02,26.71
48958181,1758,1,201101,252294,1.21,-0.06,9.92,-0.05,0.01,-0.02,26.71
48998181,1762,1,201268,250869,0.99,-0.28,9.23,-0.03,0.06,-0.02,26.71
49038181,1744,1,200826,252063,1.37,0.07,9.75,-0.03,-0.01,-0.02,26.71
49078182,1759,1,201548,251776,1.21,0.04,10.12,-0.06,0.05,-0.02,26.71
49118171,1743,1,201116,252318,0.77,-0.49,8.53,-0.01,0.02,-0.01,26.71
49158181,1763,1,201857,253034,1.34,-0.21,10.32,-0.07,0.06,-0.02,26.71
49198181,1750,1,202003,253370,0.67,-0.28,10.45,-0.06,0.01,-0.02,26.71
49238182,1746,1,202194,254050,1.07,-0.29,10.87,-0.07,0.03,-0.02,26.71
49278181,1757,1,202559,254446,0.40,0.21,12.05,-0.06,0.03,-0.01,26.71
49318171,1758,1,202464,254831,0.98,-0.71,11.43,-0.07,-0.04,-0.01,26.71
49358202,1763,1,202499,254552,0.24,-0.35,11.74,-0.07,0.02,-0.01,26.71
49398870,1735,1,202327,254310,0.41,-0.74,11.30,-0.07,-0.01,-0.01,26.61
49437200,1722,1,202155,254066,0.54,-0.71,10.72,-0.09,0.00,-0.01,26.61
49477183,1718,1,201982,253463,0.76,-0.49,10.70,-0.08,0.00,-0.01,26.61
49517181,1675,1,201525,252936,0.72,-0.67,9.47,-0.08,-0.04,-0.01,26.61
49557204,1648,1,201619,252971,0.72,-0.93,9.55,-0.07,0.00,-0.01,26.61
49597180,1655,1,201276,251962,0.86,-0.77,9.01,-0.06,-0.04,-0.01,26.61
49637204,1654,1,201202,252005,0.65,-0.96,10.01,-0.07,0.03,-0.01,26.61
49677181,1666,1,201008,250955,0.79,-0.74,9.51,-0.04,-0.03,-0.01,26.61
49717204,1686,1,200857,251483,1.06,-0.64,10.19,-0.05,-0.03,-0.01,26.61
49757201,1698,1,201111,251287,0.83,-1.03,9.11,-0.02,-0.00,-0.01,26.61
49797204,1741,1,200890,251249,0.96,-0.59,9.24,-0.01,-0.01,-0.01,26.61
49837201,1746,1,201377,252420,0.78,-0.92,10.32,0.00,0.02,-0.01,26.61
49877171,1776,1,201415,252458,0.63,-0.42,9.28,0.01,-0.02,-0.01,26.61
49917181,1776,1,201845,253578,0.53,-1.16,10.68,-0.02,0.03,-0.02,26.61
49957183,1791,1,201976,253497,0.46,-0.48,10.08,0.01,-0.01,-0.02,26.61
49997180,1761,1,202011,254012,0.96,-0.17,10.09,0.00,-0.02,-0.02,26.61
50037181,1791,1,202253,254414,0.71,-0.31,10.03,0.02,-0.02,-0.02,26.61
50077181,1806,1,202170,254372,0.74,-0.40,9.81,0.02,-0.03,-0.02,26.61
50117222,1805,1,202212,254841,0.88,-0.29,9.96,-0.01,-0.02,-0.02,26.61
50157201,1809,1,202178,254156,0.70,-0.11,10.13,-0.02,-0.02,-0.02,26.61
50197202,1806,1,202059,254966,0.81,-0.56,9.98,-0.05,-0.01,-0.02,26.61
50237201,1787,1,202090,254140,0.82,0.00,10.08,-0.04,-0.03,-0.03,26.61
50277181,1778,1,201731,253984,0.87,-0.04,9.99,-0.04,-0.06,-0.02,26.61
50317247,1766,1,201621,253731,1.05,-0.22,10.01,-0.04,-0.06,-0.02,26.61
50357202,1761,1,201573,252896,0.26,-0.65,9.62,-0.01,-0.03,-0.02,26.61
50397201,1729,1,201272,252935,0.85,-0.54,9.61,-0.02,-0.04,-0.02,26.61
50437889,1733,1,201491,252455,0.66,0.04,10.11,-0.02,-0.01,-0.02,26.61
50476180,1742,1,201027,253167,0.84,-0.37,8.91,-0.02,-0.01,-0.02,26.61
50516204,1767,1,201642,253292,0.94,-0.30,9.95,-0.04,0.01,-0.03,26.61
50556181,1743,1,201468,253412,1.10,-0.19,9.65,-0.04,-0.06,-0.02,26.61
50596204,1750,1,201837,253688,0.69,-0.43,10.54,-0.05,0.01,-0.02,26.61
50636180,1734,1,201698,252997,0.84,-0.72,9.48,-0.05,-0.03,-0.02,26.61
50676204,1744,1,201840,253757,0.51,-0.85,10.40,-0.09,0.05,-0.02,26.61
50716181,1755,1,201812,252976,0.79,-0.18,10.10,-0.07,-0.01,-0.03,26.61
50756204,1766,1,201402,253214,0.58,-0.13,9.21,-0.07,-0.00,-0.02,26.61
50796201,1800,1,201841,253530,0.43,-0.30,9.89,-0.07,0.05,-0.03,26.61
50836183,1791,1,201791,253333,0.54,-0.16,9.49,-0.05,-0.01,-0.03,26.61
50876201,1788,1,202097,253915,0.47,-0.76,11.23,-0.06,0.04,-0.03,26.61
50916183,1757,1,201881,252385,0.62,-0.86,9.86,-0.03,-0.02,-0.03,26.61
50956201,1737,1,201461,252087,1.16,-1.41,10.49,-0.06,-0.02,-0.03,26.61
50996204,1741,1,201401,252302,0.84,-0.48,9.88,-0.05,0.00,-0.03,26.61
51036181,1744,1,201053,250924,1.10,-0.77,9.31,-0.06,0.00,-0.03,26.61
51076183,1708,1,200967,250765,0.58,-0.99,9.57,-0.09,0.04,-0.03,26.61
51116181,1685,1,200229,248745,0.92,-0.34,7.89,-0.05,-0.01,-0.03,26.61
51156204,1699,1,200048,248106,0.77,-0.62,8.32,-0.07,0.01,-0.03,26.61
51196180,1712,1,200671,250020,-0.03,-1.25,10.66,-0.08,0.14,-0.00,26.61
51236204,1724,1,201371,250869,-0.49,-1.87,9.83,-0.08,0.13,-0.02,26.61
51276201,1682,1,201912,253115,0.20,-1.72,10.79,-0.03,-0.01,-0.03,26.61
51316204,1745,1,202200,252353,0.15,-1.02,9.21,-0.02,-0.06,-0.02,26.61
51356201,1725,1,202213,253985,0.82,-1.10,10.23,-0.06,-0.03,0.13,26.61
51396183,1755,1,202282,251578,0.39,-0.79,9.20,-0.07,0.06,-0.04,26.61
51436181,1709,1,201604,253710,-0.21,-2.15,10.91,-0.09,0.11,0.46,26.61
51476870,1811,1,203043,251865,-0.11,-2.22,9.24,-0.14,0.19,-0.04,26.61
51515202,1713,1,201106,250984,-0.01,0.84,6.21,-0.01,-0.14,0.31,26.61
51555183,1725,1,202293,252132,0.73,-1.96,9.74,-0.20,0.19,-0.02,26.61
51595180,1750,1,201874,252263,0.23,-1.89,9.33,-0.09,-0.01,-0.05,26.61
51635204,1745,1,202167,253378,-0.37,-2.32,8.66,-0.05,0.07,-0.51,26.61
51675201,1790,1,203144,253432,-0.72,-1.92,13.08,-0.07,0.09,-0.48,26.61
51715204,1745,1,202796,254771,0.06,-1.24,11.29,0.01,-0.06,-0.06,26.61
51755208,1758,1,203193,253084,-0.41,-0.68,10.17,-0.12,0.06,-0.03,26.61
51795204,1744,1,202233,254955,1.04,-2.64,12.25,-0.06,-0.01,-0.03,26.61
51835201,1791,1,202964,252979,-0.54,-2.94,11.57,-0.09,0.23,-0.09,26.61
51875204,1695,1,201807,253778,-0.17,-2.09,10.21,0.03,-0.12,-0.02,26.61
51915202,1725,1,201980,251149,0.41,0.74,10.36,-0.08,0.02,-0.05,26.61
51955195,1698,1,201603,251159,-0.07,-3.59,9.20,-0.04,-0.05,-0.03,26.61
51995218,1694,1,200044,247564,1.28,1.50,7.33,0.00,-0.22,-0.06,26.61
52035171,1793,1,200424,248629,-1.14,-5.38,9.73,-0.05,0.05,0.48,26.61
52075181,1846,1,199558,245342,1.56,0.58,6.22,0.06,-0.13,-0.11,26.61
52115171,1904,1,199697,248173,-1.83,-3.56,11.25,-0.03,0.15,0.16,26.61
52155181,1946,1,199738,249074,2.73,-0.51,8.06,0.08,-0.10,-0.17,26.61
52195183,1894,1,200588,251135,-0.57,-1.02,11.95,-0.02,0.10,-0.06,26.61
52235205,1897,1,200753,252221,0.56,-1.23,9.37,0.09,-0.07,-0.03,26.61
52275183,1840,1,200869,251761,0.18,-0.64,10.25,0.07,-0.02,-0.02,26.61
52315181,1823,1,201073,253849,0.27,-1.48,10.46,0.08,0.00,-0.02,26.61
52355171,1822,1,201569,254632,1.26,-0.65,10.49,0.06,-0.08,-0.03,26.61
52395184,1785,1,201987,255473,-0.22,-1.48,11.68,0.03,0.03,-0.02,26.61
52435183,1813,1,201807,255462,0.58,-0.17,9.09,0.08,-0.04,-0.16,26.61
52475182,1791,1,201704,254890,-0.09,-1.16,12.64,0.01,-0.04,-0.08,26.61
52515891,1771,1,201283,254546,0.85,-0.11,10.67,0.04,-0.15,-0.03,26.77
52554183,1699,1,201404,254224,0.49,0.26,12.62,0.01,-0.09,-0.03,26.77
52594171,1675,1,201456,254558,1.03,-0.09,10.18,0.01,-0.13,-0.03,26.77
52634180,1633,1,201675,254155,0.67,-0.12,11.29,-0.04,-0.07,-0.03,26.77
52674222,1617,1,201319,253361,1.26,-0.13,9.05,-0.01,-0.16,-0.03,26.77
52714202,1655,1,201459,253323,1.17,-0.01,9.17,-0.07,-0.07,-0.03,26.77
52754203,1727,1,201455,251966,1.18,-0.23,7.66,-0.08,-0.05,-0.03,26.77
52794202,1702,1,200933,250955,1.43,0.37,8.33,-0.12,-0.03,0.27,26.77
52834171,1719,1,201054,250983,1.24,-0.19,7.97,-0.09,-0.01,0.15,26.77
52874180,1739,1,201417,251799,1.47,0.16,7.91,-0.06,-0.03,-0.01,26.77
52914182,1766,1,202208,252448,0.83,-0.49,9.06,-0.07,0.03,-0.03,26.77
52954180,1777,1,202448,252849,1.27,0.16,9.30,-0.04,-0.01,-0.02,26.77
52994183,1757,1,203002,253287,1.14,-0.16,9.69,-0.08,0.02,-0.02,26.77
53034180,1770,1,203530,253417,1.15,-0.12,8.50,-0.04,0.02,-0.03,26.77
53074183,1774,1,204045,253191,1.57,0.47,9.52,-0.06,0.02,-0.01,26.77
53114171,1770,1,204285,252730,0.75,0.23,8.43,-0.09,0.09,0.20,26.77
53154149,1769,1,204269,252434,0.87,-0.38,8.73,-0.09,0.08,0.02,26.77
53194171,1766,1,204379,253229,0.70,-0.35,9.58,-0.11,0.13,-0.01,26.77
53234183,1773,1,204364,253615,0.74,-0.28,9.87,-0.10,0.10,-0.02,26.77
53274180,1783,1,204335,254425,0.58,-0.05,9.85,-0.09,0.07,-0.01,26.77
53314183,1776,1,204821,255234,0.61,-0.67,10.45,-0.09,0.04,-0.01,26.77
53354180,1798,1,204926,255083,0.75,-0.23,9.07,-0.06,0.00,-0.01,26.77
53394232,1778,1,205649,256516,0.40,-0.88,11.46,-0.10,0.10,-0.01,26.77
53434181,1783,1,205844,255519,0.06,-1.22,11.34,-0.07,0.06,-0.01,26.77
53474183,1701,1,205294,256045,0.37,-1.02,10.62,-0.06,0.01,0.00,26.77
53514171,1713,1,206079,256471,0.16,-1.20,11.94,-0.10,0.07,-0.00,26.77
53554870,1715,1,204748,253298,0.91,-0.78,9.64,-0.02,-0.03,-0.00,26.61
53595218,1691,1,204945,255047,-0.03,-2.16,11.70,-0.13,0.11,-0.01,26.61
53635205,1664,1,204901,253845,0.62,-0.53,10.42,-0.02,-0.05,-0.01,26.61
53675201,1703,1,205204,255631,0.05,-0.86,12.00,-0.04,-0.03,0.00,26.61
53715181,1718,1,205254,255391,0.68,-0.44,10.59,-0.06,-0.04,-0.00,26.61
53755202,1709,1,205575,256172,0.16,-1.44,10.59,-0.06,-0.03,0.00,26.61
53795184,1693,1,205019,254609,0.45,-1.32,8.94,-0.05,-0.06,0.00,26.61
53835181,1695,1,204553,254082,0.48,-0.75,10.49,-0.02,-0.04,0.00,26.61
53875182,1712,1,204546,254376,0.47,-1.05,9.61,-0.01,-0.04,0.00,26.61
53913181,1729,1,204487,253624,0.68,-0.93,9.96,0.01,-0.08,0.00,26.61
53953171,1776,1,204339,254027,0.71,-0.71,9.59,0.03,-0.06,0.00,26.61
53993171,1776,1,204807,254349,0.87,-0.83,9.94,0.01,-0.08,-0.01,26.61
54033182,1789,1,205470,255194,1.24,-0.34,9.22,0.03,-0.07,-0.01,26.61
54073181,1794,1,206088,255696,0.90,-0.76,8.71,0.02,-0.04,-0.01,26.61
54113183,1781,1,206028,255937,1.29,-0.74,8.83,0.02,-0.07,-0.01,26.61
54153181,1783,1,206154,256887,0.91,-0.37,10.57,0.02,-0.02,-0.01,26.61
54193183,1743,1,206079,256176,1.09,-0.33,9.62,0.04,-0.07,-0.01,26.61
54233180,1722,1,205819,256161,1.02,-0.41,9.01,0.02,-0.08,-0.01,26.61
54273183,1729,1,206465,256882,1.09,0.11,10.23,0.01,-0.03,-0.01,26.61
54313171,1730,1,206271,256803,1.01,0.46,8.53,0.04,-0.07,-0.00,26.61
54353171,1744,1,206578,257786,1.21,-0.21,11.08,-0.01,-0.02,-0.01,26.61
54393200,1743,1,206297,257190,0.73,-0.18,9.12,0.03,-0.07,-0.00,26.61
54433182,1722,1,206354,258189,1.27,0.23,10.73,-0.01,-0.03,-0.01,26.61
54473180,1731,1,206242,257739,1.08,0.38,9.92,-0.02,-0.04,-0.00,26.61
54513183,1713,1,206307,258453,0.99,-0.61,9.76,-0.04,0.03,-0.01,26.61
54553180,1687,1,205906,257097,1.25,-0.20,9.14,-0.06,-0.00,-0.01,26.61
54593891,1690,1,205610,257476,1.31,0.29,9.82,-0.06,-0.01,-0.01,26.59
54634181,1712,1,205863,257867,1.36,-0.33,9.32,-0.08,0.02,-0.01,26.59
54674182,1740,1,206000,257577,0.95,-0.14,9.52,-0.08,0.04,-0.00,26.59
54714181,1727,1,205393,257348,1.65,-0.21,8.79,-0.11,-0.02,-0.01,26.59
54754204,1644,1,205891,257553,0.78,-0.36,10.32,-0.12,0.08,-0.01,26.59
54794181,1678,1,205370,256742,1.00,-0.51,8.80,-0.10,0.01,-0.01,26.59
54834181,1680,1,205699,256943,0.75,-0.31,10.27,-0.11,0.07,-0.01,26.59
54874181,1712,1,205374,255582,0.90,-0.69,9.95,-0.09,0.02,0.00,26.59
54914171,1726,1,205233,255997,0.47,-0.38,9.99,-0.09,0.04,0.00,26.59
54954171,1745,1,205508,255776,0.55,-0.97,9.96,-0.09,0.06,-0.00,26.59
54994181,1769,1,205010,256036,0.79,-0.49,9.13,-0.06,0.01,-0.00,26.59
55034185,1792,1,205770,256802,0.72,-0.81,10.64,-0.09,0.09,-0.00,26.59
55074181,1795,1,205438,256641,0.32,-0.67,8.72,-0.04,0.00,0.00,26.59
55114171,1808,1,205603,257007,0.66,-1.30,11.05,-0.08,0.08,0.00,26.59
55154171,1814,1,205743,256977,-0.10,-1.41,9.94,-0.06,0.06,0.00,26.59
55194182,1794,1,205517,256982,1.21,-0.82,11.19,-0.04,0.00,0.00,26.59
55234198,1808,1,205804,256760,0.36,-1.03,11.38,-0.07,0.04,0.00,26.59
55274171,1830,1,205129,256470,1.28,-0.42,9.91,-0.02,-0.04,-0.00,26.59
55314202,1854,1,205502,256790,0.91,-1.30,10.26,-0.06,-0.01,0.00,26.59
55354181,1833,1,205496,257570,0.70,-0.47,10.10,-0.02,-0.03,0.00,26.59
55394181,1781,1,205857,257365,0.70,-0.84,11.23,-0.05,-0.03,-0.00,26.59
55434225,1759,1,205770,257897,0.86,-0.65,11.11,-0.04,-0.04,-0.00,26.59
55474201,1765,1,205675,257182,0.45,-1.46,9.67,-0.07,-0.07,-0.00,26.59
55512201,1744,1,205487,257079,0.53,-0.83,10.02,-0.05,-0.02,-0.00,26.59
55552203,1744,1,205257,255524,0.40,-0.96,10.26,-0.03,-0.02,-0.00,26.59
55592200,1744,1,204820,256387,0.72,-0.63,9.64,-0.03,-0.02,0.00,26.59
55632870,1774,1,205108,254953,0.40,-1.23,10.23,-0.03,-0.01,0.00,26.59
55673180,1759,1,204505,255318,0.61,-0.23,9.55,-0.01,-0.04,-0.00,26.59
55713202,1768,1,204788,255357,0.75,-1.20,10.17,-0.04,-0.00,-0.01,26.59
55753201,1770,1,204381,255539,0.47,-0.77,8.47,0.00,-0.04,-0.01,26.59
55793181,1775,1,204807,255376,0.46,-1.38,10.09,-0.03,0.01,-0.01,26.59
55833180,1765,1,204632,255800,0.52,-0.33,9.71,0.00,-0.00,-0.00,26.59
55872182,1807,1,204838,255983,0.99,-1.15,10.19,-0.03,-0.02,-0.01,26.59
55912201,1813,1,205081,256776,0.29,-1.32,9.84,-0.02,0.04,-0.01,26.59
55952182,1806,1,204849,256836,1.52,-0.30,9.41,-0.02,-0.07,-0.02,26.59
55992200,1785,1,205147,257669,0.40,-0.66,10.65,-0.03,0.04,-0.01,26.59
56032182,1783,1,204572,257017,0.88,-0.93,8.61,-0.02,-0.05,-0.02,26.59
56072200,1749,1,204476,256785,0.49,-0.83,10.77,-0.07,0.03,-0.02,26.59
56112182,1719,1,203655,255297,0.83,-0.62,8.90,-0.06,-0.06,-0.02,26.59
56152200,1697,1,203112,254562,0.65,-0.50,10.40,-0.08,0.02,-0.02,26.59
56192182,1678,1,202533,253079,0.62,-0.64,9.31,-0.07,-0.01,-0.02,26.59
56232200,1664,1,201978,252415,0.22,-0.77,9.14,-0.07,0.03,-0.02,26.59
56272182,1643,1,202524,253044,0.37,-1.30,10.45,-0.07,0.03,-0.02,26.59
56312180,1667,1,202085,252158,0.55,-0.64,9.42,-0.04,-0.03,-0.01,26.59
56352204,1663,1,202663,254064,0.21,-1.18,10.47,-0.08,0.03,-0.02,26.59
56392180,1683,1,203118,254656,0.48,-0.89,9.33,-0.03,-0.02,-0.02,26.59
56432204,1713,1,203196,254496,0.64,-0.75,9.98,-0.05,-0.02,-0.02,26.59
56472200,1707,1,203391,255316,0.55,-0.97,10.29,-0.04,-0.00,-0.02,26.59
56512203,1727,1,203205,254159,0.50,-0.62,9.58,-0.03,-0.04,-0.02,26.59
56552200,1744,1,203100,255383,-0.04,-1.28,9.64,-0.06,0.03,-0.01,26.59
56592204,1765,1,203349,254157,0.37,-0.82,9.81,-0.04,-0.00,-0.02,26.59
56632888,1748,1,202953,254619,0.43,-0.73,10.30,-0.05,0.01,-0.01,26.61
56673197,1715,1,203051,253671,-0.01,-1.36,9.24,-0.05,0.02,-0.02,26.61
56713201,1698,1,202474,253832,0.93,-0.62,9.80,-0.03,-0.03,-0.01,26.61
56753202,1716,1,203113,254381,0.27,-1.38,9.64,-0.04,0.01,-0.01,26.61
56793181,1742,1,202451,253076,0.60,-0.68,8.64,-0.02,-0.01,-0.01,26.61
56833201,1788,1,202911,254635,0.30,-1.86,9.71,-0.06,0.04,-0.02,26.61
56874181,1781,1,202782,253093,0.78,-0.39,8.21,-0.01,-0.03,-0.02,26.61
56912204,1744,1,203094,254430,0.42,-0.91,10.27,-0.05,0.05,-0.02,26.61
56952180,1773,1,203158,253745,0.55,-0.59,9.22,-0.00,-0.01,-0.02,26.61
56992204,1791,1,202929,254062,0.35,-1.44,9.79,-0.03,0.04,-0.02,26.61
57032180,1774,1,202984,254196,0.33,-1.68,8.74,-0.04,0.05,-0.02,26.61
57072198,1749,1,203079,254562,0.15,-1.13,10.64,-0.05,0.06,-0.02,26.61
57112184,1776,1,202892,254088,0.23,-1.07,10.06,-0.04,0.04,-0.02,26.61
57152183,1763,1,202759,254205,0.29,-1.23,11.33,-0.06,-0.01,-0.02,26.61
57192205,1790,1,202232,252614,0.23,-1.00,9.96,-0.04,-0.01,-0.02,26.61
57232202,1776,1,202171,252588,-0.04,-1.70,10.73,-0.09,0.01,-0.02,26.61
57272201,1757,1,201554,250736,0.69,-0.56,9.43,-0.06,-0.05,-0.02,26.61
57312204,1692,1,201371,251524,-0.06,-1.54,9.95,-0.11,0.04,-0.02,26.61
57352201,1711,1,201354,249537,-0.16,-1.07,8.34,-0.08,0.01,-0.02,26.61
57392202,1685,1,200685,249972,0.56,-1.44,10.73,-0.11,0.02,-0.02,26.61
57432180,1734,1,200714,247314,-0.21,-1.66,9.06,-0.08,0.04,-0.02,26.61
57472202,1719,1,198843,245436,0.65,-0.81,9.94,-0.07,-0.05,-0.02,26.61
57512202,1759,1,199983,248277,-0.02,-1.66,9.73,-0.09,0.08,-0.02,26.61
57552204,1799,1,199955,247107,0.51,-1.08,9.11,-0.05,-0.05,-0.02,26.61
57592201,1813,1,200359,248490,0.56,-1.63,10.76,-0.11,0.03,-0.02,26.61
57632183,1808,1,200128,247225,0.17,-1.15,9.11,-0.04,-0.03,-0.02,26.61
57672888,1778,1,199776,248370,0.34,-1.50,10.35,-0.08,0.04,-0.02,26.67
57711183,1798,1,199995,247927,-0.04,-0.73,9.57,-0.05,0.03,-0.02,26.67
57751203,1805,1,199403,248020,0.27,-1.43,10.15,-0.07,-0.01,-0.02,26.67
57791205,1799,1,199901,248716,-0.33,-1.92,10.13,-0.06,0.04,-0.01,26.67
57831205,1783,1,199572,248095,0.64,-1.19,9.70,-0.05,-0.06,-0.02,26.67
57871204,1787,1,200368,249980,-0.50,-1.65,10.47,-0.09,0.06,-0.01,26.67
57912205,1803,1,200139,248543,0.33,-0.83,9.45,-0.03,-0.05,-0.02,26.67
57952202,1726,1,200102,249490,-0.04,-1.74,10.24,-0.08,0.02,-0.02,26.67
57992201,1722,1,200212,248776,0.03,-1.14,9.14,-0.04,0.01,-0.02,26.67
58032183,1699,1,200062,249003,0.02,-1.51,10.52,-0.07,0.03,-0.01,26.67
58072183,1707,1,199953,248521,0.29,-1.22,9.71,-0.03,-0.01,-0.01,26.67
58112205,1709,1,199790,248408,-0.23,-1.58,9.51,-0.05,0.02,-0.01,26.67
58152205,1698,1,199900,249018,0.20,-1.67,9.48,-0.05,0.00,-0.02,26.67
58192183,1712,1,200098,248878,-0.08,-1.71,9.79,-0.07,0.00,-0.02,26.67
58232203,1727,1,200472,250092,-0.14,-1.26,10.49,-0.03,0.02,-0.02,26.67
58272205,1734,1,201032,251231,-0.33,-1.20,11.00,-0.03,0.01,-0.01,26.67
58312203,1733,1,200907,250605,0.24,-1.18,10.10,-0.04,-0.02,-0.02,26.67
58352205,1756,1,200901,251500,-0.26,-1.76,10.66,-0.05,0.01,-0.02,26.67
58392205,1755,1,200848,249576,0.18,-1.08,9.86,-0.05,-0.06,-0.02,26.67
58432202,1746,1,200356,250179,-0.67,-1.87,9.98,-0.07,0.02,-0.01,26.67
58470202,1779,1,200647,249125,-0.03,-1.69,10.08,-0.03,-0.02,-0.02,26.67
58510222,1778,1,199924,248965,0.09,-1.11,9.95,-0.04,-0.03,-0.01,26.67
58550204,1775,1,200710,249731,-0.31,-2.14,9.96,-0.05,0.02,-0.02,26.67
58590204,1753,1,200226,248971,0.40,-0.67,9.73,-0.00,-0.07,-0.01,26.67
58630202,1750,1,200947,250695,-0.41,-2.32,10.82,-0.04,0.04,-0.01,26.67
58670204,1765,1,200291,248821,1.01,-1.00,8.79,0.01,-0.15,-0.02,26.67
58710893,1738,1,200564,250632,-0.26,-1.78,11.70,-0.07,0.04,-0.01,26.61
58751204,1726,1,200045,247578,-0.07,-0.76,8.13,0.03,-0.02,-0.02,26.61
58791202,1742,1,199894,249992,0.13,-1.54,12.00,-0.04,0.03,-0.02,26.61
58831183,1791,1,200780,249598,-0.19,-0.99,9.28,0.00,0.00,-0.01,26.61
58871182,1787,1,200217,249940,0.46,-0.85,10.86,-0.02,-0.05,-0.01,26.61
58911204,1792,1,201118,251395,-0.60,-2.23,10.38,-0.04,0.06,-0.01,26.61
58950200,1789,1,200649,250262,0.09,-1.07,9.78,-0.00,-0.06,-0.01,26.61
58990203,1772,1,200897,251232,-0.33,-1.55,10.35,-0.05,0.03,-0.01,26.61
59030201,1771,1,200538,250032,0.44,-0.88,9.62,0.01,-0.09,-0.01,26.61
59070182,1745,1,200510,250175,-0.02,-1.22,10.19,-0.05,0.03,-0.01,26.61
59110200,1751,1,200514,249938,-0.20,-1.20,8.91,-0.03,0.00,-0.01,26.61
59150204,1736,1,200805,250935,0.49,-0.85,10.37,-0.03,0.01,-0.01,26.61
59190180,1712,1,201211,251244,0.12,-1.24,10.01,-0.03,0.02,-0.01,26.61
59230183,1709,1,201399,252126,0.28,-1.12,9.97,-0.02,0.01,-0.01,26.61
59270180,1715,1,201972,253359,0.36,-1.46,10.28,-0.02,-0.01,-0.01,26.61
59310203,1719,1,202304,253082,0.14,-1.35,9.57,-0.03,-0.00,-0.01,26.61
59350200,1712,1,201940,252239,-0.01,-1.17,10.45,-0.04,0.03,-0.01,26.61
59390204,1744,1,201986,252560,0.15,-0.98,10.28,-0.03,0.00,-0.01,26.61
59430180,1745,1,201799,252599,0.01,-1.40,10.30,-0.04,0.02,-0.01,26.61
59470183,1743,1,202188,253542,-0.03,-1.83,10.65,-0.05,0.01,-0.01,26.61
59510201,1738,1,202121,251835,-0.10,-0.94,10.45,-0.04,-0.01,-0.01,26.61
59550218,1699,1,201517,252572,0.06,-1.59,10.68,-0.06,-0.01,-0.00,26.61
59590200,1735,1,201524,251197,0.01,-1.42,9.36,-0.04,-0.03,-0.01,26.61
59630204,1712,1,201063,251011,0.16,-1.16,9.77,-0.05,0.01,-0.00,26.61
59670180,1741,1,201096,250941,0.04,-1.67,9.33,-0.05,0.00,-0.01,26.61
59710183,1729,1,201253,251059,0.10,-0.58,9.94,-0.03,0.01,-0.01,26.61
59750867,1739,1,201375,252313,0.26,-1.45,9.76,-0.06,0.01,-0.01,26.59
59791181,1779,1,201908,253046,0.11,-0.91,10.25,-0.04,0.01,-0.01,26.59
59831181,1759,1,202281,254398,0.60,-1.71,10.65,-0.06,-0.02,-0.01,26.59
59871204,1743,1,202822,254414,-0.01,-1.11,11.06,-0.01,-0.02,-0.00,26.59
59909217,1719,1,202701,254657,0.12,-1.51,11.49,-0.03,-0.02,-0.00,26.59
59949207,1744,1,202744,253696,-0.40,-1.35,10.96,-0.04,-0.01,-0.00,26.59
59989217,1776,1,201138,249472,0.16,-0.92,10.34,-0.06,-0.03,-0.01,26.59
60029203,1744,1,200390,248164,-0.11,-1.37,10.58,-0.06,0.01,0.00,26.59
60069180,1760,1,199868,246698,0.44,-0.95,9.25,-0.04,-0.07,-0.00,26.59
60109203,1754,1,200058,248102,-0.06,-2.00,9.42,-0.07,0.01,0.00,26.59
60149218,1726,1,199782,246779,0.28,-0.85,7.77,-0.04,-0.07,-0.00,26.59
60189204,1721,1,200082,249153,0.46,-1.42,10.15,-0.08,0.01,-0.01,26.59
60229180,1755,1,200658,249664,0.25,-1.32,8.93,-0.03,-0.02,-0.01,26.59
60269204,1758,1,200758,249548,0.69,-0.91,8.86,-0.05,-0.01,-0.01,26.59
60309200,1750,1,200869,250678,0.73,-1.34,9.38,-0.04,0.01,-0.00,26.59
60349205,1783,1,201233,250451,0.22,-1.33,8.39,-0.05,0.04,-0.00,26.59
60389180,1763,1,201204,251751,0.54,-1.12,10.03,-0.05,0.06,-0.00,26.59
60429183,1808,1,201465,251990,0.29,-1.22,8.82,-0.04,0.05,-0.01,26.59
60469180,1771,1,201512,252749,0.32,-0.83,9.94,-0.04,0.04,-0.00,26.59
60509183,1749,1,201931,253703,0.02,-1.07,10.01,-0.03,0.05,-0.00,26.59
60549180,1758,1,201891,254119,0.42,-0.76,10.31,-0.04,0.01,-0.00,26.59
60589183,1754,1,202452,254853,0.17,-1.48,10.53,-0.05,0.04,-0.00,26.59
60629180,1748,1,202283,253849,0.49,-0.79,10.59,-0.05,-0.03,-0.01,26.59
60669204,1746,1,202062,253469,0.20,-1.21,10.91,-0.06,0.01,-0.00,26.59
60709180,1762,1,201518,251959,0.66,-0.81,10.47,-0.06,-0.06,-0.00,26.59
60749204,1779,1,201115,251392,0.45,-1.20,10.42,-0.07,0.00,-0.00,26.59
60789867,1750,1,200895,250865,0.58,-1.04,9.27,-0.08,-0.02,-0.00,26.49
60830202,1731,1,200614,250642,0.78,-0.36,10.06,-0.05,-0.02,-0.00,26.49
60870201,1752,1,201118,251852,0.49,-0.97,9.93,-0.06,0.01,0.00,26.49
60910171,1740,1,200898,251091,0.81,-0.77,8.80,-0.05,-0.03,0.00,26.49
60950181,1727,1,201215,252136,0.68,-1.11,10.01,-0.08,0.01,-0.00,26.49
60990180,1734,1,200992,250077,0.79,-0.42,8.58,-0.03,-0.05,-0.00,26.49
61030201,1715,1,201107,250893,0.52,-0.74,10.53,-0.06,0.04,0.00,26.49
61070170,1764,1,201144,250454,0.66,-0.78,9.11,-0.01,-0.03,0.00,26.49
61110181,1744,1,201022,250914,0.82,-0.46,9.20,-0.03,0.01,0.01,26.49
61150171,1741,1,201259,251273,0.49,-1.14,8.78,-0.02,-0.01,0.00,26.49
61190181,1715,1,201449,251793,0.94,-0.25,9.47,-0.02,-0.01,0.00,26.49
61230181,1731,1,201898,253282,0.35,-1.22,9.25,-0.02,0.03,0.01,26.49
61268171,1751,1,202000,252145,0.73,-0.36,8.83,-0.01,-0.04,0.00,26.49
61308182,1759,1,201875,251966,0.53,-0.90,10.27,-0.03,0.04,0.01,26.49
61348171,1732,1,201487,250858,0.69,-0.65,9.20,-0.01,-0.01,0.01,26.49
61388182,1734,1,202132,253358,0.60,-0.57,10.83,-0.02,0.06,0.01,26.49
61428171,1713,1,202376,252845,0.87,-1.02,8.92,0.01,-0.03,0.01,26.49
61468171,1703,1,202417,253741,0.06,-1.01,9.99,-0.01,0.02,0.01,26.49
61508171,1714,1,203001,254706,0.56,-1.21,10.34,-0.01,0.00,0.01,26.49
61548171,1745,1,203092,255170,0.53,-0.07,10.27,-0.01,0.01,0.01,26.49
61588177,1728,1,203497,255545,0.38,-1.20,10.74,-0.03,0.02,0.01,26.49
61628171,1776,1,202977,254774,0.82,-0.15,9.41,0.00,-0.06,0.00,26.49
61668171,1770,1,202735,254833,0.34,-0.85,10.17,-0.03,-0.00,0.01,26.49
