timestamp_us,ecg,leads,ir,red,accX,accY,accZ,gyroX,gyroY,gyroZ,temp
2418489,1879,1,189381,230890,0.00,0.00,0.00,0.00,0.00,0.00,0.00
2448960,1863,1,188936,228251,0.38,-0.73,9.70,-0.03,-0.01,-0.01,31.77
2489201,1886,1,187638,225134,0.40,-0.74,9.95,-0.03,-0.01,-0.01,31.77
2529212,1872,1,187177,225120,0.39,-0.76,9.96,-0.03,-0.01,-0.01,31.77
2569191,1887,1,187160,225302,0.39,-0.77,9.97,-0.03,-0.01,-0.01,31.77
2609188,1902,1,187138,225224,0.40,-0.75,9.96,-0.03,-0.01,-0.01,31.77
2649190,1915,1,187198,225976,0.40,-0.74,9.95,-0.03,-0.01,-0.01,31.77
2689188,1912,1,187699,227203,0.39,-0.75,9.96,-0.03,-0.01,-0.00,31.77
2729190,1917,1,187986,227607,0.38,-0.76,9.97,-0.03,-0.01,-0.01,31.77
2769189,1920,1,188154,228249,0.40,-0.76,9.94,-0.03,-0.01,-0.00,31.77
2809189,1933,1,188252,228770,0.39,-0.76,9.97,-0.03,-0.01,-0.01,31.77
2849189,1920,1,188241,228504,0.39,-0.75,9.96,-0.03,-0.01,-0.01,31.77
2889190,1925,1,187915,227828,0.38,-0.75,9.96,-0.03,-0.01,-0.01,31.77
2929188,1930,1,187733,227794,0.40,-0.75,9.96,-0.03,-0.01,-0.01,31.77
2969190,1910,1,187830,228025,0.39,-0.75,9.96,-0.03,-0.01,-0.00,31.77
3009189,1927,1,187837,228366,0.38,-0.75,9.94,-0.03,-0.01,-0.00,31.77
3049216,1916,1,188078,228604,0.39,-0.77,9.95,-0.03,-0.02,-0.00,31.77
3089192,1936,1,188267,228567,0.40,-0.74,9.95,-0.03,-0.02,-0.00,31.77
3129195,1929,1,188324,227788,0.38,-0.77,9.96,-0.03,-0.04,-0.00,31.77
3168193,1953,1,187888,224769,0.43,-0.75,9.87,-0.03,-0.04,-0.00,31.77
3208195,1947,1,187474,224814,0.43,-0.75,9.94,-0.04,-0.01,-0.01,31.77
3248191,1941,1,187899,225556,0.42,-0.74,9.95,-0.03,-0.01,-0.01,31.77
3288195,1948,1,188091,225876,0.43,-0.77,9.96,-0.03,-0.01,-0.00,31.77
3328191,1951,1,188092,226141,0.42,-0.76,9.96,-0.03,-0.00,-0.01,31.77
3368194,1958,1,188237,227392,0.43,-0.75,9.95,-0.03,-0.00,-0.01,31.77
3408191,1958,1,188708,228075,0.41,-0.74,9.97,-0.03,0.01,-0.01,31.77
3448174,1954,1,188613,227889,0.41,-0.74,9.96,-0.03,-0.00,-0.00,31.77
3488878,1911,1,188390,228183,0.41,-0.75,9.96,-0.04,0.00,-0.00,32.09
3529173,1923,1,188630,228837,0.39,-0.75,9.95,-0.03,-0.01,-0.00,32.09
3569189,1925,1,188870,229646,0.37,-0.74,9.95,-0.03,-0.00,-0.01,32.09
3609191,1918,1,188978,229823,0.39,-0.74,9.96,-0.03,-0.01,-0.01,32.09
3649189,1915,1,188985,229822,0.40,-0.74,9.96,-0.03,-0.01,-0.00,32.09
3689191,1926,1,188971,229722,0.40,-0.76,9.96,-0.03,-0.01,-0.01,32.09
3729190,1923,1,188929,229594,0.40,-0.75,9.97,-0.03,-0.01,-0.01,32.09
3769198,1919,1,188994,230509,0.43,-0.74,9.91,-0.03,-0.01,-0.01,32.09
3809189,1911,1,189507,231493,0.41,-0.74,9.96,-0.04,0.00,-0.01,32.09
3849172,1914,1,189348,229536,0.37,-0.76,9.97,-0.04,0.00,-0.01,32.09
3889173,1910,1,188407,227456,0.42,-0.75,9.96,-0.03,-0.03,-0.00,32.09
3929191,1914,1,188066,227159,0.42,-0.75,9.98,-0.03,-0.01,-0.00,32.09
3969190,1904,1,188083,226910,0.37,-0.75,9.94,-0.03,-0.01,-0.00,32.09
4009191,1902,1,187793,226312,0.41,-0.77,9.95,-0.03,-0.02,-0.00,32.09
4049189,1890,1,187915,227496,0.43,-0.76,9.94,-0.03,-0.01,-0.01,32.09
4089191,1902,1,188484,228638,0.40,-0.77,9.95,-0.03,-0.01,-0.00,32.09
4129189,1904,1,188644,229073,0.36,-0.73,9.93,-0.03,-0.01,-0.01,32.09
4169190,1896,1,188746,229346,0.40,-0.74,9.99,-0.03,-0.01,-0.01,32.09
4209188,1904,1,188969,229902,0.42,-0.78,9.94,-0.03,-0.01,-0.01,32.09
4249190,1898,1,189024,230149,0.40,-0.74,9.98,-0.03,-0.01,-0.01,32.09
4289188,1903,1,189231,230553,0.38,-0.73,9.94,-0.03,-0.01,-0.01,32.09
4329190,1887,1,189326,230981,0.39,-0.75,9.93,-0.03,-0.01,-0.01,32.09
4369189,1903,1,189552,231540,0.42,-0.75,9.97,-0.03,-0.01,-0.01,32.09
4409190,1895,1,189601,231748,0.40,-0.75,9.95,-0.03,-0.01,-0.01,32.09
4449189,1904,1,189741,232186,0.41,-0.75,9.96,-0.04,-0.00,-0.01,32.09
4489876,1895,1,189695,232086,0.40,-0.76,9.98,-0.03,-0.01,-0.00,31.83
4528188,1920,1,189408,229893,0.39,-0.76,9.94,-0.03,-0.01,-0.01,31.83
4568190,1914,1,188276,227209,0.37,-0.74,9.96,-0.03,-0.01,-0.00,31.83
4608188,1919,1,187750,226503,0.41,-0.75,9.97,-0.03,-0.01,-0.00,31.83
4648190,1920,1,187653,226288,0.39,-0.77,9.98,-0.03,-0.01,-0.00,31.83
4688188,1916,1,187759,226784,0.41,-0.76,9.94,-0.03,-0.01,-0.00,31.83
4728190,1925,1,188073,228196,0.39,-0.74,9.99,-0.03,-0.01,-0.00,31.83
4768188,1923,1,188489,229040,0.40,-0.74,9.92,-0.03,-0.01,-0.01,31.83
4808190,1934,1,188486,228718,0.40,-0.75,9.96,-0.04,-0.01,-0.01,31.83
4848188,1922,1,188403,228525,0.39,-0.75,9.97,-0.03,-0.02,-0.00,31.83
4888190,1922,1,188432,229024,0.41,-0.74,9.94,-0.03,-0.01,-0.00,31.83
4928188,1923,1,188849,230012,0.40,-0.75,9.96,-0.03,-0.01,-0.00,31.83
4968190,1920,1,188986,230285,0.39,-0.76,9.95,-0.03,-0.01,-0.01,31.83
5008188,1921,1,189055,230396,0.41,-0.76,9.94,-0.03,-0.02,-0.00,31.83
5049189,1904,1,189124,230654,0.40,-0.74,9.96,-0.03,-0.01,-0.01,31.83
5089188,1904,1,189161,230898,0.42,-0.74,9.95,-0.03,-0.01,-0.01,31.83
5129190,1904,1,189304,231117,0.39,-0.76,9.94,-0.03,-0.01,-0.01,31.83
5169189,1902,1,189278,229871,0.40,-0.76,9.95,-0.03,-0.01,-0.01,31.83
5208189,1911,1,188147,226012,0.38,-0.75,9.95,-0.03,-0.01,-0.01,31.83
5248188,1918,1,187223,225071,0.40,-0.74,9.95,-0.03,-0.01,-0.01,31.83
5288190,1919,1,187236,225316,0.38,-0.76,9.96,-0.03,-0.01,-0.00,31.83
5328188,1923,1,187121,225187,0.39,-0.75,9.97,-0.03,-0.02,-0.01,31.83
5368191,1921,1,187126,225690,0.40,-0.75,9.94,-0.03,-0.01,-0.01,31.83
5408188,1919,1,187629,227612,0.39,-0.75,9.93,-0.03,-0.01,-0.01,31.83
5448190,1919,1,188311,228992,0.38,-0.75,9.97,-0.03,-0.01,-0.01,31.83
5488188,1920,1,188556,229408,0.40,-0.78,9.98,-0.03,-0.01,-0.01,31.83
5528880,1886,1,188541,229596,0.40,-0.75,9.95,-0.03,-0.01,-0.01,31.47
5569189,1904,1,188441,229627,0.39,-0.75,9.93,-0.03,0.00,-0.01,31.47
5609190,1901,1,188303,229458,0.37,-0.76,9.99,-0.03,0.01,-0.01,31.47
5649172,1895,1,188124,229090,0.37,-0.75,9.94,-0.03,-0.01,-0.01,31.47
5689190,1910,1,188077,229222,0.40,-0.75,9.94,-0.03,-0.01,-0.01,31.47
5729188,1904,1,188199,229672,0.39,-0.76,9.93,-0.03,-0.01,-0.01,31.47
5769190,1914,1,188217,229840,0.39,-0.74,9.96,-0.03,-0.01,-0.01,31.47
5809226,1918,1,188266,229636,0.38,-0.75,9.96,-0.03,-0.01,-0.01,31.47
5849190,1926,1,187648,226469,0.38,-0.76,9.95,-0.03,-0.01,-0.01,31.47
5889188,1942,1,186585,224685,0.37,-0.75,9.96,-0.03,-0.01,-0.01,31.47
5929190,1947,1,186283,225034,0.38,-0.78,9.95,-0.03,-0.01,-0.01,31.47
5969188,1943,1,186560,226031,0.42,-0.75,9.93,-0.03,-0.01,-0.01,31.47
6009190,1958,1,187009,227464,0.38,-0.77,9.95,-0.04,-0.00,-0.01,31.47
6049188,1968,1,187299,228440,0.37,-0.76,9.96,-0.03,-0.01,-0.01,31.47
6089202,1968,1,187463,228502,0.38,-0.75,9.95,-0.03,-0.01,-0.01,31.47
6129189,1981,1,187327,227996,0.39,-0.76,9.95,-0.03,-0.02,-0.00,31.47
6169190,1983,1,187185,227924,0.36,-0.76,9.95,-0.03,-0.01,-0.01,31.47
6209188,1985,1,187264,228253,0.36,-0.76,9.96,-0.03,-0.01,-0.01,31.47
6248190,2004,1,187298,228647,0.40,-0.75,9.96,-0.03,-0.01,-0.00,31.47
6288188,1998,1,187408,229022,0.40,-0.74,9.97,-0.03,-0.01,-0.01,31.47
6328190,2002,1,187542,229344,0.38,-0.76,9.95,-0.03,-0.01,-0.00,31.47
6368188,1994,1,187709,229683,0.39,-0.77,9.91,-0.03,-0.02,-0.00,31.47
6408190,1989,1,187900,229769,0.39,-0.76,9.96,-0.03,-0.02,-0.00,31.47
6448188,1986,1,187685,227975,0.37,-0.76,9.99,-0.03,-0.03,-0.00,31.47
6488190,1968,1,186405,222273,0.38,-0.75,9.96,-0.03,-0.03,-0.00,31.47
6528874,1924,1,185359,220866,0.41,-0.74,9.99,-0.03,-0.02,-0.00,31.29
6569190,1934,1,185260,220758,0.44,-0.74,9.93,-0.03,-0.01,-0.01,31.29
6609188,1925,1,185252,220890,0.39,-0.75,9.99,-0.04,-0.01,-0.01,31.29
6649190,1915,1,185392,221468,0.42,-0.75,9.96,-0.04,-0.01,-0.01,31.29
6689188,1906,1,185725,223007,0.38,-0.72,9.94,-0.03,-0.01,-0.01,31.29
6729190,1904,1,186283,223967,0.39,-0.74,9.92,-0.03,-0.01,-0.01,31.29
6769189,1898,1,186553,224517,0.40,-0.79,9.97,-0.03,-0.01,-0.00,31.29
6809189,1892,1,186651,225266,0.41,-0.75,9.95,-0.03,-0.01,-0.01,31.29
6849189,1885,1,187020,226733,0.39,-0.77,9.97,-0.04,0.00,-0.01,31.29
6889172,1874,1,187440,227931,0.39,-0.75,9.97,-0.04,-0.01,-0.01,31.29
6929188,1883,1,187570,228640,0.40,-0.74,9.96,-0.03,-0.01,-0.01,31.29
6969189,1872,1,187887,229170,0.40,-0.76,9.95,-0.04,-0.00,-0.01,31.29
7009188,1866,1,187916,229341,0.39,-0.78,9.95,-0.03,-0.01,-0.01,31.29
7049190,1870,1,188102,229896,0.39,-0.74,9.97,-0.03,-0.01,-0.00,31.29
7089188,1869,1,188099,228675,0.38,-0.76,9.96,-0.03,-0.01,-0.00,31.29
7129190,1872,1,186911,224874,0.38,-0.76,9.97,-0.03,-0.01,-0.01,31.29
7169189,1871,1,186167,224045,0.39,-0.76,9.96,-0.03,-0.01,-0.01,31.29
7209189,1866,1,186138,224105,0.38,-0.77,9.95,-0.03,-0.01,-0.00,31.29
7249199,1866,1,186114,223985,0.40,-0.77,9.95,-0.03,-0.01,-0.01,31.29
7289190,1875,1,186161,224585,0.40,-0.78,9.96,-0.03,-0.01,-0.00,31.29
7329188,1867,1,186642,226265,0.40,-0.75,9.95,-0.03,-0.01,-0.01,31.29
7369190,1868,1,186917,226958,0.39,-0.74,9.93,-0.03,-0.01,-0.00,31.29
7409188,1863,1,187012,226894,0.40,-0.74,9.95,-0.03,-0.01,-0.00,31.29
7449228,1875,1,187013,226973,0.40,-0.76,9.98,-0.03,-0.01,-0.00,31.29
7489188,1874,1,187153,227445,0.40,-0.75,9.96,-0.03,-0.01,-0.01,31.29
7529876,1863,1,187400,228140,0.40,-0.75,9.96,-0.03,-0.01,-0.01,31.11
7568188,1904,1,187476,228581,0.39,-0.76,9.96,-0.03,-0.01,-0.01,31.11
7608190,1903,1,187551,228701,0.40,-0.76,9.96,-0.03,-0.01,-0.00,31.11
7648188,1903,1,187764,229254,0.40,-0.74,9.94,-0.03,-0.01,-0.01,31.11
7688190,1896,1,187829,229703,0.39,-0.76,9.97,-0.03,-0.01,-0.01,31.11
7728189,1891,1,187824,228186,0.39,-0.76,9.95,-0.03,-0.01,-0.00,31.11
7768190,1895,1,186757,224808,0.39,-0.76,9.96,-0.03,-0.01,-0.01,31.11
7808188,1891,1,186237,224654,0.40,-0.78,9.94,-0.03,-0.01,-0.00,31.11
7848189,1899,1,186270,225033,0.39,-0.74,9.97,-0.03,-0.01,-0.01,31.11
7888189,1903,1,186457,225449,0.38,-0.75,9.96,-0.03,-0.01,-0.01,31.11
7928190,1904,1,186610,226386,0.39,-0.75,9.95,-0.03,-0.01,-0.01,31.11
7968188,1904,1,186959,227700,0.38,-0.74,9.97,-0.03,-0.01,-0.01,31.11
8008190,1919,1,187251,228151,0.37,-0.75,9.95,-0.03,-0.01,-0.01,31.11
8048188,1915,1,187309,228294,0.39,-0.75,9.97,-0.03,-0.01,-0.01,31.11
8088191,1917,1,187426,228496,0.39,-0.76,9.98,-0.03,-0.01,-0.01,31.11
8128188,1918,1,187436,228864,0.39,-0.77,9.93,-0.03,-0.01,-0.00,31.11
8168190,1923,1,187497,229015,0.38,-0.74,9.95,-0.03,-0.01,-0.01,31.11
8208188,1911,1,187639,229222,0.38,-0.76,9.95,-0.03,-0.01,-0.00,31.11
8248189,1920,1,187658,229396,0.37,-0.76,9.96,-0.03,-0.01,-0.01,31.11
8288189,1923,1,187751,229566,0.41,-0.75,9.96,-0.03,-0.01,-0.01,31.11
8328190,1920,1,187849,229742,0.37,-0.74,9.95,-0.03,-0.01,-0.00,31.11
8368188,1917,1,187771,228791,0.38,-0.77,9.94,-0.03,-0.01,-0.01,31.11
8408190,1915,1,186937,224822,0.40,-0.76,9.95,-0.03,-0.01,-0.01,31.11
8448188,1924,1,185923,223574,0.41,-0.74,9.98,-0.03,-0.01,-0.01,31.11
8488190,1926,1,185980,224053,0.35,-0.75,9.98,-0.03,-0.01,-0.01,31.11
8528188,1931,1,185983,224389,0.39,-0.75,9.96,-0.03,-0.01,-0.00,31.11
8568877,1907,1,186108,224936,0.40,-0.78,9.94,-0.03,-0.01,-0.01,30.79
8609188,1915,1,186546,226409,0.40,-0.76,9.96,-0.03,-0.01,-0.01,30.79
8649190,1911,1,186858,227076,0.39,-0.75,9.95,-0.03,-0.01,-0.01,30.79
8689188,1905,1,186988,227401,0.40,-0.77,9.96,-0.03,-0.01,-0.01,30.79
8729190,1904,1,187106,227820,0.40,-0.77,9.95,-0.03,-0.01,-0.01,30.79
8769188,1903,1,187305,228328,0.39,-0.76,9.97,-0.03,-0.01,-0.01,30.79
8809190,1908,1,187372,228578,0.37,-0.76,9.94,-0.03,-0.01,-0.00,30.79
8849188,1904,1,187499,228982,0.41,-0.76,9.92,-0.03,-0.01,-0.01,30.79
8889190,1903,1,187698,229412,0.39,-0.74,9.96,-0.03,-0.01,-0.01,30.79
8929188,1910,1,187662,229640,0.40,-0.76,9.95,-0.03,-0.01,-0.01,30.79
8969190,1914,1,187811,229870,0.36,-0.75,9.96,-0.03,-0.01,-0.01,30.79
9009188,1903,1,187921,229873,0.40,-0.76,9.96,-0.03,-0.01,-0.01,30.79
9049190,1899,1,187548,227375,0.38,-0.76,9.95,-0.03,-0.01,-0.01,30.79
9089188,1900,1,186353,224696,0.39,-0.75,9.92,-0.03,-0.01,-0.01,30.79
9129190,1903,1,186131,224810,0.40,-0.77,9.96,-0.03,-0.01,-0.01,30.79
9169189,1905,1,186105,225107,0.40,-0.77,9.94,-0.03,-0.01,-0.01,30.79
9209190,1904,1,186320,225638,0.41,-0.76,9.96,-0.03,-0.01,-0.01,30.79
9249188,1902,1,186498,226864,0.38,-0.76,9.98,-0.03,-0.01,-0.00,30.79
9289190,1904,1,187001,227821,0.39,-0.76,9.96,-0.03,-0.01,-0.01,30.79
9329189,1904,1,187117,227996,0.38,-0.74,9.94,-0.03,-0.01,-0.01,30.79
9369190,1907,1,187162,228223,0.40,-0.77,9.96,-0.04,-0.01,-0.00,30.79
9409188,1904,1,187236,228583,0.38,-0.74,9.96,-0.03,-0.01,-0.01,30.79
9449190,1908,1,187439,229146,0.41,-0.75,9.95,-0.03,-0.01,-0.00,30.79
9489188,1890,1,187571,229332,0.38,-0.76,9.94,-0.03,-0.01,-0.01,30.79
9529190,1904,1,187563,229461,0.39,-0.75,9.94,-0.03,-0.01,-0.00,30.79
9569874,1903,1,187732,229749,0.40,-0.75,9.96,-0.03,-0.01,-0.00,30.99
9608189,1927,1,187776,230071,0.39,-0.76,9.95,-0.03,-0.01,-0.01,30.99
9648188,1928,1,187860,229966,0.40,-0.77,9.95,-0.03,-0.01,-0.01,30.99
9688190,1932,1,187346,227286,0.38,-0.76,9.94,-0.03,-0.01,-0.01,30.99
9728188,1930,1,186366,224952,0.39,-0.74,9.95,-0.03,-0.01,-0.01,30.99
9768190,1924,1,186112,225081,0.38,-0.76,9.94,-0.03,-0.01,-0.01,30.99
9808188,1915,1,186074,225278,0.39,-0.75,9.95,-0.03,-0.01,-0.00,30.99
9848190,1921,1,186239,225576,0.39,-0.74,9.97,-0.03,-0.01,-0.00,30.99
9888188,1927,1,186411,226621,0.38,-0.76,9.95,-0.03,-0.01,-0.01,30.99
9928190,1923,1,186797,227605,0.38,-0.74,9.97,-0.03,-0.01,-0.00,30.99
9968188,1925,1,186923,227769,0.40,-0.77,9.96,-0.03,-0.01,-0.01,30.99
10008189,1920,1,186985,227985,0.39,-0.75,9.95,-0.03,-0.01,-0.01,30.99
10048189,1920,1,187118,228382,0.39,-0.74,9.98,-0.03,-0.01,-0.01,30.99
10088191,1919,1,187170,228676,0.36,-0.76,9.98,-0.03,-0.01,-0.01,30.99
10128189,1918,1,187276,228842,0.39,-0.76,9.97,-0.03,-0.01,-0.01,30.99
10168191,1929,1,187445,229093,0.39,-0.76,9.96,-0.03,-0.01,-0.01,30.99
10208189,1920,1,187472,229419,0.38,-0.75,9.95,-0.03,-0.01,-0.01,30.99
10248194,1919,1,187675,229768,0.38,-0.76,9.94,-0.03,-0.01,-0.01,30.99
10288189,1929,1,187719,229994,0.39,-0.75,9.96,-0.03,-0.01,-0.01,30.99
10328194,1923,1,187663,228982,0.39,-0.76,9.93,-0.03,-0.01,-0.00,30.99
10368188,1920,1,186686,225299,0.40,-0.75,9.94,-0.03,-0.01,-0.01,30.99
10408190,1923,1,185874,224200,0.38,-0.76,9.95,-0.03,-0.01,-0.01,30.99
10448189,1931,1,185839,224499,0.39,-0.75,9.95,-0.03,-0.01,-0.01,30.99
10488194,1924,1,185861,224743,0.40,-0.75,9.94,-0.03,-0.01,-0.01,30.99
10528189,1931,1,185962,225257,0.37,-0.75,9.96,-0.03,-0.01,-0.01,30.99
10568191,1926,1,186403,226708,0.39,-0.76,9.97,-0.03,-0.01,-0.01,30.99
10608875,1903,1,186623,227342,0.39,-0.75,9.97,-0.03,-0.01,-0.01,30.81
10649191,1900,1,186705,227409,0.40,-0.76,9.94,-0.03,-0.01,-0.00,30.81
10689189,1900,1,186862,227712,0.38,-0.77,9.96,-0.03,-0.01,-0.01,30.81
10729231,1904,1,186987,228016,0.38,-0.76,9.99,-0.03,-0.01,-0.01,30.81
10769189,1902,1,186944,228186,0.41,-0.76,9.96,-0.03,-0.01,-0.00,30.81
10809190,1911,1,187063,228441,0.40,-0.77,9.99,-0.03,-0.01,-0.01,30.81
10849188,1888,1,187120,228769,0.38,-0.74,9.96,-0.03,-0.01,-0.00,30.81
10889190,1904,1,187362,229243,0.39,-0.77,9.94,-0.03,-0.01,-0.01,30.81
10929230,1895,1,187430,229444,0.39,-0.74,9.96,-0.03,-0.01,-0.00,30.81
10969190,1908,1,187433,229591,0.39,-0.75,9.96,-0.03,-0.01,-0.01,30.81
11009189,1904,1,187595,229361,0.39,-0.76,9.94,-0.03,-0.01,-0.00,30.81
11049190,1905,1,186949,225993,0.41,-0.76,9.96,-0.03,-0.01,-0.01,30.81
11089189,1895,1,185836,224055,0.39,-0.76,9.95,-0.03,-0.01,-0.00,30.81
11129190,1904,1,185751,224370,0.41,-0.74,9.95,-0.03,-0.01,-0.01,30.81
11169189,1898,1,185859,224643,0.40,-0.76,9.96,-0.03,-0.01,-0.01,30.81
11209190,1897,1,185796,224740,0.39,-0.74,9.97,-0.03,-0.01,-0.00,30.81
11249189,1904,1,185931,225481,0.40,-0.76,9.95,-0.03,-0.01,-0.00,30.81
11289190,1907,1,186337,226605,0.39,-0.75,9.95,-0.03,-0.01,-0.01,30.81
11329189,1902,1,186677,227389,0.37,-0.76,9.95,-0.03,-0.01,-0.01,30.81
11369190,1907,1,186808,227794,0.40,-0.77,9.96,-0.03,-0.01,-0.00,30.81
11409188,1901,1,186850,227865,0.38,-0.76,9.98,-0.03,-0.01,-0.01,30.81
11449191,1904,1,186856,228001,0.41,-0.73,9.97,-0.03,-0.01,-0.00,30.81
11489189,1895,1,186966,228419,0.41,-0.76,9.94,-0.03,-0.01,-0.00,30.81
11529190,1902,1,187174,228809,0.38,-0.75,9.96,-0.03,-0.01,-0.01,30.81
11569189,1895,1,187249,229018,0.39,-0.74,9.97,-0.03,-0.01,-0.01,30.81
11609876,1895,1,187338,229171,0.39,-0.77,9.96,-0.03,-0.01,-0.01,30.81
11648188,1920,1,187342,229315,0.39,-0.76,9.92,-0.03,-0.01,-0.00,30.81
11688190,1924,1,187427,229630,0.39,-0.74,9.95,-0.03,-0.01,-0.01,30.81
11728194,1906,1,187459,228658,0.40,-0.76,9.96,-0.03,-0.01,-0.00,30.81
11768190,1908,1,186500,224865,0.41,-0.76,9.94,-0.03,-0.01,-0.00,30.81
11808189,1908,1,185695,223921,0.40,-0.76,9.95,-0.03,-0.01,-0.01,30.81
11848190,1922,1,185681,223831,0.40,-0.75,9.96,-0.03,-0.01,-0.01,30.81
11888188,1920,1,185597,223616,0.38,-0.76,9.96,-0.03,-0.01,-0.01,30.81
11928194,1926,1,185592,223798,0.39,-0.76,9.96,-0.03,-0.01,-0.00,30.81
11968189,1922,1,185825,225055,0.40,-0.77,9.94,-0.03,-0.01,-0.00,30.81
12008189,1917,1,186136,225993,0.39,-0.77,9.98,-0.03,-0.01,-0.01,30.81
12048189,1927,1,186363,226441,0.38,-0.76,9.96,-0.03,-0.01,-0.00,30.81
12088191,1923,1,186569,227202,0.39,-0.75,9.96,-0.03,-0.01,-0.01,30.81
12128189,1920,1,186755,227795,0.37,-0.75,9.97,-0.03,-0.01,-0.01,30.81
12168190,1921,1,186931,228113,0.37,-0.75,9.95,-0.03,-0.01,-0.01,30.81
12208189,1926,1,186957,228229,0.40,-0.75,9.95,-0.03,-0.01,-0.00,30.81
12248190,1930,1,187078,228450,0.40,-0.75,9.96,-0.04,-0.01,-0.01,30.81
12288188,1925,1,187176,228854,0.37,-0.78,9.93,-0.03,-0.01,-0.00,30.81
12328190,1950,1,187237,228942,0.40,-0.75,9.94,-0.03,-0.01,-0.00,30.81
12368188,1938,1,187280,229159,0.38,-0.76,9.97,-0.03,-0.01,-0.01,30.81
12408191,1948,1,187367,229249,0.38,-0.75,9.96,-0.03,-0.01,-0.01,30.81
12448189,1954,1,187347,228632,0.41,-0.78,9.96,-0.03,-0.01,-0.01,30.81
12488194,1956,1,186560,224894,0.40,-0.75,9.96,-0.03,-0.01,-0.01,30.81
12528189,1966,1,185681,223598,0.40,-0.77,9.98,-0.03,-0.01,-0.01,30.81
12568197,1955,1,185593,223528,0.41,-0.75,9.96,-0.03,-0.01,-0.01,30.81
12608189,1957,1,185520,223555,0.41,-0.75,9.93,-0.03,-0.01,-0.00,30.81
12648877,1936,1,185539,223939,0.40,-0.77,9.98,-0.03,-0.01,-0.00,30.67
12689189,1936,1,185915,225425,0.38,-0.76,9.96,-0.03,-0.01,-0.00,30.67
12729190,1931,1,186404,226616,0.39,-0.76,9.93,-0.03,-0.01,-0.00,30.67
12769212,1926,1,186596,227085,0.40,-0.76,9.95,-0.03,-0.01,-0.01,30.67
12809190,1930,1,186714,227539,0.36,-0.74,9.99,-0.03,-0.01,-0.01,30.67
12849188,1935,1,187054,229011,0.39,-0.77,9.95,-0.03,-0.01,-0.00,30.67
12889190,1926,1,187526,230008,0.39,-0.78,9.98,-0.04,-0.01,-0.01,30.67
12929189,1927,1,187818,230551,0.39,-0.77,9.94,-0.03,-0.01,-0.01,30.67
12969190,1931,1,187962,230768,0.40,-0.77,9.94,-0.03,-0.01,-0.00,30.67
13009189,1917,1,187956,230894,0.40,-0.76,9.95,-0.03,-0.01,-0.01,30.67
13049190,1917,1,188018,231133,0.39,-0.74,9.95,-0.03,-0.01,-0.00,30.67
13089189,1902,1,187985,231125,0.40,-0.74,9.99,-0.03,-0.01,-0.01,30.67
13129190,1902,1,188060,231121,0.42,-0.74,9.98,-0.03,-0.01,-0.00,30.67
13169189,1887,1,188027,231152,0.38,-0.78,9.95,-0.03,-0.01,-0.01,30.67
13209191,1889,1,187978,229817,0.39,-0.74,9.96,-0.03,-0.01,-0.00,30.67
13249189,1881,1,186942,226348,0.41,-0.75,9.97,-0.03,-0.01,-0.01,30.67
13289190,1882,1,186206,225351,0.39,-0.77,9.96,-0.03,-0.01,-0.01,30.67
13329188,1878,1,186192,225520,0.37,-0.75,9.99,-0.03,-0.01,-0.01,30.67
13369191,1879,1,186139,225549,0.39,-0.76,9.94,-0.03,-0.01,-0.00,30.67
13409189,1865,1,186259,226396,0.39,-0.76,9.96,-0.03,-0.01,-0.00,30.67
13449189,1872,1,186676,228224,0.40,-0.76,9.94,-0.03,-0.00,-0.00,30.67
13489188,1872,1,187119,229003,0.38,-0.74,9.94,-0.03,-0.01,-0.00,30.67
13529191,1867,1,187249,229190,0.37,-0.75,9.96,-0.03,-0.01,-0.00,30.67
13569189,1855,1,187192,229276,0.38,-0.75,9.98,-0.03,-0.01,-0.01,30.67
13609191,1859,1,187294,229551,0.40,-0.74,9.97,-0.03,-0.01,-0.01,30.67
13649875,1846,1,187372,229605,0.39,-0.76,9.96,-0.03,-0.01,-0.00,30.71
13688191,1886,1,187447,229947,0.38,-0.74,9.94,-0.03,-0.01,-0.00,30.71
13728189,1887,1,187702,230563,0.39,-0.76,9.97,-0.03,-0.00,-0.01,30.71
13768193,1879,1,187887,231113,0.40,-0.76,9.97,-0.03,-0.01,-0.01,30.71
13808188,1879,1,187963,231197,0.37,-0.75,9.95,-0.03,-0.01,-0.01,30.71
13848194,1888,1,188060,231252,0.39,-0.76,9.95,-0.03,-0.01,-0.00,30.71
13888189,1886,1,188039,231247,0.38,-0.76,9.99,-0.03,-0.01,-0.00,30.71
13928191,1895,1,188009,231320,0.36,-0.76,9.96,-0.03,-0.01,-0.00,30.71
13968189,1891,1,187939,229971,0.37,-0.76,9.95,-0.03,-0.01,-0.01,30.71
14008206,1875,1,186875,226641,0.39,-0.75,9.95,-0.03,-0.01,-0.00,30.71
14048189,1891,1,186230,226234,0.40,-0.75,9.92,-0.03,-0.00,-0.01,30.71
14088190,1894,1,186360,226825,0.39,-0.75,9.98,-0.03,-0.00,-0.01,30.71
14128189,1905,1,186407,226904,0.40,-0.76,9.97,-0.03,-0.01,-0.01,30.71
14168191,1899,1,186550,227366,0.37,-0.75,9.94,-0.03,-0.01,-0.00,30.71
14209189,1889,1,186728,228369,0.39,-0.74,9.93,-0.03,-0.01,-0.01,30.71
14249191,1885,1,186987,228745,0.38,-0.77,9.96,-0.03,-0.01,-0.01,30.71
14289189,1886,1,187030,228879,0.40,-0.75,9.96,-0.03,-0.01,-0.01,30.71
14329190,1882,1,187043,229182,0.38,-0.76,9.96,-0.03,-0.01,-0.01,30.71
14369189,1887,1,187106,229304,0.38,-0.76,9.96,-0.03,-0.01,-0.01,30.71
14409190,1891,1,187132,229473,0.35,-0.74,9.98,-0.03,-0.01,-0.00,30.71
14449189,1889,1,187270,229837,0.39,-0.76,9.95,-0.03,-0.01,-0.01,30.71
14489190,1899,1,187413,230108,0.38,-0.76,9.97,-0.03,-0.01,-0.00,30.71
14529189,1895,1,187546,230423,0.39,-0.74,9.97,-0.03,-0.01,-0.01,30.71
14569190,1898,1,187619,230735,0.37,-0.77,9.96,-0.03,-0.01,-0.01,30.71
14609189,1883,1,187703,230983,0.39,-0.78,9.96,-0.03,-0.01,-0.01,30.71
14649190,1890,1,187781,231198,0.40,-0.75,9.94,-0.03,-0.01,-0.01,30.71
14689875,1887,1,187767,230328,0.39,-0.77,9.96,-0.03,-0.01,-0.00,30.71
14728193,1920,1,187006,227187,0.39,-0.76,9.97,-0.03,-0.01,-0.01,30.71
14768189,1910,1,186160,225864,0.40,-0.78,9.96,-0.03,-0.01,-0.01,30.71
14808191,1920,1,186127,226197,0.36,-0.77,9.97,-0.03,-0.01,-0.00,30.71
14848189,1920,1,186276,226634,0.37,-0.74,9.95,-0.03,-0.01,-0.01,30.71
14888190,1917,1,186396,227085,0.40,-0.74,9.95,-0.03,-0.01,-0.01,30.71
14928191,1920,1,186668,228213,0.40,-0.77,9.94,-0.03,-0.01,-0.01,30.71
14968191,1920,1,186904,228764,0.39,-0.74,9.95,-0.04,-0.01,-0.01,30.71
15008189,1919,1,187052,229122,0.39,-0.75,9.97,-0.03,-0.01,-0.01,30.71
15048194,1925,1,187179,229348,0.40,-0.77,9.94,-0.03,-0.01,-0.01,30.71
15088188,1917,1,187200,229512,0.39,-0.74,9.95,-0.03,-0.01,-0.01,30.71
15128194,1934,1,187372,229727,0.39,-0.75,9.93,-0.03,-0.01,-0.01,30.71
15168189,1928,1,187485,230085,0.39,-0.76,9.94,-0.03,-0.01,-0.01,30.71
15208194,1933,1,187610,230397,0.39,-0.77,9.95,-0.03,-0.01,-0.01,30.71
15249188,1919,1,187665,230557,0.40,-0.74,9.97,-0.03,-0.01,-0.01,30.71
15289191,1906,1,187717,230732,0.40,-0.79,9.94,-0.03,-0.01,-0.00,30.71
15329189,1905,1,187822,230844,0.40,-0.74,9.94,-0.03,-0.01,-0.01,30.71
15369190,1905,1,187847,230498,0.39,-0.75,9.95,-0.03,-0.01,-0.00,30.71
15409189,1905,1,187128,227363,0.39,-0.76,9.94,-0.03,-0.01,-0.01,30.71
15449190,1906,1,186223,225736,0.38,-0.75,9.97,-0.03,-0.01,-0.00,30.71
15489189,1914,1,186121,226084,0.38,-0.75,9.96,-0.03,-0.01,-0.01,30.71
15529190,1919,1,186301,226710,0.38,-0.77,9.98,-0.03,-0.01,-0.01,30.71
15569189,1913,1,186427,227614,0.39,-0.76,9.93,-0.03,-0.01,-0.01,30.71
15609190,1914,1,186878,228783,0.37,-0.75,9.96,-0.03,-0.01,-0.00,30.71
15649189,1907,1,187076,229217,0.40,-0.74,9.96,-0.03,-0.01,-0.01,30.71
15689190,1914,1,187208,229492,0.36,-0.76,9.95,-0.03,-0.01,-0.01,30.71
15729875,1902,1,187331,229825,0.39,-0.75,9.96,-0.03,-0.01,-0.00,30.71
15768191,1935,1,187400,230145,0.39,-0.75,9.97,-0.03,-0.01,-0.01,30.71
15808189,1931,1,187494,230253,0.38,-0.76,9.95,-0.03,-0.01,-0.00,30.71
15848196,1911,1,187516,230365,0.39,-0.75,9.93,-0.03,-0.01,-0.01,30.71
15888189,1936,1,187469,230600,0.40,-0.75,9.93,-0.03,-0.01,-0.01,30.71
15928191,1927,1,187622,230872,0.39,-0.77,9.96,-0.03,-0.01,-0.01,30.71
15968189,1927,1,187721,231129,0.37,-0.77,9.95,-0.03,-0.01,-0.01,30.71
16008194,1915,1,187789,231094,0.39,-0.74,9.96,-0.03,-0.01,-0.00,30.71
16048209,1916,1,187482,228685,0.39,-0.76,9.94,-0.03,-0.01,-0.00,30.71
16088191,1917,1,186366,225662,0.40,-0.74,9.95,-0.03,-0.01,-0.00,30.71
16128188,1914,1,185831,225036,0.38,-0.76,9.97,-0.03,-0.01,-0.01,30.71
16168191,1913,1,185792,225185,0.40,-0.76,9.96,-0.03,-0.01,-0.00,30.71
16208188,1920,1,185863,225620,0.41,-0.72,9.95,-0.03,-0.01,-0.01,30.71
16248194,1919,1,186091,226611,0.41,-0.76,9.94,-0.03,-0.01,-0.01,30.71
16289189,1903,1,186424,227698,0.39,-0.75,9.96,-0.03,-0.01,-0.01,30.71
16329191,1901,1,186630,227948,0.40,-0.73,9.97,-0.03,-0.01,-0.00,30.71
16369188,1907,1,186705,228199,0.41,-0.75,9.94,-0.03,-0.01,-0.01,30.71
16409191,1909,1,186818,228487,0.39,-0.75,9.97,-0.03,-0.01,-0.01,30.71
16449189,1904,1,186892,228848,0.40,-0.75,9.93,-0.03,-0.01,-0.00,30.71
16489190,1889,1,187027,229184,0.37,-0.74,9.95,-0.03,-0.01,-0.00,30.71
16529189,1906,1,187045,229267,0.39,-0.76,9.97,-0.03,-0.01,-0.01,30.71
16569190,1902,1,187064,229546,0.39,-0.76,9.96,-0.03,-0.01,-0.00,30.71
16609189,1905,1,187238,229983,0.40,-0.74,9.96,-0.03,-0.01,-0.01,30.71
16649190,1899,1,187342,230033,0.39,-0.76,9.95,-0.03,-0.01,-0.00,30.71
16689189,1903,1,187068,227599,0.39,-0.76,9.97,-0.03,-0.01,-0.00,30.71
16729190,1901,1,185869,224630,0.39,-0.77,9.98,-0.03,-0.01,-0.01,30.71
16769875,1889,1,185448,224478,0.39,-0.75,9.95,-0.03,-0.01,-0.01,30.65
16808194,1915,1,185481,224844,0.37,-0.76,9.97,-0.03,-0.01,-0.00,30.65
16848189,1901,1,185588,225001,0.38,-0.75,9.96,-0.03,-0.01,-0.01,30.65
16888194,1919,1,185648,225594,0.40,-0.76,9.95,-0.03,-0.01,-0.01,30.65
16928188,1919,1,186008,226861,0.39,-0.78,9.95,-0.03,-0.01,-0.00,30.65
16968191,1919,1,186259,227658,0.38,-0.74,9.96,-0.03,-0.01,-0.01,30.65
17008189,1917,1,186455,228078,0.36,-0.76,9.96,-0.03,-0.01,-0.01,30.65
17048191,1911,1,186553,228318,0.38,-0.75,9.95,-0.03,-0.01,-0.00,30.65
17088188,1909,1,186614,228526,0.38,-0.76,9.94,-0.03,-0.01,-0.01,30.65
17128193,1908,1,186707,228857,0.38,-0.75,9.97,-0.03,-0.01,-0.01,30.65
17168189,1917,1,186779,229227,0.39,-0.74,9.96,-0.03,-0.01,-0.01,30.65
17208191,1920,1,186953,229561,0.38,-0.77,9.94,-0.03,-0.01,-0.00,30.65
17248188,1919,1,187063,229981,0.38,-0.74,9.97,-0.03,-0.01,-0.01,30.65
17289190,1904,1,187234,229924,0.38,-0.74,9.95,-0.03,-0.01,-0.01,30.65
17329189,1904,1,186797,226989,0.41,-0.77,9.93,-0.03,-0.01,-0.00,30.65
17369190,1909,1,185525,224307,0.38,-0.75,9.93,-0.03,-0.01,-0.01,30.65
17409189,1903,1,185184,224025,0.39,-0.74,9.95,-0.03,-0.01,-0.00,30.65
17449191,1905,1,185223,224149,0.38,-0.77,9.97,-0.04,-0.01,-0.00,30.65
17489211,1914,1,185220,224282,0.37,-0.75,9.98,-0.03,-0.01,-0.00,30.65
17529191,1904,1,185353,224973,0.39,-0.75,9.95,-0.03,-0.01,-0.00,30.65
17569189,1904,1,185744,226252,0.39,-0.75,9.96,-0.03,-0.01,-0.00,30.65
17609190,1909,1,186026,226852,0.37,-0.76,9.97,-0.03,-0.01,-0.01,30.65
17649189,1908,1,186139,227187,0.38,-0.76,9.96,-0.03,-0.01,-0.01,30.65
17689223,1916,1,186253,227618,0.40,-0.76,9.94,-0.03,-0.01,-0.00,30.65
17729188,1904,1,186418,228131,0.39,-0.76,9.94,-0.03,-0.01,-0.01,30.65
17769191,1906,1,186617,228583,0.39,-0.76,9.95,-0.03,-0.01,-0.00,30.65
17809875,1902,1,186763,229160,0.40,-0.77,9.96,-0.03,-0.01,-0.01,30.57
17848190,1920,1,186921,229517,0.37,-0.77,9.96,-0.03,-0.01,-0.00,30.57
17888189,1923,1,187035,229853,0.37,-0.75,9.94,-0.03,-0.01,-0.01,30.57
17928194,1923,1,187147,229885,0.39,-0.77,9.96,-0.03,-0.01,-0.01,30.57
17968189,1921,1,186871,227705,0.38,-0.75,9.96,-0.03,-0.01,-0.00,30.57
18008190,1910,1,185725,224511,0.40,-0.75,9.96,-0.03,-0.01,-0.00,30.57
18048188,1919,1,185197,224076,0.37,-0.77,9.97,-0.03,-0.01,-0.01,30.57
18088191,1919,1,185228,224286,0.39,-0.77,9.95,-0.04,-0.01,-0.00,30.57
18128191,1918,1,185231,224566,0.39,-0.75,9.93,-0.03,-0.01,-0.01,30.57
18168194,1917,1,185302,225328,0.38,-0.76,9.93,-0.03,-0.01,-0.01,30.57
18208189,1917,1,185710,226509,0.40,-0.76,9.95,-0.03,-0.01,-0.00,30.57
18248190,1920,1,185995,227022,0.37,-0.76,9.96,-0.03,-0.01,-0.01,30.57
18288189,1920,1,186053,227353,0.39,-0.74,9.93,-0.03,-0.01,-0.01,30.57
18329190,1899,1,186114,227390,0.38,-0.77,9.99,-0.03,-0.01,-0.01,30.57
18369188,1905,1,186152,227821,0.37,-0.75,9.94,-0.03,-0.01,-0.00,30.57
18409190,1904,1,186407,228289,0.39,-0.78,9.94,-0.03,-0.01,-0.01,30.57
18449189,1906,1,186391,228461,0.40,-0.78,9.96,-0.03,-0.01,-0.00,30.57
18489190,1906,1,186460,228770,0.40,-0.74,9.97,-0.03,-0.01,-0.01,30.57
18529188,1903,1,186587,229077,0.38,-0.74,9.94,-0.03,-0.01,-0.01,30.57
18569190,1898,1,186644,229326,0.35,-0.76,9.96,-0.03,-0.01,-0.00,30.57
18609189,1890,1,186693,229339,0.40,-0.75,9.96,-0.03,-0.01,-0.01,30.57
18649190,1894,1,186452,227084,0.38,-0.78,9.95,-0.03,-0.01,-0.01,30.57
18689189,1889,1,185199,223596,0.38,-0.74,9.99,-0.03,-0.01,-0.01,30.57
18729190,1894,1,184633,223152,0.40,-0.74,9.92,-0.03,-0.01,-0.01,30.57
18769189,1890,1,184621,223303,0.36,-0.75,9.94,-0.03,-0.01,-0.01,30.57
18809190,1897,1,184652,223498,0.38,-0.76,9.97,-0.03,-0.01,-0.01,30.57
18849875,1902,1,184719,224194,0.39,-0.76,9.95,-0.03,-0.01,-0.00,30.47
18888191,1926,1,185197,225543,0.39,-0.75,9.96,-0.03,-0.01,-0.01,30.47
18928189,1921,1,185501,226134,0.39,-0.76,9.96,-0.03,-0.01,-0.00,30.47
18968194,1922,1,185593,226358,0.36,-0.76,9.94,-0.03,-0.01,-0.01,30.47
19008189,1934,1,185647,226603,0.38,-0.75,9.94,-0.03,-0.01,-0.00,30.47
19048191,1936,1,185780,227132,0.38,-0.75,9.96,-0.03,-0.01,-0.00,30.47
19088189,1937,1,185981,227854,0.38,-0.75,9.94,-0.03,-0.01,-0.00,30.47
19128198,1949,1,186237,228212,0.39,-0.76,9.95,-0.03,-0.01,-0.01,30.47
19168189,1947,1,186218,228377,0.39,-0.78,9.95,-0.03,-0.01,-0.01,30.47
19208194,1968,1,186322,228640,0.37,-0.76,9.96,-0.03,-0.01,-0.01,30.47
19248189,1959,1,186356,228801,0.39,-0.74,9.95,-0.03,-0.01,-0.00,30.47
19288191,1962,1,186466,228986,0.39,-0.76,9.93,-0.03,-0.01,-0.00,30.47
19328224,1965,1,186451,228312,0.39,-0.75,9.94,-0.03,-0.01,-0.01,30.47
19368194,1961,1,185629,224585,0.38,-0.75,9.95,-0.03,-0.01,-0.01,30.47
19408189,1958,1,184601,223206,0.40,-0.75,9.96,-0.03,-0.01,-0.01,30.47
19448191,1963,1,184502,223202,0.39,-0.76,9.93,-0.03,-0.01,-0.01,30.47
19488189,1962,1,184443,223223,0.39,-0.76,9.95,-0.03,-0.01,-0.01,30.47
19528211,1954,1,184494,223599,0.39,-0.75,9.94,-0.03,-0.01,-0.01,30.47
19568189,1968,1,184824,224950,0.38,-0.77,9.94,-0.04,-0.01,-0.00,30.47
19608190,1953,1,185207,225777,0.40,-0.77,9.94,-0.03,-0.01,-0.01,30.47
19648188,1945,1,185369,226252,0.37,-0.76,9.94,-0.03,-0.01,-0.01,30.47
19688191,1940,1,185502,226683,0.39,-0.74,9.94,-0.03,-0.01,-0.00,30.47
19728189,1935,1,185663,227153,0.38,-0.75,9.99,-0.03,-0.01,-0.00,30.47
19768191,1935,1,185762,227559,0.37,-0.74,9.94,-0.03,-0.01,-0.01,30.47
19808189,1924,1,185914,227915,0.40,-0.77,9.96,-0.03,-0.01,-0.00,30.47
19848190,1911,1,186022,228333,0.41,-0.76,9.96,-0.03,-0.01,-0.01,30.47
19888875,1887,1,186138,228608,0.37,-0.76,9.96,-0.03,-0.01,-0.01,30.39
19929190,1885,1,186191,228763,0.39,-0.74,9.96,-0.03,-0.01,-0.01,30.39
19969188,1894,1,186230,228954,0.38,-0.74,9.95,-0.03,-0.01,-0.00,30.39
20009190,1876,1,186296,228735,0.38,-0.77,9.96,-0.03,-0.01,-0.01,30.39
20049189,1882,1,185802,225625,0.40,-0.74,9.95,-0.03,-0.01,-0.00,30.39
20089190,1871,1,184682,223552,0.39,-0.75,9.97,-0.03,-0.01,-0.00,30.39
20129189,1867,1,184472,223537,0.38,-0.75,9.97,-0.03,-0.01,-0.00,30.39
20169190,1865,1,184584,223982,0.40,-0.75,9.97,-0.03,-0.01,-0.01,30.39
20209188,1867,1,184731,224524,0.40,-0.72,9.95,-0.03,-0.01,-0.01,30.39
20249190,1847,1,185059,225978,0.37,-0.75,9.98,-0.03,-0.01,-0.00,30.39
20289188,1840,1,185576,227109,0.39,-0.76,9.99,-0.03,-0.01,-0.00,30.39
20329190,1893,1,185697,227208,0.40,-0.78,9.92,-0.03,-0.01,-0.00,30.39
20369188,1872,1,185738,227251,0.39,-0.77,9.92,-0.03,-0.01,-0.01,30.39
20409190,1866,1,185813,227751,0.38,-0.75,9.99,-0.03,-0.01,-0.01,30.39
20449189,1868,1,185988,228347,0.38,-0.77,9.98,-0.03,-0.01,-0.01,30.39
20489190,1860,1,186130,228773,0.39,-0.74,9.94,-0.03,-0.01,-0.01,30.39
20529188,1869,1,186264,229091,0.39,-0.75,9.95,-0.03,-0.01,-0.01,30.39
20569190,1846,1,186356,229393,0.38,-0.75,9.96,-0.03,-0.01,-0.01,30.39
20609188,1843,1,186504,229587,0.39,-0.77,9.99,-0.03,-0.01,-0.01,30.39
20649190,1874,1,186492,229394,0.34,-0.76,9.93,-0.03,-0.01,-0.00,30.39
20689188,1872,1,186187,227017,0.39,-0.76,9.95,-0.03,-0.01,-0.01,30.39
20729190,1868,1,184985,224223,0.41,-0.74,9.99,-0.03,-0.01,-0.01,30.39
20769194,1869,1,184625,224155,0.37,-0.78,9.93,-0.03,-0.01,-0.00,30.39
20809190,1856,1,184747,224289,0.35,-0.75,9.94,-0.03,-0.01,-0.01,30.39
20849189,1807,1,184671,223646,0.39,-0.74,9.94,-0.03,-0.02,-0.00,30.39
20889876,1897,1,184461,223014,0.36,-0.78,10.02,-0.03,-0.03,-0.00,30.43
20928188,1904,1,184583,224159,0.44,-0.73,9.88,-0.04,-0.01,-0.01,30.43
20968206,1926,1,185188,226398,0.38,-0.76,9.99,-0.04,0.04,-0.01,30.43
21008172,1904,1,185781,227676,0.34,-0.74,9.97,-0.04,-0.01,-0.01,30.43
21048193,1904,1,186114,228250,0.36,-0.78,9.94,-0.03,-0.02,-0.01,30.43
21088189,1932,1,186181,228412,0.40,-0.74,10.00,-0.03,-0.02,-0.00,30.43
21128190,1946,1,186211,228198,0.40,-0.75,9.95,-0.03,-0.02,-0.00,30.43
21168218,1952,1,186103,227716,0.38,-0.79,9.97,-0.03,-0.02,-0.00,30.43
21208191,1974,1,186080,227642,0.38,-0.78,9.90,-0.03,-0.02,-0.00,30.43
21248188,1989,1,186219,227981,0.39,-0.75,9.92,-0.03,-0.02,-0.00,30.43
21288191,2007,1,186435,228510,0.40,-0.78,9.91,-0.04,-0.00,-0.00,30.43
21328188,2019,1,186526,227235,0.40,-0.75,10.00,-0.03,-0.01,-0.00,30.43
21368190,2033,1,185355,223302,0.38,-0.75,9.93,-0.03,-0.01,-0.01,30.43
21408189,2042,1,184581,222268,0.40,-0.75,9.96,-0.03,-0.01,-0.01,30.43
21448190,2058,1,184406,221877,0.39,-0.73,9.98,-0.03,-0.01,-0.00,30.43
21488189,2078,1,184280,221621,0.37,-0.78,9.94,-0.03,-0.01,-0.00,30.43
21528191,2085,1,184151,221534,0.38,-0.79,9.96,-0.03,-0.01,-0.01,30.43
21568189,2097,1,184338,222477,0.40,-0.77,9.94,-0.04,-0.00,-0.01,30.43
21608190,2102,1,184615,223218,0.40,-0.77,9.96,-0.03,-0.01,-0.01,30.43
21648189,2112,1,184798,223703,0.40,-0.75,9.94,-0.03,-0.01,-0.01,30.43
21688190,2112,1,184911,224500,0.39,-0.75,9.94,-0.04,-0.00,-0.01,30.43
21728189,2111,1,185092,224935,0.39,-0.75,9.99,-0.04,-0.01,-0.00,30.43
21768190,2107,1,185113,224831,0.39,-0.74,9.95,-0.03,-0.02,-0.00,30.43
21808189,2093,1,185103,224768,0.38,-0.74,9.94,-0.03,-0.01,-0.00,30.43
21848191,2068,1,185007,224698,0.39,-0.75,9.95,-0.03,-0.01,-0.00,30.43
21888189,2065,1,185048,225091,0.39,-0.76,9.96,-0.03,-0.01,-0.00,30.43
21928877,2015,1,185293,225810,0.37,-0.74,9.96,-0.03,-0.01,-0.01,30.43
21969189,1990,1,185333,224257,0.38,-0.73,9.94,-0.03,-0.01,-0.00,30.43
22009190,1968,1,184164,221004,0.39,-0.76,9.96,-0.03,-0.01,-0.01,30.43
22049188,1951,1,183653,220662,0.37,-0.75,9.96,-0.03,-0.01,-0.01,30.43
22089191,1925,1,183673,220790,0.38,-0.75,9.99,-0.03,-0.01,-0.01,30.43
22129188,1917,1,183693,220831,0.39,-0.75,9.96,-0.03,-0.01,-0.01,30.43
22169190,1904,1,183645,220626,0.38,-0.75,9.95,-0.03,-0.01,-0.00,30.43
22209188,1879,1,183630,220528,0.38,-0.76,9.98,-0.03,-0.02,-0.00,30.43
22249190,1870,1,183644,220779,0.39,-0.77,9.96,-0.03,-0.02,-0.01,30.43
22289188,1851,1,183877,221499,0.42,-0.76,9.94,-0.03,-0.01,-0.01,30.43
22329190,1840,1,184203,222448,0.38,-0.74,9.97,-0.03,-0.01,-0.01,30.43
22369188,1841,1,184482,223216,0.38,-0.76,9.95,-0.03,-0.01,-0.00,30.43
22409190,1822,1,184604,223472,0.40,-0.75,9.95,-0.03,-0.01,-0.01,30.43
22449188,1815,1,184793,224342,0.40,-0.75,9.94,-0.03,-0.01,-0.01,30.43
22489190,1808,1,185262,225914,0.40,-0.75,9.94,-0.04,-0.00,-0.01,30.43
22529188,1811,1,185669,227032,0.38,-0.76,9.95,-0.03,-0.01,-0.01,30.43
22569190,1817,1,185898,227586,0.38,-0.75,9.97,-0.04,-0.01,-0.01,30.43
22609206,1808,1,185959,226620,0.39,-0.75,9.97,-0.03,-0.01,-0.01,30.43
22649190,1806,1,184747,222152,0.36,-0.75,9.96,-0.03,-0.01,-0.01,30.43
22689188,1809,1,183755,220789,0.38,-0.76,9.94,-0.03,-0.01,-0.00,30.43
22729190,1810,1,183559,220500,0.40,-0.79,9.95,-0.03,-0.01,-0.01,30.43
22769188,1831,1,183442,220204,0.39,-0.76,9.97,-0.03,-0.01,-0.01,30.43
22809206,1835,1,183366,220260,0.39,-0.74,9.93,-0.03,-0.01,-0.00,30.43
22849189,1834,1,183545,221080,0.40,-0.74,9.96,-0.03,-0.01,-0.01,30.43
22889190,1839,1,183785,221485,0.41,-0.75,9.96,-0.03,-0.01,-0.01,30.43
22929875,1832,1,183844,221517,0.38,-0.77,9.96,-0.03,-0.01,-0.01,30.57
22968193,1866,1,183876,222008,0.37,-0.75,9.96,-0.03,-0.01,-0.00,30.57
23008189,1867,1,184256,223332,0.40,-0.76,9.96,-0.03,-0.01,-0.01,30.57
23048191,1867,1,184861,225283,0.38,-0.76,9.97,-0.03,-0.01,-0.00,30.57
23088189,1861,1,185435,226561,0.38,-0.77,9.96,-0.03,-0.01,-0.00,30.57
23128191,1888,1,185624,227080,0.37,-0.78,9.94,-0.03,-0.01,-0.01,30.57
23168189,1877,1,185745,227536,0.38,-0.76,9.97,-0.03,-0.01,-0.01,30.57
23208193,1887,1,185904,228222,0.38,-0.74,9.95,-0.03,-0.01,-0.01,30.57
23248188,1877,1,186117,228458,0.36,-0.77,9.96,-0.03,-0.01,-0.01,30.57
23288190,1875,1,185807,225853,0.39,-0.75,9.96,-0.03,-0.01,-0.00,30.57
23328188,1874,1,184338,222355,0.37,-0.76,9.95,-0.03,-0.01,-0.01,30.57
23368191,1879,1,183744,221619,0.37,-0.76,9.95,-0.03,-0.01,-0.01,30.57
23408188,1884,1,183655,221533,0.39,-0.76,9.97,-0.03,-0.01,-0.01,30.57
23448193,1894,1,183612,221499,0.38,-0.77,9.94,-0.03,-0.01,-0.00,30.57
23488189,1890,1,183685,221966,0.37,-0.76,9.92,-0.03,-0.01,-0.00,30.57
23528190,1904,1,184008,223068,0.40,-0.74,9.95,-0.03,-0.01,-0.01,30.57
23568188,1904,1,184376,223844,0.40,-0.76,9.93,-0.03,-0.01,-0.01,30.57
23608191,1912,1,184481,223750,0.38,-0.77,9.97,-0.03,-0.01,-0.00,30.57
23648189,1918,1,184324,223372,0.40,-0.75,9.95,-0.03,-0.01,-0.01,30.57
23688190,1918,1,184246,223397,0.38,-0.75,9.96,-0.03,-0.01,-0.00,30.57
23728189,1907,1,184418,224027,0.39,-0.75,9.95,-0.03,-0.01,-0.00,30.57
23768191,1904,1,184619,224660,0.38,-0.78,9.99,-0.03,-0.01,-0.01,30.57
23808189,1914,1,184887,225460,0.38,-0.77,9.98,-0.03,-0.01,-0.00,30.57
23848193,1920,1,185072,225786,0.38,-0.75,9.95,-0.03,-0.01,-0.01,30.57
23888189,1935,1,185127,225931,0.38,-0.78,9.95,-0.03,-0.01,-0.01,30.57
23928193,1920,1,185160,225797,0.39,-0.74,9.95,-0.03,-0.01,-0.00,30.57
23968875,1893,1,184530,222247,0.38,-0.74,9.97,-0.03,-0.01,-0.01,30.53
24009190,1899,1,183451,220841,0.39,-0.77,9.94,-0.03,-0.01,-0.01,30.53
24049188,1879,1,183447,221478,0.37,-0.76,9.97,-0.04,-0.00,-0.01,30.53
24089190,1897,1,183714,222307,0.39,-0.77,9.93,-0.04,-0.01,-0.01,30.53
24129188,1904,1,183891,222887,0.37,-0.76,9.95,-0.03,-0.01,-0.01,30.53
24169190,1898,1,184148,224077,0.36,-0.76,9.97,-0.03,-0.01,-0.01,30.53
24209189,1902,1,184569,224883,0.36,-0.76,9.94,-0.03,-0.01,-0.01,30.53
24249190,1895,1,184708,225326,0.40,-0.74,9.92,-0.03,-0.01,-0.01,30.53
24289188,1901,1,184876,225941,0.39,-0.77,9.96,-0.04,-0.01,-0.01,30.53
24329191,1904,1,184896,225794,0.35,-0.74,9.96,-0.03,-0.01,-0.01,30.53
24369189,1895,1,184706,225359,0.37,-0.75,9.96,-0.03,-0.01,-0.00,30.53
24409190,1892,1,184641,225240,0.38,-0.76,9.95,-0.03,-0.01,-0.01,30.53
24449189,1899,1,184662,225588,0.37,-0.75,9.97,-0.03,-0.01,-0.01,30.53
24489190,1906,1,184855,225947,0.39,-0.76,9.98,-0.03,-0.01,-0.00,30.53
24529188,1903,1,184938,226264,0.41,-0.75,9.96,-0.03,-0.01,-0.01,30.53
24569190,1898,1,185084,226645,0.38,-0.77,9.95,-0.03,-0.01,-0.01,30.53
24609188,1905,1,185093,225850,0.38,-0.76,9.97,-0.03,-0.01,-0.00,30.53
24649190,1894,1,184140,222071,0.38,-0.76,9.95,-0.03,-0.01,-0.00,30.53
24689188,1904,1,183235,221038,0.39,-0.76,9.93,-0.03,-0.01,-0.01,30.53
24729191,1899,1,183221,221494,0.39,-0.76,9.95,-0.03,-0.01,-0.01,30.53
24769188,1902,1,183431,222195,0.36,-0.76,9.96,-0.03,-0.01,-0.01,30.53
24809190,1894,1,183646,222679,0.37,-0.76,9.96,-0.03,-0.01,-0.01,30.53
24849189,1898,1,183846,223882,0.44,-0.74,9.86,-0.03,-0.01,-0.01,30.53
24889190,1893,1,184371,224887,0.38,-0.74,9.96,-0.03,-0.01,-0.01,30.53
24929188,1904,1,184599,225644,0.38,-0.75,9.95,-0.03,-0.01,-0.01,30.53
24969877,1902,1,184796,226100,0.39,-0.76,9.95,-0.03,-0.01,-0.01,30.39
25008189,1921,1,185005,226531,0.37,-0.76,9.97,-0.03,-0.01,-0.01,30.39
25048193,1926,1,185144,226934,0.38,-0.76,9.96,-0.03,-0.02,-0.00,30.39
25088189,1931,1,185345,227392,0.40,-0.76,9.94,-0.03,-0.01,-0.01,30.39
25128193,1922,1,185463,227608,0.37,-0.75,9.99,-0.03,-0.01,-0.00,30.39
25168189,1922,1,185584,227703,0.37,-0.78,9.96,-0.03,-0.01,-0.00,30.39
25208191,1929,1,185547,227652,0.40,-0.77,9.96,-0.03,-0.01,-0.01,30.39
25248188,1936,1,185538,227657,0.39,-0.76,9.94,-0.03,-0.01,-0.01,30.39
25288193,1929,1,185491,226329,0.39,-0.76,9.95,-0.03,-0.01,-0.01,30.39
25328189,1935,1,184279,222241,0.39,-0.76,9.93,-0.03,-0.01,-0.01,30.39
25368194,1929,1,183463,221554,0.40,-0.76,9.96,-0.03,-0.00,-0.01,30.39
25408188,1930,1,183495,222211,0.38,-0.76,9.96,-0.04,-0.01,-0.01,30.39
25448193,1923,1,183683,222377,0.37,-0.76,9.98,-0.03,-0.01,-0.00,30.39
25488189,1936,1,183829,222980,0.38,-0.76,9.96,-0.03,-0.01,-0.01,30.39
25528194,1927,1,184220,224225,0.39,-0.77,9.97,-0.03,-0.01,-0.01,30.39
25568189,1925,1,184518,224828,0.39,-0.77,9.95,-0.03,-0.01,-0.00,30.39
25608194,1929,1,184605,225075,0.38,-0.77,9.92,-0.03,-0.01,-0.01,30.39
25648189,1931,1,184703,225404,0.39,-0.76,9.92,-0.03,-0.01,-0.01,30.39
25688194,1932,1,184778,225677,0.37,-0.74,9.94,-0.03,-0.01,-0.01,30.39
25728189,1926,1,184890,225979,0.39,-0.76,9.98,-0.03,-0.01,-0.01,30.39
25768193,1926,1,184984,226335,0.40,-0.76,9.95,-0.03,-0.01,-0.00,30.39
25808188,1927,1,185234,226835,0.39,-0.75,9.95,-0.03,-0.01,-0.01,30.39
25848194,1934,1,185362,227296,0.40,-0.76,9.94,-0.03,-0.01,-0.01,30.39
25888199,1934,1,185515,227773,0.39,-0.74,9.98,-0.03,-0.01,-0.01,30.39
25928193,1937,1,185560,226859,0.38,-0.77,9.95,-0.03,-0.01,-0.00,30.39
25968189,1939,1,184503,222736,0.40,-0.75,9.96,-0.03,-0.01,-0.01,30.39
26008877,1901,1,183485,221481,0.38,-0.77,9.96,-0.04,-0.01,-0.01,30.43
26049188,1905,1,183407,221886,0.36,-0.74,9.94,-0.03,-0.01,-0.01,30.43
26089207,1898,1,183598,222332,0.36,-0.77,9.98,-0.03,-0.01,-0.01,30.43
26129188,1905,1,183882,223998,0.41,-0.77,9.93,-0.04,-0.00,-0.01,30.43
26169191,1898,1,184627,226237,0.37,-0.79,9.98,-0.04,0.00,-0.01,30.43
26209172,1906,1,184975,226609,0.35,-0.75,9.98,-0.03,-0.01,-0.01,30.43
26249190,1904,1,184933,226245,0.38,-0.75,9.94,-0.03,-0.02,-0.00,30.43
26289222,1901,1,184832,226085,0.37,-0.77,9.98,-0.03,-0.01,-0.00,30.43
26329190,1895,1,184770,225928,0.37,-0.75,9.96,-0.03,-0.01,-0.01,30.43
26369188,1900,1,184723,226029,0.38,-0.77,9.96,-0.03,-0.02,-0.00,30.43
26409190,1902,1,184868,226666,0.40,-0.76,9.95,-0.03,-0.01,-0.00,30.43
26449188,1894,1,185206,227451,0.36,-0.76,9.96,-0.03,-0.01,-0.01,30.43
26489191,1901,1,185383,227921,0.37,-0.76,9.93,-0.03,-0.01,-0.01,30.43
26529189,1901,1,185554,228326,0.40,-0.77,9.96,-0.03,-0.01,-0.01,30.43
26569190,1891,1,185634,227731,0.34,-0.74,9.97,-0.04,-0.01,-0.01,30.43
26609188,1894,1,184900,225813,0.37,-0.77,9.95,-0.04,0.00,-0.01,30.43
26649172,1904,1,184534,226024,0.37,-0.78,9.96,-0.04,-0.00,-0.01,30.43
26689188,1895,1,184773,227155,0.39,-0.75,9.94,-0.04,-0.01,-0.01,30.43
26729190,1904,1,185008,228053,0.34,-0.76,9.98,-0.04,-0.01,-0.01,30.43
26769189,1907,1,185412,229508,0.35,-0.75,9.89,-0.04,-0.00,-0.01,30.43
26809190,1913,1,185999,231436,0.31,-0.80,9.99,-0.04,0.01,-0.01,30.43
26849172,1927,1,186624,232323,0.31,-0.75,10.00,-0.04,-0.01,-0.00,30.43
26889190,1879,1,186676,231876,0.33,-0.80,9.96,-0.04,-0.04,-0.00,30.43
26929189,1941,1,186219,230509,0.36,-0.77,10.02,-0.03,-0.08,0.00,30.43
26969172,1934,1,186016,229702,0.50,-0.74,9.90,-0.03,-0.07,-0.00,30.43
27009875,1936,1,186027,229481,0.46,-0.81,9.94,-0.03,-0.02,-0.00,30.43
27048190,1986,1,186067,229071,0.40,-0.79,9.95,-0.03,-0.01,-0.00,30.43
27088188,1975,1,186059,228197,0.39,-0.78,10.01,-0.03,-0.02,-0.00,30.43
27128194,1953,1,185968,226498,0.39,-0.74,9.93,-0.03,-0.05,0.00,30.43
27168173,1936,1,186071,224685,0.47,-0.74,9.92,-0.03,-0.06,0.00,30.43
27208172,1920,1,186480,223427,0.50,-0.77,9.96,-0.03,-0.05,0.00,30.43
27248172,1907,1,186721,222201,0.42,-0.71,9.95,-0.03,0.01,-0.00,30.43
27288173,1898,1,186756,221731,0.51,-0.77,9.94,-0.03,0.01,-0.00,30.43
27328173,1883,1,187241,222136,0.47,-0.79,9.92,-0.03,-0.02,-0.00,30.43
27368191,1868,1,187706,223235,0.47,-0.73,9.90,-0.04,0.01,-0.01,30.43
27408172,1866,1,187934,225304,0.40,-0.75,10.04,-0.04,0.04,-0.01,30.43
27448172,1861,1,188459,228536,0.47,-0.81,9.87,-0.04,0.01,-0.01,30.43
27488173,1870,1,189013,229164,0.45,-0.82,10.03,-0.03,-0.02,-0.00,30.43
27528190,1883,1,189030,228530,0.41,-0.74,9.98,-0.03,-0.02,-0.00,30.43
27568189,1861,1,188849,227576,0.49,-0.83,9.89,-0.03,-0.01,-0.01,30.43
27608194,1875,1,188578,227306,0.46,-0.77,9.92,-0.03,-0.01,-0.01,30.43
27648189,1862,1,188673,227964,0.44,-0.66,10.03,-0.03,0.01,-0.01,30.43
27688173,1856,1,188786,227805,0.42,-0.78,10.02,-0.02,-0.00,-0.00,30.43
27728188,1867,1,188722,227391,0.39,-0.78,9.89,-0.03,-0.01,-0.00,30.43
27768194,1874,1,188502,226929,0.46,-0.81,9.90,-0.03,-0.00,-0.00,30.43
27808188,1875,1,188302,226700,0.45,-0.74,9.93,-0.03,0.00,-0.01,30.43
27848172,1890,1,188205,225554,0.41,-0.76,9.98,-0.03,-0.01,-0.00,30.43
27888189,1883,1,187264,222310,0.44,-0.80,9.97,-0.03,-0.02,-0.01,30.43
27928198,1875,1,186574,221304,0.39,-0.78,9.91,-0.03,-0.01,-0.01,30.43
27968189,1887,1,186784,221839,0.43,-0.75,9.96,-0.03,-0.03,-0.01,30.43
28008194,1874,1,187257,222531,0.43,-0.77,9.97,-0.03,-0.01,-0.01,30.43
28048875,1871,1,187563,222972,0.42,-0.78,9.94,-0.04,-0.02,-0.01,30.65
28089191,1869,1,187951,223716,0.47,-0.75,9.93,-0.03,-0.04,-0.00,30.65
28129212,1863,1,188384,224322,0.51,-0.76,9.98,-0.03,-0.01,-0.01,30.65
28169191,1872,1,188708,224875,0.47,-0.74,9.98,-0.03,-0.01,-0.01,30.65
28209188,1856,1,188874,225201,0.43,-0.75,9.97,-0.03,-0.00,-0.01,30.65
28249191,1883,1,189100,226143,0.43,-0.74,9.97,-0.03,0.00,-0.01,30.65
28289172,1887,1,189533,227618,0.41,-0.77,9.91,-0.04,0.00,-0.01,30.65
28329172,1877,1,189821,229122,0.41,-0.78,9.97,-0.04,0.02,-0.01,30.65
28368172,1922,1,190249,230622,0.41,-0.78,9.97,-0.04,-0.00,-0.01,30.65
28408191,1919,1,190540,231543,0.46,-0.77,9.96,-0.04,-0.01,-0.01,30.65
28448189,1921,1,190717,231384,0.45,-0.79,9.94,-0.03,-0.01,-0.01,30.65
28488194,1920,1,190391,228751,0.41,-0.77,9.97,-0.03,-0.02,-0.00,30.65
28528189,1941,1,189241,224132,0.32,-0.69,10.02,-0.02,-0.05,-0.00,30.65
28568190,1942,1,189301,223949,0.47,-0.79,9.92,-0.03,-0.06,0.00,30.65
28608172,1962,1,190414,224923,0.51,-0.79,9.89,-0.04,-0.03,-0.01,30.65
28648194,1971,1,190810,225652,0.52,-0.75,9.94,-0.04,0.04,-0.01,30.65
28688173,1964,1,190594,226372,0.40,-0.77,9.99,-0.04,0.02,-0.01,30.65
28728172,1971,1,190757,228507,0.45,-0.76,9.92,-0.04,0.03,-0.01,30.65
28768172,2000,1,191509,231177,0.40,-0.76,9.96,-0.04,0.02,-0.01,30.65
28808172,2111,1,191864,232773,0.40,-0.77,9.93,-0.04,0.04,-0.02,30.65
28848172,2075,1,191969,233227,0.33,-0.76,10.01,-0.04,0.02,-0.02,30.65
28888172,2091,1,191734,233333,0.37,-0.78,9.98,-0.03,-0.02,-0.01,30.65
28928189,2078,1,191581,232787,0.41,-0.75,9.95,-0.03,-0.02,-0.00,30.65
28968193,2060,1,191443,232228,0.38,-0.78,9.95,-0.03,-0.02,-0.00,30.65
29008189,2064,1,191377,232245,0.39,-0.77,9.94,-0.03,-0.02,-0.00,30.65
29048191,2054,1,191493,232422,0.40,-0.77,9.98,-0.03,-0.02,-0.00,30.65
29088874,1984,1,191617,232754,0.43,-0.76,9.95,-0.03,-0.02,-0.00,30.71
29129190,1986,1,191701,232435,0.40,-0.77,9.96,-0.03,-0.01,-0.01,30.71
29169189,1951,1,190917,227487,0.42,-0.78,9.94,-0.03,-0.02,-0.00,30.71
29209190,1939,1,189454,225228,0.41,-0.77,9.94,-0.03,-0.02,-0.00,30.71
29249188,1919,1,189352,225055,0.40,-0.76,9.94,-0.03,-0.02,-0.00,30.71
29289190,1909,1,189402,225096,0.43,-0.75,9.97,-0.03,-0.02,-0.00,30.71
29329188,1899,1,189617,225479,0.42,-0.76,9.93,-0.03,-0.02,-0.01,30.71
29368196,1904,1,190000,226267,0.43,-0.76,9.94,-0.03,-0.02,-0.00,30.71
29408189,1889,1,190489,226984,0.41,-0.77,9.96,-0.03,-0.02,-0.00,30.71
29448191,1873,1,190703,227145,0.43,-0.75,9.96,-0.03,-0.02,-0.00,30.71
29488189,1856,1,190921,227380,0.45,-0.76,9.95,-0.03,-0.02,-0.00,30.71
29528190,1835,1,191246,227753,0.44,-0.78,9.95,-0.03,-0.02,-0.00,30.71
29568208,1821,1,191617,228324,0.44,-0.77,9.94,-0.03,-0.02,-0.00,30.71
29608191,1822,1,191939,228637,0.45,-0.73,9.95,-0.03,-0.01,-0.00,30.71
29648189,1810,1,192287,229043,0.46,-0.77,9.96,-0.03,-0.01,-0.01,30.71
29688193,1803,1,192551,229387,0.46,-0.76,9.98,-0.03,-0.01,-0.01,30.71
29728194,1804,1,192793,229745,0.44,-0.78,9.95,-0.03,-0.01,-0.00,30.71
29768209,1795,1,192999,229927,0.45,-0.76,9.93,-0.03,-0.01,-0.01,30.71
29808189,1801,1,192794,228262,0.45,-0.75,9.93,-0.04,-0.01,-0.01,30.71
29848194,1796,1,192138,227292,0.44,-0.76,9.95,-0.04,-0.00,-0.01,30.71
29888189,1808,1,191929,227157,0.44,-0.76,9.99,-0.04,0.00,-0.01,30.71
29928172,1814,1,191867,227023,0.43,-0.78,9.96,-0.03,-0.01,-0.01,30.71
29968189,1813,1,191818,226974,0.44,-0.75,9.93,-0.03,-0.01,-0.01,30.71
30008194,1827,1,191790,227458,0.42,-0.77,9.95,-0.03,-0.00,-0.00,30.71
30048188,1818,1,191984,228175,0.39,-0.78,9.96,-0.03,-0.01,-0.01,30.71
30088194,1820,1,192081,228333,0.43,-0.75,9.98,-0.03,-0.01,-0.00,30.71
30128875,1799,1,192104,228630,0.43,-0.76,9.93,-0.03,-0.01,-0.01,30.67
30169191,1808,1,192147,228940,0.41,-0.78,9.95,-0.04,-0.01,-0.00,30.67
30209189,1823,1,192270,229438,0.42,-0.77,9.94,-0.03,-0.01,-0.01,30.67
30249191,1821,1,192432,229758,0.42,-0.77,9.92,-0.03,-0.01,-0.00,30.67
30289189,1811,1,192497,229861,0.42,-0.75,9.96,-0.03,-0.01,-0.00,30.67
30329191,1825,1,192578,229905,0.43,-0.77,9.98,-0.03,-0.01,-0.00,30.67
30369188,1833,1,192665,229836,0.45,-0.77,9.96,-0.03,-0.02,-0.00,30.67
30408190,1854,1,192707,229942,0.46,-0.75,9.94,-0.03,-0.02,-0.00,30.67
30448189,1855,1,192884,230022,0.43,-0.78,9.95,-0.03,-0.01,-0.00,30.67
30488191,1869,1,192590,227803,0.44,-0.75,9.97,-0.03,-0.01,-0.01,30.67
30528189,1873,1,192012,227021,0.44,-0.76,9.96,-0.03,-0.01,-0.01,30.67
30568194,1887,1,192017,227173,0.45,-0.78,9.94,-0.04,-0.00,-0.01,30.67
30608189,1873,1,192114,227162,0.42,-0.75,9.97,-0.03,-0.01,-0.01,30.67
30648194,1887,1,192195,227288,0.44,-0.76,9.95,-0.03,-0.02,-0.00,30.67
30688188,1878,1,192307,227790,0.45,-0.77,9.95,-0.03,-0.01,-0.01,30.67
30728193,1899,1,192537,228400,0.43,-0.75,9.97,-0.03,-0.01,-0.00,30.67
30768188,1887,1,192714,228607,0.45,-0.77,9.92,-0.03,-0.01,-0.00,30.67
30808190,1887,1,192732,228799,0.41,-0.76,9.96,-0.03,-0.01,-0.01,30.67
30848189,1888,1,192871,229245,0.43,-0.76,9.97,-0.03,-0.01,-0.01,30.67
30888193,1904,1,193101,230017,0.43,-0.76,9.98,-0.03,-0.01,-0.01,30.67
30928189,1889,1,193476,230711,0.41,-0.74,9.93,-0.03,-0.01,-0.00,30.67
30968190,1893,1,193614,230953,0.46,-0.76,9.96,-0.03,-0.01,-0.00,30.67
31008189,1902,1,193687,231183,0.42,-0.75,9.94,-0.03,-0.01,-0.01,30.67
31048193,1915,1,193871,231739,0.43,-0.76,9.99,-0.03,-0.01,-0.01,30.67
31088189,1905,1,194174,232499,0.43,-0.78,9.96,-0.03,-0.01,-0.00,30.67
31128193,1908,1,194428,233431,0.45,-0.75,9.93,-0.03,-0.01,-0.01,30.67
31168875,1891,1,194752,234046,0.45,-0.74,9.95,-0.03,-0.01,-0.01,30.85
31209242,1885,1,194585,231027,0.41,-0.77,9.99,-0.03,-0.01,-0.01,30.85
31249188,1877,1,193280,228740,0.40,-0.77,9.94,-0.03,-0.01,-0.00,30.85
31289190,1885,1,192997,228486,0.45,-0.77,9.93,-0.03,-0.01,-0.00,30.85
31329188,1873,1,192984,228676,0.45,-0.76,9.92,-0.03,-0.01,-0.00,30.85
31369190,1883,1,193103,228873,0.44,-0.74,9.94,-0.04,-0.01,-0.01,30.85
31409231,1890,1,193145,229088,0.43,-0.77,9.96,-0.03,-0.01,-0.01,30.85
31449190,1902,1,193280,229335,0.44,-0.76,9.96,-0.03,-0.01,-0.01,30.85
31489188,1895,1,193336,229057,0.43,-0.75,9.99,-0.03,-0.03,-0.00,30.85
31529191,1898,1,193676,228927,0.42,-0.75,10.07,-0.02,-0.08,0.01,30.85
31569172,1889,1,194533,228987,0.35,-0.77,10.03,-0.03,-0.11,0.03,30.85
31609172,1882,1,195098,228937,0.66,-0.82,9.78,-0.03,-0.05,0.02,30.85
31649172,1886,1,195530,230457,0.55,-0.75,9.82,-0.04,0.06,-0.01,30.85
31689172,1886,1,196105,232629,0.49,-0.76,9.97,-0.04,0.03,-0.01,30.85
31729172,1888,1,196633,234978,0.49,-0.77,10.02,-0.04,-0.01,-0.01,30.85
31769189,1876,1,197228,237782,0.56,-0.75,9.85,-0.04,0.05,-0.01,30.85
31809172,1891,1,197696,238770,0.34,-0.76,10.11,-0.04,0.04,-0.01,30.85
31849172,1894,1,197296,236010,0.46,-0.78,10.02,-0.03,-0.06,-0.00,30.85
31889188,1890,1,196509,234930,0.51,-0.79,9.83,-0.03,-0.02,-0.00,30.85
31929189,1905,1,196769,237784,0.47,-0.74,9.87,-0.04,0.06,-0.01,30.85
31969172,1902,1,196824,236781,0.38,-0.78,9.96,-0.04,0.05,-0.03,30.85
32009172,1878,1,195938,235020,0.43,-0.76,10.02,-0.04,-0.02,-0.01,30.85
32049188,1955,1,195226,232896,0.39,-0.79,10.02,-0.03,-0.02,-0.00,30.85
32089189,1954,1,194379,231126,0.39,-0.77,9.95,-0.03,-0.01,-0.00,30.85
32129188,1942,1,194038,231377,0.44,-0.74,9.90,-0.03,-0.02,-0.00,30.85
32169875,1939,1,194772,235558,0.45,-0.79,9.86,-0.04,0.00,-0.01,30.73
32208172,2007,1,196582,240126,0.41,-0.78,9.97,-0.04,0.01,-0.01,30.73
32248172,2063,1,197512,241880,0.42,-0.78,9.96,-0.04,0.00,-0.01,30.73
32288172,2043,1,197621,242134,0.41,-0.75,9.97,-0.03,-0.00,-0.01,30.73
32328189,2013,1,197356,241300,0.41,-0.77,9.97,-0.03,-0.03,-0.00,30.73
32368188,2001,1,196987,240051,0.43,-0.75,9.99,-0.03,-0.03,-0.00,30.73
32408190,1985,1,196593,238743,0.40,-0.77,9.91,-0.03,-0.03,-0.00,30.73
32448188,1990,1,196379,237934,0.47,-0.78,9.90,-0.03,-0.04,-0.00,30.73
32488189,1997,1,196480,239170,0.49,-0.76,9.92,-0.04,-0.00,-0.01,30.73
32528188,1994,1,197154,241450,0.45,-0.76,9.97,-0.04,0.02,-0.01,30.73
32568172,1971,1,197681,242596,0.40,-0.76,9.97,-0.03,0.01,-0.01,30.73
32608172,1983,1,197837,242639,0.43,-0.77,9.94,-0.03,-0.02,-0.00,30.73
32648189,1981,1,197542,239996,0.44,-0.77,9.95,-0.03,-0.02,-0.00,30.73
32688187,1978,1,195623,233861,0.44,-0.75,9.94,-0.03,-0.02,-0.00,30.73
32728190,1969,1,194488,232435,0.44,-0.78,9.92,-0.03,-0.02,-0.00,30.73
32768187,1978,1,194604,233685,0.46,-0.76,9.94,-0.03,-0.01,-0.01,30.73
32808190,1975,1,195224,236029,0.42,-0.77,9.96,-0.04,0.01,-0.01,30.73
32848175,1975,1,196022,238664,0.40,-0.77,9.97,-0.04,0.00,-0.01,30.73
32888172,1953,1,196742,240348,0.43,-0.77,9.94,-0.03,-0.01,-0.01,30.73
32928188,1952,1,196901,240227,0.44,-0.77,9.96,-0.03,-0.01,-0.01,30.73
32968190,1965,1,196554,238889,0.40,-0.76,9.98,-0.03,-0.04,-0.00,30.73
33008187,1953,1,196223,237238,0.42,-0.78,9.95,-0.03,-0.02,-0.00,30.73
33048200,1945,1,195762,235642,0.46,-0.77,9.94,-0.03,-0.03,-0.00,30.73
33088188,1970,1,195663,235516,0.48,-0.76,9.94,-0.03,-0.02,-0.00,30.73
33128189,1955,1,195880,236322,0.44,-0.76,9.96,-0.03,-0.01,-0.01,30.73
33168189,1959,1,196258,236925,0.45,-0.76,10.01,-0.03,-0.01,-0.01,30.73
33208876,1904,1,196316,236596,0.45,-0.77,9.97,-0.03,-0.02,-0.00,30.85
33249209,1913,1,196225,236207,0.47,-0.74,9.93,-0.03,-0.01,-0.00,30.85
33289190,1915,1,196180,235672,0.46,-0.77,9.95,-0.03,-0.02,-0.01,30.85
33329188,1920,1,195822,232720,0.46,-0.76,9.95,-0.03,-0.01,-0.00,30.85
33369189,1917,1,194884,231422,0.47,-0.77,9.94,-0.04,-0.01,-0.01,30.85
33409188,1908,1,194912,232302,0.47,-0.75,9.91,-0.04,0.01,-0.01,30.85
33449172,1890,1,195250,233868,0.42,-0.79,9.94,-0.04,0.02,-0.01,30.85
33489172,1899,1,195709,235865,0.42,-0.78,9.98,-0.04,0.01,-0.01,30.85
33529172,1904,1,196126,238402,0.45,-0.78,9.91,-0.04,-0.00,-0.01,30.85
33569188,1909,1,196828,240813,0.43,-0.78,9.96,-0.04,0.00,-0.01,30.85
33609172,1894,1,197217,241545,0.42,-0.79,9.97,-0.04,0.00,-0.01,30.85
33649172,1872,1,197098,241190,0.40,-0.77,9.97,-0.03,-0.02,-0.01,30.85
33689189,1862,1,196885,240455,0.42,-0.77,9.95,-0.03,-0.02,-0.00,30.85
33729188,1832,1,196567,239391,0.41,-0.75,9.97,-0.03,-0.03,-0.00,30.85
33769189,1810,1,196345,238028,0.46,-0.77,9.94,-0.03,-0.04,-0.00,30.85
33809188,1782,1,196125,237129,0.47,-0.78,9.93,-0.03,-0.02,-0.00,30.85
33849189,1746,1,195894,236879,0.46,-0.76,9.92,-0.03,-0.01,-0.01,30.85
33889188,1715,1,195919,237444,0.45,-0.78,9.96,-0.03,0.00,-0.01,30.85
33929172,1687,1,196195,238906,0.43,-0.78,9.92,-0.04,0.01,-0.01,30.85
33969172,1652,1,196560,239983,0.41,-0.75,9.98,-0.04,-0.00,-0.01,30.85
34009190,1635,1,196422,237397,0.44,-0.75,9.94,-0.03,-0.01,-0.01,30.85
34049188,1627,1,194981,234879,0.44,-0.77,9.96,-0.04,0.01,-0.01,30.85
34089172,1627,1,194613,235199,0.41,-0.77,9.97,-0.04,-0.00,-0.01,30.85
34129188,1617,1,194709,235193,0.41,-0.75,9.96,-0.03,-0.01,-0.00,30.85
34169189,1621,1,194591,234524,0.40,-0.78,9.97,-0.03,-0.02,-0.01,30.85
34209874,1595,1,194289,234051,0.44,-0.75,9.98,-0.03,-0.03,-0.00,30.93
34248190,1676,1,194315,234261,0.43,-0.78,9.92,-0.03,-0.02,-0.00,30.93
34288188,1710,1,194431,234407,0.43,-0.78,9.93,-0.03,-0.02,-0.00,30.93
34328190,1711,1,194626,235281,0.45,-0.77,9.96,-0.03,-0.01,-0.01,30.93
34368188,1744,1,195114,236619,0.44,-0.76,9.95,-0.04,-0.00,-0.01,30.93
34408190,1760,1,195494,237675,0.43,-0.76,9.93,-0.03,-0.01,-0.01,30.93
34448188,1782,1,195890,238510,0.44,-0.78,9.94,-0.03,-0.01,-0.01,30.93
34488196,1783,1,195989,238602,0.45,-0.75,9.94,-0.03,-0.01,-0.00,30.93
34528188,1818,1,196049,238629,0.45,-0.77,9.94,-0.03,-0.02,-0.00,30.93
34568189,1854,1,196095,238845,0.45,-0.78,9.96,-0.03,-0.02,-0.01,30.93
34608188,1873,1,196311,239407,0.43,-0.76,9.93,-0.03,-0.02,-0.01,30.93
34648190,1904,1,196558,240118,0.44,-0.76,9.99,-0.03,-0.01,-0.01,30.93
34688213,1937,1,196522,237737,0.43,-0.75,9.98,-0.04,-0.00,-0.01,30.93
34728190,1946,1,194969,233942,0.45,-0.75,9.96,-0.04,-0.01,-0.01,30.93
34768188,1955,1,194346,233507,0.48,-0.77,9.93,-0.03,-0.01,-0.00,30.93
34808190,1968,1,194367,233843,0.45,-0.77,9.96,-0.03,-0.01,-0.01,30.93
34848188,1967,1,194442,233939,0.44,-0.78,9.95,-0.03,-0.01,-0.01,30.93
34888208,1982,1,194549,234961,0.44,-0.75,9.96,-0.03,-0.01,-0.01,30.93
34928188,1984,1,195144,236693,0.43,-0.77,9.94,-0.03,-0.01,-0.00,30.93
34968190,1973,1,195412,236776,0.43,-0.78,9.97,-0.03,-0.01,-0.00,30.93
35008187,1982,1,195240,235997,0.44,-0.77,9.93,-0.03,-0.01,-0.00,30.93
35048189,1985,1,194966,235122,0.45,-0.75,9.94,-0.03,-0.01,-0.00,30.93
35088187,1990,1,194859,235036,0.43,-0.76,9.95,-0.03,-0.02,-0.00,30.93
35128190,1986,1,195017,235763,0.44,-0.78,9.95,-0.03,-0.01,-0.00,30.93
35168187,1991,1,195361,237280,0.45,-0.76,9.93,-0.03,-0.00,-0.01,30.93
35208190,1991,1,195977,239054,0.41,-0.77,9.96,-0.04,0.01,-0.01,30.93
35248859,1938,1,196402,240032,0.42,-0.77,9.98,-0.03,-0.01,-0.01,30.79
35289190,1965,1,196573,240356,0.45,-0.77,9.95,-0.03,-0.01,-0.01,30.79
35329188,1961,1,196418,237884,0.45,-0.76,9.94,-0.03,-0.01,-0.00,30.79
35369190,1946,1,194566,232445,0.44,-0.75,9.94,-0.03,-0.01,-0.01,30.79
35409188,1949,1,193694,231793,0.41,-0.78,10.01,-0.03,-0.01,-0.01,30.79
35449190,1961,1,193714,232047,0.42,-0.77,9.95,-0.03,-0.01,-0.01,30.79
35489188,1961,1,193800,232306,0.43,-0.77,9.96,-0.03,-0.01,-0.00,30.79
35529189,1951,1,193939,232716,0.43,-0.77,9.95,-0.03,-0.01,-0.00,30.79
35569187,1961,1,194174,233065,0.43,-0.75,9.95,-0.03,-0.01,-0.00,30.79
35609190,1967,1,194143,232971,0.48,-0.75,9.91,-0.03,-0.01,-0.00,30.79
35649187,1968,1,194149,232961,0.45,-0.76,9.96,-0.03,-0.01,-0.00,30.79
35689190,1967,1,194187,233234,0.44,-0.78,9.95,-0.03,-0.01,-0.01,30.79
35729188,1966,1,194425,234162,0.46,-0.77,9.95,-0.03,-0.01,-0.01,30.79
35769190,1959,1,194891,236109,0.47,-0.78,9.91,-0.04,0.00,-0.00,30.79
35809172,1966,1,195658,238593,0.43,-0.77,9.96,-0.04,0.01,-0.01,30.79
35849172,1967,1,196243,240234,0.42,-0.77,9.96,-0.04,0.00,-0.01,30.79
35889172,1966,1,196622,241102,0.43,-0.78,9.95,-0.03,-0.01,-0.01,30.79
35929190,1962,1,196727,241217,0.42,-0.77,9.98,-0.03,-0.01,-0.01,30.79
35969188,1959,1,196598,239248,0.45,-0.74,9.96,-0.03,-0.01,-0.00,30.79
36009190,1958,1,194809,233073,0.44,-0.77,9.94,-0.03,-0.01,-0.01,30.79
36049188,1959,1,193567,231935,0.44,-0.78,9.95,-0.03,-0.01,-0.01,30.79
36089190,1963,1,193667,232809,0.42,-0.78,9.97,-0.04,-0.01,-0.01,30.79
36129188,1969,1,194045,233987,0.42,-0.77,9.96,-0.04,0.00,-0.01,30.79
36169172,1968,1,194337,234843,0.43,-0.75,9.97,-0.03,-0.01,-0.00,30.79
36209188,1971,1,194739,236373,0.46,-0.78,9.93,-0.03,-0.01,-0.00,30.79
36249875,1951,1,195059,237068,0.44,-0.75,9.94,-0.03,-0.01,-0.01,30.73
36288188,2023,1,195202,237118,0.44,-0.79,9.96,-0.03,-0.01,-0.01,30.73
36328219,2032,1,195198,237202,0.43,-0.77,9.96,-0.03,-0.01,-0.01,30.73
36368188,2031,1,195280,237855,0.45,-0.78,9.95,-0.03,-0.01,-0.01,30.73
36408190,2033,1,195564,238548,0.43,-0.76,9.95,-0.03,-0.01,-0.01,30.73
36448188,2038,1,195728,239257,0.43,-0.75,9.94,-0.03,-0.01,-0.01,30.73
36488190,2031,1,195972,239850,0.43,-0.78,9.93,-0.03,-0.01,-0.01,30.73
36528222,2014,1,196069,240239,0.42,-0.76,9.96,-0.03,-0.01,-0.01,30.73
36568190,2014,1,196189,240224,0.42,-0.78,9.96,-0.03,-0.01,-0.00,30.73
36608188,2010,1,195966,237720,0.44,-0.78,9.97,-0.03,-0.01,-0.00,30.73
36648189,2003,1,194366,233309,0.45,-0.76,9.91,-0.03,-0.01,-0.01,30.73
36688188,2005,1,193674,232989,0.44,-0.78,9.96,-0.03,-0.01,-0.01,30.73
36728193,2002,1,193735,233247,0.43,-0.77,9.96,-0.03,-0.01,-0.00,30.73
36768188,1998,1,193793,233215,0.42,-0.77,9.97,-0.03,-0.01,-0.00,30.73
36808190,1999,1,193735,233539,0.44,-0.77,9.94,-0.03,-0.01,-0.01,30.73
36848188,1999,1,194004,234183,0.43,-0.78,9.94,-0.03,-0.01,-0.01,30.73
36888190,1997,1,194036,233799,0.45,-0.77,9.97,-0.03,-0.01,-0.00,30.73
36928187,1988,1,193910,233555,0.41,-0.76,9.98,-0.03,-0.02,-0.01,30.73
36968193,2004,1,193961,234233,0.44,-0.77,9.95,-0.03,-0.01,-0.01,30.73
37010188,1943,1,194345,235913,0.43,-0.79,9.94,-0.04,0.00,-0.01,30.73
37050172,1937,1,194926,237365,0.41,-0.76,9.98,-0.03,-0.00,-0.01,30.73
37090188,1941,1,195143,237683,0.45,-0.77,9.96,-0.03,-0.01,-0.01,30.73
37130189,1942,1,195166,237842,0.41,-0.75,9.95,-0.03,-0.01,-0.00,30.73
37170188,1930,1,195175,237949,0.42,-0.78,9.94,-0.03,-0.01,-0.01,30.73
37210189,1922,1,195164,237672,0.40,-0.78,9.95,-0.03,-0.01,-0.01,30.73
37250874,1922,1,194681,233663,0.45,-0.79,9.95,-0.03,-0.01,-0.00,30.67
37289189,1927,1,193231,231589,0.43,-0.76,9.93,-0.04,-0.01,-0.00,30.67
37329188,1940,1,193176,232672,0.47,-0.76,9.89,-0.04,0.00,-0.01,30.67
37369172,1926,1,193501,233746,0.41,-0.75,9.96,-0.04,0.01,-0.01,30.67
37409172,1934,1,193607,233935,0.40,-0.77,9.99,-0.03,-0.01,-0.01,30.67
37449190,1943,1,193533,234327,0.43,-0.75,9.93,-0.03,-0.01,-0.01,30.67
37489188,1941,1,193837,235326,0.43,-0.77,9.93,-0.03,-0.01,-0.00,30.67
37529189,1936,1,194142,236146,0.44,-0.77,9.96,-0.03,-0.01,-0.01,30.67
37569188,1941,1,194272,236362,0.43,-0.78,9.94,-0.03,-0.01,-0.01,30.67
37609189,1932,1,194230,236597,0.38,-0.77,10.00,-0.03,-0.01,-0.01,30.67
37649188,1933,1,194375,237078,0.39,-0.79,10.01,-0.03,-0.01,-0.00,30.67
37689190,1933,1,194403,237052,0.47,-0.80,9.89,-0.03,-0.01,-0.00,30.67
37729188,1933,1,194316,237346,0.42,-0.76,9.91,-0.03,-0.01,-0.01,30.67
37769189,1936,1,194594,238517,0.42,-0.74,9.97,-0.03,-0.01,-0.01,30.67
37809188,1920,1,194968,239621,0.41,-0.80,9.97,-0.04,0.00,-0.01,30.67
37849172,1938,1,195142,240075,0.37,-0.76,10.00,-0.03,0.00,-0.01,30.67
37889172,1961,1,195154,238944,0.39,-0.77,9.99,-0.03,-0.01,-0.01,30.67
37929189,1947,1,193895,233963,0.42,-0.77,9.93,-0.03,-0.01,-0.01,30.67
37969197,1957,1,192397,231494,0.41,-0.78,9.97,-0.03,-0.01,-0.01,30.67
38009190,1967,1,192146,231235,0.40,-0.77,9.94,-0.03,-0.02,-0.00,30.67
38049188,1963,1,192039,231369,0.41,-0.77,9.95,-0.03,-0.01,-0.01,30.67
38089189,1957,1,192298,232500,0.42,-0.78,9.94,-0.03,-0.01,-0.01,30.67
38129188,1955,1,192817,234037,0.40,-0.79,9.95,-0.03,-0.01,-0.00,30.67
38169198,1951,1,193004,234119,0.40,-0.78,9.95,-0.03,-0.01,-0.00,30.67
38209188,1955,1,192801,232926,0.43,-0.78,9.94,-0.03,-0.02,-0.00,30.67
38249189,1942,1,192384,231943,0.43,-0.76,9.96,-0.03,-0.02,-0.00,30.67
38289873,1927,1,192116,231419,0.41,-0.75,9.99,-0.03,-0.01,-0.00,30.57
38330189,1931,1,192055,231176,0.42,-0.77,9.96,-0.03,-0.01,-0.00,30.57
38370188,1922,1,192110,231335,0.43,-0.77,9.94,-0.03,-0.02,-0.00,30.57
38410190,1913,1,192409,232308,0.42,-0.77,9.93,-0.03,-0.01,-0.01,30.57
38450189,1921,1,192727,232891,0.40,-0.77,9.97,-0.03,-0.01,-0.01,30.57
38490189,1922,1,192772,232727,0.42,-0.76,9.96,-0.03,-0.02,-0.00,30.57
38530188,1922,1,192681,230931,0.43,-0.75,9.98,-0.03,-0.02,-0.00,30.57
38570189,1923,1,191734,228407,0.46,-0.78,9.93,-0.03,-0.02,-0.00,30.57
38610188,1924,1,191331,227767,0.44,-0.76,9.93,-0.03,-0.01,-0.00,30.57
38650189,1919,1,191302,227700,0.43,-0.77,9.93,-0.03,-0.01,-0.01,30.57
38690188,1926,1,191417,227937,0.43,-0.77,10.00,-0.04,-0.01,-0.01,30.57
38730190,1929,1,191517,228448,0.44,-0.78,9.97,-0.03,-0.01,-0.01,30.57
38770188,1935,1,191805,229438,0.42,-0.75,9.95,-0.04,-0.00,-0.01,30.57
38810190,1930,1,192052,230167,0.41,-0.77,9.97,-0.04,-0.00,-0.01,30.57
38850188,1936,1,192199,230544,0.41,-0.77,9.94,-0.03,-0.00,-0.01,30.57
38890190,1934,1,192269,230836,0.40,-0.77,9.97,-0.03,-0.01,-0.01,30.57
38930189,1933,1,192389,231141,0.43,-0.76,9.98,-0.03,-0.01,-0.01,30.57
38970190,1923,1,192414,231286,0.43,-0.79,9.98,-0.03,-0.01,-0.01,30.57
39010188,1920,1,192391,231220,0.43,-0.75,9.93,-0.03,-0.01,-0.00,30.57
39050190,1938,1,192476,231729,0.43,-0.78,9.92,-0.03,-0.01,-0.00,30.57
39090188,1939,1,192746,232575,0.42,-0.76,9.96,-0.03,-0.01,-0.01,30.57
39130190,1942,1,193020,232725,0.44,-0.77,9.96,-0.03,-0.01,-0.01,30.57
39170188,1932,1,192824,231446,0.43,-0.75,9.98,-0.03,-0.01,-0.00,30.57
39210189,1925,1,191916,228200,0.46,-0.76,9.91,-0.03,-0.02,-0.01,30.57
39250188,1920,1,191271,227183,0.42,-0.76,9.97,-0.03,-0.01,-0.00,30.57
39290875,1919,1,191280,227240,0.43,-0.77,9.95,-0.03,-0.01,-0.00,30.63
39329187,1936,1,191346,227526,0.41,-0.79,9.97,-0.04,-0.01,-0.01,30.63
39369190,1936,1,191426,227787,0.44,-0.75,9.95,-0.03,-0.00,-0.01,30.63
39409188,1936,1,191480,228076,0.43,-0.77,9.94,-0.03,-0.01,-0.00,30.63
39449189,1937,1,191576,228156,0.43,-0.77,9.96,-0.03,-0.01,-0.00,30.63
39489188,1936,1,191525,228291,0.42,-0.77,9.96,-0.03,-0.01,-0.01,30.63
39529190,1926,1,191616,228637,0.41,-0.79,9.95,-0.03,-0.01,-0.01,30.63
39569188,1930,1,191862,229450,0.43,-0.78,9.93,-0.03,-0.01,-0.00,30.63
39609189,1934,1,192188,230469,0.41,-0.78,9.96,-0.03,-0.00,-0.01,30.63
39649188,1936,1,192424,231111,0.41,-0.78,9.96,-0.03,-0.01,-0.01,30.63
39689189,1917,1,192533,231426,0.44,-0.76,9.94,-0.03,-0.01,-0.01,30.63
39729188,1936,1,192620,231564,0.43,-0.78,9.96,-0.03,-0.01,-0.01,30.63
39769189,1935,1,192700,231931,0.43,-0.77,9.94,-0.03,-0.01,-0.00,30.63
39809188,1933,1,192918,232580,0.43,-0.78,9.96,-0.03,-0.01,-0.00,30.63
39849190,1937,1,193048,232564,0.40,-0.78,9.97,-0.03,-0.01,-0.00,30.63
39889188,1936,1,192458,229414,0.41,-0.75,9.98,-0.04,-0.00,-0.00,30.63
39929190,1935,1,191674,228370,0.40,-0.77,9.96,-0.03,-0.01,-0.01,30.63
39969188,1936,1,191463,228085,0.44,-0.77,9.93,-0.03,-0.01,-0.00,30.63
40009194,1946,1,191402,227980,0.43,-0.76,9.95,-0.03,-0.01,-0.01,30.63
40049188,1961,1,191394,228045,0.42,-0.75,9.96,-0.03,-0.01,-0.00,30.63
40089189,1963,1,191548,228982,0.41,-0.77,9.90,-0.03,-0.01,-0.01,30.63
40129188,1959,1,191980,230191,0.42,-0.76,9.93,-0.04,-0.01,-0.01,30.63
40169190,1975,1,192257,230604,0.43,-0.79,9.95,-0.03,-0.01,-0.00,30.63
40209188,1969,1,192317,230517,0.40,-0.76,9.98,-0.03,-0.01,-0.01,30.63
40249189,1971,1,192227,230556,0.41,-0.77,9.97,-0.03,-0.01,-0.00,30.63
40289188,1983,1,192280,230838,0.42,-0.76,9.96,-0.03,-0.01,-0.00,30.63
40329875,1977,1,192405,231531,0.43,-0.77,9.93,-0.03,-0.01,-0.01,30.57
40370189,2000,1,192852,232920,0.43,-0.78,9.96,-0.04,-0.00,-0.01,30.57
40410189,1987,1,193285,234018,0.42,-0.77,9.96,-0.03,-0.01,-0.01,30.57
40449188,1984,1,193540,234696,0.42,-0.76,9.98,-0.03,-0.01,-0.00,30.57
40489189,1984,1,193651,235037,0.42,-0.76,9.95,-0.03,-0.01,-0.01,30.57
40529188,1971,1,193774,235391,0.42,-0.77,9.94,-0.03,-0.01,-0.00,30.57
40569190,1984,1,193893,235396,0.41,-0.79,9.93,-0.03,-0.01,-0.01,30.57
40609188,1966,1,193440,232010,0.43,-0.79,9.96,-0.03,-0.01,-0.00,30.57
40649189,1967,1,192047,229403,0.43,-0.77,9.95,-0.04,-0.01,-0.01,30.57
40689188,1968,1,191774,229300,0.42,-0.78,9.96,-0.03,-0.01,-0.01,30.57
40729189,1968,1,191693,229204,0.39,-0.75,9.98,-0.03,-0.01,-0.01,30.57
40769188,1957,1,191674,229240,0.43,-0.76,9.97,-0.03,-0.01,-0.00,30.57
40809189,1954,1,191735,229856,0.43,-0.77,9.95,-0.03,-0.01,-0.00,30.57
40849188,1951,1,192147,231074,0.42,-0.79,9.93,-0.03,-0.01,-0.01,30.57
40889189,1951,1,192497,231967,0.40,-0.77,9.93,-0.04,-0.00,-0.01,30.57
40929188,1947,1,192695,232466,0.40,-0.76,9.95,-0.04,-0.01,-0.00,30.57
40969189,1938,1,192836,232915,0.43,-0.77,9.96,-0.03,-0.01,-0.00,30.57
41009188,1938,1,192913,233171,0.41,-0.79,9.95,-0.03,-0.01,-0.01,30.57
41049190,1923,1,192943,233292,0.41,-0.75,9.96,-0.03,-0.01,-0.01,30.57
41089188,1927,1,193057,233573,0.42,-0.75,9.97,-0.03,-0.01,-0.00,30.57
41129190,1922,1,193173,234309,0.42,-0.76,9.94,-0.03,-0.01,-0.01,30.57
41169188,1914,1,193488,235353,0.42,-0.77,9.95,-0.03,-0.01,-0.01,30.57
41209189,1904,1,193798,236289,0.42,-0.76,9.96,-0.03,-0.01,-0.01,30.57
41249188,1911,1,194076,236670,0.40,-0.77,9.97,-0.03,-0.01,-0.01,30.57
41289189,1904,1,194074,236759,0.41,-0.76,9.96,-0.03,-0.01,-0.01,30.57
41329874,1904,1,194090,236905,0.40,-0.76,9.94,-0.03,-0.01,-0.01,30.67
41370190,1902,1,194108,236235,0.42,-0.78,9.91,-0.03,-0.01,-0.01,30.67
41410188,1901,1,193108,231409,0.44,-0.76,9.91,-0.03,-0.01,-0.01,30.67
41449224,1903,1,191930,229910,0.44,-0.76,9.93,-0.03,-0.01,-0.01,30.67
41489188,1895,1,191856,230188,0.43,-0.77,9.95,-0.03,-0.01,-0.01,30.67
41529189,1899,1,191900,230074,0.41,-0.76,9.93,-0.03,-0.01,-0.01,30.67
41569188,1900,1,191831,230175,0.42,-0.75,9.96,-0.03,-0.01,-0.01,30.67
41609189,1891,1,192041,231175,0.42,-0.76,9.97,-0.03,-0.01,-0.01,30.67
41649211,1893,1,192364,231850,0.42,-0.79,9.95,-0.03,-0.01,-0.00,30.67
41689189,1894,1,192603,232739,0.43,-0.76,9.94,-0.03,-0.01,-0.00,30.67
41729187,1895,1,192944,233766,0.42,-0.78,9.96,-0.04,-0.00,-0.01,30.67
41769190,1887,1,193202,234283,0.41,-0.77,9.94,-0.03,-0.01,-0.00,30.67
41809187,1903,1,193267,234314,0.40,-0.76,9.97,-0.03,-0.01,-0.00,30.67
41849189,1900,1,193238,234366,0.42,-0.76,9.94,-0.03,-0.01,-0.00,30.67
41889187,1895,1,193338,234719,0.43,-0.74,9.94,-0.03,-0.01,-0.01,30.67
41929189,1913,1,193503,235263,0.43,-0.77,9.94,-0.03,-0.01,-0.01,30.67
41969188,1906,1,193769,236351,0.43,-0.78,9.95,-0.04,-0.00,-0.01,30.67
42009189,1915,1,194098,237333,0.39,-0.76,9.93,-0.03,-0.01,-0.00,30.67
42049188,1905,1,194380,237803,0.41,-0.77,9.96,-0.03,-0.01,-0.01,30.67
42089189,1909,1,194408,237722,0.40,-0.75,9.97,-0.03,-0.01,-0.00,30.67
42129187,1889,1,194296,236326,0.40,-0.79,9.94,-0.03,-0.02,-0.00,30.67
42169189,1898,1,192990,230915,0.41,-0.77,9.94,-0.03,-0.01,-0.01,30.67
42209188,1904,1,191869,229637,0.42,-0.77,9.94,-0.03,-0.01,-0.01,30.67
42249189,1904,1,191922,230319,0.42,-0.75,9.99,-0.03,-0.01,-0.01,30.67
42289188,1921,1,192088,230531,0.43,-0.79,9.97,-0.03,-0.01,-0.00,30.67
42329190,1910,1,192035,230482,0.41,-0.78,9.96,-0.03,-0.01,-0.00,30.67
42369873,1904,1,192097,231164,0.43,-0.74,9.95,-0.03,-0.02,-0.00,30.77
42410189,1904,1,192460,231903,0.43,-0.77,9.94,-0.03,-0.01,-0.01,30.77
42450188,1920,1,192560,231960,0.42,-0.78,9.96,-0.03,-0.01,-0.01,30.77
42489189,1932,1,192595,232114,0.42,-0.77,9.94,-0.03,-0.01,-0.00,30.77
42529188,1921,1,192784,232926,0.43,-0.77,9.96,-0.03,-0.01,-0.01,30.77
42569190,1930,1,192981,233063,0.40,-0.77,9.96,-0.03,-0.01,-0.01,30.77
42609188,1925,1,192901,232980,0.39,-0.76,9.98,-0.03,-0.01,-0.00,30.77
42649189,1936,1,192876,232638,0.42,-0.78,9.97,-0.03,-0.01,-0.01,30.77
42689188,1923,1,192661,231851,0.43,-0.77,9.94,-0.03,-0.02,-0.00,30.77
42729189,1935,1,192511,231574,0.43,-0.79,9.92,-0.03,-0.01,-0.00,30.77
42769189,1951,1,192589,232375,0.43,-0.77,9.94,-0.03,-0.01,-0.01,30.77
42809190,1939,1,193121,233951,0.42,-0.75,9.93,-0.03,-0.00,-0.01,30.77
42849188,1949,1,193542,234147,0.45,-0.77,9.97,-0.03,-0.00,-0.01,30.77
42889189,1953,1,192641,229789,0.40,-0.75,10.00,-0.03,-0.01,-0.00,30.77
42929188,1946,1,191532,228437,0.40,-0.78,9.94,-0.03,-0.01,-0.01,30.77
42969190,1939,1,191385,228576,0.42,-0.78,9.98,-0.03,-0.01,-0.01,30.77
43009188,1950,1,191513,229030,0.43,-0.79,9.96,-0.03,-0.01,-0.01,30.77
43049189,1947,1,191708,229591,0.42,-0.78,9.94,-0.03,-0.01,-0.01,30.77
43089197,1947,1,191977,231077,0.42,-0.75,9.96,-0.04,-0.01,-0.01,30.77
43129190,1950,1,192481,231995,0.40,-0.75,9.95,-0.03,-0.01,-0.00,30.77
43169188,1936,1,192441,231697,0.40,-0.77,9.93,-0.03,-0.01,-0.01,30.77
43209189,1946,1,192273,231309,0.43,-0.76,9.95,-0.03,-0.01,-0.00,30.77
43249188,1935,1,192136,231148,0.41,-0.78,9.94,-0.03,-0.01,-0.01,30.77
43289221,1943,1,192184,231494,0.42,-0.77,9.95,-0.03,-0.01,-0.01,30.77
43329188,1946,1,192533,232911,0.41,-0.77,9.94,-0.03,-0.01,-0.00,30.77
43369189,1936,1,193076,234308,0.41,-0.79,9.96,-0.03,-0.00,-0.01,30.77
43409874,1940,1,193337,234895,0.42,-0.76,9.96,-0.03,-0.01,-0.00,30.71
43450189,1921,1,193467,235150,0.43,-0.76,9.95,-0.03,-0.01,-0.00,30.71
43490188,1930,1,193525,235391,0.43,-0.75,9.97,-0.03,-0.01,-0.00,30.71
43530189,1939,1,193650,235558,0.43,-0.76,9.93,-0.03,-0.01,-0.01,30.71
43570188,1930,1,193497,233135,0.41,-0.77,9.95,-0.03,-0.01,-0.00,30.71
43610189,1933,1,191980,229293,0.41,-0.78,9.96,-0.04,-0.01,-0.01,30.71
43650188,1929,1,191343,228887,0.44,-0.75,9.94,-0.03,-0.01,-0.01,30.71
43690189,1925,1,191289,228794,0.42,-0.79,9.95,-0.03,-0.01,-0.01,30.71
43730188,1935,1,191092,228586,0.42,-0.76,9.97,-0.03,-0.01,-0.00,30.71
43770189,1936,1,191021,228566,0.41,-0.75,9.96,-0.03,-0.01,-0.01,30.71
43810188,1926,1,191091,228880,0.41,-0.77,9.97,-0.03,-0.01,-0.00,30.71
43850189,1930,1,191148,228839,0.44,-0.79,9.95,-0.03,-0.01,-0.00,30.71
43890188,1919,1,191142,228920,0.41,-0.76,9.93,-0.03,-0.01,-0.01,30.71
43930190,1934,1,191253,229160,0.40,-0.79,9.93,-0.03,-0.01,-0.01,30.71
43970188,1936,1,191369,229563,0.43,-0.76,9.94,-0.03,-0.01,-0.00,30.71
44010190,1928,1,191558,229843,0.43,-0.76,9.96,-0.03,-0.01,-0.00,30.71
44050188,1927,1,191667,230035,0.42,-0.77,9.95,-0.03,-0.02,-0.01,30.71
44090189,1927,1,191765,230330,0.43,-0.78,9.95,-0.03,-0.01,-0.00,30.71
44130188,1936,1,192000,230790,0.40,-0.78,9.96,-0.03,-0.01,-0.01,30.71
44170189,1936,1,192207,231434,0.40,-0.75,9.99,-0.03,-0.02,-0.00,30.71
44210188,1926,1,192576,232397,0.44,-0.79,9.96,-0.03,-0.01,-0.00,30.71
44250189,1931,1,192921,232713,0.42,-0.76,10.00,-0.03,-0.01,-0.01,30.71
44290188,1930,1,192327,229104,0.42,-0.76,9.95,-0.03,-0.01,-0.01,30.71
44330189,1929,1,191408,227912,0.44,-0.75,9.95,-0.03,-0.01,-0.00,30.71
44370188,1931,1,191226,228059,0.41,-0.77,9.96,-0.03,-0.01,-0.00,30.71
44410875,1919,1,191363,228227,0.41,-0.74,9.92,-0.04,-0.01,-0.01,30.51
44449188,1936,1,191304,227883,0.40,-0.78,9.98,-0.03,-0.02,-0.00,30.51
44489190,1936,1,191245,227507,0.41,-0.76,9.98,-0.03,-0.03,-0.00,30.51
44529188,1959,1,191662,227841,0.44,-0.77,9.96,-0.03,-0.06,0.00,30.51
44569173,1906,1,192354,228458,0.46,-0.74,9.93,-0.03,-0.05,0.00,30.51
44609173,1920,1,193068,229416,0.52,-0.77,9.87,-0.03,-0.02,-0.00,30.51
44649189,1899,1,193546,230661,0.48,-0.76,9.92,-0.04,0.01,-0.01,30.51
44689173,1901,1,193953,231932,0.45,-0.76,10.00,-0.04,0.01,-0.01,30.51
44729173,1887,1,194187,232475,0.46,-0.77,9.98,-0.03,0.00,-0.01,30.51
44769172,1889,1,194066,232112,0.47,-0.76,9.94,-0.03,-0.02,-0.01,30.51
44809189,1872,1,193927,231510,0.45,-0.75,9.98,-0.03,-0.02,-0.01,30.51
44849188,1866,1,193856,230853,0.48,-0.77,9.93,-0.03,-0.03,-0.00,30.51
44889190,1874,1,193922,230940,0.50,-0.77,9.89,-0.03,-0.03,-0.00,30.51
44929191,1851,1,194213,231422,0.47,-0.78,9.91,-0.04,0.01,-0.01,30.51
44969173,1854,1,193771,230267,0.48,-0.76,9.94,-0.04,0.01,-0.01,30.51
45009173,1870,1,193144,230086,0.45,-0.75,9.94,-0.04,0.04,-0.01,30.51
45049172,1893,1,192805,229955,0.38,-0.75,10.00,-0.04,0.02,-0.01,30.51
45089173,1902,1,192398,228761,0.40,-0.75,10.01,-0.03,-0.03,-0.00,30.51
45129194,1904,1,192166,228033,0.45,-0.74,10.00,-0.03,-0.04,-0.00,30.51
45169188,1929,1,192484,228273,0.47,-0.78,9.93,-0.03,-0.04,-0.00,30.51
45209189,1936,1,193019,228872,0.52,-0.79,9.92,-0.03,-0.04,-0.00,30.51
45249187,1933,1,193413,230575,0.45,-0.76,9.95,-0.04,0.01,-0.01,30.51
45289173,1947,1,194023,233665,0.45,-0.77,9.92,-0.04,0.03,-0.01,30.51
45329173,1949,1,194666,236443,0.39,-0.76,10.01,-0.04,0.03,-0.01,30.51
45369172,1968,1,194905,236123,0.39,-0.75,10.00,-0.03,-0.01,-0.01,30.51
45409188,1968,1,194204,233082,0.43,-0.74,10.00,-0.03,-0.04,-0.00,30.51
45449875,1952,1,193566,231135,0.43,-0.74,9.95,-0.03,-0.05,-0.00,30.51
45490188,1958,1,193752,230839,0.49,-0.77,9.90,-0.03,-0.06,-0.00,30.51
45530188,1946,1,194169,231910,0.52,-0.81,9.90,-0.03,-0.02,-0.00,30.51
45570188,1940,1,194822,234724,0.47,-0.76,9.94,-0.04,0.02,-0.01,30.51
45610172,1946,1,195561,235896,0.43,-0.74,9.98,-0.04,0.03,-0.01,30.51
45650172,1943,1,194366,231510,0.43,-0.76,9.99,-0.04,0.02,-0.01,30.51
45690172,1935,1,192943,229170,0.41,-0.74,9.96,-0.03,-0.02,-0.00,30.51
45730188,1959,1,192446,228045,0.43,-0.75,9.98,-0.03,-0.03,-0.00,30.51
45770189,1937,1,192427,227773,0.45,-0.77,9.96,-0.03,-0.03,-0.00,30.51
45810188,1931,1,192624,228735,0.47,-0.82,9.90,-0.03,-0.01,-0.01,30.51
45850190,1927,1,193189,231402,0.46,-0.77,9.95,-0.04,0.02,-0.01,30.51
45890172,1930,1,193849,233668,0.41,-0.77,9.96,-0.04,0.02,-0.01,30.51
45930172,1936,1,194090,233451,0.40,-0.74,9.99,-0.04,-0.00,-0.01,30.51
45970188,1927,1,193307,230600,0.41,-0.76,10.04,-0.03,-0.03,-0.00,30.51
46010189,1929,1,192710,229254,0.45,-0.77,9.96,-0.03,-0.05,-0.00,30.51
46050188,1933,1,193075,229463,0.45,-0.76,9.94,-0.03,-0.06,-0.00,30.51
46090188,1901,1,193682,230449,0.49,-0.77,9.89,-0.03,-0.04,-0.00,30.51
46130189,1932,1,194372,232139,0.48,-0.79,9.94,-0.04,-0.01,-0.00,30.51
46170189,1915,1,195178,234171,0.49,-0.74,9.96,-0.04,-0.00,-0.01,30.51
46210188,1916,1,195807,235580,0.47,-0.75,9.95,-0.04,0.00,-0.01,30.51
46250172,1910,1,196193,235820,0.47,-0.76,9.95,-0.03,-0.02,-0.01,30.51
46290188,1892,1,195595,232436,0.51,-0.76,9.94,-0.03,-0.01,-0.01,30.51
46330189,1904,1,194679,231163,0.48,-0.76,9.96,-0.03,0.00,-0.01,30.51
46370172,1901,1,194501,231177,0.45,-0.77,9.97,-0.03,-0.00,-0.01,30.51
46410190,1919,1,194502,231575,0.48,-0.75,9.94,-0.04,0.00,-0.01,30.51
46450858,1898,1,194347,231746,0.46,-0.78,9.97,-0.04,0.03,-0.01,30.71
46489173,1911,1,194167,232250,0.45,-0.78,9.96,-0.04,0.01,-0.01,30.71
46529173,1939,1,194247,233526,0.46,-0.74,9.93,-0.04,0.02,-0.01,30.71
46569206,1968,1,194381,234614,0.41,-0.75,9.97,-0.04,0.02,-0.01,30.71
46609172,1939,1,194237,235119,0.39,-0.78,9.99,-0.04,0.00,-0.01,30.71
46649172,1948,1,194154,234804,0.41,-0.76,9.96,-0.03,-0.01,-0.01,30.71
46689188,1936,1,193903,233432,0.42,-0.79,9.97,-0.03,-0.02,-0.00,30.71
46729189,1951,1,193448,232022,0.45,-0.76,9.95,-0.03,-0.04,-0.00,30.71
46769194,1927,1,193334,231481,0.43,-0.78,9.96,-0.03,-0.04,-0.00,30.71
46809189,1957,1,193469,231678,0.43,-0.76,9.92,-0.03,-0.04,-0.00,30.71
46849188,1960,1,193892,232080,0.46,-0.75,9.95,-0.03,-0.04,-0.00,30.71
46889189,1985,1,194278,232087,0.48,-0.77,9.96,-0.03,-0.04,-0.00,30.71
46929188,1953,1,194434,231308,0.46,-0.77,10.01,-0.03,-0.05,0.00,30.71
46969173,1939,1,194133,229291,0.56,-0.75,9.91,-0.03,-0.05,0.01,30.71
47009173,1959,1,193728,228610,0.53,-0.78,9.90,-0.03,0.01,-0.01,30.71
47049173,1937,1,193612,228922,0.48,-0.77,9.92,-0.04,0.02,-0.01,30.71
47089173,1995,1,193634,229481,0.46,-0.77,9.94,-0.04,0.03,-0.01,30.71
47129172,1925,1,193632,230398,0.47,-0.76,9.93,-0.04,0.04,-0.01,30.71
47169172,1959,1,193793,232443,0.42,-0.77,10.02,-0.04,0.04,-0.01,30.71
47209172,1951,1,194247,233723,0.39,-0.76,10.00,-0.04,-0.01,-0.01,30.71
47249188,1951,1,194404,233648,0.45,-0.76,9.95,-0.03,-0.02,-0.01,30.71
47289189,1953,1,194223,233122,0.43,-0.77,9.98,-0.03,-0.02,-0.01,30.71
47329188,1961,1,194072,232296,0.42,-0.79,9.96,-0.03,-0.05,-0.00,30.71
47369189,1969,1,194132,232280,0.45,-0.77,9.97,-0.03,-0.04,-0.00,30.71
47409188,1949,1,194296,232117,0.44,-0.77,9.99,-0.03,-0.04,-0.00,30.71
47449190,1937,1,194549,231875,0.47,-0.77,9.96,-0.03,-0.07,0.00,30.71
47489859,1964,1,194912,232087,0.55,-0.78,9.85,-0.03,-0.03,-0.00,30.91
47530189,1965,1,195339,234101,0.49,-0.76,9.94,-0.03,-0.00,-0.01,30.91
47570188,2009,1,196423,239551,0.62,-0.76,9.70,-0.05,0.11,-0.01,30.91
47610172,1974,1,197123,241755,0.43,-0.84,10.03,-0.05,0.16,-0.06,30.91
47650172,2012,1,196584,239807,0.24,-0.71,9.98,-0.03,0.00,-0.10,30.91
47690172,2019,1,195245,237221,0.29,-0.69,10.01,-0.03,-0.02,-0.01,30.91
47730188,1998,1,194726,236742,0.39,-0.76,9.94,-0.03,-0.05,-0.00,30.91
47770187,2002,1,194984,237722,0.40,-0.75,9.93,-0.03,-0.04,-0.00,30.91
47810186,2006,1,195462,238687,0.41,-0.75,9.94,-0.03,-0.02,-0.01,30.91
47850188,1990,1,195627,238549,0.43,-0.75,9.95,-0.03,-0.02,-0.00,30.91
47890187,1966,1,195352,236347,0.43,-0.74,9.99,-0.03,-0.05,-0.00,30.91
47930187,1942,1,194666,233300,0.44,-0.74,9.98,-0.03,-0.07,0.00,30.91
47970172,1951,1,194439,232192,0.46,-0.76,9.94,-0.03,-0.08,0.01,30.91
48010172,1943,1,194787,232259,0.52,-0.77,9.90,-0.03,-0.03,0.00,30.91
48050166,1936,1,195080,232636,0.51,-0.76,9.92,-0.03,-0.01,-0.00,30.91
48090188,1954,1,195384,233413,0.51,-0.75,9.95,-0.03,-0.01,-0.00,30.91
48130187,1968,1,195729,234473,0.51,-0.77,9.95,-0.04,0.02,-0.01,30.91
48170172,1949,1,195817,235300,0.46,-0.75,9.96,-0.04,0.06,-0.01,30.91
48210172,1959,1,196005,237394,0.44,-0.76,9.95,-0.04,0.01,-0.01,30.91
48250172,1920,1,196660,240009,0.45,-0.76,9.96,-0.04,0.01,-0.01,30.91
48290166,1908,1,197201,241001,0.40,-0.78,9.99,-0.03,-0.01,-0.01,30.91
48330188,1936,1,197153,239005,0.46,-0.76,9.97,-0.03,-0.04,-0.00,30.91
48370187,1903,1,195371,232543,0.47,-0.74,9.94,-0.03,-0.02,-0.01,30.91
48410188,1883,1,193894,230378,0.42,-0.75,9.97,-0.03,-0.01,-0.00,30.91
48450187,1906,1,193609,229705,0.45,-0.74,10.00,-0.03,-0.03,-0.00,30.91
48490873,1885,1,193552,229567,0.49,-0.77,9.91,-0.03,-0.02,-0.00,30.87
48529188,1879,1,193608,229792,0.45,-0.78,9.95,-0.03,-0.01,-0.01,30.87
48569189,1887,1,193762,230194,0.46,-0.77,9.96,-0.03,-0.01,-0.01,30.87
48609213,1863,1,193974,230302,0.45,-0.78,9.95,-0.03,-0.03,-0.00,30.87
48649188,1872,1,194223,230404,0.49,-0.75,9.91,-0.03,-0.03,-0.00,30.87
48689187,1879,1,194328,230661,0.51,-0.76,9.92,-0.03,-0.01,-0.00,30.87
48729188,1886,1,194682,231662,0.48,-0.76,9.96,-0.04,-0.00,-0.01,30.87
48769187,1882,1,195144,233170,0.46,-0.76,9.95,-0.04,0.00,-0.01,30.87
48809172,1903,1,195620,234895,0.47,-0.76,9.96,-0.04,0.00,-0.01,30.87
48849167,1883,1,196216,236666,0.48,-0.75,9.97,-0.04,0.00,-0.01,30.87
48889172,1911,1,196564,237362,0.46,-0.75,9.96,-0.04,0.01,-0.01,30.87
48929172,1910,1,196380,236564,0.44,-0.75,9.97,-0.03,-0.01,-0.01,30.87
48969189,1920,1,196012,235750,0.48,-0.77,9.96,-0.03,-0.02,-0.00,30.87
49009187,1898,1,195864,235215,0.45,-0.76,9.96,-0.03,-0.01,-0.00,30.87
49049188,1933,1,195364,232040,0.47,-0.77,9.95,-0.03,-0.01,-0.01,30.87
49089186,1924,1,194254,230166,0.48,-0.75,9.96,-0.03,-0.02,-0.00,30.87
49129189,1931,1,193941,229807,0.49,-0.75,9.96,-0.03,-0.02,-0.00,30.87
49169188,1915,1,194031,230001,0.48,-0.77,9.93,-0.03,-0.01,-0.01,30.87
49209189,1943,1,194158,230457,0.48,-0.76,9.95,-0.03,-0.01,-0.01,30.87
49249186,1931,1,194431,231094,0.46,-0.74,9.98,-0.03,-0.01,-0.00,30.87
49289188,1936,1,194599,231221,0.45,-0.75,9.96,-0.03,-0.02,-0.01,30.87
49329187,1952,1,194748,231099,0.48,-0.75,9.94,-0.03,-0.03,-0.00,30.87
49369188,1954,1,194817,231062,0.46,-0.77,9.96,-0.03,-0.02,-0.00,30.87
49409187,1957,1,194932,231217,0.49,-0.75,9.94,-0.03,-0.02,-0.00,30.87
49450188,1962,1,195207,231549,0.50,-0.75,9.97,-0.03,-0.02,-0.00,30.87
49490873,1942,1,195353,232011,0.48,-0.75,9.93,-0.03,-0.01,-0.01,30.59
49529188,1964,1,195587,232484,0.49,-0.74,9.96,-0.03,-0.01,-0.01,30.59
49569187,1968,1,195869,233243,0.48,-0.74,9.94,-0.03,-0.01,-0.01,30.59
49609189,1962,1,196233,234612,0.51,-0.77,9.97,-0.03,-0.00,-0.01,30.59
49649187,1958,1,196788,236165,0.48,-0.75,9.93,-0.04,0.01,-0.01,30.59
49689172,1967,1,196956,235555,0.46,-0.78,9.97,-0.03,-0.01,-0.00,30.59
49729187,1965,1,195954,231788,0.49,-0.76,9.96,-0.03,-0.02,-0.00,30.59
49769188,1953,1,195115,230712,0.49,-0.75,9.94,-0.03,-0.01,-0.01,30.59
49809187,1947,1,194998,230619,0.48,-0.78,9.94,-0.03,-0.01,-0.00,30.59
49849189,1936,1,195060,230868,0.47,-0.75,9.96,-0.04,-0.02,-0.00,30.59
49889188,1952,1,195277,231694,0.48,-0.77,9.94,-0.03,-0.01,-0.01,30.59
49929188,1953,1,195777,233356,0.49,-0.76,9.96,-0.04,-0.01,-0.01,30.59
49969188,1936,1,196326,234130,0.47,-0.75,9.98,-0.03,-0.01,-0.00,30.59
50009189,1952,1,196342,234091,0.48,-0.76,9.94,-0.03,-0.02,-0.00,30.59
50049187,1936,1,196400,234064,0.49,-0.79,9.96,-0.03,-0.01,-0.00,30.59
50089188,1937,1,196295,233740,0.50,-0.76,9.94,-0.03,-0.02,-0.00,30.59
50129187,1942,1,196344,234157,0.52,-0.77,9.95,-0.03,-0.01,-0.00,30.59
50169188,1939,1,196634,234983,0.47,-0.76,9.96,-0.04,-0.01,-0.01,30.59
50209188,1946,1,196944,235706,0.50,-0.75,9.94,-0.03,-0.01,-0.01,30.59
50249202,1942,1,197147,236023,0.50,-0.74,9.95,-0.03,-0.01,-0.01,30.59
50289188,1951,1,197273,236394,0.49,-0.77,9.97,-0.03,-0.02,-0.01,30.59
50329189,1949,1,197395,236241,0.49,-0.75,9.96,-0.03,-0.01,-0.00,30.59
50369188,1955,1,196885,233122,0.50,-0.76,9.95,-0.03,-0.02,-0.00,30.59
50409188,1934,1,195981,231798,0.52,-0.76,9.94,-0.03,-0.03,-0.00,30.59
50449188,1937,1,195894,232053,0.54,-0.77,9.92,-0.03,-0.02,-0.00,30.59
50490189,1931,1,196179,232954,0.53,-0.75,9.95,-0.04,0.01,-0.01,30.59
50530858,1930,1,196303,233766,0.51,-0.78,9.95,-0.04,0.00,-0.01,30.77
50569172,1937,1,196688,235584,0.52,-0.76,9.94,-0.04,0.02,-0.01,30.77
50609172,1968,1,197486,238071,0.48,-0.76,9.98,-0.04,0.02,-0.01,30.77
50649172,1979,1,197840,238978,0.46,-0.78,9.99,-0.04,0.01,-0.01,30.77
50689172,1950,1,197915,239099,0.47,-0.76,9.95,-0.03,-0.01,-0.01,30.77
50729189,1956,1,197808,238839,0.47,-0.78,9.98,-0.03,-0.01,-0.01,30.77
50769188,1942,1,197675,238516,0.47,-0.78,9.95,-0.03,-0.01,-0.00,30.77
50809190,1950,1,197551,237982,0.46,-0.78,9.96,-0.03,-0.02,-0.00,30.77
50849188,1943,1,197362,237480,0.46,-0.74,9.97,-0.03,-0.03,-0.00,30.77
50889190,1952,1,197384,237869,0.52,-0.78,9.94,-0.03,-0.02,-0.00,30.77
50929188,1931,1,197688,238913,0.49,-0.74,9.97,-0.03,-0.01,-0.00,30.77
50969189,1946,1,197997,239424,0.49,-0.77,9.97,-0.03,-0.01,-0.01,30.77
51009188,1936,1,197955,237258,0.51,-0.78,9.93,-0.03,-0.01,-0.01,30.77
51049190,1940,1,196280,232934,0.50,-0.77,9.95,-0.03,-0.01,-0.00,30.77
51089188,1929,1,195608,232401,0.49,-0.76,9.96,-0.03,-0.01,-0.01,30.77
51129190,1943,1,195595,232735,0.49,-0.77,9.95,-0.04,-0.01,-0.01,30.77
51169188,1952,1,195675,232798,0.48,-0.76,9.95,-0.03,-0.01,-0.01,30.77
51209189,1936,1,195631,232624,0.49,-0.76,9.96,-0.03,-0.01,-0.00,30.77
51249188,1942,1,195560,232506,0.49,-0.77,9.96,-0.03,-0.02,-0.00,30.77
51289190,1936,1,195613,232303,0.50,-0.75,9.93,-0.03,-0.03,-0.00,30.77
51329188,1939,1,195634,232350,0.50,-0.75,9.93,-0.03,-0.03,-0.00,30.77
51369189,1927,1,195756,232510,0.52,-0.74,9.94,-0.03,-0.02,-0.00,30.77
51409188,1937,1,195901,232651,0.52,-0.77,9.98,-0.03,-0.02,-0.00,30.77
51449190,1951,1,196002,232736,0.52,-0.76,9.93,-0.03,-0.03,-0.00,30.77
51490188,1923,1,196174,232740,0.53,-0.75,9.91,-0.03,-0.01,-0.00,30.77
51530189,1935,1,196137,232888,0.55,-0.76,9.95,-0.03,-0.00,-0.01,30.77
51570874,1921,1,196296,233814,0.50,-0.76,9.95,-0.04,0.00,-0.01,30.67
51609172,1936,1,196741,235308,0.51,-0.74,9.92,-0.04,0.02,-0.01,30.67
51649172,1943,1,197224,236461,0.50,-0.80,9.97,-0.04,0.01,-0.01,30.67
51689213,1951,1,196827,233497,0.50,-0.74,9.95,-0.03,-0.00,-0.01,30.67
51729188,1974,1,195807,232127,0.48,-0.74,9.94,-0.03,-0.00,-0.01,30.67
51769190,1949,1,195479,232001,0.47,-0.78,9.93,-0.03,0.01,-0.01,30.67
51809172,1957,1,195431,232062,0.46,-0.77,9.99,-0.03,-0.01,-0.01,30.67
51849190,1949,1,195400,231923,0.48,-0.77,9.97,-0.03,-0.02,-0.00,30.67
51889191,1937,1,195390,232049,0.51,-0.77,9.95,-0.03,-0.02,-0.01,30.67
51929190,1947,1,195497,232000,0.48,-0.76,9.94,-0.03,-0.02,-0.00,30.67
51969187,1937,1,195374,231283,0.48,-0.75,9.98,-0.03,-0.05,-0.00,30.67
52009190,1936,1,195341,230865,0.46,-0.71,9.95,-0.03,-0.06,0.00,30.67
52049173,1898,1,195561,231111,0.58,-0.80,9.90,-0.03,-0.05,0.01,30.67
52089173,1912,1,195829,231493,0.56,-0.77,9.91,-0.04,-0.01,-0.00,30.67
52129190,1907,1,195908,231616,0.56,-0.77,9.94,-0.04,-0.01,-0.01,30.67
52169194,1889,1,195979,231339,0.53,-0.75,9.96,-0.03,-0.00,-0.00,30.67
52209189,1878,1,195826,230993,0.54,-0.75,9.97,-0.03,-0.01,-0.00,30.67
52249191,1875,1,195866,231649,0.56,-0.77,9.94,-0.03,-0.00,-0.00,30.67
52289188,1861,1,196372,232681,0.57,-0.77,9.96,-0.04,0.03,-0.01,30.67
52329174,1862,1,196624,232444,0.54,-0.79,9.95,-0.03,-0.00,-0.01,30.67
52369190,1855,1,196082,230564,0.50,-0.77,9.98,-0.03,-0.00,-0.00,30.67
52409190,1840,1,195485,229473,0.52,-0.75,9.98,-0.03,-0.02,-0.00,30.67
52449189,1841,1,195251,229251,0.53,-0.77,9.92,-0.03,-0.01,-0.01,30.67
52489191,1839,1,195305,229658,0.52,-0.78,9.95,-0.03,-0.00,-0.00,30.67
52530189,1830,1,195732,231247,0.53,-0.78,9.89,-0.04,0.02,-0.01,30.67
52570858,1862,1,196523,234234,0.52,-0.78,9.96,-0.04,0.04,-0.01,30.63
52609173,1894,1,197300,235600,0.46,-0.76,9.98,-0.04,0.00,-0.01,30.63
52649173,1891,1,197382,235424,0.50,-0.76,9.99,-0.03,-0.04,-0.00,30.63
52689188,1904,1,197658,236745,0.49,-0.76,9.96,-0.03,-0.01,-0.01,30.63
52729190,1910,1,198165,237571,0.50,-0.78,9.95,-0.03,-0.02,-0.00,30.63
52769188,1922,1,198310,237499,0.51,-0.76,9.89,-0.03,-0.02,-0.00,30.63
52809190,1917,1,198315,236921,0.50,-0.77,9.98,-0.03,-0.02,-0.00,30.63
52849188,1914,1,198217,235608,0.53,-0.78,9.97,-0.03,-0.04,-0.00,30.63
52889191,1920,1,198079,235668,0.54,-0.74,9.93,-0.03,-0.00,-0.01,30.63
52929189,1910,1,198279,236399,0.49,-0.77,9.94,-0.03,0.01,-0.01,30.63
52969173,1904,1,198344,235786,0.50,-0.77,9.91,-0.03,-0.00,-0.01,30.63
53009188,1904,1,197289,231953,0.50,-0.76,9.98,-0.03,-0.00,-0.01,30.63
53049190,1894,1,196116,230281,0.50,-0.77,9.97,-0.03,-0.01,-0.01,30.63
53089189,1902,1,195719,229985,0.52,-0.76,9.93,-0.03,0.00,-0.01,30.63
53129173,1966,1,195664,229982,0.48,-0.75,9.98,-0.04,0.00,-0.01,30.63
53169173,1923,1,195493,230088,0.45,-0.73,9.95,-0.03,-0.01,-0.01,30.63
53209190,1942,1,195673,230495,0.50,-0.76,9.91,-0.03,-0.01,-0.00,30.63
53249187,1943,1,195849,230794,0.50,-0.76,9.96,-0.03,-0.01,-0.01,30.63
53289190,1953,1,196016,231284,0.49,-0.78,9.96,-0.03,-0.01,-0.00,30.63
53329206,1967,1,196202,232148,0.48,-0.79,9.93,-0.03,-0.01,-0.01,30.63
53369190,1969,1,196637,233653,0.51,-0.76,9.95,-0.03,-0.00,-0.01,30.63
53409188,2005,1,197325,235463,0.49,-0.74,10.00,-0.03,-0.00,-0.01,30.63
53449190,1987,1,197816,236821,0.47,-0.75,9.93,-0.03,-0.01,-0.00,30.63
53489187,1998,1,198434,238786,0.49,-0.76,9.96,-0.03,-0.01,-0.01,30.63
53530189,1986,1,198995,240123,0.51,-0.75,9.96,-0.03,-0.02,-0.01,30.63
53570875,1986,1,199165,240350,0.47,-0.76,9.97,-0.03,-0.02,-0.01,30.85
53609190,2003,1,199248,239298,0.50,-0.76,9.96,-0.04,-0.02,-0.01,30.85
53649188,2003,1,197780,234233,0.49,-0.79,9.96,-0.04,-0.01,-0.00,30.85
53689190,1994,1,197189,234399,0.50,-0.77,9.93,-0.03,-0.01,-0.01,30.85
53729212,1990,1,197457,235198,0.50,-0.78,9.94,-0.04,-0.00,-0.01,30.85
53769190,2018,1,197577,235252,0.49,-0.75,9.96,-0.04,-0.00,-0.01,30.85
53809188,2016,1,197397,234581,0.45,-0.77,9.97,-0.03,-0.01,-0.00,30.85
53849190,2007,1,197329,234586,0.50,-0.77,9.93,-0.03,-0.02,-0.00,30.85
53889188,2013,1,197267,234933,0.50,-0.77,9.95,-0.03,-0.00,-0.00,30.85
53929189,1983,1,197252,234871,0.47,-0.77,9.96,-0.04,0.01,-0.01,30.85
53969173,2018,1,197069,234899,0.47,-0.79,9.93,-0.03,0.01,-0.01,30.85
54009173,2002,1,196993,234707,0.48,-0.77,9.90,-0.03,0.01,-0.01,30.85
54049173,2047,1,196862,234814,0.46,-0.78,9.97,-0.04,0.01,-0.01,30.85
54089173,1996,1,196802,234374,0.46,-0.79,9.98,-0.03,-0.00,-0.01,30.85
54129188,2011,1,196536,233923,0.46,-0.77,9.93,-0.03,-0.02,-0.00,30.85
54169190,1984,1,196370,233541,0.45,-0.74,9.96,-0.03,-0.02,-0.00,30.85
54209188,1984,1,196215,233086,0.46,-0.76,9.94,-0.03,-0.01,-0.00,30.85
54249190,1966,1,196147,232181,0.46,-0.77,9.97,-0.03,-0.02,-0.00,30.85
54289188,1968,1,195412,229689,0.46,-0.77,9.94,-0.03,-0.02,-0.00,30.85
54329190,1959,1,194806,228896,0.48,-0.75,9.95,-0.03,-0.01,-0.01,30.85
54369188,1961,1,194732,228984,0.46,-0.75,9.94,-0.03,-0.00,-0.01,30.85
54409190,1941,1,194800,229204,0.45,-0.76,9.96,-0.04,-0.01,-0.01,30.85
54449188,1949,1,194805,229570,0.47,-0.77,9.93,-0.03,-0.01,-0.01,30.85
54489190,1955,1,194993,230750,0.46,-0.76,9.96,-0.04,0.00,-0.01,30.85
54529172,1978,1,195542,231853,0.45,-0.75,9.95,-0.04,0.00,-0.01,30.85
54570172,1923,1,195511,231580,0.44,-0.77,9.96,-0.03,-0.01,-0.01,30.85
54610875,1918,1,195338,231449,0.47,-0.79,9.93,-0.03,-0.01,-0.01,30.91
54649190,1968,1,195245,231403,0.44,-0.77,9.97,-0.03,0.00,-0.01,30.91
54689173,1958,1,195117,230977,0.43,-0.77,9.97,-0.03,-0.02,-0.00,30.91
54729190,1974,1,195090,230867,0.46,-0.76,9.95,-0.03,-0.01,-0.01,30.91
54769188,1963,1,195057,231269,0.45,-0.78,9.96,-0.03,-0.00,-0.01,30.91
54809190,1982,1,195208,231527,0.46,-0.75,9.95,-0.03,-0.01,-0.01,30.91
54849188,1977,1,195114,231447,0.47,-0.75,9.94,-0.03,-0.01,-0.00,30.91
54889189,1981,1,195173,231329,0.43,-0.77,9.97,-0.03,-0.01,-0.00,30.91
54929188,1982,1,195178,230510,0.45,-0.77,9.95,-0.03,-0.01,-0.00,30.91
54969190,1981,1,194437,228382,0.46,-0.76,9.94,-0.03,-0.01,-0.00,30.91
55009187,1958,1,193764,227379,0.45,-0.76,9.97,-0.04,0.01,-0.00,30.91
55049173,2004,1,193334,226861,0.43,-0.76,9.96,-0.03,-0.01,-0.00,30.91
55089188,1994,1,193009,226511,0.44,-0.78,9.96,-0.03,-0.01,-0.01,30.91
55129190,1990,1,192947,226472,0.45,-0.74,9.96,-0.03,-0.01,-0.01,30.91
55169195,1994,1,193076,227269,0.44,-0.77,9.95,-0.04,-0.01,-0.01,30.91
55209190,1997,1,193330,227836,0.44,-0.77,9.96,-0.03,-0.01,-0.01,30.91
55249188,1991,1,193337,227841,0.45,-0.76,9.94,-0.03,-0.01,-0.01,30.91
55289190,1985,1,193375,227896,0.45,-0.77,9.94,-0.03,-0.01,-0.00,30.91
55329188,2000,1,193465,228425,0.41,-0.76,9.98,-0.03,-0.01,-0.00,30.91
55369211,2000,1,193581,228457,0.42,-0.77,9.96,-0.03,-0.01,-0.00,30.91
55409188,1998,1,193505,228435,0.45,-0.78,9.96,-0.03,-0.02,-0.00,30.91
55449190,1984,1,193644,228247,0.44,-0.77,9.97,-0.03,-0.01,-0.00,30.91
55489188,1979,1,193609,228035,0.48,-0.75,9.96,-0.03,-0.02,-0.00,30.91
55529190,1984,1,193593,227305,0.41,-0.77,10.00,-0.03,-0.03,-0.00,30.91
55569188,1960,1,193505,226005,0.41,-0.77,10.02,-0.02,-0.08,0.00,30.91
55609173,1961,1,193109,222070,0.54,-0.75,9.90,-0.02,-0.08,0.01,30.91
55649859,1922,1,191491,219606,0.61,-0.76,9.85,-0.03,0.00,-0.00,30.73
55690172,1942,1,191837,221464,0.51,-0.74,9.96,-0.04,0.05,-0.01,30.73
55730172,1936,1,192840,223433,0.45,-0.76,9.97,-0.04,0.01,-0.01,30.73
55770172,1921,1,193798,225411,0.43,-0.79,10.01,-0.04,0.01,-0.01,30.73
55810172,1941,1,194307,227405,0.46,-0.78,9.95,-0.04,0.02,-0.01,30.73
55850172,1946,1,194906,230979,0.42,-0.76,9.98,-0.04,-0.01,-0.01,30.73
55890189,1936,1,196794,236768,0.47,-0.77,9.98,-0.03,-0.03,-0.00,30.73
55930190,1946,1,198470,240342,0.47,-0.78,9.92,-0.03,-0.01,-0.01,30.73
55970189,1977,1,199319,242384,0.48,-0.78,9.89,-0.04,0.01,-0.01,30.73
56010172,1938,1,199682,243283,0.37,-0.79,9.97,-0.04,0.02,-0.01,30.73
56050172,1958,1,199896,243117,0.48,-0.76,10.04,-0.03,-0.08,-0.00,30.73
56090190,1979,1,199926,243338,0.53,-0.74,9.93,-0.04,-0.01,-0.00,30.73
56130189,1975,1,199886,243506,0.45,-0.80,9.94,-0.04,0.02,-0.01,30.73
56170172,1968,1,199755,243827,0.43,-0.76,9.93,-0.03,0.01,-0.01,30.73
56210172,1959,1,199887,244556,0.47,-0.77,9.95,-0.03,-0.01,-0.01,30.73
56250191,1964,1,200169,245113,0.46,-0.77,9.99,-0.03,-0.02,-0.01,30.73
56290189,1960,1,200300,245268,0.48,-0.75,9.93,-0.03,-0.00,-0.01,30.73
56330190,1967,1,200122,244885,0.42,-0.77,10.00,-0.03,0.02,-0.01,30.73
56370172,1968,1,199610,242287,0.40,-0.77,9.99,-0.03,-0.01,-0.01,30.73
56410190,1970,1,197913,237308,0.49,-0.76,9.92,-0.03,-0.04,-0.00,30.73
56450189,1974,1,196843,235676,0.51,-0.78,9.95,-0.03,-0.01,-0.00,30.73
56490190,1963,1,196774,235356,0.42,-0.77,9.98,-0.03,-0.01,-0.01,30.73
56530188,1947,1,196549,234637,0.43,-0.74,9.93,-0.03,-0.03,-0.00,30.73
56570190,1937,1,196559,236039,0.47,-0.77,9.90,-0.04,-0.00,-0.01,30.73
56610189,1952,1,197029,237357,0.44,-0.79,9.99,-0.03,-0.00,-0.00,30.73
56650876,1911,1,197223,238328,0.49,-0.75,9.93,-0.03,-0.01,-0.00,30.79
56689187,1968,1,197526,240084,0.47,-0.78,9.95,-0.04,0.00,-0.01,30.79
56729173,1914,1,198057,241339,0.49,-0.79,9.92,-0.04,0.05,-0.01,30.79
56769173,1966,1,198065,241217,0.25,-0.74,10.08,-0.03,0.02,-0.01,30.79
56809204,1974,1,197832,240574,0.46,-0.78,10.01,-0.04,-0.02,-0.00,30.79
56849188,1958,1,197461,239741,0.39,-0.79,9.96,-0.03,-0.01,-0.00,30.79
56889190,1941,1,197209,239400,0.41,-0.82,9.90,-0.03,-0.04,-0.00,30.79
56929188,1938,1,197411,240932,0.47,-0.76,9.89,-0.04,-0.01,-0.01,30.79
56969190,1947,1,198033,242638,0.43,-0.78,9.95,-0.04,0.01,-0.01,30.79
57009177,1935,1,198384,242406,0.39,-0.75,10.02,-0.03,-0.02,-0.00,30.79
57049190,1937,1,197406,239014,0.39,-0.74,9.95,-0.03,-0.04,-0.00,30.79
57089188,1930,1,196648,239076,0.45,-0.79,9.88,-0.04,0.01,-0.01,30.79
57129173,1945,1,196923,240215,0.43,-0.79,9.92,-0.03,-0.00,-0.01,30.79
57169188,1936,1,197044,240230,0.43,-0.81,9.97,-0.03,-0.03,-0.00,30.79
57209190,1937,1,197094,240686,0.45,-0.77,9.96,-0.03,-0.03,-0.00,30.79
57249188,1937,1,197375,241166,0.43,-0.75,9.97,-0.04,-0.01,-0.00,30.79
57289190,1936,1,197377,240894,0.43,-0.76,9.96,-0.03,-0.01,-0.01,30.79
57329188,1917,1,197155,240339,0.42,-0.78,9.95,-0.03,-0.01,-0.01,30.79
57369190,1908,1,197053,240486,0.45,-0.76,9.88,-0.03,-0.01,-0.01,30.79
57409188,1915,1,197206,240926,0.42,-0.79,9.96,-0.03,-0.01,-0.01,30.79
57449189,1922,1,197439,240785,0.40,-0.78,10.03,-0.03,-0.04,-0.00,30.79
57489188,1904,1,197362,238956,0.47,-0.73,9.98,-0.03,-0.09,0.00,30.79
57529173,1907,1,196956,236216,0.53,-0.76,9.91,-0.03,-0.03,-0.00,30.79
57569188,1915,1,196402,235777,0.47,-0.78,9.89,-0.03,0.02,-0.01,30.79
57609173,1938,1,196895,239487,0.50,-0.78,9.85,-0.04,0.03,-0.01,30.79
57649173,1931,1,197971,241988,0.43,-0.81,9.96,-0.05,0.04,-0.01,30.79
57689859,1930,1,197791,241400,0.39,-0.75,10.06,-0.04,0.01,-0.01,30.63
57730172,1919,1,197279,240659,0.43,-0.74,9.95,-0.03,-0.02,-0.00,30.63
57770190,1933,1,196581,238399,0.45,-0.75,10.07,-0.03,-0.02,-0.00,30.63
57810188,1933,1,195626,236863,0.44,-0.77,9.88,-0.03,-0.01,-0.01,30.63
57850191,1927,1,195616,238965,0.45,-0.76,9.80,-0.04,0.03,-0.01,30.63
57890172,1914,1,196392,241019,0.41,-0.81,9.96,-0.04,0.04,-0.03,30.63
57930172,1936,1,196693,241610,0.34,-0.77,10.02,-0.04,-0.03,-0.01,30.63
57970188,1933,1,196655,241479,0.45,-0.76,10.01,-0.03,-0.01,-0.00,30.63
58010190,1943,1,196177,240340,0.36,-0.77,10.04,-0.03,0.01,-0.01,30.63
58050172,1941,1,195291,238331,0.34,-0.78,9.98,-0.03,-0.03,-0.00,30.63
58090190,1921,1,194769,236943,0.42,-0.76,9.86,-0.02,-0.07,0.00,30.63
58130172,1943,1,194692,236930,0.49,-0.82,9.95,-0.03,-0.04,-0.00,30.63
58170190,1937,1,195061,237576,0.45,-0.81,10.00,-0.03,-0.01,-0.01,30.63
58210188,1955,1,195357,238506,0.45,-0.75,9.92,-0.04,-0.00,-0.01,30.63
58250190,1930,1,195809,239757,0.44,-0.76,9.91,-0.04,0.03,-0.01,30.63
58290172,1949,1,195964,238954,0.37,-0.79,10.01,-0.04,0.02,-0.01,30.63
58330172,1918,1,194462,232840,0.43,-0.81,9.89,-0.03,-0.00,-0.01,30.63
58370188,1904,1,192578,229401,0.43,-0.77,9.95,-0.03,-0.00,-0.00,30.63
58410189,1903,1,191800,228571,0.43,-0.78,10.02,-0.03,-0.02,-0.00,30.63
58450188,1923,1,191830,229222,0.40,-0.79,9.96,-0.03,-0.01,-0.00,30.63
58490190,1931,1,191985,229371,0.36,-0.77,9.96,-0.03,-0.01,-0.00,30.63
58530189,1913,1,191928,229266,0.43,-0.77,9.89,-0.03,-0.03,-0.00,30.63
58570190,1921,1,191938,229923,0.44,-0.76,9.91,-0.04,0.00,-0.01,30.63
58610172,1920,1,192287,231047,0.42,-0.78,9.96,-0.04,0.03,-0.01,30.63
58650172,1929,1,192378,231471,0.34,-0.76,10.05,-0.04,0.01,-0.01,30.63
58690858,1929,1,192455,232047,0.36,-0.75,9.95,-0.03,-0.01,-0.01,30.73
58729190,1949,1,192585,232295,0.39,-0.75,9.95,-0.03,-0.01,-0.01,30.73
58769188,1968,1,192512,232138,0.39,-0.78,9.93,-0.03,-0.01,-0.00,30.73
58809190,1959,1,192314,231766,0.40,-0.76,9.96,-0.03,-0.02,-0.00,30.73
58849204,1965,1,192320,232136,0.37,-0.76,9.95,-0.03,-0.01,-0.01,30.73
58889190,1968,1,192624,233089,0.38,-0.77,9.96,-0.03,-0.00,-0.01,30.73
58929188,1959,1,192326,229507,0.37,-0.77,9.94,-0.04,0.01,-0.01,30.73
58969173,1968,1,190452,226102,0.36,-0.75,9.96,-0.03,-0.01,-0.01,30.73
59009188,1956,1,189832,225172,0.37,-0.76,9.94,-0.03,-0.02,-0.00,30.73
59049189,1952,1,189653,224768,0.40,-0.74,9.96,-0.03,-0.02,-0.00,30.73
59089187,1963,1,189596,224761,0.39,-0.76,9.93,-0.03,-0.01,-0.01,30.73
59129190,1959,1,189607,225263,0.37,-0.75,9.96,-0.03,0.00,-0.01,30.73
59169172,1957,1,189779,226025,0.36,-0.78,9.93,-0.03,-0.00,-0.01,30.73
59209189,1968,1,190009,226687,0.39,-0.76,9.95,-0.03,-0.01,-0.00,30.73
59249188,1959,1,189997,226314,0.37,-0.77,9.96,-0.03,-0.01,-0.00,30.73
59289190,1959,1,189716,225894,0.36,-0.75,9.98,-0.03,-0.01,-0.00,30.73
59329188,1954,1,189605,226265,0.39,-0.75,9.96,-0.04,-0.01,-0.01,30.73
59369190,1954,1,189696,226116,0.36,-0.75,9.96,-0.04,-0.03,-0.01,30.73
59409188,1917,1,189740,225885,0.37,-0.78,9.94,-0.03,-0.04,-0.00,30.73
59449189,1929,1,189910,225870,0.41,-0.75,9.90,-0.03,-0.05,-0.00,30.73
59489188,1931,1,190007,226370,0.43,-0.77,9.93,-0.03,-0.02,-0.00,30.73
59529190,1930,1,190319,226452,0.42,-0.75,9.93,-0.04,-0.00,-0.01,30.73
59569188,1934,1,189958,225183,0.39,-0.75,9.94,-0.04,0.00,-0.01,30.73
59609173,1920,1,189844,225408,0.42,-0.78,9.92,-0.04,-0.01,-0.01,30.73
59649188,1933,1,190098,226955,0.41,-0.77,9.94,-0.04,0.01,-0.01,30.73
59689173,1933,1,190714,228999,0.37,-0.76,10.00,-0.04,0.01,-0.01,30.73
59729859,1910,1,191509,231633,0.39,-0.77,9.96,-0.04,0.00,-0.01,30.71
59770172,1922,1,192167,234015,0.41,-0.81,9.93,-0.04,-0.00,-0.02,30.71
59810189,1929,1,192660,233984,0.33,-0.76,9.95,-0.03,-0.03,-0.01,30.71
59850190,1915,1,192251,231640,0.43,-0.77,9.97,-0.03,-0.04,-0.00,30.71
59890188,1927,1,191396,228785,0.35,-0.76,9.99,-0.02,-0.07,-0.00,30.71
59930189,1904,1,191512,230120,0.52,-0.77,9.76,-0.03,-0.04,-0.01,30.71
59970189,1898,1,192498,233230,0.42,-0.80,9.93,-0.04,0.03,-0.01,30.71
60010172,1890,1,193507,235945,0.42,-0.79,9.98,-0.04,-0.01,-0.01,30.71
60050189,1895,1,194611,238377,0.43,-0.76,9.94,-0.04,-0.02,-0.01,30.71
60090190,1911,1,195159,239244,0.40,-0.77,9.98,-0.04,-0.01,-0.01,30.71
60130188,1904,1,195227,238961,0.42,-0.79,9.99,-0.04,-0.01,-0.01,30.71
60170190,1927,1,194516,235593,0.44,-0.77,9.88,-0.04,-0.03,-0.01,30.71
60210189,1915,1,193565,234079,0.43,-0.77,9.95,-0.04,-0.02,-0.01,30.71
60250190,1921,1,193522,234792,0.45,-0.82,9.96,-0.03,-0.02,-0.00,30.71
60290188,1915,1,194077,237053,0.45,-0.74,9.94,-0.03,-0.01,-0.01,30.71
60330190,1919,1,194787,238589,0.43,-0.79,9.96,-0.04,-0.01,-0.01,30.71
60370188,1920,1,195340,239770,0.44,-0.79,9.94,-0.04,-0.03,-0.01,30.71
60410190,1920,1,195789,240270,0.47,-0.74,9.97,-0.03,-0.03,-0.00,30.71
60450188,1931,1,195813,240274,0.46,-0.78,9.94,-0.04,-0.02,-0.01,30.71
60490232,1927,1,195788,240715,0.46,-0.79,9.90,-0.04,-0.01,-0.01,30.71
60530189,1923,1,195904,241114,0.43,-0.76,9.98,-0.04,-0.01,-0.01,30.71
60570190,1919,1,195960,241198,0.50,-0.74,9.97,-0.04,-0.03,-0.01,30.71
60610188,1930,1,195821,240770,0.44,-0.78,9.99,-0.03,-0.02,-0.01,30.71
60650190,1927,1,195651,240776,0.47,-0.80,9.93,-0.03,-0.02,-0.00,30.71
60690188,1926,1,195662,240350,0.48,-0.79,9.96,-0.03,-0.01,-0.01,30.71
60730875,1907,1,195156,238888,0.51,-0.79,9.98,-0.03,-0.04,-0.00,31.61
60769188,1922,1,194040,232466,0.45,-0.74,9.94,-0.03,-0.01,-0.00,31.61
60809190,1931,1,192102,230372,0.51,-0.80,9.91,-0.03,-0.01,-0.01,31.61
60849188,1939,1,192685,233719,0.49,-0.79,9.96,-0.04,0.03,-0.01,31.61
60889172,1927,1,193498,234553,0.44,-0.79,9.99,-0.03,-0.01,-0.00,31.61
60929188,1939,1,193291,233539,0.51,-0.76,9.94,-0.03,-0.02,-0.00,31.61
60969190,1945,1,192948,232846,0.43,-0.77,9.93,-0.03,-0.01,-0.01,31.61
61009188,1940,1,192724,232655,0.47,-0.79,9.93,-0.03,-0.00,-0.01,31.61
61049190,1954,1,193023,233616,0.46,-0.81,9.93,-0.04,-0.01,-0.01,31.61
61089188,1930,1,193377,234670,0.50,-0.81,9.97,-0.02,-0.02,-0.00,31.61
61129190,1959,1,193887,237183,0.50,-0.75,9.94,-0.03,-0.01,-0.00,31.61
61169187,1945,1,194632,239332,0.44,-0.77,9.95,-0.04,0.01,-0.01,31.61
61209172,1965,1,194955,239981,0.43,-0.79,9.97,-0.04,0.01,-0.01,31.61
61249172,1956,1,195004,240176,0.47,-0.81,9.91,-0.03,-0.01,-0.01,31.61
61289189,1958,1,194924,239526,0.48,-0.80,9.96,-0.03,-0.01,-0.01,31.61
61329187,1953,1,194294,236627,0.47,-0.80,9.99,-0.03,-0.03,-0.00,31.61
61369189,1955,1,191999,227023,0.49,-0.76,9.94,-0.02,-0.01,-0.00,31.61
61409188,1958,1,189446,224161,0.46,-0.77,9.92,-0.02,0.00,-0.00,31.61
61449172,1937,1,188805,223197,0.45,-0.74,9.89,-0.03,-0.01,-0.00,31.61
61489188,1947,1,188655,223071,0.46,-0.78,9.91,-0.04,0.00,-0.01,31.61
61529173,1936,1,188779,223701,0.51,-0.78,9.98,-0.04,0.01,-0.01,31.61
61569172,1943,1,189302,225335,0.43,-0.77,9.99,-0.04,-0.01,-0.01,31.61
61609190,1946,1,190238,228196,0.42,-0.77,9.90,-0.03,-0.01,-0.01,31.61
61649188,1936,1,191347,231598,0.42,-0.75,9.96,-0.04,0.01,-0.01,31.61
61689173,1931,1,192308,233556,0.41,-0.79,10.01,-0.03,-0.02,-0.00,31.61
