timestamp_us,ecg,leads,ir,red,accX,accY,accZ,gyroX,gyroY,gyroZ,temp
1921486,451,1,174565,185205,0.00,0.00,0.00,0.00,0.00,0.00,0.00
1951960,225,1,174697,185620,0.21,0.21,9.70,-0.03,-0.02,-0.00,32.21
1992176,293,1,175084,186669,0.22,0.23,9.97,-0.03,-0.01,-0.01,32.21
2032168,482,1,175335,186785,0.18,0.22,9.96,-0.03,-0.01,-0.00,32.21
2072171,687,1,174962,184910,0.21,0.21,9.97,-0.03,-0.01,-0.00,32.21
2112168,1011,1,174189,183571,0.19,0.23,9.95,-0.03,-0.01,-0.01,32.21
2152171,1307,1,173958,183665,0.19,0.20,9.96,-0.03,-0.01,-0.01,32.21
2192168,1621,1,174091,183829,0.19,0.22,10.00,-0.03,-0.01,-0.00,32.21
2232171,1867,1,174151,184237,0.19,0.23,9.94,-0.03,-0.01,-0.00,32.21
2272168,2078,1,174321,184724,0.18,0.22,9.96,-0.03,-0.01,-0.00,32.21
2312171,2224,1,174504,184943,0.20,0.21,9.96,-0.03,-0.01,-0.01,32.21
2352168,2323,1,174559,185039,0.20,0.22,9.96,-0.04,-0.02,-0.00,32.21
2392171,2411,1,174537,185018,0.21,0.21,9.97,-0.03,-0.01,-0.00,32.21
2432168,2459,1,174615,185059,0.18,0.21,9.96,-0.04,-0.01,-0.00,32.21
2472171,2511,1,174708,185243,0.19,0.24,9.92,-0.04,-0.02,-0.01,32.21
2512168,2559,1,174794,185321,0.20,0.18,9.98,-0.04,-0.03,-0.00,32.21
2552171,2595,1,174893,185799,0.25,0.12,10.04,-0.04,-0.02,-0.01,32.21
2592168,2640,1,175052,186265,0.20,0.23,9.99,-0.04,-0.01,-0.01,32.21
2632171,2671,1,175146,186454,0.19,0.27,9.92,-0.03,-0.01,-0.01,32.21
2672168,2672,1,175155,186695,0.21,0.19,9.95,-0.03,-0.02,-0.01,32.21
2712171,2681,1,175303,186874,0.22,0.18,9.94,-0.03,-0.01,-0.00,32.21
2752168,2686,1,175003,185389,0.23,0.21,9.95,-0.03,-0.01,-0.01,32.21
2792171,2646,1,174585,185169,0.19,0.20,9.97,-0.04,-0.01,-0.01,32.21
2832168,2670,1,174694,185510,0.23,0.20,10.02,-0.03,-0.01,-0.00,32.21
2872171,2655,1,174773,185550,0.20,0.20,9.97,-0.03,-0.01,-0.00,32.21
2912168,2615,1,174616,185412,0.21,0.17,9.95,-0.03,-0.01,-0.00,32.21
2952171,2559,1,174661,186073,0.22,0.18,9.95,-0.03,-0.01,-0.00,32.21
2992855,2533,1,175140,187301,0.20,0.19,9.95,-0.03,-0.01,-0.00,32.33
3031171,2483,1,175598,188060,0.21,0.21,9.99,-0.03,-0.01,-0.00,32.33
3071171,2445,1,175635,187973,0.21,0.19,9.99,-0.03,-0.01,-0.01,32.33
3111171,2427,1,175628,187776,0.22,0.20,9.99,-0.03,-0.01,-0.01,32.33
3151168,2405,1,175508,187509,0.23,0.19,9.97,-0.03,-0.01,-0.01,32.33
3191170,2352,1,175499,187761,0.21,0.21,9.93,-0.03,-0.01,-0.01,32.33
3231168,2320,1,175774,188469,0.20,0.21,9.96,-0.03,-0.01,-0.00,32.33
3271171,2260,1,176038,188993,0.21,0.23,9.96,-0.03,-0.01,-0.01,32.33
3311168,2198,1,176267,189193,0.23,0.20,9.95,-0.03,-0.01,-0.00,32.33
3351171,2158,1,176327,189579,0.19,0.21,9.95,-0.03,-0.01,-0.01,32.33
3391168,2094,1,176419,188672,0.20,0.21,9.97,-0.03,-0.01,-0.00,32.33
3431171,2047,1,175667,186797,0.21,0.23,9.97,-0.03,-0.01,-0.00,32.33
3471168,1981,1,175288,186543,0.22,0.21,9.97,-0.03,-0.01,-0.01,32.33
3511171,1936,1,175375,186520,0.22,0.17,9.94,-0.03,-0.01,-0.00,32.33
3551168,1849,1,175421,186537,0.23,0.20,9.98,-0.03,-0.01,-0.00,32.33
3591171,1776,1,175442,186948,0.20,0.21,9.98,-0.03,-0.01,-0.00,32.33
3631168,1712,1,175749,187562,0.18,0.20,9.96,-0.03,-0.01,-0.00,32.33
3671171,1641,1,175830,187635,0.23,0.20,9.98,-0.03,-0.01,-0.00,32.33
3711168,1565,1,175946,187833,0.23,0.21,9.97,-0.03,-0.01,-0.01,32.33
3751171,1506,1,176033,188242,0.22,0.20,9.94,-0.03,-0.01,-0.00,32.33
3791168,1456,1,176184,188592,0.21,0.22,9.95,-0.03,-0.01,-0.00,32.33
3831171,1464,1,176395,188957,0.19,0.21,9.91,-0.03,-0.01,-0.00,32.33
3871168,1435,1,176551,189469,0.22,0.20,9.95,-0.03,-0.01,-0.00,32.33
3911171,1421,1,176791,190199,0.22,0.21,9.99,-0.03,-0.01,-0.01,32.33
3951168,1391,1,177082,190922,0.20,0.21,9.97,-0.03,-0.01,-0.00,32.33
3991193,1363,1,177330,191701,0.21,0.21,9.95,-0.03,-0.01,-0.00,32.33
4031855,1345,1,177494,190973,0.22,0.20,9.96,-0.03,-0.01,-0.01,32.31
4070171,1312,1,176631,188924,0.22,0.21,9.97,-0.03,-0.01,-0.00,32.31
4110168,1333,1,176364,189116,0.21,0.19,9.96,-0.03,-0.01,-0.00,32.31
4150171,1365,1,176596,189846,0.23,0.21,9.96,-0.03,-0.01,-0.01,32.31
4190168,1361,1,176701,190111,0.21,0.19,9.97,-0.03,-0.01,-0.01,32.31
4230171,1351,1,176807,190606,0.21,0.21,9.96,-0.03,-0.01,-0.00,32.31
4270168,1401,1,177091,191395,0.22,0.21,9.97,-0.03,-0.01,-0.01,32.31
4310170,1439,1,177288,191682,0.21,0.21,9.96,-0.03,-0.01,-0.01,32.31
4350168,1479,1,177240,191575,0.20,0.19,9.96,-0.03,-0.01,-0.00,32.31
4390171,1520,1,177201,191468,0.22,0.20,9.97,-0.03,-0.01,-0.00,32.31
4430168,1535,1,177221,191411,0.21,0.19,9.97,-0.03,-0.01,-0.01,32.31
4470170,1563,1,177255,191596,0.22,0.20,9.97,-0.03,-0.01,-0.00,32.31
4510168,1575,1,177415,192262,0.21,0.20,9.96,-0.03,-0.01,-0.01,32.31
4550171,1611,1,177653,192760,0.21,0.21,9.97,-0.03,-0.01,-0.00,32.31
4590168,1667,1,177815,192972,0.20,0.21,9.96,-0.03,-0.01,-0.01,32.31
4630170,1712,1,177909,193081,0.22,0.19,9.96,-0.03,-0.01,-0.01,32.31
4670168,1731,1,177619,190641,0.21,0.20,9.97,-0.03,-0.01,-0.00,32.31
4710171,1749,1,176420,188112,0.22,0.18,9.96,-0.03,-0.01,-0.00,32.31
4750168,1768,1,175929,187777,0.22,0.18,9.94,-0.03,-0.01,-0.00,32.31
4790171,1793,1,175908,187850,0.22,0.22,9.97,-0.03,-0.01,-0.00,32.31
4830168,1797,1,175958,187827,0.21,0.22,9.98,-0.03,-0.01,-0.00,32.31
4870170,1787,1,175922,187922,0.20,0.19,9.95,-0.03,-0.01,-0.00,32.31
4910168,1792,1,176009,188045,0.21,0.18,9.96,-0.03,-0.01,-0.01,32.31
4950171,1805,1,176016,188046,0.21,0.21,9.96,-0.03,-0.01,-0.01,32.31
4990168,1806,1,176048,188164,0.22,0.20,9.98,-0.03,-0.01,-0.00,32.31
5030171,1782,1,176117,188262,0.22,0.21,9.97,-0.03,-0.01,-0.00,32.31
5070855,1778,1,176168,188322,0.19,0.20,9.98,-0.03,-0.01,-0.00,32.05
5111171,1776,1,176144,188271,0.22,0.19,9.95,-0.03,-0.01,-0.00,32.05
5151168,1771,1,176128,188490,0.22,0.21,9.95,-0.03,-0.01,-0.01,32.05
5191170,1747,1,176186,189209,0.22,0.21,9.97,-0.03,-0.01,-0.00,32.05
5231168,1671,1,176782,190555,0.24,0.17,9.96,-0.03,-0.01,-0.01,32.05
5271170,1637,1,177113,190974,0.20,0.19,9.98,-0.03,-0.01,-0.00,32.05
5311168,1614,1,176780,188814,0.21,0.19,9.97,-0.03,-0.01,-0.00,32.05
5351170,1664,1,175861,187257,0.22,0.21,9.95,-0.03,-0.01,-0.00,32.05
5391168,1759,1,175602,187275,0.23,0.23,9.96,-0.03,-0.01,-0.01,32.05
5431170,1789,1,175682,187601,0.20,0.21,9.96,-0.03,-0.01,-0.00,32.05
5471168,1805,1,175736,187884,0.22,0.20,9.96,-0.03,-0.01,-0.01,32.05
5511171,1826,1,175915,188724,0.22,0.22,9.94,-0.03,-0.01,-0.01,32.05
5551168,1805,1,176259,189255,0.20,0.19,9.96,-0.03,-0.01,-0.01,32.05
5591171,1783,1,176270,188842,0.22,0.21,9.98,-0.03,-0.01,-0.01,32.05
5629171,1745,1,176017,188236,0.20,0.20,9.99,-0.03,-0.01,-0.00,32.05
5669170,1671,1,175904,188153,0.21,0.21,9.99,-0.03,-0.01,-0.01,32.05
5709168,1651,1,175949,188154,0.20,0.21,9.96,-0.03,-0.01,-0.00,32.05
5749170,1616,1,176066,188913,0.22,0.20,9.99,-0.03,-0.01,-0.00,32.05
5789168,1519,1,176685,190464,0.22,0.23,9.96,-0.03,-0.01,-0.00,32.05
5829178,1431,1,177319,192210,0.21,0.20,9.96,-0.03,-0.01,-0.00,32.05
5869168,1412,1,178071,194029,0.21,0.19,9.96,-0.03,-0.01,-0.00,32.05
5909171,1342,1,178648,194731,0.20,0.19,9.97,-0.03,-0.01,-0.00,32.05
5949168,1305,1,178125,191708,0.22,0.21,9.94,-0.03,-0.01,-0.01,32.05
5989170,1106,1,177047,189698,0.20,0.20,9.98,-0.03,-0.01,-0.00,32.05
6029168,660,1,176479,188166,0.22,0.22,9.97,-0.03,-0.01,-0.00,32.05
6069170,401,1,175931,186970,0.22,0.22,9.97,-0.03,-0.01,-0.00,32.05
6109855,209,1,175605,186462,0.22,0.21,9.94,-0.03,-0.01,-0.00,31.85
6150170,161,1,175571,186683,0.21,0.18,9.97,-0.03,-0.01,-0.00,31.85
6190168,231,1,175574,186498,0.22,0.19,9.96,-0.03,-0.01,-0.00,31.85
6230171,440,1,175444,186140,0.24,0.20,10.00,-0.03,-0.01,-0.00,31.85
6269168,639,1,175312,185278,0.21,0.21,9.96,-0.03,-0.01,-0.01,31.85
6309171,843,1,174830,184101,0.21,0.23,9.94,-0.03,-0.01,-0.00,31.85
6349168,1086,1,174591,183877,0.23,0.20,9.94,-0.03,-0.01,-0.01,31.85
6389170,1326,1,174589,184135,0.22,0.21,9.98,-0.04,-0.01,-0.00,31.85
6429168,1535,1,174679,184778,0.21,0.20,9.98,-0.04,-0.01,-0.00,31.85
6469171,1739,1,174999,186061,0.22,0.21,9.98,-0.04,-0.01,-0.01,31.85
6509171,1904,1,175571,188036,0.21,0.22,9.96,-0.04,-0.00,-0.01,31.85
6549171,2037,1,176437,189772,0.23,0.22,9.96,-0.04,-0.00,-0.01,31.85
6589168,2139,1,176370,189048,0.21,0.20,9.96,-0.04,0.00,-0.01,31.85
6629161,2217,1,175992,188367,0.18,0.20,9.98,-0.03,-0.01,-0.01,31.85
6669168,2271,1,175577,187163,0.21,0.19,9.96,-0.03,-0.01,-0.00,31.85
6709171,2294,1,175047,186210,0.20,0.19,9.96,-0.03,-0.01,-0.00,31.85
6749168,2317,1,174792,186147,0.21,0.20,9.96,-0.03,-0.01,-0.01,31.85
6789171,2317,1,174915,186456,0.22,0.18,9.95,-0.03,-0.01,-0.00,31.85
6829168,2268,1,174969,186595,0.21,0.20,9.94,-0.03,-0.01,-0.00,31.85
6869171,2289,1,175071,186716,0.21,0.21,9.99,-0.03,-0.01,-0.01,31.85
6909171,2321,1,175072,186472,0.21,0.20,9.96,-0.03,-0.01,-0.00,31.85
6949171,2304,1,174887,185692,0.21,0.19,10.01,-0.03,-0.01,-0.00,31.85
6989168,2284,1,174583,184730,0.19,0.22,9.97,-0.03,-0.02,-0.00,31.85
7029171,2294,1,174281,183947,0.21,0.20,9.97,-0.03,-0.02,-0.00,31.85
7069168,2318,1,174255,184215,0.20,0.19,9.96,-0.03,-0.01,-0.00,31.85
7109171,2349,1,174608,185104,0.20,0.20,9.94,-0.03,-0.01,-0.01,31.85
7149855,2319,1,175120,186202,0.21,0.20,9.98,-0.03,-0.01,-0.00,31.71
7190171,2368,1,175364,186692,0.23,0.20,9.97,-0.03,-0.01,-0.01,31.71
7230168,2309,1,175814,188745,0.20,0.22,9.96,-0.04,-0.00,-0.01,31.71
7269218,2274,1,176427,189436,0.22,0.21,9.95,-0.04,-0.01,-0.01,31.71
7309168,2256,1,176173,188148,0.22,0.20,9.97,-0.03,-0.01,-0.01,31.71
7349171,2238,1,175523,186196,0.21,0.19,9.96,-0.03,-0.02,-0.00,31.71
7389168,2240,1,174898,185004,0.21,0.23,9.98,-0.03,-0.02,-0.00,31.71
7429171,2210,1,174657,184690,0.23,0.18,9.95,-0.03,-0.01,-0.00,31.71
7469195,2217,1,174778,185401,0.22,0.20,9.97,-0.03,-0.01,-0.01,31.71
7509171,2174,1,175271,187051,0.20,0.21,9.97,-0.03,-0.01,-0.01,31.71
7549168,2055,1,175916,188822,0.20,0.19,9.98,-0.03,-0.00,-0.01,31.71
7589171,2128,1,176535,190367,0.21,0.20,9.99,-0.03,-0.01,-0.00,31.71
7629168,2068,1,176939,191546,0.23,0.19,9.96,-0.03,-0.01,-0.00,31.71
7669171,2067,1,177355,192662,0.18,0.21,9.96,-0.03,-0.01,-0.01,31.71
7709168,1984,1,177723,193774,0.21,0.20,9.97,-0.03,-0.01,-0.01,31.71
7749171,1973,1,177978,193387,0.20,0.19,9.98,-0.03,-0.01,-0.01,31.71
7789168,1945,1,176952,189025,0.21,0.19,10.00,-0.03,-0.01,-0.00,31.71
7829171,1939,1,175374,185899,0.23,0.19,9.96,-0.03,-0.01,-0.00,31.71
7869168,1927,1,174693,185020,0.21,0.19,9.98,-0.03,-0.01,-0.00,31.71
7909171,1851,1,174579,184797,0.21,0.19,9.99,-0.03,-0.01,-0.00,31.71
7949168,1969,1,174472,184348,0.21,0.22,9.96,-0.03,-0.01,-0.00,31.71
7989171,1962,1,174389,184438,0.22,0.19,9.93,-0.03,-0.01,-0.00,31.71
8029168,1936,1,174514,184789,0.20,0.19,9.99,-0.03,-0.01,-0.01,31.71
8069171,1904,1,174668,185483,0.22,0.21,9.98,-0.03,-0.01,-0.01,31.71
8109171,1879,1,175084,186382,0.19,0.21,9.94,-0.03,-0.01,-0.00,31.71
8149857,1878,1,175297,186508,0.19,0.19,9.98,-0.03,-0.01,-0.00,31.57
8188168,1874,1,175183,185811,0.23,0.20,9.96,-0.03,-0.01,-0.01,31.57
8228171,1857,1,174915,185161,0.21,0.19,9.99,-0.03,-0.02,-0.00,31.57
8268168,1830,1,174912,185376,0.24,0.18,9.97,-0.03,-0.01,-0.00,31.57
8308171,1819,1,175113,186279,0.22,0.20,9.95,-0.03,-0.01,-0.01,31.57
8348168,1813,1,175615,187433,0.20,0.19,9.97,-0.03,-0.01,-0.01,31.57
8388171,1802,1,175618,186276,0.20,0.21,9.96,-0.03,-0.01,-0.01,31.57
8428168,1799,1,174954,185533,0.21,0.21,9.96,-0.03,-0.01,-0.01,31.57
8468171,1799,1,174964,185892,0.22,0.18,9.99,-0.03,-0.01,-0.01,31.57
8508168,1761,1,174996,185885,0.22,0.20,10.00,-0.03,-0.01,-0.00,31.57
8548171,1775,1,174900,185708,0.18,0.19,9.94,-0.03,-0.01,-0.00,31.57
8588168,1774,1,175067,186332,0.23,0.21,9.96,-0.03,-0.01,-0.00,31.57
8628171,1744,1,175258,186589,0.23,0.20,9.98,-0.03,-0.01,-0.00,31.57
8668168,1755,1,175153,186450,0.21,0.22,9.96,-0.03,-0.01,-0.01,31.57
8708171,1747,1,175084,186389,0.20,0.20,9.93,-0.03,-0.01,-0.00,31.57
8748168,1780,1,175117,186463,0.22,0.19,9.97,-0.03,-0.01,-0.00,31.57
8788171,1777,1,175167,186682,0.21,0.22,9.98,-0.03,-0.01,-0.01,31.57
8828168,1783,1,175171,186673,0.21,0.23,9.96,-0.03,-0.01,-0.01,31.57
8868171,1792,1,175273,186542,0.21,0.21,9.96,-0.03,-0.01,-0.00,31.57
8908174,1801,1,175232,186521,0.21,0.20,9.98,-0.03,-0.01,-0.00,31.57
8948171,1830,1,175267,186391,0.23,0.22,9.98,-0.03,-0.01,-0.01,31.57
8988169,1818,1,174869,184445,0.22,0.20,9.92,-0.03,-0.01,-0.00,31.57
9028171,1843,1,174063,182966,0.23,0.20,9.94,-0.03,-0.01,-0.00,31.57
9068168,1856,1,173757,182451,0.22,0.19,9.98,-0.03,-0.01,-0.00,31.57
9108187,1852,1,173604,182086,0.22,0.20,9.94,-0.03,-0.01,-0.00,31.57
9148168,1869,1,173496,182041,0.23,0.22,9.96,-0.03,-0.01,-0.00,31.57
9188857,1857,1,173624,182546,0.23,0.19,9.97,-0.03,-0.01,-0.00,31.47
9229168,1869,1,173828,182969,0.23,0.21,9.96,-0.03,-0.01,-0.00,31.47
9269171,1857,1,173968,183126,0.23,0.21,9.96,-0.03,-0.01,-0.01,31.47
9309195,1857,1,174156,183452,0.21,0.19,9.96,-0.03,-0.01,-0.01,31.47
9349171,1867,1,174361,184086,0.22,0.20,9.97,-0.03,-0.01,-0.00,31.47
9389168,1867,1,174695,184827,0.20,0.21,9.97,-0.03,-0.01,-0.00,31.47
9429171,1860,1,174964,185311,0.21,0.20,9.95,-0.03,-0.01,-0.01,31.47
9469168,1860,1,175229,185763,0.20,0.20,9.97,-0.03,-0.01,-0.01,31.47
9509171,1889,1,175304,186047,0.22,0.21,9.98,-0.03,-0.01,-0.01,31.47
9549168,1878,1,175428,186291,0.22,0.21,9.98,-0.03,-0.01,-0.00,31.47
9589171,1885,1,175348,185244,0.22,0.19,9.96,-0.03,-0.01,-0.00,31.47
9629168,1938,1,174661,183801,0.23,0.21,9.95,-0.03,-0.01,-0.00,31.47
9669170,1938,1,174451,183810,0.20,0.22,9.97,-0.03,-0.01,-0.00,31.47
9709168,1926,1,174648,184249,0.21,0.19,9.97,-0.03,-0.01,-0.00,31.47
9749171,1919,1,174691,184773,0.20,0.20,9.97,-0.03,-0.01,-0.01,31.47
9789168,1894,1,175083,185669,0.21,0.21,9.96,-0.03,-0.01,-0.01,31.47
9829171,1893,1,175706,187239,0.21,0.21,9.99,-0.03,-0.01,-0.00,31.47
9869168,1904,1,176338,188689,0.22,0.22,9.98,-0.03,-0.01,-0.00,31.47
9909171,1891,1,177041,191151,0.22,0.21,9.96,-0.03,-0.01,-0.00,31.47
9949168,1873,1,178417,195826,0.23,0.21,9.95,-0.04,-0.02,-0.01,31.47
9989171,1866,1,180296,199496,0.20,0.21,9.97,-0.03,-0.02,-0.00,31.47
10029168,1850,1,181490,203021,0.22,0.18,9.96,-0.04,-0.02,-0.01,31.47
10069171,1854,1,182892,205291,0.21,0.19,9.96,-0.03,-0.02,-0.00,31.47
10109168,1847,1,183359,206203,0.21,0.22,9.96,-0.03,-0.02,-0.00,31.47
10149171,1839,1,183780,206643,0.24,0.20,9.96,-0.04,-0.01,-0.01,31.47
10189857,1842,1,183781,206424,0.23,0.20,9.97,-0.04,-0.02,-0.00,31.43
10228171,1836,1,183573,204595,0.24,0.19,9.96,-0.04,-0.02,-0.00,31.43
10268168,1833,1,182487,202075,0.24,0.22,9.98,-0.03,-0.01,-0.00,31.43
10308170,1831,1,182061,201260,0.23,0.21,9.95,-0.03,-0.01,-0.00,31.43
10349171,1811,1,181904,201766,0.23,0.19,9.96,-0.03,-0.01,-0.00,31.43
10389170,1823,1,182132,202295,0.25,0.20,9.96,-0.03,-0.01,-0.01,31.43
10429171,1810,1,182503,203779,0.23,0.22,9.96,-0.04,-0.01,-0.01,31.43
10467171,1822,1,183047,205118,0.21,0.21,9.98,-0.03,-0.01,-0.00,31.43
10507170,1835,1,183194,205310,0.23,0.21,9.99,-0.04,-0.01,-0.01,31.43
10547193,1847,1,183197,205014,0.24,0.19,9.96,-0.03,-0.01,-0.00,31.43
10587168,1847,1,182958,204618,0.23,0.19,9.96,-0.03,-0.01,-0.00,31.43
10627171,1840,1,182994,204487,0.23,0.19,9.99,-0.03,-0.01,-0.00,31.43
10667168,1841,1,182789,204055,0.26,0.20,9.97,-0.03,-0.01,-0.01,31.43
10707171,1830,1,182673,203723,0.24,0.20,9.96,-0.03,-0.01,-0.01,31.43
10747203,1809,1,182723,204057,0.23,0.18,9.95,-0.03,-0.01,-0.00,31.43
10787171,1789,1,182831,204389,0.24,0.20,9.99,-0.03,-0.01,-0.00,31.43
10827168,1803,1,182934,204244,0.22,0.21,10.00,-0.03,-0.01,-0.00,31.43
10867171,1818,1,182357,201809,0.22,0.19,9.95,-0.03,-0.01,-0.00,31.43
10907168,1822,1,181502,200522,0.23,0.19,9.95,-0.03,-0.01,-0.01,31.43
10947201,1818,1,181475,200812,0.24,0.17,9.96,-0.03,-0.01,-0.00,31.43
10987168,1840,1,181585,201279,0.23,0.19,9.96,-0.03,-0.01,-0.01,31.43
11027172,1858,1,181696,201565,0.23,0.19,9.95,-0.03,-0.01,-0.00,31.43
11067168,1872,1,181792,202047,0.24,0.18,9.96,-0.03,-0.01,-0.00,31.43
11107171,1858,1,181962,202379,0.23,0.19,9.98,-0.03,-0.01,-0.00,31.43
11147168,1872,1,181883,202153,0.24,0.20,9.98,-0.03,-0.01,-0.00,31.43
11187170,1856,1,181850,202207,0.22,0.20,9.96,-0.03,-0.01,-0.00,31.43
11227855,1870,1,181830,202326,0.23,0.19,9.95,-0.03,-0.01,-0.01,31.43
11268170,1852,1,181903,202545,0.23,0.18,9.97,-0.03,-0.01,-0.01,31.43
11308171,1846,1,181961,202448,0.21,0.19,9.98,-0.03,-0.01,-0.00,31.43
11348170,1853,1,181901,202076,0.22,0.19,9.97,-0.03,-0.01,-0.00,31.43
11388171,1847,1,181654,201454,0.23,0.19,9.97,-0.03,-0.01,-0.00,31.43
11428171,1855,1,181430,200788,0.24,0.22,9.97,-0.03,-0.01,-0.00,31.43
11468171,1856,1,180923,198260,0.22,0.21,9.99,-0.03,-0.01,-0.00,31.43
11508171,1868,1,179740,195815,0.23,0.19,9.98,-0.03,-0.01,-0.00,31.43
11548171,1857,1,179530,196025,0.22,0.20,9.97,-0.03,-0.01,-0.01,31.43
11588170,1867,1,179564,196093,0.23,0.20,9.94,-0.03,-0.01,-0.00,31.43
11628168,1892,1,179597,195931,0.21,0.20,9.96,-0.03,-0.01,-0.01,31.43
11668170,1904,1,179460,195795,0.22,0.17,9.99,-0.03,-0.01,-0.00,31.43
11708168,1890,1,179534,195829,0.23,0.21,10.00,-0.03,-0.01,-0.00,31.43
11748171,1887,1,179543,195625,0.23,0.20,9.96,-0.03,-0.01,-0.00,31.43
11788168,1872,1,179516,195569,0.23,0.18,9.96,-0.03,-0.01,-0.01,31.43
11828170,1885,1,179554,195675,0.22,0.21,9.98,-0.03,-0.01,-0.00,31.43
11868171,1883,1,179799,196289,0.24,0.22,10.00,-0.03,-0.01,-0.00,31.43
11908171,1871,1,179964,196703,0.23,0.19,9.97,-0.03,-0.01,-0.00,31.43
11948171,1870,1,180222,197636,0.22,0.21,9.97,-0.03,-0.01,-0.00,31.43
11988171,1867,1,180754,198822,0.23,0.20,9.99,-0.03,-0.01,-0.00,31.43
12028168,1872,1,181096,199900,0.23,0.20,9.97,-0.03,-0.01,-0.00,31.43
12068171,1863,1,181399,200601,0.22,0.22,9.97,-0.03,-0.01,-0.01,31.43
12108171,1870,1,181351,199368,0.22,0.20,9.95,-0.03,-0.01,-0.01,31.43
12148171,1872,1,180651,197800,0.24,0.20,9.96,-0.03,-0.01,-0.00,31.43
12188168,1853,1,180531,198173,0.22,0.20,9.98,-0.03,-0.01,-0.00,31.43
12228857,1846,1,180660,198436,0.23,0.20,9.96,-0.03,-0.01,-0.00,31.21
12267168,1840,1,180676,198283,0.22,0.20,9.96,-0.03,-0.01,-0.01,31.21
12307171,1855,1,180617,198217,0.24,0.20,9.97,-0.03,-0.01,-0.00,31.21
12347168,1843,1,180616,198240,0.23,0.22,9.98,-0.03,-0.01,-0.00,31.21
12387170,1847,1,180413,197038,0.23,0.22,9.97,-0.03,-0.01,-0.00,31.21
12427171,1855,1,179964,196404,0.26,0.20,9.97,-0.03,-0.01,-0.00,31.21
12467171,1869,1,179992,196829,0.23,0.20,9.95,-0.03,-0.01,-0.01,31.21
12507168,1853,1,180225,197566,0.23,0.19,9.95,-0.03,-0.01,-0.01,31.21
12547171,1840,1,180445,198082,0.23,0.20,10.00,-0.03,-0.01,-0.01,31.21
12587168,1835,1,180612,198696,0.24,0.19,9.97,-0.03,-0.01,-0.00,31.21
12627171,1840,1,180871,199570,0.24,0.20,9.96,-0.03,-0.01,-0.00,31.21
12667168,1859,1,181253,200636,0.25,0.20,9.97,-0.03,-0.01,-0.01,31.21
12707171,1847,1,181677,201922,0.22,0.19,9.98,-0.03,-0.01,-0.01,31.21
12747171,1851,1,181974,201812,0.23,0.20,9.97,-0.03,-0.01,-0.01,31.21
12787171,1857,1,181330,199819,0.23,0.20,9.99,-0.03,-0.01,-0.00,31.21
12827168,1859,1,180863,199378,0.23,0.20,9.95,-0.03,-0.01,-0.01,31.21
12867171,1858,1,180934,199772,0.21,0.20,9.97,-0.03,-0.01,-0.00,31.21
12907168,1867,1,181119,199807,0.24,0.21,9.96,-0.03,-0.01,-0.01,31.21
12947171,1871,1,181027,199795,0.23,0.20,9.97,-0.03,-0.01,-0.00,31.21
12987168,1865,1,181132,200161,0.24,0.22,9.98,-0.03,-0.01,-0.00,31.21
13027172,1876,1,181216,199928,0.22,0.18,9.97,-0.03,-0.01,-0.00,31.21
13067168,1864,1,181024,199725,0.23,0.18,9.99,-0.03,-0.01,-0.01,31.21
13107171,1861,1,181147,199858,0.23,0.20,9.97,-0.03,-0.01,-0.00,31.21
13147168,1862,1,181372,200329,0.24,0.18,9.97,-0.03,-0.01,-0.01,31.21
13187171,1845,1,181589,201151,0.24,0.18,9.96,-0.03,-0.01,-0.01,31.21
13227171,1854,1,181910,202067,0.25,0.22,9.95,-0.03,-0.01,-0.00,31.21
13267857,1853,1,182193,203145,0.24,0.20,9.99,-0.03,-0.01,-0.01,31.25
13306168,1847,1,182546,203944,0.24,0.21,9.97,-0.03,-0.01,-0.00,31.25
13346170,1877,1,182794,204687,0.26,0.18,9.98,-0.03,-0.01,-0.00,31.25
13386168,1909,1,182952,205028,0.22,0.20,9.98,-0.03,-0.01,-0.00,31.25
13426171,1915,1,182597,202942,0.21,0.20,9.94,-0.04,-0.01,-0.00,31.25
13466168,1926,1,181872,201761,0.23,0.19,9.98,-0.03,-0.01,-0.01,31.25
13506170,1913,1,181809,201857,0.23,0.18,9.96,-0.03,-0.01,-0.01,31.25
13546171,1909,1,181760,201716,0.22,0.18,9.96,-0.03,-0.01,-0.01,31.25
13586170,1915,1,181661,201366,0.23,0.19,9.97,-0.03,-0.01,-0.00,31.25
13626171,1901,1,181560,201692,0.23,0.20,9.98,-0.03,-0.01,-0.01,31.25
13666171,1916,1,181604,201811,0.22,0.18,9.99,-0.03,-0.01,-0.00,31.25
13706168,1903,1,181556,201229,0.23,0.20,10.00,-0.03,-0.01,-0.00,31.25
13746171,1877,1,181354,200704,0.23,0.21,9.97,-0.03,-0.01,-0.00,31.25
13786171,1866,1,181143,200362,0.24,0.18,9.98,-0.03,-0.01,-0.01,31.25
13826171,1863,1,181015,199998,0.22,0.20,9.97,-0.03,-0.01,-0.01,31.25
13866171,1858,1,180979,200191,0.23,0.20,9.98,-0.03,-0.01,-0.00,31.25
13906171,1870,1,181117,200653,0.23,0.18,9.96,-0.03,-0.01,-0.00,31.25
13946168,1866,1,181283,200974,0.23,0.20,9.98,-0.03,-0.01,-0.01,31.25
13986170,1863,1,181448,201553,0.24,0.20,9.97,-0.03,-0.01,-0.01,31.25
14026196,1853,1,181606,201515,0.23,0.19,9.98,-0.03,-0.01,-0.00,31.25
14066171,1858,1,181119,199347,0.24,0.19,9.98,-0.03,-0.01,-0.01,31.25
14106171,1865,1,180295,197968,0.22,0.18,9.97,-0.03,-0.01,-0.00,31.25
14146171,1855,1,180240,198272,0.23,0.21,9.96,-0.03,-0.01,-0.01,31.25
14186171,1827,1,180351,198434,0.23,0.19,9.99,-0.03,-0.01,-0.00,31.25
14226197,1849,1,180368,198449,0.24,0.20,9.96,-0.03,-0.01,-0.01,31.25
14266171,1855,1,180467,198815,0.23,0.19,9.96,-0.03,-0.01,-0.00,31.25
14306857,1855,1,180598,199065,0.23,0.18,9.97,-0.03,-0.01,-0.00,31.25
14347171,1859,1,180580,198882,0.24,0.20,9.97,-0.03,-0.01,-0.00,31.25
14387171,1855,1,180511,198569,0.23,0.20,9.95,-0.03,-0.01,-0.01,31.25
14427168,1840,1,180567,198675,0.23,0.20,9.98,-0.03,-0.01,-0.00,31.25
14467170,1835,1,180643,198778,0.23,0.21,9.98,-0.03,-0.01,-0.00,31.25
14507171,1823,1,180679,199042,0.25,0.21,9.97,-0.03,-0.01,-0.00,31.25
14547170,1834,1,180808,199328,0.23,0.20,9.97,-0.03,-0.01,-0.01,31.25
14587168,1838,1,180918,199744,0.24,0.21,9.96,-0.03,-0.01,-0.00,31.25
14627170,1850,1,181072,200224,0.24,0.19,9.97,-0.03,-0.01,-0.01,31.25
14667171,1851,1,181255,200604,0.23,0.21,9.98,-0.03,-0.01,-0.00,31.25
14707170,1872,1,181302,200238,0.22,0.16,9.97,-0.03,-0.01,-0.00,31.25
14747168,1882,1,180604,197499,0.22,0.19,9.97,-0.03,-0.01,-0.00,31.25
14787170,1885,1,179662,196092,0.24,0.20,9.98,-0.03,-0.01,-0.01,31.25
14827171,1873,1,179618,196422,0.22,0.20,9.94,-0.03,-0.01,-0.00,31.25
14867170,1869,1,179791,196611,0.22,0.21,9.98,-0.03,-0.01,-0.01,31.25
14907171,1871,1,179728,196468,0.21,0.19,9.98,-0.03,-0.01,-0.00,31.25
14947170,1893,1,179806,197082,0.24,0.19,9.97,-0.03,-0.01,-0.00,31.25
14987168,1898,1,180082,197654,0.25,0.21,9.97,-0.03,-0.01,-0.01,31.25
15027172,1902,1,180085,197636,0.23,0.20,9.97,-0.03,-0.01,-0.00,31.25
15067168,1894,1,179959,197551,0.22,0.20,9.98,-0.03,-0.01,-0.01,31.25
15107170,1866,1,180072,197923,0.24,0.21,9.98,-0.03,-0.01,-0.00,31.25
15147171,1849,1,180247,198517,0.23,0.20,9.96,-0.03,-0.01,-0.00,31.25
15187170,1840,1,180492,199130,0.22,0.20,10.00,-0.03,-0.01,-0.01,31.25
15227168,1845,1,180753,199926,0.23,0.19,9.98,-0.03,-0.01,-0.01,31.25
15267170,1850,1,181148,201055,0.22,0.19,9.97,-0.03,-0.01,-0.00,31.25
15307855,1870,1,181669,202386,0.25,0.18,9.99,-0.03,-0.01,-0.00,31.19
15346170,1887,1,182109,203473,0.23,0.20,9.98,-0.03,-0.01,-0.01,31.19
15386171,1881,1,182460,204199,0.22,0.20,9.96,-0.03,-0.01,-0.00,31.19
15426170,1883,1,182422,202978,0.23,0.20,9.97,-0.03,-0.01,-0.00,31.19
15466168,1893,1,181564,200853,0.23,0.23,9.97,-0.03,-0.01,-0.01,31.19
15506170,1889,1,181277,201120,0.23,0.20,9.97,-0.04,-0.01,-0.00,31.19
15546168,1875,1,181577,201597,0.23,0.19,9.96,-0.03,-0.01,-0.00,31.19
15586170,1872,1,181617,201575,0.23,0.21,9.95,-0.03,-0.01,-0.00,31.19
15626171,1872,1,181651,201847,0.22,0.21,9.98,-0.03,-0.01,-0.01,31.19
15666174,1871,1,181866,202488,0.24,0.20,9.98,-0.03,-0.01,-0.01,31.19
15706171,1849,1,182138,202938,0.23,0.20,9.98,-0.03,-0.01,-0.00,31.19
15746171,1853,1,182224,203191,0.22,0.23,9.95,-0.03,-0.01,-0.00,31.19
15786171,1852,1,182350,203392,0.24,0.20,9.97,-0.03,-0.01,-0.00,31.19
15826171,1895,1,182466,203646,0.22,0.19,10.00,-0.03,-0.01,-0.01,31.19
15866174,1853,1,182597,203938,0.24,0.18,9.97,-0.03,-0.01,-0.00,31.19
15906171,1822,1,182693,204276,0.22,0.20,9.96,-0.03,-0.01,-0.00,31.19
15946168,1840,1,182918,204921,0.23,0.19,9.98,-0.03,-0.01,-0.00,31.19
15986170,1845,1,183195,205797,0.24,0.20,9.94,-0.03,-0.01,-0.01,31.19
16026174,1837,1,183498,206711,0.22,0.19,10.00,-0.03,-0.01,-0.01,31.19
16066171,1843,1,183753,206911,0.23,0.20,9.99,-0.03,-0.01,-0.00,31.19
16106168,1853,1,183342,204748,0.24,0.21,9.96,-0.03,-0.01,-0.01,31.19
16146170,1853,1,182483,203319,0.25,0.19,10.00,-0.03,-0.01,-0.00,31.19
16186168,1971,1,182455,203874,0.22,0.20,9.96,-0.03,-0.01,-0.00,31.19
16226171,1843,1,182710,204376,0.23,0.20,9.98,-0.03,-0.01,-0.00,31.19
16266168,1834,1,182787,204611,0.23,0.18,9.98,-0.03,-0.01,-0.00,31.19
16306171,1854,1,182822,204690,0.23,0.19,9.96,-0.03,-0.01,-0.01,31.19
16346857,1856,1,182910,204698,0.23,0.22,9.99,-0.03,-0.01,-0.01,31.25
16385171,1861,1,182919,204623,0.23,0.19,9.97,-0.03,-0.01,-0.00,31.25
16425171,1966,1,182854,204795,0.25,0.21,9.96,-0.03,-0.01,-0.00,31.25
16465170,1840,1,182975,205391,0.22,0.20,9.98,-0.03,-0.01,-0.01,31.25
16505171,1841,1,183156,205778,0.21,0.21,9.97,-0.03,-0.01,-0.00,31.25
16545170,1862,1,183211,205765,0.23,0.19,9.96,-0.03,-0.01,-0.01,31.25
16585171,1865,1,183139,205934,0.21,0.19,9.96,-0.03,-0.01,-0.00,31.25
16625171,1983,1,183361,206350,0.22,0.19,9.96,-0.03,-0.01,-0.01,31.25
16665170,1967,1,183371,206561,0.23,0.22,9.97,-0.03,-0.01,-0.01,31.25
16705170,1935,1,183517,206632,0.23,0.20,9.99,-0.03,-0.01,-0.00,31.25
16745168,1913,1,183267,204862,0.21,0.20,9.94,-0.03,-0.01,-0.00,31.25
16785170,1903,1,182295,202486,0.22,0.20,9.98,-0.03,-0.01,-0.00,31.25
16825168,1891,1,181884,202240,0.22,0.19,9.97,-0.03,-0.01,-0.00,31.25
16865170,1883,1,181981,202559,0.23,0.18,9.98,-0.03,-0.01,-0.01,31.25
16905170,1873,1,182045,202692,0.22,0.19,9.95,-0.03,-0.01,-0.00,31.25
16945170,1865,1,182074,203043,0.23,0.20,9.96,-0.03,-0.01,-0.00,31.25
16985168,1841,1,182211,203449,0.23,0.20,9.99,-0.03,-0.01,-0.00,31.25
17025202,1831,1,182298,203337,0.23,0.17,9.96,-0.03,-0.01,-0.00,31.25
17065170,1829,1,182201,203044,0.23,0.21,9.97,-0.03,-0.01,-0.01,31.25
17105170,1840,1,182152,202985,0.25,0.22,9.95,-0.03,-0.01,-0.00,31.25
17145171,1834,1,182190,203073,0.23,0.18,9.95,-0.03,-0.01,-0.01,31.25
17185170,1840,1,182234,203335,0.24,0.20,9.97,-0.03,-0.01,-0.00,31.25
17225168,1842,1,182413,203607,0.22,0.20,10.00,-0.03,-0.01,-0.01,31.25
17265170,1846,1,182490,203652,0.24,0.22,9.97,-0.03,-0.01,-0.00,31.25
17305191,1854,1,182570,203962,0.23,0.22,9.97,-0.03,-0.01,-0.00,31.25
17345170,1840,1,182741,204289,0.22,0.20,9.97,-0.03,-0.01,-0.00,31.25
17385855,1837,1,182885,204071,0.25,0.18,9.97,-0.03,-0.01,-0.01,31.07
17426170,1843,1,182285,201194,0.23,0.20,9.95,-0.03,-0.01,-0.00,31.07
17466168,1840,1,181312,199831,0.23,0.18,9.97,-0.03,-0.01,-0.01,31.07
17506196,1856,1,181385,200409,0.23,0.20,9.96,-0.03,-0.01,-0.01,31.07
17546170,1859,1,181522,200383,0.22,0.22,9.95,-0.03,-0.01,-0.00,31.07
17586170,1863,1,181442,200050,0.23,0.20,9.95,-0.03,-0.01,-0.00,31.07
17626168,1870,1,181394,200219,0.23,0.21,9.97,-0.03,-0.01,-0.01,31.07
17666170,1876,1,181442,200230,0.24,0.20,9.94,-0.03,-0.01,-0.00,31.07
17706181,1862,1,181357,199878,0.24,0.20,9.98,-0.04,-0.01,-0.00,31.07
17746170,1875,1,181318,199897,0.24,0.20,9.94,-0.03,-0.01,-0.01,31.07
17786168,1891,1,181336,200116,0.23,0.20,9.97,-0.03,-0.01,-0.01,31.07
17826170,1897,1,181418,200328,0.23,0.20,9.99,-0.03,-0.01,-0.01,31.07
17866170,1897,1,181533,201277,0.23,0.20,9.97,-0.03,-0.01,-0.01,31.07
17906170,1915,1,181924,202067,0.23,0.19,9.95,-0.03,-0.01,-0.01,31.07
17946171,1893,1,182044,202350,0.24,0.20,9.95,-0.03,-0.01,-0.01,31.07
17986170,1882,1,182187,202914,0.23,0.23,9.97,-0.03,-0.01,-0.00,31.07
18026174,1874,1,182472,203662,0.23,0.20,9.96,-0.03,-0.01,-0.01,31.07
18066170,1872,1,182556,202684,0.24,0.19,10.01,-0.03,-0.01,-0.01,31.07
18106170,1869,1,181708,200522,0.23,0.20,9.96,-0.03,-0.01,-0.01,31.07
18146170,1856,1,181506,200784,0.25,0.20,9.96,-0.03,-0.01,-0.00,31.07
18186168,1863,1,181707,201288,0.22,0.19,9.98,-0.03,-0.01,-0.01,31.07
18226170,1868,1,181816,201308,0.24,0.19,9.97,-0.03,-0.01,-0.00,31.07
18266170,1858,1,181873,201811,0.25,0.19,9.96,-0.03,-0.01,-0.01,31.07
18306170,1845,1,182136,202619,0.21,0.20,9.97,-0.03,-0.01,-0.01,31.07
18346170,1865,1,182251,202674,0.22,0.19,9.96,-0.03,-0.01,-0.00,31.07
18386857,1877,1,182192,202173,0.23,0.21,10.01,-0.03,-0.01,-0.00,31.05
18425171,1872,1,182050,201845,0.23,0.19,9.98,-0.03,-0.01,-0.00,31.05
18465170,1882,1,182008,201614,0.23,0.21,9.98,-0.03,-0.01,-0.01,31.05
18505170,1883,1,182059,202124,0.23,0.19,9.96,-0.03,-0.01,-0.00,31.05
18545170,1870,1,182322,202618,0.23,0.19,9.99,-0.03,-0.01,-0.01,31.05
18585171,1871,1,182436,202863,0.24,0.20,9.96,-0.03,-0.01,-0.01,31.05
18625170,1886,1,182494,202921,0.25,0.19,9.99,-0.03,-0.01,-0.00,31.05
18665170,1881,1,182529,203250,0.23,0.20,9.96,-0.03,-0.01,-0.01,31.05
18705170,1865,1,182710,203162,0.22,0.20,10.01,-0.03,-0.01,-0.01,31.05
18745168,1867,1,182227,200874,0.24,0.21,9.97,-0.03,-0.01,-0.00,31.05
18785170,1891,1,181606,200125,0.23,0.20,9.96,-0.03,-0.01,-0.00,31.05
18825168,1895,1,181681,200486,0.24,0.19,9.98,-0.03,-0.01,-0.00,31.05
18865170,1892,1,181751,200585,0.22,0.19,9.97,-0.03,-0.01,-0.01,31.05
18905170,1875,1,181900,201258,0.24,0.20,9.99,-0.03,-0.01,-0.00,31.05
18945170,1851,1,182224,202331,0.24,0.19,9.97,-0.03,-0.01,-0.00,31.05
18985170,1873,1,182487,202746,0.24,0.18,9.97,-0.03,-0.01,-0.00,31.05
19025201,1901,1,182518,202997,0.23,0.19,9.95,-0.03,-0.01,-0.00,31.05
19065171,1870,1,182654,203286,0.23,0.20,9.95,-0.03,-0.01,-0.00,31.05
19105170,1856,1,182730,203557,0.23,0.20,9.94,-0.03,-0.01,-0.01,31.05
19145172,1830,1,182791,203792,0.22,0.18,9.95,-0.03,-0.01,-0.00,31.05
19185170,1843,1,182861,204202,0.26,0.19,9.96,-0.03,-0.01,-0.01,31.05
19225170,1845,1,183025,204653,0.24,0.19,9.95,-0.03,-0.01,-0.00,31.05
19265170,1854,1,183134,204892,0.22,0.20,9.96,-0.03,-0.01,-0.00,31.05
19305168,1846,1,183229,205157,0.22,0.20,9.96,-0.03,-0.01,-0.01,31.05
19345170,1846,1,183173,204096,0.23,0.19,9.95,-0.03,-0.01,-0.00,31.05
19385170,1867,1,182346,201546,0.24,0.18,9.97,-0.03,-0.01,-0.00,31.05
19425857,1892,1,181799,200812,0.22,0.21,9.96,-0.03,-0.01,-0.00,30.85
19464170,1901,1,181653,200499,0.23,0.21,9.96,-0.03,-0.01,-0.00,30.85
19504170,1914,1,181576,200231,0.23,0.20,9.98,-0.03,-0.01,-0.01,30.85
19544170,1904,1,181475,200334,0.25,0.21,9.96,-0.03,-0.01,-0.00,30.85
19584170,1894,1,181624,200959,0.24,0.21,9.96,-0.03,-0.01,-0.01,30.85
19624170,1904,1,181804,201064,0.24,0.18,9.96,-0.03,-0.01,-0.01,30.85
19664170,1903,1,181794,201167,0.24,0.22,9.98,-0.03,-0.01,-0.00,30.85
19704170,1900,1,181872,201349,0.23,0.19,9.95,-0.03,-0.01,-0.00,30.85
19744170,1913,1,181927,201450,0.24,0.19,9.97,-0.03,-0.01,-0.00,30.85
19784170,1917,1,182055,201796,0.25,0.20,9.96,-0.03,-0.01,-0.01,30.85
19824170,1911,1,182195,202437,0.24,0.21,9.98,-0.03,-0.01,-0.00,30.85
19864171,1910,1,182493,203125,0.23,0.20,10.00,-0.03,-0.01,-0.00,30.85
19904170,1911,1,182684,203742,0.22,0.20,9.99,-0.03,-0.01,-0.00,30.85
19944168,1895,1,182891,203985,0.22,0.19,9.97,-0.03,-0.01,-0.00,30.85
19984170,1904,1,182845,202992,0.23,0.19,9.96,-0.03,-0.01,-0.01,30.85
20024187,1893,1,182010,200452,0.22,0.20,9.98,-0.03,-0.01,-0.00,30.85
20064170,1893,1,181556,199936,0.23,0.19,9.97,-0.03,-0.01,-0.01,30.85
20104171,1898,1,181554,199765,0.23,0.20,9.95,-0.03,-0.01,-0.01,30.85
20144170,1871,1,181344,199037,0.24,0.20,9.97,-0.03,-0.01,-0.00,30.85
20184168,1839,1,181174,198820,0.23,0.21,9.95,-0.03,-0.01,-0.00,30.85
20224170,1842,1,181261,199380,0.25,0.22,9.98,-0.03,-0.01,-0.01,30.85
20264170,1846,1,181387,199482,0.25,0.20,9.95,-0.03,-0.01,-0.01,30.85
20304170,1874,1,181337,199366,0.23,0.19,9.96,-0.03,-0.01,-0.00,30.85
20344168,1862,1,181383,199523,0.24,0.21,9.98,-0.03,-0.01,-0.01,30.85
20384170,1865,1,181423,199643,0.23,0.19,9.96,-0.03,-0.01,-0.00,30.85
20424170,1872,1,181477,199722,0.23,0.21,9.98,-0.03,-0.01,-0.00,30.85
20464857,1875,1,181555,199959,0.23,0.19,9.96,-0.03,-0.01,-0.01,30.87
20505171,1887,1,181594,200334,0.22,0.20,9.97,-0.03,-0.01,-0.01,30.87
20545170,1887,1,181847,200846,0.24,0.18,9.98,-0.03,-0.01,-0.00,30.87
20585168,1874,1,181941,201322,0.22,0.19,9.95,-0.03,-0.01,-0.00,30.87
20625170,1877,1,182185,202072,0.23,0.20,9.99,-0.03,-0.01,-0.00,30.87
20665168,1861,1,182336,202226,0.23,0.20,9.98,-0.03,-0.01,-0.00,30.87
20705170,1866,1,181902,199639,0.24,0.19,9.97,-0.03,-0.01,-0.00,30.87
20745168,1863,1,181012,198117,0.23,0.20,9.97,-0.03,-0.01,-0.00,30.87
20785215,1875,1,180915,198454,0.23,0.21,9.95,-0.03,-0.01,-0.00,30.87
20825171,1872,1,180992,198481,0.23,0.21,9.99,-0.03,-0.01,-0.01,30.87
20865170,1830,1,180907,198252,0.26,0.17,9.97,-0.03,-0.01,-0.01,30.87
20905171,1818,1,180922,198555,0.24,0.19,9.98,-0.03,-0.01,-0.00,30.87
20945170,1837,1,181077,198775,0.23,0.17,9.96,-0.03,-0.01,-0.00,30.87
20985210,1841,1,181001,198372,0.22,0.19,9.96,-0.03,-0.01,-0.00,30.87
21025204,1840,1,180864,198065,0.25,0.20,9.99,-0.03,-0.01,-0.01,30.87
21065170,1834,1,180882,198296,0.24,0.21,9.98,-0.03,-0.01,-0.00,30.87
21105170,1855,1,180956,198506,0.23,0.18,9.97,-0.03,-0.01,-0.00,30.87
21143170,1842,1,181074,198913,0.23,0.19,9.94,-0.03,-0.01,-0.00,30.87
21183170,1840,1,181341,199777,0.24,0.21,9.96,-0.03,-0.01,-0.01,30.87
21223170,1833,1,181714,200707,0.25,0.18,9.98,-0.03,-0.01,-0.00,30.87
21263170,1856,1,182030,201793,0.26,0.19,9.96,-0.03,-0.01,-0.00,30.87
21303168,1863,1,182542,203105,0.23,0.21,10.00,-0.03,-0.01,-0.00,30.87
21343170,1865,1,182964,204091,0.22,0.20,9.97,-0.03,-0.01,-0.01,30.87
21383168,1858,1,183273,204792,0.23,0.22,9.97,-0.03,-0.01,-0.00,30.87
21424170,1844,1,183254,203401,0.22,0.19,9.98,-0.03,-0.01,-0.00,30.87
21464857,1840,1,182390,201102,0.24,0.21,9.99,-0.03,-0.01,-0.01,30.91
21503170,1840,1,181984,200599,0.22,0.20,9.97,-0.03,-0.01,-0.01,30.91
21543170,1842,1,181909,200503,0.21,0.18,9.97,-0.03,-0.01,-0.01,30.91
21583170,1840,1,181794,200142,0.22,0.21,9.98,-0.03,-0.01,-0.01,30.91
21623170,1827,1,181741,200503,0.23,0.19,10.00,-0.03,-0.01,-0.00,30.91
21663170,1841,1,181976,201203,0.23,0.18,9.97,-0.03,-0.01,-0.00,30.91
21703168,1869,1,182138,201157,0.24,0.21,9.99,-0.03,-0.01,-0.01,30.91
21743170,1879,1,182108,201213,0.23,0.21,9.96,-0.03,-0.01,-0.00,30.91
21783170,1881,1,182106,201478,0.24,0.20,9.97,-0.03,-0.01,-0.00,30.91
21823170,1873,1,182219,201858,0.24,0.20,9.96,-0.03,-0.01,-0.01,30.91
21863170,1861,1,182310,202179,0.23,0.18,9.98,-0.03,-0.01,-0.01,30.91
21903170,1873,1,182436,202509,0.23,0.20,9.96,-0.03,-0.01,-0.01,30.91
21943171,1875,1,182514,202509,0.23,0.20,9.97,-0.03,-0.01,-0.01,30.91
21983170,1869,1,182503,202762,0.23,0.19,9.99,-0.03,-0.01,-0.01,30.91
22023170,1872,1,182609,202823,0.22,0.19,9.96,-0.03,-0.01,-0.01,30.91
22063170,1879,1,182634,202996,0.24,0.20,9.96,-0.03,-0.01,-0.00,30.91
22103171,1854,1,182721,203384,0.23,0.18,10.00,-0.03,-0.01,-0.00,30.91
22143170,1854,1,182591,201778,0.25,0.19,9.97,-0.03,-0.01,-0.01,30.91
22183170,1855,1,181727,199877,0.23,0.20,9.97,-0.03,-0.01,-0.01,30.91
22223170,1840,1,181512,199749,0.23,0.21,9.97,-0.03,-0.01,-0.00,30.91
22263171,1847,1,181472,199468,0.21,0.19,9.98,-0.03,-0.01,-0.01,30.91
22303170,1865,1,181286,198821,0.22,0.20,9.98,-0.03,-0.01,-0.01,30.91
22343170,1856,1,181261,199452,0.23,0.21,9.96,-0.03,-0.01,-0.00,30.91
22383170,1846,1,181640,200380,0.23,0.20,9.96,-0.03,-0.01,-0.00,30.91
22424213,1860,1,181840,200548,0.22,0.21,9.96,-0.03,-0.01,-0.01,30.91
22464857,1856,1,181794,200517,0.23,0.17,9.97,-0.03,-0.01,-0.01,30.85
22503171,1847,1,181867,200759,0.23,0.18,9.96,-0.03,-0.01,-0.00,30.85
22543170,1845,1,181990,200745,0.23,0.18,9.96,-0.03,-0.01,-0.01,30.85
22583170,1853,1,181998,200834,0.22,0.19,9.95,-0.03,-0.01,-0.00,30.85
22623214,1842,1,182085,201133,0.22,0.20,9.98,-0.03,-0.01,-0.01,30.85
22663170,1841,1,182196,201604,0.23,0.20,9.97,-0.03,-0.01,-0.00,30.85
22703170,1846,1,182331,201924,0.23,0.20,9.97,-0.03,-0.01,-0.00,30.85
22743168,1856,1,182536,202581,0.23,0.20,9.97,-0.03,-0.01,-0.01,30.85
22783170,1823,1,182742,203181,0.24,0.21,9.96,-0.03,-0.01,-0.01,30.85
22823170,1828,1,182981,204042,0.23,0.18,9.96,-0.03,-0.01,-0.01,30.85
22863170,1842,1,183209,203845,0.23,0.19,9.98,-0.03,-0.01,-0.00,30.85
22903171,1846,1,182515,200899,0.21,0.19,9.99,-0.03,-0.01,-0.00,30.85
22943170,1856,1,181679,199645,0.24,0.18,9.98,-0.03,-0.01,-0.00,30.85
22983171,1857,1,181641,200143,0.21,0.19,9.96,-0.03,-0.01,-0.01,30.85
23023170,1856,1,181723,200117,0.23,0.20,9.98,-0.03,-0.01,-0.00,30.85
23063168,1853,1,181574,199613,0.23,0.19,9.96,-0.03,-0.01,-0.00,30.85
23103170,1856,1,181556,200032,0.23,0.20,9.97,-0.03,-0.01,-0.01,30.85
23143170,1862,1,181755,200406,0.23,0.19,9.96,-0.03,-0.01,-0.00,30.85
23183170,1863,1,181819,200410,0.23,0.20,9.99,-0.03,-0.01,-0.01,30.85
23223170,1858,1,181775,200500,0.24,0.20,9.96,-0.03,-0.01,-0.01,30.85
23263170,1850,1,181876,200824,0.24,0.20,9.97,-0.03,-0.01,-0.00,30.85
23303168,1849,1,181978,200991,0.24,0.18,9.98,-0.03,-0.01,-0.00,30.85
23343171,1849,1,182073,201401,0.23,0.20,9.96,-0.03,-0.01,-0.01,30.85
23383170,1835,1,182202,201896,0.23,0.20,9.97,-0.03,-0.01,-0.00,30.85
23423171,1808,1,182356,202232,0.23,0.18,9.97,-0.03,-0.01,-0.00,30.85
23463171,1806,1,182515,202571,0.23,0.19,9.98,-0.03,-0.01,-0.01,30.85
23503857,1834,1,182622,203129,0.23,0.21,9.98,-0.03,-0.01,-0.00,30.77
23542168,1834,1,182905,203828,0.22,0.20,9.97,-0.03,-0.01,-0.00,30.77
23582171,1849,1,183160,204435,0.25,0.20,9.97,-0.03,-0.01,-0.00,30.77
23622168,1844,1,183328,204951,0.25,0.20,9.98,-0.03,-0.01,-0.00,30.77
23662170,1827,1,183445,204407,0.23,0.20,9.97,-0.03,-0.01,-0.00,30.77
23702168,1824,1,182782,201495,0.22,0.18,10.00,-0.03,-0.01,-0.00,30.77
23742170,1857,1,182053,200503,0.25,0.20,9.95,-0.03,-0.01,-0.00,30.77
23782168,1871,1,182057,200793,0.23,0.22,9.96,-0.03,-0.01,-0.01,30.77
23822171,1859,1,182088,200653,0.21,0.19,9.97,-0.03,-0.01,-0.00,30.77
23862170,1850,1,181984,200487,0.24,0.21,9.97,-0.03,-0.01,-0.00,30.77
23902171,1869,1,182077,201190,0.24,0.19,9.96,-0.03,-0.01,-0.01,30.77
23942170,1889,1,182374,201959,0.24,0.20,9.98,-0.03,-0.01,-0.00,30.77
23982170,1886,1,182498,202062,0.23,0.19,9.97,-0.03,-0.01,-0.00,30.77
24022175,1870,1,182571,202118,0.23,0.19,10.02,-0.03,-0.01,-0.00,30.77
24062232,1853,1,182665,202554,0.22,0.20,9.98,-0.03,-0.01,-0.00,30.77
24102168,1842,1,182809,203111,0.23,0.17,9.95,-0.03,-0.01,-0.00,30.77
24142170,1857,1,182930,203639,0.23,0.20,9.98,-0.03,-0.01,-0.01,30.77
24182171,1867,1,183075,204220,0.25,0.19,9.95,-0.03,-0.01,-0.00,30.77
24222171,1872,1,183248,204737,0.23,0.20,9.97,-0.03,-0.01,-0.01,30.77
24262210,1894,1,183421,205289,0.22,0.20,9.96,-0.03,-0.01,-0.00,30.77
24302170,1921,1,183714,206260,0.24,0.20,9.97,-0.03,-0.01,-0.01,30.77
24342170,1920,1,183971,206636,0.22,0.19,9.96,-0.03,-0.01,-0.01,30.77
24382170,1913,1,184047,207184,0.23,0.20,9.97,-0.03,-0.01,-0.00,30.77
24422168,1919,1,184255,207420,0.24,0.22,9.98,-0.03,-0.01,-0.01,30.77
24462171,1901,1,183940,205305,0.25,0.20,9.97,-0.03,-0.01,-0.01,30.77
24502171,1903,1,183088,203815,0.23,0.22,9.95,-0.03,-0.01,-0.01,30.77
24542857,1891,1,183128,204304,0.24,0.19,9.97,-0.03,-0.01,-0.01,30.93
24583171,1876,1,183247,204388,0.23,0.21,9.98,-0.03,-0.01,-0.01,30.93
24623170,1872,1,183127,204186,0.24,0.20,9.96,-0.03,-0.01,-0.00,30.93
24663168,1872,1,183208,204735,0.24,0.21,9.98,-0.03,-0.01,-0.00,30.93
24703170,1842,1,183458,205393,0.23,0.18,9.95,-0.03,-0.01,-0.00,30.93
24743171,1845,1,183608,205564,0.23,0.19,9.95,-0.03,-0.01,-0.00,30.93
24783171,1835,1,183627,205615,0.26,0.18,9.98,-0.03,-0.01,-0.00,30.93
24823171,1829,1,183703,205536,0.24,0.20,9.98,-0.03,-0.01,-0.00,30.93
24863171,1843,1,183671,205655,0.23,0.20,9.95,-0.03,-0.01,-0.00,30.93
24903168,1855,1,183838,206051,0.23,0.18,9.95,-0.03,-0.01,-0.00,30.93
24943171,1867,1,183943,206301,0.23,0.17,9.95,-0.03,-0.01,-0.00,30.93
24983171,1857,1,184036,206633,0.22,0.20,9.94,-0.03,-0.01,-0.00,30.93
25023171,1862,1,184152,207093,0.21,0.22,9.95,-0.03,-0.01,-0.00,30.93
25063170,1865,1,184289,207707,0.24,0.21,9.97,-0.03,-0.01,-0.01,30.93
25103170,1865,1,184554,208382,0.23,0.20,9.98,-0.03,-0.01,-0.01,30.93
25143171,1867,1,184636,207615,0.20,0.18,9.95,-0.03,-0.01,-0.00,30.93
25183171,1867,1,183750,204375,0.24,0.20,9.95,-0.03,-0.01,-0.01,30.93
25223171,1857,1,182943,203253,0.24,0.21,9.95,-0.03,-0.01,-0.01,30.93
25263171,1858,1,182949,203681,0.22,0.20,9.97,-0.03,-0.01,-0.01,30.93
25303171,1850,1,182949,203715,0.24,0.20,9.98,-0.03,-0.01,-0.01,30.93
25343171,1863,1,182853,203505,0.23,0.21,9.98,-0.03,-0.01,-0.01,30.93
25383171,1873,1,182922,204072,0.25,0.19,9.96,-0.03,-0.01,-0.01,30.93
25423171,1872,1,183167,204705,0.24,0.17,9.96,-0.03,-0.01,-0.00,30.93
25463171,1870,1,183337,205082,0.23,0.19,9.97,-0.03,-0.01,-0.01,30.93
25503171,1857,1,183410,205318,0.22,0.20,9.98,-0.03,-0.01,-0.01,30.93
25543857,1859,1,183487,205366,0.23,0.20,9.98,-0.03,-0.01,-0.00,31.01
25582171,1868,1,183466,205424,0.23,0.20,9.96,-0.03,-0.01,-0.01,31.01
25622171,1858,1,183527,205646,0.23,0.19,9.95,-0.03,-0.01,-0.00,31.01
25662171,1855,1,183661,206026,0.24,0.19,9.95,-0.03,-0.01,-0.00,31.01
25702191,1867,1,183805,206478,0.23,0.20,9.97,-0.03,-0.01,-0.01,31.01
25742170,1874,1,183955,206797,0.23,0.19,9.96,-0.03,-0.01,-0.00,31.01
25782171,1870,1,184056,207100,0.21,0.20,9.96,-0.03,-0.01,-0.01,31.01
25822171,1863,1,184174,207505,0.22,0.20,9.97,-0.03,-0.01,-0.01,31.01
25862171,1871,1,184207,206766,0.23,0.18,9.98,-0.03,-0.01,-0.00,31.01
25902200,1877,1,183468,203820,0.24,0.21,9.96,-0.03,-0.01,-0.01,31.01
25942171,1873,1,182782,202878,0.22,0.19,9.98,-0.03,-0.01,-0.00,31.01
25982170,1856,1,182757,202932,0.22,0.20,9.96,-0.03,-0.01,-0.00,31.01
26022175,1860,1,182797,202939,0.23,0.19,9.97,-0.03,-0.01,-0.01,31.01
26062171,1865,1,182773,203051,0.25,0.20,9.98,-0.03,-0.01,-0.00,31.01
26102194,1856,1,182921,203519,0.23,0.19,9.98,-0.03,-0.01,-0.00,31.01
26142171,1869,1,183010,203665,0.24,0.19,9.98,-0.03,-0.01,-0.01,31.01
26182171,1877,1,182977,203457,0.23,0.19,9.94,-0.03,-0.01,-0.00,31.01
26222170,1872,1,182969,203600,0.23,0.19,9.97,-0.03,-0.01,-0.01,31.01
26262171,1872,1,183043,203917,0.22,0.18,9.98,-0.03,-0.01,-0.00,31.01
26302171,1859,1,183171,204144,0.26,0.21,9.97,-0.03,-0.01,-0.00,31.01
26342171,1847,1,183280,204367,0.23,0.20,9.99,-0.03,-0.01,-0.00,31.01
26382171,1852,1,183396,204901,0.23,0.19,9.97,-0.03,-0.01,-0.01,31.01
26422171,1840,1,183536,205391,0.24,0.20,9.98,-0.03,-0.01,-0.01,31.01
26462170,1856,1,183742,206092,0.24,0.20,9.97,-0.03,-0.01,-0.00,31.01
26502168,1842,1,184037,206962,0.24,0.20,9.94,-0.03,-0.01,-0.00,31.01
26542171,1851,1,184242,207583,0.23,0.19,9.98,-0.03,-0.01,-0.00,31.01
26582857,1855,1,184316,207393,0.23,0.20,10.02,-0.03,-0.01,-0.00,31.05
26621170,1835,1,183770,204655,0.24,0.20,9.96,-0.03,-0.01,-0.00,31.05
26661168,1834,1,182864,203301,0.24,0.18,9.98,-0.03,-0.01,-0.01,31.05
26701170,1842,1,182931,204190,0.24,0.18,9.95,-0.03,-0.01,-0.00,31.05
26741171,1840,1,183392,205485,0.22,0.20,9.95,-0.03,-0.01,-0.00,31.05
26781171,1854,1,183708,206049,0.23,0.17,9.98,-0.03,-0.01,-0.01,31.05
26821171,1856,1,183931,206920,0.25,0.21,9.97,-0.03,-0.01,-0.00,31.05
26861170,1857,1,184353,208011,0.23,0.20,9.97,-0.03,-0.01,-0.01,31.05
26901171,1865,1,184603,208489,0.23,0.18,9.95,-0.03,-0.01,-0.00,31.05
26941170,1854,1,184717,208818,0.21,0.19,9.95,-0.03,-0.01,-0.01,31.05
26981171,1872,1,184835,209208,0.22,0.21,9.97,-0.03,-0.01,-0.01,31.05
27021170,1881,1,185029,209962,0.23,0.18,9.98,-0.03,-0.01,-0.00,31.05
27061171,1875,1,185368,210487,0.23,0.20,9.97,-0.03,-0.01,-0.00,31.05
27101171,1873,1,185459,210908,0.24,0.19,9.99,-0.03,-0.01,-0.00,31.05
27141171,1861,1,185631,211387,0.24,0.18,9.99,-0.03,-0.01,-0.01,31.05
27181170,1872,1,185923,212288,0.24,0.20,9.96,-0.04,-0.01,-0.00,31.05
27221168,1862,1,186225,213036,0.24,0.20,9.96,-0.03,-0.01,-0.00,31.05
27261170,1853,1,186503,213631,0.24,0.19,9.99,-0.03,-0.01,-0.00,31.05
27301171,1843,1,186745,213408,0.22,0.21,9.97,-0.03,-0.01,-0.00,31.05
27341172,1850,1,186143,211011,0.24,0.20,9.98,-0.03,-0.01,-0.00,31.05
27381168,1842,1,185554,210077,0.23,0.19,9.98,-0.03,-0.01,-0.01,31.05
27421171,1850,1,185504,210216,0.24,0.18,9.97,-0.03,-0.01,-0.01,31.05
27461171,1853,1,185577,210206,0.24,0.20,9.97,-0.03,-0.01,-0.00,31.05
27501171,1869,1,185586,210550,0.24,0.19,9.95,-0.03,-0.01,-0.01,31.05
27541197,1860,1,185785,211916,0.23,0.21,10.00,-0.03,-0.01,-0.01,31.05
27581171,1859,1,186394,213055,0.23,0.20,9.96,-0.03,-0.01,-0.01,31.05
27621855,1860,1,186554,213379,0.22,0.19,9.95,-0.03,-0.01,-0.01,31.01
27662171,1881,1,186708,213921,0.23,0.21,9.98,-0.03,-0.01,-0.01,31.01
27702171,1878,1,186994,214828,0.22,0.18,9.98,-0.03,-0.01,-0.00,31.01
27742170,1867,1,187262,215488,0.23,0.19,9.98,-0.03,-0.01,-0.01,31.01
27782171,1872,1,187582,216323,0.24,0.19,9.98,-0.03,-0.01,-0.01,31.01
27822171,1877,1,187880,217321,0.24,0.19,9.99,-0.03,-0.01,-0.01,31.01
27862170,1873,1,188144,217998,0.24,0.19,9.98,-0.03,-0.01,-0.00,31.01
27902170,1872,1,188332,218483,0.24,0.20,9.96,-0.03,-0.01,-0.00,31.01
27942168,1887,1,188456,218818,0.25,0.20,9.98,-0.03,-0.01,-0.01,31.01
27982170,1878,1,188426,217918,0.25,0.19,9.98,-0.03,-0.01,-0.00,31.01
28022178,1886,1,187779,216115,0.24,0.21,9.95,-0.03,-0.01,-0.00,31.01
28062170,1894,1,187525,216014,0.23,0.20,9.98,-0.03,-0.01,-0.01,31.01
28102171,1859,1,187596,216102,0.26,0.18,9.97,-0.03,-0.01,-0.00,31.01
28142170,1854,1,187510,215810,0.25,0.19,9.97,-0.03,-0.01,-0.01,31.01
28182171,1853,1,187371,215502,0.24,0.17,9.96,-0.03,-0.01,-0.00,31.01
28222171,1865,1,187374,215631,0.24,0.18,9.97,-0.03,-0.01,-0.00,31.01
28262171,1855,1,187303,215553,0.23,0.21,9.96,-0.03,-0.01,-0.00,31.01
28302171,1862,1,187258,215285,0.23,0.19,9.96,-0.03,-0.01,-0.00,31.01
28342171,1873,1,187231,215353,0.23,0.19,9.97,-0.03,-0.01,-0.01,31.01
28382170,1872,1,187236,215457,0.23,0.20,9.95,-0.03,-0.01,-0.00,31.01
28422168,1877,1,187321,215543,0.23,0.20,9.97,-0.03,-0.01,-0.01,31.01
28460170,1881,1,187315,215764,0.25,0.21,9.97,-0.03,-0.01,-0.00,31.01
28500171,1862,1,187441,215990,0.22,0.19,9.96,-0.03,-0.01,-0.00,31.01
28540170,1859,1,187457,216324,0.23,0.19,9.95,-0.03,-0.01,-0.01,31.01
28580171,1859,1,187777,217109,0.24,0.20,9.95,-0.03,-0.01,-0.01,31.01
28620170,1873,1,188002,217329,0.24,0.18,9.96,-0.03,-0.01,-0.00,31.01
28660857,1860,1,187930,216211,0.24,0.21,9.96,-0.03,-0.01,-0.00,30.99
28701171,1872,1,187164,213777,0.25,0.20,9.97,-0.03,-0.01,-0.00,30.99
28741168,1858,1,186677,213105,0.23,0.18,9.95,-0.03,-0.01,-0.01,30.99
28781171,1842,1,186643,212842,0.24,0.19,9.95,-0.03,-0.01,-0.00,30.99
28821171,1856,1,186512,212499,0.23,0.19,9.98,-0.03,-0.01,-0.01,30.99
28861171,1855,1,186359,212402,0.23,0.20,9.98,-0.03,-0.01,-0.00,30.99
28901168,1873,1,186440,212789,0.23,0.20,9.95,-0.03,-0.01,-0.00,30.99
28941171,1872,1,186472,212795,0.24,0.19,9.97,-0.03,-0.01,-0.00,30.99
28981171,1872,1,186442,212647,0.24,0.20,9.96,-0.03,-0.01,-0.01,30.99
29021170,1875,1,186440,212568,0.24,0.20,9.98,-0.03,-0.01,-0.00,30.99
29061168,1886,1,186294,212535,0.27,0.19,9.96,-0.03,-0.01,-0.01,30.99
29101171,1878,1,186367,212695,0.24,0.18,9.96,-0.03,-0.01,-0.00,30.99
29141168,1872,1,186381,212943,0.25,0.22,10.02,-0.03,-0.01,-0.01,30.99
29181195,1872,1,186548,213184,0.23,0.21,9.98,-0.03,-0.01,-0.01,30.99
29221171,1871,1,186573,213610,0.24,0.20,9.96,-0.03,-0.01,-0.00,30.99
29261171,1861,1,186718,214070,0.22,0.20,9.96,-0.03,-0.01,-0.01,30.99
29301171,1869,1,186911,214750,0.24,0.20,9.96,-0.03,-0.01,-0.01,30.99
29341170,1872,1,187193,214834,0.24,0.17,9.97,-0.03,-0.01,-0.00,30.99
29381198,1875,1,186745,212609,0.23,0.19,9.96,-0.03,-0.01,-0.00,30.99
29421171,1863,1,186101,211594,0.25,0.19,9.97,-0.03,-0.01,-0.00,30.99
29461171,1877,1,186142,212389,0.23,0.20,9.96,-0.03,-0.01,-0.00,30.99
29501170,1887,1,186462,213235,0.25,0.20,9.97,-0.03,-0.01,-0.01,30.99
29541171,1875,1,186603,213726,0.23,0.19,10.00,-0.03,-0.01,-0.00,30.99
29581171,1872,1,186728,214228,0.24,0.20,9.96,-0.03,-0.01,-0.00,30.99
29621168,1858,1,186909,214380,0.24,0.21,9.98,-0.03,-0.01,-0.00,30.99
29661857,1872,1,186822,214076,0.26,0.20,9.96,-0.03,-0.01,-0.00,30.99
29700168,1870,1,186779,213623,0.25,0.19,9.99,-0.03,-0.01,-0.00,30.99
29740170,1871,1,186624,213343,0.25,0.18,9.96,-0.03,-0.01,-0.00,30.99
29780171,1861,1,186460,213144,0.24,0.21,9.96,-0.03,-0.01,-0.01,30.99
29820171,1863,1,186400,213149,0.24,0.19,9.98,-0.03,-0.01,-0.01,30.99
29860171,1843,1,186538,213317,0.25,0.20,9.97,-0.03,-0.01,-0.00,30.99
29900171,1855,1,186610,213701,0.23,0.20,9.97,-0.03,-0.01,-0.01,30.99
29940171,1872,1,186699,214259,0.24,0.18,9.95,-0.03,-0.01,-0.00,30.99
29980170,1885,1,186914,214783,0.24,0.20,9.97,-0.04,-0.01,-0.00,30.99
30020168,1897,1,187137,214956,0.22,0.21,9.96,-0.03,-0.01,-0.00,30.99
30060170,1948,1,186813,213167,0.24,0.21,9.98,-0.03,-0.01,-0.01,30.99
30100171,1973,1,186109,211495,0.26,0.18,9.97,-0.03,-0.01,-0.01,30.99
30140171,1988,1,185825,211489,0.23,0.18,9.96,-0.03,-0.01,-0.01,30.99
30180171,2001,1,185921,211506,0.22,0.21,9.98,-0.03,-0.01,-0.01,30.99
30220170,2013,1,185814,211145,0.25,0.18,9.97,-0.03,-0.01,-0.01,30.99
30260171,2062,1,185874,211670,0.25,0.18,9.96,-0.03,-0.01,-0.00,30.99
30300170,2073,1,186036,211962,0.24,0.20,9.96,-0.03,-0.01,-0.00,30.99
30340168,2096,1,186145,211730,0.23,0.18,9.96,-0.03,-0.01,-0.00,30.99
30380171,2103,1,185959,211548,0.24,0.20,9.97,-0.03,-0.01,-0.00,30.99
30421168,2114,1,186121,211656,0.24,0.20,9.99,-0.03,-0.01,-0.01,30.99
30461170,2119,1,186075,211873,0.24,0.19,9.95,-0.03,-0.01,-0.01,30.99
30501171,2135,1,186263,212141,0.24,0.17,9.96,-0.03,-0.01,-0.01,30.99
30541170,2143,1,186293,212588,0.23,0.21,9.98,-0.03,-0.01,-0.00,30.99
30581171,2155,1,186412,213030,0.24,0.19,9.97,-0.03,-0.01,-0.00,30.99
30621171,2156,1,186550,213600,0.24,0.19,9.99,-0.03,-0.01,-0.00,30.99
30661857,2165,1,186680,213948,0.22,0.20,9.97,-0.03,-0.01,-0.00,30.93
30700170,2164,1,186851,213835,0.24,0.19,9.97,-0.03,-0.01,-0.00,30.93
30740171,2165,1,186334,211592,0.24,0.17,9.97,-0.03,-0.01,-0.00,30.93
30780171,2160,1,185602,210304,0.26,0.19,9.96,-0.03,-0.01,-0.00,30.93
30820210,2154,1,185458,210513,0.25,0.21,9.98,-0.03,-0.01,-0.01,30.93
30860171,2160,1,185502,210495,0.23,0.18,9.98,-0.03,-0.01,-0.01,30.93
30900171,2155,1,185502,210484,0.23,0.20,9.98,-0.03,-0.01,-0.00,30.93
30940171,2147,1,185485,210891,0.23,0.20,9.97,-0.03,-0.01,-0.01,30.93
30980171,2128,1,185761,211350,0.22,0.18,9.97,-0.03,-0.01,-0.01,30.93
31020217,2112,1,185737,211393,0.25,0.19,9.96,-0.03,-0.01,-0.00,30.93
31060171,2082,1,185822,211576,0.23,0.20,9.98,-0.03,-0.01,-0.00,30.93
31100171,2075,1,185773,211661,0.24,0.19,9.96,-0.03,-0.01,-0.01,30.93
31140171,2064,1,185920,211927,0.23,0.19,9.95,-0.03,-0.01,-0.00,30.93
31180170,2058,1,185979,212087,0.22,0.19,9.99,-0.03,-0.01,-0.01,30.93
31220171,2026,1,185968,212310,0.24,0.21,9.97,-0.03,-0.01,-0.01,30.93
31260171,1984,1,186159,212728,0.23,0.18,9.99,-0.03,-0.01,-0.00,30.93
31300171,1971,1,186321,213181,0.24,0.18,9.98,-0.03,-0.01,-0.01,30.93
31340171,1955,1,186450,213850,0.23,0.18,9.98,-0.03,-0.01,-0.01,30.93
31380171,1938,1,186658,213298,0.23,0.19,10.01,-0.03,-0.01,-0.01,30.93
31420171,1915,1,185939,210902,0.23,0.19,9.96,-0.03,-0.01,-0.01,30.93
31459171,1914,1,185328,210177,0.23,0.21,9.96,-0.03,-0.01,-0.01,30.93
31499170,1904,1,185365,210415,0.23,0.20,9.99,-0.03,-0.01,-0.01,30.93
31539171,1882,1,185455,210447,0.23,0.19,9.96,-0.03,-0.01,-0.01,30.93
31579170,1886,1,185453,210416,0.24,0.19,9.97,-0.03,-0.01,-0.01,30.93
31619171,1889,1,185516,210823,0.24,0.17,9.96,-0.03,-0.01,-0.01,30.93
31659170,1887,1,185632,210978,0.25,0.19,9.98,-0.03,-0.01,-0.00,30.93
31699855,1869,1,185720,211133,0.22,0.19,9.95,-0.03,-0.01,-0.00,30.93
31740171,1865,1,185775,211190,0.22,0.20,9.97,-0.03,-0.01,-0.00,30.93
31780168,1856,1,185807,211397,0.23,0.19,9.96,-0.03,-0.01,-0.01,30.93
31820170,1847,1,185859,211425,0.23,0.20,9.94,-0.03,-0.01,-0.00,30.93
31860168,1831,1,185792,211544,0.23,0.19,9.97,-0.03,-0.01,-0.00,30.93
31900171,1843,1,185818,211784,0.23,0.21,9.97,-0.03,-0.01,-0.00,30.93
31940171,1854,1,185986,212313,0.22,0.19,9.99,-0.03,-0.01,-0.01,30.93
31980171,1847,1,186291,212847,0.26,0.18,9.97,-0.03,-0.01,-0.00,30.93
32020168,1862,1,186369,212968,0.24,0.21,9.97,-0.03,-0.01,-0.01,30.93
32060171,1866,1,186258,212292,0.22,0.18,9.99,-0.03,-0.01,-0.01,30.93
32100171,1859,1,185590,209492,0.23,0.19,9.95,-0.03,-0.01,-0.01,30.93
32140171,1872,1,184724,208086,0.23,0.18,9.95,-0.03,-0.01,-0.00,30.93
32180171,1859,1,184646,208331,0.22,0.19,9.96,-0.03,-0.01,-0.01,30.93
32220171,1840,1,184733,208521,0.24,0.19,9.95,-0.03,-0.01,-0.00,30.93
32260171,1827,1,184728,208509,0.22,0.20,9.97,-0.03,-0.01,-0.01,30.93
32300171,1822,1,184800,209040,0.23,0.18,9.96,-0.03,-0.01,-0.00,30.93
32340171,1786,1,184965,209476,0.24,0.20,9.99,-0.03,-0.01,-0.00,30.93
32380171,1746,1,185062,209536,0.23,0.18,10.00,-0.03,-0.01,-0.00,30.93
32420168,1744,1,185017,209504,0.24,0.21,9.96,-0.03,-0.01,-0.00,30.93
32459210,1727,1,185033,209648,0.25,0.19,9.99,-0.03,-0.01,-0.00,30.93
32499171,1713,1,185134,209746,0.25,0.19,9.98,-0.03,-0.01,-0.00,30.93
32539170,1722,1,185149,210132,0.24,0.19,9.98,-0.03,-0.01,-0.00,30.93
32579171,1728,1,185304,210474,0.22,0.21,9.97,-0.03,-0.01,-0.01,30.93
32619171,1743,1,185472,210876,0.23,0.19,9.96,-0.03,-0.01,-0.00,30.93
32659194,1743,1,185543,211371,0.25,0.19,9.98,-0.03,-0.01,-0.00,30.93
32699857,1753,1,185815,211909,0.24,0.21,9.96,-0.03,-0.01,-0.01,31.27
32740171,1754,1,185978,212516,0.24,0.19,9.95,-0.03,-0.01,-0.01,31.27
32780171,1774,1,186083,211695,0.23,0.20,9.97,-0.03,-0.01,-0.00,31.27
32820168,1785,1,185253,208941,0.25,0.20,9.99,-0.03,-0.01,-0.00,31.27
32860192,1805,1,184588,207858,0.24,0.18,9.95,-0.03,-0.01,-0.01,31.27
32900171,1840,1,184661,208579,0.23,0.21,9.98,-0.03,-0.01,-0.01,31.27
32940171,1874,1,184864,208819,0.24,0.21,9.99,-0.03,-0.01,-0.01,31.27
32980171,1920,1,184773,208861,0.23,0.19,9.98,-0.03,-0.01,-0.00,31.27
33020171,1941,1,185045,209594,0.23,0.21,9.96,-0.03,-0.01,-0.00,31.27
33060171,2003,1,185277,209953,0.23,0.17,9.97,-0.03,-0.01,-0.00,31.27
33100171,2077,1,185331,210162,0.24,0.20,9.96,-0.03,-0.01,-0.01,31.27
33140171,2129,1,185451,210553,0.24,0.20,9.99,-0.03,-0.01,-0.01,31.27
33180171,2204,1,185566,210837,0.24,0.20,10.00,-0.03,-0.01,-0.01,31.27
33220168,2276,1,185771,211193,0.24,0.19,9.96,-0.03,-0.01,-0.01,31.27
33260170,2334,1,185793,211270,0.23,0.19,9.96,-0.03,-0.01,-0.01,31.27
33300171,2402,1,185901,211752,0.24,0.20,9.99,-0.03,-0.01,-0.01,31.27
33340171,2480,1,186077,212146,0.23,0.18,9.97,-0.03,-0.01,-0.00,31.27
33380171,2535,1,186207,212790,0.24,0.20,9.94,-0.03,-0.01,-0.00,31.27
33420171,2592,1,186456,213343,0.23,0.21,9.96,-0.03,-0.01,-0.00,31.27
33460171,2651,1,186597,213410,0.24,0.21,9.99,-0.03,-0.01,-0.01,31.27
33499170,2672,1,186110,211037,0.24,0.21,9.95,-0.03,-0.01,-0.01,31.27
33539171,2702,1,185308,209769,0.23,0.21,9.99,-0.03,-0.01,-0.00,31.27
33579171,2735,1,185248,209932,0.25,0.19,9.98,-0.03,-0.01,-0.01,31.27
33619171,2771,1,185332,210112,0.24,0.19,9.97,-0.03,-0.01,-0.00,31.27
33659171,3015,1,185451,210403,0.23,0.17,9.99,-0.03,-0.01,-0.00,31.27
33699171,3119,1,185515,210964,0.24,0.20,9.98,-0.03,-0.01,-0.00,31.27
33739857,3142,1,185790,211287,0.24,0.17,9.99,-0.03,-0.01,-0.00,31.07
33780171,3023,1,185658,211332,0.22,0.20,9.96,-0.03,-0.01,-0.00,31.07
33820171,2977,1,185846,211767,0.23,0.18,9.97,-0.03,-0.01,-0.00,31.07
33860168,2962,1,185930,212341,0.24,0.19,9.98,-0.03,-0.01,-0.00,31.07
33900171,2956,1,186075,212645,0.24,0.20,9.96,-0.03,-0.01,-0.00,31.07
33940168,3026,1,186202,212884,0.24,0.18,9.96,-0.03,-0.01,-0.01,31.07
33980171,3133,1,186150,212942,0.23,0.21,9.94,-0.03,-0.01,-0.00,31.07
34020168,3019,1,186312,213335,0.23,0.19,9.96,-0.03,-0.01,-0.00,31.07
34060170,2893,1,186440,214050,0.23,0.19,9.98,-0.03,-0.01,-0.00,31.07
34100171,2730,1,186652,214558,0.23,0.20,9.95,-0.03,-0.01,-0.01,31.07
34140170,2624,1,186733,213485,0.21,0.18,9.97,-0.03,-0.01,-0.01,31.07
34180171,2534,1,185802,210882,0.24,0.18,9.97,-0.03,-0.01,-0.00,31.07
34220170,2554,1,185214,210224,0.23,0.20,9.96,-0.03,-0.01,-0.01,31.07
34260168,2448,1,185346,210524,0.23,0.18,9.96,-0.03,-0.01,-0.01,31.07
34300170,2347,1,185303,210532,0.26,0.20,9.97,-0.03,-0.01,-0.01,31.07
34340168,2283,1,185164,210409,0.25,0.20,9.95,-0.03,-0.01,-0.00,31.07
34380170,2212,1,185406,211005,0.22,0.19,9.96,-0.03,-0.01,-0.01,31.07
34420171,2155,1,185566,211256,0.25,0.19,9.97,-0.03,-0.01,-0.00,31.07
34460170,2064,1,185620,211349,0.24,0.20,9.97,-0.03,-0.01,-0.01,31.07
34498178,2023,1,185583,211463,0.23,0.20,9.98,-0.03,-0.01,-0.00,31.07
34539170,1926,1,185652,211563,0.23,0.20,9.95,-0.03,-0.01,-0.00,31.07
34579168,1808,1,185762,211804,0.23,0.19,9.98,-0.03,-0.01,-0.00,31.07
34619170,1703,1,185823,212154,0.24,0.19,9.98,-0.03,-0.01,-0.00,31.07
34659168,1587,1,185903,212546,0.24,0.20,10.00,-0.03,-0.01,-0.00,31.07
34699171,1698,1,186154,212984,0.24,0.18,9.99,-0.03,-0.01,-0.01,31.07
34739857,1630,1,186349,213477,0.23,0.20,9.98,-0.03,-0.01,-0.00,31.07
34778170,1567,1,186483,213528,0.23,0.19,10.01,-0.03,-0.01,-0.01,31.07
34818171,1506,1,186149,211274,0.22,0.20,9.96,-0.03,-0.01,-0.00,31.07
34858171,1489,1,185211,209280,0.25,0.17,9.98,-0.03,-0.01,-0.00,31.07
34898170,1482,1,184992,209007,0.25,0.20,9.96,-0.03,-0.01,-0.01,31.07
34938170,1411,1,184939,209062,0.22,0.19,9.97,-0.03,-0.01,-0.01,31.07
34978171,1392,1,184907,209007,0.23,0.20,9.95,-0.03,-0.01,-0.01,31.07
35018170,1357,1,184849,209305,0.22,0.21,9.97,-0.03,-0.01,-0.00,31.07
35058171,1359,1,185033,209780,0.24,0.19,9.95,-0.03,-0.01,-0.00,31.07
35098170,1365,1,185074,209724,0.25,0.20,9.97,-0.03,-0.01,-0.00,31.07
35138168,1348,1,185031,209684,0.23,0.20,9.94,-0.03,-0.01,-0.00,31.07
35178170,1371,1,185127,209712,0.23,0.19,9.98,-0.03,-0.01,-0.01,31.07
35218171,1389,1,185135,209787,0.23,0.19,10.00,-0.03,-0.01,-0.00,31.07
35258171,1402,1,185145,210018,0.25,0.19,9.95,-0.03,-0.01,-0.00,31.07
35298171,1440,1,185234,210333,0.23,0.20,9.97,-0.03,-0.01,-0.01,31.07
35338170,1458,1,185375,210813,0.25,0.18,9.98,-0.03,-0.01,-0.01,31.07
35378171,1472,1,185485,211310,0.23,0.19,9.97,-0.03,-0.01,-0.00,31.07
35418170,1481,1,185708,211913,0.23,0.19,9.95,-0.03,-0.01,-0.00,31.07
35458168,1486,1,185793,211891,0.24,0.19,9.95,-0.03,-0.01,-0.00,31.07
35498170,1489,1,185446,209551,0.25,0.18,9.96,-0.03,-0.01,-0.00,31.07
35539171,1426,1,184541,207693,0.23,0.19,9.96,-0.03,-0.01,-0.00,31.07
35579170,1381,1,184314,207778,0.24,0.19,9.95,-0.03,-0.01,-0.00,31.07
35619168,1315,1,184396,207884,0.25,0.17,9.98,-0.03,-0.01,-0.01,31.07
35659170,1253,1,184372,208138,0.24,0.19,9.99,-0.03,-0.01,-0.00,31.07
35699168,1200,1,184506,208722,0.25,0.21,9.97,-0.03,-0.01,-0.00,31.07
35739170,1149,1,184747,209261,0.23,0.20,9.99,-0.03,-0.01,-0.01,31.07
35779855,1091,1,184803,209204,0.23,0.21,9.97,-0.03,-0.01,-0.00,31.11
35818170,1015,1,184744,209140,0.25,0.19,9.97,-0.03,-0.01,-0.00,31.11
35858168,919,1,184775,209354,0.23,0.20,9.97,-0.03,-0.01,-0.01,31.11
35898171,880,1,184879,209869,0.23,0.19,9.97,-0.03,-0.01,-0.00,31.11
35938188,848,1,185109,210443,0.23,0.21,9.97,-0.03,-0.01,-0.01,31.11
35978171,781,1,185312,210921,0.24,0.20,9.96,-0.03,-0.01,-0.01,31.11
36018168,692,1,185500,211363,0.27,0.19,9.96,-0.03,-0.01,-0.00,31.11
36058171,603,1,185639,211782,0.23,0.20,9.98,-0.03,-0.01,-0.01,31.11
36098168,547,1,185847,212637,0.24,0.20,9.96,-0.03,-0.01,-0.01,31.11
36138182,479,1,186185,213381,0.23,0.19,9.97,-0.03,-0.01,-0.01,31.11
36178168,445,1,186253,212404,0.24,0.20,9.98,-0.03,-0.01,-0.00,31.11
36218171,478,1,185485,210242,0.25,0.21,9.94,-0.03,-0.01,-0.00,31.11
36258168,510,1,185117,209949,0.25,0.20,9.99,-0.03,-0.01,-0.01,31.11
36298171,507,1,185283,210466,0.25,0.19,9.97,-0.03,-0.01,-0.00,31.11
36338168,369,1,185385,210609,0.23,0.19,9.99,-0.03,-0.01,-0.00,31.11
36378171,0,1,185435,210880,0.25,0.19,9.97,-0.03,-0.01,-0.00,31.11
36418168,0,1,185657,211633,0.24,0.21,9.95,-0.03,-0.01,-0.00,31.11
36458171,0,1,185824,211911,0.25,0.18,9.96,-0.03,-0.01,-0.01,31.11
36498168,0,1,185918,212199,0.25,0.19,9.99,-0.03,-0.01,-0.00,31.11
36538171,335,1,186000,212360,0.23,0.19,9.98,-0.03,-0.01,-0.01,31.11
36578168,732,1,186023,212463,0.24,0.22,9.97,-0.03,-0.01,-0.00,31.11
36618171,1127,1,186031,212316,0.23,0.16,9.98,-0.03,-0.01,-0.00,31.11
36658171,1492,1,186060,212870,0.22,0.19,10.01,-0.03,-0.01,-0.00,31.11
36698170,1878,1,186294,213677,0.24,0.20,9.96,-0.03,-0.01,-0.01,31.11
36738171,2171,1,186583,214269,0.23,0.21,9.99,-0.03,-0.01,-0.01,31.11
36778171,2335,1,186729,214531,0.24,0.20,9.97,-0.03,-0.01,-0.01,31.11
36818857,2437,1,186760,214646,0.25,0.19,9.97,-0.03,-0.01,-0.00,31.15
36859171,2512,1,186579,213129,0.25,0.20,9.97,-0.03,-0.01,-0.01,31.15
36899168,2595,1,185772,211247,0.23,0.20,9.98,-0.03,-0.01,-0.00,31.15
36939171,2655,1,185404,210938,0.23,0.20,9.96,-0.03,-0.01,-0.00,31.15
36979168,2672,1,185382,210960,0.22,0.19,9.97,-0.03,-0.01,-0.01,31.15
37019171,2683,1,185370,210988,0.24,0.20,9.96,-0.03,-0.01,-0.00,31.15
37059168,2677,1,185388,211321,0.23,0.18,9.97,-0.03,-0.01,-0.01,31.15
37099171,2683,1,185530,211770,0.24,0.18,9.97,-0.03,-0.01,-0.00,31.15
37139168,2653,1,185598,211662,0.24,0.19,10.00,-0.03,-0.01,-0.00,31.15
37179171,2634,1,185590,211578,0.23,0.20,9.96,-0.03,-0.01,-0.01,31.15
37219168,2639,1,185593,211654,0.22,0.19,9.95,-0.03,-0.01,-0.00,31.15
37259170,2609,1,185632,211800,0.24,0.21,9.96,-0.03,-0.01,-0.00,31.15
37299171,2559,1,185682,212010,0.24,0.19,9.96,-0.03,-0.01,-0.00,31.15
37339170,2541,1,185747,212355,0.24,0.19,9.93,-0.03,-0.01,-0.01,31.15
37379171,2509,1,185917,212784,0.24,0.19,9.95,-0.03,-0.01,-0.00,31.15
37419170,2470,1,186063,213403,0.23,0.18,9.97,-0.03,-0.01,-0.00,31.15
37459168,2421,1,186249,214026,0.22,0.19,9.98,-0.03,-0.01,-0.00,31.15
37499170,2380,1,186377,213612,0.23,0.20,9.95,-0.03,-0.01,-0.00,31.15
37539168,2335,1,185784,211362,0.23,0.19,10.00,-0.03,-0.01,-0.00,31.15
37579211,2288,1,185181,210511,0.24,0.21,9.95,-0.03,-0.01,-0.00,31.15
37619168,2256,1,185147,210686,0.23,0.19,9.97,-0.03,-0.01,-0.00,31.15
37659171,2211,1,185212,210849,0.24,0.20,9.97,-0.03,-0.01,-0.01,31.15
37697171,2141,1,185171,210734,0.24,0.21,9.97,-0.03,-0.01,-0.00,31.15
37737170,2102,1,185221,211046,0.23,0.19,9.99,-0.03,-0.01,-0.00,31.15
37777168,2096,1,185366,211230,0.24,0.21,9.98,-0.03,-0.01,-0.00,31.15
37817170,2038,1,185339,211013,0.25,0.19,9.95,-0.03,-0.01,-0.01,31.15
37857858,1989,1,185300,211011,0.25,0.20,9.97,-0.03,-0.01,-0.01,31.11
37898171,1946,1,185357,211028,0.24,0.19,9.98,-0.03,-0.01,-0.00,31.11
37938171,1915,1,185389,211142,0.23,0.19,9.96,-0.03,-0.01,-0.00,31.11
37978171,1881,1,185526,211355,0.23,0.20,9.96,-0.03,-0.01,-0.01,31.11
38018171,1857,1,185618,211670,0.24,0.19,9.98,-0.03,-0.01,-0.00,31.11
38058171,1842,1,185706,211939,0.25,0.19,9.98,-0.03,-0.01,-0.00,31.11
38098171,1809,1,185806,212287,0.25,0.21,10.00,-0.03,-0.01,-0.00,31.11
38138170,1794,1,185918,212713,0.24,0.20,9.97,-0.03,-0.01,-0.00,31.11
38178168,1782,1,186084,213210,0.24,0.21,9.97,-0.03,-0.01,-0.00,31.11
38218170,1771,1,186029,211829,0.25,0.20,9.97,-0.03,-0.01,-0.00,31.11
38258168,1775,1,185160,209511,0.24,0.19,9.97,-0.03,-0.01,-0.01,31.11
38298170,1776,1,184716,208933,0.25,0.19,9.97,-0.03,-0.01,-0.00,31.11
38338171,1738,1,184716,209153,0.24,0.21,9.97,-0.03,-0.01,-0.00,31.11
38378170,1710,1,184743,209313,0.22,0.21,9.97,-0.03,-0.01,-0.01,31.11
38418171,1649,1,184712,209490,0.23,0.20,9.97,-0.03,-0.01,-0.00,31.11
38458171,1601,1,184891,210055,0.23,0.19,9.96,-0.03,-0.01,-0.01,31.11
38498171,1535,1,184997,210173,0.25,0.20,9.99,-0.03,-0.01,-0.00,31.11
38538170,1492,1,185006,210191,0.24,0.19,9.96,-0.03,-0.01,-0.00,31.11
38578171,1469,1,185022,210340,0.26,0.17,9.96,-0.03,-0.01,-0.01,31.11
38618171,1474,1,185130,210528,0.23,0.21,9.96,-0.03,-0.01,-0.01,31.11
38658171,1501,1,185201,210830,0.24,0.18,9.98,-0.03,-0.01,-0.00,31.11
38698171,1517,1,185272,211167,0.26,0.17,9.97,-0.03,-0.01,-0.00,31.11
38738171,1573,1,185386,211465,0.24,0.18,9.97,-0.03,-0.01,-0.00,31.11
38778170,1602,1,185501,211819,0.23,0.21,9.96,-0.03,-0.01,-0.00,31.11
38818171,1646,1,185631,212141,0.24,0.20,9.95,-0.03,-0.01,-0.00,31.11
38858857,1695,1,185740,212546,0.26,0.20,9.99,-0.03,-0.01,-0.00,31.15
38897168,1755,1,185896,213012,0.25,0.19,9.95,-0.03,-0.01,-0.01,31.15
38937171,1792,1,185922,212157,0.25,0.20,9.98,-0.03,-0.01,-0.00,31.15
38977168,1834,1,185152,209669,0.24,0.17,9.96,-0.03,-0.01,-0.00,31.15
39017171,1855,1,184586,208905,0.24,0.20,9.95,-0.03,-0.01,-0.01,31.15
39057171,1872,1,184646,209356,0.23,0.19,9.96,-0.03,-0.01,-0.00,31.15
39097170,1897,1,184736,209616,0.23,0.20,9.98,-0.03,-0.01,-0.00,31.15
39137168,1912,1,184845,209869,0.23,0.20,9.95,-0.03,-0.01,-0.00,31.15
39177171,1903,1,185014,210372,0.23,0.20,9.96,-0.03,-0.01,-0.01,31.15
39217222,1808,1,185122,210542,0.24,0.19,9.95,-0.03,-0.01,-0.01,31.15
39257171,1733,1,185219,210703,0.22,0.19,9.95,-0.03,-0.01,-0.00,31.15
39297171,1535,1,185343,211156,0.22,0.20,9.97,-0.03,-0.01,-0.00,31.15
39337171,1461,1,185464,211351,0.24,0.19,9.97,-0.03,-0.01,-0.00,31.15
39377171,1434,1,185601,211775,0.23,0.18,9.98,-0.03,-0.01,-0.01,31.15
39417215,1456,1,185731,212142,0.23,0.21,9.95,-0.03,-0.01,-0.01,31.15
39457171,1486,1,185821,212559,0.23,0.18,9.99,-0.03,-0.01,-0.01,31.15
39497171,1559,1,185999,213082,0.23,0.19,9.97,-0.03,-0.01,-0.01,31.15
39537171,1615,1,186183,213690,0.24,0.18,9.96,-0.03,-0.01,-0.01,31.15
39577171,1643,1,186379,214323,0.24,0.18,9.95,-0.03,-0.01,-0.01,31.15
39617171,1713,1,186646,215024,0.24,0.20,9.94,-0.03,-0.01,-0.01,31.15
39657171,1763,1,186763,214485,0.25,0.22,9.97,-0.03,-0.01,-0.00,31.15
39697171,1833,1,185981,212010,0.23,0.20,9.96,-0.03,-0.01,-0.00,31.15
39737171,1873,1,185461,211391,0.23,0.19,9.97,-0.03,-0.01,-0.00,31.15
39777168,1900,1,185406,211612,0.25,0.17,9.98,-0.03,-0.01,-0.00,31.15
39817171,1923,1,185490,211639,0.24,0.21,9.96,-0.03,-0.01,-0.00,31.15
39857171,1943,1,185448,211692,0.23,0.19,9.96,-0.03,-0.01,-0.01,31.15
39897857,1946,1,185600,212243,0.22,0.20,9.98,-0.03,-0.01,-0.00,30.91
39938168,1968,1,185758,212469,0.23,0.18,9.95,-0.03,-0.01,-0.00,30.91
39978171,1973,1,185744,212562,0.25,0.17,9.99,-0.03,-0.01,-0.01,30.91
40018171,1965,1,185788,212757,0.26,0.19,9.96,-0.03,-0.01,-0.01,30.91
40058171,1951,1,185881,212928,0.25,0.19,9.97,-0.03,-0.01,-0.00,30.91
40098171,1957,1,185966,213223,0.23,0.18,9.97,-0.03,-0.01,-0.00,30.91
40138170,1959,1,186050,213499,0.22,0.19,9.96,-0.03,-0.01,-0.00,30.91
40178171,1973,1,186195,213969,0.25,0.19,9.96,-0.03,-0.01,-0.01,30.91
40218170,1965,1,186378,214546,0.24,0.19,9.98,-0.03,-0.01,-0.00,30.91
40256171,1945,1,186617,215094,0.25,0.19,9.95,-0.03,-0.01,-0.01,30.91
40296171,1963,1,186795,215721,0.25,0.21,9.97,-0.03,-0.01,-0.00,30.91
40336171,1965,1,187003,216006,0.23,0.21,9.96,-0.03,-0.01,-0.01,30.91
40376170,1971,1,186723,214133,0.23,0.19,9.99,-0.03,-0.01,-0.01,30.91
40416171,1957,1,185921,212419,0.24,0.19,9.99,-0.03,-0.01,-0.01,30.91
40456170,1957,1,185723,212451,0.22,0.20,9.96,-0.03,-0.01,-0.01,30.91
40496171,1958,1,185820,212715,0.25,0.21,9.97,-0.03,-0.01,-0.01,30.91
40536171,1968,1,185858,212544,0.23,0.18,9.96,-0.03,-0.01,-0.00,30.91
40576171,1968,1,185927,212827,0.22,0.18,9.96,-0.03,-0.01,-0.01,30.91
40616171,1984,1,186080,213372,0.23,0.21,10.00,-0.03,-0.01,-0.00,30.91
40656168,1968,1,186177,213467,0.23,0.19,9.99,-0.03,-0.01,-0.00,30.91
40696170,1954,1,186176,213529,0.24,0.18,9.96,-0.03,-0.01,-0.00,30.91
40736171,1950,1,186213,213679,0.24,0.18,9.98,-0.03,-0.01,-0.00,30.91
40776170,1920,1,186269,213855,0.24,0.20,9.98,-0.03,-0.01,-0.00,30.91
40816168,1918,1,186356,214115,0.25,0.20,9.96,-0.03,-0.01,-0.00,30.91
40856173,1913,1,186408,214370,0.23,0.17,9.96,-0.03,-0.01,-0.00,30.91
40896171,1915,1,186529,214824,0.24,0.19,9.95,-0.03,-0.01,-0.01,30.91
40936857,1904,1,186692,215454,0.25,0.18,9.96,-0.03,-0.01,-0.00,30.93
40977168,1895,1,186930,215932,0.22,0.19,9.98,-0.03,-0.01,-0.00,30.93
41017171,1868,1,187029,215970,0.25,0.19,9.97,-0.03,-0.01,-0.01,30.93
41057216,1852,1,186734,214070,0.23,0.19,9.97,-0.03,-0.01,-0.00,30.93
41097171,1858,1,185888,212342,0.24,0.20,9.95,-0.03,-0.01,-0.01,30.93
41137168,1848,1,185700,212509,0.25,0.20,9.97,-0.03,-0.01,-0.01,30.93
41177171,1850,1,185786,212785,0.24,0.19,9.97,-0.03,-0.01,-0.00,30.93
41217171,1856,1,185787,212565,0.21,0.18,10.00,-0.03,-0.01,-0.01,30.93
41257194,1842,1,185701,212617,0.25,0.19,9.96,-0.03,-0.01,-0.01,30.93
41297171,1840,1,185774,212986,0.23,0.19,9.99,-0.03,-0.01,-0.00,30.93
41337171,1854,1,185826,212947,0.25,0.21,10.00,-0.03,-0.01,-0.00,30.93
41377171,1840,1,185748,212836,0.23,0.20,9.95,-0.03,-0.01,-0.00,30.93
41417171,1853,1,185796,212847,0.24,0.20,9.98,-0.03,-0.01,-0.01,30.93
41457171,1857,1,185799,212810,0.24,0.20,9.97,-0.03,-0.01,-0.00,30.93
41497171,1867,1,185783,212933,0.23,0.18,9.97,-0.03,-0.01,-0.00,30.93
41537171,1859,1,185898,213274,0.24,0.18,9.99,-0.03,-0.01,-0.01,30.93
41577170,1871,1,186011,213661,0.23,0.20,9.96,-0.03,-0.01,-0.00,30.93
41617168,1861,1,186164,214027,0.24,0.22,9.96,-0.03,-0.01,-0.00,30.93
41657171,1843,1,186302,214483,0.23,0.20,9.97,-0.03,-0.01,-0.00,30.93
41697168,1843,1,186485,214984,0.25,0.21,9.95,-0.03,-0.01,-0.00,30.93
41737171,1847,1,186485,213931,0.24,0.21,9.96,-0.03,-0.01,-0.01,30.93
41777171,1859,1,185674,211536,0.25,0.18,9.96,-0.03,-0.01,-0.00,30.93
41817171,1853,1,185194,211139,0.25,0.19,9.95,-0.03,-0.01,-0.01,30.93
41857171,1844,1,185279,211509,0.24,0.19,9.97,-0.03,-0.01,-0.01,30.93
41897171,1862,1,185331,211553,0.24,0.19,9.97,-0.03,-0.01,-0.00,30.93
41937855,1875,1,185268,211603,0.24,0.21,9.97,-0.03,-0.01,-0.01,31.01
41976170,1865,1,185343,212013,0.23,0.18,9.98,-0.03,-0.01,-0.01,31.01
42016171,1876,1,185491,212230,0.25,0.21,9.98,-0.03,-0.01,-0.00,31.01
42056170,1878,1,185585,212342,0.24,0.18,9.96,-0.03,-0.01,-0.00,31.01
42096171,1873,1,185634,212488,0.22,0.19,9.99,-0.03,-0.01,-0.01,31.01
42136170,1886,1,185682,212707,0.26,0.18,9.95,-0.03,-0.01,-0.00,31.01
42176171,1903,1,185756,212879,0.24,0.18,9.97,-0.03,-0.01,-0.01,31.01
42216170,1891,1,185859,213167,0.25,0.20,9.95,-0.03,-0.01,-0.00,31.01
42256168,1898,1,185956,213482,0.24,0.19,9.99,-0.03,-0.01,-0.00,31.01
42296170,1889,1,186149,213977,0.26,0.19,9.95,-0.03,-0.01,-0.00,31.01
42336171,1878,1,186361,214617,0.24,0.18,9.98,-0.03,-0.01,-0.01,31.01
42376170,1879,1,186549,215200,0.24,0.20,9.98,-0.03,-0.01,-0.00,31.01
42416168,1884,1,186771,215418,0.23,0.18,9.98,-0.03,-0.01,-0.00,31.01
42456170,1877,1,186442,213341,0.23,0.21,10.01,-0.03,-0.01,-0.00,31.01
42496172,1872,1,185687,211928,0.26,0.20,9.98,-0.03,-0.01,-0.00,31.01
42536170,1898,1,185526,211940,0.25,0.19,9.96,-0.03,-0.01,-0.00,31.01
42576171,1887,1,185664,212160,0.22,0.19,9.96,-0.03,-0.01,-0.01,31.01
42616170,1882,1,185706,212322,0.23,0.19,9.97,-0.03,-0.01,-0.00,31.01
42656171,1883,1,185823,212904,0.23,0.19,9.97,-0.03,-0.01,-0.01,31.01
42696204,1874,1,186049,213393,0.23,0.19,9.96,-0.03,-0.01,-0.00,31.01
42736171,1859,1,186143,213537,0.23,0.20,9.93,-0.03,-0.01,-0.01,31.01
42776170,1877,1,186153,213657,0.24,0.19,9.99,-0.03,-0.01,-0.01,31.01
42816170,1892,1,186221,213908,0.25,0.20,9.99,-0.03,-0.01,-0.00,31.01
42856170,1887,1,186353,214235,0.24,0.19,9.97,-0.03,-0.01,-0.01,31.01
42896187,1883,1,186479,214560,0.26,0.19,9.96,-0.03,-0.01,-0.00,31.01
42936170,1873,1,186613,214844,0.25,0.20,9.95,-0.03,-0.01,-0.01,31.01
42976857,1874,1,186750,215327,0.24,0.18,9.96,-0.03,-0.01,-0.00,31.05
43017170,1883,1,186971,215835,0.23,0.19,9.98,-0.03,-0.01,-0.00,31.05
43057171,1875,1,187141,216471,0.25,0.19,9.94,-0.03,-0.01,-0.00,31.05
43097170,1873,1,187303,216976,0.24,0.17,9.95,-0.04,-0.01,-0.01,31.05
43137171,1876,1,187223,215740,0.24,0.20,9.99,-0.03,-0.01,-0.00,31.05
43177171,1883,1,186522,213915,0.25,0.18,9.96,-0.03,-0.01,-0.00,31.05
43217171,1872,1,186151,214002,0.24,0.20,9.97,-0.03,-0.01,-0.00,31.05
43257171,1868,1,186291,214414,0.26,0.21,9.96,-0.03,-0.01,-0.00,31.05
43297168,1870,1,186354,214383,0.25,0.20,9.93,-0.03,-0.01,-0.00,31.05
43337170,1868,1,186411,214806,0.23,0.17,9.98,-0.03,-0.01,-0.00,31.05
43377171,1864,1,186615,215388,0.22,0.18,9.95,-0.03,-0.01,-0.01,31.05
43417170,1858,1,186726,215532,0.24,0.21,9.98,-0.03,-0.01,-0.01,31.05
43457171,1869,1,186730,215556,0.23,0.20,9.96,-0.03,-0.01,-0.00,31.05
43497171,1861,1,186803,215613,0.25,0.18,9.97,-0.03,-0.01,-0.00,31.05
43536171,1859,1,186797,215688,0.25,0.17,9.93,-0.03,-0.01,-0.00,31.05
43576170,1858,1,186844,215896,0.24,0.20,9.97,-0.03,-0.01,-0.00,31.05
43616168,1865,1,186943,216092,0.25,0.20,9.97,-0.03,-0.01,-0.00,31.05
43656170,1848,1,187002,216367,0.23,0.18,9.97,-0.03,-0.01,-0.01,31.05
43696171,1850,1,187146,216685,0.26,0.20,9.98,-0.03,-0.01,-0.00,31.05
43736170,1846,1,187268,217119,0.25,0.20,9.99,-0.03,-0.01,-0.00,31.05
43776168,1865,1,187347,217268,0.25,0.19,9.97,-0.03,-0.01,-0.01,31.05
43816170,1870,1,187187,215740,0.24,0.18,9.96,-0.03,-0.01,-0.00,31.05
43856171,1859,1,186423,213948,0.26,0.18,9.98,-0.03,-0.01,-0.01,31.05
43896170,1849,1,186110,213819,0.23,0.21,9.95,-0.03,-0.01,-0.00,31.05
43936171,1840,1,186188,214044,0.26,0.19,9.97,-0.03,-0.01,-0.01,31.05
43976857,1856,1,186226,214051,0.25,0.20,9.98,-0.03,-0.01,-0.00,30.93
44015168,1855,1,186229,214189,0.25,0.19,9.99,-0.03,-0.01,-0.01,30.93
44055170,1861,1,186336,214465,0.23,0.20,9.99,-0.03,-0.01,-0.01,30.93
44095171,1866,1,186362,214465,0.24,0.18,9.94,-0.03,-0.01,-0.00,30.93
44135170,1856,1,186361,214499,0.23,0.19,9.96,-0.03,-0.01,-0.01,30.93
44175171,1866,1,186485,214776,0.26,0.19,9.96,-0.03,-0.01,-0.01,30.93
44215171,1877,1,186529,214907,0.24,0.18,9.98,-0.03,-0.01,-0.00,30.93
44255171,1894,1,186617,215026,0.23,0.20,9.97,-0.03,-0.01,-0.00,30.93
44295170,1901,1,186701,215137,0.25,0.20,9.98,-0.03,-0.01,-0.00,30.93
44335168,1911,1,186777,215423,0.23,0.18,9.97,-0.03,-0.01,-0.01,30.93
44375170,1904,1,186885,215754,0.25,0.20,9.98,-0.03,-0.01,-0.01,30.93
44415171,1910,1,187014,216089,0.26,0.19,9.96,-0.03,-0.01,-0.00,30.93
44455170,1907,1,187109,216347,0.25,0.17,9.97,-0.03,-0.01,-0.00,30.93
44495171,1894,1,187171,215817,0.25,0.17,9.98,-0.03,-0.01,-0.00,30.93
44535170,1863,1,186561,213529,0.22,0.17,9.98,-0.03,-0.01,-0.01,30.93
44575171,1863,1,185911,212661,0.23,0.20,9.96,-0.03,-0.01,-0.01,30.93
44615170,1867,1,185832,212732,0.24,0.19,9.95,-0.03,-0.01,-0.00,30.93
44655171,1870,1,185873,212644,0.24,0.18,9.99,-0.03,-0.01,-0.00,30.93
44695170,1861,1,185814,212679,0.23,0.18,9.96,-0.03,-0.01,-0.00,30.93
44735171,1873,1,185986,213679,0.25,0.19,9.97,-0.03,-0.01,-0.01,30.93
44775170,1871,1,186324,214525,0.25,0.19,9.94,-0.03,-0.01,-0.00,30.93
44815170,1854,1,186623,215074,0.24,0.19,9.97,-0.03,-0.01,-0.01,30.93
44855170,1859,1,186786,215268,0.24,0.20,9.97,-0.03,-0.01,-0.00,30.93
44895168,1856,1,186890,215508,0.25,0.20,9.99,-0.03,-0.01,-0.01,30.93
44935170,1875,1,186935,215706,0.24,0.19,9.99,-0.03,-0.01,-0.00,30.93
44975168,1855,1,186959,215768,0.24,0.20,9.96,-0.03,-0.01,-0.00,30.93
45015857,1859,1,186998,215913,0.24,0.18,10.00,-0.03,-0.01,-0.01,31.13
45056168,1862,1,187029,216239,0.24,0.20,9.97,-0.03,-0.01,-0.01,31.13
45096170,1872,1,187205,216727,0.24,0.19,9.94,-0.03,-0.01,-0.01,31.13
45136171,1856,1,187371,217329,0.24,0.18,9.96,-0.03,-0.01,-0.01,31.13
45176170,1845,1,187516,217408,0.24,0.18,9.96,-0.03,-0.01,-0.00,31.13
45216171,1847,1,187127,215404,0.26,0.19,9.99,-0.03,-0.01,-0.00,31.13
45256171,1851,1,186383,214124,0.26,0.19,9.98,-0.03,-0.01,-0.01,31.13
45296171,1861,1,186377,214578,0.24,0.18,9.95,-0.03,-0.01,-0.01,31.13
45336170,1872,1,186650,215370,0.24,0.18,9.96,-0.03,-0.01,-0.01,31.13
45376171,1869,1,186827,215616,0.23,0.20,9.98,-0.03,-0.01,-0.01,31.13
45416170,1860,1,186933,216095,0.23,0.19,9.96,-0.03,-0.01,-0.00,31.13
45456171,1845,1,187186,216871,0.23,0.18,9.96,-0.03,-0.01,-0.00,31.13
45496171,1837,1,187415,217413,0.23,0.20,9.98,-0.03,-0.01,-0.00,31.13
45536168,1840,1,187565,217550,0.25,0.20,10.00,-0.03,-0.01,-0.00,31.13
45576170,1834,1,187627,217617,0.24,0.20,9.96,-0.03,-0.01,-0.00,31.13
45616168,1842,1,187617,217775,0.24,0.19,9.97,-0.03,-0.01,-0.01,31.13
45656170,1840,1,187714,218203,0.24,0.19,9.95,-0.03,-0.01,-0.00,31.13
45696171,1840,1,187954,218754,0.23,0.19,9.97,-0.03,-0.01,-0.00,31.13
45736170,1847,1,188139,219370,0.25,0.20,9.98,-0.03,-0.01,-0.00,31.13
45776168,1835,1,188362,220176,0.24,0.19,9.97,-0.03,-0.01,-0.00,31.13
45816170,1836,1,188695,221081,0.24,0.16,9.98,-0.03,-0.01,-0.00,31.13
45856171,1828,1,189030,221727,0.23,0.19,9.96,-0.03,-0.01,-0.01,31.13
45896171,1808,1,188878,220171,0.23,0.18,10.01,-0.03,-0.01,-0.01,31.13
45936171,1810,1,188220,218733,0.25,0.20,9.95,-0.04,-0.01,-0.01,31.13
45976228,1792,1,188023,218847,0.24,0.18,9.98,-0.03,-0.01,-0.01,31.13
46016857,1796,1,188155,219092,0.27,0.20,9.96,-0.04,-0.01,-0.00,31.07
46055170,1815,1,188221,219250,0.24,0.20,9.94,-0.03,-0.01,-0.00,31.07
46095168,1820,1,188349,219766,0.24,0.19,9.98,-0.03,-0.01,-0.01,31.07
46135170,1843,1,188601,220266,0.23,0.17,9.96,-0.03,-0.01,-0.00,31.07
46175210,1845,1,188727,220451,0.23,0.19,9.99,-0.03,-0.01,-0.00,31.07
46215171,1856,1,188783,220526,0.25,0.20,9.96,-0.03,-0.01,-0.00,31.07
46255168,1871,1,188841,220716,0.24,0.20,9.96,-0.03,-0.01,-0.00,31.07
46295170,1875,1,188834,220730,0.24,0.18,9.97,-0.03,-0.01,-0.00,31.07
46335171,1890,1,188836,220777,0.23,0.20,10.01,-0.03,-0.01,-0.00,31.07
46375170,1905,1,188816,220908,0.24,0.19,9.97,-0.03,-0.01,-0.00,31.07
46415171,1901,1,188917,221210,0.26,0.19,9.98,-0.03,-0.01,-0.00,31.07
46455170,1904,1,189005,221628,0.23,0.17,9.96,-0.03,-0.01,-0.01,31.07
46495170,1909,1,189114,221920,0.24,0.19,9.96,-0.03,-0.01,-0.00,31.07
46535170,1919,1,189133,221336,0.25,0.19,9.99,-0.03,-0.01,-0.01,31.07
46575170,1917,1,188599,219403,0.23,0.19,9.98,-0.03,-0.01,-0.01,31.07
46616170,1909,1,188039,218453,0.24,0.18,9.96,-0.03,-0.01,-0.00,31.07
46656170,1906,1,187932,218270,0.23,0.18,9.97,-0.03,-0.01,-0.00,31.07
46696170,1904,1,187859,218049,0.23,0.19,9.98,-0.03,-0.01,-0.01,31.07
46736170,1904,1,187705,217997,0.25,0.18,9.95,-0.03,-0.01,-0.00,31.07
46776170,1901,1,187785,218361,0.23,0.17,9.96,-0.03,-0.01,-0.00,31.07
46816170,1894,1,187886,218458,0.23,0.18,9.97,-0.03,-0.01,-0.00,31.07
46856170,1890,1,187827,218308,0.25,0.19,9.98,-0.03,-0.01,-0.00,31.07
46896170,1901,1,187752,218311,0.24,0.18,9.95,-0.03,-0.01,-0.00,31.07
46936170,1889,1,187766,218375,0.23,0.21,9.95,-0.03,-0.01,-0.00,31.07
46976170,1898,1,187811,218418,0.25,0.20,9.99,-0.03,-0.01,-0.01,31.07
47016170,1875,1,187824,218561,0.24,0.19,9.99,-0.03,-0.01,-0.01,31.07
47056857,1869,1,187896,218913,0.25,0.18,9.96,-0.03,-0.01,-0.00,31.11
47095171,1856,1,188015,219227,0.24,0.19,9.99,-0.03,-0.01,-0.00,31.11
47135171,1859,1,188108,219513,0.24,0.19,9.98,-0.03,-0.01,-0.01,31.11
47175170,1875,1,188150,219390,0.24,0.20,9.96,-0.03,-0.01,-0.00,31.11
47215168,1857,1,187811,217487,0.26,0.20,9.96,-0.03,-0.01,-0.01,31.11
47255170,1866,1,187028,215963,0.24,0.19,9.96,-0.03,-0.01,-0.00,31.11
47295171,1858,1,186831,215855,0.23,0.17,9.96,-0.03,-0.01,-0.01,31.11
47335171,1842,1,186829,215864,0.24,0.19,9.97,-0.03,-0.01,-0.00,31.11
47375171,1835,1,186780,215682,0.23,0.18,9.96,-0.03,-0.01,-0.01,31.11
47415170,1840,1,186719,215888,0.26,0.19,9.96,-0.03,-0.01,-0.01,31.11
47455171,1850,1,186906,216234,0.25,0.19,10.00,-0.03,-0.01,-0.00,31.11
47495171,1853,1,186955,216301,0.24,0.20,9.96,-0.03,-0.01,-0.00,31.11
47535168,1851,1,186953,216292,0.23,0.19,9.98,-0.03,-0.01,-0.00,31.11
47575171,1855,1,186961,216323,0.24,0.20,9.95,-0.03,-0.01,-0.01,31.11
47616172,1852,1,186978,216480,0.25,0.20,9.97,-0.03,-0.01,-0.01,31.11
47654170,1861,1,187029,216628,0.22,0.18,9.99,-0.03,-0.01,-0.01,31.11
47694170,1845,1,187113,216852,0.25,0.19,9.98,-0.03,-0.01,-0.01,31.11
47734170,1851,1,187176,217211,0.23,0.18,9.97,-0.03,-0.01,-0.01,31.11
47774170,1853,1,187368,217656,0.25,0.17,9.99,-0.03,-0.01,-0.00,31.11
47814172,1836,1,187542,217974,0.25,0.19,9.98,-0.03,-0.01,-0.00,31.11
47854171,1829,1,187575,217500,0.25,0.20,9.98,-0.03,-0.01,-0.00,31.11
47894170,1829,1,187055,215358,0.24,0.20,9.98,-0.03,-0.01,-0.01,31.11
47934171,1826,1,186502,214587,0.24,0.20,9.96,-0.03,-0.01,-0.00,31.11
47974170,1833,1,186466,214641,0.24,0.18,9.98,-0.03,-0.01,-0.00,31.11
48014170,1837,1,186551,214683,0.23,0.18,9.97,-0.03,-0.01,-0.01,31.11
48054170,1845,1,186562,214793,0.24,0.18,9.97,-0.03,-0.01,-0.00,31.11
48094857,1838,1,186608,215348,0.24,0.22,9.98,-0.03,-0.01,-0.00,31.01
48135170,1852,1,186718,215589,0.24,0.20,9.97,-0.03,-0.01,-0.00,31.01
48175168,1840,1,186710,215553,0.24,0.20,9.98,-0.03,-0.01,-0.00,31.01
48215170,1852,1,186775,215710,0.25,0.20,9.95,-0.03,-0.01,-0.00,31.01
48255168,1854,1,186825,215897,0.25,0.18,9.95,-0.03,-0.01,-0.01,31.01
48295170,1867,1,186889,216179,0.25,0.18,9.96,-0.03,-0.01,-0.00,31.01
48335171,1856,1,187056,216594,0.23,0.20,9.97,-0.03,-0.01,-0.00,31.01
48375170,1854,1,187204,217013,0.26,0.19,9.97,-0.03,-0.01,-0.01,31.01
48415171,1833,1,187325,217489,0.22,0.17,9.97,-0.03,-0.01,-0.00,31.01
48455170,1833,1,187527,217868,0.24,0.19,9.97,-0.03,-0.01,-0.00,31.01
48495171,1831,1,187638,218325,0.23,0.18,9.97,-0.03,-0.01,-0.01,31.01
48535171,1827,1,187707,218089,0.24,0.19,9.97,-0.03,-0.01,-0.00,31.01
48575170,1833,1,187278,216056,0.25,0.19,9.96,-0.03,-0.01,-0.01,31.01
48615170,1857,1,186639,215098,0.26,0.20,9.98,-0.03,-0.01,-0.00,31.01
48655168,1855,1,186523,215216,0.24,0.20,9.98,-0.03,-0.01,-0.00,31.01
48695171,1861,1,186579,215361,0.23,0.20,9.95,-0.03,-0.01,-0.01,31.01
48735171,1867,1,186565,215420,0.24,0.19,9.96,-0.03,-0.01,-0.01,31.01
48775170,1872,1,186639,215875,0.23,0.18,9.98,-0.03,-0.01,-0.00,31.01
48815170,1872,1,186777,216086,0.25,0.18,9.98,-0.03,-0.01,-0.00,31.01
48855170,1857,1,186844,216111,0.23,0.20,9.96,-0.03,-0.01,-0.00,31.01
48895168,1872,1,186847,216165,0.21,0.18,9.95,-0.03,-0.01,-0.00,31.01
48935170,1883,1,186849,216293,0.24,0.18,9.99,-0.03,-0.01,-0.00,31.01
48975171,1879,1,186925,216599,0.26,0.20,9.96,-0.03,-0.01,-0.00,31.01
49015170,1861,1,187061,216953,0.26,0.17,9.96,-0.03,-0.01,-0.01,31.01
49055171,1842,1,187191,217460,0.22,0.20,9.97,-0.03,-0.01,-0.01,31.01
49095857,1853,1,187380,217947,0.28,0.20,9.97,-0.03,-0.01,-0.01,31.01
49134171,1860,1,187514,218300,0.24,0.19,9.97,-0.03,-0.01,-0.01,31.01
49174170,1855,1,187584,218478,0.23,0.18,9.98,-0.03,-0.01,-0.01,31.01
49214171,1856,1,187547,217688,0.24,0.19,9.98,-0.03,-0.01,-0.01,31.01
49254187,1877,1,186945,216224,0.23,0.20,9.97,-0.03,-0.01,-0.00,31.01
49294168,1888,1,186691,216017,0.24,0.20,9.98,-0.03,-0.01,-0.00,31.01
49334170,1872,1,186717,215936,0.23,0.18,9.98,-0.03,-0.01,-0.00,31.01
49374170,1873,1,186657,215798,0.26,0.21,9.96,-0.03,-0.01,-0.01,31.01
49414170,1872,1,186613,215828,0.27,0.17,9.99,-0.03,-0.01,-0.00,31.01
49454199,1868,1,186749,216242,0.26,0.18,9.96,-0.03,-0.01,-0.01,31.01
49494170,1861,1,186828,216174,0.23,0.19,9.97,-0.03,-0.01,-0.01,31.01
49534170,1872,1,186790,216160,0.26,0.19,9.97,-0.03,-0.01,-0.01,31.01
49574170,1878,1,186774,216228,0.27,0.19,9.93,-0.03,-0.01,-0.01,31.01
49614170,1873,1,186942,216678,0.23,0.17,9.98,-0.04,-0.01,-0.00,31.01
49654196,1856,1,187171,217170,0.23,0.21,9.99,-0.03,-0.01,-0.00,31.01
49694171,1837,1,187270,217412,0.25,0.21,9.98,-0.03,-0.01,-0.00,31.01
49734170,1831,1,187331,217408,0.25,0.18,9.97,-0.03,-0.01,-0.00,31.01
49774171,1841,1,187386,217663,0.28,0.16,9.99,-0.03,-0.01,-0.00,31.01
49814170,1839,1,187529,218328,0.29,0.18,9.97,-0.03,-0.01,-0.01,31.01
49854171,1844,1,187825,219057,0.24,0.21,9.96,-0.04,-0.01,-0.01,31.01
49894170,1833,1,187830,218228,0.21,0.20,9.97,-0.03,-0.01,-0.01,31.01
49934171,1865,1,187256,216891,0.24,0.18,9.99,-0.03,-0.01,-0.00,31.01
49974170,1854,1,187063,217240,0.24,0.19,9.95,-0.03,-0.00,-0.00,31.01
50014170,1847,1,187283,217653,0.24,0.21,9.97,-0.03,-0.01,-0.00,31.01
50054170,1887,1,187263,217373,0.24,0.17,9.99,-0.03,-0.01,-0.00,31.01
50094170,1881,1,187176,217375,0.25,0.19,9.97,-0.03,-0.01,-0.01,31.01
50134856,1893,1,187314,217909,0.22,0.17,9.96,-0.03,-0.01,-0.01,30.99
50175170,1898,1,187465,218220,0.23,0.20,9.97,-0.03,-0.01,-0.00,30.99
50215171,1893,1,187545,218433,0.24,0.19,9.96,-0.03,-0.01,-0.00,30.99
50255171,1879,1,187618,218723,0.25,0.20,9.96,-0.03,-0.01,-0.00,30.99
50295171,1872,1,187784,219009,0.22,0.19,9.97,-0.03,-0.02,-0.00,30.99
50335171,1851,1,187902,219398,0.24,0.19,9.99,-0.03,-0.02,-0.00,30.99
50375171,1849,1,188013,219832,0.23,0.21,9.98,-0.04,-0.02,-0.00,30.99
50415171,1845,1,188122,220270,0.27,0.20,9.95,-0.03,-0.00,-0.00,30.99
50455171,1845,1,188464,221352,0.24,0.20,9.98,-0.03,-0.02,-0.00,30.99
50495168,1838,1,188790,222177,0.27,0.18,9.97,-0.03,-0.01,-0.00,30.99
50535170,1847,1,188983,222785,0.26,0.19,9.97,-0.03,-0.01,-0.01,30.99
50575171,1831,1,189230,223334,0.24,0.21,9.97,-0.04,-0.01,-0.00,30.99
50615171,1811,1,189145,221786,0.25,0.19,9.96,-0.03,-0.01,-0.00,30.99
50655171,1810,1,188436,220271,0.27,0.18,9.98,-0.04,-0.01,-0.01,30.99
50695171,1809,1,188170,220074,0.27,0.19,10.00,-0.03,-0.01,-0.01,30.99
50735171,1822,1,188179,220183,0.25,0.20,9.95,-0.04,-0.01,-0.00,30.99
50775170,1809,1,188270,220372,0.24,0.20,9.98,-0.04,-0.01,-0.01,30.99
50815171,1816,1,188341,220710,0.26,0.19,9.98,-0.03,-0.01,-0.00,30.99
50855171,1830,1,188619,221621,0.26,0.21,9.95,-0.03,-0.01,-0.00,30.99
50895171,1827,1,188956,222196,0.25,0.19,9.98,-0.04,-0.01,-0.00,30.99
50935170,1845,1,189043,222183,0.26,0.18,9.98,-0.03,-0.01,-0.01,30.99
50975171,1851,1,189050,222254,0.27,0.18,9.98,-0.03,-0.01,-0.01,30.99
51015171,1846,1,189138,222287,0.26,0.17,9.94,-0.03,-0.01,-0.00,30.99
51055171,1835,1,189153,222341,0.26,0.17,9.97,-0.03,-0.01,-0.00,30.99
51095217,1815,1,189214,222308,0.28,0.20,9.96,-0.03,-0.01,-0.01,30.99
51135857,1827,1,189277,222472,0.27,0.19,9.97,-0.03,-0.01,-0.00,31.07
51174171,1808,1,189334,222779,0.29,0.19,9.98,-0.03,-0.01,-0.01,31.07
51214171,1810,1,189382,222756,0.26,0.19,9.97,-0.03,-0.01,-0.00,31.07
51254170,1807,1,189365,222744,0.26,0.17,9.96,-0.03,-0.01,-0.00,31.07
51294177,1803,1,189398,222789,0.24,0.20,9.96,-0.03,-0.01,-0.00,31.07
51334171,1808,1,189212,221305,0.27,0.20,9.97,-0.04,-0.01,-0.00,31.07
51374168,1797,1,188365,219102,0.27,0.18,9.97,-0.04,-0.01,-0.01,31.07
51414170,1792,1,187862,218438,0.25,0.18,10.00,-0.04,-0.02,-0.01,31.07
51454171,1792,1,187762,218234,0.29,0.17,9.98,-0.04,-0.01,-0.01,31.07
51494170,1794,1,187730,218028,0.27,0.18,9.97,-0.03,-0.01,-0.00,31.07
51534171,1792,1,187819,218428,0.28,0.18,9.96,-0.03,-0.01,-0.01,31.07
51574170,1781,1,188030,218985,0.26,0.18,9.97,-0.03,-0.01,-0.00,31.07
51614171,1786,1,188164,219178,0.25,0.18,9.96,-0.03,-0.01,-0.00,31.07
51654170,1797,1,188120,219222,0.26,0.19,9.95,-0.03,-0.01,-0.01,31.07
51694171,1787,1,188188,219321,0.27,0.18,9.97,-0.03,-0.01,-0.00,31.07
51734170,1774,1,188163,219272,0.28,0.17,9.96,-0.03,-0.01,-0.00,31.07
51774171,1775,1,188149,219307,0.26,0.18,9.96,-0.03,-0.01,-0.00,31.07
51814170,1798,1,188134,219512,0.27,0.16,9.98,-0.03,-0.01,-0.00,31.07
51854171,1807,1,188220,219658,0.24,0.18,9.96,-0.03,-0.01,-0.00,31.07
51894170,1790,1,188275,219692,0.25,0.18,9.98,-0.03,-0.01,-0.00,31.07
51934171,1798,1,188314,220101,0.26,0.18,9.98,-0.03,-0.01,-0.01,31.07
51974170,1824,1,188504,220484,0.22,0.16,9.96,-0.03,0.00,-0.01,31.07
52014158,1837,1,188432,219523,0.24,0.19,9.99,-0.03,-0.01,-0.01,31.07
52054170,1840,1,187769,217708,0.28,0.19,9.97,-0.03,-0.01,-0.01,31.07
52094171,1856,1,187262,216912,0.26,0.17,9.99,-0.03,-0.01,-0.01,31.07
52134170,1856,1,187084,216646,0.24,0.21,9.99,-0.03,-0.01,-0.01,31.07
52174857,1846,1,186898,216401,0.25,0.19,9.96,-0.03,-0.01,-0.00,31.49
52213170,1845,1,186887,216590,0.24,0.18,9.96,-0.03,-0.01,-0.00,31.49
52253171,1851,1,186992,217085,0.27,0.19,9.98,-0.03,-0.01,-0.01,31.49
52293170,1855,1,187042,216825,0.22,0.19,9.98,-0.03,-0.01,-0.01,31.49
52333170,1834,1,186855,216182,0.25,0.19,9.96,-0.03,-0.02,-0.00,31.49
52373170,1846,1,186750,216130,0.26,0.20,9.95,-0.03,-0.02,-0.00,31.49
52413168,1856,1,186777,216275,0.26,0.18,9.99,-0.03,-0.01,-0.00,31.49
52453170,1872,1,186824,216093,0.25,0.19,9.96,-0.03,-0.01,-0.01,31.49
52493171,1871,1,186665,215826,0.24,0.20,9.96,-0.03,-0.01,-0.00,31.49
52533170,1846,1,186668,216038,0.26,0.19,9.97,-0.03,-0.01,-0.01,31.49
52573170,1872,1,186773,216448,0.25,0.18,9.99,-0.03,-0.01,-0.00,31.49
52613170,1872,1,186924,216905,0.26,0.18,9.96,-0.03,-0.01,-0.00,31.49
52653170,1863,1,187019,217030,0.26,0.17,9.98,-0.03,-0.01,-0.01,31.49
52693170,1863,1,186842,215590,0.23,0.20,9.98,-0.03,-0.01,-0.00,31.49
52733204,1843,1,186068,213776,0.25,0.20,10.00,-0.03,-0.01,-0.00,31.49
52773170,1838,1,185692,213449,0.25,0.17,9.97,-0.04,-0.01,-0.00,31.49
52813171,1831,1,185684,213263,0.24,0.18,9.98,-0.03,-0.01,-0.00,31.49
52853170,1829,1,185623,213060,0.28,0.18,9.96,-0.03,-0.01,-0.01,31.49
52893171,1827,1,185596,213309,0.27,0.18,9.97,-0.03,-0.01,-0.00,31.49
52933210,1805,1,185826,214093,0.25,0.19,9.96,-0.03,-0.01,-0.01,31.49
52973170,1808,1,186087,214558,0.25,0.19,9.96,-0.03,-0.01,-0.00,31.49
53013170,1820,1,186174,214682,0.25,0.18,9.96,-0.03,-0.01,-0.01,31.49
53053170,1827,1,186193,214788,0.25,0.18,9.96,-0.03,-0.01,-0.00,31.49
53093170,1825,1,186271,215164,0.27,0.19,9.98,-0.03,-0.01,-0.01,31.49
53133171,1825,1,186479,215513,0.25,0.19,9.97,-0.03,-0.01,-0.00,31.49
53173170,1817,1,186547,215497,0.26,0.18,9.97,-0.03,-0.01,-0.01,31.49
53213857,1824,1,186595,215629,0.24,0.18,9.96,-0.03,-0.01,-0.00,31.39
53254170,1840,1,186697,216022,0.26,0.20,9.97,-0.03,-0.01,-0.01,31.39
53294171,1840,1,187013,216850,0.27,0.20,9.96,-0.03,-0.01,-0.00,31.39
53334171,1844,1,187199,217272,0.24,0.18,9.98,-0.03,-0.01,-0.01,31.39
53374170,1840,1,187142,216057,0.23,0.17,9.93,-0.03,-0.01,-0.00,31.39
53414170,1855,1,186384,214040,0.26,0.18,9.96,-0.03,-0.01,-0.01,31.39
53454171,1850,1,185971,213809,0.24,0.19,9.97,-0.03,-0.01,-0.00,31.39
53494170,1858,1,186002,213821,0.26,0.20,9.97,-0.03,-0.01,-0.01,31.39
53534171,1862,1,185951,213437,0.24,0.18,9.98,-0.03,-0.01,-0.00,31.39
53574170,1845,1,185821,213318,0.23,0.18,9.96,-0.03,-0.01,-0.00,31.39
53614171,1856,1,185890,213919,0.26,0.18,9.96,-0.03,-0.01,-0.00,31.39
53654170,1857,1,186112,214442,0.26,0.18,9.97,-0.03,-0.01,-0.00,31.39
53694168,1845,1,186220,214691,0.25,0.18,9.96,-0.03,-0.01,-0.00,31.39
53734170,1851,1,186250,214708,0.25,0.18,9.97,-0.03,-0.01,-0.00,31.39
53774171,1852,1,186303,214881,0.26,0.19,9.96,-0.03,-0.01,-0.01,31.39
53814170,1856,1,186505,215451,0.26,0.19,9.97,-0.03,-0.01,-0.00,31.39
53854171,1851,1,186659,215957,0.25,0.19,9.96,-0.03,-0.01,-0.01,31.39
53894171,1858,1,186826,216278,0.25,0.18,10.00,-0.03,-0.01,-0.00,31.39
53934168,1843,1,186947,216671,0.27,0.19,9.96,-0.03,-0.01,-0.01,31.39
53974170,1833,1,187105,217163,0.26,0.19,9.99,-0.03,-0.01,-0.00,31.39
54014171,1830,1,187183,217606,0.26,0.18,9.96,-0.03,-0.01,-0.00,31.39
54054170,1835,1,187212,217048,0.25,0.19,9.97,-0.03,-0.01,-0.00,31.39
54094171,1818,1,186648,215014,0.25,0.20,9.96,-0.03,-0.01,-0.00,31.39
54134170,1827,1,186079,214220,0.26,0.21,10.00,-0.03,-0.01,-0.01,31.39
54174171,1819,1,186070,214298,0.25,0.19,9.97,-0.03,-0.01,-0.00,31.39
54214857,1840,1,186096,214145,0.26,0.18,9.98,-0.03,-0.01,-0.00,31.41
54253171,1842,1,186039,214133,0.27,0.20,9.95,-0.03,-0.01,-0.00,31.41
54293170,1853,1,186112,214633,0.25,0.19,9.96,-0.03,-0.01,-0.00,31.41
54333168,1842,1,186333,215048,0.26,0.18,9.94,-0.03,-0.01,-0.00,31.41
54373175,1842,1,186328,215234,0.27,0.19,9.97,-0.03,-0.01,-0.00,31.41
54413171,1856,1,186396,215361,0.25,0.20,9.97,-0.04,-0.01,-0.01,31.41
54453171,1849,1,186444,215419,0.25,0.18,9.98,-0.03,-0.01,-0.01,31.41
54493171,1856,1,186451,215292,0.25,0.20,9.97,-0.03,-0.01,-0.01,31.41
54533171,1847,1,186407,215358,0.28,0.20,9.97,-0.03,-0.01,-0.01,31.41
54573200,1853,1,186483,215673,0.24,0.19,9.97,-0.03,-0.01,-0.00,31.41
54613170,1854,1,186633,216218,0.25,0.18,9.97,-0.03,-0.01,-0.00,31.41
54653171,1856,1,186811,216695,0.25,0.19,9.97,-0.03,-0.01,-0.00,31.41
54693170,1866,1,186918,216821,0.26,0.18,9.96,-0.03,-0.01,-0.01,31.41
54733171,1854,1,186747,215403,0.25,0.17,9.97,-0.03,-0.01,-0.00,31.41
54773190,1844,1,186073,213853,0.25,0.19,9.96,-0.03,-0.01,-0.01,31.41
54813171,1839,1,185769,213607,0.24,0.18,9.96,-0.03,-0.01,-0.00,31.41
54853170,1867,1,185855,213545,0.27,0.19,9.99,-0.03,-0.01,-0.00,31.41
54893171,1858,1,185794,213470,0.25,0.19,9.97,-0.03,-0.01,-0.00,31.41
54933170,1860,1,185795,213775,0.26,0.20,10.00,-0.03,-0.01,-0.01,31.41
54973168,1842,1,185996,214559,0.25,0.19,9.94,-0.03,-0.01,-0.01,31.41
55013170,1835,1,186273,214832,0.25,0.19,9.97,-0.03,-0.01,-0.01,31.41
55053171,1840,1,186244,214890,0.27,0.17,9.97,-0.03,-0.01,-0.00,31.41
55093170,1840,1,186273,214998,0.25,0.18,9.96,-0.03,-0.01,-0.00,31.41
55133171,1832,1,186421,215272,0.25,0.21,9.97,-0.03,-0.01,-0.01,31.41
55173170,1838,1,186466,215439,0.24,0.19,9.97,-0.03,-0.01,-0.00,31.41
55213171,1839,1,186570,215796,0.24,0.18,9.96,-0.03,-0.01,-0.01,31.41
55253857,1856,1,186740,216213,0.23,0.19,9.98,-0.03,-0.01,-0.00,31.07
55292170,1856,1,186914,216689,0.26,0.18,9.98,-0.03,-0.01,-0.00,31.07
55332170,1856,1,187045,217027,0.28,0.17,9.97,-0.03,-0.01,-0.00,31.07
55372171,1849,1,187106,216944,0.25,0.18,9.98,-0.03,-0.01,-0.00,31.07
55412170,1839,1,186722,214851,0.27,0.19,9.97,-0.03,-0.01,-0.00,31.07
55452170,1840,1,185889,213218,0.25,0.19,9.98,-0.03,-0.01,-0.01,31.07
55492170,1850,1,185632,213174,0.23,0.18,9.99,-0.03,-0.01,-0.01,31.07
55532171,1843,1,185721,213328,0.24,0.18,9.97,-0.03,-0.01,-0.00,31.07
55572170,1841,1,185765,213363,0.23,0.19,9.99,-0.03,-0.01,-0.00,31.07
55613171,1853,1,185680,213679,0.25,0.20,9.97,-0.03,-0.01,-0.01,31.07
55653170,1867,1,185945,214168,0.25,0.18,9.97,-0.03,-0.01,-0.01,31.07
55693171,1871,1,186026,214341,0.25,0.16,9.99,-0.03,-0.01,-0.00,31.07
55733170,1871,1,186054,214336,0.26,0.20,9.97,-0.03,-0.01,-0.00,31.07
55773168,1874,1,186039,214368,0.26,0.17,9.98,-0.03,-0.01,-0.00,31.07
55813170,1845,1,186104,214580,0.27,0.20,9.97,-0.03,-0.01,-0.00,31.07
55853168,1858,1,186210,214865,0.26,0.19,9.95,-0.03,-0.01,-0.00,31.07
55893170,1861,1,186323,215191,0.25,0.19,9.96,-0.03,-0.01,-0.01,31.07
55933170,1862,1,186458,215606,0.25,0.19,9.95,-0.03,-0.01,-0.00,31.07
55973170,1847,1,186551,216015,0.25,0.18,9.95,-0.03,-0.01,-0.00,31.07
56013199,1812,1,186721,216491,0.24,0.19,9.94,-0.03,-0.01,-0.00,31.07
56053170,1795,1,186807,216380,0.27,0.20,9.97,-0.03,-0.01,-0.00,31.07
56093170,1781,1,186346,214270,0.25,0.18,9.96,-0.03,-0.01,-0.00,31.07
56133170,1792,1,185678,213096,0.25,0.18,9.98,-0.03,-0.01,-0.00,31.07
56173170,1810,1,185503,213112,0.25,0.18,9.96,-0.03,-0.01,-0.00,31.07
56213184,1807,1,185606,213230,0.26,0.18,9.98,-0.03,-0.01,-0.00,31.07
56253857,1826,1,185550,213284,0.26,0.19,9.97,-0.03,-0.01,-0.00,30.91
56292170,1840,1,185629,213845,0.26,0.19,9.96,-0.03,-0.01,-0.01,30.91
56332170,1833,1,185926,214346,0.26,0.19,9.96,-0.03,-0.01,-0.00,30.91
56372170,1820,1,185982,214674,0.25,0.20,9.96,-0.03,-0.01,-0.00,30.91
56412191,1793,1,186214,215203,0.25,0.18,9.95,-0.03,-0.01,-0.00,30.91
56452170,1792,1,186335,215450,0.23,0.18,9.95,-0.03,-0.01,-0.00,30.91
56492171,1789,1,186407,215720,0.26,0.17,9.97,-0.03,-0.01,-0.01,30.91
56532170,1805,1,186529,215986,0.27,0.19,9.96,-0.03,-0.01,-0.01,30.91
56572170,1813,1,186602,216231,0.26,0.19,9.97,-0.03,-0.01,-0.01,30.91
56612170,1814,1,186806,216625,0.24,0.18,9.99,-0.03,-0.01,-0.00,30.91
56653171,1831,1,186886,217008,0.26,0.20,9.93,-0.03,-0.01,-0.01,30.91
56693171,1829,1,186976,217330,0.24,0.18,9.97,-0.03,-0.01,-0.00,30.91
56733171,1837,1,187133,217147,0.25,0.19,9.96,-0.03,-0.01,-0.00,30.91
56773170,1846,1,186751,215062,0.23,0.18,9.95,-0.03,-0.01,-0.00,30.91
56813171,1853,1,185931,213722,0.25,0.20,9.96,-0.03,-0.01,-0.00,30.91
56853170,1863,1,185800,213895,0.25,0.19,9.96,-0.03,-0.01,-0.01,30.91
56893171,1863,1,185972,214059,0.25,0.18,9.98,-0.03,-0.01,-0.00,30.91
56933170,1875,1,185930,213942,0.27,0.17,9.98,-0.03,-0.01,-0.00,30.91
56973171,1878,1,186025,214530,0.27,0.18,9.97,-0.03,-0.01,-0.00,30.91
57013170,1885,1,186212,214960,0.25,0.20,9.94,-0.03,-0.01,-0.00,30.91
57053168,1878,1,186316,215064,0.25,0.18,9.98,-0.03,-0.01,-0.00,30.91
57093170,1889,1,186377,215129,0.24,0.18,9.97,-0.03,-0.01,-0.00,30.91
57133168,1867,1,186413,215218,0.24,0.17,9.96,-0.03,-0.01,-0.01,30.91
57173170,1872,1,186430,215395,0.24,0.20,9.96,-0.03,-0.01,-0.00,30.91
57213168,1884,1,186555,215653,0.26,0.20,9.98,-0.03,-0.01,-0.01,30.91
57253170,1866,1,186669,215919,0.25,0.21,9.96,-0.03,-0.01,-0.00,30.91
57293857,1855,1,186781,216216,0.26,0.18,9.98,-0.03,-0.01,-0.00,31.11
57332170,1837,1,186952,216609,0.25,0.17,9.95,-0.03,-0.01,-0.01,31.11
57372171,1815,1,187041,217008,0.26,0.17,9.99,-0.03,-0.01,-0.00,31.11
57412171,1829,1,187054,216080,0.26,0.17,9.98,-0.03,-0.01,-0.00,31.11
57452171,1806,1,186433,214032,0.25,0.19,10.01,-0.03,-0.01,-0.00,31.11
57492170,1808,1,185910,213560,0.25,0.17,9.99,-0.03,-0.01,-0.01,31.11
57532170,1804,1,185945,213780,0.25,0.18,9.94,-0.04,-0.01,-0.01,31.11
57572170,1805,1,185949,213816,0.28,0.17,10.00,-0.03,-0.01,-0.01,31.11
57612170,1795,1,185989,214088,0.27,0.19,9.96,-0.03,-0.01,-0.00,31.11
57653170,1789,1,186122,214620,0.26,0.18,9.99,-0.03,-0.01,-0.01,31.11
57693171,1796,1,186328,214747,0.25,0.18,9.98,-0.03,-0.01,-0.00,31.11
57733171,1821,1,186331,214790,0.28,0.19,9.95,-0.03,-0.01,-0.00,31.11
57773168,1822,1,186352,215014,0.26,0.17,9.98,-0.03,-0.01,-0.00,31.11
57813170,1826,1,186385,215275,0.24,0.18,9.97,-0.03,-0.01,-0.00,31.11
57853209,1825,1,186549,215514,0.27,0.21,10.01,-0.03,-0.01,-0.01,31.11
57893170,1841,1,186581,215705,0.26,0.19,9.96,-0.03,-0.01,-0.00,31.11
57933171,1842,1,186643,216007,0.26,0.18,9.96,-0.03,-0.01,-0.00,31.11
57973170,1847,1,186865,216435,0.27,0.18,9.97,-0.03,-0.01,-0.01,31.11
58013171,1861,1,186973,216926,0.25,0.18,9.97,-0.03,-0.01,-0.01,31.11
58053214,1870,1,186994,216484,0.27,0.19,9.98,-0.03,-0.01,-0.01,31.11
58093171,1872,1,186358,214346,0.25,0.19,9.96,-0.03,-0.01,-0.00,31.11
58133171,1886,1,185784,213393,0.27,0.18,9.98,-0.03,-0.01,-0.01,31.11
58173171,1887,1,185671,213453,0.26,0.18,9.96,-0.03,-0.01,-0.01,31.11
58213170,1881,1,185653,213382,0.25,0.18,9.99,-0.03,-0.01,-0.00,31.11
58253171,1906,1,185513,213392,0.24,0.18,9.97,-0.03,-0.01,-0.00,31.11
58293857,1906,1,185706,213780,0.26,0.20,9.96,-0.03,-0.01,-0.00,31.07
58332168,1917,1,185830,214075,0.28,0.18,9.95,-0.03,-0.01,-0.00,31.07
58372170,1916,1,185915,214224,0.26,0.19,9.97,-0.03,-0.01,-0.00,31.07
58412168,1917,1,185990,214401,0.24,0.19,9.96,-0.03,-0.01,-0.00,31.07
58452170,1907,1,186017,214646,0.26,0.17,9.96,-0.03,-0.01,-0.01,31.07
58492170,1904,1,186024,214677,0.26,0.19,9.97,-0.03,-0.01,-0.00,31.07
58532170,1916,1,186119,214878,0.26,0.17,9.96,-0.03,-0.01,-0.00,31.07
58572170,1911,1,186233,215190,0.23,0.17,9.96,-0.03,-0.01,-0.01,31.07
58612170,1907,1,186297,215711,0.25,0.18,9.97,-0.03,-0.01,-0.01,31.07
58652170,1895,1,186438,216087,0.25,0.20,9.96,-0.03,-0.01,-0.00,31.07
58693170,1891,1,186607,216294,0.24,0.19,9.98,-0.03,-0.01,-0.00,31.07
58733168,1887,1,186436,214783,0.25,0.20,9.99,-0.03,-0.01,-0.00,31.07
58773170,1875,1,185638,212880,0.27,0.19,9.96,-0.03,-0.01,-0.01,31.07
58813171,1865,1,185274,212355,0.25,0.19,9.97,-0.03,-0.01,-0.01,31.07
58853170,1841,1,185199,212485,0.27,0.19,10.00,-0.03,-0.01,-0.01,31.07
58893170,1818,1,185289,212459,0.26,0.19,9.98,-0.03,-0.01,-0.00,31.07
58933170,1810,1,185328,212650,0.26,0.18,9.97,-0.03,-0.01,-0.01,31.07
58971170,1817,1,185477,213317,0.25,0.18,9.98,-0.03,-0.01,-0.01,31.07
59011170,1829,1,185596,213421,0.25,0.19,10.00,-0.03,-0.01,-0.00,31.07
59051168,1808,1,185655,213327,0.25,0.22,9.96,-0.03,-0.01,-0.00,31.07
59091170,1818,1,185635,213264,0.25,0.17,9.96,-0.03,-0.01,-0.00,31.07
59131170,1842,1,185616,213384,0.24,0.18,9.99,-0.03,-0.01,-0.01,31.07
59171170,1842,1,185625,213553,0.26,0.18,9.96,-0.03,-0.01,-0.00,31.07
59211170,1831,1,185860,213847,0.25,0.18,9.98,-0.03,-0.01,-0.01,31.07
59251170,1829,1,185921,214185,0.24,0.17,9.97,-0.03,-0.01,-0.01,31.07
59291170,1826,1,186184,214714,0.26,0.19,9.96,-0.03,-0.01,-0.00,31.07
59331856,1838,1,186361,215185,0.26,0.17,9.97,-0.03,-0.01,-0.01,30.99
59372171,1839,1,186481,215167,0.25,0.21,9.95,-0.03,-0.01,-0.00,30.99
59412170,1838,1,186160,213250,0.24,0.17,9.98,-0.03,-0.01,-0.01,30.99
59452171,1845,1,185286,211582,0.24,0.19,9.98,-0.03,-0.01,-0.01,30.99
59492221,1841,1,185095,211496,0.25,0.18,9.95,-0.03,-0.01,-0.01,30.99
59532171,1849,1,185080,211537,0.25,0.17,9.95,-0.03,-0.01,-0.00,30.99
59572170,1850,1,185097,211296,0.24,0.19,9.97,-0.03,-0.01,-0.00,30.99
59612171,1837,1,185012,211536,0.25,0.18,9.98,-0.03,-0.01,-0.00,30.99
59652170,1846,1,185130,212006,0.25,0.19,9.97,-0.03,-0.01,-0.00,30.99
59692214,1840,1,185284,212290,0.25,0.18,9.98,-0.03,-0.01,-0.00,30.99
59732171,1836,1,185379,212412,0.26,0.19,9.96,-0.03,-0.01,-0.01,30.99
59772171,1847,1,185510,212692,0.25,0.19,9.96,-0.03,-0.01,-0.01,30.99
59812170,1842,1,185637,213063,0.27,0.18,9.96,-0.03,-0.01,-0.01,30.99
59852171,1840,1,185708,213360,0.27,0.17,9.97,-0.03,-0.01,-0.00,30.99
59892170,1821,1,185910,213765,0.27,0.19,9.95,-0.03,-0.01,-0.00,30.99
59932171,1808,1,186042,214365,0.25,0.19,9.97,-0.03,-0.01,-0.01,30.99
59972171,1793,1,186202,214980,0.26,0.18,9.98,-0.03,-0.01,-0.01,30.99
60012171,1806,1,186397,215491,0.26,0.18,9.98,-0.03,-0.01,-0.01,30.99
60052170,1786,1,186577,215504,0.27,0.18,9.96,-0.03,-0.01,-0.01,30.99
60092171,1809,1,186303,213753,0.27,0.20,9.98,-0.03,-0.01,-0.01,30.99
60132170,1772,1,185561,212664,0.25,0.18,9.97,-0.03,-0.01,-0.00,30.99
60172171,1755,1,185489,212665,0.24,0.18,9.97,-0.03,-0.01,-0.00,30.99
60212171,1758,1,185496,212730,0.26,0.19,10.00,-0.03,-0.01,-0.01,30.99
60252171,1798,1,185479,212791,0.26,0.18,9.96,-0.03,-0.01,-0.01,30.99
60292171,1808,1,185600,213456,0.26,0.19,9.97,-0.03,-0.01,-0.00,30.99
60332859,1763,1,185857,213771,0.26,0.19,9.98,-0.03,-0.01,-0.01,31.13
60371170,1801,1,185923,213816,0.25,0.18,9.97,-0.03,-0.01,-0.00,31.13
60411171,1829,1,185986,214002,0.27,0.17,9.99,-0.03,-0.01,-0.01,31.13
60451171,1836,1,186042,214282,0.27,0.20,9.95,-0.03,-0.01,-0.01,31.13
60491171,1841,1,186117,214438,0.27,0.18,9.96,-0.03,-0.01,-0.00,31.13
60531201,1823,1,186182,214592,0.25,0.19,9.97,-0.03,-0.01,-0.01,31.13
60571171,1840,1,186251,214858,0.26,0.19,9.99,-0.03,-0.01,-0.01,31.13
60611170,1838,1,186359,215336,0.25,0.18,9.98,-0.03,-0.01,-0.00,31.13
60651171,1822,1,186503,216079,0.24,0.15,9.97,-0.03,-0.01,-0.00,31.13
60691170,1818,1,186777,216545,0.23,0.19,9.99,-0.03,-0.01,-0.01,31.13
60731171,1799,1,186713,215475,0.27,0.18,9.96,-0.03,-0.01,-0.01,31.13
60771170,1661,1,186022,213537,0.22,0.19,9.99,-0.03,-0.01,-0.01,31.13
60811171,1581,1,185617,213165,0.25,0.18,9.98,-0.03,-0.01,-0.00,31.13
60851171,1508,1,185664,213259,0.24,0.19,9.99,-0.03,-0.01,-0.01,31.13
60891170,1416,1,185638,213089,0.27,0.18,9.99,-0.03,-0.01,-0.00,31.13
60931170,1398,1,185646,213251,0.26,0.19,9.96,-0.03,-0.01,-0.00,31.13
60971171,1408,1,185877,214030,0.25,0.19,9.98,-0.03,-0.01,-0.00,31.13
61011170,1458,1,186009,214327,0.26,0.18,9.96,-0.03,-0.01,-0.01,31.13
61051171,1525,1,186127,214365,0.25,0.17,9.97,-0.03,-0.01,-0.00,31.13
61091170,1586,1,186063,214425,0.26,0.19,9.96,-0.03,-0.01,-0.00,31.13
61131172,1648,1,186096,214604,0.28,0.15,9.98,-0.03,-0.01,-0.00,31.13
61171171,1701,1,186214,214778,0.26,0.20,10.00,-0.03,-0.01,-0.01,31.13
61211168,1753,1,186391,215052,0.23,0.18,9.96,-0.03,-0.01,-0.01,31.13
61251171,1813,1,186553,215409,0.27,0.19,9.97,-0.03,-0.01,-0.00,31.13
61291171,1868,1,186717,215830,0.27,0.18,9.96,-0.03,-0.01,-0.00,31.13
61331175,1905,1,186805,216270,0.26,0.19,9.95,-0.03,-0.01,-0.01,31.13
61371857,1943,1,186952,216035,0.26,0.18,9.98,-0.03,-0.01,-0.00,31.15
61412170,1981,1,186425,213748,0.25,0.19,9.98,-0.03,-0.01,-0.00,31.15
61452171,1995,1,185481,211138,0.26,0.20,9.98,-0.03,-0.01,-0.00,31.15
61492171,2000,1,184765,209078,0.25,0.18,9.98,-0.03,-0.01,-0.00,31.15
61532191,1990,1,184258,207812,0.26,0.19,9.95,-0.03,-0.02,-0.00,31.15
61572171,1995,1,183968,206807,0.28,0.18,9.96,-0.03,-0.01,-0.00,31.15
61612171,1996,1,183683,206875,0.25,0.19,9.97,-0.03,-0.01,-0.01,31.15
61652170,2003,1,184055,208222,0.26,0.18,9.96,-0.03,-0.01,-0.00,31.15
