timestamp_us,ecg,leads,ir,red,accX,accY,accZ,gyroX,gyroY,gyroZ,temp
1919487,1563,1,199175,231555,0.00,0.00,0.00,0.00,0.00,0.00,0.00
1949953,1345,1,199671,233980,-4.11,-1.76,8.65,-0.01,0.07,0.06,27.67
1990178,1200,1,200398,234219,-3.44,-1.34,8.73,-0.17,0.12,-0.08,27.67
2030187,1087,1,200538,235603,-3.11,-1.71,7.71,-0.37,-0.01,-0.13,27.67
2070205,1074,1,200955,235865,-3.45,-0.87,8.00,-0.57,-0.14,-0.09,27.67
2110205,1013,1,200340,235923,-4.07,-2.21,7.91,-0.16,0.06,-0.16,27.67
2150188,851,1,200719,236730,-3.12,-1.84,8.43,-0.13,-0.14,-0.03,27.67
2190213,981,1,201361,238346,-3.09,-2.42,7.15,-0.07,0.14,0.08,27.67
2230172,943,1,201529,239430,-3.31,-2.14,8.72,0.02,-0.02,0.06,27.67
2270167,1118,1,201798,239637,-2.55,-2.41,7.21,0.04,0.08,0.17,27.67
2310161,1223,1,201258,236424,-3.99,-2.16,9.99,-0.11,-0.21,-0.06,27.67
2350206,1344,1,199537,233959,-4.68,-2.72,8.27,0.11,-0.35,0.07,27.67
2390176,1447,1,199715,234073,-3.74,-2.40,10.02,-0.07,0.12,-0.04,27.67
2430186,1520,1,200148,236445,-4.06,-2.36,9.01,0.30,-0.07,0.18,27.67
2468172,1603,1,201628,239843,-3.17,-2.79,9.11,0.10,0.08,0.01,27.67
2508157,1710,1,202187,241890,-4.18,-1.70,9.96,-0.01,-0.08,0.00,27.67
2548187,1799,1,202451,242183,-4.37,-2.87,9.31,0.11,-0.12,-0.06,27.67
2588187,1984,1,202521,243285,-4.80,-2.26,10.23,0.10,-0.09,0.08,27.67
2628172,2045,1,203014,243741,-4.41,-2.69,9.96,0.27,0.04,-0.01,27.67
2668167,2110,1,203244,244368,-4.79,-2.60,10.54,0.12,0.01,0.07,27.67
2708161,2194,1,203300,244575,-3.62,-2.27,9.52,0.11,-0.09,-0.05,27.67
2748187,2176,1,203568,245213,-4.40,-2.61,9.42,-0.29,0.05,0.06,27.67
2788172,2129,1,203506,245068,-3.16,-2.07,8.20,-0.21,-0.02,-0.00,27.67
2828206,2073,1,203087,244454,-3.39,-2.43,8.10,-0.23,-0.23,-0.07,27.67
2868206,2016,1,202399,243632,-2.72,-1.48,7.75,-0.12,-0.43,-0.02,27.67
2908206,2060,1,201871,243180,-2.73,-2.06,7.33,-0.28,-0.27,0.01,27.67
2948189,2071,1,201356,241773,-2.27,-1.03,8.27,-0.17,-0.37,-0.03,27.67
2988892,2103,1,201157,241559,-2.61,-1.30,7.98,-0.11,-0.17,-0.01,27.69
3029212,2189,1,201447,242106,-2.76,-1.51,7.91,0.12,-0.07,0.02,27.69
3069172,2170,1,202105,242779,-2.80,-1.84,8.49,0.32,-0.04,-0.00,27.69
3109189,2172,1,202619,243100,-2.53,-2.04,8.45,0.13,0.12,0.00,27.69
3149158,2217,1,202770,243141,-2.98,-2.15,9.87,-0.14,-0.12,-0.12,27.69
3189206,2191,1,202848,243347,-3.83,-2.60,9.17,-0.11,-0.11,0.03,27.69
3229187,2186,1,203065,243612,-3.30,-1.98,9.75,-0.00,0.02,-0.04,27.69
3269188,2209,1,203245,244057,-3.73,-2.41,9.56,0.11,0.19,0.03,27.69
3309161,2256,1,203282,244164,-3.53,-2.11,10.50,0.08,0.11,-0.04,27.69
3349172,2226,1,203182,244359,-4.17,-2.58,10.19,0.09,0.20,0.01,27.69
3389158,2241,1,203180,244557,-4.09,-2.52,10.34,0.03,0.20,0.02,27.69
3429161,2219,1,203038,244621,-4.22,-2.66,10.26,0.12,0.17,0.01,27.69
3469161,2212,1,202765,244585,-4.19,-2.15,10.52,-0.10,0.07,-0.05,27.69
3509189,2218,1,202882,245057,-4.01,-2.43,9.81,-0.02,0.02,0.04,27.69
3549172,2179,1,203026,244044,-3.65,-2.13,9.26,-0.18,-0.04,-0.02,27.69
3589206,2125,1,202275,240376,-3.55,-2.12,8.56,-0.16,-0.03,0.06,27.69
3629187,2110,1,201490,238694,-2.93,-1.41,8.26,-0.23,-0.03,0.01,27.69
3669189,2112,1,201598,240064,-2.92,-1.83,8.03,-0.17,-0.08,-0.07,27.69
3709206,2128,1,202205,241513,-2.87,-1.42,7.98,0.04,-0.14,-0.06,27.69
3747189,2128,1,202763,242770,-3.05,-2.01,8.08,-0.05,0.04,-0.01,27.69
3787188,2127,1,203131,243835,-2.64,-1.40,8.46,0.08,-0.07,-0.03,27.69
3827188,2087,1,203480,244408,-3.20,-2.24,8.37,-0.07,0.05,-0.03,27.69
3867187,2047,1,203516,244297,-3.07,-1.73,8.68,0.05,-0.05,-0.02,27.69
3907188,2034,1,203562,244570,-3.07,-2.39,8.32,-0.14,0.04,-0.04,27.69
3947187,2003,1,203440,244503,-2.63,-1.14,8.33,-0.07,-0.07,-0.01,27.69
3987206,1936,1,203446,244465,-3.21,-1.96,8.77,-0.15,0.03,-0.06,27.69
4027905,1903,1,203549,244640,-3.46,-1.72,8.55,0.07,-0.10,0.05,27.73
4068172,1872,1,204056,245365,-3.08,-2.39,9.03,0.09,0.01,-0.11,27.73
4108172,1872,1,204661,245775,-4.02,-2.12,9.66,0.05,0.05,0.04,27.73
4148160,1855,1,205163,246033,-4.04,-2.66,10.28,-0.10,0.18,0.02,27.73
4188172,1829,1,204996,244905,-4.30,-2.72,9.97,0.12,0.02,0.04,27.73
4228161,1877,1,204562,244705,-3.94,-2.44,10.17,-0.11,0.04,-0.03,27.73
4268188,1846,1,204429,244895,-3.90,-2.20,9.60,0.06,-0.06,0.03,27.73
4308172,1845,1,204356,245248,-4.30,-2.13,10.12,-0.20,0.01,-0.03,27.73
4348187,1860,1,204387,245592,-3.69,-2.23,8.89,0.20,-0.13,0.07,27.73
4388172,1837,1,204465,245839,-3.46,-2.23,8.83,-0.23,0.12,0.03,27.73
4428172,1839,1,204487,245700,-3.15,-2.12,8.48,0.04,-0.03,0.07,27.73
4468172,1695,1,204206,245379,-3.49,-1.89,8.81,-0.23,-0.05,0.00,27.73
4508187,1687,1,204350,245404,-3.12,-2.10,8.30,0.09,-0.06,-0.10,27.73
4548188,1680,1,204303,245343,-3.11,-1.57,8.50,0.02,-0.06,-0.07,27.73
4588188,1683,1,204333,245451,-2.93,-1.95,8.37,0.11,0.03,-0.06,27.73
4628172,1689,1,204234,245453,-3.07,-1.49,8.95,-0.09,-0.04,-0.04,27.73
4668206,1759,1,204135,245385,-2.95,-1.84,8.20,-0.03,-0.03,-0.04,27.73
4708205,1810,1,204083,245175,-3.42,-1.87,8.81,-0.20,0.02,0.03,27.73
4748172,1850,1,203968,245116,-3.46,-2.27,8.54,-0.01,-0.08,0.04,27.73
4788189,1900,1,203386,242282,-3.30,-1.55,9.35,0.06,0.03,0.02,27.73
4828158,1883,1,202286,239540,-3.94,-2.42,9.21,0.17,-0.04,-0.02,27.73
4868189,1872,1,202112,240052,-3.66,-1.99,9.68,0.16,0.00,-0.02,27.73
4908172,1867,1,202495,240773,-3.90,-2.38,9.95,0.20,0.06,-0.04,27.73
4948172,1878,1,202692,241155,-3.88,-1.65,10.05,0.16,0.03,0.07,27.73
4988161,1904,1,202584,241644,-4.27,-2.40,10.16,0.04,0.02,-0.03,27.73
5028858,1920,1,202881,242381,-3.61,-2.01,9.43,0.12,-0.02,0.01,27.53
5067172,1919,1,203059,242988,-3.97,-2.23,9.87,-0.16,0.03,-0.01,27.53
5107189,1967,1,203020,243088,-3.60,-1.43,9.49,-0.09,-0.06,-0.02,27.53
5147205,2002,1,203162,243302,-3.83,-2.11,9.14,-0.23,-0.00,-0.03,27.53
5187205,2026,1,203081,243293,-3.22,-1.43,8.78,0.04,-0.04,-0.04,27.53
5227187,2007,1,203048,243544,-3.47,-1.62,8.64,-0.19,0.03,-0.02,27.53
5267189,2017,1,203052,243563,-2.99,-1.60,8.54,0.01,0.02,-0.03,27.53
5307172,1968,1,202909,243599,-3.20,-1.62,8.72,-0.19,-0.02,-0.04,27.53
5347205,1946,1,202903,243268,-3.34,-1.62,8.44,0.06,-0.01,0.08,27.53
5387172,1957,1,202270,240003,-3.22,-1.74,8.56,-0.11,0.02,0.06,27.53
5427172,2000,1,200893,236889,-3.00,-1.72,8.49,0.14,-0.02,0.01,27.53
5467216,2016,1,200687,237327,-3.68,-1.64,9.26,-0.10,-0.04,0.02,27.53
5507188,2017,1,200869,237673,-3.43,-1.97,8.49,0.25,-0.06,-0.03,27.53
5547191,2020,1,200941,237929,-3.31,-1.68,9.09,-0.09,0.05,-0.05,27.53
5587188,2057,1,200984,238223,-3.10,-1.67,8.58,0.09,0.03,-0.01,27.53
5627172,2055,1,201356,239327,-3.92,-1.69,9.65,-0.27,-0.01,0.02,27.53
5667210,2070,1,201337,238978,-3.67,-2.02,8.83,0.16,-0.15,-0.02,27.53
5707187,2062,1,201352,238827,-3.73,-1.65,9.53,-0.03,0.08,0.02,27.53
5747172,2029,1,201327,238706,-3.42,-1.96,8.85,0.10,-0.05,0.01,27.53
5787172,2003,1,201459,239132,-3.55,-1.61,9.69,-0.09,-0.04,-0.04,27.53
5827205,1989,1,201415,239372,-3.67,-1.93,8.86,0.08,-0.10,-0.03,27.53
5867205,1959,1,201560,239884,-3.45,-1.45,9.11,-0.12,-0.02,-0.01,27.53
5907206,1934,1,201595,240253,-3.69,-2.08,9.23,-0.13,-0.07,0.01,27.53
5947187,1909,1,201444,238961,-3.49,-1.36,9.33,-0.05,-0.04,0.04,27.53
5987189,1899,1,200097,234028,-3.78,-2.55,8.98,0.04,0.04,-0.03,27.53
6027173,1877,1,199405,233736,-3.55,-1.69,9.43,-0.05,-0.04,0.00,27.53
6067874,1904,1,199584,234186,-3.86,-2.31,9.63,-0.07,0.02,0.00,27.55
6106172,1893,1,199472,234340,-3.39,-1.10,9.14,-0.05,-0.04,0.03,27.55
6146188,1882,1,199469,234128,-3.57,-2.26,8.95,-0.04,-0.06,-0.09,27.55
6186205,1904,1,199685,235859,-3.16,-1.30,8.82,0.05,-0.01,0.02,27.55
6226172,1899,1,200510,237003,-3.18,-1.97,8.70,-0.08,0.07,-0.04,27.55
6266187,1863,1,200666,237584,-3.10,-1.25,9.05,-0.12,-0.02,-0.01,27.55
6306206,1844,1,200810,237894,-3.35,-1.87,8.56,-0.10,-0.00,-0.05,27.55
6346205,1872,1,201116,238905,-3.47,-1.67,8.80,-0.02,0.03,0.03,27.55
6386172,1859,1,201486,240069,-3.39,-1.57,9.05,-0.09,0.00,-0.01,27.55
6426187,1890,1,201892,240522,-3.03,-1.57,8.57,0.07,0.01,-0.01,27.55
6466172,1898,1,202007,240745,-3.49,-1.71,9.13,-0.14,-0.02,-0.05,27.55
6506206,1949,1,202219,240907,-3.45,-1.96,9.04,0.15,-0.01,0.04,27.55
6546172,1968,1,202257,239592,-3.94,-1.87,9.65,-0.21,0.08,0.08,27.55
6586172,1968,1,200821,234812,-3.40,-1.94,9.10,0.18,-0.07,0.04,27.55
6626172,1962,1,200347,234819,-4.24,-2.15,10.33,-0.25,0.08,0.03,27.55
6666172,1994,1,200386,235205,-3.37,-1.85,8.77,0.21,-0.09,-0.01,27.55
6706189,2018,1,200544,235675,-3.68,-1.64,9.66,-0.33,0.11,-0.01,27.55
6746187,2023,1,200318,235921,-3.46,-1.39,8.63,0.15,-0.09,0.00,27.55
6786172,2027,1,200735,237074,-3.96,-1.72,9.40,-0.23,0.01,0.02,27.55
6826172,2074,1,200681,237477,-3.25,-1.67,8.37,0.34,-0.10,-0.05,27.55
6866189,2070,1,201177,238008,-3.74,-2.13,9.28,-0.13,0.11,-0.06,27.55
6906188,2068,1,200993,238176,-3.05,-1.51,8.67,0.00,-0.05,-0.06,27.55
6946188,1954,1,201337,238806,-3.51,-1.78,9.17,-0.23,0.04,-0.05,27.55
6986205,1961,1,201551,239745,-3.57,-1.47,8.51,0.01,-0.03,0.03,27.55
7026193,1968,1,201947,240600,-3.32,-1.45,8.67,-0.10,-0.01,-0.04,27.55
7066206,1958,1,202372,241371,-3.56,-1.75,8.95,-0.04,0.05,0.02,27.55
7106885,1948,1,202330,240996,-3.32,-1.24,8.96,-0.01,-0.06,-0.02,27.43
7145206,1938,1,201838,236940,-3.96,-2.12,8.99,-0.05,0.01,-0.02,27.43
7185189,1920,1,200230,234678,-3.54,-1.20,9.07,0.03,-0.08,0.01,27.43
7225172,1921,1,200138,234281,-3.88,-2.42,9.05,0.03,0.01,-0.01,27.43
7265172,1927,1,199943,234559,-3.91,-0.96,9.73,0.08,-0.07,0.08,27.43
7305176,1917,1,200256,234834,-3.81,-2.56,8.87,0.15,0.01,-0.04,27.43
7345172,1926,1,200420,236034,-3.18,-0.65,9.21,-0.11,0.03,0.07,27.43
7385172,1905,1,200618,236298,-4.32,-2.05,9.94,-0.22,-0.05,-0.06,27.43
7425206,1936,1,200785,237475,-3.58,-0.78,8.67,0.09,-0.07,0.13,27.43
7465172,1920,1,201226,237073,-3.13,-2.21,8.43,-0.14,0.10,-0.22,27.43
7505189,1967,1,201038,237777,-3.24,-1.09,8.79,0.12,-0.13,0.06,27.43
7545172,1937,1,201717,239076,-4.22,-2.47,9.69,-0.33,0.13,0.04,27.43
7585172,1974,1,201559,238209,-3.01,-1.19,8.83,0.12,-0.13,0.02,27.43
7625172,1954,1,201111,238434,-4.73,-2.01,9.95,-0.05,0.01,-0.08,27.43
7665189,1889,1,201434,238566,-2.43,-1.07,7.62,0.10,0.05,0.05,27.43
7705158,1808,1,201354,238549,-3.96,-1.91,9.91,-0.15,0.01,-0.15,27.43
7745189,1797,1,201182,235802,-2.72,-1.24,7.24,-0.00,-0.04,0.13,27.43
7785187,1721,1,200283,234190,-3.45,-2.09,9.26,-0.41,0.08,-0.22,27.43
7825189,1808,1,199909,234784,-3.94,-0.46,8.93,0.16,-0.20,0.22,27.43
7865172,1872,1,200422,234037,-3.58,-2.54,8.58,-0.10,0.10,0.00,27.43
7905172,1926,1,199678,233818,-3.50,-0.70,9.57,0.45,-0.08,0.10,27.43
7945172,1933,1,199728,232961,-4.00,-2.54,9.72,0.04,0.19,-0.11,27.43
7985172,1953,1,199269,233058,-4.50,-1.35,10.32,0.31,0.07,0.09,27.43
8025193,1984,1,199034,232356,-4.37,-2.22,10.43,-0.08,0.08,-0.13,27.43
8065189,1962,1,198892,233045,-4.87,-1.89,10.57,0.05,0.07,0.08,27.43
8105161,1968,1,199028,233295,-4.75,-2.02,10.67,-0.18,-0.02,-0.03,27.43
8145892,1947,1,199307,234469,-4.01,-2.08,9.27,0.09,-0.08,-0.00,27.15
8184187,1955,1,200003,237197,-4.25,-1.29,9.61,-0.46,-0.02,0.04,27.15
8224189,1933,1,201119,239557,-3.08,-1.78,7.57,-0.28,0.01,-0.05,27.15
8264187,1792,1,201343,240710,-2.99,-0.83,7.98,-0.47,-0.36,-0.01,27.15
8304206,1787,1,201455,241124,-2.87,-1.34,7.04,-0.26,-0.29,-0.13,27.15
8344206,1736,1,201131,238596,-2.97,-0.50,8.22,-0.23,-0.23,0.05,27.15
8384189,1777,1,200476,236204,-2.53,-1.18,6.73,0.19,0.02,-0.04,27.15
8424172,1812,1,200076,236234,-3.06,-0.85,8.59,0.02,-0.10,0.02,27.15
8464172,1885,1,200220,236179,-2.74,-1.97,8.19,0.20,0.04,-0.03,27.15
8504172,1958,1,199616,235646,-2.48,-0.70,8.46,-0.09,-0.12,-0.03,27.15
8544206,1938,1,200011,237088,-3.56,-2.77,8.51,-0.31,0.21,-0.02,27.15
8584188,1968,1,200181,238655,-3.15,-1.26,8.79,-0.24,-0.13,0.06,27.15
8624189,1998,1,200574,239420,-3.84,-1.64,8.67,-0.06,0.11,-0.03,27.15
8664187,1979,1,200962,240318,-4.06,-2.21,8.42,0.01,0.06,0.08,27.15
8704161,2026,1,200841,240321,-3.73,-1.55,9.62,0.33,0.04,-0.07,27.15
8744193,2071,1,201088,240371,-4.12,-2.24,9.73,-0.02,0.27,0.03,27.15
8784172,2027,1,200543,239727,-4.63,-2.00,10.59,0.25,0.19,0.00,27.15
8824158,2030,1,200570,238938,-4.76,-2.65,10.20,0.12,0.14,-0.01,27.15
8864172,2047,1,200343,238820,-5.02,-2.35,11.12,0.09,0.12,0.04,27.15
8904161,2032,1,200378,238660,-4.35,-1.72,9.85,-0.04,-0.05,0.02,27.15
8944215,2026,1,200780,238398,-4.69,-3.15,9.93,-0.13,-0.02,-0.03,27.15
8984206,1830,1,199959,235284,-3.23,-1.19,8.49,-0.03,-0.10,0.01,27.15
9024218,1744,1,199888,234868,-3.89,-2.43,8.50,-0.51,-0.06,-0.12,27.15
9064206,1742,1,199665,235298,-2.68,-0.22,8.22,-0.20,-0.36,-0.02,27.15
9104205,1762,1,200055,235518,-3.06,-2.58,7.47,-0.23,-0.14,-0.13,27.15
9144225,1835,1,199899,235864,-2.75,-0.50,8.11,0.11,-0.10,-0.01,27.15
9184874,1901,1,200599,236914,-3.07,-2.39,7.96,0.06,0.14,-0.07,27.23
9223172,1963,1,200739,237715,-2.86,-1.04,8.85,0.22,-0.04,0.06,27.23
9263172,1958,1,201167,237701,-3.16,-2.36,8.62,0.08,0.11,-0.02,27.23
9303172,1971,1,201118,237777,-2.87,-1.66,8.37,0.03,-0.06,0.02,27.23
9343172,2001,1,200935,237583,-3.30,-1.91,8.85,-0.11,-0.05,-0.10,27.23
9383206,2015,1,200715,237184,-3.36,-1.68,8.77,-0.11,-0.00,0.03,27.23
9423189,2032,1,200597,237320,-3.93,-1.93,9.55,-0.01,0.05,-0.01,27.23
9463187,2042,1,200765,237666,-3.89,-2.29,9.41,0.13,0.01,0.00,27.23
9503161,2096,1,200670,237884,-4.08,-1.90,10.10,0.04,0.10,0.02,27.23
9543157,2078,1,200664,237582,-4.12,-2.11,9.76,0.18,0.16,0.06,27.23
9583161,2060,1,200307,235775,-4.27,-2.18,10.30,0.05,0.03,0.02,27.23
9623157,2030,1,199569,233388,-4.21,-2.32,9.53,0.21,0.04,0.04,27.23
9663161,2047,1,199437,233475,-4.18,-2.33,9.98,-0.32,0.03,-0.05,27.23
9703187,2041,1,199519,234040,-3.17,-1.36,8.69,-0.01,-0.07,0.02,27.23
9743188,2063,1,199903,234076,-3.92,-1.97,9.33,-0.42,-0.03,-0.07,27.23
9783206,2035,1,199721,234086,-3.16,-1.47,8.23,0.06,-0.12,-0.04,27.23
9823189,2047,1,199976,234349,-3.48,-1.87,8.43,-0.24,0.02,-0.03,27.23
9863187,2028,1,199853,234217,-2.97,-1.19,8.29,0.01,-0.06,0.00,27.23
9903172,2004,1,199613,233570,-3.34,-1.91,8.65,-0.21,-0.08,-0.06,27.23
9943206,1979,1,199224,232826,-3.13,-1.75,8.04,0.10,0.01,0.02,27.23
9983161,2007,1,198837,231781,-3.67,-1.90,9.12,-0.16,-0.05,-0.04,27.23
10023221,1933,1,198042,230899,-3.47,-1.64,8.30,0.17,-0.04,0.05,27.23
10063172,1942,1,197748,230392,-3.79,-2.14,9.11,0.00,0.12,-0.01,27.23
10103172,1856,1,197308,230383,-3.79,-1.98,9.18,0.21,0.01,-0.04,27.23
10143172,1872,1,197461,230526,-3.22,-1.50,8.95,-0.06,0.04,-0.04,27.23
10183187,1850,1,197483,231049,-3.64,-2.05,9.20,-0.07,-0.02,-0.01,27.23
10223891,1846,1,197967,231906,-4.21,-1.56,9.51,-0.04,-0.03,0.09,27.05
10262187,1841,1,197940,230244,-3.94,-2.69,9.41,0.15,0.08,-0.01,27.05
10302172,1874,1,197426,229983,-3.85,-1.12,9.82,0.02,0.07,0.05,27.05
10342161,1851,1,197687,230525,-3.96,-2.66,9.38,0.04,0.02,-0.02,27.05
10382175,1873,1,197874,231146,-3.61,-1.05,9.62,-0.09,0.01,0.02,27.05
10422167,1887,1,198087,232060,-4.02,-2.60,8.93,0.05,-0.01,-0.10,27.05
10462187,1862,1,198808,233603,-3.58,-1.10,9.04,-0.33,0.03,0.08,27.05
10502167,1888,1,199120,234281,-3.45,-2.32,8.43,-0.15,0.05,-0.13,27.05
10542189,1934,1,199501,235319,-3.68,-1.19,8.86,-0.21,-0.04,0.13,27.05
10582207,1920,1,199318,234830,-3.48,-2.49,8.31,0.02,-0.04,-0.17,27.05
10622189,1919,1,199422,235534,-3.35,-1.19,8.49,-0.08,0.04,0.07,27.05
10662172,1911,1,199840,236392,-3.32,-2.22,8.24,-0.10,0.11,-0.09,27.05
10702189,1901,1,199940,237128,-3.37,-1.05,8.75,-0.18,-0.06,0.03,27.05
10742187,1920,1,200133,237431,-3.68,-2.26,8.31,0.04,-0.06,-0.08,27.05
10782189,1909,1,200377,238380,-3.47,-1.48,8.41,-0.06,0.06,0.08,27.05
10822172,1950,1,200587,238891,-3.75,-2.33,9.23,-0.01,0.01,-0.08,27.05
10862189,1947,1,200678,239380,-4.01,-1.70,9.17,0.03,-0.03,0.11,27.05
10902167,1959,1,200668,239839,-4.26,-2.24,9.87,0.15,0.00,-0.10,27.05
10942172,1965,1,200559,237152,-3.87,-1.43,9.08,0.28,0.01,0.06,27.05
10982161,1939,1,198806,233193,-4.29,-2.58,9.86,-0.00,0.09,-0.06,27.05
11022194,1922,1,198249,233018,-4.23,-1.35,9.91,0.04,0.04,0.04,27.05
11062161,1939,1,198162,233317,-4.79,-2.96,10.36,-0.02,0.05,-0.12,27.05
11102189,1907,1,198538,234564,-3.87,-1.18,9.28,0.11,-0.02,0.11,27.05
11142172,1936,1,198941,235283,-4.49,-2.54,9.75,-0.28,-0.02,-0.10,27.05
11182205,1931,1,199492,237915,-3.39,-0.85,8.54,-0.08,-0.08,0.10,27.05
11222187,1978,1,200225,238910,-3.60,-2.42,8.37,-0.14,-0.03,-0.11,27.05
11262891,1948,1,200235,239306,-2.77,-0.73,7.87,0.00,-0.08,-0.01,26.77
11303187,1927,1,200584,240184,-3.58,-2.19,8.14,-0.38,0.07,-0.11,26.77
11343189,1917,1,200488,240085,-2.80,-0.98,7.96,-0.26,-0.18,-0.03,26.77
11383206,1936,1,200602,240690,-3.21,-2.16,7.96,-0.18,0.03,-0.08,26.77
11423188,1934,1,200664,240601,-3.11,-1.14,7.86,0.09,-0.04,0.06,26.77
11461167,1986,1,200821,241040,-3.51,-1.99,8.51,-0.00,0.03,-0.03,26.77
11501188,1984,1,200934,240957,-3.06,-1.54,8.18,0.20,-0.04,0.07,26.77
11541172,1953,1,200834,240460,-3.71,-1.87,9.24,-0.06,0.05,0.01,26.77
11581172,1877,1,200404,238703,-4.08,-2.29,8.85,0.14,0.07,0.01,26.77
11621161,1840,1,198855,232378,-4.40,-2.31,9.84,-0.08,0.09,-0.00,26.77
11661188,1789,1,197467,231095,-4.30,-2.42,9.69,0.14,0.12,0.03,26.77
11701161,1804,1,197387,231419,-5.02,-1.99,10.37,-0.06,0.10,0.04,26.77
11741172,1792,1,197699,232293,-4.15,-2.38,8.99,0.25,-0.09,-0.01,26.77
11781187,1791,1,197917,232448,-4.27,-1.80,9.99,-0.27,0.09,-0.04,26.77
11821189,1853,1,197929,233921,-4.51,-1.90,9.56,0.19,-0.10,0.07,26.77
11861172,1889,1,198454,234232,-4.91,-2.29,10.38,-0.25,0.02,-0.03,26.77
11901190,1921,1,198463,235081,-3.73,-2.23,8.56,0.39,-0.12,-0.00,26.77
11941188,1895,1,199129,236212,-4.53,-1.90,10.02,-0.42,0.10,-0.01,26.77
11981189,1834,1,199802,239033,-3.56,-1.23,8.41,0.01,-0.13,0.04,26.77
12021179,1734,1,200709,240172,-3.38,-1.90,7.92,-0.43,-0.07,-0.10,26.77
12061206,1714,1,200793,240535,-2.77,-0.99,7.61,0.02,-0.11,-0.07,26.77
12101187,1675,1,200720,240632,-3.28,-1.32,7.59,-0.26,-0.12,-0.01,26.77
12141206,1774,1,201077,241046,-2.83,-1.32,7.50,0.02,0.01,-0.07,26.77
12181172,1826,1,201228,241536,-3.36,-1.38,8.24,0.01,-0.01,-0.01,26.77
12221220,1897,1,201405,241351,-3.07,-1.42,7.84,0.31,-0.04,0.00,26.77
12261172,1903,1,201263,240176,-3.77,-1.41,8.84,0.00,0.00,0.04,26.77
12301847,1935,1,200130,234918,-3.46,-2.03,8.66,0.08,-0.04,0.04,27.05
12342172,1982,1,199238,234542,-4.57,-1.67,9.88,-0.23,0.14,0.10,27.05
12382172,2019,1,199122,235032,-4.28,-2.15,9.23,0.10,0.01,0.01,27.05
12422175,2078,1,199445,235192,-4.69,-2.07,9.61,-0.11,0.10,0.09,27.05
12462172,2084,1,199049,235033,-4.31,-1.63,9.66,0.15,0.12,0.03,27.05
12502161,2073,1,199217,235647,-4.98,-1.76,9.99,-0.07,0.10,0.06,27.05
12542172,2094,1,199397,236421,-4.70,-2.53,9.73,0.34,-0.02,-0.02,27.05
12582187,2035,1,199762,236832,-4.65,-1.38,10.08,-0.20,0.11,0.02,27.05
12622172,2000,1,199805,237214,-4.41,-2.17,9.61,0.02,-0.07,-0.00,27.05
12662187,1959,1,200047,237602,-4.49,-1.45,9.37,-0.26,-0.01,0.01,27.05
12702189,1871,1,200239,238642,-3.68,-2.28,8.19,0.05,-0.03,-0.10,27.05
12742187,1793,1,200775,240289,-3.34,-0.92,8.09,-0.44,-0.11,-0.04,27.05
12780205,1808,1,201262,241095,-2.94,-1.41,7.35,-0.41,0.07,-0.13,27.05
12820187,1825,1,201153,241066,-3.71,-0.90,8.25,-0.45,-0.17,0.04,27.05
12861189,1810,1,201282,240981,-3.03,-1.74,7.19,0.05,-0.10,-0.04,27.05
12901187,1841,1,200832,240105,-3.69,-1.25,7.84,-0.17,-0.08,0.00,27.05
12941188,1871,1,200534,235931,-3.52,-1.70,8.12,0.24,-0.05,0.01,27.05
12981172,1910,1,199044,233396,-3.96,-1.74,8.43,0.06,0.01,0.08,27.05
13021164,1987,1,199185,233601,-3.67,-2.33,8.54,0.36,0.04,0.01,27.05
13061161,1938,1,199128,233645,-3.60,-1.07,8.57,-0.19,-0.05,-0.02,27.05
13101205,2003,1,199185,233838,-4.44,-2.06,9.50,0.06,0.02,0.04,27.05
13141157,2077,1,199254,233521,-4.90,-1.93,9.89,0.07,0.02,0.19,27.05
13181161,2087,1,198634,232922,-4.38,-2.41,9.65,0.40,0.07,-0.13,27.05
13221167,2180,1,198437,232630,-4.97,-1.23,10.66,-0.01,0.22,0.08,27.05
13261172,2079,1,198182,232002,-5.20,-2.45,10.44,0.22,0.17,0.07,27.05
13301846,2071,1,197978,231479,-5.47,-1.75,10.97,0.02,0.12,0.13,27.35
13340166,1613,1,198110,232521,-5.49,-3.01,10.21,0.27,0.02,-0.01,27.35
13380175,848,1,199032,234247,-4.36,-1.67,9.57,-0.46,0.01,-0.01,27.35
13420195,511,1,200256,238117,-4.37,-1.76,9.13,-0.24,-0.01,0.02,27.35
13460187,769,1,201681,240009,-2.89,-1.73,7.01,-0.46,-0.20,-0.04,27.35
13500206,1216,1,201652,241411,-3.51,-1.99,8.20,-0.65,-0.11,-0.31,27.35
13540206,1664,1,202059,242148,-4.42,-0.29,8.88,-0.15,0.02,0.04,27.35
13580174,1929,1,202477,242838,-4.04,-2.40,7.89,-0.15,0.15,-0.09,27.35
13620190,2167,1,202140,240065,-3.22,-0.93,8.00,0.65,-0.28,-0.08,27.35
13660201,2288,1,201444,238416,-3.97,-2.34,8.53,0.04,0.18,-0.08,27.35
13700172,2321,1,200826,236447,-2.43,-0.91,7.76,0.16,-0.32,-0.10,27.35
13740194,2269,1,200497,236611,-3.71,-2.13,8.14,-0.34,-0.10,-0.00,27.35
13780207,2333,1,200695,236433,-2.98,-0.58,7.43,-0.01,-0.08,0.17,27.35
13820194,2299,1,200469,236295,-5.00,-2.97,9.30,0.03,0.01,-0.00,27.35
13861172,2229,1,200276,236498,-3.40,-0.99,7.79,0.56,-0.22,-0.00,27.35
13901194,2226,1,200465,236767,-4.29,-3.38,9.84,-0.05,0.32,-0.26,27.35
13941191,2208,1,200707,239059,-5.18,-0.57,11.13,-0.05,0.07,0.24,27.35
13981174,2160,1,201366,239623,-4.68,-3.69,9.30,-0.09,-0.01,-0.08,27.35
14021211,2170,1,201020,240552,-4.17,-0.26,9.20,0.10,-0.13,0.16,27.35
14059189,2220,1,201317,240481,-5.17,-2.81,9.73,-0.17,0.23,-0.17,27.35
14099191,2207,1,200867,240235,-4.89,-0.70,10.69,0.11,0.02,0.17,27.35
14139165,1963,1,201182,240659,-5.60,-4.34,10.19,0.42,0.10,-0.10,27.35
14179172,1986,1,201038,241253,-4.04,-0.52,9.96,0.11,0.03,0.12,27.35
14219165,2075,1,202318,242776,-5.37,-3.51,9.66,-0.28,0.13,-0.08,27.35
14259190,1823,1,201384,239232,-1.51,0.00,6.97,-0.67,-0.45,-0.11,27.35
14299193,1795,1,200667,239544,-3.28,-2.20,8.55,-0.64,0.10,-0.32,27.35
14339876,1834,1,200579,240484,-3.72,0.00,7.84,0.03,-0.23,0.31,27.21
14380161,1984,1,201164,241585,-2.90,-2.28,6.40,-0.03,0.04,-0.15,27.21
14420189,1959,1,201009,241546,-3.26,-0.78,7.85,0.09,-0.10,-0.10,27.21
14460191,1951,1,201390,242720,-3.71,-2.33,8.39,0.34,-0.05,-0.01,27.21
14500190,2081,1,201752,243286,-2.46,-1.21,7.59,-0.15,0.17,-0.06,27.21
14540194,2138,1,202037,243342,-3.56,-1.99,8.01,-0.14,0.06,-0.25,27.21
14580189,2077,1,201925,243007,-2.36,-1.61,7.23,-0.40,-0.15,-0.11,27.21
14620208,2101,1,201537,243751,-5.97,-0.74,10.58,-0.34,0.02,0.01,27.21
14660172,2106,1,202372,243695,-3.14,-3.71,6.00,0.20,0.06,0.07,27.21
14700160,2069,1,201779,243863,-4.25,-0.12,9.96,0.08,0.04,-0.03,27.21
14740172,2201,1,202557,244004,-4.89,-3.60,9.25,0.12,0.30,-0.10,27.21
14780172,2177,1,202068,243827,-3.95,-1.42,10.12,0.22,-0.09,0.02,27.21
14820172,2126,1,202428,243469,-4.30,-2.51,8.29,0.34,0.06,-0.08,27.21
14860172,2198,1,202434,241048,-4.52,-1.84,10.37,-0.44,0.10,0.12,27.21
14899172,2132,1,200629,236841,-4.93,-2.29,9.74,0.11,0.13,0.01,27.21
14939160,2185,1,200981,237580,-5.68,-2.84,10.53,-0.15,0.05,0.19,27.21
14979172,1943,1,200877,237917,-3.85,-1.06,7.67,0.40,-0.01,-0.02,27.21
15019189,2094,1,201987,240531,-5.17,-3.25,10.03,-0.51,0.04,-0.01,27.21
15059189,1783,1,202393,242131,-2.94,-1.03,7.54,-0.01,-0.16,-0.01,27.21
15099207,1920,1,202919,243325,-4.35,-2.89,9.23,-0.49,0.05,-0.01,27.21
15139189,1877,1,202807,243444,-3.28,-0.93,7.19,0.08,-0.26,0.01,27.21
15179172,1949,1,202974,244066,-3.93,-2.62,8.15,-0.43,0.17,-0.05,27.21
15219189,1948,1,202961,244087,-3.90,-0.85,8.13,0.05,-0.15,0.07,27.21
15259172,1962,1,203384,244831,-3.70,-2.61,7.81,-0.00,0.04,-0.11,27.21
15299188,1933,1,203543,244924,-3.67,-1.58,8.30,0.21,-0.09,0.02,27.21
15339172,1886,1,203724,245534,-3.95,-2.15,8.64,-0.18,0.11,-0.08,27.21
15379874,1936,1,203801,245363,-3.83,-1.80,8.72,-0.06,-0.07,0.10,27.17
15418193,1939,1,203941,245366,-4.32,-2.58,9.04,-0.07,-0.05,-0.00,27.17
15458206,1952,1,203759,245059,-3.66,-1.08,8.15,0.27,-0.08,0.06,27.17
15498210,1941,1,203612,242673,-4.68,-3.03,9.51,-0.08,0.05,-0.05,27.17
15538187,1953,1,202086,238384,-3.95,-1.41,8.78,0.28,-0.09,0.08,27.17
15578173,2075,1,201626,237730,-4.69,-3.05,9.65,-0.16,0.07,-0.11,27.17
15618189,1995,1,201440,238221,-4.04,-1.52,8.90,0.12,-0.08,0.09,27.17
15658172,2067,1,201569,238007,-4.90,-2.87,9.77,-0.30,0.13,-0.06,27.17
15698208,1964,1,201611,239681,-4.41,-1.19,8.92,0.18,-0.07,0.14,27.17
15738173,2025,1,202407,241598,-4.54,-2.89,9.28,-0.25,0.04,-0.17,27.17
15778190,1934,1,202819,242640,-3.21,-1.24,7.64,0.19,-0.07,0.05,27.17
15818173,1808,1,203090,243293,-4.45,-2.55,9.21,-0.42,0.04,-0.07,27.17
15858189,1745,1,203033,243243,-3.56,-1.19,7.89,-0.01,-0.07,0.05,27.17
15898193,1781,1,203090,243807,-3.85,-2.62,8.36,-0.24,0.04,-0.15,27.17
15939189,1726,1,203007,243545,-3.22,-0.61,7.65,0.23,-0.15,0.03,27.17
15979173,1793,1,203064,243739,-4.37,-2.43,8.54,-0.19,0.03,-0.05,27.17
16019189,1742,1,203183,243855,-3.54,-1.26,8.09,0.24,-0.14,0.12,27.17
16059174,1818,1,203473,244119,-4.27,-2.68,9.20,0.02,0.07,-0.03,27.17
16099172,1869,1,203820,244582,-4.26,-1.53,8.56,0.29,-0.01,0.20,27.17
16139173,1913,1,203878,240692,-4.29,-2.77,9.51,-0.11,0.07,-0.03,27.17
16179189,1893,1,201916,237171,-4.24,-1.21,9.08,0.13,-0.12,0.11,27.17
16219174,1973,1,201483,236304,-4.63,-2.58,9.25,0.01,0.06,-0.06,27.17
16259172,1921,1,201121,236081,-4.33,-1.36,8.96,0.23,-0.07,0.03,27.17
16299172,2001,1,201033,235754,-4.94,-2.36,10.11,-0.07,0.12,-0.09,27.17
16339189,1891,1,200994,236369,-4.98,-1.63,10.06,0.16,0.01,0.14,27.17
16379851,1950,1,201143,236898,-5.08,-2.79,10.07,-0.05,-0.04,-0.14,27.05
16418206,1845,1,201733,238550,-3.49,-1.27,8.05,0.10,-0.04,0.03,27.05
16458172,1567,1,202557,239672,-4.08,-1.67,8.68,-0.55,0.05,-0.05,27.05
16498188,1521,1,202560,240560,-3.62,-0.90,8.07,-0.32,-0.19,-0.01,27.05
16538206,1570,1,202485,240779,-4.50,-1.58,8.86,-0.35,-0.11,-0.09,27.05
16578205,1675,1,202752,242205,-3.12,-1.06,6.61,0.52,-0.17,0.03,27.05
16618173,1670,1,202605,242133,-3.12,-1.72,7.58,-0.40,-0.16,-0.30,27.05
16658206,1776,1,202975,243079,-3.16,-1.15,8.17,0.56,0.00,0.09,27.05
16698161,1843,1,202962,243064,-3.60,-1.34,7.75,-0.41,-0.02,0.21,27.05
16738189,1808,1,203274,243561,-2.78,-2.23,7.34,0.06,-0.10,-0.28,27.05
16778194,1830,1,202530,240236,-3.41,-1.30,7.90,-0.33,-0.19,0.10,27.05
16818189,1885,1,201309,236404,-3.63,-0.92,8.40,0.09,0.05,0.03,27.05
16858160,1984,1,201137,236047,-4.69,-3.15,8.86,0.01,0.12,0.20,27.05
16898160,2012,1,200817,235837,-3.81,-0.83,8.41,0.45,-0.20,0.00,27.05
16938172,2124,1,201041,235415,-4.17,-2.35,9.47,-0.04,0.32,0.05,27.05
16978172,2023,1,201345,236314,-5.83,-1.26,10.86,0.21,0.05,0.32,27.05
17018163,2010,1,201393,235852,-4.88,-2.63,10.06,0.18,0.03,-0.04,27.05
17058172,2012,1,201273,235900,-5.26,-1.84,10.45,0.19,0.04,0.11,27.05
17098161,2000,1,200853,235511,-4.81,-1.70,10.11,0.10,0.07,-0.01,27.05
17138207,2031,1,201009,235456,-5.32,-1.89,10.45,-0.02,0.09,0.09,27.05
17178173,1907,1,200920,236573,-5.13,-1.20,9.88,0.09,-0.13,-0.06,27.05
17218188,1846,1,202146,238593,-3.73,-1.59,8.06,-0.25,-0.06,-0.13,27.05
17258206,1590,1,202653,240220,-3.69,-1.03,8.48,-0.57,-0.11,-0.13,27.05
17298205,1628,1,202846,241245,-3.14,-1.04,7.41,-0.34,-0.26,-0.04,27.05
17338206,1741,1,202218,241722,-3.30,-1.38,7.75,-0.44,-0.37,-0.23,27.05
17378206,1903,1,202126,241837,-2.26,-0.42,6.61,0.08,-0.28,-0.12,27.05
17418875,1986,1,201977,242350,-3.20,-1.16,7.71,-0.41,0.10,-0.07,27.21
17457188,2029,1,202385,238653,-3.38,-0.32,8.17,0.33,-0.11,0.13,27.21
17497173,2135,1,200965,235552,-3.55,-2.41,7.92,0.27,0.06,0.10,27.21
17537161,2125,1,200958,235292,-2.71,-0.88,8.10,0.51,0.05,-0.02,27.21
17577172,2160,1,201216,235557,-3.80,-2.22,8.75,-0.23,0.15,-0.01,27.21
17617189,2112,1,201525,235803,-4.10,-1.16,9.12,-0.24,0.02,0.18,27.21
17657172,2128,1,201171,234926,-3.93,-1.89,8.72,-0.01,0.01,-0.05,27.21
17697188,2185,1,200947,234878,-4.57,-1.27,8.87,0.11,0.14,0.07,27.21
17737161,2133,1,200585,234151,-5.17,-1.86,10.34,0.13,0.36,-0.01,27.21
17777172,2015,1,200269,233449,-5.61,-2.21,10.90,0.35,0.33,0.15,27.21
17817163,1856,1,199738,232909,-5.62,-1.91,11.05,0.33,0.15,0.03,27.21
17857167,1427,1,199814,233324,-5.23,-1.99,10.07,0.21,0.02,-0.04,27.21
17897175,993,1,200424,234815,-5.29,-1.67,10.21,-0.40,-0.02,-0.05,27.21
17937207,830,1,201393,236832,-3.96,-1.01,8.62,-0.22,-0.10,-0.01,27.21
17977205,1191,1,202664,238966,-4.68,-1.95,8.81,-0.56,-0.03,-0.04,27.21
18017206,1535,1,203118,240294,-3.10,-1.50,7.37,-0.02,-0.20,-0.18,27.21
18057206,1726,1,203293,241637,-3.60,-1.13,7.77,-0.46,-0.23,-0.17,27.21
18097207,2022,1,203523,242378,-2.98,-0.21,7.33,-0.24,-0.09,-0.06,27.21
18137205,2256,1,203721,242059,-3.95,-1.80,8.17,-0.24,-0.08,0.04,27.21
18177188,2320,1,202465,236490,-2.78,-0.51,7.28,0.33,-0.20,-0.01,27.21
18217189,2467,1,201646,235636,-3.76,-2.04,7.88,-0.06,0.10,-0.05,27.21
18257187,2334,1,201571,235616,-3.62,-1.12,8.63,0.18,-0.07,0.11,27.21
18297172,2331,1,201745,235572,-4.06,-2.54,8.49,0.02,0.13,0.07,27.21
18337160,2261,1,201601,235301,-3.62,-0.87,8.43,-0.05,-0.03,-0.00,27.21
18377206,2285,1,201445,235481,-4.34,-2.28,9.07,-0.39,-0.02,-0.13,27.21
18417207,2203,1,201618,235930,-4.81,-1.12,9.66,0.08,0.00,0.16,27.21
18457847,2330,1,201544,235147,-4.64,-2.51,9.53,0.08,0.08,-0.01,26.97
18496172,2143,1,201008,234640,-4.52,-1.47,9.51,0.29,-0.02,-0.02,26.97
18536190,2160,1,201033,234810,-5.11,-2.26,10.10,0.06,0.18,0.02,26.97
18576161,2098,1,201229,235199,-4.60,-1.34,9.68,0.26,-0.03,0.09,26.97
18616172,2096,1,201244,235721,-4.87,-2.18,9.96,-0.01,-0.02,-0.13,26.97
18656207,1973,1,201974,237269,-3.92,-1.01,8.52,0.08,0.02,0.06,26.97
18696161,1906,1,202635,238472,-4.17,-2.05,8.76,-0.49,0.02,-0.10,26.97
18736187,1727,1,202739,239025,-3.41,-0.78,8.24,-0.29,-0.21,-0.11,26.97
18776206,1898,1,202674,239604,-4.35,-1.91,8.58,-0.35,-0.02,-0.10,26.97
18816206,2007,1,202753,239171,-3.26,-1.03,7.44,0.13,-0.22,-0.01,26.97
18856189,1966,1,201420,235296,-3.72,-2.02,7.93,-0.18,0.02,-0.18,26.97
18896188,1977,1,200984,234617,-3.91,-0.81,8.84,0.05,0.03,0.12,26.97
18936161,2070,1,200981,234448,-3.65,-2.37,8.44,-0.01,0.03,-0.02,26.97
18976187,2074,1,200856,234067,-3.28,-0.92,7.90,0.19,-0.15,0.03,26.97
19016172,2103,1,200718,233894,-4.05,-1.67,8.50,-0.20,0.07,-0.00,26.97
19056187,2011,1,200751,233770,-3.86,-1.35,8.54,0.10,-0.03,0.10,26.97
19096172,2034,1,200698,233844,-4.63,-2.18,9.32,0.05,-0.05,-0.05,26.97
19136187,2030,1,200561,233744,-3.47,-1.33,8.20,0.15,-0.06,-0.03,26.97
19176189,1973,1,200514,233739,-4.75,-2.16,9.95,-0.25,0.09,-0.03,26.97
19216188,1929,1,200433,233689,-4.05,-1.01,8.98,0.28,-0.03,0.11,26.97
19256172,1985,1,200240,232912,-4.51,-2.31,9.35,-0.00,-0.05,-0.09,26.97
19296206,1776,1,199953,233617,-4.40,-0.95,8.99,0.26,-0.05,0.00,26.97
19336172,1834,1,200618,234846,-4.35,-2.15,9.62,-0.23,0.12,-0.04,26.97
19376187,1659,1,201090,235559,-3.60,-0.73,8.98,-0.10,-0.07,0.03,26.97
19416188,2059,1,201067,236389,-5.21,-2.38,9.73,-0.33,-0.05,-0.09,26.97
19456207,1821,1,201951,238990,-2.95,-0.91,6.85,-0.02,-0.10,0.03,26.97
19496874,1626,1,202026,239069,-2.83,-1.53,7.13,-0.70,-0.10,-0.36,26.71
19537207,1598,1,201438,237784,-5.04,-0.28,10.90,-0.05,-0.03,0.10,26.71
19577189,2001,1,201275,234157,-4.21,-2.14,6.82,0.48,-0.06,0.41,26.71
19615172,1521,1,199146,230077,-3.09,-2.50,9.56,0.38,0.06,-0.42,26.71
19655173,1535,1,198864,230567,-5.11,-1.57,10.48,0.76,0.16,0.28,26.71
19695161,1712,1,199032,229421,-5.42,-2.22,11.57,-0.20,0.22,0.15,26.71
19735173,1420,1,198889,230168,-5.25,-3.39,10.46,0.48,-0.05,0.07,26.71
19775172,757,1,199094,229569,-3.51,-0.93,8.34,-0.42,-0.16,-0.04,26.71
19815206,1023,1,199106,229796,-5.68,-1.96,11.16,-0.29,0.32,0.04,26.71
19855172,944,1,199376,230871,-5.12,-1.41,9.49,0.34,-0.28,0.20,26.71
19895172,1554,1,199723,230748,-5.27,-3.04,10.69,-0.41,0.11,-0.17,26.71
19935187,1499,1,199480,231360,-2.95,0.11,7.42,0.70,-0.10,-0.10,26.71
19975172,2084,1,199900,231465,-4.88,-2.14,10.83,-0.71,0.08,-0.06,26.71
20015187,1956,1,199538,232126,-3.59,0.75,8.04,0.43,-0.08,0.02,26.71
20055161,2650,1,199945,231773,-5.14,-2.44,9.78,-0.52,-0.07,-0.05,26.71
20095205,2189,1,199405,232838,-3.01,0.69,6.63,0.55,-0.06,-0.10,26.71
20135172,2475,1,200780,235401,-4.52,-1.94,9.11,-0.47,0.24,0.00,26.71
20175172,2059,1,201739,237867,-2.78,0.69,7.49,-0.15,-0.17,-0.08,26.71
20215189,2293,1,202287,239562,-3.51,-2.34,7.56,-0.56,-0.10,-0.11,26.71
20255206,2519,1,202070,238622,-3.79,-0.92,8.79,-0.15,-0.03,-0.07,26.71
20295205,2387,1,201191,233859,-3.32,-0.54,6.67,0.46,0.01,0.23,26.71
20335161,2285,1,199815,231896,-4.59,-2.29,9.04,-0.41,0.01,-0.22,26.71
20375188,1872,1,200152,233174,-3.10,-1.24,7.99,0.66,0.01,0.19,26.71
20415165,2162,1,200425,233535,-3.61,-1.55,8.51,-0.50,0.11,0.04,26.71
20455172,2257,1,200734,233968,-3.23,-1.45,7.99,-0.21,0.10,-0.20,26.71
20495187,2160,1,200648,233839,-3.19,-1.95,7.34,-0.02,-0.10,-0.01,26.71
20535891,2311,1,200612,234447,-6.28,-2.09,10.97,-0.31,0.02,0.20,26.73
20576172,1977,1,200723,234288,-3.01,-1.63,6.34,0.58,-0.08,-0.03,26.73
20616242,2194,1,200642,233735,-5.25,-2.27,11.29,-0.45,0.20,-0.01,26.73
20656187,1974,1,199725,232700,-4.32,-0.85,8.26,0.82,-0.02,-0.04,26.73
20696188,2241,1,200089,233232,-6.19,-2.58,12.04,-0.13,0.47,0.30,26.73
20736172,1535,1,200111,233182,-4.68,-0.68,8.58,0.75,-0.01,0.06,26.73
20776175,1466,1,200123,233371,-6.60,-2.32,12.22,-0.29,0.38,0.15,26.73
20816175,320,1,200745,234559,-4.76,0.23,8.86,0.60,-0.25,0.20,26.73
20854166,457,1,201081,234774,-5.99,-2.68,10.96,-0.48,0.09,-0.07,26.73
20894189,43,1,201903,237016,-3.77,0.62,7.77,0.15,-0.19,0.07,26.73
20934161,1040,1,202863,236955,-5.14,-2.31,9.35,-0.79,-0.07,-0.10,26.73
20974207,933,1,202350,235075,-3.05,0.06,7.39,-0.31,-0.38,-0.16,26.73
21014189,1635,1,201393,234779,-3.62,-2.34,7.41,-0.76,-0.34,-0.35,26.73
21054206,2119,1,200569,234765,-2.11,0.37,6.92,-0.34,-0.58,-0.27,26.73
21094189,2506,1,200081,235841,-3.08,-1.30,6.53,-0.67,-0.23,-0.14,26.73
21134216,2739,1,200399,236189,-3.05,-0.03,7.60,-0.11,-0.06,0.03,26.73
21174190,2867,1,200590,237005,-2.59,-1.85,6.64,0.27,-0.09,-0.06,26.73
21214190,2867,1,200931,237602,-3.17,-0.94,8.18,0.27,0.00,-0.04,26.73
21254172,2813,1,200960,238123,-3.16,-2.03,8.19,-0.01,0.16,-0.05,26.73
21294189,2785,1,201175,238809,-3.59,-1.84,8.46,-0.18,0.02,0.03,26.73
21334173,2765,1,201393,239367,-3.55,-2.04,8.54,-0.07,-0.00,-0.10,26.73
21374206,2759,1,201266,239318,-4.16,-1.43,8.59,-0.14,-0.04,0.04,26.73
21414194,2667,1,201209,238672,-4.32,-2.05,9.22,0.03,0.20,-0.02,26.73
21454172,2640,1,200897,236993,-5.08,-1.92,10.30,0.19,0.36,0.10,26.73
21494160,2331,1,200155,235167,-5.20,-2.67,10.36,0.50,0.20,0.05,26.73
21534161,2285,1,199464,234569,-5.21,-1.75,10.67,0.39,0.12,0.09,26.73
21574851,2142,1,199471,234154,-5.16,-2.36,10.30,0.26,0.12,0.07,26.77
21615160,2219,1,199399,233316,-5.16,-1.85,10.75,0.05,-0.06,0.08,26.77
21655174,2099,1,199362,232763,-4.75,-2.36,9.88,-0.07,-0.06,0.00,26.77
21695189,1985,1,199889,232919,-3.61,-1.58,8.69,-0.46,-0.04,-0.04,26.77
21735207,1791,1,199978,233719,-3.92,-1.30,8.47,-0.36,-0.08,-0.08,26.77
21775207,1942,1,200467,234122,-3.78,-1.39,7.93,-0.43,-0.15,-0.06,26.77
21815206,1963,1,200256,233984,-3.06,-2.16,7.68,-0.22,-0.24,-0.28,26.77
21855206,2053,1,200048,234630,-3.17,-0.95,7.55,-0.21,-0.19,-0.06,26.77
21895206,2110,1,200367,235810,-3.07,-1.55,7.76,-0.18,0.01,-0.02,26.77
21935187,2151,1,200560,235952,-3.53,-1.34,7.96,-0.04,-0.11,0.03,26.77
21975190,2131,1,200608,235322,-2.80,-2.02,7.28,0.27,0.00,-0.05,26.77
22015172,2107,1,200492,235272,-4.00,-1.45,9.15,0.04,0.05,0.13,26.77
22055196,2067,1,200675,235626,-3.56,-2.51,8.67,0.17,0.00,0.01,26.77
22095161,2010,1,200741,235906,-3.72,-2.01,9.37,-0.04,0.06,0.05,26.77
22135172,2027,1,200673,235957,-3.51,-2.29,8.51,0.05,0.02,-0.08,26.77
22173172,2029,1,201043,236543,-4.30,-1.91,9.61,-0.27,0.07,0.09,26.77
22213174,1879,1,200926,236565,-4.11,-2.02,9.09,0.14,0.05,-0.01,26.77
22253172,1820,1,201083,236118,-4.64,-2.06,10.01,0.01,0.17,0.10,26.77
22293160,1609,1,200802,235434,-4.98,-2.52,10.07,0.36,0.18,0.04,26.77
22333161,1611,1,200226,232746,-4.87,-3.07,10.85,0.09,0.06,0.03,26.77
22373166,1501,1,199911,232331,-4.59,-1.89,9.80,0.36,0.10,0.07,26.77
22413161,1619,1,199903,232327,-4.72,-2.00,9.88,-0.19,-0.06,-0.02,26.77
22453207,1633,1,200578,234123,-4.22,-2.21,8.59,-0.03,-0.06,-0.06,26.77
22493206,1454,1,201596,235430,-3.73,-1.76,8.62,-0.60,0.04,-0.06,26.77
22533189,1367,1,201861,237003,-3.58,-1.74,8.38,-0.41,-0.14,-0.17,26.77
22573206,1585,1,202015,238920,-3.44,-1.04,7.99,-0.34,-0.47,-0.01,26.77
22613892,1717,1,201974,239753,-2.62,-2.30,6.56,-0.21,-0.34,-0.19,26.67
22654207,1815,1,201570,239285,-2.26,-0.44,6.92,-0.17,-0.29,-0.05,26.67
22694206,1871,1,201609,239986,-3.50,-1.20,7.89,-0.13,0.17,0.01,26.67
22734172,1971,1,201782,239877,-3.72,-1.43,8.40,0.14,-0.06,0.14,26.67
22774172,2070,1,202214,239641,-2.70,-2.19,7.71,0.64,0.05,-0.08,26.67
22814172,2189,1,202090,239717,-4.73,-1.38,10.22,0.14,0.15,0.18,26.67
22854165,1776,1,202080,239135,-4.46,-2.03,9.64,0.26,0.43,0.03,26.67
22894160,1791,1,202208,237679,-5.42,-2.32,11.00,0.26,0.25,0.22,26.67
22934160,1590,1,200894,235642,-5.70,-1.57,10.15,0.83,0.17,0.05,26.67
22974161,1712,1,199477,230633,-5.96,-2.15,11.77,0.49,0.45,0.26,26.67
23014165,799,1,196375,226289,-6.66,-1.04,11.33,1.06,0.33,0.33,26.67
23054161,1302,1,192519,219474,-6.05,-1.57,10.81,0.54,0.14,0.10,26.67
23094161,1260,1,192300,223724,-5.46,-0.62,9.92,0.56,-0.04,-0.05,26.67
23134188,1686,1,195820,225703,-5.47,-1.13,10.23,-0.65,-0.10,-0.30,26.67
23174208,1701,1,197095,229104,-3.97,0.43,8.91,-0.60,-0.37,-0.28,26.67
23214190,1829,1,198938,232991,-3.70,-1.44,7.73,-1.19,-0.41,-0.26,26.67
23254206,1424,1,199692,235085,-2.37,-0.09,6.64,-0.69,-0.55,-0.33,26.67
23294209,1659,1,199954,236130,-2.64,-0.84,6.28,-0.75,-0.36,-0.07,26.67
23334212,1434,1,200106,237270,-2.95,0.74,6.90,-0.22,-0.02,0.09,26.67
23374175,1116,1,200434,236789,-2.79,-2.11,6.51,-0.13,0.06,-0.03,26.67
23414196,864,1,199918,236182,-2.32,-0.21,6.94,0.43,-0.06,0.03,26.67
23454175,1075,1,199866,235759,-2.92,-2.02,7.25,-0.07,0.29,-0.05,26.67
23492195,1272,1,200131,237597,-3.32,-0.83,7.86,0.02,0.03,0.08,26.67
23532161,1581,1,200926,238954,-3.27,-2.30,7.24,-0.49,0.08,-0.15,26.67
23572195,1984,1,201206,240119,-3.45,-1.18,7.79,-0.25,-0.02,-0.07,26.67
23612208,2151,1,201353,237442,-3.95,-2.14,8.06,-0.53,0.09,-0.07,26.67
23652882,1926,1,199373,233844,-4.18,-1.54,8.73,-0.12,0.03,-0.08,26.55
23693245,1919,1,199056,233483,-4.39,-2.56,8.58,0.07,0.08,-0.09,26.55
23733175,2032,1,198329,232779,-4.78,-1.58,9.58,0.34,0.02,0.03,26.55
23773161,2043,1,198001,231543,-5.61,-2.67,10.46,0.36,0.22,0.12,26.55
23813166,1690,1,197063,230018,-5.44,-2.16,10.53,0.73,0.25,0.15,26.55
23853166,751,1,196620,230202,-6.67,-2.92,12.30,0.62,0.48,0.10,26.55
23893196,1040,1,196782,230208,-6.02,-1.79,11.28,0.63,0.04,0.08,26.55
23933160,2037,1,196677,230737,-5.74,-1.99,10.97,0.17,0.03,-0.06,26.55
23973172,2603,1,197403,233122,-5.47,-0.70,10.01,-0.24,-0.13,0.06,26.55
24013187,2813,1,199008,236491,-4.61,-1.96,9.03,-0.63,-0.09,-0.17,26.55
24053206,2559,1,200671,240206,-3.72,-1.32,8.18,-0.62,-0.20,-0.15,26.55
24093207,2445,1,201692,241763,-3.68,-1.42,7.60,-0.80,-0.27,-0.12,26.55
24133205,2353,1,201573,241692,-3.42,-0.91,7.31,-0.57,-0.36,-0.10,26.55
24173206,2559,1,201289,242075,-3.21,-1.67,6.72,-0.51,-0.28,-0.14,26.55
24213206,2705,1,201287,242081,-2.72,-0.41,6.46,0.08,-0.17,-0.07,26.55
24253187,2789,1,201484,242009,-3.31,-1.46,7.64,0.02,0.06,0.02,26.55
24293161,2656,1,200782,237073,-3.58,-0.91,8.29,0.49,-0.14,0.04,26.55
24333172,2870,1,199305,234267,-3.30,-2.58,8.03,0.43,0.03,-0.10,26.55
24373172,2485,1,198577,233885,-3.59,-0.86,8.94,0.34,-0.05,-0.10,26.55
24413187,2448,1,198659,234088,-4.09,-2.21,9.17,-0.13,0.06,-0.04,26.55
24453189,2333,1,198666,234895,-4.33,-1.15,9.33,-0.14,-0.01,0.14,26.55
24493187,2407,1,198980,235584,-3.96,-2.62,9.10,-0.03,0.15,-0.01,26.55
24533189,2355,1,199732,238423,-4.85,-1.53,9.45,-0.19,0.09,0.14,26.55
24573172,2198,1,201300,240049,-4.46,-1.98,9.23,0.04,0.44,0.16,26.55
24613160,1852,1,202233,241041,-4.45,-1.31,8.83,-0.11,0.24,0.25,26.55
24653859,1578,1,202357,241572,-4.01,-2.18,8.39,-0.05,-0.22,-0.20,26.31
24692208,1494,1,202327,242141,-4.81,-1.41,9.31,-0.25,-0.29,-0.01,26.31
24732207,1525,1,202498,242979,-3.99,-2.01,8.14,-0.21,-0.03,-0.06,26.31
24772208,1712,1,202419,242985,-3.96,-1.44,7.92,-0.33,0.14,0.06,26.31
24812172,1738,1,202331,243119,-3.52,-2.06,7.71,-0.25,-0.02,-0.17,26.31
24852207,1855,1,202044,242872,-3.96,-0.80,8.28,-0.18,-0.14,-0.01,26.31
24892206,2240,1,202230,243062,-4.29,-1.81,8.08,-0.09,0.03,0.07,26.31
24932172,2282,1,201907,240754,-4.17,-1.92,8.34,-0.02,-0.06,0.03,26.31
24972187,2225,1,201146,237864,-3.75,-2.26,8.31,0.32,-0.03,-0.10,26.31
25012189,2285,1,200673,238221,-4.23,-1.58,8.41,-0.08,-0.07,0.05,26.31
25052189,2210,1,200999,238790,-4.34,-1.88,8.86,0.03,0.03,0.05,26.31
25092165,2191,1,201101,238961,-5.05,-2.05,9.17,0.06,-0.04,0.14,26.31
25132173,1963,1,201161,239276,-4.44,-2.23,9.04,0.25,0.01,-0.03,26.31
25172174,1835,1,201526,239778,-4.97,-1.92,10.12,0.02,0.06,0.02,26.31
25212160,1744,1,201661,239480,-4.86,-1.80,9.85,0.27,0.02,0.10,26.31
25252166,1952,1,201697,239184,-5.06,-1.91,9.81,0.14,-0.05,0.06,26.31
25292172,1983,1,201790,240676,-4.71,-2.05,9.53,0.09,-0.07,-0.05,26.31
25332200,1747,1,202733,242521,-4.50,-1.39,9.01,-0.45,0.07,0.04,26.31
25372172,1367,1,202843,242305,-2.70,-2.09,6.99,-0.40,-0.13,-0.17,26.31
25412208,1377,1,201242,241741,-2.41,0.22,7.38,-0.86,-0.74,-0.44,26.31
25452190,1535,1,202036,243402,-4.00,-1.22,8.42,-0.47,0.35,-0.14,26.31
25492194,1773,1,201729,242827,-3.16,0.02,6.56,0.14,-0.35,0.30,26.31
25532166,1765,1,201999,240327,-4.64,-2.95,8.94,0.91,0.19,-0.16,26.31
25572174,1829,1,200025,234103,-4.59,-0.30,9.53,0.88,0.16,0.44,26.31
25612166,1314,1,200049,234569,-6.23,-4.66,11.44,0.15,0.61,-0.04,26.31
25652172,723,1,199916,233801,-2.46,-1.12,8.87,0.06,-0.33,0.00,26.31
25692858,841,1,199254,233426,-5.69,-3.11,10.03,-0.64,-0.08,-0.12,26.47
25731205,211,1,198994,233917,-5.60,-1.19,9.93,-0.24,-0.09,0.27,26.47
25771187,907,1,198854,234048,-5.50,-2.21,8.54,0.20,-0.09,-0.16,26.47
25811189,1678,1,199122,233676,-4.87,-2.35,10.22,-0.00,0.25,0.01,26.47
25851167,1968,1,198383,233719,-4.74,-0.88,9.59,0.72,-0.14,0.01,26.47
25891172,2393,1,199223,234785,-4.75,-2.62,9.41,-0.38,0.10,-0.02,26.47
25931187,2343,1,199093,235497,-4.19,-0.33,9.17,-0.11,-0.06,-0.08,26.47
25972205,2454,1,199869,236105,-4.29,-2.69,8.21,-0.38,-0.03,-0.04,26.47
26012206,2334,1,200217,238616,-4.38,-0.61,8.94,-0.05,-0.03,0.06,26.47
26052190,2283,1,201324,240269,-3.69,-1.58,7.48,-0.43,-0.17,-0.21,26.47
26090205,2060,1,201414,241428,-3.45,-0.59,7.90,-0.31,-0.24,-0.15,26.47
26130205,2506,1,201749,241667,-3.25,-1.00,6.70,-0.16,-0.13,0.02,26.47
26170187,2584,1,202024,241322,-4.26,-1.97,8.73,0.04,0.15,0.14,26.47
26210161,2419,1,200690,235351,-3.11,-0.61,7.29,0.13,-0.26,0.01,26.47
26250167,2353,1,199876,234916,-2.79,-2.32,6.84,-0.23,0.08,-0.15,26.47
26290189,2418,1,199688,234586,-2.82,-0.78,7.55,-0.21,-0.00,-0.01,26.47
26330205,2391,1,199793,235230,-4.67,-1.01,8.68,-0.20,0.08,0.22,26.47
26370172,2320,1,200313,235225,-3.82,-2.94,7.71,0.02,0.00,0.17,26.47
26410161,2081,1,199998,235216,-2.80,0.18,6.90,0.54,-0.16,0.02,26.47
26450161,2384,1,200262,235210,-5.48,-3.53,9.62,-0.47,0.39,0.08,26.47
26490175,1424,1,199890,235328,-4.95,-0.41,9.54,0.61,0.07,0.14,26.47
26530167,207,1,199703,233818,-4.92,-3.42,9.16,-0.09,0.09,-0.15,26.47
26570195,0,1,198873,233907,-5.33,-0.31,9.82,0.44,0.13,0.09,26.47
26610161,614,1,199052,233100,-5.53,-3.31,10.23,-0.06,0.27,0.02,26.47
26650167,1535,1,198235,232938,-5.66,-0.99,11.00,0.28,0.03,0.13,26.47
26690161,2358,1,198566,233958,-6.19,-2.70,9.87,-0.04,0.47,-0.15,26.47
26730879,2371,1,199287,234245,-4.87,-2.31,9.92,-0.40,0.11,-0.29,26.59
26771188,2401,1,199300,235693,-5.78,-1.66,10.36,-0.18,-0.03,-0.09,26.59
26811206,2735,1,199874,236931,-5.49,-1.23,8.97,-0.26,-0.16,0.08,26.59
26851189,2894,1,199830,234867,-5.33,-1.54,8.80,-0.11,0.03,-0.03,26.59
26891188,2721,1,200295,235330,-3.71,-1.71,6.78,0.07,-0.11,-0.03,26.59
26931190,2006,1,200021,234939,-2.58,-1.88,6.13,-0.49,-0.69,-0.45,26.59
26970205,1767,1,199992,237223,-3.28,-0.72,7.55,-0.41,-0.25,-0.11,26.59
27010208,1670,1,200075,238620,-2.72,-1.41,6.28,-0.58,-0.59,0.07,26.59
27050195,1451,1,199672,239113,-2.03,-0.39,6.37,-0.41,-1.20,-0.35,26.59
27090206,985,1,200137,240368,-1.59,-1.00,5.60,0.13,-0.16,-0.11,26.59
27130188,791,1,200987,241239,-3.07,-0.42,9.34,0.31,0.01,0.17,26.59
27170175,1164,1,201891,241882,-2.92,-3.78,7.52,0.76,-0.13,0.24,26.59
27210173,1284,1,201487,241622,-1.92,-1.18,7.79,-0.21,-0.06,-0.09,26.59
27250208,1426,1,201716,242579,-4.50,-3.65,9.69,-0.84,0.50,-0.21,26.59
27290187,1764,1,201234,242074,-4.54,-1.54,9.82,-0.52,-0.25,0.20,26.59
27330189,2153,1,201563,243411,-4.64,-3.09,8.37,-0.20,0.18,0.05,26.59
27370172,2455,1,201803,242737,-3.82,-0.97,8.35,0.53,-0.07,0.22,26.59
27410173,2480,1,201568,239900,-4.30,-3.44,10.15,0.50,0.29,-0.13,26.59
27450172,2431,1,200079,236171,-5.21,-1.90,10.72,1.06,0.65,0.23,26.59
27490166,2367,1,198938,232371,-5.76,-4.28,11.78,0.11,0.75,-0.07,26.59
27530176,1246,1,197356,229715,-5.41,-1.90,11.37,0.15,-0.04,-0.08,26.59
27570196,651,1,196923,229485,-6.03,-3.03,10.51,-0.20,0.22,0.02,26.59
27610176,373,1,197539,230509,-5.06,-2.06,9.95,-0.18,-0.06,0.10,26.59
27650190,691,1,198249,231706,-4.14,-2.23,8.30,-0.31,-0.11,-0.10,26.59
27690206,1827,1,198475,232338,-3.36,-1.69,7.63,-0.63,-0.21,-0.06,26.59
27730891,2822,1,198756,233838,-3.91,-1.37,7.69,-0.54,-0.07,0.01,26.61
27769189,3136,1,199108,234443,-3.82,-1.73,7.30,-0.46,-0.01,0.02,26.61
27809190,3298,1,199468,235013,-3.70,-1.84,7.45,0.18,-0.05,-0.05,26.61
27849188,3440,1,199480,234898,-3.38,-1.75,7.12,0.23,-0.03,-0.08,26.61
27889190,3057,1,199473,234924,-3.76,-1.85,8.46,0.27,0.08,-0.03,26.61
27929172,2944,1,199765,235407,-4.06,-1.99,8.48,0.00,0.07,0.08,26.61
27969161,2896,1,200110,235636,-3.32,-2.37,7.86,0.06,0.09,-0.03,26.61
28009172,2818,1,199916,235308,-4.18,-1.42,8.43,-0.27,-0.07,0.00,26.61
28049189,2745,1,199979,235456,-4.50,-1.84,8.50,0.05,0.05,0.12,26.61
28089158,2619,1,200014,235099,-4.74,-2.41,8.82,-0.03,0.05,0.07,26.61
28129172,2558,1,199527,232759,-4.08,-1.99,8.37,0.39,0.05,-0.04,26.61
28169172,2443,1,198539,230447,-5.30,-2.43,9.33,-0.04,0.10,0.10,26.61
28209172,2320,1,198035,229990,-5.06,-1.52,9.34,0.14,0.07,0.13,26.61
28249161,2416,1,198077,229384,-5.31,-3.01,9.19,-0.06,0.01,-0.00,26.61
28289189,2350,1,197873,229423,-4.98,-1.46,9.43,0.16,0.02,0.02,26.61
28329161,2403,1,197971,229239,-5.30,-2.73,9.20,-0.12,0.02,-0.02,26.61
28369189,2215,1,197978,230118,-5.19,-1.42,9.35,0.06,-0.05,0.08,26.61
28409172,2117,1,198430,230522,-4.50,-2.38,8.21,-0.06,0.01,-0.10,26.61
28449189,2055,1,198450,230928,-4.70,-1.22,8.94,-0.08,-0.06,-0.03,26.61
28489206,2031,1,198703,231437,-4.68,-2.11,8.44,-0.11,0.02,-0.04,26.61
28529189,1984,1,198877,232133,-4.53,-1.44,8.50,-0.19,-0.04,0.01,26.61
28569187,1958,1,199132,232518,-4.17,-2.38,7.66,-0.17,-0.05,-0.14,26.61
28609214,1750,1,199122,233224,-3.88,-1.19,7.69,-0.10,-0.06,-0.04,26.61
28649207,1706,1,199830,235043,-4.20,-1.95,7.59,-0.20,0.04,-0.03,26.61
28689188,1751,1,200276,236533,-4.06,-1.10,7.86,-0.23,-0.15,-0.03,26.61
28729206,1811,1,200854,237690,-4.09,-2.61,7.85,-0.09,0.01,-0.11,26.61
28769874,1712,1,200882,238234,-3.77,-0.93,7.84,0.05,-0.24,0.00,26.93
28808206,1856,1,200619,233690,-3.67,-2.12,7.41,-0.09,0.10,-0.03,26.93
28848189,1869,1,199384,232420,-4.36,-0.91,8.41,0.03,-0.10,0.12,26.93
28888172,1895,1,199852,232429,-3.65,-2.48,7.65,0.13,0.19,0.07,26.93
28928161,1898,1,199901,232525,-4.03,-1.16,8.52,-0.03,-0.11,0.11,26.93
28968188,1831,1,200151,232920,-4.35,-2.69,8.19,-0.04,0.03,-0.02,26.93
29008189,1791,1,200375,233577,-4.51,-1.70,8.36,-0.05,-0.07,0.10,26.93
29048187,1823,1,200528,233833,-4.30,-2.50,8.23,0.09,0.09,-0.15,26.93
29088172,1807,1,200520,233922,-5.08,-1.61,9.35,0.02,-0.01,0.08,26.93
29128172,1743,1,200115,233062,-4.70,-2.62,9.13,0.13,0.04,-0.01,26.93
29168172,1150,1,199778,232746,-5.44,-1.74,9.99,0.04,0.10,0.21,26.93
29208160,944,1,199674,232476,-5.50,-3.12,9.59,0.23,0.16,0.06,26.93
29248160,968,1,199636,232512,-5.54,-2.04,10.00,0.11,0.02,0.05,26.93
29288158,960,1,199560,232909,-5.52,-2.52,9.95,0.21,0.09,0.02,26.93
29328161,1110,1,199933,233564,-5.50,-1.86,9.82,-0.08,-0.06,0.11,26.93
29368188,1141,1,200231,234446,-4.72,-2.53,8.94,0.00,-0.02,-0.14,26.93
29408190,1161,1,200954,235796,-4.71,-1.93,8.96,-0.26,-0.01,-0.01,26.93
29448207,1300,1,201598,237164,-4.58,-1.46,8.38,-0.05,-0.04,0.00,26.93
29488189,1723,1,201579,234620,-4.81,-1.78,8.56,-0.40,-0.11,-0.07,26.93
29528206,1899,1,200874,233850,-3.72,-1.91,7.96,0.04,-0.22,-0.22,26.93
29568193,1973,1,200965,234542,-3.85,-1.68,7.85,-0.16,-0.06,-0.04,26.93
29608206,1881,1,201235,235062,-3.60,-1.55,7.76,-0.01,-0.09,-0.13,26.93
29648206,2017,1,201341,235346,-4.17,-1.57,8.13,-0.18,-0.02,-0.02,26.93
29688207,2129,1,201387,236055,-3.48,-1.49,7.98,0.27,-0.10,-0.01,26.93
29728189,2112,1,201836,236965,-3.69,-2.11,7.74,-0.09,0.02,-0.05,26.93
29768187,1833,1,201874,237433,-3.84,-1.39,8.44,-0.01,0.00,-0.06,26.93
29808874,2250,1,202127,238113,-4.37,-2.40,8.22,-0.23,0.05,-0.01,26.49
29849187,2154,1,202063,238054,-3.42,-1.48,7.46,0.07,-0.15,-0.10,26.49
29889189,2063,1,201733,237219,-4.70,-2.17,8.74,-0.13,0.01,-0.07,26.49
29929187,1802,1,201457,236909,-4.63,-0.96,8.71,0.18,-0.04,0.18,26.49
29969172,1773,1,201263,236127,-5.13,-3.59,9.21,0.01,0.10,0.06,26.49
30009161,1598,1,200859,236086,-4.26,-1.57,8.45,0.42,-0.12,0.02,26.49
30048172,1529,1,200871,236228,-5.25,-2.49,9.55,-0.10,0.14,-0.02,26.49
30088188,1159,1,200871,235622,-4.69,-1.21,9.12,0.15,-0.11,0.11,26.49
30128172,1236,1,200084,232413,-5.33,-2.52,9.29,-0.02,-0.06,-0.01,26.49
30168206,1370,1,198936,230658,-4.49,-1.87,9.07,0.11,-0.14,-0.09,26.49
30208189,1679,1,198940,230908,-4.95,-1.95,9.30,0.07,0.03,0.06,26.49
30248173,1697,1,198928,230866,-4.72,-1.25,9.19,-0.19,-0.09,-0.06,26.49
30288206,1728,1,199304,231651,-4.68,-2.83,9.16,0.11,-0.06,-0.05,26.49
30328191,1471,1,199433,232359,-3.90,-1.47,8.68,-0.12,-0.05,-0.06,26.49
30368208,901,1,200242,234208,-4.35,-2.53,8.57,-0.17,0.07,-0.08,26.49
30408188,562,1,200827,235159,-3.67,-1.08,8.03,-0.33,-0.25,-0.10,26.49
30448240,1114,1,201158,236131,-3.67,-2.19,7.38,-0.25,-0.20,-0.21,26.49
30488207,1653,1,201292,236635,-3.48,-0.81,7.43,0.08,-0.41,-0.08,26.49
30528189,2288,1,201653,237593,-3.00,-1.58,7.31,0.08,-0.01,-0.09,26.49
30568187,2447,1,201710,237504,-3.40,-0.95,7.96,-0.04,-0.04,-0.05,26.49
30608205,2643,1,201870,237393,-3.30,-2.49,8.02,0.14,0.14,0.02,26.49
30648188,2733,1,201921,238199,-3.86,-1.39,8.46,0.08,0.06,0.09,26.49
30688161,2801,1,202368,238603,-3.47,-2.14,8.07,-0.07,0.07,-0.07,26.49
30728187,2799,1,202168,238523,-4.56,-1.63,9.13,-0.13,-0.12,0.01,26.49
30768189,2801,1,201090,233663,-3.84,-2.57,8.47,0.10,0.09,-0.07,26.49
30808858,2786,1,199436,231621,-4.41,-1.60,9.45,0.13,-0.01,-0.02,26.77
30847189,2559,1,198886,230283,-4.49,-2.36,9.11,0.11,-0.03,0.01,26.77
30887167,2362,1,198107,229309,-5.03,-1.56,10.02,0.12,0.05,0.10,26.77
30927161,2001,1,197743,227953,-4.78,-2.85,9.71,0.16,0.07,0.03,26.77
30967161,1857,1,196778,226837,-5.18,-1.75,10.55,0.27,0.09,0.06,26.77
31007161,1773,1,196452,226257,-5.18,-2.62,10.44,0.17,0.21,0.06,26.77
31047161,1739,1,196080,225717,-5.48,-1.25,10.50,0.04,0.01,0.03,26.77
31087161,1909,1,196270,226159,-4.89,-2.79,9.24,-0.02,-0.11,-0.14,26.77
31127207,1872,1,197433,228731,-4.11,-1.54,8.80,-0.42,-0.10,-0.01,26.77
31167215,1790,1,198756,231823,-4.13,-1.72,8.58,-0.66,-0.15,-0.09,26.77
31207206,1610,1,199601,234058,-3.33,-1.24,7.27,-0.67,-0.68,-0.01,26.77
31247205,1834,1,198786,233962,-1.62,-2.04,5.41,-0.88,-1.53,-0.59,26.77
31287206,1968,1,198241,234373,-1.94,-0.55,7.52,-0.49,-0.85,-0.36,26.77
31327205,2096,1,199872,235325,-1.66,-0.49,7.16,0.43,0.06,0.14,26.77
31367161,2164,1,199499,233578,-1.57,-0.10,7.26,-0.11,-0.17,-0.07,26.77
31407207,2383,1,198887,231379,-2.80,-1.77,6.81,0.37,-0.03,-0.06,26.77
31447189,2415,1,196993,228515,-2.32,-2.38,9.03,-0.05,-0.54,-0.14,26.77
31487208,2555,1,196599,228309,-3.52,-2.40,8.51,0.31,0.54,-0.01,26.77
31527172,2432,1,195861,227134,-2.40,-2.61,8.72,-0.21,0.04,-0.02,26.77
31567194,2447,1,195508,226559,-4.57,-2.22,10.84,-0.25,-0.06,0.10,26.77
31607190,1913,1,195298,225173,-4.01,-2.31,7.97,0.56,0.23,0.15,26.77
31647165,2329,1,194422,223461,-4.18,-3.77,12.37,0.45,0.72,0.07,26.77
31687161,1870,1,193828,222245,-5.28,-2.03,8.99,1.58,1.12,0.13,26.77
31727166,2427,1,192882,220565,-5.29,-2.36,13.30,0.52,1.15,0.09,26.77
31767161,1422,1,192697,220605,-7.06,-1.13,11.42,1.21,0.91,0.24,26.77
31807160,1357,1,192270,219022,-5.83,-2.91,12.25,0.27,0.26,-0.14,26.77
31847859,1021,1,192900,222716,-6.76,0.20,11.33,0.67,0.18,0.19,26.67
31886166,821,1,195564,229037,-5.14,-1.08,9.26,-1.02,-0.29,-0.21,26.67
31926206,448,1,198576,235635,-3.41,-1.02,7.89,-1.12,-0.83,-0.09,26.67
31966207,288,1,199149,236582,-1.64,-0.23,5.96,-1.27,-1.14,-0.31,26.67
32006208,1218,1,198825,237169,-3.45,-0.84,8.47,-0.75,-0.42,-0.18,26.67
32046212,1777,1,199256,237338,-3.88,0.04,5.93,0.94,0.05,0.67,26.67
32086161,2000,1,197898,230628,-2.00,-0.57,6.07,-0.15,-0.17,-0.35,26.67
32126212,1343,1,195716,227702,-1.67,-1.17,6.56,0.09,0.01,-0.60,26.67
32166173,1714,1,195165,228356,-4.46,-0.89,11.14,0.06,-0.05,0.28,26.67
32206174,2655,1,195915,229907,-1.65,-2.01,6.56,-0.27,0.06,0.01,26.67
32246173,2658,1,196051,230027,-1.99,-0.03,6.68,-0.77,-0.38,-0.14,26.67
32286228,2557,1,195700,228454,-4.38,-2.24,8.47,-1.33,-0.14,0.02,26.67
32326196,2837,1,196787,230731,-4.54,-1.73,6.79,0.72,0.18,0.66,26.67
32366166,2295,1,196878,230711,-2.20,-2.65,7.04,-0.35,0.38,-0.19,26.67
32406194,1967,1,197169,233074,-3.73,-0.59,9.61,-0.28,0.24,-0.32,26.67
32446194,2766,1,198500,236036,-5.63,-3.57,10.62,-0.39,0.00,0.20,26.67
32486173,2848,1,199928,238167,-5.13,-2.49,10.34,0.74,0.35,0.39,26.67
32526167,2881,1,200381,237467,-5.85,-2.38,10.31,0.08,0.03,0.06,26.67
32566161,2291,1,198999,234469,-4.73,-3.31,10.94,0.71,0.20,-0.29,26.67
32606175,2539,1,199246,234255,-7.73,-1.72,14.37,0.53,0.90,0.74,26.67
32646161,1768,1,199061,234132,-6.53,-2.96,11.49,0.91,0.19,0.35,26.67
32686165,1835,1,199615,234703,-6.57,-1.38,11.49,-0.12,-0.07,0.03,26.67
32726190,1443,1,199650,233007,-4.24,-2.49,9.04,-0.18,-0.22,-0.15,26.67
32766209,1163,1,199517,233892,-4.36,-0.37,8.93,-0.85,-0.25,-0.02,26.67
32806244,1087,1,199808,234612,-3.51,-1.59,6.95,-0.88,-0.46,-0.29,26.67
32846208,933,1,199503,235467,-2.53,-0.80,6.21,-0.60,-0.71,-0.09,26.67
32886893,1431,1,199604,236912,-3.53,-0.65,6.70,-0.25,-0.28,-0.03,26.91
32925211,1777,1,200165,238315,-3.06,-0.73,7.03,-0.16,-0.07,0.09,26.91
32965195,1782,1,200685,238983,-3.22,-0.86,7.48,0.44,-0.16,0.05,26.91
33005175,1823,1,200847,238664,-2.22,-1.31,7.02,0.22,0.04,-0.02,26.91
33045174,1838,1,200265,237358,-2.51,-0.42,8.06,0.18,-0.08,-0.14,26.91
33085194,2288,1,199802,235863,-4.05,-1.94,8.94,-0.22,0.10,0.12,26.91
33125172,2285,1,199062,233926,-3.12,-1.22,7.93,0.27,-0.06,0.10,26.91
33165174,2631,1,198766,233140,-3.91,-1.83,8.52,-0.23,0.07,0.05,26.91
33205173,2397,1,198445,233070,-4.38,-1.05,9.50,0.06,0.12,0.07,26.91
33245161,2525,1,198548,232902,-4.45,-2.51,9.32,-0.01,0.15,0.03,26.91
33285172,2475,1,198560,233126,-4.18,-1.35,9.53,0.22,-0.02,-0.03,26.91
33325189,2398,1,198928,232818,-5.32,-1.87,10.27,0.04,0.28,0.12,26.91
33365161,2287,1,198781,230334,-5.31,-1.28,10.56,0.20,0.19,0.29,26.91
33405161,2353,1,198213,228981,-5.40,-2.61,10.60,0.15,0.10,0.01,26.91
33445161,2368,1,197979,228678,-4.49,-0.82,9.76,0.11,0.02,-0.01,26.91
33485172,2356,1,198200,229529,-4.93,-1.98,9.77,-0.09,0.05,-0.05,26.91
33525205,2230,1,199114,231669,-4.30,-0.45,9.11,-0.31,-0.10,0.09,26.91
33565188,2171,1,199832,232632,-3.88,-2.24,7.80,-0.46,-0.13,-0.20,26.91
33605206,1957,1,199861,234042,-3.51,-0.46,8.12,-0.24,-0.06,-0.09,26.91
33645205,2135,1,199980,234618,-3.54,-1.71,7.32,-0.23,0.04,-0.14,26.91
33685187,2081,1,199901,234344,-3.69,-0.09,8.10,0.02,-0.02,0.04,26.91
33725222,2272,1,200058,234610,-3.59,-2.15,7.52,0.10,-0.01,0.01,26.91
33765172,2019,1,200104,235429,-3.13,-0.74,8.12,0.13,-0.16,0.02,26.91
33805172,2039,1,200401,235557,-3.72,-2.00,8.51,-0.05,0.09,-0.03,26.91
33845187,1968,1,200131,235324,-4.28,-0.93,8.97,-0.09,-0.05,0.09,26.91
33885188,1951,1,200254,235348,-3.41,-2.44,7.83,-0.04,0.00,-0.15,26.91
33925892,1749,1,199989,235437,-4.16,-0.76,9.22,-0.19,-0.04,-0.07,26.71
33966205,1838,1,200072,235525,-4.48,-1.80,9.14,0.13,0.13,0.08,26.71
34006161,1776,1,199843,232810,-4.63,-1.46,9.47,-0.14,-0.08,0.09,26.71
34046189,1740,1,198502,229637,-4.07,-2.48,8.96,0.30,0.00,-0.16,26.71
34086172,1792,1,197940,229068,-4.83,-1.41,10.22,0.05,0.12,0.14,26.71
34126161,1676,1,197883,228524,-4.73,-2.02,9.44,0.23,0.14,-0.04,26.71
34166172,1855,1,197807,228904,-5.24,-1.70,10.71,-0.13,0.05,0.06,26.71
34206172,1837,1,198028,229996,-4.39,-2.02,9.14,0.10,-0.03,-0.08,26.71
34244187,1904,1,198481,231718,-4.81,-1.95,10.23,-0.35,-0.05,-0.00,26.71
34284206,1810,1,198935,233223,-4.07,-1.40,8.45,0.09,-0.05,-0.05,26.71
34324187,1968,1,199701,234958,-4.63,-1.64,9.14,-0.39,-0.06,0.03,26.71
34364189,1849,1,200090,236172,-3.49,-1.61,8.04,0.01,-0.05,-0.15,26.71
34404187,1829,1,200781,238198,-4.15,-2.14,9.01,-0.33,-0.08,0.02,26.71
34444189,1632,1,201222,239697,-3.31,-1.06,7.73,0.01,-0.02,-0.06,26.71
34484187,1856,1,201628,240514,-3.95,-1.75,8.23,-0.48,-0.05,-0.06,26.71
34524219,1710,1,201784,241150,-3.23,-1.41,7.71,-0.12,-0.10,-0.15,26.71
34564206,1915,1,201966,241587,-3.45,-1.81,7.81,-0.13,-0.08,-0.04,26.71
34604206,1881,1,201897,241573,-3.86,-0.92,8.72,0.01,-0.06,-0.02,26.71
34644187,2090,1,201796,239876,-3.87,-2.70,8.25,-0.09,-0.01,0.02,26.71
34684188,1888,1,200140,234462,-3.24,-1.58,8.07,0.27,0.05,-0.00,26.71
34724167,2003,1,199550,233790,-4.09,-2.48,8.84,-0.08,0.04,-0.05,26.71
34764188,1934,1,199127,234340,-3.97,-1.15,9.15,0.08,-0.01,0.04,26.71
34804167,1990,1,199592,234738,-4.31,-2.95,9.05,-0.23,0.08,0.06,26.71
34844172,1826,1,199476,235242,-3.41,-1.41,8.07,0.21,-0.00,-0.00,26.71
34884187,1853,1,200076,236513,-4.06,-2.78,8.65,-0.19,0.10,-0.00,26.71
34924188,1691,1,200192,237120,-4.08,-0.68,8.83,0.10,-0.04,0.01,26.71
34964858,1834,1,200443,236725,-4.57,-2.96,9.03,-0.09,0.06,-0.03,26.87
35005188,1725,1,200026,236428,-4.08,-0.98,8.91,0.10,-0.05,0.03,26.87
35045172,1870,1,200022,235747,-4.46,-3.29,9.32,0.02,0.02,-0.11,26.87
35085172,1669,1,199868,236333,-4.52,-0.52,9.39,0.22,-0.03,0.19,26.87
35125167,1690,1,200330,236986,-5.26,-3.20,9.41,0.01,0.13,0.00,26.87
35165161,1725,1,200715,237367,-3.82,-1.47,9.05,0.02,-0.02,0.01,26.87
35205172,1799,1,200562,238055,-4.87,-2.46,9.85,0.05,0.03,-0.04,26.87
35245172,1872,1,201027,239276,-4.55,-0.81,9.25,-0.11,-0.13,0.15,26.87
35285187,1920,1,201399,236985,-4.11,-2.58,8.20,-0.00,-0.01,-0.15,26.87
35325205,1919,1,199533,232460,-3.86,-1.19,9.22,-0.10,0.02,-0.02,26.87
35365193,1983,1,198524,231569,-4.54,-1.67,9.32,0.26,-0.00,0.02,26.87
35405172,2002,1,198712,232205,-4.60,-1.50,9.19,-0.15,-0.11,0.09,26.87
35445187,2033,1,198916,232058,-3.41,-2.57,8.14,0.05,-0.01,-0.21,26.87
35485188,1957,1,199019,233084,-3.97,-0.73,8.91,-0.05,0.05,0.08,26.87
35525172,1909,1,199715,234414,-3.57,-1.62,7.81,-0.18,-0.02,-0.08,26.87
35565211,1855,1,200319,236302,-4.07,-1.12,8.63,-0.35,-0.16,-0.01,26.87
35605206,1958,1,200915,237004,-3.21,-1.99,7.62,-0.02,-0.10,-0.11,26.87
35645205,1983,1,200932,237036,-3.71,-0.96,8.51,-0.14,-0.01,-0.01,26.87
35683206,2066,1,201041,237069,-3.29,-1.38,7.63,0.19,-0.01,-0.04,26.87
35723189,2096,1,201133,237605,-4.16,-1.37,8.79,-0.19,-0.03,0.06,26.87
35763187,2017,1,201284,237470,-3.26,-1.83,7.98,0.22,0.12,-0.04,26.87
35803172,2054,1,201248,237619,-4.10,-1.83,8.98,-0.29,-0.06,0.04,26.87
35843187,1904,1,200884,237891,-3.99,-1.19,8.70,0.04,-0.01,-0.01,26.87
35883188,1872,1,201250,238893,-4.63,-2.26,8.57,-0.20,-0.08,0.17,26.87
35923187,1744,1,201372,238932,-3.78,-1.74,8.15,0.17,0.04,-0.07,26.87
35963172,1798,1,200634,233979,-4.49,-2.04,9.54,-0.09,0.08,-0.08,26.87
36003873,1746,1,199041,232238,-4.38,-1.58,9.22,0.24,0.10,-0.00,26.73
36044172,1741,1,198955,232072,-4.83,-2.28,9.75,-0.16,0.04,0.02,26.73
36084172,1657,1,198446,231521,-4.01,-1.72,8.67,0.24,-0.04,-0.01,26.73
36124188,1871,1,198344,231531,-5.09,-1.99,10.05,-0.12,0.14,0.10,26.73
36164172,1841,1,198286,232145,-4.82,-1.23,9.68,0.06,-0.05,0.04,26.73
36204172,1901,1,198693,232578,-4.71,-2.94,9.61,-0.27,-0.04,-0.10,26.73
36244206,1755,1,198590,233147,-3.91,-0.73,8.58,0.11,-0.04,0.01,26.73
36284172,1906,1,199168,233849,-4.67,-2.83,8.80,-0.32,-0.07,-0.06,26.73
36324206,1730,1,199511,235542,-3.87,-0.62,8.46,-0.05,-0.03,-0.01,26.73
36364205,1968,1,200325,236953,-3.92,-2.71,8.03,-0.42,0.01,-0.12,26.73
36404187,1773,1,200651,238880,-3.39,-0.64,8.48,0.03,-0.23,-0.06,26.73
36444189,2230,1,201209,240192,-3.53,-2.13,7.96,-0.20,0.06,-0.07,26.73
36484188,2095,1,201441,240389,-3.98,-0.41,8.35,-0.01,-0.09,0.06,26.73
36524196,2091,1,201486,240317,-4.03,-2.64,8.34,0.03,-0.02,-0.07,26.73
36564187,1943,1,201029,239803,-3.79,-1.01,8.83,0.33,-0.02,0.07,26.73
36604172,2014,1,200872,237417,-4.12,-2.81,9.15,0.13,0.04,-0.03,26.73
36644167,1955,1,199057,232355,-4.43,-0.96,9.47,-0.06,-0.01,0.10,26.73
36684189,2006,1,198506,231024,-4.01,-2.96,8.55,0.02,0.07,-0.10,26.73
36724172,1978,1,198191,230807,-4.34,-1.07,9.32,-0.02,-0.03,0.13,26.73
36764189,2083,1,198136,230879,-3.93,-2.43,8.57,0.09,0.08,-0.09,26.73
36804167,2064,1,198115,231265,-4.41,-1.25,9.56,-0.34,-0.01,0.03,26.73
36844189,2133,1,198439,232251,-3.95,-2.24,8.17,0.08,-0.03,-0.10,26.73
36884187,2149,1,198804,232946,-4.05,-1.90,8.64,-0.19,-0.05,-0.02,26.73
36924205,1758,1,199101,233437,-3.39,-1.60,7.91,-0.06,0.07,-0.12,26.73
36964187,1763,1,199132,233957,-3.94,-1.18,8.89,-0.55,0.01,-0.08,26.73
37004875,2075,1,199516,235551,-3.45,-2.44,7.44,-0.18,-0.08,-0.06,26.93
37043206,1904,1,199721,236612,-2.61,-2.74,6.62,-0.13,-0.31,-0.16,26.93
37083206,1719,1,199689,236540,-4.32,-2.33,9.94,-0.19,0.11,-0.14,26.93
37123187,1908,1,200126,238099,-5.45,-1.88,8.98,0.38,0.00,0.43,26.93
37163159,1427,1,200067,235409,-4.48,-4.13,9.52,-0.01,0.15,-0.08,26.93
37203187,967,1,199766,235757,-5.02,-2.09,9.05,1.03,0.37,0.14,26.93
37243161,1242,1,199098,232134,-5.46,-3.13,11.44,-0.40,0.26,-0.07,26.93
37283187,688,1,197921,229341,-4.95,-1.84,9.53,0.91,0.20,0.20,26.93
37323161,1347,1,196837,227207,-5.04,-1.11,8.98,-0.11,-0.01,0.10,26.93
37363188,1456,1,196985,227161,-5.59,-1.79,9.98,0.19,0.06,0.11,26.93
37403161,1777,1,196324,226338,-5.03,-2.05,9.09,0.12,-0.22,-0.08,26.93
37443187,1942,1,196858,226814,-6.39,-1.43,11.64,-0.29,0.29,0.15,26.93
37483173,2060,1,196433,227190,-4.41,-0.99,7.60,0.48,-0.20,-0.21,26.93
37523187,2189,1,197281,227995,-5.06,-2.16,10.24,-0.62,0.09,-0.00,26.93
37563189,1936,1,196644,227846,-3.97,0.06,7.94,0.37,-0.05,-0.02,26.93
37603167,2219,1,197300,228561,-5.98,-2.46,10.58,-0.52,-0.05,0.21,26.93
37643190,2131,1,196814,229125,-3.12,0.13,6.46,0.52,-0.23,-0.11,26.93
37683172,2316,1,197908,230758,-3.79,-2.38,7.90,-0.47,0.07,-0.05,26.93
37723189,1790,1,197987,232865,-2.66,-0.28,7.10,0.04,-0.19,-0.05,26.93
37763187,1474,1,198711,233945,-2.31,-1.31,6.34,-0.84,-0.31,-0.16,26.93
37803206,1395,1,197894,233065,-3.76,0.69,8.57,-0.57,-0.12,-0.35,26.93
37843187,2539,1,198591,234372,-3.21,-1.98,5.32,0.31,-0.12,0.27,26.93
37883172,2059,1,198191,233162,-2.09,-0.07,6.88,0.08,-0.29,-0.31,26.93
37923187,2310,1,197387,228978,-3.32,-2.30,7.57,0.30,0.27,-0.13,26.93
37963172,2169,1,196409,227999,-4.66,-0.68,10.31,0.18,-0.12,0.21,26.93
38003172,2151,1,196932,228273,-3.21,-2.24,7.74,-0.05,0.38,-0.01,26.93
38043875,2142,1,196987,228296,-3.40,-0.14,7.43,-0.07,-0.12,-0.06,26.87
38082206,2289,1,196806,227278,-5.92,-2.28,11.45,-0.80,0.02,0.06,26.87
38122172,1985,1,196333,226651,-4.58,-0.96,7.58,0.93,-0.05,0.20,26.87
38162172,2454,1,195739,224808,-4.97,-3.11,11.37,-0.38,0.33,-0.09,26.87
38202191,1503,1,195103,223949,-5.31,-1.71,9.28,1.18,0.25,0.01,26.87
38242161,2059,1,194746,222771,-5.84,-2.04,11.93,-0.24,0.07,0.28,26.87
38282172,1399,1,194359,222472,-5.37,-1.73,9.36,0.44,0.13,-0.01,26.87
38322172,2411,1,194713,221819,-4.94,-3.00,10.53,-0.35,-0.17,0.12,26.87
38362189,2128,1,194736,223219,-4.45,-1.23,8.95,0.26,0.00,-0.12,26.87
38402172,2640,1,196092,225977,-5.95,-2.57,11.44,-0.56,0.03,0.08,26.87
38442172,2243,1,197280,229018,-3.14,-1.23,7.52,-0.24,-0.31,-0.25,26.87
38482206,1947,1,198416,232179,-3.90,-1.78,8.29,-0.70,0.05,-0.19,26.87
38522197,1744,1,199286,234949,-3.79,-0.52,7.87,-0.52,-0.29,-0.10,26.87
38562207,1456,1,199450,233828,-2.83,-2.73,6.74,-0.53,-0.44,-0.14,26.87
38602206,1051,1,197704,230619,-2.82,-1.19,7.41,-0.32,-0.23,-0.15,26.87
38642210,1893,1,197767,231612,-2.21,-2.13,6.72,-0.14,0.19,-0.20,26.87
38682189,2595,1,198208,232634,-4.24,-0.91,8.83,-0.01,-0.01,0.10,26.87
38722187,2649,1,198818,232812,-2.81,-2.69,7.58,0.29,0.07,-0.03,26.87
38762172,2609,1,198787,232395,-3.80,-1.75,9.42,0.27,0.10,0.21,26.87
38802161,2545,1,198775,232755,-3.83,-2.12,8.77,0.23,0.10,0.14,26.87
38842172,2427,1,199134,232987,-4.43,-2.60,9.02,-0.08,-0.07,0.17,26.87
38882187,2187,1,198783,231899,-3.62,-1.89,8.34,0.19,0.01,-0.03,26.87
38922172,2304,1,198572,231355,-4.70,-2.55,9.95,0.07,0.26,0.13,26.87
38962161,2107,1,198324,231248,-5.28,-1.46,10.26,0.20,0.19,0.20,26.87
39002160,1978,1,198639,231597,-5.66,-3.36,10.57,0.00,0.28,0.07,26.87
39042161,1829,1,198727,231859,-4.83,-1.69,9.55,0.28,-0.05,0.07,26.87
39081858,1888,1,198974,232489,-5.56,-2.42,10.16,0.01,0.20,-0.02,26.93
39122172,1851,1,199481,234493,-4.86,-0.66,9.52,0.08,-0.06,0.07,26.93
39162172,1943,1,200885,236917,-5.20,-2.65,9.57,-0.48,-0.01,-0.08,26.93
39202206,1857,1,201485,237542,-3.78,-0.70,8.50,-0.07,-0.07,-0.01,26.93
39242206,1883,1,200868,233702,-3.82,-2.50,7.58,-0.36,-0.06,-0.10,26.93
39282206,1440,1,200095,234056,-3.74,0.15,7.98,-0.09,-0.11,-0.05,26.93
39322189,1456,1,200558,235595,-3.96,-2.49,7.19,-0.56,-0.09,-0.18,26.93
39362216,1167,1,200739,237828,-3.16,-0.42,7.59,-0.11,-0.30,-0.20,26.93
39402205,1869,1,201867,240844,-3.44,-2.14,6.89,-0.18,0.04,-0.06,26.93
39442187,1827,1,202996,242754,-4.06,-0.07,8.13,0.17,-0.01,0.13,26.93
39482172,1882,1,204072,244006,-3.39,-2.64,7.18,0.09,0.16,-0.03,26.93
39522172,1439,1,204580,244650,-3.52,-0.62,8.38,0.26,-0.07,0.02,26.93
39562172,1799,1,205142,245333,-3.85,-2.50,8.33,-0.07,0.23,-0.02,26.93
39602187,1726,1,205038,245005,-4.37,-0.89,8.85,-0.21,-0.10,0.06,26.93
39642188,1879,1,205235,245514,-3.97,-2.62,7.82,-0.00,0.08,-0.09,26.93
39682187,1921,1,205105,245350,-4.82,-0.96,9.25,0.04,-0.03,0.13,26.93
39722172,1675,1,205367,245657,-4.59,-2.42,9.23,0.32,0.08,-0.01,26.93
39762172,1456,1,205397,245577,-5.88,-0.88,10.60,0.23,0.07,0.25,26.93
39802161,1478,1,205476,245113,-5.03,-2.97,9.47,0.23,0.08,-0.01,26.93
39842172,1573,1,205069,244123,-5.40,-1.53,10.55,0.13,0.10,0.03,26.93
39882161,1451,1,203562,237398,-5.22,-1.84,9.63,0.23,0.04,0.06,26.93
39922161,1702,1,202563,236675,-5.83,-1.46,10.34,-0.27,-0.07,0.06,26.93
39962190,1535,1,202887,237725,-3.91,-2.35,8.39,-0.03,-0.14,-0.11,26.93
40000206,1573,1,203301,238764,-4.67,-1.25,9.69,-0.34,-0.08,-0.01,26.93
40040205,1589,1,203582,240260,-3.87,-1.39,7.85,0.09,-0.06,-0.05,26.93
40081199,1727,1,204063,241697,-4.40,-0.83,8.48,-0.67,-0.15,-0.14,26.93
40121891,1851,1,204364,242447,-3.04,-2.16,7.27,0.01,-0.10,-0.27,26.79
40160187,2204,1,204148,242177,-3.87,-1.04,8.59,-0.24,-0.21,0.10,26.79
40200189,2179,1,204183,242400,-2.84,-1.51,6.88,0.11,0.03,-0.15,26.79
40240172,2480,1,204190,242928,-4.47,-1.30,8.72,-0.30,-0.13,0.08,26.79
40280188,2271,1,204603,243819,-2.78,-1.80,6.89,0.27,0.05,-0.10,26.79
40320172,2416,1,204762,244437,-4.20,-1.75,9.01,-0.11,0.00,0.05,26.79
40360172,2282,1,204977,244896,-3.82,-1.06,8.44,0.19,0.02,0.01,26.79
40400161,2286,1,205039,245097,-4.07,-2.59,8.54,-0.39,0.02,0.03,26.79
40440172,2240,1,205060,245105,-3.63,-1.22,8.03,0.16,-0.00,-0.05,26.79
40480187,2378,1,205089,244953,-4.20,-2.46,8.64,-0.16,0.03,-0.00,26.79
40520189,2176,1,204518,240479,-4.48,-0.63,9.15,0.06,0.02,0.08,26.79
40560158,2133,1,202920,236766,-4.51,-2.98,8.86,-0.22,0.05,-0.05,26.79
40600189,2128,1,202472,236624,-4.15,-1.06,8.73,0.17,0.01,0.04,26.79
40640161,2142,1,202409,236377,-4.72,-2.80,9.04,-0.08,0.02,-0.09,26.79
40680188,1967,1,202385,236416,-4.80,-0.83,9.32,0.18,0.00,0.12,26.79
40720158,2074,1,202383,236413,-4.80,-3.15,9.48,-0.02,0.07,-0.06,26.79
40760189,1971,1,202438,237229,-4.66,-1.10,9.79,0.22,-0.06,0.07,26.79
40800172,2010,1,202686,237617,-4.80,-3.06,9.44,-0.05,0.04,-0.09,26.79
40840188,1923,1,202963,238656,-4.70,-0.83,9.54,-0.07,-0.07,0.09,26.79
40880187,2003,1,203189,239306,-4.89,-2.59,9.05,-0.16,-0.04,-0.11,26.79
40920205,1963,1,203676,240613,-4.42,-1.28,9.25,-0.05,-0.04,0.07,26.79
40960187,1865,1,203792,241489,-4.22,-2.30,8.72,-0.07,-0.01,-0.16,26.79
41000205,1933,1,204199,242598,-4.78,-0.68,9.30,-0.17,-0.08,0.15,26.79
41040187,1903,1,204514,243412,-4.01,-2.83,7.93,-0.04,-0.05,-0.12,26.79
41080205,1773,1,204487,243435,-3.81,-0.66,8.68,-0.04,-0.05,-0.02,26.79
41121205,1877,1,204602,244114,-4.03,-2.05,8.37,0.06,0.06,-0.03,26.79
41161858,1895,1,204582,243322,-4.39,-0.80,9.00,-0.30,-0.13,0.07,27.05
41200187,1959,1,203622,237879,-3.52,-3.12,7.56,0.09,-0.03,-0.15,27.05
41240188,1728,1,202051,235823,-3.47,-0.23,8.63,-0.14,-0.10,-0.01,27.05
41280206,1872,1,202161,237128,-4.06,-2.49,8.19,0.06,0.25,-0.15,27.05
41320172,1861,1,202459,237576,-4.23,-0.25,9.17,-0.25,-0.12,0.21,27.05
41360187,1855,1,202895,239522,-3.40,-3.15,7.37,-0.10,0.06,-0.29,27.05
41400188,1645,1,202999,240671,-3.67,-0.30,9.21,-0.19,-0.19,0.08,27.05
41440187,1891,1,203809,243128,-3.57,-1.98,7.15,-0.10,0.17,-0.12,27.05
41480189,2028,1,203964,243120,-4.57,-1.43,8.89,-0.41,-0.07,0.16,27.05
41520187,1927,1,203994,243030,-3.40,-2.20,7.16,0.18,0.07,-0.11,27.05
41560172,2242,1,203673,242233,-4.43,-2.04,9.10,-0.09,0.05,0.17,27.05
41600172,2023,1,203693,242422,-4.05,-1.30,8.08,0.46,-0.01,0.02,27.05
41640172,2067,1,203798,242362,-4.88,-3.07,9.04,-0.22,0.05,0.04,27.05
41680167,1795,1,203886,242726,-4.13,-1.13,8.55,0.46,-0.04,0.05,27.05
41720172,1995,1,203821,242316,-4.82,-2.79,9.65,-0.20,0.05,-0.05,27.05
41760187,1651,1,203730,242343,-5.32,-1.28,10.09,0.40,0.11,0.22,27.05
41800161,1797,1,203590,240689,-5.35,-2.65,9.64,0.05,0.05,0.10,27.05
41840161,1413,1,202273,235378,-4.97,-1.42,9.37,0.37,-0.00,0.01,27.05
41880172,1535,1,201219,233741,-5.00,-2.59,9.84,-0.01,0.01,-0.07,27.05
41920227,1533,1,201221,234824,-4.79,-0.64,9.60,0.04,-0.04,0.09,27.05
41960172,1558,1,202048,236207,-4.94,-2.69,9.11,-0.50,-0.12,-0.16,27.05
42000207,1535,1,202452,237371,-3.42,-0.74,8.05,-0.11,-0.08,-0.07,27.05
42040205,1309,1,202755,238755,-4.41,-2.00,8.21,-0.33,-0.04,-0.13,27.05
42080206,1383,1,203167,240172,-4.07,-0.25,8.49,-0.12,-0.08,0.04,27.05
42120221,1882,1,203446,240626,-4.07,-2.78,7.98,-0.32,-0.06,-0.13,27.05
42160206,1823,1,203236,239966,-2.98,-0.29,7.89,0.20,-0.13,-0.00,27.05
42200874,2231,1,203254,239836,-3.65,-2.47,7.72,-0.05,0.16,-0.05,27.11
42239187,2031,1,203239,239910,-4.20,-0.17,8.88,0.04,-0.08,0.19,27.11
42279172,2199,1,203685,240488,-3.79,-2.74,7.62,-0.08,0.08,-0.03,27.11
42319187,2114,1,203621,240582,-3.93,-0.80,8.80,0.03,-0.10,0.02,27.11
42359172,2233,1,203758,241378,-3.81,-2.21,7.93,0.04,0.12,-0.07,27.11
42399167,2205,1,204043,242295,-4.54,-1.02,8.75,-0.21,-0.06,0.15,27.11
42439189,2173,1,204086,240236,-3.89,-2.37,7.85,0.02,0.04,-0.12,27.11
42479172,2246,1,202252,234807,-4.76,-1.20,9.47,0.05,0.01,0.13,27.11
42519161,1981,1,201222,233253,-4.54,-2.06,9.03,0.37,0.01,0.02,27.11
42559158,1949,1,200788,233230,-5.42,-1.24,9.82,0.03,0.07,0.14,27.11
42599161,1934,1,201100,233656,-4.62,-2.50,8.96,0.28,0.07,0.02,27.11
42639166,1801,1,201016,233344,-4.79,-1.49,9.71,-0.14,-0.02,-0.06,27.11
42679206,1618,1,201118,234508,-4.72,-1.44,9.47,0.15,0.06,0.07,27.11
42719161,1744,1,201857,236131,-5.50,-1.45,9.79,-0.43,-0.14,0.12,27.11
42759189,1671,1,202628,238929,-3.66,-2.37,7.74,-0.15,-0.04,-0.18,27.11
42799206,1410,1,202907,240260,-2.23,-0.01,6.69,-0.64,-0.34,-0.34,27.11
42839223,1347,1,202979,241030,-3.48,-0.45,6.85,-0.66,0.05,-0.38,27.11
42879187,2413,1,203340,242423,-6.13,-0.92,9.88,-0.11,-0.12,0.50,27.11
42919188,1993,1,203830,242152,-2.92,-2.33,5.96,0.45,-0.18,-0.12,27.11
42959187,1755,1,202676,240427,-5.15,-1.31,9.91,0.26,0.08,-0.27,27.11
42999172,1792,1,203172,240831,-4.91,-1.26,9.37,0.62,0.31,0.24,27.11
43039161,1680,1,202825,238501,-4.75,-2.88,9.04,-0.43,-0.07,-0.17,27.11
43079206,1364,1,202940,238654,-4.58,-1.59,9.12,0.65,-0.02,0.29,27.11
43119172,1894,1,201345,232955,-4.27,-0.83,8.86,-0.57,-0.10,0.04,27.11
43158188,1527,1,200260,231530,-4.74,-2.92,8.90,0.68,0.15,-0.01,27.11
43198172,1847,1,200190,230988,-4.04,-0.74,8.79,0.17,-0.20,0.23,27.11
43238858,2013,1,200122,230603,-4.88,-2.81,9.18,0.00,0.25,-0.19,27.05
43279172,1789,1,200238,231177,-5.66,-0.55,11.04,0.04,-0.10,0.25,27.05
43319172,2142,1,200018,231827,-4.06,-1.63,7.96,0.07,0.05,-0.17,27.05
43359167,1965,1,201022,233217,-5.77,-1.40,10.48,-0.50,-0.06,0.08,27.05
43399189,1892,1,200822,232596,-3.37,-1.69,7.57,0.12,-0.02,-0.25,27.05
43439187,2226,1,201192,234433,-5.44,-1.44,9.94,-0.05,-0.03,0.37,27.05
43479189,1953,1,201752,235886,-3.17,-0.14,7.12,-0.21,-0.20,-0.24,27.05
43519206,1808,1,202695,239280,-4.50,-2.81,8.61,-0.80,0.05,-0.09,27.05
43559205,1262,1,202870,240019,-1.52,0.17,5.56,-0.21,-0.51,-0.23,27.05
43599187,1666,1,202467,241369,-2.94,-1.14,6.98,-0.86,-0.11,-0.40,27.05
43639205,2010,1,202892,241427,-3.14,0.14,6.29,0.29,-0.02,0.13,27.05
43679161,3003,1,203175,242665,-3.38,-2.55,7.05,0.03,0.01,0.03,27.05
43719161,2241,1,203588,240729,-3.63,-1.22,7.91,0.67,0.16,0.15,27.05
43759166,2477,1,201476,233849,-4.21,-3.77,9.19,-0.05,-0.03,-0.06,27.05
43799205,2111,1,200326,231859,-4.05,-1.35,9.45,0.48,0.25,0.16,27.05
43839161,2171,1,199793,231811,-5.40,-2.68,9.33,0.00,0.17,-0.05,27.05
43879172,2098,1,199031,230303,-4.15,-1.38,10.04,-0.16,0.04,-0.12,27.05
43919187,1803,1,198646,230438,-5.88,-1.66,9.82,0.31,0.33,0.10,27.05
43959161,2294,1,198559,229527,-5.04,-3.35,11.42,0.23,0.21,0.05,27.05
43999161,2224,1,198185,230069,-6.02,-1.17,9.87,1.03,-0.02,0.10,27.05
44039172,2558,1,198676,230435,-6.05,-2.71,10.98,-0.40,0.15,0.05,27.05
44079167,2146,1,198657,231645,-5.36,-1.04,9.98,0.27,-0.07,0.04,27.05
44119172,2620,1,199520,233352,-5.20,-2.74,9.72,-0.58,-0.17,0.04,27.05
44159187,2337,1,200085,235349,-3.37,-1.29,7.09,-0.08,-0.22,-0.28,27.05
44199205,2378,1,200987,238511,-4.92,-1.67,9.86,-0.69,-0.14,-0.06,27.05
44239891,2029,1,201719,239996,-2.96,-1.33,6.53,-0.19,-0.11,-0.33,26.77
44278205,2397,1,201944,241669,-4.95,-1.14,9.52,-0.62,-0.12,0.05,26.77
44318187,2123,1,202361,242178,-3.14,-1.86,6.51,-0.15,-0.23,-0.23,26.77
44358206,2070,1,202341,241878,-3.05,-1.90,7.33,-0.14,-0.04,-0.08,26.77
44398206,1773,1,201158,236086,-3.32,-0.27,7.57,0.04,0.09,-0.08,26.77
44438172,1978,1,200338,235315,-4.11,-2.74,8.08,-0.27,0.08,0.04,26.77
44478172,1635,1,200454,236434,-3.00,-1.11,7.46,0.21,-0.20,0.07,26.77
44518172,1687,1,200957,237366,-3.69,-3.25,7.60,-0.21,0.15,-0.09,26.77
44558187,1154,1,201229,239153,-3.44,-0.42,7.92,0.13,-0.06,0.09,26.77
44598172,1386,1,201696,240127,-4.13,-3.33,8.04,-0.49,0.18,-0.12,26.77
44638187,1032,1,202039,241700,-3.60,-0.44,7.66,0.33,-0.07,0.23,26.77
44678172,1505,1,202224,241391,-4.26,-3.27,7.86,-0.42,0.08,-0.12,26.77
44718187,1218,1,201874,240717,-4.15,-0.91,8.45,0.48,0.05,0.18,26.77
44758161,1535,1,201749,239812,-5.25,-3.02,9.13,-0.04,0.08,0.10,26.77
44798172,1410,1,201406,238888,-5.11,-1.79,9.69,0.42,0.10,0.08,26.77
44838161,1471,1,200463,236969,-5.09,-2.46,9.73,0.28,-0.02,-0.01,26.77
44878187,1344,1,200243,236277,-6.03,-2.12,10.86,0.25,0.34,0.25,26.77
44918161,1649,1,200361,237089,-6.98,-2.56,11.23,0.42,0.20,0.11,26.77
44958161,2053,1,201552,238326,-5.07,-2.18,9.63,0.00,0.10,-0.02,26.77
44998172,2141,1,201453,236421,-5.09,-1.28,9.69,-0.12,-0.08,-0.07,26.77
45038206,2141,1,201155,235722,-5.01,-1.69,8.81,-0.52,-0.13,-0.04,26.77
45078205,2017,1,201287,236150,-4.49,-2.00,8.32,-0.49,-0.35,-0.19,26.77
45118206,1779,1,201188,236954,-3.65,-0.99,7.55,-0.47,-0.33,-0.18,26.77
45158206,2007,1,201456,237836,-3.73,-1.01,7.20,-0.20,-0.11,-0.04,26.77
45198222,2384,1,201852,238923,-4.35,-0.91,7.95,-0.16,-0.10,0.13,26.77
45238188,2298,1,202496,240448,-3.37,-1.78,7.15,0.27,-0.11,0.04,26.77
45278858,2177,1,202817,240521,-3.98,-1.19,8.46,0.23,0.04,0.04,27.05
45317161,2180,1,202730,239712,-3.83,-1.32,8.20,0.22,0.07,-0.01,27.05
45357167,2155,1,202432,239420,-4.44,-1.83,8.51,-0.21,-0.09,-0.01,27.05
45397209,1984,1,202445,239815,-3.44,-1.37,7.84,-0.05,-0.06,-0.05,27.05
45437206,1829,1,202656,240595,-4.05,-1.73,8.14,-0.30,0.01,-0.02,27.05
45477188,1902,1,202956,241584,-4.15,-0.71,8.31,-0.08,0.00,0.03,27.05
45517167,2176,1,203212,242233,-4.41,-2.31,8.01,-0.25,0.04,-0.02,27.05
45557188,2021,1,203394,242167,-4.18,-1.16,8.31,0.30,0.02,0.09,27.05
45597161,2108,1,203165,240966,-5.25,-2.25,9.33,0.13,0.04,0.03,27.05
45637161,1808,1,202662,237195,-4.64,-1.44,9.16,0.52,0.06,0.14,27.05
45677161,1912,1,200974,233564,-5.27,-2.61,9.70,-0.04,0.07,0.01,27.05
45717172,1778,1,200457,232878,-4.97,-1.36,9.32,0.28,0.04,0.03,27.05
45757161,1803,1,200382,232664,-5.32,-2.43,9.51,-0.14,-0.02,-0.06,27.05
45797205,1587,1,200492,232959,-4.50,-0.89,8.92,0.09,-0.02,0.07,27.05
45837172,1769,1,201008,234175,-5.56,-1.95,9.37,-0.49,-0.08,-0.04,27.05
45877205,1785,1,201524,235165,-3.96,-1.32,8.40,0.01,-0.07,-0.09,27.05
45917187,1907,1,201637,235639,-4.68,-2.02,8.76,-0.08,-0.13,-0.09,27.05
45957205,1871,1,201868,236971,-4.26,-0.15,8.57,0.04,-0.03,0.02,27.05
45997167,1847,1,202428,237589,-4.28,-2.92,8.20,-0.53,-0.12,-0.18,27.05
46037205,1451,1,202663,238862,-3.16,-0.46,8.17,0.08,-0.01,-0.03,27.05
46077187,1968,1,203107,239809,-3.91,-2.55,7.71,-0.37,-0.04,-0.07,27.05
46117205,1859,1,203170,240464,-4.11,0.11,8.43,-0.05,-0.04,0.02,27.05
46157167,2158,1,203666,241366,-4.13,-3.24,7.62,-0.19,0.11,0.02,27.05
46197172,1862,1,203733,242071,-3.45,-0.53,8.31,0.33,-0.10,0.03,27.05
46237172,2076,1,203921,242875,-3.89,-2.75,8.14,-0.11,0.09,-0.23,27.05
46277189,2007,1,204048,244058,-4.49,-0.64,9.17,-0.14,-0.03,0.07,27.05
46317873,2098,1,204154,240893,-3.85,-3.01,7.47,-0.21,0.03,-0.07,26.99
46356188,1982,1,202154,236432,-5.03,-1.29,9.54,0.04,-0.07,0.06,26.99
46396167,1987,1,201662,235770,-3.87,-1.97,8.08,0.25,0.07,0.02,26.99
46436161,2103,1,201520,235558,-4.91,-2.00,9.41,-0.18,0.03,0.01,26.99
46476167,1938,1,201652,235952,-4.33,-2.26,8.68,0.30,0.01,0.02,26.99
46516161,2006,1,201541,235587,-4.64,-2.01,9.21,-0.23,-0.07,-0.02,26.99
46556206,2006,1,201664,235840,-4.38,-2.09,8.65,0.23,0.09,-0.00,26.99
46596172,1968,1,201522,235609,-5.07,-1.69,9.83,-0.34,-0.06,0.07,26.99
46636187,1855,1,201561,235404,-4.56,-2.61,8.58,0.25,0.01,-0.04,26.99
46676172,1829,1,201287,234771,-4.63,-2.06,9.65,-0.20,-0.06,-0.01,26.99
46716205,1633,1,200996,234354,-4.38,-1.81,8.60,0.37,0.08,0.03,26.99
46756161,1767,1,200951,234447,-5.05,-2.01,9.69,-0.25,-0.08,0.09,26.99
46796187,1697,1,201050,234968,-4.19,-1.71,8.60,0.25,0.05,-0.06,26.99
46836193,1830,1,201493,235962,-4.44,-2.84,9.45,-0.18,-0.08,0.02,26.99
46876187,1723,1,201794,237302,-4.10,-0.75,8.49,0.16,0.07,0.02,26.99
46916161,1830,1,202530,238412,-4.81,-2.29,8.84,-0.39,-0.11,0.00,26.99
46956187,1867,1,202622,236062,-3.39,-1.29,7.56,0.11,0.03,-0.03,26.99
46996172,2000,1,201291,233895,-4.51,-2.35,9.21,-0.07,-0.07,-0.07,26.99
47036223,1971,1,200897,233955,-4.11,-0.66,8.20,0.24,-0.02,0.06,26.99
47076172,2141,1,201267,234700,-4.31,-2.73,8.48,-0.22,0.04,-0.03,26.99
47116187,1995,1,201500,235139,-3.61,-0.76,8.11,0.09,-0.00,-0.00,26.99
47156188,1982,1,201479,235222,-3.90,-2.45,8.72,-0.18,0.03,-0.13,26.99
47196187,1808,1,201623,236242,-4.03,-0.60,8.54,-0.03,-0.02,0.07,26.99
47236204,2023,1,202053,236608,-3.96,-2.87,7.94,-0.27,0.06,-0.06,26.99
47276187,1903,1,202089,236628,-3.63,-0.72,8.03,0.07,-0.04,0.02,26.99
47316172,1999,1,202056,236482,-3.81,-2.63,8.05,0.04,0.09,-0.09,26.99
47356852,1925,1,202045,237305,-4.32,-0.61,8.90,0.01,-0.05,0.09,27.15
47395172,1883,1,202475,238370,-4.58,-2.95,8.63,-0.18,0.02,-0.03,27.15
47435187,1759,1,202793,239304,-4.00,-1.33,8.32,-0.01,-0.05,0.05,27.15
47475188,1745,1,202698,239330,-4.35,-2.45,8.24,0.08,0.09,-0.13,27.15
47515167,1728,1,202571,239480,-5.20,-0.91,9.53,0.00,-0.08,0.14,27.15
47555172,1621,1,202343,239487,-5.04,-2.83,9.12,0.16,0.01,-0.03,27.15
47595167,1843,1,202134,236942,-4.61,-1.89,9.63,0.08,-0.08,0.01,27.15
47635172,1893,1,200204,232518,-4.81,-2.27,9.46,0.31,0.06,-0.04,27.15
47675167,1938,1,199468,231900,-5.05,-0.91,9.45,-0.01,-0.04,0.15,27.15
47715188,1903,1,199862,232936,-4.67,-2.64,9.01,0.09,0.01,-0.09,27.15
47755172,1991,1,200292,233243,-3.98,-1.28,9.20,-0.26,-0.04,-0.06,27.15
47795205,2035,1,200428,234171,-4.18,-1.87,8.34,0.00,0.03,-0.06,27.15
47835172,2076,1,201271,236315,-4.59,-0.88,8.66,-0.39,-0.13,0.03,27.15
47875189,2064,1,202142,238291,-3.56,-2.53,7.24,-0.08,-0.07,-0.20,27.15
47915206,1710,1,202599,239309,-3.49,-0.88,8.06,-0.21,-0.18,-0.03,27.15
47955205,1853,1,202867,240109,-3.28,-1.51,7.59,-0.01,0.09,-0.12,27.15
47995187,2176,1,203275,241266,-4.36,-1.35,8.50,-0.45,-0.10,0.06,27.15
48035188,2099,1,203383,241847,-3.24,-1.70,6.97,0.05,-0.05,-0.12,27.15
48075186,2130,1,203446,241730,-3.95,-2.09,8.25,-0.01,-0.00,0.03,27.15
48115188,1969,1,203139,241692,-4.32,-0.86,8.73,0.36,0.05,0.06,27.15
48155161,2098,1,203265,241438,-4.14,-2.91,8.73,-0.21,0.00,0.01,27.15
48195172,1703,1,203126,242091,-3.90,-1.05,8.09,0.20,-0.02,0.00,27.15
48235172,1877,1,203255,241595,-3.87,-3.02,8.58,-0.26,0.03,-0.09,27.15
48275188,1761,1,202789,239182,-4.66,-0.38,8.66,0.23,-0.03,0.10,27.15
48315167,2007,1,201144,233936,-4.87,-3.05,9.09,-0.27,0.11,-0.05,27.15
48355189,1584,1,200327,233197,-4.84,-0.82,9.45,0.34,0.01,0.08,27.15
48395847,1603,1,199704,231867,-4.88,-3.18,9.60,-0.01,0.14,-0.13,27.21
48436189,1472,1,199216,231689,-5.51,-0.27,9.89,0.47,0.05,0.18,27.21
48476161,1896,1,199380,231831,-5.54,-3.45,9.74,0.04,0.16,-0.01,27.21
48516172,2128,1,199818,233556,-4.65,-1.05,9.89,0.05,-0.04,0.06,27.21
48554167,2305,1,201369,237226,-4.35,-3.11,8.59,-0.39,-0.03,-0.14,27.21
48594205,2029,1,202479,240340,-3.99,-1.12,9.18,-0.67,0.05,-0.05,27.21
48634187,2033,1,202653,240820,-3.83,-0.45,7.90,-0.80,-0.10,-0.24,27.21
48674213,2368,1,202826,241901,-4.90,-1.31,8.54,-0.26,-0.09,0.12,27.21
48714187,2269,1,202546,240195,-3.02,-0.65,5.85,0.19,-0.31,-0.19,27.21
48754188,2066,1,202389,241851,-5.83,-2.67,9.39,0.31,0.32,-0.02,27.21
48794172,2096,1,202790,241346,-3.56,-0.45,8.14,0.12,-0.14,0.04,27.21
48834172,2139,1,203037,242709,-4.75,-3.18,8.48,-0.02,0.17,-0.12,27.21
48874187,1941,1,203146,241760,-2.92,-0.91,7.63,-0.03,-0.27,0.07,27.21
48914189,2127,1,202300,241137,-6.46,-2.18,9.49,-0.32,0.06,0.01,27.21
48954167,1915,1,202409,237190,-4.32,-2.93,8.64,0.74,0.12,0.38,27.21
48994161,2062,1,199633,232453,-4.33,0.57,8.44,-0.15,-0.13,-0.14,27.21
49034187,2062,1,199470,231277,-4.95,-4.05,9.06,-0.00,0.37,-0.26,27.21
49074189,1934,1,199098,231201,-5.29,-0.24,11.13,0.21,-0.12,0.41,27.21
49114172,2019,1,199340,231839,-4.19,-3.72,7.81,0.18,0.21,-0.17,27.21
49154172,2064,1,199425,232061,-5.78,-0.45,10.92,-0.51,-0.30,0.01,27.21
49194187,1559,1,199894,234306,-3.99,-2.78,7.42,-0.01,0.16,-0.17,27.21
49234189,1712,1,200651,236285,-5.02,-0.72,9.86,-0.35,-0.16,0.39,27.21
49274187,1655,1,201294,238506,-3.01,-1.64,5.68,-0.35,-0.06,-0.40,27.21
49314205,1746,1,201492,239308,-4.21,-0.90,8.52,-0.57,-0.22,-0.06,27.21
49354206,1825,1,201708,239965,-3.59,-1.13,6.15,0.12,0.09,-0.16,27.21
49394192,2335,1,202477,241273,-5.01,-2.65,8.48,0.09,0.03,0.38,27.21
49434847,1617,1,202276,240674,-1.92,-1.02,6.06,0.13,-0.48,-0.33,27.11
49475190,1104,1,201672,239698,-4.40,-2.48,8.82,-0.29,0.13,-0.15,27.11
49515187,1096,1,201647,239352,-4.25,-0.18,8.92,0.51,-0.01,0.37,27.11
49555172,1157,1,201867,238243,-4.86,-3.20,8.30,0.04,0.19,0.20,27.11
49595158,910,1,201194,234243,-3.76,-1.75,8.77,0.61,-0.18,0.03,27.11
49635172,1263,1,199252,230387,-5.33,-1.14,10.12,-0.23,0.14,0.02,27.11
49675172,1535,1,198769,229225,-5.34,-2.06,9.32,0.31,0.12,0.02,27.11
49715161,2114,1,198021,228075,-5.44,-1.41,10.09,-0.18,-0.03,0.01,27.11
49755187,1981,1,197860,227140,-5.25,-2.51,9.64,0.40,-0.05,0.06,27.11
49795172,2394,1,197462,226817,-5.91,-1.18,10.25,0.04,-0.03,0.08,27.11
49835172,2320,1,197644,226856,-4.78,-2.04,9.65,0.14,0.08,-0.07,27.11
49875172,2633,1,198072,228615,-5.82,-1.73,10.86,-0.27,-0.11,0.03,27.11
49915187,2509,1,198842,229723,-3.38,-1.57,7.84,-0.24,-0.01,-0.22,27.11
49953206,2505,1,199509,231646,-4.54,-1.47,8.99,-0.57,-0.13,-0.12,27.11
49993205,2430,1,200371,233687,-3.69,-1.43,7.28,-0.44,-0.06,-0.24,27.11
50033206,2426,1,201141,236284,-3.88,-1.59,8.04,-0.55,-0.13,-0.13,27.11
50073206,2092,1,201630,238008,-2.99,-1.73,7.04,-0.42,-0.16,-0.35,27.11
50113206,2099,1,202111,239622,-3.43,-1.67,7.74,-0.13,-0.00,-0.13,27.11
50153206,2400,1,202394,240112,-3.68,-1.74,7.28,-0.14,-0.05,0.02,27.11
50193189,2150,1,202460,240154,-3.57,-2.03,7.61,0.21,-0.05,0.01,27.11
50233167,2192,1,202452,238679,-3.60,-2.41,8.29,0.13,-0.02,0.10,27.11
50273173,1941,1,200742,232482,-3.57,-2.14,8.32,0.22,0.04,0.03,27.11
50313167,1818,1,199785,231734,-4.00,-2.60,8.53,-0.21,0.02,-0.07,27.11
50353189,1762,1,199818,232220,-4.00,-1.98,8.00,-0.08,0.05,0.03,27.11
50393172,1686,1,199721,231966,-4.41,-2.42,8.91,-0.07,0.05,-0.00,27.11
50433189,1744,1,199519,231612,-4.41,-2.43,8.54,0.17,-0.03,0.04,27.11
50473861,1243,1,199262,231235,-5.02,-2.47,10.09,0.01,0.11,0.06,27.03
50514172,1099,1,199028,230669,-4.87,-2.25,9.08,0.34,-0.12,0.12,27.03
50554172,1555,1,198611,229854,-4.99,-2.71,9.65,0.26,0.11,0.10,27.03
50594160,1850,1,198396,229565,-5.37,-1.55,10.17,0.33,0.14,0.23,27.03
50634161,2191,1,198486,229926,-5.66,-3.04,10.64,0.03,0.14,0.07,27.03
50674161,2337,1,199106,231699,-4.90,-1.46,9.33,0.11,-0.09,0.06,27.03
50714172,2403,1,200171,235131,-4.58,-2.79,8.86,-0.28,0.02,-0.21,27.03
50754189,2160,1,201713,239026,-4.00,-0.61,8.33,-0.25,0.03,0.02,27.03
50794167,2325,1,202685,240887,-4.82,-2.39,8.53,-0.71,-0.00,-0.16,27.03
50834205,2182,1,202758,241163,-3.57,-1.02,7.82,-0.10,-0.28,-0.14,27.03
50874206,2141,1,202890,242229,-3.62,-2.33,7.47,-0.24,0.04,-0.21,27.03
50914189,2192,1,202803,240393,-4.15,-0.08,8.45,0.11,0.01,0.07,27.03
50954157,1942,1,201287,234601,-3.93,-2.76,7.56,-0.04,0.02,0.02,27.03
50994172,1866,1,200197,233725,-3.78,-1.07,8.59,0.12,-0.12,0.05,27.03
51034172,1840,1,200235,234282,-3.58,-2.05,7.63,-0.02,0.11,-0.10,27.03
51074189,2000,1,200774,236224,-4.60,-1.27,8.40,-0.29,-0.04,0.15,27.03
51114187,1860,1,201530,237785,-3.60,-2.18,7.19,0.02,-0.04,-0.06,27.03
51154189,1778,1,201707,238718,-4.27,-1.41,8.20,-0.12,-0.13,-0.02,27.03
51194206,1771,1,201801,239131,-4.45,-1.67,8.77,0.22,0.10,0.06,27.03
51234161,1430,1,201910,239029,-4.85,-2.11,8.66,-0.12,-0.01,0.13,27.03
51274188,1505,1,201685,238269,-4.25,-2.06,8.51,0.31,-0.02,-0.06,27.03
51314189,1535,1,201409,238171,-5.16,-1.97,9.57,0.02,0.02,0.09,27.03
51354161,1574,1,201478,239382,-4.87,-1.79,9.20,0.24,0.03,0.02,27.03
51394161,1535,1,202221,241258,-5.71,-2.52,10.00,-0.29,0.16,0.05,27.03
51434167,1623,1,202536,241840,-4.64,-1.59,9.10,0.30,-0.09,0.02,27.03
51474858,2186,1,202690,242063,-5.14,-2.65,9.49,-0.14,-0.01,-0.04,27.15
51513206,2056,1,202897,242962,-4.65,-0.69,8.99,0.20,0.06,0.08,27.15
51553161,2340,1,203493,243210,-5.21,-2.82,9.06,-0.50,-0.06,-0.00,27.15
51593206,2123,1,202567,237206,-3.90,-1.11,8.38,0.11,-0.07,-0.08,27.15
51633189,2254,1,200958,235643,-4.52,-2.32,8.15,-0.32,-0.11,-0.10,27.15
51673206,2125,1,201151,236734,-3.88,-0.46,7.94,-0.01,0.00,0.01,27.15
51713172,2320,1,201664,238117,-4.14,-2.44,7.61,-0.44,-0.02,-0.12,27.15
51753206,2058,1,201849,238437,-3.52,-0.92,7.85,0.03,-0.06,-0.07,27.15
51793189,2257,1,202167,239826,-3.75,-2.64,7.53,0.01,0.17,-0.06,27.15
51833167,2288,1,202629,240474,-4.28,-0.73,8.52,0.08,0.05,0.07,27.15
51873161,2174,1,202841,240483,-4.40,-2.86,8.11,-0.01,0.09,-0.05,27.15
51913187,2112,1,202673,239974,-4.07,-1.30,8.88,0.24,-0.07,0.08,27.15
51953173,2126,1,202699,240685,-4.22,-2.42,8.50,0.01,0.07,0.00,27.15
51993158,2061,1,202966,241556,-4.70,-1.42,9.00,-0.20,-0.03,0.06,27.15
52033188,2031,1,203270,242272,-4.29,-2.49,8.09,-0.01,0.06,-0.02,27.15
52073187,2062,1,203302,242310,-4.65,-1.47,8.96,-0.09,-0.12,0.06,27.15
52113189,1883,1,203145,242462,-4.64,-2.27,8.73,0.19,0.13,-0.07,27.15
52153172,1855,1,203295,242972,-5.16,-1.41,9.37,-0.09,-0.11,0.17,27.15
52193189,1823,1,203477,242282,-4.48,-2.63,8.26,0.10,0.02,-0.08,27.15
52233172,1900,1,202026,236029,-4.37,-1.84,8.77,-0.14,-0.11,-0.02,27.15
52273206,1793,1,200948,234973,-4.59,-1.81,8.70,0.02,0.15,-0.07,27.15
52313172,1879,1,201190,235690,-5.22,-1.77,9.34,-0.33,-0.11,0.07,27.15
52353189,1838,1,201493,236434,-4.18,-2.08,8.00,0.07,0.02,-0.04,27.15
52393172,1895,1,201565,236385,-4.31,-2.08,8.48,-0.09,-0.06,-0.06,27.15
52433206,1837,1,201518,237393,-4.63,-1.02,8.74,0.20,0.04,0.05,27.15
52473158,1807,1,202118,238861,-4.95,-2.48,8.73,-0.32,-0.07,0.01,27.15
52513875,1809,1,202410,239454,-3.98,-1.33,8.25,0.19,-0.01,-0.03,26.99
52552187,1936,1,202202,238816,-4.60,-2.35,8.51,-0.23,-0.11,-0.07,26.99
52592205,1882,1,201933,239056,-4.81,-0.75,8.83,0.34,0.03,0.10,26.99
52632161,1853,1,202017,239256,-5.07,-2.83,8.69,-0.28,-0.04,-0.04,26.99
52672205,1771,1,202095,239628,-4.15,-1.18,8.86,0.33,0.03,-0.02,26.99
52712172,1904,1,201980,240001,-4.88,-2.41,9.17,-0.12,-0.06,-0.04,26.99
52752206,1891,1,202275,240896,-4.80,-0.74,9.09,0.10,-0.03,0.09,26.99
52792172,1840,1,202518,241590,-4.85,-3.18,8.61,-0.21,-0.04,-0.09,26.99
52832205,1734,1,202710,241745,-4.41,-0.66,9.44,0.18,-0.08,0.09,26.99
52872172,1791,1,202170,236919,-4.35,-2.81,8.28,-0.16,0.05,-0.14,26.99
52912189,1749,1,201099,235910,-4.20,-0.63,9.03,-0.28,-0.03,0.00,26.99
52952187,1755,1,201254,236574,-3.74,-3.03,7.22,-0.41,-0.02,-0.25,26.99
52992205,1521,1,201414,237581,-4.18,-0.48,8.73,-0.31,-0.17,-0.03,26.99
53032206,1783,1,201823,238473,-4.06,-2.06,7.55,0.04,0.07,-0.11,26.99
53072172,1872,1,202083,239558,-4.33,-1.19,8.43,-0.15,-0.06,0.15,26.99
53112187,1728,1,202553,240813,-3.54,-2.45,7.43,0.20,0.02,-0.05,26.99
53152172,1697,1,202536,240748,-4.06,-1.71,8.33,-0.05,-0.14,0.02,26.99
53192187,1686,1,202610,240711,-4.09,-1.64,8.09,0.20,0.16,0.03,26.99
53232161,1894,1,202482,240304,-4.92,-2.07,8.94,-0.28,-0.11,0.11,26.99
53272187,1514,1,202198,239704,-4.24,-2.02,8.36,0.32,0.01,0.04,26.99
53312161,1934,1,201668,237983,-4.81,-2.32,9.14,0.01,-0.07,0.09,26.99
53352172,1776,1,200832,237064,-4.88,-1.62,9.08,0.42,0.07,-0.01,26.99
53392172,1965,1,200789,236877,-5.74,-2.42,10.20,-0.14,0.17,0.08,26.99
53432172,1910,1,200834,237763,-4.92,-1.82,9.57,0.29,-0.07,0.07,26.99
53472172,2235,1,201256,239027,-5.01,-2.72,9.68,-0.24,-0.02,-0.07,26.99
53512206,2108,1,202036,239202,-4.04,-1.05,8.50,0.06,0.03,0.10,26.99
53552847,2385,1,201416,236334,-5.09,-2.10,8.86,-0.58,-0.09,-0.05,26.97
53591227,2129,1,201160,236441,-3.51,-1.25,7.71,-0.25,-0.02,-0.18,26.97
53631206,2174,1,201281,237659,-4.13,-2.21,8.19,-0.44,-0.02,-0.22,26.97
53671206,2218,1,201741,238748,-3.76,-0.68,8.00,0.06,-0.11,0.00,26.97
53711172,2160,1,202079,240142,-4.23,-2.81,7.68,-0.31,-0.02,-0.04,26.97
53751206,1925,1,202382,240897,-3.53,-0.95,7.99,0.11,-0.08,0.00,26.97
53791183,2163,1,202698,241874,-4.02,-2.57,8.08,-0.01,0.08,0.02,26.97
53831172,2102,1,202534,241393,-4.32,-1.56,8.62,0.03,-0.13,0.11,26.97
53871172,2099,1,202567,241439,-4.06,-2.74,8.04,0.12,0.07,0.03,26.97
53911158,2097,1,202464,241094,-4.37,-1.50,8.79,0.05,-0.03,0.09,26.97
53951172,2090,1,202079,240784,-4.49,-1.98,8.89,0.12,0.05,-0.09,26.97
53991172,1775,1,202110,241083,-5.05,-1.91,9.08,-0.04,-0.03,0.12,26.97
54031189,1841,1,201953,240778,-4.99,-2.37,9.42,0.15,0.03,0.03,26.97
54071160,1826,1,201838,240514,-5.15,-1.98,9.59,0.20,0.03,0.08,26.97
54111161,1936,1,201433,239711,-5.11,-2.25,9.50,0.23,0.04,-0.01,26.97
54151172,1886,1,201170,237670,-5.81,-1.19,10.47,0.13,0.10,0.17,26.97
54191161,1869,1,199875,233173,-5.74,-3.02,10.27,0.21,0.03,0.11,26.97
54232161,2012,1,199213,232865,-5.20,-1.47,9.75,0.14,-0.10,0.04,26.97
54272172,1975,1,200309,235860,-3.68,-2.03,7.80,-0.14,0.00,-0.19,26.97
54310187,1501,1,201359,238602,-2.98,-0.41,7.51,-0.95,-0.26,-0.31,26.97
54350206,896,1,201678,240811,-3.18,-1.83,6.50,-1.01,-0.22,-0.47,26.97
54390206,1105,1,201153,241069,-4.13,-0.36,8.34,-0.92,-0.33,-0.17,26.97
54430206,2433,1,201950,242359,-4.63,-1.20,6.88,0.27,0.04,0.14,26.97
54470159,2255,1,201570,240989,-3.62,-0.61,7.88,0.15,-0.23,-0.02,26.97
54510189,1633,1,202025,241894,-4.30,-2.52,8.09,1.14,0.37,0.02,26.97
54550161,1811,1,201878,241084,-4.24,-1.00,9.45,0.12,0.05,0.21,26.97
54590846,1615,1,202137,241546,-4.06,-2.37,7.93,0.30,0.30,0.01,26.99
54631161,1819,1,201985,239951,-4.38,-2.56,9.28,-0.10,-0.19,0.16,26.99
54671189,1791,1,201190,240160,-5.38,-0.82,9.30,0.25,-0.10,0.20,26.99
54711172,1973,1,201232,239475,-4.35,-3.69,8.15,0.05,-0.08,-0.14,26.99
54751189,2082,1,201211,239511,-5.47,-0.60,11.11,-0.03,0.14,0.18,26.99
54791172,2160,1,200738,237163,-5.00,-3.03,9.03,0.39,0.09,-0.12,26.99
54831172,2350,1,199714,233138,-5.06,-0.87,10.59,0.05,-0.05,0.25,26.99
54871172,2217,1,198433,231524,-4.39,-1.93,8.26,0.09,0.10,-0.24,26.99
54911172,2448,1,198538,231289,-5.58,-1.43,11.25,-0.29,0.00,0.18,26.99
54951172,1958,1,198387,232377,-4.62,-1.17,7.95,0.32,-0.12,0.03,26.99
54991172,2372,1,200201,235556,-4.22,-2.21,8.59,-0.44,-0.06,0.05,26.99
55031188,1567,1,201126,238642,-3.10,-0.27,7.07,-0.65,-0.11,-0.30,26.99
55071206,1886,1,202105,241557,-4.52,-1.61,8.91,-0.98,0.09,-0.15,26.99
55111189,1869,1,202199,241933,-3.39,-1.48,7.10,-0.33,-0.43,-0.22,26.99
55151205,1505,1,202640,243052,-3.79,-2.32,7.47,0.44,0.19,0.09,26.99
55191161,1314,1,202309,242779,-3.50,-0.56,7.86,-0.18,-0.30,-0.17,26.99
55230221,1488,1,203034,244247,-2.99,-3.56,7.44,-0.11,0.47,-0.18,26.99
55270187,1979,1,203299,244081,-2.93,-0.60,8.69,0.37,0.09,0.32,26.99
55310161,2192,1,203208,244492,-4.72,-1.94,8.36,-0.32,-0.07,-0.05,26.99
55350206,2032,1,203194,244047,-3.07,-2.72,6.91,0.06,-0.05,-0.18,26.99
55390190,1807,1,202663,244544,-5.31,-1.51,10.78,-0.57,-0.18,0.19,26.99
55430187,1663,1,203528,244684,-4.43,-3.61,7.30,0.38,0.46,0.03,26.99
55470161,1667,1,202508,240381,-5.31,-1.18,10.96,-0.13,-0.36,0.18,26.99
55510188,1491,1,200163,234803,-4.83,-3.20,8.74,0.21,0.35,-0.27,26.99
55550172,2091,1,199394,233416,-5.61,-1.15,11.57,0.39,-0.04,0.61,26.99
55590858,1628,1,199356,233251,-5.80,-3.22,8.69,0.70,0.22,0.08,27.03
55631161,2304,1,199299,232789,-5.39,-2.19,11.50,-0.12,0.11,0.06,27.03
55669172,2078,1,199766,234085,-5.63,-1.60,9.68,0.41,0.14,-0.02,27.03
55709172,2004,1,200368,235146,-5.75,-3.05,10.99,-0.59,-0.05,-0.06,27.03
55749206,1562,1,201395,238178,-4.64,-0.74,7.64,0.03,-0.09,-0.15,27.03
55789190,1590,1,201888,239608,-5.33,-3.06,9.91,-0.76,-0.16,-0.18,27.03
55829207,1081,1,202573,241724,-3.81,-0.62,7.70,-0.06,0.04,-0.14,27.03
55869189,1493,1,202716,242496,-4.54,-2.37,8.74,-0.85,-0.16,-0.13,27.03
55909206,1474,1,202257,242195,-3.44,-1.09,7.36,-0.20,-0.27,-0.26,27.03
55949205,2166,1,202025,242922,-3.18,-2.16,6.79,-0.45,-0.14,-0.14,27.03
55989205,2240,1,202176,242851,-4.10,-0.71,8.12,-0.06,0.06,0.07,27.03
56029172,2497,1,202077,243134,-2.93,-2.67,6.14,-0.05,-0.15,-0.04,27.03
56069206,2029,1,201877,243519,-3.61,-1.17,8.01,-0.12,-0.13,-0.06,27.03
56109205,2595,1,202311,242756,-3.35,-2.06,6.76,0.11,0.21,-0.02,27.03
56149172,2742,1,201226,237622,-4.52,-1.81,8.53,-0.18,-0.01,0.15,27.03
56189189,2190,1,200451,235926,-4.15,-2.06,7.77,0.54,0.12,0.15,27.03
56229161,2480,1,200283,235612,-4.43,-2.64,8.77,0.05,-0.15,0.15,27.03
56270172,2174,1,200405,235466,-4.53,-1.69,8.56,0.57,0.16,-0.01,27.03
56310172,2378,1,200526,235653,-5.33,-3.36,9.86,-0.07,0.08,0.13,27.03
56350172,1907,1,200813,236968,-5.29,-1.08,9.54,0.30,-0.06,0.14,27.03
56390172,2111,1,201140,236478,-4.91,-3.79,9.14,-0.24,0.02,-0.10,27.03
56430189,1814,1,200790,236030,-5.26,-1.06,9.82,0.40,0.01,0.17,27.03
56470161,1999,1,200638,235903,-5.76,-2.63,9.52,0.03,0.10,0.02,27.03
56510161,1879,1,201238,236910,-4.66,-1.78,9.25,0.12,-0.07,0.04,27.03
56550172,1915,1,201466,237963,-4.63,-2.22,9.58,-0.07,0.08,-0.12,27.03
56590875,1978,1,202085,239488,-4.63,-1.62,9.10,-0.14,-0.07,0.09,26.99
56629188,1950,1,202705,241564,-4.57,-1.95,8.29,-0.27,-0.14,-0.09,26.99
56669206,1862,1,203356,242907,-3.87,-1.94,7.88,-0.23,-0.02,-0.12,26.99
56709205,1667,1,203663,243839,-4.36,-1.54,8.53,-0.14,0.01,-0.05,26.99
56749189,1734,1,203675,242589,-4.31,-1.54,8.36,-0.18,-0.07,0.00,26.99
56789187,1968,1,202172,236703,-3.82,-2.53,7.51,-0.06,-0.06,-0.05,26.99
56829206,1825,1,201072,235975,-3.80,-1.25,7.90,-0.11,-0.08,-0.03,26.99
56869212,1933,1,201101,236091,-3.47,-1.88,7.34,0.00,-0.04,-0.09,26.99
56909188,2001,1,200877,236090,-4.47,-1.29,8.74,-0.18,-0.07,-0.01,26.99
56949206,1946,1,200968,236155,-3.98,-2.20,7.85,0.11,0.04,0.02,26.99
56989161,1962,1,200974,236664,-4.10,-1.94,8.33,-0.04,0.01,-0.02,26.99
57029187,1895,1,201119,237016,-4.20,-1.40,8.48,0.14,0.10,-0.03,26.99
57069191,1881,1,201069,236789,-4.71,-2.15,8.74,-0.19,-0.05,0.01,26.99
57109187,1737,1,200921,236641,-4.75,-1.85,9.18,0.21,0.02,0.08,26.99
57149161,1857,1,200874,236308,-4.75,-2.48,8.95,-0.05,-0.05,0.01,26.99
57189187,1839,1,200536,236214,-4.86,-1.73,9.16,0.27,0.05,0.04,26.99
57229161,1840,1,200712,236884,-5.15,-2.19,9.01,-0.12,-0.05,0.02,26.99
57269187,1835,1,201239,238612,-4.43,-2.08,9.02,0.07,0.08,-0.02,26.99
57308172,1776,1,201888,239929,-4.16,-2.11,8.54,-0.31,-0.04,-0.10,26.99
57348206,1711,1,202087,240857,-4.63,-1.44,8.81,-0.12,-0.01,-0.02,26.99
57388205,1878,1,202210,241391,-4.86,-2.36,8.28,-0.22,-0.15,-0.01,26.99
57428206,1937,1,202021,238008,-4.34,-1.47,8.41,0.11,-0.00,-0.01,26.99
57468189,1959,1,200187,234157,-4.29,-2.56,8.66,0.00,0.01,-0.08,26.99
57508172,1930,1,199709,234046,-4.71,-1.14,9.12,0.05,-0.00,0.10,26.99
57548172,2003,1,199950,234365,-4.29,-3.07,8.18,-0.10,-0.00,-0.03,26.99
57588206,1911,1,200070,234916,-4.27,-0.75,8.60,-0.01,-0.13,0.08,26.99
57628875,2019,1,200271,235081,-4.14,-2.81,7.91,-0.12,0.09,-0.12,27.17
57669187,1958,1,200406,235577,-4.77,-0.83,9.10,-0.12,-0.13,0.12,27.17
57709189,2003,1,200488,235381,-4.05,-3.01,7.58,-0.00,0.02,-0.13,27.17
57749187,2028,1,200328,234904,-4.50,-1.18,9.24,0.01,-0.15,0.11,27.17
57789172,2019,1,200302,235000,-4.24,-2.01,8.21,0.16,0.08,-0.04,27.17
57829172,1952,1,200370,235412,-5.06,-1.74,9.59,-0.16,-0.09,0.13,27.17
57869188,1839,1,200667,236399,-4.13,-2.17,8.11,0.14,0.02,-0.03,27.17
57909172,1875,1,201132,237665,-4.38,-2.31,8.75,-0.31,-0.07,-0.05,27.17
57949205,1779,1,201473,238726,-3.85,-1.10,8.15,0.06,0.08,-0.05,27.17
57989172,1946,1,201885,239717,-4.62,-2.26,8.23,-0.57,-0.03,0.01,27.17
58029189,1818,1,202167,241086,-3.66,-1.72,7.30,-0.06,-0.05,-0.07,27.17
58069206,1929,1,202299,241861,-4.40,-2.34,7.39,-0.42,-0.11,0.02,27.17
58109189,1954,1,202320,239475,-4.44,-1.42,8.03,0.30,0.02,0.12,27.17
58149161,2103,1,200326,233592,-4.41,-2.85,7.98,0.26,-0.05,-0.02,27.17
58189189,1866,1,199284,232528,-4.12,-1.55,8.56,0.57,0.09,-0.12,27.17
58229172,1923,1,199399,232643,-4.53,-2.69,8.94,0.01,0.04,0.03,27.17
58269161,1884,1,199317,233085,-5.20,-1.32,9.29,-0.03,0.01,0.30,27.17
58309172,1611,1,199670,233068,-5.56,-3.12,8.15,-0.24,0.12,0.28,27.17
58347172,1645,1,199503,233003,-5.48,-1.47,8.81,0.14,0.02,0.11,27.17
58387161,1871,1,198964,231649,-5.43,-2.76,9.25,0.36,0.16,-0.13,27.17
58427172,1633,1,198271,231003,-5.61,-1.07,10.29,0.58,0.14,0.01,27.17
58467161,1267,1,198305,231006,-5.34,-2.78,9.42,0.05,-0.09,-0.04,27.17
58507189,1535,1,198953,232491,-5.12,-1.15,8.87,-0.45,-0.10,0.10,27.17
58547187,1708,1,199454,233161,-4.93,-2.42,8.20,-0.33,-0.07,-0.06,27.17
58587205,1731,1,199824,234929,-5.02,-1.08,8.64,-0.07,-0.08,0.00,27.17
58627188,2032,1,200492,236714,-4.05,-2.63,7.91,-0.14,0.03,-0.29,27.17
58667875,1680,1,201308,239463,-3.69,-1.01,7.95,-0.39,-0.03,-0.15,27.21
58708245,1872,1,202047,241602,-3.98,-2.02,7.00,-0.44,-0.02,-0.09,27.21
58748205,2234,1,202299,242317,-4.91,-0.91,8.25,-0.41,-0.17,0.13,27.21
58788187,2297,1,202576,242500,-3.90,-2.70,6.67,0.16,-0.01,-0.12,27.21
58828189,2311,1,201687,236466,-3.96,-1.49,8.20,0.08,0.12,-0.01,27.21
58868172,2173,1,200126,234460,-4.03,-1.93,7.74,0.17,0.19,-0.15,27.21
58908172,2263,1,199967,234629,-4.74,-2.11,8.20,-0.34,-0.10,0.13,27.21
58948187,2191,1,199989,235107,-4.46,-1.90,7.58,0.05,-0.12,0.07,27.21
58988172,2097,1,200087,234490,-5.01,-2.55,8.24,-0.11,-0.04,0.10,27.21
59028187,1975,1,199632,234146,-4.98,-1.45,9.02,0.50,0.26,0.03,27.21
59068161,1916,1,199681,233805,-5.40,-2.58,8.90,0.06,-0.01,0.06,27.21
59108172,1824,1,199368,233295,-5.05,-2.05,8.93,0.14,-0.03,-0.01,27.21
59148189,1797,1,199460,233018,-5.97,-2.41,9.58,-0.09,0.14,0.15,27.21
59188172,1798,1,199042,232787,-5.93,-1.92,9.76,0.16,0.01,0.05,27.21
59228161,1861,1,199333,233304,-5.91,-2.64,9.60,0.16,0.01,0.01,27.21
59268161,1968,1,199543,234762,-5.16,-2.15,9.25,0.08,0.01,-0.05,27.21
59308172,1959,1,200438,236301,-5.28,-1.92,8.83,-0.42,-0.10,-0.03,27.21
59348206,1845,1,200734,237763,-4.54,-1.52,8.08,-0.11,-0.04,-0.08,27.21
59388206,2096,1,201365,239233,-4.84,-2.43,8.04,-0.43,-0.15,-0.07,27.21
59428206,1591,1,201641,240677,-3.18,-1.33,7.13,-0.14,-0.30,-0.26,27.21
59468205,1597,1,200896,236140,-3.65,-1.98,7.23,-0.72,-0.19,-0.33,27.21
59508206,1535,1,199021,233697,-4.02,-0.54,7.90,-0.22,-0.02,-0.22,27.21
59548205,2164,1,198999,234667,-3.92,-2.49,6.77,-0.27,-0.13,0.11,27.21
59588187,1779,1,199212,235284,-3.24,-0.88,7.12,0.18,-0.31,-0.12,27.21
59628189,2078,1,199599,236154,-3.63,-3.15,6.87,-0.13,0.11,0.01,27.21
59666858,1844,1,199753,236088,-4.15,-0.93,8.61,0.30,0.01,0.09,27.49
59707161,2081,1,200097,236901,-4.47,-3.45,7.88,0.05,0.13,0.04,27.49
59747161,1863,1,200467,237126,-4.02,-1.26,8.39,0.23,-0.12,0.11,27.49
59787172,2001,1,200332,236138,-4.77,-2.85,8.65,-0.09,0.19,0.02,27.49
59827172,1700,1,200208,235643,-5.53,-1.33,10.04,0.35,0.24,0.25,27.49
59867161,1666,1,199668,234234,-5.10,-3.51,9.22,0.25,0.02,-0.03,27.49
59907172,1781,1,199111,234187,-5.64,-1.16,10.34,0.48,0.27,0.13,27.49
59947160,1613,1,198800,233767,-6.40,-2.81,10.67,0.43,0.25,0.07,27.49
59987161,1918,1,198660,234056,-5.81,-1.15,10.60,0.30,-0.02,0.07,27.49
60027175,1899,1,199213,237203,-6.28,-2.81,10.64,0.04,0.08,-0.02,27.49
60067172,1808,1,201923,242439,-4.38,-0.16,8.26,-0.67,-0.09,0.02,27.49
60107189,1388,1,203191,242439,-3.86,-2.55,6.88,-0.77,-0.31,-0.38,27.49
60147280,1327,1,200739,234822,-3.92,0.71,8.61,-0.14,-0.25,-0.01,27.49
60187189,1899,1,199511,235329,-4.93,-2.56,7.58,0.42,0.06,-0.00,27.49
60227172,2032,1,199181,233981,-3.24,-0.12,7.03,-0.57,-0.31,-0.32,27.49
60267206,1655,1,200025,238026,-4.81,-3.37,8.26,0.20,0.38,-0.14,27.49
60307172,1675,1,200713,238134,-3.00,0.42,8.47,-0.17,-0.43,0.29,27.49
60347205,1963,1,201552,241355,-3.31,-4.13,6.39,-0.07,0.07,-0.29,27.49
60387187,1497,1,201262,240755,-1.77,1.48,6.96,0.01,-0.46,-0.10,27.49
60427175,175,1,201553,242049,-4.61,-3.20,7.05,-0.52,0.19,-0.08,27.49
60467188,0,1,201913,241030,-4.20,-2.10,8.79,0.35,0.13,0.40,27.49
60507161,1095,1,201649,241300,-4.87,-1.40,9.02,0.49,0.05,0.19,27.49
60547161,1200,1,202432,241347,-3.41,-2.83,7.84,0.37,0.29,-0.09,27.49
60587172,1014,1,202108,241292,-4.36,-0.53,10.04,0.22,0.11,0.01,27.49
60627161,1355,1,202263,241206,-4.58,-2.77,8.68,-0.08,0.18,-0.03,27.49
60667194,1423,1,202155,241281,-6.32,-1.15,10.79,-0.13,-0.05,0.23,27.49
60707873,1757,1,201778,240588,-5.07,-2.44,8.71,0.20,-0.08,-0.02,27.41
60746188,2685,1,202065,241754,-4.89,-2.08,8.89,-0.11,-0.04,0.05,27.41
60786187,2925,1,201517,237109,-4.62,-0.84,9.28,-0.34,0.09,-0.18,27.41
60826189,3184,1,200299,234168,-4.17,-2.57,8.72,-0.25,0.01,-0.05,27.41
60866188,3406,1,197938,230111,-5.70,-1.22,11.27,-0.17,-0.12,0.11,27.41
60906191,2080,1,197455,230453,-6.36,-4.44,9.73,1.39,0.35,0.50,27.41
60946161,2795,1,197807,230870,-5.59,-0.63,9.49,-0.16,-0.01,-0.05,27.41
60986206,2247,1,199867,235096,-3.78,-3.28,8.65,-0.38,0.28,-0.37,27.41
61026210,1811,1,201620,239357,-2.65,-0.54,8.88,-0.56,-0.50,0.14,27.41
61066190,2278,1,202632,241258,-3.12,-2.79,6.07,-1.01,-0.29,-0.27,27.41
61106207,1815,1,201750,240768,-2.68,-1.87,6.35,-0.75,-0.71,-0.25,27.41
61146205,1507,1,200539,240284,-4.04,0.51,6.98,-0.57,-0.40,-0.25,27.41
61186189,2717,1,202045,242621,-5.62,-3.73,8.64,0.59,0.60,0.37,27.41
61226165,2206,1,202281,241120,-1.71,-0.72,5.88,1.22,-0.36,-0.09,27.41
61266195,1903,1,201643,241462,-3.89,-3.32,9.48,-0.06,0.60,-0.43,27.41
61306189,1615,1,203021,243454,-4.91,-0.23,10.82,0.37,0.36,0.51,27.41
61346159,2352,1,203315,244299,-3.41,-4.17,7.67,-0.57,-0.24,-0.06,27.41
61386206,2318,1,203217,244154,-4.60,-0.74,8.66,-0.15,-0.04,0.03,27.41
61426188,2500,1,202555,240336,-4.98,-3.35,8.71,-0.37,-0.02,-0.19,27.41
61466206,2545,1,200884,235544,-4.39,-1.72,8.86,-0.04,0.26,0.17,27.41
61506172,2583,1,199550,233661,-4.83,-2.89,8.47,0.09,-0.18,-0.20,27.41
61546190,2623,1,199016,233246,-5.24,-1.63,9.96,0.28,0.07,0.14,27.41
61586161,2327,1,198908,233209,-5.30,-2.44,9.17,0.22,0.06,0.02,27.41
61626161,2447,1,199182,233901,-4.79,-2.29,9.68,0.01,0.15,-0.01,27.41
61666167,2287,1,199542,234838,-4.70,-2.48,9.11,-0.18,-0.18,-0.01,27.41
