timestamp_us,ecg,leads,ir,red,accX,accY,accZ,gyroX,gyroY,gyroZ,temp
2419524,1844,1,199337,235660,0.00,0.00,0.00,0.00,0.00,0.00,0.00
2449965,1811,1,198976,234719,0.59,-0.33,9.72,-0.03,-0.01,-0.00,33.77
2490204,1811,1,198807,234562,0.61,-0.32,9.97,-0.03,-0.01,-0.00,33.77
2530194,1767,1,198834,234928,0.61,-0.33,9.98,-0.03,-0.01,-0.00,33.77
2570197,1817,1,198858,235451,0.58,-0.32,9.96,-0.04,-0.00,-0.01,33.77
2610194,1819,1,198850,235835,0.58,-0.32,9.98,-0.04,-0.01,-0.00,33.77
2650197,1840,1,198842,236028,0.57,-0.33,9.97,-0.03,-0.01,-0.00,33.77
2690194,1852,1,198793,236402,0.61,-0.34,9.97,-0.03,-0.01,-0.00,33.77
2730197,1850,1,198746,236720,0.60,-0.34,9.99,-0.03,-0.01,-0.00,33.77
2770194,1889,1,198706,237019,0.59,-0.31,9.99,-0.03,-0.01,-0.00,33.77
2810198,1889,1,198789,237181,0.60,-0.31,10.00,-0.03,-0.01,-0.00,33.77
2850193,1877,1,198769,237410,0.61,-0.33,9.98,-0.03,-0.01,-0.00,33.77
2890197,1907,1,198794,237453,0.59,-0.33,9.98,-0.03,-0.01,-0.00,33.77
2930194,1883,1,198794,237437,0.59,-0.32,9.99,-0.03,-0.01,-0.00,33.77
2970197,1892,1,198759,237151,0.60,-0.32,9.98,-0.03,-0.01,-0.01,33.77
3010194,1895,1,198245,234948,0.59,-0.32,9.99,-0.03,-0.01,-0.00,33.77
3050198,1894,1,197624,234314,0.60,-0.31,9.98,-0.03,-0.01,-0.00,33.77
3090194,1904,1,197607,234349,0.61,-0.34,10.01,-0.03,-0.01,-0.00,33.77
3130197,1872,1,197652,234559,0.61,-0.32,9.94,-0.03,-0.01,-0.00,33.77
3170194,1895,1,197767,234700,0.59,-0.32,9.99,-0.03,-0.01,-0.00,33.77
3210198,1871,1,197861,234947,0.59,-0.32,10.01,-0.03,-0.01,-0.00,33.77
3249194,1854,1,197881,234910,0.59,-0.33,10.01,-0.03,-0.01,-0.00,33.77
3289197,1858,1,197860,234936,0.60,-0.32,9.95,-0.03,-0.01,-0.00,33.77
3329194,1808,1,197933,234974,0.59,-0.31,10.00,-0.03,-0.01,-0.00,33.77
3369197,1866,1,197960,234899,0.60,-0.32,9.98,-0.03,-0.01,-0.01,33.77
3409194,1901,1,197984,235009,0.59,-0.31,10.01,-0.03,-0.02,-0.00,33.77
3449197,1856,1,198064,235095,0.60,-0.32,9.98,-0.03,-0.01,-0.00,33.77
3489880,1809,1,198244,235295,0.61,-0.32,9.97,-0.03,-0.01,-0.00,33.91
3530197,1842,1,198309,235396,0.61,-0.34,10.00,-0.03,-0.00,-0.01,33.91
3570194,1840,1,198227,234283,0.59,-0.33,10.00,-0.04,-0.02,-0.00,33.91
3610198,1843,1,197819,233587,0.61,-0.31,9.97,-0.03,-0.02,-0.00,33.91
3650203,1867,1,197785,233738,0.64,-0.33,9.97,-0.04,-0.02,-0.00,33.91
3690197,1879,1,197786,234072,0.62,-0.34,10.01,-0.04,-0.01,-0.00,33.91
3730195,1856,1,197860,234303,0.60,-0.35,9.99,-0.03,-0.01,-0.00,33.91
3770197,1842,1,198071,234583,0.60,-0.32,9.99,-0.03,-0.01,-0.00,33.91
3810194,1845,1,198145,234778,0.64,-0.31,9.99,-0.03,-0.01,-0.01,33.91
3850197,1851,1,198156,234764,0.62,-0.33,9.99,-0.03,-0.01,-0.00,33.91
3890194,1819,1,198216,234914,0.60,-0.33,10.01,-0.03,-0.01,-0.00,33.91
3930197,1776,1,198232,235236,0.61,-0.33,9.97,-0.03,-0.01,-0.00,33.91
3970194,1792,1,198365,235652,0.61,-0.33,9.96,-0.03,-0.01,-0.00,33.91
4010197,1793,1,198517,236132,0.63,-0.33,10.00,-0.03,-0.01,-0.01,33.91
4050194,1788,1,198702,236756,0.60,-0.34,9.98,-0.04,-0.00,-0.00,33.91
4090197,1749,1,198867,237069,0.60,-0.33,10.00,-0.03,-0.00,-0.00,33.91
4130194,1779,1,198666,235142,0.60,-0.34,10.02,-0.03,-0.01,-0.00,33.91
4170198,1793,1,197801,233893,0.60,-0.35,9.97,-0.03,-0.01,-0.00,33.91
4210194,1782,1,197674,233842,0.63,-0.32,9.98,-0.03,-0.00,-0.00,33.91
4250197,1771,1,197679,233952,0.59,-0.32,10.02,-0.03,-0.01,-0.00,33.91
4290194,1745,1,197800,234099,0.62,-0.32,9.97,-0.03,-0.01,-0.00,33.91
4330197,1758,1,197933,234359,0.63,-0.34,9.98,-0.03,-0.01,-0.01,33.91
4370197,1723,1,198006,234456,0.61,-0.32,10.01,-0.03,-0.01,-0.01,33.91
4410198,1728,1,198045,234355,0.62,-0.33,10.00,-0.03,-0.02,-0.00,33.91
4450194,1690,1,198185,234451,0.61,-0.31,9.96,-0.03,-0.01,-0.00,33.91
4490883,1689,1,198330,234651,0.64,-0.32,9.99,-0.03,-0.01,-0.00,33.85
4529194,1663,1,198454,234841,0.64,-0.33,9.97,-0.03,-0.01,-0.00,33.85
4569198,1627,1,198452,235102,0.60,-0.34,9.99,-0.03,-0.00,-0.00,33.85
4609194,1590,1,198514,235198,0.61,-0.33,9.96,-0.03,-0.01,-0.00,33.85
4649197,1535,1,198479,235297,0.62,-0.33,10.00,-0.03,-0.01,-0.00,33.85
4689194,1419,1,198121,234120,0.60,-0.32,9.97,-0.03,-0.01,-0.00,33.85
4729197,1374,1,197802,233590,0.61,-0.32,9.96,-0.03,-0.01,-0.00,33.85
4769194,1283,1,197737,233646,0.62,-0.32,9.99,-0.03,-0.01,-0.00,33.85
4809197,1115,1,197890,233813,0.60,-0.30,9.99,-0.03,-0.01,-0.00,33.85
4849193,1130,1,197898,234022,0.60,-0.33,9.97,-0.03,-0.01,-0.00,33.85
4889197,1062,1,198081,234276,0.62,-0.32,9.97,-0.03,-0.02,-0.00,33.85
4929194,939,1,198152,234520,0.62,-0.31,9.98,-0.03,-0.00,-0.00,33.85
4969197,891,1,198042,234404,0.59,-0.34,9.99,-0.03,-0.01,-0.00,33.85
5009194,825,1,198207,234539,0.60,-0.35,9.99,-0.03,-0.01,-0.00,33.85
5049197,741,1,198200,234535,0.62,-0.31,9.98,-0.03,-0.01,-0.00,33.85
5088245,722,1,198186,234422,0.60,-0.34,10.00,-0.03,-0.00,-0.00,33.85
5128197,803,1,198412,234484,0.62,-0.32,10.01,-0.03,-0.02,-0.00,33.85
5168193,798,1,198644,234559,0.60,-0.34,10.00,-0.03,-0.02,-0.00,33.85
5208197,826,1,198700,233959,0.63,-0.31,9.98,-0.03,-0.01,-0.00,33.85
5248194,881,1,198411,233340,0.62,-0.34,10.00,-0.04,-0.01,-0.00,33.85
5288214,910,1,198152,233080,0.62,-0.32,9.98,-0.03,-0.01,-0.01,33.85
5328194,1061,1,198137,233216,0.60,-0.33,9.97,-0.03,-0.01,-0.00,33.85
5368197,1131,1,198266,233383,0.62,-0.31,10.00,-0.03,-0.01,-0.01,33.85
5408194,1264,1,198220,233496,0.62,-0.33,9.99,-0.03,-0.01,-0.00,33.85
5448197,1375,1,198404,233584,0.61,-0.30,9.98,-0.04,-0.01,-0.00,33.85
5488193,1444,1,198321,233500,0.60,-0.32,9.99,-0.03,-0.01,-0.00,33.85
5528884,1509,1,198378,233626,0.61,-0.32,9.98,-0.03,-0.01,-0.00,33.71
5569195,1603,1,198414,233716,0.61,-0.34,9.96,-0.03,-0.01,-0.00,33.71
5609197,1699,1,198290,233708,0.62,-0.33,9.96,-0.03,-0.01,-0.01,33.71
5649194,1714,1,198372,233720,0.60,-0.32,10.00,-0.03,-0.01,-0.00,33.71
5689197,1793,1,198483,233751,0.61,-0.30,9.97,-0.03,-0.01,-0.00,33.71
5729194,1901,1,198418,233307,0.61,-0.31,9.96,-0.04,-0.01,-0.01,33.71
5769197,1936,1,198042,232351,0.60,-0.33,10.01,-0.03,-0.01,-0.01,33.71
5809194,1936,1,197877,231796,0.62,-0.33,10.01,-0.03,-0.02,-0.00,33.71
5849197,1937,1,197800,231501,0.63,-0.31,9.97,-0.03,-0.02,-0.00,33.71
5889194,1968,1,197799,231659,0.65,-0.32,9.97,-0.03,-0.01,-0.00,33.71
5929197,1950,1,197811,231955,0.61,-0.34,10.00,-0.03,-0.00,-0.00,33.71
5969217,1962,1,197911,232179,0.59,-0.34,10.01,-0.03,-0.01,-0.00,33.71
6009198,1930,1,197910,232330,0.63,-0.30,9.97,-0.04,-0.01,-0.00,33.71
6049194,1878,1,197865,232389,0.62,-0.32,9.99,-0.03,-0.01,-0.00,33.71
6089197,1851,1,197871,232587,0.61,-0.34,9.98,-0.03,-0.01,-0.00,33.71
6129194,1808,1,197894,232687,0.59,-0.32,9.98,-0.03,-0.01,-0.00,33.71
6169197,1826,1,197889,232741,0.62,-0.31,9.98,-0.03,-0.01,-0.00,33.71
6209194,1767,1,197971,232645,0.62,-0.32,10.01,-0.03,-0.02,-0.00,33.71
6249197,1770,1,198016,232193,0.63,-0.33,9.98,-0.03,-0.02,-0.00,33.71
6289194,1744,1,197574,231191,0.62,-0.33,9.97,-0.03,-0.01,-0.01,33.71
6329197,1733,1,197274,230758,0.60,-0.32,9.97,-0.03,-0.00,-0.01,33.71
6369194,1699,1,197019,230740,0.61,-0.32,9.97,-0.03,-0.01,-0.01,33.71
6409198,1662,1,197034,231159,0.62,-0.33,9.99,-0.04,-0.00,-0.00,33.71
6449194,1674,1,197100,231576,0.59,-0.31,10.00,-0.04,-0.00,-0.01,33.71
6489197,1648,1,197049,231609,0.62,-0.32,9.99,-0.03,-0.01,-0.00,33.71
6529881,1651,1,196884,231576,0.62,-0.32,9.99,-0.03,-0.01,-0.00,33.39
6568197,1654,1,196986,231497,0.61,-0.32,9.98,-0.03,-0.01,-0.00,33.39
6608194,1694,1,196896,231570,0.59,-0.32,9.97,-0.03,-0.02,-0.00,33.39
6648197,1655,1,196875,231891,0.61,-0.31,9.98,-0.03,-0.01,-0.00,33.39
6688195,1723,1,196935,232051,0.63,-0.34,9.99,-0.03,-0.01,-0.00,33.39
6728210,1687,1,197047,232285,0.62,-0.31,9.98,-0.03,-0.01,-0.00,33.39
6768194,1713,1,196991,232177,0.61,-0.32,10.01,-0.03,-0.01,-0.00,33.39
6808197,1695,1,196771,231263,0.61,-0.30,9.97,-0.03,-0.01,-0.00,33.39
6848194,1698,1,196401,230718,0.64,-0.32,9.97,-0.04,-0.01,-0.00,33.39
6888197,1675,1,196259,230563,0.60,-0.34,10.03,-0.03,-0.01,-0.00,33.39
6928220,1808,1,196264,230449,0.61,-0.30,10.00,-0.03,-0.02,-0.00,33.39
6968198,1794,1,196348,230477,0.62,-0.32,9.96,-0.03,-0.02,-0.00,33.39
7008194,1790,1,196433,230652,0.64,-0.32,9.99,-0.03,-0.01,-0.00,33.39
7048197,1821,1,196589,230667,0.65,-0.32,9.97,-0.03,-0.01,-0.00,33.39
7088194,1840,1,196575,230771,0.62,-0.31,9.96,-0.03,-0.01,-0.00,33.39
7128220,1840,1,196714,230808,0.63,-0.28,9.98,-0.04,-0.01,-0.00,33.39
7168194,1879,1,196739,230946,0.61,-0.32,9.99,-0.03,-0.01,-0.00,33.39
7208197,1904,1,197029,231174,0.64,-0.32,9.97,-0.03,-0.03,-0.00,33.39
7248194,1935,1,197115,231500,0.64,-0.32,9.97,-0.04,-0.01,-0.00,33.39
7288197,1967,1,197214,231782,0.61,-0.30,10.00,-0.04,-0.01,-0.00,33.39
7328194,1961,1,197266,231903,0.61,-0.32,9.97,-0.03,-0.01,-0.01,33.39
7368197,1979,1,197240,231477,0.62,-0.32,9.97,-0.03,-0.01,-0.00,33.39
7408194,1968,1,196878,230701,0.62,-0.31,9.99,-0.03,-0.01,-0.00,33.39
7448197,2015,1,196699,230323,0.62,-0.30,9.97,-0.03,-0.01,-0.00,33.39
7488193,2032,1,196641,230328,0.62,-0.34,9.96,-0.03,-0.01,-0.00,33.39
7528197,2021,1,196675,230454,0.62,-0.32,10.01,-0.03,-0.01,-0.00,33.39
7568881,2032,1,196894,230832,0.62,-0.32,10.01,-0.03,-0.01,-0.01,33.43
7609197,2044,1,197086,231304,0.62,-0.31,9.95,-0.04,0.00,-0.01,33.43
7649174,2017,1,197078,231457,0.61,-0.34,10.00,-0.04,0.00,-0.01,33.43
7689177,2031,1,196991,231662,0.61,-0.33,9.96,-0.03,-0.01,-0.00,33.43
7729194,2019,1,196999,231782,0.62,-0.31,9.99,-0.03,-0.01,-0.00,33.43
7769197,2027,1,196974,231912,0.60,-0.33,9.99,-0.03,-0.01,-0.00,33.43
7809194,2033,1,197003,231971,0.61,-0.32,10.00,-0.03,-0.02,-0.00,33.43
7849197,1991,1,197030,231970,0.59,-0.32,9.96,-0.03,-0.01,-0.00,33.43
7889194,2011,1,197206,231878,0.61,-0.34,9.97,-0.03,-0.02,-0.00,33.43
7929197,2027,1,197334,231927,0.63,-0.31,9.98,-0.03,-0.02,-0.00,33.43
7969193,2016,1,197228,231091,0.65,-0.32,9.98,-0.04,-0.01,-0.00,33.43
8009197,1986,1,196975,230312,0.62,-0.32,9.96,-0.03,-0.01,-0.00,33.43
8049194,1981,1,196765,230092,0.63,-0.31,9.96,-0.03,-0.01,-0.00,33.43
8089197,1968,1,196683,230185,0.63,-0.32,9.99,-0.04,-0.00,-0.01,33.43
8129194,1980,1,196625,230476,0.62,-0.31,10.01,-0.03,0.01,-0.01,33.43
8168177,1955,1,196638,230655,0.61,-0.32,10.01,-0.03,-0.02,-0.00,33.43
8208194,1968,1,196734,230725,0.62,-0.30,9.96,-0.03,-0.01,-0.00,33.43
8248197,1986,1,196756,230768,0.61,-0.32,9.99,-0.03,-0.01,-0.00,33.43
8288194,2000,1,196829,230811,0.62,-0.33,10.00,-0.03,-0.01,-0.00,33.43
8328197,1891,1,196881,230947,0.62,-0.32,9.97,-0.03,-0.01,-0.00,33.43
8368194,1914,1,196974,231031,0.61,-0.33,9.98,-0.03,-0.01,-0.00,33.43
8408197,1927,1,197031,231232,0.64,-0.33,9.99,-0.03,-0.02,-0.00,33.43
8448194,1913,1,197203,231440,0.63,-0.34,9.96,-0.03,-0.01,-0.00,33.43
8488197,1954,1,197218,231780,0.62,-0.32,10.01,-0.04,-0.01,-0.00,33.43
8528194,1903,1,197201,232070,0.62,-0.32,9.97,-0.03,-0.01,-0.00,33.43
8568197,1893,1,197237,232256,0.64,-0.31,9.98,-0.04,-0.00,-0.00,33.43
8608880,1886,1,197135,231499,0.64,-0.32,9.98,-0.03,-0.01,-0.00,33.29
8649197,1887,1,196720,230547,0.62,-0.32,9.98,-0.03,-0.01,-0.00,33.29
8689194,1921,1,196450,230222,0.64,-0.33,10.00,-0.04,-0.01,-0.01,33.29
8729197,1881,1,196341,230150,0.63,-0.33,9.98,-0.03,-0.00,-0.01,33.29
8769240,1887,1,196383,230033,0.61,-0.31,10.00,-0.03,-0.02,-0.00,33.29
8809197,1905,1,196473,230283,0.62,-0.33,9.99,-0.03,-0.02,-0.00,33.29
8849194,1909,1,196648,230481,0.62,-0.31,10.00,-0.03,-0.01,-0.00,33.29
8889197,1836,1,196771,230667,0.62,-0.33,10.00,-0.03,-0.01,-0.00,33.29
8929193,1856,1,196839,230891,0.62,-0.34,9.99,-0.03,-0.01,-0.01,33.29
8969197,1857,1,196831,231039,0.62,-0.30,9.98,-0.03,-0.00,-0.01,33.29
9009193,1850,1,196943,231241,0.63,-0.33,9.98,-0.03,-0.02,-0.00,33.29
9049197,1899,1,197004,231432,0.62,-0.32,9.98,-0.03,-0.01,-0.00,33.29
9089194,1830,1,197065,231579,0.62,-0.33,9.98,-0.03,-0.01,-0.00,33.29
9129197,1840,1,197077,231804,0.62,-0.32,9.99,-0.03,-0.01,-0.00,33.29
9169194,1890,1,197129,231848,0.62,-0.33,10.00,-0.03,-0.01,-0.00,33.29
9208197,1839,1,197270,231990,0.60,-0.32,9.98,-0.03,-0.02,-0.00,33.29
9248194,1838,1,197332,232140,0.62,-0.33,9.97,-0.03,-0.01,-0.00,33.29
9288197,1823,1,197358,232289,0.60,-0.32,9.97,-0.03,-0.01,-0.00,33.29
9328194,1840,1,197256,231562,0.63,-0.31,10.00,-0.03,-0.01,-0.00,33.29
9368197,1877,1,196819,230662,0.62,-0.32,9.95,-0.04,-0.01,-0.01,33.29
9408197,1798,1,196595,230316,0.63,-0.34,10.00,-0.03,-0.01,-0.00,33.29
9448197,1813,1,196594,230192,0.63,-0.33,9.97,-0.03,-0.01,-0.00,33.29
9488194,1799,1,196589,230270,0.61,-0.33,9.98,-0.03,-0.01,-0.00,33.29
9528197,1834,1,196634,230560,0.61,-0.31,10.00,-0.03,-0.01,-0.00,33.29
9568194,1821,1,196736,230813,0.65,-0.32,9.99,-0.03,-0.01,-0.00,33.29
9608197,1853,1,196825,230851,0.60,-0.32,9.97,-0.03,-0.01,-0.00,33.29
9648880,1825,1,196886,230951,0.62,-0.32,9.97,-0.03,-0.01,-0.00,33.17
9687197,1850,1,196909,231042,0.64,-0.30,9.99,-0.03,-0.01,-0.00,33.17
9727193,1827,1,196924,231297,0.62,-0.33,10.00,-0.03,-0.01,-0.00,33.17
9767197,1911,1,197047,231425,0.62,-0.30,9.98,-0.03,-0.01,-0.00,33.17
9807193,1863,1,197186,231642,0.62,-0.30,9.98,-0.03,-0.01,-0.00,33.17
9847197,1874,1,197332,231774,0.65,-0.33,9.96,-0.04,-0.01,-0.00,33.17
9887194,1840,1,197413,231840,0.64,-0.34,9.99,-0.03,-0.02,-0.00,33.17
9927197,1898,1,197533,231965,0.62,-0.33,9.96,-0.03,-0.01,-0.00,33.17
9967194,1865,1,197478,231458,0.62,-0.32,9.98,-0.03,-0.00,-0.00,33.17
10007197,1825,1,196954,230764,0.61,-0.31,9.97,-0.04,-0.00,-0.00,33.17
10047194,1711,1,196744,230406,0.61,-0.33,10.01,-0.03,-0.01,-0.00,33.17
10087197,1856,1,196821,230292,0.62,-0.32,9.98,-0.03,-0.03,-0.00,33.17
10127197,1917,1,197039,230182,0.63,-0.31,9.99,-0.03,-0.02,-0.00,33.17
10167197,1835,1,197168,230383,0.63,-0.32,9.99,-0.03,-0.01,-0.00,33.17
10208197,1837,1,197249,230761,0.62,-0.31,9.99,-0.04,-0.00,-0.00,33.17
10248197,1827,1,197303,231038,0.63,-0.32,9.97,-0.04,-0.01,-0.00,33.17
10288197,1840,1,197391,231238,0.62,-0.33,10.00,-0.03,-0.01,-0.01,33.17
10328197,1856,1,197488,231351,0.63,-0.32,9.99,-0.03,-0.01,-0.00,33.17
10368197,1818,1,197632,231594,0.63,-0.31,9.97,-0.03,-0.02,-0.00,33.17
10408204,1842,1,197687,231906,0.63,-0.32,10.00,-0.04,-0.00,-0.00,33.17
10448194,1850,1,197679,232248,0.62,-0.32,9.97,-0.04,-0.00,-0.00,33.17
10488197,1827,1,197798,232353,0.61,-0.32,9.98,-0.03,-0.02,-0.00,33.17
10528194,1808,1,197880,232447,0.64,-0.33,9.97,-0.03,-0.02,-0.00,33.17
10568197,1821,1,198016,232329,0.62,-0.31,9.99,-0.03,-0.02,-0.00,33.17
10608194,1805,1,197721,231223,0.64,-0.32,9.98,-0.03,-0.01,-0.01,33.17
10648197,1821,1,197291,230505,0.63,-0.30,9.99,-0.03,-0.01,-0.00,33.17
10688881,1831,1,197112,230395,0.63,-0.30,9.97,-0.04,-0.01,-0.00,32.99
10727197,1797,1,197128,230596,0.63,-0.32,9.99,-0.03,-0.01,-0.00,32.99
10767197,1840,1,197212,230792,0.63,-0.34,10.01,-0.03,-0.01,-0.00,32.99
10807197,1814,1,197386,231180,0.65,-0.32,9.98,-0.03,-0.01,-0.01,32.99
10847197,1831,1,197515,231386,0.64,-0.31,9.98,-0.03,-0.01,-0.00,32.99
10887197,1808,1,197598,231578,0.64,-0.32,9.97,-0.03,-0.01,-0.00,32.99
10927197,1808,1,197646,231714,0.64,-0.32,10.00,-0.03,-0.01,-0.00,32.99
10967197,1778,1,197804,231987,0.64,-0.34,9.95,-0.03,-0.01,-0.00,32.99
11007198,1777,1,197909,232203,0.63,-0.33,9.98,-0.03,-0.01,-0.00,32.99
11047197,1776,1,198045,232474,0.66,-0.32,9.99,-0.03,-0.01,-0.00,32.99
11087197,1810,1,198061,232671,0.64,-0.34,9.98,-0.03,-0.01,-0.00,32.99
11127197,1799,1,198180,232850,0.63,-0.31,9.98,-0.03,-0.01,-0.00,32.99
11167198,1838,1,198249,232986,0.64,-0.31,9.96,-0.03,-0.01,-0.01,32.99
11207197,1823,1,198305,232441,0.65,-0.31,9.98,-0.03,-0.01,-0.00,32.99
11247198,1812,1,197876,231246,0.63,-0.32,9.98,-0.03,-0.01,-0.01,32.99
11287197,1840,1,197572,230747,0.63,-0.32,9.98,-0.03,-0.01,-0.00,32.99
11327197,1840,1,197442,230916,0.65,-0.32,9.97,-0.03,-0.01,-0.00,32.99
11367197,1842,1,197569,231353,0.64,-0.33,9.97,-0.03,-0.01,-0.00,32.99
11407197,1867,1,197621,232199,0.67,-0.34,9.95,-0.03,-0.01,-0.00,32.99
11447197,1839,1,197870,233284,0.67,-0.31,9.98,-0.03,-0.01,-0.01,32.99
11487197,1817,1,197935,233639,0.63,-0.33,9.98,-0.03,-0.01,-0.00,32.99
11527197,1827,1,197819,233866,0.64,-0.33,9.97,-0.03,-0.01,-0.00,32.99
11567197,1818,1,197773,234484,0.66,-0.31,9.99,-0.04,0.00,-0.01,32.99
11607177,1821,1,197851,235634,0.63,-0.34,9.98,-0.04,-0.00,-0.01,32.99
11647198,1789,1,198194,237014,0.61,-0.30,10.00,-0.04,-0.02,-0.01,32.99
11687197,1783,1,198519,237537,0.62,-0.33,9.99,-0.03,-0.02,-0.00,32.99
11727881,1758,1,198743,237750,0.63,-0.32,10.00,-0.03,-0.01,-0.00,32.81
11768198,1733,1,198848,237714,0.62,-0.33,10.00,-0.03,-0.01,-0.00,32.81
11808194,1714,1,198887,237417,0.63,-0.32,9.98,-0.03,-0.01,-0.00,32.81
11848227,1714,1,198510,234083,0.62,-0.30,9.97,-0.03,-0.01,-0.00,32.81
11888194,1678,1,196989,232065,0.64,-0.33,9.97,-0.03,-0.00,-0.01,32.81
11928197,1700,1,196636,232676,0.66,-0.33,9.99,-0.04,-0.00,-0.00,32.81
11968194,1677,1,197052,234410,0.62,-0.32,9.98,-0.03,-0.00,-0.00,32.81
12008197,1663,1,197310,235129,0.62,-0.30,10.01,-0.04,-0.00,-0.01,32.81
12048222,1653,1,197430,235361,0.62,-0.35,9.98,-0.03,-0.01,-0.00,32.81
12088197,1646,1,197372,235385,0.64,-0.31,9.97,-0.03,-0.02,-0.00,32.81
12128194,1635,1,197351,235507,0.64,-0.34,9.98,-0.03,-0.02,-0.00,32.81
12168197,1649,1,197399,235857,0.62,-0.30,10.01,-0.03,-0.02,-0.00,32.81
12208194,1646,1,197480,236313,0.64,-0.33,9.97,-0.04,-0.02,-0.00,32.81
12248220,1629,1,197649,236949,0.62,-0.32,9.96,-0.04,-0.01,-0.00,32.81
12288197,1607,1,197727,237339,0.62,-0.35,9.97,-0.04,-0.01,-0.00,32.81
12328197,1626,1,197772,237646,0.63,-0.33,9.99,-0.04,-0.01,-0.01,32.81
12368197,1649,1,197824,237811,0.65,-0.33,9.96,-0.04,-0.02,-0.00,32.81
12408197,1658,1,197835,237838,0.65,-0.32,9.96,-0.04,-0.02,-0.00,32.81
12448194,1687,1,197642,236722,0.66,-0.34,9.99,-0.04,-0.02,-0.00,32.81
12488197,1707,1,197121,235971,0.67,-0.32,9.95,-0.04,-0.02,-0.00,32.81
12528194,1698,1,197106,236388,0.65,-0.33,10.01,-0.04,-0.02,-0.00,32.81
12568197,1729,1,197296,236899,0.66,-0.33,9.97,-0.04,-0.01,-0.00,32.81
12608197,1728,1,197433,237220,0.67,-0.33,9.99,-0.04,-0.02,-0.00,32.81
12648197,1712,1,197493,237464,0.68,-0.33,9.95,-0.03,-0.02,-0.00,32.81
12688194,1723,1,197566,237764,0.67,-0.35,9.98,-0.03,-0.01,-0.00,32.81
12728884,1729,1,197602,237840,0.67,-0.34,9.97,-0.04,-0.02,-0.00,32.89
12767194,1734,1,197531,237802,0.69,-0.35,9.99,-0.04,-0.02,-0.00,32.89
12807197,1714,1,197497,237742,0.69,-0.34,9.96,-0.04,-0.02,-0.00,32.89
12847194,1761,1,197473,237633,0.70,-0.36,9.95,-0.04,-0.02,-0.00,32.89
12887198,1712,1,197386,237268,0.67,-0.35,9.99,-0.03,-0.01,-0.00,32.89
12927195,1783,1,197236,236881,0.64,-0.32,10.04,-0.03,-0.02,-0.00,32.89
12967197,1792,1,197225,236864,0.70,-0.33,9.96,-0.03,-0.02,-0.00,32.89
13007194,1825,1,197193,236310,0.68,-0.36,9.97,-0.03,-0.01,-0.00,32.89
13047197,1811,1,196550,234348,0.66,-0.33,9.96,-0.03,-0.01,-0.00,32.89
13087197,1843,1,196110,234559,0.67,-0.35,9.98,-0.03,-0.01,-0.01,32.89
13127197,1844,1,196402,235232,0.65,-0.33,9.97,-0.03,0.00,-0.01,32.89
13167175,1850,1,196500,235466,0.69,-0.34,9.98,-0.03,-0.01,-0.00,32.89
13207197,1847,1,196564,235830,0.70,-0.34,9.96,-0.04,-0.01,-0.01,32.89
13247195,1844,1,196798,236241,0.68,-0.35,9.98,-0.03,-0.00,-0.00,32.89
13287197,1872,1,196802,236314,0.68,-0.34,9.97,-0.03,-0.01,-0.00,32.89
13327198,1883,1,196820,236520,0.70,-0.34,9.99,-0.03,-0.01,-0.00,32.89
13367197,1863,1,196875,236575,0.66,-0.34,10.01,-0.03,-0.01,-0.00,32.89
13407197,1872,1,196844,236333,0.69,-0.32,9.96,-0.03,-0.01,-0.00,32.89
13447197,1854,1,196701,236147,0.68,-0.34,10.00,-0.03,-0.01,-0.00,32.89
13487197,1897,1,196732,236026,0.68,-0.34,9.96,-0.03,-0.01,-0.00,32.89
13527197,1904,1,196702,235815,0.69,-0.33,9.98,-0.03,-0.01,-0.00,32.89
13567198,1887,1,196707,235508,0.69,-0.32,9.99,-0.03,-0.02,-0.00,32.89
13607197,1876,1,196379,232531,0.70,-0.34,9.96,-0.03,0.01,-0.01,32.89
13647174,1920,1,194891,230341,0.69,-0.34,9.98,-0.03,0.01,-0.00,32.89
13687177,1875,1,194530,230208,0.63,-0.34,10.01,-0.03,0.00,-0.01,32.89
13727174,1882,1,194609,230403,0.69,-0.34,9.99,-0.03,-0.01,-0.00,32.89
13767883,1833,1,194688,230440,0.67,-0.34,9.99,-0.03,-0.02,-0.00,32.97
13808194,1883,1,194855,230634,0.67,-0.33,10.01,-0.03,-0.02,-0.00,32.97
13848197,1867,1,195087,231058,0.67,-0.32,9.97,-0.03,-0.02,-0.00,32.97
13886214,1847,1,195199,231714,0.68,-0.33,9.96,-0.04,-0.00,-0.01,32.97
13926197,1889,1,195402,232804,0.69,-0.32,9.95,-0.04,0.00,-0.01,32.97
13966174,1898,1,195558,232932,0.65,-0.34,10.01,-0.04,-0.01,-0.01,32.97
14006197,1878,1,195626,233090,0.66,-0.32,9.97,-0.03,-0.03,-0.00,32.97
14046194,1860,1,195831,233605,0.70,-0.35,9.96,-0.04,-0.02,-0.00,32.97
14086197,1876,1,196074,234143,0.68,-0.34,9.97,-0.04,-0.01,-0.00,32.97
14126197,1878,1,196293,234713,0.67,-0.35,9.99,-0.04,-0.01,-0.00,32.97
14166197,1879,1,196226,233090,0.68,-0.33,9.97,-0.04,-0.01,-0.00,32.97
14206194,1872,1,195053,230901,0.71,-0.34,9.99,-0.04,-0.01,-0.00,32.97
14246197,1887,1,194719,230716,0.68,-0.34,9.99,-0.03,-0.02,-0.00,32.97
14286197,1847,1,194972,231097,0.68,-0.33,9.97,-0.03,-0.02,-0.00,32.97
14326197,1895,1,195142,231649,0.70,-0.33,9.97,-0.03,-0.02,-0.00,32.97
14366194,1901,1,195454,232592,0.71,-0.32,9.98,-0.03,-0.01,-0.00,32.97
14406197,1917,1,195844,233216,0.70,-0.32,9.95,-0.03,-0.02,-0.00,32.97
14446194,1903,1,196011,233455,0.68,-0.34,9.99,-0.03,-0.01,-0.00,32.97
14486197,1930,1,196058,233744,0.68,-0.34,9.95,-0.03,-0.02,-0.00,32.97
14526201,1931,1,196226,234355,0.71,-0.35,9.96,-0.03,-0.00,-0.00,32.97
14566197,1904,1,196376,234911,0.69,-0.36,9.96,-0.03,-0.00,-0.00,32.97
14606194,1893,1,196490,235197,0.68,-0.34,9.97,-0.03,-0.01,-0.00,32.97
14646197,1962,1,196510,235457,0.70,-0.34,10.00,-0.03,-0.01,-0.00,32.97
14686193,1909,1,196616,235783,0.71,-0.35,9.98,-0.03,-0.00,-0.01,32.97
14726197,1894,1,196354,233537,0.70,-0.34,9.99,-0.03,0.00,-0.01,32.97
14766174,1903,1,194963,231209,0.69,-0.33,9.98,-0.03,-0.01,-0.00,32.97
14806883,1851,1,194662,231438,0.69,-0.35,9.98,-0.03,-0.00,-0.00,32.71
14847194,1855,1,194881,231830,0.66,-0.34,10.00,-0.03,-0.01,-0.00,32.71
14887197,1836,1,194961,231969,0.70,-0.35,9.98,-0.03,-0.02,-0.00,32.71
14927194,1878,1,195192,232530,0.68,-0.34,9.96,-0.03,-0.01,-0.00,32.71
14967197,1885,1,195453,233015,0.68,-0.33,10.00,-0.03,-0.01,-0.00,32.71
15007194,1870,1,195567,233282,0.67,-0.35,9.97,-0.03,-0.02,-0.00,32.71
15047197,1875,1,195688,233716,0.69,-0.34,9.97,-0.03,-0.02,-0.00,32.71
15087194,1893,1,195782,234112,0.70,-0.34,9.97,-0.03,-0.01,-0.00,32.71
15127197,1872,1,195967,234804,0.70,-0.35,9.96,-0.04,-0.01,-0.00,32.71
15167194,1829,1,196219,235575,0.71,-0.36,9.96,-0.04,0.01,-0.01,32.71
15207177,1874,1,196349,235610,0.67,-0.34,10.01,-0.03,-0.01,-0.01,32.71
15247197,1853,1,196287,235564,0.69,-0.32,9.99,-0.03,-0.02,-0.00,32.71
15287197,1890,1,196145,233219,0.68,-0.35,9.99,-0.03,-0.02,-0.00,32.71
15327230,1871,1,194619,230214,0.72,-0.36,9.98,-0.03,-0.01,-0.00,32.71
15367197,1845,1,194253,230237,0.71,-0.36,9.93,-0.03,-0.01,-0.00,32.71
15407197,1861,1,194480,231149,0.68,-0.34,9.98,-0.04,-0.00,-0.01,32.71
15447197,1901,1,194785,231787,0.69,-0.35,10.01,-0.03,-0.02,-0.00,32.71
15487194,1863,1,195100,232708,0.71,-0.34,9.98,-0.03,-0.02,-0.00,32.71
15527233,1840,1,195483,233402,0.70,-0.36,9.96,-0.03,-0.01,-0.01,32.71
15567194,1843,1,195610,233853,0.71,-0.34,9.98,-0.03,-0.01,-0.00,32.71
15607197,1842,1,195760,234392,0.71,-0.34,9.95,-0.03,-0.00,-0.01,32.71
15647197,1871,1,195874,234687,0.68,-0.34,9.97,-0.03,-0.01,-0.00,32.71
15687197,1841,1,195958,234852,0.68,-0.34,9.96,-0.03,-0.02,-0.00,32.71
15727194,1856,1,196053,235024,0.71,-0.34,9.99,-0.03,-0.02,-0.00,32.71
15767197,1860,1,196195,235291,0.72,-0.36,9.98,-0.03,-0.01,-0.00,32.71
15807884,1847,1,196250,235699,0.70,-0.33,9.97,-0.04,-0.00,-0.01,32.69
15846197,1892,1,196326,234846,0.68,-0.35,10.00,-0.04,-0.01,-0.00,32.69
15886194,1886,1,195284,231907,0.68,-0.34,9.99,-0.03,-0.00,-0.01,32.69
15926197,1869,1,194593,231606,0.67,-0.35,9.95,-0.03,-0.01,-0.00,32.69
15966197,1884,1,194877,232498,0.69,-0.36,9.98,-0.03,-0.01,-0.00,32.69
16006198,1845,1,195159,233175,0.70,-0.34,9.96,-0.03,-0.01,-0.00,32.69
16046194,1870,1,195447,233768,0.69,-0.35,10.01,-0.03,-0.01,-0.00,32.69
16086197,1854,1,195601,234154,0.72,-0.35,10.01,-0.03,-0.01,-0.00,32.69
16126194,1834,1,195763,234188,0.71,-0.35,10.01,-0.03,-0.01,-0.00,32.69
16166197,1844,1,195713,234046,0.70,-0.33,10.00,-0.03,-0.02,-0.00,32.69
16206194,1855,1,195855,234452,0.69,-0.36,9.96,-0.03,-0.01,-0.00,32.69
16246197,1853,1,195941,234853,0.70,-0.33,9.99,-0.03,-0.01,-0.00,32.69
16286194,1855,1,196157,235415,0.70,-0.34,9.96,-0.03,-0.01,-0.01,32.69
16326197,1837,1,196262,235679,0.68,-0.37,10.00,-0.03,-0.00,-0.00,32.69
16366194,1819,1,196385,235713,0.67,-0.35,9.99,-0.03,-0.01,-0.00,32.69
16406197,1853,1,196306,234938,0.71,-0.34,9.98,-0.03,-0.02,-0.00,32.69
16446194,1798,1,195413,231570,0.69,-0.35,9.98,-0.03,-0.01,-0.00,32.69
16486197,1855,1,194547,230868,0.68,-0.33,9.99,-0.03,-0.01,-0.00,32.69
16526201,1831,1,194693,231817,0.71,-0.34,9.97,-0.03,-0.01,-0.01,32.69
16566197,1827,1,195050,232845,0.69,-0.34,9.98,-0.03,0.00,-0.00,32.69
16606175,1838,1,195405,233523,0.68,-0.34,9.99,-0.03,-0.01,-0.00,32.69
16646197,1847,1,195569,233813,0.69,-0.33,9.97,-0.03,-0.01,-0.00,32.69
16686197,1840,1,195642,233667,0.68,-0.34,10.00,-0.03,-0.01,-0.00,32.69
16726197,1856,1,195642,233615,0.70,-0.33,9.98,-0.03,-0.01,-0.00,32.69
16766194,1825,1,195642,233646,0.70,-0.33,9.98,-0.03,-0.01,-0.00,32.69
16806197,1840,1,195697,233742,0.71,-0.35,9.98,-0.03,-0.01,-0.00,32.69
16846884,1808,1,195817,234227,0.70,-0.33,9.97,-0.03,-0.00,-0.00,32.75
16887197,1814,1,195972,234817,0.70,-0.34,9.95,-0.04,-0.01,-0.00,32.75
16927194,1798,1,196130,235318,0.70,-0.34,9.97,-0.03,-0.01,-0.01,32.75
16967204,1843,1,196209,234431,0.68,-0.34,9.98,-0.03,-0.02,-0.00,32.75
17007194,1840,1,195179,230941,0.71,-0.34,9.97,-0.03,-0.01,-0.00,32.75
17047197,1830,1,194439,230404,0.72,-0.35,9.96,-0.03,-0.01,-0.00,32.75
17087197,1859,1,194572,231360,0.70,-0.34,9.97,-0.03,-0.01,-0.00,32.75
17127197,1846,1,195000,232344,0.70,-0.34,9.97,-0.03,-0.01,-0.00,32.75
17167214,1825,1,195271,233288,0.70,-0.35,9.95,-0.04,-0.01,-0.01,32.75
17207197,1813,1,195621,233745,0.70,-0.33,9.97,-0.03,-0.01,-0.00,32.75
17247194,1808,1,195631,233925,0.72,-0.34,9.96,-0.03,-0.01,-0.00,32.75
17287197,1808,1,195701,234425,0.68,-0.35,10.00,-0.03,-0.00,-0.00,32.75
17327194,1790,1,195840,234888,0.69,-0.35,9.98,-0.03,-0.00,-0.00,32.75
17367211,1771,1,195916,235068,0.67,-0.35,9.98,-0.03,-0.01,-0.00,32.75
17407197,1714,1,195934,235222,0.70,-0.35,9.97,-0.03,-0.01,-0.00,32.75
17447197,1712,1,196054,235326,0.69,-0.34,9.98,-0.03,-0.01,-0.00,32.75
17487197,1672,1,196081,235433,0.70,-0.32,9.98,-0.03,-0.01,-0.01,32.75
17527197,1652,1,196082,234029,0.70,-0.33,9.98,-0.03,-0.01,-0.00,32.75
17567194,1669,1,194885,231177,0.67,-0.34,9.96,-0.03,-0.01,-0.00,32.75
17607197,1639,1,194470,231293,0.70,-0.33,9.96,-0.04,-0.01,-0.01,32.75
17647194,1633,1,194723,231941,0.70,-0.34,10.01,-0.03,-0.02,-0.00,32.75
17687197,1579,1,195051,232729,0.72,-0.34,9.97,-0.03,-0.01,-0.00,32.75
17727197,1610,1,195374,233904,0.71,-0.34,9.98,-0.03,-0.01,-0.00,32.75
17767197,1558,1,195691,234608,0.70,-0.34,9.97,-0.03,-0.01,-0.01,32.75
17807197,1557,1,195815,234664,0.68,-0.34,10.01,-0.03,-0.01,-0.00,32.75
17847884,1525,1,195808,234616,0.70,-0.34,9.96,-0.03,-0.02,-0.00,32.49
17886194,1566,1,195883,234679,0.71,-0.33,9.97,-0.03,-0.01,-0.01,32.49
17926197,1506,1,195914,235062,0.71,-0.34,9.97,-0.03,-0.00,-0.00,32.49
17966194,1488,1,196096,235576,0.68,-0.35,9.98,-0.03,-0.00,-0.00,32.49
18006197,1451,1,196180,235682,0.71,-0.35,9.98,-0.03,-0.02,-0.00,32.49
18046194,1488,1,196296,235738,0.72,-0.35,9.99,-0.03,-0.02,-0.00,32.49
18086197,1423,1,196085,233411,0.71,-0.35,9.96,-0.03,-0.02,-0.00,32.49
18126194,1443,1,194909,231486,0.72,-0.34,9.97,-0.03,-0.01,-0.00,32.49
18166197,1402,1,194765,232263,0.71,-0.34,9.96,-0.03,-0.00,-0.01,32.49
18206194,1392,1,195183,233258,0.68,-0.33,9.99,-0.03,-0.01,-0.00,32.49
18246197,1398,1,195394,233517,0.70,-0.35,9.99,-0.03,-0.02,-0.00,32.49
18286194,1386,1,195604,233926,0.72,-0.35,9.99,-0.03,-0.01,-0.00,32.49
18326197,1361,1,195755,234182,0.72,-0.35,9.98,-0.03,-0.02,-0.00,32.49
18366197,1321,1,195842,234518,0.71,-0.35,9.96,-0.03,-0.00,-0.01,32.49
18406197,1284,1,195920,234958,0.70,-0.34,9.98,-0.03,-0.01,-0.00,32.49
18446194,1310,1,196035,235103,0.69,-0.35,9.99,-0.03,-0.01,-0.00,32.49
18486197,1315,1,196106,235297,0.73,-0.34,9.98,-0.03,-0.02,-0.00,32.49
18526201,1323,1,196212,235493,0.72,-0.35,9.95,-0.03,-0.01,-0.00,32.49
18566197,1374,1,196293,235751,0.72,-0.33,9.98,-0.03,-0.00,-0.00,32.49
18606228,1366,1,196396,235787,0.69,-0.33,9.98,-0.03,-0.01,-0.00,32.49
18646197,1392,1,195851,232637,0.70,-0.34,10.01,-0.03,-0.01,-0.00,32.49
18686194,1419,1,194719,231102,0.73,-0.34,10.00,-0.03,-0.01,-0.00,32.49
18726197,1365,1,194688,231712,0.73,-0.36,9.97,-0.03,-0.01,-0.00,32.49
18766197,1481,1,195118,232853,0.70,-0.35,9.98,-0.03,-0.00,-0.00,32.49
18806230,1472,1,195484,233774,0.70,-0.35,9.97,-0.03,-0.00,-0.00,32.49
18846194,1517,1,195782,234704,0.71,-0.33,9.99,-0.03,-0.00,-0.00,32.49
18886884,1535,1,196023,234997,0.71,-0.33,9.99,-0.04,-0.01,-0.01,32.27
18925197,1633,1,196001,234863,0.69,-0.34,9.98,-0.03,-0.01,-0.00,32.27
18965197,1671,1,195974,234717,0.72,-0.36,9.96,-0.03,-0.01,-0.00,32.27
19005197,1709,1,195923,234665,0.71,-0.34,9.98,-0.03,-0.01,-0.00,32.27
19045197,1729,1,195972,234863,0.70,-0.35,9.96,-0.03,-0.01,-0.00,32.27
19085194,1766,1,196075,235158,0.71,-0.36,9.99,-0.03,-0.01,-0.00,32.27
19125197,1789,1,196168,235294,0.70,-0.35,9.98,-0.03,-0.01,-0.00,32.27
19165194,1855,1,196197,234706,0.73,-0.34,10.01,-0.03,-0.02,-0.00,32.27
19205197,1872,1,195335,231632,0.70,-0.34,10.00,-0.03,-0.01,-0.00,32.27
19245194,1935,1,194549,231036,0.72,-0.33,9.96,-0.03,-0.01,-0.00,32.27
19285197,1972,1,194725,232166,0.69,-0.35,9.97,-0.03,-0.00,-0.00,32.27
19325194,1967,1,195107,233180,0.72,-0.34,9.97,-0.03,-0.00,-0.01,32.27
19365197,2016,1,195318,233205,0.68,-0.34,10.01,-0.03,-0.01,-0.00,32.27
19405197,2019,1,195425,233217,0.73,-0.35,9.96,-0.03,-0.03,-0.00,32.27
19445197,2063,1,195501,233241,0.70,-0.34,10.01,-0.03,-0.01,-0.00,32.27
19485194,2047,1,195546,233751,0.72,-0.34,9.94,-0.04,-0.00,-0.00,32.27
19525204,2064,1,195732,234393,0.71,-0.33,9.98,-0.03,-0.00,-0.00,32.27
19565194,2071,1,195841,234533,0.68,-0.34,10.02,-0.03,-0.01,-0.00,32.27
19605197,2122,1,195873,234736,0.69,-0.37,9.95,-0.03,-0.02,-0.00,32.27
19645194,2133,1,196029,235063,0.72,-0.34,10.01,-0.03,-0.01,-0.00,32.27
19685197,2098,1,196139,235487,0.72,-0.35,9.97,-0.03,-0.00,-0.01,32.27
19725197,2090,1,195925,233625,0.69,-0.35,9.97,-0.03,-0.00,-0.00,32.27
19765198,2064,1,194823,231632,0.70,-0.34,10.02,-0.03,-0.01,-0.01,32.27
19805195,2110,1,194613,231743,0.71,-0.34,9.95,-0.03,-0.02,-0.00,32.27
19845197,2094,1,194872,232344,0.72,-0.34,9.96,-0.03,-0.01,-0.00,32.27
19885198,2103,1,195080,233005,0.70,-0.33,9.96,-0.03,-0.01,-0.00,32.27
19925884,2070,1,195473,234046,0.71,-0.35,9.98,-0.03,-0.00,-0.00,32.33
19966194,2083,1,195700,234066,0.71,-0.33,10.00,-0.03,-0.01,-0.00,32.33
20006197,2082,1,195713,234193,0.72,-0.35,9.94,-0.03,-0.02,-0.00,32.33
20046194,2032,1,195777,234479,0.70,-0.36,9.99,-0.03,-0.01,-0.00,32.33
20086197,2057,1,195895,235228,0.73,-0.33,9.96,-0.03,-0.00,-0.00,32.33
20126194,2006,1,196139,235839,0.71,-0.34,9.98,-0.04,0.01,-0.00,32.33
20166176,2030,1,196195,235900,0.71,-0.36,10.01,-0.03,-0.01,-0.00,32.33
20206197,1993,1,196280,235848,0.71,-0.35,9.99,-0.03,-0.01,-0.00,32.33
20245203,2000,1,196200,234340,0.69,-0.35,9.98,-0.03,-0.02,-0.00,32.33
20285195,2003,1,195010,231486,0.71,-0.34,9.97,-0.03,-0.01,-0.00,32.33
20325197,1972,1,194552,231495,0.72,-0.34,9.96,-0.03,-0.01,-0.00,32.33
20365197,2032,1,194839,232680,0.72,-0.33,9.98,-0.03,-0.01,-0.00,32.33
20405197,1974,1,195200,233362,0.70,-0.33,10.01,-0.04,-0.01,-0.00,32.33
20445221,1920,1,195457,234205,0.71,-0.35,9.96,-0.03,-0.01,-0.00,32.33
20485197,1945,1,195722,234956,0.72,-0.35,9.99,-0.03,-0.00,-0.01,32.33
20525203,1961,1,195863,234824,0.69,-0.36,10.03,-0.03,-0.01,-0.00,32.33
20565197,1930,1,195753,234609,0.71,-0.33,9.98,-0.03,-0.02,-0.00,32.33
20605194,1902,1,195842,234772,0.71,-0.32,9.98,-0.03,-0.01,-0.00,32.33
20645211,1907,1,195901,235043,0.74,-0.35,9.98,-0.03,-0.01,-0.00,32.33
20685197,1939,1,196042,235489,0.71,-0.34,9.96,-0.03,-0.00,-0.00,32.33
20725198,1879,1,196178,235694,0.73,-0.34,10.01,-0.04,-0.00,-0.01,32.33
20765197,1919,1,196188,235182,0.70,-0.34,9.98,-0.03,-0.03,-0.00,32.33
20805197,1932,1,195566,232054,0.70,-0.35,9.98,-0.03,-0.02,-0.00,32.33
20845194,1909,1,194731,231179,0.73,-0.34,9.95,-0.04,-0.02,-0.00,32.33
20885197,1931,1,194803,231994,0.72,-0.33,9.99,-0.03,-0.00,-0.00,32.33
20925194,1872,1,195101,232916,0.70,-0.34,9.96,-0.03,-0.00,-0.01,32.33
20965884,1856,1,195387,233403,0.71,-0.34,10.00,-0.03,-0.01,-0.00,32.35
21006194,1856,1,195631,233878,0.74,-0.34,9.98,-0.03,-0.02,-0.00,32.35
21046197,1849,1,195785,233852,0.74,-0.34,9.98,-0.03,-0.01,-0.00,32.35
21086197,1850,1,195761,233787,0.71,-0.34,9.95,-0.03,-0.01,-0.00,32.35
21126197,1887,1,195835,234072,0.71,-0.33,9.97,-0.03,-0.01,-0.00,32.35
21166210,1841,1,195995,234588,0.70,-0.35,9.99,-0.03,-0.01,-0.00,32.35
21206197,1898,1,196098,234760,0.69,-0.37,10.00,-0.03,-0.01,-0.01,32.35
21246197,1872,1,196121,234944,0.70,-0.36,9.98,-0.03,-0.01,-0.00,32.35
21285197,1893,1,196188,235030,0.70,-0.34,9.99,-0.03,-0.01,-0.01,32.35
21325197,1840,1,196065,233321,0.73,-0.34,9.98,-0.03,-0.01,-0.01,32.35
21365197,1862,1,194949,231488,0.72,-0.34,9.97,-0.03,0.00,-0.00,32.35
21405175,1901,1,194696,231770,0.70,-0.34,10.01,-0.04,-0.00,-0.00,32.35
21445197,1857,1,194891,232242,0.70,-0.34,10.02,-0.03,-0.02,-0.00,32.35
21485194,1887,1,195044,232580,0.71,-0.34,9.96,-0.03,-0.01,-0.00,32.35
21525204,1874,1,195324,233433,0.73,-0.36,9.96,-0.03,-0.01,-0.00,32.35
21565197,1833,1,195555,233876,0.71,-0.31,9.99,-0.03,-0.01,-0.00,32.35
21605197,1856,1,195621,233765,0.71,-0.35,10.00,-0.03,-0.01,-0.00,32.35
21645194,1852,1,195588,233892,0.71,-0.36,9.98,-0.03,-0.01,-0.00,32.35
21685197,1849,1,195703,234090,0.70,-0.34,9.98,-0.03,-0.01,-0.00,32.35
21725194,1877,1,195778,234404,0.70,-0.34,9.99,-0.03,-0.01,-0.00,32.35
21765197,1872,1,195893,234671,0.71,-0.33,9.99,-0.03,-0.01,-0.00,32.35
21805197,1870,1,195991,234841,0.72,-0.36,10.00,-0.03,-0.01,-0.00,32.35
21845197,1866,1,195987,234088,0.72,-0.34,9.96,-0.03,-0.01,-0.00,32.35
21885211,1871,1,195130,231276,0.71,-0.35,9.97,-0.03,-0.01,-0.00,32.35
21925197,1870,1,194574,230897,0.70,-0.34,9.96,-0.03,-0.01,-0.00,32.35
21965881,1845,1,194729,232006,0.73,-0.34,9.96,-0.03,-0.01,-0.00,32.39
22006197,1891,1,195143,232783,0.73,-0.36,10.00,-0.04,-0.00,-0.01,32.39
22046194,1841,1,195250,233144,0.71,-0.33,9.97,-0.03,-0.02,-0.00,32.39
22086251,1884,1,195544,233632,0.70,-0.35,9.95,-0.03,-0.02,-0.00,32.39
22126194,1872,1,195659,233966,0.74,-0.33,9.96,-0.03,-0.01,-0.00,32.39
22166197,1850,1,195752,234394,0.72,-0.35,9.95,-0.03,-0.01,-0.00,32.39
22206197,1841,1,195833,234844,0.72,-0.34,9.99,-0.04,-0.00,-0.01,32.39
22246197,1891,1,195949,235039,0.72,-0.34,9.96,-0.03,-0.01,-0.00,32.39
22286225,1856,1,195964,235193,0.70,-0.36,9.98,-0.03,-0.02,-0.00,32.39
22326197,1859,1,196036,235421,0.72,-0.32,9.96,-0.03,-0.01,-0.01,32.39
22366197,1804,1,196085,235192,0.72,-0.36,9.96,-0.03,-0.01,-0.00,32.39
22406197,1783,1,195493,232498,0.72,-0.33,9.99,-0.03,-0.01,-0.00,32.39
22446197,1893,1,194635,231593,0.71,-0.32,9.96,-0.03,-0.01,-0.00,32.39
22486197,1863,1,194704,232171,0.72,-0.35,9.96,-0.03,-0.01,-0.00,32.39
22526201,1808,1,194958,232687,0.71,-0.35,9.97,-0.03,-0.01,-0.00,32.39
22566197,1872,1,195202,233564,0.71,-0.33,9.98,-0.03,-0.01,-0.00,32.39
22606197,1841,1,195559,234610,0.73,-0.34,9.96,-0.04,-0.00,-0.00,32.39
22646197,1911,1,195668,234598,0.71,-0.33,10.00,-0.03,-0.01,-0.00,32.39
22686194,1850,1,195696,234651,0.72,-0.34,9.95,-0.03,-0.02,-0.00,32.39
22726197,1830,1,195739,234852,0.72,-0.35,9.99,-0.03,-0.01,-0.00,32.39
22766197,1839,1,195815,235127,0.71,-0.35,9.97,-0.03,-0.00,-0.00,32.39
22806197,1819,1,195868,235421,0.71,-0.34,9.98,-0.03,-0.00,-0.01,32.39
22846194,1828,1,195964,235327,0.69,-0.37,10.00,-0.03,-0.01,-0.00,32.39
22886197,1872,1,196001,235223,0.70,-0.35,9.96,-0.03,-0.02,-0.00,32.39
22926194,1794,1,195722,232660,0.73,-0.34,9.99,-0.03,-0.01,-0.00,32.39
22966883,1831,1,194566,230764,0.74,-0.34,9.96,-0.03,-0.00,-0.00,32.35
23005194,1828,1,194313,231064,0.71,-0.36,9.96,-0.03,0.00,-0.00,32.35
23045177,1866,1,194464,231480,0.68,-0.37,10.00,-0.03,-0.01,-0.00,32.35
23085194,1881,1,194581,231640,0.70,-0.32,9.99,-0.03,-0.02,-0.00,32.35
23125197,1831,1,194864,232111,0.73,-0.35,9.97,-0.03,-0.01,-0.00,32.35
23165197,1847,1,195030,232451,0.74,-0.33,9.95,-0.03,-0.01,-0.00,32.35
23205197,1834,1,195144,232995,0.70,-0.34,9.99,-0.04,-0.00,-0.00,32.35
23245194,1806,1,195290,233315,0.70,-0.33,9.99,-0.04,-0.00,-0.00,32.35
23285197,1805,1,195266,233199,0.70,-0.33,9.99,-0.03,-0.02,-0.00,32.35
23325194,1790,1,195346,233412,0.74,-0.34,9.97,-0.03,-0.01,-0.00,32.35
23365197,1795,1,195520,233859,0.71,-0.34,9.97,-0.03,-0.01,-0.01,32.35
23405197,1775,1,195654,234424,0.70,-0.33,9.95,-0.03,-0.01,-0.00,32.35
23445198,1792,1,195741,233379,0.69,-0.36,9.96,-0.03,-0.01,-0.00,32.35
23485197,1778,1,194758,230618,0.70,-0.33,10.00,-0.03,-0.01,-0.00,32.35
23525204,1799,1,194313,230324,0.72,-0.34,9.98,-0.03,-0.02,-0.00,32.35
23565197,1757,1,194508,231093,0.72,-0.34,9.95,-0.03,-0.01,-0.00,32.35
23605197,1750,1,194819,231713,0.71,-0.33,9.97,-0.03,-0.01,-0.00,32.35
23645197,1783,1,195124,232579,0.74,-0.32,9.97,-0.03,-0.01,-0.00,32.35
23685197,1814,1,195377,233039,0.71,-0.34,9.99,-0.03,-0.01,-0.00,32.35
23725229,1821,1,195473,233346,0.71,-0.35,10.00,-0.03,-0.01,-0.00,32.35
23765197,1787,1,195583,233858,0.71,-0.36,9.99,-0.03,-0.01,-0.00,32.35
23805197,1797,1,195755,234390,0.71,-0.34,10.00,-0.03,-0.01,-0.00,32.35
23845197,1785,1,195867,234725,0.74,-0.32,9.98,-0.03,-0.01,-0.00,32.35
23885198,1774,1,196022,234952,0.71,-0.34,9.99,-0.03,-0.02,-0.00,32.35
23925203,1732,1,196170,235201,0.71,-0.35,9.99,-0.03,-0.01,-0.01,32.35
23965197,1748,1,196242,234521,0.71,-0.32,9.97,-0.03,-0.01,-0.00,32.35
24005884,1746,1,195331,231851,0.71,-0.37,9.96,-0.03,-0.01,-0.01,32.33
24044197,1819,1,194847,231733,0.71,-0.34,10.02,-0.03,-0.01,-0.00,32.33
24084197,1729,1,195027,232615,0.70,-0.35,10.01,-0.03,-0.01,-0.00,32.33
24124194,1803,1,195306,233305,0.70,-0.34,10.01,-0.03,-0.01,-0.00,32.33
24164197,1773,1,195646,234165,0.73,-0.34,9.94,-0.03,-0.01,-0.00,32.33
24204197,1666,1,195928,234419,0.71,-0.32,10.00,-0.03,-0.01,-0.00,32.33
24244197,1761,1,196030,234063,0.72,-0.34,9.99,-0.03,-0.02,-0.00,32.33
24284197,1712,1,196020,233572,0.73,-0.33,9.98,-0.03,-0.04,-0.00,32.33
24324197,1699,1,196158,233792,0.75,-0.33,9.94,-0.03,-0.03,0.00,32.33
24365174,1646,1,196295,234488,0.75,-0.35,10.01,-0.04,-0.00,-0.00,32.33
24405197,1617,1,196491,235156,0.75,-0.35,9.97,-0.04,-0.00,-0.00,32.33
24445194,1623,1,196586,235568,0.71,-0.35,9.96,-0.03,-0.00,-0.00,32.33
24485197,1605,1,196671,235416,0.73,-0.35,10.00,-0.03,-0.01,-0.00,32.33
24525203,1590,1,196000,232712,0.74,-0.33,9.97,-0.03,-0.01,-0.00,32.33
24565198,1567,1,195185,232019,0.74,-0.35,9.98,-0.03,-0.01,-0.00,32.33
24605197,1616,1,195325,232837,0.76,-0.35,9.96,-0.03,-0.01,-0.01,32.33
24645197,1630,1,195455,233120,0.74,-0.34,10.00,-0.03,-0.01,-0.00,32.33
24685194,1648,1,195609,233766,0.75,-0.35,9.95,-0.03,-0.01,-0.00,32.33
24725197,1647,1,195939,234365,0.73,-0.34,9.98,-0.04,-0.00,-0.00,32.33
24765194,1647,1,196054,234368,0.72,-0.35,9.99,-0.03,-0.01,-0.00,32.33
24805197,1626,1,196106,234652,0.75,-0.33,9.97,-0.03,-0.01,-0.00,32.33
24845197,1644,1,196164,235072,0.74,-0.35,10.00,-0.03,-0.01,-0.00,32.33
24885197,1680,1,196280,235446,0.74,-0.34,9.95,-0.03,-0.01,-0.00,32.33
24925197,1681,1,196325,235727,0.74,-0.34,9.97,-0.03,-0.01,-0.00,32.33
24965197,1661,1,196446,236023,0.73,-0.33,9.96,-0.03,-0.01,-0.00,32.33
25005884,1694,1,196513,235969,0.71,-0.36,9.98,-0.03,-0.01,-0.01,32.35
25044197,1722,1,196074,233407,0.73,-0.32,9.97,-0.03,-0.01,-0.00,32.35
25084197,1750,1,194940,231560,0.73,-0.34,9.97,-0.03,-0.01,-0.00,32.35
25124197,1747,1,194809,231787,0.73,-0.34,9.95,-0.03,-0.01,-0.00,32.35
25164197,1765,1,194878,232113,0.72,-0.35,9.99,-0.03,-0.01,-0.00,32.35
25204197,1766,1,195075,232593,0.74,-0.32,9.98,-0.03,-0.02,-0.00,32.35
25244197,1783,1,195446,233285,0.74,-0.33,9.98,-0.04,-0.01,-0.00,32.35
25284197,1840,1,195637,233558,0.75,-0.35,9.98,-0.03,-0.01,-0.00,32.35
25324197,1829,1,195783,233874,0.73,-0.35,9.97,-0.03,-0.01,-0.00,32.35
25365203,1824,1,195842,234231,0.73,-0.33,9.99,-0.03,-0.01,-0.00,32.35
25405197,1835,1,195998,234448,0.71,-0.33,9.98,-0.03,-0.01,-0.00,32.35
25445197,1852,1,196151,234612,0.73,-0.34,9.95,-0.03,-0.01,-0.00,32.35
25485197,1835,1,196230,234953,0.73,-0.36,10.00,-0.03,-0.01,-0.00,32.35
25525204,1856,1,196377,235274,0.74,-0.33,9.99,-0.03,-0.01,-0.01,32.35
25565222,1846,1,196442,233747,0.75,-0.34,9.99,-0.03,-0.01,-0.00,32.35
25605197,1841,1,195396,231897,0.74,-0.36,9.98,-0.03,-0.01,-0.00,32.35
25645197,1847,1,195114,232121,0.74,-0.33,9.98,-0.03,-0.01,-0.01,32.35
25685197,1878,1,195350,232858,0.71,-0.34,9.98,-0.03,-0.01,-0.00,32.35
25725197,1886,1,195590,233294,0.73,-0.34,9.98,-0.03,-0.00,-0.00,32.35
25765212,1877,1,195912,233587,0.74,-0.34,9.96,-0.03,-0.01,-0.00,32.35
25805197,1868,1,196242,233456,0.73,-0.34,9.99,-0.04,-0.01,-0.00,32.35
25845197,1856,1,196681,233526,0.72,-0.34,9.98,-0.04,-0.01,-0.01,32.35
25885197,1821,1,197720,234361,0.73,-0.35,9.99,-0.03,-0.01,-0.00,32.35
25925197,1840,1,198778,235560,0.75,-0.34,9.95,-0.03,-0.02,-0.00,32.35
25965197,1871,1,199603,236827,0.74,-0.35,9.97,-0.04,0.00,-0.00,32.35
26005864,1920,1,199940,237711,0.74,-0.33,10.02,-0.03,-0.00,-0.00,32.19
26044195,1872,1,200078,238102,0.72,-0.34,10.00,-0.03,-0.03,-0.00,32.19
26084197,1777,1,200212,237186,0.73,-0.34,10.01,-0.03,-0.03,-0.00,32.19
26124198,1739,1,199351,235255,0.78,-0.34,9.93,-0.03,-0.01,-0.00,32.19
26164197,1840,1,198643,235246,0.74,-0.34,9.99,-0.04,0.02,-0.01,32.19
26204177,1887,1,198599,236343,0.74,-0.34,9.96,-0.04,0.01,-0.01,32.19
26244177,1987,1,198367,236911,0.73,-0.34,9.96,-0.04,0.02,-0.01,32.19
26284177,1956,1,197909,237203,0.72,-0.34,9.97,-0.03,0.02,-0.01,32.19
26324177,2015,1,197767,236926,0.68,-0.34,10.02,-0.03,-0.01,-0.00,32.19
26364197,1984,1,197713,236223,0.70,-0.34,10.01,-0.03,-0.03,-0.00,32.19
26405197,1870,1,197784,235648,0.69,-0.33,10.00,-0.03,-0.04,-0.00,32.19
26445194,1853,1,197988,235965,0.77,-0.35,9.92,-0.03,-0.01,-0.00,32.19
26485197,2058,1,198094,236621,0.72,-0.34,9.96,-0.04,0.00,-0.00,32.19
26525182,1942,1,198230,237033,0.71,-0.34,10.03,-0.03,-0.01,-0.00,32.19
26565197,1841,1,198432,237423,0.72,-0.34,9.97,-0.03,-0.02,-0.00,32.19
26605197,1708,1,198551,237054,0.76,-0.36,9.97,-0.03,-0.02,-0.00,32.19
26645197,1584,1,197723,234109,0.74,-0.36,10.00,-0.03,-0.02,-0.00,32.19
26685194,1511,1,197015,233549,0.74,-0.34,9.97,-0.03,-0.02,-0.00,32.19
26725197,1442,1,197183,234327,0.72,-0.34,9.95,-0.03,-0.01,-0.00,32.19
26765197,1430,1,197490,235368,0.73,-0.37,9.96,-0.03,-0.01,-0.00,32.19
26805198,1408,1,197770,236513,0.75,-0.34,9.97,-0.03,-0.01,-0.00,32.19
26845197,1344,1,198133,237363,0.73,-0.34,9.96,-0.04,-0.01,-0.00,32.19
26885197,1296,1,198186,237726,0.73,-0.33,9.98,-0.03,-0.00,-0.01,32.19
26925197,1329,1,198139,237803,0.72,-0.35,9.98,-0.03,-0.01,-0.00,32.19
26965197,1277,1,198134,237972,0.74,-0.35,9.97,-0.03,-0.02,-0.00,32.19
27005884,1183,1,198236,238119,0.74,-0.35,9.97,-0.03,-0.01,-0.00,32.19
27044197,1322,1,198261,238364,0.75,-0.34,9.96,-0.03,-0.01,-0.01,32.19
27084197,1474,1,198328,238513,0.73,-0.36,9.99,-0.03,-0.01,-0.00,32.19
27124197,1606,1,198443,238449,0.73,-0.34,9.98,-0.03,-0.01,-0.00,32.19
27164198,1678,1,198074,235831,0.73,-0.33,9.97,-0.03,-0.01,-0.00,32.19
27204213,1709,1,196977,234346,0.72,-0.34,9.95,-0.03,-0.01,-0.00,32.19
27244197,1721,1,196927,234905,0.74,-0.34,9.97,-0.03,-0.01,-0.00,32.19
27284197,1714,1,197221,235698,0.73,-0.35,9.96,-0.03,-0.01,-0.00,32.19
27324197,1744,1,197553,236204,0.72,-0.34,9.98,-0.03,-0.01,-0.00,32.19
27364197,1759,1,197889,236826,0.73,-0.34,9.98,-0.03,-0.02,-0.00,32.19
27404198,1731,1,198154,237003,0.74,-0.36,9.98,-0.03,-0.02,-0.00,32.19
27444197,1713,1,198145,237089,0.74,-0.34,9.96,-0.03,-0.01,-0.00,32.19
27484197,1683,1,198169,237363,0.73,-0.34,10.00,-0.03,-0.00,-0.00,32.19
27524203,1566,1,198188,237660,0.74,-0.33,9.97,-0.03,-0.01,-0.00,32.19
27564197,1323,1,198281,238116,0.72,-0.33,9.98,-0.03,-0.02,-0.00,32.19
27604197,945,1,198421,238642,0.75,-0.35,9.92,-0.03,-0.02,-0.00,32.19
27644193,640,1,198289,239231,0.75,-0.32,9.94,-0.04,0.00,-0.00,32.19
27684177,768,1,197921,238417,0.74,-0.37,9.99,-0.04,0.02,-0.01,32.19
27724175,1114,1,197076,236670,0.72,-0.31,10.00,-0.04,0.00,-0.01,32.19
27764177,1486,1,196891,236096,0.71,-0.35,9.97,-0.03,-0.01,-0.01,32.19
27804197,1680,1,197201,236217,0.72,-0.36,9.97,-0.03,-0.03,-0.00,32.19
27844197,1739,1,197626,236652,0.72,-0.34,9.97,-0.03,-0.02,-0.00,32.19
27884197,1807,1,197969,237245,0.75,-0.34,9.96,-0.03,-0.02,-0.00,32.19
27924197,1895,1,198273,237519,0.75,-0.34,9.99,-0.03,-0.01,-0.00,32.19
27964197,2016,1,198325,237668,0.74,-0.33,10.00,-0.03,-0.01,-0.00,32.19
28004198,2030,1,198406,237889,0.74,-0.33,9.99,-0.03,-0.02,-0.00,32.19
28044884,2017,1,198435,238237,0.76,-0.33,9.97,-0.03,-0.01,-0.00,32.21
28085197,2027,1,198480,238643,0.74,-0.35,9.97,-0.03,-0.01,-0.01,32.21
28125197,2096,1,198639,238863,0.74,-0.34,9.98,-0.03,-0.01,-0.01,32.21
28165197,2065,1,198801,239029,0.73,-0.34,9.98,-0.03,-0.01,-0.00,32.21
28203197,2000,1,198700,237688,0.74,-0.34,9.96,-0.03,-0.01,-0.00,32.21
28243197,2047,1,197652,235364,0.75,-0.34,9.99,-0.03,-0.01,-0.00,32.21
28283197,2119,1,197231,235376,0.72,-0.35,9.96,-0.03,-0.01,-0.00,32.21
28323197,2029,1,197633,235950,0.74,-0.34,9.98,-0.03,-0.02,-0.00,32.21
28363197,1886,1,197936,236641,0.73,-0.35,10.00,-0.03,-0.02,-0.00,32.21
28403197,1759,1,198118,237607,0.77,-0.37,9.92,-0.03,-0.02,-0.00,32.21
28443197,1885,1,198393,238078,0.75,-0.34,10.01,-0.04,0.01,-0.00,32.21
28483177,1938,1,198397,238064,0.73,-0.32,10.00,-0.03,-0.02,-0.00,32.21
28523194,2030,1,198352,238195,0.75,-0.35,10.00,-0.03,-0.01,-0.00,32.21
28563197,2059,1,198354,238378,0.76,-0.36,9.99,-0.03,-0.01,-0.01,32.21
28603197,2083,1,198442,238584,0.75,-0.35,9.99,-0.03,-0.01,-0.00,32.21
28643197,2065,1,198560,238684,0.74,-0.33,9.99,-0.03,-0.01,-0.00,32.21
28683197,1999,1,198615,238811,0.74,-0.35,9.97,-0.03,-0.02,-0.00,32.21
28723197,2015,1,198681,237848,0.74,-0.35,9.99,-0.03,-0.01,-0.00,32.21
28763197,1949,1,197726,235355,0.75,-0.35,9.96,-0.03,-0.01,-0.00,32.21
28803197,1959,1,197211,235624,0.75,-0.34,9.94,-0.04,-0.00,-0.00,32.21
28843194,1917,1,197372,236473,0.73,-0.34,9.97,-0.03,-0.01,-0.00,32.21
28883197,1885,1,197702,237111,0.74,-0.36,9.96,-0.03,-0.01,-0.00,32.21
28923197,1887,1,197844,237860,0.74,-0.35,9.98,-0.03,-0.01,-0.00,32.21
28963197,1867,1,198001,238118,0.75,-0.34,9.98,-0.03,-0.01,-0.00,32.21
29003197,1899,1,198108,238196,0.75,-0.35,9.98,-0.03,-0.01,-0.00,32.21
29043204,1849,1,198075,238158,0.75,-0.35,9.98,-0.03,-0.01,-0.01,32.21
29083883,1826,1,198122,238259,0.74,-0.35,9.96,-0.03,-0.01,-0.00,32.25
29124197,1838,1,198226,238316,0.75,-0.34,9.96,-0.03,-0.01,-0.00,32.25
29164197,1680,1,198330,238521,0.75,-0.34,9.97,-0.03,-0.02,-0.00,32.25
29204197,1610,1,198450,238624,0.76,-0.34,9.99,-0.03,-0.02,-0.00,32.25
29244197,1570,1,198636,238045,0.75,-0.34,9.97,-0.04,-0.02,-0.00,32.25
29284197,1535,1,197881,235418,0.76,-0.35,9.94,-0.04,-0.01,-0.00,32.25
29324197,1616,1,197300,235176,0.74,-0.37,9.96,-0.04,0.00,-0.01,32.25
29364177,1591,1,197571,235975,0.72,-0.35,9.98,-0.03,-0.01,-0.00,32.25
29404197,1568,1,197842,236900,0.74,-0.34,9.93,-0.03,-0.01,-0.01,32.25
29444197,1646,1,198097,237718,0.74,-0.32,9.99,-0.04,0.00,-0.00,32.25
29484174,1661,1,198270,238065,0.74,-0.36,10.00,-0.03,-0.02,-0.00,32.25
29524203,1746,1,198290,238260,0.74,-0.32,9.95,-0.03,-0.01,-0.01,32.25
29564197,1840,1,198274,238477,0.72,-0.35,9.97,-0.04,-0.00,-0.01,32.25
29604197,1872,1,198369,238698,0.75,-0.34,9.95,-0.03,-0.00,-0.00,32.25
29644194,1891,1,198403,238933,0.74,-0.35,10.00,-0.04,0.00,-0.00,32.25
29684177,2015,1,198460,239041,0.72,-0.34,9.94,-0.03,-0.01,-0.01,32.25
29724197,2075,1,198577,239104,0.73,-0.35,9.96,-0.03,0.00,-0.01,32.25
29764177,2640,1,198552,238198,0.67,-0.32,10.05,-0.03,0.03,-0.01,32.25
29804178,3106,1,197701,234900,0.72,-0.35,9.98,-0.04,-0.00,-0.01,32.25
29844198,3337,1,197614,234751,0.70,-0.36,10.02,-0.03,-0.02,-0.01,32.25
29884195,3333,1,198927,236047,0.70,-0.37,9.97,-0.03,-0.03,-0.00,32.25
29924197,3293,1,200097,236984,0.75,-0.36,9.92,-0.03,-0.03,-0.00,32.25
29964194,3103,1,200376,237929,0.72,-0.36,9.94,-0.03,0.02,-0.01,32.25
30004177,2955,1,200060,237850,0.72,-0.35,9.96,-0.03,0.02,-0.01,32.25
30044177,3007,1,196234,236768,0.76,-0.36,9.92,-0.04,0.07,-0.02,32.25
30084863,2450,1,197022,236868,0.66,-0.37,10.04,-0.04,0.03,-0.05,32.53
30123177,2619,1,196684,236305,0.59,-0.32,9.98,-0.03,-0.01,-0.02,32.53
30163197,2493,1,196440,235202,0.60,-0.34,10.01,-0.03,-0.04,-0.00,32.53
30203194,2409,1,197356,236064,0.68,-0.32,9.99,-0.02,-0.10,0.00,32.53
30243177,2290,1,198677,237520,0.76,-0.35,9.90,-0.04,-0.02,-0.00,32.53
30283194,2222,1,199074,237200,0.81,-0.36,9.94,-0.05,-0.01,-0.01,32.53
30323197,2125,1,197052,235641,0.75,-0.40,9.89,-0.06,0.09,-0.02,32.53
30363175,1895,1,196272,236928,0.68,-0.41,10.05,-0.05,-0.01,-0.13,32.53
30403197,1967,1,196353,238246,0.66,-0.27,10.02,-0.05,-0.04,-0.10,32.53
30443198,1863,1,196511,237312,0.49,-0.27,10.07,-0.03,-0.05,-0.02,32.53
30483250,1825,1,196131,237583,0.79,-0.38,9.91,-0.03,-0.10,0.00,32.53
30523175,1776,1,196583,238742,0.77,-0.35,9.96,-0.04,-0.01,-0.01,32.53
30563197,1710,1,196865,239155,0.75,-0.34,9.93,-0.04,-0.02,-0.01,32.53
30603197,1645,1,196888,239061,0.77,-0.35,10.00,-0.03,-0.02,-0.00,32.53
30643197,1571,1,196877,239290,0.76,-0.38,9.89,-0.03,-0.01,-0.00,32.53
30683200,1519,1,197056,239852,0.73,-0.36,10.00,-0.03,0.02,-0.01,32.53
30723177,1472,1,197146,239970,0.68,-0.36,10.01,-0.03,-0.02,-0.00,32.53
30763197,1442,1,197087,239915,0.71,-0.36,10.02,-0.04,-0.03,-0.00,32.53
30803197,1416,1,196941,239330,0.82,-0.36,9.93,-0.04,-0.04,-0.00,32.53
30843197,1420,1,196528,237849,0.76,-0.37,9.99,-0.04,-0.01,-0.00,32.53
30883197,1485,1,195984,236752,0.70,-0.34,10.06,-0.03,-0.07,-0.00,32.53
30923194,1598,1,194180,238649,0.82,-0.38,9.97,-0.03,-0.11,0.00,32.53
30963177,1679,1,200975,242551,0.88,-0.36,9.98,-0.03,-0.10,0.01,32.53
31003177,1926,1,204753,244293,1.02,-0.37,9.73,-0.03,-0.08,0.01,32.53
31043177,2032,1,206010,244754,0.88,-0.37,9.95,-0.04,0.07,-0.01,32.53
31083177,2253,1,202705,244872,0.83,-0.34,9.99,-0.04,0.09,-0.01,32.53
31123863,2054,1,204983,244909,0.80,-0.39,10.01,-0.04,0.04,-0.01,31.99
31164174,2036,1,204430,244684,0.79,-0.37,10.01,-0.04,0.00,-0.01,31.99
31204177,2033,1,203585,244249,0.80,-0.35,9.96,-0.04,-0.02,-0.00,31.99
31244194,1971,1,202571,243465,0.79,-0.39,9.96,-0.03,-0.01,-0.00,31.99
31284197,1938,1,201541,242606,0.81,-0.35,9.98,-0.03,-0.00,-0.00,31.99
31324197,1899,1,200482,240358,0.80,-0.37,9.95,-0.03,-0.01,-0.00,31.99
31364197,1866,1,199178,238660,0.77,-0.37,9.97,-0.03,0.01,-0.01,31.99
31404177,1786,1,198485,238062,0.79,-0.32,9.99,-0.03,0.01,-0.01,31.99
31444177,1680,1,198322,238204,0.80,-0.38,9.96,-0.03,0.02,-0.01,31.99
31484174,1627,1,198271,238899,0.74,-0.35,10.01,-0.04,-0.04,-0.01,31.99
31524203,1557,1,198955,240129,0.80,-0.37,9.90,-0.06,-0.05,-0.01,31.99
31564194,1459,1,199250,240386,0.75,-0.38,10.01,-0.05,-0.01,-0.02,31.99
31604197,1390,1,199435,240129,0.76,-0.42,10.02,-0.03,-0.05,-0.00,31.99
31644194,1317,1,199262,240595,0.85,-0.41,9.91,-0.03,-0.07,-0.00,31.99
31684197,1114,1,199578,240939,0.91,-0.39,9.82,-0.04,0.05,-0.01,31.99
31724177,1229,1,198005,241240,0.85,-0.47,10.07,-0.04,0.08,-0.04,31.99
31764177,1344,1,198928,241498,0.78,-0.38,10.00,-0.03,0.01,-0.05,31.99
31804174,1587,1,198246,241251,0.66,-0.33,10.00,-0.03,-0.02,-0.02,31.99
31844197,1923,1,197622,239778,0.83,-0.37,9.96,-0.03,-0.03,-0.00,31.99
31884194,2147,1,196862,238214,0.84,-0.37,9.95,-0.03,-0.02,-0.00,31.99
31924197,2325,1,196829,238221,0.77,-0.39,9.94,-0.03,-0.00,-0.00,31.99
31964194,2412,1,196808,238217,0.73,-0.39,9.98,-0.03,0.00,-0.00,31.99
32004177,2435,1,196754,238048,0.79,-0.37,9.99,-0.03,-0.01,-0.00,31.99
32044197,2436,1,196596,238021,0.79,-0.40,9.95,-0.03,0.00,-0.00,31.99
32084177,2423,1,196493,238033,0.77,-0.38,9.98,-0.03,0.00,-0.01,31.99
32124864,2404,1,196517,238174,0.78,-0.35,9.98,-0.03,0.00,-0.00,31.89
32163177,2382,1,196563,238382,0.77,-0.38,9.97,-0.03,-0.00,-0.01,31.89
32203194,2341,1,196569,238849,0.80,-0.38,9.95,-0.03,-0.01,-0.01,31.89
32243197,2306,1,196938,239786,0.76,-0.37,9.97,-0.04,-0.00,-0.00,31.89
32283194,2256,1,197376,240469,0.75,-0.38,9.98,-0.04,0.00,-0.01,31.89
32323180,2210,1,197505,240206,0.75,-0.39,9.99,-0.04,-0.00,-0.01,31.89
32363197,2155,1,196873,237452,0.75,-0.37,9.98,-0.03,-0.02,-0.01,31.89
32403197,2087,1,195488,234117,0.76,-0.39,9.96,-0.03,-0.01,-0.00,31.89
32443198,2028,1,194898,233297,0.75,-0.38,9.97,-0.03,-0.01,-0.01,31.89
32483197,1969,1,194921,233160,0.77,-0.38,9.95,-0.03,-0.01,-0.01,31.89
32523220,1907,1,195048,232646,0.74,-0.41,9.99,-0.03,-0.01,-0.01,31.89
32563197,1899,1,195443,232199,0.75,-0.37,9.92,-0.03,-0.01,-0.00,31.89
32603198,1903,1,196120,232037,0.77,-0.37,9.95,-0.03,-0.01,-0.00,31.89
32643197,1874,1,196681,231772,0.77,-0.40,9.93,-0.03,0.00,-0.00,31.89
32683174,1840,1,196889,231487,0.75,-0.39,9.99,-0.03,-0.00,-0.00,31.89
32723197,1829,1,197064,231407,0.76,-0.38,9.98,-0.03,-0.01,-0.00,31.89
32763197,1837,1,197129,231730,0.75,-0.36,9.98,-0.03,-0.01,-0.00,31.89
32803197,1872,1,197246,232491,0.75,-0.38,9.97,-0.03,-0.01,-0.00,31.89
32843197,1894,1,197283,233264,0.77,-0.37,9.96,-0.04,-0.00,-0.01,31.89
32883197,1925,1,196893,231750,0.76,-0.38,9.98,-0.04,-0.00,-0.00,31.89
32923194,1949,1,195740,230102,0.74,-0.37,9.97,-0.04,-0.01,-0.00,31.89
32963197,1965,1,195329,229803,0.73,-0.37,9.99,-0.03,-0.01,-0.00,31.89
33003197,1939,1,195406,229924,0.75,-0.39,9.96,-0.03,-0.02,-0.00,31.89
33043197,1904,1,195615,230031,0.77,-0.37,9.96,-0.03,-0.01,-0.00,31.89
33083197,1872,1,195860,230160,0.75,-0.36,9.96,-0.03,-0.01,-0.00,31.89
33123197,1825,1,196029,229880,0.76,-0.39,9.98,-0.03,-0.01,-0.00,31.89
33163884,1728,1,195841,229449,0.78,-0.36,9.93,-0.03,-0.01,-0.01,31.57
33204197,1714,1,195650,229585,0.78,-0.36,9.96,-0.04,-0.00,-0.01,31.57
33244214,1719,1,195605,230614,0.73,-0.38,9.97,-0.04,0.01,-0.01,31.57
33284177,1699,1,195829,231965,0.72,-0.43,9.99,-0.04,0.01,-0.01,31.57
33324177,1702,1,196118,232991,0.72,-0.36,9.99,-0.03,-0.02,-0.01,31.57
33364197,1727,1,196414,233119,0.77,-0.38,9.99,-0.03,-0.03,-0.00,31.57
33404194,1751,1,196229,230206,0.77,-0.35,9.98,-0.03,-0.03,-0.00,31.57
33442197,1823,1,195202,228044,0.76,-0.37,9.95,-0.03,-0.01,-0.00,31.57
33482197,1838,1,194715,227339,0.78,-0.35,9.97,-0.03,-0.00,-0.00,31.57
33522201,1821,1,194759,227013,0.76,-0.35,9.99,-0.03,-0.01,-0.00,31.57
33562197,1825,1,194950,226476,0.75,-0.38,10.00,-0.03,-0.02,-0.00,31.57
33602197,1847,1,195113,225612,0.78,-0.38,9.96,-0.03,-0.03,-0.00,31.57
33642194,1896,1,195137,225507,0.77,-0.37,9.96,-0.03,-0.01,-0.00,31.57
33682197,1968,1,195350,226512,0.79,-0.36,9.98,-0.04,0.00,-0.01,31.57
33722174,2027,1,195650,227835,0.79,-0.35,9.94,-0.04,0.01,-0.01,31.57
33762178,2096,1,195667,228879,0.74,-0.39,10.05,-0.05,0.02,-0.01,31.57
33802177,2123,1,195680,229359,0.73,-0.39,9.96,-0.03,-0.01,-0.01,31.57
33842197,2141,1,195704,230232,0.75,-0.36,9.96,-0.03,-0.01,-0.00,31.57
33882197,2154,1,195965,231211,0.77,-0.38,9.99,-0.03,-0.01,-0.01,31.57
33922197,2135,1,195768,228439,0.75,-0.40,9.98,-0.03,-0.02,-0.00,31.57
33962216,2128,1,194625,226132,0.76,-0.37,9.98,-0.03,-0.02,-0.00,31.57
34002197,2111,1,194362,225554,0.75,-0.38,9.97,-0.03,-0.02,-0.00,31.57
34042197,2096,1,194674,225639,0.76,-0.39,9.96,-0.03,-0.02,-0.00,31.57
34082197,2070,1,195124,226176,0.79,-0.37,9.97,-0.03,-0.02,-0.00,31.57
34122197,2045,1,195732,227269,0.76,-0.38,9.97,-0.03,-0.01,-0.00,31.57
34162197,2023,1,196102,228060,0.77,-0.35,9.95,-0.04,-0.01,-0.01,31.57
34202884,1969,1,196166,228748,0.78,-0.38,9.96,-0.03,0.00,-0.00,31.25
34243177,1991,1,196145,229826,0.76,-0.39,9.97,-0.04,0.02,-0.01,31.25
34283177,1986,1,196111,230597,0.75,-0.40,9.94,-0.04,-0.01,-0.02,31.25
34323197,2008,1,195694,230956,0.71,-0.33,9.99,-0.03,-0.02,-0.02,31.25
34363197,1957,1,195950,231084,0.75,-0.40,9.99,-0.03,-0.03,-0.00,31.25
34402197,1975,1,196344,231243,0.80,-0.36,9.97,-0.03,-0.03,-0.00,31.25
34442194,1939,1,196532,229573,0.79,-0.39,9.93,-0.03,-0.01,-0.00,31.25
34482197,1935,1,195699,228086,0.75,-0.36,10.01,-0.04,0.00,-0.01,31.25
34522177,1899,1,195382,228220,0.76,-0.38,10.00,-0.03,-0.00,-0.00,31.25
34562197,1891,1,195418,228868,0.75,-0.37,9.98,-0.03,-0.01,-0.00,31.25
34602198,1866,1,195627,229636,0.78,-0.38,9.96,-0.03,-0.01,-0.00,31.25
34642197,1856,1,195931,230316,0.76,-0.38,10.00,-0.04,-0.01,-0.00,31.25
34682194,1852,1,196066,230434,0.74,-0.38,9.98,-0.03,-0.01,-0.00,31.25
34722197,1821,1,196288,230612,0.75,-0.38,9.98,-0.03,-0.01,-0.00,31.25
34762198,1789,1,196659,231387,0.76,-0.35,9.95,-0.03,-0.02,-0.00,31.25
34802197,1765,1,197231,232553,0.75,-0.37,9.96,-0.04,-0.01,-0.01,31.25
34842197,1735,1,197593,233364,0.75,-0.37,9.97,-0.03,-0.01,-0.00,31.25
34882197,1738,1,197918,233975,0.78,-0.39,9.99,-0.03,-0.02,-0.00,31.25
34922197,1751,1,197926,234021,0.78,-0.41,9.99,-0.03,-0.01,-0.00,31.25
34962197,1822,1,197534,231747,0.79,-0.39,9.97,-0.03,-0.00,-0.01,31.25
35002194,1916,1,195917,227678,0.78,-0.37,9.98,-0.03,-0.00,-0.01,31.25
35042197,2006,1,195008,226277,0.76,-0.35,9.98,-0.03,-0.02,-0.00,31.25
35082197,2103,1,195176,227271,0.82,-0.36,9.94,-0.04,-0.01,-0.01,31.25
35122197,2174,1,195837,229755,0.73,-0.41,9.98,-0.04,0.01,-0.00,31.25
35162175,2175,1,196484,231587,0.66,-0.41,10.03,-0.03,-0.01,-0.00,31.25
35202197,2178,1,196798,231795,0.70,-0.37,9.99,-0.03,-0.03,-0.00,31.25
35242880,2112,1,196664,231360,0.81,-0.34,9.96,-0.03,-0.01,-0.00,31.27
35283197,2103,1,196477,231202,0.85,-0.40,9.97,-0.04,0.00,-0.00,31.27
35323174,2090,1,196518,231601,0.80,-0.38,9.95,-0.04,0.00,-0.01,31.27
35363177,2047,1,196888,232550,0.71,-0.32,10.01,-0.03,-0.02,-0.01,31.27
35402197,2038,1,197154,234604,0.79,-0.33,9.95,-0.03,-0.01,-0.00,31.27
35442197,2017,1,197400,236445,0.80,-0.42,9.97,-0.03,-0.01,-0.00,31.27
35482194,1967,1,196871,236639,0.75,-0.41,9.94,-0.04,0.02,-0.01,31.27
35522180,1911,1,195766,235146,0.79,-0.40,10.00,-0.04,-0.01,-0.05,31.27
35562194,1891,1,195724,234751,0.71,-0.36,10.01,-0.04,-0.03,-0.07,31.27
35602227,1889,1,194466,234750,0.70,-0.38,10.00,-0.04,-0.04,-0.03,31.27
35642193,1807,1,195217,234495,0.79,-0.40,9.96,-0.03,-0.05,-0.00,31.27
35682198,1856,1,195877,234868,0.72,-0.31,9.93,-0.03,-0.02,-0.00,31.27
35722197,1868,1,196527,235469,0.77,-0.34,9.96,-0.03,-0.01,-0.01,31.27
35762197,1885,1,197277,236301,0.81,-0.44,9.98,-0.04,-0.02,-0.00,31.27
35802239,1888,1,197806,237133,0.82,-0.39,9.93,-0.03,-0.02,-0.00,31.27
35842197,1879,1,198123,237670,0.78,-0.34,10.00,-0.03,-0.01,-0.00,31.27
35882194,1871,1,198355,237697,0.81,-0.35,9.95,-0.03,-0.01,-0.00,31.27
35922197,1869,1,198442,237697,0.82,-0.42,9.96,-0.03,-0.00,-0.00,31.27
35962194,1882,1,198492,237786,0.81,-0.42,9.98,-0.04,0.01,-0.01,31.27
36002177,1897,1,198600,237428,0.74,-0.36,10.00,-0.04,0.01,-0.01,31.27
36042175,1899,1,197752,232831,0.75,-0.35,9.97,-0.03,-0.01,-0.01,31.27
36082197,1911,1,196639,231381,0.79,-0.40,9.98,-0.03,-0.02,-0.00,31.27
36122194,1938,1,196781,231765,0.84,-0.38,9.94,-0.03,-0.01,-0.00,31.27
36162197,1968,1,197126,232474,0.76,-0.36,9.95,-0.03,-0.01,-0.00,31.27
36202197,1991,1,197512,233235,0.74,-0.35,9.99,-0.03,0.00,-0.01,31.27
36242864,1975,1,198025,233547,0.80,-0.39,10.01,-0.03,-0.02,-0.00,31.39
36283194,1963,1,198611,233798,0.84,-0.37,9.99,-0.03,-0.03,-0.00,31.39
36323197,1967,1,199239,234491,0.78,-0.38,9.93,-0.03,-0.02,-0.00,31.39
36363197,1955,1,199788,235904,0.76,-0.36,9.96,-0.04,0.00,-0.01,31.39
36403177,1918,1,200337,237285,0.80,-0.36,9.98,-0.04,-0.01,-0.01,31.39
36442197,1895,1,200741,238503,0.83,-0.39,9.98,-0.03,-0.02,-0.00,31.39
36482197,1831,1,201076,239686,0.78,-0.35,9.97,-0.03,-0.01,-0.01,31.39
36522201,1791,1,201233,239835,0.75,-0.35,9.96,-0.04,-0.01,-0.01,31.39
36562197,1771,1,200248,235726,0.79,-0.41,9.98,-0.04,0.01,-0.01,31.39
36602178,1754,1,199068,234209,0.82,-0.39,9.98,-0.03,-0.01,-0.01,31.39
36642198,1750,1,199015,234382,0.77,-0.39,10.00,-0.03,-0.01,-0.01,31.39
36682197,1744,1,199355,234871,0.77,-0.34,10.00,-0.03,-0.01,-0.00,31.39
36722198,1744,1,199662,235170,0.77,-0.40,9.96,-0.03,-0.01,-0.00,31.39
36762194,1747,1,199860,234830,0.79,-0.40,9.98,-0.03,-0.01,-0.01,31.39
36802198,1785,1,199734,234304,0.77,-0.38,9.97,-0.03,-0.01,-0.00,31.39
36842198,1816,1,199442,234107,0.75,-0.35,9.98,-0.03,-0.00,-0.00,31.39
36882198,1878,1,199344,234430,0.79,-0.36,9.98,-0.03,-0.00,-0.00,31.39
36922195,1921,1,199348,234691,0.78,-0.40,9.95,-0.03,-0.01,-0.00,31.39
36962197,1955,1,199326,234797,0.78,-0.38,9.95,-0.03,-0.01,-0.00,31.39
37002197,1969,1,199371,234905,0.78,-0.34,9.96,-0.03,-0.01,-0.00,31.39
37042197,1975,1,199496,234673,0.80,-0.38,9.97,-0.03,-0.02,-0.00,31.39
37082194,1963,1,198958,232594,0.81,-0.40,9.97,-0.03,-0.01,-0.00,31.39
37122198,1958,1,198388,232341,0.79,-0.37,9.95,-0.03,-0.00,-0.01,31.39
37162197,1936,1,198518,233919,0.76,-0.35,9.96,-0.04,-0.01,-0.01,31.39
37202197,1897,1,199010,235418,0.76,-0.36,9.98,-0.03,-0.01,-0.00,31.39
37242890,1806,1,199456,236713,0.80,-0.37,9.97,-0.03,-0.02,-0.01,31.33
37283197,1774,1,199754,237308,0.80,-0.39,9.95,-0.04,-0.01,-0.00,31.33
37323194,1749,1,199734,237424,0.76,-0.38,9.98,-0.03,-0.01,-0.00,31.33
37363197,1749,1,199945,237272,0.77,-0.38,10.00,-0.03,-0.03,-0.00,31.33
37403194,1771,1,200112,237189,0.84,-0.37,9.95,-0.03,-0.02,-0.00,31.33
37444197,1805,1,200191,237353,0.84,-0.38,9.94,-0.03,-0.00,-0.00,31.33
37482194,1790,1,200017,237517,0.79,-0.36,9.97,-0.04,0.01,-0.01,31.33
37522180,1801,1,200047,237069,0.73,-0.40,9.99,-0.03,-0.01,-0.00,31.33
37562194,1847,1,199876,234536,0.74,-0.39,9.98,-0.03,-0.02,-0.00,31.33
37602198,1921,1,198649,232163,0.81,-0.37,9.96,-0.03,-0.01,-0.00,31.33
37642214,2007,1,198184,232404,0.82,-0.36,9.96,-0.04,0.00,-0.01,31.33
37682177,2105,1,198438,233994,0.79,-0.36,9.99,-0.04,-0.00,-0.00,31.33
37722194,2185,1,198907,234962,0.80,-0.38,9.98,-0.03,-0.02,-0.00,31.33
37762197,2230,1,199370,235682,0.76,-0.41,9.98,-0.03,-0.03,-0.00,31.33
37802197,2237,1,199692,235916,0.81,-0.38,9.89,-0.03,-0.02,-0.00,31.33
37842197,2259,1,199937,237551,0.81,-0.36,9.95,-0.04,-0.01,-0.01,31.33
37882197,2283,1,200206,238631,0.76,-0.37,10.04,-0.04,0.01,-0.01,31.33
37922177,2285,1,200414,238709,0.77,-0.39,9.99,-0.03,-0.02,-0.00,31.33
37962194,2256,1,200779,237740,0.74,-0.36,10.02,-0.03,-0.05,-0.00,31.33
38002198,2228,1,201108,237227,0.87,-0.36,9.97,-0.03,-0.07,0.00,31.33
38042175,2194,1,201463,236847,0.92,-0.36,9.92,-0.03,-0.02,-0.00,31.33
38082197,2161,1,200942,234295,0.87,-0.38,9.93,-0.04,0.03,-0.01,31.33
38122177,2128,1,199716,232624,0.77,-0.37,10.01,-0.03,0.03,-0.01,31.33
38162177,2081,1,199313,232278,0.80,-0.36,9.96,-0.03,-0.02,-0.00,31.33
38202194,2043,1,199313,232795,0.82,-0.38,9.98,-0.03,-0.01,-0.00,31.33
38242197,2029,1,199345,233550,0.84,-0.39,9.97,-0.03,-0.00,-0.00,31.33
38282883,2004,1,199425,234009,0.80,-0.38,10.01,-0.03,-0.01,-0.00,31.27
38323197,1997,1,199443,233818,0.80,-0.36,9.95,-0.03,-0.01,-0.00,31.27
38363194,1954,1,199329,233400,0.83,-0.35,9.96,-0.03,-0.01,-0.00,31.27
38403197,1936,1,199093,233031,0.83,-0.40,9.99,-0.03,0.00,-0.01,31.27
38443174,1885,1,198902,231882,0.80,-0.36,10.02,-0.03,-0.02,-0.00,31.27
38482198,1903,1,198537,231611,0.81,-0.34,9.91,-0.03,0.01,-0.01,31.27
38522180,1873,1,198643,231763,0.80,-0.37,10.01,-0.04,0.00,-0.01,31.27
38562177,1844,1,199050,231305,0.79,-0.40,9.98,-0.03,-0.04,-0.00,31.27
38602194,1851,1,198725,230580,0.83,-0.37,9.93,-0.04,-0.01,-0.00,31.27
38642197,1856,1,198134,231105,0.80,-0.36,9.96,-0.04,0.03,-0.01,31.27
38682177,1845,1,197143,231222,0.75,-0.40,10.03,-0.03,0.04,-0.01,31.27
38722177,1855,1,196471,232195,0.77,-0.39,10.00,-0.03,-0.01,-0.00,31.27
38762194,1861,1,196261,234521,0.79,-0.37,9.91,-0.03,0.01,-0.01,31.27
38802177,1842,1,196318,235642,0.83,-0.40,10.01,-0.04,0.01,-0.03,31.27
38842174,1792,1,196186,235199,0.67,-0.34,10.00,-0.03,-0.02,-0.03,31.27
38882197,1765,1,195629,233662,0.72,-0.38,10.01,-0.03,-0.06,-0.00,31.27
38922197,1794,1,195602,232501,0.81,-0.34,9.95,-0.03,-0.07,-0.00,31.27
38962197,1821,1,196339,232928,0.85,-0.35,9.97,-0.03,-0.05,-0.00,31.27
39002194,1813,1,197435,234707,0.88,-0.38,9.88,-0.04,-0.01,-0.01,31.27
39042198,1813,1,198227,235701,0.85,-0.37,9.94,-0.04,0.03,-0.01,31.27
39082202,1826,1,197132,232228,0.78,-0.35,9.99,-0.04,0.03,-0.01,31.27
39122177,1823,1,195519,230846,0.77,-0.36,10.00,-0.03,0.01,-0.01,31.27
39162177,1814,1,195090,230658,0.72,-0.42,10.04,-0.03,-0.01,-0.00,31.27
39202197,1807,1,195500,230785,0.78,-0.40,10.02,-0.02,-0.06,-0.00,31.27
39242193,1801,1,196483,230688,0.83,-0.34,9.85,-0.03,-0.01,-0.00,31.27
39282197,1818,1,197504,230739,0.76,-0.35,10.04,-0.03,-0.01,-0.00,31.27
39322884,1841,1,199290,232240,0.87,-0.40,9.87,-0.03,-0.04,-0.00,31.55
39361197,1856,1,199599,234178,0.85,-0.38,9.91,-0.04,0.06,-0.01,31.55
39401177,1850,1,199288,234901,0.71,-0.37,10.09,-0.04,0.02,-0.01,31.55
39441177,1840,1,198827,234345,0.75,-0.38,9.99,-0.03,-0.03,-0.00,31.55
39481194,1851,1,198505,233528,0.77,-0.37,9.98,-0.02,-0.05,-0.00,31.55
39521197,1838,1,198473,234137,0.83,-0.33,9.95,-0.03,-0.03,-0.00,31.55
39561194,1835,1,197671,232156,0.84,-0.35,9.95,-0.04,0.02,-0.01,31.55
39601177,1862,1,195384,230178,0.77,-0.41,10.04,-0.04,0.06,-0.01,31.55
39641177,1853,1,194840,232550,0.82,-0.40,10.01,-0.04,0.01,-0.05,31.55
39681177,1836,1,196085,235680,0.70,-0.30,10.02,-0.03,-0.01,-0.06,31.55
39721194,1853,1,196909,236582,0.70,-0.31,10.00,-0.03,-0.02,-0.02,31.55
39761197,1808,1,196704,236025,0.80,-0.40,9.98,-0.02,-0.05,0.00,31.55
39801175,1857,1,195953,234396,0.70,-0.40,10.04,-0.03,-0.07,0.00,31.55
39841177,1871,1,194949,232745,0.76,-0.35,9.96,-0.03,-0.07,0.00,31.55
39881178,1887,1,194952,232875,0.85,-0.34,9.91,-0.04,-0.05,-0.00,31.55
39921197,1904,1,195515,232881,0.91,-0.36,9.92,-0.04,-0.02,-0.00,31.55
39961197,1904,1,195833,232373,0.88,-0.37,10.00,-0.03,0.02,-0.01,31.55
40001177,1927,1,196232,232086,0.82,-0.35,9.99,-0.03,-0.01,-0.00,31.55
40041197,1962,1,196886,232030,0.82,-0.37,10.01,-0.03,-0.04,-0.00,31.55
40081197,1983,1,197190,230295,0.85,-0.42,9.96,-0.03,-0.04,0.00,31.55
40121175,2002,1,196614,228996,0.87,-0.37,9.95,-0.03,0.00,-0.00,31.55
40161177,2027,1,196064,228375,0.89,-0.33,9.93,-0.03,0.04,-0.01,31.55
40201177,2071,1,195393,228252,0.83,-0.36,9.97,-0.04,0.02,-0.01,31.55
40241177,2085,1,195047,228153,0.79,-0.39,10.00,-0.03,0.00,-0.00,31.55
40281175,2107,1,195020,228550,0.82,-0.38,9.96,-0.03,-0.02,-0.00,31.55
40321197,2138,1,195230,228730,0.85,-0.32,9.98,-0.04,-0.02,-0.00,31.55
40361884,2126,1,195589,229222,0.84,-0.35,9.96,-0.04,-0.03,-0.00,31.57
40402197,2135,1,196183,229838,0.85,-0.42,9.96,-0.04,-0.01,-0.00,31.57
40442197,2147,1,196699,230207,0.81,-0.40,9.95,-0.04,0.00,-0.01,31.57
40482177,2119,1,196635,230476,0.84,-0.33,9.94,-0.04,0.02,-0.01,31.57
40522180,2099,1,196184,231224,0.82,-0.34,9.97,-0.04,0.05,-0.01,31.57
40562177,2081,1,195701,230570,0.79,-0.38,10.05,-0.03,0.02,-0.01,31.57
40602177,2067,1,194318,227675,0.83,-0.35,9.95,-0.03,-0.01,-0.00,31.57
40642197,2062,1,193295,226934,0.78,-0.34,10.00,-0.04,-0.01,-0.01,31.57
40682194,2023,1,193201,226979,0.74,-0.40,9.98,-0.03,-0.04,-0.00,31.57
40722230,1986,1,193258,227187,0.77,-0.39,9.98,-0.03,-0.02,-0.00,31.57
40762194,1933,1,193444,229470,0.86,-0.34,9.92,-0.04,0.00,-0.01,31.57
40802177,1923,1,194475,232791,0.83,-0.34,9.96,-0.04,0.02,-0.01,31.57
40842177,1846,1,195176,233469,0.70,-0.38,10.07,-0.04,0.01,-0.01,31.57
40882177,1818,1,194691,231161,0.74,-0.40,10.02,-0.02,-0.06,-0.00,31.57
40922228,1811,1,194260,229403,0.86,-0.33,9.94,-0.01,-0.09,0.01,31.57
40962177,1783,1,194834,229926,0.91,-0.31,9.89,-0.03,-0.05,0.01,31.57
41002177,1750,1,195254,231599,0.84,-0.40,9.93,-0.04,0.02,-0.01,31.57
41042177,1747,1,195549,232582,0.88,-0.39,9.94,-0.04,0.01,-0.01,31.57
41082177,1741,1,195729,233168,0.87,-0.36,9.92,-0.04,0.03,-0.01,31.57
41122177,1714,1,194993,230711,0.77,-0.37,9.98,-0.04,0.01,-0.01,31.57
41162177,1709,1,194441,231890,0.77,-0.37,9.99,-0.04,0.02,-0.01,31.57
41202177,1700,1,195026,234261,0.80,-0.39,10.06,-0.03,-0.02,-0.01,31.57
41242194,1652,1,195380,235282,0.80,-0.34,9.96,-0.03,-0.01,-0.00,31.57
41282198,1665,1,195462,235749,0.79,-0.36,9.95,-0.03,-0.02,-0.00,31.57
41322197,1625,1,195576,235430,0.71,-0.39,9.98,-0.03,-0.01,-0.00,31.57
41362884,1588,1,195149,234602,0.83,-0.34,9.98,-0.03,-0.04,-0.00,31.69
41401197,1574,1,195159,234307,0.87,-0.39,9.94,-0.03,-0.04,-0.00,31.69
41441197,1525,1,195440,234125,0.78,-0.39,9.96,-0.03,-0.02,-0.00,31.69
41481198,1535,1,195667,234375,0.83,-0.36,9.95,-0.03,-0.01,-0.01,31.69
41521197,1535,1,195814,234020,0.84,-0.36,9.99,-0.03,-0.01,-0.00,31.69
41561197,1575,1,195699,233996,0.89,-0.39,9.91,-0.03,-0.02,-0.00,31.69
41601197,1600,1,195731,234957,0.81,-0.39,9.94,-0.04,0.01,-0.01,31.69
41641177,1613,1,195492,233338,0.76,-0.34,10.01,-0.04,0.02,-0.01,31.69
41681177,1662,1,194392,231985,0.86,-0.33,9.98,-0.03,-0.01,-0.01,31.69
41721197,1675,1,194646,234904,0.86,-0.41,9.88,-0.04,0.03,-0.01,31.69
41761177,1717,1,195986,237403,0.91,-0.49,10.08,-0.04,0.03,-0.05,31.69
41801177,1747,1,196890,238221,0.65,-0.29,9.96,-0.03,-0.01,-0.06,31.69
41841197,1753,1,196239,236186,0.72,-0.36,10.02,-0.02,-0.05,-0.00,31.69
41881198,1786,1,195111,234393,0.84,-0.38,9.95,-0.02,-0.08,0.00,31.69
41921177,1769,1,194906,233998,0.88,-0.36,9.93,-0.03,-0.05,-0.00,31.69
41961198,1713,1,195264,235017,0.83,-0.33,9.93,-0.04,0.01,-0.01,31.69
42001177,1616,1,195544,235797,0.82,-0.37,9.96,-0.04,0.04,-0.01,31.69
42041177,1601,1,195647,235682,0.76,-0.41,10.05,-0.03,-0.01,-0.01,31.69
42081197,1609,1,195736,235078,0.85,-0.34,9.95,-0.03,-0.05,-0.00,31.69
42121195,1535,1,195770,234269,0.85,-0.32,9.96,-0.03,-0.03,-0.00,31.69
42161197,1423,1,195419,230553,0.82,-0.36,9.96,-0.03,-0.03,-0.00,31.69
42201197,1374,1,194457,228809,0.83,-0.42,9.97,-0.04,-0.01,-0.01,31.69
42241197,1360,1,194913,229550,0.82,-0.37,9.98,-0.03,-0.02,-0.00,31.69
42281197,1323,1,196044,230948,0.85,-0.32,9.98,-0.03,-0.04,-0.00,31.69
42321197,1357,1,196791,231989,0.86,-0.39,9.92,-0.04,0.01,-0.00,31.69
42361211,1385,1,197173,232708,0.82,-0.37,9.99,-0.04,0.01,-0.01,31.69
42401864,1343,1,197400,233339,0.82,-0.34,10.00,-0.03,-0.03,-0.00,31.75
42442194,1395,1,197620,235326,0.86,-0.31,9.94,-0.04,0.01,-0.01,31.75
42482177,1392,1,197967,237632,0.83,-0.38,9.98,-0.04,0.02,-0.01,31.75
42522180,1559,1,197872,238103,0.78,-0.40,9.99,-0.04,-0.01,-0.01,31.75
42562210,1682,1,197793,238261,0.82,-0.35,9.98,-0.03,-0.04,-0.00,31.75
42602195,1854,1,197552,238202,0.90,-0.31,9.88,-0.04,0.00,-0.00,31.75
42642177,1847,1,196938,237990,0.85,-0.41,9.94,-0.04,0.04,-0.01,31.75
42682177,1845,1,196288,235863,0.76,-0.37,10.00,-0.04,-0.02,-0.03,31.75
42722198,1984,1,195182,232345,0.72,-0.37,10.06,-0.03,-0.07,-0.00,31.75
42762214,2193,1,194791,231593,0.89,-0.32,9.90,-0.03,-0.08,0.00,31.75
42802177,2366,1,195122,232935,0.95,-0.39,9.89,-0.03,0.00,-0.00,31.75
42842174,2433,1,195519,233982,0.82,-0.43,10.00,-0.04,0.03,-0.01,31.75
42882177,2442,1,195711,233547,0.76,-0.31,10.01,-0.03,-0.02,-0.00,31.75
42922197,2393,1,195712,232934,0.85,-0.33,9.95,-0.03,-0.00,-0.01,31.75
42962197,2358,1,195885,232717,0.89,-0.43,9.99,-0.04,0.02,-0.01,31.75
43002177,2315,1,196325,232849,0.82,-0.40,10.00,-0.04,-0.00,-0.01,31.75
43042197,2261,1,196692,233274,0.77,-0.35,9.97,-0.03,-0.01,-0.00,31.75
43082197,2182,1,197005,234388,0.84,-0.33,9.95,-0.03,-0.02,-0.00,31.75
43122198,2146,1,197320,235986,0.88,-0.37,9.94,-0.03,-0.02,-0.00,31.75
43162198,2081,1,197077,236151,0.76,-0.49,9.97,-0.03,0.02,-0.00,31.75
43202177,2005,1,195730,232876,0.74,-0.34,10.01,-0.03,0.01,-0.01,31.75
43242177,1936,1,194566,232048,0.82,-0.35,9.99,-0.03,-0.02,-0.00,31.75
43282197,1904,1,194766,233851,0.87,-0.38,9.97,-0.03,-0.03,-0.00,31.75
43322194,1875,1,195314,235340,0.84,-0.40,9.95,-0.04,-0.02,-0.00,31.75
43362198,1887,1,195647,236193,0.71,-0.38,10.07,-0.03,-0.03,-0.00,31.75
43402884,1933,1,195861,237138,0.88,-0.29,9.94,-0.03,-0.10,-0.00,31.91
43441197,1961,1,196041,238220,0.97,-0.39,9.85,-0.04,0.01,-0.00,31.91
43481177,1926,1,196323,238831,0.82,-0.41,10.06,-0.04,0.02,-0.00,31.91
43521177,1859,1,196483,238900,0.83,-0.33,9.99,-0.03,-0.00,-0.00,31.91
43561194,1776,1,196254,238060,0.83,-0.35,10.00,-0.03,-0.02,-0.00,31.91
43601198,1760,1,195862,237433,0.85,-0.41,9.98,-0.03,-0.06,-0.00,31.91
43641195,1789,1,195944,237405,0.89,-0.39,9.95,-0.03,-0.03,-0.00,31.91
43681197,1767,1,196064,236917,0.88,-0.37,9.94,-0.03,-0.00,-0.01,31.91
43721197,1750,1,195390,234642,0.86,-0.33,9.98,-0.03,0.02,-0.01,31.91
43761177,1735,1,194592,233555,0.82,-0.41,10.01,-0.03,0.01,-0.01,31.91
43801177,1746,1,194391,233756,0.82,-0.37,10.04,-0.03,-0.02,-0.00,31.91
43841197,1766,1,194857,235593,0.90,-0.32,9.93,-0.04,-0.01,-0.00,31.91
43881195,1706,1,195428,237022,0.83,-0.35,10.00,-0.04,0.01,-0.01,31.91
43921177,1653,1,195752,237590,0.85,-0.40,9.94,-0.04,0.01,-0.01,31.91
43961174,1654,1,195778,237326,0.85,-0.36,9.99,-0.04,-0.01,-0.01,31.91
44001211,1600,1,195727,236923,0.83,-0.38,9.95,-0.03,-0.02,-0.00,31.91
44041198,1627,1,195715,237130,0.81,-0.40,9.95,-0.03,-0.00,-0.00,31.91
44081198,1661,1,195900,238381,0.86,-0.37,9.94,-0.03,0.01,-0.01,31.91
44121177,1675,1,196141,239300,0.90,-0.34,9.97,-0.04,0.01,-0.01,31.91
44161177,1661,1,196143,239163,0.85,-0.38,9.95,-0.03,-0.01,-0.00,31.91
44201210,1648,1,195949,238410,0.78,-0.38,9.99,-0.03,-0.03,-0.00,31.91
44241197,1622,1,195375,236991,0.84,-0.37,9.97,-0.03,-0.02,-0.00,31.91
44281197,1648,1,195203,237137,0.89,-0.34,9.95,-0.03,0.00,-0.00,31.91
44321177,1665,1,195520,238149,0.83,-0.37,9.99,-0.04,0.01,-0.01,31.91
44361177,1723,1,195799,238869,0.76,-0.38,10.08,-0.04,-0.02,-0.00,31.91
44401217,1747,1,196103,239933,0.89,-0.36,9.94,-0.04,-0.02,-0.00,31.91
44441884,1770,1,196487,240018,0.86,-0.37,10.02,-0.04,-0.00,-0.01,31.75
44480197,1795,1,196264,239393,0.81,-0.39,9.97,-0.03,-0.01,-0.00,31.75
44520194,1765,1,195853,238710,0.81,-0.38,9.97,-0.03,-0.01,-0.00,31.75
44560197,1712,1,195522,238184,0.84,-0.36,9.98,-0.03,-0.02,-0.00,31.75
44600198,1627,1,195397,237884,0.88,-0.37,9.96,-0.03,-0.02,-0.00,31.75
44640197,1641,1,195294,237344,0.85,-0.39,9.98,-0.03,-0.03,-0.00,31.75
44680197,1682,1,195349,236966,0.81,-0.34,9.99,-0.03,-0.04,-0.00,31.75
44720197,1699,1,195334,235829,0.92,-0.35,9.93,-0.03,-0.01,-0.00,31.75
44760198,1727,1,194575,234083,0.87,-0.40,9.97,-0.04,0.03,-0.01,31.75
44800177,1840,1,194224,233974,0.81,-0.38,10.01,-0.04,0.00,-0.01,31.75
44840175,1986,1,194234,233936,0.80,-0.35,9.99,-0.03,-0.02,-0.00,31.75
44880197,2091,1,194231,233554,0.83,-0.36,9.96,-0.03,-0.02,-0.00,31.75
44920195,2138,1,194487,233506,0.86,-0.40,9.97,-0.03,-0.02,-0.00,31.75
44960197,2162,1,194721,234385,0.85,-0.39,9.95,-0.04,-0.00,-0.01,31.75
45000197,2141,1,195050,236240,0.87,-0.34,9.96,-0.04,0.00,-0.01,31.75
45040177,2128,1,195627,237186,0.81,-0.37,9.96,-0.04,-0.01,-0.01,31.75
45080197,2112,1,196058,237441,0.85,-0.39,9.97,-0.03,-0.02,-0.00,31.75
45120197,2077,1,196229,237574,0.84,-0.37,9.98,-0.03,-0.01,-0.00,31.75
45160197,2016,1,196203,237785,0.86,-0.38,9.97,-0.04,0.01,-0.01,31.75
45200177,1941,1,196149,238316,0.85,-0.37,9.98,-0.04,0.01,-0.01,31.75
45240177,1893,1,196093,237789,0.81,-0.42,10.00,-0.04,-0.01,-0.01,31.75
45280197,1831,1,195900,237515,0.89,-0.40,9.93,-0.04,-0.03,-0.01,31.75
45320197,1759,1,195968,238064,0.85,-0.35,9.97,-0.03,-0.01,-0.01,31.75
45360197,1693,1,196165,238229,0.82,-0.35,9.97,-0.03,-0.03,-0.00,31.75
45400197,1658,1,196233,238086,0.84,-0.35,9.96,-0.03,-0.02,-0.00,31.75
45440197,1664,1,196167,237829,0.85,-0.37,9.94,-0.04,-0.00,-0.00,31.75
45480881,1669,1,195906,237298,0.87,-0.40,9.97,-0.04,-0.01,-0.01,31.81
45521197,1681,1,195867,237358,0.83,-0.42,9.99,-0.04,-0.01,-0.01,31.81
45561197,1702,1,195879,237579,0.81,-0.43,10.03,-0.04,0.00,-0.01,31.81
45601177,1737,1,196350,238168,0.86,-0.37,9.99,-0.03,-0.03,-0.01,31.81
45641197,1744,1,197189,239174,0.85,-0.38,9.97,-0.03,-0.04,-0.00,31.81
45681197,1749,1,198185,240186,0.86,-0.36,9.98,-0.03,-0.03,-0.00,31.81
45721197,1743,1,198876,240666,0.87,-0.37,9.97,-0.03,-0.02,-0.00,31.81
45761197,1765,1,198632,237585,0.90,-0.37,9.96,-0.03,-0.01,-0.00,31.81
45801194,1734,1,197201,235287,0.88,-0.37,9.99,-0.03,0.00,-0.00,31.81
45841177,1678,1,196983,236269,0.83,-0.42,9.97,-0.03,-0.00,-0.00,31.81
45881194,1629,1,197248,237379,0.87,-0.34,9.96,-0.03,0.00,-0.01,31.81
45921177,1620,1,197391,238064,0.85,-0.36,9.95,-0.03,0.00,-0.00,31.81
45961174,1622,1,197398,238346,0.82,-0.37,9.97,-0.04,0.01,-0.01,31.81
46001177,1636,1,197294,238383,0.86,-0.36,9.96,-0.04,-0.00,-0.01,31.81
46041203,1642,1,197280,238292,0.86,-0.36,9.96,-0.04,-0.01,-0.01,31.81
46081197,1671,1,197252,238267,0.83,-0.37,9.98,-0.03,-0.01,-0.01,31.81
46121197,1714,1,197213,238270,0.83,-0.41,9.95,-0.03,-0.01,-0.01,31.81
46161197,1731,1,197260,238340,0.88,-0.41,9.97,-0.03,-0.01,-0.01,31.81
46201197,1776,1,197373,238491,0.85,-0.36,9.97,-0.03,-0.01,-0.01,31.81
46241197,1805,1,197416,238173,0.78,-0.36,9.98,-0.03,-0.01,-0.01,31.81
46281197,1786,1,196749,234578,0.81,-0.38,10.01,-0.03,-0.01,-0.01,31.81
46321197,1776,1,195580,233057,0.88,-0.38,9.99,-0.03,-0.01,-0.01,31.81
46361197,1780,1,195659,234151,0.85,-0.39,9.99,-0.03,-0.01,-0.01,31.81
46401197,1809,1,196134,235711,0.78,-0.38,9.97,-0.03,-0.01,-0.00,31.81
46441197,1841,1,196571,236902,0.81,-0.37,9.98,-0.03,-0.02,-0.00,31.81
46481884,1826,1,196906,237576,0.87,-0.35,9.93,-0.03,-0.02,-0.00,31.53
46520197,1835,1,197006,237892,0.86,-0.38,9.96,-0.03,-0.01,-0.00,31.53
46560197,1763,1,197100,238058,0.84,-0.38,9.97,-0.03,-0.01,-0.00,31.53
46600197,1700,1,197142,238192,0.83,-0.36,9.95,-0.03,-0.01,-0.00,31.53
46640197,1651,1,197089,238240,0.89,-0.39,9.98,-0.03,-0.01,-0.00,31.53
46680197,1616,1,197127,238312,0.85,-0.38,9.98,-0.03,-0.00,-0.00,31.53
46720197,1600,1,197151,238172,0.81,-0.38,9.98,-0.03,-0.01,-0.00,31.53
46760197,1616,1,197154,237363,0.83,-0.35,9.99,-0.03,-0.01,-0.00,31.53
46800197,1643,1,196231,232916,0.89,-0.39,9.94,-0.03,-0.01,-0.00,31.53
46840198,1690,1,195189,231955,0.87,-0.39,9.97,-0.04,0.00,-0.00,31.53
46880177,1744,1,195186,233176,0.82,-0.37,9.97,-0.03,-0.00,-0.00,31.53
46920194,1782,1,195629,233975,0.82,-0.36,9.99,-0.03,-0.01,-0.00,31.53
46960197,1804,1,195874,234520,0.86,-0.40,9.96,-0.03,-0.02,-0.00,31.53
47000194,1822,1,196058,234700,0.83,-0.39,9.95,-0.03,-0.02,-0.00,31.53
47040197,1806,1,196076,234534,0.85,-0.35,9.97,-0.03,-0.00,-0.00,31.53
47080195,1782,1,195933,234108,0.83,-0.35,10.00,-0.03,-0.01,-0.00,31.53
47120197,1782,1,195825,234035,0.83,-0.37,9.98,-0.03,-0.00,-0.00,31.53
47160197,1797,1,195869,234160,0.83,-0.40,9.97,-0.03,-0.01,-0.00,31.53
47200198,1813,1,195900,233716,0.82,-0.37,10.00,-0.03,-0.01,-0.00,31.53
47240195,1834,1,195845,232895,0.81,-0.36,9.97,-0.03,-0.02,-0.00,31.53
47280198,1840,1,195619,230797,0.84,-0.37,9.96,-0.03,-0.01,-0.00,31.53
47320197,1851,1,194285,227661,0.87,-0.35,9.93,-0.03,0.00,-0.00,31.53
47360177,1841,1,193362,227075,0.84,-0.35,9.99,-0.04,0.02,-0.01,31.53
47400177,1839,1,193305,227945,0.77,-0.37,9.98,-0.04,0.00,-0.01,31.53
47440177,1861,1,193647,229264,0.81,-0.38,9.94,-0.03,-0.02,-0.00,31.53
47481240,1893,1,194163,230722,0.81,-0.37,9.96,-0.03,-0.02,-0.00,31.53
47521886,1936,1,194601,232061,0.87,-0.37,9.96,-0.03,-0.02,-0.00,31.49
47560198,1964,1,194797,232448,0.83,-0.35,10.00,-0.03,-0.01,-0.00,31.49
47600197,1965,1,194722,232044,0.83,-0.35,9.96,-0.03,-0.01,-0.00,31.49
47640198,1920,1,194563,231861,0.86,-0.36,9.94,-0.03,-0.01,-0.00,31.49
47680234,1846,1,194501,231827,0.83,-0.40,9.97,-0.03,-0.00,-0.00,31.49
47720194,1771,1,194439,231620,0.84,-0.37,9.96,-0.03,-0.01,-0.00,31.49
47760197,1717,1,194322,231642,0.83,-0.35,9.97,-0.03,-0.00,-0.01,31.49
47800197,1691,1,194120,229823,0.82,-0.37,9.95,-0.04,-0.00,-0.00,31.49
47840197,1703,1,192878,227466,0.83,-0.39,9.96,-0.04,-0.00,-0.00,31.49
47880194,1714,1,192511,227808,0.81,-0.38,10.00,-0.03,-0.01,-0.00,31.49
47920198,1744,1,192911,230021,0.80,-0.36,9.98,-0.03,-0.02,-0.00,31.49
47960195,1759,1,193755,233024,0.83,-0.38,9.95,-0.04,0.00,-0.00,31.49
48000177,1775,1,194571,234926,0.83,-0.40,9.99,-0.04,0.01,-0.01,31.49
48040177,1769,1,194940,235940,0.81,-0.38,9.98,-0.04,-0.02,-0.02,31.49
48080197,1751,1,195141,236507,0.80,-0.36,9.97,-0.03,-0.02,-0.03,31.49
48120195,1713,1,195095,235850,0.75,-0.34,10.01,-0.03,-0.02,-0.01,31.49
48160197,1670,1,194606,234558,0.81,-0.36,9.99,-0.03,-0.04,-0.00,31.49
48200197,1630,1,194230,233390,0.85,-0.37,9.95,-0.03,-0.03,-0.00,31.49
48240197,1643,1,194051,232908,0.84,-0.37,9.98,-0.03,-0.00,-0.00,31.49
48280198,1666,1,194044,232647,0.82,-0.39,9.96,-0.03,-0.00,-0.01,31.49
48320198,1698,1,193451,228781,0.82,-0.39,9.97,-0.03,-0.01,-0.01,31.49
48360197,1719,1,192127,227416,0.83,-0.37,9.98,-0.03,-0.01,-0.00,31.49
48400197,1744,1,192196,228332,0.82,-0.38,9.96,-0.03,0.00,-0.01,31.49
48440175,1769,1,192490,228967,0.82,-0.36,9.97,-0.03,-0.02,-0.00,31.49
48480197,1777,1,192667,229624,0.83,-0.37,9.98,-0.03,-0.02,-0.00,31.49
48520198,1781,1,193106,231652,0.84,-0.36,9.91,-0.03,-0.01,-0.00,31.49
48560884,1765,1,193875,233701,0.84,-0.37,9.96,-0.04,0.00,-0.01,31.55
48601177,1727,1,194320,234221,0.80,-0.37,10.01,-0.04,-0.01,-0.00,31.55
48641198,1729,1,194277,234112,0.80,-0.37,9.99,-0.03,-0.03,-0.00,31.55
48681194,1776,1,194242,234051,0.84,-0.39,9.93,-0.03,-0.03,-0.00,31.55
48721198,1771,1,194267,233917,0.86,-0.36,9.95,-0.03,-0.01,-0.00,31.55
48761197,1749,1,194222,233401,0.86,-0.36,9.96,-0.03,-0.01,-0.00,31.55
48801197,1743,1,193925,230580,0.81,-0.36,9.97,-0.03,-0.01,-0.00,31.55
48841197,1765,1,192192,226436,0.82,-0.37,9.95,-0.03,-0.01,-0.00,31.55
48881197,1820,1,191675,226210,0.85,-0.36,9.96,-0.03,-0.01,-0.00,31.55
48921197,1875,1,192000,228326,0.85,-0.36,10.00,-0.04,-0.01,-0.00,31.55
48961197,1921,1,193051,231349,0.81,-0.37,9.99,-0.03,-0.01,-0.00,31.55
48999197,1959,1,193791,232957,0.84,-0.40,10.00,-0.03,-0.01,-0.00,31.55
49039197,1974,1,194121,233268,0.84,-0.39,9.98,-0.03,-0.01,-0.00,31.55
49079197,1975,1,194054,232613,0.85,-0.36,9.97,-0.03,-0.01,-0.00,31.55
49119239,1963,1,193844,231544,0.84,-0.35,9.96,-0.03,-0.01,-0.00,31.55
49159197,1949,1,193591,230374,0.83,-0.38,9.98,-0.03,-0.01,-0.00,31.55
49199197,1968,1,193394,229941,0.87,-0.38,9.98,-0.03,-0.01,-0.00,31.55
49239197,1982,1,193485,230297,0.85,-0.38,9.95,-0.03,-0.00,-0.00,31.55
49279197,2032,1,193638,230773,0.83,-0.36,9.95,-0.03,-0.00,-0.01,31.55
49319239,2014,1,193057,228134,0.82,-0.37,9.98,-0.04,0.01,-0.01,31.55
49359177,2017,1,192222,227810,0.83,-0.37,9.99,-0.04,0.01,-0.01,31.55
49399177,1981,1,192490,229287,0.79,-0.38,10.01,-0.04,-0.00,-0.00,31.55
49439197,1938,1,192783,229206,0.82,-0.37,10.00,-0.03,-0.03,-0.00,31.55
49479197,1936,1,192719,228534,0.84,-0.35,9.94,-0.03,-0.03,-0.00,31.55
49519197,1884,1,192620,227743,0.83,-0.37,9.95,-0.03,-0.01,-0.00,31.55
49559197,1793,1,192380,226931,0.84,-0.36,9.95,-0.03,-0.01,-0.00,31.55
49599884,1723,1,192144,226615,0.83,-0.38,9.98,-0.03,-0.00,-0.01,31.41
49640197,1664,1,192077,226704,0.80,-0.36,9.98,-0.03,-0.00,-0.00,31.41
49680197,1584,1,192207,227098,0.81,-0.37,9.96,-0.03,-0.01,-0.00,31.41
49720197,1535,1,192440,227632,0.81,-0.38,9.98,-0.03,-0.02,-0.00,31.41
49760197,1474,1,192642,227771,0.84,-0.36,9.98,-0.03,-0.02,-0.00,31.41
49800198,1438,1,192441,225617,0.84,-0.37,9.96,-0.03,-0.02,-0.00,31.41
49840197,1435,1,191605,224034,0.85,-0.39,9.96,-0.03,-0.01,-0.00,31.41
49880197,1452,1,191413,224111,0.85,-0.39,9.97,-0.03,-0.02,-0.00,31.41
49920197,1440,1,191665,224445,0.83,-0.36,9.96,-0.03,-0.01,-0.00,31.41
49960197,1447,1,191777,224892,0.81,-0.34,9.96,-0.03,-0.00,-0.01,31.41
50000197,1467,1,191994,225488,0.84,-0.37,9.96,-0.03,-0.01,-0.00,31.41
50040197,1518,1,192171,225592,0.85,-0.40,9.97,-0.03,-0.01,-0.00,31.41
50080197,1603,1,192195,225190,0.82,-0.38,9.99,-0.03,-0.02,-0.00,31.41
50120197,1666,1,192229,224815,0.82,-0.34,9.95,-0.03,-0.03,-0.00,31.41
50160197,1708,1,192262,224938,0.87,-0.36,9.94,-0.03,-0.01,-0.00,31.41
50200198,1731,1,192267,226012,0.87,-0.37,9.95,-0.04,0.01,-0.01,31.41
50240177,1776,1,192500,227655,0.83,-0.38,10.00,-0.04,0.02,-0.01,31.41
50280174,1808,1,192632,226591,0.79,-0.35,10.03,-0.04,-0.00,-0.01,31.41
50320197,1845,1,191496,223676,0.82,-0.38,9.99,-0.03,-0.02,-0.00,31.41
50360197,1854,1,190879,223040,0.84,-0.37,9.93,-0.03,-0.02,-0.00,31.41
50400197,1872,1,190847,224151,0.86,-0.36,9.92,-0.04,0.01,-0.00,31.41
50440177,1872,1,191296,226613,0.80,-0.37,9.97,-0.04,0.03,-0.01,31.41
50480177,1869,1,192200,228933,0.80,-0.39,9.98,-0.04,0.02,-0.01,31.41
50520174,1844,1,192541,229066,0.80,-0.37,9.97,-0.03,-0.01,-0.02,31.41
50559197,1858,1,192340,228606,0.78,-0.37,9.97,-0.03,-0.02,-0.01,31.41
50599884,1888,1,192258,228781,0.78,-0.36,9.98,-0.04,-0.03,-0.00,31.49
50640197,1927,1,192226,228298,0.79,-0.37,10.01,-0.03,-0.02,-0.00,31.49
50680197,1925,1,191893,227570,0.81,-0.37,9.96,-0.03,-0.02,-0.00,31.49
50720197,1919,1,191680,227310,0.84,-0.36,9.97,-0.03,-0.01,-0.00,31.49
50760200,1913,1,191718,227945,0.82,-0.36,9.96,-0.04,0.00,-0.01,31.49
50800177,1889,1,191892,226943,0.80,-0.36,9.97,-0.04,-0.01,-0.01,31.49
50840197,1862,1,190784,223416,0.81,-0.38,9.95,-0.03,-0.02,-0.00,31.49
50880197,1871,1,189936,222293,0.81,-0.38,9.97,-0.03,-0.02,-0.00,31.49
50920197,1860,1,189768,222389,0.82,-0.35,9.96,-0.03,-0.02,-0.00,31.49
50960216,1851,1,190083,223868,0.82,-0.36,9.97,-0.03,0.00,-0.00,31.49
51000174,1822,1,190666,225156,0.80,-0.39,10.02,-0.03,-0.00,-0.00,31.49
51040197,1799,1,190884,225647,0.81,-0.37,9.96,-0.03,-0.01,-0.00,31.49
51080197,1758,1,191090,226168,0.82,-0.34,9.96,-0.03,-0.00,-0.00,31.49
51120197,1740,1,191229,226556,0.77,-0.36,9.99,-0.03,-0.01,-0.00,31.49
51160202,1747,1,191412,227452,0.82,-0.36,9.97,-0.03,-0.02,-0.00,31.49
51200197,1758,1,192024,229911,0.81,-0.35,10.00,-0.04,-0.01,-0.00,31.49
51240195,1773,1,192763,230978,0.78,-0.36,10.00,-0.04,-0.01,-0.00,31.49
51280197,1771,1,192816,230419,0.80,-0.36,9.98,-0.03,-0.03,-0.00,31.49
51320194,1764,1,192282,228762,0.80,-0.35,9.99,-0.03,-0.04,-0.00,31.49
51360197,1773,1,191939,227854,0.86,-0.37,9.94,-0.03,-0.05,-0.00,31.49
51400194,1744,1,191845,225967,0.88,-0.37,9.95,-0.03,-0.02,-0.00,31.49
51440197,1728,1,190701,224348,0.84,-0.35,9.93,-0.03,0.02,-0.01,31.49
51480177,1733,1,190497,224959,0.82,-0.37,9.99,-0.04,0.02,-0.00,31.49
51520177,1744,1,190705,225305,0.82,-0.39,9.97,-0.03,-0.01,-0.00,31.49
51560197,1763,1,190673,225236,0.84,-0.36,9.99,-0.03,-0.02,-0.00,31.49
51599884,1782,1,190787,225772,0.82,-0.35,9.97,-0.03,-0.02,-0.00,31.49
51640197,1803,1,191120,226831,0.83,-0.35,9.96,-0.03,-0.01,-0.00,31.49
51680197,1815,1,191601,228556,0.82,-0.37,9.96,-0.04,-0.01,-0.00,31.49
51720197,1807,1,192175,229913,0.83,-0.39,9.96,-0.03,-0.01,-0.00,31.49
51760197,1779,1,192585,231391,0.85,-0.35,9.93,-0.04,-0.02,-0.00,31.49
51800197,1739,1,193104,232666,0.81,-0.36,9.96,-0.03,-0.01,-0.00,31.49
51840197,1719,1,193397,233045,0.84,-0.39,9.97,-0.03,-0.00,-0.01,31.49
51880197,1707,1,193458,232889,0.83,-0.39,9.99,-0.03,-0.01,-0.00,31.49
51920197,1710,1,193354,232561,0.81,-0.39,9.98,-0.03,-0.01,-0.00,31.49
51960198,1717,1,193296,232735,0.83,-0.38,9.98,-0.04,-0.01,-0.00,31.49
52000197,1776,1,193352,232913,0.83,-0.40,9.99,-0.03,-0.01,-0.00,31.49
52040194,1808,1,193459,232273,0.83,-0.38,9.96,-0.03,-0.01,-0.00,31.49
52080197,1826,1,192371,228217,0.79,-0.36,9.98,-0.03,-0.01,-0.00,31.49
52120197,1829,1,191435,227685,0.79,-0.33,9.96,-0.03,-0.02,-0.00,31.49
52160197,1814,1,191935,229780,0.85,-0.37,9.96,-0.03,-0.02,-0.00,31.49
52200197,1770,1,192653,231418,0.84,-0.39,9.94,-0.03,-0.02,-0.00,31.49
52240197,1729,1,193154,232829,0.86,-0.38,9.93,-0.04,-0.01,-0.01,31.49
52280197,1737,1,193518,233313,0.82,-0.35,10.00,-0.04,0.00,-0.01,31.49
52320177,1735,1,193500,232708,0.83,-0.37,9.96,-0.03,-0.01,-0.01,31.49
52360197,1733,1,193249,231548,0.84,-0.39,9.97,-0.03,-0.02,-0.00,31.49
52400197,1727,1,192968,230674,0.85,-0.37,9.95,-0.03,-0.02,-0.00,31.49
52440197,1735,1,192975,230881,0.83,-0.35,9.95,-0.03,-0.01,-0.00,31.49
52480197,1724,1,193221,231775,0.85,-0.36,9.98,-0.03,-0.01,-0.00,31.49
52520197,1719,1,193491,232966,0.83,-0.40,9.97,-0.03,-0.01,-0.00,31.49
52560197,1712,1,193736,233894,0.85,-0.38,9.96,-0.03,-0.02,-0.00,31.49
52599884,1708,1,193917,234621,0.85,-0.34,9.96,-0.03,-0.00,-0.00,31.35
52640197,1655,1,194103,234645,0.82,-0.35,10.01,-0.03,-0.01,-0.00,31.35
52680197,1619,1,193596,232118,0.86,-0.40,9.95,-0.03,-0.01,-0.00,31.35
52720198,1616,1,193047,232526,0.84,-0.36,9.96,-0.04,0.01,-0.00,31.35
52760177,1595,1,193609,234534,0.84,-0.35,9.93,-0.04,-0.00,-0.01,31.35
52800233,1588,1,194158,235715,0.78,-0.35,10.02,-0.04,-0.01,-0.00,31.35
52840197,1595,1,194562,236707,0.80,-0.39,9.99,-0.04,-0.01,-0.01,31.35
52880198,1621,1,194794,237037,0.84,-0.37,9.98,-0.03,-0.02,-0.01,31.35
52920197,1670,1,194816,237019,0.84,-0.35,9.97,-0.03,-0.01,-0.00,31.35
52960197,1712,1,194801,236976,0.82,-0.37,9.99,-0.03,-0.01,-0.00,31.35
53000198,1764,1,194651,236357,0.87,-0.38,9.93,-0.03,0.01,-0.01,31.35
53040177,1824,1,194009,234963,0.77,-0.35,10.07,-0.00,0.03,-0.01,31.35
53080177,1849,1,193676,234745,0.80,-0.34,9.92,-0.03,-0.01,-0.00,31.35
53120197,1846,1,193719,234961,0.82,-0.36,9.94,-0.03,0.00,-0.00,31.35
53160174,1840,1,193713,234946,0.80,-0.35,10.00,-0.03,-0.01,-0.00,31.35
53200198,1837,1,193666,234711,0.81,-0.34,9.99,-0.04,-0.02,-0.00,31.35
53240197,1814,1,193520,233346,0.79,-0.36,9.99,-0.04,-0.02,-0.00,31.35
53280197,1796,1,191980,227087,0.80,-0.37,9.95,-0.03,-0.01,-0.00,31.35
53320194,1782,1,190367,225403,0.82,-0.34,9.96,-0.04,-0.01,-0.00,31.35
53360197,1794,1,190268,225698,0.83,-0.36,9.95,-0.04,-0.01,-0.00,31.35
53400197,1808,1,190514,226602,0.79,-0.36,9.97,-0.04,-0.00,-0.01,31.35
53440197,1842,1,190966,228024,0.77,-0.36,9.96,-0.04,-0.01,-0.00,31.35
53480197,1890,1,191409,228682,0.80,-0.34,9.97,-0.04,-0.02,-0.01,31.35
53520197,1890,1,191483,228685,0.81,-0.36,9.97,-0.04,-0.02,-0.00,31.35
53560197,1891,1,191469,228832,0.79,-0.38,9.98,-0.03,-0.02,-0.00,31.35
53600884,1871,1,191550,229047,0.82,-0.35,9.97,-0.03,-0.02,-0.00,31.35
53639198,1856,1,191717,229691,0.83,-0.36,9.96,-0.03,-0.02,-0.00,31.35
53679197,1823,1,192066,230518,0.84,-0.37,9.97,-0.03,-0.02,-0.00,31.35
53719198,1807,1,192346,231294,0.82,-0.39,9.95,-0.03,-0.02,-0.00,31.35
53759197,1779,1,192615,231927,0.84,-0.36,9.99,-0.03,-0.01,-0.00,31.35
53799197,1747,1,192767,231795,0.84,-0.35,9.95,-0.03,-0.01,-0.00,31.35
53839197,1731,1,192120,229104,0.84,-0.36,9.94,-0.04,-0.01,-0.00,31.35
53879198,1705,1,191474,228804,0.82,-0.36,9.97,-0.03,-0.00,-0.01,31.35
53919197,1697,1,191688,229932,0.83,-0.36,9.98,-0.03,-0.01,-0.00,31.35
53959197,1679,1,192169,231265,0.84,-0.37,9.97,-0.03,-0.02,-0.00,31.35
53999197,1679,1,192568,232243,0.84,-0.38,9.99,-0.03,-0.02,-0.00,31.35
54039198,1679,1,192901,233090,0.83,-0.36,9.98,-0.03,-0.02,-0.00,31.35
54079197,1670,1,193126,233534,0.87,-0.35,9.95,-0.04,-0.02,-0.00,31.35
54119198,1665,1,193332,234130,0.86,-0.37,9.94,-0.04,-0.01,-0.00,31.35
54159197,1664,1,193600,234828,0.85,-0.36,9.96,-0.04,-0.00,-0.00,31.35
54199197,1682,1,193780,235175,0.85,-0.36,9.98,-0.03,-0.00,-0.00,31.35
54239254,1728,1,193814,235073,0.83,-0.37,10.00,-0.03,-0.01,-0.00,31.35
54279194,1776,1,193806,235043,0.83,-0.36,9.95,-0.03,-0.01,-0.00,31.35
54319197,1792,1,193785,234646,0.86,-0.37,9.96,-0.03,-0.01,-0.00,31.35
54359197,1791,1,193542,232864,0.84,-0.37,9.94,-0.03,0.00,-0.01,31.35
54399177,1808,1,191858,227996,0.84,-0.35,9.97,-0.03,0.00,-0.00,31.35
54439228,1840,1,191219,230553,0.84,-0.37,9.96,-0.03,0.01,-0.01,31.35
54479177,1911,1,193388,235894,0.83,-0.35,9.98,-0.04,0.04,-0.01,31.35
54519177,1951,1,195190,238400,0.93,-0.45,9.98,-0.04,-0.01,-0.04,31.35
54559197,1933,1,195798,238788,0.74,-0.32,9.99,-0.04,-0.04,-0.06,31.35
54599197,1957,1,195162,237515,0.74,-0.32,9.97,-0.04,-0.04,-0.02,31.35
54639884,1931,1,194259,235864,0.84,-0.37,9.99,-0.03,-0.06,-0.00,31.53
54678198,1931,1,193697,234132,0.86,-0.35,9.99,-0.02,-0.06,0.00,31.53
54718177,1907,1,193274,231830,0.90,-0.38,9.91,-0.02,-0.06,0.01,31.53
54758177,1908,1,192968,232017,0.94,-0.35,9.87,-0.03,-0.01,-0.00,31.53
54798197,1901,1,193438,233958,0.91,-0.36,9.93,-0.04,0.05,-0.01,31.53
54838178,1876,1,193829,234992,0.82,-0.35,10.04,-0.04,0.00,-0.01,31.53
54878177,1863,1,194179,235310,0.85,-0.35,10.00,-0.04,-0.03,-0.00,31.53
54918194,1791,1,194326,233504,0.79,-0.39,10.08,-0.03,-0.12,0.00,31.53
54958177,1830,1,193742,233867,1.12,-0.35,9.64,-0.04,-0.07,0.00,31.53
54998177,1776,1,193780,235552,0.93,-0.33,10.01,-0.05,0.06,-0.01,31.53
55038177,1815,1,194216,236809,0.84,-0.37,10.03,-0.04,0.02,-0.01,31.53
55078177,1744,1,194373,237057,0.88,-0.38,9.96,-0.03,-0.01,-0.00,31.53
55118198,1719,1,194313,237152,0.92,-0.37,9.92,-0.03,-0.02,-0.00,31.53
55158197,1664,1,194567,237923,0.95,-0.38,9.91,-0.03,0.01,-0.00,31.53
55198177,1648,1,195052,238937,0.86,-0.34,9.98,-0.03,0.02,-0.00,31.53
55238177,1675,1,195478,239670,0.87,-0.35,9.98,-0.04,0.01,-0.01,31.53
55278210,1678,1,195378,238851,0.86,-0.36,10.04,-0.03,-0.01,-0.00,31.53
55318197,1663,1,194751,237447,0.89,-0.46,9.98,-0.03,-0.06,-0.00,31.53
55358197,1660,1,194642,236658,0.99,-0.32,9.93,-0.03,-0.07,-0.00,31.53
55398198,1659,1,194671,236183,0.92,-0.29,9.93,-0.03,0.03,-0.01,31.53
55438177,1669,1,194604,235512,0.87,-0.35,9.97,-0.03,-0.01,-0.00,31.53
55478197,1684,1,194105,231131,0.91,-0.42,9.96,-0.03,-0.01,-0.00,31.53
55518197,1680,1,192590,228805,0.93,-0.39,9.97,-0.03,-0.03,-0.00,31.53
55558198,1697,1,192369,229831,0.94,-0.29,9.90,-0.04,0.01,-0.00,31.53
55598177,1727,1,192808,233087,0.89,-0.35,9.90,-0.04,0.06,-0.01,31.53
55638175,1755,1,193699,235277,0.84,-0.45,10.01,-0.05,0.06,-0.02,31.53
55678863,1757,1,193923,234995,0.81,-0.31,10.05,-0.04,-0.01,-0.04,31.67
55719198,1772,1,193589,234143,0.80,-0.30,10.07,-0.03,-0.09,-0.00,31.67
55759197,1785,1,194291,234735,0.87,-0.41,9.86,-0.03,-0.08,0.00,31.67
55799174,1796,1,195023,236250,0.97,-0.34,9.88,-0.03,-0.01,-0.00,31.67
55839197,1809,1,195425,237380,0.93,-0.42,9.94,-0.04,0.03,-0.01,31.67
55879198,1806,1,195589,237712,0.86,-0.37,10.02,-0.04,0.02,-0.00,31.67
55919177,1798,1,195982,238020,0.79,-0.33,10.05,-0.03,-0.06,-0.00,31.67
55959194,1791,1,197321,239267,0.88,-0.37,10.02,-0.03,-0.11,0.00,31.67
55999177,1790,1,198714,240092,1.09,-0.35,9.84,-0.03,-0.08,0.01,31.67
56039177,1761,1,198636,238199,0.98,-0.42,9.83,-0.04,0.06,-0.01,31.67
56079210,1791,1,196794,236175,0.83,-0.32,9.98,-0.04,0.09,-0.01,31.67
56119177,1765,1,196279,236707,0.85,-0.30,10.08,-0.04,-0.01,-0.01,31.67
56159198,1750,1,196739,237354,0.88,-0.41,10.01,-0.03,-0.06,-0.00,31.67
56199194,1733,1,197518,238100,0.98,-0.39,9.91,-0.03,-0.08,-0.00,31.67
56239197,1693,1,198038,238595,0.94,-0.35,9.90,-0.04,-0.00,-0.00,31.67
56279214,1665,1,197876,238649,0.92,-0.32,9.97,-0.03,0.03,-0.01,31.67
56319177,1639,1,197205,238068,0.93,-0.38,9.96,-0.04,0.03,-0.01,31.67
56359177,1665,1,196388,237306,0.89,-0.45,9.99,-0.04,0.00,-0.01,31.67
56399177,1710,1,195987,236682,0.86,-0.32,10.01,-0.04,-0.02,-0.00,31.67
56439197,1685,1,196012,236140,0.85,-0.35,10.01,-0.03,-0.04,-0.00,31.67
56479198,1683,1,196054,235054,0.93,-0.40,9.90,-0.03,-0.06,0.00,31.67
56519174,1702,1,195759,235606,1.02,-0.35,9.88,-0.03,0.03,-0.01,31.67
56559177,1710,1,195939,238328,0.90,-0.37,9.98,-0.04,0.09,-0.01,31.67
56599174,1711,1,196726,239018,0.77,-0.34,10.07,-0.04,0.02,-0.01,31.67
56639177,1718,1,196120,237242,0.81,-0.38,9.97,-0.03,-0.02,-0.00,31.67
56679884,1711,1,195508,237273,0.94,-0.40,9.95,-0.03,-0.01,-0.00,31.55
56719197,1718,1,196249,239447,0.92,-0.32,9.92,-0.04,0.03,-0.01,31.55
56759177,1712,1,196890,239783,0.77,-0.40,10.06,-0.04,0.01,-0.02,31.55
56799177,1674,1,196199,238097,0.77,-0.38,10.03,-0.03,-0.05,-0.01,31.55
56839197,1651,1,194953,235889,0.89,-0.35,9.97,-0.02,-0.09,-0.00,31.55
56879197,1641,1,194666,235112,0.96,-0.38,9.89,-0.03,-0.07,-0.00,31.55
56919197,1639,1,194662,234692,0.91,-0.38,9.93,-0.03,0.00,-0.00,31.55
56959177,1686,1,194469,234709,0.89,-0.38,9.97,-0.03,0.02,-0.00,31.55
56999178,1606,1,194363,235126,0.92,-0.35,9.98,-0.03,0.02,-0.00,31.55
57039177,1599,1,194423,235609,0.92,-0.37,9.92,-0.04,0.02,-0.00,31.55
57079177,1600,1,194476,235666,0.85,-0.40,10.01,-0.04,0.02,-0.01,31.55
57119177,1626,1,194293,234169,0.84,-0.35,10.01,-0.04,-0.02,-0.00,31.55
57159197,1654,1,192907,228666,0.89,-0.37,9.97,-0.03,-0.04,-0.00,31.55
57199197,1725,1,191967,226835,0.91,-0.40,9.94,-0.03,-0.04,-0.00,31.55
57239194,1793,1,192063,227216,0.90,-0.37,9.95,-0.03,-0.00,-0.00,31.55
57279198,1867,1,192339,227617,0.90,-0.38,9.96,-0.03,0.00,-0.01,31.55
57319174,1968,1,192553,227648,0.88,-0.35,10.01,-0.03,-0.02,-0.00,31.55
57359197,2043,1,192946,228052,0.91,-0.37,9.97,-0.02,-0.05,0.00,31.55
57399174,2068,1,193394,229729,1.01,-0.37,9.89,-0.03,-0.02,-0.00,31.55
57439197,2054,1,193879,233609,0.93,-0.34,9.87,-0.04,0.06,-0.01,31.55
57479177,2016,1,194688,237245,0.82,-0.37,9.99,-0.05,0.09,-0.01,31.55
57519177,2018,1,195777,238532,0.77,-0.38,10.06,-0.03,-0.01,-0.01,31.55
57559197,2005,1,195537,237784,0.82,-0.35,10.02,-0.03,-0.05,-0.00,31.55
57599197,1995,1,194955,237562,0.89,-0.38,9.93,-0.03,-0.07,-0.00,31.55
57639197,1971,1,195013,238040,0.90,-0.38,9.93,-0.04,-0.01,-0.00,31.55
57679884,1957,1,195206,237981,0.90,-0.37,9.94,-0.04,0.01,-0.01,31.53
57718215,1933,1,194967,237371,0.88,-0.36,9.93,-0.04,0.02,-0.01,31.53
57758177,1860,1,194569,236511,0.85,-0.38,10.02,-0.03,-0.02,-0.00,31.53
57798197,1709,1,194094,235572,0.87,-0.38,9.96,-0.03,-0.03,-0.00,31.53
57838197,1597,1,193854,235006,0.90,-0.37,9.96,-0.03,-0.02,-0.00,31.53
57878195,1535,1,193846,234877,0.88,-0.36,9.98,-0.03,-0.00,-0.00,31.53
57918212,1502,1,193785,234541,0.87,-0.38,9.95,-0.03,-0.00,-0.01,31.53
57958198,1454,1,193603,234009,0.89,-0.37,9.97,-0.03,-0.01,-0.00,31.53
57998197,1398,1,193494,233971,0.89,-0.37,9.96,-0.03,-0.01,-0.00,31.53
58038197,1236,1,193584,234080,0.88,-0.36,9.96,-0.03,-0.00,-0.00,31.53
58078197,1133,1,193495,233515,0.87,-0.38,9.98,-0.03,-0.01,-0.00,31.53
58118198,1017,1,193164,232431,0.87,-0.38,9.98,-0.03,-0.02,-0.00,31.53
58158197,867,1,192971,231577,0.88,-0.35,9.96,-0.03,-0.03,-0.00,31.53
58198194,842,1,192814,229238,0.90,-0.38,9.95,-0.03,-0.02,-0.00,31.53
58238197,1130,1,191346,225111,0.89,-0.38,9.95,-0.03,-0.02,-0.00,31.53
58278197,1437,1,190641,224323,0.91,-0.34,9.96,-0.03,-0.01,-0.00,31.53
58318197,1757,1,190688,224808,0.89,-0.36,9.96,-0.03,-0.01,-0.00,31.53
58358197,2000,1,191018,225660,0.91,-0.37,9.94,-0.03,-0.01,-0.00,31.53
58398197,2251,1,191449,227190,0.91,-0.38,10.00,-0.03,-0.01,-0.00,31.53
58438195,2465,1,192140,229282,0.91,-0.35,9.95,-0.04,-0.00,-0.01,31.53
58478197,2559,1,192722,231199,0.91,-0.35,9.96,-0.04,0.00,-0.00,31.53
58518175,2605,1,193147,232536,0.90,-0.37,9.96,-0.04,0.00,-0.01,31.53
58558177,2544,1,193506,233447,0.88,-0.36,9.97,-0.04,0.00,-0.01,31.53
58598174,2474,1,193590,233163,0.88,-0.37,9.96,-0.03,-0.01,-0.00,31.53
58638197,2331,1,193274,231716,0.89,-0.36,9.95,-0.03,-0.02,-0.00,31.53
58678197,1952,1,192812,230063,0.89,-0.35,9.98,-0.03,-0.03,-0.00,31.53
58718884,1849,1,192530,227549,0.91,-0.36,9.93,-0.03,-0.01,-0.00,31.57
58757197,1757,1,191113,224134,0.89,-0.38,9.96,-0.04,0.00,-0.01,31.57
58797177,1750,1,190441,223113,0.86,-0.38,10.00,-0.03,-0.01,-0.01,31.57
58837197,1734,1,190367,223024,0.88,-0.36,9.96,-0.03,-0.02,-0.00,31.57
58877197,1728,1,190531,223456,0.90,-0.36,9.96,-0.03,-0.02,-0.00,31.57
58917194,1729,1,190805,224730,0.91,-0.35,9.95,-0.03,0.00,-0.01,31.57
58957177,1728,1,191219,225406,0.90,-0.37,9.96,-0.03,-0.01,-0.00,31.57
58997194,1682,1,191185,224922,0.87,-0.35,9.96,-0.03,-0.02,-0.00,31.57
59037197,1648,1,191062,224444,0.89,-0.36,9.94,-0.03,-0.01,-0.00,31.57
59077197,1621,1,191082,224257,0.88,-0.36,9.96,-0.03,-0.01,-0.00,31.57
59117197,1597,1,191116,224118,0.91,-0.37,9.96,-0.03,-0.01,-0.00,31.57
59157197,1173,1,191208,224097,0.87,-0.36,9.98,-0.03,-0.02,-0.00,31.57
59197197,1649,1,191456,224474,0.92,-0.36,9.92,-0.03,-0.01,-0.00,31.57
59237197,1521,1,191854,224086,0.93,-0.35,9.91,-0.03,-0.01,-0.00,31.57
59277197,1583,1,191280,222090,0.89,-0.36,9.96,-0.03,-0.01,-0.00,31.57
59317197,1647,1,190892,221424,0.92,-0.33,9.98,-0.03,-0.01,-0.00,31.57
59357218,1791,1,191081,221702,0.90,-0.35,10.00,-0.03,-0.03,-0.00,31.57
59397193,1843,1,191428,222805,0.93,-0.39,9.93,-0.03,-0.01,-0.00,31.57
59437197,1887,1,191954,224878,0.93,-0.35,9.94,-0.04,0.01,-0.00,31.57
59477177,1869,1,192474,226791,0.88,-0.35,10.00,-0.04,0.01,-0.01,31.57
59517177,1806,1,192804,227625,0.88,-0.37,9.97,-0.04,0.00,-0.01,31.57
59557175,1741,1,192842,227467,0.88,-0.36,10.01,-0.03,-0.01,-0.01,31.57
59597197,1657,1,192804,227025,0.90,-0.34,9.97,-0.03,-0.03,-0.00,31.57
59637194,1677,1,192865,226922,0.93,-0.35,9.95,-0.03,-0.02,-0.00,31.57
59677197,1584,1,192916,226884,0.91,-0.38,9.96,-0.03,-0.01,-0.00,31.57
59717198,1535,1,192847,226664,0.91,-0.35,9.96,-0.03,0.00,-0.01,31.57
59757863,1503,1,192684,224320,0.89,-0.34,9.97,-0.03,-0.01,-0.00,31.49
59798198,1450,1,191534,220657,0.87,-0.35,10.01,-0.03,-0.03,-0.00,31.49
59838197,1535,1,191042,219692,0.93,-0.36,9.94,-0.03,-0.02,-0.00,31.49
59878194,1638,1,191521,221459,0.92,-0.35,9.96,-0.03,-0.01,-0.00,31.49
59918197,1771,1,192414,224027,0.92,-0.36,9.94,-0.04,0.00,-0.01,31.49
59958175,1854,1,193309,226459,0.90,-0.35,9.97,-0.04,-0.01,-0.00,31.49
59998197,1899,1,193867,227490,0.89,-0.36,9.98,-0.04,-0.02,-0.00,31.49
60038197,1914,1,193959,228183,0.94,-0.36,9.96,-0.04,-0.01,-0.01,31.49
60078197,1920,1,193898,229039,0.92,-0.38,9.94,-0.04,0.00,-0.00,31.49
60118174,2002,1,194058,230234,0.89,-0.37,9.97,-0.04,0.01,-0.01,31.49
60158208,1983,1,194134,230723,0.89,-0.36,10.00,-0.03,-0.00,-0.00,31.49
60198224,1842,1,194249,231390,0.89,-0.37,9.97,-0.03,-0.01,-0.00,31.49
60238197,1790,1,194494,232480,0.90,-0.35,9.93,-0.04,0.01,-0.01,31.49
60278177,1807,1,194529,230174,0.86,-0.36,10.00,-0.04,-0.01,-0.01,31.49
60318197,1837,1,192859,226352,0.86,-0.36,9.97,-0.03,-0.02,-0.00,31.49
60358197,1863,1,192455,226087,0.90,-0.35,9.97,-0.03,-0.02,-0.00,31.49
60398222,1908,1,192724,226796,0.91,-0.36,9.94,-0.03,-0.01,-0.00,31.49
60438197,1966,1,193084,227865,0.90,-0.35,9.96,-0.03,-0.01,-0.00,31.49
60478197,1926,1,193453,228549,0.91,-0.34,9.94,-0.03,-0.01,-0.00,31.49
60518197,1874,1,193417,228437,0.91,-0.36,9.99,-0.03,0.00,-0.01,31.49
60558177,1791,1,193234,227961,0.89,-0.37,9.99,-0.03,-0.01,-0.00,31.49
60598197,1641,1,193196,227983,0.89,-0.35,9.95,-0.03,-0.02,-0.00,31.49
60638197,1447,1,193451,229333,0.90,-0.36,9.97,-0.03,-0.01,-0.00,31.49
60678194,1455,1,193934,231710,0.94,-0.37,9.93,-0.04,0.01,-0.01,31.49
60718177,1556,1,194213,232551,0.86,-0.37,10.03,-0.04,0.02,-0.01,31.49
60758864,1659,1,193959,231033,0.83,-0.37,9.99,-0.03,-0.03,-0.00,31.47
60797197,1760,1,192940,226214,0.89,-0.34,9.95,-0.03,-0.05,-0.00,31.47
60837194,1847,1,191705,224746,0.93,-0.36,9.98,-0.03,-0.01,-0.00,31.47
60877198,1877,1,191474,225407,0.94,-0.36,9.92,-0.04,0.03,-0.01,31.47
60917177,1878,1,191682,226774,0.85,-0.35,9.97,-0.04,0.04,-0.01,31.47
60957177,1905,1,191894,226686,0.82,-0.34,10.02,-0.04,-0.00,-0.01,31.47
60997222,1906,1,192189,226445,0.88,-0.37,9.98,-0.03,-0.03,-0.00,31.47
61037197,1909,1,192541,226248,0.89,-0.39,9.91,-0.03,-0.02,-0.00,31.47
61077197,1889,1,192603,226757,0.88,-0.34,9.95,-0.04,-0.00,-0.00,31.47
61117197,1877,1,192763,227909,0.84,-0.34,9.98,-0.04,0.00,-0.01,31.47
61157177,1857,1,193000,229155,0.85,-0.36,9.97,-0.04,-0.00,-0.01,31.47
61197238,1842,1,193183,230627,0.87,-0.37,9.98,-0.04,0.00,-0.01,31.47
61237175,1827,1,193414,231550,0.87,-0.37,10.01,-0.03,-0.01,-0.00,31.47
61277197,1809,1,193421,230471,0.84,-0.34,9.98,-0.03,-0.01,-0.00,31.47
61317197,1797,1,191858,224803,0.85,-0.36,9.96,-0.03,-0.02,-0.00,31.47
61357197,1791,1,190735,223216,0.85,-0.37,9.98,-0.03,-0.02,-0.00,31.47
61397198,1787,1,190579,222499,0.88,-0.35,9.96,-0.03,-0.03,-0.00,31.47
61437197,1790,1,190547,222828,0.89,-0.37,9.93,-0.03,-0.01,-0.00,31.47
61477198,1813,1,190811,224724,0.88,-0.35,9.94,-0.04,0.02,-0.01,31.47
61517177,1850,1,191256,226083,0.84,-0.38,9.97,-0.04,0.01,-0.01,31.47
61557177,1898,1,191341,226063,0.85,-0.36,9.98,-0.03,-0.00,-0.00,31.47
61597197,1959,1,191211,225257,0.83,-0.35,9.97,-0.03,-0.01,-0.00,31.47
61638197,2019,1,190998,224149,0.86,-0.38,9.96,-0.03,-0.03,-0.00,31.47
61678197,2076,1,191033,224044,0.89,-0.36,9.93,-0.03,-0.02,-0.00,31.47
