timestamp_us,ecg,leads,ir,red,accX,accY,accZ,gyroX,gyroY,gyroZ,temp
2420487,1763,1,192215,228765,0.00,0.00,0.00,0.00,0.00,0.00,0.00
2450958,1744,1,190356,225287,0.10,-0.80,9.67,-0.02,-0.04,0.00,31.43
2491177,1771,1,190257,225190,0.11,-0.83,9.88,-0.03,-0.02,-0.00,31.43
2531188,1791,1,190380,225686,0.09,-0.82,9.96,-0.04,0.01,-0.01,31.43
2571171,1802,1,190535,226510,0.06,-0.84,9.98,-0.04,0.01,-0.01,31.43
2610169,1837,1,190746,227494,0.06,-0.84,9.99,-0.03,-0.00,-0.01,31.43
2650192,1850,1,190908,227409,0.05,-0.82,9.95,-0.03,-0.01,-0.00,31.43
2690188,1863,1,190437,225915,0.10,-0.84,9.98,-0.03,-0.01,-0.00,31.43
2730192,1861,1,190010,225078,0.08,-0.81,9.95,-0.03,-0.01,-0.00,31.43
2770188,1856,1,189818,225056,0.07,-0.84,9.94,-0.03,-0.00,-0.01,31.43
2810192,1851,1,189842,225287,0.05,-0.82,9.94,-0.03,-0.00,-0.01,31.43
2850188,1861,1,189923,225575,0.05,-0.83,9.96,-0.03,-0.01,-0.01,31.43
2890191,1842,1,190030,225726,0.07,-0.85,9.94,-0.03,-0.01,-0.01,31.43
2930189,1829,1,189895,225416,0.04,-0.82,9.94,-0.03,-0.01,-0.00,31.43
2970192,1822,1,189820,225213,0.06,-0.82,9.96,-0.03,-0.01,-0.01,31.43
3010188,1795,1,189623,224322,0.05,-0.84,9.95,-0.03,-0.00,-0.01,31.43
3050191,1789,1,189059,222797,0.06,-0.82,9.97,-0.03,-0.01,-0.01,31.43
3090188,1794,1,188652,222054,0.04,-0.81,9.96,-0.03,-0.01,-0.01,31.43
3130192,1796,1,188385,221479,0.06,-0.81,9.94,-0.03,-0.01,-0.00,31.43
3170188,1805,1,188241,221096,0.06,-0.82,9.95,-0.03,-0.01,-0.00,31.43
3210195,1807,1,188172,220989,0.05,-0.82,9.94,-0.03,-0.01,-0.00,31.43
3250188,1807,1,188248,221316,0.02,-0.84,9.94,-0.03,-0.01,-0.01,31.43
3290192,1807,1,188368,221593,0.05,-0.82,9.95,-0.03,-0.01,-0.01,31.43
3330188,1808,1,188466,222099,0.05,-0.83,9.95,-0.03,-0.01,-0.01,31.43
3370191,1813,1,188659,223143,0.02,-0.83,9.97,-0.04,-0.01,-0.01,31.43
3410188,1812,1,189020,224091,0.06,-0.81,9.91,-0.04,-0.01,-0.01,31.43
3450192,1810,1,189586,225011,0.04,-0.82,9.96,-0.04,-0.01,-0.01,31.43
3490875,1802,1,189937,225648,0.07,-0.83,9.94,-0.03,-0.01,-0.01,31.07
3531192,1809,1,190326,226589,0.06,-0.82,9.95,-0.03,-0.01,-0.01,31.07
3571188,1813,1,190603,227477,0.05,-0.83,9.95,-0.03,-0.01,-0.01,31.07
3611192,1827,1,190862,228077,0.06,-0.83,9.92,-0.03,-0.01,-0.01,31.07
3650188,1825,1,190816,226387,0.04,-0.83,9.96,-0.03,-0.01,-0.01,31.07
3690192,1823,1,189604,223747,0.06,-0.82,9.96,-0.03,-0.01,-0.01,31.07
3730188,1830,1,189016,223061,0.07,-0.84,9.95,-0.03,-0.01,-0.01,31.07
3770192,1835,1,188933,222671,0.07,-0.83,9.96,-0.03,-0.01,-0.01,31.07
3810188,1841,1,188845,222446,0.06,-0.82,9.94,-0.03,-0.01,-0.00,31.07
3850192,1840,1,188782,222508,0.05,-0.84,9.95,-0.03,-0.01,-0.00,31.07
3890187,1840,1,188971,222994,0.06,-0.84,9.92,-0.03,-0.01,-0.00,31.07
3930191,1852,1,189167,223345,0.05,-0.81,9.94,-0.03,-0.01,-0.00,31.07
3970188,1851,1,189255,223853,0.05,-0.84,9.96,-0.03,-0.01,-0.01,31.07
4010191,1851,1,189431,224340,0.06,-0.83,9.96,-0.03,-0.01,-0.01,31.07
4050189,1838,1,189557,224858,0.06,-0.81,9.95,-0.03,-0.01,-0.01,31.07
4090191,1857,1,189776,225712,0.07,-0.82,9.95,-0.04,-0.01,-0.01,31.07
4130188,1854,1,190032,226539,0.04,-0.81,9.94,-0.04,-0.01,-0.01,31.07
4170191,1863,1,190288,227010,0.05,-0.84,9.94,-0.03,-0.01,-0.01,31.07
4210188,1856,1,190504,227299,0.05,-0.83,9.94,-0.03,-0.01,-0.01,31.07
4250192,1853,1,190572,227210,0.04,-0.82,9.98,-0.03,-0.01,-0.00,31.07
4290188,1840,1,190264,224893,0.06,-0.82,9.94,-0.03,-0.01,-0.00,31.07
4330192,1845,1,189086,222893,0.05,-0.82,9.94,-0.03,-0.01,-0.00,31.07
4370188,1846,1,188728,222210,0.07,-0.83,9.96,-0.03,-0.01,-0.00,31.07
4410192,1842,1,188592,221901,0.05,-0.83,9.95,-0.03,-0.01,-0.00,31.07
4450188,1852,1,188555,221704,0.06,-0.82,9.95,-0.03,-0.01,-0.00,31.07
4490192,1858,1,188506,221868,0.07,-0.81,9.95,-0.03,-0.01,-0.00,31.07
4530875,1844,1,188698,222326,0.06,-0.82,9.97,-0.03,-0.01,-0.01,31.25
4571192,1862,1,188820,222487,0.06,-0.85,9.96,-0.03,-0.01,-0.00,31.25
4611188,1875,1,188860,222809,0.05,-0.82,9.97,-0.03,-0.01,-0.01,31.25
4650233,1887,1,189046,222899,0.07,-0.83,9.95,-0.03,-0.01,-0.00,31.25
4690188,1883,1,189049,223286,0.02,-0.85,9.96,-0.03,-0.01,-0.01,31.25
4730191,1886,1,189124,223821,0.06,-0.83,9.94,-0.03,-0.01,-0.01,31.25
4770188,1886,1,189368,224222,0.05,-0.85,9.95,-0.03,-0.01,-0.00,31.25
4810192,1879,1,189493,224642,0.04,-0.84,9.96,-0.03,-0.01,-0.01,31.25
4850209,1867,1,189682,224967,0.05,-0.84,9.93,-0.03,-0.01,-0.01,31.25
4890192,1872,1,189608,224140,0.06,-0.81,9.97,-0.03,-0.01,-0.00,31.25
4930188,1876,1,188869,222314,0.05,-0.80,9.94,-0.03,-0.01,-0.01,31.25
4970191,1869,1,188418,221509,0.05,-0.82,9.94,-0.03,-0.01,-0.01,31.25
5010189,1859,1,188257,221266,0.06,-0.82,9.93,-0.03,-0.01,-0.01,31.25
5051195,1857,1,188238,221130,0.07,-0.84,9.95,-0.03,-0.01,-0.01,31.25
5091188,1860,1,188129,221216,0.05,-0.82,9.94,-0.03,-0.01,-0.01,31.25
5131192,1872,1,188160,221582,0.06,-0.82,9.96,-0.03,-0.01,-0.00,31.25
5171188,1873,1,188346,221703,0.04,-0.82,9.95,-0.03,-0.01,-0.01,31.25
5211192,1873,1,188403,221755,0.04,-0.83,9.96,-0.03,-0.01,-0.01,31.25
5251189,1870,1,188334,221844,0.05,-0.81,9.95,-0.03,-0.01,-0.00,31.25
5291192,1872,1,188484,221829,0.05,-0.83,9.97,-0.03,-0.01,-0.00,31.25
5331188,1859,1,188287,221954,0.05,-0.82,9.96,-0.03,-0.01,-0.00,31.25
5371192,1867,1,188450,222234,0.04,-0.84,9.94,-0.03,-0.01,-0.01,31.25
5411188,1863,1,188510,222730,0.04,-0.82,9.95,-0.03,-0.01,-0.01,31.25
5451192,1867,1,188738,222942,0.04,-0.83,9.98,-0.03,-0.01,-0.00,31.25
5491188,1863,1,188824,223138,0.05,-0.82,9.94,-0.03,-0.01,-0.01,31.25
5531878,1850,1,188705,221866,0.04,-0.82,9.96,-0.03,-0.01,-0.00,31.13
5570188,1855,1,187983,220455,0.02,-0.83,9.97,-0.03,-0.01,-0.01,31.13
5610191,1851,1,187679,219518,0.02,-0.83,9.99,-0.03,-0.01,-0.00,31.13
5650188,1861,1,187449,219044,0.06,-0.82,9.95,-0.03,-0.01,-0.00,31.13
5690192,1861,1,187264,218715,0.04,-0.81,9.95,-0.03,-0.01,-0.00,31.13
5730188,1875,1,187197,218693,0.06,-0.82,9.93,-0.03,-0.01,-0.01,31.13
5770192,1874,1,187435,219147,0.03,-0.81,9.96,-0.03,-0.01,-0.01,31.13
5810189,1873,1,187506,219591,0.06,-0.82,9.96,-0.04,-0.01,-0.01,31.13
5850192,1882,1,187634,219902,0.06,-0.85,9.95,-0.03,-0.01,-0.01,31.13
5890189,1887,1,187700,219891,0.06,-0.80,9.97,-0.03,-0.01,-0.01,31.13
5930192,1877,1,187722,220366,0.05,-0.83,9.96,-0.03,-0.01,-0.01,31.13
5970188,1866,1,187876,220639,0.03,-0.82,9.96,-0.03,-0.01,-0.01,31.13
6010192,1883,1,188072,221221,0.05,-0.81,9.94,-0.03,-0.01,-0.00,31.13
6050188,1869,1,188185,221656,0.04,-0.83,9.97,-0.03,-0.01,-0.00,31.13
6090192,1866,1,188473,222323,0.06,-0.82,9.93,-0.04,-0.01,-0.01,31.13
6130188,1863,1,188616,222627,0.02,-0.83,9.97,-0.04,-0.01,-0.01,31.13
6170192,1863,1,188292,221003,0.03,-0.84,9.96,-0.03,-0.01,-0.01,31.13
6210188,1853,1,187815,220049,0.04,-0.82,9.95,-0.03,-0.01,-0.01,31.13
6250213,1855,1,187716,220059,0.05,-0.81,9.96,-0.03,-0.01,-0.01,31.13
6290204,1840,1,187689,220103,0.06,-0.83,9.95,-0.03,-0.01,-0.00,31.13
6330192,1826,1,187721,220037,0.05,-0.85,9.95,-0.03,-0.01,-0.00,31.13
6370188,1843,1,187835,220187,0.06,-0.84,9.97,-0.03,-0.01,-0.00,31.13
6410192,1835,1,187806,220463,0.05,-0.84,9.97,-0.03,-0.01,-0.00,31.13
6450188,1855,1,187991,220638,0.07,-0.82,9.95,-0.03,-0.01,-0.00,31.13
6490219,1851,1,188113,220797,0.03,-0.82,9.94,-0.03,-0.01,-0.01,31.13
6530189,1868,1,188131,221299,0.06,-0.82,9.98,-0.03,-0.01,-0.00,31.13
6570878,1831,1,188315,221570,0.05,-0.84,9.94,-0.03,-0.01,-0.00,31.05
6609188,1867,1,188386,221721,0.05,-0.83,9.93,-0.03,-0.01,-0.00,31.05
6649192,1856,1,188492,222049,0.03,-0.83,9.95,-0.03,-0.01,-0.01,31.05
6689198,1808,1,188537,222346,0.06,-0.83,9.96,-0.03,-0.01,-0.01,31.05
6730192,1815,1,188623,222605,0.06,-0.84,9.92,-0.04,-0.01,-0.01,31.05
6770189,1817,1,188458,221492,0.07,-0.82,9.91,-0.03,-0.01,-0.01,31.05
6810192,1815,1,187887,220138,0.05,-0.82,9.97,-0.03,-0.01,-0.01,31.05
6850189,1831,1,187678,219720,0.03,-0.84,9.95,-0.03,-0.01,-0.01,31.05
6890191,1837,1,187625,219745,0.06,-0.81,9.94,-0.03,-0.01,-0.00,31.05
6930188,1904,1,187708,219773,0.06,-0.84,9.94,-0.03,-0.01,-0.00,31.05
6970192,1891,1,187699,220230,0.05,-0.84,9.96,-0.03,-0.01,-0.00,31.05
7010188,1933,1,187898,220802,0.05,-0.83,9.95,-0.03,-0.01,-0.01,31.05
7050192,1959,1,188052,221018,0.06,-0.83,9.92,-0.03,-0.01,-0.01,31.05
7090189,1959,1,188197,221261,0.05,-0.82,9.99,-0.03,-0.03,-0.01,31.05
7130192,1968,1,188201,221243,0.06,-0.83,9.98,-0.03,-0.03,-0.01,31.05
7170189,1949,1,188222,221523,0.10,-0.81,9.94,-0.03,-0.01,-0.01,31.05
7210192,1965,1,188430,221736,0.08,-0.82,9.96,-0.03,-0.01,-0.00,31.05
7250188,1939,1,188561,222107,0.06,-0.84,9.96,-0.03,-0.01,-0.00,31.05
7290192,1938,1,188748,222574,0.06,-0.83,9.94,-0.03,-0.01,-0.00,31.05
7330189,1936,1,188887,222914,0.05,-0.81,9.95,-0.03,-0.01,-0.00,31.05
7370192,1919,1,188859,221757,0.07,-0.84,9.92,-0.03,-0.01,-0.00,31.05
7410188,1904,1,188247,220050,0.06,-0.82,9.95,-0.03,-0.01,-0.00,31.05
7450192,1870,1,187813,219403,0.09,-0.82,9.95,-0.03,-0.01,-0.01,31.05
7490189,1845,1,187706,219257,0.08,-0.82,9.94,-0.03,-0.01,-0.01,31.05
7530192,1840,1,187656,219215,0.06,-0.85,9.93,-0.03,-0.01,-0.01,31.05
7570875,1819,1,187737,219470,0.09,-0.83,9.95,-0.03,-0.01,-0.01,30.99
7609192,1834,1,187942,220056,0.06,-0.83,9.97,-0.03,-0.01,-0.00,30.99
7649188,1815,1,188037,220281,0.06,-0.85,9.97,-0.03,-0.01,-0.01,30.99
7689192,1795,1,188018,220380,0.07,-0.84,9.95,-0.03,-0.01,-0.00,30.99
7730188,1757,1,188041,220487,0.07,-0.82,9.97,-0.03,-0.01,-0.01,30.99
7770192,1753,1,188137,220744,0.07,-0.82,9.96,-0.03,-0.01,-0.01,30.99
7810188,1744,1,188122,220847,0.06,-0.82,9.95,-0.03,-0.01,-0.01,30.99
7850192,1738,1,188323,221107,0.06,-0.82,9.96,-0.03,-0.01,-0.00,30.99
7890188,1718,1,188357,221563,0.07,-0.83,9.93,-0.03,-0.01,-0.00,30.99
7930192,1714,1,188558,221902,0.08,-0.83,9.96,-0.03,-0.01,-0.01,30.99
7970189,1703,1,188530,221182,0.06,-0.81,9.94,-0.03,-0.01,-0.00,30.99
8010192,1710,1,187918,219432,0.10,-0.82,9.94,-0.03,-0.01,-0.01,30.99
8050189,1710,1,187581,218740,0.07,-0.80,9.93,-0.03,-0.01,-0.00,30.99
8090192,1724,1,187420,218521,0.07,-0.83,9.96,-0.03,-0.01,-0.00,30.99
8130190,1749,1,187376,218325,0.06,-0.80,9.94,-0.03,-0.01,-0.00,30.99
8170192,1766,1,187373,218446,0.08,-0.83,9.97,-0.03,-0.02,-0.00,30.99
8210188,1765,1,187517,218985,0.08,-0.81,9.98,-0.03,-0.01,-0.00,30.99
8250191,1781,1,187760,219312,0.08,-0.82,9.95,-0.03,-0.01,-0.01,30.99
8290189,1776,1,187784,219376,0.09,-0.85,9.96,-0.03,-0.01,-0.01,30.99
8330195,1793,1,187749,219450,0.07,-0.82,9.97,-0.03,-0.01,-0.00,30.99
8370188,1788,1,187840,219501,0.08,-0.83,9.93,-0.03,-0.01,-0.01,30.99
8410191,1797,1,187895,219570,0.09,-0.84,9.94,-0.03,-0.01,-0.01,30.99
8450189,1800,1,187876,219836,0.08,-0.84,9.97,-0.03,-0.01,-0.01,30.99
8490191,1805,1,188007,220292,0.09,-0.81,9.97,-0.03,-0.01,-0.01,30.99
8530189,1803,1,188410,221424,0.09,-0.83,9.95,-0.04,-0.02,-0.00,30.99
8570192,1808,1,188899,221580,0.09,-0.84,9.96,-0.04,-0.01,-0.01,30.99
8610875,1796,1,188388,219950,0.10,-0.83,9.94,-0.03,-0.01,-0.01,30.87
8649192,1854,1,187969,219299,0.10,-0.83,9.96,-0.03,-0.01,-0.00,30.87
8689188,1842,1,187916,219208,0.09,-0.83,9.97,-0.03,-0.01,-0.01,30.87
8729192,1829,1,187861,219343,0.07,-0.81,9.97,-0.03,-0.00,-0.01,30.87
8769188,1803,1,187986,219872,0.14,-0.81,9.82,-0.03,0.03,-0.00,30.87
8809171,1792,1,188224,220662,0.13,-0.82,9.86,-0.03,0.01,-0.00,30.87
8849169,1808,1,188433,221003,0.13,-0.82,9.86,-0.03,-0.01,-0.01,30.87
8889192,1825,1,188373,220981,0.07,-0.83,9.96,-0.03,-0.01,-0.01,30.87
8929188,1859,1,188350,221098,0.07,-0.82,9.95,-0.03,-0.01,-0.01,30.87
8969192,1899,1,188420,221125,0.07,-0.82,9.96,-0.03,-0.01,-0.00,30.87
9009188,1910,1,188404,221427,0.09,-0.81,9.94,-0.03,-0.01,-0.01,30.87
9049191,1917,1,188542,221602,0.07,-0.84,9.96,-0.03,-0.01,-0.00,30.87
9089188,1929,1,188568,221755,0.06,-0.83,9.96,-0.03,-0.01,-0.00,30.87
9129192,1936,1,188744,221985,0.08,-0.81,9.96,-0.03,-0.01,-0.00,30.87
9169188,1935,1,188621,221215,0.07,-0.82,9.96,-0.03,-0.01,-0.00,30.87
9209192,1942,1,187948,219306,0.09,-0.84,9.96,-0.03,-0.01,-0.01,30.87
9249188,1941,1,187479,218449,0.07,-0.80,9.94,-0.03,-0.01,-0.01,30.87
9289192,1929,1,187373,218283,0.07,-0.83,9.94,-0.03,-0.01,-0.00,30.87
9329188,1919,1,187212,217962,0.06,-0.81,9.95,-0.03,-0.01,-0.01,30.87
9369192,1905,1,187258,218142,0.07,-0.83,9.95,-0.03,-0.01,-0.01,30.87
9409189,1858,1,187411,218602,0.07,-0.83,9.95,-0.03,-0.01,-0.01,30.87
9449192,1899,1,187537,218927,0.08,-0.83,9.96,-0.03,-0.01,-0.01,30.87
9489188,1801,1,187656,219332,0.03,-0.82,9.97,-0.04,-0.01,-0.00,30.87
9529192,1729,1,187642,219559,0.05,-0.82,9.98,-0.03,-0.01,-0.00,30.87
9569188,1776,1,187841,219834,0.06,-0.84,9.99,-0.03,-0.01,-0.00,30.87
9609192,1777,1,187881,220130,0.08,-0.81,9.97,-0.03,-0.01,-0.01,30.87
9649875,1791,1,187916,220250,0.07,-0.82,9.99,-0.03,-0.01,-0.00,30.59
9690191,1817,1,188008,220601,0.06,-0.82,9.95,-0.03,-0.01,-0.01,30.59
9730188,1844,1,188130,220917,0.07,-0.83,9.94,-0.03,-0.01,-0.00,30.59
9770223,1857,1,188175,220501,0.07,-0.83,9.97,-0.03,-0.01,-0.01,30.59
9810189,1854,1,187683,218702,0.06,-0.82,9.93,-0.03,-0.01,-0.01,30.59
9850192,1842,1,187027,217420,0.07,-0.81,9.94,-0.03,-0.01,-0.00,30.59
9890188,1845,1,186852,217101,0.06,-0.84,9.97,-0.03,-0.01,-0.00,30.59
9930191,1857,1,186713,216914,0.06,-0.83,9.99,-0.03,-0.01,-0.00,30.59
9970192,1847,1,186762,216920,0.06,-0.83,9.98,-0.03,-0.01,-0.00,30.59
10010191,1872,1,186860,217388,0.08,-0.83,9.95,-0.03,-0.01,-0.00,30.59
10050189,1846,1,186982,217830,0.09,-0.81,9.94,-0.03,-0.01,-0.01,30.59
10090192,1853,1,187129,218064,0.07,-0.81,9.97,-0.03,-0.01,-0.00,30.59
10130189,1872,1,187206,218242,0.07,-0.83,9.98,-0.03,-0.01,-0.01,30.59
10170192,1897,1,187160,218333,0.06,-0.84,9.97,-0.03,-0.01,-0.01,30.59
10210189,1908,1,187258,218562,0.08,-0.84,9.97,-0.03,-0.01,-0.00,30.59
10250192,1925,1,187426,218929,0.07,-0.83,9.94,-0.03,-0.01,-0.00,30.59
10290188,1925,1,187589,219433,0.07,-0.81,9.98,-0.03,-0.01,-0.01,30.59
10330192,1927,1,187618,219544,0.08,-0.82,9.96,-0.03,-0.01,-0.01,30.59
10370189,1925,1,187769,219599,0.09,-0.82,9.95,-0.03,-0.01,-0.00,30.59
10410192,1914,1,187557,218429,0.07,-0.80,9.93,-0.03,-0.01,-0.01,30.59
10450189,1889,1,186896,216524,0.09,-0.83,9.93,-0.03,-0.01,-0.00,30.59
10490191,1882,1,186526,215690,0.06,-0.81,9.95,-0.03,-0.01,-0.01,30.59
10530189,1875,1,186369,215412,0.05,-0.82,9.97,-0.03,-0.01,-0.00,30.59
10570192,1872,1,186248,215211,0.07,-0.83,9.96,-0.03,-0.01,-0.00,30.59
10610188,1861,1,186162,215452,0.09,-0.82,9.96,-0.03,-0.01,-0.00,30.59
10650878,1840,1,186460,216148,0.11,-0.84,9.93,-0.03,-0.01,-0.01,30.77
10689191,1854,1,186603,216587,0.09,-0.81,9.93,-0.03,-0.01,-0.01,30.77
10729192,1854,1,186708,216748,0.07,-0.81,9.97,-0.03,-0.01,-0.00,30.77
10769188,1839,1,186822,217037,0.10,-0.83,9.94,-0.03,-0.01,-0.01,30.77
10809192,1840,1,186895,217321,0.08,-0.83,9.93,-0.03,-0.01,-0.01,30.77
10849189,1838,1,187082,217617,0.08,-0.83,9.95,-0.03,-0.01,-0.00,30.77
10889191,1833,1,187159,217918,0.08,-0.85,9.96,-0.03,-0.01,-0.00,30.77
10929188,1838,1,187291,218393,0.09,-0.82,9.96,-0.03,-0.01,-0.01,30.77
10969192,1855,1,187502,219016,0.06,-0.82,9.96,-0.03,-0.01,-0.00,30.77
11009188,1840,1,187770,219486,0.09,-0.82,9.94,-0.03,-0.01,-0.00,30.77
11049192,1835,1,187703,218626,0.08,-0.82,9.96,-0.03,-0.01,-0.00,30.77
11089188,1825,1,187128,216869,0.07,-0.84,9.96,-0.03,-0.01,-0.01,30.77
11129192,1827,1,186662,215990,0.07,-0.80,9.98,-0.03,-0.01,-0.01,30.77
11169189,1829,1,186520,215644,0.08,-0.81,9.97,-0.03,-0.01,-0.01,30.77
11209192,1813,1,186439,215562,0.10,-0.81,9.95,-0.03,-0.01,-0.00,30.77
11249188,1829,1,186501,215905,0.09,-0.85,9.96,-0.03,-0.01,-0.00,30.77
11289192,1828,1,186739,216626,0.07,-0.81,9.96,-0.03,-0.01,-0.01,30.77
11329189,1821,1,186933,217120,0.07,-0.84,9.96,-0.03,-0.01,-0.01,30.77
11369192,1825,1,187075,217331,0.08,-0.84,9.94,-0.03,-0.01,-0.01,30.77
11409197,1834,1,187067,217600,0.10,-0.82,9.96,-0.03,-0.01,-0.00,30.77
11449191,1837,1,187230,217981,0.06,-0.81,9.93,-0.03,-0.01,-0.01,30.77
11489189,1841,1,187371,218341,0.08,-0.81,9.94,-0.03,-0.01,-0.01,30.77
11529191,1842,1,187495,218751,0.06,-0.81,9.96,-0.03,-0.01,-0.01,30.77
11569189,1845,1,187759,219395,0.08,-0.83,9.96,-0.03,-0.01,-0.01,30.77
11609221,1857,1,188032,220149,0.08,-0.80,9.97,-0.03,-0.01,-0.01,30.77
11649188,1852,1,188279,220537,0.07,-0.81,9.94,-0.03,-0.01,-0.01,30.77
11689878,1837,1,188186,219124,0.08,-0.82,9.97,-0.03,-0.01,-0.01,30.85
11730189,1839,1,187571,217816,0.08,-0.83,9.92,-0.03,-0.01,-0.00,30.85
11770192,1855,1,187375,217522,0.08,-0.82,9.95,-0.03,-0.01,-0.01,30.85
11810214,1850,1,187357,217665,0.06,-0.82,9.96,-0.03,-0.01,-0.00,30.85
11850191,1856,1,187411,217951,0.08,-0.85,9.95,-0.03,-0.01,-0.00,30.85
11890188,1856,1,187607,218603,0.08,-0.82,9.97,-0.03,-0.01,-0.01,30.85
11930191,1851,1,187943,219360,0.06,-0.81,9.96,-0.03,-0.01,-0.01,30.85
11970191,1849,1,188176,219826,0.06,-0.83,9.93,-0.03,-0.01,-0.01,30.85
12010191,1855,1,188352,220115,0.09,-0.83,9.94,-0.03,-0.01,-0.01,30.85
12050188,1840,1,188344,220443,0.06,-0.81,9.96,-0.03,-0.01,-0.01,30.85
12090192,1837,1,188426,220695,0.07,-0.83,9.95,-0.03,-0.01,-0.01,30.85
12130189,1821,1,188476,220935,0.07,-0.82,9.94,-0.03,-0.01,-0.01,30.85
12170192,1830,1,188651,221341,0.09,-0.83,9.95,-0.03,-0.01,-0.01,30.85
12210189,1835,1,188704,221789,0.07,-0.82,9.94,-0.03,-0.01,-0.00,30.85
12250191,1836,1,188864,222178,0.07,-0.80,9.96,-0.03,-0.01,-0.01,30.85
12290189,1850,1,188957,221624,0.09,-0.83,9.97,-0.03,-0.01,-0.00,30.85
12330192,1845,1,188270,219497,0.10,-0.83,9.96,-0.03,-0.01,-0.01,30.85
12370189,1850,1,187614,218573,0.10,-0.82,9.95,-0.03,-0.01,-0.00,30.85
12410191,1847,1,187474,218345,0.06,-0.83,9.97,-0.03,-0.01,-0.01,30.85
12450191,1851,1,187452,218378,0.07,-0.82,9.95,-0.03,-0.01,-0.00,30.85
12490192,1861,1,187462,218423,0.09,-0.82,9.95,-0.03,-0.01,-0.00,30.85
12530189,1854,1,187520,218874,0.07,-0.84,9.95,-0.03,-0.01,-0.01,30.85
12570192,1863,1,187651,219182,0.08,-0.82,9.94,-0.03,-0.01,-0.01,30.85
12610189,1866,1,187761,219305,0.09,-0.84,9.96,-0.03,-0.01,-0.01,30.85
12650192,1867,1,187787,219445,0.06,-0.81,9.98,-0.03,-0.01,-0.01,30.85
12690878,1859,1,187902,219869,0.06,-0.82,9.95,-0.03,-0.01,-0.01,30.91
12729191,1867,1,188135,220515,0.08,-0.81,9.93,-0.03,-0.01,-0.01,30.91
12769189,1857,1,188349,221031,0.07,-0.82,9.95,-0.03,-0.01,-0.01,30.91
12809192,1872,1,188570,221628,0.06,-0.81,9.95,-0.03,-0.01,-0.00,30.91
12849189,1871,1,188800,222257,0.06,-0.83,9.94,-0.03,-0.01,-0.00,30.91
12889192,1872,1,188928,222703,0.08,-0.83,9.96,-0.03,-0.01,-0.00,30.91
12929189,1856,1,189023,222182,0.09,-0.83,9.94,-0.03,-0.01,-0.01,30.91
12969191,1855,1,188329,219872,0.07,-0.81,9.93,-0.03,-0.01,-0.00,30.91
13009188,1843,1,187663,218696,0.08,-0.83,9.95,-0.03,-0.01,-0.00,30.91
13049192,1854,1,187451,218371,0.08,-0.81,9.97,-0.03,-0.01,-0.01,30.91
13089188,1851,1,187361,218258,0.05,-0.82,9.96,-0.03,-0.01,-0.01,30.91
13129192,1856,1,187422,218376,0.08,-0.79,9.97,-0.03,-0.01,-0.00,30.91
13169189,1851,1,187448,218863,0.07,-0.82,9.95,-0.03,-0.01,-0.01,30.91
13209191,1846,1,187634,219251,0.07,-0.84,9.97,-0.03,-0.01,-0.01,30.91
13249204,1856,1,187735,219489,0.08,-0.82,9.97,-0.03,-0.01,-0.00,30.91
13289192,1853,1,187887,219939,0.08,-0.82,9.97,-0.04,-0.01,-0.01,30.91
13329189,1846,1,188021,220372,0.08,-0.83,9.95,-0.03,-0.01,-0.01,30.91
13369191,1851,1,188192,220801,0.05,-0.82,9.95,-0.03,-0.01,-0.01,30.91
13409192,1839,1,188339,221221,0.07,-0.81,9.96,-0.03,-0.01,-0.01,30.91
13449192,1843,1,188481,221682,0.07,-0.83,9.96,-0.03,-0.01,-0.00,30.91
13489188,1840,1,188613,221941,0.07,-0.81,9.96,-0.03,-0.01,-0.00,30.91
13529191,1844,1,188708,222317,0.07,-0.83,9.97,-0.03,-0.01,-0.01,30.91
13569192,1860,1,188856,222448,0.06,-0.82,9.95,-0.03,-0.01,-0.01,30.91
13609192,1851,1,188609,220711,0.07,-0.83,9.97,-0.03,-0.01,-0.00,30.91
13649191,1840,1,187743,218775,0.08,-0.81,9.95,-0.03,-0.01,-0.00,30.91
13689192,1856,1,187367,218195,0.07,-0.82,9.98,-0.03,-0.01,-0.00,30.91
13729875,1841,1,187296,218090,0.06,-0.83,9.96,-0.03,-0.01,-0.00,30.99
13768192,1885,1,187254,217981,0.09,-0.83,9.96,-0.03,-0.01,-0.01,30.99
13808189,1889,1,187250,218321,0.08,-0.82,9.97,-0.03,-0.01,-0.00,30.99
13848191,1891,1,187497,218943,0.07,-0.83,9.95,-0.03,-0.01,-0.00,30.99
13888188,1893,1,187684,219136,0.09,-0.83,9.96,-0.03,-0.01,-0.01,30.99
13928192,1891,1,187673,219268,0.08,-0.83,9.95,-0.03,-0.01,-0.01,30.99
13968189,1887,1,187756,219458,0.08,-0.83,9.97,-0.03,-0.01,-0.00,30.99
14008192,1890,1,187788,219680,0.08,-0.83,9.95,-0.03,-0.01,-0.01,30.99
14048189,1878,1,187921,219857,0.09,-0.82,9.91,-0.03,-0.01,-0.01,30.99
14088192,1874,1,187969,220078,0.09,-0.83,9.95,-0.03,-0.01,-0.01,30.99
14128189,1879,1,188133,220474,0.09,-0.80,9.98,-0.03,-0.01,-0.01,30.99
14168191,1874,1,188252,220912,0.08,-0.82,9.97,-0.03,-0.01,-0.01,30.99
14208189,1872,1,188487,221440,0.10,-0.83,9.95,-0.03,-0.01,-0.01,30.99
14248192,1873,1,188663,220858,0.07,-0.82,9.96,-0.03,-0.01,-0.00,30.99
14288188,1863,1,188127,219000,0.07,-0.83,9.94,-0.03,-0.01,-0.00,30.99
14328191,1863,1,187604,218118,0.08,-0.83,9.96,-0.03,-0.01,-0.00,30.99
14368188,1872,1,187434,217868,0.10,-0.82,9.95,-0.03,-0.01,-0.01,30.99
14408192,1869,1,187475,217842,0.09,-0.83,9.96,-0.03,-0.01,-0.00,30.99
14448189,1869,1,187494,218143,0.07,-0.82,9.94,-0.03,-0.01,-0.01,30.99
14488192,1863,1,187682,218765,0.08,-0.83,9.98,-0.03,-0.01,-0.01,30.99
14528188,1857,1,187850,219127,0.08,-0.83,9.95,-0.03,-0.01,-0.01,30.99
14568192,1859,1,187933,219250,0.08,-0.83,9.97,-0.03,-0.01,-0.01,30.99
14608189,1859,1,188006,219552,0.09,-0.82,9.96,-0.03,-0.01,-0.00,30.99
14648192,1861,1,188120,219867,0.09,-0.83,9.95,-0.03,-0.01,-0.01,30.99
14688189,1862,1,188214,220130,0.09,-0.83,9.96,-0.03,-0.01,-0.00,30.99
14728192,1863,1,188290,220471,0.08,-0.80,9.95,-0.03,-0.01,-0.00,30.99
14768875,1840,1,188366,220800,0.07,-0.84,9.97,-0.03,-0.01,-0.01,30.91
14809191,1846,1,188539,221184,0.09,-0.84,9.96,-0.04,-0.01,-0.01,30.91
14849189,1847,1,188694,221674,0.09,-0.81,9.95,-0.03,-0.01,-0.01,30.91
14889223,1851,1,188739,221112,0.07,-0.86,9.95,-0.03,-0.01,-0.01,30.91
14929191,1842,1,188149,219146,0.09,-0.79,9.94,-0.03,-0.01,-0.00,30.91
14969191,1843,1,187557,218058,0.08,-0.82,9.97,-0.03,-0.01,-0.00,30.91
15009189,1841,1,187381,217865,0.08,-0.83,9.97,-0.03,-0.01,-0.01,30.91
15049191,1843,1,187350,217823,0.07,-0.83,9.96,-0.03,-0.01,-0.01,30.91
15089227,1840,1,187355,217954,0.08,-0.84,9.94,-0.03,-0.01,-0.00,30.91
15129192,1846,1,187452,218437,0.08,-0.82,9.95,-0.03,-0.01,-0.01,30.91
15169189,1847,1,187618,218756,0.08,-0.83,9.94,-0.03,-0.01,-0.01,30.91
15209191,1846,1,187683,218928,0.07,-0.83,9.96,-0.03,-0.01,-0.01,30.91
15249191,1854,1,187731,219142,0.06,-0.83,9.93,-0.03,-0.01,-0.00,30.91
15289192,1853,1,187848,219540,0.08,-0.83,9.96,-0.03,-0.01,-0.00,30.91
15329188,1849,1,187942,219890,0.10,-0.82,9.95,-0.03,-0.01,-0.01,30.91
15369192,1842,1,188118,220182,0.06,-0.83,9.92,-0.03,-0.01,-0.00,30.91
15409189,1850,1,188205,220514,0.08,-0.83,9.93,-0.03,-0.01,-0.00,30.91
15449192,1855,1,188315,220879,0.09,-0.82,9.99,-0.03,-0.01,-0.01,30.91
15489189,1853,1,188461,221384,0.09,-0.80,9.95,-0.03,-0.01,-0.01,30.91
15529191,1854,1,188635,221367,0.06,-0.84,9.94,-0.03,-0.01,-0.00,30.91
15569189,1840,1,188156,219435,0.08,-0.83,9.96,-0.03,-0.01,-0.01,30.91
15609192,1854,1,187506,218271,0.08,-0.81,9.96,-0.03,-0.01,-0.01,30.91
15649188,1853,1,187357,218079,0.05,-0.80,9.95,-0.03,-0.01,-0.01,30.91
15689191,1846,1,187296,217921,0.07,-0.86,9.94,-0.03,-0.01,-0.00,30.91
15729191,1847,1,187236,217867,0.08,-0.81,9.96,-0.03,-0.01,-0.01,30.91
15769878,1840,1,187277,218422,0.07,-0.83,10.01,-0.03,-0.01,-0.01,30.79
15808191,1854,1,187469,218860,0.08,-0.81,9.99,-0.03,-0.01,-0.00,30.79
15848192,1861,1,187582,219001,0.07,-0.84,9.93,-0.03,-0.01,-0.00,30.79
15888188,1854,1,187629,219091,0.10,-0.82,9.96,-0.03,-0.01,-0.01,30.79
15928192,1872,1,187686,219364,0.08,-0.82,9.93,-0.03,-0.01,-0.01,30.79
15968189,1862,1,187820,219716,0.06,-0.82,9.96,-0.03,-0.01,-0.01,30.79
16008192,1870,1,187965,220119,0.06,-0.83,9.95,-0.03,-0.01,-0.00,30.79
16048189,1857,1,188065,220394,0.09,-0.82,9.95,-0.03,-0.01,-0.01,30.79
16088192,1863,1,188167,220710,0.09,-0.82,9.96,-0.03,-0.01,-0.01,30.79
16128188,1853,1,188286,221095,0.07,-0.80,9.93,-0.03,-0.01,-0.01,30.79
16168192,1856,1,188439,221560,0.08,-0.84,9.95,-0.03,-0.01,-0.01,30.79
16208189,1857,1,188513,221033,0.08,-0.84,9.97,-0.03,-0.01,-0.00,30.79
16248192,1855,1,187915,219119,0.07,-0.83,9.95,-0.03,-0.01,-0.00,30.79
16288188,1859,1,187375,218049,0.06,-0.84,9.94,-0.03,-0.01,-0.00,30.79
16328197,1856,1,187192,217783,0.06,-0.83,9.96,-0.03,-0.01,-0.00,30.79
16368189,1856,1,187134,217716,0.07,-0.84,9.94,-0.03,-0.01,-0.01,30.79
16408192,1861,1,187132,217850,0.11,-0.82,9.95,-0.03,-0.01,-0.01,30.79
16448191,1858,1,187263,218448,0.06,-0.82,9.95,-0.03,-0.01,-0.01,30.79
16488191,1861,1,187479,218851,0.07,-0.80,9.95,-0.03,-0.01,-0.00,30.79
16528246,1855,1,187525,219026,0.06,-0.81,9.95,-0.03,-0.01,-0.01,30.79
16568192,1862,1,187624,219200,0.11,-0.80,9.95,-0.03,-0.01,-0.01,30.79
16608189,1855,1,187648,219435,0.08,-0.84,9.94,-0.03,-0.01,-0.01,30.79
16648192,1850,1,187845,219955,0.09,-0.81,9.98,-0.03,-0.01,-0.01,30.79
16688189,1845,1,188076,220516,0.07,-0.81,9.96,-0.03,-0.01,-0.00,30.79
16728214,1856,1,188206,220786,0.08,-0.82,9.97,-0.03,-0.01,-0.00,30.79
16768188,1856,1,188266,220873,0.08,-0.84,9.96,-0.03,-0.01,-0.00,30.79
16808878,1843,1,188361,221203,0.08,-0.81,9.94,-0.03,-0.01,-0.00,30.57
16849189,1841,1,188564,221742,0.08,-0.82,9.99,-0.04,-0.01,-0.01,30.57
16889191,1846,1,188571,220805,0.07,-0.84,9.99,-0.03,-0.01,-0.01,30.57
16929207,1840,1,187939,219027,0.10,-0.83,9.96,-0.03,-0.01,-0.00,30.57
16969192,1842,1,187499,218263,0.07,-0.84,9.95,-0.03,-0.01,-0.00,30.57
17009188,1850,1,187417,218114,0.07,-0.83,9.94,-0.03,-0.01,-0.01,30.57
17049191,1842,1,187388,218069,0.08,-0.83,9.94,-0.03,-0.01,-0.00,30.57
17089189,1839,1,187408,218321,0.08,-0.81,9.95,-0.03,-0.01,-0.01,30.57
17129192,1847,1,187574,218810,0.09,-0.82,9.95,-0.03,-0.01,-0.00,30.57
17169189,1843,1,187809,219196,0.09,-0.83,9.94,-0.03,-0.01,-0.01,30.57
17209192,1847,1,187881,219334,0.09,-0.83,9.99,-0.03,-0.01,-0.01,30.57
17249189,1842,1,187903,219380,0.09,-0.83,9.96,-0.03,-0.01,-0.00,30.57
17289192,1851,1,187949,219502,0.08,-0.81,9.96,-0.03,-0.01,-0.00,30.57
17329188,1847,1,188003,219697,0.10,-0.84,9.96,-0.03,-0.01,-0.01,30.57
17369192,1849,1,188147,220111,0.09,-0.82,9.94,-0.03,-0.01,-0.01,30.57
17409188,1850,1,188356,220707,0.09,-0.81,9.97,-0.03,-0.01,-0.00,30.57
17449192,1842,1,188534,221164,0.09,-0.81,9.95,-0.03,-0.01,-0.00,30.57
17489189,1853,1,188799,221644,0.09,-0.82,9.95,-0.03,-0.01,-0.01,30.57
17529192,1849,1,188842,220961,0.08,-0.81,9.98,-0.03,-0.01,-0.00,30.57
17569188,1840,1,188252,219203,0.09,-0.84,9.93,-0.03,-0.01,-0.01,30.57
17609192,1833,1,187708,218248,0.09,-0.82,9.93,-0.03,-0.01,-0.01,30.57
17649189,1840,1,187587,218015,0.08,-0.83,9.95,-0.03,-0.01,-0.01,30.57
17689191,1841,1,187547,217936,0.08,-0.81,9.95,-0.03,-0.01,-0.01,30.57
17729189,1841,1,187543,218188,0.07,-0.83,9.95,-0.03,-0.01,-0.00,30.57
17769192,1846,1,187715,218788,0.10,-0.83,9.97,-0.03,-0.01,-0.00,30.57
17809875,1840,1,187926,219137,0.07,-0.81,9.95,-0.03,-0.01,-0.01,30.57
17848192,1845,1,187917,219267,0.08,-0.82,9.94,-0.03,-0.01,-0.01,30.57
17888188,1855,1,187992,219564,0.07,-0.84,9.96,-0.03,-0.01,-0.00,30.57
17928192,1856,1,188100,219760,0.09,-0.82,9.97,-0.03,-0.01,-0.01,30.57
17968189,1856,1,188155,220061,0.10,-0.82,9.97,-0.03,-0.01,-0.01,30.57
18008192,1858,1,188280,220422,0.07,-0.83,9.95,-0.03,-0.01,-0.00,30.57
18048188,1856,1,188478,220932,0.08,-0.82,9.94,-0.03,-0.01,-0.01,30.57
18088192,1855,1,188562,221249,0.08,-0.83,9.94,-0.03,-0.01,-0.01,30.57
18128188,1847,1,188702,221468,0.12,-0.84,9.94,-0.03,-0.01,-0.01,30.57
18168206,1853,1,188720,220980,0.08,-0.81,9.94,-0.03,-0.01,-0.01,30.57
18208189,1852,1,188240,219260,0.05,-0.81,9.97,-0.03,-0.01,-0.01,30.57
18248191,1843,1,187640,218206,0.11,-0.81,9.96,-0.03,-0.01,-0.01,30.57
18288192,1855,1,187495,217886,0.06,-0.83,9.94,-0.03,-0.01,-0.00,30.57
18328192,1840,1,187427,217769,0.07,-0.83,9.93,-0.03,-0.01,-0.01,30.57
18368223,1852,1,187380,217869,0.09,-0.85,9.99,-0.03,-0.01,-0.01,30.57
18408191,1854,1,187529,218450,0.08,-0.82,9.93,-0.03,-0.01,-0.00,30.57
18448188,1845,1,187711,218843,0.06,-0.82,9.96,-0.03,-0.01,-0.01,30.57
18488191,1857,1,187745,218882,0.07,-0.82,9.95,-0.03,-0.01,-0.00,30.57
18528189,1850,1,187793,219013,0.07,-0.83,9.96,-0.03,-0.01,-0.00,30.57
18568210,1845,1,187900,219360,0.09,-0.83,9.92,-0.03,-0.01,-0.00,30.57
18608188,1855,1,187991,219775,0.07,-0.83,9.97,-0.03,-0.01,-0.01,30.57
18648192,1856,1,188131,220177,0.06,-0.83,9.97,-0.03,-0.01,-0.01,30.57
18688192,1863,1,188271,220477,0.08,-0.83,9.97,-0.03,-0.01,-0.01,30.57
18728192,1855,1,188402,220755,0.09,-0.83,9.93,-0.03,-0.01,-0.01,30.57
18768189,1855,1,188435,220983,0.07,-0.83,9.96,-0.03,-0.01,-0.01,30.57
18809192,1841,1,188557,221111,0.07,-0.83,9.95,-0.03,-0.01,-0.01,30.57
18849875,1840,1,188402,220046,0.07,-0.83,9.94,-0.03,-0.01,-0.01,30.85
18888191,1847,1,187827,218324,0.06,-0.82,9.96,-0.03,-0.01,-0.00,30.85
18928188,1839,1,187423,217561,0.11,-0.83,9.95,-0.03,-0.01,-0.01,30.85
18968192,1841,1,187293,217284,0.08,-0.83,9.94,-0.03,-0.01,-0.01,30.85
19008189,1851,1,187161,216976,0.06,-0.82,9.96,-0.03,-0.01,-0.00,30.85
19048192,1845,1,187072,217001,0.09,-0.82,9.95,-0.03,-0.01,-0.01,30.85
19088189,1846,1,187229,217491,0.09,-0.82,9.97,-0.03,-0.01,-0.00,30.85
19128192,1853,1,187377,217903,0.06,-0.81,9.94,-0.03,-0.01,-0.00,30.85
19168189,1857,1,187467,218051,0.08,-0.84,9.97,-0.03,-0.01,-0.01,30.85
19208192,1851,1,187516,218171,0.08,-0.86,9.96,-0.03,-0.01,-0.00,30.85
19248189,1849,1,187592,218451,0.09,-0.83,9.96,-0.03,-0.01,-0.01,30.85
19288191,1851,1,187704,218790,0.07,-0.84,9.96,-0.04,-0.01,-0.00,30.85
19328189,1840,1,187815,218991,0.10,-0.83,9.94,-0.03,-0.01,-0.00,30.85
19368191,1850,1,187907,219383,0.07,-0.82,9.95,-0.03,-0.01,-0.00,30.85
19408188,1840,1,188019,219889,0.06,-0.82,9.98,-0.03,-0.01,-0.00,30.85
19448192,1847,1,188218,220333,0.07,-0.82,9.92,-0.03,-0.01,-0.01,30.85
19488192,1844,1,188389,220636,0.07,-0.83,9.98,-0.03,-0.01,-0.00,30.85
19528192,1844,1,188266,219539,0.07,-0.81,9.96,-0.03,-0.01,-0.01,30.85
19568191,1835,1,187660,217941,0.08,-0.83,9.93,-0.03,-0.01,-0.00,30.85
19608191,1830,1,187292,217325,0.09,-0.83,9.95,-0.03,-0.01,-0.01,30.85
19648189,1840,1,187197,217166,0.08,-0.82,9.95,-0.03,-0.01,-0.01,30.85
19688192,1840,1,187187,217177,0.06,-0.83,9.93,-0.03,-0.01,-0.00,30.85
19728189,1840,1,187262,217496,0.11,-0.84,9.97,-0.03,-0.02,-0.01,30.85
19768191,1842,1,187472,218142,0.10,-0.82,9.99,-0.03,-0.01,-0.00,30.85
19809188,1854,1,187653,218529,0.06,-0.84,9.96,-0.03,-0.01,-0.00,30.85
19849192,1855,1,187795,218664,0.10,-0.83,9.97,-0.03,-0.01,-0.01,30.85
19889876,1841,1,187893,218976,0.10,-0.83,9.95,-0.03,-0.01,-0.01,30.67
19928192,1846,1,188041,219530,0.07,-0.83,9.95,-0.03,-0.01,-0.01,30.67
19968189,1850,1,188259,219914,0.07,-0.82,9.99,-0.03,-0.01,-0.00,30.67
20008192,1850,1,188353,220215,0.09,-0.85,9.96,-0.03,-0.01,-0.00,30.67
20048188,1846,1,188451,220606,0.11,-0.86,9.94,-0.03,-0.01,-0.00,30.67
20088192,1854,1,188621,221155,0.09,-0.84,9.94,-0.04,-0.01,-0.01,30.67
20128188,1855,1,188821,221588,0.11,-0.82,9.95,-0.03,-0.01,-0.00,30.67
20168191,1847,1,188918,221286,0.08,-0.82,9.97,-0.03,-0.01,-0.01,30.67
20208192,1840,1,188452,219440,0.07,-0.84,9.97,-0.03,-0.01,-0.01,30.67
20248191,1843,1,187830,218218,0.10,-0.82,9.95,-0.03,-0.01,-0.00,30.67
20288189,1845,1,187614,217830,0.07,-0.84,9.96,-0.03,-0.01,-0.01,30.67
20328192,1855,1,187511,217762,0.08,-0.82,9.93,-0.03,-0.01,-0.01,30.67
20368189,1851,1,187507,218081,0.09,-0.84,9.98,-0.03,-0.01,-0.00,30.67
20408192,1855,1,187766,218947,0.05,-0.83,9.99,-0.03,-0.01,-0.01,30.67
20448191,1845,1,188006,219265,0.07,-0.82,9.95,-0.03,-0.01,-0.00,30.67
20488192,1856,1,187949,219255,0.09,-0.83,9.96,-0.03,-0.01,-0.00,30.67
20528189,1858,1,188000,219422,0.11,-0.83,9.94,-0.03,-0.01,-0.01,30.67
20568191,1858,1,188099,219818,0.09,-0.82,9.96,-0.03,-0.01,-0.01,30.67
20608191,1858,1,188209,220204,0.08,-0.83,9.96,-0.03,-0.01,-0.00,30.67
20648191,1850,1,188323,220573,0.04,-0.82,9.92,-0.03,-0.01,-0.01,30.67
20688191,1848,1,188466,220779,0.08,-0.82,9.96,-0.03,-0.01,-0.00,30.67
20728192,1840,1,188540,221063,0.11,-0.83,9.98,-0.03,-0.01,-0.00,30.67
20768191,1840,1,188764,221789,0.08,-0.83,9.94,-0.03,-0.00,-0.01,30.67
20808191,1850,1,188925,221734,0.09,-0.85,9.96,-0.03,-0.01,-0.01,30.67
20848188,1840,1,188513,220131,0.07,-0.82,9.95,-0.03,-0.01,-0.00,30.67
20888192,1837,1,188028,219221,0.05,-0.81,9.96,-0.03,-0.01,-0.01,30.67
20928878,1835,1,187828,218882,0.09,-0.84,9.95,-0.03,-0.01,-0.00,30.57
20967192,1877,1,187701,218650,0.08,-0.83,9.98,-0.03,-0.01,-0.00,30.57
21007188,1862,1,187619,218484,0.10,-0.82,9.97,-0.03,-0.01,-0.01,30.57
21047191,1873,1,187633,218848,0.08,-0.81,9.95,-0.03,-0.01,-0.01,30.57
21087189,1872,1,187850,219272,0.09,-0.83,9.94,-0.03,-0.01,-0.01,30.57
21127192,1871,1,187906,219305,0.03,-0.82,9.93,-0.03,-0.01,-0.00,30.57
21167189,1871,1,187902,219288,0.09,-0.84,9.98,-0.03,-0.01,-0.00,30.57
21207192,1879,1,187894,219437,0.11,-0.83,9.96,-0.03,-0.01,-0.01,30.57
21247191,1877,1,188037,219968,0.07,-0.83,9.95,-0.03,-0.00,-0.01,30.57
21287192,1877,1,188206,220365,0.10,-0.84,9.96,-0.03,-0.01,-0.01,30.57
21327189,1877,1,188429,220891,0.08,-0.82,9.97,-0.03,-0.01,-0.01,30.57
21367192,1865,1,188623,221265,0.07,-0.83,9.96,-0.03,-0.01,-0.01,30.57
21407191,1869,1,188683,221462,0.05,-0.80,9.95,-0.03,-0.01,-0.01,30.57
21447192,1877,1,188692,221472,0.06,-0.82,9.95,-0.03,-0.01,-0.01,30.57
21487192,1872,1,188691,220680,0.07,-0.81,9.94,-0.03,-0.01,-0.01,30.57
21527192,1869,1,188114,218926,0.07,-0.83,9.94,-0.03,-0.01,-0.00,30.57
21567189,1871,1,187695,218136,0.04,-0.82,9.94,-0.03,-0.01,-0.01,30.57
21607192,1876,1,187525,217658,0.08,-0.80,9.96,-0.03,-0.01,-0.00,30.57
21647206,1872,1,187429,217429,0.11,-0.84,9.98,-0.03,-0.01,-0.00,30.57
21687191,1872,1,187379,217528,0.06,-0.85,9.96,-0.03,-0.01,-0.00,30.57
21727189,1872,1,187531,218107,0.10,-0.83,9.93,-0.03,-0.01,-0.01,30.57
21767192,1873,1,187730,218725,0.08,-0.82,9.95,-0.04,-0.01,-0.01,30.57
21807188,1877,1,187922,219132,0.04,-0.82,9.94,-0.03,-0.01,-0.00,30.57
21847213,1868,1,187970,219329,0.10,-0.81,9.95,-0.03,-0.01,-0.01,30.57
21887191,1868,1,187991,219405,0.08,-0.83,9.96,-0.03,-0.01,-0.00,30.57
21927192,1874,1,188065,219592,0.09,-0.81,9.96,-0.03,-0.01,-0.01,30.57
21967878,1846,1,188180,220097,0.07,-0.81,9.94,-0.03,-0.01,-0.01,30.73
22008192,1847,1,188349,220471,0.06,-0.83,9.94,-0.03,-0.01,-0.01,30.73
22048192,1849,1,188488,220792,0.06,-0.84,9.96,-0.03,-0.01,-0.00,30.73
22088192,1841,1,188569,221043,0.11,-0.83,9.95,-0.03,-0.02,-0.01,30.73
22128191,1844,1,188731,221533,0.07,-0.82,9.97,-0.03,-0.01,-0.01,30.73
22168191,1855,1,188831,221020,0.06,-0.83,9.96,-0.03,-0.01,-0.01,30.73
22208191,1846,1,188232,219124,0.10,-0.82,9.97,-0.03,-0.01,-0.00,30.73
22248191,1856,1,187666,218046,0.06,-0.83,9.97,-0.03,-0.01,-0.00,30.73
22288188,1843,1,187488,217771,0.08,-0.81,9.94,-0.03,-0.01,-0.00,30.73
22328192,1846,1,187437,217737,0.07,-0.82,9.97,-0.03,-0.01,-0.01,30.73
22368192,1846,1,187474,217985,0.08,-0.83,9.98,-0.03,-0.01,-0.00,30.73
22408192,1841,1,187662,218676,0.09,-0.82,9.97,-0.03,-0.01,-0.01,30.73
22448192,1841,1,187884,219031,0.07,-0.83,9.96,-0.03,-0.01,-0.00,30.73
22488191,1842,1,187980,219283,0.10,-0.83,9.93,-0.03,-0.01,-0.00,30.73
22528192,1845,1,188089,219608,0.09,-0.83,9.95,-0.03,-0.01,-0.01,30.73
22568192,1849,1,188194,219949,0.08,-0.82,9.97,-0.03,-0.01,-0.01,30.73
22608191,1842,1,188349,220260,0.09,-0.82,9.95,-0.03,-0.01,-0.00,30.73
22648191,1842,1,188402,220502,0.10,-0.83,9.94,-0.03,-0.01,-0.00,30.73
22688189,1843,1,188470,220772,0.08,-0.82,9.93,-0.03,-0.01,-0.01,30.73
22728192,1843,1,188603,221080,0.09,-0.84,9.96,-0.03,-0.01,-0.01,30.73
22768192,1841,1,188685,221463,0.10,-0.83,9.95,-0.03,-0.01,-0.00,30.73
22808191,1841,1,188893,221830,0.08,-0.83,9.95,-0.04,-0.01,-0.00,30.73
22848189,1837,1,188828,220649,0.09,-0.83,9.96,-0.03,-0.01,-0.00,30.73
22888192,1835,1,188155,218994,0.08,-0.80,9.99,-0.03,-0.01,-0.01,30.73
22928189,1842,1,187718,218282,0.09,-0.84,9.95,-0.03,-0.01,-0.01,30.73
22968878,1840,1,187619,218103,0.08,-0.84,9.91,-0.03,-0.01,-0.00,30.91
23007189,1859,1,187597,218110,0.09,-0.82,9.96,-0.03,-0.01,-0.01,30.91
23047192,1866,1,187600,218317,0.06,-0.80,9.96,-0.03,-0.01,-0.00,30.91
23087188,1853,1,187699,218667,0.09,-0.81,9.96,-0.03,-0.01,-0.01,30.91
23127191,1856,1,187789,218849,0.08,-0.83,9.95,-0.03,-0.01,-0.00,30.91
23167189,1855,1,187868,219222,0.06,-0.84,9.97,-0.03,-0.01,-0.01,30.91
23207191,1848,1,187966,219402,0.08,-0.82,9.98,-0.03,-0.01,-0.00,30.91
23247189,1855,1,187936,219531,0.09,-0.82,9.95,-0.03,-0.01,-0.01,30.91
23287197,1854,1,188049,219973,0.10,-0.84,9.94,-0.03,-0.01,-0.01,30.91
23327189,1843,1,188248,220487,0.08,-0.81,9.97,-0.03,-0.01,-0.01,30.91
23367192,1855,1,188416,221040,0.06,-0.83,9.97,-0.03,-0.01,-0.01,30.91
23407192,1855,1,188532,221403,0.08,-0.85,9.94,-0.03,-0.01,-0.00,30.91
23447192,1857,1,188700,221730,0.09,-0.83,9.92,-0.03,-0.01,-0.01,30.91
23487204,1852,1,188734,221524,0.08,-0.81,10.00,-0.03,-0.01,-0.01,30.91
23527192,1868,1,188221,219364,0.08,-0.82,9.99,-0.03,-0.01,-0.00,30.91
23567189,1862,1,187504,218066,0.06,-0.84,9.95,-0.03,-0.01,-0.01,30.91
23607192,1855,1,187295,217795,0.09,-0.84,9.94,-0.03,-0.01,-0.01,30.91
23647191,1866,1,187220,217656,0.08,-0.82,9.98,-0.03,-0.01,-0.01,30.91
23687192,1856,1,187244,217720,0.08,-0.82,9.97,-0.03,-0.01,-0.00,30.91
23727189,1869,1,187325,218137,0.06,-0.81,9.96,-0.03,-0.01,-0.00,30.91
23767192,1866,1,187505,218554,0.10,-0.84,9.95,-0.03,-0.01,-0.00,30.91
23807189,1874,1,187607,218833,0.10,-0.82,9.96,-0.03,-0.01,-0.01,30.91
23847192,1865,1,187743,219245,0.06,-0.80,9.98,-0.03,-0.01,-0.01,30.91
23887189,1872,1,187821,219420,0.08,-0.82,9.98,-0.03,-0.01,-0.00,30.91
23927192,1871,1,187874,219696,0.09,-0.85,9.94,-0.03,-0.01,-0.00,30.91
23967188,1862,1,188060,220180,0.08,-0.83,9.94,-0.03,-0.01,-0.00,30.91
24007878,1840,1,188225,220665,0.08,-0.81,9.96,-0.03,-0.01,-0.01,30.93
24048189,1851,1,188409,221044,0.10,-0.83,9.96,-0.03,-0.01,-0.01,30.93
24088192,1855,1,188564,221608,0.06,-0.82,9.98,-0.03,-0.01,-0.01,30.93
24128192,1856,1,188788,222049,0.07,-0.82,9.95,-0.03,-0.01,-0.00,30.93
24168192,1842,1,188833,221181,0.08,-0.83,9.96,-0.03,-0.01,-0.00,30.93
24208189,1836,1,188065,219022,0.07,-0.80,9.95,-0.03,-0.01,-0.01,30.93
24248192,1847,1,187506,218036,0.08,-0.83,9.93,-0.03,-0.01,-0.01,30.93
24288192,1847,1,187314,217727,0.08,-0.83,9.99,-0.03,-0.01,-0.00,30.93
24328192,1856,1,187252,217701,0.09,-0.81,9.96,-0.03,-0.01,-0.00,30.93
24368188,1853,1,187255,217767,0.06,-0.84,9.95,-0.03,-0.01,-0.00,30.93
24408191,1842,1,187406,218259,0.08,-0.80,9.96,-0.03,-0.01,-0.00,30.93
24448188,1846,1,187554,218519,0.08,-0.83,9.95,-0.03,-0.01,-0.01,30.93
24488192,1845,1,187631,218807,0.07,-0.82,9.95,-0.03,-0.01,-0.00,30.93
24528189,1846,1,187713,219051,0.08,-0.80,9.96,-0.03,-0.01,-0.00,30.93
24568192,1850,1,187789,219328,0.10,-0.85,9.93,-0.03,-0.01,-0.00,30.93
24608189,1851,1,187918,219683,0.10,-0.81,9.96,-0.03,-0.01,-0.01,30.93
24648191,1855,1,188028,220006,0.09,-0.82,9.94,-0.03,-0.01,-0.01,30.93
24688189,1851,1,188141,220330,0.10,-0.83,9.95,-0.03,-0.01,-0.01,30.93
24728192,1842,1,188324,220879,0.07,-0.81,9.98,-0.03,-0.01,-0.00,30.93
24768189,1849,1,188509,221369,0.09,-0.82,9.91,-0.03,-0.01,-0.01,30.93
24808191,1850,1,188717,221695,0.08,-0.86,9.95,-0.03,-0.01,-0.01,30.93
24848192,1845,1,188667,220838,0.09,-0.82,9.98,-0.03,-0.01,-0.01,30.93
24888192,1849,1,188013,218949,0.05,-0.82,9.98,-0.03,-0.01,-0.01,30.93
24928189,1840,1,187471,218043,0.07,-0.84,9.93,-0.03,-0.01,-0.00,30.93
24968192,1847,1,187356,217865,0.10,-0.80,9.95,-0.03,-0.01,-0.00,30.93
25008874,1836,1,187327,217807,0.07,-0.80,9.96,-0.03,-0.01,-0.01,30.81
25047191,1856,1,187332,217850,0.07,-0.81,9.94,-0.03,-0.01,-0.00,30.81
25087189,1851,1,187464,218438,0.09,-0.85,9.95,-0.03,-0.01,-0.00,30.81
25127207,1853,1,187680,218915,0.09,-0.83,9.95,-0.03,-0.01,-0.01,30.81
25167188,1856,1,187765,219129,0.08,-0.82,9.94,-0.03,-0.01,-0.00,30.81
25207192,1847,1,187868,219351,0.09,-0.81,9.96,-0.03,-0.01,-0.01,30.81
25247191,1853,1,187982,219666,0.08,-0.82,9.98,-0.03,-0.01,-0.01,30.81
25287191,1843,1,188087,220037,0.09,-0.81,9.96,-0.03,-0.01,-0.00,30.81
25327204,1841,1,188265,220581,0.08,-0.82,9.93,-0.03,-0.01,-0.01,30.81
25367192,1856,1,188482,221199,0.09,-0.84,9.93,-0.03,-0.01,-0.01,30.81
25407192,1853,1,188793,222008,0.08,-0.81,9.96,-0.03,-0.01,-0.01,30.81
25447192,1845,1,189119,222894,0.07,-0.81,9.99,-0.03,-0.02,-0.00,30.81
25487188,1851,1,189496,223672,0.08,-0.84,9.97,-0.03,-0.02,-0.01,30.81
25527191,1841,1,189666,222589,0.09,-0.84,9.96,-0.03,-0.01,-0.00,30.81
25567188,1840,1,188670,220149,0.07,-0.81,9.95,-0.03,-0.01,-0.01,30.81
25607191,1849,1,188098,219199,0.10,-0.83,9.96,-0.03,-0.01,-0.00,30.81
25647189,1842,1,187919,218928,0.07,-0.83,9.97,-0.03,-0.01,-0.00,30.81
25687192,1840,1,187860,218923,0.10,-0.82,9.93,-0.03,-0.01,-0.01,30.81
25727189,1845,1,187932,219282,0.09,-0.81,9.95,-0.03,-0.01,-0.00,30.81
25767192,1847,1,188130,219812,0.10,-0.82,9.91,-0.04,-0.01,-0.01,30.81
25807189,1840,1,188330,220128,0.07,-0.82,9.98,-0.03,-0.01,-0.01,30.81
25847191,1842,1,188364,220177,0.07,-0.82,9.96,-0.03,-0.01,-0.01,30.81
25887192,1843,1,188376,220356,0.10,-0.85,9.97,-0.03,-0.01,-0.00,30.81
25927192,1854,1,188516,220850,0.11,-0.82,9.95,-0.03,-0.01,-0.01,30.81
25967191,1854,1,188704,221301,0.07,-0.83,9.97,-0.03,-0.01,-0.01,30.81
26007192,1840,1,188782,221393,0.09,-0.81,9.96,-0.03,-0.01,-0.01,30.81
26047876,1838,1,188838,221504,0.10,-0.83,9.95,-0.03,-0.01,-0.00,30.93
26088192,1850,1,188918,221989,0.09,-0.84,9.95,-0.03,-0.01,-0.00,30.93
26128189,1838,1,189205,222586,0.09,-0.82,9.94,-0.03,-0.01,-0.01,30.93
26168192,1852,1,189291,222354,0.08,-0.82,9.95,-0.03,-0.01,-0.01,30.93
26208192,1850,1,188711,220042,0.09,-0.83,9.95,-0.03,-0.01,-0.01,30.93
26248192,1845,1,187931,218676,0.08,-0.82,9.96,-0.03,-0.01,-0.00,30.93
26288189,1845,1,187673,218332,0.08,-0.82,9.93,-0.03,-0.01,-0.01,30.93
26328192,1843,1,187607,218268,0.07,-0.81,9.95,-0.03,-0.01,-0.00,30.93
26368189,1862,1,187607,218377,0.09,-0.83,9.94,-0.03,-0.01,-0.01,30.93
26408192,1862,1,187691,218881,0.08,-0.82,9.94,-0.03,-0.01,-0.00,30.93
26448189,1855,1,187968,219408,0.08,-0.82,9.95,-0.03,-0.01,-0.00,30.93
26488192,1860,1,188015,219557,0.10,-0.84,9.95,-0.03,-0.01,-0.01,30.93
26528189,1857,1,188071,219750,0.11,-0.82,9.96,-0.03,-0.01,-0.00,30.93
26568196,1871,1,188157,220141,0.08,-0.82,9.96,-0.03,-0.01,-0.01,30.93
26608189,1877,1,188331,220662,0.08,-0.82,9.96,-0.03,-0.01,-0.00,30.93
26648192,1881,1,188477,221103,0.10,-0.83,9.97,-0.03,-0.01,-0.00,30.93
26688189,1877,1,188597,221543,0.08,-0.83,9.97,-0.03,-0.01,-0.01,30.93
26728192,1882,1,188810,222019,0.07,-0.83,9.95,-0.03,-0.01,-0.00,30.93
26768245,1887,1,188940,222462,0.08,-0.83,9.95,-0.03,-0.01,-0.00,30.93
26808192,1888,1,189069,222699,0.08,-0.84,9.96,-0.03,-0.01,-0.01,30.93
26848189,1887,1,188978,221206,0.09,-0.81,9.94,-0.03,-0.01,-0.01,30.93
26888192,1878,1,188078,219136,0.10,-0.83,9.97,-0.03,-0.01,-0.00,30.93
26928189,1883,1,187582,218365,0.08,-0.83,9.96,-0.03,-0.01,-0.01,30.93
26968211,1883,1,187492,218116,0.09,-0.83,9.96,-0.03,-0.01,-0.00,30.93
27008189,1871,1,187416,218039,0.09,-0.81,9.94,-0.03,-0.01,-0.00,30.93
27048879,1873,1,187405,218238,0.07,-0.84,9.96,-0.03,-0.01,-0.01,30.99
27087192,1873,1,187558,218838,0.07,-0.82,9.95,-0.03,-0.01,-0.01,30.99
27127192,1872,1,187732,219225,0.07,-0.81,9.94,-0.03,-0.01,-0.01,30.99
27167192,1869,1,187762,219298,0.08,-0.83,9.95,-0.03,-0.01,-0.01,30.99
27207192,1859,1,187811,219523,0.11,-0.84,9.95,-0.03,-0.01,-0.01,30.99
27247192,1863,1,187915,219860,0.08,-0.81,9.95,-0.04,-0.01,-0.00,30.99
27287192,1866,1,188047,220287,0.08,-0.82,9.97,-0.03,-0.01,-0.01,30.99
27327192,1847,1,188166,220589,0.08,-0.80,9.94,-0.03,-0.01,-0.00,30.99
27367192,1849,1,188270,220872,0.07,-0.81,9.95,-0.03,-0.01,-0.01,30.99
27407192,1853,1,188397,221241,0.08,-0.82,9.96,-0.03,-0.01,-0.01,30.99
27447192,1843,1,188524,221628,0.06,-0.84,9.93,-0.03,-0.01,-0.00,30.99
27487192,1843,1,188660,221686,0.08,-0.83,9.93,-0.03,-0.01,-0.01,30.99
27527192,1843,1,188408,219988,0.07,-0.81,9.94,-0.03,-0.01,-0.01,30.99
27567192,1840,1,187642,218373,0.10,-0.82,9.96,-0.03,-0.01,-0.01,30.99
27607192,1837,1,187242,217835,0.07,-0.83,9.97,-0.03,-0.01,-0.01,30.99
27647192,1837,1,187221,217664,0.08,-0.82,9.95,-0.03,-0.01,-0.01,30.99
27687192,1827,1,187200,217696,0.07,-0.83,9.93,-0.03,-0.01,-0.00,30.99
27727189,1835,1,187170,217929,0.07,-0.82,9.98,-0.03,-0.01,-0.01,30.99
27767192,1827,1,187419,218555,0.09,-0.82,9.96,-0.03,-0.01,-0.00,30.99
27807189,1828,1,187562,218873,0.09,-0.83,9.95,-0.03,-0.01,-0.01,30.99
27847192,1838,1,187688,219212,0.08,-0.82,9.95,-0.03,-0.01,-0.01,30.99
27887189,1837,1,187744,219382,0.07,-0.83,9.96,-0.03,-0.01,-0.01,30.99
27927192,1841,1,187809,219545,0.09,-0.84,9.96,-0.03,-0.01,-0.01,30.99
27967192,1841,1,187845,219705,0.08,-0.82,9.94,-0.03,-0.01,-0.01,30.99
28007192,1818,1,187918,219897,0.09,-0.82,9.96,-0.03,-0.01,-0.00,30.99
28047188,1834,1,187988,220210,0.09,-0.82,9.97,-0.03,-0.01,-0.00,30.99
28087879,1825,1,188167,220707,0.08,-0.83,9.94,-0.03,-0.01,-0.00,30.85
28128188,1840,1,188353,221233,0.08,-0.81,9.95,-0.03,-0.01,-0.01,30.85
28168191,1831,1,188535,221345,0.08,-0.81,9.98,-0.03,-0.01,-0.01,30.85
28208192,1838,1,188129,219349,0.11,-0.81,9.95,-0.03,-0.01,-0.01,30.85
28248192,1837,1,187455,218017,0.10,-0.82,9.95,-0.03,-0.01,-0.00,30.85
28288188,1830,1,187159,217546,0.07,-0.83,9.96,-0.03,-0.01,-0.00,30.85
28328192,1837,1,187077,217341,0.06,-0.81,9.97,-0.03,-0.01,-0.01,30.85
28368192,1826,1,187043,217317,0.09,-0.84,9.93,-0.03,-0.01,-0.00,30.85
28408197,1840,1,187187,217830,0.10,-0.82,9.95,-0.03,-0.01,-0.01,30.85
28448189,1840,1,187444,218406,0.09,-0.83,9.98,-0.03,-0.01,-0.00,30.85
28488192,1849,1,187546,218578,0.08,-0.82,9.97,-0.03,-0.01,-0.01,30.85
28528188,1836,1,187579,218655,0.09,-0.83,9.96,-0.03,-0.01,-0.01,30.85
28568192,1835,1,187592,218853,0.08,-0.83,9.95,-0.03,-0.01,-0.01,30.85
28608218,1835,1,187728,219235,0.11,-0.81,9.95,-0.03,-0.01,-0.00,30.85
28646192,1872,1,187820,219540,0.07,-0.84,9.97,-0.03,-0.01,-0.00,30.85
28686189,1872,1,187916,219770,0.06,-0.81,9.96,-0.03,-0.01,-0.01,30.85
28726192,1874,1,187972,220121,0.09,-0.82,9.95,-0.03,-0.01,-0.01,30.85
28766189,1872,1,188164,220569,0.11,-0.83,9.96,-0.03,-0.01,-0.00,30.85
28806192,1872,1,188268,220765,0.08,-0.85,9.96,-0.03,-0.01,-0.01,30.85
28846189,1868,1,188053,219089,0.08,-0.82,9.95,-0.03,-0.01,-0.01,30.85
28886192,1868,1,187239,217488,0.07,-0.81,9.96,-0.03,-0.01,-0.01,30.85
28926192,1873,1,186963,216992,0.09,-0.83,9.96,-0.03,-0.01,-0.01,30.85
28966192,1878,1,186849,216753,0.10,-0.82,9.95,-0.03,-0.01,-0.00,30.85
29006189,1875,1,186775,216654,0.07,-0.82,9.96,-0.03,-0.01,-0.01,30.85
29046192,1888,1,186789,217009,0.09,-0.82,9.94,-0.03,-0.01,-0.01,30.85
29086189,1886,1,187059,217580,0.08,-0.82,9.97,-0.03,-0.01,-0.00,30.85
29126878,1849,1,187195,217898,0.08,-0.80,9.97,-0.03,-0.01,-0.00,30.67
29167189,1850,1,187228,218040,0.08,-0.82,9.96,-0.03,-0.01,-0.00,30.67
29207192,1860,1,187274,218155,0.09,-0.82,9.95,-0.03,-0.01,-0.00,30.67
29247189,1857,1,187397,218568,0.09,-0.82,9.97,-0.03,-0.01,-0.01,30.67
29287192,1856,1,187463,218758,0.08,-0.83,9.96,-0.03,-0.01,-0.01,30.67
29327192,1855,1,187575,219052,0.08,-0.81,9.94,-0.03,-0.01,-0.00,30.67
29367192,1852,1,187688,219351,0.11,-0.84,9.95,-0.03,-0.01,-0.01,30.67
29407192,1859,1,187856,219883,0.08,-0.84,9.95,-0.03,-0.01,-0.00,30.67
29447192,1855,1,188074,220346,0.06,-0.80,9.96,-0.03,-0.01,-0.01,30.67
29487192,1853,1,187964,219180,0.07,-0.82,9.95,-0.03,-0.01,-0.01,30.67
29527192,1856,1,187271,217275,0.06,-0.81,9.96,-0.03,-0.01,-0.00,30.67
29567192,1857,1,186776,216283,0.08,-0.82,9.94,-0.03,-0.01,-0.01,30.67
29607192,1856,1,186559,215796,0.11,-0.83,9.96,-0.03,-0.01,-0.00,30.67
29647192,1855,1,186540,215753,0.07,-0.81,9.96,-0.03,-0.01,-0.00,30.67
29687192,1852,1,186537,215785,0.09,-0.81,9.96,-0.03,-0.01,-0.01,30.67
29727189,1852,1,186626,216270,0.07,-0.83,9.96,-0.03,-0.01,-0.00,30.67
29767192,1859,1,186835,216695,0.09,-0.82,9.96,-0.03,-0.01,-0.00,30.67
29807189,1853,1,186943,216967,0.05,-0.80,9.96,-0.03,-0.01,-0.01,30.67
29846192,1862,1,187029,217077,0.07,-0.81,9.94,-0.03,-0.01,-0.01,30.67
29886192,1871,1,187092,217350,0.08,-0.83,9.95,-0.03,-0.01,-0.00,30.67
29926192,1869,1,187177,217719,0.09,-0.82,9.95,-0.03,-0.01,-0.01,30.67
29966189,1863,1,187393,218220,0.07,-0.82,9.93,-0.03,-0.01,-0.00,30.67
30006192,1875,1,187515,218494,0.09,-0.84,9.98,-0.03,-0.01,-0.01,30.67
30046205,1875,1,187648,218896,0.11,-0.83,9.97,-0.03,-0.01,-0.00,30.67
30086192,1872,1,187782,219533,0.07,-0.83,9.94,-0.03,-0.01,-0.00,30.67
30126875,1850,1,187999,219697,0.09,-0.83,9.97,-0.03,-0.01,-0.00,30.77
30167192,1846,1,187688,217959,0.10,-0.83,9.95,-0.03,-0.01,-0.01,30.77
30207192,1840,1,186929,216379,0.07,-0.82,9.96,-0.03,-0.01,-0.01,30.77
30247205,1845,1,186684,215929,0.08,-0.80,9.97,-0.03,-0.01,-0.00,30.77
30287189,1841,1,186608,215761,0.11,-0.82,9.96,-0.03,-0.01,-0.01,30.77
30327192,1840,1,186523,215720,0.11,-0.83,9.96,-0.03,-0.01,-0.00,30.77
30367192,1840,1,186596,216063,0.09,-0.80,9.97,-0.03,-0.01,-0.00,30.77
30407192,1843,1,186788,216574,0.08,-0.82,9.96,-0.03,-0.01,-0.01,30.77
30447197,1840,1,186903,216892,0.09,-0.84,9.96,-0.03,-0.01,-0.00,30.77
30487192,1842,1,187009,217222,0.07,-0.82,9.96,-0.04,-0.01,-0.00,30.77
30527192,1841,1,187190,217597,0.10,-0.81,9.96,-0.03,-0.01,-0.01,30.77
30567192,1843,1,187309,217866,0.08,-0.85,9.96,-0.03,-0.01,-0.00,30.77
30607189,1845,1,187489,218367,0.09,-0.81,9.95,-0.03,-0.01,-0.00,30.77
30647192,1847,1,187639,218729,0.06,-0.83,9.94,-0.03,-0.01,-0.00,30.77
30687189,1855,1,187776,219109,0.08,-0.83,9.96,-0.04,-0.01,-0.01,30.77
30727192,1843,1,187966,219699,0.11,-0.83,9.96,-0.03,-0.01,-0.01,30.77
30767192,1852,1,188164,220289,0.08,-0.81,9.99,-0.03,-0.01,-0.00,30.77
30807192,1840,1,188361,220440,0.10,-0.80,9.95,-0.03,-0.01,-0.00,30.77
30847188,1837,1,188145,218938,0.09,-0.85,9.97,-0.03,-0.01,-0.01,30.77
30886192,1856,1,187438,217295,0.08,-0.81,9.94,-0.03,-0.01,-0.01,30.77
30926189,1851,1,187100,216733,0.08,-0.82,9.99,-0.03,-0.01,-0.01,30.77
30966192,1855,1,186994,216523,0.07,-0.83,9.97,-0.03,-0.01,-0.00,30.77
31006189,1849,1,186934,216405,0.11,-0.84,9.92,-0.03,-0.01,-0.00,30.77
31046192,1858,1,186994,216698,0.10,-0.81,9.95,-0.03,-0.01,-0.00,30.77
31086189,1857,1,187214,217267,0.08,-0.83,9.96,-0.03,-0.01,-0.01,30.77
31126192,1853,1,187347,217396,0.08,-0.83,9.98,-0.03,-0.01,-0.00,30.77
31166876,1834,1,187333,217485,0.08,-0.82,9.96,-0.03,-0.01,-0.01,30.91
31207192,1836,1,187412,217747,0.10,-0.85,9.93,-0.03,-0.01,-0.00,30.91
31247189,1833,1,187540,218088,0.08,-0.82,9.96,-0.03,-0.01,-0.00,30.91
31287192,1840,1,187681,218449,0.09,-0.82,9.97,-0.03,-0.01,-0.00,30.91
31327189,1837,1,187766,218769,0.09,-0.80,9.97,-0.03,-0.01,-0.01,30.91
31367192,1852,1,187955,219261,0.10,-0.83,9.96,-0.03,-0.01,-0.01,30.91
31407189,1850,1,188057,219687,0.09,-0.82,9.94,-0.03,-0.01,-0.01,30.91
31447192,1843,1,188245,220129,0.09,-0.82,9.96,-0.03,-0.01,-0.01,30.91
31487192,1842,1,188342,219957,0.11,-0.83,9.95,-0.03,-0.01,-0.01,30.91
31527192,1842,1,187855,218036,0.09,-0.81,9.94,-0.03,-0.01,-0.00,30.91
31567189,1838,1,187203,216838,0.09,-0.82,9.97,-0.03,-0.01,-0.01,30.91
31607192,1840,1,186967,216443,0.10,-0.84,9.96,-0.03,-0.01,-0.01,30.91
31647192,1840,1,186886,216291,0.11,-0.83,9.96,-0.03,-0.01,-0.01,30.91
31687192,1847,1,186905,216477,0.09,-0.83,9.96,-0.03,-0.01,-0.01,30.91
31727189,1850,1,187026,216997,0.07,-0.82,9.95,-0.03,-0.01,-0.00,30.91
31767192,1842,1,187230,217389,0.10,-0.83,9.96,-0.03,-0.01,-0.01,30.91
31807192,1839,1,187266,217610,0.09,-0.82,9.95,-0.03,-0.01,-0.00,30.91
31847192,1846,1,187306,217789,0.09,-0.81,9.93,-0.03,-0.01,-0.01,30.91
31886189,1869,1,187355,218028,0.11,-0.84,9.95,-0.03,-0.01,-0.00,30.91
31926192,1855,1,187472,218420,0.08,-0.80,9.96,-0.03,-0.01,-0.01,30.91
31966189,1859,1,187548,218664,0.07,-0.81,9.96,-0.03,-0.01,-0.01,30.91
32006192,1856,1,187618,218812,0.07,-0.82,9.96,-0.03,-0.01,-0.00,30.91
32046189,1856,1,187700,219184,0.11,-0.83,9.96,-0.03,-0.01,-0.00,30.91
32086192,1855,1,187871,219729,0.08,-0.80,9.95,-0.03,-0.01,-0.00,30.91
32126188,1857,1,188049,220082,0.09,-0.81,9.98,-0.03,-0.01,-0.01,30.91
32166192,1860,1,187906,218662,0.09,-0.81,9.97,-0.03,-0.01,-0.00,30.91
32206875,1837,1,187208,216950,0.09,-0.82,9.97,-0.03,-0.01,-0.01,30.77
32247192,1845,1,186827,216265,0.07,-0.83,9.93,-0.03,-0.01,-0.00,30.77
32287189,1856,1,186726,216003,0.09,-0.82,9.96,-0.03,-0.01,-0.00,30.77
32327192,1846,1,186644,215935,0.10,-0.82,9.95,-0.03,-0.01,-0.00,30.77
32367189,1850,1,186657,216243,0.08,-0.83,9.94,-0.03,-0.01,-0.01,30.77
32407192,1844,1,186844,216769,0.08,-0.84,9.95,-0.03,-0.01,-0.00,30.77
32447189,1854,1,186954,217053,0.10,-0.80,9.98,-0.03,-0.01,-0.00,30.77
32487192,1856,1,187097,217341,0.07,-0.82,9.96,-0.03,-0.01,-0.00,30.77
32527189,1850,1,187111,217553,0.07,-0.85,9.95,-0.03,-0.01,-0.00,30.77
32567192,1856,1,187200,217830,0.09,-0.83,9.93,-0.03,-0.01,-0.01,30.77
32607192,1855,1,187365,218192,0.08,-0.82,9.97,-0.03,-0.01,-0.01,30.77
32647192,1841,1,187440,218302,0.08,-0.81,9.95,-0.03,-0.01,-0.00,30.77
32687189,1845,1,187537,218617,0.08,-0.82,9.97,-0.03,-0.01,-0.00,30.77
32727192,1846,1,187688,219208,0.09,-0.83,9.96,-0.03,-0.01,-0.00,30.77
32767189,1843,1,187925,219730,0.08,-0.83,9.96,-0.03,-0.01,-0.01,30.77
32807192,1833,1,188056,219866,0.08,-0.83,9.91,-0.03,-0.01,-0.00,30.77
32847189,1840,1,187760,218150,0.10,-0.84,9.98,-0.03,-0.01,-0.01,30.77
32887191,1846,1,187028,216580,0.08,-0.81,9.95,-0.03,-0.01,-0.01,30.77
32927189,1842,1,186731,216051,0.12,-0.85,9.96,-0.03,-0.01,-0.01,30.77
32967192,1840,1,186648,215877,0.09,-0.83,9.95,-0.03,-0.01,-0.00,30.77
33007189,1840,1,186575,215873,0.08,-0.83,9.97,-0.03,-0.01,-0.01,30.77
33047192,1840,1,186661,216289,0.07,-0.83,9.96,-0.03,-0.01,-0.00,30.77
33087189,1840,1,186889,216855,0.11,-0.85,9.95,-0.03,-0.01,-0.00,30.77
33127192,1840,1,187082,217229,0.07,-0.84,9.97,-0.03,-0.01,-0.00,30.77
33167189,1845,1,187132,217475,0.07,-0.82,9.96,-0.03,-0.01,-0.01,30.77
33207878,1859,1,187234,217853,0.09,-0.83,9.96,-0.03,-0.01,-0.00,30.85
33246189,1861,1,187415,218282,0.09,-0.83,9.94,-0.03,-0.01,-0.00,30.85
33286192,1861,1,187581,218738,0.08,-0.83,9.95,-0.03,-0.01,-0.00,30.85
33326189,1855,1,187741,219116,0.09,-0.83,9.95,-0.03,-0.01,-0.01,30.85
33366192,1851,1,187925,219787,0.08,-0.83,9.96,-0.03,-0.01,-0.01,30.85
33406189,1855,1,188209,220376,0.07,-0.83,9.96,-0.03,-0.01,-0.00,30.85
33446192,1846,1,188388,220813,0.08,-0.83,9.95,-0.03,-0.01,-0.01,30.85
33486192,1846,1,188498,220916,0.08,-0.82,9.98,-0.03,-0.01,-0.00,30.85
33526250,1844,1,188199,219016,0.08,-0.82,9.96,-0.03,-0.01,-0.00,30.85
33566189,1846,1,187392,217306,0.08,-0.82,9.93,-0.03,-0.01,-0.01,30.85
33606192,1847,1,187069,216693,0.05,-0.83,9.96,-0.03,-0.01,-0.00,30.85
33646189,1841,1,186939,216421,0.08,-0.80,9.94,-0.03,-0.01,-0.00,30.85
33686192,1847,1,186923,216387,0.09,-0.82,9.96,-0.03,-0.01,-0.00,30.85
33726238,1843,1,187032,216746,0.10,-0.80,9.96,-0.03,-0.01,-0.00,30.85
33766192,1847,1,187203,217220,0.07,-0.82,9.91,-0.03,-0.01,-0.00,30.85
33806189,1839,1,187324,217385,0.10,-0.82,9.94,-0.03,-0.01,-0.01,30.85
33846192,1849,1,187369,217629,0.09,-0.82,9.96,-0.04,-0.01,-0.01,30.85
33886189,1853,1,187438,217962,0.08,-0.82,9.97,-0.03,-0.01,-0.01,30.85
33926192,1845,1,187571,218164,0.10,-0.84,9.96,-0.03,-0.01,-0.00,30.85
33966189,1845,1,187673,218478,0.07,-0.81,9.96,-0.03,-0.01,-0.01,30.85
34006192,1853,1,187793,218888,0.07,-0.81,9.95,-0.03,-0.01,-0.00,30.85
34046189,1857,1,187947,219211,0.08,-0.81,9.97,-0.03,-0.01,-0.00,30.85
34086192,1850,1,188035,219433,0.09,-0.84,9.96,-0.03,-0.01,-0.00,30.85
34126189,1851,1,188224,219922,0.08,-0.82,9.97,-0.03,-0.01,-0.01,30.85
34166191,1846,1,188288,219317,0.08,-0.83,9.95,-0.03,-0.01,-0.00,30.85
34206189,1840,1,187683,217412,0.11,-0.83,9.94,-0.03,-0.01,-0.01,30.85
34246878,1831,1,187159,216409,0.08,-0.84,9.95,-0.03,-0.01,-0.01,30.93
34287192,1841,1,186971,216107,0.07,-0.81,9.99,-0.03,-0.01,-0.00,30.93
34327192,1840,1,186891,215991,0.07,-0.81,9.96,-0.03,-0.01,-0.00,30.93
34367189,1840,1,186899,216091,0.07,-0.82,9.95,-0.03,-0.01,-0.01,30.93
34407192,1843,1,187011,216640,0.08,-0.83,9.95,-0.03,-0.01,-0.00,30.93
34447189,1840,1,187172,216987,0.09,-0.82,9.97,-0.03,-0.01,-0.00,30.93
34487192,1849,1,187232,217139,0.08,-0.82,9.96,-0.03,-0.01,-0.01,30.93
34527189,1837,1,187267,217341,0.10,-0.84,9.96,-0.03,-0.01,-0.00,30.93
34567192,1845,1,187390,217645,0.11,-0.82,9.93,-0.03,-0.01,-0.00,30.93
34607192,1846,1,187486,218022,0.08,-0.83,9.96,-0.03,-0.01,-0.01,30.93
34647192,1842,1,187591,218349,0.08,-0.82,9.96,-0.03,-0.01,-0.01,30.93
34687189,1847,1,187686,218649,0.08,-0.84,9.95,-0.03,-0.01,-0.00,30.93
34727192,1845,1,187747,218987,0.09,-0.81,9.95,-0.03,-0.01,-0.00,30.93
34767189,1850,1,187923,219352,0.06,-0.82,9.96,-0.03,-0.01,-0.01,30.93
34807192,1845,1,187994,219440,0.09,-0.84,9.94,-0.03,-0.01,-0.01,30.93
34847189,1847,1,187880,218110,0.08,-0.83,9.95,-0.03,-0.01,-0.01,30.93
34887192,1837,1,187119,216240,0.08,-0.81,9.96,-0.03,-0.01,-0.01,30.93
34927189,1841,1,186691,215508,0.08,-0.82,9.97,-0.03,-0.01,-0.01,30.93
34967192,1842,1,186570,215236,0.10,-0.82,9.93,-0.03,-0.01,-0.01,30.93
35007189,1840,1,186501,215049,0.07,-0.83,9.94,-0.03,-0.01,-0.01,30.93
35047192,1840,1,186484,215212,0.08,-0.82,9.95,-0.03,-0.01,-0.00,30.93
35087189,1847,1,186667,215857,0.09,-0.83,9.94,-0.03,-0.01,-0.01,30.93
35127192,1846,1,186833,216227,0.09,-0.81,9.96,-0.03,-0.01,-0.01,30.93
35167192,1841,1,186951,216426,0.10,-0.83,9.95,-0.03,-0.01,-0.01,30.93
35207192,1852,1,186996,216636,0.10,-0.83,9.94,-0.03,-0.01,-0.00,30.93
35247875,1833,1,187069,216974,0.10,-0.82,9.96,-0.03,-0.01,-0.01,30.87
35286192,1843,1,187227,217493,0.10,-0.81,9.96,-0.03,-0.01,-0.01,30.87
35326191,1841,1,187406,217874,0.07,-0.84,9.94,-0.03,-0.01,-0.01,30.87
35366230,1846,1,187513,218230,0.07,-0.81,9.96,-0.03,-0.01,-0.01,30.87
35406192,1839,1,187594,218687,0.08,-0.83,9.95,-0.03,-0.01,-0.01,30.87
35446192,1840,1,187806,219202,0.08,-0.84,9.97,-0.03,-0.01,-0.00,30.87
35486189,1840,1,187992,219644,0.09,-0.81,9.95,-0.03,-0.01,-0.01,30.87
35526197,1845,1,188028,218891,0.08,-0.83,9.95,-0.03,-0.01,-0.01,30.87
35566207,1838,1,187355,216944,0.10,-0.83,9.95,-0.03,-0.01,-0.01,30.87
35606192,1847,1,186855,216014,0.09,-0.82,9.95,-0.03,-0.01,-0.01,30.87
35646192,1845,1,186712,215830,0.09,-0.82,9.95,-0.03,-0.01,-0.00,30.87
35686192,1843,1,186687,215876,0.08,-0.84,9.96,-0.03,-0.01,-0.00,30.87
35726189,1847,1,186726,216115,0.09,-0.81,9.96,-0.03,-0.01,-0.00,30.87
35766192,1840,1,186904,216773,0.09,-0.85,9.95,-0.03,-0.01,-0.00,30.87
35806189,1846,1,187133,217232,0.08,-0.82,9.96,-0.03,-0.01,-0.00,30.87
35846192,1842,1,187273,217502,0.09,-0.84,9.95,-0.03,-0.01,-0.00,30.87
35886189,1843,1,187406,217919,0.08,-0.81,9.96,-0.03,-0.01,-0.00,30.87
35926192,1838,1,187547,218414,0.09,-0.83,9.96,-0.03,-0.01,-0.00,30.87
35966192,1840,1,187773,219082,0.09,-0.82,9.96,-0.03,-0.01,-0.01,30.87
36006192,1850,1,188002,219767,0.09,-0.83,9.94,-0.03,-0.01,-0.00,30.87
36046189,1831,1,188221,220231,0.09,-0.83,9.94,-0.03,-0.01,-0.01,30.87
36086192,1842,1,188446,220749,0.09,-0.82,9.95,-0.03,-0.01,-0.01,30.87
36126192,1840,1,188641,221330,0.09,-0.81,9.94,-0.04,-0.01,-0.00,30.87
36166192,1843,1,188827,221879,0.06,-0.83,9.97,-0.03,-0.01,-0.00,30.87
36206189,1842,1,188966,221472,0.07,-0.83,9.94,-0.03,-0.01,-0.01,30.87
36246192,1847,1,188290,219089,0.09,-0.81,9.95,-0.03,-0.01,-0.00,30.87
36286878,1833,1,187543,217979,0.08,-0.82,9.96,-0.03,-0.01,-0.01,30.85
36327192,1840,1,187342,217690,0.09,-0.80,9.97,-0.03,-0.01,-0.01,30.85
36367189,1842,1,187329,217477,0.11,-0.84,9.96,-0.03,-0.02,-0.01,30.85
36407192,1843,1,187319,217580,0.09,-0.83,9.94,-0.03,-0.01,-0.01,30.85
36447192,1840,1,187401,218170,0.08,-0.82,9.97,-0.03,-0.01,-0.01,30.85
36487192,1849,1,187659,218588,0.07,-0.81,9.96,-0.03,-0.01,-0.00,30.85
36527189,1851,1,187758,218743,0.10,-0.81,9.94,-0.03,-0.01,-0.01,30.85
36565192,1875,1,187788,218905,0.09,-0.83,9.97,-0.03,-0.01,-0.01,30.85
36605195,1874,1,187909,219165,0.10,-0.83,9.97,-0.03,-0.01,-0.01,30.85
36645192,1883,1,188006,219552,0.09,-0.83,9.98,-0.04,-0.01,-0.01,30.85
36685189,1875,1,188134,219895,0.09,-0.83,9.95,-0.03,-0.01,-0.01,30.85
36725192,1874,1,188245,220193,0.08,-0.83,9.95,-0.03,-0.01,-0.00,30.85
36765189,1877,1,188446,220579,0.09,-0.84,9.96,-0.03,-0.01,-0.01,30.85
36805197,1872,1,188532,221002,0.09,-0.82,9.96,-0.03,-0.01,-0.01,30.85
36845192,1876,1,188714,221486,0.09,-0.81,9.94,-0.03,-0.01,-0.01,30.85
36885192,1874,1,188795,220437,0.10,-0.84,9.96,-0.03,-0.01,-0.00,30.85
36925189,1872,1,187955,218313,0.10,-0.82,9.96,-0.03,-0.01,-0.00,30.85
36965192,1871,1,187407,217429,0.08,-0.82,9.97,-0.03,-0.01,-0.01,30.85
37005217,1872,1,187309,217370,0.07,-0.83,9.94,-0.03,-0.01,-0.01,30.85
37045191,1872,1,187328,217345,0.09,-0.82,9.95,-0.03,-0.01,-0.00,30.85
37085189,1862,1,187416,217624,0.09,-0.82,9.96,-0.03,-0.01,-0.01,30.85
37125192,1875,1,187568,218319,0.07,-0.82,9.96,-0.03,-0.01,-0.00,30.85
37165189,1866,1,187809,218630,0.09,-0.85,9.94,-0.03,-0.01,-0.01,30.85
37205209,1856,1,187777,218606,0.09,-0.81,9.95,-0.03,-0.01,-0.01,30.85
37245192,1868,1,187814,218799,0.09,-0.84,9.95,-0.03,-0.01,-0.01,30.85
37285192,1869,1,187889,218884,0.08,-0.82,9.96,-0.03,-0.01,-0.01,30.85
37325875,1841,1,187958,219034,0.09,-0.81,9.96,-0.03,-0.01,-0.01,30.81
37366192,1840,1,187987,219176,0.08,-0.83,9.95,-0.03,-0.01,-0.00,30.81
37406192,1842,1,188074,219322,0.07,-0.80,9.96,-0.03,-0.01,-0.01,30.81
37446192,1843,1,188154,219413,0.10,-0.82,9.96,-0.03,-0.01,-0.01,30.81
37486192,1843,1,188243,219746,0.12,-0.83,9.96,-0.03,-0.01,-0.00,30.81
37526194,1853,1,188397,220088,0.08,-0.81,9.91,-0.04,-0.01,-0.01,30.81
37566189,1841,1,188215,218521,0.09,-0.82,9.98,-0.03,-0.01,-0.01,30.81
37606192,1836,1,187470,216750,0.10,-0.83,9.99,-0.03,-0.01,-0.01,30.81
37646192,1841,1,187024,215961,0.11,-0.84,9.92,-0.03,-0.01,-0.01,30.81
37686192,1834,1,186881,215659,0.09,-0.82,9.98,-0.03,-0.01,-0.01,30.81
37726192,1844,1,186847,215670,0.09,-0.82,9.95,-0.03,-0.01,-0.01,30.81
37766192,1840,1,186934,215985,0.08,-0.82,9.95,-0.03,-0.01,-0.01,30.81
37806189,1845,1,187119,216579,0.07,-0.83,9.96,-0.03,-0.01,-0.00,30.81
37846192,1840,1,187230,216843,0.07,-0.82,9.97,-0.03,-0.01,-0.00,30.81
37886189,1842,1,187333,216942,0.10,-0.84,9.94,-0.03,-0.01,-0.00,30.81
37926192,1840,1,187328,217008,0.09,-0.80,9.94,-0.03,-0.01,-0.01,30.81
37966189,1840,1,187380,217206,0.08,-0.81,9.97,-0.03,-0.01,-0.00,30.81
38006191,1841,1,187513,217416,0.08,-0.79,9.98,-0.03,-0.01,-0.00,30.81
38046189,1827,1,187649,217838,0.10,-0.82,9.95,-0.03,-0.01,-0.01,30.81
38086192,1847,1,187842,218322,0.10,-0.81,9.93,-0.03,-0.01,-0.01,30.81
38126189,1839,1,188039,218791,0.07,-0.82,9.98,-0.03,-0.01,-0.00,30.81
38166192,1846,1,188199,219182,0.10,-0.82,9.94,-0.03,-0.01,-0.01,30.81
38206189,1840,1,188287,219176,0.09,-0.81,9.98,-0.03,-0.01,-0.01,30.81
38246191,1841,1,187919,217337,0.08,-0.80,9.96,-0.03,-0.01,-0.00,30.81
38286188,1839,1,187177,215665,0.08,-0.83,9.95,-0.03,-0.01,-0.00,30.81
38326878,1834,1,186904,214898,0.08,-0.82,9.96,-0.03,-0.01,-0.01,30.85
38365192,1845,1,186678,214408,0.07,-0.83,9.96,-0.03,-0.01,-0.01,30.85
38405192,1861,1,186591,214135,0.09,-0.82,9.96,-0.03,-0.01,-0.00,30.85
38445189,1854,1,186579,214422,0.10,-0.79,9.95,-0.03,-0.01,-0.00,30.85
38485191,1867,1,186860,215266,0.08,-0.81,9.99,-0.03,-0.01,-0.01,30.85
38525197,1872,1,187158,216017,0.08,-0.82,9.96,-0.03,-0.01,-0.01,30.85
38565192,1867,1,187404,216747,0.08,-0.81,9.94,-0.03,-0.01,-0.01,30.85
38605189,1856,1,187570,217409,0.07,-0.81,10.00,-0.03,-0.01,-0.01,30.85
38645214,1847,1,187802,218210,0.09,-0.84,9.96,-0.04,-0.01,-0.00,30.85
38685189,1851,1,188119,218915,0.08,-0.81,9.96,-0.04,-0.01,-0.00,30.85
38725192,1854,1,188245,219228,0.06,-0.82,10.00,-0.04,-0.02,-0.01,30.85
38765189,1853,1,188348,219795,0.12,-0.82,9.94,-0.03,-0.01,-0.01,30.85
38805192,1859,1,188606,220485,0.09,-0.82,9.95,-0.03,-0.01,-0.00,30.85
38845216,1854,1,188757,220587,0.08,-0.82,9.93,-0.03,-0.01,-0.00,30.85
38885192,1851,1,188646,220219,0.09,-0.82,9.94,-0.03,-0.02,-0.00,30.85
38925189,1851,1,188309,218347,0.10,-0.82,9.97,-0.03,-0.01,-0.00,30.85
38965192,1846,1,187564,216472,0.11,-0.83,9.94,-0.03,-0.01,-0.00,30.85
39005192,1847,1,187135,215749,0.10,-0.81,9.93,-0.03,-0.01,-0.00,30.85
39045192,1846,1,186967,215416,0.08,-0.83,9.94,-0.03,-0.01,-0.00,30.85
39085189,1855,1,186906,215276,0.08,-0.82,9.98,-0.03,-0.01,-0.01,30.85
39125192,1853,1,186900,215460,0.08,-0.82,9.96,-0.03,-0.01,-0.00,30.85
39165189,1850,1,187031,215803,0.09,-0.82,9.96,-0.03,-0.01,-0.01,30.85
39205192,1851,1,187112,216033,0.07,-0.84,9.93,-0.03,-0.01,-0.01,30.85
39245192,1853,1,187208,216401,0.10,-0.83,9.95,-0.03,-0.01,-0.01,30.85
39285192,1854,1,187395,216969,0.10,-0.81,9.94,-0.03,-0.01,-0.01,30.85
39325189,1845,1,187563,217367,0.08,-0.83,9.99,-0.03,-0.01,-0.00,30.85
39365878,1840,1,187667,217549,0.11,-0.83,9.95,-0.03,-0.01,-0.01,30.63
39406192,1839,1,187707,217416,0.06,-0.82,9.96,-0.03,-0.01,-0.00,30.63
39446192,1840,1,187656,217278,0.08,-0.82,9.96,-0.03,-0.02,-0.00,30.63
39486189,1843,1,187776,217511,0.10,-0.85,9.97,-0.03,-0.01,-0.01,30.63
39526196,1841,1,187909,218067,0.09,-0.82,9.94,-0.04,-0.01,-0.00,30.63
39566189,1840,1,188134,218208,0.10,-0.83,9.96,-0.03,-0.01,-0.01,30.63
39606192,1840,1,187822,216480,0.09,-0.84,9.96,-0.03,-0.01,-0.00,30.63
39646189,1840,1,187140,214685,0.08,-0.82,9.96,-0.03,-0.01,-0.00,30.63
39686192,1842,1,186551,212751,0.10,-0.82,9.90,-0.03,-0.01,-0.01,30.63
39726189,1839,1,185774,210133,0.11,-0.82,9.97,-0.03,-0.01,-0.00,30.63
39766192,1840,1,185304,209349,0.10,-0.81,9.96,-0.03,-0.02,-0.00,30.63
39806189,1839,1,185604,210194,0.09,-0.81,9.95,-0.03,-0.02,-0.00,30.63
39846192,1842,1,186145,211271,0.09,-0.81,9.95,-0.03,-0.02,-0.00,30.63
39885189,1855,1,186544,211767,0.12,-0.82,9.96,-0.03,-0.02,-0.00,30.63
39925192,1850,1,186737,212208,0.11,-0.80,9.96,-0.03,-0.01,-0.00,30.63
39965189,1847,1,187123,213475,0.11,-0.81,9.94,-0.03,-0.01,-0.01,30.63
40005192,1847,1,187503,214748,0.11,-0.80,9.94,-0.04,-0.00,-0.01,30.63
40045189,1839,1,187758,215642,0.08,-0.81,9.96,-0.04,0.00,-0.01,30.63
40085172,1850,1,187951,216188,0.06,-0.81,9.98,-0.03,-0.01,-0.01,30.63
40125191,1842,1,188111,216364,0.09,-0.83,9.96,-0.03,-0.01,-0.01,30.63
40165192,1840,1,188124,216009,0.09,-0.82,9.96,-0.03,-0.01,-0.01,30.63
40205192,1838,1,188111,215170,0.08,-0.82,9.93,-0.03,-0.02,-0.00,30.63
40245192,1847,1,187708,211433,0.10,-0.81,9.95,-0.03,-0.02,-0.00,30.63
40285195,1854,1,186112,207043,0.11,-0.81,9.97,-0.03,-0.02,-0.00,30.63
40325192,1841,1,185811,207058,0.12,-0.81,9.96,-0.03,-0.02,-0.00,30.63
40365876,1830,1,186217,207841,0.10,-0.82,9.98,-0.03,-0.01,-0.00,30.65
40406192,1834,1,186536,208525,0.12,-0.82,9.94,-0.03,-0.01,-0.00,30.65
40446192,1828,1,186717,209856,0.13,-0.80,9.93,-0.04,0.01,-0.01,30.65
40486208,1838,1,187087,211936,0.08,-0.81,9.98,-0.04,0.02,-0.01,30.65
40526173,1831,1,187582,213042,0.07,-0.82,9.97,-0.04,-0.01,-0.01,30.65
40566192,1840,1,187840,213958,0.10,-0.82,9.94,-0.03,-0.01,-0.01,30.65
40606189,1841,1,188146,215292,0.09,-0.81,9.93,-0.04,-0.00,-0.01,30.65
40646192,1834,1,188519,216700,0.11,-0.83,9.93,-0.04,0.00,-0.01,30.65
40686200,1840,1,188968,217998,0.09,-0.83,9.97,-0.04,0.00,-0.01,30.65
40726172,1824,1,189191,218974,0.08,-0.81,9.99,-0.04,-0.00,-0.01,30.65
40766189,1837,1,189523,220159,0.07,-0.82,9.97,-0.04,-0.01,-0.01,30.65
40806191,1845,1,189835,221074,0.07,-0.84,9.98,-0.03,-0.01,-0.01,30.65
40846192,1851,1,190180,222123,0.09,-0.81,9.94,-0.03,-0.01,-0.01,30.65
40886192,1849,1,190417,221999,0.09,-0.82,9.97,-0.03,-0.01,-0.00,30.65
40925189,1850,1,189599,219116,0.08,-0.81,9.97,-0.03,-0.02,-0.00,30.65
40965192,1846,1,188806,217740,0.08,-0.82,9.97,-0.03,-0.01,-0.00,30.65
41005189,1851,1,188510,217160,0.10,-0.82,9.96,-0.03,-0.02,-0.00,30.65
41045192,1840,1,188387,216949,0.09,-0.83,9.92,-0.03,-0.01,-0.01,30.65
41085192,1843,1,188273,216828,0.08,-0.84,9.95,-0.03,-0.01,-0.01,30.65
41125192,1853,1,188227,216960,0.07,-0.83,9.97,-0.03,-0.01,-0.00,30.65
41165189,1855,1,188394,217418,0.11,-0.83,9.94,-0.04,-0.01,-0.01,30.65
41205192,1853,1,188454,217640,0.10,-0.81,9.96,-0.03,-0.01,-0.00,30.65
41245189,1845,1,188571,218199,0.08,-0.82,9.95,-0.03,-0.01,-0.00,30.65
41285192,1845,1,188865,218889,0.08,-0.82,9.96,-0.03,-0.01,-0.00,30.65
41325189,1844,1,188893,218782,0.08,-0.80,9.95,-0.03,-0.02,-0.00,30.65
41365192,1845,1,188829,218669,0.09,-0.81,9.96,-0.03,-0.01,-0.00,30.65
41405875,1849,1,188889,218770,0.08,-0.82,9.96,-0.03,-0.01,-0.00,30.81
41446192,1849,1,188965,219085,0.09,-0.81,9.94,-0.03,-0.01,-0.01,30.81
41486192,1843,1,189152,219968,0.09,-0.84,9.94,-0.04,-0.01,-0.01,30.81
41526197,1838,1,189587,221341,0.10,-0.82,9.94,-0.04,-0.01,-0.00,30.81
41566189,1840,1,190060,222679,0.09,-0.84,9.91,-0.04,-0.01,-0.01,30.81
41606192,1837,1,190109,221218,0.08,-0.84,9.96,-0.03,-0.01,-0.01,30.81
41646192,1834,1,189065,218879,0.09,-0.82,9.94,-0.03,-0.01,-0.01,30.81
41686192,1834,1,188534,217949,0.07,-0.82,9.96,-0.03,-0.02,-0.00,30.81
41726189,1840,1,188306,217397,0.09,-0.83,9.94,-0.03,-0.02,-0.00,30.81
41766192,1854,1,188185,217120,0.11,-0.82,9.96,-0.03,-0.02,-0.00,30.81
41806192,1842,1,188251,217339,0.08,-0.82,9.95,-0.03,-0.01,-0.00,30.81
41846192,1845,1,188464,218084,0.07,-0.81,9.95,-0.04,-0.01,-0.00,30.81
41886189,1835,1,188739,218669,0.09,-0.83,9.94,-0.03,-0.01,-0.00,30.81
41925195,1850,1,188883,218980,0.09,-0.82,9.97,-0.03,-0.01,-0.01,30.81
41965192,1847,1,188989,219246,0.09,-0.82,9.96,-0.03,-0.01,-0.01,30.81
42005192,1838,1,189046,219482,0.09,-0.80,9.93,-0.03,-0.01,-0.01,30.81
42045189,1845,1,189210,219836,0.08,-0.82,9.94,-0.03,-0.01,-0.00,30.81
42085192,1846,1,189289,220096,0.08,-0.83,9.98,-0.03,-0.01,-0.00,30.81
42125218,1837,1,189437,220973,0.10,-0.83,9.95,-0.03,-0.01,-0.01,30.81
42165192,1842,1,189999,222418,0.08,-0.80,9.96,-0.04,-0.00,-0.00,30.81
42205188,1856,1,190321,223131,0.09,-0.84,9.98,-0.03,-0.01,-0.00,30.81
42245192,1847,1,190414,223216,0.11,-0.81,9.95,-0.03,-0.01,-0.01,30.81
42285192,1850,1,190318,222896,0.08,-0.79,9.96,-0.03,-0.02,-0.00,30.81
42325207,1837,1,189897,220548,0.08,-0.81,9.96,-0.03,-0.01,-0.00,30.81
42365189,1828,1,188935,218583,0.08,-0.84,9.98,-0.03,-0.01,-0.00,30.81
42405192,1837,1,188513,217939,0.10,-0.85,9.96,-0.03,-0.01,-0.01,30.81
42445878,1829,1,188438,218133,0.08,-0.81,9.93,-0.03,-0.01,-0.01,31.05
42486192,1831,1,188557,218686,0.08,-0.80,9.96,-0.04,-0.01,-0.01,31.05
42526195,1834,1,188736,219521,0.06,-0.81,9.98,-0.03,-0.01,-0.01,31.05
42566192,1828,1,189042,220050,0.07,-0.85,9.99,-0.03,-0.01,-0.00,31.05
42606189,1834,1,189052,220018,0.10,-0.81,9.93,-0.03,-0.02,-0.00,31.05
42646192,1835,1,189020,220030,0.08,-0.83,9.94,-0.03,-0.01,-0.01,31.05
42686192,1840,1,189105,220387,0.08,-0.83,9.95,-0.03,-0.01,-0.00,31.05
42726192,1840,1,189276,220800,0.08,-0.84,9.92,-0.03,-0.01,-0.01,31.05
42766192,1840,1,189336,221019,0.11,-0.82,9.98,-0.03,-0.01,-0.01,31.05
42806192,1837,1,189429,221297,0.08,-0.81,9.94,-0.03,-0.01,-0.01,31.05
42846192,1856,1,189611,221846,0.07,-0.79,9.94,-0.03,-0.01,-0.00,31.05
42886192,1872,1,189789,222396,0.09,-0.82,9.92,-0.03,-0.01,-0.01,31.05
42926192,1869,1,189969,222805,0.10,-0.82,9.97,-0.03,-0.01,-0.01,31.05
42965192,1898,1,190055,222715,0.10,-0.81,9.94,-0.03,-0.01,-0.01,31.05
43005191,1907,1,189560,220449,0.09,-0.81,9.97,-0.03,-0.01,-0.00,31.05
43045192,1915,1,188756,219163,0.09,-0.82,9.94,-0.03,-0.01,-0.00,31.05
43085188,1927,1,188499,218761,0.09,-0.85,9.97,-0.03,-0.01,-0.01,31.05
43125192,1950,1,188386,218573,0.09,-0.81,9.96,-0.03,-0.01,-0.00,31.05
43165189,1968,1,188368,218678,0.09,-0.80,9.99,-0.03,-0.01,-0.01,31.05
43205192,1971,1,188498,219391,0.06,-0.83,9.97,-0.03,-0.01,-0.00,31.05
43245189,1988,1,188769,219973,0.08,-0.82,9.97,-0.03,-0.01,-0.01,31.05
43285192,1991,1,188852,220140,0.11,-0.81,9.95,-0.03,-0.01,-0.01,31.05
43325192,1990,1,188903,220357,0.08,-0.81,9.95,-0.03,-0.01,-0.01,31.05
43365192,1998,1,189009,220680,0.08,-0.83,9.94,-0.03,-0.01,-0.00,31.05
43405189,2000,1,189101,220976,0.10,-0.84,9.97,-0.03,-0.01,-0.00,31.05
43445192,1991,1,189182,221324,0.08,-0.82,9.94,-0.03,-0.01,-0.01,31.05
43485878,1985,1,189307,221665,0.07,-0.82,9.96,-0.03,-0.01,-0.01,30.93
43526196,1975,1,189453,222175,0.08,-0.83,9.96,-0.03,-0.01,-0.01,30.93
43566192,1961,1,189650,222697,0.09,-0.84,9.93,-0.04,-0.01,-0.01,30.93
43606192,1963,1,189854,223120,0.10,-0.79,9.98,-0.03,-0.01,-0.01,30.93
43646192,1945,1,189837,221887,0.06,-0.81,9.94,-0.03,-0.01,-0.01,30.93
43686192,1939,1,188863,219659,0.07,-0.82,9.98,-0.03,-0.01,-0.01,30.93
43726192,1909,1,188307,218844,0.08,-0.81,9.94,-0.03,-0.01,-0.01,30.93
43766232,1904,1,188147,218543,0.07,-0.81,9.95,-0.03,-0.01,-0.01,30.93
43806192,1891,1,188098,218398,0.07,-0.81,9.95,-0.03,-0.01,-0.01,30.93
43846192,1874,1,188106,218547,0.08,-0.82,9.96,-0.03,-0.01,-0.01,30.93
43886192,1872,1,188232,219278,0.08,-0.84,9.93,-0.03,-0.01,-0.01,30.93
43926192,1850,1,188514,219705,0.07,-0.81,9.96,-0.03,-0.01,-0.01,30.93
43966220,1839,1,188572,219869,0.09,-0.81,9.98,-0.03,-0.01,-0.01,30.93
44006192,1827,1,188595,220173,0.06,-0.81,9.93,-0.03,-0.01,-0.01,30.93
44046192,1813,1,188708,220535,0.08,-0.83,9.97,-0.03,-0.01,-0.01,30.93
44086191,1805,1,188857,221191,0.07,-0.83,9.93,-0.03,-0.01,-0.01,30.93
44126192,1792,1,189153,221862,0.06,-0.80,9.97,-0.03,-0.01,-0.01,30.93
44166192,1769,1,189377,222336,0.08,-0.81,9.94,-0.03,-0.01,-0.00,30.93
44206189,1768,1,189512,222709,0.10,-0.83,9.98,-0.03,-0.01,-0.01,30.93
44246192,1772,1,189686,223286,0.09,-0.81,9.95,-0.03,-0.01,-0.00,30.93
44286189,1765,1,189962,224053,0.08,-0.82,9.95,-0.03,-0.01,-0.00,30.93
44326192,1770,1,190160,223625,0.07,-0.82,9.93,-0.03,-0.01,-0.00,30.93
44366189,1764,1,189273,220848,0.08,-0.85,9.97,-0.03,-0.01,-0.01,30.93
44406191,1765,1,188550,219618,0.11,-0.81,9.94,-0.03,-0.01,-0.01,30.93
44446192,1763,1,188286,219390,0.07,-0.82,9.94,-0.03,-0.01,-0.01,30.93
44486878,1758,1,188378,219348,0.09,-0.82,9.95,-0.03,-0.01,-0.00,31.13
44525198,1774,1,188311,219401,0.07,-0.83,9.94,-0.03,-0.01,-0.01,31.13
44565192,1769,1,188352,219807,0.09,-0.81,9.98,-0.03,-0.01,-0.01,31.13
44605192,1777,1,188651,220512,0.09,-0.82,9.93,-0.03,-0.01,-0.01,31.13
44645192,1781,1,188841,221082,0.06,-0.81,9.97,-0.04,-0.01,-0.01,31.13
44685192,1790,1,189031,221688,0.05,-0.83,9.93,-0.03,-0.01,-0.01,31.13
44725192,1805,1,189168,222030,0.09,-0.82,9.95,-0.03,-0.01,-0.01,31.13
44765192,1795,1,189304,222220,0.06,-0.82,9.93,-0.03,-0.01,-0.01,31.13
44805192,1793,1,189313,222478,0.06,-0.80,9.94,-0.03,-0.01,-0.01,31.13
44845189,1787,1,189572,223012,0.07,-0.83,9.93,-0.03,-0.01,-0.00,31.13
44885192,1789,1,189710,223333,0.09,-0.83,9.94,-0.03,-0.01,-0.01,31.13
44925192,1795,1,189774,223438,0.09,-0.80,9.96,-0.03,-0.01,-0.00,31.13
44965192,1796,1,189884,223704,0.10,-0.82,9.95,-0.03,-0.01,-0.00,31.13
45005189,1791,1,190028,224217,0.09,-0.82,9.98,-0.03,-0.01,-0.01,31.13
45045192,1793,1,190157,223593,0.08,-0.84,9.96,-0.03,-0.01,-0.01,31.13
45085192,1791,1,189388,221197,0.09,-0.85,9.95,-0.03,-0.01,-0.01,31.13
45125192,1786,1,188719,219957,0.11,-0.82,9.93,-0.03,-0.01,-0.01,31.13
45165192,1792,1,188580,219737,0.09,-0.83,9.98,-0.03,-0.01,-0.00,31.13
45205192,1791,1,188574,219629,0.10,-0.82,9.93,-0.03,-0.01,-0.00,31.13
45245192,1805,1,188512,219652,0.08,-0.81,9.95,-0.03,-0.01,-0.00,31.13
45285192,1802,1,188646,220021,0.12,-0.82,9.94,-0.03,-0.01,-0.01,31.13
45325192,1808,1,188920,220607,0.08,-0.83,9.96,-0.03,-0.01,-0.01,31.13
45365192,1815,1,189075,220851,0.06,-0.83,9.96,-0.03,-0.01,-0.01,31.13
45405196,1811,1,189083,220949,0.08,-0.84,9.95,-0.03,-0.01,-0.00,31.13
45445192,1815,1,189185,221078,0.10,-0.82,9.99,-0.03,-0.01,-0.00,31.13
45485192,1819,1,189243,221315,0.11,-0.80,9.93,-0.03,-0.01,-0.01,31.13
45525885,1802,1,189462,221957,0.09,-0.81,9.92,-0.03,-0.01,-0.01,30.97
45564192,1853,1,189737,222579,0.09,-0.81,9.97,-0.04,-0.01,-0.00,30.97
45604240,1841,1,189991,223081,0.10,-0.82,9.97,-0.03,-0.01,-0.01,30.97
45644192,1843,1,190152,223380,0.12,-0.83,9.96,-0.03,-0.01,-0.01,30.97
45684192,1847,1,190220,223811,0.12,-0.82,9.93,-0.03,-0.01,-0.01,30.97
45724192,1857,1,190469,223731,0.10,-0.81,9.96,-0.04,-0.01,-0.01,30.97
45764192,1861,1,189836,221609,0.10,-0.81,9.95,-0.03,-0.01,-0.00,30.97
45804189,1846,1,189194,220469,0.08,-0.85,9.98,-0.03,-0.01,-0.00,30.97
45844191,1856,1,188942,220164,0.10,-0.83,9.97,-0.03,-0.01,-0.00,30.97
45884189,1857,1,188922,220166,0.07,-0.81,9.95,-0.03,-0.01,-0.01,30.97
45924192,1856,1,188990,220462,0.08,-0.82,9.96,-0.03,-0.01,-0.00,30.97
45964189,1861,1,189113,221131,0.08,-0.85,9.94,-0.03,-0.01,-0.00,30.97
46004192,1869,1,189318,221331,0.09,-0.85,9.95,-0.03,-0.01,-0.00,30.97
46044189,1866,1,189311,221474,0.10,-0.82,9.96,-0.03,-0.01,-0.01,30.97
46084192,1872,1,189408,221899,0.09,-0.83,9.95,-0.03,-0.01,-0.01,30.97
46124192,1874,1,189598,222449,0.10,-0.82,9.97,-0.03,-0.01,-0.01,30.97
46164191,1872,1,189760,222939,0.09,-0.82,9.94,-0.04,-0.01,-0.00,30.97
46204189,1872,1,189842,223176,0.09,-0.82,9.94,-0.03,-0.01,-0.00,30.97
46244192,1887,1,189935,223615,0.10,-0.80,9.96,-0.03,-0.01,-0.01,30.97
46284188,1885,1,190261,224433,0.07,-0.83,9.95,-0.03,-0.01,-0.01,30.97
46324192,1888,1,190454,225195,0.09,-0.82,9.95,-0.03,-0.01,-0.01,30.97
46364192,1883,1,190721,225600,0.07,-0.82,9.97,-0.03,-0.01,-0.00,30.97
46404192,1891,1,190609,223759,0.08,-0.82,9.97,-0.03,-0.01,-0.00,30.97
46444189,1904,1,189560,221860,0.09,-0.82,9.97,-0.03,-0.01,-0.01,30.97
46484192,1889,1,189175,221517,0.08,-0.84,9.96,-0.03,-0.01,-0.01,30.97
46524205,1897,1,189161,221441,0.08,-0.83,9.96,-0.03,-0.01,-0.01,30.97
46564878,1871,1,189154,221427,0.07,-0.84,9.95,-0.03,-0.01,-0.00,31.05
46605189,1875,1,189230,221831,0.07,-0.83,9.96,-0.03,-0.01,-0.01,31.05
46645192,1883,1,189521,222767,0.09,-0.82,9.95,-0.03,-0.01,-0.00,31.05
46685192,1884,1,189755,223180,0.08,-0.83,9.93,-0.03,-0.01,-0.01,31.05
46725192,1872,1,189880,223484,0.08,-0.83,9.95,-0.03,-0.01,-0.01,31.05
46765192,1871,1,189868,223736,0.08,-0.83,9.98,-0.03,-0.01,-0.01,31.05
46805192,1872,1,190112,224407,0.09,-0.82,9.93,-0.03,-0.01,-0.00,31.05
46845189,1862,1,190354,225141,0.07,-0.82,9.96,-0.04,-0.01,-0.01,31.05
46885192,1865,1,190589,225652,0.10,-0.82,9.97,-0.03,-0.01,-0.00,31.05
46925192,1862,1,190575,225924,0.10,-0.82,9.95,-0.03,-0.01,-0.00,31.05
46965192,1867,1,190875,226526,0.06,-0.79,9.97,-0.03,-0.01,-0.01,31.05
47005192,1850,1,191099,227341,0.09,-0.80,9.96,-0.03,-0.01,-0.01,31.05
47045195,1851,1,191284,227795,0.06,-0.84,9.96,-0.03,-0.01,-0.01,31.05
47085192,1840,1,191131,225712,0.07,-0.85,9.96,-0.03,-0.01,-0.00,31.05
47125192,1841,1,189922,223106,0.09,-0.83,9.96,-0.03,-0.01,-0.00,31.05
47165189,1839,1,189469,222513,0.09,-0.82,9.95,-0.03,-0.01,-0.01,31.05
47205192,1840,1,189397,222508,0.09,-0.83,9.94,-0.03,-0.01,-0.01,31.05
47245210,1840,1,189374,222658,0.08,-0.81,9.95,-0.03,-0.01,-0.01,31.05
47285192,1842,1,189498,223082,0.09,-0.81,9.92,-0.03,-0.01,-0.01,31.05
47325192,1831,1,189749,223892,0.08,-0.81,9.94,-0.03,-0.01,-0.01,31.05
47365192,1841,1,190002,224302,0.10,-0.83,9.97,-0.03,-0.01,-0.01,31.05
47405192,1839,1,190009,224384,0.08,-0.82,9.96,-0.03,-0.01,-0.01,31.05
47445220,1825,1,190109,224825,0.07,-0.81,9.95,-0.03,-0.01,-0.00,31.05
47485189,1824,1,190255,225178,0.10,-0.82,9.94,-0.03,-0.01,-0.01,31.05
47525199,1841,1,190363,225497,0.09,-0.82,9.95,-0.03,-0.01,-0.01,31.05
47565879,1822,1,190410,225765,0.08,-0.83,9.93,-0.03,-0.01,-0.00,31.01
47604192,1840,1,190465,226120,0.06,-0.84,9.97,-0.03,-0.01,-0.01,31.01
47644192,1844,1,190736,226688,0.07,-0.83,9.96,-0.03,-0.01,-0.01,31.01
47684192,1850,1,190910,227037,0.07,-0.82,9.96,-0.03,-0.01,-0.00,31.01
47724188,1850,1,191050,227538,0.06,-0.83,9.97,-0.03,-0.01,-0.00,31.01
47764191,1856,1,191116,226766,0.06,-0.82,9.96,-0.03,-0.01,-0.01,31.01
47804192,1850,1,190116,223608,0.09,-0.82,9.95,-0.03,-0.01,-0.00,31.01
47844192,1840,1,189425,222469,0.08,-0.81,9.96,-0.03,-0.01,-0.01,31.01
47884192,1849,1,189167,222282,0.09,-0.82,9.97,-0.03,-0.01,-0.01,31.01
47924192,1841,1,189283,222389,0.10,-0.82,9.96,-0.03,-0.01,-0.01,31.01
47964192,1842,1,189289,222532,0.10,-0.83,9.96,-0.03,-0.01,-0.00,31.01
48004192,1846,1,189473,223055,0.09,-0.81,9.95,-0.03,-0.01,-0.00,31.01
48044189,1839,1,189719,223503,0.10,-0.84,9.96,-0.03,-0.01,-0.00,31.01
48084192,1845,1,189807,223618,0.06,-0.84,9.95,-0.03,-0.01,-0.00,31.01
48124189,1850,1,189758,223655,0.11,-0.83,9.96,-0.03,-0.01,-0.00,31.01
48164192,1866,1,189784,223849,0.08,-0.83,9.97,-0.03,-0.01,-0.00,31.01
48204189,1851,1,189937,224199,0.10,-0.83,9.94,-0.03,-0.01,-0.01,31.01
48244192,1850,1,189946,224414,0.11,-0.82,9.96,-0.03,-0.01,-0.01,31.01
48284192,1851,1,190069,224673,0.10,-0.85,9.97,-0.03,-0.01,-0.00,31.01
48324192,1844,1,190301,225221,0.07,-0.82,9.95,-0.03,-0.01,-0.00,31.01
48364189,1859,1,190493,225684,0.11,-0.84,9.94,-0.03,-0.01,-0.01,31.01
48404192,1857,1,190617,225985,0.10,-0.80,9.96,-0.03,-0.01,-0.01,31.01
48444189,1846,1,190654,225244,0.11,-0.82,9.96,-0.03,-0.01,-0.00,31.01
48484192,1843,1,189886,222750,0.10,-0.83,9.95,-0.03,-0.01,-0.01,31.01
48524197,1860,1,189268,221745,0.07,-0.82,9.93,-0.03,-0.01,-0.00,31.01
48564192,1853,1,189061,221517,0.10,-0.84,9.96,-0.03,-0.01,-0.00,31.01
48604876,1836,1,189150,221540,0.10,-0.82,9.98,-0.03,-0.01,-0.01,31.01
48645192,1842,1,189176,221740,0.11,-0.82,9.96,-0.03,-0.01,-0.01,31.01
48685192,1830,1,189402,222581,0.12,-0.82,9.94,-0.03,-0.01,-0.01,31.01
48725192,1845,1,189558,222924,0.10,-0.82,9.95,-0.03,-0.01,-0.00,31.01
48765189,1836,1,189653,223100,0.09,-0.81,9.95,-0.03,-0.01,-0.01,31.01
48805192,1841,1,189770,223500,0.09,-0.83,9.95,-0.03,-0.01,-0.01,31.01
48845192,1846,1,189861,223893,0.10,-0.82,9.95,-0.03,-0.01,-0.01,31.01
48885217,1845,1,190019,224245,0.10,-0.82,9.98,-0.03,-0.01,-0.01,31.01
48925192,1840,1,190172,224745,0.10,-0.83,9.96,-0.03,-0.01,-0.01,31.01
48965192,1842,1,190369,225324,0.08,-0.81,9.96,-0.03,-0.01,-0.01,31.01
49005192,1849,1,190545,225695,0.09,-0.82,9.96,-0.03,-0.01,-0.00,31.01
49045192,1840,1,190646,226173,0.09,-0.82,9.94,-0.03,-0.01,-0.01,31.01
49085223,1838,1,190862,226528,0.09,-0.82,9.93,-0.03,-0.01,-0.01,31.01
49125192,1840,1,190548,224211,0.08,-0.82,9.93,-0.03,-0.01,-0.01,31.01
49165192,1833,1,189642,222483,0.09,-0.83,9.93,-0.03,-0.01,-0.01,31.01
49205192,1841,1,189190,221986,0.10,-0.81,9.95,-0.03,-0.01,-0.01,31.01
49245192,1840,1,189192,222023,0.09,-0.84,9.97,-0.03,-0.01,-0.01,31.01
49285192,1839,1,189238,222195,0.10,-0.82,9.94,-0.03,-0.01,-0.01,31.01
49325192,1835,1,189354,222683,0.10,-0.85,9.92,-0.03,-0.01,-0.00,31.01
49365192,1833,1,189636,223544,0.11,-0.82,9.94,-0.03,-0.01,-0.01,31.01
49405192,1840,1,189812,223840,0.08,-0.83,9.93,-0.03,-0.01,-0.01,31.01
49445192,1840,1,189887,224029,0.08,-0.82,9.97,-0.03,-0.01,-0.01,31.01
49485192,1842,1,189963,224243,0.08,-0.82,9.96,-0.03,-0.01,-0.01,31.01
49525199,1850,1,190012,224633,0.09,-0.83,9.96,-0.03,-0.01,-0.01,31.01
49565192,1847,1,190218,225122,0.09,-0.82,9.95,-0.03,-0.01,-0.01,31.01
49605879,1842,1,190366,225481,0.09,-0.82,9.97,-0.03,-0.01,-0.01,30.97
49644191,1856,1,190522,225988,0.07,-0.82,9.97,-0.03,-0.01,-0.00,30.97
49684192,1856,1,190639,226460,0.09,-0.83,9.96,-0.03,-0.01,-0.00,30.97
49724189,1851,1,190895,227011,0.08,-0.82,9.96,-0.03,-0.01,-0.01,30.97
49764192,1846,1,190920,226116,0.07,-0.82,9.95,-0.03,-0.01,-0.00,30.97
49804189,1850,1,189974,223051,0.08,-0.83,9.96,-0.03,-0.01,-0.01,30.97
49844192,1856,1,189285,221989,0.09,-0.81,9.93,-0.03,-0.01,-0.00,30.97
49884189,1859,1,189097,221636,0.09,-0.81,9.97,-0.03,-0.01,-0.00,30.97
49924192,1859,1,188999,221601,0.09,-0.83,9.95,-0.03,-0.01,-0.01,30.97
49964191,1853,1,189019,221898,0.08,-0.80,9.94,-0.03,-0.01,-0.00,30.97
50004192,1859,1,189257,222585,0.10,-0.83,9.95,-0.03,-0.01,-0.00,30.97
50044189,1857,1,189483,223036,0.08,-0.81,9.96,-0.03,-0.01,-0.01,30.97
50084192,1851,1,189531,223024,0.08,-0.81,9.97,-0.03,-0.01,-0.00,30.97
50124189,1843,1,189644,223254,0.08,-0.82,9.94,-0.03,-0.01,-0.00,30.97
50164192,1844,1,189729,223583,0.10,-0.80,9.94,-0.03,-0.01,-0.01,30.97
50204189,1858,1,189828,224010,0.08,-0.83,9.92,-0.03,-0.01,-0.00,30.97
50244192,1856,1,189993,224304,0.08,-0.83,9.95,-0.03,-0.01,-0.00,30.97
50284189,1851,1,190063,224667,0.07,-0.81,9.95,-0.03,-0.01,-0.01,30.97
50324192,1856,1,190283,225331,0.09,-0.83,9.94,-0.03,-0.01,-0.01,30.97
50364192,1851,1,190461,225926,0.09,-0.83,9.96,-0.03,-0.01,-0.00,30.97
50404192,1857,1,190684,226233,0.09,-0.82,9.96,-0.03,-0.01,-0.01,30.97
50444192,1841,1,190493,224239,0.11,-0.83,9.98,-0.03,-0.01,-0.01,30.97
50484192,1840,1,189445,222171,0.07,-0.80,9.94,-0.03,-0.01,-0.01,30.97
50524257,1854,1,188960,221634,0.07,-0.81,9.95,-0.03,-0.01,-0.01,30.97
50564192,1847,1,188975,221496,0.08,-0.84,9.97,-0.03,-0.01,-0.00,30.97
50604189,1849,1,188902,221424,0.10,-0.83,9.99,-0.03,-0.01,-0.00,30.97
50644878,1846,1,188920,221707,0.07,-0.83,9.96,-0.03,-0.01,-0.01,30.93
50685192,1842,1,189189,222402,0.10,-0.82,9.95,-0.03,-0.01,-0.01,30.93
50725210,1840,1,189306,222604,0.09,-0.82,9.96,-0.03,-0.01,-0.01,30.93
50765191,1845,1,189461,222712,0.09,-0.81,9.97,-0.03,-0.01,-0.00,30.93
50805192,1842,1,189479,222936,0.08,-0.83,9.96,-0.03,-0.01,-0.00,30.93
50845189,1849,1,189573,223293,0.09,-0.83,9.97,-0.03,-0.01,-0.01,30.93
50885192,1842,1,189656,223714,0.09,-0.81,9.97,-0.03,-0.01,-0.01,30.93
50925192,1831,1,189807,224017,0.08,-0.83,9.96,-0.03,-0.01,-0.00,30.93
50965192,1840,1,189934,224212,0.08,-0.83,9.95,-0.03,-0.01,-0.01,30.93
51005192,1846,1,190032,224642,0.08,-0.83,9.97,-0.03,-0.01,-0.01,30.93
51045191,1844,1,190223,225078,0.10,-0.81,9.96,-0.03,-0.01,-0.01,30.93
51085192,1841,1,190372,225224,0.08,-0.81,9.96,-0.03,-0.01,-0.00,30.93
51125192,1840,1,190061,223013,0.07,-0.81,9.93,-0.03,-0.01,-0.01,30.93
51165192,1840,1,189014,221103,0.09,-0.80,9.95,-0.03,-0.01,-0.01,30.93
51205192,1840,1,188694,220445,0.09,-0.83,9.95,-0.03,-0.01,-0.01,30.93
51245192,1847,1,188611,220298,0.11,-0.81,9.93,-0.03,-0.01,-0.00,30.93
51285192,1846,1,188592,220396,0.10,-0.81,9.97,-0.03,-0.01,-0.01,30.93
51325192,1846,1,188683,220768,0.09,-0.79,9.94,-0.03,-0.01,-0.01,30.93
51365192,1851,1,188961,221371,0.10,-0.83,9.96,-0.03,-0.01,-0.00,30.93
51405189,1840,1,189065,221552,0.11,-0.81,9.96,-0.03,-0.01,-0.01,30.93
51445192,1852,1,189073,221542,0.11,-0.81,9.95,-0.03,-0.01,-0.01,30.93
51485192,1842,1,189067,221723,0.09,-0.83,9.96,-0.03,-0.01,-0.01,30.93
51525199,1854,1,189116,221908,0.08,-0.82,9.96,-0.03,-0.01,-0.01,30.93
51565192,1845,1,189171,222215,0.12,-0.81,9.92,-0.03,-0.01,-0.01,30.93
51605192,1840,1,189322,222520,0.08,-0.81,9.96,-0.03,-0.01,-0.00,30.93
51645875,1841,1,189487,222935,0.11,-0.83,9.94,-0.04,-0.01,-0.01,30.99
51684192,1851,1,189608,223475,0.08,-0.83,9.98,-0.03,-0.01,-0.01,30.99
51724192,1855,1,189842,224071,0.09,-0.81,9.95,-0.03,-0.01,-0.01,30.99
51764192,1855,1,190036,223843,0.09,-0.82,9.96,-0.03,-0.01,-0.01,30.99
51804192,1858,1,189347,221539,0.08,-0.83,9.96,-0.03,-0.01,-0.00,30.99
51844192,1861,1,188717,220514,0.07,-0.81,9.95,-0.03,-0.01,-0.01,30.99
51884192,1861,1,188573,220327,0.09,-0.80,9.96,-0.03,-0.01,-0.01,30.99
51924192,1856,1,188546,220171,0.11,-0.81,9.92,-0.03,-0.01,-0.00,30.99
51964191,1856,1,188607,220375,0.09,-0.83,9.96,-0.03,-0.01,-0.01,30.99
52004191,1851,1,188767,221165,0.06,-0.84,9.92,-0.03,-0.01,-0.01,30.99
52044192,1850,1,189063,221687,0.07,-0.82,9.95,-0.03,-0.01,-0.00,30.99
52084192,1856,1,189142,221887,0.09,-0.84,9.95,-0.03,-0.01,-0.01,30.99
52124192,1855,1,189136,222259,0.10,-0.81,9.96,-0.03,-0.01,-0.01,30.99
52164199,1854,1,189334,222811,0.08,-0.82,9.95,-0.03,-0.01,-0.01,30.99
52204191,1853,1,189541,223450,0.09,-0.82,9.98,-0.03,-0.01,-0.01,30.99
52244192,1840,1,189681,223835,0.09,-0.82,9.95,-0.03,-0.01,-0.01,30.99
52284192,1843,1,189869,224141,0.09,-0.83,9.96,-0.03,-0.01,-0.01,30.99
52324191,1846,1,190012,224713,0.08,-0.83,9.97,-0.03,-0.01,-0.00,30.99
52364221,1844,1,190229,225329,0.07,-0.82,9.96,-0.03,-0.01,-0.01,30.99
52404192,1841,1,190424,225442,0.06,-0.83,9.96,-0.03,-0.01,-0.01,30.99
52444192,1852,1,189907,223057,0.08,-0.82,9.96,-0.03,-0.01,-0.01,30.99
52484192,1847,1,189068,221392,0.08,-0.80,9.95,-0.03,-0.01,-0.01,30.99
52524195,1847,1,188771,220954,0.09,-0.83,9.93,-0.03,-0.01,-0.00,30.99
52564217,1840,1,188600,220897,0.07,-0.83,9.94,-0.03,-0.01,-0.01,30.99
52604192,1855,1,188709,220810,0.10,-0.83,9.94,-0.03,-0.01,-0.00,30.99
52644192,1851,1,188691,221405,0.10,-0.82,9.94,-0.03,-0.01,-0.01,30.99
52684879,1840,1,189024,222102,0.07,-0.82,9.95,-0.03,-0.01,-0.01,30.99
52725192,1845,1,189195,222152,0.07,-0.84,9.99,-0.03,-0.01,-0.00,30.99
52765189,1845,1,189173,222245,0.08,-0.83,9.96,-0.03,-0.01,-0.01,30.99
52805192,1854,1,189209,222649,0.06,-0.82,9.97,-0.03,-0.01,-0.00,30.99
52845189,1847,1,189356,223060,0.09,-0.82,9.96,-0.03,-0.01,-0.00,30.99
52885192,1855,1,189478,223365,0.09,-0.81,9.94,-0.03,-0.01,-0.00,30.99
52925189,1840,1,189544,223590,0.09,-0.82,9.95,-0.03,-0.01,-0.00,30.99
52965192,1857,1,189679,223934,0.09,-0.82,9.96,-0.03,-0.01,-0.01,30.99
53004192,1858,1,189786,224457,0.09,-0.82,9.95,-0.03,-0.01,-0.00,30.99
53044192,1865,1,189965,224834,0.09,-0.83,9.96,-0.03,-0.01,-0.01,30.99
53084192,1869,1,190017,224296,0.07,-0.81,9.96,-0.03,-0.01,-0.01,30.99
53124192,1856,1,189254,221746,0.07,-0.80,9.94,-0.03,-0.01,-0.01,30.99
53164189,1853,1,188558,220548,0.09,-0.82,9.98,-0.03,-0.01,-0.01,30.99
53204192,1855,1,188362,220162,0.09,-0.82,9.94,-0.03,-0.01,-0.01,30.99
53244192,1855,1,188288,220048,0.09,-0.81,9.95,-0.03,-0.01,-0.01,30.99
53284192,1854,1,188285,220117,0.08,-0.83,9.97,-0.03,-0.01,-0.00,30.99
53324189,1843,1,188312,220657,0.10,-0.81,9.96,-0.03,-0.01,-0.01,30.99
53364192,1856,1,188594,220939,0.08,-0.84,9.95,-0.03,-0.01,-0.00,30.99
53404189,1860,1,188537,221053,0.08,-0.82,9.92,-0.03,-0.01,-0.00,30.99
53444192,1849,1,188664,221300,0.08,-0.79,9.97,-0.03,-0.01,-0.01,30.99
53484189,1855,1,188684,221510,0.10,-0.80,9.95,-0.03,-0.01,-0.01,30.99
53524205,1865,1,188729,221723,0.09,-0.81,9.96,-0.03,-0.01,-0.01,30.99
53564192,1857,1,188808,221949,0.08,-0.83,9.94,-0.03,-0.01,-0.00,30.99
53604192,1843,1,188963,222368,0.08,-0.81,9.97,-0.03,-0.01,-0.00,30.99
53644189,1845,1,189097,222922,0.08,-0.82,9.97,-0.03,-0.01,-0.01,30.99
53684192,1852,1,189314,223328,0.08,-0.82,9.96,-0.03,-0.01,-0.00,30.99
53724875,1836,1,189469,223613,0.07,-0.83,9.96,-0.04,-0.01,-0.00,30.85
53765192,1840,1,189453,223326,0.09,-0.82,9.96,-0.03,-0.01,-0.00,30.85
53805189,1845,1,188845,221082,0.08,-0.84,9.95,-0.03,-0.01,-0.00,30.85
53845192,1840,1,188253,219855,0.09,-0.83,9.96,-0.03,-0.01,-0.01,30.85
53885192,1840,1,188014,219460,0.09,-0.82,9.96,-0.03,-0.01,-0.01,30.85
53925192,1842,1,187973,219221,0.08,-0.83,9.97,-0.03,-0.01,-0.00,30.85
53965189,1839,1,187841,219299,0.08,-0.84,9.96,-0.03,-0.01,-0.01,30.85
54004192,1840,1,188046,219841,0.10,-0.79,9.92,-0.03,-0.01,-0.01,30.85
54044192,1840,1,188320,220364,0.07,-0.83,9.96,-0.03,-0.01,-0.01,30.85
54084192,1841,1,188409,220463,0.08,-0.82,9.95,-0.03,-0.01,-0.00,30.85
54124188,1839,1,188434,220555,0.05,-0.82,9.96,-0.03,-0.01,-0.00,30.85
54164192,1840,1,188502,220696,0.09,-0.81,9.95,-0.03,-0.01,-0.00,30.85
54204192,1849,1,188565,221047,0.09,-0.81,9.95,-0.03,-0.01,-0.00,30.85
54244192,1844,1,188737,221416,0.11,-0.82,9.96,-0.03,-0.01,-0.01,30.85
54284192,1833,1,188857,221818,0.07,-0.82,9.94,-0.03,-0.01,-0.01,30.85
54324191,1845,1,188988,222313,0.10,-0.82,9.94,-0.03,-0.01,-0.01,30.85
54364192,1841,1,189237,222612,0.10,-0.83,9.96,-0.03,-0.01,-0.00,30.85
54404192,1845,1,189403,223015,0.08,-0.83,9.97,-0.03,-0.01,-0.00,30.85
54444192,1849,1,189428,222844,0.09,-0.82,9.93,-0.03,-0.01,-0.00,30.85
54484192,1845,1,188873,220787,0.09,-0.83,9.99,-0.03,-0.01,-0.00,30.85
54524201,1843,1,188270,219570,0.08,-0.82,9.97,-0.03,-0.01,-0.01,30.85
54564192,1856,1,188103,219249,0.09,-0.84,9.94,-0.03,-0.01,-0.01,30.85
54604191,1840,1,187956,219247,0.09,-0.81,9.96,-0.03,-0.01,-0.00,30.85
54644192,1846,1,188062,219300,0.10,-0.84,9.94,-0.03,-0.01,-0.01,30.85
54684192,1850,1,188101,220130,0.08,-0.83,9.96,-0.03,-0.01,-0.00,30.85
54724878,1840,1,188403,220589,0.09,-0.82,9.95,-0.03,-0.01,-0.01,30.97
54765192,1840,1,188443,220775,0.11,-0.80,9.93,-0.03,-0.01,-0.01,30.97
54805192,1841,1,188536,220999,0.09,-0.83,9.95,-0.03,-0.01,-0.01,30.97
54845192,1842,1,188674,221256,0.09,-0.81,9.94,-0.03,-0.01,-0.00,30.97
54885192,1840,1,188796,221732,0.09,-0.82,9.97,-0.03,-0.01,-0.01,30.97
54925191,1833,1,188932,221961,0.09,-0.82,9.96,-0.03,-0.01,-0.00,30.97
54965192,1854,1,188974,222546,0.11,-0.84,9.98,-0.03,-0.01,-0.00,30.97
55005192,1841,1,189282,222863,0.09,-0.82,9.94,-0.03,-0.01,-0.01,30.97
55045192,1852,1,189348,223423,0.08,-0.82,9.92,-0.03,-0.01,-0.00,30.97
55085189,1844,1,189515,223802,0.08,-0.82,9.94,-0.03,-0.01,-0.01,30.97
55125192,1842,1,189319,221869,0.08,-0.81,9.97,-0.03,-0.01,-0.01,30.97
55165192,1842,1,188421,220246,0.09,-0.81,9.96,-0.03,-0.01,-0.01,30.97
55205191,1845,1,188088,219837,0.09,-0.85,9.94,-0.03,-0.01,-0.00,30.97
55245189,1840,1,188062,219790,0.09,-0.80,9.95,-0.03,-0.01,-0.01,30.97
55285192,1840,1,188114,219766,0.10,-0.83,9.94,-0.03,-0.01,-0.00,30.97
55325189,1850,1,188135,220230,0.09,-0.83,9.98,-0.03,-0.01,-0.01,30.97
55365192,1849,1,188389,221034,0.09,-0.83,9.97,-0.03,-0.01,-0.01,30.97
55405192,1840,1,188566,221346,0.07,-0.82,9.93,-0.03,-0.01,-0.01,30.97
55445192,1840,1,188629,221474,0.10,-0.80,9.96,-0.03,-0.01,-0.00,30.97
55485188,1841,1,188685,221865,0.07,-0.83,9.93,-0.03,-0.01,-0.01,30.97
55525199,1847,1,188952,222288,0.07,-0.83,9.96,-0.03,-0.01,-0.01,30.97
55565191,1850,1,189024,222916,0.08,-0.85,9.95,-0.03,-0.01,-0.01,30.97
55605191,1840,1,189300,223187,0.09,-0.81,9.95,-0.03,-0.01,-0.00,30.97
55643195,1882,1,189374,223682,0.09,-0.80,9.93,-0.03,-0.01,-0.01,30.97
55683192,1875,1,189550,224166,0.07,-0.82,9.96,-0.03,-0.01,-0.00,30.97
55723189,1879,1,189744,224739,0.10,-0.82,9.95,-0.03,-0.01,-0.00,30.97
55763878,1846,1,190032,225027,0.08,-0.83,9.95,-0.03,-0.01,-0.01,31.05
55804192,1842,1,189575,222536,0.09,-0.85,9.96,-0.03,-0.01,-0.01,31.05
55844226,1843,1,188650,220683,0.08,-0.83,9.96,-0.03,-0.01,-0.01,31.05
55884192,1840,1,188222,220323,0.08,-0.83,9.94,-0.03,-0.01,-0.01,31.05
55924192,1842,1,188191,220197,0.08,-0.83,9.96,-0.03,-0.01,-0.01,31.05
55964192,1843,1,188215,220034,0.10,-0.82,9.97,-0.03,-0.01,-0.01,31.05
56004192,1835,1,188155,220300,0.08,-0.81,9.94,-0.03,-0.01,-0.00,31.05
56044189,1838,1,188368,221186,0.10,-0.81,9.94,-0.03,-0.01,-0.01,31.05
56084192,1840,1,188680,221335,0.10,-0.84,9.96,-0.03,-0.01,-0.01,31.05
56124191,1837,1,188582,221562,0.10,-0.82,9.97,-0.03,-0.01,-0.01,31.05
56164192,1841,1,188746,221638,0.08,-0.84,9.95,-0.03,-0.01,-0.01,31.05
56204192,1840,1,188786,221960,0.07,-0.83,9.95,-0.03,-0.01,-0.01,31.05
56244192,1846,1,188874,222451,0.09,-0.82,9.94,-0.03,-0.01,-0.01,31.05
56284192,1850,1,189076,222826,0.09,-0.83,9.97,-0.03,-0.01,-0.00,31.05
56324192,1834,1,189239,223087,0.08,-0.82,9.94,-0.03,-0.01,-0.00,31.05
56364192,1845,1,189390,223410,0.06,-0.83,9.98,-0.03,-0.01,-0.00,31.05
56404192,1846,1,189473,223958,0.09,-0.83,9.94,-0.03,-0.01,-0.00,31.05
56444192,1850,1,189674,224302,0.08,-0.82,9.98,-0.03,-0.01,-0.01,31.05
56484192,1843,1,189651,223852,0.09,-0.82,9.94,-0.03,-0.01,-0.01,31.05
56524198,1839,1,188961,221267,0.08,-0.82,9.96,-0.03,-0.01,-0.01,31.05
56564192,1840,1,188314,219917,0.08,-0.82,9.96,-0.04,-0.02,-0.00,31.05
56604192,1849,1,187999,219686,0.09,-0.83,9.96,-0.03,-0.02,-0.00,31.05
56644192,1841,1,187974,219592,0.11,-0.82,9.95,-0.03,-0.02,-0.00,31.05
56684192,1844,1,187981,219825,0.09,-0.82,9.95,-0.03,-0.01,-0.00,31.05
56724192,1850,1,188173,220297,0.09,-0.82,9.96,-0.03,-0.01,-0.01,31.05
56764878,1835,1,188334,220825,0.09,-0.83,9.96,-0.03,-0.01,-0.01,31.07
56803192,1872,1,188519,220829,0.08,-0.83,9.96,-0.03,-0.01,-0.01,31.07
56843192,1863,1,188485,221290,0.09,-0.81,9.96,-0.03,-0.01,-0.01,31.07
56883191,1857,1,188729,221694,0.09,-0.82,9.92,-0.03,-0.01,-0.00,31.07
56923189,1871,1,188790,222100,0.07,-0.82,9.95,-0.03,-0.01,-0.00,31.07
56963192,1863,1,188951,222383,0.11,-0.82,9.95,-0.03,-0.01,-0.01,31.07
57003192,1872,1,189062,222813,0.10,-0.82,9.95,-0.03,-0.01,-0.01,31.07
57043192,1866,1,189211,223259,0.10,-0.82,9.95,-0.03,-0.01,-0.00,31.07
57084189,1846,1,189416,223947,0.09,-0.82,9.97,-0.03,-0.01,-0.01,31.07
57124192,1840,1,189668,224238,0.09,-0.82,9.96,-0.03,-0.01,-0.01,31.07
57164192,1837,1,189758,224820,0.09,-0.83,9.97,-0.03,-0.01,-0.00,31.07
57204191,1840,1,189917,223737,0.10,-0.83,9.97,-0.03,-0.01,-0.00,31.07
57244192,1839,1,188867,221122,0.10,-0.81,9.96,-0.03,-0.01,-0.00,31.07
57284214,1840,1,188317,220141,0.10,-0.84,9.95,-0.03,-0.01,-0.01,31.07
57324192,1835,1,188134,220040,0.09,-0.85,9.96,-0.03,-0.01,-0.00,31.07
57364192,1833,1,188208,219907,0.09,-0.83,9.96,-0.03,-0.01,-0.00,31.07
57404192,1844,1,188190,220148,0.09,-0.82,9.95,-0.03,-0.01,-0.00,31.07
57444192,1843,1,188334,220651,0.11,-0.83,9.97,-0.03,-0.01,-0.00,31.07
57484225,1843,1,188501,221088,0.10,-0.82,9.96,-0.03,-0.01,-0.00,31.07
57524198,1851,1,188765,221121,0.10,-0.82,9.96,-0.03,-0.01,-0.01,31.07
57564192,1836,1,188759,221369,0.08,-0.82,9.96,-0.03,-0.01,-0.01,31.07
57604192,1843,1,188819,221708,0.11,-0.83,9.96,-0.03,-0.01,-0.01,31.07
57644192,1840,1,188992,221950,0.11,-0.81,9.96,-0.03,-0.01,-0.01,31.07
57684222,1835,1,189117,222388,0.10,-0.85,9.97,-0.03,-0.01,-0.00,31.07
57724189,1852,1,189360,222748,0.09,-0.83,9.96,-0.03,-0.01,-0.01,31.07
57764191,1847,1,189371,223142,0.09,-0.82,9.95,-0.03,-0.01,-0.01,31.07
57804879,1846,1,189684,223500,0.09,-0.81,9.94,-0.03,-0.01,-0.00,30.93
57843192,1871,1,189741,223869,0.09,-0.81,9.96,-0.03,-0.01,-0.01,30.93
57883192,1878,1,189752,222784,0.09,-0.83,9.96,-0.03,-0.01,-0.01,30.93
57923191,1871,1,188984,220528,0.10,-0.84,9.96,-0.03,-0.01,-0.01,30.93
57963192,1879,1,188397,219810,0.09,-0.84,9.96,-0.03,-0.01,-0.00,30.93
58003192,1872,1,188331,219515,0.10,-0.82,9.95,-0.03,-0.01,-0.00,30.93
58043189,1867,1,188247,219485,0.12,-0.80,9.96,-0.03,-0.01,-0.01,30.93
58083192,1872,1,188201,219714,0.09,-0.82,9.96,-0.03,-0.01,-0.01,30.93
58123192,1856,1,188325,220431,0.09,-0.83,9.95,-0.03,-0.01,-0.00,30.93
58163192,1863,1,188614,220620,0.11,-0.84,9.96,-0.03,-0.01,-0.00,30.93
58203191,1869,1,188559,220805,0.10,-0.82,9.97,-0.03,-0.01,-0.00,30.93
58243192,1866,1,188610,220746,0.11,-0.83,9.95,-0.03,-0.01,-0.01,30.93
58283192,1856,1,188527,221088,0.10,-0.81,9.92,-0.03,-0.01,-0.00,30.93
58323192,1861,1,188738,221533,0.11,-0.82,9.95,-0.03,-0.01,-0.01,30.93
58363192,1862,1,188966,221887,0.08,-0.81,9.96,-0.03,-0.01,-0.00,30.93
58403192,1869,1,189062,222174,0.08,-0.82,9.91,-0.03,-0.01,-0.01,30.93
58443192,1872,1,189189,222846,0.11,-0.82,9.95,-0.04,-0.01,-0.00,30.93
58483192,1872,1,189537,223476,0.09,-0.83,9.94,-0.03,-0.01,-0.00,30.93
58523189,1872,1,189693,223977,0.11,-0.84,9.97,-0.03,-0.01,-0.01,30.93
58563191,1872,1,189512,221860,0.09,-0.82,9.98,-0.03,-0.01,-0.01,30.93
58603192,1868,1,188631,220157,0.09,-0.82,9.98,-0.03,-0.01,-0.00,30.93
58643192,1865,1,188213,219665,0.08,-0.82,9.94,-0.03,-0.01,-0.01,30.93
58683192,1863,1,188103,219706,0.09,-0.82,9.97,-0.03,-0.01,-0.00,30.93
58723191,1874,1,188172,219601,0.10,-0.84,9.99,-0.03,-0.01,-0.01,30.93
58763192,1870,1,188187,219977,0.11,-0.82,9.95,-0.03,-0.01,-0.00,30.93
58803192,1871,1,188312,220661,0.10,-0.81,9.97,-0.03,-0.01,-0.01,30.93
58843878,1840,1,188483,220782,0.11,-0.82,9.92,-0.03,-0.01,-0.00,30.91
58884192,1858,1,188508,220829,0.08,-0.83,9.97,-0.03,-0.01,-0.00,30.91
58924189,1842,1,188632,221193,0.10,-0.84,9.95,-0.03,-0.01,-0.01,30.91
58964192,1847,1,188761,221694,0.08,-0.80,9.93,-0.03,-0.01,-0.01,30.91
59004189,1840,1,188997,222261,0.09,-0.80,9.97,-0.03,-0.01,-0.01,30.91
59044192,1854,1,189027,222456,0.09,-0.82,9.94,-0.03,-0.01,-0.00,30.91
59084189,1847,1,189097,222909,0.08,-0.81,9.96,-0.03,-0.01,-0.01,30.91
59124192,1850,1,189361,223185,0.08,-0.81,9.97,-0.03,-0.01,-0.00,30.91
59164192,1845,1,189410,223510,0.10,-0.83,9.94,-0.03,-0.01,-0.01,30.91
59204192,1838,1,189522,223737,0.08,-0.81,9.97,-0.03,-0.01,-0.01,30.91
59244192,1851,1,189392,221882,0.10,-0.81,9.95,-0.03,-0.01,-0.00,30.91
59284191,1839,1,188411,220055,0.09,-0.82,9.95,-0.03,-0.01,-0.01,30.91
59324192,1845,1,187984,219539,0.09,-0.83,9.95,-0.03,-0.01,-0.00,30.91
59364191,1854,1,187966,219255,0.09,-0.82,9.94,-0.03,-0.01,-0.00,30.91
59404191,1847,1,187884,219092,0.11,-0.81,9.95,-0.03,-0.01,-0.00,30.91
59444192,1840,1,187753,219395,0.09,-0.84,9.95,-0.03,-0.01,-0.01,30.91
59484192,1840,1,188035,219838,0.08,-0.81,9.97,-0.03,-0.01,-0.00,30.91
59524198,1846,1,188121,219960,0.09,-0.83,9.94,-0.03,-0.01,-0.01,30.91
59564192,1831,1,188032,220165,0.09,-0.81,9.95,-0.03,-0.01,-0.01,30.91
59604191,1850,1,188207,220309,0.10,-0.82,9.95,-0.03,-0.01,-0.01,30.91
59644192,1845,1,188307,220522,0.08,-0.83,9.96,-0.03,-0.01,-0.00,30.91
59684192,1847,1,188407,220823,0.08,-0.82,9.95,-0.03,-0.01,-0.01,30.91
59724192,1845,1,188540,221217,0.08,-0.81,9.93,-0.03,-0.01,-0.01,30.91
59764192,1835,1,188613,221535,0.09,-0.82,9.95,-0.03,-0.01,-0.00,30.91
59804192,1840,1,188707,222023,0.08,-0.82,9.94,-0.03,-0.01,-0.01,30.91
59844878,1839,1,188845,222313,0.10,-0.84,9.95,-0.03,-0.01,-0.00,30.87
59883189,1863,1,188983,222570,0.10,-0.81,9.93,-0.03,-0.01,-0.01,30.87
59923192,1872,1,189148,222386,0.08,-0.82,9.97,-0.03,-0.01,-0.01,30.87
59963191,1869,1,188536,220136,0.09,-0.81,9.94,-0.03,-0.01,-0.00,30.87
60003192,1872,1,187902,218854,0.10,-0.82,9.95,-0.03,-0.01,-0.01,30.87
60043192,1862,1,187592,218587,0.08,-0.83,9.96,-0.03,-0.01,-0.01,30.87
60083192,1869,1,187554,218435,0.10,-0.82,9.95,-0.03,-0.01,-0.00,30.87
60123188,1857,1,187593,218349,0.09,-0.82,9.96,-0.03,-0.01,-0.01,30.87
60163192,1871,1,187594,218789,0.09,-0.83,9.94,-0.03,-0.01,-0.00,30.87
60203189,1870,1,187798,219244,0.08,-0.83,9.96,-0.03,-0.01,-0.00,30.87
60243192,1873,1,187835,219446,0.10,-0.80,9.95,-0.03,-0.01,-0.01,30.87
60283189,1863,1,187970,219478,0.11,-0.80,9.95,-0.03,-0.01,-0.00,30.87
60323192,1856,1,188014,219641,0.10,-0.83,9.99,-0.03,-0.01,-0.01,30.87
60363192,1856,1,188098,220020,0.09,-0.81,9.93,-0.03,-0.01,-0.00,30.87
60403192,1865,1,188293,220225,0.09,-0.80,9.93,-0.03,-0.01,-0.01,30.87
60443189,1856,1,188314,220445,0.11,-0.82,9.93,-0.03,-0.01,-0.01,30.87
60483192,1879,1,188357,220662,0.09,-0.83,9.96,-0.03,-0.01,-0.01,30.87
60523195,1873,1,188511,221065,0.08,-0.85,9.99,-0.03,-0.01,-0.01,30.87
60563192,1871,1,188645,221474,0.10,-0.82,9.95,-0.03,-0.01,-0.00,30.87
60603189,1878,1,188839,221550,0.07,-0.81,9.97,-0.04,-0.01,-0.01,30.87
60643192,1878,1,188463,219704,0.08,-0.82,9.97,-0.03,-0.01,-0.00,30.87
60683189,1869,1,187744,218060,0.11,-0.82,9.96,-0.03,-0.01,-0.00,30.87
60723192,1873,1,187411,217432,0.10,-0.83,9.95,-0.03,-0.01,-0.01,30.87
60763210,1873,1,187212,217336,0.09,-0.83,9.93,-0.03,-0.01,-0.00,30.87
60803192,1872,1,187159,217436,0.08,-0.82,9.98,-0.03,-0.01,-0.00,30.87
60843189,1875,1,187367,217876,0.09,-0.83,9.94,-0.03,-0.01,-0.01,30.87
60883878,1855,1,187494,218564,0.10,-0.83,9.94,-0.03,-0.01,-0.01,30.93
60924192,1859,1,187690,218922,0.10,-0.83,9.94,-0.03,-0.01,-0.01,30.93
60964240,1843,1,187820,219032,0.10,-0.80,9.96,-0.03,-0.01,-0.01,30.93
61004189,1847,1,187872,219472,0.10,-0.81,9.97,-0.03,-0.01,-0.00,30.93
61044192,1846,1,188032,220022,0.09,-0.82,9.95,-0.03,-0.01,-0.01,30.93
61084192,1845,1,188286,220484,0.09,-0.84,9.96,-0.03,-0.01,-0.01,30.93
61124191,1846,1,188499,220948,0.07,-0.82,9.97,-0.03,-0.01,-0.00,30.93
61164191,1844,1,188627,221506,0.10,-0.83,9.95,-0.03,-0.01,-0.01,30.93
61204192,1840,1,188871,222074,0.07,-0.81,9.93,-0.03,-0.01,-0.01,30.93
61244191,1841,1,189054,222651,0.10,-0.83,9.97,-0.03,-0.01,-0.01,30.93
61284192,1847,1,189167,221941,0.07,-0.80,9.96,-0.03,-0.01,-0.00,30.93
61324188,1844,1,188374,219656,0.10,-0.81,9.96,-0.03,-0.01,-0.01,30.93
61364192,1851,1,187750,218663,0.08,-0.82,9.95,-0.03,-0.01,-0.00,30.93
61404188,1855,1,187606,218478,0.08,-0.81,9.99,-0.03,-0.01,-0.01,30.93
61444191,1840,1,187506,218302,0.09,-0.83,9.95,-0.03,-0.01,-0.00,30.93
61484188,1842,1,187487,218587,0.11,-0.82,9.96,-0.03,-0.01,-0.01,30.93
61524198,1840,1,187705,219247,0.09,-0.81,9.95,-0.03,-0.01,-0.01,30.93
61564191,1840,1,187962,219735,0.10,-0.80,9.96,-0.03,-0.01,-0.01,30.93
61604192,1841,1,188036,220037,0.09,-0.81,9.97,-0.03,-0.01,-0.01,30.93
61644192,1840,1,188016,220268,0.06,-0.82,9.93,-0.03,-0.01,-0.00,30.93
61684191,1840,1,188169,220541,0.08,-0.83,9.94,-0.03,-0.01,-0.00,30.93
