timestamp_us,ecg,leads,ir,red,accX,accY,accZ,gyroX,gyroY,gyroZ,temp
2418496,400,1,194857,237789,0.00,0.00,0.00,0.00,0.00,0.00,0.00
2448967,53,1,194941,237913,0.67,-1.06,9.87,-0.02,0.01,0.01,27.99
2489175,0,1,194798,237469,0.80,-1.43,10.43,-0.02,-0.02,0.01,27.99
2529178,0,1,194778,237700,0.33,-1.13,9.14,-0.04,0.06,0.01,27.99
2569171,111,1,194988,237251,0.42,-0.92,10.86,-0.03,0.00,0.01,27.99
2609167,222,1,195468,238368,1.33,-1.09,10.50,0.00,-0.03,0.01,27.99
2649171,493,1,195743,238679,1.38,-1.31,8.63,-0.02,-0.05,0.00,27.99
2689178,715,1,196031,239410,0.96,-1.50,9.92,-0.06,-0.04,0.01,27.99
2729181,957,1,196384,239463,0.99,-0.95,10.22,-0.03,-0.01,0.00,27.99
2769178,1166,1,196501,239850,0.85,-0.86,10.06,-0.03,0.02,0.00,27.99
2809171,1349,1,196495,238512,0.47,-1.80,9.24,-0.05,0.03,0.01,27.99
2849169,1535,1,195518,235383,0.39,-0.57,10.33,-0.04,-0.01,0.01,27.99
2889180,1722,1,195074,235603,0.32,-1.31,10.20,-0.04,0.07,0.01,27.99
2929168,1894,1,195040,235611,1.02,-1.51,9.11,-0.03,-0.02,0.01,27.99
2969180,2014,1,195468,236397,1.02,-1.70,9.90,-0.05,-0.06,0.00,27.99
3009178,2187,1,195646,237250,0.49,-1.75,9.90,-0.06,0.03,0.01,27.99
3049172,2224,1,195669,237838,1.08,-1.81,9.70,-0.04,-0.03,-0.01,27.99
3089201,2303,1,195664,237735,0.30,-1.33,9.59,-0.06,0.07,-0.01,27.99
3127180,2382,1,195478,237337,0.65,-0.93,9.72,-0.04,-0.05,-0.00,27.99
3167197,2430,1,195311,237099,0.78,-1.20,9.50,-0.04,-0.04,-0.00,27.99
3207201,2462,1,195224,236391,0.40,-1.28,9.40,-0.04,0.07,-0.01,27.99
3247178,2443,1,194941,235715,0.69,-1.33,9.80,-0.05,0.03,-0.01,27.99
3287180,2457,1,194310,234751,0.91,-1.61,8.75,-0.04,-0.04,-0.00,27.99
3327198,2480,1,194397,235055,0.75,-2.36,9.11,-0.07,-0.01,-0.00,27.99
3367200,2480,1,194443,234823,1.05,-1.39,10.13,-0.05,-0.06,-0.01,27.99
3407200,2479,1,194931,234900,0.10,-2.20,10.74,-0.06,0.08,-0.00,27.99
3448182,2432,1,194208,232240,0.73,-1.82,9.32,-0.02,-0.03,-0.01,27.99
3488887,2371,1,194075,232215,0.13,-1.31,11.07,-0.05,0.05,-0.01,28.07
3527184,2353,1,194017,232846,0.59,-1.42,9.47,-0.02,-0.04,-0.01,28.07
3567201,2323,1,194489,233595,-0.03,-1.30,10.50,-0.03,0.02,-0.01,28.07
3607201,2288,1,194465,233740,0.38,-1.33,10.13,-0.01,-0.00,-0.01,28.07
3647233,2233,1,194659,235205,0.68,-1.33,10.56,-0.00,0.00,-0.01,28.07
3687180,2192,1,194909,235593,0.77,-1.54,9.10,-0.02,-0.02,-0.02,28.07
3727197,2159,1,195372,236492,0.13,-2.30,9.31,-0.07,0.05,-0.01,28.07
3767180,2128,1,195146,235396,0.74,-1.33,8.81,-0.05,-0.06,-0.02,28.07
3807198,2091,1,195396,236773,-0.13,-1.60,11.52,-0.07,0.10,-0.02,28.07
3847218,2046,1,195369,237224,0.14,-1.02,10.23,0.00,0.09,-0.02,28.07
3887167,2031,1,195617,238511,0.45,-1.37,11.96,-0.02,0.01,-0.08,28.07
3927180,2003,1,195834,238973,0.26,-2.69,11.02,0.00,-0.02,-0.20,28.07
3967178,1989,1,195555,238752,0.11,-1.28,8.44,-0.03,-0.08,-0.05,28.07
4007200,1968,1,195765,238000,0.23,-1.83,11.37,-0.08,0.07,-0.03,28.07
4047181,1937,1,194888,236676,0.92,-1.76,9.76,-0.03,-0.17,-0.03,28.07
4087217,1904,1,194660,233910,0.05,-1.99,9.04,-0.11,0.03,-0.03,28.07
4127178,1920,1,193863,233444,0.84,-1.49,10.45,-0.05,-0.11,-0.03,28.07
4167201,1917,1,193703,231842,0.24,-1.80,8.90,-0.08,-0.02,-0.03,28.07
4207197,1917,1,193227,230978,0.50,-1.08,9.77,-0.05,-0.01,0.13,28.07
4247180,1879,1,193372,231604,0.54,-1.59,9.95,-0.07,0.02,0.06,28.07
4287171,1840,1,193855,233026,0.73,-1.36,8.71,-0.02,0.00,-0.03,28.07
4327180,1840,1,194629,235078,0.07,-1.79,9.33,-0.06,0.08,-0.03,28.07
4367178,1817,1,195178,236176,0.60,-1.62,10.09,-0.01,0.01,-0.04,28.07
4407180,1807,1,195278,236595,0.74,-2.15,9.47,-0.01,-0.05,-0.03,28.07
4447200,1825,1,195290,236333,0.60,-2.58,8.00,-0.04,-0.03,-0.00,28.07
4486201,1811,1,195369,236944,0.28,-1.75,9.06,-0.06,0.06,-0.02,28.07
4526870,1834,1,195484,238143,0.39,-1.34,10.63,-0.03,0.11,-0.03,27.93
4567180,1843,1,195597,238822,0.23,-1.97,9.22,-0.01,0.03,-0.03,27.93
4607181,1866,1,195853,239407,0.50,-2.64,10.14,-0.00,-0.03,-0.03,27.93
4647200,1887,1,195840,239064,0.80,-1.98,9.94,0.00,-0.07,-0.03,27.93
4687178,1903,1,195363,237975,0.28,-2.25,10.91,-0.01,0.02,-0.03,27.93
4727180,1904,1,194900,237665,0.23,-2.62,9.73,-0.02,0.02,-0.03,27.93
4767180,1883,1,194720,237091,0.25,-1.83,10.37,-0.02,-0.06,-0.05,27.93
4807200,1874,1,194625,236920,0.13,-1.68,10.00,-0.01,-0.03,-0.03,27.93
4847198,1868,1,194464,236211,0.12,-1.63,9.73,-0.02,-0.03,-0.04,27.93
4887200,1813,1,194446,236316,0.50,-1.74,9.33,-0.03,-0.07,-0.03,27.93
4927200,1782,1,194514,236192,0.24,-1.45,9.01,-0.02,-0.04,-0.03,27.93
4967200,1788,1,194989,237573,0.26,-1.67,10.60,-0.03,0.01,-0.03,27.93
5007180,1812,1,195194,238002,0.33,-1.36,9.42,0.00,-0.07,-0.04,27.93
5047180,1789,1,195967,239545,0.20,-1.74,10.82,-0.02,-0.03,-0.04,27.93
5087205,1813,1,196073,239435,0.44,-1.47,9.52,0.01,-0.10,-0.04,27.93
5127180,1831,1,196216,239803,0.38,-1.82,10.42,-0.04,-0.06,-0.03,27.93
5167200,1844,1,196173,239082,0.45,-1.57,9.71,-0.03,-0.03,-0.04,27.93
5207201,1838,1,196206,239923,0.61,-2.03,10.37,-0.07,-0.01,0.07,27.93
5247180,1829,1,196553,239902,0.46,-1.71,9.67,-0.02,-0.03,-0.03,27.93
5287201,1811,1,196843,241049,0.58,-1.89,10.73,-0.05,-0.04,0.02,27.93
5327181,1808,1,196780,238690,0.80,-2.03,10.13,-0.02,-0.08,-0.03,27.93
5367200,1795,1,195929,236480,0.21,-1.81,11.05,-0.05,0.01,0.21,27.93
5407171,1803,1,195927,236310,0.78,-1.96,10.00,-0.02,-0.04,-0.02,27.93
5447201,1796,1,196137,237700,-0.17,-2.11,10.88,-0.04,0.01,0.09,27.93
5487180,1797,1,196248,235707,0.73,-0.91,9.25,0.01,-0.06,-0.03,27.93
5527867,1808,1,196194,235643,-0.14,-1.28,11.17,-0.04,-0.01,0.17,27.69
5566201,1775,1,196320,235194,0.49,-2.18,7.90,-0.02,-0.01,0.20,27.69
5606180,1795,1,197091,236385,0.22,-1.31,9.78,-0.04,0.06,0.01,27.69
5646172,1825,1,197552,238492,0.45,-1.67,8.99,-0.01,-0.03,-0.02,27.69
5686201,1820,1,198330,239925,0.30,-2.19,9.79,-0.05,-0.01,-0.03,27.69
5726198,1792,1,198861,240915,0.41,-1.96,8.61,-0.04,-0.05,-0.02,27.69
5766201,1807,1,199510,241589,0.17,-1.54,9.94,-0.05,0.09,-0.03,27.69
5806180,1815,1,199523,242417,0.45,-1.62,10.67,-0.03,0.05,-0.02,27.69
5846181,1825,1,199050,242194,0.70,-1.70,9.55,-0.00,0.01,-0.03,27.69
5886178,1849,1,198795,242307,0.55,-1.59,10.66,0.00,-0.01,-0.02,27.69
5926180,1886,1,198612,243029,0.36,-1.94,10.47,0.01,-0.00,-0.01,27.69
5966181,1879,1,198738,243102,0.43,-1.04,10.63,0.01,-0.02,-0.02,27.69
6006181,1907,1,198616,240729,0.25,-0.77,11.95,0.01,-0.02,-0.01,27.69
6046181,1936,1,198402,240220,0.23,-1.48,11.54,-0.01,0.05,0.15,27.69
6086172,1981,1,198566,239816,1.39,-1.27,11.11,0.01,-0.09,0.01,27.69
6126171,1983,1,198548,239346,0.42,-1.36,10.00,-0.02,0.03,0.01,27.69
6166172,1989,1,198588,238710,0.97,-1.01,8.91,-0.01,-0.08,0.03,27.69
6206178,1939,1,199493,239555,0.87,-1.04,10.43,-0.02,-0.02,0.04,27.69
6246180,1958,1,200137,240495,1.11,-0.50,8.37,0.01,-0.10,-0.06,27.69
6286180,1955,1,200891,241185,0.41,-1.57,9.94,-0.05,0.09,0.02,27.69
6326172,1938,1,200243,240695,1.31,-0.63,7.30,-0.01,-0.06,-0.00,27.69
6366198,1953,1,200364,241674,0.26,-1.44,10.04,-0.07,0.04,-0.03,27.69
6406180,1956,1,200287,242179,1.72,-0.40,9.10,0.02,-0.16,-0.09,27.69
6446178,1915,1,200569,243692,0.54,-1.35,10.80,-0.04,-0.05,0.00,27.69
6486181,1855,1,200506,244630,1.22,-1.89,8.60,-0.01,-0.11,0.01,27.69
6526182,1778,1,200275,244923,0.06,-1.81,10.69,-0.06,0.03,0.00,27.69
6566858,1742,1,199639,244875,0.84,-1.75,9.88,-0.02,-0.06,0.01,27.29
6605181,1687,1,199188,244172,0.00,-1.53,11.96,-0.04,-0.02,0.00,27.29
6645180,1468,1,198589,243233,1.05,-0.50,9.73,0.01,-0.10,0.01,27.29
6685168,1336,1,198927,244067,0.24,-0.88,11.69,-0.04,0.08,0.24,27.29
6725172,1335,1,198486,242472,1.30,-0.53,9.21,0.02,-0.08,0.02,27.29
6765167,1311,1,197648,241046,0.69,-1.33,10.31,-0.07,0.06,0.02,27.29
6805172,1347,1,196959,238830,1.26,-1.05,8.35,-0.06,0.00,-0.00,27.29
6845178,1397,1,196633,238687,0.79,-1.26,10.68,-0.08,0.06,0.02,27.29
6885172,1473,1,196100,237292,1.57,-0.91,8.49,-0.01,-0.06,0.00,27.29
6925192,1605,1,196295,239417,0.58,-0.76,9.08,-0.05,-0.02,0.10,27.29
6965180,1678,1,196996,240860,1.30,-1.12,8.88,-0.01,-0.08,0.01,27.29
7005178,1781,1,197587,242656,0.85,-1.19,9.89,-0.05,0.02,0.06,27.29
7045172,1863,1,197707,242363,0.80,-1.23,9.26,-0.02,-0.01,0.01,27.29
7085181,1959,1,197570,242629,0.78,-1.09,10.25,-0.05,-0.02,0.16,27.29
7125185,1981,1,197500,242383,0.29,-1.99,9.25,-0.04,0.04,0.01,27.29
7165171,2074,1,197262,241536,0.11,-0.89,9.64,-0.04,0.00,0.01,27.29
7205172,2132,1,197291,241561,0.45,-0.88,10.44,-0.03,0.02,0.01,27.29
7245172,2143,1,197448,241950,0.25,-0.91,10.81,-0.03,0.06,0.01,27.29
7285171,2127,1,197614,241983,0.52,-1.34,10.41,-0.02,-0.01,0.01,27.29
7325181,2150,1,197880,242233,0.05,-0.83,10.39,-0.05,0.04,0.01,27.29
7365172,2137,1,198159,242763,0.37,-0.97,10.33,-0.07,0.05,0.12,27.29
7405172,2102,1,198004,241135,0.44,0.24,9.69,-0.03,-0.03,0.00,27.29
7445172,2112,1,197402,240327,0.41,-1.13,10.58,-0.08,0.05,0.02,27.29
7485171,2037,1,196705,235635,0.72,-0.51,8.87,-0.04,-0.05,-0.00,27.29
7525207,2090,1,196594,237663,-0.06,-2.30,11.75,-0.12,0.04,0.10,27.29
7565181,2072,1,196592,234830,0.76,-0.70,8.75,0.02,-0.14,0.01,27.29
7605858,2073,1,197068,237824,0.55,-1.19,12.94,-0.10,0.06,0.04,27.47
7644172,2043,1,197254,237403,0.25,-0.89,8.99,0.01,-0.00,0.01,27.47
7684172,2037,1,197883,239823,0.21,-0.68,11.10,-0.04,0.02,0.00,27.47
7724168,1985,1,197971,239306,0.72,-0.96,9.56,0.01,-0.10,0.01,27.47
7764172,1979,1,198432,242094,0.11,-1.58,10.08,-0.06,0.05,0.01,27.47
7804172,1969,1,198766,241817,0.64,-0.78,8.86,0.01,-0.08,-0.08,27.47
7844180,1968,1,198766,242529,0.47,-1.05,10.53,-0.05,-0.06,0.00,27.47
7884181,1931,1,198710,241653,0.39,-0.81,9.10,-0.03,0.02,-0.01,27.47
7924180,1915,1,198590,242706,0.54,-0.90,10.68,-0.03,-0.08,0.01,27.47
7964178,1879,1,198808,243253,0.53,-1.44,9.47,-0.03,0.01,0.01,27.47
8004172,1857,1,199046,244256,0.06,-1.37,10.30,-0.04,-0.02,0.01,27.47
8044178,1853,1,199155,243520,0.02,-1.62,10.97,-0.01,0.05,-0.09,27.47
8084181,1855,1,198851,243364,0.48,-0.62,11.72,0.03,-0.10,0.00,27.47
8124168,1644,1,197986,240178,0.52,-1.21,9.55,-0.01,-0.00,0.01,27.47
8164181,1526,1,197472,240960,0.46,-0.69,11.35,0.00,-0.04,0.02,27.47
8204168,1481,1,197451,240811,0.92,-1.58,8.93,-0.01,-0.05,0.00,27.47
8244180,1470,1,197495,241347,0.29,-1.15,9.95,-0.03,-0.05,0.01,27.47
8284181,1519,1,197558,241086,0.59,-0.85,9.68,-0.02,-0.04,0.00,27.47
8324181,1535,1,197527,241629,0.42,-1.61,10.20,-0.02,-0.09,0.02,27.47
8364181,1535,1,197590,241329,0.79,-0.71,8.90,-0.01,-0.07,0.01,27.47
8404180,1629,1,197811,241671,0.02,-0.99,10.58,-0.04,0.01,0.01,27.47
8444168,1675,1,197577,241316,0.72,-0.20,8.42,0.02,-0.12,0.02,27.47
8484172,1740,1,197820,242615,0.52,-0.57,10.92,-0.04,0.02,0.01,27.47
8524178,1758,1,197744,241831,0.97,-1.19,8.35,-0.01,-0.11,0.01,27.47
8564180,1804,1,197802,242401,0.31,-0.86,9.55,-0.05,-0.05,0.02,27.47
8604178,1827,1,197894,242537,0.71,-0.99,8.86,-0.02,-0.02,0.01,27.47
8644867,1872,1,198167,243295,0.24,-0.81,10.25,-0.07,0.06,0.01,27.41
8683168,1909,1,198699,244319,0.82,-1.08,11.07,-0.05,0.02,0.00,27.41
8723171,1923,1,199152,245302,0.75,-0.77,11.20,-0.03,-0.04,0.01,27.41
8763198,1943,1,198946,245039,0.78,-1.21,8.81,0.00,-0.10,0.02,27.41
8803172,1963,1,198690,243550,0.23,-0.51,9.47,-0.03,0.00,0.02,27.41
8843168,1942,1,198054,241843,0.33,-0.54,9.96,-0.03,0.03,0.02,27.41
8883172,1949,1,197486,241557,0.78,-0.56,10.58,-0.02,0.00,0.01,27.41
8923168,1950,1,197608,241737,0.80,-1.33,10.30,-0.04,-0.02,0.01,27.41
8963181,1965,1,197602,241442,0.76,-1.07,9.79,-0.02,-0.12,0.02,27.41
9003178,1981,1,197739,241877,0.23,-0.62,9.21,-0.02,0.01,0.02,27.41
9043172,1984,1,197941,242476,0.77,-0.66,10.06,-0.04,-0.01,0.01,27.41
9083178,1998,1,198325,242851,0.39,-1.61,9.87,-0.05,0.02,0.01,27.41
9123172,1975,1,198444,243125,0.46,-0.36,9.20,-0.03,-0.04,0.02,27.41
9163178,1957,1,198584,243313,0.29,-1.17,9.62,-0.05,0.03,0.02,27.41
9203172,1942,1,198725,244238,0.31,-0.67,10.17,-0.03,0.00,0.02,27.41
9243168,1931,1,198873,244137,0.65,-0.47,10.25,-0.01,-0.00,0.01,27.41
9283181,1918,1,198922,244551,0.52,-1.22,11.16,-0.03,-0.05,0.01,27.41
9323181,1927,1,198856,244393,0.77,-0.89,8.98,-0.03,-0.12,0.01,27.41
9363180,1938,1,198931,244158,0.30,-1.74,9.98,-0.07,0.03,0.02,27.41
9403167,1942,1,198509,243499,0.85,-0.58,9.36,-0.03,-0.11,0.01,27.41
9443180,1933,1,198648,244054,0.10,-1.77,10.08,-0.06,0.09,0.02,27.41
9483168,1936,1,198292,242489,0.52,-0.53,9.27,-0.01,-0.04,0.02,27.41
9523181,1919,1,197821,242594,0.13,-1.44,10.21,-0.04,0.03,0.02,27.41
9563172,1916,1,197846,243199,0.39,-0.17,9.45,0.01,-0.06,0.01,27.41
9603172,1910,1,197996,243883,0.31,-0.61,10.90,-0.02,0.01,0.01,27.41
9643168,1879,1,198090,244316,0.33,-1.43,9.33,0.01,-0.03,0.02,27.41
9683858,1860,1,198028,244550,0.69,-1.36,10.77,-0.03,-0.07,0.01,27.41
9722181,1872,1,197743,243769,-0.10,-0.74,9.35,-0.01,0.01,0.02,27.41
9762181,1878,1,197635,244040,0.35,-1.39,11.29,-0.03,0.02,0.02,27.41
9802172,1863,1,197503,243541,0.09,-0.62,9.99,-0.01,0.02,0.01,27.41
9842172,1868,1,197461,243825,0.35,-1.12,10.83,-0.02,-0.03,0.01,27.41
9882181,1855,1,197484,243170,0.42,-0.52,9.43,0.01,-0.10,-0.03,27.41
9922180,1854,1,197549,243661,0.32,-1.48,9.92,-0.04,-0.05,0.01,27.41
9962181,1841,1,197359,242950,0.89,-0.84,8.68,-0.01,-0.13,0.01,27.41
10002180,1843,1,197591,243029,-0.03,-1.21,10.69,-0.08,0.09,0.01,27.41
10042181,1841,1,197548,242996,0.63,-0.94,9.34,-0.01,-0.01,0.01,27.41
10082180,1872,1,197629,243297,-0.02,-2.18,10.58,-0.07,0.06,0.01,27.41
10122181,1853,1,197554,243659,0.76,-1.04,9.56,-0.01,-0.10,0.01,27.41
10162181,1860,1,197251,242368,0.15,-1.14,10.50,-0.03,-0.06,-0.11,27.41
10202204,1804,1,196969,242872,0.76,-1.30,9.98,-0.00,-0.07,0.01,27.41
10242181,1779,1,196869,242430,0.74,-1.05,9.15,-0.02,-0.09,-0.10,27.41
10282201,1775,1,196718,242310,0.77,-1.23,9.33,-0.01,-0.06,0.01,27.41
10322180,1787,1,196249,241667,0.84,-1.52,9.04,-0.02,-0.08,0.00,27.41
10362178,1809,1,196030,242055,0.40,-1.40,8.84,-0.02,-0.03,0.01,27.41
10402180,1837,1,195798,241907,0.76,-0.43,9.07,-0.01,-0.05,-0.05,27.41
10442198,1852,1,195838,241997,-0.02,-0.84,11.56,-0.04,0.11,0.01,27.41
10482181,1855,1,195887,242517,0.66,-1.12,9.72,0.02,-0.06,0.00,27.41
10522172,1856,1,196153,242348,0.26,-0.56,10.72,-0.00,-0.02,0.00,27.41
10562180,1892,1,196393,242913,0.73,-1.36,10.05,0.00,-0.04,0.00,27.41
10602168,1919,1,196227,242848,1.51,-1.44,9.11,-0.01,-0.16,-0.01,27.41
10642202,1966,1,196189,242806,0.58,-1.95,8.18,-0.08,0.03,0.00,27.41
10682168,1997,1,195937,241993,0.08,-0.39,9.37,-0.05,-0.01,0.00,27.41
10722867,2021,1,196210,242704,-0.03,-1.09,10.81,-0.05,0.10,0.06,27.29
10761181,2027,1,196177,242208,0.45,-0.73,9.59,0.01,-0.07,0.01,27.29
10801172,2019,1,196361,242506,0.91,-1.42,11.48,-0.04,0.00,0.00,27.29
10841168,1995,1,196062,240783,0.35,-0.96,9.85,-0.02,-0.00,0.00,27.29
10881181,1979,1,195597,239752,0.18,-1.27,9.80,-0.07,0.07,0.08,27.29
10921168,1951,1,195635,239324,0.06,-1.56,10.99,-0.07,0.01,0.02,27.29
10961172,1931,1,195877,240010,0.60,-1.41,11.24,-0.05,-0.02,0.06,27.29
11001181,1904,1,196164,240628,0.64,-2.06,9.54,-0.07,-0.05,0.01,27.29
11041180,1903,1,196589,241228,0.92,-1.58,8.47,-0.06,-0.06,0.10,27.29
11081181,1891,1,196800,241041,0.17,-1.10,9.08,-0.06,0.00,0.02,27.29
11121172,1886,1,196732,241262,0.84,-1.54,9.47,-0.05,0.03,0.16,27.29
11161172,1885,1,196933,241328,0.47,-1.40,9.72,-0.04,0.03,-0.00,27.29
11201181,1868,1,197092,241197,0.45,-0.51,10.66,-0.04,0.03,-0.00,27.29
11241181,1855,1,197193,242286,0.49,-0.70,11.14,-0.02,0.01,-0.01,27.29
11281180,1856,1,197145,242668,0.78,-2.00,9.64,-0.02,-0.02,-0.00,27.29
11321197,1875,1,197237,242902,0.88,-2.06,8.89,-0.06,-0.06,-0.00,27.29
11361201,1883,1,197333,243107,0.32,-1.88,9.36,-0.06,0.05,0.01,27.29
11401172,1845,1,197246,243530,0.17,-1.33,8.01,-0.03,0.03,0.00,27.29
11441172,1853,1,197335,243716,0.20,-1.48,11.53,-0.01,0.04,-0.08,27.29
11481181,1874,1,197240,243490,0.40,-0.84,11.25,0.02,-0.01,-0.01,27.29
11521180,1872,1,196885,242366,0.07,-1.29,10.40,0.02,0.00,-0.01,27.29
11561171,1872,1,196490,242581,0.42,-1.47,10.20,-0.01,-0.03,-0.01,27.29
11601200,1875,1,196664,241809,0.28,-0.99,9.96,-0.01,0.00,-0.05,27.29
11641178,1857,1,196193,241834,0.70,-1.14,10.37,-0.01,-0.11,-0.00,27.29
11681201,1874,1,196589,242574,0.64,-2.05,8.15,-0.02,-0.03,-0.00,27.29
11721200,1856,1,196400,242302,0.58,-1.51,8.55,-0.04,-0.07,-0.00,27.29
11761887,1840,1,196813,242895,0.23,-1.49,10.47,-0.06,0.11,-0.01,27.35
11800181,1843,1,196717,243141,0.41,-1.17,10.75,-0.01,-0.06,-0.01,27.35
11840216,1840,1,196868,242779,0.49,-1.13,10.65,-0.04,-0.00,-0.02,27.35
11880201,1836,1,197060,243656,0.49,-1.01,11.14,-0.04,-0.03,-0.01,27.35
11920201,1808,1,197198,243392,0.56,-1.25,10.51,-0.01,-0.00,-0.03,27.35
11960200,1795,1,196998,243796,0.86,-1.51,9.52,-0.01,-0.11,-0.00,27.35
12000200,1797,1,197190,243417,0.53,-1.85,9.36,-0.03,0.03,-0.01,27.35
12040198,1765,1,196665,242731,0.67,-0.55,10.17,-0.02,-0.09,-0.01,27.35
12080201,1776,1,196725,241949,0.47,-1.84,9.38,-0.07,0.04,-0.01,27.35
12120181,1761,1,196215,240685,0.72,-1.67,10.13,-0.06,-0.03,-0.01,27.35
12160200,1770,1,195990,238905,0.41,-1.60,8.98,-0.08,0.06,-0.01,27.35
12200181,1767,1,195687,239964,0.34,-1.27,10.37,-0.02,-0.02,0.00,27.35
12240180,1771,1,195800,239951,0.65,-1.60,8.35,-0.01,-0.01,-0.01,27.35
12280201,1776,1,195865,241206,0.34,-1.04,9.68,-0.03,0.02,-0.01,27.35
12320180,1794,1,196370,241758,0.50,-1.64,10.23,-0.06,0.07,-0.02,27.35
12360181,1795,1,196471,242807,0.39,-1.15,10.20,-0.05,-0.04,-0.02,27.35
12400201,1789,1,196552,242687,0.64,-1.82,9.20,-0.03,-0.01,-0.03,27.35
12440201,1801,1,196232,241788,0.45,-1.02,9.39,-0.04,-0.01,-0.01,27.35
12480201,1813,1,195823,240969,0.68,-1.34,9.53,-0.03,0.04,-0.01,27.35
12520181,1826,1,195837,241229,0.20,-0.85,11.16,-0.04,0.07,-0.01,27.35
12560180,1846,1,195840,241702,1.18,-1.53,10.17,-0.03,-0.07,-0.01,27.35
12600201,1847,1,195981,241990,0.39,-1.76,10.32,-0.07,0.03,-0.01,27.35
12640180,1871,1,195891,241658,0.58,-1.06,9.45,-0.02,0.01,-0.00,27.35
12680181,1877,1,195812,241936,0.28,-1.41,10.37,-0.03,0.04,-0.01,27.35
12720180,1897,1,195806,242339,0.86,-1.41,10.64,-0.02,-0.02,-0.01,27.35
12760201,1907,1,195634,241083,0.46,-1.49,10.64,-0.04,-0.05,-0.01,27.35
12800887,1905,1,195101,240006,0.65,-1.28,9.34,-0.03,-0.04,-0.00,27.35
12841201,1927,1,194864,238905,0.32,-1.82,9.58,-0.04,0.00,-0.01,27.35
12881180,1923,1,194675,238294,0.97,-1.57,9.80,-0.01,-0.07,0.00,27.35
12921181,1909,1,194592,237918,0.61,-1.32,9.59,-0.04,-0.05,0.01,27.35
12961181,1913,1,194850,238404,0.55,-1.08,9.56,-0.05,0.01,0.00,27.35
12999168,1911,1,195009,239612,1.05,-2.10,9.01,-0.06,-0.08,-0.00,27.35
13039201,1904,1,195575,239748,0.34,-1.34,8.19,-0.08,0.04,-0.01,27.35
13079180,1918,1,195552,239751,0.64,-1.20,10.27,-0.06,0.00,-0.01,27.35
13119180,1936,1,195960,240992,0.52,-1.72,10.56,-0.05,0.05,0.00,27.35
13159171,1922,1,196134,241376,0.85,-1.19,9.81,-0.04,-0.08,-0.01,27.35
13199201,1904,1,196544,242573,0.54,-1.56,9.36,-0.05,-0.02,-0.01,27.35
13239201,1925,1,196772,242448,0.36,-1.36,9.75,-0.03,0.05,-0.01,27.35
13279180,1921,1,196859,243266,0.69,-2.19,10.80,-0.04,0.01,-0.01,27.35
13319181,1911,1,196746,242578,0.79,-0.95,10.24,-0.04,-0.04,-0.02,27.35
13359201,1888,1,196659,242412,0.35,-1.57,10.67,-0.08,0.06,-0.01,27.35
13399181,1883,1,196468,240986,0.46,-1.54,9.95,-0.05,0.04,-0.01,27.35
13439180,1879,1,196018,238827,0.12,-2.03,11.30,-0.06,0.05,-0.00,27.35
13479178,1866,1,194894,236956,1.21,-1.27,10.25,0.02,-0.13,-0.01,27.35
13519180,1856,1,195256,238027,0.25,-1.45,9.56,-0.05,0.05,-0.01,27.35
13559181,1856,1,195344,239367,0.38,-1.08,8.95,0.00,-0.07,-0.00,27.35
13599180,1845,1,196072,240958,0.56,-1.95,10.10,0.01,-0.00,-0.01,27.35
13639181,1840,1,196116,240906,0.65,-1.62,8.41,-0.02,-0.12,-0.01,27.35
13679201,1815,1,196621,240491,0.27,-1.70,9.33,-0.10,0.05,-0.01,27.35
13719178,1826,1,196478,241108,0.25,-1.00,10.50,-0.02,0.02,-0.01,27.35
13759180,1827,1,196505,241535,0.57,-1.48,10.05,0.01,0.02,-0.01,27.35
13799171,1838,1,196377,242004,0.78,-1.13,9.50,0.00,-0.09,-0.01,27.35
13839867,1822,1,196707,242776,0.53,-1.11,8.34,-0.02,0.01,-0.01,27.17
13880181,1851,1,196761,242808,0.51,-1.60,9.41,-0.03,0.05,-0.01,27.17
13920180,1855,1,196765,242885,0.53,-1.93,10.44,-0.03,0.04,-0.01,27.17
13960181,1837,1,196459,242769,0.98,-1.55,10.48,-0.04,-0.08,-0.01,27.17
14000201,1843,1,196370,242691,0.28,-2.18,9.32,-0.07,0.03,-0.00,27.17
14040181,1853,1,196450,242444,0.44,-1.76,11.66,-0.05,0.05,-0.01,27.17
14080181,1865,1,196018,241246,0.55,-1.68,10.77,-0.02,-0.07,-0.01,27.17
14120201,1863,1,195659,241045,0.57,-1.07,9.75,-0.04,-0.06,-0.01,27.17
14160201,1865,1,195720,240885,-0.03,-0.23,9.74,-0.01,0.06,-0.01,27.17
14200201,1878,1,195773,240624,0.37,-0.88,11.46,-0.00,0.01,-0.01,27.17
14240180,1889,1,195640,240283,0.23,-0.74,9.39,0.00,0.00,-0.00,27.17
14278168,1893,1,195484,240334,0.92,-2.13,8.76,-0.03,-0.10,-0.00,27.17
14318201,1872,1,195737,240434,0.58,-1.99,8.69,-0.05,0.03,-0.01,27.17
14358180,1881,1,195615,239760,0.36,-1.52,9.40,-0.04,-0.02,-0.01,27.17
14398201,1893,1,196156,241036,0.23,-0.74,10.72,-0.04,0.01,-0.01,27.17
14438181,1875,1,196020,241421,0.80,-0.52,8.77,0.02,-0.09,-0.00,27.17
14478180,1872,1,196246,241841,0.77,-1.05,9.56,-0.03,0.03,-0.01,27.17
14519181,1878,1,196430,241982,0.49,-0.74,9.71,-0.05,0.04,-0.01,27.17
14559181,1873,1,196023,241419,1.06,-1.11,9.09,-0.03,-0.06,-0.01,27.17
14599201,1865,1,196119,242160,0.71,-1.79,8.96,-0.05,0.08,-0.01,27.17
14639180,1859,1,196029,241404,1.02,-1.20,9.42,-0.06,-0.01,-0.02,27.17
14679201,1856,1,196070,240700,0.33,-1.24,9.68,-0.07,0.04,-0.01,27.17
14719180,1856,1,195414,239627,0.60,-1.16,10.61,-0.02,0.05,-0.01,27.17
14759181,1874,1,195416,239897,0.49,-0.97,11.08,-0.02,0.05,-0.01,27.17
14799181,1886,1,195182,240069,0.58,-1.17,9.41,-0.01,-0.10,-0.00,27.17
14839887,1895,1,195068,239688,0.49,-0.88,9.46,0.00,0.04,-0.01,27.03
14878172,1885,1,195146,239576,0.52,-1.43,10.49,-0.04,0.04,-0.01,27.03
14918181,1869,1,195390,240024,0.63,-1.67,11.16,-0.04,-0.04,-0.00,27.03
14958201,1858,1,195453,240404,1.05,-1.91,9.35,0.00,-0.11,-0.00,27.03
14998178,1855,1,195573,240084,0.70,-1.64,9.85,-0.03,-0.04,-0.00,27.03
15038201,1868,1,195626,239562,0.65,-1.69,10.36,-0.07,-0.01,-0.01,27.03
15078201,1879,1,195734,239733,0.19,-1.41,11.30,-0.06,0.02,-0.01,27.03
15118184,1882,1,195585,239445,0.55,-1.68,10.81,-0.02,-0.02,-0.00,27.03
15158201,1886,1,195507,239596,0.23,-1.32,9.37,-0.04,-0.04,-0.00,27.03
15198201,1890,1,196129,240750,0.35,-1.31,11.02,-0.04,0.08,-0.01,27.03
15238180,1887,1,196002,240963,0.56,-1.08,10.24,0.00,-0.09,-0.00,27.03
15278180,1884,1,196479,241624,0.57,-1.26,9.90,-0.02,-0.01,0.01,27.03
15318203,1872,1,196388,241005,0.81,-1.74,9.50,-0.02,-0.04,0.00,27.03
15358180,1856,1,195910,238513,1.00,-1.31,9.76,-0.03,-0.07,-0.01,27.03
15398201,1853,1,195368,237020,0.17,-1.05,8.80,-0.06,0.00,0.00,27.03
15438171,1846,1,195158,236328,0.77,-1.07,10.05,-0.03,0.03,0.07,27.03
15478171,1849,1,195425,237253,0.35,-1.11,11.01,-0.05,0.04,0.01,27.03
15518172,1865,1,195382,238376,0.98,-0.78,7.85,-0.01,-0.08,0.04,27.03
15558181,1843,1,196267,240440,0.83,-1.40,10.21,-0.02,0.03,-0.01,27.03
15598180,1840,1,196499,241212,0.57,-1.25,8.92,-0.03,-0.03,0.00,27.03
15638181,1856,1,196892,241941,0.40,-1.39,10.03,-0.03,0.07,-0.01,27.03
15678180,1901,1,196785,242502,0.33,-1.35,10.13,0.00,-0.03,-0.00,27.03
15718181,1908,1,196869,242776,0.75,-1.51,9.61,-0.03,-0.06,-0.01,27.03
15758200,1904,1,196929,242941,0.39,-1.56,9.94,-0.05,0.01,-0.00,27.03
15798180,1911,1,197010,243218,0.51,-1.02,11.76,-0.03,0.01,-0.01,27.03
15838180,1906,1,197016,242838,0.34,-1.09,9.58,-0.03,-0.02,0.00,27.03
15878864,1897,1,196793,243242,0.58,-1.67,10.91,-0.02,-0.00,-0.01,26.87
15917200,1893,1,196651,242243,0.81,-1.26,10.28,-0.04,-0.02,-0.01,26.87
15957201,1872,1,196188,240711,0.03,-1.33,9.04,-0.05,0.01,-0.01,26.87
15997181,1890,1,196002,239006,0.21,-0.91,11.69,-0.05,0.12,-0.01,26.87
16037181,1873,1,195260,238063,0.26,-1.57,10.18,-0.03,-0.05,-0.00,26.87
16077201,1881,1,194879,238409,0.85,-1.55,9.86,0.02,-0.10,-0.00,26.87
16117178,1883,1,195292,238702,0.43,-1.39,9.28,-0.03,-0.05,-0.00,26.87
16157201,1878,1,195157,237368,0.72,-0.88,9.42,-0.04,-0.05,-0.01,26.87
16197201,1886,1,195094,238362,0.64,-1.55,10.77,-0.04,-0.02,-0.01,26.87
16237201,1870,1,195213,238071,0.68,-1.53,9.06,-0.01,-0.06,0.00,26.87
16277178,1866,1,194922,238159,0.60,-1.24,9.03,0.02,-0.08,-0.00,26.87
16317181,1853,1,195051,238934,0.88,-1.74,9.37,-0.04,-0.04,-0.01,26.87
16357201,1840,1,195152,238553,0.67,-1.44,8.64,-0.03,-0.03,-0.01,26.87
16397201,1833,1,195312,239655,0.57,-1.70,10.82,-0.04,-0.02,-0.00,26.87
16437201,1839,1,195612,240492,0.89,-0.96,9.05,0.02,-0.02,-0.00,26.87
16477180,1846,1,195639,241401,0.62,-1.90,10.52,0.00,-0.00,-0.00,26.87
16517178,1865,1,195473,241070,0.85,-1.88,8.77,-0.03,-0.05,-0.01,26.87
16557201,1846,1,195437,240983,0.40,-1.29,10.01,-0.05,0.03,-0.01,26.87
16597180,1865,1,195265,240082,0.82,-0.76,10.65,-0.04,0.01,-0.01,26.87
16637180,1866,1,194819,238423,0.39,-1.01,10.69,-0.02,-0.01,-0.01,26.87
16677201,1842,1,193922,236332,0.75,-1.19,10.15,0.02,-0.05,0.00,26.87
16717172,1842,1,193614,235868,0.51,-1.13,9.01,-0.02,-0.06,-0.00,26.87
16757231,1843,1,193597,235402,0.88,-1.29,10.45,-0.02,-0.06,-0.01,26.87
16797201,1853,1,193753,235368,0.52,-1.35,10.26,-0.04,-0.02,-0.01,26.87
16837200,1859,1,193868,235656,0.66,-0.79,10.28,-0.02,-0.01,-0.00,26.87
16877201,1842,1,194535,237084,0.29,-1.51,10.51,-0.07,-0.03,-0.00,26.87
16917887,1851,1,194357,235582,0.85,-0.78,7.88,-0.07,-0.03,0.17,26.93
16956181,1850,1,194505,234446,0.41,-1.07,10.05,-0.07,0.01,0.15,26.93
16996172,1860,1,194583,235379,0.94,-0.96,10.69,-0.05,-0.01,0.14,26.93
17036180,1884,1,195326,236510,0.45,-0.93,10.47,-0.03,0.07,-0.01,26.93
17076181,1872,1,195098,236133,0.28,-1.33,8.49,-0.02,-0.03,0.01,26.93
17116180,1858,1,195208,236239,0.99,-1.56,9.68,-0.01,-0.02,-0.01,26.93
17156201,1870,1,195058,236884,0.51,-0.92,8.03,-0.03,-0.02,0.00,26.93
17196180,1851,1,195527,238310,0.81,-1.57,9.16,-0.05,0.07,-0.01,26.93
17236181,1850,1,195924,240076,0.46,-0.62,10.88,-0.05,0.06,-0.01,26.93
17276180,1853,1,196104,241110,0.29,-1.67,11.04,0.00,0.05,-0.09,26.93
17316168,1877,1,196046,241388,0.52,-0.69,10.18,0.02,0.00,-0.10,26.93
17356172,1908,1,195816,241356,0.49,-1.77,9.60,-0.01,0.00,-0.04,26.93
17396178,1917,1,195345,239452,0.64,-0.32,9.47,-0.00,-0.03,-0.13,26.93
17436201,1936,1,194585,237762,0.23,-1.61,10.87,-0.05,0.09,-0.03,26.93
17476181,1934,1,194154,237346,1.01,-0.76,10.17,-0.01,-0.06,-0.05,26.93
17516201,1904,1,194554,237912,-0.08,-1.48,10.46,-0.04,0.07,-0.01,26.93
17556200,1803,1,194347,237039,0.89,-0.89,9.64,0.01,-0.09,-0.02,26.93
17597181,1161,1,194532,237459,0.24,-1.90,9.77,-0.04,0.02,-0.00,26.93
17637178,688,1,194193,236873,1.35,-0.60,9.73,-0.01,-0.15,0.00,26.93
17677180,494,1,194913,238185,0.49,-1.81,9.46,-0.10,0.08,0.01,26.93
17717169,460,1,194893,236698,0.83,-0.69,10.43,-0.04,-0.12,-0.00,26.93
17757201,527,1,195107,237444,-0.00,-2.65,11.25,-0.09,0.02,0.32,26.93
17797181,707,1,195277,236154,1.09,-0.36,8.22,-0.01,-0.14,0.00,26.93
17837181,968,1,195732,238581,0.47,-1.64,11.06,-0.11,0.06,0.05,26.93
17877172,1217,1,196034,237881,0.68,-0.68,8.30,-0.02,-0.02,-0.06,26.93
17917201,1481,1,196284,239344,0.49,-1.37,11.18,-0.09,0.07,-0.01,26.93
17957867,1683,1,196285,238856,1.06,-0.77,8.99,0.00,-0.06,0.00,27.05
17996172,1840,1,196393,240026,0.36,-2.03,9.56,-0.06,0.03,0.00,27.05
18036167,2002,1,196799,240597,0.77,-0.76,8.75,-0.01,0.01,-0.00,27.05
18076180,2102,1,197058,242428,0.46,-2.02,10.58,-0.04,0.02,0.00,27.05
18116169,2178,1,197394,242383,1.05,-1.22,8.73,0.02,-0.12,-0.16,27.05
18156181,2224,1,197176,242211,0.40,-1.51,10.60,-0.05,0.01,-0.00,27.05
18196180,2251,1,196814,239768,0.67,-1.02,9.47,-0.01,0.02,-0.00,27.05
18236180,2262,1,195634,238528,0.30,-1.35,11.10,-0.01,-0.02,0.00,27.05
18276178,2279,1,195688,238596,1.00,-1.42,9.57,0.00,-0.00,0.00,27.05
18316171,2267,1,195316,238642,0.40,-1.39,9.86,-0.01,-0.04,0.00,27.05
18356178,2265,1,195694,239028,0.88,-1.14,8.87,-0.03,0.00,-0.00,27.05
18396232,2278,1,195651,239539,0.52,-0.95,11.15,-0.03,-0.05,0.00,27.05
18436178,2265,1,196049,239955,0.89,-1.07,10.11,-0.01,-0.02,-0.00,27.05
18476200,2256,1,196135,239823,0.14,-1.23,10.74,-0.04,0.02,0.00,27.05
18516171,2239,1,196308,239768,1.03,-1.35,10.65,-0.02,-0.03,0.00,27.05
18556180,2222,1,196333,240003,0.49,-1.52,9.79,-0.03,-0.08,0.01,27.05
18596214,2180,1,196656,240685,1.32,-1.36,9.95,-0.02,-0.05,-0.00,27.05
18636200,2166,1,196743,240300,0.93,-1.44,9.20,-0.06,-0.07,-0.00,27.05
18676197,2154,1,196877,240034,0.66,-1.76,9.77,-0.08,0.00,-0.01,27.05
18716179,2109,1,196757,239861,0.84,-1.28,10.13,-0.06,-0.05,-0.00,27.05
18756201,2086,1,196994,240130,0.31,-1.23,10.14,-0.02,0.02,0.00,27.05
18796171,2042,1,196984,240749,1.16,-1.61,9.19,-0.02,-0.09,0.01,27.05
18836181,2026,1,197327,241806,0.71,-1.67,9.77,-0.03,-0.00,-0.00,27.05
18876201,2002,1,197173,241458,0.74,-1.51,8.21,-0.03,-0.05,0.00,27.05
18916180,1982,1,196774,238770,0.78,-1.53,9.75,-0.06,0.01,-0.00,27.05
18956180,1968,1,195543,235464,0.84,-1.17,9.18,-0.04,-0.06,0.00,27.05
18996867,1935,1,195402,236125,0.22,-1.32,9.53,-0.07,0.09,0.02,27.15
19035172,1920,1,195553,236694,0.44,-0.37,10.93,-0.00,0.07,0.00,27.15
19075167,1895,1,195316,238015,0.76,-1.18,10.04,0.01,-0.05,0.01,27.15
19115171,1890,1,195719,239017,1.03,-0.98,9.63,0.02,-0.06,-0.00,27.15
19155178,1873,1,196209,240740,0.47,-1.58,9.38,-0.05,0.04,0.00,27.15
19195172,1862,1,196256,240422,0.92,-0.81,9.73,-0.03,-0.06,-0.00,27.15
19235198,1872,1,196385,240677,0.44,-1.68,10.40,-0.07,0.05,0.00,27.15
19275171,1859,1,196466,240446,0.64,-1.08,10.11,-0.06,-0.02,0.00,27.15
19315180,1841,1,196500,240253,0.44,-0.94,10.59,-0.01,-0.01,0.01,27.15
19355180,1829,1,196381,240495,0.83,-1.11,9.86,-0.03,0.00,0.01,27.15
19395168,1815,1,196683,241480,0.65,-1.65,9.92,-0.03,-0.04,0.00,27.15
19435180,1806,1,196960,242018,0.73,-1.70,9.69,-0.03,-0.00,-0.00,27.15
19475197,1806,1,196513,241417,1.02,-1.52,9.38,-0.04,-0.12,-0.00,27.15
19515201,1809,1,196775,242141,0.28,-1.14,9.54,-0.07,0.12,-0.01,27.15
19555180,1799,1,196797,242593,0.65,-0.94,9.80,-0.05,-0.02,-0.12,27.15
19595200,1799,1,196857,242714,0.26,-1.09,11.06,-0.01,-0.01,-0.06,27.15
19635201,1787,1,196117,241368,0.90,-1.30,10.24,0.01,-0.04,-0.03,27.15
19675180,1808,1,195575,240835,0.40,-2.04,9.74,-0.02,-0.01,-0.07,27.15
19715198,1710,1,195035,239892,0.62,-1.17,8.89,0.00,-0.08,-0.02,27.15
19755180,1679,1,195006,240390,0.66,-1.90,9.93,-0.03,-0.01,0.00,27.15
19795178,1699,1,194780,239660,0.82,-0.69,9.04,-0.00,-0.08,-0.00,27.15
19835201,1744,1,195188,240586,0.30,-1.60,10.27,-0.06,0.06,-0.01,27.15
19875180,1769,1,195259,240564,0.80,-0.67,9.79,-0.03,-0.03,-0.00,27.15
19915200,1808,1,195472,241581,0.29,-1.67,10.16,-0.04,0.03,0.00,27.15
19955172,1826,1,195353,240989,0.79,-0.96,9.68,-0.01,-0.04,-0.00,27.15
19995201,1851,1,195425,241360,0.33,-1.71,10.61,-0.06,0.02,-0.00,27.15
20035869,1854,1,195141,240459,0.74,-0.73,9.54,-0.00,-0.07,0.00,27.11
20074180,1895,1,195304,240040,0.36,-1.70,9.71,-0.08,0.02,-0.00,27.11
20114178,1877,1,195331,240860,0.89,-0.59,10.58,-0.02,-0.03,0.00,27.11
20154180,1894,1,195670,240874,0.50,-2.36,9.76,-0.06,0.04,-0.00,27.11
20194178,1886,1,195614,240664,0.29,-1.06,9.88,-0.04,-0.00,-0.00,27.11
20234249,1898,1,195692,240300,0.14,-1.71,10.63,-0.03,0.02,-0.00,27.11
20274181,1892,1,195570,241403,0.66,-1.45,10.04,0.01,-0.04,0.00,27.11
20314171,1899,1,195816,241562,0.59,-2.38,9.70,-0.02,-0.03,-0.05,27.11
20354200,1899,1,195650,241731,0.44,-1.01,9.47,0.00,-0.07,-0.01,27.11
20394181,1901,1,195462,240529,0.52,-1.89,9.59,-0.03,0.01,-0.01,27.11
20434180,1903,1,194963,240437,0.68,-0.97,9.73,-0.01,-0.07,-0.00,27.11
20474200,1905,1,195063,240007,0.23,-1.46,9.74,-0.04,0.05,-0.01,27.11
20514180,1920,1,194755,240105,0.41,-1.34,10.25,-0.01,0.01,-0.00,27.11
20554180,1909,1,194717,239568,0.44,-1.38,9.09,-0.03,0.00,-0.01,27.11
20594178,1905,1,194873,240724,0.14,-1.32,9.76,-0.02,0.02,0.00,27.11
20634171,1910,1,195345,241275,0.86,-1.77,9.97,-0.01,-0.02,-0.01,27.11
20674201,1893,1,195434,241785,0.86,-1.29,10.21,-0.03,-0.05,-0.00,27.11
20714200,1887,1,195512,241441,0.48,-1.62,8.81,-0.03,-0.02,-0.01,27.11
20754201,1870,1,195352,241247,0.55,-1.13,10.02,-0.06,-0.01,-0.01,27.11
20794200,1849,1,195531,241585,0.56,-1.41,10.19,-0.05,-0.02,-0.01,27.11
20834200,1847,1,195440,241510,0.28,-0.87,10.58,-0.01,-0.03,-0.01,27.11
20874201,1840,1,195439,240949,0.71,-1.46,9.58,-0.04,-0.00,-0.02,27.11
20914201,1854,1,195446,241859,-0.03,-1.39,10.01,-0.06,0.03,-0.01,27.11
20954200,1840,1,195731,241240,0.40,-0.89,10.66,-0.01,0.01,-0.02,27.11
20994181,1840,1,195143,241163,0.35,-1.83,9.82,-0.01,-0.05,-0.00,27.11
21034201,1822,1,195415,240127,0.63,-1.39,9.65,-0.02,0.01,-0.02,27.11
21074867,1818,1,194553,239209,0.53,-1.56,10.23,-0.01,-0.10,0.01,27.25
21113180,1847,1,194612,239301,0.96,-1.36,9.01,0.02,-0.04,-0.01,27.25
21153180,1864,1,194455,239686,0.67,-1.41,9.00,-0.03,-0.08,-0.00,27.25
21193201,1867,1,194951,240462,0.62,-1.34,9.85,-0.03,0.00,-0.01,27.25
21233181,1870,1,194856,239737,0.23,-0.77,10.01,-0.03,0.00,-0.01,27.25
21273180,1858,1,194996,240556,0.40,-1.68,9.49,-0.05,0.02,-0.01,27.25
21313181,1840,1,195249,241051,0.29,-1.10,10.43,-0.03,-0.00,-0.01,27.25
21353200,1840,1,195499,241745,0.48,-1.56,10.18,-0.01,-0.02,-0.00,27.25
21393201,1847,1,195836,242455,0.36,-1.07,9.74,-0.02,0.01,-0.01,27.25
21433180,1830,1,196061,242542,0.32,-1.28,10.64,-0.02,0.02,-0.01,27.25
21473181,1823,1,195706,242054,0.70,-1.17,10.31,0.01,-0.10,-0.01,27.25
21513180,1818,1,195736,242116,0.65,-1.52,9.79,-0.00,-0.01,-0.01,27.25
21553200,1813,1,195726,242199,0.89,-1.97,9.59,-0.04,-0.03,-0.01,27.25
21593200,1825,1,195650,241630,0.21,-1.35,8.58,-0.04,-0.02,-0.01,27.25
21633201,1822,1,195838,242782,0.24,-0.98,11.28,-0.03,0.01,-0.01,27.25
21673180,1839,1,196157,242568,0.67,-0.54,10.64,-0.01,-0.03,-0.02,27.25
21713200,1830,1,195840,242435,-0.01,-1.37,10.59,-0.03,-0.03,-0.01,27.25
21753217,1823,1,195568,240335,0.55,-1.08,10.33,0.00,-0.04,-0.01,27.25
21793178,1855,1,194445,238968,0.55,-1.46,10.39,-0.01,-0.07,-0.01,27.25
21833201,1891,1,194647,239416,0.94,-1.74,9.65,-0.02,-0.07,-0.01,27.25
21873204,1891,1,194806,239200,0.75,-1.17,9.21,-0.02,-0.09,-0.00,27.25
21913201,1910,1,195105,240696,0.49,-2.25,9.96,-0.03,-0.02,0.06,27.25
21953181,1954,1,195069,239020,0.95,-0.76,9.48,-0.01,-0.07,-0.03,27.25
21993200,1996,1,194973,239534,0.21,-1.77,9.49,-0.07,0.03,0.14,27.25
22033172,2013,1,195174,239178,0.88,-0.88,8.59,-0.03,-0.07,-0.01,27.25
22073201,2030,1,195320,239708,0.77,-1.16,10.48,-0.04,-0.03,-0.01,27.25
22113887,2037,1,195555,240857,1.10,-1.27,9.96,0.00,-0.02,-0.01,27.23
22152180,2054,1,195849,240954,0.27,-1.44,8.66,-0.05,0.05,-0.02,27.23
22192181,2067,1,195843,240662,0.66,-0.88,10.10,-0.03,-0.02,-0.01,27.23
22232200,2074,1,195403,240187,0.88,-1.25,10.33,-0.01,-0.04,-0.01,27.23
22272200,2043,1,195529,240503,0.56,-1.76,9.40,-0.04,0.07,-0.01,27.23
22312180,2010,1,195153,239556,0.69,-0.66,9.37,0.00,-0.06,-0.01,27.23
22352178,2015,1,195398,241030,0.82,-1.11,11.05,-0.02,0.01,-0.00,27.23
22392181,1981,1,195700,241600,0.59,-1.32,9.26,-0.00,-0.06,-0.01,27.23
22432201,1955,1,195532,239999,0.74,-1.13,9.93,-0.03,-0.01,-0.01,27.23
22472200,1936,1,194970,239256,0.68,-1.19,10.49,-0.05,-0.02,-0.01,27.23
22512201,1903,1,194449,235713,0.38,-0.10,8.93,-0.02,-0.01,-0.01,27.23
22552201,1895,1,194022,235298,0.25,-1.69,11.66,-0.08,0.03,0.13,27.23
22592172,1830,1,194390,236375,0.69,-1.13,10.54,-0.02,0.03,0.00,27.23
22632171,1853,1,194703,237635,0.42,-1.36,10.67,-0.05,0.03,-0.01,27.23
22672181,1858,1,194747,237316,0.87,-1.63,8.73,-0.02,-0.12,0.00,27.23
22712181,1856,1,195067,237858,0.24,-2.04,10.03,-0.08,-0.02,0.01,27.23
22752181,1871,1,194843,236183,0.82,-1.15,10.18,-0.03,-0.01,-0.01,27.23
22792200,1847,1,194846,237889,0.25,-1.66,10.52,-0.07,-0.00,-0.01,27.23
22832200,1856,1,195431,239208,0.73,-1.20,8.87,-0.03,-0.02,-0.00,27.23
22872200,1857,1,195973,240503,0.26,-1.58,10.95,-0.08,-0.00,-0.01,27.23
22912200,1856,1,196113,240405,0.51,-0.60,9.14,-0.01,-0.01,-0.00,27.23
22952201,1801,1,195948,239912,0.27,-1.43,10.65,-0.06,0.07,-0.01,27.23
22992180,1798,1,195544,239050,0.73,-1.04,8.82,-0.03,-0.00,-0.00,27.23
23032201,1789,1,195766,239970,0.11,-1.09,9.89,-0.08,0.07,-0.01,27.23
23072181,1808,1,195996,241248,0.74,-0.84,9.64,-0.02,0.00,-0.00,27.23
23112181,1818,1,196375,241550,0.31,-1.56,10.37,-0.03,0.03,-0.01,27.23
23152867,1811,1,195803,240535,0.60,-1.10,9.47,-0.03,-0.00,-0.01,27.29
23193201,1806,1,195542,240069,0.11,-1.53,9.70,-0.07,0.05,-0.01,27.29
23233181,1815,1,195437,240684,-0.12,-1.00,9.40,-0.04,-0.00,0.00,27.29
23273201,1808,1,195676,241133,0.50,-1.66,10.60,-0.03,-0.01,-0.00,27.29
23313213,1809,1,195687,241654,0.63,-1.37,9.82,-0.02,-0.03,-0.01,27.29
23351200,1811,1,195552,241614,0.42,-1.17,9.50,-0.02,-0.06,-0.04,27.29
23391200,1806,1,195996,242525,-0.01,-0.98,10.47,-0.05,0.05,-0.00,27.29
23431200,1817,1,195627,241478,0.68,-0.45,9.77,-0.03,-0.09,-0.13,27.29
23471201,1840,1,195844,241034,0.07,-1.06,10.56,-0.06,0.03,-0.01,27.29
23511229,1847,1,195675,240433,0.34,-0.55,9.53,-0.03,-0.09,-0.00,27.29
23551197,1811,1,196081,240910,0.36,-1.13,10.49,-0.04,0.02,0.03,27.29
23591172,1800,1,195917,241133,0.77,-0.93,9.25,-0.00,-0.07,0.00,27.29
23631178,1808,1,196409,241191,0.06,-1.81,9.65,-0.06,0.09,0.00,27.29
23671172,1823,1,196368,241567,0.06,-0.82,9.75,-0.01,-0.05,0.00,27.29
23711178,1856,1,196518,241582,0.39,-1.01,9.73,-0.02,-0.00,-0.00,27.29
23751200,1840,1,196652,242317,0.55,-0.87,9.79,-0.03,-0.05,-0.00,27.29
23791201,1856,1,196597,240611,0.50,-1.51,9.60,-0.03,-0.01,-0.00,27.29
23831201,1840,1,196362,241624,0.27,-1.36,9.90,-0.03,-0.03,-0.00,27.29
23871197,1835,1,196752,241742,0.55,-1.29,9.62,-0.03,-0.04,-0.01,27.29
23911201,1822,1,196816,241677,0.18,-1.10,10.68,-0.07,-0.00,-0.01,27.29
23951201,1819,1,196654,241699,0.38,-1.07,9.41,-0.04,-0.02,-0.01,27.29
23991201,1831,1,196559,241443,0.28,-1.30,9.76,-0.05,-0.02,-0.01,27.29
24031201,1840,1,196456,241524,0.66,-1.21,8.26,-0.04,-0.04,-0.00,27.29
24071201,1822,1,196871,242735,0.20,-1.21,10.14,-0.06,0.02,-0.01,27.29
24111181,1819,1,197195,243805,0.57,-1.16,9.15,-0.03,-0.02,-0.01,27.29
24151201,1826,1,197229,242770,0.33,-0.96,9.72,-0.05,-0.06,-0.01,27.29
24191887,1821,1,197125,242774,0.69,-0.90,10.13,-0.06,0.02,0.12,27.23
24232171,1840,1,197101,242474,0.33,-0.88,9.47,-0.05,-0.00,0.01,27.23
24272180,1840,1,197056,242370,0.73,-0.78,9.99,-0.05,0.02,0.00,27.23
24312171,1846,1,197178,243353,0.36,-1.54,9.26,-0.05,0.01,-0.01,27.23
24352181,1867,1,197329,243227,0.47,-0.77,9.60,-0.04,0.03,-0.01,27.23
24392180,1865,1,197110,243663,-0.06,-1.22,10.76,-0.05,0.01,0.00,27.23
24432180,1864,1,196925,243076,0.34,-1.32,8.98,-0.02,-0.00,-0.00,27.23
24472201,1861,1,196633,243097,0.25,-0.97,10.74,-0.05,-0.01,-0.01,27.23
24512201,1846,1,196829,243302,0.04,-1.44,10.06,-0.05,0.02,-0.00,27.23
24552180,1856,1,196542,242989,0.79,-0.77,10.31,-0.04,-0.09,-0.00,27.23
24592201,1859,1,196879,243372,0.01,-2.13,9.73,-0.06,0.08,-0.01,27.23
24632180,1873,1,196022,241781,0.68,0.46,8.49,-0.03,-0.07,-0.16,27.23
24670181,1879,1,196170,242501,-0.00,-1.79,9.98,-0.10,0.12,-0.01,27.23
24710201,1885,1,196329,242429,0.08,-0.59,10.51,-0.04,0.02,-0.03,27.23
24750178,1870,1,196407,242623,0.12,-1.24,10.50,-0.03,0.00,-0.00,27.23
24790180,1872,1,196768,243569,-0.01,-0.77,10.57,-0.02,0.02,-0.00,27.23
24830198,1874,1,196706,243291,0.31,-0.76,10.05,-0.00,-0.06,-0.00,27.23
24870201,1881,1,196779,243136,-0.34,-1.08,10.25,-0.04,0.03,-0.00,27.23
24910201,1874,1,196259,242899,0.81,-0.27,9.78,-0.01,-0.09,-0.01,27.23
24950204,1904,1,196820,242925,-0.14,-1.31,10.23,-0.08,0.08,-0.00,27.23
24990201,1893,1,196424,242696,0.32,-0.81,9.68,-0.02,-0.01,0.00,27.23
25030180,1893,1,196474,242752,0.06,-0.94,9.46,-0.03,0.02,-0.01,27.23
25070178,1890,1,196610,242899,0.12,-1.26,10.52,-0.05,0.05,-0.00,27.23
25110181,1869,1,196114,241052,0.10,-1.53,9.66,-0.04,-0.05,-0.01,27.23
25150206,1855,1,195940,240046,-0.21,-0.95,9.05,-0.05,0.00,-0.01,27.23
25190201,1860,1,196390,240880,-0.11,-1.19,11.77,-0.05,0.09,-0.00,27.23
25230887,1840,1,196393,240901,0.76,-1.01,12.06,0.02,-0.08,-0.01,27.29
25271180,1840,1,196518,242016,0.47,-1.18,10.52,0.00,-0.05,-0.00,27.29
25311180,1846,1,196718,242605,0.48,-2.35,9.87,-0.00,-0.06,-0.00,27.29
25351225,1830,1,196374,242034,0.53,-1.03,8.92,-0.02,-0.10,-0.01,27.29
25391201,1861,1,196282,241482,0.23,-1.55,10.53,-0.08,0.03,-0.01,27.29
25431181,1869,1,196134,241544,0.09,-0.85,9.96,-0.02,-0.05,-0.00,27.29
25471198,1875,1,196438,242032,-0.16,-1.83,10.66,-0.04,0.01,-0.00,27.29
25511201,1867,1,196248,241471,0.61,-0.90,9.85,0.01,-0.08,0.00,27.29
25551168,1858,1,196399,241924,-0.03,-2.32,10.48,-0.03,0.02,0.06,27.29
25590180,1869,1,196014,240786,0.39,-0.74,9.57,0.01,-0.04,-0.00,27.29
25630178,1875,1,195901,240707,0.12,-2.14,10.63,-0.05,-0.04,0.17,27.29
25670181,1874,1,195969,240402,0.63,-1.21,8.82,-0.02,-0.03,0.13,27.29
25710181,1729,1,195586,237138,0.20,-1.07,9.49,-0.02,0.00,0.01,27.29
25750172,1604,1,194557,235633,0.43,-0.81,10.26,-0.00,0.02,0.05,27.29
25790167,1535,1,194403,238087,0.46,-1.52,10.30,-0.03,-0.03,-0.00,27.29
25830201,1535,1,194897,238541,0.36,-1.09,9.06,-0.02,0.09,-0.01,27.29
25870178,1629,1,194490,238506,0.12,-0.91,9.98,-0.01,-0.09,-0.00,27.29
25910201,1703,1,194808,238686,0.60,-0.69,10.63,-0.02,0.02,-0.00,27.29
25950178,1777,1,194848,239334,0.10,-1.12,10.01,-0.03,-0.05,0.02,27.29
25990180,1849,1,195105,239739,0.78,-1.12,9.75,0.02,-0.03,0.00,27.29
26030168,1885,1,195272,239897,0.44,-1.59,9.71,-0.05,-0.07,-0.00,27.29
26070200,1935,1,195350,238938,0.80,-0.91,9.19,-0.04,-0.05,-0.00,27.29
26110198,1968,1,195328,238814,0.32,-1.22,10.59,-0.05,-0.00,-0.01,27.29
26150202,1970,1,195311,239094,0.86,-1.03,9.53,-0.02,-0.06,-0.00,27.29
26190200,1973,1,195831,239836,0.05,-1.46,9.67,-0.08,-0.01,-0.00,27.29
26230201,2001,1,195922,240123,0.64,-0.87,10.07,-0.01,-0.03,0.00,27.29
26270865,1997,1,196265,240944,0.11,-0.95,11.30,-0.03,0.02,0.01,27.43
26309172,1999,1,196255,239728,0.48,-0.65,10.21,-0.03,-0.02,0.03,27.43
26349181,2003,1,195243,235627,0.50,-1.10,10.00,-0.02,-0.03,-0.00,27.43
26389201,1978,1,194224,233045,0.48,-0.59,9.12,-0.01,0.00,-0.00,27.43
26429178,1936,1,193682,232406,0.59,-1.44,10.02,-0.05,-0.02,0.14,27.43
26469180,1946,1,194024,233627,0.13,-1.26,9.22,-0.03,0.04,0.01,27.43
26509172,1986,1,194012,235549,0.97,-2.03,9.74,0.00,-0.08,0.00,27.43
26549172,1995,1,194927,237179,0.49,-1.74,8.74,-0.04,-0.00,-0.00,27.43
26589214,2013,1,194805,236006,0.59,-1.77,9.60,-0.07,-0.09,0.00,27.43
26629180,2042,1,194959,237795,0.42,-1.30,10.45,-0.04,0.06,0.01,27.43
26669171,2018,1,194746,237384,0.32,-0.65,10.00,-0.01,-0.07,0.00,27.43
26709181,1998,1,195202,240230,0.44,-1.10,10.10,-0.04,0.02,-0.00,27.43
26749178,1993,1,195162,240290,1.00,-0.09,9.13,0.02,-0.08,-0.05,27.43
26789207,1987,1,195441,240708,0.02,-0.93,11.34,-0.04,0.15,-0.01,27.43
26829181,1968,1,195107,240564,0.47,-0.73,9.92,0.01,-0.02,-0.03,27.43
26869181,1953,1,195043,240456,0.46,-1.90,9.88,-0.03,-0.01,-0.01,27.43
26909200,1937,1,195109,240559,0.55,-1.00,9.33,-0.03,-0.08,-0.01,27.43
26949200,1911,1,195212,239168,0.61,-1.05,9.98,-0.05,-0.04,-0.00,27.43
26989217,1886,1,194445,237645,0.56,-1.00,9.65,-0.02,0.00,0.00,27.43
27029172,1872,1,194504,237726,0.43,-1.66,9.47,-0.04,-0.02,-0.00,27.43
27069200,1862,1,194483,237951,0.38,-1.29,9.67,-0.08,-0.02,-0.00,27.43
27109201,1840,1,194617,237470,0.65,-0.88,9.63,-0.05,-0.02,-0.00,27.43
27149198,1802,1,194649,238577,0.65,-1.57,10.80,-0.05,-0.04,0.00,27.43
27189180,1797,1,195462,239300,0.59,-1.38,9.32,-0.06,-0.04,-0.00,27.43
27229200,1780,1,195304,238408,0.75,-0.94,9.46,-0.03,-0.09,0.01,27.43
27269180,1767,1,195603,239102,0.39,-1.56,9.73,-0.05,0.01,0.01,27.43
27309858,1758,1,195442,238610,0.62,-0.35,10.41,-0.04,-0.03,-0.01,27.35
27350200,1750,1,195463,239001,0.18,-1.14,9.14,-0.02,0.06,-0.01,27.35
27390180,1744,1,195186,238714,0.91,-0.90,9.93,0.00,-0.07,-0.00,27.35
27428180,1760,1,195495,240072,0.46,-1.47,8.23,-0.03,-0.01,-0.01,27.35
27468201,1780,1,195774,241473,1.04,-0.84,9.05,-0.02,-0.03,-0.09,27.35
27508201,1798,1,196150,242484,0.49,-1.76,9.29,0.00,0.00,-0.10,27.35
27548168,1802,1,196238,242641,0.19,-1.14,9.79,-0.01,0.00,-0.03,27.35
27588180,1814,1,195721,241445,0.88,-1.37,8.56,-0.01,-0.06,-0.02,27.35
27628200,1840,1,195169,240310,0.51,-1.97,10.47,-0.02,0.01,-0.01,27.35
27668181,1865,1,194611,239018,1.07,-1.41,9.94,-0.01,-0.12,-0.00,27.35
27708200,1872,1,194621,240199,0.09,-1.36,10.11,-0.02,0.02,-0.00,27.35
27748180,1871,1,194794,240317,0.53,-1.21,9.61,0.01,-0.03,-0.01,27.35
27788181,1865,1,194758,240995,0.16,-1.13,11.10,-0.03,-0.01,-0.00,27.35
27828201,1879,1,195088,241009,0.34,-0.83,9.73,-0.02,-0.01,-0.01,27.35
27868200,1902,1,195096,241252,0.51,-0.69,11.54,0.00,-0.04,-0.00,27.35
27908181,1890,1,195275,240916,0.45,-1.62,9.61,-0.03,-0.06,-0.00,27.35
27948201,1890,1,195214,240871,0.50,-0.58,10.23,-0.02,-0.03,0.04,27.35
27988180,1894,1,195037,239361,0.29,-1.07,9.13,-0.00,-0.03,0.00,27.35
28028178,1879,1,194744,238210,-0.11,-1.03,10.42,-0.06,0.02,0.29,27.35
28068181,1846,1,194904,238371,0.60,-1.40,9.90,-0.01,-0.02,0.01,27.35
28108178,1857,1,194801,237247,1.01,-1.35,9.69,-0.02,-0.12,0.02,27.35
28148180,1854,1,195068,239180,0.92,-1.54,7.86,-0.09,-0.06,0.12,27.35
28188181,1846,1,195929,240062,0.59,-1.24,8.38,-0.10,0.03,-0.05,27.35
28228218,1850,1,195848,238566,0.43,-1.15,10.77,-0.06,0.02,-0.00,27.35
28268181,1847,1,195458,238175,0.30,-1.02,10.28,-0.05,-0.02,0.00,27.35
28308181,1857,1,195583,239758,0.71,-2.04,10.67,-0.03,0.00,-0.00,27.35
28348864,1858,1,195285,237645,1.00,-0.95,10.08,0.00,-0.11,-0.04,27.41
28389180,1849,1,195207,239576,0.39,-1.48,9.89,-0.06,0.06,-0.00,27.41
28429183,1843,1,195150,237972,0.61,-0.61,9.33,0.00,0.00,-0.15,27.41
28469172,1814,1,194581,239346,-0.06,-1.29,11.43,-0.03,0.07,0.01,27.41
28509181,1796,1,194251,238736,0.38,-0.50,8.36,0.05,-0.03,-0.24,27.41
28549180,1793,1,193949,238650,0.26,-1.39,10.98,-0.03,0.02,-0.01,27.41
28589181,1809,1,193972,238399,0.62,-0.89,9.61,-0.00,-0.07,-0.00,27.41
28629201,1797,1,194086,239208,0.63,-1.01,9.80,-0.03,-0.02,0.00,27.41
28669178,1837,1,194427,240465,0.39,-1.40,9.93,-0.02,0.06,-0.00,27.41
28709181,1852,1,194528,240462,0.75,-1.83,9.54,-0.07,-0.06,-0.00,27.41
28749201,1861,1,194599,240529,0.68,-1.77,10.01,-0.05,0.01,-0.00,27.41
28789180,1891,1,194437,239225,0.65,-1.21,10.23,-0.05,-0.05,-0.00,27.41
28827201,1903,1,194442,239214,0.50,-1.72,10.18,-0.06,-0.05,-0.00,27.41
28867201,1910,1,194165,237571,0.60,-1.13,9.64,0.01,0.00,-0.07,27.41
28907169,1904,1,193958,238904,0.49,-1.62,10.56,-0.04,-0.05,-0.01,27.41
28947201,1917,1,194493,239366,0.31,-1.40,9.70,-0.03,-0.00,-0.10,27.41
28987197,1933,1,194107,238488,0.60,-1.67,11.06,-0.02,-0.05,-0.01,27.41
29027204,1952,1,194127,238457,0.67,-1.58,9.77,-0.04,-0.02,-0.00,27.41
29067201,1965,1,193838,238623,0.35,-1.63,9.14,-0.04,-0.03,-0.00,27.41
29107201,1967,1,194210,239336,0.69,-0.43,11.00,-0.01,-0.00,-0.01,27.41
29147197,1951,1,194108,239306,0.41,-0.99,9.94,-0.03,-0.07,0.00,27.41
29187181,1910,1,194315,239430,0.48,-1.05,9.84,-0.02,0.01,-0.01,27.41
29227181,1880,1,193793,237709,0.33,-0.74,10.23,-0.01,-0.08,0.00,27.41
29267180,1855,1,193563,237661,0.29,-1.24,8.85,-0.06,0.05,0.10,27.41
29307172,1835,1,193795,237783,0.73,-0.44,9.56,-0.01,-0.05,-0.00,27.41
29347201,1834,1,194436,239229,0.20,-1.45,10.99,-0.06,0.03,0.05,27.41
29387858,1818,1,194735,239876,0.48,-0.74,8.96,-0.00,-0.02,0.00,27.53
29428180,1827,1,195074,240630,0.66,-1.79,11.50,-0.05,0.03,-0.00,27.53
29468181,1823,1,194710,240804,0.59,-2.09,8.37,-0.03,-0.06,0.00,27.53
29508181,1840,1,194631,238779,0.49,-1.95,9.48,-0.04,-0.00,-0.13,27.53
29548201,1831,1,194327,239471,0.13,-1.03,10.83,-0.07,0.04,-0.00,27.53
29588180,1830,1,194701,239624,0.61,-1.82,10.15,-0.04,0.01,-0.03,27.53
29628180,1837,1,194958,240513,0.26,-1.40,11.55,-0.03,0.04,-0.00,27.53
29667180,1818,1,194863,239479,0.23,-1.64,9.12,-0.04,0.01,-0.01,27.53
29707181,1817,1,194614,239544,0.15,-1.92,10.62,-0.02,-0.01,-0.00,27.53
29747201,1833,1,194359,238701,0.90,-1.22,9.65,-0.01,-0.07,-0.00,27.53
29787198,1825,1,194481,239098,0.40,-2.22,9.64,-0.05,-0.03,-0.00,27.53
29827201,1842,1,194690,239261,0.93,-1.21,9.71,0.00,-0.07,-0.00,27.53
29867200,1837,1,195064,240364,-0.06,-1.50,10.10,-0.07,-0.00,-0.00,27.53
29907215,1842,1,195244,240414,0.52,-0.74,9.69,0.02,-0.01,-0.00,27.53
29947178,1858,1,195236,240597,-0.10,-1.10,10.58,-0.05,0.04,-0.00,27.53
29987201,1891,1,195301,241228,0.68,-0.68,10.21,0.01,0.01,-0.00,27.53
30027172,1872,1,195549,241429,0.33,-1.34,9.60,0.01,-0.01,-0.00,27.53
30067198,1862,1,195755,243193,1.02,-1.49,9.76,-0.02,-0.05,-0.00,27.53
30107201,1859,1,195849,242914,1.36,-0.98,7.71,-0.01,-0.11,-0.08,27.53
30147201,1866,1,195838,241740,-0.18,-0.88,9.52,-0.10,0.10,-0.01,27.53
30187200,1869,1,195099,239805,0.53,-1.07,9.68,-0.06,0.01,-0.06,27.53
30227180,1872,1,194861,240965,0.83,-1.31,11.64,-0.06,-0.00,-0.01,27.53
30267207,1845,1,194887,240510,0.85,-0.73,8.00,-0.03,-0.10,-0.07,27.53
30307201,1858,1,195410,241531,0.32,-1.27,10.92,-0.08,0.08,-0.01,27.53
30347181,1854,1,195468,241828,0.47,-1.07,9.35,-0.07,0.01,-0.01,27.53
30387181,1859,1,195767,241821,0.10,-1.65,10.91,-0.08,0.10,-0.01,27.53
30427867,1851,1,195563,241446,0.69,-1.74,10.18,-0.07,-0.04,-0.01,27.49
30466201,1875,1,195048,240287,0.61,-2.16,9.17,-0.06,-0.08,-0.01,27.49
30506201,1861,1,195342,240991,0.30,-1.58,9.76,-0.07,0.04,-0.01,27.49
30546181,1874,1,195533,240818,0.18,-1.09,10.39,-0.09,0.01,-0.01,27.49
30586181,1887,1,195776,242348,0.17,-1.41,11.23,-0.03,0.07,-0.01,27.49
30626181,1883,1,195584,241318,0.34,-1.53,9.43,-0.04,-0.05,-0.01,27.49
30666201,1874,1,195492,241762,0.06,-2.41,9.69,-0.05,0.06,-0.00,27.49
30706180,1887,1,195207,241731,0.47,-1.34,8.72,-0.02,-0.07,-0.01,27.49
30746200,1903,1,195616,242356,0.24,-1.94,9.99,-0.06,0.09,-0.02,27.49
30786180,1902,1,195214,242156,0.47,-1.64,10.24,-0.01,-0.03,-0.02,27.49
30826201,1911,1,194914,241573,0.46,-1.66,9.31,-0.00,-0.04,-0.15,27.49
30866200,1918,1,194732,242265,0.00,-1.58,11.27,-0.01,0.03,-0.01,27.49
30906181,1891,1,194502,241147,0.53,-0.39,8.81,0.01,-0.06,-0.17,27.49
30946181,1791,1,194360,241681,0.05,-1.47,11.20,-0.04,0.04,-0.01,27.49
30986181,1732,1,194413,241770,0.82,-0.18,9.90,0.03,-0.12,-0.01,27.49
31026185,1712,1,194773,242088,-0.04,-1.40,11.47,-0.03,0.09,-0.01,27.49
31066201,1670,1,194341,241800,0.79,-1.01,8.98,0.04,-0.12,-0.01,27.49
31106180,1663,1,194510,241723,0.05,-1.42,9.61,-0.06,0.06,-0.01,27.49
31146181,1664,1,194255,241139,1.05,-0.63,9.45,0.02,-0.14,-0.01,27.49
31186181,1701,1,194536,241196,0.28,-1.20,9.91,-0.08,0.01,-0.01,27.49
31226181,1718,1,194783,242057,0.70,-0.65,10.14,-0.00,-0.03,-0.01,27.49
31266201,1729,1,194938,241081,0.21,-0.70,9.57,-0.04,0.02,-0.01,27.49
31306178,1758,1,194638,241394,1.14,-0.52,9.48,-0.04,-0.00,0.17,27.49
31346181,1829,1,194887,240844,0.50,-1.85,8.26,-0.07,-0.04,-0.01,27.49
31386201,1893,1,194687,240330,0.88,-0.13,9.22,-0.03,-0.06,-0.01,27.49
31426201,1914,1,194753,240453,0.96,-1.43,9.51,-0.06,0.00,0.00,27.49
31466855,1941,1,194821,239960,0.69,-0.25,9.23,-0.03,0.02,-0.04,27.53
31507180,1967,1,194668,240504,0.92,-2.01,10.23,-0.06,-0.06,-0.01,27.53
31547201,1983,1,194720,240367,0.31,-0.84,9.07,-0.03,0.01,-0.01,27.53
31587181,1995,1,194588,238845,0.50,-0.93,10.07,-0.06,-0.01,-0.01,27.53
31627201,1998,1,193796,236988,1.02,0.53,7.99,-0.05,0.00,0.23,27.53
31667149,2009,1,194489,239998,0.73,-1.66,10.92,-0.08,0.05,0.03,27.53
31705196,2076,1,195044,240441,0.70,-1.07,8.53,-0.01,-0.04,-0.05,27.53
31745201,2111,1,195105,241885,0.51,-1.86,9.27,-0.06,-0.02,-0.00,27.53
31785201,2112,1,195823,242597,0.49,-2.51,9.49,-0.07,0.05,-0.12,27.53
31825180,2117,1,195279,241060,0.79,-0.71,9.84,-0.06,-0.04,-0.05,27.53
31865201,2115,1,195253,240964,0.66,-1.38,10.12,-0.08,-0.01,0.01,27.53
31905202,2090,1,195565,241936,0.44,-1.02,10.69,-0.06,0.03,-0.01,27.53
31945181,2066,1,195877,241582,-0.03,-1.28,9.95,-0.06,0.08,-0.01,27.53
31985201,2045,1,195375,241420,0.59,-1.36,10.21,0.00,-0.02,0.00,27.53
32025182,2033,1,195805,240994,0.27,-1.80,9.75,-0.05,0.04,-0.01,27.53
32065180,2015,1,194723,237166,0.92,-0.85,8.12,-0.03,-0.15,-0.00,27.53
32105201,1985,1,194227,237755,0.65,-1.71,10.68,-0.07,0.02,0.06,27.53
32145172,1938,1,194965,240417,0.26,-1.38,9.91,-0.01,0.00,-0.15,27.53
32185181,1902,1,195937,242690,0.23,-2.16,11.59,-0.06,0.01,-0.01,27.53
32225180,1863,1,195862,240625,0.32,-0.77,9.81,0.01,-0.06,-0.02,27.53
32265181,1861,1,195548,239475,-0.16,-2.68,11.16,-0.07,0.01,0.24,27.53
32305181,1870,1,194954,237066,0.42,-1.07,9.39,-0.01,-0.04,-0.01,27.53
32345201,1867,1,195027,239560,0.35,-1.52,11.82,-0.04,-0.01,0.05,27.53
32385180,1847,1,195612,240683,0.07,-1.73,8.78,0.00,0.01,0.00,27.53
32425149,1843,1,195874,240413,0.36,-1.79,10.10,-0.04,-0.07,0.00,27.53
32465180,1841,1,196165,241014,0.21,-2.04,10.06,-0.05,0.04,0.11,27.53
32505858,1821,1,196406,240917,0.77,-1.66,9.73,-0.05,-0.08,-0.01,27.43
32546201,1824,1,196536,241324,0.58,-1.36,9.90,-0.06,-0.01,-0.01,27.43
32586200,1819,1,196756,241992,0.69,-1.31,9.73,-0.06,-0.03,-0.01,27.43
32626201,1808,1,197673,244062,-0.22,-1.45,11.78,-0.05,0.12,-0.01,27.43
32666201,1797,1,197209,243057,0.90,-0.82,9.86,0.02,-0.10,-0.03,27.43
32706180,1810,1,197334,244182,0.17,-1.67,11.10,-0.04,0.04,-0.01,27.43
32746181,1792,1,196498,241387,0.78,-0.95,8.18,0.01,-0.09,-0.05,27.43
32786181,1797,1,196364,241875,0.77,-1.42,10.97,-0.08,0.01,-0.01,27.43
32826180,1803,1,196713,242291,0.72,-0.77,10.15,-0.03,-0.02,-0.00,27.43
32866201,1805,1,196743,241064,-0.08,-1.84,10.60,-0.07,0.03,-0.00,27.43
32906200,1791,1,195684,239339,0.58,-1.36,10.35,-0.01,-0.06,0.01,27.43
32946180,1777,1,195755,240234,0.37,-1.44,9.68,-0.01,0.02,0.01,27.43
32984171,1804,1,195560,239362,1.00,-1.25,9.07,-0.00,-0.11,0.00,27.43
33024197,1808,1,195717,239743,0.23,-1.98,8.53,-0.05,0.00,0.03,27.43
33064168,1791,1,196501,242351,0.61,-0.92,11.44,-0.04,0.01,0.00,27.43
33104172,1831,1,196489,242318,0.75,-1.62,10.45,0.01,-0.07,0.00,27.43
33144171,1833,1,196803,243736,0.53,-2.21,9.93,-0.03,-0.03,0.00,27.43
33184180,1838,1,197207,243324,0.47,-1.37,9.62,-0.03,-0.03,-0.01,27.43
33224201,1840,1,196788,243575,0.52,-1.44,10.31,-0.02,-0.04,0.01,27.43
33264180,1857,1,197238,244461,0.43,-1.15,10.62,-0.01,0.03,-0.01,27.43
33304180,1907,1,197163,244152,0.36,-1.09,11.24,-0.03,-0.00,-0.09,27.43
33344204,1926,1,196392,241991,0.38,-1.19,9.82,0.03,-0.07,-0.01,27.43
33384181,1951,1,195718,241607,0.45,-1.77,10.39,-0.03,-0.01,0.00,27.43
33424181,1952,1,195237,239330,0.91,-1.56,8.46,-0.02,-0.09,-0.02,27.43
33464200,1937,1,195240,239558,0.66,-1.47,10.17,-0.09,-0.02,0.10,27.43
33504180,1936,1,195126,238770,1.07,-0.97,8.45,-0.05,-0.08,0.02,27.43
33544864,1947,1,195238,237976,0.15,-0.53,9.76,-0.10,0.08,0.01,27.47
33585172,1941,1,195071,239245,0.57,-1.85,10.57,-0.07,0.01,0.06,27.47
33625172,1929,1,195770,239797,0.37,-1.36,10.21,-0.04,0.04,0.00,27.47
33665172,1931,1,195602,240095,0.23,-1.29,8.98,-0.03,0.02,0.16,27.47
33705172,1921,1,196116,241905,0.90,-1.51,10.21,-0.03,0.02,-0.00,27.47
33745180,1919,1,196596,242470,0.25,-1.60,9.57,-0.03,0.01,-0.00,27.47
33785181,1901,1,196384,242447,0.82,-1.24,9.85,-0.02,-0.07,-0.01,27.47
33825201,1900,1,196953,243872,0.50,-2.25,11.42,-0.04,0.05,-0.04,27.47
33865181,1895,1,196704,243503,0.31,-1.49,9.33,0.02,-0.03,-0.02,27.47
33905180,1883,1,196809,244025,0.50,-1.64,10.70,-0.05,0.01,-0.00,27.47
33945181,1889,1,196839,244284,0.15,-1.91,9.49,-0.03,0.01,0.00,27.47
33985172,1874,1,196424,241679,0.75,-0.72,9.86,-0.05,-0.04,-0.01,27.47
34025220,1872,1,195655,241646,0.04,-1.74,10.83,-0.06,0.06,-0.00,27.47
34065180,1845,1,195710,240548,0.74,-0.81,10.13,-0.04,-0.03,-0.01,27.47
34105201,1831,1,195182,240012,0.40,-1.41,10.55,-0.06,-0.02,0.01,27.47
34145180,1811,1,195371,239681,0.68,-1.42,9.17,-0.06,-0.02,0.04,27.47
34185181,1846,1,195424,240360,0.60,-1.45,9.90,-0.07,-0.01,0.04,27.47
34225180,1844,1,195641,241409,0.82,-2.02,9.02,-0.07,-0.03,0.00,27.47
34265178,1854,1,196019,241206,0.50,-1.11,9.42,-0.08,-0.02,-0.01,27.47
34305201,1847,1,195710,240161,0.40,-1.32,9.21,-0.07,-0.02,0.00,27.47
34343178,1856,1,195859,240360,0.46,-1.55,11.00,-0.07,0.02,0.03,27.47
34383172,1831,1,196025,241876,-0.33,-1.56,9.65,-0.03,0.08,0.01,27.47
34423181,1838,1,196457,242418,0.58,-1.60,10.46,0.00,-0.02,-0.10,27.47
34463181,1811,1,196550,243900,-0.07,-2.08,9.31,-0.02,0.03,0.00,27.47
34503178,1829,1,196372,241807,0.96,-0.40,7.83,-0.01,-0.08,-0.12,27.47
34543201,1815,1,195888,242500,-0.28,-2.12,10.09,-0.08,0.06,0.08,27.47
34583867,1806,1,196214,242813,0.88,-0.91,9.07,-0.03,0.03,-0.02,27.47
34624180,1839,1,196552,243834,0.19,-1.19,12.05,-0.07,0.09,-0.00,27.47
34664180,1846,1,196057,243137,0.56,-1.14,9.04,0.03,-0.06,0.00,27.47
34704172,1847,1,196077,243002,0.02,-1.75,10.86,-0.06,0.06,-0.00,27.47
34744181,1840,1,195381,241829,0.85,-1.26,9.49,0.01,-0.06,-0.00,27.47
34784180,1849,1,195759,242253,0.33,-1.40,10.06,-0.09,0.03,-0.00,27.47
34824181,1840,1,195983,242862,0.47,-0.79,10.23,-0.03,0.01,-0.00,27.47
34864180,1837,1,196576,243582,0.13,-0.96,11.13,-0.06,0.03,-0.00,27.47
34904180,1851,1,196077,241567,0.49,-0.66,10.35,-0.02,-0.04,0.00,27.47
34944180,1862,1,195485,239182,0.73,-1.65,9.50,-0.07,-0.02,0.20,27.47
34984221,1857,1,195261,238219,0.48,-0.91,8.55,-0.05,-0.01,0.16,27.47
35024196,1874,1,195613,240736,0.74,-1.50,8.96,-0.03,0.01,-0.00,27.47
35064181,1891,1,196324,242222,0.77,-0.90,8.72,-0.03,-0.05,-0.16,27.47
35104201,1895,1,196475,242733,0.33,-0.66,9.77,-0.02,-0.02,-0.04,27.47
35144200,1903,1,196318,241713,0.68,-0.20,9.06,-0.02,-0.03,-0.05,27.47
35184238,1904,1,196514,242207,0.37,-1.23,10.18,-0.05,0.04,-0.01,27.47
35224181,1890,1,196687,243191,0.96,-0.92,9.76,0.00,-0.05,-0.00,27.47
35264180,1897,1,197080,244795,0.46,-1.46,10.51,0.01,0.03,-0.03,27.47
35304172,1879,1,196517,243689,1.01,-0.32,8.98,0.04,-0.02,-0.39,27.47
35344180,1815,1,195922,243726,0.17,-1.71,11.31,-0.05,0.00,-0.02,27.47
35384181,1802,1,195739,242323,0.53,-0.55,10.82,0.03,-0.07,-0.16,27.47
35424180,1770,1,194654,240547,0.81,-0.25,9.91,-0.01,-0.11,0.01,27.47
35464181,1769,1,194327,239046,0.79,-0.88,8.60,-0.02,-0.06,0.07,27.47
35504180,1756,1,194433,240359,0.25,-1.73,10.02,-0.05,0.03,0.17,27.47
35544171,1780,1,194421,239329,0.85,-0.72,8.19,0.00,-0.08,0.00,27.47
35584858,1821,1,194592,240218,-0.02,-1.57,10.30,-0.07,0.04,0.13,27.43
35623181,1839,1,194818,239082,0.59,-1.31,8.88,-0.04,-0.06,-0.00,27.43
35663200,1862,1,195043,240769,0.56,-0.81,11.55,-0.07,0.00,0.24,27.43
35703172,1923,1,195947,241936,0.45,-1.59,9.17,-0.03,0.01,0.00,27.43
35743172,1968,1,196222,243017,0.53,-1.23,11.49,-0.03,-0.04,-0.00,27.43
35783201,2029,1,196666,243199,0.57,-1.75,10.66,-0.02,-0.01,-0.01,27.43
35823201,2064,1,196211,242493,0.31,-0.99,10.37,-0.02,-0.06,-0.00,27.43
35863201,2059,1,195979,241397,0.70,-1.67,10.08,-0.01,-0.01,-0.01,27.43
35903201,2058,1,195588,241416,0.74,-1.47,10.29,-0.05,-0.05,-0.00,27.43
35943200,2042,1,195758,241112,0.07,-1.92,9.33,0.01,-0.05,-0.23,27.43
35983180,2023,1,195417,241082,0.39,-0.85,10.46,-0.04,-0.02,-0.01,27.43
36023200,2006,1,195600,240657,0.36,-1.31,10.22,-0.03,0.01,-0.01,27.43
36063181,1985,1,195145,240444,0.12,-1.36,9.01,-0.02,-0.06,0.00,27.43
36103178,1971,1,196071,241895,0.52,-1.73,10.50,-0.08,0.05,-0.01,27.43
36143180,1939,1,195750,242688,0.35,-1.31,9.29,0.01,-0.09,0.00,27.43
36183172,1935,1,196327,242973,0.77,-1.85,9.33,-0.08,0.04,-0.01,27.43
36223181,1895,1,195726,242805,0.35,-0.78,9.55,-0.02,-0.06,-0.00,27.43
36263200,1901,1,195889,241582,0.36,-1.26,8.52,-0.09,0.06,-0.01,27.43
36303180,1900,1,195526,241972,0.50,-0.91,10.53,-0.06,-0.01,-0.00,27.43
36343201,1856,1,195808,241617,0.88,-1.02,8.64,-0.02,-0.01,-0.01,27.43
36383201,1858,1,195530,241762,0.30,-1.05,9.62,-0.05,0.02,0.00,27.43
36423168,1812,1,195682,242299,0.18,-2.60,8.41,-0.06,0.03,-0.01,27.43
36463180,1829,1,195467,242445,1.21,0.06,10.43,-0.02,-0.04,-0.09,27.43
36503180,1866,1,195679,242730,0.21,-1.68,7.88,-0.06,0.03,-0.01,27.43
36543181,1878,1,195401,242278,0.72,-0.40,9.96,-0.03,-0.02,-0.03,27.43
36583198,1883,1,195634,242480,0.02,-2.33,11.14,-0.03,0.11,-0.12,27.43
36623914,1877,1,194641,241218,0.56,-0.16,9.42,0.03,-0.06,-0.04,27.63
36662181,1882,1,194662,241113,0.19,-2.21,10.37,-0.08,0.17,-0.03,27.63
36702180,1883,1,194111,240658,0.52,-0.95,9.27,0.02,-0.07,-0.04,27.63
36742181,1888,1,194567,241503,0.14,-1.60,10.56,-0.08,0.09,-0.02,27.63
36782180,1857,1,194509,241671,0.33,-0.97,9.15,0.03,-0.05,-0.00,27.63
36822216,1871,1,194879,242359,0.50,-1.33,11.26,-0.07,0.03,-0.02,27.63
36862180,1840,1,195057,242452,-0.10,-1.30,10.33,-0.01,-0.00,-0.01,27.63
36902213,1823,1,194802,240823,0.42,-1.27,10.27,-0.05,-0.04,-0.01,27.63
36942201,1846,1,194557,241095,-0.08,-1.61,11.60,-0.03,0.03,0.22,27.63
36982180,1833,1,194978,240843,0.81,-2.17,9.91,-0.04,-0.09,-0.01,27.63
37022211,1807,1,194840,240407,0.20,-1.00,10.76,-0.03,-0.04,-0.00,27.63
37062201,1808,1,194625,239283,0.69,-1.80,9.16,-0.04,-0.07,0.08,27.63
37102180,1788,1,194264,238482,0.51,-0.99,9.60,-0.05,-0.03,-0.01,27.63
37142198,1730,1,194119,236360,0.41,-1.57,8.23,-0.05,-0.07,-0.01,27.63
37182201,1705,1,193644,235167,0.71,-1.12,10.37,-0.06,0.00,-0.01,27.63
37222181,1727,1,193473,234717,0.32,-1.40,8.43,-0.06,-0.00,-0.01,27.63
37262201,1718,1,193840,236237,0.14,-0.96,10.51,-0.04,0.05,0.01,27.63
37302172,1731,1,193970,235626,0.41,-1.14,9.81,-0.03,0.03,-0.01,27.63
37342180,1765,1,193885,236567,0.36,-1.71,9.46,-0.07,0.06,-0.01,27.63
37382180,1776,1,193967,236940,0.64,-0.93,9.09,-0.01,-0.01,-0.01,27.63
37422201,1808,1,194316,239252,0.49,-1.52,9.12,-0.05,0.06,-0.01,27.63
37462181,1829,1,194560,239482,0.75,-0.78,9.06,-0.03,-0.06,-0.11,27.63
37502201,1854,1,194962,240862,-0.29,-1.77,10.23,-0.07,0.13,-0.03,27.63
37542201,1880,1,194852,240370,0.79,0.02,9.84,-0.01,-0.04,-0.08,27.63
37582180,1878,1,194993,240919,0.01,-1.59,11.13,-0.04,0.03,-0.01,27.63
37622181,1904,1,195065,241500,0.73,-0.59,9.93,0.01,-0.06,-0.01,27.63
37662867,1891,1,195265,241184,0.26,-1.56,10.60,-0.02,-0.00,-0.00,27.41
37701200,1927,1,194378,239932,1.08,-1.23,8.62,-0.01,-0.14,-0.00,27.41
37741200,1915,1,194679,239891,0.73,-0.92,10.23,-0.09,0.05,-0.01,27.41
37781181,1938,1,194350,238644,0.43,-0.31,9.35,0.01,-0.09,-0.00,27.41
37821180,1953,1,194302,236474,0.92,-1.68,10.69,-0.09,0.05,-0.00,27.41
37861181,1953,1,193814,235671,-0.01,-1.09,10.02,-0.03,-0.02,0.06,27.41
37901201,1969,1,193766,234280,0.17,-1.49,10.13,-0.03,0.01,0.03,27.41
37941172,1930,1,193480,234572,0.06,-2.39,10.92,-0.04,0.02,0.14,27.41
37981172,1809,1,193417,233438,0.67,-1.57,8.77,-0.03,-0.08,-0.00,27.41
38021200,1744,1,193784,235660,-0.29,-2.27,10.28,-0.06,0.01,0.07,27.41
38061180,1694,1,194474,236457,0.85,-1.53,8.38,-0.02,-0.03,-0.01,27.41
38101200,1686,1,194705,237520,0.05,-1.29,10.57,-0.07,0.03,-0.01,27.41
38141180,1690,1,194885,238962,0.36,-1.18,9.24,-0.03,-0.01,-0.01,27.41
38181201,1728,1,195421,239410,0.24,-1.06,10.33,-0.04,0.01,-0.09,27.41
38221180,1746,1,195238,239470,0.89,-1.04,9.45,0.00,-0.05,-0.00,27.41
38261178,1765,1,195646,240666,0.14,-1.61,9.00,-0.04,0.04,-0.01,27.41
38301180,1742,1,195453,240028,0.81,-0.50,9.24,-0.03,-0.04,-0.04,27.41
38341201,1747,1,195602,241445,0.06,-1.50,10.18,-0.05,0.01,-0.01,27.41
38381180,1787,1,195558,240309,1.50,-0.06,9.63,-0.00,-0.10,-0.10,27.41
38421198,1808,1,194916,235184,0.12,-1.24,9.05,-0.07,0.00,-0.01,27.41
38461220,1830,1,193898,233548,0.74,-0.76,11.13,-0.04,-0.02,0.06,27.41
38501181,1846,1,194096,233671,-0.06,-1.21,11.09,-0.03,0.02,0.01,27.41
38541180,1855,1,193810,233810,0.62,-1.29,9.58,-0.03,0.02,0.23,27.41
38581172,1744,1,194213,233675,-0.18,-1.65,9.99,-0.03,0.02,-0.01,27.41
38621201,1658,1,194019,233889,0.54,-0.71,10.79,0.00,-0.07,0.07,27.41
38661171,1645,1,194549,234766,0.15,-1.94,9.25,-0.03,0.02,0.03,27.41
38701858,1680,1,194948,236567,0.42,-1.41,10.07,-0.01,-0.03,-0.00,27.43
38740201,1679,1,195045,234701,0.26,-1.48,9.29,-0.05,-0.00,-0.01,27.43
38780201,1671,1,194596,235371,-0.34,-1.17,9.94,-0.03,0.07,0.07,27.43
38820181,1678,1,194695,234911,1.12,-1.32,9.09,0.02,-0.07,-0.01,27.43
38860180,1723,1,194752,237771,0.40,-2.03,9.52,-0.04,-0.01,0.01,27.43
38900181,1677,1,195803,238410,0.37,-1.53,7.84,-0.04,-0.01,-0.02,27.43
38940200,1679,1,195707,239611,0.10,-1.19,11.79,-0.04,-0.03,0.00,27.43
38980178,1741,1,195879,240208,0.56,-1.52,8.06,-0.01,-0.05,-0.01,27.43
39020201,1796,1,196083,239205,0.23,-0.18,10.04,-0.06,0.06,-0.02,27.43
39060181,1883,1,194953,233561,0.81,-0.94,8.80,-0.03,-0.01,-0.00,27.43
39100232,2012,1,194589,235931,0.03,-1.08,12.20,-0.07,0.08,0.03,27.43
39140167,2112,1,194819,235767,0.88,-0.19,8.81,0.04,-0.03,-0.23,27.43
39180180,2211,1,194902,238008,0.10,-1.36,12.31,-0.07,0.03,-0.01,27.43
39220181,2197,1,194683,236428,0.69,-1.38,8.58,0.01,-0.06,-0.11,27.43
39260180,2167,1,194660,238033,-0.21,-1.88,10.41,-0.08,0.03,-0.01,27.43
39300201,2135,1,195174,239246,1.11,-0.68,9.83,0.00,-0.07,-0.09,27.43
39340181,2130,1,196062,241381,-0.90,-1.50,11.08,-0.08,0.08,-0.01,27.43
39380198,1979,1,195641,239544,1.24,0.04,8.91,0.03,-0.07,-0.13,27.43
39420172,1735,1,195629,240748,-0.90,-1.97,12.02,-0.08,0.12,-0.01,27.43
39460201,1741,1,195084,238801,1.64,-0.18,8.77,0.03,-0.16,-0.10,27.43
39500181,1587,1,195169,241112,-0.09,-1.76,10.52,-0.10,0.02,-0.00,27.43
39540201,1559,1,195527,241118,0.54,-1.67,8.09,0.01,-0.06,-0.05,27.43
39580181,1535,1,195832,241733,-0.34,-1.06,11.81,-0.08,0.08,-0.01,27.43
39620201,1566,1,195408,240384,0.32,-1.18,9.15,-0.01,-0.06,-0.01,27.43
39660201,1614,1,195197,238924,0.12,-0.75,10.42,-0.05,0.01,0.18,27.43
39701195,1744,1,194992,237309,0.39,-1.99,9.38,-0.02,0.01,0.24,27.43
39741859,2218,1,194072,234162,0.79,-0.91,8.86,-0.00,-0.04,-0.00,27.47
39780198,2466,1,193594,234312,0.42,-1.57,9.59,-0.03,0.01,-0.01,27.47
39820180,2601,1,193600,236832,0.62,-1.21,9.64,-0.01,-0.04,-0.01,27.47
39860200,2637,1,194645,239211,0.36,-0.99,10.72,0.02,-0.05,-0.21,27.47
39900184,2623,1,194349,238552,0.71,-1.21,9.46,0.01,-0.12,-0.02,27.47
39940181,2607,1,194919,239674,0.36,-1.64,9.82,-0.04,0.03,-0.00,27.47
39980181,2541,1,194971,240482,0.19,-1.41,10.87,-0.05,0.03,-0.01,27.47
40020181,2466,1,194876,239246,0.16,-1.85,9.86,-0.03,-0.02,-0.04,27.47
40060201,2404,1,194493,239181,0.16,-1.35,11.29,-0.01,-0.01,-0.01,27.47
40100204,2316,1,194423,239374,0.42,-1.21,8.26,-0.01,-0.00,-0.01,27.47
40140201,2261,1,195006,240644,0.07,-1.91,11.00,-0.08,0.03,-0.01,27.47
40180181,2189,1,195138,240016,0.87,-1.02,9.28,-0.01,-0.12,-0.01,27.47
40220201,2125,1,195133,240459,0.52,-1.21,9.84,-0.07,-0.01,0.02,27.47
40260180,2035,1,195570,240616,0.62,-0.48,9.98,-0.06,0.01,-0.03,27.47
40300180,1957,1,195262,238851,-0.32,-0.53,9.37,-0.04,0.02,-0.01,27.47
40340201,1891,1,195292,239642,-0.11,-1.42,12.08,-0.01,0.06,0.10,27.47
40380180,1840,1,195222,238484,0.63,-0.98,9.48,0.03,-0.05,-0.01,27.47
40420180,1815,1,194547,235429,0.41,-1.28,9.57,-0.02,0.01,0.16,27.47
40460172,1786,1,194199,235133,0.50,-2.03,10.75,-0.02,-0.01,-0.01,27.47
40500201,1751,1,193988,234866,0.30,-1.26,9.32,-0.04,-0.03,-0.01,27.47
40540201,1706,1,194079,234249,0.48,-0.52,9.01,-0.03,-0.07,-0.01,27.47
40580201,1654,1,194289,235396,0.48,-1.88,11.16,-0.04,-0.00,0.17,27.47
40620180,1623,1,194467,236123,0.72,-1.28,8.86,-0.01,-0.03,-0.01,27.47
40660201,1616,1,194867,238109,-0.05,-1.78,10.08,-0.07,0.04,-0.01,27.47
40700201,1631,1,194677,238016,0.94,-1.01,9.56,0.01,-0.06,-0.03,27.47
40739181,1642,1,194919,239138,0.43,-1.90,9.20,-0.06,0.01,-0.01,27.47
40779867,1658,1,195568,240456,0.55,-1.17,9.03,-0.05,0.01,-0.01,27.55
40820181,1659,1,195580,239868,0.73,-1.18,10.27,-0.05,-0.04,-0.01,27.55
40860201,1672,1,195438,240983,-0.24,-1.81,8.91,-0.04,0.06,-0.01,27.55
40900201,1680,1,195609,241007,0.97,-0.33,11.29,-0.01,-0.06,-0.40,27.55
40940212,1700,1,195216,240373,0.19,-1.22,10.07,-0.02,-0.04,-0.01,27.55
40980201,1734,1,195291,240885,0.55,-1.82,11.01,-0.02,-0.05,-0.01,27.55
41020201,1761,1,195225,238874,0.59,-0.60,10.06,-0.00,-0.05,-0.01,27.55
41060197,1787,1,193972,235816,0.65,-0.99,10.59,-0.07,-0.01,0.27,27.55
41100181,1805,1,193878,236551,0.26,-1.60,9.86,-0.02,0.00,-0.05,27.55
41140181,1803,1,193852,237990,0.43,-1.24,10.72,-0.02,-0.03,-0.02,27.55
41180201,1811,1,194253,236654,0.14,-1.60,8.86,-0.04,-0.07,-0.01,27.55
41220201,1833,1,194117,237326,-0.53,-1.24,11.13,-0.04,0.03,0.22,27.55
41260181,1851,1,194193,237122,0.62,-1.61,8.85,-0.00,-0.01,-0.00,27.55
41300200,1851,1,194452,238817,-0.30,-1.14,10.96,-0.05,0.09,-0.02,27.55
41340201,1837,1,194352,237146,0.55,-0.90,8.76,0.02,-0.08,-0.02,27.55
41378178,1870,1,194629,239499,0.01,-1.75,11.61,-0.03,0.02,0.00,27.55
41418172,1861,1,194736,238914,0.93,-1.02,7.65,0.01,-0.08,-0.01,27.55
41458181,1862,1,194996,240015,0.24,-1.56,10.96,-0.09,0.00,-0.01,27.55
41498180,1867,1,195069,240484,0.76,-1.27,9.17,-0.02,-0.06,-0.01,27.55
41538243,1870,1,195442,240337,0.15,-1.86,11.06,-0.07,0.02,-0.07,27.55
41578180,1871,1,194955,239189,1.10,-1.12,9.44,-0.02,-0.12,-0.01,27.55
41618201,1895,1,195272,240190,0.05,-1.92,9.31,-0.08,0.02,0.03,27.55
41658172,1885,1,195429,241083,0.65,-0.36,10.08,-0.02,-0.02,-0.01,27.55
41698200,1898,1,195405,239325,-0.09,-1.81,10.10,-0.07,0.07,-0.06,27.55
41738237,1883,1,193696,233244,1.14,-0.67,8.87,-0.02,-0.11,-0.01,27.55
41778200,1872,1,192949,231878,0.02,-1.79,9.50,-0.09,0.01,0.11,27.55
41818858,1877,1,193458,234045,0.74,-1.13,11.46,-0.01,0.01,0.07,27.55
41859172,1905,1,193977,235642,0.23,-1.78,9.58,-0.03,-0.00,-0.16,27.55
41899201,1927,1,194478,239568,0.02,-1.09,10.32,-0.03,0.05,-0.01,27.55
41939195,1943,1,194973,237872,0.93,-0.06,8.87,0.01,-0.09,-0.22,27.55
41979180,1936,1,194787,238886,0.16,-1.72,11.84,-0.06,0.05,0.27,27.55
42019171,1938,1,195081,236522,0.61,-1.18,6.88,-0.04,-0.01,-0.04,27.55
42059201,1941,1,194494,237353,0.24,-1.66,10.74,-0.07,0.04,-0.00,27.55
42099180,1957,1,195001,239861,0.21,-2.32,10.74,-0.04,0.05,-0.05,27.55
42139180,1958,1,194868,239686,0.44,-1.32,10.92,0.01,-0.05,-0.25,27.55
42179180,1834,1,194793,239356,0.25,-1.90,9.33,-0.06,-0.01,-0.02,27.55
42219201,1733,1,194657,239702,0.64,-0.74,9.66,-0.04,-0.05,-0.01,27.55
42259201,1673,1,195067,240452,0.68,-1.25,8.91,-0.04,0.01,-0.01,27.55
42299180,1666,1,195324,241629,0.41,-1.24,9.69,-0.07,0.03,-0.01,27.55
42339181,1659,1,195368,241270,0.81,-0.86,9.50,-0.02,-0.05,-0.22,27.55
42379201,1633,1,194359,238249,0.55,-1.08,9.72,-0.04,-0.01,-0.01,27.55
42419201,1610,1,193876,237526,0.27,-1.98,10.08,-0.07,0.05,-0.02,27.55
42459216,1580,1,194106,238878,0.09,-0.64,10.99,-0.06,0.04,-0.01,27.55
42499181,1616,1,194457,239607,0.26,-1.36,11.36,-0.04,0.01,-0.01,27.55
42539180,1629,1,194429,239658,0.03,-1.05,11.52,-0.00,-0.00,-0.01,27.55
42579200,1646,1,194475,238292,0.13,-1.24,9.12,-0.03,0.00,-0.01,27.55
42619180,1686,1,194236,239323,0.57,-1.25,11.68,-0.05,-0.01,0.02,27.55
42659180,1735,1,194802,239765,0.19,-1.88,8.06,-0.04,-0.01,-0.01,27.55
42697201,1774,1,194768,239604,0.30,-1.05,10.68,-0.06,-0.02,-0.01,27.55
42737201,1817,1,194946,239993,0.10,-1.27,9.59,-0.04,0.01,-0.01,27.55
42777180,1820,1,194713,239291,0.35,-0.80,9.56,-0.04,-0.04,-0.01,27.55
42817197,1861,1,195012,239780,0.66,-1.19,10.22,-0.03,-0.02,-0.01,27.55
42857887,1856,1,195321,240053,0.15,-1.10,9.74,-0.02,0.00,-0.01,27.61
42898181,1886,1,195083,239495,0.92,-1.10,10.01,0.00,-0.08,-0.01,27.61
42938180,1934,1,194909,240145,0.22,-2.31,8.54,-0.05,0.01,-0.01,27.61
42978180,1937,1,195178,240164,0.39,-1.39,9.65,-0.04,-0.01,-0.05,27.61
43018201,1971,1,194941,239268,0.34,-1.51,10.50,-0.04,-0.04,-0.01,27.61
43058200,1981,1,194784,239521,0.27,-1.23,9.30,-0.02,-0.00,-0.01,27.61
43098201,1982,1,194795,239577,0.14,-0.79,10.85,-0.02,0.02,-0.01,27.61
43138180,1983,1,194785,240985,0.29,-1.47,10.79,-0.01,0.01,-0.00,27.61
43178201,1997,1,195051,240752,0.49,-0.72,9.51,0.01,-0.06,-0.09,27.61
43218181,2015,1,194915,241201,0.71,-1.56,9.91,-0.02,-0.06,-0.00,27.61
43258200,2009,1,195521,241750,0.70,-1.27,9.90,-0.04,-0.03,-0.01,27.61
43298201,1980,1,195238,241422,0.53,-0.97,10.57,-0.03,-0.03,-0.01,27.61
43338201,1968,1,195389,241634,0.12,-1.83,9.31,-0.05,-0.02,-0.01,27.61
43378254,1940,1,195667,241488,0.08,-0.97,11.31,-0.06,0.02,-0.02,27.61
43418180,1935,1,195249,241212,0.60,-1.46,10.64,-0.03,-0.07,-0.01,27.61
43458200,1917,1,195740,241699,0.05,-1.57,9.81,-0.06,0.03,-0.01,27.61
43498180,1911,1,195513,240733,0.30,-0.79,9.03,-0.05,-0.05,-0.01,27.61
43538198,1907,1,195677,241648,0.09,-1.88,10.92,-0.06,0.04,0.00,27.61
43578187,1882,1,195393,240630,1.03,-0.28,8.38,-0.01,-0.07,-0.05,27.61
43618201,1883,1,195579,241038,0.15,-1.65,9.39,-0.08,0.02,-0.01,27.61
43658180,1885,1,195317,240373,1.32,-0.34,10.30,-0.01,-0.08,-0.01,27.61
43698200,1885,1,195425,240842,0.17,-1.79,9.72,-0.05,0.02,-0.01,27.61
43738180,1872,1,195260,241546,0.72,-1.00,10.24,-0.02,-0.03,-0.02,27.61
43778201,1874,1,195287,239941,0.49,-0.78,10.37,-0.04,-0.03,-0.01,27.61
43818201,1863,1,194673,239624,0.29,-1.71,9.86,-0.08,0.02,0.27,27.61
43858858,1847,1,194722,238041,1.28,-1.00,8.92,-0.02,-0.04,-0.01,27.59
43897200,1846,1,194393,238567,0.00,-0.97,10.57,-0.06,0.02,0.08,27.59
43937172,1839,1,194309,237067,0.68,-0.96,8.65,-0.05,-0.01,-0.01,27.59
43977201,1871,1,194485,239052,-0.22,-0.98,12.46,-0.06,0.05,0.03,27.59
44017180,1879,1,194496,236298,0.85,-0.05,7.82,0.02,-0.12,0.03,27.59
44057172,1922,1,194885,236894,0.43,-1.58,13.07,-0.10,0.02,0.30,27.59
44097171,2001,1,195508,236961,0.85,-1.56,8.33,-0.02,-0.07,0.11,27.59
44137180,2096,1,195920,237575,-0.07,-1.38,9.79,-0.08,0.05,-0.00,27.59
44177200,2197,1,195587,236678,1.38,-0.81,10.21,0.01,-0.06,-0.02,27.59
44217181,2248,1,195295,237289,0.07,-1.83,7.94,-0.06,0.03,-0.01,27.59
44257180,2283,1,196169,240368,0.28,-2.69,8.46,-0.09,0.08,-0.05,27.59
44297180,2263,1,196296,238648,0.54,-0.91,10.58,-0.05,-0.00,-0.26,27.59
44337201,2222,1,195377,238364,0.21,-1.54,9.77,-0.05,0.03,-0.01,27.59
44377180,2183,1,195386,238542,0.30,-0.66,10.18,-0.00,0.03,-0.18,27.59
44417180,2146,1,195113,238919,0.45,-1.29,10.32,-0.04,0.03,-0.02,27.59
44457180,2140,1,195169,239321,0.47,-1.12,9.39,-0.02,0.00,-0.07,27.59
44497180,2095,1,195125,239895,0.14,-1.64,9.57,-0.03,0.03,-0.01,27.59
44537180,2071,1,195517,241283,0.28,-1.73,10.62,-0.05,0.03,-0.05,27.59
44577181,2033,1,195408,240305,0.49,-1.11,10.74,-0.02,-0.06,-0.09,27.59
44617201,1984,1,195000,240065,0.25,-0.93,8.95,-0.07,-0.02,-0.01,27.59
44657201,1937,1,195352,240537,0.46,-0.55,9.72,-0.06,-0.01,-0.01,27.59
44697200,1903,1,196156,242915,0.24,-0.91,11.76,-0.05,0.05,-0.01,27.59
44737180,1855,1,196392,242649,0.33,-0.10,10.29,0.00,-0.02,-0.09,27.59
44777180,1833,1,196157,243256,0.22,-1.17,10.85,-0.05,0.03,-0.01,27.59
44817180,1782,1,196173,241362,0.25,-0.89,9.76,-0.00,-0.06,-0.16,27.59
44857201,1774,1,195653,241433,0.20,-1.14,10.69,-0.05,0.01,0.09,27.59
44897858,1744,1,196305,243660,0.21,-1.27,10.41,-0.00,0.03,-0.01,27.73
44936180,1721,1,196233,242322,0.20,-0.86,9.95,-0.03,-0.02,-0.20,27.73
44976200,1686,1,195491,241676,0.23,-1.89,11.33,-0.03,-0.05,-0.00,27.73
45016236,1653,1,194699,237404,0.45,-0.41,9.58,0.00,-0.13,-0.01,27.73
45056181,1601,1,194241,238057,0.18,-2.09,10.30,-0.07,-0.03,0.20,27.73
45096180,1584,1,195206,240084,0.16,-1.03,10.24,-0.01,0.05,-0.06,27.73
45136181,1569,1,195226,241421,0.11,-1.33,10.17,-0.03,0.01,-0.01,27.73
45176180,1606,1,195701,241395,-0.09,-1.24,10.32,0.01,-0.02,-0.03,27.73
45216224,1648,1,195034,239284,0.67,-1.14,10.60,0.01,-0.10,-0.01,27.73
45256180,1677,1,194440,237157,1.30,-0.71,8.56,-0.02,-0.03,0.26,27.73
45296180,1677,1,194741,239818,0.22,-0.98,7.85,-0.03,0.01,0.01,27.73
45336172,1712,1,195199,240554,1.34,-0.20,7.81,0.00,-0.09,-0.07,27.73
45376180,1762,1,195588,242198,0.46,-1.39,10.43,-0.05,0.01,-0.01,27.73
45416180,1781,1,195628,241891,0.30,-1.31,9.12,-0.02,0.00,-0.01,27.73
45456181,1805,1,195776,241893,0.38,0.00,10.67,-0.02,-0.01,-0.01,27.73
45496180,1805,1,196047,242204,0.22,-0.56,10.75,-0.01,-0.01,0.05,27.73
45536180,1840,1,196378,243392,0.74,-0.77,10.76,0.00,-0.00,0.09,27.73
45576172,1857,1,196018,240008,1.05,-2.38,9.21,-0.04,-0.01,0.00,27.73
45616181,1906,1,194549,236194,0.41,-1.54,9.98,-0.07,0.01,0.19,27.73
45656172,1874,1,194382,235623,0.67,-0.35,9.25,-0.02,-0.05,0.04,27.73
45696180,1877,1,195075,239518,0.29,-2.53,11.79,-0.05,0.00,0.18,27.73
45736216,1917,1,195738,239737,1.25,-0.61,8.55,0.02,-0.10,-0.00,27.73
45776180,1970,1,195917,239724,0.38,-1.40,10.79,-0.09,-0.01,-0.01,27.73
45816201,1991,1,195586,237731,0.71,-0.52,9.07,-0.03,-0.03,-0.01,27.73
45856201,1991,1,195306,237369,0.01,-1.39,9.10,-0.10,0.04,-0.00,27.73
45896180,1995,1,195466,238096,0.89,-0.56,10.86,-0.04,0.01,-0.01,27.73
45936867,1961,1,195260,238070,0.44,-1.18,9.29,-0.04,0.03,-0.00,27.67
45975180,1967,1,195795,240879,-0.05,-1.75,9.26,-0.09,0.07,-0.01,27.67
46015200,1948,1,196114,241626,0.52,0.37,11.05,0.02,0.00,-0.36,27.67
46055149,1921,1,195640,241748,0.72,-1.27,9.52,-0.02,0.00,-0.01,27.67
46095180,1925,1,195511,241266,0.95,-1.22,8.26,-0.04,-0.06,-0.01,27.67
46135201,1938,1,196080,243055,0.34,-1.43,11.15,-0.07,0.08,0.01,27.67
46175171,1975,1,195357,241663,0.70,-0.89,9.28,0.01,-0.05,-0.04,27.67
46215180,1985,1,194417,240314,0.38,-1.06,9.90,-0.03,0.02,-0.01,27.67
46255178,1951,1,194041,240958,0.71,-1.42,10.33,-0.05,-0.03,-0.01,27.67
46295201,1936,1,194463,241512,0.56,-1.01,10.38,-0.03,-0.04,-0.03,27.67
46335201,1915,1,194839,241545,0.23,-1.26,9.91,-0.05,0.01,-0.00,27.67
46375180,1904,1,195161,241979,0.66,-1.09,10.66,-0.07,0.00,-0.01,27.67
46415181,1852,1,195782,242545,-0.18,-1.15,10.51,-0.09,0.07,-0.01,27.67
46455213,1807,1,195551,242173,0.41,-0.74,10.75,-0.05,0.01,0.00,27.67
46495171,1783,1,195901,243172,0.28,-1.73,9.97,-0.07,-0.02,-0.00,27.67
46535201,1761,1,196468,244012,0.16,-1.22,12.28,-0.06,0.07,-0.02,27.67
46575180,1755,1,196349,242436,-0.25,-1.49,10.77,-0.08,-0.00,-0.01,27.67
46615218,1779,1,195585,240088,-0.21,-1.29,10.87,-0.05,-0.01,-0.00,27.67
46655220,1780,1,195038,240565,0.59,-1.44,10.76,-0.01,-0.01,0.02,27.67
46695181,1755,1,195440,241192,-0.04,-2.81,8.45,-0.05,0.03,-0.08,27.67
46735201,1755,1,195824,243429,-0.21,-1.52,9.02,-0.05,0.05,-0.03,27.67
46775201,1799,1,196302,244026,-0.45,-2.70,9.35,-0.05,0.07,-0.22,27.67
46815201,1826,1,195575,243172,0.49,-2.07,10.67,-0.02,0.01,-0.17,27.67
46855204,1813,1,194381,241753,0.06,-1.38,8.50,0.02,-0.00,-0.30,27.67
46895178,1676,1,193952,241822,-0.34,-0.79,9.64,-0.03,0.10,-0.02,27.67
46935200,1603,1,193679,240762,0.40,-0.87,9.85,0.02,0.04,-0.16,27.67
46975858,1562,1,192923,239302,-0.26,-1.25,9.48,0.01,0.08,-0.01,27.69
47014180,1581,1,192102,237831,0.77,-2.20,10.07,-0.00,-0.06,-0.01,27.69
47054201,1614,1,192026,239044,0.34,-1.25,9.65,-0.01,-0.01,-0.01,27.69
47094200,1659,1,192395,239592,0.76,-2.36,9.34,-0.07,-0.11,-0.03,27.69
47134200,1698,1,193156,240110,-0.27,-1.59,10.93,-0.05,0.06,-0.01,27.69
47174202,1730,1,192129,237124,0.74,-0.62,9.23,-0.01,-0.12,-0.00,27.69
47214200,1829,1,192394,239070,-0.66,-1.80,12.61,-0.05,0.13,0.19,27.69
47254180,1921,1,192594,238248,0.79,-0.69,7.90,0.04,-0.14,-0.03,27.69
47294180,1983,1,193793,240442,0.10,-1.13,11.97,-0.08,0.05,0.29,27.69
47334172,2058,1,194377,239960,0.85,-1.07,9.22,0.02,-0.05,-0.01,27.69
47374180,2077,1,194411,239908,0.10,-0.98,10.94,-0.07,0.02,0.15,27.69
47414172,2123,1,194803,239950,-0.28,-1.86,10.49,-0.03,0.03,0.04,27.69
47454180,2137,1,194878,238878,0.02,-0.12,11.54,0.02,-0.05,0.02,27.69
47494172,2160,1,194596,238175,0.45,-1.59,9.74,-0.01,-0.02,0.09,27.69
47534181,2155,1,194973,237061,-0.23,-1.00,10.08,-0.04,0.01,-0.01,27.69
47574201,2145,1,194782,237770,1.09,-0.93,11.19,-0.07,-0.05,0.30,27.69
47614181,2043,1,195302,239628,-0.13,-1.00,8.46,-0.03,0.05,-0.01,27.69
47654201,1948,1,195377,239395,0.93,-1.65,9.06,-0.06,-0.05,-0.02,27.69
47694201,1888,1,196138,240967,0.34,-1.48,10.94,-0.08,0.03,-0.01,27.69
47734180,1862,1,196107,241340,0.79,-1.00,9.05,-0.05,-0.06,-0.01,27.69
47774200,1840,1,196148,241570,0.46,-0.89,9.55,-0.05,0.01,-0.01,27.69
47814180,1835,1,196100,242630,0.23,-1.83,10.31,-0.04,0.04,-0.01,27.69
47854180,1845,1,195869,242887,1.10,-0.08,9.40,-0.01,-0.07,-0.21,27.69
47894201,1853,1,196483,244142,-0.07,-1.78,9.91,-0.07,0.05,-0.02,27.69
47934201,1851,1,196060,241972,1.19,-0.06,9.26,0.00,-0.15,-0.04,27.69
47974181,1952,1,195951,240957,0.84,-1.59,10.97,-0.11,-0.02,0.10,27.69
48014867,1990,1,195573,241850,-0.03,-1.38,10.68,-0.06,0.08,-0.01,27.85
48055201,2077,1,195231,239916,0.74,-0.45,9.50,0.01,-0.06,-0.33,27.85
48095181,2083,1,194021,236196,0.37,-0.49,10.18,-0.01,-0.07,0.00,27.85
48135180,2062,1,193869,238530,0.68,-2.26,10.14,-0.01,0.01,0.02,27.85
48175172,2057,1,194462,240000,0.39,-0.77,8.49,0.01,0.01,-0.10,27.85
48215172,2062,1,194525,241695,0.85,-1.50,10.24,-0.06,-0.03,-0.01,27.85
48255201,2094,1,194985,242992,0.80,-1.48,11.88,0.02,-0.05,-0.17,27.85
48293214,2066,1,194488,240589,0.46,-0.80,9.02,0.00,-0.07,-0.05,27.85
48333178,2062,1,194181,240454,-0.18,-1.29,11.91,-0.05,0.05,0.14,27.85
48373181,2038,1,193775,240047,0.39,-0.29,9.47,0.02,-0.00,-0.01,27.85
48413181,2010,1,194371,241457,-0.15,-1.94,12.55,-0.06,0.09,-0.01,27.85
48453202,1983,1,194218,239680,0.55,-1.41,9.98,0.01,-0.13,-0.06,27.85
48493203,1942,1,193870,238446,0.68,0.39,6.45,-0.08,-0.04,0.46,27.85
48533172,1900,1,195067,239842,0.91,-1.82,10.50,-0.12,0.01,0.06,27.85
48573172,1869,1,195383,240672,0.17,-0.92,8.19,-0.02,-0.07,0.01,27.85
48613180,1894,1,196170,242120,0.74,-1.79,10.99,-0.15,0.11,-0.01,27.85
48653180,1872,1,195962,240505,0.37,-0.59,9.90,-0.01,-0.05,-0.02,27.85
48693200,1882,1,194712,234492,0.68,-1.14,8.58,-0.08,-0.09,0.04,27.85
48734180,1872,1,193849,233728,1.01,-0.64,10.48,-0.03,-0.01,-0.00,27.85
48774200,1867,1,193626,234928,0.36,-2.06,7.75,-0.05,-0.04,-0.01,27.85
48814201,1861,1,194339,237912,0.58,-1.43,9.69,-0.04,0.01,-0.14,27.85
48854180,1837,1,194337,238635,-0.14,-2.39,9.66,-0.05,0.01,-0.15,27.85
48894200,1813,1,194278,239407,0.30,-1.88,9.24,-0.04,0.04,-0.07,27.85
48934180,1811,1,194440,240533,0.16,-1.83,10.82,-0.04,0.01,-0.11,27.85
48974181,1794,1,194810,241926,0.13,-0.96,9.94,-0.01,0.05,-0.02,27.85
49014867,1827,1,194300,240776,0.77,-0.56,9.66,0.02,-0.02,-0.16,27.75
49053181,1815,1,193510,240261,0.07,-1.09,8.94,-0.02,0.07,-0.01,27.75
49093180,1793,1,193277,239932,0.60,-1.49,9.47,-0.03,-0.02,-0.09,27.75
49133200,1791,1,193427,240475,0.38,-0.32,10.82,-0.00,-0.01,-0.04,27.75
49173201,1773,1,194077,241404,0.17,-1.88,9.43,-0.02,-0.01,-0.01,27.75
49213201,1750,1,194174,240397,0.17,-0.66,10.79,-0.04,0.02,-0.01,27.75
49253180,1750,1,193915,241530,-0.23,-1.50,11.31,-0.02,0.02,-0.00,27.75
49293201,1763,1,194295,241617,0.14,-1.13,10.97,0.01,-0.05,-0.13,27.75
49333181,1755,1,194127,240665,0.06,-1.24,11.28,-0.02,-0.04,-0.01,27.75
49373201,1739,1,193895,239676,0.51,-1.24,10.82,-0.03,-0.07,-0.01,27.75
49413201,1699,1,193076,235259,0.92,-0.43,9.11,-0.00,-0.11,-0.01,27.75
49453201,1707,1,192523,235001,0.66,-2.21,9.13,-0.09,-0.01,0.11,27.75
49493181,1741,1,192553,233859,1.17,0.65,8.10,-0.03,-0.04,-0.05,27.75
49533181,1776,1,193088,239130,0.40,-1.24,10.00,-0.07,0.03,0.00,27.75
49573172,1731,1,194334,239999,0.71,-0.43,8.02,0.01,-0.08,-0.27,27.75
49613181,1761,1,194419,238123,-0.17,-0.77,10.42,-0.09,0.07,-0.02,27.75
49653201,1737,1,193947,236331,0.42,-1.39,12.06,-0.03,0.03,0.30,27.75
49693172,1791,1,193398,234117,0.82,-1.24,9.11,0.00,-0.08,0.11,27.75
49732172,1868,1,193364,237455,0.86,-1.53,8.45,-0.04,-0.03,0.21,27.75
49772181,1951,1,194419,239223,0.53,-3.00,9.09,-0.03,-0.03,-0.44,27.75
49812201,2034,1,194352,240220,-0.14,-1.20,9.43,0.00,-0.02,-0.03,27.75
49852200,2101,1,194329,238651,0.69,-1.02,8.91,-0.03,-0.02,-0.01,27.75
49892201,2118,1,194523,241354,0.15,-1.67,11.98,-0.02,0.04,0.18,27.75
49932188,2133,1,194363,240545,0.77,-0.57,5.94,0.05,-0.08,-0.48,27.75
49972180,2105,1,194315,240622,-0.16,-1.33,12.17,-0.05,0.08,-0.01,27.75
50012201,2098,1,193687,239522,1.23,-1.57,9.71,0.01,-0.09,-0.02,27.75
50052867,2061,1,193588,240023,-0.08,-0.91,10.67,-0.03,0.09,-0.03,27.73
50093201,2032,1,193447,239917,0.64,-1.07,8.91,-0.01,-0.05,-0.04,27.73
50133201,2011,1,193789,241163,-0.01,-1.18,11.25,-0.04,0.05,-0.01,27.73
50173201,1965,1,194195,241951,0.83,-1.16,10.35,-0.02,-0.06,-0.01,27.73
50213202,1936,1,194722,242520,-0.22,-1.19,11.38,-0.05,0.00,-0.00,27.73
50253201,1924,1,194551,242213,0.85,-1.34,11.63,-0.02,-0.09,-0.00,27.73
50293201,1906,1,194451,241652,0.48,-1.94,10.96,-0.05,-0.08,-0.01,27.73
50333201,1884,1,194281,241061,0.68,-1.06,9.34,-0.06,-0.08,-0.01,27.73
50373200,1866,1,194279,239601,0.72,-0.61,9.60,-0.07,-0.08,-0.02,27.73
50413200,1872,1,194434,240185,0.28,-1.31,9.52,-0.07,-0.02,0.03,27.73
50453180,1881,1,193907,238293,0.77,-0.38,8.11,-0.05,-0.04,-0.06,27.73
50493201,1900,1,194071,240410,-0.19,-1.74,10.02,-0.10,0.10,-0.01,27.73
50533201,1906,1,194614,241041,0.23,-0.87,10.33,0.02,0.00,-0.31,27.73
50573171,1901,1,194061,239302,0.46,-1.74,9.56,0.01,-0.09,-0.02,27.73
50613180,1906,1,193022,234987,0.88,-1.34,7.21,-0.04,-0.07,0.12,27.73
50653181,1897,1,192774,236850,0.69,-1.05,10.50,-0.08,-0.00,0.00,27.73
50693180,1882,1,193155,239239,0.40,-1.34,9.43,-0.03,0.02,-0.01,27.73
50733181,1856,1,193864,240673,0.22,-1.38,11.15,-0.02,0.03,-0.12,27.73
50772181,1855,1,193422,239834,0.98,-0.34,9.65,0.00,-0.10,-0.02,27.73
50812181,1861,1,194052,241712,-0.15,-2.36,10.97,-0.06,0.04,0.11,27.73
50852181,1869,1,193808,239658,0.74,-0.39,8.82,0.00,-0.03,-0.01,27.73
50892181,1895,1,193633,241093,-0.27,-2.29,12.94,-0.12,0.10,0.06,27.73
50932180,1867,1,193573,241102,0.32,-1.04,9.50,0.06,-0.07,-0.21,27.73
50972180,1871,1,193676,240685,-0.27,-2.05,11.38,-0.06,0.01,-0.04,27.73
51012201,1862,1,193580,241039,0.92,-0.34,7.95,0.03,-0.12,0.04,27.73
51052858,1874,1,194086,240823,-0.33,-1.69,11.08,-0.10,0.10,-0.02,27.73
51093201,1858,1,193380,240982,0.97,-0.34,9.82,0.07,-0.14,0.08,27.73
51131171,1879,1,193882,240861,0.36,-1.76,10.45,-0.10,0.07,-0.01,27.73
51171180,1876,1,193374,240349,1.05,-0.01,7.51,0.00,-0.21,0.02,27.73
51211168,1867,1,193854,238601,0.79,-1.82,10.25,-0.17,0.06,-0.00,27.73
51251180,1860,1,192773,234540,0.63,-0.75,9.51,-0.01,-0.11,0.00,27.73
51291180,1875,1,192149,233116,0.69,-1.43,10.84,-0.10,-0.02,0.04,27.73
51331180,1855,1,192209,234873,-0.05,-1.21,9.70,0.00,0.01,0.04,27.73
51371168,1871,1,192550,233588,0.08,-1.95,8.95,-0.06,-0.01,-0.01,27.73
51411200,1836,1,192449,234643,0.31,-1.73,9.50,-0.06,0.01,0.23,27.73
51451171,1827,1,193269,234672,0.44,-1.13,9.83,-0.05,0.01,-0.00,27.73
51491180,1853,1,192755,233988,0.68,-1.02,8.34,-0.04,-0.00,0.37,27.73
51531181,1325,1,193103,236890,0.93,-1.49,8.98,-0.09,0.06,0.01,27.73
51571172,883,1,193483,236937,0.59,0.06,8.53,0.00,-0.03,-0.18,27.73
51611167,707,1,193771,237044,0.64,-0.40,9.06,-0.08,0.05,-0.02,27.73
51651180,624,1,194296,240305,0.78,-0.90,11.79,-0.03,0.05,-0.01,27.73
51691178,679,1,194666,240566,0.73,-0.54,10.38,0.02,-0.03,-0.10,27.73
51731181,784,1,194475,240994,0.70,-1.36,9.78,0.01,-0.04,0.01,27.73
51771170,937,1,195049,241917,-0.29,-2.17,10.34,-0.04,0.07,-0.02,27.73
51811200,1124,1,194246,239170,1.26,-0.36,9.54,-0.00,-0.12,-0.13,27.73
51851201,1458,1,193750,237876,0.15,-1.97,10.98,-0.08,0.04,0.22,27.73
51891172,1679,1,193165,235640,0.68,-0.68,9.11,0.03,-0.10,0.00,27.73
51931168,1905,1,193813,239276,0.10,-2.53,10.16,-0.10,0.06,-0.01,27.73
51971180,2020,1,194183,237898,-0.49,-1.89,10.78,-0.00,0.02,-0.22,27.73
52011201,2164,1,193710,236902,-0.05,-1.43,12.45,-0.01,-0.06,0.07,27.73
52051200,2355,1,193979,239806,0.18,-2.96,10.07,-0.01,0.01,0.20,27.73
52091858,2495,1,194664,238017,-0.00,-1.80,8.45,-0.03,-0.05,-0.05,27.75
52132216,2591,1,194198,239201,0.10,-1.78,11.60,-0.05,0.03,0.16,27.75
52172171,2624,1,194181,239435,1.14,-0.71,9.49,0.01,-0.09,-0.12,27.75
52212180,2630,1,194279,239238,0.28,-0.83,9.03,-0.05,-0.03,-0.02,27.75
52252201,2625,1,194565,239670,1.23,-1.28,9.60,-0.03,-0.09,0.00,27.75
52292180,2600,1,194896,239010,0.29,-1.23,9.24,-0.05,-0.01,-0.01,27.75
52332201,2533,1,193667,236344,0.95,0.73,8.42,-0.03,-0.09,0.12,27.75
52372172,2352,1,193256,234185,0.70,-1.27,7.84,-0.07,0.05,0.00,27.75
52412168,2192,1,193422,237336,0.34,-1.48,10.23,-0.06,0.01,0.04,27.75
52452171,2107,1,194410,239539,0.58,-1.39,8.98,0.00,-0.01,-0.25,27.75
52492180,2158,1,194376,240044,0.06,-1.41,10.64,-0.03,0.05,-0.06,27.75
52532180,2229,1,193688,238553,0.95,-0.60,8.72,0.00,-0.08,-0.07,27.75
52572178,2097,1,193816,240202,-0.40,-1.87,11.06,-0.08,0.11,0.00,27.75
52610180,1999,1,193665,239243,1.27,-0.09,10.24,0.03,-0.06,-0.16,27.75
52650180,1919,1,193987,240461,-0.60,-1.82,10.67,-0.08,0.10,-0.01,27.75
52690201,1568,1,193440,240370,1.79,0.93,8.93,0.03,-0.12,-0.20,27.75
52730172,1174,1,193876,240516,-0.15,-1.62,12.33,-0.10,0.13,-0.17,27.75
52770202,1043,1,193015,240044,1.37,0.67,9.31,0.01,-0.11,-0.13,27.75
52810172,1052,1,193731,241257,-0.07,-2.75,13.25,-0.13,0.15,-0.17,27.75
52850202,867,1,193354,240775,0.70,0.06,9.79,0.04,-0.10,-0.20,27.75
52890167,897,1,193957,240070,-0.64,-2.34,13.60,-0.13,0.07,-0.02,27.75
52930201,999,1,192445,236392,1.04,1.49,6.56,0.06,-0.19,0.37,27.75
52970149,775,1,192537,233760,0.21,-1.96,10.88,-0.17,0.03,0.52,27.75
53010172,1231,1,191820,233603,1.01,-0.13,4.72,-0.04,-0.10,0.44,27.75
53050180,1940,1,193459,237782,0.16,-2.94,11.83,-0.19,0.27,-0.13,27.75
53090181,2196,1,192964,238034,1.54,0.42,7.27,0.06,-0.14,-0.37,27.75
53130858,2323,1,192914,237090,-0.68,-3.14,13.65,-0.11,0.07,-0.32,27.85
53171204,2559,1,191453,232370,0.18,-0.38,7.31,0.08,-0.16,0.03,27.85
53211171,2734,1,191872,232941,0.04,-3.00,13.21,-0.11,0.03,0.21,27.85
53251172,2815,1,191975,234254,0.45,-1.52,8.13,0.06,-0.08,0.07,27.85
53291171,2842,1,192768,238208,0.01,-2.39,11.87,-0.07,0.10,-0.10,27.85
53330180,2878,1,192759,237680,0.46,-0.41,7.15,0.10,-0.02,-0.33,27.85
53370180,2927,1,192305,238375,-0.04,-0.72,12.01,-0.04,-0.00,-0.02,27.85
53410215,2880,1,192177,236654,0.31,-1.39,7.63,0.04,-0.04,-0.08,27.85
53450181,2796,1,192083,237969,0.10,-1.70,11.10,-0.02,0.01,-0.02,27.85
53490180,2704,1,192941,239926,0.33,-1.90,11.39,0.04,0.01,-0.03,27.85
53530171,2522,1,193072,241294,-0.11,-1.45,10.65,0.03,-0.09,-0.03,27.85
53570200,2290,1,192946,239959,0.63,-0.40,8.74,-0.00,-0.08,-0.14,27.85
53610201,2112,1,193014,240874,-0.00,-2.03,12.79,-0.08,0.00,0.15,27.85
53650180,2000,1,193045,239100,0.54,-0.25,9.45,-0.00,-0.07,-0.01,27.85
53690200,1856,1,192952,236026,0.84,-0.85,11.37,-0.10,-0.01,0.57,27.85
53730180,1774,1,192071,230955,1.18,-1.37,7.24,-0.08,-0.07,0.23,27.85
53770180,1702,1,192081,230803,0.53,-1.42,10.52,-0.08,-0.05,0.36,27.85
53810180,1482,1,192057,229852,0.81,-1.66,6.87,-0.03,-0.00,-0.01,27.85
53850201,1391,1,192666,236213,-0.20,-1.62,11.85,-0.04,0.02,-0.01,27.85
53890201,1447,1,192912,236264,0.65,-0.48,4.94,0.07,-0.10,-0.92,27.85
53930184,1341,1,193201,237884,-0.07,-1.41,11.98,-0.06,-0.02,-0.03,27.85
53970217,1344,1,193486,236924,0.55,-1.21,8.35,0.00,-0.03,0.24,27.85
54010171,1456,1,193097,236175,0.81,-0.44,9.22,-0.03,-0.01,0.40,27.85
54050180,1583,1,193351,236480,1.30,-1.77,8.72,-0.06,0.05,0.01,27.85
54090172,1661,1,193259,237894,0.06,-0.95,8.90,-0.03,0.08,-0.01,27.85
54130204,1723,1,193774,240059,1.00,-0.63,11.45,0.01,0.01,-0.31,27.85
54170858,1706,1,194166,240983,0.60,-0.08,9.51,0.03,-0.02,-0.15,27.95
54209180,1807,1,193823,240540,0.45,-0.87,9.95,-0.01,-0.06,-0.01,27.95
54249200,1872,1,194147,240946,0.54,-1.15,11.60,-0.03,0.04,-0.01,27.95
54289180,1937,1,193642,237773,0.56,-1.03,8.77,-0.01,-0.09,0.00,27.95
54329183,1962,1,193175,237146,0.82,-1.66,11.94,-0.08,-0.02,0.43,27.95
54370180,2091,1,194138,239265,0.73,-0.96,9.87,0.02,-0.04,-0.20,27.95
54410181,2144,1,193507,235555,0.78,0.00,8.75,-0.01,-0.11,-0.02,27.95
54450180,2211,1,193322,233657,0.44,-1.95,10.25,-0.12,0.02,0.23,27.95
54490172,2236,1,192284,231389,1.07,0.55,9.01,-0.03,-0.09,0.02,27.95
54530172,2204,1,192583,233050,1.13,-1.13,10.01,-0.11,0.03,0.00,27.95
54570171,2155,1,193643,235414,0.53,-1.19,9.74,-0.09,-0.01,-0.01,27.95
54610201,2128,1,194128,235465,0.35,-1.16,9.82,-0.07,0.01,-0.00,27.95
54650181,2087,1,194286,235712,0.08,-0.85,10.19,-0.03,0.04,0.00,27.95
54690172,2047,1,193928,235676,0.55,-0.74,9.55,-0.03,-0.02,0.04,27.95
54730180,2022,1,194648,237364,0.37,-0.92,8.97,-0.04,0.02,-0.01,27.95
54770181,1984,1,195273,240487,0.79,-1.34,11.14,-0.04,0.03,-0.00,27.95
54810180,1973,1,195435,237720,0.60,-0.58,6.99,-0.01,-0.05,-0.19,27.95
54850200,1942,1,194918,237488,-0.24,-1.71,9.97,-0.09,0.05,0.33,27.95
54890180,1842,1,195477,239422,-0.01,-2.29,9.95,-0.03,0.05,-0.02,27.95
54930200,1814,1,195094,239517,0.42,-1.53,9.94,0.04,-0.07,-0.04,27.95
54970180,1759,1,194512,238722,0.06,-0.91,8.69,0.04,0.05,-0.06,27.95
55010172,1727,1,194332,241027,0.28,-2.40,10.01,0.02,-0.05,-0.01,27.95
55050180,1765,1,194143,241106,0.29,-1.08,8.14,-0.00,0.00,-0.36,27.95
55090180,1713,1,194211,241553,-0.14,-1.59,12.23,-0.04,0.01,-0.01,27.95
55130201,1687,1,193607,240663,0.67,-0.73,9.49,0.03,-0.06,-0.01,27.95
55170180,1687,1,193672,241365,0.33,-1.65,11.08,-0.07,0.01,-0.01,27.95
55210867,1693,1,193640,241093,0.71,-1.49,10.35,0.01,-0.07,-0.31,28.05
55249181,1651,1,193350,241105,-0.00,-2.71,11.27,-0.06,-0.01,-0.11,28.05
55289214,1576,1,193197,240625,0.43,-0.54,9.91,-0.00,-0.05,-0.31,28.05
55329201,1392,1,192927,240471,-0.22,-1.31,12.22,-0.05,-0.02,-0.01,28.05
55369214,1315,1,192651,238706,0.52,-0.86,8.61,-0.01,-0.07,-0.01,28.05
55409201,1321,1,192403,238813,0.33,-1.12,11.96,-0.08,-0.02,-0.01,28.05
55449201,1339,1,192297,238123,0.74,-1.28,8.87,-0.00,-0.07,-0.00,28.05
55489201,1389,1,191850,236964,0.28,-0.84,9.54,-0.06,-0.06,-0.01,28.05
55529201,1442,1,191759,235902,0.91,-0.78,8.49,-0.05,-0.05,0.09,28.05
55569183,1534,1,190898,230462,0.64,-1.18,9.34,-0.06,-0.07,-0.01,28.05
55609201,1641,1,189784,228370,0.94,-0.16,7.35,-0.08,-0.05,0.22,28.05
55649180,1600,1,190646,230940,-0.18,-2.43,10.63,-0.09,0.01,0.21,28.05
55689180,1611,1,192015,236570,0.62,-1.42,10.16,0.04,0.01,-0.13,28.05
55729172,1826,1,192554,238318,-0.16,-2.31,10.70,-0.01,0.05,-0.27,28.05
55769212,1968,1,192441,238141,0.63,-1.47,10.64,0.04,-0.09,-0.06,28.05
55809180,2111,1,191734,236257,0.68,-1.50,8.65,0.01,-0.11,0.06,28.05
55849171,2194,1,191824,236960,0.75,-1.49,9.01,-0.03,0.02,0.27,28.05
55889172,2247,1,192144,237854,0.34,-1.13,8.82,-0.04,-0.00,-0.01,28.05
55929201,2307,1,192534,239596,-0.18,-1.97,12.08,0.00,0.13,-0.12,28.05
55969190,2326,1,192377,239563,0.51,-0.57,9.51,0.02,-0.06,-0.33,28.05
56009180,2262,1,192413,239020,-0.05,-0.94,11.33,-0.02,0.02,-0.01,28.05
56049201,2219,1,192184,238941,0.23,-1.44,9.19,-0.04,-0.03,0.05,28.05
56089181,2139,1,193394,240551,-0.34,-2.46,12.67,-0.09,0.12,0.03,28.05
56129181,2083,1,192647,239105,0.99,-0.41,9.26,0.03,-0.17,-0.04,28.05
56169180,2083,1,192983,237760,-1.27,-3.16,11.34,-0.15,0.11,0.27,28.05
56209182,2175,1,191411,232128,0.90,0.14,10.08,0.02,-0.16,-0.01,28.05
56249858,2188,1,191466,231752,0.42,-1.30,11.91,-0.11,0.00,0.02,28.07
56288172,2143,1,191524,230838,0.87,0.23,8.30,-0.02,-0.03,0.31,28.07
56328171,2094,1,191733,230473,0.47,-1.92,9.88,-0.10,-0.02,0.10,28.07
56368180,2065,1,192027,232444,0.92,-0.79,9.16,-0.00,-0.00,-0.00,28.07
56408197,2054,1,192643,234486,0.70,-1.34,9.98,-0.05,-0.05,-0.01,28.07
56448200,2015,1,192528,233248,1.27,-0.59,7.96,0.00,-0.13,0.00,28.07
56488171,1971,1,193226,236716,0.48,-1.50,10.05,-0.06,0.05,0.00,28.07
56528171,1925,1,193499,236527,1.05,-0.28,8.03,0.01,-0.03,-0.05,28.07
56568180,1886,1,193250,237723,0.54,-1.31,9.90,-0.05,-0.01,0.00,28.07
56608180,1878,1,193708,239463,0.47,-1.69,9.16,-0.01,0.04,-0.10,28.07
56648180,1856,1,193891,240259,0.42,-1.52,10.59,-0.02,0.01,-0.19,28.07
56688180,1834,1,193930,240170,0.22,-1.89,9.56,0.01,-0.03,-0.01,28.07
56728180,1815,1,194124,240377,0.27,-1.54,9.69,-0.05,0.00,-0.01,28.07
56768180,1850,1,193946,239671,0.37,-1.24,10.65,-0.01,-0.00,-0.00,28.07
56808200,1840,1,193639,240231,0.33,-1.29,9.55,-0.03,0.04,-0.01,28.07
56848180,1838,1,193549,238346,-0.29,-1.12,10.10,-0.02,-0.03,-0.40,28.07
56888214,1902,1,193472,240462,0.20,-1.10,13.49,-0.02,-0.01,-0.01,28.07
56928200,1954,1,193748,238463,0.08,-0.73,9.57,0.02,-0.05,-0.01,28.07
56968178,1936,1,193456,236908,0.70,-0.50,10.37,-0.08,-0.00,0.54,28.07
57008180,1951,1,193144,232899,0.67,-1.41,8.03,-0.07,-0.02,0.19,28.07
57048180,1943,1,193033,233302,0.49,-1.11,10.07,-0.12,0.02,0.21,28.07
57088171,1935,1,193426,235935,1.31,-1.04,9.09,-0.05,-0.05,-0.01,28.07
57128201,1917,1,194230,238614,0.55,-0.78,8.62,-0.08,0.01,-0.20,28.07
57168180,1904,1,194850,236503,0.40,0.10,8.07,-0.06,-0.01,-0.31,28.07
57208178,1906,1,194671,240145,0.51,-1.18,11.43,-0.10,0.06,0.08,28.07
57248172,1879,1,194987,240361,0.68,-0.60,8.91,0.01,-0.02,-0.39,28.07
57288867,1918,1,195050,242593,-0.03,-1.51,11.13,-0.07,0.07,-0.05,27.99
57327200,1883,1,194992,240639,0.66,-1.39,7.92,0.01,0.03,-0.26,27.99
57367171,1810,1,194425,241332,-0.18,-0.95,12.38,-0.01,0.03,-0.01,27.99
57407224,1796,1,193896,240163,0.48,-2.49,9.35,0.04,0.00,-0.06,27.99
57447171,1802,1,193160,239586,-0.17,-1.66,10.47,0.02,0.01,-0.27,27.99
57487180,1804,1,192916,240451,0.02,-2.18,10.36,0.04,-0.04,-0.24,27.99
57527181,1695,1,192974,240108,0.63,-0.62,10.64,0.01,-0.04,-0.23,27.99
57567180,1497,1,192486,239245,-0.03,-1.91,10.73,-0.02,-0.04,-0.00,27.99
57607227,1423,1,192070,238482,0.51,-0.80,10.13,-0.01,-0.06,0.04,27.99
57647180,1264,1,192587,239782,0.19,-2.40,11.32,-0.05,0.01,0.02,27.99
57687171,1059,1,192732,240785,0.47,-0.91,10.35,0.02,-0.10,-0.01,27.99
57727180,998,1,193151,240709,0.28,-1.70,10.21,-0.04,-0.02,-0.00,27.99
57767200,1010,1,192965,240861,0.06,-2.38,9.41,-0.05,-0.04,0.01,27.99
57807180,1075,1,192813,239206,0.74,-0.21,9.88,-0.05,-0.07,-0.02,27.99
57847201,1217,1,192918,239283,-0.34,-1.76,10.44,-0.06,-0.00,0.33,27.99
57887201,1491,1,193572,240259,0.90,-1.45,9.18,-0.05,-0.01,0.04,27.99
57927181,1710,1,194325,241131,-0.27,-1.33,9.68,-0.09,0.04,-0.01,27.99
57967201,1845,1,194006,240139,1.30,-0.27,8.75,-0.02,-0.09,-0.01,27.99
58007201,1934,1,194302,240609,0.25,-1.03,11.14,-0.10,0.03,0.05,27.99
58047172,2032,1,193683,236434,1.27,-0.10,8.18,-0.00,-0.09,0.03,27.99
58087180,2064,1,193280,233787,0.24,-0.86,10.36,-0.13,0.08,-0.00,27.99
58127180,2082,1,191950,231380,0.56,-0.60,8.51,-0.01,0.01,0.17,27.99
58167171,2202,1,192269,233393,0.41,-2.10,11.03,-0.08,0.01,0.11,27.99
58207172,2286,1,192189,235028,1.45,-0.58,7.27,0.02,-0.07,-0.01,27.99
58247180,2357,1,193691,239377,0.15,-1.98,10.44,-0.09,0.10,-0.28,27.99
58287181,2435,1,193702,238448,0.82,-0.38,7.57,-0.00,-0.05,-0.15,27.99
58327887,2480,1,193767,240037,0.56,-1.72,12.79,-0.09,0.03,-0.01,27.85
58366180,2482,1,193686,238416,0.93,-1.40,10.09,0.05,-0.10,-0.02,27.85
58406178,2451,1,193537,240494,0.30,-1.75,11.35,-0.03,-0.01,0.33,27.85
58446180,2413,1,193670,238766,0.96,-0.89,8.11,0.04,-0.11,-0.10,27.85
58486180,2406,1,193656,241305,-0.35,-2.49,10.53,-0.06,0.06,0.09,27.85
58526183,2352,1,193610,239272,0.91,0.09,9.36,0.07,-0.08,-0.38,27.85
58566168,2295,1,193198,240571,-0.16,-1.76,11.44,-0.05,0.01,0.32,27.85
58606180,2272,1,194053,239967,0.55,-1.52,8.40,-0.04,0.04,-0.00,27.85
58646183,2238,1,194195,241869,-0.26,-2.05,12.59,-0.02,-0.04,0.00,27.85
58686200,2206,1,193560,237304,0.97,-0.88,7.75,-0.02,-0.01,-0.17,27.85
58726200,2149,1,192926,239182,-0.63,-2.67,13.21,-0.08,0.03,0.06,27.85
58766180,2097,1,193182,237879,0.75,-0.88,8.51,0.02,-0.01,-0.05,27.85
58806180,2059,1,193115,237885,0.10,-1.00,11.69,-0.08,-0.01,-0.02,27.85
58846200,1997,1,192853,237276,1.07,-1.07,9.05,0.01,-0.09,-0.01,27.85
58886180,1968,1,193136,238383,-0.14,-1.19,9.71,-0.08,0.06,-0.02,27.85
58926201,1918,1,193030,238647,0.82,-0.97,8.83,-0.02,-0.05,-0.02,27.85
58966201,1887,1,192834,237761,0.41,-1.53,9.22,-0.05,-0.03,-0.02,27.85
59006201,1822,1,192799,236779,0.63,-0.88,7.87,-0.06,-0.00,-0.02,27.85
59046205,1808,1,193117,238169,-0.20,-0.79,10.85,-0.08,0.03,0.04,27.85
59086180,1769,1,193114,236913,0.95,-0.80,9.11,-0.03,0.00,-0.01,27.85
59126178,1722,1,192650,236385,-0.34,-1.38,10.18,-0.05,0.06,0.18,27.85
59166181,1507,1,192586,237585,0.74,-1.30,8.20,0.01,0.02,0.06,27.85
59206149,1371,1,193483,240020,0.11,-1.87,10.77,-0.05,0.10,-0.04,27.85
59246180,1344,1,193405,240790,0.88,-0.77,9.00,0.03,-0.06,-0.04,27.85
59286178,1387,1,194163,241710,-0.14,-2.54,10.67,-0.08,0.13,-0.02,27.85
59326202,1417,1,193073,238622,1.17,0.75,9.11,0.03,-0.07,-0.19,27.85
59366858,1450,1,193023,241055,0.43,-1.83,13.07,-0.09,0.07,-0.01,27.87
59407180,1482,1,193267,240285,0.79,-0.08,10.50,0.08,-0.11,-0.52,27.87
59445181,296,1,192878,239963,0.44,-1.01,12.67,0.00,-0.08,-0.01,27.87
59485180,21,1,192452,237357,0.55,-0.87,9.49,-0.01,-0.04,0.01,27.87
59525184,453,1,192821,237726,-0.49,-1.68,12.96,-0.06,0.01,0.51,27.87
59565180,878,1,193009,234908,1.37,-0.41,8.66,0.00,-0.13,0.05,27.87
59605168,855,1,193214,234755,-0.09,-1.94,12.24,-0.08,-0.04,0.12,27.87
59645200,926,1,192941,231928,0.73,-0.44,7.19,-0.02,-0.13,0.23,27.87
59685180,1136,1,193530,233717,0.12,-2.96,12.43,-0.09,-0.04,0.37,27.87
59725180,1535,1,193575,231651,0.48,-1.10,5.81,0.01,-0.11,-0.00,27.87
59765180,1915,1,193449,232857,0.94,-1.70,9.17,-0.09,-0.09,0.44,27.87
59805180,2181,1,195210,238616,0.04,-2.40,8.41,-0.07,0.09,0.00,27.87
59845168,2325,1,195421,240170,1.57,-0.34,7.12,0.04,-0.13,-0.45,27.87
59885180,2362,1,195945,240750,1.18,-1.18,10.24,-0.11,0.10,-0.13,27.87
59925180,2389,1,195431,238828,0.58,-0.32,9.48,-0.00,0.02,-0.01,27.87
59965180,2426,1,195135,237251,0.45,-0.92,9.21,-0.07,0.14,-0.03,27.87
60005180,2445,1,193625,237220,0.54,-0.84,11.00,0.01,0.02,-0.00,27.87
60045171,2443,1,193772,238441,0.29,-1.61,9.67,0.00,0.10,-0.03,27.87
60085171,2416,1,193595,239292,0.27,-1.39,9.63,-0.01,0.02,-0.05,27.87
60125180,2359,1,194034,240550,0.32,-1.15,9.46,-0.02,0.04,-0.00,27.87
60165180,2265,1,194056,240008,0.61,-0.26,10.86,0.01,-0.02,-0.02,27.87
60205180,2254,1,193975,240600,0.69,-0.52,9.08,-0.01,-0.01,0.02,27.87
60245178,2207,1,193982,239741,0.44,-0.00,10.26,-0.02,0.00,-0.00,27.87
60285180,2176,1,194186,238999,1.23,-1.24,10.45,-0.06,-0.05,-0.01,27.87
60325200,2133,1,194248,239658,0.41,-0.60,10.01,-0.06,-0.01,0.01,27.87
60365180,2125,1,194924,238699,0.57,-1.14,9.64,-0.07,0.03,-0.01,27.87
60405867,2103,1,194459,236834,0.68,0.33,10.68,-0.08,-0.01,0.27,27.79
60446172,2087,1,194421,236041,0.56,-2.13,8.43,-0.10,-0.02,0.06,27.79
60486180,2164,1,195062,238213,0.44,-0.57,10.14,-0.07,0.06,-0.01,27.79
60526185,2208,1,195428,236106,0.71,-1.25,9.92,-0.07,-0.03,-0.00,27.79
60566200,2225,1,194665,235549,0.29,-1.35,10.43,-0.06,0.05,-0.00,27.79
60606180,2253,1,194918,236247,0.15,-0.99,10.54,-0.01,0.01,-0.05,27.79
60646180,2224,1,194473,237308,0.10,-1.15,10.26,0.02,0.00,-0.01,27.79
60686208,2218,1,194426,238017,1.27,-1.26,9.93,0.02,-0.09,-0.03,27.79
60726180,2176,1,194500,238736,0.38,-1.52,7.62,-0.04,-0.03,-0.03,27.79
60766201,2126,1,194705,240017,1.43,-0.98,9.40,-0.02,-0.04,-0.08,27.79
60806200,2091,1,194426,239161,-0.16,-1.67,8.53,-0.07,-0.00,-0.05,27.79
60846217,2066,1,194114,239082,0.85,-1.31,9.91,-0.05,-0.04,-0.01,27.79
60884212,2039,1,193987,238926,-0.33,-1.63,9.82,-0.06,0.08,-0.01,27.79
60924201,2000,1,193822,239426,0.21,-1.47,9.53,-0.01,-0.01,-0.01,27.79
60964201,1953,1,194175,240505,-0.04,-2.28,11.08,-0.03,0.06,-0.07,27.79
61004200,1916,1,194297,242032,0.23,-1.59,9.39,0.02,-0.05,-0.02,27.79
61044180,1872,1,194515,240845,-0.08,-1.72,10.09,-0.01,-0.00,-0.18,27.79
61084218,1794,1,194116,241658,0.08,-1.61,10.89,-0.02,-0.03,0.01,27.79
61124180,1734,1,193926,240073,0.42,-1.24,10.50,0.01,-0.04,-0.16,27.79
61164180,1692,1,193236,239398,0.36,-1.21,10.07,-0.01,-0.00,-0.01,27.79
61204200,1584,1,193161,238408,0.60,-1.26,9.68,-0.04,0.02,-0.02,27.79
61244180,1393,1,193173,239583,-0.09,-1.75,10.79,-0.03,0.04,0.00,27.79
61284180,1343,1,192841,238348,0.52,-1.64,9.31,-0.02,-0.08,-0.01,27.79
61325201,1434,1,192383,237456,0.21,-1.40,9.86,-0.04,-0.01,-0.00,27.79
61365200,1485,1,192475,238076,0.83,-1.64,8.78,-0.05,-0.03,-0.01,27.79
61405887,1571,1,193107,238246,0.53,-0.33,10.01,-0.05,-0.00,-0.02,27.87
61444201,1616,1,193288,239478,0.34,-1.62,10.63,-0.05,0.04,0.05,27.87
61484172,1654,1,193206,237882,0.21,-0.40,8.80,-0.04,-0.01,-0.01,27.87
61524211,1685,1,193016,237480,-0.15,-1.41,11.32,-0.06,0.02,0.13,27.87
61564180,1737,1,193227,237245,0.76,-1.14,8.98,-0.02,-0.04,0.13,27.87
61604180,1776,1,193758,239931,0.78,-0.65,9.59,-0.00,-0.02,0.03,27.87
61644180,1857,1,194701,239633,0.45,-1.54,9.46,-0.04,-0.01,-0.01,27.87
61684200,1899,1,194260,237930,0.79,0.06,9.08,-0.06,-0.02,0.31,27.87
