timestamp_us,ecg,leads,ir,red,accX,accY,accZ,gyroX,gyroY,gyroZ,temp
1917489,1237,1,187534,216737,0.00,0.00,0.00,0.00,0.00,0.00,0.00
1947964,1358,1,187364,217141,0.65,-0.22,9.67,-0.03,-0.01,-0.00,31.99
1988203,1441,1,187711,218057,0.68,-0.23,9.96,-0.03,-0.01,-0.00,31.99
2028195,1556,1,188122,219272,0.66,-0.22,9.95,-0.03,-0.01,-0.00,31.99
2068196,1616,1,188541,220061,0.67,-0.23,9.96,-0.04,-0.01,-0.01,31.99
2108196,1685,1,188719,220189,0.67,-0.22,9.95,-0.03,-0.01,-0.00,31.99
2148196,1767,1,188737,220231,0.66,-0.20,9.96,-0.04,-0.01,-0.00,31.99
2188196,1837,1,188696,220297,0.66,-0.23,9.94,-0.03,-0.01,-0.00,31.99
2228196,1899,1,188793,220596,0.67,-0.23,9.97,-0.04,-0.01,-0.01,31.99
2268195,1974,1,188917,221084,0.65,-0.22,9.96,-0.03,-0.01,-0.01,31.99
2308197,2042,1,189064,221327,0.66,-0.23,9.96,-0.03,-0.01,-0.01,31.99
2348199,2102,1,188789,218829,0.66,-0.23,9.97,-0.03,-0.01,-0.00,31.99
2388196,2143,1,187559,216082,0.67,-0.23,9.95,-0.04,-0.01,-0.01,31.99
2428195,2186,1,187018,215606,0.64,-0.21,9.97,-0.04,-0.01,-0.01,31.99
2468199,2219,1,187071,216119,0.65,-0.23,9.95,-0.03,-0.01,-0.00,31.99
2508196,2245,1,187327,216950,0.66,-0.22,9.97,-0.04,-0.01,-0.01,31.99
2548231,2304,1,187733,217981,0.67,-0.22,9.95,-0.03,-0.01,-0.01,31.99
2588196,2298,1,188125,218641,0.68,-0.21,9.96,-0.03,-0.01,-0.00,31.99
2628196,2334,1,188241,218897,0.66,-0.22,9.96,-0.03,-0.01,-0.00,31.99
2668195,2338,1,188253,218975,0.65,-0.22,10.00,-0.03,-0.01,-0.00,31.99
2708196,2336,1,188327,219254,0.64,-0.23,9.95,-0.04,-0.01,-0.00,31.99
2748210,2340,1,188441,219631,0.67,-0.23,9.95,-0.03,-0.01,-0.00,31.99
2788197,2357,1,188465,220074,0.68,-0.23,9.98,-0.04,-0.00,-0.00,31.99
2828195,2350,1,188479,218865,0.65,-0.21,10.01,-0.04,-0.01,-0.01,31.99
2868196,2338,1,187393,215837,0.65,-0.23,9.98,-0.04,-0.01,-0.00,31.99
2908196,2320,1,186546,214899,0.65,-0.21,9.93,-0.03,-0.00,-0.00,31.99
2948196,2310,1,186555,215399,0.67,-0.21,9.98,-0.04,-0.01,-0.01,31.99
2988882,2286,1,186826,216157,0.67,-0.21,9.96,-0.03,-0.01,-0.01,32.05
3027208,2277,1,187108,217156,0.67,-0.24,9.96,-0.04,-0.01,-0.01,32.05
3067195,2245,1,187382,217854,0.66,-0.22,9.98,-0.03,-0.01,-0.00,32.05
3107198,2198,1,187602,218146,0.64,-0.22,9.96,-0.03,-0.01,-0.00,32.05
3147194,2170,1,187605,218273,0.67,-0.21,9.95,-0.03,-0.01,-0.01,32.05
3187198,2153,1,187723,218508,0.66,-0.23,9.95,-0.04,-0.01,-0.00,32.05
3227195,2128,1,187775,218895,0.66,-0.23,9.98,-0.04,-0.01,-0.00,32.05
3267198,2083,1,187886,219274,0.64,-0.24,9.96,-0.03,-0.01,-0.01,32.05
3307195,2047,1,187990,219256,0.65,-0.22,9.98,-0.03,-0.01,-0.00,32.05
3347197,2023,1,187359,216280,0.65,-0.22,9.97,-0.03,-0.01,-0.00,32.05
3387195,2006,1,186227,214225,0.64,-0.22,9.96,-0.03,-0.01,-0.01,32.05
3427198,1990,1,186043,214260,0.65,-0.22,9.94,-0.03,-0.01,-0.01,32.05
3467195,1968,1,186187,214979,0.65,-0.24,9.98,-0.03,-0.00,-0.01,32.05
3507197,1949,1,186522,216127,0.66,-0.22,9.96,-0.04,-0.00,-0.01,32.05
3547195,1919,1,186864,217157,0.63,-0.23,9.97,-0.03,-0.01,-0.01,32.05
3587198,1904,1,187068,217580,0.66,-0.22,9.96,-0.04,-0.00,-0.01,32.05
3627195,1911,1,187093,217578,0.64,-0.22,9.96,-0.03,-0.01,-0.01,32.05
3667198,1904,1,187089,217517,0.65,-0.23,9.98,-0.04,-0.01,-0.01,32.05
3707195,1887,1,186980,217459,0.65,-0.21,9.95,-0.03,-0.01,-0.01,32.05
3747198,1886,1,186932,217476,0.65,-0.21,9.96,-0.03,-0.01,-0.01,32.05
3787195,1871,1,187082,217648,0.66,-0.21,9.95,-0.03,-0.02,-0.00,32.05
3827198,1863,1,186901,215187,0.66,-0.23,9.94,-0.03,-0.01,-0.01,32.05
3867195,1847,1,185471,211411,0.66,-0.21,9.94,-0.04,-0.01,-0.00,32.05
3907198,1837,1,184478,209917,0.65,-0.21,9.97,-0.03,-0.01,-0.00,32.05
3947195,1826,1,184388,210398,0.66,-0.25,9.96,-0.03,-0.01,-0.01,32.05
3987198,1797,1,184799,211548,0.66,-0.24,9.97,-0.03,-0.01,-0.01,32.05
4027894,1786,1,185324,212692,0.65,-0.22,9.97,-0.04,-0.01,-0.01,31.99
4068196,1760,1,185719,213471,0.65,-0.23,9.98,-0.03,-0.01,-0.00,31.99
4108196,1726,1,186008,214045,0.65,-0.23,9.96,-0.03,-0.01,-0.00,31.99
4148197,1690,1,186034,214335,0.64,-0.20,9.96,-0.04,-0.00,-0.01,31.99
4188213,1682,1,186130,214658,0.65,-0.21,9.97,-0.03,-0.01,-0.00,31.99
4228196,1641,1,186229,215049,0.65,-0.21,9.94,-0.03,-0.01,-0.01,31.99
4268196,1605,1,186452,215692,0.64,-0.21,9.97,-0.04,-0.01,-0.01,31.99
4308197,1575,1,186411,214134,0.66,-0.22,9.96,-0.03,-0.01,-0.01,31.99
4348196,1535,1,185039,209819,0.66,-0.21,9.96,-0.03,-0.01,-0.01,31.99
4388223,1534,1,183804,208169,0.64,-0.23,9.97,-0.03,-0.01,-0.01,31.99
4428196,1519,1,183786,208707,0.65,-0.21,9.95,-0.04,-0.01,-0.00,31.99
4468196,1498,1,184134,210108,0.63,-0.20,9.99,-0.03,-0.01,-0.01,31.99
4508196,1505,1,184784,211758,0.65,-0.24,9.94,-0.03,-0.01,-0.00,31.99
4548196,1488,1,185270,212656,0.65,-0.22,9.98,-0.04,-0.01,-0.01,31.99
4588196,1490,1,185536,213101,0.65,-0.23,9.98,-0.03,-0.01,-0.01,31.99
4628196,1510,1,185634,213385,0.64,-0.24,9.98,-0.03,-0.01,-0.01,31.99
4668196,1509,1,185795,213714,0.62,-0.23,9.98,-0.03,-0.01,-0.01,31.99
4708197,1492,1,185982,214139,0.65,-0.24,9.95,-0.03,-0.01,-0.01,31.99
4748196,1520,1,186155,214728,0.64,-0.23,9.96,-0.04,-0.01,-0.00,31.99
4788197,1553,1,186312,213851,0.68,-0.24,9.96,-0.03,-0.01,-0.01,31.99
4828196,1535,1,185067,209109,0.63,-0.22,9.96,-0.04,-0.01,-0.01,31.99
4868197,1562,1,183553,207046,0.65,-0.23,9.98,-0.03,-0.01,-0.01,31.99
4908196,1587,1,183567,208170,0.65,-0.21,9.95,-0.04,-0.01,-0.01,31.99
4948197,1611,1,184117,210018,0.65,-0.22,9.99,-0.04,-0.00,-0.01,31.99
4988196,1623,1,184832,212113,0.66,-0.22,9.96,-0.03,-0.01,-0.01,31.99
5028884,1646,1,185475,213496,0.66,-0.23,9.97,-0.04,-0.01,-0.00,32.03
5067195,1710,1,185847,214234,0.65,-0.22,9.96,-0.04,-0.01,-0.01,32.03
5107198,1730,1,186102,214592,0.65,-0.21,9.98,-0.03,-0.01,-0.01,32.03
5147195,1763,1,186224,214974,0.66,-0.22,9.97,-0.04,-0.01,-0.00,32.03
5187198,1776,1,186453,215581,0.66,-0.23,9.96,-0.03,-0.01,-0.00,32.03
5227195,1786,1,186785,216233,0.64,-0.23,9.95,-0.03,-0.01,-0.00,32.03
5267198,1803,1,186975,216264,0.65,-0.23,9.97,-0.03,-0.01,-0.01,32.03
5307195,1811,1,186336,212989,0.66,-0.23,9.98,-0.04,-0.01,-0.01,32.03
5347198,1814,1,185017,210105,0.68,-0.23,9.96,-0.04,-0.00,-0.01,32.03
5387195,1815,1,184525,209935,0.65,-0.22,9.97,-0.03,-0.01,-0.01,32.03
5428211,1810,1,184895,211261,0.66,-0.23,9.95,-0.03,-0.01,-0.01,32.03
5468196,1805,1,185457,212949,0.66,-0.23,9.95,-0.03,-0.01,-0.01,32.03
5508196,1805,1,186068,214216,0.65,-0.22,9.97,-0.03,-0.01,-0.01,32.03
5548196,1806,1,186473,214993,0.65,-0.19,9.95,-0.03,-0.01,-0.01,32.03
5588196,1810,1,186640,215198,0.66,-0.22,9.97,-0.03,-0.01,-0.00,32.03
5628196,1827,1,186672,215448,0.66,-0.23,9.96,-0.04,-0.01,-0.01,32.03
5668196,1838,1,186761,215887,0.66,-0.23,9.92,-0.04,-0.01,-0.01,32.03
5708196,1837,1,186986,216532,0.66,-0.24,9.97,-0.03,-0.01,-0.01,32.03
5748196,1840,1,187270,216958,0.65,-0.23,9.99,-0.03,-0.01,-0.00,32.03
5788196,1840,1,186914,214195,0.65,-0.24,9.97,-0.03,-0.01,-0.01,32.03
5828196,1827,1,185535,210961,0.65,-0.23,9.97,-0.04,-0.01,-0.01,32.03
5868196,1827,1,184883,210467,0.65,-0.23,9.98,-0.04,-0.01,-0.01,32.03
5908196,1841,1,185135,211654,0.65,-0.24,10.00,-0.03,-0.01,-0.01,32.03
5948196,1845,1,185679,213073,0.65,-0.22,9.96,-0.04,-0.01,-0.01,32.03
5988196,1851,1,186224,214429,0.66,-0.21,9.96,-0.03,-0.01,-0.00,32.03
6028910,1810,1,186581,215052,0.65,-0.24,9.96,-0.04,-0.01,-0.01,31.81
6067198,1919,1,186751,215360,0.66,-0.22,9.94,-0.03,-0.01,-0.00,31.81
6107195,1921,1,186674,215560,0.68,-0.23,9.96,-0.03,-0.01,-0.00,31.81
6147198,1923,1,186830,216024,0.66,-0.21,9.95,-0.03,-0.01,-0.01,31.81
6187195,1920,1,187139,216774,0.68,-0.22,9.96,-0.04,-0.01,-0.00,31.81
6227198,1937,1,187464,217447,0.64,-0.20,9.95,-0.03,-0.01,-0.01,31.81
6267195,1923,1,187292,215476,0.66,-0.24,9.95,-0.03,-0.01,-0.01,31.81
6307198,1930,1,186070,212288,0.66,-0.22,9.96,-0.03,-0.01,-0.01,31.81
6347195,1947,1,185312,211085,0.66,-0.22,9.94,-0.03,-0.01,-0.01,31.81
6387198,1963,1,185349,211787,0.64,-0.24,9.99,-0.03,-0.01,-0.01,31.81
6427195,1968,1,185670,212904,0.67,-0.22,9.97,-0.04,-0.01,-0.01,31.81
6468197,1928,1,186203,214048,0.65,-0.22,9.99,-0.04,-0.01,-0.00,31.81
6508196,1913,1,186599,214718,0.67,-0.21,9.96,-0.03,-0.01,-0.01,31.81
6548197,1931,1,186706,214922,0.67,-0.22,9.97,-0.04,-0.01,-0.01,31.81
6588196,1923,1,186699,214956,0.65,-0.22,9.98,-0.04,-0.01,-0.00,31.81
6628196,1924,1,186798,215206,0.66,-0.22,9.98,-0.04,-0.01,-0.00,31.81
6668196,1945,1,186909,215740,0.68,-0.21,9.98,-0.04,-0.01,-0.01,31.81
6708196,1961,1,187157,216335,0.65,-0.23,9.95,-0.04,-0.01,-0.01,31.81
6748196,1957,1,187240,215156,0.68,-0.24,9.93,-0.03,-0.01,-0.01,31.81
6788197,1967,1,185952,210918,0.68,-0.22,9.96,-0.03,-0.01,-0.00,31.81
6828196,1968,1,184622,208702,0.63,-0.21,9.99,-0.04,-0.01,-0.01,31.81
6868197,1956,1,184495,209355,0.65,-0.24,9.95,-0.03,-0.01,-0.01,31.81
6908196,1963,1,184939,210787,0.64,-0.21,9.95,-0.03,-0.01,-0.01,31.81
6948197,1964,1,185590,212607,0.65,-0.21,9.97,-0.03,-0.01,-0.01,31.81
6988195,1963,1,186150,213735,0.65,-0.23,9.95,-0.03,-0.01,-0.01,31.81
7028196,1963,1,186410,214198,0.65,-0.22,9.97,-0.04,-0.01,-0.00,31.81
7068883,1929,1,186376,214298,0.65,-0.21,9.97,-0.03,-0.00,-0.01,31.83
7107198,1969,1,186389,214604,0.65,-0.23,9.96,-0.03,-0.01,-0.01,31.83
7147195,1952,1,186531,215154,0.67,-0.22,9.99,-0.03,-0.01,-0.00,31.83
7187198,1943,1,186726,215795,0.66,-0.22,9.99,-0.03,-0.01,-0.01,31.83
7227195,1940,1,186947,215553,0.65,-0.22,9.96,-0.03,-0.01,-0.01,31.83
7267198,1933,1,186099,211961,0.67,-0.21,9.98,-0.03,-0.01,-0.01,31.83
7307195,1910,1,184649,209171,0.66,-0.21,9.93,-0.04,-0.01,-0.00,31.83
7347198,1920,1,184315,209453,0.65,-0.20,9.96,-0.04,-0.01,-0.01,31.83
7387195,1897,1,184608,210859,0.65,-0.21,9.97,-0.03,-0.01,-0.01,31.83
7427198,1891,1,185206,212401,0.65,-0.23,9.96,-0.03,-0.01,-0.01,31.83
7468199,1898,1,185786,213648,0.66,-0.21,9.96,-0.04,-0.01,-0.00,31.83
7508196,1870,1,186169,214264,0.67,-0.22,9.96,-0.03,-0.01,-0.01,31.83
7548196,1856,1,186320,214444,0.66,-0.23,9.97,-0.03,-0.01,-0.01,31.83
7588196,1834,1,186413,214673,0.66,-0.22,9.99,-0.03,-0.01,-0.01,31.83
7628196,1779,1,186641,215183,0.64,-0.24,9.98,-0.03,-0.01,-0.00,31.83
7668222,1778,1,186900,215701,0.67,-0.24,9.98,-0.03,-0.01,-0.01,31.83
7708196,1723,1,187081,215739,0.64,-0.22,9.97,-0.04,-0.01,-0.01,31.83
7748197,1686,1,186513,212102,0.67,-0.22,9.99,-0.04,-0.01,-0.01,31.83
7788196,1670,1,184642,207562,0.65,-0.22,9.98,-0.03,-0.01,-0.01,31.83
7828196,1648,1,183936,207615,0.65,-0.23,9.95,-0.04,-0.01,-0.01,31.83
7868215,1637,1,184404,209249,0.64,-0.23,9.96,-0.03,-0.01,-0.00,31.83
7908196,1643,1,185116,210988,0.66,-0.23,9.96,-0.04,-0.01,-0.00,31.83
7948195,1632,1,185828,212686,0.65,-0.23,9.97,-0.03,-0.01,-0.00,31.83
7988196,1648,1,186314,213623,0.68,-0.24,9.95,-0.03,-0.01,-0.01,31.83
8028196,1641,1,186431,213989,0.66,-0.22,9.94,-0.04,-0.00,-0.01,31.83
8068882,1683,1,186456,214217,0.63,-0.22,9.99,-0.04,-0.01,-0.01,31.85
8107195,1635,1,186538,214761,0.65,-0.23,9.96,-0.04,-0.01,-0.01,31.85
8147198,1661,1,186794,215424,0.68,-0.22,9.98,-0.03,-0.01,-0.00,31.85
8187195,1659,1,187044,216007,0.65,-0.22,9.97,-0.03,-0.01,-0.00,31.85
8227198,1664,1,186799,213250,0.66,-0.24,9.97,-0.03,-0.01,-0.01,31.85
8267195,1671,1,185163,208763,0.65,-0.24,9.96,-0.04,-0.01,-0.00,31.85
8307198,1655,1,184319,208415,0.64,-0.24,9.95,-0.03,-0.01,-0.01,31.85
8347195,1643,1,184669,210083,0.65,-0.22,9.97,-0.04,-0.01,-0.01,31.85
8387198,1626,1,185451,212360,0.66,-0.23,9.96,-0.03,-0.01,-0.01,31.85
8427195,1594,1,186314,214286,0.66,-0.21,9.99,-0.03,-0.01,-0.01,31.85
8467198,1535,1,186945,215465,0.66,-0.22,9.97,-0.03,-0.01,-0.01,31.85
8508196,1485,1,187084,215932,0.66,-0.21,9.95,-0.04,0.00,-0.00,31.85
8548175,1415,1,187121,216302,0.67,-0.23,9.97,-0.04,-0.01,-0.01,31.85
8588196,1360,1,187303,217176,0.68,-0.21,9.97,-0.04,-0.01,-0.01,31.85
8628196,1309,1,187661,218282,0.66,-0.21,9.96,-0.04,-0.01,-0.00,31.85
8668196,1255,1,188045,219365,0.65,-0.21,9.98,-0.04,-0.01,-0.01,31.85
8708196,1227,1,188000,217631,0.67,-0.22,9.98,-0.03,-0.01,-0.00,31.85
8748196,1215,1,187008,215504,0.68,-0.23,9.98,-0.04,-0.01,-0.01,31.85
8788196,1191,1,186595,215443,0.64,-0.23,9.95,-0.03,-0.01,-0.01,31.85
8828196,1174,1,186794,216345,0.65,-0.22,9.97,-0.03,-0.01,-0.01,31.85
8868197,1157,1,187215,217637,0.65,-0.21,9.97,-0.03,-0.01,-0.00,31.85
8908196,1175,1,187827,219343,0.65,-0.22,9.97,-0.03,-0.01,-0.00,31.85
8948196,1202,1,188388,220508,0.64,-0.23,9.96,-0.04,-0.01,-0.01,31.85
8988196,1216,1,188668,221134,0.66,-0.23,9.97,-0.04,-0.01,-0.01,31.85
9028196,1264,1,188800,221505,0.64,-0.22,9.95,-0.03,-0.01,-0.01,31.85
9068883,1303,1,188928,222165,0.66,-0.22,9.98,-0.04,-0.01,-0.01,31.89
9107198,1392,1,189244,222920,0.67,-0.23,9.96,-0.03,-0.01,-0.01,31.89
9147195,1440,1,189488,223718,0.66,-0.20,9.97,-0.04,-0.01,-0.01,31.89
9187198,1485,1,189621,222178,0.69,-0.22,9.97,-0.04,-0.01,-0.01,31.89
9227195,1523,1,188344,219354,0.64,-0.22,9.98,-0.03,-0.01,-0.01,31.89
9267198,1584,1,187725,218586,0.65,-0.21,9.96,-0.03,-0.01,-0.01,31.89
9307208,1626,1,187673,219108,0.64,-0.22,9.96,-0.03,-0.01,-0.01,31.89
9347198,1680,1,188031,220175,0.67,-0.21,9.95,-0.03,-0.01,-0.01,31.89
9387195,1729,1,188476,221507,0.65,-0.23,9.96,-0.04,-0.01,-0.01,31.89
9427198,1780,1,188887,222329,0.65,-0.23,9.96,-0.03,-0.01,-0.01,31.89
9467196,1841,1,188999,222454,0.66,-0.21,9.97,-0.03,-0.01,-0.00,31.89
9507198,1877,1,189036,222791,0.64,-0.21,9.99,-0.04,-0.01,-0.01,31.89
9547195,1906,1,189255,223343,0.66,-0.21,9.94,-0.03,-0.01,-0.00,31.89
9587198,1959,1,189482,224088,0.65,-0.22,9.97,-0.03,-0.01,-0.00,31.89
9627195,1985,1,189694,224813,0.64,-0.20,9.95,-0.03,-0.01,-0.01,31.89
9667198,2015,1,189853,223854,0.65,-0.24,9.98,-0.03,-0.01,-0.01,31.89
9707195,2053,1,188712,220673,0.64,-0.24,9.97,-0.03,-0.01,-0.00,31.89
9747198,2077,1,187977,219662,0.64,-0.20,9.96,-0.03,-0.01,-0.01,31.89
9787195,2096,1,187911,219878,0.66,-0.23,9.96,-0.03,-0.01,-0.01,31.89
9827198,2111,1,188137,220812,0.64,-0.21,9.95,-0.03,-0.01,-0.01,31.89
9867196,2114,1,188581,222303,0.68,-0.23,9.97,-0.04,-0.01,-0.00,31.89
9907198,2115,1,189214,223938,0.65,-0.23,9.97,-0.03,-0.01,-0.01,31.89
9947196,2112,1,189857,225521,0.66,-0.22,9.98,-0.03,-0.01,-0.01,31.89
9987198,2119,1,190412,226348,0.67,-0.23,9.96,-0.03,-0.01,-0.01,31.89
10027195,2110,1,190632,226767,0.64,-0.21,9.96,-0.03,-0.01,-0.01,31.89
10067198,2107,1,190783,227295,0.64,-0.22,9.99,-0.03,-0.00,-0.01,31.89
10107883,2027,1,190899,227498,0.65,-0.24,9.98,-0.03,-0.01,-0.00,32.05
10148199,2029,1,191010,227072,0.65,-0.23,9.96,-0.03,-0.01,-0.01,32.05
10188196,2000,1,189859,222695,0.66,-0.21,9.98,-0.03,-0.01,-0.01,32.05
10228199,2002,1,188759,220883,0.65,-0.21,9.96,-0.03,-0.01,-0.01,32.05
10268196,1973,1,188438,220625,0.65,-0.23,9.97,-0.03,-0.01,-0.01,32.05
10308199,1969,1,188557,220968,0.66,-0.24,9.95,-0.04,-0.00,-0.01,32.05
10348196,1954,1,188756,221438,0.67,-0.23,9.90,-0.03,-0.02,-0.01,32.05
10388197,1939,1,189030,222043,0.66,-0.23,9.98,-0.04,-0.01,-0.00,32.05
10428196,1932,1,189277,222494,0.66,-0.23,9.94,-0.03,-0.01,-0.00,32.05
10468199,1935,1,189328,222567,0.64,-0.23,9.97,-0.03,-0.01,-0.00,32.05
10508196,1922,1,189378,222909,0.65,-0.22,9.95,-0.04,-0.01,-0.00,32.05
10548196,1904,1,189654,223411,0.68,-0.22,9.95,-0.04,-0.01,-0.01,32.05
10588196,1915,1,189785,223982,0.65,-0.22,9.96,-0.03,-0.01,-0.01,32.05
10628199,1897,1,190081,224342,0.67,-0.22,9.98,-0.03,-0.01,-0.01,32.05
10668195,1902,1,189670,221581,0.64,-0.23,9.98,-0.03,-0.01,-0.01,32.05
10708199,1908,1,188636,219224,0.65,-0.22,9.98,-0.03,-0.01,-0.01,32.05
10748196,1904,1,188170,218795,0.65,-0.21,9.97,-0.03,-0.01,-0.01,32.05
10788199,1903,1,188307,219275,0.66,-0.20,9.98,-0.04,-0.01,-0.01,32.05
10828196,1899,1,188676,220237,0.65,-0.23,9.95,-0.04,-0.01,-0.01,32.05
10868199,1905,1,189147,221182,0.66,-0.22,9.95,-0.03,-0.01,-0.01,32.05
10908196,1907,1,189434,221655,0.67,-0.22,9.97,-0.03,-0.01,-0.01,32.05
10948201,1917,1,189498,221791,0.67,-0.23,9.96,-0.03,-0.01,-0.00,32.05
10988196,1925,1,189526,221896,0.67,-0.23,9.95,-0.03,-0.01,-0.00,32.05
11028199,1913,1,189606,222067,0.69,-0.21,9.97,-0.03,-0.01,-0.01,32.05
11068196,1931,1,189670,222435,0.68,-0.22,9.94,-0.03,-0.01,-0.01,32.05
11108886,1893,1,189871,222987,0.68,-0.22,9.96,-0.03,-0.01,-0.01,32.05
11147241,1962,1,189964,221936,0.66,-0.23,10.00,-0.03,-0.01,-0.01,32.05
11187198,1966,1,189034,219032,0.66,-0.22,9.96,-0.03,-0.01,-0.01,32.05
11227195,1959,1,188212,218119,0.67,-0.23,9.97,-0.04,-0.01,-0.01,32.05
11267198,1939,1,188250,218653,0.66,-0.22,9.95,-0.03,-0.01,-0.01,32.05
11307196,1950,1,188546,219623,0.65,-0.22,9.95,-0.03,-0.01,-0.00,32.05
11347198,1936,1,188926,220715,0.66,-0.22,9.96,-0.03,-0.01,-0.01,32.05
11387196,1941,1,189253,221577,0.67,-0.22,9.98,-0.03,-0.01,-0.01,32.05
11427197,1942,1,189434,221823,0.65,-0.23,9.96,-0.03,-0.01,-0.00,32.05
11467195,1941,1,189403,221780,0.65,-0.22,9.96,-0.03,-0.01,-0.01,32.05
11507198,1936,1,189395,221826,0.66,-0.24,9.96,-0.04,-0.01,-0.01,32.05
11547195,1924,1,189413,222290,0.67,-0.23,9.96,-0.04,-0.01,-0.00,32.05
11588197,1929,1,189718,223103,0.67,-0.22,9.95,-0.04,-0.01,-0.01,32.05
11628196,1919,1,189995,223879,0.67,-0.22,9.95,-0.03,-0.01,-0.01,32.05
11668199,1906,1,189922,221681,0.67,-0.25,9.96,-0.03,-0.01,-0.01,32.05
11708196,1914,1,188807,219396,0.67,-0.22,9.98,-0.04,-0.01,-0.01,32.05
11748199,1908,1,188222,218842,0.68,-0.24,9.95,-0.04,-0.01,-0.01,32.05
11788196,1904,1,188138,219123,0.66,-0.22,9.96,-0.03,-0.01,-0.00,32.05
11828197,1903,1,188315,219960,0.65,-0.23,9.97,-0.03,-0.01,-0.01,32.05
11868196,1906,1,188647,221061,0.66,-0.23,9.97,-0.03,-0.01,-0.01,32.05
11908199,1902,1,189018,221876,0.66,-0.24,9.97,-0.03,-0.01,-0.01,32.05
11948196,1889,1,189169,222301,0.65,-0.23,9.97,-0.03,-0.01,-0.00,32.05
11988199,1877,1,189165,222482,0.66,-0.21,9.97,-0.04,-0.01,-0.01,32.05
12028196,1870,1,189154,222870,0.66,-0.22,9.99,-0.03,-0.00,-0.01,32.05
12068199,1857,1,189234,223322,0.67,-0.22,9.97,-0.03,-0.01,-0.01,32.05
12108883,1865,1,189360,223950,0.67,-0.22,9.95,-0.03,-0.01,-0.01,31.91
12147198,1812,1,189546,223889,0.65,-0.21,9.96,-0.03,-0.01,-0.00,31.91
12187195,1804,1,188649,220597,0.68,-0.21,9.98,-0.03,-0.01,-0.01,31.91
12227198,1788,1,187692,219157,0.66,-0.21,9.93,-0.03,-0.01,-0.01,31.91
12267196,1798,1,187435,219212,0.66,-0.21,9.96,-0.03,-0.01,-0.00,31.91
12307198,1795,1,187602,220027,0.66,-0.22,9.95,-0.03,-0.01,-0.01,31.91
12347195,1786,1,187884,221214,0.67,-0.23,9.94,-0.04,-0.01,-0.01,31.91
12387198,1792,1,188307,222014,0.65,-0.23,9.95,-0.03,-0.01,-0.01,31.91
12427196,1787,1,188402,222129,0.65,-0.22,9.96,-0.03,-0.01,-0.01,31.91
12467198,1773,1,188371,222134,0.65,-0.23,9.96,-0.03,-0.01,-0.00,31.91
12507195,1763,1,188316,222294,0.64,-0.23,9.96,-0.03,-0.01,-0.00,31.91
12547198,1775,1,188424,222784,0.64,-0.23,9.95,-0.03,-0.01,-0.01,31.91
12587212,1773,1,188672,223490,0.66,-0.23,9.96,-0.04,-0.01,-0.01,31.91
12627198,1746,1,188902,224201,0.66,-0.22,9.95,-0.03,-0.01,-0.01,31.91
12667195,1765,1,188824,222005,0.66,-0.22,9.97,-0.04,-0.00,-0.01,31.91
12707198,1744,1,187349,218952,0.66,-0.21,9.96,-0.04,-0.01,-0.01,31.91
12747196,1722,1,186669,217950,0.67,-0.22,9.96,-0.04,-0.01,-0.01,31.91
12787230,1733,1,186585,218161,0.66,-0.22,9.95,-0.03,-0.01,-0.01,31.91
12827196,1741,1,186741,219000,0.65,-0.23,9.94,-0.03,-0.01,-0.01,31.91
12867198,1731,1,187197,220202,0.65,-0.23,9.96,-0.03,-0.01,-0.01,31.91
12907195,1733,1,187550,221014,0.66,-0.23,9.94,-0.03,-0.01,-0.00,31.91
12947198,1747,1,187691,221231,0.67,-0.23,9.96,-0.03,-0.01,-0.01,31.91
12987218,1723,1,187642,221253,0.66,-0.19,9.95,-0.04,-0.01,-0.01,31.91
13027198,1729,1,187669,221415,0.67,-0.22,9.96,-0.03,-0.01,-0.00,31.91
13067195,1718,1,187825,221959,0.65,-0.22,9.95,-0.03,-0.01,-0.01,31.91
13107198,1729,1,188080,222615,0.65,-0.22,9.99,-0.04,-0.01,-0.00,31.91
13147882,1723,1,188307,223129,0.67,-0.23,9.97,-0.04,-0.01,-0.01,31.95
13188199,1716,1,187868,219933,0.65,-0.22,9.94,-0.03,-0.01,-0.01,31.95
13228196,1707,1,186670,217673,0.65,-0.22,9.97,-0.03,-0.01,-0.00,31.95
13268199,1712,1,186186,217130,0.65,-0.24,9.98,-0.04,-0.01,-0.01,31.95
13308196,1699,1,186235,217720,0.65,-0.22,9.95,-0.04,-0.01,-0.00,31.95
13348199,1715,1,186554,218566,0.65,-0.22,9.96,-0.03,-0.01,-0.01,31.95
13388196,1705,1,186982,219738,0.66,-0.21,9.98,-0.04,-0.01,-0.01,31.95
13428199,1695,1,187288,220297,0.65,-0.24,9.95,-0.03,-0.01,-0.01,31.95
13468196,1696,1,187329,220314,0.67,-0.23,9.95,-0.04,-0.01,-0.01,31.95
13508199,1699,1,187266,220260,0.66,-0.23,9.97,-0.03,-0.01,-0.00,31.95
13548196,1683,1,187296,220428,0.65,-0.23,9.97,-0.03,-0.01,-0.01,31.95
13588199,1687,1,187412,220802,0.67,-0.22,9.98,-0.04,-0.01,-0.00,31.95
13628196,1677,1,187570,221345,0.65,-0.24,9.94,-0.03,-0.01,-0.01,31.95
13668199,1680,1,187810,221546,0.66,-0.23,9.93,-0.03,-0.01,-0.01,31.95
13708196,1680,1,187234,218408,0.66,-0.23,9.95,-0.03,-0.01,-0.01,31.95
13748199,1680,1,186185,216234,0.64,-0.23,9.96,-0.04,-0.01,-0.01,31.95
13788196,1668,1,185644,215927,0.64,-0.22,9.96,-0.03,-0.01,-0.01,31.95
13828199,1670,1,185751,216352,0.65,-0.22,9.98,-0.03,-0.01,-0.01,31.95
13868196,1666,1,185994,217187,0.64,-0.23,9.97,-0.04,-0.01,-0.00,31.95
13908197,1677,1,186416,218232,0.66,-0.24,9.97,-0.03,-0.01,-0.01,31.95
13948196,1675,1,186642,218636,0.65,-0.21,9.97,-0.04,-0.00,-0.00,31.95
13988199,1679,1,186700,218714,0.67,-0.21,9.94,-0.03,-0.01,-0.00,31.95
14028196,1668,1,186699,218869,0.65,-0.23,9.95,-0.04,-0.01,-0.01,31.95
14068199,1678,1,186853,219260,0.66,-0.22,9.94,-0.04,-0.01,-0.00,31.95
14108196,1676,1,187002,219793,0.65,-0.22,9.97,-0.03,-0.01,-0.01,31.95
14148886,1655,1,187229,220540,0.66,-0.21,9.96,-0.03,-0.01,-0.00,31.95
14187195,1701,1,187486,220739,0.66,-0.23,9.98,-0.03,-0.01,-0.01,31.95
14227198,1713,1,186845,217784,0.65,-0.21,9.96,-0.03,-0.01,-0.01,31.95
14267196,1722,1,185852,215877,0.65,-0.22,9.94,-0.03,-0.01,-0.01,31.95
14307198,1724,1,185498,215636,0.68,-0.23,9.98,-0.03,-0.01,-0.01,31.95
14347196,1729,1,185607,216295,0.65,-0.23,9.95,-0.04,-0.01,-0.01,31.95
14387198,1740,1,185956,217212,0.65,-0.21,9.96,-0.04,-0.01,-0.01,31.95
14427195,1744,1,186255,218293,0.65,-0.22,9.95,-0.04,-0.01,-0.01,31.95
14467198,1746,1,186540,218752,0.67,-0.22,9.96,-0.04,-0.01,-0.01,31.95
14507196,1760,1,186584,218928,0.66,-0.22,9.94,-0.03,-0.01,-0.00,31.95
14547198,1763,1,186618,219045,0.65,-0.23,9.98,-0.04,-0.01,-0.01,31.95
14587196,1763,1,186697,219494,0.64,-0.22,9.97,-0.03,-0.01,-0.00,31.95
14627198,1773,1,186919,220117,0.66,-0.20,9.96,-0.03,-0.01,-0.01,31.95
14667195,1791,1,187170,220764,0.65,-0.22,9.94,-0.03,-0.01,-0.01,31.95
14707198,1797,1,187445,221099,0.68,-0.22,9.96,-0.03,-0.01,-0.01,31.95
14747196,1796,1,186839,218140,0.65,-0.23,9.95,-0.03,-0.01,-0.00,31.95
14787198,1778,1,185828,216089,0.67,-0.21,9.96,-0.03,-0.01,-0.01,31.95
14827196,1798,1,185378,215742,0.66,-0.23,9.98,-0.03,-0.01,-0.01,31.95
14867198,1820,1,185482,216193,0.66,-0.22,9.95,-0.03,-0.01,-0.00,31.95
14907195,1835,1,185759,217102,0.64,-0.24,9.97,-0.03,-0.01,-0.01,31.95
14947198,1840,1,186147,218131,0.66,-0.22,9.98,-0.03,-0.01,-0.01,31.95
14987196,1854,1,186450,218588,0.63,-0.21,9.96,-0.03,-0.01,-0.00,31.95
15027198,1856,1,186482,218615,0.64,-0.22,9.96,-0.04,-0.01,-0.01,31.95
15067195,1859,1,186449,218784,0.66,-0.24,9.96,-0.03,-0.01,-0.00,31.95
15107198,1850,1,186486,219036,0.66,-0.22,9.96,-0.04,-0.01,-0.01,31.95
15147195,1872,1,186592,219440,0.64,-0.24,9.99,-0.03,-0.01,-0.01,31.95
15187885,1798,1,186828,220095,0.67,-0.23,9.98,-0.03,-0.01,-0.01,31.83
15228196,1799,1,187143,220553,0.65,-0.22,9.96,-0.04,-0.01,-0.01,31.83
15268199,1810,1,186598,217566,0.67,-0.22,9.96,-0.03,-0.01,-0.00,31.83
15308196,1815,1,185508,215407,0.65,-0.22,9.97,-0.03,-0.01,-0.01,31.83
15348199,1827,1,185099,215060,0.65,-0.22,9.94,-0.03,-0.01,-0.01,31.83
15388196,1840,1,185233,215632,0.68,-0.23,9.98,-0.03,-0.01,-0.01,31.83
15428199,1849,1,185499,216416,0.66,-0.24,9.94,-0.04,-0.01,-0.01,31.83
15468195,1843,1,185895,217470,0.64,-0.22,9.98,-0.03,-0.01,-0.01,31.83
15508199,1856,1,186125,217898,0.67,-0.23,9.97,-0.04,-0.01,-0.01,31.83
15548196,1870,1,186199,217989,0.64,-0.22,9.95,-0.03,-0.01,-0.00,31.83
15588199,1872,1,186236,218105,0.66,-0.23,9.97,-0.03,-0.01,-0.01,31.83
15628196,1889,1,186361,218447,0.66,-0.20,9.97,-0.03,-0.01,-0.01,31.83
15668197,1888,1,186471,218802,0.65,-0.23,9.97,-0.04,-0.01,-0.00,31.83
15708196,1891,1,186657,219368,0.64,-0.23,9.96,-0.03,-0.01,-0.01,31.83
15748199,1903,1,186809,219238,0.65,-0.24,9.97,-0.04,-0.01,-0.01,31.83
15788196,1915,1,186136,216384,0.64,-0.21,9.95,-0.03,-0.01,-0.00,31.83
15828199,1907,1,185114,214387,0.65,-0.23,9.95,-0.03,-0.01,-0.00,31.83
15868196,1916,1,184756,214207,0.66,-0.23,9.94,-0.03,-0.01,-0.01,31.83
15908199,1913,1,184879,214701,0.65,-0.23,9.96,-0.04,-0.01,-0.01,31.83
15948196,1923,1,185113,215454,0.66,-0.20,9.97,-0.03,-0.01,-0.01,31.83
15988197,1921,1,185504,216474,0.66,-0.23,9.96,-0.04,-0.01,-0.01,31.83
16028196,1927,1,185756,216956,0.63,-0.22,9.95,-0.03,-0.01,-0.01,31.83
16068203,1919,1,185822,217053,0.66,-0.22,9.96,-0.03,-0.01,-0.01,31.83
16108196,1916,1,185916,217331,0.65,-0.24,9.97,-0.04,-0.01,-0.01,31.83
16148199,1919,1,185993,217599,0.65,-0.22,9.96,-0.03,-0.01,-0.00,31.83
16188883,1893,1,186173,218138,0.66,-0.23,9.96,-0.04,-0.01,-0.01,31.89
16227198,1918,1,186323,218636,0.65,-0.23,9.98,-0.04,-0.01,-0.01,31.89
16267235,1894,1,186510,218772,0.64,-0.23,9.98,-0.04,-0.01,-0.00,31.89
16307198,1887,1,186033,215889,0.65,-0.23,9.97,-0.03,-0.01,-0.01,31.89
16347195,1875,1,184917,213715,0.66,-0.23,9.93,-0.04,-0.01,-0.01,31.89
16387198,1854,1,184503,213408,0.68,-0.23,9.96,-0.03,-0.01,-0.01,31.89
16427196,1850,1,184600,213949,0.64,-0.22,9.96,-0.04,-0.01,-0.01,31.89
16467198,1845,1,184879,214778,0.65,-0.22,9.97,-0.03,-0.01,-0.01,31.89
16507196,1831,1,185308,215784,0.66,-0.21,9.95,-0.03,-0.01,-0.01,31.89
16547198,1825,1,185596,216274,0.67,-0.24,9.96,-0.03,-0.01,-0.01,31.89
16587196,1809,1,185681,216374,0.67,-0.22,9.97,-0.03,-0.01,-0.00,31.89
16627198,1811,1,185724,216527,0.66,-0.22,9.99,-0.04,-0.01,-0.01,31.89
16667196,1803,1,185803,216712,0.66,-0.22,9.96,-0.03,-0.01,-0.00,31.89
16707198,1791,1,186014,217228,0.66,-0.23,9.96,-0.03,-0.01,-0.00,31.89
16747195,1771,1,186261,217823,0.66,-0.23,9.97,-0.04,-0.01,-0.01,31.89
16787198,1761,1,186554,218402,0.67,-0.23,9.98,-0.03,-0.01,-0.01,31.89
16827196,1747,1,186445,216404,0.67,-0.24,9.98,-0.03,-0.01,-0.01,31.89
16867198,1747,1,185312,213511,0.65,-0.22,9.97,-0.04,-0.01,-0.01,31.89
16907196,1756,1,184611,212767,0.66,-0.21,9.96,-0.03,-0.01,-0.00,31.89
16947198,1746,1,184757,213292,0.64,-0.23,9.96,-0.04,-0.01,-0.00,31.89
16987195,1742,1,185043,214019,0.65,-0.22,10.01,-0.03,-0.01,-0.00,31.89
17027198,1744,1,185355,215033,0.67,-0.22,9.98,-0.03,-0.01,-0.01,31.89
17067195,1739,1,185774,215761,0.66,-0.22,9.95,-0.03,-0.01,-0.01,31.89
17107198,1730,1,185939,216003,0.66,-0.21,9.99,-0.04,-0.01,-0.01,31.89
17147195,1712,1,185982,216147,0.66,-0.21,9.96,-0.03,-0.01,-0.01,31.89
17187197,1710,1,186092,216440,0.63,-0.23,9.95,-0.03,-0.01,-0.01,31.89
17227883,1674,1,186242,216828,0.66,-0.23,9.98,-0.03,-0.01,-0.00,31.95
17268197,1664,1,186507,217448,0.67,-0.24,9.96,-0.03,-0.01,-0.00,31.95
17308196,1639,1,186717,217975,0.68,-0.23,9.97,-0.03,-0.01,-0.00,31.95
17348199,1602,1,186969,217830,0.65,-0.23,9.97,-0.04,-0.01,-0.00,31.95
17388196,1567,1,186339,214926,0.66,-0.22,9.96,-0.03,-0.01,-0.01,31.95
17428199,1535,1,185249,213058,0.67,-0.24,9.99,-0.03,-0.01,-0.01,31.95
17468196,1520,1,184997,213244,0.66,-0.23,9.97,-0.03,-0.01,-0.01,31.95
17508199,1522,1,185278,214048,0.66,-0.24,9.96,-0.04,-0.01,-0.00,31.95
17548196,1519,1,185671,215179,0.64,-0.23,9.97,-0.03,-0.01,-0.00,31.95
17588199,1535,1,186270,216529,0.67,-0.21,9.97,-0.04,-0.01,-0.01,31.95
17628196,1561,1,186692,217415,0.65,-0.21,9.95,-0.03,-0.01,-0.01,31.95
17668199,1593,1,186778,217541,0.67,-0.24,10.00,-0.04,-0.00,-0.01,31.95
17708199,1641,1,186756,217718,0.66,-0.21,9.98,-0.03,-0.01,-0.01,31.95
17748199,1705,1,186893,218082,0.65,-0.23,9.96,-0.03,-0.01,-0.00,31.95
17788195,1747,1,187034,218650,0.66,-0.21,9.97,-0.03,-0.01,-0.01,31.95
17828199,1790,1,187258,219148,0.67,-0.22,9.96,-0.03,-0.01,-0.01,31.95
17868195,1830,1,187505,219711,0.66,-0.22,9.95,-0.03,-0.01,-0.01,31.95
17908218,1872,1,187786,219306,0.65,-0.21,9.97,-0.03,-0.01,-0.01,31.95
17948196,1876,1,186929,216306,0.66,-0.21,9.96,-0.03,-0.01,-0.00,31.95
17988199,1872,1,185984,214537,0.67,-0.23,9.94,-0.03,-0.01,-0.01,31.95
18028196,1884,1,185840,214735,0.65,-0.20,9.98,-0.03,-0.01,-0.01,31.95
18068199,1875,1,186212,215584,0.66,-0.21,9.96,-0.03,-0.01,-0.01,31.95
18108217,1882,1,186608,216585,0.66,-0.22,9.95,-0.03,-0.01,-0.00,31.95
18148199,1863,1,187007,217355,0.67,-0.21,9.97,-0.03,-0.01,-0.01,31.95
18188196,1828,1,187186,217534,0.67,-0.21,9.98,-0.03,-0.00,-0.00,31.95
18228884,1792,1,187171,217467,0.66,-0.22,9.97,-0.03,-0.01,-0.00,31.91
18267195,1817,1,187092,217598,0.65,-0.22,9.96,-0.04,-0.01,-0.01,31.91
18307198,1793,1,187203,217866,0.67,-0.22,9.96,-0.04,-0.01,-0.01,31.91
18347195,1747,1,187299,218033,0.67,-0.23,9.94,-0.03,-0.01,-0.00,31.91
18387198,1732,1,187356,218247,0.66,-0.20,9.98,-0.04,-0.01,-0.01,31.91
18427195,1683,1,187478,218643,0.67,-0.22,9.97,-0.03,-0.01,-0.01,31.91
18467198,1627,1,187338,216593,0.66,-0.23,9.93,-0.04,-0.01,-0.01,31.91
18507195,1600,1,186076,213640,0.66,-0.23,9.99,-0.03,-0.01,-0.01,31.91
18547198,1584,1,185445,213078,0.66,-0.22,9.96,-0.03,-0.01,-0.00,31.91
18587196,1557,1,185583,213912,0.65,-0.24,9.98,-0.03,-0.01,-0.01,31.91
18627198,1527,1,186026,215016,0.66,-0.22,9.97,-0.03,-0.01,-0.01,31.91
18667196,1531,1,186537,216255,0.66,-0.21,9.98,-0.03,-0.01,-0.01,31.91
18707198,1517,1,186963,216971,0.65,-0.23,9.98,-0.03,-0.01,-0.01,31.91
18747196,1522,1,187080,217097,0.67,-0.21,9.93,-0.04,-0.01,-0.01,31.91
18787198,1535,1,187076,216991,0.68,-0.23,9.98,-0.04,-0.01,-0.01,31.91
18827195,1572,1,186950,216863,0.66,-0.21,9.97,-0.04,-0.00,-0.01,31.91
18867198,1603,1,186959,217050,0.68,-0.22,9.97,-0.03,-0.01,-0.01,31.91
18907196,1621,1,187047,217474,0.65,-0.23,9.96,-0.04,-0.01,-0.00,31.91
18947198,1648,1,187339,218143,0.67,-0.21,9.97,-0.03,-0.01,-0.01,31.91
18987196,1690,1,187468,217161,0.66,-0.21,9.95,-0.04,-0.01,-0.01,31.91
19027198,1712,1,186453,213738,0.67,-0.23,9.96,-0.03,-0.01,-0.01,31.91
19067196,1748,1,185307,211764,0.66,-0.22,9.95,-0.04,-0.01,-0.01,31.91
19107198,1782,1,185099,211813,0.67,-0.23,9.96,-0.03,-0.01,-0.01,31.91
19147196,1813,1,185251,212672,0.67,-0.23,9.94,-0.04,-0.01,-0.00,31.91
19187198,1861,1,185680,213921,0.68,-0.23,9.96,-0.04,-0.01,-0.00,31.91
19227195,1895,1,186114,215081,0.66,-0.24,9.98,-0.03,-0.01,-0.01,31.91
19267885,1859,1,186484,215831,0.67,-0.21,9.94,-0.03,-0.01,-0.01,31.91
19308195,1887,1,186687,216069,0.67,-0.19,9.96,-0.04,-0.01,-0.01,31.91
19348199,1936,1,186848,216576,0.65,-0.23,9.98,-0.03,-0.01,-0.00,31.91
19388196,1963,1,187024,217103,0.66,-0.24,9.98,-0.03,-0.01,-0.01,31.91
19428199,1993,1,187145,217507,0.63,-0.24,9.99,-0.04,-0.00,-0.01,31.91
19468196,2011,1,187392,218260,0.65,-0.22,9.98,-0.04,-0.01,-0.01,31.91
19508199,2053,1,187753,218594,0.67,-0.22,9.96,-0.03,-0.01,-0.01,31.91
19547196,2122,1,187095,215435,0.66,-0.23,9.96,-0.03,-0.01,-0.01,31.91
19587198,2113,1,185868,213219,0.66,-0.23,9.97,-0.03,-0.01,-0.01,31.91
19627196,2119,1,185529,213238,0.68,-0.23,9.98,-0.03,-0.01,-0.00,31.91
19667198,2127,1,185682,213826,0.65,-0.21,9.98,-0.04,-0.01,-0.01,31.91
19707195,2133,1,185852,214785,0.68,-0.23,9.95,-0.04,-0.01,-0.01,31.91
19747198,2123,1,186296,216051,0.66,-0.21,9.96,-0.04,-0.01,-0.00,31.91
19787195,2131,1,186667,216766,0.65,-0.23,9.93,-0.04,-0.01,-0.01,31.91
19827198,2113,1,186761,217138,0.67,-0.21,9.96,-0.04,-0.00,-0.00,31.91
19867195,2114,1,186718,217425,0.65,-0.20,9.97,-0.04,-0.01,-0.01,31.91
19907198,2100,1,186873,217963,0.66,-0.22,9.96,-0.03,-0.01,-0.01,31.91
19947195,2093,1,187085,218488,0.66,-0.21,9.97,-0.04,-0.01,-0.01,31.91
19987198,2076,1,187323,219255,0.64,-0.23,9.99,-0.04,-0.01,-0.01,31.91
20027196,2063,1,187737,220276,0.66,-0.23,9.96,-0.03,-0.01,-0.01,31.91
20067197,2037,1,187905,218667,0.67,-0.23,9.96,-0.03,-0.01,-0.01,31.91
20107196,2011,1,186578,215673,0.66,-0.23,9.93,-0.03,-0.01,-0.00,31.91
20147198,2001,1,185794,214734,0.66,-0.22,9.96,-0.04,-0.01,-0.01,31.91
20187195,1968,1,185751,215178,0.67,-0.23,9.95,-0.03,-0.01,-0.01,31.91
20227198,1949,1,185980,215850,0.67,-0.21,9.96,-0.04,-0.01,-0.01,31.91
20267883,1938,1,186240,216853,0.66,-0.22,9.97,-0.03,-0.01,-0.01,31.91
20308199,1939,1,186701,217659,0.66,-0.23,9.97,-0.04,-0.01,-0.00,31.91
20348195,1910,1,186887,217952,0.68,-0.22,9.95,-0.03,-0.01,-0.00,31.91
20388199,1888,1,186958,218069,0.66,-0.21,9.95,-0.03,-0.01,-0.01,31.91
20428196,1883,1,186988,218404,0.66,-0.23,9.98,-0.03,-0.01,-0.00,31.91
20468199,1879,1,187152,218896,0.66,-0.21,9.96,-0.03,-0.01,-0.01,31.91
20508195,1849,1,187359,219570,0.67,-0.22,9.99,-0.03,-0.01,-0.00,31.91
20548199,1829,1,187670,220387,0.66,-0.22,9.98,-0.03,-0.01,-0.01,31.91
20588196,1799,1,187924,220421,0.65,-0.23,9.99,-0.03,-0.01,-0.01,31.91
20628199,1799,1,187086,216959,0.67,-0.20,9.97,-0.03,-0.01,-0.01,31.91
20668196,1779,1,185938,215079,0.68,-0.22,10.00,-0.03,-0.01,-0.01,31.91
20708199,1753,1,185628,214981,0.68,-0.23,9.96,-0.03,-0.01,-0.00,31.91
20748196,1755,1,185851,215758,0.66,-0.23,9.96,-0.03,-0.01,-0.01,31.91
20788199,1731,1,186280,216844,0.65,-0.23,9.97,-0.04,-0.01,-0.01,31.91
20828195,1719,1,186844,218203,0.66,-0.20,9.96,-0.03,-0.01,-0.01,31.91
20868199,1712,1,187273,218850,0.66,-0.22,9.97,-0.04,-0.01,-0.01,31.91
20908196,1701,1,187394,219075,0.66,-0.22,9.97,-0.03,-0.01,-0.01,31.91
20948199,1690,1,187497,219417,0.67,-0.21,9.97,-0.03,-0.01,-0.01,31.91
20988196,1686,1,187701,219967,0.66,-0.22,9.96,-0.03,-0.01,-0.01,31.91
21028199,1680,1,187950,220622,0.68,-0.21,9.97,-0.03,-0.01,-0.00,31.91
21068196,1677,1,188282,221444,0.67,-0.19,9.98,-0.03,-0.01,-0.01,31.91
21108199,1682,1,188631,221577,0.66,-0.21,9.96,-0.03,-0.01,-0.01,31.91
21148196,1669,1,187813,217996,0.66,-0.23,9.98,-0.03,-0.01,-0.00,31.91
21188203,1665,1,186534,215576,0.65,-0.23,9.95,-0.03,-0.01,-0.01,31.91
21228196,1655,1,186075,215170,0.67,-0.22,9.99,-0.03,-0.01,-0.01,31.91
21268886,1657,1,186274,215894,0.65,-0.22,9.96,-0.03,-0.01,-0.01,31.97
21307196,1662,1,186608,216853,0.67,-0.22,9.96,-0.03,-0.01,-0.00,31.97
21347198,1673,1,187163,218096,0.66,-0.21,9.96,-0.03,-0.01,-0.01,31.97
21387236,1662,1,187515,218620,0.66,-0.23,9.96,-0.03,-0.01,-0.01,31.97
21427198,1670,1,187611,218658,0.67,-0.21,9.95,-0.04,-0.01,-0.01,31.97
21467195,1662,1,187547,218776,0.67,-0.23,9.96,-0.03,-0.01,-0.00,31.97
21507198,1680,1,187611,219023,0.69,-0.21,9.96,-0.03,-0.01,-0.01,31.97
21547195,1667,1,187703,219463,0.68,-0.21,9.96,-0.04,-0.01,-0.00,31.97
21587197,1677,1,187848,220087,0.68,-0.23,9.95,-0.04,-0.01,-0.01,31.97
21627196,1673,1,188090,220484,0.66,-0.22,9.98,-0.03,-0.01,-0.01,31.97
21667198,1675,1,187491,217320,0.69,-0.25,9.97,-0.04,-0.01,-0.01,31.97
21707196,1666,1,186178,214939,0.67,-0.23,9.98,-0.03,-0.00,-0.00,31.97
21747198,1670,1,185758,214872,0.64,-0.23,9.96,-0.03,-0.01,-0.01,31.97
21787196,1687,1,185905,215656,0.65,-0.22,9.97,-0.04,-0.01,-0.01,31.97
21827198,1669,1,186234,216687,0.65,-0.24,9.96,-0.04,-0.01,-0.00,31.97
21867195,1690,1,186697,217999,0.66,-0.21,9.99,-0.03,-0.01,-0.00,31.97
21907198,1692,1,187117,218785,0.66,-0.22,9.94,-0.03,-0.01,-0.00,31.97
21947195,1687,1,187295,219041,0.65,-0.22,9.98,-0.03,-0.01,-0.01,31.97
21987198,1703,1,187304,219253,0.64,-0.21,9.96,-0.03,-0.01,-0.01,31.97
22027196,1696,1,187468,219842,0.64,-0.23,9.97,-0.04,-0.01,-0.01,31.97
22067198,1711,1,187742,220574,0.66,-0.22,9.97,-0.03,-0.01,-0.01,31.97
22107198,1712,1,188074,221560,0.67,-0.25,9.98,-0.04,-0.01,-0.01,31.97
22147198,1718,1,188494,222169,0.67,-0.22,9.94,-0.03,-0.01,-0.01,31.97
22187198,1707,1,187885,218426,0.65,-0.21,9.99,-0.03,-0.01,-0.01,31.97
22227198,1697,1,186462,216096,0.66,-0.21,9.96,-0.03,-0.01,-0.01,31.97
22267198,1721,1,185907,215757,0.66,-0.22,9.97,-0.03,-0.01,-0.01,31.97
22307885,1665,1,185985,216325,0.66,-0.22,9.96,-0.04,-0.01,-0.01,32.03
22348196,1683,1,186297,217256,0.65,-0.21,9.96,-0.03,-0.01,-0.01,32.03
22388199,1677,1,186764,218445,0.65,-0.23,9.96,-0.03,-0.01,-0.01,32.03
22428196,1679,1,187196,219145,0.65,-0.22,9.97,-0.03,-0.01,-0.01,32.03
22468199,1670,1,187370,219259,0.65,-0.21,9.96,-0.03,-0.01,-0.00,32.03
22508195,1677,1,187372,219321,0.66,-0.22,9.97,-0.03,-0.01,-0.01,32.03
22548199,1670,1,187445,219512,0.67,-0.22,9.94,-0.04,-0.01,-0.01,32.03
22588196,1680,1,187658,220161,0.66,-0.21,9.96,-0.03,-0.01,-0.00,32.03
22627197,1741,1,187791,220781,0.66,-0.23,9.97,-0.03,-0.01,-0.00,32.03
22667195,1728,1,188131,221620,0.65,-0.22,9.98,-0.03,-0.01,-0.01,32.03
22707198,1746,1,188125,219328,0.67,-0.22,9.95,-0.03,-0.01,-0.01,32.03
22747198,1744,1,186818,216453,0.65,-0.21,9.95,-0.04,-0.01,-0.01,32.03
22787197,1744,1,186107,215533,0.66,-0.22,9.95,-0.03,-0.01,-0.01,32.03
22827211,1759,1,186146,215968,0.67,-0.20,9.96,-0.04,-0.01,-0.01,32.03
22867198,1794,1,186457,216813,0.68,-0.22,9.98,-0.03,-0.01,-0.01,32.03
22907198,1795,1,186872,217956,0.67,-0.23,9.96,-0.03,-0.01,-0.01,32.03
22947198,1825,1,187334,218726,0.66,-0.23,9.93,-0.03,-0.01,-0.01,32.03
22987196,1856,1,187510,219027,0.65,-0.22,9.96,-0.03,-0.01,-0.00,32.03
23027228,1911,1,187552,219190,0.66,-0.23,9.98,-0.04,-0.01,-0.00,32.03
23067195,1930,1,187703,219452,0.67,-0.23,9.97,-0.04,-0.01,-0.01,32.03
23107198,1968,1,187778,219769,0.66,-0.20,9.96,-0.03,-0.01,-0.01,32.03
23147195,2008,1,187952,220334,0.67,-0.24,9.95,-0.04,-0.01,-0.01,32.03
23187198,2054,1,188298,221215,0.67,-0.23,9.97,-0.03,-0.01,-0.00,32.03
23227218,2067,1,188391,219499,0.66,-0.23,9.96,-0.04,-0.01,-0.01,32.03
23267198,2099,1,187089,216002,0.66,-0.22,9.97,-0.03,-0.01,-0.01,32.03
23307883,2047,1,186110,214608,0.66,-0.23,9.95,-0.04,-0.01,-0.01,31.95
23348199,2081,1,185979,214496,0.67,-0.21,9.95,-0.03,-0.01,-0.01,31.95
23388196,2080,1,186077,214974,0.67,-0.22,9.98,-0.03,-0.01,-0.01,31.95
23428199,2098,1,186353,215915,0.68,-0.24,9.96,-0.03,-0.01,-0.01,31.95
23468196,2102,1,186802,216902,0.67,-0.23,9.96,-0.03,-0.01,-0.00,31.95
23508199,2111,1,187059,217174,0.67,-0.23,9.96,-0.03,-0.01,-0.01,31.95
23548196,2094,1,187071,217331,0.67,-0.21,9.96,-0.04,-0.01,-0.01,31.95
23588199,2091,1,187111,217688,0.67,-0.22,9.96,-0.03,-0.01,-0.01,31.95
23628196,2065,1,187346,218214,0.67,-0.22,9.94,-0.03,-0.01,-0.00,31.95
23667198,2096,1,187454,218867,0.66,-0.23,9.94,-0.03,-0.01,-0.00,31.95
23707195,2070,1,187796,219582,0.67,-0.21,9.95,-0.03,-0.01,-0.01,31.95
23747198,2061,1,187708,217544,0.67,-0.22,9.95,-0.03,-0.01,-0.01,31.95
23787196,2023,1,186411,214429,0.67,-0.23,9.95,-0.04,-0.01,-0.01,31.95
23827198,2000,1,185634,213834,0.68,-0.23,9.98,-0.03,-0.01,-0.00,31.95
23867196,1975,1,185870,214568,0.67,-0.21,9.96,-0.04,-0.01,-0.01,31.95
23907198,1955,1,186135,215357,0.67,-0.22,9.95,-0.04,-0.01,-0.01,31.95
23947196,1933,1,186501,216272,0.67,-0.22,9.96,-0.03,-0.01,-0.01,31.95
23987198,1915,1,186792,216725,0.67,-0.22,9.96,-0.04,-0.01,-0.01,31.95
24027196,1882,1,186923,216884,0.67,-0.22,9.98,-0.03,-0.01,-0.01,31.95
24067198,1856,1,186953,217199,0.66,-0.22,9.99,-0.03,-0.01,-0.00,31.95
24107196,1840,1,187119,217660,0.66,-0.23,9.97,-0.03,-0.01,-0.01,31.95
24147198,1825,1,187297,218125,0.68,-0.24,9.96,-0.04,-0.01,-0.00,31.95
24187196,1823,1,187483,218654,0.65,-0.22,9.96,-0.03,-0.01,-0.01,31.95
24227198,1808,1,187738,219142,0.69,-0.20,9.94,-0.03,-0.01,-0.01,31.95
24267195,1793,1,187485,216679,0.65,-0.21,9.95,-0.03,-0.01,-0.01,31.95
24307198,1773,1,186139,213807,0.67,-0.22,9.97,-0.04,-0.01,-0.01,31.95
24347883,1777,1,185639,213475,0.67,-0.23,9.97,-0.04,-0.01,-0.01,31.97
24388199,1777,1,185828,214192,0.67,-0.22,9.93,-0.04,-0.01,-0.01,31.97
24428195,1781,1,186267,215338,0.68,-0.21,9.97,-0.03,-0.01,-0.01,31.97
24468198,1778,1,186738,216492,0.66,-0.22,9.94,-0.03,-0.01,-0.01,31.97
24508195,1782,1,187105,217171,0.67,-0.22,9.96,-0.03,-0.01,-0.01,31.97
24548199,1797,1,187253,217386,0.65,-0.23,9.95,-0.03,-0.01,-0.01,31.97
24588195,1785,1,187291,217558,0.66,-0.21,9.96,-0.03,-0.01,-0.01,31.97
24628199,1792,1,187334,217725,0.67,-0.22,9.98,-0.03,-0.01,-0.01,31.97
24667196,1797,1,187317,218139,0.64,-0.22,9.96,-0.03,-0.01,-0.00,31.97
24707198,1778,1,187511,218683,0.66,-0.22,9.99,-0.04,-0.01,-0.01,31.97
24747196,1765,1,187834,219057,0.66,-0.23,9.97,-0.04,-0.01,-0.01,31.97
24787198,1767,1,187329,216133,0.66,-0.23,9.96,-0.03,-0.01,-0.01,31.97
24827196,1744,1,186035,213693,0.65,-0.20,9.97,-0.03,-0.01,-0.01,31.97
24867198,1755,1,185679,213623,0.68,-0.24,9.98,-0.04,-0.01,-0.01,31.97
24907196,1765,1,185944,214475,0.65,-0.21,9.96,-0.03,-0.01,-0.00,31.97
24947198,1763,1,186388,215687,0.68,-0.22,9.96,-0.04,-0.01,-0.01,31.97
24987196,1751,1,186792,216728,0.66,-0.21,9.94,-0.03,-0.01,-0.00,31.97
25027198,1759,1,187068,217198,0.66,-0.22,9.97,-0.03,-0.00,-0.01,31.97
25067195,1759,1,187094,217293,0.64,-0.21,9.93,-0.04,-0.00,-0.00,31.97
25107198,1766,1,187136,217416,0.67,-0.23,9.96,-0.04,-0.01,-0.01,31.97
25147196,1760,1,187197,217805,0.65,-0.21,9.96,-0.03,-0.01,-0.00,31.97
25187197,1753,1,187376,218363,0.68,-0.21,9.96,-0.03,-0.01,-0.01,31.97
25227196,1747,1,187671,219146,0.68,-0.21,9.97,-0.03,-0.01,-0.00,31.97
25267198,1747,1,188046,219323,0.65,-0.22,9.96,-0.03,-0.01,-0.00,31.97
25307196,1732,1,187354,216182,0.65,-0.23,9.97,-0.04,-0.01,-0.01,31.97
25347198,1744,1,186104,213995,0.66,-0.24,9.99,-0.03,-0.01,-0.01,31.97
25387883,1711,1,185909,214184,0.66,-0.24,9.96,-0.04,-0.01,-0.01,31.89
25428199,1708,1,186256,215118,0.67,-0.23,9.98,-0.03,-0.01,-0.01,31.89
25468195,1702,1,186616,216111,0.66,-0.23,9.96,-0.03,-0.01,-0.01,31.89
25508199,1695,1,187071,217121,0.67,-0.23,9.96,-0.04,-0.01,-0.01,31.89
25548195,1669,1,187322,217527,0.66,-0.19,9.97,-0.04,-0.00,-0.00,31.89
25588199,1675,1,187380,217590,0.66,-0.22,9.98,-0.03,-0.01,-0.00,31.89
25628196,1665,1,187418,217707,0.67,-0.24,9.98,-0.03,-0.01,-0.01,31.89
25668198,1670,1,187517,218053,0.67,-0.23,9.93,-0.04,-0.01,-0.01,31.89
25708195,1664,1,187650,218518,0.66,-0.22,9.96,-0.03,-0.01,-0.01,31.89
25748208,1673,1,187909,219245,0.69,-0.22,9.94,-0.04,-0.01,-0.00,31.89
25788195,1650,1,188068,218788,0.65,-0.23,9.97,-0.04,-0.01,-0.00,31.89
25828199,1648,1,187130,215465,0.67,-0.21,9.95,-0.04,-0.01,-0.01,31.89
25868195,1655,1,186093,214138,0.66,-0.22,9.97,-0.03,-0.01,-0.01,31.89
25908199,1648,1,186107,214774,0.66,-0.22,9.96,-0.03,-0.01,-0.01,31.89
25948195,1648,1,186387,215677,0.65,-0.23,9.96,-0.03,-0.01,-0.01,31.89
25988199,1647,1,186797,216714,0.66,-0.23,9.96,-0.03,-0.01,-0.01,31.89
26028196,1648,1,187170,217495,0.68,-0.21,9.97,-0.03,-0.01,-0.01,31.89
26068199,1650,1,187392,217874,0.65,-0.20,9.97,-0.04,-0.01,-0.01,31.89
26108195,1639,1,187457,218013,0.67,-0.21,10.00,-0.03,-0.01,-0.00,31.89
26148199,1654,1,187475,218135,0.66,-0.23,9.96,-0.04,-0.01,-0.01,31.89
26188196,1646,1,187627,218734,0.66,-0.23,9.96,-0.03,-0.01,-0.01,31.89
26228198,1648,1,187867,219286,0.67,-0.22,9.96,-0.03,-0.01,-0.01,31.89
26268195,1631,1,188116,219882,0.67,-0.19,9.97,-0.03,-0.01,-0.01,31.89
26308208,1635,1,188037,217915,0.65,-0.22,9.95,-0.03,-0.01,-0.00,31.89
26348196,1609,1,186774,214846,0.67,-0.22,9.95,-0.03,-0.01,-0.01,31.89
26388886,1584,1,185976,214253,0.66,-0.23,9.94,-0.03,-0.01,-0.01,31.85
26429196,1590,1,186092,214786,0.68,-0.23,9.95,-0.03,-0.01,-0.01,31.85
26469197,1603,1,186470,215738,0.67,-0.22,9.93,-0.03,-0.01,-0.01,31.85
26509217,1611,1,186911,216831,0.67,-0.24,9.96,-0.03,-0.01,-0.01,31.85
26549196,1611,1,187360,217694,0.69,-0.22,9.97,-0.03,-0.01,-0.01,31.85
26589196,1625,1,187503,217886,0.67,-0.21,9.98,-0.03,-0.01,-0.01,31.85
26629197,1657,1,187511,217963,0.65,-0.22,9.94,-0.04,-0.01,-0.01,31.85
26669197,1679,1,187547,218211,0.66,-0.21,9.95,-0.04,-0.01,-0.01,31.85
26709217,1706,1,187666,218717,0.65,-0.21,9.95,-0.03,-0.01,-0.01,31.85
26749196,1737,1,187902,219362,0.66,-0.22,9.97,-0.03,-0.01,-0.01,31.85
26789196,1765,1,188213,219754,0.66,-0.23,9.96,-0.03,-0.01,-0.01,31.85
26829196,1809,1,187735,216745,0.68,-0.21,9.95,-0.04,-0.01,-0.00,31.85
26869197,1842,1,186406,214394,0.66,-0.21,9.94,-0.03,-0.01,-0.00,31.85
26909197,1869,1,186025,214367,0.66,-0.21,9.96,-0.03,-0.01,-0.01,31.85
26949197,1903,1,186314,215128,0.66,-0.23,9.96,-0.03,-0.01,-0.01,31.85
26989196,1931,1,186647,216054,0.69,-0.23,9.96,-0.03,-0.01,-0.00,31.85
27029196,1936,1,187034,217139,0.68,-0.23,9.94,-0.03,-0.01,-0.01,31.85
27069196,1952,1,187470,217642,0.68,-0.19,9.94,-0.03,-0.01,-0.00,31.85
27109197,1963,1,187451,217778,0.67,-0.24,9.99,-0.04,-0.01,-0.01,31.85
27149196,1959,1,187498,217875,0.66,-0.21,9.98,-0.03,-0.01,-0.01,31.85
27189197,1962,1,187609,218236,0.68,-0.22,9.96,-0.04,-0.01,-0.01,31.85
27229197,1936,1,187735,218777,0.66,-0.22,9.99,-0.04,-0.01,-0.01,31.85
27269197,1929,1,187966,219408,0.66,-0.22,9.97,-0.04,-0.01,-0.00,31.85
27309196,1904,1,188180,219334,0.66,-0.22,9.97,-0.03,-0.01,-0.01,31.85
27349197,1912,1,187444,216002,0.67,-0.23,9.97,-0.04,-0.01,-0.01,31.85
27389883,1827,1,186324,214139,0.66,-0.24,9.98,-0.03,-0.01,-0.01,32.03
27428198,1917,1,186196,214368,0.66,-0.20,9.96,-0.03,-0.01,-0.00,32.03
27468195,1897,1,186454,215176,0.67,-0.23,9.98,-0.03,-0.01,-0.00,32.03
27508198,1891,1,186820,216244,0.66,-0.22,9.97,-0.04,-0.01,-0.01,32.03
27548196,1862,1,187187,217240,0.68,-0.22,9.95,-0.03,-0.01,-0.00,32.03
27588199,1856,1,187515,217857,0.66,-0.20,9.96,-0.03,-0.01,-0.01,32.03
27628195,1837,1,187621,218071,0.68,-0.22,9.95,-0.04,-0.01,-0.01,32.03
27668199,1824,1,187668,218324,0.67,-0.23,9.97,-0.03,-0.01,-0.00,32.03
27708195,1812,1,187720,218775,0.66,-0.21,9.96,-0.04,-0.01,-0.01,32.03
27748199,1808,1,188033,219544,0.68,-0.23,9.97,-0.03,-0.01,-0.01,32.03
27788195,1809,1,188299,220407,0.67,-0.21,9.96,-0.04,-0.01,-0.00,32.03
27828198,1806,1,188640,220398,0.68,-0.23,9.95,-0.03,-0.01,-0.00,32.03
27868196,1793,1,187739,217212,0.66,-0.22,9.97,-0.03,-0.01,-0.01,32.03
27908198,1791,1,186779,215660,0.67,-0.20,9.96,-0.03,-0.01,-0.01,32.03
27948196,1791,1,186654,215903,0.67,-0.22,9.97,-0.04,-0.01,-0.00,32.03
27988198,1791,1,186865,216730,0.67,-0.21,9.98,-0.04,-0.01,-0.01,32.03
28028196,1808,1,187224,217819,0.69,-0.21,9.96,-0.03,-0.01,-0.00,32.03
28068199,1815,1,187568,218764,0.68,-0.22,9.96,-0.04,-0.01,-0.01,32.03
28108195,1829,1,187819,219128,0.67,-0.23,9.95,-0.03,-0.01,-0.01,32.03
28148211,1849,1,187879,219247,0.65,-0.20,9.95,-0.04,-0.01,-0.01,32.03
28188195,1840,1,187947,219521,0.65,-0.21,9.96,-0.03,-0.01,-0.00,32.03
28228198,1851,1,188056,220046,0.66,-0.23,9.93,-0.04,-0.01,-0.01,32.03
28268196,1855,1,188223,220643,0.66,-0.23,9.94,-0.04,-0.01,-0.00,32.03
28308199,1854,1,188423,221199,0.65,-0.21,9.99,-0.03,-0.01,-0.01,32.03
28348196,1861,1,188602,220928,0.67,-0.22,9.96,-0.04,-0.01,-0.00,32.03
28388198,1867,1,187666,217288,0.66,-0.24,9.97,-0.03,-0.01,-0.01,32.03
28428882,1867,1,186522,215540,0.66,-0.22,9.96,-0.03,-0.01,-0.01,31.97
28469197,1875,1,186324,215617,0.66,-0.24,9.95,-0.03,-0.01,-0.00,31.97
28509196,1899,1,186401,216224,0.66,-0.23,9.96,-0.03,-0.01,-0.01,31.97
28549197,1895,1,186687,217126,0.66,-0.22,9.97,-0.04,-0.01,-0.01,31.97
28589196,1887,1,187092,217968,0.65,-0.22,9.94,-0.03,-0.01,-0.01,31.97
28629197,1890,1,187413,218315,0.67,-0.23,9.97,-0.03,-0.01,-0.01,31.97
28669196,1893,1,187493,218324,0.69,-0.23,9.96,-0.03,-0.01,-0.00,31.97
28709196,1883,1,187609,218489,0.68,-0.22,9.95,-0.03,-0.01,-0.01,31.97
28749196,1875,1,187695,218829,0.66,-0.21,9.98,-0.03,-0.01,-0.00,31.97
28789197,1873,1,187964,219308,0.67,-0.23,9.95,-0.03,-0.01,-0.01,31.97
28829196,1867,1,188101,219884,0.66,-0.23,9.95,-0.04,-0.01,-0.00,31.97
28869197,1862,1,188340,219522,0.67,-0.22,9.99,-0.03,-0.01,-0.01,31.97
28909196,1855,1,187390,216056,0.67,-0.21,9.97,-0.04,-0.01,-0.01,31.97
28949197,1840,1,186282,214214,0.68,-0.21,9.98,-0.03,-0.01,-0.01,31.97
28989196,1828,1,185996,214343,0.67,-0.23,9.96,-0.04,-0.01,-0.01,31.97
29029197,1839,1,186356,215116,0.67,-0.22,9.99,-0.03,-0.01,-0.00,31.97
29069197,1819,1,186610,216080,0.66,-0.21,9.98,-0.03,-0.01,-0.01,31.97
29109197,1818,1,187125,217088,0.67,-0.22,9.97,-0.04,-0.01,-0.00,31.97
29149196,1801,1,187193,217388,0.67,-0.20,9.96,-0.03,-0.01,-0.01,31.97
29189197,1791,1,187365,217535,0.65,-0.21,9.97,-0.04,-0.01,-0.00,31.97
29229197,1763,1,187383,217838,0.65,-0.22,9.94,-0.03,-0.01,-0.01,31.97
29269197,1751,1,187560,218291,0.67,-0.23,9.99,-0.04,-0.01,-0.01,31.97
29309196,1746,1,187796,218976,0.66,-0.22,9.97,-0.03,-0.01,-0.01,31.97
29349197,1735,1,188159,219773,0.67,-0.22,9.96,-0.03,-0.01,-0.01,31.97
29389196,1723,1,188441,219690,0.68,-0.23,9.94,-0.03,-0.01,-0.01,31.97
29429884,1744,1,187716,216283,0.68,-0.20,9.97,-0.04,-0.01,-0.00,31.91
29468195,1680,1,186541,214458,0.68,-0.19,9.95,-0.03,-0.01,-0.00,31.91
29508199,1685,1,186319,214575,0.67,-0.21,9.97,-0.03,-0.01,-0.01,31.91
29548195,1680,1,186576,215368,0.67,-0.21,9.98,-0.03,-0.01,-0.01,31.91
29588199,1677,1,186875,216355,0.67,-0.23,9.98,-0.04,-0.01,-0.01,31.91
29628196,1681,1,187353,217348,0.65,-0.22,9.98,-0.04,-0.01,-0.00,31.91
29668198,1679,1,187632,217896,0.68,-0.21,9.97,-0.03,-0.01,-0.01,31.91
29708195,1680,1,187763,218095,0.66,-0.23,9.97,-0.03,-0.01,-0.00,31.91
29748198,1685,1,187788,218394,0.66,-0.23,9.98,-0.04,-0.01,-0.01,31.91
29788228,1685,1,187904,218841,0.64,-0.21,9.98,-0.04,-0.01,-0.01,31.91
29828198,1683,1,188093,219389,0.67,-0.22,9.97,-0.03,-0.01,-0.01,31.91
29868195,1680,1,188329,220146,0.65,-0.23,9.96,-0.04,-0.01,-0.01,31.91
29908199,1680,1,188695,220926,0.65,-0.19,9.97,-0.03,-0.01,-0.01,31.91
29948196,1671,1,188621,218655,0.66,-0.22,9.94,-0.04,-0.01,-0.01,31.91
29988233,1684,1,187226,215517,0.67,-0.23,9.96,-0.03,-0.01,-0.01,31.91
30028196,1671,1,186477,214793,0.66,-0.22,9.95,-0.04,-0.01,-0.01,31.91
30068199,1676,1,186620,215460,0.69,-0.22,9.96,-0.03,-0.01,-0.01,31.91
30108196,1670,1,186829,216196,0.66,-0.21,9.97,-0.03,-0.01,-0.00,31.91
30148198,1669,1,187283,217279,0.67,-0.23,9.98,-0.03,-0.01,-0.01,31.91
30188195,1676,1,187661,218217,0.65,-0.21,9.96,-0.03,-0.01,-0.01,31.91
30228198,1669,1,187990,218632,0.67,-0.23,9.95,-0.03,-0.01,-0.00,31.91
30268195,1668,1,187925,218536,0.67,-0.22,9.96,-0.04,-0.01,-0.00,31.91
30308198,1678,1,188018,218958,0.67,-0.23,9.97,-0.04,-0.01,-0.01,31.91
30348195,1664,1,188130,219374,0.68,-0.22,9.99,-0.03,-0.01,-0.01,31.91
30388198,1680,1,188384,220019,0.67,-0.23,9.96,-0.04,-0.01,-0.01,31.91
30428195,1679,1,188587,220783,0.67,-0.22,9.99,-0.03,-0.01,-0.01,31.91
30468885,1648,1,188941,221577,0.67,-0.22,9.98,-0.03,-0.01,-0.00,31.99
30509196,1664,1,188563,218272,0.67,-0.20,9.96,-0.03,-0.01,-0.01,31.99
30549197,1661,1,187126,215584,0.68,-0.22,9.96,-0.03,-0.01,-0.00,31.99
30589196,1659,1,186588,215237,0.68,-0.20,9.94,-0.04,-0.01,-0.01,31.99
30629197,1663,1,186714,215983,0.66,-0.23,9.97,-0.03,-0.01,-0.00,31.99
30669196,1648,1,187053,216771,0.67,-0.22,9.97,-0.03,-0.01,-0.01,31.99
30709196,1657,1,187473,217975,0.68,-0.23,9.95,-0.03,-0.01,-0.01,31.99
30749196,1649,1,187868,218634,0.67,-0.23,9.94,-0.03,-0.01,-0.01,31.99
30789197,1665,1,187913,218833,0.67,-0.22,9.97,-0.03,-0.01,-0.01,31.99
30829196,1648,1,188009,218967,0.67,-0.23,9.95,-0.03,-0.01,-0.01,31.99
30869197,1661,1,188136,219375,0.67,-0.23,9.94,-0.04,-0.01,-0.00,31.99
30909196,1659,1,188367,220031,0.65,-0.22,9.97,-0.04,-0.01,-0.01,31.99
30949197,1671,1,188547,220901,0.65,-0.23,9.97,-0.03,-0.01,-0.01,31.99
30989196,1666,1,188928,221802,0.67,-0.23,9.97,-0.03,-0.01,-0.01,31.99
31029197,1667,1,189252,222519,0.66,-0.21,9.95,-0.03,-0.01,-0.00,31.99
31069197,1675,1,188895,219218,0.67,-0.21,9.94,-0.03,-0.01,-0.00,31.99
31109197,1685,1,187521,216508,0.68,-0.22,9.97,-0.04,-0.01,-0.01,31.99
31149196,1698,1,186899,216103,0.68,-0.22,9.97,-0.04,-0.01,-0.01,31.99
31189197,1738,1,187076,216837,0.66,-0.20,9.98,-0.04,-0.01,-0.01,31.99
31229196,1753,1,187367,217853,0.67,-0.22,9.93,-0.04,-0.01,-0.01,31.99
31269197,1782,1,187846,219110,0.68,-0.22,9.97,-0.04,-0.01,-0.01,31.99
31309196,1815,1,188202,219851,0.67,-0.22,9.98,-0.03,-0.01,-0.01,31.99
31349197,1839,1,188402,220060,0.68,-0.21,9.96,-0.04,-0.01,-0.01,31.99
31389196,1879,1,188426,220205,0.67,-0.22,9.94,-0.03,-0.01,-0.00,31.99
31429216,1913,1,188489,220437,0.67,-0.22,9.95,-0.03,-0.01,-0.01,31.99
31469883,1885,1,188645,220881,0.66,-0.23,9.94,-0.03,-0.01,-0.01,32.05
31508198,1998,1,188921,221645,0.67,-0.24,9.95,-0.03,-0.01,-0.01,32.05
31548195,2023,1,189164,222237,0.66,-0.23,9.99,-0.03,-0.01,-0.01,32.05
31588198,2041,1,189438,222093,0.68,-0.22,9.97,-0.03,-0.01,-0.01,32.05
31628222,2064,1,188417,218150,0.68,-0.23,9.96,-0.03,-0.01,-0.00,32.05
31668198,2057,1,187158,215938,0.68,-0.22,9.96,-0.03,-0.01,-0.00,32.05
31708195,2062,1,186866,215943,0.67,-0.21,9.96,-0.03,-0.01,-0.01,32.05
31748198,2045,1,187011,216716,0.66,-0.23,9.96,-0.03,-0.01,-0.01,32.05
31788196,2059,1,187431,217748,0.66,-0.20,9.95,-0.03,-0.01,-0.01,32.05
31828210,2041,1,187988,218901,0.68,-0.22,9.95,-0.03,-0.01,-0.01,32.05
31868195,2037,1,188269,219360,0.68,-0.22,9.95,-0.03,-0.01,-0.00,32.05
31908198,2032,1,188421,219402,0.66,-0.23,9.95,-0.03,-0.01,-0.01,32.05
31948195,2014,1,188457,219636,0.67,-0.23,9.96,-0.04,-0.01,-0.01,32.05
31988198,1992,1,188601,220267,0.67,-0.21,9.96,-0.03,-0.01,-0.01,32.05
32028195,1967,1,188826,221005,0.67,-0.22,9.97,-0.03,-0.01,-0.00,32.05
32068198,1952,1,189062,221864,0.66,-0.21,9.98,-0.03,-0.01,-0.01,32.05
32108195,1930,1,189462,222814,0.67,-0.24,9.98,-0.03,-0.01,-0.01,32.05
32148198,1918,1,189165,219401,0.68,-0.23,9.97,-0.03,-0.01,-0.01,32.05
32188195,1894,1,187625,216706,0.67,-0.22,9.98,-0.04,-0.01,-0.01,32.05
32228198,1883,1,187073,216522,0.67,-0.21,9.99,-0.03,-0.01,-0.01,32.05
32268195,1873,1,187335,217334,0.68,-0.22,9.96,-0.04,-0.01,-0.01,32.05
32308198,1856,1,187772,218395,0.67,-0.22,9.94,-0.03,-0.01,-0.00,32.05
32348195,1842,1,188303,219927,0.68,-0.20,9.96,-0.04,-0.01,-0.01,32.05
32388198,1839,1,188727,220642,0.68,-0.23,9.95,-0.04,-0.01,-0.00,32.05
32428195,1840,1,188733,220562,0.68,-0.23,9.95,-0.04,-0.00,-0.00,32.05
32468198,1840,1,188668,220570,0.67,-0.22,9.96,-0.03,-0.01,-0.01,32.05
32508883,1825,1,188801,221140,0.67,-0.23,9.92,-0.03,-0.01,-0.01,32.09
32549197,1849,1,189177,221880,0.67,-0.22,9.97,-0.03,-0.01,-0.01,32.09
32589196,1855,1,189476,222631,0.68,-0.21,9.95,-0.03,-0.01,-0.00,32.09
32629196,1855,1,189843,223573,0.69,-0.22,9.96,-0.03,-0.01,-0.01,32.09
32668195,1849,1,190196,222191,0.67,-0.21,9.96,-0.04,-0.01,-0.01,32.09
32708198,1850,1,188569,218280,0.66,-0.21,9.96,-0.04,-0.01,-0.01,32.09
32748196,1861,1,187729,217218,0.67,-0.22,9.95,-0.03,-0.01,-0.00,32.09
32788198,1872,1,187721,217772,0.68,-0.23,9.96,-0.04,-0.01,-0.01,32.09
32828196,1863,1,188093,218791,0.67,-0.21,9.96,-0.04,-0.01,-0.00,32.09
32868198,1856,1,188595,220078,0.67,-0.20,9.95,-0.03,-0.01,-0.01,32.09
32908195,1849,1,189171,221180,0.67,-0.21,9.93,-0.04,-0.01,-0.01,32.09
32948198,1854,1,189500,221503,0.68,-0.22,9.96,-0.03,-0.01,-0.00,32.09
32988195,1823,1,189466,221513,0.70,-0.21,9.95,-0.04,-0.01,-0.01,32.09
33028198,1819,1,189516,221921,0.68,-0.23,9.98,-0.03,-0.01,-0.01,32.09
33068196,1803,1,189911,222833,0.67,-0.24,9.94,-0.03,-0.01,-0.00,32.09
33108198,1793,1,190342,223792,0.67,-0.22,9.96,-0.03,-0.01,-0.01,32.09
33148196,1777,1,190674,224706,0.67,-0.24,9.96,-0.04,-0.01,-0.01,32.09
33188198,1755,1,190996,225026,0.69,-0.23,9.96,-0.04,-0.01,-0.00,32.09
33228195,1749,1,190143,220747,0.68,-0.23,9.97,-0.03,-0.01,-0.01,32.09
33268214,1766,1,188857,218586,0.68,-0.21,9.95,-0.04,-0.01,-0.01,32.09
33308195,1734,1,188490,218702,0.67,-0.23,9.96,-0.03,-0.01,-0.01,32.09
33348198,1744,1,188709,219392,0.66,-0.22,9.99,-0.04,-0.01,-0.01,32.09
33388196,1741,1,189012,220323,0.68,-0.22,9.98,-0.03,-0.01,-0.00,32.09
33428198,1748,1,189488,221485,0.68,-0.21,9.94,-0.03,-0.01,-0.01,32.09
33468195,1745,1,189805,221838,0.67,-0.23,9.94,-0.03,-0.01,-0.01,32.09
33508198,1758,1,189816,221855,0.67,-0.22,9.96,-0.04,-0.00,-0.01,32.09
33548882,1767,1,189735,221950,0.66,-0.20,9.97,-0.04,-0.00,-0.01,31.99
33589196,1779,1,189746,222226,0.66,-0.23,9.96,-0.04,-0.00,-0.00,31.99
33629196,1766,1,189876,222946,0.66,-0.21,9.96,-0.03,-0.01,-0.00,31.99
33669197,1765,1,190245,223960,0.67,-0.20,9.96,-0.03,-0.01,-0.00,31.99
33708196,1744,1,190627,224942,0.69,-0.23,9.95,-0.03,-0.01,-0.01,31.99
33748198,1729,1,190652,222376,0.67,-0.22,9.95,-0.03,-0.01,-0.01,31.99
33788196,1716,1,188931,219237,0.67,-0.22,9.97,-0.04,-0.01,-0.01,31.99
33828198,1696,1,188295,218739,0.67,-0.23,9.98,-0.03,-0.01,-0.01,31.99
33868196,1666,1,188417,219544,0.66,-0.23,9.97,-0.03,-0.01,-0.01,31.99
33908198,1664,1,188782,220838,0.67,-0.23,9.98,-0.04,-0.01,-0.01,31.99
33948195,1647,1,189341,222301,0.68,-0.24,9.95,-0.04,-0.00,-0.01,31.99
33988198,1611,1,189679,223122,0.67,-0.20,9.97,-0.03,-0.01,-0.01,31.99
34028195,1610,1,189622,223162,0.67,-0.20,9.98,-0.04,-0.01,-0.01,31.99
34068198,1601,1,189532,222936,0.66,-0.22,9.98,-0.04,-0.00,-0.01,31.99
34108196,1574,1,189399,223100,0.67,-0.21,9.98,-0.04,-0.00,-0.01,31.99
34148198,1566,1,189441,223759,0.64,-0.22,9.98,-0.04,-0.00,-0.00,31.99
34188195,1535,1,189726,224739,0.67,-0.22,9.95,-0.03,-0.01,-0.00,31.99
34228198,1535,1,190006,225543,0.67,-0.22,9.94,-0.03,-0.01,-0.01,31.99
34268196,1535,1,189993,222907,0.64,-0.22,9.97,-0.04,-0.01,-0.01,31.99
34308198,1535,1,187808,218637,0.65,-0.22,9.96,-0.03,-0.01,-0.00,31.99
34348195,1563,1,187027,218038,0.68,-0.23,9.94,-0.04,-0.01,-0.01,31.99
34388198,1568,1,187100,218635,0.66,-0.23,9.95,-0.03,-0.01,-0.01,31.99
34428196,1584,1,187413,219664,0.66,-0.22,9.99,-0.03,-0.01,-0.01,31.99
34468198,1585,1,187817,221193,0.66,-0.20,9.98,-0.04,-0.01,-0.01,31.99
34508195,1586,1,188423,222409,0.63,-0.23,9.96,-0.03,-0.01,-0.00,31.99
34548198,1597,1,188572,222565,0.65,-0.23,9.99,-0.03,-0.01,-0.01,31.99
34588883,1578,1,188592,222566,0.65,-0.22,9.98,-0.03,-0.01,-0.01,32.03
34629197,1613,1,188629,222592,0.65,-0.22,9.98,-0.04,-0.01,-0.01,32.03
34669196,1604,1,188702,223092,0.66,-0.23,9.96,-0.03,-0.01,-0.01,32.03
34708198,1651,1,188924,223719,0.64,-0.23,9.98,-0.03,-0.01,-0.01,32.03
34748195,1651,1,189185,224523,0.65,-0.22,9.98,-0.03,-0.01,-0.01,32.03
34788198,1678,1,189236,221599,0.68,-0.23,9.96,-0.03,-0.01,-0.01,32.03
34828195,1675,1,187378,217716,0.68,-0.23,9.98,-0.04,-0.01,-0.00,32.03
34868198,1699,1,186545,216796,0.65,-0.22,9.93,-0.03,-0.01,-0.01,32.03
34908226,1712,1,186496,217000,0.66,-0.21,9.95,-0.03,-0.01,-0.01,32.03
34948198,1713,1,186751,217680,0.66,-0.21,9.95,-0.03,-0.01,-0.01,32.03
34988196,1728,1,187155,218687,0.68,-0.23,9.93,-0.03,-0.01,-0.01,32.03
35028198,1728,1,187497,219430,0.66,-0.21,9.96,-0.04,-0.01,-0.01,32.03
35068195,1728,1,187678,219657,0.66,-0.23,9.95,-0.03,-0.01,-0.00,32.03
35108227,1746,1,187769,219745,0.67,-0.21,9.97,-0.04,-0.01,-0.01,32.03
35148195,1759,1,187871,219955,0.65,-0.23,9.96,-0.03,-0.01,-0.00,32.03
35188198,1776,1,188053,220467,0.67,-0.22,9.97,-0.03,-0.01,-0.01,32.03
35228195,1786,1,188345,221158,0.67,-0.22,9.96,-0.03,-0.01,-0.01,32.03
35268198,1803,1,188646,221853,0.66,-0.23,9.95,-0.03,-0.01,-0.01,32.03
35308195,1811,1,188755,220031,0.65,-0.22,9.96,-0.03,-0.01,-0.00,32.03
35348198,1835,1,187436,216790,0.67,-0.22,9.97,-0.03,-0.01,-0.01,32.03
35388195,1843,1,186710,215837,0.66,-0.22,9.94,-0.03,-0.01,-0.01,32.03
35428198,1856,1,186728,216385,0.68,-0.21,9.96,-0.03,-0.01,-0.00,32.03
35468195,1870,1,187049,217271,0.66,-0.23,9.96,-0.03,-0.01,-0.01,32.03
35508198,1877,1,187553,218457,0.68,-0.23,9.96,-0.03,-0.01,-0.01,32.03
35548195,1872,1,188045,219396,0.67,-0.23,9.96,-0.03,-0.01,-0.01,32.03
35588198,1894,1,188139,219626,0.67,-0.23,9.94,-0.04,-0.01,-0.01,32.03
35628882,1827,1,188271,219874,0.67,-0.22,9.97,-0.03,-0.01,-0.00,31.99
35669196,1859,1,188373,220154,0.68,-0.22,9.97,-0.04,-0.01,-0.01,31.99
35709196,1862,1,188563,220642,0.67,-0.21,10.00,-0.03,-0.01,-0.01,31.99
35748198,1933,1,188780,221272,0.67,-0.23,9.99,-0.03,-0.01,-0.01,31.99
35788195,1926,1,189068,222146,0.67,-0.23,9.98,-0.04,-0.01,-0.00,31.99
35828198,1936,1,189261,220865,0.65,-0.21,9.99,-0.03,-0.01,-0.01,31.99
35868196,1921,1,188140,217445,0.66,-0.23,9.98,-0.04,-0.01,-0.01,31.99
35908198,1927,1,187209,216278,0.67,-0.23,9.96,-0.03,-0.01,-0.01,31.99
35948195,1920,1,187170,216602,0.67,-0.21,9.98,-0.03,-0.01,-0.01,31.99
35988198,1931,1,187382,217477,0.69,-0.24,9.94,-0.03,-0.01,-0.01,31.99
36028195,1933,1,187854,218759,0.67,-0.21,9.94,-0.04,-0.01,-0.01,31.99
36068198,1940,1,188314,219772,0.68,-0.22,9.98,-0.03,-0.01,-0.01,31.99
36108195,1938,1,188577,220186,0.65,-0.20,9.96,-0.03,-0.01,-0.01,31.99
36148198,1936,1,188683,220375,0.66,-0.22,9.95,-0.03,-0.01,-0.00,31.99
36188195,1933,1,188743,220651,0.67,-0.23,9.96,-0.03,-0.01,-0.01,31.99
36228198,1933,1,188895,221071,0.67,-0.22,9.96,-0.04,-0.01,-0.01,31.99
36268195,1933,1,189155,221966,0.70,-0.23,9.98,-0.03,-0.01,-0.01,31.99
36308198,1934,1,189459,222759,0.67,-0.21,9.99,-0.03,-0.01,-0.01,31.99
36348195,1931,1,189691,221770,0.68,-0.22,9.97,-0.03,-0.01,-0.01,31.99
36388198,1932,1,188354,218382,0.66,-0.22,9.95,-0.03,-0.01,-0.00,31.99
36428195,1930,1,187514,217431,0.66,-0.21,9.97,-0.04,-0.01,-0.01,31.99
36468198,1923,1,187558,218100,0.66,-0.23,9.95,-0.03,-0.01,-0.01,31.99
36508195,1926,1,187968,219138,0.68,-0.22,9.97,-0.03,-0.01,-0.01,31.99
36548207,1930,1,188376,220535,0.66,-0.22,9.98,-0.03,-0.01,-0.01,31.99
36588195,1925,1,188897,221539,0.67,-0.23,9.97,-0.03,-0.01,-0.01,31.99
36628198,1899,1,188991,221532,0.67,-0.21,9.95,-0.04,-0.01,-0.01,31.99
36668883,1890,1,188909,221655,0.67,-0.22,9.95,-0.04,-0.01,-0.01,31.89
36709197,1885,1,188938,222006,0.67,-0.23,9.96,-0.04,-0.01,-0.01,31.89
36750196,1909,1,189178,222785,0.67,-0.21,9.96,-0.03,-0.01,-0.01,31.89
36788198,1883,1,189478,223752,0.67,-0.22,9.95,-0.03,-0.01,-0.01,31.89
36828195,1872,1,189823,224665,0.65,-0.24,9.95,-0.03,-0.01,-0.00,31.89
36868198,1884,1,189936,223295,0.67,-0.24,9.97,-0.03,-0.01,-0.01,31.89
36908195,1877,1,188132,218963,0.69,-0.22,9.98,-0.03,-0.01,-0.01,31.89
36948214,1867,1,187236,217918,0.66,-0.21,9.96,-0.04,-0.01,-0.01,31.89
36988196,1873,1,187198,218173,0.67,-0.22,9.95,-0.03,-0.01,-0.01,31.89
37028198,1861,1,187360,219069,0.66,-0.23,9.96,-0.03,-0.01,-0.00,31.89
37068195,1860,1,187855,220324,0.66,-0.23,9.98,-0.04,-0.01,-0.01,31.89
37108198,1858,1,188323,221459,0.67,-0.21,9.95,-0.03,-0.01,-0.01,31.89
37148196,1853,1,188656,221992,0.65,-0.22,9.95,-0.03,-0.01,-0.00,31.89
37188198,1843,1,188771,221988,0.68,-0.22,9.97,-0.03,-0.01,-0.01,31.89
37228196,1842,1,188770,222095,0.67,-0.20,9.96,-0.03,-0.01,-0.01,31.89
37268198,1830,1,188924,222800,0.69,-0.21,9.97,-0.03,-0.01,-0.01,31.89
37308195,1826,1,189249,223820,0.67,-0.22,9.96,-0.03,-0.01,-0.00,31.89
37348198,1808,1,189657,224688,0.67,-0.22,9.96,-0.03,-0.01,-0.00,31.89
37388195,1808,1,189854,223896,0.66,-0.22,9.98,-0.03,-0.01,-0.01,31.89
37428198,1806,1,188436,219147,0.67,-0.22,9.99,-0.03,-0.01,-0.00,31.89
37468196,1791,1,187308,217671,0.67,-0.21,9.96,-0.04,-0.01,-0.00,31.89
37508198,1783,1,187114,217594,0.67,-0.21,9.99,-0.03,-0.01,-0.01,31.89
37548196,1778,1,187237,218150,0.68,-0.23,9.95,-0.03,-0.01,-0.01,31.89
37588198,1776,1,187537,219013,0.68,-0.23,9.98,-0.03,-0.01,-0.00,31.89
37628196,1762,1,187956,219805,0.68,-0.24,9.97,-0.03,-0.01,-0.01,31.89
37668198,1761,1,188246,220185,0.67,-0.23,9.98,-0.03,-0.01,-0.00,31.89
37708882,1771,1,188214,220220,0.67,-0.22,9.96,-0.04,-0.01,-0.00,31.83
37749196,1761,1,188435,220355,0.70,-0.23,9.97,-0.03,-0.01,-0.00,31.83
37789196,1741,1,188551,220585,0.67,-0.23,9.95,-0.03,-0.01,-0.00,31.83
37829196,1744,1,188666,221134,0.68,-0.19,9.97,-0.03,-0.01,-0.00,31.83
37869196,1721,1,189027,221892,0.69,-0.23,9.96,-0.03,-0.01,-0.01,31.83
37909197,1711,1,189275,222034,0.66,-0.21,9.95,-0.04,-0.01,-0.01,31.83
37949196,1686,1,188684,219166,0.69,-0.22,9.94,-0.03,-0.01,-0.00,31.83
37989196,1674,1,187551,216655,0.70,-0.20,9.96,-0.04,-0.01,-0.01,31.83
38029196,1680,1,187124,216414,0.68,-0.21,9.94,-0.03,-0.01,-0.01,31.83
38069196,1671,1,187328,217255,0.69,-0.23,9.95,-0.03,-0.01,-0.01,31.83
38109196,1673,1,187733,218284,0.68,-0.23,9.97,-0.03,-0.01,-0.01,31.83
38149197,1648,1,188185,219534,0.68,-0.23,9.95,-0.03,-0.01,-0.01,31.83
38189196,1650,1,188711,220423,0.66,-0.19,9.98,-0.03,-0.01,-0.01,31.83
38229197,1650,1,188929,220632,0.66,-0.21,9.96,-0.03,-0.01,-0.01,31.83
38269196,1648,1,188783,220253,0.67,-0.22,9.97,-0.03,-0.01,-0.01,31.83
38309197,1646,1,188686,220326,0.65,-0.23,9.98,-0.03,-0.01,-0.01,31.83
38349196,1648,1,188960,220826,0.67,-0.22,9.96,-0.03,-0.01,-0.01,31.83
38389206,1660,1,189314,222008,0.68,-0.21,9.95,-0.04,-0.00,-0.00,31.83
38429196,1631,1,189638,223254,0.66,-0.22,9.96,-0.04,-0.00,-0.01,31.83
38469197,1622,1,189938,221902,0.69,-0.22,9.96,-0.03,-0.01,-0.00,31.83
38509196,1616,1,188481,218599,0.66,-0.22,9.97,-0.04,-0.00,-0.01,31.83
38549197,1601,1,187641,217178,0.67,-0.21,9.95,-0.04,-0.01,-0.01,31.83
38589215,1599,1,187433,217079,0.68,-0.23,9.97,-0.03,-0.01,-0.01,31.83
38629197,1585,1,187694,218170,0.67,-0.20,9.94,-0.04,-0.01,-0.01,31.83
38669195,1584,1,188239,219775,0.68,-0.21,9.95,-0.03,-0.01,-0.01,31.83
38709884,1571,1,188920,221532,0.68,-0.21,9.94,-0.03,-0.01,-0.01,31.83
38748195,1591,1,189283,222212,0.68,-0.20,9.96,-0.04,-0.00,-0.00,31.83
38788198,1600,1,189320,222368,0.67,-0.23,9.96,-0.04,-0.00,-0.01,31.83
38828196,1611,1,189260,222845,0.65,-0.20,9.95,-0.04,-0.01,-0.01,31.83
38868198,1619,1,189590,223616,0.67,-0.22,9.96,-0.03,-0.01,-0.01,31.83
38908196,1648,1,189790,224663,0.66,-0.22,9.96,-0.03,-0.01,-0.00,31.83
38948198,1680,1,190325,225700,0.68,-0.21,9.96,-0.03,-0.01,-0.01,31.83
38988195,1712,1,190684,226268,0.66,-0.22,9.96,-0.03,-0.01,-0.01,31.83
39028198,1746,1,189907,221486,0.67,-0.23,9.95,-0.04,-0.01,-0.00,31.83
39068195,1774,1,188149,219540,0.67,-0.22,9.98,-0.04,-0.01,-0.00,31.83
39108198,1809,1,187952,219573,0.69,-0.20,9.96,-0.03,-0.01,-0.00,31.83
39148195,1838,1,188189,220524,0.68,-0.23,9.97,-0.03,-0.01,-0.01,31.83
39188198,1861,1,188720,221963,0.67,-0.19,9.98,-0.04,-0.01,-0.01,31.83
39228196,1876,1,189211,223544,0.66,-0.22,9.94,-0.04,-0.01,-0.01,31.83
39268198,1889,1,189723,224097,0.66,-0.22,9.93,-0.03,-0.01,-0.00,31.83
39308195,1907,1,189735,223949,0.66,-0.22,9.96,-0.04,-0.01,-0.01,31.83
39348198,1904,1,189595,224146,0.66,-0.22,9.97,-0.03,-0.01,-0.00,31.83
39388195,1886,1,189753,224399,0.67,-0.22,9.95,-0.03,-0.01,-0.01,31.83
39428198,1851,1,189959,224953,0.67,-0.23,9.97,-0.03,-0.01,-0.00,31.83
39468195,1830,1,190229,225882,0.67,-0.21,9.97,-0.03,-0.01,-0.01,31.83
39508198,1798,1,190669,226598,0.68,-0.21,9.96,-0.03,-0.01,-0.01,31.83
39548195,1751,1,190314,223082,0.66,-0.24,9.98,-0.03,-0.01,-0.00,31.83
39588198,1708,1,188355,219712,0.66,-0.23,9.96,-0.03,-0.01,-0.00,31.83
39628195,1665,1,187835,219167,0.67,-0.20,9.97,-0.03,-0.01,-0.01,31.83
39668198,1634,1,187917,219749,0.67,-0.22,9.96,-0.03,-0.01,-0.00,31.83
39708196,1595,1,188246,220632,0.66,-0.22,9.96,-0.03,-0.01,-0.00,31.83
39748885,1500,1,188806,222252,0.67,-0.22,9.94,-0.03,-0.01,-0.01,31.83
39789196,1481,1,189444,223151,0.66,-0.21,9.95,-0.03,-0.01,-0.01,31.83
39829197,1473,1,189618,223249,0.68,-0.22,9.98,-0.04,-0.01,-0.01,31.83
39869196,1463,1,189591,223299,0.68,-0.21,9.96,-0.04,-0.01,-0.01,31.83
39909199,1487,1,189701,223716,0.65,-0.23,9.98,-0.03,-0.01,-0.01,31.83
39949196,1486,1,189996,224323,0.66,-0.22,9.97,-0.03,-0.01,-0.01,31.83
39989197,1493,1,190303,225133,0.68,-0.23,9.96,-0.03,-0.01,-0.01,31.83
40029209,1524,1,190483,226019,0.67,-0.21,9.95,-0.03,-0.01,-0.01,31.83
40069199,1535,1,190592,223158,0.66,-0.23,9.95,-0.04,-0.01,-0.01,31.83
40109196,1590,1,188602,219901,0.66,-0.22,9.96,-0.04,-0.00,-0.01,31.83
40149196,1625,1,188063,219280,0.67,-0.21,9.99,-0.04,-0.01,-0.01,31.83
40189196,1654,1,188087,219957,0.66,-0.22,9.99,-0.03,-0.01,-0.01,31.83
40229203,1698,1,188491,221484,0.66,-0.21,9.97,-0.04,-0.01,-0.01,31.83
40269196,1728,1,189253,223609,0.66,-0.21,9.96,-0.04,-0.00,-0.01,31.83
40309199,1773,1,190133,226248,0.65,-0.22,9.96,-0.03,-0.01,-0.00,31.83
40349196,1808,1,191065,228619,0.69,-0.22,9.98,-0.03,-0.01,-0.01,31.83
40389199,1825,1,191651,229616,0.66,-0.19,9.98,-0.04,-0.00,-0.01,31.83
40429196,1870,1,191676,230089,0.68,-0.22,9.99,-0.04,-0.01,-0.01,31.83
40469199,1883,1,191946,230869,0.68,-0.23,9.97,-0.03,-0.01,-0.01,31.83
40509196,1908,1,192383,232013,0.66,-0.21,9.96,-0.03,-0.01,-0.01,31.83
40549199,1938,1,192891,233232,0.68,-0.21,9.94,-0.03,-0.01,-0.01,31.83
40589196,1963,1,193233,232016,0.67,-0.22,9.98,-0.03,-0.01,-0.01,31.83
40629199,1984,1,191681,226451,0.67,-0.23,9.95,-0.03,-0.01,-0.01,31.83
40669195,1984,1,190231,225486,0.67,-0.23,9.96,-0.04,-0.00,-0.01,31.83
40709199,1983,1,190405,226398,0.66,-0.23,9.97,-0.03,-0.01,-0.01,31.83
40749883,1961,1,190888,227601,0.68,-0.22,9.96,-0.03,-0.01,-0.00,31.99
40788198,2023,1,191475,229292,0.66,-0.23,9.98,-0.03,-0.02,-0.01,31.99
40828196,2032,1,192504,231804,0.69,-0.22,9.95,-0.03,-0.02,-0.01,31.99
40868198,2020,1,193065,232876,0.68,-0.21,9.93,-0.04,0.01,-0.00,31.99
40908175,2032,1,193080,233119,0.66,-0.21,9.95,-0.04,0.00,-0.00,31.99
40948177,2031,1,193051,233163,0.69,-0.22,9.95,-0.04,0.00,-0.00,31.99
40988174,2053,1,192963,233408,0.66,-0.22,9.99,-0.03,-0.01,-0.01,31.99
41028198,2047,1,193193,233633,0.68,-0.24,9.93,-0.03,-0.02,-0.01,31.99
41068195,2062,1,193356,233848,0.66,-0.23,9.95,-0.03,-0.01,-0.01,31.99
41108198,2087,1,193442,233116,0.67,-0.21,9.97,-0.03,-0.00,-0.01,31.99
41148195,2091,1,191782,226621,0.68,-0.22,9.98,-0.04,-0.00,-0.00,31.99
41188198,2096,1,190022,225119,0.68,-0.24,9.94,-0.04,0.01,-0.00,31.99
41228174,2079,1,190102,226389,0.63,-0.23,9.99,-0.03,-0.01,-0.00,31.99
41268198,2071,1,190667,227428,0.66,-0.23,9.99,-0.03,-0.01,-0.01,31.99
41308196,2075,1,190760,228437,0.66,-0.21,9.97,-0.03,-0.01,-0.01,31.99
41348198,2063,1,191120,229300,0.68,-0.23,9.94,-0.04,-0.01,-0.01,31.99
41388196,2025,1,191024,229221,0.66,-0.22,9.99,-0.04,-0.01,-0.01,31.99
41428198,1978,1,190804,228214,0.65,-0.23,9.97,-0.03,-0.01,-0.01,31.99
41468196,1934,1,190649,228003,0.65,-0.22,9.91,-0.03,-0.01,-0.01,31.99
41508198,1903,1,190497,228493,0.66,-0.21,9.97,-0.04,-0.01,-0.01,31.99
41548196,1871,1,190968,229573,0.64,-0.21,9.95,-0.03,-0.01,-0.01,31.99
41588198,1828,1,191339,230487,0.66,-0.24,9.93,-0.03,-0.01,-0.01,31.99
41628198,1778,1,191346,230141,0.66,-0.21,9.94,-0.04,-0.00,-0.00,31.99
41668211,1775,1,190035,223504,0.65,-0.21,9.96,-0.03,-0.02,-0.01,31.99
41708196,1735,1,188018,220826,0.67,-0.23,9.97,-0.03,-0.01,-0.01,31.99
41748198,1690,1,187770,220959,0.64,-0.23,9.93,-0.04,-0.01,-0.01,31.99
41788885,1665,1,188119,221901,0.67,-0.23,9.97,-0.04,-0.01,-0.01,32.49
41829199,1653,1,188568,223237,0.66,-0.20,9.97,-0.03,-0.01,-0.01,32.49
41869199,1649,1,189126,224697,0.67,-0.23,9.96,-0.03,-0.01,-0.01,32.49
41909199,1632,1,189482,224944,0.66,-0.21,9.99,-0.03,-0.01,-0.01,32.49
41949195,1625,1,189406,224344,0.65,-0.23,9.97,-0.03,-0.01,-0.00,32.49
41989199,1605,1,189084,223365,0.65,-0.22,9.98,-0.04,-0.01,-0.01,32.49
42029196,1595,1,188790,223278,0.66,-0.21,9.99,-0.03,-0.01,-0.01,32.49
42069212,1585,1,188992,223421,0.64,-0.22,9.97,-0.03,-0.01,-0.01,32.49
42109196,1589,1,189066,224121,0.65,-0.21,9.98,-0.04,-0.01,-0.01,32.49
42149199,1604,1,189441,223738,0.67,-0.22,9.98,-0.03,-0.01,-0.01,32.49
42189195,1605,1,188354,219657,0.67,-0.22,9.95,-0.03,-0.01,-0.01,32.49
42229199,1618,1,187320,217775,0.66,-0.21,9.94,-0.03,-0.01,-0.00,32.49
42269195,1626,1,186939,217310,0.68,-0.22,9.95,-0.03,-0.01,-0.01,32.49
42309199,1632,1,186974,217676,0.68,-0.24,9.96,-0.04,-0.01,-0.01,32.49
42349195,1646,1,187293,218390,0.66,-0.22,9.95,-0.03,-0.01,-0.01,32.49
42389199,1657,1,187723,219523,0.68,-0.23,9.94,-0.03,-0.01,-0.01,32.49
42429196,1667,1,188134,220094,0.65,-0.23,9.97,-0.03,-0.01,-0.00,32.49
42469199,1680,1,188321,220283,0.68,-0.22,9.96,-0.03,-0.01,-0.01,32.49
42509196,1698,1,188479,220607,0.68,-0.22,9.96,-0.03,-0.01,-0.01,32.49
42549199,1707,1,188597,221054,0.69,-0.23,9.98,-0.03,-0.01,-0.01,32.49
42589195,1721,1,188846,221673,0.68,-0.24,9.96,-0.04,-0.00,-0.00,32.49
42629199,1724,1,189060,222464,0.65,-0.23,9.96,-0.03,-0.01,-0.01,32.49
42669195,1744,1,189382,222258,0.66,-0.24,9.96,-0.03,-0.01,-0.01,32.49
42709199,1762,1,188378,218623,0.67,-0.22,9.98,-0.04,-0.01,-0.01,32.49
42749196,1771,1,187380,216852,0.65,-0.23,9.96,-0.03,-0.01,-0.01,32.49
42789886,1767,1,187000,216681,0.66,-0.20,9.96,-0.03,-0.01,-0.01,32.61
42828195,1801,1,186967,217262,0.68,-0.23,9.92,-0.04,-0.00,-0.01,32.61
42868198,1818,1,187384,218022,0.66,-0.20,9.94,-0.03,-0.01,-0.00,32.61
42908195,1811,1,187650,219007,0.66,-0.22,9.95,-0.03,-0.01,-0.00,32.61
42948198,1810,1,187959,219690,0.68,-0.24,9.98,-0.03,-0.01,-0.01,32.61
42988196,1822,1,188091,220003,0.66,-0.22,9.97,-0.03,-0.01,-0.01,32.61
43028198,1817,1,188251,220179,0.66,-0.24,9.96,-0.03,-0.01,-0.01,32.61
43068196,1823,1,188349,220856,0.64,-0.23,9.96,-0.03,-0.01,-0.01,32.61
43108198,1824,1,188566,221688,0.66,-0.22,9.99,-0.04,-0.01,-0.01,32.61
43148196,1835,1,188915,222811,0.67,-0.23,9.96,-0.03,-0.01,-0.00,32.61
43188198,1835,1,189430,223311,0.66,-0.20,9.96,-0.04,-0.01,-0.01,32.61
43228195,1822,1,188593,219084,0.67,-0.23,9.98,-0.03,-0.01,-0.00,32.61
43268198,1830,1,187115,217279,0.66,-0.22,9.98,-0.04,-0.01,-0.00,32.61
43308195,1840,1,186918,217166,0.67,-0.24,9.96,-0.03,-0.01,-0.01,32.61
43348198,1839,1,187003,217907,0.67,-0.22,9.95,-0.04,-0.01,-0.01,32.61
43388196,1841,1,187412,218995,0.67,-0.22,9.96,-0.03,-0.01,-0.01,32.61
43428198,1829,1,187960,220244,0.66,-0.23,9.96,-0.03,-0.01,-0.00,32.61
43468195,1831,1,188215,221142,0.66,-0.23,9.96,-0.03,-0.01,-0.01,32.61
43508208,1840,1,188457,221196,0.66,-0.20,9.96,-0.04,-0.01,-0.00,32.61
43548196,1830,1,188328,221486,0.66,-0.23,9.96,-0.04,-0.01,-0.00,32.61
43588198,1821,1,188399,221970,0.66,-0.22,10.00,-0.03,-0.01,-0.00,32.61
43628195,1823,1,188844,222966,0.69,-0.21,9.96,-0.03,-0.01,-0.01,32.61
43668198,1821,1,189245,224091,0.66,-0.22,9.96,-0.04,-0.01,-0.00,32.61
43708196,1825,1,189524,225181,0.66,-0.22,9.99,-0.04,-0.00,-0.01,32.61
43748198,1822,1,189311,221157,0.68,-0.22,9.98,-0.04,-0.01,-0.01,32.61
43788196,1817,1,187346,218082,0.68,-0.21,9.96,-0.03,-0.01,-0.01,32.61
43828885,1755,1,186731,217767,0.65,-0.21,9.96,-0.04,-0.01,-0.01,32.71
43869195,1770,1,186969,218301,0.65,-0.22,9.95,-0.04,-0.01,-0.01,32.71
43909199,1763,1,187211,219545,0.66,-0.21,9.97,-0.04,-0.01,-0.01,32.71
43949195,1765,1,187913,221217,0.66,-0.23,9.96,-0.04,-0.01,-0.01,32.71
43989199,1763,1,188397,221987,0.68,-0.22,9.95,-0.03,-0.01,-0.01,32.71
44029196,1763,1,188601,222004,0.67,-0.23,9.96,-0.03,-0.01,-0.00,32.71
44069199,1759,1,188459,222131,0.65,-0.23,9.97,-0.04,-0.01,-0.01,32.71
44109196,1762,1,188607,222379,0.68,-0.22,9.98,-0.03,-0.01,-0.01,32.71
44149199,1771,1,188804,223071,0.65,-0.20,9.99,-0.04,-0.01,-0.01,32.71
44189195,1758,1,189242,223775,0.68,-0.22,9.96,-0.03,-0.01,-0.01,32.71
44229199,1775,1,189488,224586,0.66,-0.23,9.94,-0.03,-0.01,-0.01,32.71
44269195,1776,1,189557,222212,0.66,-0.22,9.94,-0.03,-0.01,-0.00,32.71
44309199,1782,1,187698,218496,0.67,-0.21,9.95,-0.03,-0.01,-0.01,32.71
44349195,1782,1,187087,217689,0.66,-0.23,9.96,-0.04,-0.01,-0.00,32.71
44389199,1791,1,187178,218078,0.67,-0.24,9.96,-0.03,-0.01,-0.01,32.71
44429195,1807,1,187378,219046,0.68,-0.23,9.96,-0.04,-0.01,-0.00,32.71
44469199,1805,1,187898,220279,0.68,-0.20,9.97,-0.04,-0.01,-0.01,32.71
44509195,1820,1,188323,221080,0.65,-0.23,9.97,-0.04,-0.01,-0.01,32.71
44549199,1807,1,188556,221114,0.66,-0.21,9.96,-0.03,-0.01,-0.01,32.71
44589195,1825,1,188648,220952,0.69,-0.20,9.96,-0.03,-0.01,-0.01,32.71
44629199,1838,1,188607,220943,0.66,-0.20,9.94,-0.03,-0.01,-0.00,32.71
44669195,1834,1,188720,221258,0.67,-0.24,9.98,-0.03,-0.01,-0.01,32.71
44709199,1847,1,188886,221646,0.68,-0.22,10.00,-0.03,-0.01,-0.01,32.71
44749195,1847,1,189004,222294,0.66,-0.23,9.96,-0.03,-0.01,-0.01,32.71
44789199,1856,1,189093,220337,0.67,-0.21,9.96,-0.03,-0.01,-0.01,32.71
44829883,1808,1,187725,217323,0.67,-0.22,9.97,-0.03,-0.01,-0.01,32.59
44868198,1911,1,186887,216448,0.67,-0.20,9.96,-0.03,-0.01,-0.01,32.59
44908196,1904,1,186986,217126,0.68,-0.23,9.96,-0.03,-0.01,-0.01,32.59
44948247,1923,1,187354,218171,0.66,-0.23,9.98,-0.04,-0.01,-0.00,32.59
44988196,1905,1,187933,219464,0.65,-0.23,9.98,-0.04,-0.01,-0.01,32.59
45028198,1906,1,188377,220130,0.67,-0.21,9.95,-0.04,-0.01,-0.01,32.59
45068198,1907,1,188481,220393,0.65,-0.22,9.97,-0.03,-0.01,-0.00,32.59
45108198,1904,1,188496,220444,0.67,-0.23,9.98,-0.04,-0.01,-0.01,32.59
45148235,1920,1,188580,220861,0.67,-0.23,9.98,-0.04,-0.01,-0.01,32.59
45188197,1917,1,188853,221707,0.67,-0.23,9.95,-0.04,-0.01,-0.01,32.59
45228196,1911,1,189199,222787,0.67,-0.21,9.96,-0.03,-0.01,-0.01,32.59
45268198,1913,1,189446,223616,0.67,-0.22,9.95,-0.04,-0.01,-0.01,32.59
45308198,1917,1,189062,220190,0.66,-0.23,9.97,-0.03,-0.01,-0.01,32.59
45348229,1917,1,187658,218112,0.67,-0.22,9.97,-0.03,-0.01,-0.01,32.59
45388196,1917,1,187569,218078,0.68,-0.21,9.97,-0.03,-0.01,-0.01,32.59
45428198,1923,1,187781,218725,0.67,-0.22,9.98,-0.03,-0.01,-0.00,32.59
45468195,1925,1,188202,219742,0.67,-0.23,9.97,-0.04,-0.01,-0.01,32.59
45508198,1924,1,188694,220998,0.68,-0.22,9.96,-0.03,-0.01,-0.01,32.59
45548196,1938,1,188927,221460,0.69,-0.22,9.98,-0.04,-0.00,-0.00,32.59
45588198,1951,1,188786,221267,0.67,-0.22,9.97,-0.03,-0.00,-0.00,32.59
45628195,1939,1,188664,221161,0.67,-0.22,9.97,-0.03,-0.01,-0.01,32.59
45668197,1930,1,188764,221425,0.66,-0.23,9.96,-0.03,-0.01,-0.01,32.59
45708198,1930,1,188894,222102,0.68,-0.22,10.01,-0.04,-0.01,-0.01,32.59
45748198,1925,1,189039,222840,0.68,-0.22,9.94,-0.03,-0.01,-0.01,32.59
45789196,1931,1,189465,223323,0.67,-0.22,9.97,-0.03,-0.01,-0.00,32.59
45829199,1931,1,188760,219411,0.65,-0.22,9.95,-0.03,-0.01,-0.00,32.59
45869883,1923,1,187315,217680,0.65,-0.23,9.93,-0.04,-0.00,-0.00,32.67
45908198,1895,1,187010,217348,0.66,-0.23,9.95,-0.04,-0.01,-0.01,32.67
45948198,1901,1,186884,217877,0.64,-0.22,9.99,-0.03,-0.01,-0.01,32.67
45988197,1878,1,187269,218788,0.66,-0.21,9.97,-0.04,-0.01,-0.01,32.67
46028196,1872,1,187695,220040,0.66,-0.24,9.94,-0.03,-0.01,-0.01,32.67
46068198,1861,1,187905,220415,0.67,-0.24,9.95,-0.03,-0.01,-0.00,32.67
46108196,1847,1,188064,220584,0.66,-0.22,9.96,-0.03,-0.01,-0.00,32.67
46148198,1838,1,188082,220722,0.67,-0.23,9.97,-0.03,-0.01,-0.01,32.67
46188196,1829,1,188327,221478,0.66,-0.21,9.94,-0.03,-0.01,-0.01,32.67
46228198,1809,1,188557,222398,0.67,-0.22,9.95,-0.03,-0.01,-0.00,32.67
46268195,1802,1,188951,223164,0.66,-0.22,9.96,-0.03,-0.01,-0.00,32.67
46308197,1797,1,188989,221676,0.65,-0.21,9.99,-0.03,-0.00,-0.01,32.67
46348195,1792,1,187527,218113,0.68,-0.22,9.96,-0.04,-0.00,-0.01,32.67
46388198,1784,1,186679,216827,0.66,-0.23,9.96,-0.03,-0.01,-0.00,32.67
46428196,1769,1,186415,217039,0.67,-0.21,9.98,-0.04,-0.01,-0.01,32.67
46468198,1772,1,186733,217788,0.68,-0.23,9.95,-0.03,-0.01,-0.01,32.67
46508196,1765,1,187202,218754,0.67,-0.21,9.96,-0.03,-0.01,-0.01,32.67
46548198,1754,1,187585,219576,0.65,-0.23,9.95,-0.03,-0.01,-0.01,32.67
46588196,1747,1,187773,219709,0.67,-0.23,9.96,-0.03,-0.01,-0.01,32.67
46628198,1741,1,187758,219374,0.65,-0.23,9.96,-0.03,-0.01,-0.00,32.67
46668195,1743,1,187717,219390,0.65,-0.23,9.95,-0.03,-0.01,-0.00,32.67
46708198,1727,1,187795,219605,0.69,-0.23,9.96,-0.03,-0.01,-0.01,32.67
46748196,1725,1,187963,220260,0.66,-0.21,9.98,-0.03,-0.02,-0.01,32.67
46789201,1706,1,188542,221075,0.68,-0.23,9.98,-0.03,-0.02,-0.00,32.67
46829195,1675,1,188680,219291,0.68,-0.22,9.97,-0.03,-0.01,-0.00,32.67
46869198,1658,1,187504,216471,0.65,-0.21,9.96,-0.04,-0.00,-0.01,32.67
46909882,1649,1,186705,215468,0.69,-0.23,9.97,-0.04,-0.01,-0.00,32.63
46948198,1652,1,186746,216005,0.69,-0.22,9.95,-0.04,-0.01,-0.01,32.63
46988246,1647,1,186995,217094,0.65,-0.23,9.97,-0.04,-0.00,-0.00,32.63
47030196,1598,1,187519,218408,0.69,-0.21,9.97,-0.03,-0.01,-0.01,32.63
47068196,1596,1,187920,219120,0.67,-0.21,9.98,-0.03,-0.01,-0.01,32.63
47110197,1535,1,188132,219498,0.66,-0.22,9.97,-0.03,-0.01,-0.01,32.63
47150196,1565,1,188442,219633,0.67,-0.21,9.96,-0.03,-0.01,-0.01,32.63
47190197,1575,1,188572,219791,0.67,-0.23,9.95,-0.04,-0.01,-0.01,32.63
47230196,1580,1,188590,220032,0.68,-0.22,9.97,-0.03,-0.01,-0.00,32.63
47270196,1593,1,188742,220574,0.68,-0.22,9.97,-0.03,-0.01,-0.01,32.63
47310197,1615,1,188985,220355,0.66,-0.22,9.98,-0.03,-0.01,-0.01,32.63
47350196,1631,1,188318,217258,0.66,-0.22,9.97,-0.03,-0.01,-0.01,32.63
47390196,1659,1,187188,215490,0.68,-0.22,9.94,-0.03,-0.01,-0.01,32.63
47430197,1680,1,187070,215912,0.68,-0.23,9.95,-0.03,-0.01,-0.01,32.63
47470196,1711,1,187427,217030,0.68,-0.24,9.96,-0.03,-0.01,-0.00,32.63
47510196,1729,1,187953,218394,0.65,-0.24,9.97,-0.04,-0.00,-0.00,32.63
47550196,1757,1,188533,219484,0.67,-0.23,9.97,-0.04,-0.00,-0.01,32.63
47590197,1773,1,188776,219861,0.67,-0.22,9.99,-0.04,-0.00,-0.00,32.63
47630196,1781,1,188800,219993,0.68,-0.24,9.97,-0.04,-0.00,-0.00,32.63
47670196,1804,1,188671,220085,0.67,-0.19,9.96,-0.04,-0.01,-0.01,32.63
47710196,1807,1,188808,220531,0.69,-0.20,9.95,-0.03,-0.01,-0.01,32.63
47750197,1807,1,189060,221300,0.67,-0.23,9.98,-0.03,-0.01,-0.00,32.63
47790196,1797,1,189645,222166,0.68,-0.22,9.93,-0.03,-0.01,-0.01,32.63
47829199,1797,1,189222,219553,0.69,-0.22,9.91,-0.04,-0.01,-0.00,32.63
47869195,1782,1,187949,217034,0.68,-0.23,9.96,-0.04,-0.01,-0.01,32.63
47909199,1763,1,187389,216588,0.66,-0.20,9.97,-0.03,-0.01,-0.01,32.63
47949883,1708,1,187276,217046,0.67,-0.22,9.98,-0.03,-0.01,-0.01,32.45
47990197,1703,1,187578,217994,0.65,-0.23,9.95,-0.03,-0.01,-0.01,32.45
48030197,1666,1,188025,219272,0.66,-0.22,10.00,-0.03,-0.01,-0.00,32.45
48070196,1633,1,188463,220034,0.68,-0.24,9.98,-0.03,-0.01,-0.01,32.45
48110196,1607,1,188639,220370,0.67,-0.22,9.97,-0.03,-0.01,-0.01,32.45
48150196,1574,1,188736,220757,0.66,-0.23,9.95,-0.04,-0.01,-0.01,32.45
48190196,1535,1,188911,221166,0.65,-0.22,9.97,-0.03,-0.01,-0.01,32.45
48230196,1501,1,189005,221597,0.68,-0.23,9.99,-0.04,-0.00,-0.01,32.45
48270197,1509,1,189128,222235,0.68,-0.22,9.94,-0.04,-0.01,-0.01,32.45
48310196,1507,1,189428,222415,0.65,-0.23,9.94,-0.04,-0.01,-0.00,32.45
48350196,1499,1,188379,218703,0.66,-0.23,9.96,-0.03,-0.01,-0.01,32.45
48390196,1515,1,187347,216679,0.69,-0.21,9.96,-0.04,-0.01,-0.01,32.45
48430196,1520,1,186895,216493,0.68,-0.23,9.96,-0.03,-0.01,-0.01,32.45
48470197,1535,1,187078,216880,0.67,-0.22,9.96,-0.03,-0.01,-0.01,32.45
48510196,1554,1,187313,217722,0.67,-0.20,9.98,-0.03,-0.01,-0.01,32.45
48550196,1564,1,187640,218617,0.67,-0.24,9.95,-0.04,-0.01,-0.01,32.45
48590196,1584,1,187875,219028,0.67,-0.22,9.96,-0.03,-0.01,-0.01,32.45
48630237,1616,1,187926,219149,0.66,-0.24,9.99,-0.04,-0.01,-0.01,32.45
48670196,1631,1,187981,219337,0.66,-0.22,9.97,-0.03,-0.01,-0.00,32.45
48710196,1660,1,188057,219700,0.65,-0.20,9.99,-0.04,-0.01,-0.01,32.45
48750196,1678,1,188222,220021,0.68,-0.21,9.94,-0.03,-0.01,-0.01,32.45
48790196,1709,1,188449,220411,0.67,-0.20,9.94,-0.03,-0.01,-0.01,32.45
48830230,1744,1,188653,220705,0.66,-0.20,9.96,-0.03,-0.01,-0.00,32.45
48870196,1767,1,188332,217995,0.68,-0.23,9.95,-0.03,-0.01,-0.01,32.45
48910196,1791,1,187025,214823,0.68,-0.24,9.98,-0.04,-0.01,-0.01,32.45
48950884,1763,1,186284,213746,0.69,-0.23,9.94,-0.03,-0.01,-0.01,32.55
48989196,1889,1,186177,213768,0.65,-0.22,9.95,-0.03,-0.01,-0.01,32.55
49029198,1919,1,186466,214418,0.67,-0.23,9.96,-0.03,-0.01,-0.01,32.55
49069195,1951,1,186966,215628,0.68,-0.23,9.95,-0.03,-0.01,-0.01,32.55
49109198,1968,1,187390,216549,0.66,-0.21,9.96,-0.03,-0.01,-0.01,32.55
49149195,1988,1,187740,217092,0.69,-0.22,9.95,-0.03,-0.01,-0.01,32.55
49189199,2002,1,187918,217550,0.66,-0.22,9.96,-0.03,-0.01,-0.01,32.55
49229195,2002,1,188129,218083,0.69,-0.21,9.96,-0.03,-0.01,-0.01,32.55
49269199,2017,1,188442,218488,0.68,-0.24,9.97,-0.04,-0.01,-0.01,32.55
49309195,2010,1,188777,219144,0.66,-0.22,9.97,-0.04,-0.01,-0.01,32.55
49349199,2002,1,189012,219776,0.67,-0.21,9.96,-0.03,-0.01,-0.01,32.55
49389196,2000,1,189280,219887,0.67,-0.21,9.97,-0.03,-0.01,-0.01,32.55
49429199,1987,1,188882,217072,0.68,-0.22,9.95,-0.03,-0.01,-0.01,32.55
49469196,1984,1,187528,213855,0.67,-0.23,9.97,-0.04,-0.01,-0.01,32.55
49509199,1965,1,186735,213137,0.69,-0.23,9.95,-0.03,-0.01,-0.00,32.55
49549196,1967,1,186858,213708,0.67,-0.22,9.96,-0.04,-0.01,-0.01,32.55
49589199,1952,1,187278,214838,0.69,-0.22,9.96,-0.03,-0.01,-0.00,32.55
49629195,1927,1,187867,216246,0.70,-0.21,9.94,-0.03,-0.01,-0.01,32.55
49669199,1915,1,188299,217126,0.69,-0.22,9.95,-0.03,-0.01,-0.01,32.55
49709195,1916,1,188588,217746,0.68,-0.22,9.97,-0.04,-0.01,-0.01,32.55
49749199,1900,1,188909,218345,0.67,-0.25,9.93,-0.03,-0.01,-0.01,32.55
49789196,1903,1,189245,219301,0.71,-0.23,9.97,-0.03,-0.01,-0.01,32.55
49829198,1897,1,189551,220316,0.67,-0.21,9.99,-0.03,-0.00,-0.01,32.55
49869195,1874,1,189976,221406,0.68,-0.21,9.95,-0.04,-0.00,-0.01,32.55
49909199,1876,1,190570,222652,0.67,-0.23,9.96,-0.04,-0.00,-0.01,32.55
49949195,1886,1,190916,223137,0.67,-0.24,9.96,-0.04,-0.01,-0.01,32.55
49989886,1895,1,190090,219754,0.69,-0.23,9.96,-0.04,-0.00,-0.01,32.53
50030196,1906,1,188870,217829,0.69,-0.21,9.97,-0.04,-0.00,-0.00,32.53
50070196,1904,1,188543,217742,0.66,-0.23,9.96,-0.04,-0.00,-0.01,32.53
50110197,1914,1,188519,218220,0.67,-0.22,9.96,-0.03,-0.01,-0.01,32.53
50150197,1925,1,188638,219062,0.67,-0.24,9.95,-0.03,-0.01,-0.00,32.53
50190196,1922,1,189186,220318,0.68,-0.22,9.95,-0.03,-0.01,-0.01,32.53
50230196,1923,1,189388,221062,0.66,-0.22,9.96,-0.03,-0.01,-0.01,32.53
50270242,1936,1,189383,221328,0.65,-0.21,9.96,-0.03,-0.00,-0.01,32.53
50310197,1925,1,189387,221707,0.66,-0.21,9.95,-0.04,-0.01,-0.01,32.53
50350196,1901,1,189546,222350,0.67,-0.22,9.96,-0.03,-0.01,-0.01,32.53
50390197,1878,1,189837,223287,0.65,-0.23,9.95,-0.03,-0.01,-0.00,32.53
50430196,1863,1,189977,224246,0.66,-0.23,9.99,-0.03,-0.01,-0.01,32.53
50470213,1840,1,190410,225138,0.66,-0.22,9.96,-0.04,-0.01,-0.01,32.53
50510196,1812,1,190501,223085,0.68,-0.22,9.98,-0.03,-0.01,-0.01,32.53
50550196,1791,1,188577,219354,0.65,-0.20,9.98,-0.04,-0.01,-0.01,32.53
50590196,1748,1,187897,218471,0.67,-0.24,10.00,-0.03,-0.01,-0.01,32.53
50630197,1721,1,187712,218690,0.67,-0.23,9.98,-0.04,-0.00,-0.01,32.53
50670215,1685,1,187779,219310,0.66,-0.20,9.99,-0.03,-0.01,-0.00,32.53
50710196,1655,1,188226,220692,0.68,-0.22,9.97,-0.03,-0.01,-0.01,32.53
50750196,1642,1,188699,221818,0.67,-0.23,9.97,-0.04,-0.01,-0.00,32.53
50790196,1627,1,188988,222122,0.67,-0.23,9.96,-0.03,-0.01,-0.01,32.53
50830196,1603,1,188889,222046,0.68,-0.20,9.96,-0.03,-0.01,-0.00,32.53
50870196,1584,1,189016,222384,0.67,-0.23,9.96,-0.03,-0.01,-0.00,32.53
50910197,1563,1,189287,223054,0.68,-0.22,9.96,-0.04,-0.01,-0.01,32.53
50950197,1535,1,189510,223716,0.66,-0.22,9.95,-0.03,-0.01,-0.00,32.53
50990883,1573,1,189864,224301,0.67,-0.20,9.96,-0.03,-0.01,-0.01,32.33
51029199,1533,1,190007,223949,0.67,-0.22,9.96,-0.03,-0.01,-0.01,32.33
51069195,1531,1,189066,219880,0.67,-0.21,9.96,-0.04,-0.01,-0.01,32.33
51109199,1535,1,187832,217979,0.66,-0.23,9.98,-0.03,-0.01,-0.01,32.33
51149195,1535,1,187587,217921,0.68,-0.23,9.96,-0.03,-0.01,-0.01,32.33
51189199,1573,1,187965,218479,0.68,-0.21,9.96,-0.04,-0.01,-0.01,32.33
51229195,1584,1,188321,219425,0.68,-0.21,9.96,-0.03,-0.01,-0.00,32.33
51269198,1614,1,188806,220598,0.68,-0.19,9.95,-0.03,-0.01,-0.00,32.33
51309195,1625,1,189320,221218,0.68,-0.22,9.95,-0.04,-0.01,-0.01,32.33
51349198,1635,1,189410,221309,0.67,-0.23,9.98,-0.04,-0.01,-0.01,32.33
51389195,1661,1,189533,221329,0.68,-0.21,9.96,-0.03,-0.01,-0.01,32.33
51429199,1698,1,189747,221630,0.69,-0.22,9.95,-0.03,-0.01,-0.01,32.33
51469195,1717,1,189930,222152,0.68,-0.25,9.94,-0.03,-0.01,-0.01,32.33
51509198,1727,1,190380,222987,0.70,-0.20,9.94,-0.03,-0.01,-0.01,32.33
51549195,1747,1,190677,223610,0.69,-0.22,9.95,-0.03,-0.01,-0.00,32.33
51589198,1761,1,190659,221758,0.66,-0.22,9.96,-0.04,-0.01,-0.01,32.33
51629195,1773,1,189405,218488,0.68,-0.23,9.93,-0.03,-0.01,-0.01,32.33
51669198,1791,1,188682,217512,0.70,-0.21,9.98,-0.03,-0.01,-0.00,32.33
51709195,1790,1,188686,218016,0.68,-0.22,9.96,-0.03,-0.01,-0.01,32.33
51749198,1804,1,189206,218965,0.69,-0.21,9.99,-0.03,-0.01,-0.00,32.33
51789195,1801,1,189594,220035,0.68,-0.20,9.99,-0.03,-0.01,-0.01,32.33
51829199,1824,1,190030,220898,0.68,-0.24,9.95,-0.03,-0.01,-0.01,32.33
51869196,1827,1,190232,221269,0.68,-0.22,9.95,-0.03,-0.01,-0.01,32.33
51909201,1841,1,190505,221599,0.68,-0.23,9.96,-0.03,-0.01,-0.01,32.33
51949195,1836,1,190629,222061,0.68,-0.22,9.96,-0.04,-0.01,-0.01,32.33
51989198,1835,1,190795,222615,0.70,-0.21,9.98,-0.03,-0.01,-0.01,32.33
52029882,1811,1,191065,223302,0.67,-0.22,9.98,-0.04,-0.01,-0.01,32.33
52070197,1829,1,191255,224038,0.69,-0.21,9.94,-0.04,-0.01,-0.00,32.33
52110196,1847,1,191441,223850,0.68,-0.22,9.96,-0.03,-0.01,-0.00,32.33
52150196,1821,1,190742,220745,0.68,-0.22,9.96,-0.04,-0.01,-0.01,32.33
52190196,1815,1,189542,219155,0.67,-0.23,9.96,-0.04,-0.01,-0.01,32.33
52230197,1815,1,189471,219456,0.67,-0.22,9.97,-0.03,-0.01,-0.01,32.33
52270196,1824,1,189817,220396,0.68,-0.22,9.97,-0.03,-0.01,-0.01,32.33
52310198,1811,1,190075,221554,0.67,-0.23,9.97,-0.04,-0.01,-0.01,32.33
52350196,1819,1,190702,222895,0.66,-0.23,9.98,-0.03,-0.01,-0.00,32.33
52390196,1814,1,191018,223586,0.69,-0.23,9.97,-0.04,-0.01,-0.01,32.33
52430196,1819,1,191184,223732,0.67,-0.25,9.96,-0.04,-0.01,-0.00,32.33
52470196,1811,1,191184,223617,0.66,-0.21,9.98,-0.03,-0.01,-0.01,32.33
52510196,1814,1,191110,223745,0.66,-0.22,9.96,-0.03,-0.01,-0.01,32.33
52550197,1826,1,191133,223967,0.69,-0.21,9.95,-0.04,-0.00,-0.01,32.33
52590197,1826,1,191146,224473,0.67,-0.21,9.98,-0.04,0.00,-0.00,32.33
52630175,1837,1,191280,225280,0.68,-0.22,9.94,-0.04,-0.01,-0.00,32.33
52670196,1835,1,191302,223099,0.68,-0.21,9.94,-0.04,-0.01,-0.01,32.33
52710196,1827,1,189949,220474,0.67,-0.21,9.97,-0.04,-0.00,-0.01,32.33
52750196,1829,1,189235,219890,0.66,-0.22,9.97,-0.03,-0.01,-0.00,32.33
52790196,1817,1,189211,220570,0.67,-0.22,9.97,-0.03,-0.01,-0.00,32.33
52830196,1821,1,189528,221690,0.68,-0.22,10.00,-0.03,-0.01,-0.01,32.33
52870196,1819,1,190136,223378,0.68,-0.21,9.95,-0.04,-0.01,-0.01,32.33
52910196,1817,1,190782,224637,0.69,-0.23,9.98,-0.04,-0.01,-0.00,32.33
52950197,1823,1,190854,224860,0.66,-0.23,9.97,-0.04,-0.01,-0.01,32.33
52990196,1817,1,190952,224956,0.66,-0.21,9.95,-0.03,-0.01,-0.01,32.33
53030883,1776,1,191059,225426,0.66,-0.23,9.99,-0.03,-0.01,-0.01,32.33
53069195,1856,1,191329,226110,0.66,-0.21,10.00,-0.04,-0.01,-0.01,32.33
53109198,1852,1,191627,226891,0.66,-0.22,9.95,-0.04,-0.01,-0.01,32.33
53149195,1838,1,191917,227812,0.67,-0.21,9.97,-0.04,-0.01,-0.01,32.33
53189198,1830,1,192190,226862,0.67,-0.23,9.95,-0.04,-0.01,-0.01,32.33
53229195,1819,1,190448,221999,0.66,-0.23,9.96,-0.04,-0.01,-0.01,32.33
53269198,1810,1,189393,220673,0.67,-0.23,9.98,-0.03,-0.01,-0.01,32.33
53309196,1791,1,189327,220857,0.68,-0.23,9.96,-0.04,-0.01,-0.01,32.33
53349198,1773,1,189501,221561,0.67,-0.22,9.96,-0.03,-0.01,-0.01,32.33
53389195,1744,1,189916,222550,0.67,-0.23,9.97,-0.03,-0.01,-0.01,32.33
53429199,1715,1,190436,223618,0.67,-0.23,9.98,-0.03,-0.01,-0.00,32.33
53469195,1690,1,190571,223566,0.67,-0.22,9.98,-0.03,-0.01,-0.01,32.33
53509198,1679,1,190581,223400,0.67,-0.22,9.97,-0.03,-0.01,-0.01,32.33
53549195,1663,1,190593,223553,0.68,-0.24,9.97,-0.03,-0.01,-0.01,32.33
53589198,1664,1,190684,224152,0.67,-0.22,9.99,-0.03,-0.01,-0.01,32.33
53629196,1664,1,191096,224994,0.66,-0.21,9.95,-0.03,-0.01,-0.00,32.33
53669198,1661,1,191722,226284,0.69,-0.22,9.92,-0.03,-0.01,-0.01,32.33
53709196,1665,1,192034,225449,0.69,-0.23,9.95,-0.04,-0.01,-0.01,32.33
53749220,1687,1,190805,221701,0.68,-0.23,9.97,-0.03,-0.01,-0.00,32.33
53789195,1674,1,189761,220103,0.68,-0.21,10.01,-0.04,-0.01,-0.00,32.33
53829199,1683,1,189601,220143,0.70,-0.23,9.94,-0.03,-0.01,-0.01,32.33
53869195,1687,1,189948,220938,0.69,-0.23,9.96,-0.03,-0.01,-0.01,32.33
53909198,1685,1,190236,221972,0.67,-0.22,9.96,-0.03,-0.01,-0.01,32.33
53949228,1687,1,190855,223179,0.68,-0.23,9.94,-0.03,-0.01,-0.00,32.33
53989198,1665,1,191157,223433,0.68,-0.22,9.95,-0.03,-0.01,-0.01,32.33
54029196,1651,1,191201,223542,0.68,-0.23,9.96,-0.04,-0.01,-0.01,32.33
54069885,1631,1,191103,223612,0.68,-0.23,9.96,-0.04,-0.01,-0.00,32.33
54110196,1616,1,191095,223833,0.67,-0.23,9.98,-0.03,-0.01,-0.01,32.33
54150197,1590,1,191237,224320,0.68,-0.20,9.97,-0.03,-0.01,-0.01,32.33
54190196,1555,1,191695,225351,0.67,-0.21,9.97,-0.03,-0.01,-0.01,32.33
54230197,1523,1,192231,224757,0.67,-0.23,9.98,-0.03,-0.01,-0.01,32.33
54270197,1510,1,191020,221447,0.68,-0.22,9.92,-0.03,-0.01,-0.01,32.33
54310197,1480,1,190301,220204,0.68,-0.22,9.94,-0.04,-0.01,-0.01,32.33
54350196,1450,1,190189,220595,0.69,-0.22,9.96,-0.03,-0.01,-0.01,32.33
54390196,1437,1,190528,221537,0.69,-0.21,9.96,-0.04,-0.01,-0.00,32.33
54430196,1412,1,190895,222635,0.68,-0.22,9.97,-0.04,-0.01,-0.01,32.33
54470196,1392,1,191580,224040,0.69,-0.20,9.95,-0.03,-0.01,-0.01,32.33
54510196,1377,1,191936,224729,0.68,-0.22,9.96,-0.03,-0.01,-0.01,32.33
54550197,1389,1,192039,225079,0.67,-0.23,9.95,-0.04,-0.01,-0.01,32.33
54590196,1408,1,192203,225504,0.69,-0.22,9.96,-0.04,-0.00,-0.01,32.33
54630197,1420,1,192448,226309,0.68,-0.23,9.97,-0.04,-0.00,-0.00,32.33
54670196,1441,1,192686,227197,0.68,-0.22,9.97,-0.04,-0.00,-0.01,32.33
54710196,1472,1,192973,228080,0.67,-0.24,9.95,-0.03,-0.00,-0.01,32.33
54750196,1488,1,192827,225340,0.67,-0.22,9.97,-0.03,-0.01,-0.01,32.33
54790197,1520,1,191173,221811,0.67,-0.23,9.96,-0.03,-0.01,-0.01,32.33
54830196,1535,1,190462,220849,0.69,-0.22,9.96,-0.03,-0.01,-0.01,32.33
54870197,1599,1,190266,221081,0.68,-0.22,9.97,-0.04,0.00,-0.00,32.33
54910176,1643,1,190301,221613,0.68,-0.23,9.95,-0.04,-0.00,-0.01,32.33
54950197,1671,1,190657,222868,0.68,-0.22,9.97,-0.03,-0.01,-0.00,32.33
54990197,1712,1,191172,224051,0.67,-0.22,9.98,-0.04,-0.01,-0.00,32.33
55030197,1758,1,191391,224576,0.69,-0.22,9.95,-0.03,-0.01,-0.01,32.33
55070884,1817,1,191446,224645,0.67,-0.23,9.96,-0.04,-0.01,-0.01,32.19
55109198,1805,1,191474,224918,0.66,-0.22,9.96,-0.04,-0.01,-0.00,32.19
55149195,1838,1,191499,225410,0.65,-0.21,9.95,-0.03,-0.01,-0.00,32.19
55189198,1872,1,191764,226244,0.67,-0.23,9.96,-0.04,-0.01,-0.00,32.19
55229195,1904,1,192096,227133,0.68,-0.21,9.98,-0.04,-0.01,-0.01,32.19
55269198,1936,1,191742,223901,0.66,-0.21,9.98,-0.03,-0.01,-0.00,32.19
55309195,1961,1,189924,220800,0.67,-0.21,9.96,-0.04,-0.01,-0.01,32.19
55349198,1995,1,189373,220282,0.69,-0.21,9.97,-0.03,-0.01,-0.00,32.19
55389201,2017,1,189251,220595,0.66,-0.23,9.97,-0.03,-0.01,-0.01,32.19
55429198,2023,1,189498,221376,0.69,-0.20,9.96,-0.03,-0.01,-0.01,32.19
55469195,2055,1,189940,222729,0.66,-0.23,9.95,-0.04,-0.01,-0.01,32.19
55509198,2077,1,190444,223425,0.67,-0.23,9.97,-0.04,-0.01,-0.00,32.19
55549195,2085,1,190549,223536,0.66,-0.21,9.97,-0.03,-0.01,-0.01,32.19
55589215,2096,1,190449,223485,0.68,-0.21,9.97,-0.04,-0.01,-0.00,32.19
55629195,2095,1,190462,223512,0.67,-0.21,9.96,-0.03,-0.01,-0.01,32.19
55669198,2084,1,190731,224013,0.68,-0.20,9.94,-0.03,-0.01,-0.01,32.19
55709195,2096,1,190892,224485,0.67,-0.20,9.96,-0.03,-0.01,-0.00,32.19
55749198,2095,1,191243,224940,0.66,-0.22,9.95,-0.03,-0.01,-0.00,32.19
55789195,2065,1,191010,222171,0.68,-0.22,9.95,-0.03,-0.01,-0.00,32.19
55829198,2067,1,189811,219833,0.68,-0.21,9.98,-0.03,-0.01,-0.01,32.19
55869195,2077,1,189285,219141,0.68,-0.22,9.96,-0.03,-0.01,-0.01,32.19
55909198,2047,1,189458,219770,0.69,-0.22,9.97,-0.03,-0.01,-0.01,32.19
55949196,2031,1,189682,220695,0.68,-0.22,9.96,-0.04,-0.01,-0.01,32.19
55989198,2000,1,190257,221973,0.67,-0.20,9.99,-0.03,-0.01,-0.01,32.19
56029195,1986,1,190695,222665,0.67,-0.23,9.97,-0.03,-0.01,-0.00,32.19
56069198,1968,1,190884,222867,0.69,-0.24,9.96,-0.03,-0.01,-0.00,32.19
56109883,1920,1,190816,223082,0.68,-0.22,9.97,-0.03,-0.01,-0.01,32.27
56150197,1917,1,191011,223332,0.68,-0.23,9.96,-0.04,-0.01,-0.01,32.27
56190196,1894,1,191184,223742,0.69,-0.20,9.95,-0.03,-0.01,-0.01,32.27
56230196,1870,1,191495,224348,0.68,-0.21,9.95,-0.04,-0.01,-0.01,32.27
56270196,1833,1,191862,224318,0.69,-0.20,9.96,-0.03,-0.01,-0.01,32.27
56310197,1811,1,191176,221178,0.69,-0.23,9.92,-0.03,-0.01,-0.01,32.27
56350196,1803,1,190163,219189,0.69,-0.24,9.96,-0.03,-0.01,-0.01,32.27
56390197,1792,1,189839,219015,0.68,-0.23,9.96,-0.03,-0.01,-0.01,32.27
56430196,1763,1,190032,219540,0.68,-0.22,9.92,-0.03,-0.01,-0.01,32.27
56470197,1770,1,190384,220681,0.70,-0.21,9.96,-0.03,-0.01,-0.01,32.27
56510196,1757,1,191031,221846,0.69,-0.23,9.96,-0.04,-0.01,-0.01,32.27
56550197,1745,1,191246,222324,0.68,-0.23,9.96,-0.03,-0.01,-0.01,32.27
56590196,1755,1,191443,222657,0.67,-0.23,9.96,-0.03,-0.00,-0.00,32.27
56630196,1742,1,191481,222889,0.68,-0.23,9.95,-0.03,-0.01,-0.00,32.27
56670196,1728,1,191652,223564,0.69,-0.22,9.97,-0.04,-0.01,-0.01,32.27
56710197,1735,1,191840,224239,0.69,-0.20,9.97,-0.04,-0.00,-0.01,32.27
56750196,1746,1,192104,224993,0.70,-0.22,9.96,-0.04,-0.00,-0.01,32.27
56790197,1739,1,192339,223971,0.70,-0.22,9.96,-0.04,-0.01,-0.01,32.27
56830196,1745,1,191090,220796,0.68,-0.22,9.93,-0.04,-0.01,-0.01,32.27
56870197,1744,1,190358,219906,0.69,-0.22,9.98,-0.03,-0.01,-0.01,32.27
56910196,1744,1,190202,220187,0.67,-0.21,9.95,-0.03,-0.01,-0.01,32.27
56950196,1738,1,190508,220918,0.69,-0.23,9.97,-0.03,-0.01,-0.01,32.27
56990197,1747,1,190822,222165,0.68,-0.21,9.96,-0.04,-0.01,-0.01,32.27
57030197,1744,1,191265,223110,0.69,-0.21,9.97,-0.03,-0.01,-0.00,32.27
57070196,1751,1,191555,223394,0.68,-0.23,9.96,-0.03,-0.01,-0.01,32.27
57110884,1735,1,191586,223559,0.68,-0.23,9.97,-0.04,-0.00,-0.01,32.17
57149195,1824,1,191545,223734,0.67,-0.24,9.98,-0.04,-0.01,-0.01,32.17
57189199,1767,1,191794,224327,0.69,-0.22,9.96,-0.04,-0.01,-0.01,32.17
57229195,1782,1,191851,224851,0.69,-0.21,9.96,-0.04,-0.01,-0.01,32.17
57269198,1772,1,192154,225572,0.68,-0.21,9.94,-0.04,-0.01,-0.01,32.17
57309196,1731,1,192203,224351,0.68,-0.23,9.99,-0.04,-0.01,-0.01,32.17
57349198,1728,1,190829,220753,0.69,-0.21,9.94,-0.04,-0.01,-0.01,32.17
57389195,1682,1,189948,219588,0.67,-0.22,9.96,-0.03,-0.01,-0.01,32.17
57429209,1636,1,189871,219974,0.70,-0.21,9.97,-0.03,-0.02,-0.01,32.17
57469195,1665,1,190377,221131,0.68,-0.22,9.97,-0.03,-0.01,-0.01,32.17
57509198,1647,1,190822,222471,0.70,-0.23,9.93,-0.03,-0.01,-0.01,32.17
57549196,1603,1,191305,223619,0.68,-0.22,9.95,-0.04,-0.00,-0.01,32.17
57589198,1555,1,191582,224180,0.68,-0.23,9.97,-0.04,-0.00,-0.01,32.17
57629195,1471,1,191416,224046,0.68,-0.22,9.96,-0.04,-0.00,-0.01,32.17
57669198,1419,1,191393,224078,0.67,-0.20,9.94,-0.03,-0.01,-0.01,32.17
57709195,1403,1,191332,224252,0.68,-0.20,9.96,-0.03,-0.01,-0.00,32.17
57749199,1441,1,191552,224746,0.67,-0.22,9.97,-0.03,-0.01,-0.01,32.17
57789195,1455,1,191783,225359,0.70,-0.20,9.96,-0.03,-0.01,-0.01,32.17
57829198,1499,1,192151,225574,0.66,-0.22,9.97,-0.04,-0.01,-0.01,32.17
57870196,1521,1,191272,221784,0.69,-0.22,9.96,-0.03,-0.01,-0.00,32.17
57910196,1520,1,190012,219658,0.67,-0.23,9.95,-0.04,-0.01,-0.01,32.17
57950202,1609,1,189692,219442,0.69,-0.21,9.95,-0.03,-0.01,-0.01,32.17
57990197,1554,1,189722,219914,0.70,-0.20,9.96,-0.03,-0.01,-0.01,32.17
58030196,1488,1,190026,220830,0.68,-0.21,9.93,-0.04,-0.01,-0.01,32.17
58070197,1535,1,190538,222055,0.70,-0.22,9.96,-0.04,-0.01,-0.01,32.17
58110883,1486,1,190896,222637,0.68,-0.20,9.94,-0.03,-0.01,-0.01,32.13
58149198,1476,1,191077,222847,0.69,-0.22,9.96,-0.04,-0.01,-0.01,32.13
58189196,1457,1,190974,222911,0.68,-0.22,9.94,-0.03,-0.01,-0.01,32.13
58229198,1491,1,190995,223169,0.67,-0.23,9.97,-0.03,-0.01,-0.00,32.13
58269196,1584,1,191188,223784,0.69,-0.23,9.95,-0.04,-0.01,-0.01,32.13
58309198,1620,1,191462,224409,0.68,-0.23,9.96,-0.04,-0.01,-0.01,32.13
58349195,1669,1,191666,224967,0.68,-0.22,9.95,-0.03,-0.01,-0.01,32.13
58389198,1758,1,191725,223251,0.66,-0.24,9.96,-0.03,-0.01,-0.01,32.13
58429196,1823,1,190270,220024,0.68,-0.23,9.93,-0.04,-0.01,-0.01,32.13
58469198,1994,1,189411,218880,0.66,-0.23,9.98,-0.03,-0.01,-0.01,32.13
58509196,2115,1,189386,219348,0.68,-0.22,9.98,-0.03,-0.01,-0.01,32.13
58549198,2195,1,189675,220180,0.67,-0.22,9.95,-0.03,-0.01,-0.01,32.13
58589196,2160,1,190011,221230,0.68,-0.23,9.96,-0.03,-0.01,-0.00,32.13
58629198,2127,1,190514,222196,0.68,-0.22,9.94,-0.03,-0.01,-0.01,32.13
58669196,2144,1,190710,222297,0.70,-0.21,9.94,-0.03,-0.01,-0.01,32.13
58709198,2122,1,190783,222558,0.68,-0.23,9.94,-0.04,-0.01,-0.01,32.13
58749196,2070,1,190766,222761,0.67,-0.22,9.96,-0.03,-0.01,-0.01,32.13
58789198,2014,1,190983,223446,0.67,-0.21,9.98,-0.03,-0.01,-0.00,32.13
58829195,1971,1,191252,224179,0.68,-0.22,9.97,-0.03,-0.01,-0.01,32.13
58870234,1897,1,191708,225108,0.68,-0.22,9.95,-0.04,-0.01,-0.01,32.13
58910196,1831,1,191948,225086,0.68,-0.22,9.92,-0.04,-0.01,-0.01,32.13
58950197,1795,1,190913,221215,0.68,-0.22,9.96,-0.04,-0.01,-0.01,32.13
58990196,1744,1,189726,219534,0.67,-0.21,9.97,-0.03,-0.01,-0.01,32.13
59030197,1714,1,189572,219702,0.68,-0.22,9.96,-0.04,-0.01,-0.01,32.13
59070216,1637,1,189736,220446,0.68,-0.22,9.96,-0.04,-0.01,-0.01,32.13
59110884,1581,1,190189,221716,0.67,-0.23,9.98,-0.04,-0.01,-0.00,32.21
59149195,1558,1,190699,222870,0.66,-0.23,9.96,-0.04,-0.01,-0.01,32.21
59189198,1498,1,191016,223191,0.68,-0.21,9.95,-0.03,-0.01,-0.00,32.21
59229195,1458,1,191140,223413,0.66,-0.22,9.96,-0.03,-0.01,-0.00,32.21
59269198,1409,1,191106,223774,0.69,-0.23,9.95,-0.04,-0.01,-0.01,32.21
59309196,1402,1,191314,224305,0.68,-0.22,9.93,-0.04,-0.01,-0.01,32.21
59349198,1403,1,191596,225073,0.68,-0.22,9.95,-0.04,-0.01,-0.01,32.21
59389196,1386,1,191908,225927,0.68,-0.22,9.97,-0.03,-0.01,-0.01,32.21
59429198,1367,1,192291,226198,0.68,-0.23,9.97,-0.03,-0.01,-0.01,32.21
59469196,1413,1,191219,221789,0.68,-0.22,9.96,-0.04,-0.01,-0.01,32.21
59509198,1413,1,189867,219994,0.68,-0.23,9.96,-0.03,-0.01,-0.00,32.21
59549196,1427,1,189725,220176,0.67,-0.23,9.97,-0.03,-0.01,-0.00,32.21
59589198,1472,1,189869,220877,0.68,-0.23,9.95,-0.03,-0.01,-0.01,32.21
59629196,1516,1,190159,221767,0.68,-0.22,9.96,-0.04,-0.01,-0.01,32.21
59669198,1555,1,190681,222965,0.68,-0.22,9.98,-0.03,-0.01,-0.01,32.21
59709196,1600,1,191047,223436,0.68,-0.23,9.96,-0.03,-0.01,-0.01,32.21
59749198,1637,1,191111,223520,0.68,-0.21,9.99,-0.04,-0.01,-0.01,32.21
59789196,1694,1,191041,223742,0.67,-0.21,9.95,-0.03,-0.01,-0.01,32.21
59829198,1749,1,191190,224090,0.68,-0.21,9.95,-0.03,-0.01,-0.00,32.21
59869196,1780,1,191501,224939,0.67,-0.20,9.96,-0.03,-0.01,-0.01,32.21
59909198,1840,1,191769,225699,0.68,-0.22,9.97,-0.03,-0.01,-0.01,32.21
59949196,1874,1,192214,226293,0.67,-0.24,9.94,-0.03,-0.01,-0.01,32.21
59989198,1925,1,191427,222047,0.67,-0.23,9.97,-0.04,-0.01,-0.01,32.21
60029196,1949,1,189949,219923,0.68,-0.20,9.96,-0.03,-0.01,-0.01,32.21
60069198,1975,1,189600,219753,0.66,-0.23,9.97,-0.03,-0.01,-0.00,32.21
60109195,2021,1,189609,220298,0.68,-0.21,9.96,-0.03,-0.01,-0.01,32.21
60149914,2032,1,189995,221272,0.67,-0.20,9.97,-0.03,-0.01,-0.00,32.31
60190196,2080,1,190461,222456,0.68,-0.24,9.98,-0.03,-0.01,-0.01,32.31
60230197,2096,1,190842,223062,0.69,-0.21,9.96,-0.04,-0.01,-0.01,32.31
60270196,2112,1,190921,223247,0.69,-0.20,9.97,-0.04,-0.01,-0.01,32.31
60310197,2112,1,190884,223272,0.66,-0.22,9.96,-0.03,-0.01,-0.01,32.31
60350196,2121,1,191125,223761,0.68,-0.23,9.96,-0.03,-0.01,-0.00,32.31
60390197,2149,1,191347,224479,0.69,-0.23,9.97,-0.03,-0.01,-0.01,32.31
60430196,2110,1,191508,225126,0.67,-0.22,9.96,-0.04,-0.01,-0.01,32.31
60470197,2122,1,191859,225949,0.67,-0.23,9.94,-0.04,-0.01,-0.00,32.31
60510202,2086,1,191930,223865,0.68,-0.22,9.94,-0.04,-0.01,-0.01,32.31
60550197,2033,1,190389,220456,0.68,-0.20,9.93,-0.03,-0.01,-0.01,32.31
60590196,2010,1,189545,219464,0.66,-0.22,9.93,-0.04,-0.01,-0.01,32.31
60630197,2004,1,189399,219707,0.68,-0.22,9.94,-0.03,-0.01,-0.01,32.31
60670196,2029,1,189779,220604,0.68,-0.21,9.95,-0.03,-0.01,-0.01,32.31
60710227,2047,1,190099,221766,0.68,-0.21,9.95,-0.03,-0.01,-0.01,32.31
60750196,2004,1,190674,222868,0.68,-0.23,9.97,-0.04,-0.01,-0.01,32.31
60790199,1986,1,190722,223061,0.67,-0.23,9.95,-0.03,-0.01,-0.00,32.31
60830196,1966,1,190819,223089,0.68,-0.20,9.99,-0.03,-0.01,-0.00,32.31
60870196,1938,1,190781,223381,0.68,-0.22,9.97,-0.03,-0.01,-0.01,32.31
60910227,1889,1,191119,224071,0.66,-0.23,9.96,-0.03,-0.01,-0.01,32.31
60950197,1873,1,191374,224813,0.68,-0.23,9.96,-0.03,-0.01,-0.01,32.31
60990196,1898,1,191717,225709,0.68,-0.23,9.98,-0.03,-0.01,-0.01,32.31
61030199,1870,1,191963,225918,0.67,-0.22,9.97,-0.04,-0.01,-0.01,32.31
61070196,1835,1,190919,221679,0.68,-0.19,9.97,-0.04,-0.01,-0.00,32.31
61110196,1835,1,189807,219999,0.66,-0.22,9.96,-0.03,-0.01,-0.01,32.31
61150883,1783,1,189569,220024,0.66,-0.23,9.95,-0.04,-0.01,-0.01,32.25
61189198,1821,1,189722,220766,0.67,-0.23,9.95,-0.03,-0.01,-0.01,32.25
61229196,1811,1,190078,221859,0.66,-0.20,9.94,-0.03,-0.01,-0.01,32.25
61269198,1792,1,190611,223037,0.69,-0.20,9.96,-0.03,-0.01,-0.01,32.25
61309195,1805,1,190980,223582,0.68,-0.23,9.96,-0.03,-0.01,-0.01,32.25
61349198,1805,1,191018,223643,0.68,-0.21,9.96,-0.03,-0.01,-0.00,32.25
61389196,1790,1,190937,223773,0.69,-0.21,9.98,-0.03,-0.01,-0.01,32.25
61429198,1798,1,191195,224262,0.67,-0.22,9.97,-0.03,-0.01,-0.00,32.25
61469196,1802,1,191404,224966,0.68,-0.21,9.99,-0.04,-0.01,-0.01,32.25
61509198,1808,1,191712,225781,0.68,-0.24,9.99,-0.03,-0.01,-0.01,32.25
61549196,1808,1,192018,226461,0.68,-0.20,9.98,-0.03,-0.01,-0.01,32.25
61589198,1811,1,191579,222699,0.67,-0.22,9.97,-0.03,-0.01,-0.00,32.25
61629196,1814,1,190080,220450,0.68,-0.22,9.99,-0.03,-0.00,-0.01,32.25
61669198,1818,1,189674,220296,0.68,-0.20,9.93,-0.03,-0.01,-0.01,32.25
