timestamp_us,ecg,leads,ir,red,accX,accY,accZ,gyroX,gyroY,gyroZ,temp
1920486,2192,1,216004,257479,0.00,0.00,0.00,0.00,0.00,0.00,0.00
1950952,1856,1,216205,257591,-2.16,-0.09,8.16,0.17,0.07,-0.19,27.15
1991177,1677,1,216305,258187,-2.18,-1.03,9.47,0.20,0.39,-0.35,27.15
2031171,1517,1,216560,258257,-2.98,0.27,9.84,0.09,0.19,-0.28,27.15
2071160,1440,1,216526,258523,-3.16,-0.11,10.66,-0.28,0.06,-0.35,27.15
2111186,1450,1,216483,258474,-2.92,-0.35,9.46,-0.48,-0.06,-0.25,27.15
2151204,1393,1,216212,258176,-2.81,-1.23,9.32,-0.52,-0.24,-0.34,27.15
2191205,1462,1,216270,257861,-3.17,-0.52,8.93,-0.17,-0.06,-0.04,27.15
2231204,1478,1,215392,254074,-2.89,-0.99,9.57,0.11,-0.07,0.05,27.15
2271171,1489,1,213787,251597,-2.47,-1.34,9.02,0.02,-0.21,0.09,27.15
2311188,1506,1,213769,252173,-2.21,-1.42,8.62,-0.43,0.09,-0.12,27.15
2351186,1497,1,214044,251944,-3.12,-1.18,10.29,0.06,0.17,0.02,27.15
2391159,1507,1,214344,254723,-3.11,-2.03,9.49,0.26,-0.22,0.36,27.15
2431171,1586,1,215434,256464,-2.50,-0.86,9.95,-0.14,0.26,-0.15,27.15
2471188,1696,1,215586,257503,-2.69,-1.81,10.17,-0.20,0.24,0.09,27.15
2511165,1715,1,215376,256896,-2.26,-1.98,9.96,-0.36,-0.15,-0.15,27.15
2551205,1783,1,215533,257815,-3.56,-1.85,9.88,-0.21,-0.18,0.16,27.15
2591186,1781,1,215371,257532,-1.63,-2.40,8.71,-0.34,-0.11,-0.22,27.15
2631204,1872,1,215617,257689,-2.72,-1.74,9.12,-0.13,-0.02,0.04,27.15
2671185,1924,1,215342,257529,-2.57,-2.48,9.11,-0.10,-0.07,-0.16,27.15
2711204,1977,1,215435,257438,-3.06,-1.72,9.43,0.10,-0.04,0.08,27.15
2751165,2011,1,215548,257741,-3.15,-1.76,9.88,0.05,-0.00,0.06,27.15
2791171,2003,1,215379,257386,-2.16,-2.33,8.87,-0.07,-0.08,-0.05,27.15
2829204,2013,1,215420,257333,-2.98,-1.56,9.59,0.07,-0.03,0.04,27.15
2869171,2095,1,214770,254946,-2.51,-2.16,9.81,0.14,-0.09,0.04,27.15
2909173,2114,1,213444,251053,-2.43,-1.27,9.72,0.13,-0.12,-0.05,27.15
2949187,2081,1,212512,250798,-2.26,-2.12,9.75,-0.05,-0.01,-0.07,27.15
2989890,2082,1,212686,250936,-2.51,-1.64,9.62,-0.07,-0.13,-0.05,26.97
3030204,1986,1,212672,251980,-2.79,-1.91,9.96,0.02,-0.14,0.03,26.97
3070171,2061,1,212794,252118,-1.67,-2.16,9.70,0.09,-0.03,-0.08,26.97
3110210,2129,1,213171,253407,-2.85,-1.76,10.06,0.28,0.06,0.05,26.97
3150160,2090,1,213122,253842,-2.55,-1.80,10.20,0.19,-0.00,-0.09,26.97
3190187,2083,1,213682,254834,-3.18,-0.73,10.47,-0.03,0.14,-0.04,26.97
3230186,2086,1,213828,255866,-2.46,-2.11,9.65,-0.22,0.03,0.02,26.97
3270171,2062,1,214096,255941,-2.91,-1.44,9.77,-0.06,0.01,-0.08,26.97
3310205,1983,1,213873,256251,-3.12,-1.72,10.15,0.03,0.10,-0.00,26.97
3350171,1963,1,213800,255985,-2.66,-1.58,9.88,-0.01,0.21,-0.21,26.97
3390186,1987,1,213633,256002,-2.74,-1.46,9.52,-0.16,0.09,-0.16,26.97
3430188,1968,1,213516,255783,-2.72,-1.60,9.11,-0.38,0.18,-0.22,26.97
3470185,1915,1,213503,255438,-3.59,-0.71,9.16,-0.48,0.28,-0.09,26.97
3510187,1856,1,212782,251944,-2.11,-1.98,8.01,-0.69,0.13,-0.39,26.97
3550186,1821,1,211165,249095,-2.24,-1.74,7.84,-0.59,-0.19,-0.57,26.97
3590205,1858,1,210379,248347,-2.03,-2.51,8.60,-0.41,-0.37,-0.69,26.97
3630204,1842,1,210100,247758,-2.06,-2.87,9.16,-0.25,-0.17,-0.45,26.97
3670204,1878,1,209822,247124,-1.45,-2.56,8.77,-0.19,-0.19,-0.45,26.97
3710205,1839,1,209764,246731,-1.53,-2.57,8.52,-0.07,-0.05,-0.28,26.97
3750205,1856,1,209623,246254,-2.50,-2.73,9.72,-0.07,0.32,-0.25,26.97
3790186,1894,1,209356,246220,-1.66,-2.57,9.86,0.02,0.21,-0.21,26.97
3830171,1902,1,209656,247097,-2.21,-2.83,10.18,0.14,0.29,-0.12,26.97
3870171,1907,1,210510,250010,-3.21,-2.12,10.46,0.21,0.14,0.12,26.97
3910160,1936,1,212040,253052,-2.35,-2.54,10.42,-0.05,0.02,-0.13,26.97
3950186,1861,1,213007,254122,-2.71,-2.32,10.27,-0.05,-0.05,0.06,26.97
3990873,1890,1,213402,254979,-3.26,-2.77,10.25,0.09,0.01,0.01,27.63
4029160,1918,1,213597,255365,-2.21,-2.60,9.74,0.05,-0.16,-0.00,27.63
4069187,1919,1,213590,255231,-2.32,-2.49,9.35,-0.10,0.10,-0.01,27.63
4109186,1898,1,212996,254011,-2.74,-2.23,9.45,-0.06,0.10,0.01,27.63
4149196,1920,1,211754,249698,-2.01,-2.44,9.29,-0.07,-0.12,-0.16,27.63
4189205,1994,1,209340,245332,-2.44,-1.88,8.61,-0.05,-0.13,0.05,27.63
4229188,1953,1,208338,244217,-2.29,-2.41,8.89,-0.19,-0.03,-0.11,27.63
4269205,1938,1,207976,243954,-2.01,-2.41,8.59,-0.13,-0.21,-0.14,27.63
4309204,1938,1,208004,244788,-1.92,-2.58,8.68,-0.12,-0.20,-0.11,27.63
4349205,1943,1,208656,245975,-1.62,-2.78,8.67,-0.11,-0.10,-0.15,27.63
4389204,1917,1,209344,248328,-1.92,-2.75,9.11,-0.04,-0.12,-0.10,27.63
4429205,1918,1,210367,250414,-1.88,-2.60,8.85,-0.04,-0.01,-0.04,27.63
4469204,1890,1,211377,252565,-1.90,-2.92,9.65,0.04,0.06,-0.08,27.63
4509171,1951,1,212479,254368,-1.97,-2.48,9.01,0.16,0.16,0.00,27.63
4549160,1907,1,213134,255289,-1.70,-2.81,9.44,0.11,0.15,-0.09,27.63
4589171,1935,1,213259,255844,-2.17,-2.24,9.46,0.08,0.04,-0.03,27.63
4629171,1914,1,213387,256083,-1.93,-2.74,9.37,0.07,-0.01,0.09,27.63
4669171,1925,1,213488,256257,-2.23,-2.25,9.15,0.19,-0.03,0.10,27.63
4709171,1883,1,213541,256348,-1.76,-2.45,9.52,0.26,0.06,-0.05,27.63
4749171,1873,1,213489,256190,-1.82,-2.01,9.85,0.39,-0.01,0.00,27.63
4789171,1925,1,213473,256201,-2.46,-1.98,10.32,0.25,0.13,0.09,27.63
4829158,1923,1,213210,253890,-2.43,-1.83,10.23,-0.12,-0.02,0.02,27.63
4869187,1865,1,212188,252183,-3.03,-1.65,10.62,-0.13,0.05,0.16,27.63
4909171,1887,1,212011,252291,-3.49,-1.99,10.26,0.19,0.29,0.38,27.63
4949160,1904,1,212299,252954,-3.33,-2.25,10.24,0.40,0.24,0.18,27.63
4989159,1938,1,212356,252974,-2.52,-1.38,9.26,0.29,-0.03,0.01,27.63
5029857,1940,1,211865,252556,-2.19,-1.72,9.70,0.07,-0.02,-0.07,27.59
5068186,1941,1,212512,254354,-3.54,-1.30,9.45,0.03,-0.05,0.38,27.59
5108171,1975,1,212394,253317,-1.12,-1.82,7.70,-0.51,-0.34,-0.41,27.59
5148204,1876,1,211023,251916,-1.66,-1.53,8.20,-0.22,-0.14,-0.51,27.59
5188204,1863,1,211382,253438,-3.12,-0.22,7.32,0.42,-0.18,0.39,27.59
5228171,1857,1,211831,253749,0.24,-2.64,6.34,-0.54,-0.26,-0.27,27.59
5268187,1669,1,211130,253308,-0.29,-3.18,7.72,-0.47,-0.34,-0.97,27.59
5308205,1666,1,211312,253454,-3.24,-0.35,8.67,0.49,-0.31,-0.06,27.59
5348187,1584,1,211266,253255,-0.07,-1.92,8.38,0.22,-0.21,-0.11,27.59
5388195,1535,1,212043,254689,-2.80,-1.83,10.82,0.15,0.38,0.23,27.59
5428159,1599,1,212703,254998,-3.27,-0.45,9.97,-0.10,0.13,-0.19,27.59
5468186,1584,1,212499,253570,-1.08,-1.25,9.50,-0.11,-0.26,-0.51,27.59
5508204,1684,1,211172,249256,-2.20,-0.81,10.12,0.15,-0.56,0.22,27.59
5548171,1751,1,209918,248103,-1.90,-1.97,10.04,0.00,-0.01,0.21,27.59
5588171,1838,1,210538,248318,-3.51,-1.46,10.82,0.23,0.53,0.27,27.59
5628159,1788,1,210259,247392,-2.54,-2.16,12.02,0.41,0.61,0.29,27.59
5668164,1886,1,210301,246690,-2.95,-1.96,11.63,0.47,0.41,0.34,27.59
5708159,1981,1,210217,248416,-4.49,-0.62,11.69,0.52,0.16,-0.19,27.59
5748171,1968,1,210995,250145,-1.07,0.29,7.97,-0.05,-0.68,-0.20,27.59
5788186,1995,1,210630,249509,-0.67,-0.46,8.52,-0.77,-0.41,-0.31,27.59
5828204,2061,1,210847,251676,-3.13,-0.31,9.08,-0.47,-0.03,0.20,27.59
5868186,1937,1,211671,252666,-2.89,-0.17,8.13,-0.18,-0.05,-0.05,27.59
5908205,2019,1,211869,253428,-1.43,-1.69,8.60,-0.26,-0.26,-0.09,27.59
5948205,1990,1,211810,253559,-1.65,-1.09,8.84,-0.15,-0.31,-0.29,27.59
5988204,1981,1,211791,253590,-0.70,-1.67,8.32,-0.05,-0.42,-0.15,27.59
6028204,1985,1,211475,253827,-0.34,-2.31,10.08,0.04,-0.09,-0.29,27.59
6068873,2093,1,212308,254443,-1.11,-1.59,9.18,0.07,-0.16,0.31,27.09
6107165,2047,1,212450,254374,-1.34,-2.25,10.44,-0.06,0.33,-0.07,27.09
6147187,2069,1,212915,253209,-2.59,-0.41,8.56,0.00,0.15,0.17,27.09
6187156,1999,1,211882,250943,-0.49,-1.87,7.98,-0.65,-0.26,-0.58,27.09
6227204,2058,1,211225,250128,-2.67,-0.55,10.44,-0.26,0.24,-0.32,27.09
6267186,1920,1,211162,251213,-2.15,-0.76,8.33,0.21,-0.34,0.29,27.09
6307171,1901,1,211842,252259,-1.13,-1.65,9.20,-0.22,0.11,0.09,27.09
6347165,2032,1,212421,254219,-3.04,-1.77,10.97,-0.29,0.34,0.03,27.09
6387186,1952,1,213300,255116,-2.16,-1.21,10.32,0.27,-0.16,0.26,27.09
6427171,1973,1,214611,258261,-2.50,-2.76,11.82,0.26,0.25,0.36,27.09
6467164,2026,1,216808,260404,-2.89,-1.88,10.85,0.09,0.27,0.29,27.09
6507160,2091,1,217707,261509,-2.47,-1.98,11.51,-0.04,0.33,-0.01,27.09
6547193,2021,1,218458,262143,-2.63,-1.98,11.23,0.14,0.31,0.01,27.09
6587166,1877,1,219299,262143,-2.62,-1.00,10.79,0.27,0.03,0.21,27.09
6627160,2065,1,219911,262143,-3.57,-1.39,10.59,-0.16,0.57,0.08,27.09
6667171,2064,1,220199,262143,-1.86,-1.99,11.23,-0.28,0.13,-0.24,27.09
6707193,2070,1,220393,262143,-3.83,-1.27,10.71,-0.10,0.22,0.09,27.09
6747171,1923,1,220372,262143,-0.60,0.09,9.32,-0.20,-0.92,0.23,27.09
6787171,2262,1,220214,262143,-1.87,-1.26,7.86,-0.55,-0.70,0.04,27.09
6827186,2010,1,220196,262143,-0.61,-0.83,5.67,-0.36,-0.30,0.25,27.09
6867187,1989,1,220230,262143,-0.96,-2.56,5.97,-0.38,-0.20,0.21,27.09
6907186,2047,1,220498,262143,-0.79,-2.02,7.11,0.05,-0.40,0.16,27.09
6947171,2173,1,220573,262143,-0.07,-2.21,7.12,-0.02,-0.54,0.04,27.09
6987186,2109,1,220794,262143,-0.62,-0.99,7.64,0.23,-0.11,0.04,27.09
7027173,2098,1,220904,262143,-0.73,-1.17,8.60,0.14,0.15,0.09,27.09
7067156,2021,1,221055,262143,-0.18,-2.02,9.34,-0.27,0.16,-0.15,27.09
7107873,2047,1,221202,262143,-2.81,-1.43,10.86,0.19,1.01,-0.16,27.43
7148171,1886,1,221217,262143,-1.67,-1.92,11.26,-0.04,0.64,-0.06,27.43
7188188,1871,1,221210,262143,-3.68,-0.82,11.31,0.22,0.31,-0.06,27.43
7228165,1823,1,221303,262143,-3.00,-2.37,11.11,-0.25,0.37,-0.12,27.43
7268187,1797,1,221369,262143,-2.71,-1.79,11.44,-0.02,0.14,-0.12,27.43
7308186,1755,1,221198,262143,-2.80,-0.98,11.21,0.16,-0.07,-0.19,27.43
7348188,1761,1,221226,262143,-2.86,-2.29,10.34,-0.21,-0.07,0.10,27.43
7388186,1840,1,221072,262143,-2.61,0.10,9.88,0.22,0.02,-0.09,27.43
7428160,1825,1,221098,262143,-2.92,-2.49,9.66,-0.29,-0.09,0.06,27.43
7468186,1822,1,221050,262143,-2.51,-0.34,9.77,0.04,0.03,-0.23,27.43
7506171,1728,1,221153,262143,-2.18,-2.26,9.45,-0.33,-0.11,-0.00,27.43
7546206,1876,1,221088,262143,-1.65,-0.39,8.43,-0.06,-0.27,-0.17,27.43
7586204,1876,1,221125,262143,-0.84,-1.50,8.18,-0.30,-0.20,0.00,27.43
7626186,1963,1,221226,262143,-0.98,-2.05,8.53,0.04,-0.06,-0.06,27.43
7666186,1935,1,221372,262143,-2.91,-2.25,10.12,0.10,0.38,-0.11,27.43
7706165,1872,1,221429,262143,-2.55,-1.37,10.34,0.07,0.11,-0.02,27.43
7746171,1837,1,221401,262143,-2.35,-0.17,9.41,0.14,-0.17,0.04,27.43
7786171,1840,1,221486,262143,-0.91,-2.39,7.94,-0.46,-0.38,0.17,27.43
7827188,1821,1,221481,262143,-0.60,-1.76,8.69,-0.02,-0.04,-0.17,27.43
7867204,1795,1,221577,262143,-3.10,-3.23,9.45,-0.06,0.24,0.05,27.43
7907171,1698,1,221590,262143,-1.28,-1.30,10.66,0.06,0.10,-0.28,27.43
7947165,1680,1,221584,262143,-2.96,-2.26,9.33,-0.04,0.20,-0.11,27.43
7987187,1632,1,221616,262143,-2.77,-0.45,10.56,0.27,0.15,-0.03,27.43
8027207,1627,1,221630,262143,-2.82,-2.30,10.50,-0.06,-0.02,0.05,27.43
8067187,1597,1,221567,262143,-2.46,-2.10,11.05,-0.06,0.06,-0.12,27.43
8107872,1617,1,221634,262143,-3.52,-2.43,11.24,-0.07,0.05,-0.05,27.41
8146187,1535,1,221627,262143,-2.29,-1.24,10.94,-0.02,-0.06,-0.12,27.41
8186205,1645,1,221671,262143,-2.82,-1.78,10.43,0.10,-0.04,0.10,27.41
8226171,1657,1,221733,262143,-2.16,-0.73,10.52,-0.01,-0.22,0.06,27.41
8266186,1631,1,221703,262143,-2.11,-2.00,8.78,-0.20,-0.15,-0.04,27.41
8306204,1843,1,221705,262143,-0.96,-1.66,8.08,-0.17,-0.24,0.07,27.41
8346186,1937,1,221744,262143,-0.87,-1.48,8.22,0.02,-0.27,0.10,27.41
8386171,2011,1,221862,262143,-0.96,-2.50,8.14,-0.07,-0.05,-0.01,27.41
8426204,2127,1,221805,262143,-1.58,-0.99,8.13,0.24,0.11,-0.06,27.41
8466171,2117,1,221822,262143,-1.00,-2.01,8.70,-0.05,-0.09,0.04,27.41
8506185,2201,1,221881,262143,-1.58,-0.36,9.12,0.17,0.06,-0.10,27.41
8546171,2145,1,221852,262143,-2.61,-2.53,9.49,-0.21,0.15,0.04,27.41
8586165,2128,1,221965,262143,-2.00,-1.15,10.43,0.10,0.18,-0.09,27.41
8626171,2083,1,222012,262143,-3.08,-1.91,11.18,0.05,0.22,0.01,27.41
8666159,2064,1,222001,262143,-2.28,-1.87,10.58,-0.22,-0.03,-0.07,27.41
8706204,1974,1,221861,262143,-1.75,0.08,11.13,0.11,-0.10,0.00,27.41
8746156,2018,1,221859,262143,-2.41,-2.86,8.64,-0.38,-0.22,0.13,27.41
8786188,1986,1,221996,262143,-1.16,-0.91,10.23,0.18,0.01,-0.03,27.41
8826165,2031,1,221969,262143,-3.95,-2.38,9.81,0.08,0.27,-0.07,27.41
8867171,1959,1,222165,262143,-1.17,-0.51,11.53,0.03,-0.08,-0.02,27.41
8907186,1905,1,222078,262143,-3.39,-1.62,8.96,-0.04,-0.22,0.11,27.41
8947188,1807,1,222123,262143,-0.40,-0.90,8.78,-0.20,-0.43,0.10,27.41
8987186,1935,1,222162,262143,-2.03,-1.09,8.15,0.03,-0.10,-0.07,27.41
9025257,1857,1,222123,262143,-1.28,-2.31,9.00,-0.36,0.04,-0.08,27.41
9065185,1840,1,222181,262143,-1.95,-1.11,9.99,0.02,0.01,-0.15,27.41
9105171,1783,1,222138,262143,-2.32,-1.36,9.59,-0.01,-0.03,-0.11,27.41
9145890,1829,1,222172,262143,-1.48,-1.00,9.22,-0.05,-0.26,0.18,27.37
9186187,1914,1,222150,262143,-2.15,-1.08,9.28,0.06,0.07,-0.20,27.37
9226171,2029,1,222317,262143,-1.87,-2.03,9.66,-0.34,-0.05,0.07,27.37
9266187,2096,1,222231,262143,-0.72,-1.60,8.98,-0.04,-0.12,-0.30,27.37
9306204,2126,1,222267,262143,-1.85,-2.84,9.36,-0.08,0.16,0.06,27.37
9346171,2112,1,222125,262143,-1.64,-0.82,10.57,0.37,0.07,-0.24,27.37
9386171,2106,1,222104,262143,-2.43,-2.38,10.69,-0.17,0.04,0.06,27.37
9426171,2105,1,222197,262143,-2.59,-0.17,10.64,0.24,0.07,-0.04,27.37
9466171,2057,1,222130,262143,-2.07,-2.42,10.47,-0.30,-0.01,0.06,27.37
9506187,2080,1,222148,262143,-1.79,-1.93,9.43,-0.13,-0.10,-0.10,27.37
9546205,2066,1,222337,262143,-2.00,-2.60,10.76,-0.17,0.12,-0.03,27.37
9586187,2062,1,222217,262143,-1.41,-2.27,10.05,-0.08,-0.38,-0.01,27.37
9626205,2055,1,222244,262143,-1.47,-1.81,10.02,-0.21,-0.22,-0.06,27.37
9666247,2032,1,222245,262143,-1.38,-2.04,9.39,-0.06,-0.02,-0.17,27.37
9706204,2029,1,222274,262143,-2.48,-3.16,9.36,-0.19,0.23,-0.12,27.37
9746188,1959,1,222314,262143,-1.95,-0.67,10.56,0.44,0.06,-0.00,27.37
9786171,1936,1,222274,262143,-2.43,-2.05,9.15,-0.15,-0.26,0.01,27.37
9826188,1920,1,222248,262143,-0.21,-0.89,8.30,-0.08,-0.23,-0.04,27.37
9866229,1919,1,222250,262143,-1.62,-3.03,7.75,-0.25,-0.05,0.01,27.37
9906187,1860,1,222280,262143,-0.48,-1.54,9.10,0.02,-0.12,-0.08,27.37
9946186,1872,1,222322,262143,-1.00,-3.65,7.87,-0.25,0.01,-0.19,27.37
9986187,1904,1,222360,262143,-0.78,-1.55,10.65,0.12,0.11,-0.04,27.37
10026192,1832,1,222294,262143,-3.18,-3.17,10.10,0.06,0.16,-0.13,27.37
10066171,1788,1,222377,262143,-1.27,-1.92,11.48,-0.01,-0.08,0.14,27.37
10106186,1794,1,222319,262143,-1.96,-2.11,9.66,-0.03,-0.17,-0.28,27.37
10146890,1744,1,222231,262143,-0.52,-2.99,9.64,-0.47,-0.10,0.01,27.49
10185186,1855,1,222273,262143,-2.07,-2.61,9.83,0.13,0.21,-0.10,27.49
10225171,1840,1,222355,262143,-2.00,-2.06,10.75,0.22,0.21,0.13,27.49
10265159,1839,1,222307,262143,-1.32,-2.83,10.09,-0.12,-0.11,-0.01,27.49
10305204,1856,1,222275,262143,-1.36,-1.74,9.48,0.05,-0.09,-0.02,27.49
10345186,1829,1,222251,262143,-1.36,-3.26,9.13,-0.26,-0.25,0.06,27.49
10385188,1916,1,222182,262143,-0.56,-1.67,8.72,-0.00,-0.07,-0.24,27.49
10425204,1901,1,222187,262143,-1.19,-2.27,9.04,0.09,0.01,0.03,27.49
10465160,1933,1,222225,262143,-0.82,-1.87,8.32,0.08,-0.06,0.06,27.49
10505187,2035,1,222270,262143,-2.09,-1.12,9.70,0.17,0.12,0.03,27.49
10545160,2019,1,222282,262143,-2.56,-2.23,9.10,-0.06,0.25,0.06,27.49
10585165,2071,1,222269,262143,-0.36,-1.98,8.78,-0.07,-0.03,-0.07,27.49
10625204,2038,1,222281,262143,-1.90,-1.34,9.20,0.09,0.09,-0.07,27.49
10665171,2033,1,222232,262143,-1.73,-1.98,10.15,0.01,0.19,0.10,27.49
10705160,1970,1,222221,262143,-2.56,-1.34,10.14,0.26,0.03,0.06,27.49
10745160,2000,1,222297,262143,-2.35,-2.94,10.27,-0.39,-0.12,0.01,27.49
10785189,1911,1,222362,262143,-2.04,-1.17,9.65,0.12,0.20,-0.39,27.49
10825171,1808,1,222425,262143,-1.74,-3.80,10.71,-0.36,-0.07,0.06,27.49
10865188,1763,1,222341,262143,-2.20,-0.93,9.83,0.26,0.05,-0.36,27.49
10904171,1685,1,222496,262143,-1.60,-2.01,11.23,-0.06,-0.10,0.20,27.49
10944187,1719,1,222351,262143,-2.45,-1.57,9.33,0.05,-0.20,-0.19,27.49
10984186,1687,1,222339,262143,-1.23,-1.99,9.86,-0.14,0.03,0.06,27.49
11024192,1772,1,222325,262143,-1.16,-1.28,9.04,-0.03,-0.27,0.04,27.49
11064187,1807,1,222230,262143,-1.52,-2.36,8.71,-0.18,-0.07,-0.07,27.49
11104204,1983,1,222245,262143,-0.86,-1.86,8.54,-0.07,-0.04,0.13,27.49
11144186,2166,1,222277,262143,-1.70,-1.55,8.46,0.25,0.16,-0.00,27.49
11184857,2240,1,222433,262143,-1.18,-2.48,9.17,-0.05,-0.12,0.19,27.37
11225186,2300,1,222346,262143,-1.28,-1.13,9.24,0.09,-0.15,-0.23,27.37
11265188,2278,1,222361,262143,-1.23,-2.39,9.16,-0.28,-0.04,-0.10,27.37
11305212,2369,1,222216,262143,-0.92,-1.31,8.73,0.01,0.00,-0.23,27.37
11345171,2305,1,222211,262143,-1.59,-2.95,9.08,-0.06,0.05,0.03,27.37
11385171,2197,1,222265,262143,-1.27,-1.96,9.56,0.05,0.07,-0.12,27.37
11425171,2124,1,222299,262143,-1.27,-2.07,10.22,0.01,0.07,-0.00,27.37
11465171,2036,1,222334,262143,-1.44,-1.87,9.52,0.04,-0.02,0.04,27.37
11505174,2005,1,222431,262143,-1.53,-2.31,10.49,0.04,-0.01,0.10,27.37
11545171,1959,1,222490,262143,-2.31,-1.65,9.45,0.15,0.14,-0.05,27.37
11585171,1757,1,222497,262143,-2.55,-2.67,10.27,-0.14,0.06,0.05,27.37
11625171,1776,1,222474,262143,-2.36,-1.00,9.93,0.06,0.18,-0.03,27.37
11665171,1802,1,222561,262143,-2.59,-2.82,10.08,-0.09,0.19,0.04,27.37
11705171,1773,1,222545,262143,-1.69,-1.83,10.61,-0.09,-0.15,0.02,27.37
11745188,1535,1,222531,262143,-1.63,-2.07,8.85,-0.13,-0.08,-0.09,27.37
11785204,1510,1,222545,262143,-0.66,-1.50,8.28,-0.03,-0.43,0.21,27.37
11825187,1303,1,222482,262143,-1.28,-1.97,8.10,-0.06,-0.02,-0.14,27.37
11865204,1323,1,222578,262143,-1.98,-3.48,9.88,-0.31,0.42,-0.15,27.37
11905189,1329,1,222477,262143,-2.26,-1.56,8.84,0.16,0.15,-0.21,27.37
11944171,1232,1,222486,262143,-2.69,-2.47,11.18,0.09,-0.14,0.14,27.37
11984171,1391,1,222365,262143,-1.78,-2.51,8.58,-0.41,-0.26,-0.39,27.37
12024226,1473,1,222353,262143,-1.44,-2.98,10.05,-0.40,-0.07,-0.32,27.37
12064204,1396,1,222210,262143,-1.13,-2.80,8.96,-0.16,-0.24,-0.43,27.37
12104205,1171,1,222263,262143,-0.43,-2.19,10.01,0.07,-0.16,-0.10,27.37
12144188,1297,1,222243,262143,-1.83,-3.70,8.95,0.10,-0.05,-0.13,27.37
12184871,798,1,222305,262143,-1.36,-1.19,10.89,0.24,0.18,-0.02,27.41
12223171,977,1,222337,262143,-1.98,-2.90,9.72,-0.05,-0.07,-0.04,27.41
12263204,1573,1,222454,262143,-1.48,-1.75,10.31,-0.04,0.23,0.06,27.41
12303171,1799,1,222520,262143,-1.47,-2.84,9.09,-0.01,0.12,0.00,27.41
12343165,2113,1,222705,262143,-1.74,-2.28,10.16,0.14,0.00,0.24,27.41
12383159,1779,1,222705,262143,-1.73,-2.93,9.28,0.08,0.00,-0.02,27.41
12423171,1708,1,222707,262143,-1.15,-1.94,9.77,0.01,-0.06,0.01,27.41
12463171,2159,1,222631,262143,-1.17,-3.11,8.40,-0.17,-0.19,-0.17,27.41
12503205,2554,1,222694,262143,-2.18,-1.73,10.58,0.17,0.09,0.02,27.41
12543160,2919,1,222594,262143,-1.51,-1.51,8.56,0.33,-0.08,0.08,27.41
12583165,2905,1,222538,262143,-2.50,-2.50,8.83,-0.07,0.22,-0.06,27.41
12623188,2869,1,222419,262143,-1.10,-1.40,9.64,0.04,-0.06,-0.05,27.41
12663186,2834,1,222440,262143,-2.49,-2.80,8.98,-0.23,0.12,-0.08,27.41
12703188,2637,1,222409,262143,-0.83,-1.40,9.02,-0.11,-0.13,0.06,27.41
12743191,2736,1,222456,262143,-1.13,-1.64,9.62,0.10,-0.02,-0.02,27.41
12783188,2863,1,222483,262143,-1.52,-2.47,9.17,-0.14,-0.06,-0.06,27.41
12823205,2693,1,222494,262143,-1.26,-1.35,9.25,0.06,0.09,-0.04,27.41
12863171,2655,1,222534,262143,-1.63,-3.10,9.90,-0.17,-0.08,0.04,27.41
12903186,2608,1,222575,262143,-2.31,-1.55,10.01,0.05,0.17,-0.19,27.41
12943215,2529,1,222699,262143,-2.72,-3.14,12.15,-0.17,0.34,-0.07,27.41
12983186,2311,1,222485,262143,-2.43,-0.15,9.60,0.29,-0.25,0.10,27.41
13023176,2240,1,222335,262143,0.54,-1.26,6.54,-0.36,-0.74,0.25,27.41
13063171,1952,1,222662,262143,1.24,-2.89,10.55,-0.45,-0.14,-0.27,27.41
13103191,1726,1,222648,262143,-4.25,-4.60,9.16,-0.48,0.59,-0.30,27.41
13143195,1619,1,222757,262143,2.24,-3.51,8.74,0.31,-0.08,-0.18,27.41
13183173,1601,1,222947,262143,-4.85,-4.94,11.30,0.31,0.28,-0.13,27.41
13223857,1458,1,222767,262143,-1.33,0.17,9.79,0.55,0.25,-0.36,27.37
13264164,1626,1,222855,262143,-3.47,-1.09,10.75,0.32,0.32,0.44,27.37
13304159,1795,1,222842,262143,-1.47,0.00,10.48,0.45,-0.20,0.08,27.37
13344178,1799,1,222887,262143,-3.00,-3.89,9.45,-0.92,-0.11,-0.06,27.37
13384205,1922,1,222758,262143,-1.17,-1.73,8.00,-0.23,0.45,-0.45,27.37
13424193,1702,1,222886,262143,-3.26,-3.85,10.15,-0.06,0.05,0.27,27.37
13464171,1875,1,222825,262143,-1.20,-1.61,8.55,0.18,-0.19,0.06,27.37
13504171,1808,1,222966,262143,-1.99,-2.75,10.68,0.24,-0.03,0.28,27.37
13544171,1939,1,222908,262143,-1.88,-1.75,9.86,-0.12,-0.11,-0.39,27.37
13584207,1938,1,222888,262143,-1.93,-2.37,10.31,-0.13,0.04,-0.23,27.37
13624189,1951,1,222841,262143,-2.49,-2.60,9.12,-0.09,-0.08,-0.15,27.37
13664206,2145,1,222849,262143,-1.19,-2.40,10.73,-0.04,-0.07,-0.08,27.37
13704205,2160,1,222822,262143,-3.54,-1.28,10.15,0.40,0.25,-0.05,27.37
13744173,2097,1,222771,262143,-0.65,-2.40,7.79,-0.51,-0.73,0.32,27.37
13784188,2053,1,222504,262143,-0.72,-1.38,6.29,-0.14,-0.02,-0.63,27.37
13824204,1616,1,222819,262143,-1.87,-3.85,9.73,-0.11,0.65,-0.12,27.37
13864188,1671,1,222416,262143,-1.33,-1.20,8.73,0.46,-0.01,-0.38,27.37
13904194,1681,1,222581,262143,-2.08,-2.41,12.16,0.01,0.02,0.36,27.37
13942160,1867,1,222432,262143,-2.41,-0.62,8.17,0.46,-0.11,0.12,27.37
13982173,1792,1,222670,262143,0.66,-3.43,9.45,-0.46,-0.43,0.13,27.37
14022184,1933,1,222614,262143,-2.10,-1.27,8.84,-0.04,0.18,-0.42,27.37
14062192,1798,1,222649,262143,-0.09,-2.87,10.10,-0.39,-0.45,0.12,27.37
14102188,1881,1,222669,262143,-1.70,-2.10,9.06,0.18,0.31,-0.47,27.37
14142173,1808,1,222734,262143,-1.79,-3.20,9.20,0.04,0.28,0.14,27.37
14182159,1959,1,222706,262143,-1.69,-0.43,10.88,0.70,0.31,0.04,27.37
14222164,2120,1,222704,262143,-2.93,-1.47,10.65,0.21,0.02,0.36,27.37
14262846,2009,1,222720,262143,-1.70,-1.11,9.98,-0.06,-0.13,0.08,27.17
14303194,2023,1,222774,262143,-2.43,-2.10,9.33,-0.20,0.06,-0.03,27.17
14343188,1991,1,222824,262143,-1.27,-1.64,9.50,-0.01,-0.01,0.15,27.17
14383193,2033,1,222835,262143,-1.88,-1.62,9.55,0.21,-0.13,0.26,27.17
14423171,2053,1,222803,262143,-1.26,-0.80,9.73,0.15,-0.23,0.12,27.17
14463173,2033,1,222870,262143,-2.04,-1.95,9.21,-0.06,-0.01,0.00,27.17
14503189,2046,1,222829,262143,-0.61,-0.85,9.48,-0.06,-0.12,0.06,27.17
14543190,2020,1,222776,262143,-1.70,-1.97,8.90,0.12,-0.01,0.13,27.17
14583177,2095,1,222862,262143,-1.76,-0.66,9.38,0.10,-0.05,0.18,27.17
14623171,1968,1,222906,262143,-1.43,-1.95,8.66,-0.18,-0.03,-0.13,27.17
14663206,2160,1,222986,262143,-1.35,-1.57,9.29,-0.04,0.18,-0.03,27.17
14703193,2277,1,223019,262143,-2.02,-1.58,9.97,0.29,0.10,0.06,27.17
14743159,2290,1,223010,262143,-2.88,0.15,11.76,-0.14,0.24,-0.54,27.17
14783192,2330,1,222699,262143,-1.76,-2.23,9.97,-0.78,-0.09,-0.26,27.17
14823206,2155,1,222398,262143,-1.75,-1.63,9.82,0.19,-0.15,0.04,27.17
14863171,2190,1,221755,262143,-1.16,-1.96,10.14,0.06,0.04,0.05,27.17
14903159,2170,1,220780,262143,-2.95,-1.37,9.85,0.12,0.36,0.12,27.17
14943159,2143,1,220353,262143,-2.64,-1.47,10.42,0.04,0.53,0.05,27.17
14983187,2145,1,220090,262143,-2.86,-1.01,10.52,-0.04,0.24,-0.08,27.17
15023202,2074,1,219841,262143,-2.17,-1.37,9.45,-0.29,-0.24,-0.07,27.17
15063205,1987,1,219955,262143,-1.58,-1.69,9.25,-0.36,-0.01,-0.29,27.17
15103205,1808,1,219700,261852,-2.07,-0.82,8.90,-0.34,0.01,0.00,27.17
15143171,1811,1,218251,259265,-1.63,-1.95,9.36,-0.32,-0.25,-0.12,27.17
15183206,1789,1,218208,259850,-2.72,-0.94,8.89,-0.30,-0.17,0.17,27.17
15223187,1498,1,217926,259801,-1.63,-2.15,8.61,-0.33,-0.26,-0.14,27.17
15263900,1714,1,218003,260166,-2.24,-1.83,8.94,-0.21,-0.33,0.05,26.97
15302187,1761,1,217893,260741,-1.61,-2.38,9.24,-0.25,-0.18,-0.02,26.97
15342205,1869,1,218347,261413,-2.16,-1.54,9.87,-0.03,0.09,0.16,26.97
15382171,1958,1,218208,261503,-1.55,-2.94,9.62,-0.02,-0.15,0.23,26.97
15422188,1986,1,218397,261922,-1.87,-2.29,9.95,0.03,0.13,0.15,26.97
15462160,2166,1,218721,262143,-2.19,-2.14,9.95,0.07,0.21,0.13,26.97
15502160,2006,1,218996,262143,-2.34,-2.05,9.80,0.23,0.14,0.07,26.97
15542160,1919,1,219101,262143,-1.82,-2.47,9.67,0.17,0.16,0.06,26.97
15582159,1856,1,219171,262143,-2.21,-1.91,10.07,0.23,0.23,0.01,26.97
15622160,1776,1,219222,262143,-2.71,-1.28,9.54,0.35,0.08,0.00,26.97
15662160,1741,1,218864,262115,-2.73,-1.13,9.79,0.33,0.12,-0.21,26.97
15702171,1857,1,218921,262051,-2.58,-0.54,10.22,0.21,0.15,0.02,26.97
15742160,1832,1,218627,259700,-3.30,-1.28,10.72,0.16,0.34,0.08,26.97
15782160,1856,1,217490,256205,-3.49,-0.61,10.64,0.20,0.06,0.22,26.97
15822160,1868,1,216805,255474,-2.83,-1.22,10.03,0.11,-0.06,0.16,26.97
15862171,1898,1,216759,255821,-2.69,-1.08,9.55,-0.07,0.03,0.07,26.97
15902171,1899,1,216830,256697,-3.26,-1.02,9.65,0.01,0.06,0.01,26.97
15942157,1946,1,217314,257810,-2.48,-0.67,8.79,-0.18,-0.23,-0.02,26.97
15982204,1959,1,217372,258837,-2.49,-1.12,9.46,-0.20,0.10,-0.24,26.97
16021189,2007,1,217911,259629,-2.43,-0.52,8.29,0.01,-0.06,0.07,26.97
16061171,1966,1,217704,259895,-1.60,-0.96,8.40,-0.15,-0.20,-0.28,26.97
16101205,1950,1,217997,260436,-1.92,-0.84,8.81,-0.18,0.03,-0.02,26.97
16141188,1899,1,217895,259949,-2.12,-1.09,9.53,-0.05,0.07,-0.09,26.97
16181186,1886,1,217811,260286,-2.55,-1.17,9.29,0.24,-0.04,0.23,26.97
16221195,1891,1,217996,260389,-2.17,-0.64,9.54,0.04,-0.07,0.00,26.97
16261171,1885,1,218184,261099,-2.54,-1.12,9.79,-0.04,0.22,0.03,26.97
16301857,1863,1,218273,260826,-2.93,-0.21,9.90,0.11,0.10,-0.08,26.97
16342171,1859,1,218044,259966,-2.69,-1.05,9.62,-0.03,-0.09,0.06,26.97
16382188,1847,1,217090,256048,-2.43,-0.53,9.87,-0.29,-0.03,-0.11,26.97
16422218,1836,1,216619,256357,-3.51,-0.85,10.48,0.01,0.10,0.17,26.97
16462159,1815,1,216761,256862,-2.06,-0.86,9.20,-0.08,-0.22,-0.10,26.97
16502206,1822,1,217144,258063,-3.09,-0.86,9.98,-0.12,0.20,-0.11,26.97
16542188,1826,1,217565,258944,-2.66,-1.07,9.95,-0.04,0.17,0.11,26.97
16582171,1829,1,217704,259308,-2.57,-0.92,9.01,-0.19,-0.26,0.02,26.97
16622188,1793,1,217925,260023,-2.49,-1.20,9.11,-0.32,-0.12,0.05,26.97
16662187,1743,1,217846,259735,-2.40,-1.29,9.24,-0.34,-0.08,-0.09,26.97
16702204,1795,1,217751,259870,-2.43,-1.61,9.02,0.10,-0.04,0.14,26.97
16742171,1788,1,217701,259679,-1.69,-1.60,9.05,-0.01,-0.22,-0.00,26.97
16782205,1856,1,217576,259692,-1.64,-1.74,9.46,-0.13,0.06,0.01,26.97
16822171,1851,1,217734,260029,-2.93,-1.32,9.91,0.17,0.13,0.23,26.97
16862160,1868,1,217877,260181,-3.06,-1.21,10.30,0.25,0.02,0.08,26.97
16902160,1907,1,218105,260885,-2.12,-1.23,9.30,-0.08,-0.08,0.01,26.97
16942187,1923,1,218141,260050,-2.07,-0.97,9.59,-0.19,-0.05,-0.13,26.97
16982204,1966,1,216883,255241,-2.32,-1.67,9.43,-0.10,-0.12,0.15,26.97
17022194,1909,1,215551,253122,-2.69,-1.27,9.62,0.06,-0.06,-0.01,26.97
17062186,1958,1,215537,254479,-1.75,-1.67,8.82,-0.08,-0.10,0.10,26.97
17102187,1993,1,215847,254475,-1.84,-1.03,9.01,-0.31,0.00,-0.36,26.97
17142186,1990,1,216307,256418,-2.78,-1.02,9.31,-0.04,0.09,0.01,26.97
17180171,1978,1,216545,256387,-1.26,-1.02,8.09,-0.19,-0.27,-0.27,26.97
17220205,1923,1,216561,257121,-1.87,-1.47,9.25,-0.22,0.01,-0.04,26.97
17260188,1939,1,216776,256741,-2.72,-1.37,8.98,-0.19,0.13,0.19,26.97
17300171,1911,1,216553,256423,-2.59,-2.18,9.81,0.03,0.10,0.06,26.97
17340845,1929,1,216639,256801,-2.45,-1.84,9.28,0.11,-0.04,0.23,26.93
17381171,1924,1,216535,256963,-1.42,-2.25,9.45,-0.08,-0.02,-0.11,26.93
17421205,1962,1,216833,257494,-2.60,-1.67,9.46,-0.08,0.06,0.14,26.93
17461171,1893,1,216851,258039,-2.47,-2.17,9.48,-0.15,0.09,0.08,26.93
17501171,1911,1,217231,258428,-2.49,-1.94,9.28,-0.00,-0.01,0.16,26.93
17541186,1931,1,217321,258735,-2.70,-1.85,9.77,-0.00,0.09,0.02,26.93
17581171,1985,1,217435,256302,-3.30,-1.52,9.54,0.04,0.06,0.08,26.93
17621157,1952,1,215306,251981,-2.20,-1.98,9.62,-0.13,-0.05,-0.24,26.93
17661205,1952,1,215055,252396,-3.58,-1.42,9.35,0.04,0.10,0.17,26.93
17701158,1873,1,215055,252040,-2.48,-1.77,9.23,-0.02,-0.06,-0.10,26.93
17741205,1918,1,215006,252534,-2.54,-1.77,9.48,0.04,0.03,0.05,26.93
17781159,1938,1,215283,252694,-3.29,-1.28,9.50,0.09,-0.03,-0.07,26.93
17821188,1991,1,215419,254338,-2.41,-1.72,9.08,-0.10,-0.17,-0.06,26.93
17861225,1937,1,215959,254641,-3.10,-1.07,9.49,-0.24,-0.00,-0.07,26.93
17901205,2011,1,215769,254482,-3.24,-1.87,9.51,0.03,0.10,0.18,26.93
17941159,1966,1,215780,254456,-3.34,-1.72,9.71,0.15,-0.03,0.04,26.93
17981171,1975,1,216138,256230,-2.81,-1.71,9.10,0.05,-0.02,0.02,26.93
18021171,1970,1,217160,258283,-2.83,-1.00,8.66,-0.18,-0.17,-0.22,26.93
18061205,1937,1,217259,258452,-1.73,-1.41,8.71,-0.36,-0.13,-0.38,26.93
18101205,1945,1,217286,258824,-3.52,-1.40,9.79,-0.03,0.11,0.04,26.93
18141171,1913,1,217449,258953,-3.11,-1.64,9.13,0.10,-0.13,0.11,26.93
18181171,1905,1,217666,259491,-3.10,-2.11,9.46,-0.19,-0.00,0.03,26.93
18221188,1923,1,217033,254266,-3.02,-1.70,9.49,-0.17,0.10,-0.08,26.93
18261186,1902,1,214958,251852,-3.87,-1.88,9.66,0.21,0.01,0.14,26.93
18301159,1889,1,214914,251609,-3.05,-1.57,9.17,0.21,-0.19,0.07,26.93
18341857,1813,1,214557,252451,-2.30,-2.30,9.57,-0.26,0.11,-0.06,26.85
18380188,1919,1,215417,253101,-3.77,-1.12,9.29,-0.06,0.11,0.07,26.85
18420171,1893,1,215557,254409,-3.37,-1.89,8.96,-0.04,-0.16,-0.12,26.85
18460204,1845,1,215639,254531,-2.20,-2.05,9.03,-0.16,-0.09,-0.12,26.85
18500205,1784,1,215874,255391,-3.68,-1.90,9.89,0.01,0.17,0.19,26.85
18540160,1791,1,216147,255506,-3.43,-1.77,9.46,0.36,-0.04,0.12,26.85
18580171,1797,1,216507,257073,-2.86,-1.94,9.49,0.01,-0.07,-0.04,26.85
18620187,1865,1,216962,258199,-2.88,-1.19,8.75,-0.33,-0.01,-0.22,26.85
18660205,1907,1,217500,259434,-3.52,-1.02,8.60,-0.28,-0.15,-0.09,26.85
18700205,1879,1,217592,259589,-2.66,-1.76,8.19,-0.18,-0.21,-0.15,26.85
18740205,1907,1,217669,259934,-2.47,-1.64,8.62,-0.04,-0.00,0.00,26.85
18780188,1911,1,217535,259691,-2.95,-1.90,9.35,0.11,0.04,-0.17,26.85
18820171,1963,1,216908,255191,-2.68,-1.66,9.56,0.06,-0.17,-0.19,26.85
18860189,1914,1,214596,251511,-2.95,-2.07,10.09,-0.16,-0.03,-0.10,26.85
18900206,1939,1,214402,251456,-3.58,-1.41,9.33,-0.05,-0.05,0.06,26.85
18940189,1807,1,214431,251649,-2.62,-1.66,8.72,-0.29,-0.10,-0.09,26.85
18980205,1921,1,214012,250352,-2.71,-2.22,9.49,-0.02,0.06,0.02,26.85
19020171,1872,1,213699,250463,-3.34,-2.21,9.39,0.24,-0.06,0.30,26.85
19060171,1808,1,213706,250598,-2.61,-2.47,9.31,0.29,0.01,0.09,26.85
19100159,1873,1,214000,251493,-3.12,-2.39,10.35,0.05,0.23,0.15,26.85
19140159,1877,1,214278,251474,-3.39,-1.88,9.99,0.15,0.09,-0.03,26.85
19180171,1936,1,214605,252783,-3.82,-1.30,9.94,0.08,-0.09,-0.03,26.85
19220186,1918,1,215253,254969,-2.66,-1.48,8.94,-0.25,-0.17,-0.08,26.85
19260204,2017,1,216123,256068,-2.92,-0.95,8.81,-0.30,-0.11,-0.09,26.85
19300205,2014,1,216396,257436,-2.95,-1.63,8.88,-0.11,0.00,0.08,26.85
19340171,2058,1,216723,257249,-3.36,-1.44,9.00,0.07,-0.08,0.02,26.85
19380857,2027,1,216572,257711,-2.97,-2.02,9.53,0.23,-0.08,0.26,27.21
19419171,2018,1,216133,253041,-3.15,-1.19,9.74,0.23,-0.01,0.18,27.21
19459171,2026,1,214087,250452,-2.72,-1.94,9.65,0.15,-0.00,0.15,27.21
19499171,1942,1,213771,250233,-3.30,-1.38,9.63,0.06,-0.06,0.01,27.21
19539171,1968,1,213977,250720,-3.32,-1.36,9.73,-0.16,-0.02,0.04,27.21
19579188,1973,1,213861,250562,-3.04,-1.59,10.03,-0.23,0.08,-0.11,27.21
19619187,1975,1,213972,250934,-3.58,-1.29,9.98,0.16,0.04,0.12,27.21
19659164,1951,1,214068,252108,-2.70,-1.84,9.65,-0.01,-0.15,-0.11,27.21
19699214,1932,1,214638,253289,-2.37,-1.44,9.48,-0.35,0.02,-0.23,27.21
19739192,1937,1,214858,253749,-2.89,-1.48,8.90,-0.30,0.04,-0.06,27.21
19779188,1920,1,214863,253561,-2.40,-1.62,8.82,-0.18,-0.18,-0.07,27.21
19819206,1909,1,214851,254813,-2.19,-2.00,8.56,-0.10,-0.11,0.02,27.21
19859187,1849,1,215719,255842,-2.34,-1.58,8.18,-0.14,-0.19,-0.04,27.21
19899206,1822,1,215646,256239,-1.76,-2.18,8.36,-0.26,0.05,-0.12,27.21
19939189,1809,1,215696,256057,-3.30,-1.67,8.96,0.15,0.07,0.17,27.21
19979164,1819,1,215703,256366,-3.17,-2.18,9.25,0.39,0.06,0.26,27.21
20019159,1850,1,215470,252323,-2.54,-1.70,9.46,0.23,0.07,0.10,27.21
20059160,1917,1,213708,249866,-3.85,-1.50,10.41,0.11,0.29,0.15,27.21
20099159,1930,1,213374,249116,-3.23,-1.14,9.89,0.29,-0.01,-0.04,27.21
20139193,1872,1,213524,249331,-3.11,-1.14,10.23,0.04,-0.16,-0.03,27.21
20179189,1890,1,213325,250011,-3.19,-1.54,10.14,-0.24,0.15,-0.05,27.21
20219193,1971,1,214016,250643,-3.72,-0.91,9.84,-0.04,0.06,0.04,27.21
20259171,1959,1,213948,251788,-2.83,-1.75,9.79,-0.04,-0.21,-0.09,27.21
20299205,1975,1,214619,252573,-3.00,-0.98,9.22,-0.11,-0.08,-0.05,27.21
20339207,1971,1,214596,253339,-3.06,-1.75,9.70,-0.11,0.06,0.03,27.21
20379171,1968,1,215134,255126,-3.19,-1.55,9.37,0.15,-0.10,0.10,27.21
20419857,1978,1,216187,257631,-2.32,-1.43,8.79,-0.14,-0.35,-0.15,27.03
20460206,1943,1,216867,259420,-2.50,-1.05,8.69,-0.39,0.00,-0.28,27.03
20500187,1917,1,217374,260048,-2.51,-0.81,8.00,-0.21,-0.03,-0.13,27.03
20538205,1907,1,217427,260109,-2.38,-1.60,8.57,0.19,-0.13,0.02,27.03
20578171,1895,1,217435,260347,-2.41,-1.33,9.10,0.21,-0.15,0.02,27.03
20618172,1897,1,217531,260351,-2.14,-1.44,9.05,0.02,0.10,0.04,27.03
20658160,1934,1,217187,257771,-3.28,-1.05,9.89,-0.18,0.15,-0.17,27.03
20698192,1958,1,216156,256798,-2.38,-1.65,9.36,0.01,-0.16,-0.05,27.03
20738187,1886,1,216303,258262,-1.68,-1.21,7.92,-0.36,-0.39,-0.29,27.03
20778205,1785,1,216417,258564,-1.24,-1.32,7.84,-0.52,-0.18,-0.45,27.03
20818205,1798,1,216577,258608,-2.67,-1.30,8.57,-0.01,0.21,0.01,27.03
20858171,1872,1,216265,258313,-1.86,-1.72,9.38,0.41,-0.12,0.10,27.03
20898171,1794,1,216525,258535,-2.75,-0.80,9.80,0.23,0.01,0.33,27.03
20938160,1827,1,216664,259174,-3.22,-1.52,10.87,-0.15,0.42,0.19,27.03
20978171,1901,1,217002,258908,-3.48,-1.52,10.38,0.13,0.19,0.23,27.03
21018159,1840,1,216752,259030,-3.14,-1.65,10.36,0.02,-0.26,0.08,27.03
21058171,1862,1,217000,259693,-2.83,-1.67,10.01,-0.14,0.05,0.09,27.03
21098171,1926,1,217119,259809,-2.80,-1.65,9.86,-0.19,0.09,0.08,27.03
21138171,1931,1,217025,259676,-2.75,-1.49,9.38,0.07,-0.03,0.10,27.03
21178171,1920,1,217061,259756,-3.06,-1.26,9.64,-0.02,-0.01,-0.04,27.03
21218205,1979,1,216995,259549,-2.62,-1.31,9.29,-0.14,-0.04,0.12,27.03
21258188,1937,1,216639,257277,-2.71,-1.53,9.39,-0.04,-0.06,0.16,27.03
21298187,1964,1,214849,251706,-2.11,-1.92,9.01,0.14,-0.05,0.13,27.03
21338171,1958,1,213644,250640,-2.93,-1.62,9.56,0.15,0.04,-0.04,27.03
21378166,2007,1,213953,252102,-2.76,-1.24,9.51,-0.15,-0.06,-0.02,27.03
21418204,2045,1,214447,252823,-1.96,-1.47,9.04,-0.24,-0.03,-0.16,27.03
21458892,2024,1,214957,254462,-2.64,-1.24,8.84,0.03,-0.11,0.11,26.85
21499171,1978,1,214941,254565,-2.15,-1.82,9.54,-0.07,-0.08,-0.19,26.85
21539246,1991,1,215511,256168,-2.59,-1.29,9.06,0.01,0.06,0.18,26.85
21579158,1905,1,215872,256635,-2.33,-1.67,9.42,-0.08,0.00,-0.14,26.85
21619186,1954,1,216267,257726,-1.98,-1.26,8.62,0.03,-0.19,-0.11,26.85
21659188,1921,1,216653,258302,-2.30,-0.85,9.21,-0.15,-0.01,-0.35,26.85
21699205,1899,1,216983,259020,-2.19,-0.89,9.17,-0.08,0.17,-0.01,26.85
21739188,1965,1,217034,259071,-2.44,-0.84,9.35,-0.12,-0.13,-0.02,26.85
21779206,1923,1,216907,259556,-2.48,-1.39,9.67,-0.16,0.05,0.01,26.85
21819171,1959,1,217241,259808,-2.90,-0.92,9.45,-0.10,0.06,0.04,26.85
21859171,1935,1,217067,259226,-2.42,-1.69,9.45,-0.13,-0.00,0.07,26.85
21899189,1941,1,216003,253183,-2.55,-1.78,9.98,-0.12,0.01,0.06,26.85
21939171,1925,1,213651,250371,-2.78,-2.43,9.80,0.18,0.11,0.28,26.85
21978162,1927,1,213408,250039,-2.24,-2.12,9.34,0.11,-0.12,0.10,26.85
22018171,1943,1,213474,250576,-2.95,-1.96,9.97,-0.08,0.16,0.07,26.85
22058171,1961,1,213797,251512,-3.19,-1.64,9.61,-0.08,0.05,0.03,26.85
22098171,1948,1,213976,252151,-1.94,-1.91,9.09,0.04,-0.12,-0.11,26.85
22138192,1915,1,214505,254119,-2.79,-1.36,9.54,0.09,0.07,0.05,26.85
22178160,1919,1,215061,253752,-1.57,-1.36,8.80,-0.01,-0.07,-0.05,26.85
22218205,1926,1,214794,254313,-2.82,-1.23,10.28,-0.13,0.10,-0.03,26.85
22258188,1921,1,215012,254706,-2.46,-1.47,9.33,-0.24,-0.11,-0.06,26.85
22298206,1937,1,214876,254802,-2.24,-1.78,9.27,-0.13,-0.12,-0.06,26.85
22338205,1934,1,214912,255163,-1.97,-1.98,9.01,-0.28,-0.12,-0.04,26.85
22378205,1891,1,214771,255149,-2.31,-2.47,9.36,-0.15,0.16,-0.08,26.85
22418189,1971,1,215011,255588,-2.40,-2.21,9.25,0.13,-0.01,0.08,26.85
22458172,1911,1,215098,256093,-1.92,-2.24,9.10,0.01,-0.05,-0.10,26.85
22498874,1955,1,215407,253324,-2.58,-1.14,9.45,0.04,0.17,-0.01,26.73
22537172,1947,1,213615,249711,-2.57,-1.37,10.02,-0.02,0.02,-0.08,26.73
22577188,1955,1,213143,250114,-3.01,-1.38,10.21,0.00,0.01,-0.04,26.73
22617172,1941,1,213422,250192,-2.05,-1.46,9.58,-0.26,-0.13,-0.07,26.73
22657206,1968,1,213487,251734,-3.05,-1.76,9.90,-0.27,0.12,0.08,26.73
22697173,1973,1,214533,252227,-2.61,-2.18,10.32,0.07,0.01,0.14,26.73
22737159,1883,1,214240,253944,-2.76,-2.61,10.01,0.25,0.02,0.12,26.73
22777164,1885,1,215040,253819,-2.07,-2.09,9.72,0.06,-0.11,0.06,26.73
22817171,1900,1,214950,256025,-3.88,-2.33,10.48,-0.17,0.21,0.06,26.73
22857172,1916,1,215701,255904,-2.15,-1.76,8.94,-0.29,-0.17,-0.09,26.73
22897205,1900,1,215287,256775,-3.14,-2.45,9.66,-0.04,-0.07,-0.14,26.73
22937206,1968,1,215533,256373,-1.74,-1.76,8.97,0.12,-0.14,-0.09,26.73
22978229,1883,1,215503,257468,-2.36,-2.23,9.48,-0.00,0.02,-0.09,26.73
23018190,1879,1,215749,257837,-2.01,-2.04,9.61,-0.09,0.13,-0.18,26.73
23058188,1965,1,216039,258501,-2.60,-1.59,9.06,0.07,-0.17,0.04,26.73
23098171,1927,1,216024,258378,-1.76,-1.70,8.95,-0.22,-0.12,-0.19,26.73
23138206,1881,1,215427,254149,-2.55,-1.65,9.47,0.00,0.16,-0.04,26.73
23178196,1948,1,213541,250543,-2.21,-2.18,9.50,0.01,-0.11,0.13,26.73
23218171,1890,1,212816,249597,-2.06,-2.75,10.19,0.11,0.08,-0.01,26.73
23258171,1849,1,213286,250592,-2.97,-2.15,9.79,0.01,-0.02,0.19,26.73
23298171,1901,1,213094,250805,-2.41,-2.56,10.17,0.00,0.13,-0.19,26.73
23338171,1962,1,214132,253037,-2.12,-1.86,9.44,-0.03,-0.03,0.07,26.73
23378187,1942,1,214412,254157,-2.09,-2.28,9.55,-0.06,-0.04,-0.20,26.73
23418205,1941,1,215661,256540,-3.16,-1.14,9.26,-0.09,-0.04,0.10,26.73
23458187,1875,1,215429,256532,-2.10,-2.03,9.22,-0.17,0.03,-0.19,26.73
23498876,1909,1,215923,256944,-2.65,-1.07,8.83,-0.01,0.00,0.13,26.53
23537171,1888,1,215450,256890,-2.50,-2.33,9.28,0.09,0.01,-0.01,26.53
23577171,1930,1,215840,257541,-2.64,-1.68,9.26,0.06,-0.03,0.14,26.53
23617171,1906,1,215668,257705,-1.86,-2.47,9.41,0.02,-0.03,-0.02,26.53
23657189,1907,1,215905,257734,-2.13,-1.69,9.32,0.00,-0.08,-0.04,26.53
23697187,1899,1,215933,258265,-2.89,-1.93,9.37,0.07,-0.00,0.04,26.53
23737171,1892,1,216184,258604,-2.70,-1.62,9.66,0.01,-0.02,0.07,26.53
23777171,1879,1,215949,256873,-2.71,-1.77,9.93,0.03,0.06,0.02,26.53
23817159,1948,1,214644,251835,-2.48,-1.60,9.38,0.11,-0.05,-0.05,26.53
23857187,1907,1,213460,251220,-1.56,-1.96,9.26,-0.08,-0.06,-0.21,26.53
23897205,1943,1,213529,251308,-2.37,-1.57,9.73,0.10,0.10,-0.00,26.53
23937171,1808,1,213649,251536,-2.84,-1.69,10.81,0.28,0.06,0.16,26.53
23977159,1823,1,214192,252748,-3.01,-1.37,10.39,0.12,0.01,0.10,26.53
24017159,1904,1,214738,254953,-3.27,-1.00,10.01,-0.09,0.14,-0.09,26.53
24057188,2022,1,215735,257032,-3.12,-0.84,9.36,-0.08,-0.07,-0.02,26.53
24097205,2010,1,215828,257470,-1.92,-1.54,9.19,-0.09,-0.07,-0.17,26.53
24137205,2019,1,216293,258282,-2.79,-0.77,9.14,0.14,-0.03,0.07,26.53
24177171,1991,1,216397,258894,-1.84,-1.17,9.08,-0.23,-0.16,-0.11,26.53
24217205,1968,1,216783,260031,-2.29,-1.26,8.93,-0.24,0.12,0.00,26.53
24257171,1931,1,217077,260030,-2.52,-1.19,8.71,-0.10,-0.20,-0.06,26.53
24297205,1968,1,216747,259741,-2.11,-1.67,9.05,-0.01,-0.08,-0.04,26.53
24337205,1955,1,216968,259846,-3.18,-1.27,9.62,0.11,0.08,0.27,26.53
24377159,1917,1,216924,260040,-2.66,-2.18,9.95,0.29,0.06,0.28,26.53
24417159,1920,1,217207,259791,-3.06,-1.21,10.17,-0.06,-0.05,0.04,26.53
24457187,1959,1,216211,255853,-2.54,-1.59,9.99,0.06,0.19,-0.13,26.53
24497171,1966,1,215306,254160,-2.69,-0.53,9.85,0.05,-0.10,-0.02,26.53
24537873,1904,1,214917,254606,-2.49,-1.27,10.49,0.08,0.02,0.06,26.35
24576160,1938,1,215440,256055,-2.49,-0.87,9.40,-0.31,-0.21,0.00,26.35
24616240,1968,1,215836,257721,-2.35,-1.60,9.65,-0.40,0.09,-0.15,26.35
24656186,1998,1,216202,258544,-2.48,-1.20,9.11,-0.12,-0.16,-0.06,26.35
24696205,1990,1,215997,258851,-1.40,-2.04,8.73,0.01,-0.19,-0.08,26.35
24736186,1999,1,216248,258885,-1.85,-1.56,8.90,0.11,0.01,0.06,26.35
24776160,1953,1,216208,259543,-1.75,-2.07,9.46,-0.14,-0.05,0.00,26.35
24816226,1957,1,216640,259557,-2.90,-1.08,9.28,-0.04,0.16,-0.06,26.35
24856188,1968,1,216545,259917,-2.04,-1.42,9.16,-0.03,-0.16,-0.05,26.35
24896206,1961,1,216563,259635,-1.86,-1.15,9.42,0.01,0.11,-0.12,26.35
24936171,1973,1,216638,259934,-2.18,-1.08,9.39,-0.07,-0.07,0.06,26.35
24976187,1936,1,216523,259719,-2.29,-1.81,9.91,-0.19,-0.01,-0.07,26.35
25016205,1943,1,216585,260540,-2.62,-1.35,8.82,-0.32,-0.18,0.06,26.35
25056187,1751,1,216421,259192,-1.21,-1.98,7.91,-0.38,-0.18,-0.19,26.35
25096204,1818,1,215225,255241,-2.03,-1.91,8.68,-0.21,-0.11,-0.02,26.35
25136205,1833,1,213656,252528,-1.71,-2.27,9.09,0.03,-0.09,-0.06,26.35
25176188,1882,1,213085,252009,-1.88,-2.70,10.06,0.24,0.11,0.11,26.35
25216160,1808,1,213711,254007,-3.42,-2.47,10.61,0.19,0.30,0.21,26.35
25256160,1887,1,214395,255022,-2.61,-2.37,10.90,-0.13,0.22,-0.22,26.35
25296187,1883,1,214929,256383,-2.36,-1.67,10.00,-0.11,-0.05,-0.05,26.35
25336204,1923,1,214758,256177,-2.70,-2.17,10.69,0.03,0.05,-0.16,26.35
25376171,1897,1,215231,257217,-2.72,-1.93,10.28,-0.01,-0.04,0.18,26.35
25416188,1875,1,215061,256645,-2.38,-2.46,10.76,-0.10,0.13,-0.14,26.35
25456186,1874,1,215278,257642,-3.10,-2.02,10.02,-0.14,-0.04,0.21,26.35
25496188,1919,1,215110,257035,-2.06,-2.68,9.87,-0.12,-0.07,-0.18,26.35
25536205,1966,1,215145,257338,-2.79,-1.99,9.40,0.01,0.01,0.14,26.35
25576845,1959,1,215121,257698,-2.54,-2.56,10.13,-0.03,0.05,-0.11,26.65
25617186,1977,1,215689,259060,-2.76,-2.03,9.33,0.02,0.03,0.09,26.65
25657159,1914,1,215824,258848,-1.65,-2.30,8.79,-0.12,-0.13,-0.18,26.65
25697205,1882,1,215064,254828,-2.28,-1.58,9.39,0.02,0.02,-0.09,26.65
25737171,1904,1,213720,253692,-2.07,-2.09,8.85,0.03,-0.07,0.03,26.65
25777165,1895,1,214108,254849,-1.58,-1.96,9.03,-0.08,-0.10,-0.08,26.65
25817204,1899,1,214325,255965,-1.48,-2.13,8.62,-0.18,-0.10,-0.04,26.65
25857205,1910,1,214397,255655,-1.71,-2.10,9.07,0.12,-0.01,-0.06,26.65
25897187,1919,1,214550,256568,-2.42,-2.12,9.65,0.20,-0.02,0.09,26.65
25935165,1968,1,215004,258020,-2.39,-2.07,9.55,0.07,0.18,-0.04,26.65
25975171,1936,1,215962,259110,-2.22,-1.33,9.27,-0.06,0.10,0.00,26.65
26015165,1937,1,215924,258927,-1.86,-1.63,9.40,-0.03,0.03,-0.17,26.65
26056208,1932,1,216037,259253,-2.42,-1.13,9.14,-0.03,-0.06,0.05,26.65
26096186,1891,1,215879,258893,-1.90,-2.09,9.82,0.07,0.05,-0.02,26.65
26136171,1897,1,216127,259743,-2.71,-1.33,9.48,0.05,0.07,0.19,26.65
26176158,1891,1,216301,260221,-1.81,-2.32,9.22,-0.13,0.08,-0.07,26.65
26216188,1887,1,216456,259976,-2.24,-1.39,9.10,-0.07,-0.00,-0.04,26.65
26256212,1845,1,215903,259130,-1.88,-2.10,9.24,0.18,0.01,0.04,26.65
26296160,1850,1,215348,254364,-2.88,-1.69,9.83,0.41,0.19,0.25,26.65
26336160,1795,1,213892,252234,-3.46,-1.73,10.40,0.14,0.31,0.23,26.65
26376160,1808,1,214075,253671,-3.08,-1.47,9.98,0.13,0.08,0.05,26.65
26416160,1865,1,215100,256053,-2.83,-0.71,8.35,-0.07,-0.31,-0.16,26.65
26456249,1965,1,215263,256574,-1.49,-1.02,8.55,-0.06,-0.07,-0.31,26.65
26496204,1978,1,215765,258916,-3.18,-0.24,8.85,-0.06,-0.04,0.14,26.65
26536187,1871,1,216192,259059,-1.53,-0.81,7.58,-0.44,-0.29,-0.30,26.65
26576205,1819,1,216146,259875,-3.20,-1.10,9.32,-0.35,0.17,-0.19,26.65
26616873,1831,1,216317,259650,-2.41,-0.97,8.03,0.10,-0.04,0.05,26.59
26655165,1775,1,216102,259705,-2.35,-1.28,8.49,0.18,-0.14,-0.10,26.59
26695187,1776,1,216130,259931,-2.44,-0.94,9.41,-0.16,0.03,-0.04,26.59
26735186,1779,1,216307,260189,-2.89,-1.11,9.80,-0.06,0.20,-0.15,26.59
26775187,1831,1,216224,259940,-3.26,-0.85,9.90,0.04,-0.09,0.08,26.59
26815165,1664,1,216259,259683,-3.07,-1.32,11.06,-0.01,0.10,0.07,26.59
26855171,1535,1,216472,259431,-3.52,-1.45,11.03,0.31,0.13,0.46,26.59
26895160,1633,1,215826,256113,-3.85,-1.62,12.06,0.16,0.22,0.04,26.59
26935159,1755,1,213923,252280,-2.79,-1.82,10.41,-0.21,-0.16,0.10,26.59
26975187,1835,1,213661,251740,-4.19,-1.52,11.41,-0.29,-0.03,-0.11,26.59
27015204,1920,1,213371,252143,-2.49,-2.05,9.31,0.33,-0.22,0.37,26.59
27055171,1968,1,213637,251492,-2.68,-1.15,9.32,-0.23,-0.31,-0.09,26.59
27095205,1947,1,213293,253456,-2.64,-2.16,9.49,-0.03,0.13,-0.02,26.59
27135186,1965,1,214257,253445,-2.71,-1.03,9.25,-0.07,-0.17,0.09,26.59
27175192,2000,1,213654,254492,-2.34,-2.08,9.06,-0.10,-0.26,-0.14,26.59
27215205,2036,1,213980,254475,-2.06,-0.74,8.49,-0.15,-0.25,-0.09,26.59
27255204,2065,1,213962,255234,-1.90,-1.59,8.79,-0.24,-0.07,-0.04,26.59
27295204,2046,1,214038,255265,-2.04,-1.46,8.93,-0.15,-0.04,0.00,26.59
27335187,2045,1,213916,255298,-2.60,-1.79,9.72,0.03,-0.02,0.01,26.59
27375165,2064,1,213851,255441,-1.98,-1.85,9.62,0.08,0.02,-0.06,26.59
27415171,2095,1,214050,256568,-2.34,-1.74,10.06,-0.02,0.03,-0.11,26.59
27455186,2057,1,214635,257047,-2.23,-1.47,9.81,-0.07,0.01,-0.07,26.59
27495187,2027,1,213837,252303,-1.71,-1.64,9.49,-0.10,-0.04,-0.11,26.59
27535205,2046,1,212511,250716,-2.16,-1.16,9.31,-0.09,0.03,-0.03,26.59
27575187,2006,1,212502,251664,-2.25,-1.72,9.54,-0.07,0.06,-0.04,26.59
27615186,2055,1,213128,252861,-2.51,-1.31,9.32,-0.08,-0.04,-0.01,26.59
27655889,2041,1,213252,253669,-2.11,-1.71,9.29,-0.14,0.01,0.01,26.49
27694165,2065,1,213724,254418,-2.36,-1.43,8.74,-0.05,0.02,0.12,26.49
27734171,1979,1,213814,254485,-2.39,-1.79,8.98,0.02,-0.05,0.14,26.49
27774165,1994,1,213749,253796,-2.37,-1.71,8.95,0.04,0.02,0.10,26.49
27814160,1949,1,213430,253606,-2.67,-1.89,9.33,0.06,0.12,0.10,26.49
27854160,1943,1,213472,253568,-2.79,-1.76,9.81,0.07,0.08,0.04,26.49
27894171,1875,1,213402,253708,-2.62,-1.85,9.96,0.12,0.11,0.07,26.49
27934159,1915,1,213856,254610,-3.30,-1.28,9.92,0.08,0.09,0.12,26.49
27974160,1907,1,214309,255688,-3.24,-1.60,10.30,-0.02,0.15,0.00,26.49
28014171,1938,1,214805,256567,-3.37,-1.15,9.81,0.00,-0.03,0.01,26.49
28054171,1918,1,214746,254401,-2.97,-1.40,9.83,0.01,-0.07,-0.07,26.49
28094204,1949,1,213271,251158,-3.01,-1.14,9.52,-0.06,-0.04,-0.08,26.49
28134204,1968,1,212940,251434,-2.76,-1.23,9.62,-0.09,-0.07,-0.09,26.49
28174204,1953,1,213227,252138,-2.59,-1.12,9.52,-0.07,-0.04,-0.11,26.49
28214204,1938,1,213465,253067,-2.34,-1.21,9.19,-0.05,-0.13,-0.02,26.49
28254205,1936,1,214001,254691,-2.59,-1.12,9.10,-0.16,-0.09,-0.09,26.49
28294227,1950,1,214454,256127,-2.25,-1.29,8.84,-0.19,-0.07,-0.08,26.49
28334205,1936,1,214888,256895,-2.54,-1.11,8.81,-0.11,-0.03,-0.03,26.49
28374204,1932,1,214944,257027,-2.12,-1.49,8.92,-0.03,-0.02,-0.03,26.49
28414205,1939,1,214930,256735,-2.22,-1.34,9.18,0.06,0.02,0.03,26.49
28454159,1936,1,214857,256813,-2.27,-1.31,9.24,0.02,-0.06,0.08,26.49
28494171,1904,1,215005,257408,-2.82,-1.38,9.64,-0.13,0.04,-0.05,26.49
28534188,1840,1,215288,257866,-2.72,-1.31,9.22,-0.06,-0.03,0.09,26.49
28574186,1872,1,215193,257634,-2.52,-1.66,9.67,-0.01,-0.01,0.03,26.49
28614188,1935,1,215224,257349,-3.10,-1.53,9.74,0.08,0.01,0.25,26.49
28654160,1929,1,214263,251804,-2.38,-1.66,9.37,-0.18,-0.09,-0.08,26.49
28694890,1865,1,212616,250017,-2.60,-1.69,9.78,-0.09,0.13,-0.01,26.61
28735186,1838,1,212622,249917,-3.27,-1.39,9.63,0.14,-0.01,0.12,26.61
28775171,1871,1,212515,250324,-2.62,-1.96,9.75,0.02,-0.08,-0.01,26.61
28815185,1856,1,213024,251350,-2.82,-1.19,9.55,-0.13,0.07,0.01,26.61
28855171,1891,1,213288,252202,-2.83,-1.33,9.42,-0.02,-0.01,-0.10,26.61
28895205,1915,1,213509,252885,-2.40,-1.27,9.45,-0.02,-0.15,-0.04,26.61
28935204,1906,1,213811,253376,-2.47,-1.28,9.53,-0.06,0.02,0.02,26.61
28975165,1914,1,213826,253432,-2.50,-1.40,9.65,-0.10,0.04,0.05,26.61
29015171,1936,1,213779,253832,-2.95,-1.67,9.36,-0.07,-0.03,0.02,26.61
29055186,1929,1,213966,254609,-2.41,-1.71,9.42,-0.03,-0.04,0.01,26.61
29095188,1931,1,214276,255748,-2.33,-1.64,9.30,-0.04,0.01,-0.03,26.61
29135186,1895,1,214774,256809,-2.55,-1.42,9.13,0.05,0.05,0.00,26.61
29175159,1842,1,214969,257352,-2.29,-1.42,9.39,-0.05,-0.03,-0.03,26.61
29215204,1877,1,215116,255504,-2.44,-1.00,9.17,-0.01,-0.01,0.05,26.61
29255187,1875,1,213358,250838,-2.72,-1.38,9.60,-0.02,0.03,0.02,26.61
29295171,1923,1,212677,250453,-2.77,-1.44,9.37,-0.02,-0.05,0.12,26.61
29335188,1894,1,212684,250705,-2.41,-1.72,9.24,-0.10,-0.05,-0.01,26.61
29375205,1901,1,212852,251054,-2.84,-1.37,9.23,0.06,0.05,0.12,26.61
29413159,1948,1,212876,251568,-2.46,-1.75,9.26,-0.02,-0.09,-0.01,26.61
29453205,1930,1,213463,253195,-2.58,-1.49,9.39,0.04,0.05,0.08,26.61
29493159,1904,1,213690,253014,-2.83,-1.37,9.78,0.01,0.00,-0.03,26.61
29533175,1897,1,213662,253439,-2.99,-1.35,9.59,0.06,0.04,0.14,26.61
29573160,1959,1,213904,253303,-2.98,-1.41,9.75,-0.07,0.01,-0.06,26.61
29613186,1953,1,213835,253896,-2.90,-1.36,9.94,0.01,-0.00,0.09,26.61
29653171,1981,1,214207,254177,-3.16,-0.98,9.63,-0.00,-0.03,-0.02,26.61
29693204,1957,1,214055,254654,-2.58,-1.51,9.87,-0.08,-0.05,-0.01,26.61
29733907,1953,1,214208,254736,-2.91,-1.24,9.97,-0.02,0.04,0.03,26.23
29774165,1965,1,214329,255349,-2.92,-1.39,9.83,0.03,-0.07,0.10,26.23
29814171,1918,1,214595,254199,-2.89,-1.40,9.69,-0.09,-0.03,-0.05,26.23
29854204,1907,1,213351,250798,-2.57,-1.21,9.39,-0.25,-0.08,-0.08,26.23
29894204,1914,1,212764,250321,-2.18,-1.49,8.64,-0.10,-0.06,-0.07,26.23
29934204,1922,1,212899,251376,-2.20,-1.20,8.48,-0.16,-0.12,-0.06,26.23
29974204,1907,1,213086,251436,-1.66,-1.52,8.81,-0.11,0.03,-0.07,26.23
30014185,1899,1,213118,251710,-2.38,-1.30,9.15,0.00,0.02,0.09,26.23
30054159,1904,1,213215,252471,-2.33,-1.87,9.23,0.00,-0.09,0.03,26.23
30094165,1921,1,213525,253406,-2.57,-1.49,9.17,-0.09,-0.04,0.03,26.23
30134188,1911,1,213870,254868,-2.19,-1.82,9.02,-0.07,0.05,0.00,26.23
30174165,1927,1,214486,256463,-2.43,-1.59,9.10,0.04,-0.05,0.03,26.23
30214171,1922,1,214658,256982,-2.27,-1.88,9.37,-0.00,-0.07,0.01,26.23
30254186,1927,1,214591,256125,-2.27,-1.56,9.69,0.01,0.06,-0.02,26.23
30294171,1903,1,214383,256501,-2.91,-1.64,9.82,-0.06,0.04,0.05,26.23
30334171,1907,1,214809,257049,-2.85,-1.59,9.76,-0.09,0.01,-0.04,26.23
30374187,1915,1,214843,257227,-2.69,-1.67,9.50,-0.12,-0.08,0.05,26.23
30414186,1920,1,214426,252784,-2.53,-1.74,9.36,-0.10,-0.01,-0.05,26.23
30454204,1939,1,212526,249970,-2.81,-1.90,9.42,-0.01,0.01,0.08,26.23
30494171,1924,1,212288,249382,-2.54,-2.07,9.72,0.00,0.00,-0.05,26.23
30534171,1937,1,212259,249855,-2.99,-1.81,9.93,-0.00,0.08,0.06,26.23
30574171,1899,1,212518,249922,-2.70,-1.80,9.57,-0.06,-0.03,-0.06,26.23
30614204,1887,1,212538,250925,-2.78,-1.74,9.82,-0.06,-0.02,-0.03,26.23
30654205,1939,1,213028,251617,-2.72,-1.66,9.60,0.01,0.03,0.05,26.23
30694159,1890,1,212927,251595,-2.47,-1.83,9.38,-0.01,-0.03,-0.01,26.23
30734891,1936,1,212905,251298,-2.46,-1.72,9.51,-0.06,-0.01,-0.04,26.43
30773204,1890,1,212648,250974,-2.85,-1.81,9.91,0.05,0.05,0.02,26.43
30813160,1963,1,212683,251330,-2.61,-1.84,9.27,0.01,-0.07,0.07,26.43
30853171,1883,1,212861,252092,-2.59,-1.72,9.55,-0.10,0.03,-0.09,26.43
30893186,1924,1,213090,252730,-2.81,-1.63,9.49,0.06,0.01,0.08,26.43
30933160,1922,1,213206,253183,-2.39,-1.80,9.25,0.04,-0.11,-0.04,26.43
30973186,1920,1,213294,252791,-2.35,-1.50,9.41,-0.03,-0.02,-0.02,26.43
31013204,1922,1,212267,248296,-2.83,-1.68,9.93,0.08,0.07,0.04,26.43
31053160,1922,1,211320,247483,-3.14,-1.54,9.93,0.15,0.01,0.19,26.43
31093159,1914,1,211178,247176,-2.56,-1.85,10.06,-0.01,0.03,-0.07,26.43
31133186,1933,1,211347,247488,-3.25,-1.18,9.55,-0.00,0.01,0.10,26.43
31173171,1936,1,211206,247262,-2.31,-1.72,9.38,-0.01,-0.06,-0.13,26.43
31213205,1874,1,211325,248036,-2.61,-1.09,9.24,0.05,-0.08,0.05,26.43
31253171,1863,1,211574,248366,-2.39,-1.44,9.42,-0.01,-0.01,-0.09,26.43
31293205,1867,1,211880,249263,-2.83,-1.08,9.47,-0.01,0.04,0.06,26.43
31333171,1868,1,212298,249673,-2.52,-1.29,9.22,-0.08,-0.08,-0.05,26.43
31373205,1865,1,212620,250835,-2.72,-0.80,8.88,-0.07,-0.09,-0.01,26.43
31413204,1879,1,212946,251780,-2.10,-1.15,8.27,-0.16,-0.11,-0.07,26.43
31453205,1885,1,213246,252767,-2.07,-1.26,8.49,-0.11,0.06,-0.05,26.43
31493187,1897,1,213374,252704,-2.40,-1.40,8.82,0.04,0.04,-0.02,26.43
31533171,1956,1,213257,252653,-2.33,-1.38,9.16,0.02,-0.03,-0.01,26.43
31573193,1910,1,213262,252582,-2.95,-1.19,9.84,-0.01,0.23,-0.00,26.43
31613186,1903,1,213368,252579,-3.37,-0.94,9.86,0.02,0.03,0.05,26.43
31653160,1910,1,212834,249016,-2.98,-1.39,10.06,-0.09,0.07,0.01,26.43
31693165,1926,1,211524,247319,-3.41,-1.22,10.16,-0.00,0.05,0.07,26.43
31733171,1950,1,211351,247297,-3.34,-1.37,9.82,0.04,0.00,0.04,26.43
31773842,1968,1,211424,247218,-2.90,-1.30,9.72,-0.03,0.03,-0.02,26.37
31812187,1984,1,211345,247254,-3.19,-1.24,9.95,-0.01,0.02,0.01,26.37
31852165,1968,1,211525,247772,-3.50,-1.06,9.60,-0.01,-0.04,0.07,26.37
31892187,1983,1,211778,248588,-3.08,-1.33,9.29,-0.19,-0.10,-0.03,26.37
31932205,1984,1,211917,248757,-2.87,-1.28,9.41,0.01,-0.04,0.06,26.37
31972171,1947,1,211789,248825,-2.93,-1.32,9.20,0.08,-0.09,0.00,26.37
32012171,1941,1,212022,249381,-2.40,-1.34,9.23,-0.02,-0.06,-0.03,26.37
32052204,1936,1,212217,250191,-2.52,-1.33,9.21,-0.12,0.00,-0.05,26.37
32092186,1897,1,212667,251075,-2.74,-0.85,8.66,-0.09,-0.11,-0.05,26.37
32132204,1898,1,213085,252430,-2.65,-1.04,8.90,-0.13,-0.06,-0.04,26.37
32172205,1886,1,213498,252940,-2.17,-0.99,8.66,-0.08,-0.03,-0.09,26.37
32212204,1872,1,213631,253804,-2.33,-1.16,8.92,0.01,-0.01,0.00,26.37
32252171,1905,1,214021,254189,-2.11,-1.12,8.70,-0.11,-0.05,-0.08,26.37
32292204,1904,1,213946,254652,-2.24,-1.59,9.66,-0.04,0.06,0.01,26.37
32332171,1892,1,214136,253630,-2.85,-0.95,9.04,-0.07,-0.09,0.07,26.37
32372187,1910,1,212850,249287,-2.91,-1.70,9.65,-0.07,0.07,0.07,26.37
32412171,1896,1,211860,247761,-3.16,-1.09,9.47,-0.11,-0.02,0.01,26.37
32452187,1906,1,211284,247489,-2.62,-1.74,9.49,0.07,0.05,0.04,26.37
32492160,1948,1,211498,247267,-3.19,-1.11,10.07,0.03,0.05,0.11,26.37
32532159,1891,1,211123,247359,-2.85,-1.96,10.49,-0.03,0.20,0.09,26.37
32572171,1878,1,211521,247639,-3.78,-1.00,9.86,-0.03,0.00,0.10,26.37
32612171,1847,1,211383,248133,-3.23,-1.86,10.25,-0.05,0.03,0.06,26.37
32652171,1888,1,211664,248082,-3.25,-1.11,9.68,0.08,-0.04,0.13,26.37
32692171,1839,1,211399,248328,-3.21,-1.84,10.15,0.02,-0.04,0.04,26.37
32732171,1870,1,211823,249129,-3.27,-1.44,9.60,-0.08,-0.07,-0.02,26.37
32772204,1920,1,212039,250428,-2.71,-1.94,9.60,-0.15,-0.08,-0.19,26.37
32812891,1892,1,212735,251551,-2.82,-1.06,9.19,0.01,-0.03,-0.04,26.17
32853187,1901,1,213051,252353,-2.91,-1.13,9.13,0.01,-0.03,-0.05,26.17
32891186,1904,1,213382,253365,-2.60,-0.85,9.01,-0.07,-0.01,0.01,26.17
32931187,1907,1,213683,254352,-2.71,-1.10,8.90,-0.19,-0.13,-0.06,26.17
32971204,1920,1,214060,255276,-2.32,-1.45,8.71,-0.12,-0.06,-0.08,26.17
33011204,1909,1,214115,253469,-1.92,-1.62,8.68,0.03,-0.01,-0.06,26.17
33051186,1959,1,212537,249195,-2.39,-1.29,9.05,0.00,0.03,0.04,26.17
33091160,1915,1,212128,249106,-2.62,-1.34,9.20,-0.12,0.05,-0.04,26.17
33131186,1935,1,212345,249575,-2.75,-1.09,9.26,-0.10,0.01,-0.03,26.17
33171188,1893,1,212179,249709,-2.42,-1.53,9.01,-0.00,-0.06,0.00,26.17
33211186,1904,1,212316,250436,-2.41,-1.37,9.04,-0.06,-0.05,0.03,26.17
33251188,1904,1,212550,251102,-2.57,-1.73,9.60,-0.05,0.09,0.09,26.17
33291165,1883,1,212477,250591,-2.81,-1.63,9.29,-0.04,0.02,0.07,26.17
33331171,1852,1,212273,250629,-3.07,-1.75,9.66,-0.01,0.09,0.08,26.17
33371165,1867,1,212442,251244,-3.31,-1.60,9.83,0.03,0.07,0.14,26.17
33411160,1920,1,212502,251992,-2.72,-1.93,9.67,0.02,-0.02,0.04,26.17
33451171,1913,1,213023,253275,-3.33,-1.39,9.74,0.01,0.01,0.04,26.17
33491160,1908,1,213173,253617,-2.70,-1.94,9.79,0.01,-0.03,-0.04,26.17
33531186,1920,1,213541,254651,-3.38,-1.31,9.81,0.00,0.02,0.05,26.17
33571159,1954,1,213856,255642,-3.04,-1.65,9.89,-0.09,-0.00,-0.06,26.17
33611204,1997,1,214345,256904,-3.07,-1.28,9.28,-0.07,-0.11,-0.01,26.17
33651204,2028,1,214549,255941,-2.71,-1.39,9.06,-0.15,-0.13,-0.12,26.17
33691205,2018,1,212786,250063,-2.22,-1.61,8.80,-0.07,-0.05,-0.10,26.17
33731204,1987,1,211602,248861,-2.21,-1.45,8.92,-0.00,-0.06,-0.06,26.17
33771205,1978,1,211558,249537,-2.62,-1.60,9.39,-0.02,-0.03,0.01,26.17
33811187,1937,1,211917,250210,-2.48,-1.44,9.08,-0.15,-0.10,-0.10,26.17
33851891,1927,1,212229,251434,-2.50,-1.45,9.03,-0.20,-0.09,-0.14,26.29
33892204,1918,1,212517,251893,-1.87,-1.82,8.62,-0.09,-0.03,-0.11,26.29
33932205,1926,1,212836,253023,-2.42,-1.49,9.08,-0.03,-0.01,-0.01,26.29
33972204,1936,1,212904,252638,-1.91,-2.14,9.36,-0.01,0.01,-0.06,26.29
34012186,1904,1,212850,252784,-2.93,-1.38,9.49,0.01,0.00,0.09,26.29
34052159,1914,1,212755,252884,-2.56,-2.03,9.70,-0.07,0.01,-0.02,26.29
34092186,1925,1,212919,253310,-2.71,-1.61,9.22,-0.09,-0.03,0.05,26.29
34132187,1907,1,212836,253024,-2.57,-2.08,9.84,-0.04,0.04,-0.01,26.29
34172186,1879,1,212886,253353,-2.91,-1.91,9.45,0.06,-0.02,0.14,26.29
34212171,1894,1,212653,253180,-2.57,-2.22,9.93,-0.05,0.06,-0.11,26.29
34252186,1877,1,212849,253994,-3.10,-1.83,9.78,0.03,0.05,0.11,26.29
34292159,1886,1,212809,251423,-2.92,-2.04,9.84,-0.12,-0.04,-0.08,26.29
34332205,1879,1,211224,247990,-3.06,-1.67,9.60,-0.04,-0.03,0.05,26.29
34372187,1892,1,210597,247805,-2.59,-2.10,9.26,-0.06,-0.07,-0.10,26.29
34412205,1921,1,210929,248631,-2.37,-1.63,8.73,-0.05,-0.10,-0.08,26.29
34452204,1889,1,210907,248716,-2.17,-2.04,9.31,-0.05,0.02,-0.17,26.29
34492186,1934,1,211250,249599,-2.60,-1.47,9.09,0.03,-0.02,0.06,26.29
34532171,1875,1,211539,250597,-2.43,-1.94,9.62,-0.15,-0.04,-0.13,26.29
34570206,1953,1,212133,251730,-2.88,-1.35,9.50,-0.00,0.04,0.05,26.29
34610171,1965,1,212179,251747,-2.30,-1.87,9.10,-0.03,-0.05,-0.05,26.29
34650209,1966,1,212164,252070,-2.33,-1.80,9.30,-0.02,0.02,-0.03,26.29
34690187,1933,1,212383,252150,-2.47,-1.74,9.44,-0.02,0.02,-0.03,26.29
34730186,1946,1,212596,252991,-2.64,-1.80,9.47,0.06,0.02,0.08,26.29
34770160,1936,1,212918,253375,-2.70,-1.56,9.48,-0.09,-0.03,-0.05,26.29
34810204,1954,1,213254,254697,-3.33,-1.47,9.67,0.13,0.05,0.15,26.29
34850171,1865,1,213703,255272,-2.88,-1.25,9.19,-0.15,-0.10,-0.09,26.29
34890891,1838,1,213688,256060,-2.81,-1.61,9.69,0.06,0.18,0.03,26.35
34931160,1872,1,213863,254266,-2.72,-1.49,9.23,0.11,-0.08,0.05,26.35
34971165,1865,1,211886,248980,-2.75,-1.88,9.84,0.03,0.01,0.09,26.35
35011160,1888,1,211240,248341,-3.43,-1.36,9.99,-0.10,0.10,0.03,26.35
35051171,1855,1,211112,248877,-3.03,-1.71,9.63,0.13,-0.06,0.05,26.35
35091171,1903,1,211369,249446,-2.87,-1.26,9.54,-0.04,-0.02,-0.12,26.35
35131205,1906,1,211711,250412,-2.74,-1.21,9.58,-0.01,0.03,0.03,26.35
35171171,1877,1,211901,250852,-2.43,-1.54,9.56,-0.09,0.05,-0.10,26.35
35211186,1917,1,212241,252064,-3.25,-1.23,9.93,0.04,0.03,0.06,26.35
35251160,1936,1,212520,252839,-2.59,-1.61,9.42,-0.06,-0.04,-0.01,26.35
35291205,1905,1,212930,253721,-2.97,-0.97,9.27,-0.19,-0.02,-0.05,26.35
35331204,1950,1,212979,254171,-3.10,-1.60,9.82,-0.01,0.05,-0.00,26.35
35371186,1909,1,213214,254245,-2.30,-1.45,8.87,0.13,-0.11,0.03,26.35
35411171,1869,1,213229,255158,-2.51,-1.36,9.56,-0.06,0.04,-0.06,26.35
35451186,1858,1,213886,256352,-2.58,-1.13,8.78,-0.13,0.01,-0.01,26.35
35491188,1886,1,214240,257504,-2.60,-1.08,8.63,-0.23,-0.11,-0.13,26.35
35531205,1886,1,214714,257566,-2.46,-0.91,8.35,-0.08,-0.06,-0.04,26.35
35571204,1911,1,214712,257974,-2.64,-1.42,9.04,0.10,0.04,0.14,26.35
35611160,1957,1,214566,254876,-2.26,-1.55,8.94,0.04,-0.03,0.04,26.35
35651171,1936,1,212162,249552,-2.51,-1.59,9.29,-0.02,-0.02,0.02,26.35
35691186,1915,1,211330,248664,-2.88,-1.43,9.44,-0.07,0.02,-0.04,26.35
35731188,1942,1,211276,248962,-3.33,-1.46,9.92,0.04,0.10,0.13,26.35
35771160,1950,1,211237,248457,-3.04,-1.67,9.93,0.06,0.07,0.07,26.35
35811159,1878,1,211087,248565,-3.30,-1.57,10.27,0.05,0.04,0.07,26.35
35851159,1887,1,211140,248988,-3.61,-1.63,10.74,0.03,0.12,0.01,26.35
35891845,1834,1,211280,249161,-3.62,-1.73,10.59,0.06,-0.00,0.06,26.53
35930171,1863,1,211476,249871,-3.84,-1.57,10.55,-0.13,-0.02,0.00,26.53
35970188,1890,1,211793,250528,-3.07,-1.52,9.48,-0.19,-0.11,-0.08,26.53
36010205,1917,1,211909,251413,-2.92,-1.53,9.17,-0.14,-0.22,-0.09,26.53
36050204,1927,1,212264,252973,-2.27,-1.71,8.49,-0.15,-0.15,-0.15,26.53
36091204,1897,1,212740,254125,-2.13,-1.71,8.69,-0.10,-0.13,-0.14,26.53
36131204,1946,1,213072,254949,-2.09,-1.46,8.71,-0.02,-0.12,-0.04,26.53
36169205,1947,1,213414,255563,-2.73,-1.45,9.25,0.09,0.00,0.04,26.53
36209160,1959,1,213508,255973,-2.34,-1.50,9.19,-0.06,-0.11,0.02,26.53
36249186,1925,1,213191,251616,-2.46,-1.48,9.31,-0.12,0.07,-0.09,26.53
36289226,1935,1,210993,248279,-2.31,-1.63,9.17,-0.09,-0.06,-0.04,26.53
36329205,1938,1,210542,247851,-2.21,-2.11,9.71,-0.05,0.01,-0.17,26.53
36369188,1936,1,210661,249154,-2.58,-1.96,9.51,-0.13,-0.03,0.03,26.53
36409186,1969,1,211168,249803,-2.38,-2.06,9.45,-0.22,0.07,-0.03,26.53
36449188,1941,1,211672,251614,-2.97,-1.81,9.25,-0.16,0.03,0.03,26.53
36489208,1923,1,212081,252816,-2.22,-2.20,8.89,-0.07,-0.04,-0.10,26.53
36529204,2007,1,212544,253721,-2.49,-1.69,9.03,-0.01,0.07,-0.03,26.53
36569186,1987,1,212486,253447,-2.15,-2.09,9.25,-0.07,0.07,-0.06,26.53
36609187,1948,1,212434,253800,-3.05,-1.78,9.44,-0.02,0.03,0.11,26.53
36649171,1925,1,212454,254206,-2.68,-2.20,9.46,-0.03,-0.02,0.05,26.53
36689188,1939,1,212658,254551,-2.99,-1.87,9.48,0.01,0.04,0.06,26.53
36729159,1862,1,212858,255330,-2.87,-2.15,9.56,0.02,0.01,0.02,26.53
36769160,1836,1,213001,255298,-2.45,-2.17,9.63,-0.03,0.08,-0.12,26.53
36809186,1867,1,212843,255501,-3.14,-2.04,10.02,0.06,0.07,0.09,26.53
36849159,1888,1,212957,254920,-2.88,-1.98,9.85,-0.04,-0.01,0.06,26.53
36889186,1775,1,211839,249374,-3.62,-2.09,10.30,-0.05,0.09,0.07,26.53
36929857,1840,1,210238,247396,-3.00,-1.89,9.66,-0.06,-0.02,-0.07,26.35
36970204,1872,1,210057,248137,-3.02,-2.05,9.68,0.07,-0.06,0.04,26.35
37010171,1849,1,210382,248265,-2.18,-2.10,9.11,-0.08,-0.11,-0.14,26.35
37050205,1827,1,210535,249267,-3.04,-1.88,9.59,0.04,0.03,0.08,26.35
37090160,1885,1,211144,250376,-2.69,-1.84,9.15,-0.18,-0.07,-0.09,26.35
37129205,1872,1,211813,252498,-2.90,-1.76,9.28,-0.10,-0.01,-0.03,26.35
37169204,1898,1,212273,253158,-2.07,-1.63,8.31,-0.12,-0.14,-0.13,26.35
37209205,1871,1,212288,253533,-2.55,-1.67,8.99,0.03,-0.03,-0.08,26.35
37249188,1869,1,212504,254190,-2.09,-1.87,8.75,0.06,-0.04,0.02,26.35
37289171,1910,1,212744,255222,-2.30,-2.03,9.09,-0.12,0.03,-0.05,26.35
37329187,1917,1,213258,256449,-2.58,-1.81,9.00,-0.12,-0.02,-0.00,26.35
37369204,1926,1,213602,256790,-2.22,-1.92,8.96,-0.02,-0.03,-0.08,26.35
37409204,1937,1,213570,257344,-2.35,-2.01,9.02,-0.04,-0.05,-0.06,26.35
37449204,1878,1,213530,257077,-1.87,-2.12,9.00,-0.13,-0.06,-0.17,26.35
37489204,1963,1,213382,257102,-2.85,-2.07,9.81,-0.02,0.01,0.05,26.35
37529171,1973,1,212558,251723,-2.29,-2.26,9.05,-0.01,-0.06,0.03,26.35
37569188,1953,1,210666,249938,-3.03,-2.21,9.75,-0.09,0.03,0.01,26.35
37609171,1920,1,210787,250371,-2.56,-2.22,9.55,-0.01,0.02,-0.02,26.35
37649188,1941,1,210903,251002,-3.01,-2.06,9.74,0.05,-0.02,0.02,26.35
37689165,2017,1,210946,251089,-2.16,-2.45,9.65,-0.07,-0.04,-0.07,26.35
37729204,2000,1,211320,252764,-3.14,-1.97,9.79,-0.10,-0.01,0.08,26.35
37769186,1923,1,212003,254531,-2.92,-2.40,9.70,-0.07,-0.04,0.07,26.35
37809187,1954,1,212634,255531,-2.72,-2.04,9.13,-0.04,-0.01,0.02,26.35
37849186,1989,1,212845,256772,-2.67,-2.35,9.34,-0.00,-0.01,0.01,26.35
37889187,2001,1,213557,257601,-2.41,-2.03,8.99,-0.00,-0.01,-0.04,26.35
37929907,1978,1,213627,258143,-2.08,-2.04,8.87,-0.11,-0.03,-0.12,26.41
37968204,1964,1,214150,258851,-2.39,-1.62,8.53,-0.17,0.05,-0.09,26.41
38008186,1968,1,214287,259522,-2.55,-2.19,9.24,-0.13,0.05,-0.10,26.41
38048188,1942,1,214758,259955,-2.60,-1.82,8.94,-0.02,-0.01,-0.05,26.41
38088204,1858,1,214879,260322,-2.17,-2.18,8.88,-0.00,-0.06,-0.07,26.41
38128239,1847,1,215079,259959,-1.87,-2.13,8.76,0.04,-0.09,-0.08,26.41
38168186,1889,1,214696,259272,-2.61,-2.06,9.11,-0.02,-0.02,0.07,26.41
38208188,1889,1,215040,259830,-2.52,-2.19,9.35,-0.06,0.07,-0.06,26.41
38248186,1867,1,215368,260704,-2.97,-1.88,9.40,0.04,-0.04,0.07,26.41
38288171,1861,1,215930,261418,-2.84,-2.34,9.72,0.04,0.05,0.01,26.41
38328160,1843,1,216288,262103,-2.80,-1.87,9.45,0.03,0.04,0.03,26.41
38368160,1844,1,216506,262143,-2.91,-2.18,9.98,0.04,0.01,0.02,26.41
38408160,1881,1,216768,262143,-3.43,-1.67,9.58,0.07,0.02,0.15,26.41
38448160,1842,1,216998,262143,-3.35,-2.01,10.27,-0.05,0.17,-0.06,26.41
38488186,1872,1,217112,262143,-2.72,-1.58,8.89,-0.07,-0.13,0.04,26.41
38528187,1872,1,217137,262143,-2.77,-1.92,9.28,-0.03,-0.02,-0.17,26.41
38568205,1869,1,217310,262143,-2.56,-1.54,8.70,0.11,-0.11,0.06,26.41
38608171,1891,1,217346,262143,-2.76,-2.08,9.94,-0.17,0.07,-0.13,26.41
38648186,1899,1,217348,262143,-3.25,-1.61,9.50,0.03,0.01,0.00,26.41
38688159,1881,1,217428,262143,-3.12,-1.77,9.34,0.08,-0.07,-0.04,26.41
38728186,1885,1,217346,262143,-2.40,-1.45,9.25,-0.07,-0.02,-0.02,26.41
38768204,1871,1,216926,261161,-3.26,-1.30,10.10,0.13,0.11,-0.03,26.41
38808171,1965,1,215778,259903,-1.99,-1.83,9.17,0.22,-0.18,0.08,26.41
38848171,1933,1,216228,260958,-3.53,-1.07,10.09,-0.26,0.11,-0.03,26.41
38888186,1953,1,216460,261649,-2.68,-1.81,9.15,-0.20,0.01,0.10,26.41
38928171,1954,1,216678,261328,-2.56,-1.35,8.91,-0.04,-0.09,-0.10,26.41
38968891,1904,1,216303,261951,-2.66,-1.95,9.27,0.08,-0.06,0.08,26.79
39009171,1920,1,216871,261938,-2.13,-1.55,9.00,0.06,0.08,-0.10,26.79
39049171,1925,1,216682,262143,-2.84,-1.74,9.85,-0.12,0.07,0.11,26.79
39089171,1891,1,216805,261938,-2.96,-1.72,9.70,-0.02,0.02,-0.08,26.79
39129186,1926,1,216842,262143,-3.51,-1.36,9.94,0.06,-0.02,0.16,26.79
39169171,1971,1,216882,262143,-2.53,-2.10,9.75,-0.05,0.03,-0.05,26.79
39209186,2000,1,216934,262143,-2.82,-1.15,9.23,-0.06,-0.02,-0.02,26.79
39249204,1999,1,216767,262143,-2.55,-2.12,9.98,-0.01,0.01,-0.09,26.79
39289186,1958,1,216862,262143,-2.94,-1.37,9.19,0.05,-0.10,0.12,26.79
39329171,1985,1,216838,262143,-2.51,-1.94,9.30,-0.26,-0.02,-0.05,26.79
39369205,1988,1,216644,261330,-2.69,-1.61,9.08,-0.03,0.03,-0.03,26.79
39409187,1974,1,215480,259332,-2.93,-1.83,9.13,0.12,-0.17,0.03,26.79
39449171,1938,1,215350,259782,-2.09,-2.02,9.27,-0.03,0.05,-0.13,26.79
39489187,1904,1,215777,260778,-2.53,-1.46,9.26,-0.12,-0.01,0.04,26.79
39529186,1934,1,215879,260762,-2.48,-1.88,8.99,-0.08,-0.02,-0.09,26.79
39569204,1936,1,215928,261155,-2.70,-1.41,9.00,-0.05,-0.16,0.01,26.79
39609186,1931,1,216086,261449,-2.48,-1.73,9.18,-0.06,0.03,-0.04,26.79
39649188,1901,1,216071,261302,-2.44,-1.67,9.23,0.08,-0.01,-0.00,26.79
39687186,1915,1,216017,261339,-2.59,-1.95,9.62,-0.04,-0.06,-0.01,26.79
39727204,1929,1,216313,261655,-2.69,-1.64,9.31,-0.14,0.05,0.02,26.79
39767174,1883,1,216417,261661,-2.92,-1.76,9.51,-0.08,-0.05,-0.02,26.79
39807204,1933,1,216589,262003,-2.72,-1.81,9.10,0.01,-0.05,-0.00,26.79
39847186,1875,1,216744,262097,-2.32,-1.87,9.47,-0.03,0.07,-0.14,26.79
39887188,1904,1,216898,262143,-2.67,-1.57,9.39,0.02,-0.02,0.09,26.79
39927171,1906,1,217135,262143,-3.02,-1.69,9.56,-0.20,0.03,-0.11,26.79
39967188,1909,1,217095,262143,-2.61,-1.57,8.98,-0.16,-0.08,-0.06,26.79
40007891,1834,1,216558,260977,-2.89,-1.44,9.08,-0.12,0.04,-0.15,26.61
40048188,1850,1,215797,260495,-2.36,-1.92,9.12,-0.07,0.01,-0.07,26.61
40088186,1847,1,216050,260907,-2.63,-1.91,9.43,-0.17,0.08,-0.20,26.61
40128188,1884,1,216063,261186,-2.51,-2.06,9.37,-0.27,0.07,-0.23,26.61
40168186,1877,1,216172,260794,-2.97,-2.04,9.92,-0.05,0.04,-0.13,26.61
40207188,1872,1,215923,261124,-2.76,-2.25,9.09,-0.27,-0.12,-0.12,26.61
40247205,1890,1,216219,261712,-2.94,-2.57,9.78,-0.16,0.12,-0.19,26.61
40287189,1831,1,216493,262042,-2.94,-2.47,9.36,0.02,-0.08,0.01,26.61
40327165,1838,1,216222,261636,-1.84,-2.53,9.32,-0.02,-0.04,-0.15,26.61
40367204,1870,1,216272,261850,-2.86,-1.86,9.06,-0.06,-0.08,0.15,26.61
40407186,1808,1,216217,261984,-2.80,-2.63,9.69,0.04,-0.03,0.11,26.61
40447171,1849,1,216299,262031,-2.99,-2.02,8.84,0.07,-0.07,0.09,26.61
40487165,1830,1,216136,262143,-2.55,-2.39,9.56,0.03,-0.08,-0.02,26.61
40527188,1866,1,216421,262143,-2.66,-1.89,9.09,-0.00,0.08,0.04,26.61
40567171,1843,1,216400,262143,-2.79,-2.12,9.88,0.11,-0.08,0.16,26.61
40607171,1867,1,216403,261016,-2.61,-1.81,8.46,0.07,-0.21,0.19,26.61
40647171,1891,1,215438,259137,-2.92,-2.06,9.78,-0.06,-0.02,-0.07,26.61
40687204,1926,1,215404,259475,-2.77,-1.45,8.74,-0.00,-0.01,0.06,26.61
40727186,1936,1,215659,260151,-2.89,-1.73,9.89,0.17,0.08,0.02,26.61
40767159,1903,1,215914,260785,-2.80,-1.26,9.39,0.11,-0.09,0.18,26.61
40807165,1917,1,216239,261686,-2.98,-1.65,9.72,-0.01,0.01,0.05,26.61
40847171,1898,1,216672,262140,-2.90,-1.41,9.22,-0.06,-0.06,0.10,26.61
40887186,1889,1,216768,262143,-2.45,-1.58,9.23,0.02,-0.04,-0.02,26.61
40927187,1978,1,216955,262143,-2.42,-1.54,9.11,0.29,-0.05,0.20,26.61
40967171,1940,1,216886,262143,-2.15,-1.58,9.14,0.03,-0.12,0.06,26.61
41007192,1959,1,217130,262143,-2.55,-1.27,8.90,-0.02,-0.03,0.12,26.61
41047871,1937,1,217060,262143,-2.42,-1.48,8.79,-0.09,-0.16,0.02,26.65
41088188,1938,1,217198,262143,-2.59,-1.42,8.94,0.19,0.04,0.14,26.65
41128160,1955,1,217458,262143,-2.61,-1.10,9.29,0.22,-0.04,0.11,26.65
41168171,1914,1,217436,262143,-2.51,-1.33,9.71,0.11,0.04,0.11,26.65
41208160,1951,1,217534,262143,-3.03,-0.80,9.61,0.00,-0.09,0.09,26.65
41248171,1883,1,216845,261343,-3.29,-1.19,9.94,-0.02,-0.02,0.14,26.65
41288186,1929,1,216738,261461,-3.17,-0.92,9.59,0.03,0.01,0.12,26.65
41328160,1911,1,217064,262143,-3.11,-1.09,10.13,0.28,0.04,0.22,26.65
41368160,1894,1,217263,262143,-2.80,-0.95,9.94,0.25,-0.12,0.21,26.65
41408171,1887,1,217372,262143,-2.81,-0.83,9.93,0.12,0.00,0.22,26.65
41448160,1888,1,217436,262143,-3.40,-0.76,9.97,0.10,-0.10,0.28,26.65
41486171,1904,1,217561,262143,-2.95,-0.80,9.57,0.16,-0.13,0.23,26.65
41526173,1872,1,217623,262143,-2.84,-0.44,9.65,0.19,-0.01,0.20,26.65
41566171,1914,1,217536,262143,-2.49,-0.60,9.28,0.20,-0.14,0.22,26.65
41606182,1936,1,217603,262143,-2.09,-0.29,9.20,-0.03,-0.08,0.07,26.65
41646187,1962,1,217675,262143,-2.66,-0.46,9.08,-0.08,-0.02,0.21,26.65
41686186,1956,1,217772,262143,-2.45,-0.34,8.97,-0.09,-0.11,0.08,26.65
41726188,1980,1,217819,262143,-2.82,-0.45,9.31,0.07,-0.00,0.14,26.65
41766165,1995,1,217757,262143,-2.58,-0.35,9.48,0.16,-0.10,0.05,26.65
41806171,1892,1,217877,262143,-3.11,0.09,9.82,0.08,0.08,0.11,26.65
41846136,1954,1,217084,261043,-2.77,-0.23,9.86,-0.14,-0.05,-0.03,26.65
41886204,1952,1,216646,261009,-3.29,0.17,9.63,-0.02,0.02,0.14,26.65
41926160,1943,1,216716,261691,-3.04,-0.30,9.73,0.00,-0.11,0.05,26.65
41966171,1968,1,217041,262127,-2.89,-0.16,9.37,0.12,-0.03,0.18,26.65
42006171,1936,1,217168,262143,-2.90,-0.12,9.54,0.05,-0.04,0.13,26.65
42046171,1978,1,217286,262143,-2.73,-0.61,9.16,0.05,-0.11,0.20,26.65
42086851,1931,1,217745,262143,-3.15,-0.48,9.83,0.17,-0.03,0.22,26.05
42127171,1934,1,218039,262143,-3.31,-0.18,9.99,0.43,-0.21,0.34,26.05
42167171,1925,1,218000,262143,-2.15,0.18,9.54,0.40,-0.41,0.24,26.05
42207160,1972,1,218069,262143,-2.89,0.72,9.73,0.24,-0.35,0.38,26.05
42247160,1920,1,218113,262143,-2.22,0.74,9.60,0.09,-0.28,0.28,26.05
42287159,1890,1,218121,262143,-2.34,0.85,9.37,0.15,-0.15,0.24,26.05
42327159,1891,1,218092,262143,-2.23,0.82,9.37,0.14,-0.18,0.12,26.05
42367160,1942,1,218109,262143,-1.97,1.02,9.30,0.08,-0.18,0.04,26.05
42407156,1930,1,217944,262143,-1.67,0.73,9.47,-0.06,-0.14,0.02,26.05
42447171,1961,1,217844,262143,-2.16,0.91,9.45,0.08,-0.11,0.05,26.05
42487159,1906,1,216837,261203,-2.03,0.70,9.72,-0.04,-0.15,0.03,26.05
42527171,1936,1,216770,261379,-1.54,0.92,9.23,-0.08,0.03,-0.07,26.05
42567171,1950,1,216875,261632,-1.89,0.88,9.33,0.09,-0.03,0.02,26.05
42607160,1933,1,216846,261495,-1.45,0.72,9.72,-0.04,-0.09,-0.05,26.05
42647186,1844,1,216890,261859,-2.28,1.04,10.13,-0.06,0.18,0.05,26.05
42687159,1883,1,217163,262100,-2.62,0.80,10.18,-0.07,0.07,0.04,26.05
42727157,1861,1,217063,262117,-1.93,0.89,9.89,-0.11,-0.03,-0.07,26.05
42767188,1903,1,216694,261574,-2.21,1.01,9.52,-0.04,0.07,-0.08,26.05
42807171,1945,1,216249,260599,-1.86,1.00,9.40,-0.19,0.04,-0.12,26.05
42847171,1935,1,215572,259720,-1.77,0.73,9.52,-0.42,0.33,-0.32,26.05
42887171,1870,1,215017,258847,-2.72,0.83,9.60,-0.48,0.52,-0.33,26.05
42927171,1950,1,214550,258280,-2.18,-0.26,9.55,-0.66,0.52,-0.44,26.05
42967186,1889,1,213987,257794,-3.26,-0.31,10.05,-0.51,0.62,-0.54,26.05
43007188,1968,1,213668,256695,-2.97,0.05,9.01,-0.34,0.15,-0.27,26.05
43047198,1815,1,212718,255926,-3.19,-0.60,9.99,-0.39,0.19,-0.38,26.05
43085874,1904,1,212467,254578,-3.17,-0.21,9.03,-0.23,0.21,-0.04,26.23
43126186,1897,1,210569,248535,-3.56,-0.36,9.31,-0.03,0.22,-0.09,26.23
43166188,1919,1,208458,246216,-2.89,-0.72,8.99,-0.06,0.30,-0.14,26.23
43206186,1917,1,207894,246085,-3.17,-0.53,8.14,0.02,0.04,-0.07,26.23
43246171,1966,1,207790,246729,-2.28,-1.09,9.20,-0.07,-0.07,-0.10,26.23
43286205,1982,1,208692,248675,-3.31,-0.97,9.52,-0.22,0.03,-0.01,26.23
43326188,1951,1,210688,253904,-4.51,-1.01,9.76,-0.12,0.22,0.14,26.23
43366171,1961,1,212128,255882,-3.02,-1.22,9.50,-0.10,-0.02,-0.13,26.23
43406204,1903,1,212870,257263,-4.02,-0.35,9.31,0.02,-0.10,0.04,26.23
43446165,1923,1,213121,257743,-3.11,-1.35,9.35,-0.21,-0.27,-0.18,26.23
43486204,1939,1,213557,258259,-3.73,-0.72,9.40,-0.12,-0.03,0.18,26.23
43526196,1893,1,213612,258406,-3.59,-1.44,9.66,-0.13,-0.05,0.07,26.23
43566188,1923,1,213643,258353,-3.56,-1.22,9.41,0.16,0.00,0.08,26.23
43606160,1910,1,213568,258174,-3.64,-0.95,9.60,-0.00,-0.06,-0.03,26.23
43646204,1874,1,213713,258944,-3.84,-1.16,10.30,0.05,0.21,0.04,26.23
43686159,1887,1,214179,259091,-3.92,-0.66,9.68,0.07,-0.04,0.09,26.23
43726171,1893,1,214063,259710,-3.43,-1.12,9.80,0.02,-0.04,-0.08,26.23
43766186,1910,1,214583,260064,-3.52,-0.10,9.05,-0.16,-0.07,-0.04,26.23
43806205,1877,1,214409,259840,-2.73,-1.58,8.92,-0.04,-0.01,-0.20,26.23
43846205,1907,1,213730,257514,-2.48,-0.35,7.56,-0.18,-0.33,-0.04,26.23
43886204,1855,1,213016,257766,-2.87,-1.31,8.89,-0.34,0.05,-0.36,26.23
43926186,1841,1,213527,257820,-2.81,-0.40,8.02,0.00,-0.13,0.18,26.23
43966171,1840,1,213035,257641,-2.90,-1.40,9.32,-0.07,-0.11,-0.26,26.23
44006205,1877,1,213459,258167,-2.55,-0.61,8.58,0.11,0.04,0.23,26.23
44046159,1861,1,213404,257968,-3.22,-0.81,10.07,0.02,0.03,-0.16,26.23
44086165,1897,1,213605,258579,-3.35,-0.44,9.99,0.25,0.09,0.28,26.23
44126845,1917,1,213507,258469,-3.42,-0.19,9.72,-0.27,0.05,-0.11,25.91
44165185,1943,1,214076,259100,-3.39,-0.89,9.35,0.12,0.25,0.19,25.91
44205159,1911,1,213717,258171,-3.28,-0.25,8.83,-0.15,-0.26,0.00,25.91
44245186,1840,1,213959,258997,-3.63,-1.12,10.16,0.25,0.38,0.03,25.91
44285158,1891,1,213963,258501,-3.34,-0.39,10.08,0.25,-0.02,0.14,25.91
44325171,1776,1,214314,259770,-4.78,-0.52,11.05,-0.02,0.12,0.10,25.91
44365171,1859,1,214916,260367,-3.82,-0.71,9.88,-0.33,-0.11,0.12,25.91
44405186,1792,1,215319,261294,-4.47,-0.98,9.90,0.03,0.02,0.03,25.91
44445160,1865,1,215353,261362,-2.96,-0.45,8.77,0.23,-0.22,0.08,25.91
44485171,1911,1,215308,261004,-3.56,-0.62,9.93,-0.04,0.13,-0.31,25.91
44525195,1936,1,215104,260544,-3.48,-0.01,8.99,-0.11,0.08,-0.04,25.91
44565186,1965,1,214622,260239,-3.02,-1.23,9.64,-0.30,-0.25,-0.35,25.91
44605204,1973,1,214791,260819,-3.80,0.13,8.53,-0.13,-0.09,0.12,25.91
44645171,1957,1,214720,260602,-2.66,-0.86,8.74,-0.12,0.03,-0.14,25.91
44685192,1977,1,214876,260263,-3.40,-0.14,8.80,0.45,0.02,0.19,25.91
44725157,1949,1,214304,259030,-2.57,-0.43,9.15,0.30,-0.20,-0.11,25.91
44765188,1963,1,213785,258467,-2.88,0.29,8.92,-0.02,0.07,-0.13,25.91
44805171,1943,1,213613,258219,-3.35,-0.11,9.32,-0.34,0.08,-0.13,25.91
44845187,1978,1,213749,258695,-3.19,-0.35,8.83,-0.26,0.05,-0.13,25.91
44885199,1900,1,214060,258817,-3.07,0.23,8.36,-0.01,-0.01,-0.03,25.91
44925188,1971,1,213791,258874,-2.62,-0.41,8.63,-0.08,-0.05,-0.02,25.91
44965204,1941,1,213831,258772,-3.60,-0.09,8.82,-0.14,0.06,0.06,25.91
45005171,1913,1,213522,258558,-3.61,-0.40,9.02,-0.13,-0.08,-0.00,25.91
45045204,1895,1,213362,258388,-3.47,-0.17,8.63,-0.00,0.01,0.03,25.91
45085171,1899,1,213146,258113,-3.33,-0.01,8.77,0.01,0.01,-0.01,25.91
45125171,1890,1,212602,255533,-3.68,0.06,9.41,-0.14,0.09,-0.03,25.91
45165857,1911,1,211158,251049,-3.78,-0.03,9.06,-0.06,0.00,0.06,25.99
45204171,1908,1,210071,250731,-4.03,-0.21,9.36,-0.11,-0.05,0.05,25.99
45244188,1889,1,210236,251395,-3.74,-0.45,9.38,0.02,0.03,0.12,25.99
45284160,1901,1,210481,251789,-3.51,-0.47,9.47,0.06,-0.00,0.08,25.99
45324171,1891,1,210417,251940,-3.59,-0.57,10.13,-0.01,0.03,0.02,25.99
45364171,1906,1,210611,252389,-4.28,-0.25,10.29,-0.07,0.06,0.10,25.99
45404171,1929,1,210644,252822,-4.06,-0.71,10.29,-0.04,0.03,0.18,25.99
45444171,1891,1,210780,252539,-4.03,-0.28,9.73,-0.04,-0.07,0.10,25.99
45484188,1893,1,210699,252684,-3.75,-0.63,9.80,0.05,-0.05,0.08,25.99
45524177,1904,1,210564,252352,-3.29,-0.55,9.28,-0.10,-0.06,-0.06,25.99
45564204,1877,1,210816,253863,-3.65,-0.46,9.60,-0.03,-0.05,0.08,25.99
45604185,1917,1,211349,255021,-2.95,-0.58,8.57,-0.29,-0.13,-0.06,25.99
45644204,1882,1,211827,256249,-3.27,-0.40,8.55,-0.23,-0.10,-0.09,25.99
45684204,1964,1,212240,257001,-2.84,-0.33,8.22,-0.20,-0.15,-0.07,25.99
45724204,1943,1,212255,257058,-2.60,-0.54,8.35,-0.12,-0.02,-0.14,25.99
45764205,1965,1,212324,255373,-3.03,-0.17,8.64,-0.02,0.04,0.04,25.99
45804171,1899,1,210764,250760,-2.55,-0.75,8.83,-0.08,-0.06,0.01,25.99
45844186,1935,1,210136,250484,-3.56,-0.05,9.10,-0.08,0.04,0.05,25.99
45884171,1890,1,210200,251511,-3.09,-0.79,9.23,0.05,0.05,0.04,25.99
45924157,1958,1,210757,252146,-2.92,-0.18,8.97,0.07,0.09,0.04,25.99
45964159,1906,1,210376,252359,-2.65,-0.82,9.33,-0.15,-0.07,-0.06,25.99
46004205,1890,1,210735,253358,-3.67,-0.64,9.47,-0.12,0.06,0.11,25.99
46044171,1955,1,211004,254014,-3.92,-1.16,9.85,-0.04,0.02,0.16,25.99
46084171,1955,1,210937,253779,-3.38,-1.12,9.51,0.03,-0.06,0.11,25.99
46124171,1939,1,210898,253903,-3.87,-0.67,9.79,0.06,-0.00,0.10,25.99
46164171,1931,1,210878,254200,-3.68,-1.08,10.20,0.09,0.06,0.13,25.99
46204845,1936,1,211388,255035,-4.11,-0.39,10.07,0.03,-0.05,0.13,26.29
46245171,1913,1,211692,256511,-4.07,-0.63,10.12,-0.16,0.02,0.02,26.29
46285171,1913,1,212379,257750,-3.54,-0.50,9.20,-0.02,0.01,0.07,26.29
46325231,1905,1,212671,258181,-3.45,-0.33,9.40,-0.07,-0.07,-0.02,26.29
46365204,1930,1,212612,258459,-3.15,-0.63,9.39,-0.03,-0.01,0.02,26.29
46405186,1923,1,212715,258568,-3.54,-0.31,9.32,-0.02,-0.04,0.14,26.29
46445188,1936,1,212251,257044,-2.77,-0.94,9.14,-0.20,-0.17,-0.05,26.29
46483205,1950,1,211722,256670,-3.02,-0.57,9.12,-0.22,-0.13,-0.16,26.29
46523204,1954,1,211768,257370,-2.73,-0.85,9.07,-0.14,-0.20,-0.13,26.29
46563205,1952,1,211949,257787,-2.41,-0.89,8.84,-0.01,-0.21,-0.07,26.29
46603204,1999,1,212127,258055,-2.21,-0.89,8.84,-0.05,-0.12,-0.00,26.29
46643204,1872,1,212294,258172,-2.36,-1.17,9.15,-0.07,0.02,0.02,26.29
46683171,1903,1,212277,258018,-2.78,-0.77,9.14,-0.04,-0.09,0.07,26.29
46723186,1878,1,212140,257997,-2.68,-1.02,9.29,-0.10,0.03,0.01,26.29
46763171,1904,1,212297,257866,-3.13,-0.80,9.47,0.08,0.03,0.17,26.29
46803157,1851,1,212101,257480,-2.65,-1.07,9.44,-0.06,-0.16,0.06,26.29
46843188,1907,1,212001,257653,-3.06,-1.01,9.55,-0.23,0.06,-0.01,26.29
46883186,1916,1,212263,258061,-3.51,-1.20,9.80,-0.09,0.02,0.12,26.29
46923171,1936,1,212221,258150,-3.08,-1.47,9.97,-0.11,-0.11,-0.03,26.29
46963205,1921,1,212223,258222,-2.71,-1.26,9.57,0.02,0.03,0.02,26.29
47003160,1943,1,212020,258124,-2.60,-1.30,9.34,-0.05,-0.08,-0.05,26.29
47043205,1947,1,211974,256982,-2.66,-1.44,9.46,-0.14,-0.02,0.00,26.29
47083188,1935,1,211114,253753,-2.95,-1.15,9.35,-0.18,-0.06,-0.02,26.29
47123205,1887,1,210092,251963,-2.49,-1.32,8.76,-0.09,-0.02,-0.11,26.29
47164204,1854,1,209527,250682,-2.75,-1.31,9.53,0.14,0.04,-0.03,26.29
47204857,1885,1,209246,250397,-2.55,-1.33,9.45,0.09,-0.05,0.07,26.43
47243171,1904,1,209267,250810,-2.79,-1.37,9.99,-0.19,0.04,-0.07,26.43
47283186,1895,1,209924,252244,-3.45,-1.11,9.79,-0.08,0.03,0.09,26.43
47323171,1883,1,209855,252083,-2.83,-1.56,9.80,-0.06,-0.10,-0.04,26.43
47363205,1845,1,209972,251949,-3.16,-1.23,10.14,0.18,0.06,0.19,26.43
47403159,1923,1,209701,251744,-2.68,-1.89,10.26,0.08,0.04,0.08,26.43
47443160,1923,1,210220,252886,-3.52,-1.21,10.50,0.12,0.12,0.15,26.43
47483158,1955,1,210579,253852,-3.05,-1.52,9.74,-0.20,-0.08,-0.01,26.43
47523204,1870,1,210810,254528,-2.70,-1.47,9.37,-0.00,0.02,-0.02,26.43
47563187,1905,1,211030,254790,-2.65,-1.09,9.20,0.20,-0.12,0.06,26.43
47603171,1934,1,211237,256194,-2.75,-1.19,9.29,0.01,0.05,-0.07,26.43
47643171,1893,1,212124,257365,-2.91,-0.69,9.20,-0.17,0.07,-0.09,26.43
47683186,1877,1,211983,255330,-3.10,-0.83,9.41,-0.11,-0.03,0.02,26.43
47723188,1911,1,210856,252921,-2.74,-1.07,9.04,-0.02,-0.09,-0.04,26.43
47763204,1838,1,210459,253142,-2.69,-0.82,9.40,0.00,0.00,-0.08,26.43
47803171,1835,1,210462,253605,-2.73,-1.03,9.43,0.02,0.05,0.03,26.43
47843157,1899,1,210969,254490,-3.11,-0.88,9.58,0.01,0.01,0.07,26.43
47883160,1920,1,211139,255298,-2.92,-1.03,9.84,-0.11,-0.02,-0.04,26.43
47923205,1901,1,211451,256144,-2.70,-0.94,8.92,-0.05,0.01,-0.04,26.43
47963240,1914,1,211655,256279,-3.02,-0.76,9.25,-0.07,0.02,-0.11,26.43
48003186,1919,1,211444,256021,-2.85,-1.14,9.37,-0.01,-0.04,-0.04,26.43
48043204,1936,1,211624,256140,-3.36,-0.70,9.68,0.01,0.05,0.02,26.43
48083156,1921,1,211601,256715,-3.09,-1.25,9.68,-0.02,-0.01,0.07,26.43
48123187,1914,1,212002,257067,-3.16,-0.58,8.83,-0.18,-0.03,-0.01,26.43
48163236,1851,1,212100,257547,-3.34,-0.82,9.48,-0.00,0.05,-0.03,26.43
48203187,1934,1,212122,257414,-2.52,-0.79,8.66,0.05,-0.13,0.03,26.43
48243857,1904,1,212120,257724,-2.82,-0.55,9.01,-0.09,0.04,-0.05,26.23
48282187,1937,1,212229,257504,-2.70,-0.99,9.04,-0.11,-0.01,0.04,26.23
48322186,1927,1,211887,254527,-3.46,-0.82,9.33,0.01,0.05,0.07,26.23
48362160,1945,1,210418,251082,-2.82,-0.88,9.02,0.24,-0.09,0.17,26.23
48402171,1942,1,209473,250141,-2.59,-0.85,9.13,-0.21,-0.02,-0.27,26.23
48442204,1919,1,209749,251244,-3.40,-0.86,10.18,0.10,0.24,0.09,26.23
48482160,1907,1,210005,251335,-3.17,-0.67,9.52,-0.04,-0.20,0.05,26.23
48522191,1865,1,209921,252546,-3.17,-0.94,10.23,-0.20,0.04,-0.02,26.23
48562186,1904,1,210708,253883,-3.64,-0.42,9.15,-0.05,0.01,0.10,26.23
48602171,1856,1,210299,253857,-2.58,-1.53,9.83,-0.02,-0.05,-0.06,26.23
48642206,1893,1,210809,254763,-3.36,-0.58,9.30,0.04,-0.02,0.16,26.23
48682171,1920,1,210855,254917,-2.50,-1.29,9.27,-0.12,-0.02,-0.05,26.23
48722206,1904,1,211001,256010,-2.88,-1.02,8.92,-0.07,-0.03,0.04,26.23
48762188,1942,1,211554,256491,-2.76,-0.74,8.51,-0.16,-0.05,-0.13,26.23
48802205,1935,1,211559,257120,-2.66,-1.03,9.17,-0.02,-0.02,-0.03,26.23
48842204,1951,1,211898,257060,-3.19,-0.32,8.91,-0.08,-0.01,0.00,26.23
48882186,1925,1,211695,257316,-3.13,-0.81,9.79,-0.04,0.00,-0.03,26.23
48922188,1952,1,211741,257253,-2.88,-0.97,9.30,-0.16,-0.09,0.07,26.23
48962186,1926,1,211841,257127,-3.14,-1.06,9.65,-0.03,0.01,0.08,26.23
49002171,1935,1,211007,252806,-2.52,-1.42,9.13,0.05,-0.12,0.09,26.23
49042171,1953,1,209366,249296,-3.11,-0.73,9.44,-0.22,0.01,-0.15,26.23
49082193,1939,1,208818,248843,-3.51,-1.36,10.39,0.22,0.24,0.17,26.23
49122159,1966,1,209025,248501,-3.06,-0.77,9.40,0.07,-0.21,0.16,26.23
49162171,1923,1,208902,249897,-3.23,-1.14,10.63,-0.12,0.18,-0.07,26.23
49202188,1920,1,209846,251460,-3.42,-0.50,9.33,-0.13,-0.02,0.07,26.23
49242189,1842,1,210107,253301,-2.98,-1.48,9.64,-0.15,-0.08,-0.07,26.23
49282891,1904,1,210765,253913,-2.94,-0.80,8.96,-0.04,-0.06,0.08,25.75
49323188,1888,1,210707,254080,-2.30,-1.19,8.75,0.04,-0.07,-0.01,25.75
49363186,1870,1,210752,254667,-2.47,-0.91,8.66,-0.07,-0.04,-0.06,25.75
49403204,1871,1,211027,255001,-2.86,-0.84,9.06,-0.15,0.10,-0.10,25.75
49443186,1974,1,211075,255590,-2.97,-0.99,9.71,0.18,0.04,0.17,25.75
49483159,1989,1,211376,256004,-2.64,-0.67,8.87,-0.15,-0.22,-0.02,25.75
49523206,1939,1,211451,257034,-3.08,-1.51,9.79,-0.10,0.28,-0.09,25.75
49563187,1977,1,211967,257130,-2.69,-0.70,8.21,-0.18,-0.22,0.09,25.75
49603205,1926,1,211188,255701,-2.39,-1.91,10.17,-0.10,0.05,-0.22,25.75
49643188,1936,1,210304,250017,-3.45,-0.63,9.69,0.28,0.03,0.35,25.75
49683159,1918,1,208302,247716,-2.43,-2.12,9.75,-0.06,-0.08,0.01,25.75
49721187,1895,1,208438,248340,-3.73,-1.24,10.55,-0.06,0.18,0.16,25.75
49761171,1906,1,208802,248627,-3.96,-1.50,10.41,0.09,0.02,0.11,25.75
49801197,1858,1,208624,248407,-3.04,-1.50,10.24,0.26,0.05,-0.01,25.75
49841165,1904,1,209132,250452,-3.56,-0.90,10.39,-0.03,0.08,0.04,25.75
49881171,1899,1,210036,252044,-3.46,-1.21,10.66,-0.04,0.06,-0.00,25.75
49921186,1920,1,210574,253489,-3.43,-0.87,9.61,-0.22,-0.24,0.01,25.75
49961188,1904,1,210918,254393,-2.83,-1.36,9.25,-0.14,-0.01,-0.14,25.75
50001204,1904,1,211045,254889,-2.62,-1.01,8.81,0.08,-0.17,0.04,25.75
50041171,1894,1,211335,256000,-2.66,-1.30,8.96,-0.06,-0.00,-0.07,25.75
50081204,1921,1,211759,256495,-2.56,-1.02,9.02,0.01,0.04,-0.05,25.75
50121171,1929,1,211716,256985,-2.35,-1.05,8.94,-0.00,-0.10,0.01,25.75
50161186,1910,1,212073,257549,-2.90,-0.57,9.14,-0.12,0.04,-0.13,25.75
50201188,1931,1,212174,258017,-2.63,-0.95,8.92,-0.02,0.00,-0.02,25.75
50242186,1939,1,212314,257751,-2.55,-0.68,8.74,-0.09,-0.05,-0.05,25.75
50282204,1960,1,211523,254482,-2.66,-0.85,8.81,-0.04,0.00,-0.01,25.75
50322871,1917,1,210321,252473,-2.70,-1.00,8.65,-0.06,-0.00,-0.01,25.75
50361204,1924,1,210201,252888,-2.80,-0.86,8.79,-0.02,0.01,-0.02,25.75
50401186,1909,1,210212,252734,-2.91,-0.96,9.29,-0.05,0.00,-0.00,25.75
50441187,1891,1,210381,252948,-3.47,-0.54,9.33,-0.07,0.01,0.06,25.75
50481165,1919,1,210392,253368,-3.34,-1.00,9.79,-0.08,-0.00,-0.01,25.75
50521204,1898,1,210717,254238,-3.20,-1.00,9.46,0.02,-0.01,0.10,25.75
50561165,1888,1,211007,254685,-3.43,-0.94,9.96,0.11,0.02,0.07,25.75
50601159,1941,1,211069,254990,-3.20,-0.98,9.68,-0.06,-0.03,0.01,25.75
50641186,1941,1,211393,255652,-3.73,-0.88,10.04,-0.11,0.12,-0.01,25.75
50681188,1884,1,211595,255881,-3.37,-0.80,9.75,0.04,-0.06,0.08,25.75
50721171,1856,1,211654,256372,-3.52,-0.60,9.98,-0.16,0.05,-0.08,25.75
50761187,1874,1,211933,256736,-3.58,-0.73,10.16,0.06,0.08,0.11,25.75
50801160,1869,1,211816,256796,-3.01,-0.85,9.29,-0.11,-0.13,-0.00,25.75
50841204,1914,1,212028,257400,-3.52,-0.65,9.81,-0.12,0.00,-0.05,25.75
50881186,1887,1,212199,257478,-3.11,-0.76,9.01,0.02,-0.03,0.06,25.75
50921171,1936,1,211841,255582,-2.66,-1.32,9.23,-0.10,-0.07,0.00,25.75
50961186,1871,1,210703,251276,-3.13,-0.64,8.86,-0.06,-0.02,-0.04,25.75
51001204,1904,1,209685,250905,-2.94,-1.08,9.56,-0.00,-0.02,0.04,25.75
51041186,1933,1,209990,252173,-3.09,-0.62,8.94,-0.17,-0.08,-0.05,25.75
51081204,1920,1,210394,253394,-2.70,-1.08,9.04,-0.13,-0.02,-0.06,25.75
51121204,1891,1,210565,253812,-2.57,-0.85,8.82,-0.07,-0.11,-0.02,25.75
51161204,1937,1,210914,254798,-2.66,-1.16,9.02,0.13,0.09,0.11,25.75
51201159,1887,1,211150,255325,-2.44,-1.09,8.77,-0.01,-0.12,0.08,25.75
51242197,1863,1,211363,256203,-2.61,-1.23,9.09,-0.17,0.03,-0.06,25.75
51280186,1873,1,211635,255752,-2.95,-0.77,9.06,0.01,0.05,0.05,25.75
51320159,1885,1,211216,255712,-3.15,-1.15,9.95,0.17,-0.01,0.11,25.75
51360857,1911,1,211464,255967,-2.90,-0.91,9.78,0.06,0.01,0.12,25.59
51401160,1885,1,211575,256375,-3.42,-1.08,10.42,-0.12,0.12,-0.02,25.59
51441218,1875,1,211849,256786,-3.35,-1.07,9.58,-0.09,-0.03,0.07,25.59
51481187,1872,1,211802,256650,-3.20,-1.26,9.53,-0.06,-0.02,-0.04,25.59
51521205,1840,1,211656,256793,-2.83,-1.18,9.46,0.01,0.00,0.13,25.59
51561160,1871,1,211885,256923,-3.53,-1.12,9.47,0.07,0.14,0.06,25.59
51601159,1863,1,211881,256031,-3.16,-1.30,9.83,-0.08,-0.02,0.06,25.59
51641207,1901,1,210672,251253,-3.31,-1.30,9.94,-0.13,0.05,-0.13,25.59
51681186,1870,1,209495,250526,-2.90,-0.95,9.30,0.19,-0.19,0.10,25.59
51721171,1877,1,209845,252086,-3.08,-0.70,9.16,-0.23,-0.11,-0.14,25.59
51761205,1874,1,210346,253714,-2.44,-1.21,8.94,-0.16,0.09,-0.11,25.59
51801188,1865,1,210815,254276,-3.05,-0.38,8.69,-0.04,-0.14,0.03,25.59
51841186,1904,1,210718,254798,-2.83,-1.03,9.24,0.12,-0.03,0.07,25.59
51881171,1967,1,211037,255074,-3.07,-0.40,9.26,0.12,0.03,0.15,25.59
51921160,1963,1,210960,255533,-2.94,-1.06,9.75,-0.05,0.05,0.04,25.59
51961171,1945,1,211241,255692,-3.34,-0.65,9.15,-0.06,-0.02,-0.03,25.59
52001205,1963,1,211237,256405,-2.80,-1.00,9.21,-0.18,-0.07,-0.02,25.59
52041204,1885,1,211685,256751,-2.94,-0.77,8.91,-0.04,0.07,0.02,25.59
52081171,1909,1,211599,256657,-2.93,-0.81,9.07,-0.04,-0.02,-0.01,25.59
52121204,1920,1,211654,256705,-3.40,-0.80,9.64,0.05,0.02,0.05,25.59
52161156,1903,1,211691,256887,-3.10,-0.68,9.51,-0.03,-0.02,0.07,25.59
52201187,1907,1,212012,257215,-3.66,-0.75,9.88,0.08,0.09,0.11,25.59
52241159,1885,1,212054,256994,-2.99,-0.81,9.14,-0.01,-0.15,0.01,25.59
52280187,1922,1,211519,254688,-3.56,-0.78,9.57,-0.22,0.04,-0.13,25.59
52320186,1923,1,210653,252823,-3.20,-0.59,8.78,-0.03,0.00,-0.03,25.59
52360873,1920,1,210482,253759,-3.20,-0.56,9.00,-0.11,-0.06,-0.03,25.59
52401204,1868,1,210948,255010,-2.91,-0.69,8.93,-0.12,-0.03,-0.03,25.59
52441204,1909,1,211204,255743,-3.21,-0.71,9.18,-0.03,0.02,0.05,25.59
52481171,1917,1,211547,256622,-2.76,-1.02,8.73,-0.01,-0.17,0.06,25.59
52521187,1903,1,211813,257181,-2.84,-0.94,9.11,-0.03,0.02,-0.07,25.59
52561186,1914,1,211953,257348,-2.85,-0.78,9.08,0.13,-0.01,0.12,25.59
52601171,1925,1,211959,257430,-2.79,-0.73,9.06,-0.11,-0.02,-0.08,25.59
52641204,1901,1,212171,258087,-3.36,-0.65,9.67,-0.07,0.05,0.04,25.59
52681171,1909,1,212376,258227,-3.22,-0.70,9.16,-0.06,0.01,0.02,25.59
52721171,1890,1,212391,258512,-3.03,-0.95,9.42,0.06,-0.07,0.11,25.59
52761171,1899,1,212633,258580,-3.42,-0.52,9.28,-0.05,-0.03,0.03,25.59
52801185,1865,1,212619,258984,-3.50,-0.98,10.06,0.03,-0.01,0.13,25.59
52841171,1872,1,212801,258778,-3.31,-0.68,9.27,-0.05,-0.05,0.02,25.59
52879197,1942,1,212680,258133,-3.51,-0.71,10.13,0.04,0.01,0.05,25.59
52919159,1943,1,211666,253737,-3.50,-0.61,9.70,0.01,-0.04,0.09,25.59
52959165,1927,1,210466,251714,-3.49,-0.71,9.91,-0.02,0.04,0.03,25.59
52999171,1914,1,210347,252237,-3.85,-0.63,10.21,-0.01,-0.01,0.02,25.59
53039186,1947,1,210891,253755,-3.43,-0.48,9.82,-0.04,0.00,0.02,25.59
53079191,1910,1,211231,254956,-3.14,-0.46,9.38,-0.20,-0.07,-0.08,25.59
53119204,1847,1,211609,256208,-3.62,-0.35,9.74,-0.11,0.10,-0.02,25.59
53159188,1935,1,211933,256612,-3.10,-0.66,9.54,0.15,-0.08,0.13,25.59
53199165,1907,1,211941,256673,-3.07,-0.53,9.43,-0.08,-0.06,-0.01,25.59
53239204,1887,1,212045,256865,-3.39,-0.50,9.68,-0.08,0.05,0.02,25.59
53279170,1891,1,211874,256662,-2.89,-0.63,9.04,-0.12,-0.04,-0.04,25.59
53320204,1882,1,211895,257250,-3.36,-0.27,9.25,-0.14,0.01,-0.05,25.59
53360872,1897,1,212069,257673,-2.81,-0.85,9.37,0.05,0.05,0.07,25.75
53399160,1956,1,212332,258263,-3.16,-0.23,9.07,0.03,-0.06,0.08,25.75
53439171,1937,1,212453,258849,-2.70,-0.60,8.67,-0.27,-0.06,-0.15,25.75
53479204,1914,1,212642,259277,-2.89,-0.45,8.41,-0.19,0.09,-0.11,25.75
53519186,1919,1,212821,259105,-2.76,-0.37,8.30,0.01,0.00,0.10,25.75
53559159,1890,1,211844,255322,-2.53,-0.51,8.51,-0.10,-0.10,-0.07,25.75
53599204,1902,1,210443,253008,-3.02,-0.46,9.02,-0.02,0.05,0.06,25.75
53639171,1926,1,210373,253605,-2.71,-0.89,8.60,-0.02,0.08,0.03,25.75
53679171,1887,1,210694,254605,-2.71,-0.75,8.71,-0.10,-0.03,0.01,25.75
53719187,1866,1,211065,254968,-3.11,-0.64,8.88,-0.01,0.07,0.06,25.75
53759165,1855,1,211073,255259,-3.25,-0.82,9.48,0.12,0.05,0.12,25.75
53799159,1898,1,211324,255633,-3.40,-0.66,9.67,0.03,0.03,0.03,25.75
53839156,1906,1,211509,255873,-3.40,-0.72,9.90,0.02,0.08,0.11,25.75
53879160,1871,1,211669,255922,-3.95,-0.63,10.13,-0.03,0.03,0.14,25.75
53919171,1885,1,211665,256050,-3.70,-1.04,9.95,0.09,0.06,0.13,25.75
53959160,1933,1,211899,256217,-3.95,-0.60,9.91,0.06,-0.03,0.11,25.75
53999171,1949,1,212072,256974,-3.92,-1.04,10.58,0.02,0.01,0.01,25.75
54039159,1907,1,212407,257663,-3.57,-0.57,9.52,-0.01,-0.11,-0.01,25.75
54079204,1946,1,212744,258668,-3.49,-0.59,9.47,-0.28,-0.04,-0.15,25.75
54119204,1859,1,212966,259009,-3.29,-0.57,8.83,-0.15,-0.08,-0.12,25.75
54159205,1890,1,213013,259387,-3.08,-0.38,8.67,-0.08,-0.14,-0.12,25.75
54199204,1872,1,212812,257790,-2.73,-0.29,8.39,-0.08,-0.13,-0.07,25.75
54239205,1920,1,211658,255513,-2.69,-0.35,8.68,-0.10,-0.06,-0.07,25.75
54279204,1905,1,211640,256057,-2.95,-0.23,8.71,0.02,-0.04,0.11,25.75
54319171,1906,1,211653,256370,-2.41,-0.83,8.71,-0.12,-0.13,-0.10,25.75
54359204,1905,1,211932,257163,-2.87,-0.41,8.86,-0.03,0.08,0.00,25.75
54399857,1899,1,212158,257683,-2.54,-0.91,8.95,-0.03,-0.03,0.01,26.03
54440187,1853,1,212639,258834,-3.20,-0.40,9.19,0.02,-0.06,0.07,26.03
54480165,1872,1,213141,259316,-2.66,-0.53,8.76,-0.10,-0.14,0.04,26.03
54518208,1909,1,213209,259407,-2.86,-0.43,8.57,-0.10,-0.06,-0.03,26.03
54558205,1909,1,213367,259800,-2.99,-0.79,8.85,0.11,0.00,0.14,26.03
54598160,1939,1,213424,259701,-2.33,-0.69,8.35,-0.05,-0.18,0.01,26.03
54638186,1888,1,213545,260110,-3.14,-0.40,8.93,-0.16,0.11,-0.01,26.03
54678187,1915,1,213635,259755,-3.03,-0.62,8.78,-0.06,-0.03,0.04,26.03
54718228,1879,1,213417,259585,-3.06,-0.69,9.30,-0.01,-0.04,0.01,26.03
54758187,1914,1,213489,259416,-3.19,-0.59,9.37,0.13,0.01,0.14,26.03
54798160,1936,1,213346,259342,-2.97,-0.78,9.37,0.05,-0.04,0.13,26.03
54838171,1903,1,213539,259077,-3.73,-0.41,9.77,0.01,0.08,0.19,26.03
54878160,1939,1,212752,255277,-3.69,-0.70,10.07,0.07,0.02,0.08,26.03
54918182,1872,1,211326,252621,-3.53,-0.39,9.96,0.04,-0.03,0.04,26.03
54958171,1905,1,211020,253032,-3.63,-0.59,10.04,-0.06,-0.01,0.02,26.03
54998187,1871,1,211322,254080,-3.40,-0.73,9.60,-0.15,-0.07,0.04,26.03
55038186,1890,1,211573,255120,-3.51,-0.74,9.75,-0.20,-0.05,-0.03,26.03
55078204,1885,1,211758,256153,-3.37,-0.72,9.57,-0.06,-0.02,-0.01,26.03
55118205,1873,1,211891,256634,-2.94,-0.81,9.40,-0.04,-0.11,-0.02,26.03
55158204,1875,1,212209,257353,-3.27,-0.66,9.36,-0.10,-0.07,-0.03,26.03
55198204,1879,1,212468,258183,-2.87,-0.64,8.76,-0.23,-0.06,-0.11,26.03
55238204,1854,1,212474,258457,-2.43,-1.01,8.20,-0.19,-0.15,-0.16,26.03
55278205,1870,1,212512,258631,-2.55,-0.50,8.36,-0.06,-0.08,-0.09,26.03
55318204,1904,1,212598,258808,-2.53,-0.49,8.55,0.08,-0.05,0.04,26.03
55358165,1913,1,212520,258844,-2.43,-0.75,8.63,-0.04,-0.07,0.00,26.03
55398187,1906,1,212676,258974,-2.94,-0.30,8.85,-0.00,0.03,0.10,26.03
55438851,1920,1,212608,258834,-2.60,-0.88,8.84,-0.02,-0.07,0.03,26.05
55479187,1945,1,212738,258288,-3.00,-0.34,9.22,0.07,0.05,0.11,26.05
55519156,1929,1,211876,254765,-2.79,-0.80,9.28,0.00,-0.03,0.07,26.05
55559171,1879,1,210787,252815,-3.20,-0.64,9.36,-0.10,0.06,0.03,26.05
55599165,1941,1,210757,253523,-3.14,-0.75,9.23,0.04,-0.02,0.12,26.05
55639171,1912,1,210972,253697,-2.93,-0.77,9.03,-0.05,-0.01,0.03,26.05
55679186,1904,1,211184,254620,-4.03,-0.45,10.38,0.16,0.21,0.15,26.05
55719160,1929,1,211295,255267,-2.85,-0.80,9.11,0.04,-0.13,0.11,26.05
55759165,1887,1,211893,256620,-4.20,-0.52,10.22,-0.06,0.21,0.08,26.05
55799171,1910,1,212200,256524,-3.38,-0.64,9.27,-0.00,-0.02,0.06,26.05
55839186,1892,1,212027,256364,-3.48,-0.52,9.33,-0.06,-0.06,-0.10,26.05
55879204,1858,1,211945,256769,-3.29,-0.23,9.26,-0.07,-0.10,-0.06,26.05
55919205,1893,1,212111,257553,-3.20,-0.40,9.03,-0.20,-0.08,-0.11,26.05
55959204,1858,1,212589,258441,-3.04,-0.28,8.64,-0.21,-0.08,-0.07,26.05
55999204,1852,1,212571,258383,-2.90,-0.54,8.44,-0.15,-0.07,-0.15,26.05
56039204,1873,1,212448,258732,-3.02,-0.23,8.82,0.00,-0.08,0.03,26.05
56079171,1897,1,212505,258558,-2.54,-0.48,8.63,-0.07,-0.01,-0.08,26.05
56119204,1915,1,212324,256733,-2.98,-0.19,8.84,-0.13,-0.03,0.02,26.05
56159185,1904,1,211119,253228,-2.62,-0.83,8.56,-0.10,-0.05,-0.01,26.05
56197203,1911,1,210493,252804,-2.82,-0.23,8.56,-0.07,-0.05,-0.04,26.05
56237204,1816,1,210438,253202,-2.86,-0.60,9.11,0.03,0.03,0.02,26.05
56277160,1926,1,210505,253189,-2.84,-0.41,8.72,-0.11,-0.08,-0.03,26.05
56317205,1853,1,210822,254434,-3.45,-0.41,9.60,-0.08,0.03,0.07,26.05
56357203,1920,1,211178,254723,-2.81,-0.52,8.32,-0.18,-0.10,-0.04,26.05
56397204,1831,1,210739,254213,-2.79,-0.69,9.23,-0.07,0.03,-0.09,26.05
56437187,1875,1,210842,253792,-3.40,-0.46,9.48,0.20,0.01,0.23,26.05
56477845,1890,1,210506,253340,-3.03,-0.89,9.71,-0.02,0.00,0.08,26.29
56518171,1872,1,210812,254619,-4.01,-0.63,10.08,-0.15,0.12,0.09,26.29
56558165,1897,1,211358,255460,-3.57,-1.10,9.89,-0.05,0.05,0.01,26.29
56598171,1904,1,211681,255960,-3.49,-0.78,10.22,0.04,0.00,0.05,26.29
56638159,1892,1,211398,255664,-3.41,-0.90,10.25,-0.00,-0.02,0.00,26.29
56678187,1946,1,211588,256379,-4.06,-0.70,10.40,-0.03,0.09,0.16,26.29
56718171,1900,1,211814,256293,-3.62,-0.97,10.10,-0.19,0.04,0.02,26.29
56758171,1931,1,211160,252113,-3.85,-0.87,10.17,0.02,0.04,0.01,26.29
56798159,1883,1,209808,250617,-3.81,-0.95,9.88,-0.03,-0.01,-0.04,26.29
56838204,1842,1,210128,252168,-3.47,-0.98,9.81,-0.09,0.03,0.03,26.29
56878171,1869,1,210848,254415,-3.02,-1.08,9.34,-0.23,-0.13,0.01,26.29
56918188,1889,1,211666,256075,-3.15,-0.82,8.90,-0.17,-0.10,-0.07,26.29
56958205,1886,1,211946,257332,-2.73,-1.13,9.09,-0.08,-0.06,-0.13,26.29
56998204,1878,1,212374,257793,-2.49,-0.74,8.42,-0.11,-0.07,-0.08,26.29
57038205,1846,1,212358,258089,-3.05,-1.10,9.40,-0.11,0.09,-0.06,26.29
57078187,1863,1,212237,257550,-2.83,-0.95,8.93,-0.10,-0.07,0.01,26.29
57118186,1859,1,212152,257926,-3.60,-1.12,9.89,0.02,0.14,0.03,26.29
57158160,1866,1,212027,257496,-2.49,-1.20,9.25,-0.06,0.02,-0.02,26.29
57198186,1907,1,211953,257525,-3.71,-0.91,10.09,-0.01,0.10,0.01,26.29
57238171,1952,1,211929,257588,-2.83,-1.27,9.04,-0.02,-0.10,0.11,26.29
57278186,1920,1,212166,257911,-3.78,-0.96,9.68,-0.09,0.15,-0.03,26.29
57318188,1941,1,211996,257910,-2.82,-1.21,9.06,-0.01,-0.06,0.03,26.29
57358186,1924,1,212123,257483,-3.63,-0.89,9.49,0.06,0.12,-0.01,26.29
57398171,1921,1,211318,253562,-3.59,-0.84,9.56,0.06,-0.08,0.16,26.29
57438165,1933,1,209773,250853,-3.33,-1.38,9.49,-0.11,0.07,-0.04,26.29
57478874,1854,1,209798,252146,-3.27,-0.76,8.79,0.02,-0.08,0.02,26.15
57517165,1915,1,210007,252497,-3.33,-1.07,9.67,-0.02,0.10,-0.16,26.15
57557187,1927,1,210402,253957,-3.16,-0.58,8.66,0.09,-0.07,0.12,26.15
57597171,1913,1,210694,254893,-2.99,-1.17,9.17,-0.22,-0.05,-0.12,26.15
57637204,1927,1,211422,256585,-3.21,-0.64,8.48,-0.11,-0.00,0.03,26.15
57677186,1904,1,211575,256499,-3.18,-0.93,8.64,-0.01,-0.01,-0.10,26.15
57717204,1885,1,211757,257051,-3.28,-0.63,8.86,0.13,-0.00,0.09,26.15
57757165,1920,1,211705,257033,-3.20,-0.88,9.19,-0.13,-0.04,-0.08,26.15
57797204,1950,1,211962,257753,-3.16,-0.82,8.54,-0.16,-0.05,0.07,26.15
57837186,1925,1,211982,257345,-3.44,-1.00,8.84,-0.16,-0.10,-0.15,26.15
57877204,1936,1,211928,257651,-3.58,-0.69,9.30,0.18,0.03,0.10,26.15
57917157,1938,1,211928,257579,-3.22,-0.98,9.30,0.01,-0.07,0.03,26.15
57957171,1986,1,212107,257922,-3.63,-0.81,9.62,-0.18,-0.03,0.04,26.15
57997209,1934,1,212219,258049,-3.87,-1.06,9.57,-0.10,-0.08,0.02,26.15
58037187,1936,1,212057,255622,-3.29,-0.77,8.99,0.11,0.02,0.07,26.15
58077160,1926,1,210452,251767,-3.51,-0.67,9.75,-0.02,-0.06,-0.04,26.15
58117204,1899,1,209878,251683,-3.27,-0.86,9.35,-0.09,-0.01,0.05,26.15
58157186,1878,1,210343,253211,-3.58,-0.73,9.08,-0.11,-0.07,0.07,26.15
58197205,1850,1,210493,253328,-3.26,-0.60,8.72,-0.14,-0.03,-0.08,26.15
58237204,1904,1,210669,254101,-3.62,-0.61,9.62,0.16,0.10,0.11,26.15
58277160,1903,1,210892,254789,-3.05,-0.68,8.88,-0.03,-0.09,0.03,26.15
58317186,1838,1,211128,255707,-3.62,-0.70,9.67,-0.19,0.04,-0.02,26.15
58357187,1879,1,211438,256080,-3.50,-0.74,9.00,-0.10,-0.02,0.10,26.15
58397186,1827,1,211327,255962,-3.31,-1.02,9.46,0.08,0.05,0.06,26.15
58437160,1888,1,211394,256417,-3.46,-0.62,9.59,0.13,-0.03,0.14,26.15
58477171,1904,1,211400,256580,-3.09,-1.33,9.60,-0.14,0.00,0.01,26.15
58517857,1918,1,211771,257448,-4.11,-0.81,9.69,-0.03,0.04,0.19,25.93
58556171,1919,1,211832,257091,-3.28,-1.12,9.14,0.01,-0.04,0.02,25.93
58596171,1909,1,211749,257575,-3.79,-0.71,10.13,0.16,0.13,0.08,25.93
58636159,1891,1,211863,257497,-3.37,-0.68,9.22,0.05,0.01,0.07,25.93
58676160,1867,1,211960,257024,-3.82,-0.98,9.96,-0.19,0.03,0.03,25.93
58716171,1897,1,211177,252871,-3.99,-0.52,9.28,-0.13,0.01,0.04,25.93
58756171,1863,1,209855,251036,-3.39,-0.90,9.39,0.14,0.03,0.05,25.93
58796157,1936,1,209886,251859,-3.73,-0.59,9.97,0.15,0.00,0.09,25.93
58836159,1927,1,210422,253285,-3.10,-0.85,9.24,-0.07,-0.10,0.05,25.93
58876186,1917,1,210997,255280,-3.57,-0.80,9.11,-0.41,-0.03,-0.12,25.93
58916204,1872,1,211590,256382,-3.61,-0.59,8.72,-0.12,-0.02,-0.08,25.93
58956205,1866,1,211959,257157,-3.32,-0.61,8.97,0.14,-0.05,0.06,25.93
58996171,1883,1,212051,257319,-2.56,-0.73,8.36,-0.07,-0.13,-0.10,25.93
59036205,1778,1,212541,258384,-3.90,-0.38,9.32,-0.13,0.03,0.03,25.93
59076171,1920,1,212999,258898,-3.01,-0.85,8.38,-0.05,-0.26,0.04,25.93
59116186,1899,1,213178,259372,-3.06,-0.23,8.20,0.04,-0.14,-0.12,25.93
59156188,1893,1,213548,259717,-2.48,-0.27,8.31,0.10,-0.04,0.03,25.93
59196171,1887,1,213558,259786,-2.90,-0.25,8.64,-0.15,-0.00,-0.09,25.93
59236204,1861,1,213588,260076,-3.14,-0.23,8.59,-0.23,-0.15,0.00,25.93
59276186,1845,1,213446,259961,-3.39,-0.30,8.61,-0.21,0.02,-0.12,25.93
59316188,1869,1,213301,258738,-3.28,-0.33,8.77,0.08,0.08,0.08,25.93
59356157,1843,1,212036,255014,-3.07,-0.68,9.19,-0.02,-0.04,-0.04,25.93
59396204,1897,1,211332,254653,-3.94,-0.54,9.99,-0.01,0.14,0.16,25.93
59436171,1927,1,211442,254386,-3.51,-0.62,9.42,-0.11,-0.03,0.09,25.93
59476188,1937,1,211094,254438,-4.10,-0.75,10.24,-0.05,0.23,0.05,25.93
59516171,1925,1,211522,254203,-4.05,-0.58,10.32,0.24,0.18,0.21,25.93
59556845,1936,1,211266,254831,-4.06,-0.89,10.52,-0.01,-0.00,0.08,26.09
59595186,1908,1,212073,255787,-4.13,-0.69,9.99,-0.18,0.08,0.12,26.09
59635184,1907,1,211947,255469,-4.67,-0.85,10.58,-0.12,0.06,-0.04,26.09
59675186,1919,1,212010,255975,-3.84,-0.94,10.01,0.30,-0.02,0.27,26.09
59715171,1920,1,211932,256064,-3.71,-0.71,9.60,-0.09,-0.04,-0.07,26.09
59755204,1920,1,212379,257491,-4.19,-0.93,10.55,-0.04,0.07,0.15,26.09
59795171,1909,1,212836,257759,-3.70,-0.63,8.74,-0.22,-0.15,-0.04,26.09
59835210,1890,1,212658,258676,-3.14,-1.19,9.23,-0.10,-0.04,-0.14,26.09
59875204,1904,1,213309,259365,-3.33,-0.21,8.39,-0.03,-0.03,-0.05,26.09
59915204,1898,1,212965,259490,-2.10,-1.21,8.17,-0.18,-0.12,-0.15,26.09
59955204,1914,1,212825,257607,-3.25,-0.13,7.97,-0.24,-0.16,-0.01,26.09
59995205,1940,1,211742,255556,-2.40,-1.40,8.13,-0.15,-0.04,-0.07,26.09
60035204,1939,1,211673,255968,-3.08,-0.41,8.14,0.10,-0.03,0.07,26.09
60075165,1903,1,211619,256801,-2.60,-1.13,9.08,0.12,0.00,-0.03,26.09
60115171,1935,1,212180,258185,-2.98,-0.41,8.67,-0.14,0.04,0.05,26.09
60155186,1891,1,212683,259123,-3.54,-0.76,9.17,-0.29,0.04,-0.07,26.09
60195188,1911,1,212874,259516,-3.35,-0.93,8.86,0.01,0.08,0.06,26.09
60235157,1940,1,212985,259533,-3.65,-0.43,9.09,0.20,0.05,0.13,26.09
60275160,1923,1,212829,259305,-3.46,-0.88,9.73,-0.00,0.07,0.12,26.09
60315165,1917,1,213000,259470,-4.46,-0.66,9.70,-0.13,0.13,0.16,26.09
60355171,1952,1,213090,259220,-4.32,-1.03,9.97,0.01,0.01,0.12,26.09
60395160,1921,1,213118,259452,-4.62,-0.65,10.39,0.10,0.15,0.07,26.09
60435160,1952,1,213160,259364,-4.12,-0.83,10.24,0.15,0.02,0.13,26.09
60475160,1945,1,213218,259622,-4.68,-0.66,10.40,-0.27,-0.01,-0.07,26.09
60515205,1925,1,213329,260098,-4.64,-0.77,10.17,-0.10,-0.04,0.05,26.09
60555186,1938,1,213344,259992,-3.76,-0.76,9.34,-0.01,-0.05,-0.02,26.09
60595890,1914,1,212957,258270,-3.81,-0.52,9.79,-0.10,-0.04,-0.11,26.03
60636205,1947,1,211862,256876,-4.05,-0.76,9.75,-0.16,0.02,-0.04,26.03
60676187,1933,1,211899,257546,-3.06,-0.89,8.31,-0.12,-0.24,0.07,26.03
60716186,1904,1,211901,257567,-2.89,-0.95,8.22,-0.13,-0.11,-0.13,26.03
60756205,1887,1,212075,257847,-2.58,-0.81,8.35,0.16,-0.10,0.10,26.03
60796171,1908,1,211965,257854,-2.66,-1.17,8.47,-0.02,-0.00,-0.08,26.03
60836205,1906,1,212301,258778,-2.97,-0.77,8.50,-0.05,-0.09,0.13,26.03
60876187,1904,1,212399,258915,-2.87,-1.07,8.38,-0.24,-0.05,-0.10,26.03
60916205,1915,1,212530,259310,-2.75,-0.83,8.05,0.04,-0.04,0.04,26.03
60954171,1875,1,212691,259350,-3.16,-0.75,8.79,-0.06,0.02,-0.08,26.03
60994190,1872,1,212702,259781,-3.40,-0.98,9.20,0.01,0.04,0.12,26.03
61034160,1893,1,212992,259923,-3.26,-0.74,8.40,-0.15,-0.08,0.11,26.03
61074192,1888,1,212830,259662,-3.18,-1.19,9.11,-0.06,-0.04,0.00,26.03
61114186,1922,1,212961,259512,-3.53,-0.48,8.81,0.09,0.03,0.09,26.03
61154160,1941,1,212856,259332,-3.33,-1.30,9.45,0.07,0.03,0.00,26.03
61194159,1975,1,212975,259641,-4.09,-0.59,9.74,-0.10,0.08,0.15,26.03
61234171,1984,1,213086,258580,-4.38,-0.99,10.06,-0.01,0.12,0.15,26.03
61275215,1965,1,211845,254601,-3.60,-0.70,9.30,0.02,-0.11,0.07,26.03
61315171,1935,1,210920,253275,-4.24,-0.86,10.21,0.02,0.15,-0.06,26.03
61355171,1895,1,210854,254185,-4.07,-0.66,9.81,-0.00,-0.10,0.14,26.03
61395189,1877,1,211565,256028,-4.40,-0.94,10.32,-0.14,0.06,0.09,26.03
61435171,1891,1,211949,256760,-3.68,-0.71,9.12,-0.04,-0.10,0.07,26.03
61475210,1908,1,212195,257614,-3.59,-0.92,9.54,-0.07,0.02,-0.13,26.03
61515187,1901,1,212380,258037,-3.48,-0.69,8.72,-0.05,-0.05,-0.04,26.03
61555205,1922,1,212556,258705,-3.52,-1.16,9.35,-0.11,-0.02,0.02,26.03
61595874,1909,1,212709,258858,-3.39,-0.74,8.62,-0.16,-0.12,-0.00,25.79
61634206,1943,1,212537,258990,-3.03,-1.18,8.66,-0.05,-0.05,-0.10,25.79
61674205,1897,1,212717,258923,-3.32,-0.65,8.68,-0.02,-0.01,-0.04,25.79
