timestamp_us,ecg,leads,ir,red,accX,accY,accZ,gyroX,gyroY,gyroZ,temp
1918494,1535,1,195542,240730,0.00,0.00,0.00,0.00,0.00,0.00,0.00
1948966,1279,1,195496,240854,0.54,-1.08,11.90,-0.16,-0.00,-0.00,29.79
1989206,1392,1,195263,239782,0.02,-0.86,8.15,-0.12,-0.06,-0.00,29.79
2029196,1504,1,195149,240340,0.38,-1.11,10.85,-0.09,-0.00,0.02,29.79
2069194,1456,1,195390,240210,0.60,-1.06,8.33,-0.08,0.15,-0.02,29.79
2109176,1529,1,195577,240620,-0.10,-1.24,10.56,-0.06,0.06,-0.04,29.79
2149199,1573,1,195417,240430,0.09,-0.67,10.12,0.00,0.02,-0.01,29.79
2189170,1580,1,195446,240234,0.91,-0.59,9.33,0.01,-0.11,0.00,29.79
2229170,1639,1,195358,240040,0.49,-1.67,7.47,0.01,-0.01,0.00,29.79
2269166,1643,1,195515,239784,0.14,-1.40,6.28,0.01,-0.08,0.00,29.79
2309170,1680,1,195743,240032,0.40,-1.11,9.83,-0.03,0.02,0.22,29.79
2349166,1750,1,195992,240459,0.19,-0.98,9.25,0.03,0.10,0.01,29.79
2389170,1777,1,196301,240471,-0.18,-0.69,9.26,0.02,0.16,-0.00,29.79
2429176,1799,1,195979,240145,0.70,-0.06,10.22,0.03,-0.02,-0.00,29.79
2469179,1823,1,195876,239760,0.39,-1.62,8.77,0.02,-0.02,0.00,29.79
2509166,1851,1,195908,239664,0.22,-1.50,9.28,0.01,-0.04,-0.00,29.79
2549179,1870,1,196529,240434,-0.31,-1.05,9.96,-0.01,0.10,0.23,29.79
2589179,1868,1,196702,240789,0.39,-1.23,10.86,0.02,-0.03,0.00,29.79
2629170,1941,1,196991,241830,-0.24,-1.59,11.45,-0.01,0.12,0.12,29.79
2669179,1938,1,197081,241794,-0.26,-0.42,9.70,0.00,0.07,-0.01,29.79
2709179,1953,1,197510,242140,0.46,-1.32,12.73,-0.05,-0.04,-0.01,29.79
2749199,1959,1,197632,241852,0.49,0.20,9.92,-0.07,-0.02,0.24,29.79
2787170,1993,1,198868,242438,0.16,-1.06,10.68,-0.09,0.01,0.53,29.79
2827167,1934,1,200051,243908,0.88,-0.67,8.09,-0.07,-0.01,0.28,29.79
2867179,1937,1,201197,244239,-0.18,-1.84,9.13,-0.11,-0.02,0.19,29.79
2907199,2000,1,201629,244039,0.57,-1.10,10.34,-0.07,0.12,-0.01,29.79
2947179,2075,1,201422,243339,-0.53,-1.20,7.91,-0.05,0.03,0.00,29.79
2987865,2045,1,201540,243604,0.45,0.08,8.42,-0.02,-0.11,0.13,30.25
3028170,2032,1,202313,245174,0.65,-0.27,8.01,-0.06,0.02,0.16,30.25
3068166,2009,1,202643,245140,0.25,-1.04,6.78,-0.03,-0.04,0.00,30.25
3108178,2022,1,202199,244940,1.07,-0.45,10.41,-0.08,0.05,-0.02,30.25
3148176,2007,1,201894,245606,0.09,-1.02,8.20,-0.04,0.00,-0.09,30.25
3188203,2023,1,201780,245397,0.22,-1.11,11.23,-0.05,-0.00,-0.16,30.25
3228199,1959,1,201145,245004,0.08,-0.28,11.72,-0.04,0.02,-0.08,30.25
3268179,1931,1,200560,244400,-0.23,-1.73,11.01,-0.06,0.03,-0.09,30.25
3308196,1974,1,200080,244269,0.45,-0.56,13.58,-0.06,-0.05,-0.15,30.25
3348199,1879,1,200202,244309,-0.03,-1.05,12.17,-0.07,-0.04,-0.01,30.25
3388212,1904,1,200117,244126,0.35,-0.85,12.60,-0.09,-0.06,-0.08,30.25
3428199,1872,1,199642,243665,-0.20,-1.07,13.00,-0.11,-0.04,-0.10,30.25
3468212,1863,1,199571,243274,0.49,-0.74,11.67,-0.08,-0.11,-0.08,30.25
3508199,1835,1,199320,242950,0.38,-0.53,12.33,-0.11,-0.09,-0.05,30.25
3548199,1805,1,199000,242555,0.02,-1.21,9.46,-0.12,-0.11,-0.17,30.25
3588199,1818,1,198917,242293,0.39,-0.89,10.40,-0.12,-0.11,-0.03,30.25
3628199,1814,1,198806,241905,0.70,-1.35,9.02,-0.12,-0.10,-0.01,30.25
3668199,1806,1,198725,241758,0.97,-0.51,7.18,-0.10,-0.16,-0.09,30.25
3708196,1798,1,198442,241783,-0.24,-2.30,9.31,-0.10,-0.01,-0.11,30.25
3748214,1791,1,198363,241851,-0.38,-1.67,10.06,-0.03,-0.05,-0.27,30.25
3788212,1810,1,198433,241814,0.14,-0.59,9.36,0.01,-0.08,-0.10,30.25
3828179,1779,1,198720,242188,-0.15,-1.77,9.62,-0.03,-0.01,-0.00,30.25
3868212,1826,1,198969,242500,0.07,-1.30,9.64,-0.01,-0.03,-0.00,30.25
3908199,1811,1,199138,242485,0.30,-1.27,9.04,0.03,-0.05,0.00,30.25
3948166,1795,1,198986,242119,-0.52,-2.30,9.38,0.01,0.06,0.01,30.25
3988856,1851,1,198791,241823,-0.35,-1.19,8.76,0.05,-0.05,0.01,29.93
4027181,1808,1,198613,242236,-0.36,-2.14,10.11,0.04,0.04,0.01,29.93
4067170,1807,1,198146,242084,-0.45,-1.96,9.86,0.08,-0.02,-0.12,29.93
4107199,1809,1,198163,242065,0.06,-1.06,10.13,0.09,-0.06,-0.01,29.93
4147179,1839,1,198131,242320,0.19,-0.94,11.56,0.02,0.02,-0.01,29.93
4187167,1824,1,198242,242509,0.15,-1.64,10.31,0.03,-0.07,-0.00,29.93
4227178,1847,1,198557,242836,0.89,-0.25,10.13,0.01,-0.14,-0.01,29.93
4267179,1851,1,198322,242487,-0.12,-1.69,12.65,-0.05,0.05,-0.01,29.93
4307199,1872,1,198425,242515,0.29,-0.46,9.23,0.03,-0.14,-0.04,29.93
4347177,1885,1,198213,242489,-0.20,-1.24,12.53,-0.05,0.07,-0.00,29.93
4387199,1893,1,198303,242808,0.03,-0.59,10.46,0.00,-0.08,-0.03,29.93
4427176,1856,1,198682,242887,0.59,-0.14,11.64,-0.05,-0.14,-0.01,29.93
4467199,1851,1,198400,242480,0.34,-0.77,10.07,-0.07,0.06,-0.01,29.93
4507176,1873,1,198238,242252,0.75,-0.57,10.62,-0.06,-0.17,-0.01,29.93
4547199,1882,1,198072,241927,1.35,-0.50,9.33,-0.06,-0.11,-0.02,29.93
4587199,1793,1,198079,241979,0.48,-0.93,7.66,-0.07,-0.06,0.00,29.93
4627179,1858,1,197996,242110,0.51,-1.73,9.01,-0.09,0.02,-0.00,29.93
4667176,1810,1,198177,242506,0.56,-0.45,10.62,-0.03,-0.07,0.00,29.93
4707179,1835,1,197952,242377,0.46,-1.24,9.00,-0.02,-0.07,-0.16,29.93
4747196,1888,1,198491,242422,0.68,-1.09,9.14,-0.02,-0.09,-0.01,29.93
4787199,1920,1,198554,242871,0.92,-1.01,11.33,-0.07,0.03,-0.01,29.93
4827216,1919,1,199301,243623,1.58,1.04,4.90,0.05,-0.34,0.32,29.93
4867147,1934,1,199608,243535,1.40,-1.84,8.89,-0.06,0.02,0.03,29.93
4907166,1932,1,199619,244007,-0.05,-0.82,9.62,-0.04,0.22,0.00,29.93
4947179,2000,1,199167,243984,1.03,-2.03,9.84,-0.01,-0.02,-0.15,29.93
4987199,2033,1,199297,244091,0.62,-0.28,9.03,0.03,-0.01,0.00,29.93
5027856,2074,1,199008,243862,-0.33,-1.58,10.72,-0.02,0.18,0.00,29.83
5066179,2064,1,199525,244776,0.90,-0.32,9.05,0.08,-0.18,-0.00,29.83
5106179,2061,1,200416,245355,1.28,-0.79,10.80,-0.02,0.03,0.10,29.83
5146166,1982,1,200333,244993,0.26,-0.20,8.01,-0.01,0.03,0.01,29.83
5186170,1994,1,200092,244021,0.94,-1.14,11.21,-0.01,-0.00,-0.01,29.83
5226199,2015,1,199988,244001,0.42,-0.33,11.05,-0.05,-0.01,0.00,29.83
5266179,2004,1,199734,243151,-0.07,-1.75,9.62,-0.04,0.16,0.00,29.83
5306176,1940,1,199545,243816,0.15,-0.76,11.66,-0.02,-0.02,0.01,29.83
5346179,1920,1,199108,243741,0.27,-0.82,10.40,0.01,0.08,-0.01,29.83
5386166,1952,1,199074,243350,0.06,-0.90,10.07,-0.00,-0.08,0.00,29.83
5426179,1871,1,198956,243511,0.36,-0.71,10.34,-0.04,-0.03,0.00,29.83
5466176,1872,1,199651,243879,1.75,0.20,10.21,-0.01,-0.25,-0.02,29.83
5506178,1865,1,199586,243212,1.39,-0.81,10.63,-0.14,-0.05,0.00,29.83
5546179,1873,1,198978,241680,0.54,0.07,6.73,-0.04,-0.09,0.02,29.83
5586170,1879,1,198712,241647,1.84,-0.65,9.63,-0.12,-0.18,0.13,29.83
5626179,1811,1,198603,241861,0.98,-0.74,7.70,-0.05,0.11,0.02,29.83
5666170,1810,1,198903,242902,0.42,-1.88,9.39,-0.08,0.05,-0.00,29.83
5706176,1761,1,198902,242936,-0.08,-0.32,10.99,-0.02,-0.03,-0.24,29.83
5746214,1795,1,199313,243860,0.66,-2.13,10.51,-0.02,-0.12,-0.00,29.83
5786199,1808,1,201162,245019,1.11,-0.08,10.26,0.02,-0.20,0.01,29.83
5826170,1831,1,201543,244750,-1.26,-3.54,16.32,-0.14,0.48,0.76,29.83
5866179,1677,1,201111,243898,0.85,-0.67,8.92,0.09,-0.26,0.02,29.83
5906170,1725,1,201473,245542,-0.62,-1.87,13.17,-0.11,0.17,0.15,29.83
5946179,1727,1,201377,245371,0.34,-1.21,8.03,0.03,0.02,0.01,29.83
5986148,1777,1,200946,244771,-0.20,-0.77,13.93,-0.13,-0.02,0.00,29.83
6026202,1798,1,200989,245092,0.21,-0.79,9.11,0.03,-0.06,-0.00,29.83
6066865,1813,1,201231,245113,0.71,-0.71,12.49,-0.16,-0.00,-0.01,29.55
6105199,1829,1,201086,245117,0.42,-0.94,11.06,-0.07,-0.00,-0.00,29.55
6145199,1840,1,200621,244764,0.40,-1.28,13.10,-0.11,0.09,-0.01,29.55
6185176,1878,1,200526,244548,0.59,-0.77,9.63,-0.07,-0.10,-0.00,29.55
6225219,1890,1,199942,243752,-0.31,-1.81,12.45,-0.14,0.09,-0.00,29.55
6265219,1902,1,199739,243692,0.42,-0.71,8.40,-0.05,-0.05,-0.04,29.55
6305199,1905,1,199698,243479,-0.09,-1.79,9.16,-0.09,0.05,0.00,29.55
6345176,1936,1,199351,242858,0.91,-1.23,7.03,-0.08,-0.17,-0.01,29.55
6385199,1914,1,199429,242928,-0.27,-1.45,8.01,-0.11,0.17,0.01,29.55
6425179,1925,1,198917,242003,1.09,-0.82,5.27,-0.03,-0.16,-0.01,29.55
6465227,1901,1,199040,242254,-0.47,-2.32,11.06,-0.14,0.28,0.00,29.55
6505179,1904,1,198896,242244,-0.01,-1.51,7.39,0.03,-0.10,-0.02,29.55
6545199,1914,1,199119,241822,0.04,-0.53,9.83,-0.00,0.08,0.00,29.55
6585166,1899,1,199265,242551,0.23,-1.95,8.01,0.01,-0.05,0.01,29.55
6625170,1923,1,199290,241892,0.91,-1.31,8.03,0.00,-0.03,-0.01,29.55
6665176,1894,1,199822,243978,0.30,-0.87,9.23,-0.02,0.03,0.01,29.55
6705170,1895,1,199689,243774,0.66,-0.34,8.42,0.00,0.03,-0.04,29.55
6745166,1868,1,199740,244383,0.31,-1.49,13.54,-0.02,0.09,-0.01,29.55
6785179,1805,1,199216,243647,0.62,-0.19,11.65,-0.03,-0.09,-0.25,29.55
6825199,1713,1,198465,242728,-0.38,-1.42,15.13,-0.01,0.06,-0.05,29.55
6865199,1739,1,198569,243454,-0.05,-1.05,13.35,-0.01,-0.15,-0.03,29.55
6905212,1744,1,199106,243589,-1.03,-1.59,14.99,-0.03,0.06,-0.02,29.55
6945199,1820,1,200037,244549,0.28,-1.45,10.56,-0.02,-0.20,-0.02,29.55
6985199,1805,1,199367,243582,-1.54,-1.76,13.02,-0.12,0.17,-0.02,29.55
7025207,1875,1,199271,243397,0.17,-0.81,10.86,-0.06,-0.17,-0.03,29.55
7065199,1922,1,198604,243317,-0.59,-1.94,9.87,-0.08,-0.01,-0.18,29.55
7105902,1919,1,198860,243168,0.23,-2.18,9.07,-0.08,-0.12,-0.03,29.31
7146196,1908,1,198549,242893,0.59,-0.43,8.89,-0.11,-0.11,-0.03,29.31
7186199,1872,1,198502,241483,0.34,-1.56,6.86,-0.06,-0.06,0.05,29.31
7226176,1865,1,197396,238173,0.92,-1.71,7.04,-0.09,-0.04,-0.02,29.31
7266199,1867,1,197028,238395,-0.52,-1.21,7.77,-0.03,0.05,0.00,29.31
7304176,1927,1,196983,238500,0.74,-1.23,6.74,0.02,-0.03,-0.01,29.31
7344178,1921,1,197460,238631,-0.56,-1.37,8.10,0.02,0.10,-0.00,29.31
7384176,1936,1,197487,239933,0.36,-1.33,7.23,0.09,0.04,0.01,29.31
7424147,1939,1,197958,239949,0.85,-1.83,7.47,0.02,0.02,-0.01,29.31
7464166,1923,1,198115,240444,-0.16,-0.70,7.41,0.09,0.07,0.00,29.31
7504170,1939,1,198172,240122,1.11,-0.68,8.66,0.08,-0.03,-0.00,29.31
7544176,1954,1,198606,241495,-0.76,-1.20,8.75,0.07,0.17,0.17,29.31
7584170,1973,1,199166,243050,1.02,-1.56,9.88,0.07,-0.01,-0.00,29.31
7624176,1936,1,199824,244176,-0.26,-1.37,9.64,0.04,0.05,0.01,29.31
7664170,1904,1,199644,244224,0.16,-1.08,10.40,0.04,-0.00,-0.01,29.31
7704176,1866,1,199626,244306,-0.52,-1.43,13.07,0.04,-0.00,-0.01,29.31
7744199,1838,1,199382,244443,-0.51,-0.93,13.51,0.01,-0.04,-0.01,29.31
7784199,1807,1,199948,244432,0.34,-0.34,14.84,0.03,-0.08,-0.01,29.31
7824178,1859,1,199456,244403,-0.56,-0.91,14.93,-0.06,0.03,-0.01,29.31
7864199,1830,1,199667,244170,0.29,-1.53,14.75,-0.08,-0.10,-0.02,29.31
7904248,1872,1,199461,244050,0.24,-0.29,11.83,-0.12,-0.10,-0.02,29.31
7944199,1872,1,199661,244063,0.86,-1.11,10.73,-0.14,-0.18,-0.02,29.31
7984199,1891,1,199337,242660,0.61,-1.47,9.34,-0.15,-0.11,-0.03,29.31
8024222,1870,1,198605,242163,1.16,0.12,6.26,-0.15,-0.28,0.24,29.31
8064171,1870,1,198582,241141,0.49,-1.31,7.52,-0.15,0.03,-0.01,29.31
8104231,1877,1,198012,241644,0.04,-1.22,4.82,-0.07,-0.14,-0.01,29.31
8144886,1795,1,198685,242130,1.09,-1.77,8.30,-0.11,0.11,-0.02,29.43
8185179,1745,1,199081,243610,0.16,-1.26,7.71,-0.05,-0.01,-0.01,29.43
8225199,1795,1,199192,243060,0.97,-1.13,8.17,-0.01,-0.08,-0.72,29.43
8265199,1815,1,199311,243382,0.41,-1.28,8.88,-0.02,0.05,-0.02,29.43
8305179,1857,1,199182,242648,1.52,-0.93,8.58,-0.01,-0.05,-0.02,29.43
8344196,1919,1,199451,243842,0.65,-1.00,10.47,0.05,0.05,-0.00,29.43
8384169,1972,1,199473,244007,0.33,-1.42,8.35,0.01,0.07,-0.01,29.43
8424167,1941,1,199253,243870,-0.11,-1.46,11.38,0.03,0.08,0.00,29.43
8464170,1926,1,198762,243552,0.06,-0.90,9.54,0.05,0.01,-0.17,29.43
8504166,1925,1,198399,243361,-0.34,-1.99,11.20,0.04,0.06,-0.20,29.43
8544179,1926,1,198025,242405,-0.03,-1.41,12.02,0.03,-0.03,-0.36,29.43
8584198,1950,1,197548,241655,-0.21,-1.01,11.71,0.03,-0.04,-0.03,29.43
8624198,1922,1,197689,241908,-0.43,-1.97,12.69,-0.04,-0.03,-0.02,29.43
8664212,1938,1,197852,242023,0.59,-1.15,11.45,0.01,-0.13,-0.03,29.43
8704179,1888,1,198080,242169,0.48,-0.95,10.33,-0.04,-0.08,-0.03,29.43
8744197,1887,1,198226,242298,0.06,-1.27,10.56,-0.04,-0.03,-0.03,29.43
8784200,1920,1,198324,241926,0.45,-0.86,10.15,-0.03,-0.13,-0.03,29.43
8824199,1886,1,198585,242057,0.68,-1.04,9.22,-0.03,-0.13,-0.03,29.43
8864199,1886,1,198810,242361,0.12,-1.17,10.27,-0.03,-0.03,-0.03,29.43
8904199,1846,1,198838,242791,0.57,-1.07,9.05,0.00,-0.10,-0.03,29.43
8944179,1840,1,199039,242927,0.44,-1.04,8.44,-0.03,-0.03,-0.03,29.43
8984196,1889,1,199114,243018,0.67,-1.18,8.93,-0.02,-0.10,-0.03,29.43
9024265,1933,1,199185,243074,0.47,-0.86,8.79,-0.04,-0.04,-0.04,29.43
9064196,1879,1,199116,243162,1.13,-0.90,8.33,-0.05,-0.07,-0.04,29.43
9104199,1931,1,199065,242825,1.17,-0.19,8.60,-0.04,-0.02,-0.04,29.43
9144196,1919,1,199129,243323,1.01,-0.70,9.81,-0.02,0.03,-0.03,29.43
9184866,1904,1,199319,244261,1.03,-0.87,9.65,-0.01,0.02,-0.03,29.05
9223176,1926,1,199429,244290,1.00,-0.93,10.02,-0.01,0.02,-0.03,29.05
9263179,1936,1,199390,244248,0.63,-0.92,9.51,0.01,-0.06,-0.02,29.05
9303176,1872,1,198898,242524,0.68,-1.08,8.97,-0.00,-0.03,-0.03,29.05
9344199,1843,1,198520,242841,0.33,-1.05,10.08,0.00,0.01,-0.03,29.05
9384165,1839,1,198527,242694,0.50,-0.79,9.36,0.01,0.03,-0.03,29.05
9424170,1838,1,198487,242819,0.45,-0.31,11.20,0.00,-0.05,-0.02,29.05
9464176,1808,1,198719,243399,0.56,-0.65,10.41,-0.01,0.06,-0.02,29.05
9504179,1825,1,198758,243644,0.81,-0.66,9.89,-0.01,-0.04,-0.04,29.05
9544212,1776,1,198928,243917,0.95,-0.98,12.50,-0.05,0.01,-0.03,29.05
9584179,1820,1,198726,243711,0.63,-0.23,9.20,-0.04,-0.10,-0.03,29.05
9624195,1806,1,198666,243279,0.66,-0.45,10.97,-0.06,0.00,-0.04,29.05
9664178,1839,1,197980,241949,1.25,-0.41,9.86,-0.07,-0.11,-0.04,29.05
9704200,1840,1,197728,241614,-0.12,-0.86,10.15,-0.07,0.09,-0.02,29.05
9744231,1877,1,197526,241267,-0.27,-1.23,8.30,-0.05,-0.02,-0.02,29.05
9784212,1892,1,197612,241334,0.33,-1.76,11.20,-0.06,0.03,-0.03,29.05
9824179,1906,1,197399,241427,-0.17,-1.19,9.65,-0.02,-0.02,-0.02,29.05
9864212,1907,1,197395,241541,0.30,-1.57,8.69,-0.02,-0.03,-0.02,29.05
9904199,1939,1,197884,242820,-0.11,-1.25,10.73,-0.04,0.03,-0.03,29.05
9944224,1943,1,197867,242346,0.83,-1.39,9.64,-0.03,-0.09,-0.03,29.05
9984199,1962,1,197752,241805,0.70,-0.73,9.62,-0.05,-0.02,-0.03,29.05
10024219,1955,1,197268,241060,1.06,-0.94,8.18,-0.04,-0.08,-0.03,29.05
10064199,1937,1,196837,239665,1.12,-0.97,8.41,-0.04,-0.01,-0.03,29.05
10104199,1922,1,196738,240286,0.42,-1.07,9.52,-0.05,0.09,-0.03,29.05
10144179,1901,1,196676,239358,0.53,-0.82,8.92,-0.01,0.00,-0.03,29.05
10184176,1919,1,196734,240829,0.69,-1.59,10.99,-0.01,-0.02,-0.02,29.05
10224886,1967,1,196873,240604,0.13,-1.52,7.98,-0.00,-0.05,-0.02,29.09
10263196,1951,1,197131,241066,0.01,-1.17,9.51,0.00,-0.00,-0.03,29.09
10303179,1921,1,197345,241117,0.35,-1.40,9.98,0.02,0.01,-0.02,29.09
10343167,1906,1,197362,241160,0.44,-0.97,10.07,0.04,-0.02,-0.02,29.09
10384179,1905,1,197599,242092,0.06,-0.87,11.11,0.02,0.09,-0.03,29.09
10424167,1904,1,197858,242663,0.59,-1.07,9.98,0.02,-0.03,-0.03,29.09
10464179,1871,1,198173,243522,0.62,-1.34,10.81,0.01,-0.01,-0.03,29.09
10504179,1891,1,198492,243990,0.21,-0.91,10.59,-0.01,-0.07,-0.03,29.09
10544200,1840,1,198699,244150,1.08,-0.22,11.35,0.03,-0.09,-0.03,29.09
10584179,1856,1,198833,244533,1.23,-0.33,10.92,-0.01,-0.08,-0.02,29.09
10622200,1877,1,198899,243732,0.89,-0.97,8.95,-0.02,-0.10,-0.02,29.09
10662199,1865,1,198400,242230,0.89,-0.57,9.95,-0.02,-0.09,-0.02,29.09
10702199,1856,1,198106,242093,0.62,-1.13,10.66,-0.04,-0.03,-0.02,29.09
10742199,1872,1,198272,242441,0.30,-1.30,10.75,-0.02,-0.03,-0.02,29.09
10782199,1847,1,198778,243254,0.12,-1.49,10.75,-0.03,-0.08,-0.01,29.09
10822199,1867,1,198718,242579,0.54,-0.80,9.47,0.01,-0.05,-0.01,29.09
10862178,1847,1,198394,242567,0.68,-0.76,10.02,-0.01,-0.05,-0.01,29.09
10902199,1857,1,198877,244411,0.89,-0.83,10.62,-0.02,-0.01,-0.02,29.09
10942199,1855,1,199208,244611,1.42,-0.20,9.81,0.00,-0.08,-0.02,29.09
10982176,1868,1,199505,245445,1.46,0.12,10.86,-0.00,-0.07,-0.01,29.09
11022179,1881,1,199470,244782,1.44,-0.89,8.88,-0.04,-0.09,-0.02,29.09
11062199,1887,1,199344,245375,1.24,-0.81,10.60,-0.04,-0.01,-0.02,29.09
11102199,1883,1,199414,245269,0.92,-0.98,9.44,-0.03,-0.01,-0.01,29.09
11142199,1885,1,199171,245321,0.95,-0.97,7.86,0.02,-0.10,-0.01,29.09
11182195,1854,1,199318,244643,1.03,-0.55,9.79,-0.04,0.01,-0.01,29.09
11222176,1840,1,198684,244668,1.69,-0.14,7.45,0.03,-0.24,-0.01,29.09
11262865,1827,1,199148,244411,0.94,-0.81,10.17,-0.06,0.10,-0.00,28.69
11303176,1881,1,198730,244658,1.11,-0.31,7.69,0.03,-0.16,-0.01,28.69
11343179,1869,1,199248,244787,0.98,-0.35,10.22,-0.07,0.08,-0.01,28.69
11384179,1929,1,198719,244314,1.55,-0.07,9.58,0.01,-0.05,-0.02,28.69
11422179,1915,1,198612,243679,1.33,-1.06,10.02,-0.04,0.10,-0.03,28.69
11462179,1900,1,198596,243532,0.85,-0.53,10.70,-0.02,0.02,-0.02,28.69
11502179,1887,1,198392,243651,1.09,-0.57,9.09,-0.01,-0.06,-0.02,28.69
11542196,1875,1,198484,243533,0.97,-0.89,9.06,-0.06,0.01,-0.03,28.69
11582199,1929,1,198509,243801,1.39,-1.09,10.35,-0.03,-0.01,-0.03,28.69
11622199,1903,1,198894,244846,0.65,-0.46,10.86,-0.08,0.01,-0.03,28.69
11662179,1899,1,198842,244283,0.78,-0.60,9.38,-0.04,-0.01,-0.03,28.69
11702196,1870,1,199089,244701,0.44,-1.34,11.65,-0.08,-0.00,-0.03,28.69
11742199,1884,1,198564,243716,1.13,-0.65,8.55,-0.07,-0.11,-0.04,28.69
11782199,1863,1,198902,243981,-0.15,-1.29,11.80,-0.09,0.17,0.01,28.69
11822179,1873,1,198400,243196,1.10,-0.67,8.94,-0.05,-0.06,-0.04,28.69
11862196,1896,1,198796,243516,-0.23,-1.62,13.31,-0.11,0.13,-0.03,28.69
11902200,1852,1,197972,242348,1.58,0.13,7.84,-0.04,-0.12,-0.05,28.69
11942179,1830,1,198296,243214,0.42,-1.75,11.41,-0.11,0.12,0.02,28.69
11982171,1855,1,197834,242328,1.26,0.00,7.20,-0.03,-0.05,-0.04,28.69
12022176,1824,1,198330,242945,0.91,-1.62,11.34,-0.12,0.06,-0.04,28.69
12062179,1845,1,198253,243083,1.18,-0.32,9.39,-0.07,-0.02,-0.04,28.69
12102199,1870,1,198770,243922,0.13,-1.85,12.26,-0.07,0.18,-0.03,28.69
12142179,1876,1,198386,243297,0.86,-1.07,9.47,-0.01,-0.07,-0.03,28.69
12182199,1863,1,198579,242407,-0.57,-2.24,10.64,-0.08,0.10,-0.03,28.69
12222199,1879,1,197877,241087,0.77,0.08,7.89,0.02,-0.13,0.16,28.69
12262836,1877,1,198181,241934,0.13,-1.94,11.66,-0.07,0.16,0.06,28.71
12301171,1925,1,197997,242463,0.99,-0.79,7.59,0.03,-0.12,-0.03,28.71
12341179,1892,1,198520,242852,-0.10,-0.81,9.04,-0.06,0.10,-0.04,28.71
12381199,1875,1,198312,242839,0.74,-1.15,9.47,-0.04,-0.08,-0.04,28.71
12422199,1870,1,198506,242260,0.66,-1.20,10.71,-0.07,0.04,-0.05,28.71
12462179,1886,1,198399,243143,1.18,-0.93,9.67,-0.01,-0.09,-0.03,28.71
12502199,1906,1,198762,242736,0.24,-1.38,11.23,-0.08,0.10,-0.04,28.71
12542179,1876,1,198456,243169,0.48,-0.35,9.15,0.05,-0.16,-0.03,28.71
12582179,1872,1,198947,243188,0.29,-1.84,11.14,-0.08,0.12,-0.04,28.71
12622179,1876,1,198705,243609,0.33,-1.36,9.19,0.01,-0.08,-0.03,28.71
12662179,1882,1,198864,243595,0.31,-1.53,11.11,-0.03,-0.01,-0.03,28.71
12702199,1861,1,198580,243357,0.31,-1.39,7.98,0.00,-0.14,-0.03,28.71
12742179,1879,1,198870,242972,0.08,-1.31,10.20,-0.07,0.06,-0.04,28.71
12782179,1904,1,198371,243067,0.63,-1.12,7.98,-0.02,-0.12,-0.03,28.71
12822199,1905,1,198582,242789,0.36,-1.73,10.11,-0.05,0.10,-0.04,28.71
12862179,1908,1,197926,242026,0.31,-0.72,8.78,-0.01,-0.05,-0.03,28.71
12902199,1891,1,197947,241680,0.41,-1.10,9.21,-0.04,0.01,-0.04,28.71
12942179,1910,1,197816,241695,1.41,-0.72,9.56,0.00,-0.09,-0.04,28.71
12982176,1910,1,198222,242539,0.56,-1.50,10.40,-0.05,0.04,-0.03,28.71
13022200,1916,1,197980,242696,0.72,-0.30,8.12,0.02,-0.14,-0.04,28.71
13062176,1931,1,198333,242675,0.60,-1.24,9.02,-0.04,0.01,-0.04,28.71
13102179,1904,1,198353,243347,0.85,-1.19,9.59,-0.03,-0.08,-0.04,28.71
13142199,1899,1,198714,243529,0.31,-1.16,9.97,-0.02,0.09,-0.03,28.71
13182179,1935,1,198933,244296,0.55,-0.89,10.36,0.00,-0.00,-0.03,28.71
13222176,1903,1,199022,244006,0.54,-1.35,10.20,-0.01,-0.03,-0.03,28.71
13262199,1903,1,199116,244387,0.18,-1.34,9.87,-0.00,-0.03,-0.03,28.71
13302886,1893,1,198972,243615,0.82,-1.55,9.93,-0.03,-0.00,-0.04,28.65
13341199,1875,1,199000,244545,0.22,-1.00,10.39,-0.00,0.04,-0.03,28.65
13381179,1904,1,198914,243577,0.96,-0.36,9.93,-0.01,-0.02,-0.04,28.65
13421199,1866,1,198654,243917,-0.08,-1.08,10.37,-0.03,-0.00,-0.03,28.65
13461212,1902,1,198578,243323,1.11,-0.86,9.67,-0.04,0.04,-0.04,28.65
13501179,1886,1,198536,243747,0.93,-1.09,9.82,-0.01,-0.08,-0.04,28.65
13541199,1908,1,198864,243660,0.82,-1.27,11.00,-0.05,-0.01,-0.03,28.65
13581199,1879,1,198522,243513,0.51,-0.62,9.34,-0.01,-0.04,-0.03,28.65
13621196,1869,1,198715,243387,0.74,-1.03,9.92,-0.04,-0.01,-0.04,28.65
13661200,1854,1,198461,243343,1.10,-1.58,8.75,-0.03,-0.13,-0.03,28.65
13701199,1872,1,198999,244087,0.14,-1.49,11.50,-0.09,0.13,-0.03,28.65
13741179,1881,1,198313,243402,0.89,0.30,8.02,0.02,-0.13,-0.04,28.65
13781166,1875,1,198549,244017,0.46,-1.73,9.50,-0.09,0.08,-0.03,28.65
13821179,1866,1,198654,243711,0.58,-1.20,10.51,-0.08,0.01,-0.04,28.65
13861179,1892,1,198736,243832,0.52,-1.13,11.55,-0.02,0.00,-0.03,28.65
13901179,1875,1,198801,244194,0.14,-1.02,10.21,-0.05,0.00,-0.03,28.65
13941179,1858,1,198891,243961,0.47,-1.64,10.83,-0.06,0.01,-0.04,28.65
13981179,1883,1,198496,243972,1.42,-0.17,9.67,-0.02,-0.08,-0.04,28.65
14021210,1904,1,198956,244572,0.81,-0.66,9.85,-0.07,0.09,-0.04,28.65
14061179,1894,1,199077,244347,0.45,-1.36,10.14,-0.05,-0.04,-0.04,28.65
14101199,1879,1,198853,243900,1.09,-0.47,11.09,-0.05,-0.07,-0.03,28.65
14141199,1866,1,198723,244331,0.62,-1.26,7.79,-0.04,-0.03,-0.01,28.65
14181199,1884,1,198752,243954,1.05,-1.60,9.10,-0.03,0.01,-0.04,28.65
14221179,1920,1,198882,244705,0.37,-1.35,10.53,-0.05,-0.02,-0.03,28.65
14261199,1872,1,198905,243549,-0.03,-1.41,8.55,-0.03,-0.00,-0.03,28.65
14301214,1883,1,198478,243163,0.24,-1.33,10.50,-0.03,0.02,-0.02,28.65
14341866,1891,1,198275,242570,0.45,-1.30,9.26,-0.01,-0.01,-0.03,28.59
14380200,1907,1,198197,242809,0.35,-1.06,10.02,-0.01,0.01,-0.03,28.59
14420179,1876,1,197925,242050,0.47,-1.11,9.11,-0.02,-0.01,-0.03,28.59
14460203,1867,1,197872,242867,0.53,-0.24,10.30,-0.02,0.04,-0.04,28.59
14500176,1871,1,198125,243230,1.26,-0.91,9.96,-0.02,0.04,-0.04,28.59
14540179,1901,1,198485,244540,1.04,-0.96,10.31,-0.03,-0.03,-0.03,28.59
14580199,1907,1,198789,244054,0.90,-0.86,9.45,-0.02,-0.07,-0.04,28.59
14620199,1878,1,199106,245327,0.89,-0.74,11.19,-0.03,-0.04,-0.03,28.59
14660199,1904,1,199197,244857,0.98,-1.05,8.92,-0.03,-0.01,-0.04,28.59
14700199,1871,1,199533,245846,0.38,-1.53,11.54,-0.06,0.04,-0.03,28.59
14740179,1861,1,199382,245418,0.12,-1.36,10.43,-0.05,0.08,-0.03,28.59
14780179,1890,1,199259,245855,0.20,-1.36,10.55,-0.00,-0.08,-0.03,28.59
14820199,1894,1,199508,245415,-0.21,-1.46,11.41,-0.05,0.08,-0.03,28.59
14860217,1857,1,199278,245243,0.85,-1.07,10.37,-0.03,-0.15,-0.04,28.59
14900199,1897,1,199280,244654,0.14,-1.30,10.53,-0.05,0.10,-0.04,28.59
14940179,1854,1,199044,244933,0.57,-1.05,9.59,-0.02,-0.13,-0.02,28.59
14980199,1863,1,199085,244996,0.39,-0.95,9.61,-0.06,0.11,-0.03,28.59
15020179,1869,1,198622,244213,0.77,-0.71,8.20,-0.03,-0.09,-0.04,28.59
15060196,1858,1,197998,242042,1.36,-1.18,8.84,-0.06,-0.04,-0.04,28.59
15100199,1853,1,197893,242632,0.09,-1.40,9.84,-0.09,0.04,-0.03,28.59
15140176,1882,1,197458,241209,1.29,-0.53,9.06,-0.03,-0.08,-0.04,28.59
15180200,1858,1,197522,241761,0.12,-1.67,9.32,-0.06,0.05,-0.01,28.59
15220179,1872,1,197420,241402,1.08,-2.01,8.94,-0.04,-0.03,-0.04,28.59
15260199,1862,1,197751,242655,-0.06,-0.98,10.63,-0.02,0.09,-0.03,28.59
15300199,1850,1,197968,242170,0.57,-0.99,8.38,0.02,-0.06,-0.03,28.59
15340179,1877,1,198183,243571,0.06,-1.48,11.88,-0.04,0.02,-0.02,28.59
15380866,1878,1,198022,242953,0.52,-1.29,7.39,0.00,-0.04,-0.03,28.63
15421179,1883,1,198350,244195,0.80,-0.79,9.74,0.01,-0.02,-0.02,28.63
15461176,1890,1,198560,243669,0.27,-1.29,9.26,-0.04,0.05,-0.03,28.63
15499179,1899,1,198533,244257,0.10,-0.98,11.28,-0.01,0.02,-0.03,28.63
15539176,1905,1,198291,243083,0.43,-0.99,8.64,-0.02,0.00,-0.04,28.63
15579179,1914,1,198183,243495,1.19,-1.19,11.29,-0.03,-0.06,-0.04,28.63
15619199,1922,1,198186,242536,0.51,-1.09,10.36,-0.04,0.09,-0.04,28.63
15659179,1881,1,198029,242888,0.31,-0.68,9.18,0.02,-0.11,-0.03,28.63
15699179,1911,1,198457,242637,0.73,-1.75,11.25,-0.06,0.09,-0.04,28.63
15739179,1891,1,197887,242441,0.55,-1.70,7.16,0.03,-0.14,-0.03,28.63
15779179,1899,1,197747,241478,0.91,-1.21,9.05,-0.04,0.04,-0.04,28.63
15819179,1904,1,197631,240845,-0.00,-1.53,8.66,-0.04,0.02,-0.03,28.63
15859196,1890,1,197264,240577,0.28,-0.97,9.21,-0.01,-0.04,-0.03,28.63
15899199,1904,1,197955,241712,-0.59,-1.63,12.08,-0.06,0.13,-0.03,28.63
15939199,1933,1,197696,242286,0.43,-2.15,9.58,0.02,-0.07,-0.03,28.63
15979178,1910,1,198355,243424,-0.46,-1.54,10.41,-0.06,0.07,-0.03,28.63
16019199,1911,1,198220,243618,0.96,-0.90,8.36,0.04,-0.15,-0.04,28.63
16059179,1919,1,198842,244386,0.05,-0.54,11.64,-0.08,0.08,-0.04,28.63
16099176,1901,1,198612,243980,1.31,-0.79,9.59,-0.04,-0.14,-0.05,28.63
16139200,1923,1,198830,243892,0.92,-0.58,12.34,-0.09,0.05,-0.05,28.63
16179179,1919,1,198438,243554,0.45,-1.20,10.94,-0.03,0.02,-0.04,28.63
16219179,1911,1,198110,242766,-0.03,-1.78,10.14,-0.05,0.01,-0.04,28.63
16259199,1901,1,197818,242456,0.13,-1.64,9.90,-0.04,0.00,-0.04,28.63
16299184,1899,1,197682,242230,0.36,-1.41,9.96,-0.02,-0.04,-0.04,28.63
16339199,1891,1,197763,242394,-0.24,-1.75,9.66,-0.02,0.03,-0.03,28.63
16379199,1907,1,197867,242821,0.27,-1.40,9.79,-0.02,-0.04,-0.03,28.63
16419886,1855,1,198371,243388,-0.16,-2.08,10.91,-0.03,0.09,-0.03,28.65
16460199,1891,1,198503,243949,-0.54,-2.31,9.56,0.03,0.03,-0.02,28.65
16500204,1862,1,198466,242495,0.51,-1.59,10.98,-0.00,-0.04,-0.04,28.65
16540199,1872,1,197789,241639,0.28,-0.50,7.99,0.05,-0.08,-0.03,28.65
16580176,1869,1,197984,241613,0.85,-1.89,10.38,-0.08,0.05,-0.04,28.65
16620179,1887,1,197696,241605,0.32,-1.15,9.21,0.00,0.02,-0.04,28.65
16660167,1899,1,197823,242848,1.24,-1.14,10.81,-0.04,-0.01,-0.02,28.65
16700200,1901,1,197548,241699,0.39,-0.95,5.84,0.00,-0.06,-0.04,28.65
16740176,1878,1,197988,242270,0.14,-1.62,11.02,-0.07,-0.00,-0.03,28.65
16780199,1899,1,197516,241755,0.39,-1.68,7.91,-0.00,-0.07,-0.04,28.65
16820199,1878,1,198237,243360,0.15,-1.30,12.22,-0.03,0.12,-0.04,28.65
16860179,1854,1,198158,243182,0.73,-0.64,10.05,0.03,-0.09,-0.04,28.65
16900176,1862,1,198560,244213,0.55,-1.92,10.60,-0.02,-0.01,-0.03,28.65
16940199,1889,1,198578,243632,0.35,-1.07,10.16,-0.03,0.06,-0.04,28.65
16980179,1851,1,198891,245206,0.10,-1.88,11.49,0.03,-0.05,-0.03,28.65
17020179,1899,1,198971,244385,1.11,-0.63,11.57,-0.04,0.00,-0.04,28.65
17060179,1869,1,198971,245040,-1.20,-1.46,10.90,0.01,0.04,-0.02,28.65
17100179,1868,1,198333,242209,1.86,0.15,8.25,0.01,-0.10,-0.05,28.65
17140169,1869,1,197570,241177,0.52,-2.33,13.62,-0.14,0.12,0.74,28.65
17178170,1879,1,196315,236893,2.17,-0.18,7.23,-0.02,0.00,-0.08,28.65
17218176,1869,1,196275,238620,1.08,-0.94,11.42,-0.06,0.03,-0.04,28.65
17258179,1877,1,196110,237912,1.55,0.33,7.64,0.00,-0.11,-0.39,28.65
17298170,1841,1,196287,237771,1.21,-1.39,10.56,-0.05,0.01,-0.05,28.65
17338179,1867,1,196257,239041,1.30,-0.29,9.29,0.01,-0.06,-0.04,28.65
17378176,1872,1,197103,240619,1.26,-0.79,9.63,-0.03,-0.02,-0.04,28.65
17418199,1851,1,197639,242093,0.69,-0.26,10.42,0.02,0.01,-0.04,28.65
17458856,1840,1,197993,241484,-0.03,-1.35,10.90,-0.02,0.04,-0.04,28.59
17499199,1851,1,197951,242290,1.26,-0.63,9.10,0.02,-0.14,-0.04,28.59
17539179,1873,1,198430,242585,0.35,-0.80,10.68,-0.06,0.12,-0.04,28.59
17579179,1899,1,198293,243859,0.88,0.10,8.77,0.04,-0.11,-0.04,28.59
17619167,1871,1,198717,243525,0.43,-1.57,11.50,-0.10,0.15,-0.06,28.59
17659179,1890,1,198384,243961,1.39,0.19,8.56,0.03,-0.14,-0.05,28.59
17699170,1904,1,198732,243970,1.11,-0.77,12.42,-0.12,0.10,-0.05,28.59
17739179,1903,1,198031,243939,0.86,-0.09,7.03,-0.03,-0.11,-0.05,28.59
17779196,1909,1,198290,242844,0.55,-1.29,9.71,-0.12,0.12,-0.06,28.59
17819179,1946,1,197368,241902,1.25,-1.07,8.17,-0.04,-0.11,-0.04,28.59
17859199,1956,1,197629,241443,-0.45,-2.38,11.50,-0.10,0.19,-0.05,28.59
17899199,1954,1,197038,241756,-0.03,-0.64,7.72,0.02,-0.10,-0.04,28.59
17939247,1903,1,197945,243208,-0.34,-2.09,12.15,-0.09,0.14,-0.04,28.59
17979199,1909,1,197740,242168,1.08,-0.48,5.35,0.02,-0.21,-0.10,28.59
18019179,1902,1,198088,243168,0.51,-1.65,10.31,-0.11,0.11,-0.03,28.59
18059179,1936,1,198131,243911,-0.14,0.19,7.45,-0.03,0.13,-0.03,28.59
18099179,1939,1,198712,246153,0.29,-0.66,10.63,-0.08,0.01,-0.06,28.59
18139233,1974,1,199398,247311,0.37,-0.66,12.61,-0.05,0.07,-0.32,28.59
18179179,1929,1,198841,246423,0.64,-0.08,8.89,-0.02,-0.09,-0.12,28.59
18219199,1903,1,198490,245485,1.15,-0.29,9.98,-0.05,-0.02,-0.05,28.59
18259199,1873,1,198153,244808,1.31,-0.48,8.85,-0.09,-0.11,-0.05,28.59
18299199,1872,1,197975,243663,0.72,-0.22,9.69,-0.04,0.12,-0.05,28.59
18339179,1842,1,198006,244520,0.45,-0.42,12.59,-0.15,-0.04,-0.04,28.59
18379200,1863,1,197716,244876,0.17,-0.52,10.29,0.00,0.08,-0.04,28.59
18419166,1885,1,197760,244536,0.07,-1.59,8.20,-0.02,-0.05,-0.04,28.59
18459886,1879,1,198005,244609,-0.04,-1.91,9.53,-0.06,0.01,-0.04,29.09
18498199,1869,1,197760,242939,-0.40,-0.68,9.52,0.01,-0.04,-0.04,29.09
18538199,1810,1,197344,242038,0.60,-0.37,11.63,0.02,-0.03,-0.04,29.09
18578179,1814,1,197085,241795,-0.11,-0.36,9.88,-0.02,0.01,-0.04,29.09
18618199,1838,1,197268,243210,-0.14,-0.68,9.86,0.03,0.11,-0.04,29.09
18658179,1867,1,197689,243264,-0.46,-0.81,9.01,0.00,0.06,-0.04,29.09
18698179,1883,1,197738,244763,0.26,-0.81,10.38,0.01,-0.07,-0.04,29.09
18738179,1889,1,198326,245325,-0.21,-0.06,10.29,-0.01,0.02,-0.04,29.09
18778199,1890,1,198302,246356,0.54,0.63,8.43,0.03,-0.12,-0.04,29.09
18818167,1893,1,199045,248011,0.04,-0.35,10.01,-0.07,0.03,-0.03,29.09
18858179,1885,1,199376,248917,0.01,-0.14,9.41,0.01,-0.02,-0.04,29.09
18898176,1900,1,199419,247792,0.29,-0.79,11.10,-0.00,-0.04,-0.10,29.09
18938199,1889,1,198997,247154,-0.64,-0.34,11.89,-0.01,-0.04,-0.01,29.09
18978212,1870,1,198670,246636,-1.43,-0.36,9.80,0.04,0.04,-0.03,29.09
19018178,1817,1,198764,246610,-0.87,-0.40,10.62,0.02,-0.04,0.02,29.09
19058176,1565,1,198674,246772,-0.66,-1.25,9.70,-0.03,0.04,-0.01,29.09
19098199,1462,1,198627,246762,-1.03,-0.11,9.62,0.00,0.01,-0.06,29.09
19138179,1801,1,198480,245847,-0.19,-0.07,10.22,-0.01,-0.11,-0.10,29.09
19178209,1798,1,198159,245072,-0.26,-0.05,10.92,-0.06,-0.08,-0.04,29.09
19218212,1680,1,197571,243384,0.07,0.18,8.49,-0.06,-0.12,-0.05,29.09
19258179,1651,1,197165,244142,0.68,1.36,10.24,-0.03,-0.08,-0.05,29.09
19298179,1684,1,197778,244753,-0.23,0.82,9.94,-0.07,0.16,-0.05,29.09
19338178,1796,1,197779,246042,0.31,1.82,9.47,-0.00,-0.11,-0.04,29.09
19377178,1911,1,198452,245890,-0.28,-0.72,11.60,-0.07,0.05,-0.30,29.09
19417199,2011,1,197912,246197,-0.21,-0.03,6.36,0.00,-0.08,-0.04,29.09
19457196,2085,1,198806,245950,-0.57,-0.93,12.78,-0.11,0.18,-0.08,29.09
19497886,2129,1,197973,245235,0.25,0.47,8.12,0.02,-0.20,-0.00,29.19
19538166,2096,1,198359,245200,-1.25,-1.47,11.39,-0.10,0.08,0.03,29.19
19578219,2061,1,197843,244586,0.99,0.02,10.02,-0.01,-0.14,-0.03,29.19
19618179,2044,1,198260,245604,-0.40,-0.26,10.54,-0.07,0.11,-0.01,29.19
19658199,2027,1,198250,245515,1.04,1.23,8.53,-0.01,-0.11,-0.04,29.19
19698179,2032,1,198805,246219,-0.36,0.14,10.36,-0.06,0.07,-0.03,29.19
19738179,2000,1,198816,245794,0.41,1.25,10.32,-0.01,0.01,-0.04,29.19
19778170,1961,1,199003,245889,0.00,-0.15,11.70,-0.04,0.01,-0.03,29.19
19818179,1957,1,199026,245569,-0.03,0.56,10.83,-0.11,0.00,-0.03,29.19
19858179,1946,1,198542,244532,0.13,1.12,9.41,0.01,-0.07,-0.03,29.19
19898171,1935,1,198343,243037,0.03,-0.59,9.43,-0.07,0.01,-0.03,29.19
19938176,1955,1,197783,242460,-0.20,-0.44,10.18,-0.09,-0.02,-0.02,29.19
19978214,1951,1,197777,243805,-0.54,-0.62,8.33,0.01,0.05,-0.03,29.19
20018176,1930,1,198186,242780,0.54,1.24,9.13,-0.01,-0.03,-0.03,29.19
20058179,1943,1,198192,245048,0.18,-0.15,9.24,-0.06,-0.01,0.15,29.19
20098179,1905,1,198419,243142,0.14,0.80,7.22,-0.02,-0.00,-0.03,29.19
20138179,1927,1,197803,243842,0.62,1.06,10.67,-0.06,-0.02,0.65,29.19
20178170,1827,1,198363,242631,0.33,-0.99,8.44,-0.00,0.12,-0.01,29.19
20218179,1862,1,198211,244141,0.52,1.45,11.63,-0.06,0.03,0.55,29.19
20258148,1846,1,199063,244671,0.90,-0.49,8.73,0.02,0.02,-0.01,29.19
20298170,1857,1,199458,246154,-0.51,0.43,9.83,-0.02,-0.03,0.26,29.19
20338179,1843,1,199971,246420,-0.26,-0.75,12.34,0.00,0.12,-0.02,29.19
20378179,1853,1,199845,246552,-0.37,1.50,10.72,0.05,-0.12,-0.17,29.19
20417179,1833,1,200145,246853,0.23,0.52,13.83,0.03,-0.07,-0.02,29.19
20457170,1840,1,200254,246764,0.79,1.13,11.71,-0.04,-0.08,-0.01,29.19
20497179,1873,1,199996,244754,-0.25,-0.77,11.11,-0.05,-0.00,0.33,29.19
20537886,1883,1,199850,243214,-0.11,0.26,12.12,-0.09,0.09,0.04,28.69
20576166,1918,1,199528,243942,-0.28,-0.82,8.47,-0.04,0.20,0.18,28.69
20616179,1918,1,199689,243315,-0.45,-0.28,9.86,-0.03,0.04,-0.01,28.69
20656199,1872,1,199369,244226,-0.40,0.08,8.54,0.01,-0.06,-0.00,28.69
20696179,1901,1,199550,243645,-0.13,0.00,8.32,-0.02,0.01,-0.01,28.69
20736176,1872,1,199803,245628,0.17,-0.28,11.99,-0.01,0.00,-0.01,28.69
20776179,1904,1,199863,245484,0.86,-0.35,9.35,-0.01,-0.07,-0.03,28.69
20816199,1867,1,200293,246094,0.06,-0.53,9.76,-0.01,-0.07,-0.01,28.69
20856199,1872,1,200499,245650,0.96,0.28,8.73,-0.03,-0.07,-0.02,28.69
20896176,1869,1,200445,246271,0.33,0.44,9.81,-0.02,0.07,-0.00,28.69
20936170,1862,1,200470,246327,0.62,-0.28,11.69,-0.07,0.06,-0.02,28.69
20976179,1838,1,200399,246730,0.79,0.78,11.18,-0.01,-0.08,-0.01,28.69
21016179,1851,1,200840,247377,0.69,-0.10,9.26,-0.07,-0.23,0.00,28.69
21056176,1857,1,200852,246864,1.06,1.87,9.17,-0.08,-0.04,-0.01,28.69
21096178,1887,1,200604,246200,1.47,0.91,9.64,-0.07,-0.01,0.09,28.69
21136170,1920,1,199725,243546,1.53,0.66,10.23,-0.13,0.09,-0.04,28.69
21176171,1958,1,199464,244171,0.77,0.16,11.44,-0.10,-0.03,-0.01,28.69
21216230,1941,1,199429,243778,1.17,0.90,9.11,-0.08,-0.03,-0.01,28.69
21256178,1904,1,199848,245145,-0.43,-0.55,11.09,-0.13,0.16,0.00,28.69
21296179,1930,1,199531,243201,0.26,-0.76,8.35,-0.04,-0.11,-0.01,28.69
21336199,1914,1,199168,243858,0.09,0.34,10.06,-0.01,-0.02,-0.00,28.69
21376176,1955,1,199589,244525,-0.30,-1.72,11.74,-0.16,0.16,-0.00,28.69
21416229,1936,1,199085,244242,-0.49,-0.42,7.66,0.05,-0.09,-0.01,28.69
21456199,1914,1,199742,245194,-0.05,-0.33,10.45,-0.05,-0.04,-0.01,28.69
21496216,1911,1,199518,243719,0.30,0.34,7.73,-0.01,0.03,-0.01,28.69
21536166,1889,1,199473,244478,0.14,-1.12,10.97,-0.03,0.06,-0.02,28.69
21576865,1920,1,199490,243287,0.99,0.92,9.58,-0.02,0.04,-0.02,28.53
21617179,1921,1,199663,244421,-0.23,-0.22,11.96,-0.10,-0.09,0.00,28.53
21657199,1918,1,199787,244410,0.63,-0.23,8.86,0.00,0.07,-0.01,28.53
21697166,1920,1,200194,244908,-0.08,-0.63,9.87,-0.04,-0.02,-0.00,28.53
21737214,1904,1,200372,244917,0.17,-0.76,10.72,-0.05,0.04,-0.01,28.53
21777179,1872,1,200241,244287,-0.27,-0.55,12.92,-0.07,0.03,-0.00,28.53
21817199,1877,1,199380,243501,0.71,-0.16,7.74,0.06,-0.22,0.00,28.53
21857167,1859,1,199646,243021,0.02,-0.39,9.83,-0.11,0.12,-0.01,28.53
21897179,1872,1,198859,241621,0.44,0.14,7.61,0.00,-0.05,-0.01,28.53
21937167,1886,1,198707,241676,1.14,0.13,10.57,-0.09,-0.01,-0.02,28.53
21977179,1870,1,198603,242317,1.35,1.42,10.58,-0.03,0.01,-0.02,28.53
22017170,1854,1,198737,242198,1.17,0.42,10.32,-0.04,-0.09,-0.01,28.53
22057179,1839,1,198791,242499,1.02,-0.23,10.00,-0.07,0.07,-0.00,28.53
22097176,1847,1,199143,243222,0.66,-0.62,9.57,-0.03,0.01,-0.01,28.53
22137179,1840,1,199373,243347,0.38,-0.45,10.90,-0.04,-0.01,-0.01,28.53
22177199,1874,1,199531,244866,-0.21,-0.98,11.14,-0.03,-0.00,-0.00,28.53
22217216,1890,1,199739,244166,0.51,1.03,8.94,0.05,-0.07,-0.01,28.53
22257167,1855,1,200008,244399,-0.21,-1.08,11.46,-0.04,0.18,0.01,28.53
22295178,1900,1,199449,243537,0.49,0.56,7.55,0.03,-0.18,0.06,28.53
22335147,1930,1,199639,244022,0.24,-1.06,12.67,-0.10,0.10,0.01,28.53
22375170,1936,1,199146,244293,0.56,-0.84,7.65,0.03,-0.08,-0.02,28.53
22415176,1947,1,199832,244476,-0.22,-1.93,10.02,-0.11,0.09,-0.01,28.53
22455199,1973,1,199547,243513,-0.51,-0.20,8.41,-0.04,-0.08,-0.00,28.53
22495212,1979,1,199180,243594,0.63,-0.37,9.71,-0.06,-0.05,-0.01,28.53
22535200,1942,1,199164,243819,-0.61,-1.28,8.73,-0.07,0.18,-0.00,28.53
22575199,1936,1,198958,243591,0.57,0.05,8.53,-0.03,-0.11,-0.14,28.53
22615865,1914,1,199223,244548,0.34,-0.48,11.63,-0.06,0.07,-0.01,28.63
22656179,1903,1,199165,244038,0.20,-0.84,8.70,-0.05,-0.00,-0.02,28.63
22696199,1926,1,199517,245084,0.27,-0.96,12.90,-0.07,0.04,-0.02,28.63
22736179,1919,1,198886,242734,0.13,-1.06,7.09,-0.04,0.04,-0.07,28.63
22776179,1929,1,198953,243918,-0.63,-1.88,12.67,-0.14,-0.01,-0.02,28.63
22816213,1919,1,198896,243968,0.23,-0.73,10.49,-0.03,0.09,-0.02,28.63
22856199,1875,1,198998,244530,-0.15,-0.66,11.17,-0.05,-0.04,-0.02,28.63
22896212,1886,1,199174,244617,0.29,-0.92,8.90,-0.03,0.03,-0.02,28.63
22936179,1869,1,199395,244325,-0.46,-1.15,9.93,-0.07,0.08,-0.02,28.63
22976199,1911,1,199098,243252,1.28,-0.72,9.15,-0.02,-0.12,-0.02,28.63
23016199,1911,1,199185,243873,0.32,-0.85,11.01,-0.13,0.08,0.08,28.63
23056209,1888,1,198821,243257,0.94,-0.87,7.92,-0.07,-0.04,-0.03,28.63
23096199,1868,1,198994,244161,0.36,-0.92,8.63,-0.07,-0.02,-0.02,28.63
23136199,1855,1,199352,244110,0.60,-0.84,7.76,-0.07,0.02,-0.03,28.63
23176178,1855,1,199459,244099,-0.10,-1.15,9.52,-0.07,0.03,-0.02,28.63
23216199,1873,1,199200,243469,0.84,-1.47,9.38,-0.06,-0.06,-0.03,28.63
23256219,1901,1,199298,242913,-0.53,-1.16,9.39,-0.08,0.07,-0.02,28.63
23296199,1906,1,198876,243260,1.05,-0.69,10.11,-0.02,-0.12,-0.03,28.63
23336200,1907,1,199009,242600,0.80,-0.57,9.68,-0.05,0.13,-0.03,28.63
23376176,1933,1,198840,242977,0.13,-1.42,9.80,-0.04,-0.02,-0.03,28.63
23416199,1862,1,198765,241435,0.60,-0.72,8.75,-0.03,0.05,-0.04,28.63
23456176,1857,1,198823,243917,-0.51,-0.84,12.45,-0.08,0.05,-0.02,28.63
23495199,1976,1,199043,243402,0.26,-0.62,9.29,0.03,-0.03,-0.36,28.63
23535179,1951,1,199415,245355,-0.11,-1.67,12.77,-0.03,0.00,-0.02,28.63
23575199,1885,1,199665,244924,0.39,-1.66,10.77,-0.06,0.02,-0.07,28.63
23615866,1863,1,199401,244942,-0.23,-1.06,10.46,-0.01,-0.10,-0.03,28.45
23656216,1899,1,199168,243719,0.84,-0.58,10.58,-0.05,-0.03,-0.03,28.45
23696199,1883,1,198359,242685,0.09,-0.66,8.89,-0.04,-0.07,-0.03,28.45
23736199,1893,1,198485,242032,0.71,-0.97,10.34,-0.02,0.06,-0.04,28.45
23776179,1919,1,197907,241682,0.55,-0.76,11.16,-0.03,-0.03,-0.03,28.45
23816199,1909,1,197668,241227,0.78,-1.07,9.38,-0.04,-0.07,-0.03,28.45
23856199,1926,1,198006,241731,0.24,-0.99,9.39,-0.06,0.01,-0.03,28.45
23896179,1874,1,198091,242080,0.86,-1.02,9.74,-0.03,-0.10,-0.02,28.45
23936199,1899,1,198161,242214,0.29,-1.00,9.08,-0.06,-0.03,-0.02,28.45
23974199,1904,1,197898,241373,1.01,-0.98,8.17,-0.03,-0.04,-0.03,28.45
24014199,1920,1,197704,240936,0.35,-0.86,8.28,-0.05,-0.04,-0.02,28.45
24054199,1973,1,197768,240176,0.85,-0.54,10.17,-0.02,0.07,-0.02,28.45
24094179,1907,1,197782,241257,0.09,-0.89,10.69,-0.01,0.08,-0.01,28.45
24134178,2012,1,197958,241975,0.62,-0.97,10.42,0.02,-0.01,-0.02,28.45
24174179,2158,1,198360,242741,-0.03,-1.53,10.76,-0.02,0.05,-0.01,28.45
24214199,2193,1,198458,242856,0.22,-1.75,10.39,-0.00,-0.05,-0.01,28.45
24254199,2134,1,198349,242406,0.25,-1.15,8.97,0.00,-0.07,-0.01,28.45
24294179,2119,1,198533,243352,0.52,-1.59,9.59,0.00,0.03,-0.01,28.45
24334167,2119,1,198573,242359,0.81,-0.55,9.70,-0.01,-0.04,-0.02,28.45
24374199,2112,1,198644,243032,0.68,-0.70,11.43,-0.04,0.01,-0.01,28.45
24414179,2047,1,198469,242277,1.00,-0.64,9.37,-0.03,-0.07,-0.02,28.45
24454199,1974,1,198570,242656,0.75,-0.93,11.48,-0.07,0.03,-0.01,28.45
24494199,1936,1,198381,242585,1.05,-0.72,9.69,-0.04,-0.04,-0.01,28.45
24534200,1875,1,198062,242227,0.20,-1.40,9.73,-0.07,0.06,-0.01,28.45
24574176,1854,1,198051,242214,0.64,-1.25,9.79,-0.04,-0.08,-0.01,28.45
24614199,1843,1,198127,242297,0.49,-1.02,10.12,-0.06,-0.03,-0.00,28.45
24654886,1831,1,198300,242216,1.12,-1.28,9.80,-0.02,-0.07,-0.00,28.53
24695222,1837,1,198382,241844,0.79,-0.94,9.13,-0.04,-0.08,-0.00,28.53
24735196,1818,1,198692,241678,-0.17,-2.04,10.75,-0.07,0.12,0.01,28.53
24775179,1805,1,198264,240486,1.31,-0.64,9.99,-0.01,-0.15,0.00,28.53
24815179,1813,1,198537,241221,0.36,-1.43,8.44,-0.05,0.09,-0.00,28.53
24855179,1818,1,198716,241327,0.75,-0.80,9.27,-0.03,-0.09,-0.00,28.53
24895214,1837,1,198802,241782,0.52,-1.30,9.21,-0.05,0.05,0.00,28.53
24935170,1840,1,199135,243407,0.07,-1.21,9.56,-0.04,0.08,0.00,28.53
24975167,1836,1,199170,243527,0.59,-0.97,9.68,-0.03,-0.05,-0.12,28.53
25015199,1815,1,199549,244582,0.67,-1.00,11.54,-0.02,-0.01,-0.00,28.53
25055196,1823,1,199483,244254,0.61,-0.64,10.47,-0.07,0.05,-0.01,28.53
25095179,1815,1,199313,243925,0.85,-0.58,11.52,-0.07,-0.13,-0.00,28.53
25135199,1869,1,198911,242188,1.47,-0.80,10.08,-0.09,-0.01,-0.01,28.53
25175200,1872,1,198589,242494,-0.15,-1.88,9.54,-0.09,0.09,-0.00,28.53
25215199,1905,1,198374,242206,0.65,-1.23,9.86,-0.04,0.01,-0.01,28.53
25255179,1881,1,198589,243512,0.10,-1.24,12.84,-0.07,0.02,0.00,28.53
25295170,1835,1,198336,242474,1.10,-0.77,7.59,-0.02,-0.09,-0.05,28.53
25335199,1820,1,198311,241245,0.32,-1.25,7.66,-0.05,-0.11,-0.00,28.53
25375199,1895,1,198303,241409,0.64,-1.43,9.83,-0.06,0.08,0.01,28.53
25415171,1883,1,197873,242116,0.54,-0.83,6.83,-0.00,-0.02,0.00,28.53
25455176,1902,1,198404,243868,1.08,-1.61,8.98,-0.06,0.04,-0.01,28.53
25495179,1885,1,198734,243383,0.33,-1.26,9.67,-0.03,-0.01,-0.12,28.53
25535199,1827,1,198484,242506,0.91,-0.63,9.49,0.01,-0.09,0.00,28.53
25575170,1846,1,198699,242766,0.30,-1.48,11.36,-0.06,0.12,-0.00,28.53
25615179,1854,1,198286,242333,0.55,-0.63,10.52,0.02,-0.09,0.01,28.53
25655857,1851,1,198576,243064,0.52,-0.84,11.32,-0.02,0.10,0.01,28.63
25694170,1863,1,198341,242288,0.17,-0.74,8.45,0.00,-0.02,0.00,28.63
25734170,1901,1,198546,242353,0.58,-1.70,11.35,-0.04,0.00,-0.01,28.63
25774176,1919,1,198364,243566,-0.02,-1.09,11.34,-0.06,-0.00,-0.00,28.63
25814214,1925,1,198013,241428,0.82,-0.76,9.11,-0.02,-0.10,-0.01,28.63
25854199,1883,1,198262,242618,0.54,-1.51,11.97,-0.10,-0.04,-0.00,28.63
25894199,1899,1,197928,240561,0.59,-0.41,7.66,-0.07,-0.04,-0.01,28.63
25934199,1901,1,197882,241487,0.56,-1.49,11.75,-0.08,0.01,-0.01,28.63
25974179,1930,1,197790,240548,1.00,-0.57,8.90,-0.10,-0.04,-0.01,28.63
26014196,1946,1,197739,242489,0.51,-1.05,11.42,-0.07,-0.01,-0.00,28.63
26054199,1946,1,197575,240673,1.56,-0.89,7.87,-0.03,-0.06,-0.01,28.63
26094199,1929,1,197537,241153,0.94,-0.60,10.45,-0.09,0.02,-0.01,28.63
26134179,1909,1,197554,241042,1.20,-0.55,8.52,-0.06,0.01,-0.00,28.63
26174176,1915,1,197840,242878,0.43,-1.10,11.65,-0.07,0.07,0.00,28.63
26214170,1956,1,198074,241941,1.18,-0.77,9.25,-0.01,-0.06,-0.00,28.63
26254199,1920,1,198303,242400,0.56,-1.29,11.67,-0.05,0.04,0.00,28.63
26294170,1951,1,198231,242222,0.06,-1.32,8.28,0.00,0.05,0.01,28.63
26334164,1919,1,197996,241351,0.48,-1.56,11.23,-0.02,0.00,0.00,28.63
26374170,1914,1,197886,242718,0.17,-1.99,11.16,-0.01,-0.03,0.01,28.63
26414179,1863,1,198258,242279,0.04,-1.14,8.95,0.01,0.01,0.00,28.63
26454148,1875,1,198684,243948,0.26,-2.03,12.64,-0.02,-0.06,0.01,28.63
26494179,1885,1,198925,243318,-0.01,-0.91,9.69,-0.04,0.01,0.00,28.63
26534179,1920,1,199112,244544,-0.29,-0.81,13.39,-0.04,-0.08,0.01,28.63
26574199,1935,1,199322,243702,0.63,-1.38,10.62,-0.04,-0.04,0.00,28.63
26614179,1908,1,199213,244155,-0.47,-1.25,12.82,-0.05,0.06,0.00,28.63
26654179,1899,1,199277,244336,0.67,-0.80,11.09,-0.03,-0.03,0.00,28.63
26694865,1878,1,199048,244484,0.45,-0.59,9.27,-0.05,-0.07,0.00,28.53
26733176,1886,1,199011,243315,1.16,-1.35,7.81,-0.06,-0.04,-0.01,28.53
26773199,1907,1,198749,242692,1.03,-1.28,11.39,-0.14,-0.07,-0.01,28.53
26813199,1925,1,198081,241209,0.42,-0.68,7.99,-0.04,0.01,-0.00,28.53
26853179,1959,1,197411,239909,0.83,-1.22,8.45,-0.08,-0.03,-0.00,28.53
26893199,1930,1,197606,242325,0.23,-1.61,10.89,-0.04,0.14,0.00,28.53
26933171,1903,1,198556,245207,-0.55,-2.37,8.93,0.02,0.01,-0.24,28.53
26973179,1872,1,199457,246247,0.21,-1.35,9.42,0.07,0.04,-0.26,28.53
27013171,1860,1,199610,246675,-0.52,-2.29,9.64,0.05,-0.01,0.01,28.53
27053179,1912,1,199302,244583,1.41,-0.96,7.92,0.06,-0.10,-0.00,28.53
27093179,1901,1,198820,244229,0.13,-0.67,9.70,0.01,0.06,0.01,28.53
27133148,1885,1,198733,244142,1.01,-0.38,11.11,-0.00,0.09,-0.00,28.53
27173179,1849,1,198622,244885,0.17,-0.39,10.25,0.02,0.04,0.01,28.53
27213147,1874,1,199194,245838,0.18,-0.35,9.95,0.01,0.12,-0.00,28.53
27253170,1850,1,199254,245762,0.40,-0.10,11.60,-0.05,-0.10,0.00,28.53
27293176,1873,1,199591,245932,0.06,-1.77,12.76,-0.05,0.04,0.01,28.53
27333171,1926,1,199195,244948,0.29,-0.61,9.30,-0.06,-0.07,-0.00,28.53
27373196,1926,1,199110,245275,0.07,-1.82,11.34,-0.08,0.02,0.00,28.53
27413170,1962,1,198718,244784,0.52,-0.63,8.71,-0.06,-0.01,-0.01,28.53
27453199,1874,1,198901,245046,0.53,-1.81,10.38,-0.12,0.01,-0.01,28.53
27493179,1867,1,198783,244426,0.25,-0.58,9.77,-0.12,-0.01,-0.01,28.53
27533199,1869,1,198273,243031,0.58,-0.80,9.73,-0.12,-0.06,-0.01,28.53
27573199,1945,1,197890,242250,0.95,-1.03,8.84,-0.10,0.03,-0.02,28.53
27613179,1970,1,198259,244409,0.57,-1.22,11.58,-0.10,0.11,-0.01,28.53
27653179,1946,1,198808,245090,0.17,-2.34,10.87,-0.05,0.02,-0.05,28.53
27693179,1919,1,198543,244143,-0.04,-1.14,7.53,-0.02,-0.05,-0.03,28.53
27733900,1894,1,198814,244575,-0.13,-1.41,9.00,-0.04,0.01,0.01,28.51
27772176,1906,1,198131,241805,0.82,-1.29,8.84,-0.06,-0.00,-0.01,28.51
27812199,1898,1,197211,241751,0.04,-1.58,7.98,-0.05,0.00,-0.00,28.51
27852176,1881,1,197637,241537,0.77,-1.09,10.42,-0.05,0.07,-0.01,28.51
27892179,1914,1,197379,242459,0.28,-0.84,8.42,0.01,-0.09,0.00,28.51
27932167,1936,1,197843,242722,1.13,-0.80,8.35,-0.06,0.05,-0.01,28.51
27972190,1899,1,197971,243585,0.13,-0.75,9.68,-0.03,0.02,-0.01,28.51
28012179,1891,1,198004,244378,1.91,-1.45,9.81,-0.02,-0.04,-0.02,28.51
28052200,1886,1,198405,244742,-0.09,0.11,10.60,-0.01,0.05,-0.01,28.51
28092176,1866,1,198601,245361,0.97,-1.63,11.60,0.02,-0.03,-0.01,28.51
28132179,1904,1,198753,245260,0.65,-1.08,10.36,-0.03,-0.05,-0.02,28.51
28172210,1926,1,198895,245802,-0.37,-0.80,10.46,-0.03,0.07,-0.00,28.51
28212199,1935,1,198861,245793,0.51,-0.49,13.93,-0.00,-0.00,-0.01,28.51
28252196,1872,1,198694,245479,-0.30,-0.28,11.13,0.02,0.01,-0.01,28.51
28292178,1844,1,199177,245808,1.61,-0.63,10.52,-0.03,-0.17,-0.02,28.51
28332199,1837,1,198935,244735,0.53,-1.30,11.65,-0.15,0.11,-0.00,28.51
28372178,1853,1,198648,244633,0.52,-0.80,10.76,-0.02,-0.17,-0.01,28.51
28412199,1879,1,198427,243327,1.10,-0.69,10.55,-0.09,-0.02,-0.01,28.51
28452199,1869,1,197786,241842,-0.72,-2.84,8.97,-0.09,-0.03,-0.00,28.51
28492213,1927,1,196947,238625,0.85,-0.61,9.46,-0.04,-0.11,-0.02,28.51
28532199,1894,1,196682,240505,-0.48,-1.20,11.41,-0.06,0.10,0.00,28.51
28572179,1888,1,197061,241831,-0.38,-1.60,8.20,-0.02,0.03,-0.01,28.51
28612199,1906,1,197456,242567,0.32,-1.25,10.93,-0.01,-0.11,-0.05,28.51
28652199,1873,1,198170,243572,0.46,-0.88,10.01,-0.01,-0.10,0.00,28.51
28692179,1939,1,198329,243484,0.00,-0.73,9.25,-0.03,-0.04,-0.01,28.51
28732196,1968,1,198224,243321,0.65,-1.70,10.34,-0.04,0.02,-0.02,28.51
28772865,1948,1,197589,241555,0.70,-0.21,10.06,-0.04,-0.08,-0.01,28.57
28813196,1903,1,197285,240460,0.47,-0.91,9.74,-0.03,-0.06,-0.01,28.57
28853199,1901,1,196900,239515,0.78,-0.26,7.88,-0.02,0.02,0.19,28.57
28893170,1936,1,197108,240620,0.83,-1.02,10.37,-0.04,0.05,0.00,28.57
28933170,1902,1,197165,242717,-0.02,-0.75,8.58,0.03,0.00,0.00,28.57
28971166,1970,1,198176,244576,-0.39,-1.75,9.93,-0.02,0.08,-0.00,28.57
29011199,1953,1,198716,245321,-0.47,-1.54,10.41,0.04,-0.06,-0.02,28.57
29051199,1920,1,198949,244924,1.00,-1.47,8.64,0.03,-0.18,0.01,28.57
29091171,1914,1,198640,243571,0.71,-0.63,8.92,-0.03,-0.10,0.10,28.57
29131176,1934,1,198329,242207,0.72,-0.69,9.76,-0.03,0.01,0.01,28.57
29171170,1937,1,197693,241715,0.28,-0.55,8.70,-0.01,0.02,-0.00,28.57
29211176,1925,1,197111,239639,0.05,-0.95,8.86,-0.04,0.11,-0.01,28.57
29251179,1993,1,196920,243013,0.39,-0.65,11.17,0.02,-0.05,0.00,28.57
29291167,1953,1,198550,245290,0.36,-2.01,10.26,0.05,0.04,-0.45,28.57
29331171,1954,1,198745,245837,-0.38,-0.98,10.13,0.03,-0.10,-0.04,28.57
29371199,1927,1,198839,245029,0.85,-1.18,11.12,-0.03,-0.05,-0.01,28.57
29411200,1878,1,198809,245851,-0.01,-0.09,11.12,0.00,-0.09,0.00,28.57
29451176,1879,1,199089,245989,1.12,-0.60,10.97,-0.04,-0.00,-0.01,28.57
29491199,1890,1,198840,245446,0.11,-0.44,10.64,-0.07,0.03,-0.01,28.57
29531179,1903,1,198174,242837,0.84,-0.24,8.77,-0.06,-0.06,-0.01,28.57
29571199,1871,1,197694,242074,-0.05,-0.35,11.20,-0.12,0.01,0.01,28.57
29611179,1904,1,197259,241831,0.60,-0.22,8.53,-0.06,0.03,-0.01,28.57
29651179,1872,1,197540,243491,0.33,-0.91,10.85,-0.08,0.03,-0.00,28.57
29691176,1904,1,197669,243004,-0.41,-0.97,7.19,-0.05,0.00,0.00,28.57
29731179,1869,1,197727,243701,-0.06,-0.55,9.44,-0.03,-0.09,0.00,28.57
29771195,1902,1,198224,244827,0.12,-0.61,9.76,0.00,0.04,0.00,28.57
29811836,1871,1,198702,245305,-0.07,-0.90,9.07,-0.01,-0.05,0.00,28.65
29852195,1862,1,198498,242988,0.28,-0.88,9.81,0.01,0.02,-0.00,28.65
29892169,1876,1,197963,242482,0.08,0.11,10.98,-0.01,-0.03,0.10,28.65
29932167,1847,1,198131,242519,-0.05,-1.07,10.66,-0.00,0.14,0.01,28.65
29972178,1861,1,198671,245043,-0.08,-0.42,11.73,0.02,0.00,0.02,28.65
30012167,1873,1,198987,245075,0.21,-0.82,10.66,-0.01,0.00,0.00,28.65
30052170,1840,1,199019,245035,-0.15,-0.62,10.88,-0.00,-0.12,0.01,28.65
30092199,1885,1,199110,244368,-0.32,-1.00,12.50,-0.05,0.05,0.01,28.65
30132179,1898,1,198679,244159,0.10,-0.08,10.10,-0.01,-0.11,0.12,28.65
30172179,1893,1,198327,242748,0.12,0.34,8.60,-0.01,-0.03,0.01,28.65
30212170,1905,1,198058,243800,0.84,-0.45,9.27,-0.06,-0.04,0.21,28.65
30252179,1909,1,198275,244394,0.97,-0.58,10.66,-0.08,0.01,0.01,28.65
30292171,1932,1,198002,243575,-0.14,-0.96,7.20,0.04,-0.06,0.01,28.65
30332176,1939,1,197923,242348,0.31,-0.57,10.05,-0.09,-0.10,0.01,28.65
30372179,1904,1,197527,241996,-0.24,-0.63,8.80,-0.02,-0.00,0.03,28.65
30412196,1957,1,197648,242677,0.90,-1.30,9.09,-0.04,-0.10,0.01,28.65
30452179,1904,1,198091,244300,0.61,-0.48,10.70,-0.03,0.04,0.01,28.65
30492166,1845,1,198750,244855,-0.12,-1.57,8.75,0.02,-0.04,0.03,28.65
30532178,1842,1,198894,243802,0.29,-1.34,11.32,-0.01,-0.14,0.02,28.65
30572179,1933,1,198819,244012,0.61,-1.58,11.33,-0.02,0.16,0.34,28.65
30612170,1906,1,198878,244656,-0.31,-1.40,10.08,0.04,0.10,0.03,28.65
30652167,1893,1,198816,245407,0.64,-1.66,9.88,0.03,-0.06,0.02,28.65
30690170,1919,1,198679,244902,0.64,-0.38,7.59,0.01,-0.01,-0.06,28.65
30730179,1890,1,198416,243569,0.71,-0.52,9.80,-0.06,-0.16,0.01,28.65
30770179,1919,1,198041,243248,0.82,-0.24,7.93,-0.02,-0.10,0.02,28.65
30810179,1904,1,198402,243672,0.69,-0.42,10.14,-0.07,0.03,0.02,28.65
30850856,1921,1,198598,244971,0.65,-0.37,9.13,-0.03,-0.06,0.02,28.47
30891179,1962,1,198992,245297,0.76,-0.01,8.59,-0.03,-0.04,0.02,28.47
30931179,1936,1,198920,243940,0.76,-0.33,8.78,-0.04,0.00,0.02,28.47
30971166,1899,1,198170,243930,1.15,-0.69,8.10,-0.04,-0.08,0.02,28.47
31011179,1891,1,198758,244739,0.95,-0.76,12.32,-0.13,0.08,0.01,28.47
31051170,1921,1,198452,244975,0.82,0.47,10.05,0.04,-0.11,0.02,28.47
31091147,1907,1,198984,245042,0.81,-1.56,10.99,-0.08,0.04,0.02,28.47
31131170,1917,1,198653,243616,-0.07,-1.10,8.94,-0.04,0.07,0.01,28.47
31171178,1919,1,198009,242555,0.21,-1.03,11.48,-0.00,-0.01,0.02,28.47
31211179,1921,1,198086,242946,-0.08,-1.91,10.49,-0.03,0.12,0.02,28.47
31251232,1902,1,197676,243011,0.68,-0.50,9.72,0.00,-0.11,0.02,28.47
31291166,1893,1,198238,244202,0.86,-0.50,10.25,-0.04,0.06,0.01,28.47
31331171,1894,1,197982,243762,0.75,-0.06,8.19,-0.06,-0.02,0.01,28.47
31371176,1917,1,198355,243431,0.45,-1.39,10.88,-0.11,0.08,0.01,28.47
31411171,1917,1,197604,242582,0.26,-0.42,9.24,-0.05,-0.02,0.01,28.47
31451216,1941,1,197587,241992,0.75,-1.53,10.27,-0.11,0.05,0.01,28.47
31491171,1905,1,196909,242489,0.06,-0.70,8.60,-0.06,0.01,0.01,28.47
31531166,1902,1,197702,243466,0.23,-1.41,8.29,-0.10,0.12,-0.00,28.47
31571178,1870,1,197615,243617,0.28,-0.41,11.06,-0.03,-0.01,-0.12,28.47
31611199,1860,1,198209,244822,0.48,-0.99,10.63,-0.06,0.09,-0.00,28.47
31651178,1866,1,198024,243860,0.43,-1.21,10.16,-0.03,-0.01,-0.01,28.47
31691199,1831,1,198005,243663,0.47,-1.18,10.15,-0.05,-0.02,0.00,28.47
31731179,1847,1,197912,243334,0.10,-1.20,9.44,-0.04,0.05,0.00,28.47
31771166,1875,1,197609,242512,0.17,-1.70,9.09,-0.04,0.06,-0.00,28.47
31811179,1841,1,197220,241899,0.25,-0.67,10.26,-0.04,0.03,-0.01,28.47
31851865,1835,1,196730,240692,1.08,-1.28,9.39,-0.02,-0.04,-0.00,28.45
31890199,1806,1,196582,239278,0.00,-1.13,9.63,-0.06,0.05,-0.01,28.45
31930176,1904,1,196380,240099,0.55,-1.21,11.15,-0.03,-0.01,-0.00,28.45
31970199,1897,1,196746,240934,-0.29,-1.13,9.64,-0.04,0.05,0.00,28.45
32010179,1901,1,196851,241274,0.34,-1.64,9.77,-0.03,-0.07,-0.01,28.45
32050199,1879,1,197275,242172,0.37,-1.54,11.13,-0.05,-0.01,-0.01,28.45
32090199,1854,1,197652,243144,0.15,-1.10,11.04,-0.05,-0.04,-0.01,28.45
32130199,1859,1,197830,242912,0.09,-1.02,11.31,-0.03,0.01,-0.01,28.45
32170179,1872,1,197725,242019,-0.28,-0.77,11.32,-0.04,-0.04,-0.01,28.45
32210216,1889,1,197225,241138,0.23,-1.27,10.49,-0.04,-0.01,-0.01,28.45
32250199,1901,1,196702,239810,0.43,-1.21,8.68,-0.06,-0.08,-0.01,28.45
32290199,1918,1,196419,240076,0.24,-1.73,9.05,-0.05,-0.02,-0.01,28.45
32330199,1936,1,196659,240011,-0.08,-1.51,8.71,-0.06,-0.04,-0.01,28.45
32370213,1843,1,196716,241117,0.47,-0.99,9.58,-0.01,-0.10,-0.01,28.45
32410199,1862,1,197487,241442,0.12,-1.19,9.61,-0.06,-0.01,-0.01,28.45
32450199,1919,1,197288,239816,0.68,-0.44,8.09,0.01,-0.17,-0.01,28.45
32490179,1947,1,197016,237467,-0.18,-1.33,8.46,-0.05,0.04,0.44,28.45
32530179,1969,1,196366,235769,0.38,-1.69,9.54,-0.03,0.06,0.57,28.45
32570170,1968,1,196622,238139,0.45,-1.05,9.83,0.02,0.08,0.00,28.45
32610147,1904,1,196999,239172,0.16,-0.58,9.21,0.02,-0.01,-0.01,28.45
32650179,1904,1,197560,239893,0.29,-1.60,10.14,0.01,-0.06,-0.00,28.45
32690179,1946,1,198003,239951,-0.01,-1.16,10.88,0.01,-0.01,-0.00,28.45
32730199,1936,1,198024,240425,0.75,-0.91,9.94,0.03,-0.05,0.06,28.45
32770170,1955,1,198218,241685,-0.35,-1.56,10.66,-0.03,0.08,0.00,28.45
32810179,1957,1,198242,242754,0.31,-1.29,9.89,0.03,-0.04,-0.01,28.45
32850179,1933,1,198640,243307,-0.32,-1.23,10.78,-0.02,-0.01,-0.01,28.45
32890906,1910,1,198559,242654,0.65,-0.05,9.51,0.00,-0.20,-0.01,28.33
32929179,1897,1,198340,240912,0.41,-1.30,10.55,-0.07,0.00,-0.02,28.33
32969176,1904,1,197521,239511,0.56,-1.44,9.61,-0.08,0.04,0.18,28.33
33009171,1920,1,197262,238699,-0.39,-1.88,10.05,-0.07,0.08,-0.01,28.33
33049199,1963,1,196039,239647,0.06,-0.49,7.40,0.03,-0.08,-0.00,28.33
33089225,1949,1,197249,241591,0.08,-2.04,9.69,-0.06,0.14,-0.02,28.33
33129179,1968,1,197504,243663,0.05,0.45,8.26,-0.01,-0.05,-0.15,28.33
33169179,1963,1,197559,242191,0.90,-0.66,9.99,-0.04,-0.07,-0.06,28.33
33209196,1957,1,197431,240993,-0.23,-1.33,10.22,-0.05,-0.03,0.00,28.33
33249199,1904,1,197004,239014,0.21,-1.01,10.20,-0.01,-0.00,0.00,28.33
33289176,1878,1,196732,238514,0.40,-1.44,9.46,-0.03,0.12,0.36,28.33
33329171,1927,1,196545,239280,0.32,-1.18,7.37,-0.02,0.01,0.01,28.33
33369169,1897,1,196793,238863,0.29,-0.85,9.87,-0.03,0.05,-0.01,28.33
33409179,1883,1,196450,239857,0.32,-0.34,10.14,-0.02,0.03,-0.01,28.33
33449179,1887,1,196963,240110,-0.23,-1.37,10.67,-0.04,0.11,-0.01,28.33
33489200,1872,1,197016,240931,-0.32,-0.95,10.89,-0.04,-0.05,0.00,28.33
33530199,1898,1,197299,241052,0.11,-0.83,9.00,-0.02,-0.03,-0.00,28.33
33570199,1879,1,197571,241314,-0.49,-1.41,10.14,-0.05,0.07,0.00,28.33
33610179,1885,1,197495,241657,0.07,-1.44,10.68,-0.04,0.06,-0.00,28.33
33650178,1872,1,197626,241965,-0.19,-1.01,9.52,-0.04,0.02,-0.01,28.33
33690199,1872,1,197702,241642,0.05,-1.22,11.41,-0.07,0.00,-0.00,28.33
33730179,1858,1,197517,241014,-0.29,-1.16,10.88,-0.07,-0.05,0.00,28.33
33770199,1852,1,197541,241296,-0.21,-1.36,10.03,-0.05,0.07,0.01,28.33
33810178,1885,1,197506,240807,0.47,-1.48,8.55,-0.03,-0.00,-0.01,28.33
33850199,1856,1,197875,241784,0.25,-1.44,10.30,-0.04,0.06,-0.00,28.33
33888865,1851,1,197968,241701,0.47,-0.67,9.87,-0.05,0.02,-0.00,28.39
33929176,1875,1,198175,242463,0.42,-1.58,12.07,-0.05,-0.00,0.01,28.39
33969179,1891,1,197652,239217,0.44,-0.46,8.65,-0.02,-0.08,0.01,28.39
34009179,1873,1,197216,238035,0.61,-1.65,10.86,-0.04,0.11,0.45,28.39
34049171,1872,1,197120,238312,0.62,-0.05,9.25,-0.02,0.07,0.38,28.39
34089167,1925,1,198165,241059,0.55,-2.16,10.90,-0.03,0.03,0.03,28.39
34129170,1887,1,198327,241786,0.16,-0.28,8.32,0.02,-0.06,0.02,28.39
34169166,1904,1,199127,242995,0.58,-1.94,11.26,-0.07,0.00,0.01,28.39
34209170,1893,1,199201,243653,-0.16,-0.34,11.02,-0.03,0.04,0.02,28.39
34249179,1912,1,199250,243970,0.17,-1.08,10.83,-0.00,0.03,0.01,28.39
34289170,1920,1,199172,244932,-0.30,-1.05,11.40,-0.02,0.02,0.01,28.39
34329176,1940,1,199032,244967,0.31,-2.03,11.67,-0.02,-0.02,-0.17,28.39
34369199,1943,1,198849,245362,0.19,-0.78,9.07,0.01,-0.05,-0.05,28.39
34409176,1937,1,198513,242645,0.58,-1.63,9.11,-0.05,-0.07,0.01,28.39
34449179,1951,1,197378,241814,-0.24,-0.72,9.32,-0.02,-0.07,0.03,28.39
34489199,1958,1,197244,241631,0.86,-1.20,9.93,-0.04,0.04,0.02,28.39
34528213,1959,1,196854,241960,0.48,-1.09,8.65,-0.02,-0.04,0.00,28.39
34568176,1953,1,197133,243322,0.50,-1.36,8.92,-0.02,-0.01,-0.07,28.39
34608199,1948,1,197929,244850,0.51,-0.91,8.89,-0.00,-0.02,-0.02,28.39
34648196,1924,1,197902,242539,1.00,-0.89,8.89,0.00,-0.10,0.02,28.39
34688170,1925,1,197329,242173,0.70,-1.04,9.49,-0.01,0.04,0.02,28.39
34728171,1903,1,197275,241413,0.84,-0.57,11.04,0.01,0.03,0.02,28.39
34768147,1915,1,196831,241070,1.13,-0.95,11.78,0.01,-0.04,0.02,28.39
34808170,1887,1,196920,241082,0.17,-1.25,10.57,0.02,0.09,0.03,28.39
34848147,1840,1,196462,238264,0.35,-1.23,9.01,0.02,-0.08,0.02,28.39
34888167,1842,1,196208,238214,0.64,-0.47,12.68,-0.02,0.03,0.41,28.39
34928870,1900,1,195889,236309,1.12,-0.56,8.73,-0.02,-0.05,0.17,28.31
34969179,1899,1,195641,235792,0.15,-1.57,12.77,-0.05,0.04,0.42,28.31
35009171,1934,1,195456,235580,1.49,-0.51,8.64,-0.04,-0.04,0.03,28.31
35049179,1901,1,196378,237619,-0.01,-0.80,10.62,-0.07,0.12,0.04,28.31
35089178,1910,1,195910,236716,1.66,-0.48,8.01,-0.04,-0.08,-0.07,28.31
35129199,1902,1,196323,236729,0.36,-0.71,9.99,-0.11,0.02,0.03,28.31
35169170,1886,1,195270,235448,2.02,-0.49,8.15,-0.05,-0.11,0.02,28.31
35209179,1904,1,195991,238703,0.71,-1.28,12.47,-0.14,0.13,0.03,28.31
35249170,1844,1,196373,239838,0.75,-1.24,8.43,0.02,0.03,-0.12,28.31
35289170,1873,1,197107,241621,0.53,-1.58,11.77,-0.08,-0.00,0.02,28.31
35327179,1902,1,197491,242326,0.41,-0.81,9.37,-0.01,0.04,0.04,28.31
35367166,1893,1,197699,242900,0.88,-0.86,9.67,-0.00,-0.12,0.04,28.31
35407179,1891,1,198265,242084,1.12,-1.37,11.43,-0.05,0.03,0.04,28.31
35447170,1921,1,197438,238023,0.40,-0.87,9.28,-0.02,-0.02,0.04,28.31
35487179,1894,1,196783,237995,0.96,-1.43,10.06,-0.02,0.06,0.09,28.31
35527170,1917,1,197080,238292,0.59,-0.79,9.60,-0.05,0.10,0.03,28.31
35567170,1950,1,196694,240238,0.38,-0.90,9.64,-0.00,-0.00,0.04,28.31
35607176,1925,1,197552,241498,1.11,-1.06,10.96,-0.06,0.05,-0.02,28.31
35647178,1905,1,198149,243720,-0.02,-1.16,10.98,-0.03,-0.03,0.03,28.31
35687199,1889,1,198336,243346,1.28,-0.43,9.98,-0.04,-0.11,-0.05,28.31
35727199,1888,1,199161,244165,-0.22,-1.58,11.46,-0.07,0.00,0.08,28.31
35767179,1917,1,198867,242125,0.28,-1.18,10.31,-0.07,0.07,0.03,28.31
35807171,1927,1,198102,242415,-0.12,-1.41,11.73,-0.04,-0.04,0.04,28.31
35847199,1937,1,198223,242822,0.25,-1.90,10.20,-0.04,0.08,0.04,28.31
35887170,1902,1,197994,242351,1.15,0.37,8.47,-0.01,-0.25,-0.11,28.31
35927179,1872,1,198306,241747,0.50,-1.47,8.93,-0.06,-0.09,0.04,28.31
35967865,1891,1,197877,240820,0.37,-0.57,10.34,-0.12,0.12,0.03,28.33
36008170,1933,1,197193,240548,0.60,-1.20,8.47,-0.02,0.04,0.03,28.33
36048170,1946,1,197388,242112,1.05,-0.71,10.66,-0.05,-0.04,0.02,28.33
36088179,1936,1,198297,243686,0.63,-1.98,9.52,-0.04,0.07,0.01,28.33
36128171,1908,1,198486,244182,0.42,-0.96,8.91,0.02,-0.10,0.01,28.33
36168176,1882,1,199274,244881,1.09,-1.49,9.55,-0.04,0.05,0.02,28.33
36208170,1906,1,199086,243753,0.17,-0.67,10.16,-0.01,-0.04,0.03,28.33
36248179,1898,1,198311,242567,1.15,-1.28,10.44,-0.04,-0.01,0.03,28.33
36288179,1914,1,198395,243668,0.04,-0.97,10.18,0.01,0.09,0.03,28.33
36328147,1934,1,198451,243174,0.88,-0.92,8.57,0.00,-0.08,0.03,28.33
36368198,1936,1,198430,243177,0.36,-1.41,9.17,-0.01,0.02,0.03,28.33
36408170,1904,1,198019,242425,0.45,-0.92,9.09,-0.03,0.03,0.03,28.33
36448170,1910,1,197843,242087,0.75,-1.01,10.10,-0.02,-0.04,0.01,28.33
36488179,1902,1,197803,242930,0.86,-0.75,10.61,-0.02,-0.02,0.03,28.33
36528179,1902,1,198451,244495,0.34,-1.09,10.89,-0.04,0.03,0.03,28.33
36568188,1934,1,198706,244979,0.89,-0.22,9.32,0.01,-0.07,-0.10,28.33
36608178,1907,1,199080,245628,0.47,-1.30,10.82,-0.04,0.04,0.03,28.33
36648170,1906,1,198710,244137,0.99,0.15,9.42,-0.03,-0.11,-0.04,28.33
36688179,1894,1,198231,242896,0.80,-0.96,10.40,-0.07,-0.01,0.03,28.33
36728176,1916,1,197841,242808,1.09,-0.75,10.84,-0.06,-0.01,0.02,28.33
36768179,1891,1,198217,243284,0.07,-1.61,11.42,-0.07,0.07,0.02,28.33
36806170,1936,1,198222,243878,0.61,-0.74,9.77,0.00,-0.09,0.01,28.33
36846170,1925,1,198805,244634,0.50,-1.02,10.75,-0.06,0.04,0.03,28.33
36886166,1942,1,198518,244177,0.68,-0.66,8.47,-0.00,-0.08,0.02,28.33
36926179,1919,1,198527,244029,1.33,-0.92,10.13,-0.07,-0.09,0.02,28.33
36966179,1893,1,198384,242305,0.88,-0.69,9.36,-0.06,-0.05,0.02,28.33
37006865,1863,1,197439,239840,0.58,-0.74,8.70,-0.04,-0.02,0.03,28.37
37047176,1905,1,197209,240764,0.68,-1.11,10.08,-0.05,0.09,0.02,28.37
37087170,1947,1,197258,239571,0.57,-0.68,8.77,-0.04,-0.04,0.02,28.37
37127176,1920,1,196961,240708,1.02,-1.05,10.72,-0.03,-0.02,0.03,28.37
37167178,1943,1,197464,241982,0.99,-0.98,8.98,-0.02,0.02,0.03,28.37
37207166,1905,1,197958,243088,1.02,-0.88,10.48,-0.02,-0.05,0.02,28.37
37247178,1878,1,198412,243682,0.69,-0.75,10.41,-0.04,0.04,0.02,28.37
37287166,1862,1,198425,243416,0.75,-0.66,10.85,-0.02,-0.04,0.03,28.37
37327178,1876,1,197967,242253,0.98,-0.93,9.92,-0.04,-0.02,0.03,28.37
37367179,1905,1,197746,243025,0.70,-1.29,9.64,-0.04,0.03,0.03,28.37
37407170,1931,1,197955,243319,0.97,-0.67,9.05,-0.03,-0.01,0.02,28.37
37447176,1901,1,197988,243752,1.06,-0.79,9.04,-0.02,-0.06,0.02,28.37
37487178,1882,1,198699,244990,0.12,-1.02,11.13,-0.08,0.14,0.02,28.37
37527170,1887,1,198423,243622,0.88,-0.41,10.06,-0.04,-0.12,-0.09,28.37
37567199,1870,1,198329,244109,0.58,-1.18,11.71,-0.05,0.06,0.02,28.37
37607169,1891,1,198088,243160,0.83,-0.99,8.37,-0.06,-0.02,0.01,28.37
37647178,1907,1,198401,244640,-0.14,-2.17,10.70,-0.04,0.09,0.02,28.37
37687179,1937,1,198468,244700,1.37,0.02,8.52,-0.03,-0.06,-0.13,28.37
37727179,1920,1,198524,244875,0.85,-0.54,9.67,-0.05,-0.04,-0.23,28.37
37767199,1919,1,198425,244784,0.58,-1.21,9.75,-0.05,-0.04,-0.01,28.37
37807202,1859,1,198218,244051,0.75,-0.80,10.78,-0.07,-0.05,0.02,28.37
37847179,1872,1,198247,244532,-0.38,-2.04,9.87,-0.05,0.02,0.02,28.37
37887178,1907,1,197839,242871,0.49,-0.69,8.49,-0.00,-0.09,0.02,28.37
37927176,1902,1,197890,243071,0.07,-2.60,10.62,-0.07,0.01,0.04,28.37
37967170,1915,1,197401,242218,0.72,-0.71,9.05,-0.04,-0.07,0.02,28.37
38007876,1919,1,197760,243323,0.02,-1.61,10.08,-0.05,0.10,0.02,28.23
38046170,1899,1,197565,243773,0.69,-0.68,8.30,-0.02,-0.11,0.02,28.23
38086176,1858,1,198632,245062,0.11,-1.81,11.93,-0.10,0.05,0.02,28.23
38126170,1897,1,198030,244741,0.31,-0.79,7.52,0.01,-0.09,0.02,28.23
38166166,1871,1,198717,245279,0.06,-2.19,10.81,-0.10,0.10,0.01,28.23
38206187,1943,1,197989,244225,0.40,-0.94,8.09,-0.01,-0.09,0.01,28.23
38246176,1889,1,198154,244594,0.77,-1.81,10.42,-0.09,-0.01,0.01,28.23
38286179,1883,1,198370,245695,0.34,-1.18,9.96,-0.05,0.03,0.01,28.23
38326170,1867,1,198711,245066,0.28,-1.30,10.06,-0.04,-0.03,0.01,28.23
38366179,1840,1,198882,246225,-0.16,-2.13,11.74,-0.04,0.01,0.02,28.23
38406179,1847,1,198977,245129,-0.05,-1.42,10.46,-0.06,-0.02,0.01,28.23
38446199,1905,1,197913,243039,0.35,-1.26,10.31,0.01,-0.11,0.02,28.23
38486169,1930,1,197318,241288,0.73,-1.40,7.61,-0.04,-0.12,0.01,28.23
38526179,1889,1,197174,240935,0.19,-1.09,10.31,-0.05,-0.01,0.01,28.23
38566179,1913,1,196871,242017,0.72,-1.20,9.45,-0.02,-0.04,0.02,28.23
38606179,1933,1,197717,242725,-0.16,-0.93,10.40,-0.02,0.05,0.02,28.23
38646176,1901,1,197088,242190,0.83,-1.49,8.71,0.01,-0.17,0.02,28.23
38686170,1870,1,197544,242562,0.15,-1.48,10.58,-0.06,0.03,0.02,28.23
38726170,1919,1,197064,242046,0.55,-1.65,8.07,0.04,-0.13,0.03,28.23
38766170,1939,1,197394,241971,0.24,-1.22,9.28,-0.02,0.00,0.02,28.23
38806166,1919,1,197339,242452,0.46,-1.45,9.20,0.01,-0.05,0.04,28.23
38846170,1900,1,197428,242045,0.87,-0.72,8.88,0.02,-0.06,0.03,28.23
38886167,1882,1,197265,242809,0.66,-0.67,9.86,0.00,-0.03,0.04,28.23
38926170,1872,1,197403,242218,0.31,-1.09,7.08,0.04,0.04,0.03,28.23
38966147,1936,1,197410,242647,0.53,-1.28,10.99,0.00,-0.07,0.03,28.23
39006170,1935,1,197520,243870,0.68,-0.83,8.83,0.02,-0.01,0.04,28.23
39046853,1936,1,197725,243796,0.94,-0.46,8.97,0.00,-0.07,0.03,28.45
39085170,1936,1,197994,243701,1.03,-0.91,10.39,0.00,-0.01,0.03,28.45
39125167,1965,1,197844,243034,1.18,0.17,10.52,-0.02,-0.07,0.03,28.45
39165171,1694,1,197303,241010,0.87,-0.77,8.96,-0.01,0.02,0.03,28.45
39205166,2068,1,196815,240230,1.07,-0.45,10.09,-0.04,0.00,0.03,28.45
39245170,1986,1,196918,240942,0.34,-1.36,9.90,-0.05,0.06,0.03,28.45
39285167,1978,1,197232,243623,0.08,-0.97,9.55,-0.02,0.02,0.04,28.45
39325170,2011,1,198031,244213,1.00,-0.67,10.96,-0.02,0.01,0.04,28.45
39365167,1936,1,198190,246696,0.53,-0.69,9.85,-0.00,-0.03,0.04,28.45
39405179,1855,1,198748,245335,0.75,-0.77,11.43,-0.05,0.01,0.04,28.45
39445176,1913,1,198059,246528,0.27,-0.98,10.04,0.00,-0.07,0.07,28.45
39485170,1568,1,198662,245485,-0.04,-0.76,9.82,-0.05,0.11,0.04,28.45
39525181,1293,1,197944,246633,1.57,0.02,9.15,-0.07,-0.06,0.41,28.45
39565170,1646,1,198831,246062,1.16,-0.56,11.16,-0.05,0.04,0.06,28.45
39605170,1571,1,197563,246235,0.77,-0.05,6.14,-0.04,-0.18,0.14,28.45
39645211,1791,1,198741,246956,1.30,-1.26,9.13,-0.13,0.05,0.06,28.45
39685169,1833,1,198287,247253,1.30,-0.17,9.06,-0.06,-0.09,0.04,28.45
39725179,1863,1,199451,248626,1.22,-0.99,10.15,-0.07,0.09,0.04,28.45
39765170,1982,1,199135,248094,1.18,0.14,9.28,-0.06,-0.05,0.04,28.45
39805170,2110,1,199400,248431,0.84,-1.36,9.98,-0.06,0.05,0.04,28.45
39845188,1957,1,199331,248437,1.05,0.20,10.34,-0.04,-0.01,0.04,28.45
39885170,2033,1,199728,249321,1.29,-0.89,10.45,-0.05,0.01,0.04,28.45
39925170,2070,1,199933,249304,0.55,-0.40,10.97,-0.06,0.08,0.05,28.45
39965170,2034,1,199497,248511,0.94,-1.01,11.19,-0.05,-0.00,0.05,28.45
40005179,1975,1,199130,248306,0.51,-0.20,8.79,-0.04,-0.02,0.05,28.45
40045179,1908,1,199653,248710,0.57,-2.01,11.66,-0.13,0.06,0.04,28.45
40085856,1930,1,199430,249590,0.69,-0.26,8.91,-0.02,-0.04,0.04,28.89
40124179,1951,1,200398,250523,0.62,-2.03,11.64,-0.08,0.08,0.05,28.89
40164167,1936,1,200042,250071,0.32,-0.46,8.51,-0.03,-0.02,-0.44,28.89
40204199,1923,1,199958,249515,0.12,-1.74,12.39,-0.08,-0.05,0.05,28.89
40244179,1800,1,199524,249412,0.26,-0.31,9.55,-0.03,-0.02,0.04,28.89
40284179,1817,1,199954,249655,0.15,-2.21,11.44,-0.07,0.00,0.04,28.89
40324169,1851,1,199789,250000,0.02,-1.05,8.91,-0.06,-0.05,0.03,28.89
40364179,1856,1,200253,249734,0.11,-1.41,10.34,-0.03,-0.01,0.01,28.89
40404179,1890,1,199603,249921,0.25,-0.23,7.95,-0.01,-0.08,0.03,28.89
40444179,1841,1,200572,250821,1.00,-1.40,11.09,-0.06,-0.02,0.03,28.89
40484176,1776,1,200111,249882,0.30,-0.69,8.72,-0.00,-0.08,0.03,28.89
40524183,1787,1,200240,250272,0.40,-1.79,10.72,-0.05,-0.05,0.03,28.89
40564179,1678,1,200443,250425,0.32,-1.49,10.08,-0.02,-0.04,0.04,28.89
40604179,1709,1,200261,249897,-0.19,-1.52,9.28,-0.01,-0.05,0.03,28.89
40644199,1856,1,200005,248168,0.54,-1.06,10.26,0.02,-0.05,0.03,28.89
40684170,1893,1,199172,246422,0.71,-1.47,9.90,-0.00,-0.09,0.03,28.89
40724176,1914,1,198569,246502,0.62,-0.41,9.19,0.00,-0.04,0.03,28.89
40764170,1919,1,199268,246565,-0.12,-1.35,9.20,0.00,-0.01,0.03,28.89
40804179,1808,1,198875,246650,1.21,-0.49,11.28,0.00,-0.09,0.03,28.89
40844171,1938,1,199014,248005,0.32,-0.86,9.63,-0.01,-0.04,0.03,28.89
40884179,1920,1,199622,249446,0.36,-1.11,10.13,0.01,-0.05,0.03,28.89
40924171,1904,1,200517,251286,0.51,-1.04,11.43,-0.00,-0.05,0.03,28.89
40964179,1938,1,201011,252701,0.60,-0.76,11.17,-0.01,-0.07,0.03,28.89
41004178,1945,1,201295,251886,0.31,-0.75,11.00,-0.02,-0.09,0.03,28.89
41044176,1942,1,200642,251332,0.55,-0.96,11.02,0.00,-0.11,0.02,28.89
41084170,1873,1,200475,249677,1.11,-0.74,11.48,-0.07,-0.07,0.02,28.89
41124865,1967,1,199221,248488,0.32,-0.54,7.92,-0.02,-0.09,0.03,28.97
41165179,2082,1,199088,246331,1.21,-0.78,8.21,-0.04,-0.04,0.03,28.97
41205179,2130,1,197620,244170,0.86,-0.62,7.15,-0.04,0.07,0.33,28.97
41245170,2173,1,197362,242559,1.15,-1.14,6.74,-0.04,-0.11,0.09,28.97
41285205,2347,1,197703,246349,1.38,-0.80,8.79,-0.03,-0.02,0.21,28.97
41325179,2384,1,201008,248599,1.44,-0.90,8.02,-0.04,0.00,0.00,28.97
41363166,2371,1,201709,248448,0.46,-0.74,9.71,-0.00,0.04,0.02,28.97
41403170,2256,1,201753,249365,0.70,-0.85,9.73,0.01,0.05,0.03,28.97
41443147,2192,1,201758,248322,1.13,-0.16,9.68,0.02,-0.00,0.03,28.97
41483187,2202,1,201794,249741,0.28,-1.26,10.33,0.01,0.08,0.04,28.97
41523162,2064,1,201794,249126,1.27,-0.70,11.36,0.01,0.07,0.02,28.97
41563147,2064,1,201576,250061,0.40,-0.40,10.81,0.04,-0.04,0.03,28.97
41603166,1861,1,201664,249735,0.68,-0.60,12.36,-0.01,0.13,0.02,28.97
41643170,1763,1,201647,250505,-0.25,-0.41,9.20,0.03,-0.04,0.04,28.97
41683176,1661,1,201821,249876,0.97,-1.44,10.75,-0.07,-0.01,-0.07,28.97
41723199,1449,1,201206,250847,1.66,0.14,10.49,-0.02,-0.08,-0.02,28.97
41763179,1556,1,201701,250239,1.09,-1.09,9.80,-0.06,-0.07,-0.35,28.97
41803199,1622,1,201041,249966,1.15,0.78,9.68,-0.07,-0.18,-0.08,28.97
41843179,1622,1,201328,249785,1.56,-0.87,12.50,-0.12,-0.02,-0.02,28.97
41883199,1648,1,200640,249739,1.06,1.11,9.71,-0.03,-0.13,0.02,28.97
41923170,1789,1,201421,250077,0.43,-1.77,13.03,-0.09,0.13,0.02,28.97
41963171,1846,1,200905,249970,0.23,0.67,9.45,-0.02,-0.15,0.03,28.97
42003170,1974,1,201212,250166,-0.45,-1.91,13.25,-0.12,0.09,0.07,28.97
42043179,1974,1,201264,248863,1.82,1.37,6.57,0.04,-0.24,0.01,28.97
42083147,1834,1,201673,249940,-1.60,-3.11,13.50,-0.22,0.11,0.30,28.97
42123179,1861,1,200605,240842,1.62,1.18,5.31,-0.05,-0.32,0.02,28.97
42163856,1751,1,198949,242660,1.39,-0.49,17.13,-0.11,-0.13,0.80,29.45
42204179,1873,1,198534,238194,0.91,-0.84,3.13,0.21,-0.22,-0.38,29.45
42244179,1966,1,200416,245458,0.84,0.05,13.60,-0.14,-0.09,0.05,29.45
42284170,1938,1,200761,244153,2.08,0.26,4.78,0.29,-0.19,-0.34,29.45
42324170,1863,1,203682,249722,0.53,-2.32,12.17,-0.15,0.01,0.02,29.45
42364171,2103,1,202936,247102,1.28,0.76,7.91,0.16,-0.11,-0.15,29.45
42404170,2145,1,203497,249070,0.69,-2.31,13.19,0.01,-0.08,0.04,29.45
42444171,1886,1,202357,245717,0.46,0.16,6.49,0.17,-0.10,0.07,29.45
42484147,2082,1,202244,247549,1.21,-1.41,11.28,0.06,-0.08,0.61,29.45
42523176,1973,1,202767,247680,0.84,-0.04,5.69,0.13,-0.04,0.03,29.45
42563167,1975,1,203726,250314,0.73,-0.52,10.30,0.01,-0.01,0.02,29.45
42603170,1936,1,203061,246584,1.87,0.55,9.19,0.15,-0.02,0.01,29.45
42643148,1997,1,202391,249422,0.74,0.40,10.00,0.06,0.02,0.02,29.45
42683128,1952,1,205051,252336,1.30,0.30,14.13,-0.03,0.14,0.02,29.45
42723148,1985,1,204473,251989,1.33,0.91,13.73,0.13,-0.06,0.02,29.45
42763147,1958,1,202227,248111,1.64,-0.18,14.88,-0.06,-0.06,-0.11,29.45
42803199,2063,1,201949,247727,1.81,1.77,14.09,-0.06,-0.43,0.22,29.45
42843170,2011,1,202427,247942,0.97,-1.52,13.14,-0.16,-0.25,0.14,29.45
42883179,2010,1,203922,249488,1.12,1.31,8.18,-0.02,-0.20,0.98,29.45
42923171,1934,1,205302,249605,0.89,-1.04,12.56,-0.33,0.19,0.44,29.45
42963170,1880,1,205231,249377,0.91,-0.29,3.82,-0.02,0.23,-0.12,29.45
43003178,1889,1,205184,250856,1.12,-1.14,8.79,-0.31,0.25,0.01,29.45
43043170,1904,1,204692,250942,0.93,-1.24,8.13,-0.13,0.05,-0.57,29.45
43083179,1904,1,204497,250738,0.49,-0.84,7.45,-0.09,0.00,-0.48,29.45
43123185,1951,1,204187,249883,1.50,-0.06,9.74,-0.11,0.01,-0.06,29.45
43163865,1937,1,203905,249279,0.31,-1.08,10.30,-0.15,0.08,0.03,28.97
43202169,1821,1,203807,248466,1.51,-1.91,9.36,-0.01,-0.09,0.02,28.97
43242179,1774,1,204571,249411,1.00,-0.74,9.23,-0.08,0.07,0.27,28.97
43282167,1720,1,205006,249158,0.38,-1.54,8.44,0.02,0.22,0.02,28.97
43322147,1741,1,205291,250021,0.71,0.15,10.67,-0.05,0.00,0.14,28.97
43362147,1855,1,205453,250669,0.34,-1.29,9.32,0.03,0.11,0.03,28.97
43402147,1866,1,205648,250951,0.11,-0.75,10.04,-0.03,0.15,0.03,28.97
43442170,1872,1,205598,251489,0.02,-1.22,10.21,-0.03,0.06,0.04,28.97
43482170,1827,1,205143,250880,-0.28,-0.76,9.79,-0.00,0.11,0.02,28.97
43522179,1785,1,204660,250531,0.64,-0.53,10.93,-0.01,-0.09,-0.03,28.97
43563199,1783,1,204308,250048,0.30,-0.43,13.03,-0.04,0.08,0.01,28.97
43603166,1770,1,203789,249606,-0.47,-1.22,11.79,-0.06,0.01,0.06,28.97
43643179,1678,1,203812,249119,0.44,-0.64,10.83,0.02,-0.15,0.02,28.97
43683170,1648,1,203918,249016,0.37,-1.02,10.00,-0.07,-0.05,0.02,28.97
43723179,1712,1,203811,249880,0.35,-0.70,7.91,-0.05,0.04,0.02,28.97
43763166,1693,1,203698,250433,0.23,-1.84,11.23,-0.09,0.02,-0.78,28.97
43803179,1660,1,203647,250675,0.05,0.03,10.30,0.03,-0.03,-0.29,28.97
43843166,1266,1,203001,249525,0.06,-1.39,10.31,-0.14,-0.04,0.20,28.97
43883179,1005,1,202765,249442,-0.87,-1.73,8.94,-0.03,-0.14,0.36,28.97
43923199,1129,1,202848,248856,-0.34,-1.25,10.14,-0.02,-0.05,0.02,28.97
43963199,1771,1,203110,248803,0.14,-0.74,9.13,0.03,-0.17,0.02,28.97
44003170,1958,1,203415,248999,0.80,-1.42,9.50,-0.02,-0.06,0.00,28.97
44043179,1869,1,203384,248936,0.64,-2.19,9.53,-0.06,-0.08,0.01,28.97
44083179,1983,1,203578,249978,-0.77,-2.37,6.85,-0.02,-0.03,0.02,28.97
44123199,1936,1,203357,249140,0.40,-0.81,8.96,0.02,-0.06,0.01,28.97
44163853,2192,1,203395,250030,-0.45,-1.82,9.93,0.06,-0.05,0.02,28.71
44202179,2199,1,202996,248437,0.78,0.06,8.72,0.03,-0.08,-0.01,28.71
44242167,2333,1,203160,249232,0.05,-1.25,10.38,0.02,-0.06,0.01,28.71
44282170,2392,1,203042,249168,0.66,-0.47,8.53,0.01,-0.02,0.01,28.71
44322167,2345,1,203114,249500,0.11,-1.47,11.00,-0.01,0.02,0.01,28.71
44362170,2265,1,203107,249630,0.63,-0.85,9.28,0.03,-0.06,0.00,28.71
44402167,2275,1,203259,249516,0.41,-0.57,10.72,-0.02,-0.06,0.00,28.71
44442179,2261,1,203148,249461,0.49,-0.81,9.80,-0.02,0.02,0.00,28.71
44482166,2258,1,203050,249126,0.40,-0.45,11.60,-0.02,-0.03,-0.00,28.71
44522199,2224,1,203078,249140,0.47,-1.19,10.28,-0.01,-0.01,0.01,28.71
44563222,2170,1,202866,248303,0.34,-1.07,8.82,-0.04,-0.01,0.00,28.71
44603179,2047,1,202787,248271,-0.00,-0.94,9.45,-0.02,0.02,0.01,28.71
44641176,1983,1,202888,247797,-0.26,-1.33,10.95,-0.09,0.13,0.00,28.71
44681179,1911,1,202662,247577,0.11,-1.34,9.76,0.02,-0.08,0.01,28.71
44721170,1886,1,202959,248093,0.02,-1.23,7.37,-0.03,0.06,0.01,28.71
44761170,1873,1,202745,247962,-0.35,-1.75,9.53,-0.05,0.11,0.01,28.71
44801179,1872,1,202575,247758,-0.06,-1.22,8.33,-0.02,-0.02,0.00,28.71
44841199,1807,1,202632,247430,0.58,-0.43,9.19,-0.06,-0.07,0.00,28.71
44881176,1792,1,202441,247282,0.52,-1.45,10.30,-0.08,0.08,-0.00,28.71
44921179,1805,1,202229,246643,0.50,-1.04,9.35,-0.06,-0.00,-0.01,28.71
44961196,1791,1,202091,246620,0.52,-1.40,9.02,-0.08,0.00,-0.01,28.71
45001179,1806,1,202029,246324,-0.15,-1.40,8.46,-0.09,0.01,-0.01,28.71
45041199,1808,1,202180,246866,0.36,-0.44,10.08,-0.07,0.06,-0.01,28.71
45081179,1823,1,202075,247041,0.37,-0.57,9.09,-0.08,0.02,-0.01,28.71
45121176,1790,1,202047,247174,-0.21,-1.25,9.82,-0.07,0.09,-0.00,28.71
45161199,1729,1,202091,247755,0.18,-0.96,8.40,-0.04,-0.01,-0.00,28.71
45201882,1760,1,202405,248187,-0.07,-0.65,10.81,-0.06,0.12,-0.00,28.51
45242199,1793,1,202443,248582,-0.21,-1.79,11.24,-0.04,0.04,0.00,28.51
45282179,1704,1,202308,248163,0.14,-0.26,9.41,-0.05,-0.05,-0.21,28.51
45322199,1714,1,202256,248348,-0.42,-1.34,11.38,-0.06,0.07,0.00,28.51
45362179,1744,1,202218,247858,-0.48,-1.39,9.36,-0.04,0.03,-0.00,28.51
45402199,1777,1,202156,247880,-0.54,-1.39,10.40,-0.02,-0.00,0.00,28.51
45442196,1791,1,202170,248326,0.36,-1.35,10.13,-0.02,-0.02,-0.00,28.51
45482199,1831,1,202134,247853,0.03,-0.90,9.77,-0.02,-0.04,-0.05,28.51
45522195,1844,1,202011,247845,-0.11,-1.47,10.40,-0.04,-0.03,-0.00,28.51
45562216,1745,1,201796,245752,-0.15,-0.66,9.57,-0.03,-0.05,-0.01,28.51
45602212,1795,1,201093,245951,-0.22,-1.81,10.32,0.00,0.02,-0.00,28.51
45642179,912,1,201306,245223,0.05,-0.92,8.26,-0.04,-0.07,-0.01,28.51
45682196,961,1,201526,246447,-0.21,-1.03,10.72,-0.02,-0.05,-0.01,28.51
45722222,0,1,201981,246794,-0.38,-1.66,10.25,-0.03,0.05,-0.00,28.51
45762199,0,1,201723,246611,0.05,-1.73,9.37,0.01,-0.17,0.00,28.51
45802171,687,1,201990,247301,-0.05,-1.64,9.24,-0.03,-0.02,-0.00,28.51
45842213,1203,1,202050,246460,0.05,-1.03,9.29,-0.02,-0.19,-0.01,28.51
45882199,1623,1,202133,246070,-0.22,-1.05,10.12,-0.01,-0.02,-0.01,28.51
45922213,1942,1,201800,245612,0.33,-0.99,11.90,-0.01,-0.08,-0.01,28.51
45962199,2154,1,201763,246141,-0.15,-1.59,9.65,-0.00,0.10,-0.00,28.51
46002199,2241,1,201509,245683,0.09,-0.87,8.16,0.01,-0.16,-0.01,28.51
46042179,2413,1,201815,246688,0.68,-0.92,9.99,-0.03,-0.03,-0.01,28.51
46082199,2589,1,201951,247201,0.51,-0.83,9.33,-0.02,-0.03,-0.01,28.51
46122199,2685,1,202162,247180,0.51,-1.00,10.86,-0.04,-0.03,-0.01,28.51
46162199,2697,1,202112,247332,-0.18,-1.05,11.02,-0.03,0.01,-0.01,28.51
46202908,2666,1,202077,247051,0.16,-1.02,10.23,-0.01,-0.05,-0.01,28.13
46241199,2592,1,201964,246429,0.29,-1.09,10.49,-0.04,-0.08,-0.01,28.13
46281199,2331,1,201765,245214,0.55,-0.92,10.10,-0.05,-0.07,-0.01,28.13
46321199,2279,1,200965,241998,0.51,-0.80,10.98,-0.03,-0.05,-0.01,28.13
46361199,2223,1,200072,238917,-0.04,-1.05,8.27,-0.05,0.06,-0.01,28.13
46401237,2159,1,199882,239151,0.09,-1.59,10.75,-0.05,-0.00,-0.01,28.13
46441199,2207,1,199888,239121,0.49,-0.61,8.24,-0.01,-0.02,0.00,28.13
46481176,2204,1,200026,238914,0.08,-1.50,8.08,-0.06,-0.10,-0.01,28.13
46521204,2190,1,200398,239279,0.93,-0.74,9.79,-0.06,-0.09,-0.01,28.13
46561199,2153,1,200636,239352,0.33,-0.78,8.59,-0.05,-0.06,-0.00,28.13
46601199,2089,1,200681,239188,0.30,-0.91,7.00,-0.03,-0.11,0.01,28.13
46641176,2032,1,201219,240885,-0.07,-1.73,10.85,-0.09,0.11,0.03,28.13
46681178,2007,1,201163,241020,0.64,-0.50,9.28,0.03,-0.07,-0.01,28.13
46721176,1887,1,201800,242488,0.64,-0.71,11.10,-0.03,0.10,-0.01,28.13
46761179,1870,1,201817,244100,0.15,-0.89,8.47,0.02,0.00,0.01,28.13
46801147,1827,1,202370,244910,0.75,-0.37,7.98,0.03,-0.06,-0.01,28.13
46841179,1825,1,202685,245671,0.74,-0.54,11.67,-0.04,-0.01,0.00,28.13
46881179,1821,1,202631,245534,0.15,-1.97,8.10,-0.03,0.02,-0.00,28.13
46921179,1813,1,202693,245779,0.39,-0.02,11.96,-0.02,0.05,-0.00,28.13
46961176,1807,1,202790,246862,0.22,-0.94,9.89,-0.05,-0.02,0.01,28.13
47001179,1794,1,203051,247213,-0.12,-0.73,9.12,-0.03,0.03,0.00,28.13
47041176,1711,1,202893,246415,0.58,-1.05,10.88,-0.04,-0.05,-0.00,28.13
47081199,1680,1,202738,246095,0.56,-0.49,10.99,-0.06,-0.05,-0.01,28.13
47121199,1659,1,202786,245960,0.20,-0.13,10.86,-0.08,-0.07,-0.01,28.13
47161199,1690,1,202585,244137,0.43,-0.56,12.20,-0.07,0.03,-0.01,28.13
47201179,1702,1,202132,243323,-0.01,-1.60,9.85,-0.09,-0.09,0.01,28.13
47241886,1715,1,201782,241546,1.53,-0.28,8.44,-0.04,-0.08,-0.03,27.99
47280199,1715,1,201873,244229,0.24,-1.31,11.98,-0.11,0.01,-0.00,27.99
47320178,1712,1,201604,243172,0.71,-0.45,7.59,-0.07,-0.07,-0.09,27.99
47360199,1709,1,202122,245504,-0.50,-1.99,10.25,-0.09,0.06,-0.00,27.99
47400199,1725,1,202129,244897,0.83,0.27,8.15,-0.02,-0.11,-0.23,27.99
47440179,1766,1,202398,245871,-0.30,-1.77,12.24,-0.09,-0.01,0.00,27.99
47480199,1801,1,202348,245496,0.98,-0.78,8.23,0.01,-0.05,-0.00,27.99
47520176,1809,1,202393,244434,0.03,-0.47,9.21,-0.01,-0.03,0.00,27.99
47560179,1846,1,202341,244866,0.74,-2.33,7.98,-0.06,0.24,0.26,27.99
47600170,1856,1,202081,244313,0.03,-1.16,9.84,-0.02,0.04,0.00,27.99
47641170,1831,1,202079,245337,-0.39,-1.44,8.94,0.04,0.01,0.01,27.99
47681170,1838,1,202288,245819,0.23,-0.76,10.36,-0.01,0.07,0.00,27.99
47721170,1808,1,202366,245925,-0.18,-1.78,10.66,0.06,0.01,0.01,27.99
47761170,1812,1,202142,244465,0.54,-0.51,7.77,0.02,-0.08,-0.00,27.99
47801179,1798,1,202428,245685,-0.15,-1.27,11.41,-0.04,-0.00,-0.00,27.99
47841230,1799,1,202429,245450,0.34,-1.20,10.10,-0.02,-0.03,-0.01,27.99
47881199,1803,1,202559,245920,0.09,-0.57,12.70,-0.04,-0.03,-0.00,27.99
47921195,1795,1,202656,246386,0.03,-1.38,10.16,-0.03,0.05,-0.00,27.99
47961179,1777,1,202501,245225,-0.09,-0.69,10.12,-0.01,-0.10,-0.01,27.99
48001212,1798,1,202388,244434,0.43,-0.90,10.23,-0.05,-0.08,-0.00,27.99
48039237,1826,1,202108,244474,0.30,-0.92,9.95,-0.09,0.06,-0.01,27.99
48079176,1809,1,201942,244183,0.40,-0.91,10.39,-0.04,-0.04,-0.01,27.99
48119199,1808,1,202139,245103,0.31,-1.13,9.71,-0.07,-0.04,-0.00,27.99
48159199,1806,1,202279,244498,0.24,-0.90,8.91,-0.04,-0.01,-0.01,27.99
48199199,1818,1,202474,244843,0.59,-1.23,10.18,-0.03,-0.08,-0.00,27.99
48239200,1840,1,202721,245387,0.07,-0.77,9.56,-0.07,0.06,0.00,27.99
48279857,1824,1,202791,245810,0.55,-1.64,9.73,-0.04,-0.03,0.00,28.07
48320179,1858,1,202934,246140,0.58,-1.38,9.48,-0.05,-0.03,-0.00,28.07
48360199,1815,1,203163,246383,0.33,-0.97,9.05,-0.06,-0.13,-0.00,28.07
48400199,1808,1,203197,245784,0.07,-0.82,10.62,-0.04,0.13,-0.00,28.07
48440179,1798,1,202591,244927,0.11,-1.13,10.43,-0.01,0.01,0.01,28.07
48480170,1807,1,202623,245869,0.25,-1.12,9.24,-0.02,0.00,0.00,28.07
48520170,1808,1,202782,246597,0.20,-0.85,9.91,-0.03,0.00,-0.00,28.07
48560176,1822,1,203110,247356,0.00,-1.30,11.23,-0.03,0.01,-0.00,28.07
48600178,1817,1,203174,247272,-0.01,-0.59,10.12,-0.02,-0.05,-0.00,28.07
48640212,1807,1,203291,248005,-0.28,-1.68,10.88,-0.04,0.03,-0.00,28.07
48679199,1804,1,203097,247205,0.48,-0.69,9.47,-0.02,-0.07,-0.00,28.07
48719199,1815,1,202957,246675,0.11,-1.07,9.64,-0.06,-0.01,-0.00,28.07
48759199,1831,1,202649,246959,0.51,-1.02,9.23,-0.05,-0.01,-0.00,28.07
48799199,1874,1,202757,246880,0.19,-1.64,10.01,-0.07,0.01,-0.01,28.07
48839178,1871,1,202496,246651,0.00,-1.11,8.56,-0.03,-0.05,-0.01,28.07
48879196,1851,1,202746,247202,-0.00,-0.98,9.07,-0.05,0.04,-0.00,28.07
48919198,1833,1,202819,247600,0.36,-0.88,9.78,-0.00,-0.03,-0.00,28.07
48959195,1803,1,203061,247492,0.50,-0.91,8.12,-0.03,-0.04,-0.00,28.07
48999199,1795,1,203244,248362,0.20,-1.50,9.45,-0.05,0.05,-0.00,28.07
49039176,1766,1,203217,248075,0.60,-1.01,8.63,-0.03,-0.01,-0.01,28.07
49079199,1807,1,203105,247599,0.23,-0.76,9.71,-0.04,-0.02,-0.00,28.07
49119199,1833,1,203000,247555,0.13,-0.65,10.23,-0.01,0.09,0.00,28.07
49159170,1830,1,202778,247398,0.24,-1.03,10.03,0.03,0.01,0.00,28.07
49199148,1827,1,202813,247411,0.50,-1.11,9.59,-0.01,-0.04,-0.01,28.07
49239199,1808,1,203007,247901,0.12,-1.25,10.72,-0.03,0.02,-0.01,28.07
49279179,1821,1,202921,247340,0.04,-0.71,9.97,-0.01,-0.03,-0.00,28.07
49319886,1850,1,203046,247971,-0.03,-0.92,11.71,-0.02,0.01,-0.01,27.93
49360200,1853,1,203213,248169,0.14,-1.13,10.20,-0.02,-0.03,-0.00,27.93
49400199,1872,1,203361,248470,0.33,-1.28,10.72,-0.06,-0.06,-0.00,27.93
49440199,1858,1,203379,248017,0.17,-1.20,10.48,-0.06,-0.01,-0.01,27.93
49480204,1841,1,203261,247667,0.09,-1.34,11.79,-0.06,-0.02,-0.01,27.93
49520199,1840,1,202745,246768,0.22,-1.42,8.69,-0.09,-0.04,-0.01,27.93
49560199,1857,1,202496,246381,0.25,-0.91,9.76,-0.08,-0.02,-0.02,27.93
49600199,1889,1,202666,247555,-0.08,-0.58,10.53,-0.10,0.02,-0.01,27.93
49638199,1874,1,202728,247237,0.57,-0.68,10.40,-0.07,-0.06,-0.01,27.93
49678230,1870,1,202832,247621,0.62,-1.49,9.99,-0.05,-0.02,-0.00,27.93
49718199,1845,1,202725,246784,0.24,-1.06,8.27,-0.09,-0.07,-0.01,27.93
49758199,1860,1,202957,246798,0.12,-0.66,11.17,-0.08,-0.02,-0.01,27.93
49798199,1861,1,202504,244937,0.73,-0.79,9.65,-0.01,0.02,-0.01,27.93
49838179,1840,1,202311,245035,0.27,-2.01,10.65,-0.04,0.01,0.00,27.93
49878170,1841,1,202070,244014,0.91,-0.90,7.33,-0.05,-0.12,-0.01,27.93
49918199,1857,1,202257,244656,0.29,-1.64,9.58,-0.05,0.00,-0.00,27.93
49958179,1857,1,202170,244924,0.24,-1.32,8.81,-0.03,0.02,-0.00,27.93
49998179,1833,1,202597,246994,-0.42,-2.29,10.52,-0.07,0.00,0.00,27.93
50038179,1822,1,202855,247454,0.48,-1.34,8.51,0.04,-0.03,-0.00,27.93
50078176,1776,1,203088,247755,-0.05,-1.76,10.26,-0.01,-0.05,-0.00,27.93
50118216,1831,1,203186,247824,0.35,-1.57,10.98,-0.01,-0.06,-0.00,27.93
50158199,1840,1,203358,248023,-0.26,-1.48,10.85,-0.02,0.03,0.00,27.93
50198179,1854,1,203175,248322,0.34,-0.98,8.86,0.03,0.00,0.00,27.93
50238147,1851,1,203259,249692,0.08,-1.29,10.41,-0.01,0.07,-0.00,27.93
50278178,1799,1,203211,249645,-0.17,-0.93,8.86,-0.02,0.03,-0.01,27.93
50318199,1798,1,202983,249414,0.50,-1.30,10.92,-0.03,-0.03,-0.05,27.93
50358885,1819,1,202886,249726,-0.21,-1.50,10.52,-0.02,0.05,-0.01,28.13
50399199,1843,1,202808,249407,0.05,-1.23,8.33,-0.03,-0.08,-0.04,28.13
50439199,1867,1,203058,249635,0.03,-1.52,11.02,-0.03,0.05,-0.01,28.13
50479179,1870,1,202947,249638,-0.01,-1.47,10.77,-0.01,-0.00,-0.03,28.13
50519216,1840,1,202958,249549,0.21,-1.59,11.04,-0.05,-0.06,-0.12,28.13
50559199,1819,1,202845,249558,0.21,-1.15,9.25,-0.01,-0.02,-0.03,28.13
50599199,1609,1,202924,248724,0.47,-1.47,10.61,-0.01,-0.03,-0.16,28.13
50639199,1630,1,202698,248349,0.39,-1.10,11.27,-0.02,-0.01,-0.05,28.13
50679199,1600,1,202393,247508,0.78,-0.96,9.97,-0.07,-0.04,-0.17,28.13
50719199,1712,1,202275,247717,-0.11,-1.46,8.86,-0.03,0.02,-0.04,28.13
50759199,1834,1,202515,248158,0.17,-1.28,9.40,-0.03,-0.01,-0.14,28.13
50799199,1868,1,202820,248906,-0.02,-1.20,10.55,-0.05,-0.00,-0.04,28.13
50839214,1791,1,202718,248289,0.43,-1.17,9.89,-0.02,-0.03,-0.02,28.13
50879199,1821,1,202625,248131,0.18,-1.40,10.07,-0.04,-0.04,-0.02,28.13
50919199,1856,1,202664,248413,0.42,-1.28,9.46,-0.05,-0.05,-0.02,28.13
50959199,1916,1,202849,248892,0.14,-1.28,9.73,-0.04,0.03,-0.02,28.13
50999179,1903,1,202967,249050,0.11,-1.36,10.56,-0.02,0.05,-0.02,28.13
51039179,1838,1,202704,249117,0.13,-1.30,9.99,-0.05,-0.03,-0.02,28.13
51079199,1535,1,202908,248484,0.10,-1.84,9.68,-0.01,-0.02,-0.13,28.13
51119199,1793,1,202333,246969,0.28,-1.30,9.82,0.02,-0.06,-0.03,28.13
51159178,1904,1,202615,248507,0.08,-1.61,11.93,-0.04,0.10,-0.02,28.13
51199179,1967,1,202237,247783,-0.03,-0.90,9.32,-0.01,-0.11,-0.04,28.13
51239214,1938,1,202486,248537,0.19,-1.82,9.22,-0.03,0.03,-0.02,28.13
51279179,1789,1,201990,246389,0.27,-1.20,9.00,-0.02,-0.11,-0.03,28.13
51317212,1901,1,202133,246992,0.43,-1.41,10.55,-0.04,-0.02,-0.02,28.13
51357199,1874,1,202000,246496,0.17,-0.43,9.88,-0.02,-0.05,-0.02,28.13
51397885,1869,1,202143,247832,0.43,-1.64,9.79,0.01,0.03,-0.02,27.93
51438170,1834,1,202571,246597,-0.45,-1.28,10.59,-0.02,0.02,-0.02,27.93
51478200,1866,1,201904,245323,0.28,-0.80,11.04,-0.00,-0.08,-0.02,27.93
51518216,1871,1,201918,245722,-0.10,-1.42,10.11,0.00,0.02,-0.01,27.93
51558179,1897,1,202022,246349,0.04,-1.62,9.36,0.02,-0.05,-0.02,27.93
51598179,1898,1,202489,246798,0.28,-1.19,9.74,-0.00,-0.03,-0.03,27.93
51638199,1871,1,202414,245695,0.22,-0.96,10.48,-0.03,-0.12,-0.02,27.93
51678199,1925,1,202406,247002,-0.05,-1.57,9.85,-0.06,-0.07,0.01,27.93
51718199,1942,1,202867,246173,0.41,-0.94,9.07,-0.01,-0.01,-0.03,27.93
51758196,1938,1,202584,245224,0.40,-1.21,10.19,-0.03,-0.12,-0.02,27.93
51798200,1933,1,202736,244569,0.67,-0.53,9.56,-0.04,-0.13,-0.02,27.93
51838199,1945,1,202921,246062,0.90,-0.48,10.18,-0.04,-0.00,-0.01,27.93
51878199,1937,1,202889,244951,1.20,-0.04,7.79,0.03,0.01,-0.03,27.93
51918167,1997,1,202488,244308,0.57,-1.09,10.05,-0.06,-0.01,-0.03,27.93
51958199,1975,1,202222,243656,0.92,-0.47,11.16,-0.06,-0.10,-0.03,27.93
51998199,1911,1,201541,241840,1.02,-0.24,9.43,0.00,-0.13,-0.02,27.93
52038178,1891,1,202068,243959,0.21,-1.55,11.34,-0.05,0.14,-0.01,27.93
52078179,1876,1,201691,242730,0.07,-0.56,8.46,0.00,-0.10,-0.01,27.93
52118179,1827,1,202072,244678,0.57,-0.97,9.70,-0.03,-0.00,-0.01,27.93
52158196,1827,1,202208,244579,0.18,-0.84,9.35,-0.01,0.03,-0.01,27.93
52198179,1803,1,202312,245163,0.64,-0.91,10.82,0.00,-0.01,-0.01,27.93
52238179,1808,1,202373,245172,0.30,-0.37,10.24,0.00,-0.02,-0.00,27.93
52278179,1838,1,202488,246254,0.87,-1.95,10.57,-0.05,-0.09,-0.00,27.93
52318199,1906,1,203214,247466,0.22,-0.62,9.02,0.02,0.05,0.00,27.93
52358148,1905,1,203158,248316,1.00,-0.42,9.29,-0.02,-0.08,-0.00,27.93
52398883,1867,1,203201,248739,0.21,-0.69,9.05,-0.02,0.04,-0.00,27.73
52437179,1899,1,203177,249211,0.71,-0.95,9.32,-0.02,-0.07,-0.07,27.73
52477199,1869,1,203504,250107,0.72,-0.94,10.66,-0.01,-0.03,-0.43,27.73
52517199,1954,1,203680,251301,0.40,-1.08,11.59,-0.03,-0.02,-0.15,27.73
52557199,1995,1,203577,250765,0.55,-0.84,9.66,0.02,-0.01,-0.23,27.73
52597179,2055,1,203385,249961,0.58,-0.94,11.59,-0.04,-0.12,-0.01,27.73
52637199,2046,1,202286,245699,0.46,-0.95,9.88,-0.02,-0.03,-0.00,27.73
52677200,2037,1,201493,246332,0.39,-1.04,10.24,-0.03,-0.04,-0.00,27.73
52717199,2005,1,201774,245816,0.56,-0.54,9.39,-0.00,-0.01,-0.00,27.73
52757200,1941,1,201556,247760,0.76,-0.50,9.82,-0.05,-0.08,-0.00,27.73
52797195,1899,1,202433,247268,0.53,-0.71,9.76,-0.03,0.04,-0.00,27.73
52837179,1816,1,201571,247225,0.88,-0.40,9.25,-0.02,-0.12,-0.00,27.73
52877196,1795,1,202318,246710,0.79,-0.75,10.40,-0.05,0.01,-0.00,27.73
52917179,1714,1,201702,246457,0.44,-0.43,9.64,-0.03,-0.12,0.01,27.73
52957196,1744,1,202184,246469,1.02,-0.58,10.39,-0.04,-0.01,0.00,27.73
52997179,1738,1,202033,248272,0.44,-0.90,9.65,-0.02,0.04,0.01,27.73
53037167,1744,1,203173,248799,0.65,-1.18,10.43,-0.01,0.07,-0.00,27.73
53077179,1721,1,202607,247416,0.54,-1.05,9.79,-0.03,-0.13,0.00,27.73
53117176,1711,1,202920,249119,0.79,-0.56,9.94,-0.04,-0.02,0.00,27.73
53157196,1744,1,203547,248972,0.60,-0.37,9.17,0.00,-0.02,-0.00,27.73
53197176,1744,1,203472,250630,0.66,-0.53,9.63,-0.02,-0.05,-0.00,27.73
53237199,1697,1,204220,250542,0.73,-0.42,11.08,-0.05,0.02,-0.00,27.73
53277176,1737,1,203705,250429,0.78,-0.67,10.10,-0.01,-0.09,-0.00,27.73
53317199,1776,1,203898,249315,0.40,-1.10,10.51,-0.05,0.02,-0.00,27.73
53357176,1788,1,202905,246989,0.75,-0.78,10.69,-0.03,-0.09,0.00,27.73
53397178,1797,1,202269,245232,0.71,-0.41,9.72,-0.02,-0.06,0.00,27.73
53437863,1827,1,202316,247042,0.73,-0.47,10.02,-0.06,0.01,0.01,27.81
53476170,1847,1,202654,246878,0.64,-1.01,9.73,-0.03,-0.02,0.00,27.81
53516176,1879,1,202292,247522,1.15,-0.62,9.35,-0.02,-0.08,0.00,27.81
53556179,1844,1,202728,246791,0.97,-0.62,9.99,-0.03,0.04,-0.00,27.81
53596176,1884,1,202432,247264,0.85,-0.59,9.86,-0.05,-0.09,-0.00,27.81
53636200,1882,1,202854,247330,0.89,-1.13,10.86,-0.05,-0.02,-0.00,27.81
53676199,1869,1,202665,247881,1.09,-0.92,9.26,-0.03,-0.10,0.00,27.81
53716179,1863,1,203016,247279,1.33,-1.06,9.73,-0.03,-0.07,-0.01,27.81
53756199,1869,1,202852,248212,1.07,-0.46,9.77,-0.04,-0.07,-0.00,27.81
53796199,1863,1,203344,249060,0.73,-1.25,9.22,-0.04,0.06,-0.01,27.81
53836179,1849,1,203711,250623,0.84,-0.81,10.35,-0.04,-0.03,-0.01,27.81
53876199,1849,1,203881,250991,0.77,-0.65,10.14,-0.02,0.02,-0.01,27.81
53916179,1851,1,203835,250373,0.47,-1.59,10.64,-0.01,0.03,-0.01,27.81
53956179,1883,1,203422,249180,0.62,-1.22,10.05,-0.03,-0.08,-0.01,27.81
53996199,1849,1,203236,248558,0.70,-0.25,10.32,-0.04,-0.10,-0.01,27.81
54036199,1829,1,203527,249214,0.75,-0.87,10.55,-0.07,-0.05,-0.01,27.81
54076199,1840,1,203350,248024,0.84,-0.83,8.47,-0.03,-0.02,-0.01,27.81
54116199,1840,1,202916,246957,1.20,-1.52,9.85,-0.06,-0.02,-0.02,27.81
54156199,1850,1,202667,245576,0.72,-0.54,10.00,-0.03,-0.02,-0.02,27.81
54196199,1857,1,202943,246625,0.46,-0.85,11.45,-0.07,-0.02,-0.01,27.81
54236199,1849,1,203027,246364,0.38,-0.76,9.31,-0.06,-0.03,-0.01,27.81
54276199,1857,1,202982,246785,0.94,-1.17,9.90,-0.03,-0.02,-0.02,27.81
54316199,1879,1,203313,247041,0.75,-0.99,9.66,-0.05,0.07,-0.02,27.81
54356179,1888,1,203365,247112,0.91,-0.98,11.82,-0.06,-0.06,-0.02,27.81
54396199,1866,1,203244,245693,0.69,-1.21,8.93,-0.04,-0.01,-0.01,27.81
54436199,1858,1,202834,244438,-0.27,-2.23,10.60,-0.09,0.06,0.20,27.81
54476865,1839,1,202768,245588,0.76,-1.07,10.26,-0.06,0.06,-0.01,27.61
54517179,1870,1,202920,246542,0.23,-1.71,9.85,-0.04,0.08,-0.02,27.61
54557179,1840,1,203014,247441,0.74,-1.41,10.45,-0.03,-0.02,-0.02,27.61
54595223,1775,1,203384,248097,0.37,-1.30,10.49,-0.04,0.00,-0.02,27.61
54635179,1795,1,203686,249706,0.12,-1.54,9.83,-0.06,-0.02,-0.02,27.61
54675199,1815,1,203882,250193,0.48,-1.25,10.01,-0.04,0.03,-0.03,27.61
54715179,1799,1,203764,249901,0.21,-1.04,9.67,-0.02,0.01,-0.19,27.61
54755179,1606,1,203416,248288,0.89,-0.98,10.41,-0.02,-0.03,-0.03,27.61
54795222,1648,1,203095,247836,0.87,-0.91,12.45,-0.05,-0.02,-0.03,27.61
54835199,1728,1,202908,245689,0.48,-1.36,9.13,-0.05,-0.06,-0.03,27.61
54875199,1753,1,202380,243204,0.47,-0.77,10.27,-0.06,-0.03,-0.03,27.61
54915199,1805,1,202016,242199,0.40,-1.52,9.32,-0.05,-0.03,-0.03,27.61
54955199,1852,1,201837,241472,0.48,-1.32,9.09,-0.03,-0.04,-0.03,27.61
54995199,1882,1,201870,241568,0.67,-1.51,10.06,-0.05,0.03,-0.02,27.61
55035179,1893,1,202067,242794,0.27,-0.96,10.33,-0.05,0.01,-0.02,27.61
55075179,1910,1,203185,244560,0.11,-1.09,10.73,-0.05,0.02,-0.02,27.61
55115179,1939,1,202683,243532,0.56,-0.61,8.77,0.01,-0.19,0.03,27.61
55155170,1943,1,203332,245401,0.73,-2.02,9.08,-0.02,-0.11,0.13,27.61
55195179,1951,1,203901,246166,1.15,-0.76,9.37,0.04,0.01,-0.02,27.61
55235170,1951,1,204331,247928,0.80,-1.36,10.84,-0.02,0.05,-0.02,27.61
55275179,1950,1,204513,247836,0.24,-0.58,9.73,0.00,0.02,-0.03,27.61
55315202,1969,1,204317,247059,1.13,-1.20,9.35,-0.02,-0.13,-0.03,27.61
55355199,1959,1,204656,248723,0.52,-1.09,11.51,-0.06,0.02,-0.02,27.61
55395179,1937,1,204694,248562,1.23,-0.89,8.22,0.04,-0.03,-0.03,27.61
55435179,1936,1,205109,250016,0.47,-1.75,11.43,-0.00,0.07,-0.02,27.61
55475179,1921,1,204754,248350,0.66,-0.91,8.91,-0.01,-0.06,-0.04,27.61
55515886,1933,1,204527,247793,0.57,-1.09,11.04,-0.04,-0.07,-0.03,27.67
55556199,1861,1,204244,245886,0.42,-0.98,8.60,-0.02,0.02,-0.03,27.67
55596176,1895,1,203423,243279,0.77,-0.99,9.00,0.00,-0.10,-0.03,27.67
55636179,1891,1,203262,244364,1.14,-0.96,9.80,-0.01,0.03,-0.03,27.67
55676179,1852,1,203400,244081,0.73,-1.20,9.25,0.01,-0.02,-0.03,27.67
55716179,1881,1,203191,244327,1.20,-0.82,9.18,0.00,-0.10,-0.03,27.67
55756176,1878,1,203689,244990,0.40,-1.46,9.23,-0.06,-0.05,-0.02,27.67
55796199,1877,1,203356,244540,0.98,-0.27,9.63,0.01,-0.20,-0.01,27.67
55836179,1874,1,204155,246202,0.48,-1.79,9.16,-0.02,0.06,0.02,27.67
55876170,1855,1,204033,246711,1.02,-0.82,8.33,0.05,-0.13,-0.03,27.67
55916179,1861,1,205432,249701,1.37,-1.63,13.07,-0.06,0.08,-0.01,27.67
55956179,1885,1,205226,249079,0.45,-0.29,8.89,0.05,-0.09,-0.01,27.67
55996179,1858,1,205721,250736,0.70,-1.56,11.51,-0.07,0.01,-0.02,27.67
56036179,1831,1,205591,250258,0.54,-0.63,7.97,0.03,-0.02,-0.03,27.67
56076177,1840,1,205971,251007,1.05,-1.50,12.38,-0.06,0.01,-0.02,27.67
56116179,1826,1,205909,251288,-0.02,-0.88,9.95,-0.02,0.11,-0.02,27.67
56156199,1827,1,206168,251161,0.68,-1.46,13.83,-0.04,-0.04,-0.03,27.67
56196199,1861,1,205362,248969,0.46,0.60,7.77,0.06,-0.43,0.01,27.67
56236185,1823,1,205820,248991,0.00,-2.38,11.83,-0.20,0.09,0.11,27.67
56276171,1748,1,203959,242626,1.04,0.38,5.75,0.06,-0.28,-0.11,27.67
56314170,1743,1,204305,245981,1.02,-2.93,12.84,-0.21,-0.01,0.11,27.67
56354179,1737,1,204114,242199,1.57,-0.26,7.12,-0.03,-0.05,-0.24,27.67
56394199,1788,1,204154,243495,-0.09,-3.46,12.47,-0.13,0.05,0.19,27.67
56434179,1702,1,203663,241503,1.04,-0.59,7.29,-0.00,-0.11,-0.07,27.67
56474199,1715,1,204384,246647,0.39,-2.46,8.86,-0.06,0.12,0.09,27.67
56514171,1895,1,205963,249631,1.56,-1.33,9.35,0.02,0.02,-0.35,27.67
56554857,1945,1,205716,250473,1.41,0.51,7.39,0.06,-0.05,-0.36,27.53
56595171,1885,1,206414,251796,1.76,-1.04,8.85,-0.01,0.09,-0.04,27.53
56635179,1872,1,206153,251124,0.72,-1.05,10.79,0.02,-0.05,-0.03,27.53
56674179,1933,1,206038,251693,1.15,-0.73,10.91,-0.01,0.02,-0.03,27.53
56714179,1893,1,206128,251954,0.78,-1.37,11.32,-0.01,0.03,-0.13,27.53
56754179,1920,1,205885,251699,0.62,-1.28,9.83,0.08,0.01,-0.19,27.53
56794170,1915,1,205696,250960,0.50,-1.38,11.41,0.00,0.05,-0.06,27.53
56834170,1866,1,205485,251287,0.81,-0.59,11.61,0.02,-0.02,-0.03,27.53
56874179,1878,1,205321,249977,0.63,-0.49,10.79,0.02,-0.07,-0.03,27.53
56914179,1749,1,205109,250952,0.30,-0.92,10.47,-0.05,-0.05,-0.01,27.53
56954200,1707,1,205705,249197,1.06,-0.47,10.91,-0.07,-0.06,-0.02,27.53
56994199,1751,1,205136,250662,0.70,-1.12,10.61,-0.07,0.00,0.20,27.53
57034170,1779,1,205011,247189,1.29,-0.38,10.50,-0.03,-0.08,-0.02,27.53
57074199,1813,1,204592,247025,1.36,-0.51,9.99,-0.09,0.03,0.81,27.53
57114170,1904,1,205178,247239,1.00,-0.83,8.21,-0.07,-0.28,0.13,27.53
57154179,1943,1,205615,247746,0.65,-1.81,9.89,-0.13,0.02,-0.01,27.53
57194179,1951,1,205668,249416,1.35,-1.58,7.69,-0.05,-0.20,0.01,27.53
57234179,1967,1,206161,248328,0.71,-2.07,10.06,-0.09,-0.00,-0.03,27.53
57274196,2039,1,205659,249453,0.94,-1.38,7.72,0.03,-0.13,0.10,27.53
57314170,1988,1,206147,247820,0.78,-2.25,8.42,0.01,0.07,-0.03,27.53
57354170,2000,1,205249,247720,0.38,-0.45,6.36,0.04,-0.17,-0.01,27.53
57394179,2006,1,204985,246254,1.55,-0.40,6.01,0.04,-0.13,-0.06,27.53
57434179,1981,1,204938,248051,1.87,-1.38,8.59,0.00,0.04,-0.02,27.53
57474171,1955,1,204729,246466,1.46,-1.75,6.83,0.01,-0.00,-0.18,27.53
57514179,1934,1,204919,248155,1.48,-0.57,11.10,0.00,0.09,-0.06,27.53
57554857,1909,1,205434,249249,0.76,-1.21,9.58,-0.02,-0.03,-0.02,27.73
57595199,1882,1,205380,249308,1.11,-0.97,9.32,0.05,-0.06,-0.03,27.73
57635179,1844,1,205565,249012,1.88,-0.54,9.15,0.02,-0.04,-0.03,27.73
57674179,1812,1,205254,249041,1.64,-0.37,10.77,0.03,0.01,-0.01,27.73
57714171,1799,1,205108,247141,1.90,-0.56,11.06,0.01,0.11,-0.04,27.73
57754170,1792,1,204413,247613,0.60,-1.23,10.10,-0.00,0.04,-0.03,27.73
57794179,1791,1,205124,247551,1.10,-0.16,12.61,-0.06,0.11,-0.04,27.73
57834179,1796,1,204787,248607,0.04,-0.29,11.77,-0.02,-0.06,0.05,27.73
57874212,1844,1,204925,247312,1.98,-0.36,11.42,-0.00,-0.08,-0.03,27.73
57914199,1847,1,205283,249530,0.22,-2.13,14.28,-0.09,0.11,0.38,27.73
57954170,1834,1,205494,247931,1.70,0.11,10.79,0.01,-0.14,-0.02,27.73
57994170,1821,1,205632,248570,0.40,-2.43,14.14,-0.21,0.10,0.50,27.73
58034171,1806,1,205278,245888,0.50,-0.64,8.11,0.02,-0.42,-0.03,27.73
58074219,1814,1,204866,244930,1.19,-1.22,12.84,-0.16,-0.09,0.29,27.73
58114179,1808,1,204428,243721,0.66,-1.18,7.66,-0.07,-0.12,-0.23,27.73
58154199,1825,1,204309,243849,1.79,-1.31,11.38,-0.10,0.00,-0.30,27.73
58194179,1814,1,204092,242118,1.20,-1.22,8.00,-0.09,0.00,-0.16,27.73
58234176,1776,1,203634,244125,0.94,-0.67,8.88,-0.14,-0.18,-0.07,27.73
58274200,1726,1,204521,244256,1.08,-1.63,7.72,-0.01,-0.04,-0.11,27.73
58314199,1718,1,204818,246586,0.92,-1.39,8.77,-0.01,0.01,-0.14,27.73
58354179,1727,1,206680,249519,0.56,-1.86,10.35,-0.00,0.22,-0.20,27.73
58394179,1578,1,206730,250163,1.14,-0.64,11.31,0.05,-0.09,-0.51,27.73
58434179,1379,1,206645,250625,0.58,-1.52,8.88,-0.00,0.12,-0.12,27.73
58474179,1499,1,206193,250367,2.30,-0.01,10.18,0.01,-0.13,-0.23,27.73
58514179,1599,1,206340,251563,0.55,-1.74,9.50,0.01,0.10,-0.02,27.73
58554853,1710,1,205821,251202,0.63,-1.24,8.60,0.04,-0.06,-0.03,27.73
58593179,1768,1,206198,251876,1.51,-1.87,12.12,-0.03,0.03,-0.09,27.73
58633179,1809,1,205591,252356,1.02,0.85,8.36,0.03,-0.06,-0.16,27.73
58673171,1813,1,206317,252437,0.95,-1.97,9.88,-0.01,0.10,-0.09,27.73
58714179,1783,1,205907,252481,0.31,-0.66,9.67,0.04,-0.01,-0.00,27.73
58754179,1837,1,206198,252689,1.24,-1.44,12.33,-0.04,0.07,-0.05,27.73
58794179,1887,1,205789,253051,0.22,-1.09,10.09,0.02,-0.08,-0.02,27.73
58834178,1967,1,205917,252315,1.66,-1.14,10.30,-0.05,-0.02,-0.08,27.73
58874199,1970,1,205489,252778,0.61,-1.11,10.14,-0.06,-0.12,-0.02,27.73
58914200,2007,1,205737,252278,1.34,-1.17,10.93,-0.06,0.01,-0.05,27.73
58954179,2017,1,205336,252316,0.78,-1.21,9.09,0.00,-0.08,-0.04,27.73
58994179,2058,1,205511,251191,1.72,-0.48,11.13,-0.09,-0.03,-0.05,27.73
59034199,2026,1,204869,250836,0.26,-0.89,9.61,-0.08,-0.06,-0.03,27.73
59074199,2003,1,204538,248998,1.04,-0.58,8.02,-0.03,0.01,-0.04,27.73
59114176,1984,1,204337,248253,0.82,-1.13,9.73,-0.11,0.03,-0.04,27.73
59154179,1987,1,203615,246818,1.27,-1.11,9.54,-0.03,-0.00,-0.05,27.73
59194199,1966,1,204177,247721,0.76,-1.99,12.05,-0.07,0.09,-0.05,27.73
59234179,1917,1,203355,246261,1.19,-0.39,8.18,-0.00,-0.14,-0.04,27.73
59274199,1913,1,204431,249671,0.24,-1.22,10.39,-0.12,0.14,-0.02,27.73
59314179,1908,1,204377,248073,0.18,-0.92,8.12,0.03,0.06,-0.03,27.73
59354167,1919,1,204463,250542,1.22,-2.15,12.16,-0.03,-0.01,-0.03,27.73
59394200,1810,1,204887,250571,0.62,-0.31,9.11,0.03,0.06,-0.04,27.73
59434170,1826,1,204833,250800,1.16,-0.96,10.02,-0.03,-0.10,-0.04,27.73
59474199,1803,1,205305,250595,1.20,-0.31,10.30,-0.08,0.04,-0.04,27.73
59514183,1807,1,204669,251537,0.74,-1.18,10.24,-0.03,-0.07,-0.03,27.73
59554886,1735,1,205213,250450,1.28,-0.62,9.93,0.03,0.11,-0.04,27.75
59593170,1743,1,204823,250922,1.31,-1.19,12.92,-0.06,-0.10,-0.04,27.75
59633200,1777,1,204921,251054,1.23,-0.90,10.92,-0.02,-0.01,-0.04,27.75
59673199,1808,1,204973,251269,0.53,-1.06,9.47,-0.05,-0.08,-0.04,27.75
59713227,1792,1,205177,250954,0.82,-0.46,9.80,-0.06,-0.02,-0.04,27.75
59753196,1819,1,204964,250857,1.20,-0.74,9.43,-0.04,-0.06,-0.04,27.75
59793200,1861,1,205082,250123,1.25,-1.09,11.18,-0.03,0.09,-0.05,27.75
59833179,1849,1,203692,246949,0.66,-0.89,8.97,-0.02,-0.16,-0.04,27.75
59873199,1865,1,203633,247943,1.71,-0.44,10.37,-0.09,-0.07,-0.04,27.75
59913199,1855,1,203941,248741,0.79,-0.89,8.93,-0.05,0.01,-0.03,27.75
59953178,1855,1,204511,249852,0.48,-2.17,9.28,-0.03,0.08,-0.04,27.75
59993179,1858,1,204494,248891,1.36,-1.22,10.43,-0.02,-0.10,-0.04,27.75
60033200,1856,1,203708,248743,1.06,-0.64,10.02,0.01,-0.10,-0.02,27.75
60073179,1863,1,204374,248627,0.62,-1.24,9.48,-0.05,0.09,-0.04,27.75
60113179,1861,1,204237,249575,0.79,-0.65,10.07,0.00,-0.05,-0.03,27.75
60153240,1846,1,204252,250308,1.19,-0.66,8.35,0.02,0.00,-0.03,27.75
60193171,1840,1,204919,250661,1.04,-1.24,9.66,0.01,0.10,-0.04,27.75
60233170,1809,1,204460,250184,1.92,-0.18,10.69,0.01,-0.10,-0.04,27.75
60273179,1849,1,204086,249713,1.30,-0.49,8.73,-0.02,-0.05,-0.04,27.75
60313199,1840,1,204268,250424,1.32,0.11,8.34,-0.07,0.00,-0.04,27.75
60353170,1840,1,204834,250307,0.89,-0.67,9.92,-0.06,0.07,-0.04,27.75
60393179,1826,1,204407,251942,1.60,-0.76,11.44,-0.01,-0.09,-0.04,27.75
60433198,1792,1,205148,252265,0.46,-1.83,9.45,0.00,0.14,-0.04,27.75
60473169,1785,1,205002,251699,0.85,-1.38,10.94,0.01,-0.05,-0.04,27.75
60513179,1813,1,204758,250824,0.90,-0.74,10.86,-0.05,0.02,-0.03,27.75
60553176,1808,1,203841,249356,0.94,-1.56,10.07,-0.03,-0.03,-0.04,27.75
60593886,1812,1,203680,247924,0.42,-1.26,8.16,-0.01,0.16,-0.05,27.75
60632179,1833,1,203208,246483,1.00,-0.63,11.49,-0.09,-0.09,-0.04,27.75
60672199,1830,1,202822,246488,0.52,-0.98,11.99,-0.01,0.02,-0.02,27.75
60712179,1830,1,202513,245310,0.51,-1.00,7.04,0.03,-0.11,-0.02,27.75
60752178,1835,1,203153,245758,0.99,-1.29,10.42,-0.08,0.07,-0.02,27.75
60792178,1858,1,202708,246366,0.99,-0.00,8.13,0.01,-0.12,0.04,27.75
60832170,1866,1,203601,246980,1.71,-0.55,9.87,-0.01,0.13,-0.03,27.75
60872179,1844,1,203834,248546,0.33,-0.81,10.28,-0.06,-0.03,-0.03,27.75
60912199,1837,1,204081,248234,1.54,-0.36,9.63,-0.11,-0.08,-0.04,27.75
60952199,1826,1,204309,248816,0.59,-1.39,11.69,-0.12,0.03,-0.03,27.75
60992179,1840,1,203796,247523,0.83,-1.14,6.45,-0.04,0.01,-0.05,27.75
61032179,1819,1,204255,247825,0.38,-2.65,12.04,-0.15,0.09,-0.04,27.75
61072178,1694,1,203333,247623,0.96,-1.13,8.40,0.04,-0.11,-0.03,27.75
61112179,1710,1,204274,249740,0.10,-2.23,10.02,-0.10,0.17,-0.04,27.75
61152184,1694,1,204124,249981,0.48,-0.51,8.23,-0.01,-0.00,-0.30,27.75
61192197,1673,1,204361,250138,0.74,-1.45,10.19,-0.05,0.12,-0.14,27.75
61232179,1676,1,203983,250076,0.39,-0.71,9.43,0.02,0.06,-0.06,27.75
61272166,1744,1,204172,250386,0.96,-1.44,11.24,-0.05,0.02,-0.16,27.75
61312179,1817,1,204167,251195,0.43,-2.22,10.68,-0.07,-0.00,-0.20,27.75
61352205,1701,1,203826,249185,0.48,-0.40,7.30,-0.07,-0.03,-0.21,27.75
61392199,1947,1,203156,248349,0.44,-0.52,11.88,-0.04,0.02,-0.06,27.75
61432179,2058,1,202721,247871,0.66,-1.22,10.86,-0.04,0.08,-0.06,27.75
61472178,2130,1,202697,248408,0.31,-1.12,9.60,0.00,0.00,-0.06,27.75
61512166,2138,1,203678,249240,1.01,-0.99,11.15,-0.08,0.03,-0.05,27.75
61552178,2075,1,203399,249465,0.79,-0.64,10.12,-0.07,-0.09,-0.04,27.75
61592199,2064,1,203876,249661,0.23,-1.87,9.75,-0.05,0.10,-0.05,27.75
61632865,2040,1,203079,246814,0.83,-1.40,9.66,-0.00,-0.11,-0.06,27.79
61671199,2016,1,202936,246714,0.66,-1.94,11.04,-0.05,0.00,0.04,27.79
