timestamp_us,ecg,leads,ir,red,accX,accY,accZ,gyroX,gyroY,gyroZ,temp
1919492,1322,1,198919,243461,0.00,0.00,0.00,0.00,0.00,0.00,0.00
1949958,1388,1,198648,242410,0.62,-0.73,9.64,-0.05,-0.02,-0.03,29.85
1990203,1584,1,198374,241573,-0.37,-1.33,9.85,-0.08,-0.01,-0.02,29.85
2030210,1738,1,198252,241616,0.29,-1.02,8.66,-0.01,-0.02,-0.03,29.85
2070193,1776,1,198457,242449,0.04,-1.93,9.91,-0.04,-0.03,-0.03,29.85
2110192,1935,1,198816,243191,-0.91,-1.82,9.89,0.01,0.02,-0.05,29.85
2150175,2037,1,198667,242165,0.23,0.28,8.69,0.03,-0.12,-0.19,29.85
2190164,2000,1,198339,241989,-0.29,-1.66,10.86,0.02,0.00,-0.04,29.85
2230175,2141,1,197996,241130,-0.39,-0.78,8.48,0.04,-0.09,-0.04,29.85
2270192,2175,1,197893,241675,0.02,-1.85,11.23,0.00,-0.05,0.00,29.85
2310163,2285,1,197762,241087,-0.14,-0.30,7.79,-0.01,0.03,-0.04,29.85
2350191,2286,1,197734,241368,-0.10,-1.10,10.37,-0.02,0.04,-0.03,29.85
2390193,2277,1,197751,242624,0.57,-0.44,9.70,-0.01,0.01,-0.04,29.85
2430206,2182,1,198791,244611,0.06,-0.60,10.74,-0.03,0.06,-0.05,29.85
2470175,2322,1,199353,245440,0.20,-0.45,9.46,-0.01,-0.01,-0.17,29.85
2510191,2282,1,199725,245666,-0.11,-0.84,11.17,-0.04,-0.02,-0.04,29.85
2550210,2281,1,199121,244034,0.57,-0.55,9.25,-0.05,-0.10,-0.04,29.85
2590191,2198,1,199094,244562,-0.20,-0.82,12.30,-0.05,0.04,-0.04,29.85
2630193,2227,1,199101,243288,-0.20,-0.92,10.24,-0.02,-0.03,-0.03,29.85
2670210,2239,1,198891,243873,-0.23,-1.02,11.34,-0.02,-0.03,-0.03,29.85
2708210,2270,1,199124,243137,-0.18,-1.30,8.86,-0.08,-0.02,-0.04,29.85
2748210,2205,1,198508,241996,0.34,-0.85,8.90,-0.03,-0.11,-0.04,29.85
2788194,2149,1,198495,242232,-0.40,-1.29,9.93,-0.07,0.02,-0.04,29.85
2828191,2141,1,198713,242286,-0.49,-1.19,9.76,-0.04,-0.04,-0.04,29.85
2868210,1994,1,198459,242375,0.03,-0.90,9.69,-0.02,-0.04,-0.03,29.85
2908191,2034,1,198578,242291,0.12,-0.86,9.87,-0.04,-0.01,-0.04,29.85
2948231,2007,1,197977,241812,0.62,-0.61,9.63,-0.02,-0.05,-0.04,29.85
2988878,2057,1,197967,241661,-0.11,-1.23,9.22,-0.08,0.04,-0.04,29.69
3029194,2023,1,197801,241202,0.01,-0.80,10.03,-0.04,-0.01,-0.03,29.69
3069191,1989,1,197276,239938,0.16,-1.24,9.03,-0.04,0.01,-0.03,29.69
3109175,1959,1,197304,241777,-0.19,-1.20,10.65,-0.01,0.01,-0.03,29.69
3149192,1994,1,197845,242064,0.12,-1.34,8.73,-0.04,-0.00,-0.04,29.69
3189194,1934,1,197787,242484,0.40,-1.10,10.24,-0.02,-0.06,-0.04,29.69
3229191,1925,1,197785,240052,-0.09,-1.30,10.57,-0.03,-0.02,-0.04,29.69
3269210,1872,1,196185,238085,0.08,-0.78,9.57,0.03,-0.06,-0.03,29.69
3309175,1934,1,196628,238933,-0.23,-1.40,10.18,-0.05,0.05,-0.04,29.69
3349194,2003,1,196681,238910,-0.81,-1.32,9.15,-0.01,-0.00,-0.03,29.69
3389210,2006,1,197136,240224,-0.27,-1.05,11.28,-0.01,0.05,-0.03,29.69
3429194,1958,1,198025,242290,-0.60,-1.04,11.05,0.01,0.06,-0.03,29.69
3469175,1854,1,198143,241987,0.45,-0.87,10.71,-0.01,-0.05,-0.03,29.69
3509194,1840,1,198268,241856,-0.29,-1.11,11.11,-0.04,0.03,-0.04,29.69
3549192,1789,1,197671,240275,0.31,-1.06,9.30,-0.03,-0.06,-0.03,29.69
3589193,1799,1,197233,240092,0.25,-0.74,9.08,-0.07,-0.00,-0.02,29.69
3629191,1873,1,197991,241955,0.42,-0.92,10.70,-0.04,0.00,-0.03,29.69
3669175,1794,1,198001,241900,0.68,-0.91,8.41,-0.05,-0.09,-0.03,29.69
3709192,1776,1,198658,244179,0.08,-1.23,10.07,-0.08,0.03,-0.04,29.69
3749175,1739,1,199428,243884,0.08,-1.00,8.72,-0.04,-0.02,-0.13,29.69
3789191,1713,1,199030,244471,0.36,-1.20,10.02,-0.03,-0.04,-0.04,29.69
3829193,1772,1,198807,242505,0.57,-0.66,8.74,-0.05,-0.02,-0.05,29.69
3869243,1833,1,198129,239557,-0.38,-1.23,8.90,-0.02,-0.02,-0.03,29.69
3909210,1936,1,196792,239132,0.52,-1.50,8.98,-0.02,-0.09,-0.03,29.69
3949191,1948,1,197250,238391,-0.26,-1.72,8.42,-0.04,-0.03,-0.03,29.69
3989896,1921,1,196483,239822,0.47,-0.69,8.06,0.03,-0.12,-0.03,29.43
4028178,1927,1,197537,240730,0.11,-1.44,8.99,-0.08,0.01,-0.03,29.43
4068184,1895,1,197742,242204,0.46,-0.07,10.31,0.04,-0.10,-0.02,29.43
4108175,1808,1,198162,241856,-0.19,-1.10,8.32,-0.04,0.02,-0.02,29.43
4148193,1821,1,197814,242002,0.91,0.57,11.71,0.07,-0.06,-0.03,29.43
4188163,1808,1,197917,242208,-0.42,-1.04,10.33,-0.05,0.12,0.00,29.43
4228175,1966,1,197609,241728,2.00,0.35,10.81,0.01,-0.12,-0.03,29.43
4268164,1984,1,198237,242178,-0.84,-1.37,15.17,-0.05,0.15,0.00,29.43
4308177,1995,1,197886,242551,0.55,-0.34,8.87,0.01,-0.19,0.01,29.43
4348163,1930,1,198652,242933,0.23,-1.58,14.65,-0.09,0.04,-0.04,29.43
4388177,1680,1,198302,243358,0.25,-0.92,7.66,-0.02,-0.25,-0.02,29.43
4428192,1773,1,198860,242988,0.17,-0.86,11.32,-0.13,-0.00,-0.04,29.43
4468197,1717,1,198575,242520,-0.64,-1.34,9.68,0.00,-0.16,-0.01,29.43
4508193,1695,1,198177,241879,0.97,-0.79,8.68,-0.04,-0.14,-0.03,29.43
4548194,1571,1,198694,243178,-0.87,-1.53,10.41,-0.06,-0.02,-0.02,29.43
4588210,1594,1,198372,241444,0.59,-1.59,7.34,-0.05,-0.20,-0.03,29.43
4628194,1642,1,198328,241508,-0.29,-0.66,10.01,-0.05,0.01,-0.03,29.43
4668194,1795,1,197541,240730,0.93,-0.87,7.08,-0.00,-0.14,-0.02,29.43
4708228,1824,1,198338,243727,-0.23,-0.84,10.44,-0.05,0.08,-0.01,29.43
4748193,1978,1,198797,242873,1.37,-0.23,6.91,0.01,-0.09,-0.04,29.43
4788175,1995,1,199252,244713,-0.50,-1.01,10.83,-0.05,0.16,-0.03,29.43
4828198,2067,1,199003,242651,1.61,-0.99,8.90,0.02,-0.07,-0.04,29.43
4868178,2027,1,199063,243812,0.00,-1.58,11.20,-0.02,0.10,-0.02,29.43
4908175,2138,1,198591,241583,1.03,-1.11,6.97,-0.01,-0.05,-0.03,29.43
4948198,2101,1,198817,243360,0.10,-0.85,10.27,-0.03,0.12,-0.03,29.43
4988178,2123,1,199554,243494,0.31,-1.24,7.92,-0.01,0.03,-0.02,29.43
5028864,2055,1,200011,245072,0.27,-1.19,11.15,-0.02,0.08,-0.03,29.39
5067177,2046,1,201097,244683,0.80,-0.60,10.40,-0.01,0.03,-0.03,29.39
5107178,2044,1,200679,240293,0.34,-0.67,9.78,-0.03,0.02,-0.06,29.39
5147175,2053,1,198787,229708,-0.61,-1.62,11.92,-0.07,0.12,-0.03,29.39
5187197,2074,1,193916,221064,-0.26,-0.75,9.65,-0.02,-0.03,-0.03,29.39
5227210,1965,1,191399,218872,-0.11,-1.09,10.94,-0.07,0.08,-0.03,29.39
5267195,2002,1,190463,218643,-0.23,-1.37,11.61,-0.05,0.07,-0.03,29.39
5307198,1981,1,190805,223021,0.11,-1.12,9.92,-0.06,-0.01,-0.03,29.39
5347197,1998,1,193142,230109,-0.13,-1.18,9.82,-0.07,0.06,-0.03,29.39
5387198,1998,1,196608,235999,0.17,-0.85,9.10,-0.07,-0.01,-0.03,29.39
5427197,1952,1,197907,237828,0.47,-1.08,10.34,-0.09,0.03,-0.04,29.39
5467175,1955,1,197788,238679,0.77,-1.36,9.44,-0.10,0.01,-0.08,29.39
5507220,1927,1,197666,237444,0.11,-0.89,9.57,-0.09,0.05,-0.08,29.39
5547175,1891,1,197179,237801,0.42,-1.50,9.76,-0.04,0.01,-0.04,29.39
5587177,1904,1,197668,239681,0.24,-0.80,9.42,-0.04,0.02,-0.04,29.39
5627175,1907,1,198546,242183,0.10,-1.29,8.19,-0.06,-0.01,-0.03,29.39
5667193,1936,1,200029,244614,-0.47,-1.67,11.11,-0.02,0.07,-0.03,29.39
5707230,1899,1,200210,243135,0.64,-0.73,8.71,-0.01,-0.04,-0.04,29.39
5747193,1904,1,200365,244538,-1.18,-2.15,11.57,-0.01,0.04,-0.02,29.39
5787194,1878,1,200873,244711,-0.18,-1.45,7.88,-0.03,-0.00,-0.04,29.39
5827210,1894,1,200975,245327,-0.33,-1.23,9.98,-0.00,-0.05,-0.03,29.39
5867210,1904,1,201131,245327,-0.28,-1.54,8.82,-0.03,0.03,-0.03,29.39
5907194,1900,1,201250,246232,-0.31,-1.30,11.46,0.03,-0.02,-0.03,29.39
5947193,1904,1,201276,247029,0.15,-1.09,8.69,-0.01,-0.02,-0.03,29.39
5987194,1905,1,201866,248411,-0.43,-1.86,11.13,-0.01,0.04,-0.04,29.39
6027198,1936,1,201756,247829,0.08,-0.17,9.10,0.00,-0.07,-0.18,29.39
6067861,1821,1,201575,247765,-0.44,-1.18,11.84,-0.04,0.01,-0.02,29.55
6106192,1841,1,200980,247022,0.34,-0.42,10.85,0.00,-0.03,-0.05,29.55
6146177,1874,1,200876,247234,0.29,-1.01,11.05,-0.01,-0.05,-0.04,29.55
6186194,1968,1,200280,245933,0.94,-0.93,9.46,-0.04,-0.07,-0.04,29.55
6226197,1951,1,200309,246477,-0.45,-1.72,10.35,-0.06,-0.03,-0.04,29.55
6266211,2035,1,200301,246979,0.38,-1.10,9.42,-0.02,-0.09,-0.04,29.55
6306197,1951,1,200742,246652,-0.19,-1.41,11.08,-0.05,-0.06,-0.04,29.55
6347210,1887,1,200051,245467,-0.04,-1.44,9.64,-0.02,-0.12,-0.04,29.55
6387210,1886,1,199638,243068,-0.41,-1.58,9.25,-0.07,-0.05,-0.03,29.55
6427210,1905,1,198317,241685,-0.38,-1.37,9.63,-0.02,-0.05,-0.03,29.55
6467210,1911,1,198040,241016,0.10,-1.31,9.86,-0.05,-0.02,-0.04,29.55
6507194,1889,1,197895,241644,-0.55,-1.24,9.95,-0.01,0.00,-0.03,29.55
6547194,1925,1,197738,240503,0.38,-0.71,8.83,-0.02,-0.04,-0.04,29.55
6587192,1867,1,197305,241150,0.13,-1.23,9.45,-0.03,0.02,0.07,29.55
6627165,1923,1,197286,241233,0.63,-1.19,8.05,-0.04,-0.03,-0.04,29.55
6667192,1919,1,198261,245500,-0.33,-1.57,10.42,-0.06,0.10,-0.02,29.55
6707197,1913,1,199321,245287,1.37,0.23,8.67,-0.01,-0.07,-0.31,29.55
6747175,1759,1,198963,245322,0.09,-1.32,12.35,-0.04,0.04,-0.03,29.55
6787175,1856,1,197576,241920,1.11,-1.28,7.87,-0.07,-0.02,-0.04,29.55
6827197,1904,1,196779,242029,-0.26,-1.43,12.54,-0.06,0.05,0.10,29.55
6867177,1986,1,196008,239969,1.07,-0.66,7.74,-0.06,-0.11,0.06,29.55
6907175,1897,1,196282,242576,-0.68,-1.46,12.14,-0.10,0.11,0.04,29.55
6947177,1925,1,196816,241397,0.98,-0.84,6.81,-0.02,-0.09,-0.23,29.55
6987192,1904,1,197050,243943,-0.51,-0.95,12.31,-0.05,0.09,-0.03,29.55
7027201,1967,1,197374,241632,0.65,-0.80,7.24,-0.04,0.01,-0.24,29.55
7067861,1875,1,196936,242338,-0.61,-0.99,12.66,-0.00,0.03,-0.02,29.51
7106198,2009,1,196586,239852,0.58,-1.31,9.43,-0.04,0.01,-0.04,29.51
7146228,1980,1,195225,238586,-0.10,-1.06,10.52,0.00,-0.00,0.13,29.51
7186177,2015,1,195237,239492,0.18,-1.59,9.72,-0.04,0.02,-0.02,29.51
7226175,2001,1,195458,239729,0.44,-0.98,8.80,-0.04,-0.02,-0.03,29.51
7266198,1975,1,195843,240422,0.03,-1.26,10.56,-0.07,0.07,-0.03,29.51
7306175,2042,1,195634,239372,0.92,-0.64,10.53,-0.03,-0.08,-0.04,29.51
7346221,2016,1,195505,240024,0.03,-1.06,11.99,-0.04,0.04,0.01,29.51
7386165,2012,1,195706,239077,-0.34,-1.54,8.95,-0.05,-0.01,-0.03,29.51
7426214,1939,1,195224,239619,0.24,-0.89,10.47,-0.01,0.03,0.18,29.51
7466164,1948,1,195507,239582,-0.11,-2.28,8.50,-0.08,-0.05,-0.02,29.51
7506212,1936,1,195705,241673,-0.31,-1.63,11.46,-0.02,-0.03,-0.01,29.51
7546210,1929,1,196406,239673,0.05,-1.59,8.63,-0.04,-0.04,-0.19,29.51
7586197,1760,1,195083,240088,-0.39,-1.05,11.77,-0.02,-0.04,0.39,29.51
7626193,1979,1,195783,239332,-0.69,-2.44,9.90,-0.04,0.11,-0.05,29.51
7666195,1654,1,194093,237339,0.76,0.03,7.36,0.06,-0.33,0.30,29.51
7706142,1927,1,195163,239147,-0.83,-2.50,11.30,-0.10,0.15,-0.08,29.51
7746194,1714,1,194251,238307,0.68,0.48,5.37,0.05,-0.33,-0.10,29.51
7786164,1803,1,195379,239938,-0.19,-1.08,12.39,-0.11,0.11,-0.03,29.51
7826198,1806,1,194365,238195,1.29,-0.58,6.97,-0.08,-0.07,-0.08,29.51
7866192,1887,1,194797,239251,0.45,-1.29,12.69,-0.13,0.15,-0.08,29.51
7906177,1919,1,194429,237773,0.76,-0.24,7.35,-0.09,-0.04,-0.11,29.51
7946192,1984,1,194533,239048,-0.41,-1.71,12.53,-0.08,0.10,-0.04,29.51
7986194,2007,1,194479,237368,0.86,-0.48,9.17,-0.03,-0.07,-0.08,29.51
8026203,1973,1,194467,239262,-1.16,-2.55,11.85,-0.02,0.14,0.08,29.51
8066177,2014,1,195126,239132,-0.09,-1.54,9.08,-0.02,-0.02,-0.03,29.51
8106897,1939,1,194786,239106,-0.43,-1.68,9.92,0.01,-0.11,0.04,29.51
8145177,1962,1,194954,238508,-0.56,-1.07,8.02,-0.04,0.04,0.02,29.51
8185175,1862,1,194524,237905,0.09,-1.42,9.62,0.03,-0.15,0.06,29.51
8225164,1907,1,194766,238691,-0.74,-1.79,9.82,-0.01,0.06,0.04,29.51
8265175,1872,1,194734,238777,0.24,-1.20,8.82,0.02,-0.10,-0.04,29.51
8305175,1873,1,194895,238667,-0.45,-0.98,9.81,-0.02,0.07,-0.02,29.51
8345192,1872,1,194237,237021,0.70,-0.72,9.30,-0.02,-0.11,-0.05,29.51
8385194,1825,1,194301,237942,-0.17,-1.19,10.95,-0.04,0.07,-0.04,29.51
8425193,1808,1,194383,238183,0.49,-0.64,10.75,-0.01,-0.06,-0.05,29.51
8465197,1748,1,194359,238596,0.19,-1.26,10.77,-0.04,-0.01,-0.04,29.51
8505192,1776,1,194420,238221,-0.09,-1.51,9.41,-0.07,-0.03,-0.05,29.51
8545210,1847,1,194498,238784,-0.18,-1.27,10.44,-0.05,-0.01,-0.04,29.51
8585210,1853,1,194625,239287,0.03,-1.18,10.51,-0.06,-0.04,-0.04,29.51
8625197,1879,1,194754,239456,-0.02,-1.24,11.03,-0.04,-0.05,-0.04,29.51
8665210,1904,1,194734,238712,-0.69,-2.17,10.29,-0.08,-0.03,-0.04,29.51
8705210,1937,1,194172,237481,0.18,-1.33,8.41,-0.04,-0.12,-0.05,29.51
8745193,1951,1,194075,236676,-0.21,-1.48,9.47,-0.07,0.00,-0.05,29.51
8785210,1884,1,193514,235086,0.19,-1.20,8.18,-0.04,-0.03,-0.05,29.51
8825192,1968,1,193022,234262,0.04,-0.81,8.43,-0.02,-0.01,-0.01,29.51
8865193,1819,1,193086,235899,-0.04,-1.32,8.51,-0.02,0.04,-0.03,29.51
8905192,1826,1,194314,238742,0.26,-1.20,9.54,-0.01,0.07,-0.05,29.51
8945175,1919,1,194936,239023,0.34,-1.50,8.62,-0.02,0.01,-0.14,29.51
8985178,1697,1,194829,238930,0.52,-0.74,9.70,0.01,-0.03,-0.11,29.51
9025238,1793,1,194679,237552,-0.00,-0.91,10.26,0.01,-0.01,-0.05,29.51
9065192,1821,1,193870,236084,0.42,-0.63,9.24,0.02,-0.08,0.02,29.51
9105164,1904,1,193841,234677,-0.54,-1.75,10.00,-0.02,0.03,0.04,29.51
9145861,1774,1,192752,235852,0.18,-0.80,8.17,-0.00,-0.05,0.08,28.91
9184175,1920,1,194237,238080,-0.65,-2.09,12.51,-0.07,0.15,-0.07,28.91
9224193,1786,1,194234,238217,0.47,0.40,8.69,0.06,-0.19,-0.16,28.91
9264163,1687,1,194409,239060,-1.00,-2.55,15.37,-0.03,0.07,-0.13,28.91
9304192,1383,1,194239,238451,-0.26,0.18,8.93,0.00,-0.07,-0.23,28.91
9344175,1377,1,194273,238486,-0.95,-1.75,15.12,-0.02,-0.00,-0.03,28.91
9384210,1589,1,194067,236437,0.89,-0.36,8.60,-0.04,-0.18,0.04,28.91
9425175,1778,1,193764,235126,-1.56,-2.39,12.35,-0.14,0.04,0.37,28.91
9465175,2112,1,193150,235442,0.61,-0.80,7.97,-0.06,-0.09,0.11,28.91
9505175,2147,1,194520,238870,-0.79,-1.64,12.38,-0.07,0.07,0.06,28.91
9545175,2059,1,194785,239008,0.45,-0.88,5.79,-0.00,-0.07,-0.50,28.91
9585193,1965,1,194626,239138,0.29,-2.23,15.61,-0.05,0.03,-0.17,28.91
9625175,1844,1,194371,235170,0.16,0.22,5.67,-0.04,0.03,-0.31,28.91
9665165,1377,1,193397,234974,-0.42,-3.16,13.26,-0.02,-0.00,0.36,28.91
9705193,2151,1,194578,235292,0.20,-1.44,8.08,-0.02,0.04,0.00,28.91
9745164,2027,1,193450,234520,0.99,-0.74,7.62,0.11,-0.44,0.13,28.91
9785164,2001,1,194265,236382,0.46,-1.06,7.57,0.01,0.02,-0.01,28.91
9825164,2255,1,194463,236739,-0.31,-1.57,8.98,0.04,-0.00,-0.04,28.91
9865192,2224,1,194259,237817,0.49,-0.22,9.19,0.06,-0.02,-0.05,28.91
9905177,2237,1,194720,238387,1.59,-1.49,9.69,-0.01,-0.08,-0.05,28.91
9945198,2160,1,194661,238553,-0.97,-1.90,11.40,0.03,0.16,-0.13,28.91
9985177,2127,1,194399,238085,1.06,-1.53,9.53,0.04,-0.07,-0.06,28.91
10025208,2094,1,194505,238853,-0.02,-0.81,12.78,-0.04,0.12,-0.04,28.91
10065198,1839,1,194409,238424,0.38,-0.71,9.41,0.03,-0.07,-0.02,28.91
10105178,1856,1,194404,239164,0.95,0.05,13.34,-0.02,0.06,-0.03,28.91
10145850,1755,1,194629,239393,0.43,-0.75,12.36,-0.06,0.02,-0.08,29.09
10184175,1697,1,194503,239044,0.17,-0.69,10.85,-0.03,-0.05,-0.03,29.09
10224197,1808,1,194962,238575,-0.91,-1.97,13.60,-0.15,0.14,-0.03,29.09
10264193,1942,1,194259,237552,0.41,-0.53,9.79,-0.01,-0.14,-0.02,29.09
10304197,1837,1,195029,238890,-0.91,-2.51,12.29,-0.12,0.10,-0.01,29.09
10344193,1846,1,193839,236840,1.28,-0.68,6.28,-0.11,-0.17,-0.06,29.09
10384197,1965,1,195179,238606,-1.63,-1.80,10.68,-0.16,0.17,-0.01,29.09
10423231,1671,1,193709,235165,1.66,0.02,3.30,-0.08,-0.28,-0.01,29.09
10463175,1317,1,193989,236404,-1.62,-2.35,9.71,-0.20,0.27,0.14,29.09
10503175,1764,1,193369,235858,1.95,0.29,5.76,-0.02,-0.16,-0.08,29.09
10543176,1535,1,193583,235698,1.39,-0.93,7.99,-0.12,0.06,-0.03,29.09
10583175,1645,1,193770,239006,0.95,-1.31,7.26,-0.06,0.13,-0.04,29.09
10623181,1618,1,195745,240702,1.47,-0.86,9.96,0.03,-0.00,-0.27,29.09
10663176,1569,1,195376,240590,1.16,-0.61,7.51,0.00,-0.02,-0.04,29.09
10703175,1701,1,195390,239459,0.05,-1.51,9.61,-0.01,0.16,-0.04,29.09
10743175,1981,1,194781,239012,-0.22,-1.30,9.34,0.05,0.05,-0.03,29.09
10783175,1935,1,194363,237736,0.82,-0.65,9.56,0.03,-0.03,-0.03,29.09
10823175,2176,1,194519,239261,-1.37,-2.55,12.40,0.01,0.16,0.05,29.09
10863168,2301,1,194469,238345,-0.30,-0.28,8.79,0.02,-0.01,-0.15,29.09
10903192,2123,1,194422,238844,0.15,-0.75,15.91,0.03,0.03,-0.00,29.09
10963176,1791,1,194376,239388,-0.98,-1.66,14.84,-0.02,-0.01,-0.05,29.09
11003212,1981,1,194281,238405,-0.74,-1.29,13.37,-0.11,0.02,-0.22,29.09
11043212,1770,1,193889,237600,-0.45,-0.61,13.88,-0.06,-0.14,-0.05,29.09
11083211,2274,1,194172,237285,-0.58,-1.53,14.02,-0.20,0.03,-0.03,29.09
11123198,2190,1,193838,237504,-0.31,-0.79,8.75,-0.11,-0.22,0.23,29.09
11163880,2634,1,194655,237724,-1.45,-1.69,11.74,-0.17,0.13,-0.03,29.45
11204198,2255,1,194061,237924,-0.40,-1.32,7.19,-0.04,-0.25,-0.02,29.45
11244217,2390,1,194784,237545,-0.06,-1.14,8.84,-0.13,-0.02,-0.05,29.45
11284211,2339,1,193980,236810,-0.51,-1.43,3.93,-0.04,-0.18,-0.01,29.45
11324211,2416,1,194174,236385,0.49,-2.09,8.22,-0.12,0.01,-0.03,29.45
11364178,2244,1,193275,236018,0.21,-1.23,4.27,-0.04,-0.07,0.30,29.45
11404175,2210,1,194098,237119,0.36,-2.24,7.52,-0.06,0.09,-0.01,29.45
11444215,2281,1,194383,237610,0.41,-1.34,7.18,0.04,-0.00,-0.03,29.45
11484175,2255,1,194112,235178,0.35,-1.65,6.17,0.06,0.02,-0.03,29.45
11524175,2126,1,193673,234562,-0.18,-1.83,9.11,0.08,0.05,0.03,29.45
11564165,2131,1,193404,233851,-0.67,-1.35,6.76,0.11,0.03,0.06,29.45
11604164,1792,1,192810,232673,0.40,-0.85,7.52,0.11,0.01,0.43,29.45
11644163,1946,1,193039,232607,-0.51,-1.88,8.50,0.06,0.03,0.38,29.45
11684164,1979,1,193381,235946,-0.03,-0.49,7.69,0.13,0.00,0.23,29.45
11724165,1969,1,195613,239896,-0.83,-2.24,13.52,0.06,0.23,-0.13,29.45
11764178,1535,1,196197,242344,-0.56,-0.09,12.01,0.14,0.01,-0.43,29.45
11804175,1507,1,196251,241010,1.13,-1.30,17.48,0.11,0.03,-0.59,29.45
11844168,192,1,195352,239673,-1.19,-1.52,18.55,0.09,-0.02,-0.42,29.45
11884195,0,1,194280,238594,-1.98,-0.48,16.33,-0.12,-0.05,-0.20,29.45
11924211,592,1,194771,237905,-0.20,-0.21,14.00,-0.15,-0.18,-0.06,29.45
11962212,538,1,195136,236866,-0.78,-1.71,12.27,-0.25,-0.03,0.51,29.45
12002199,835,1,194507,234915,-0.03,-0.84,6.59,-0.26,-0.13,0.41,29.45
12042193,854,1,194785,236622,0.04,-1.81,8.16,-0.20,-0.01,0.09,29.45
12082175,960,1,194563,237662,0.36,-1.25,4.38,-0.14,-0.07,-0.40,29.45
12122191,464,1,195756,240320,0.49,-1.14,7.73,-0.13,0.00,-0.48,29.45
12162175,1191,1,196598,240816,0.49,-1.19,6.90,-0.10,-0.04,-0.02,29.45
12202876,531,1,195825,238768,-0.19,-2.08,5.79,-0.06,-0.11,-0.05,29.83
12243209,511,1,195096,238326,-0.48,-1.62,7.45,-0.06,0.02,0.04,29.83
12283168,861,1,194666,236530,0.19,-1.58,6.36,0.01,-0.12,-0.11,29.83
12323169,1329,1,194915,236511,-0.11,-1.09,8.78,-0.00,0.06,0.12,29.83
12363175,1524,1,195091,235766,0.00,-0.78,7.91,0.03,0.05,0.14,29.83
12403147,1703,1,194870,236121,0.18,-2.62,10.37,0.03,0.11,0.31,29.83
12443147,2083,1,195264,237490,0.30,-0.82,6.65,0.07,0.07,0.13,29.83
12483146,1946,1,195782,240048,-0.15,-1.39,10.70,0.03,0.17,-0.03,29.83
12523179,1997,1,196527,242050,-0.23,-0.87,10.15,0.08,0.07,-0.15,29.83
12563179,1639,1,196812,241906,-0.23,-1.29,13.01,0.04,0.08,-0.13,29.83
12603179,496,1,196339,241274,-0.87,-0.74,13.69,0.03,0.04,-0.14,29.83
12643179,627,1,195399,240256,0.46,-0.89,14.17,-0.05,-0.06,-0.19,29.83
12683199,1148,1,195013,239137,-0.92,-0.57,12.58,-0.05,-0.02,-0.24,29.83
12723216,1840,1,194644,237332,-0.52,-1.58,15.10,-0.04,-0.06,-0.05,29.83
12763212,2134,1,193927,234670,-0.45,-0.60,11.26,-0.09,-0.03,-0.05,29.83
12803214,1875,1,193923,235926,-0.62,-1.23,11.15,-0.10,-0.11,-0.05,29.83
12843213,2227,1,194427,237044,-0.23,-1.17,9.52,-0.14,0.03,-0.05,29.83
12883199,2113,1,194588,237663,-0.19,-1.27,7.31,-0.08,-0.13,-0.04,29.83
12923212,2225,1,194747,238064,-0.35,-1.04,8.15,-0.12,0.05,-0.04,29.83
12963199,2246,1,194666,238255,-0.00,-1.36,7.53,-0.07,-0.04,-0.06,29.83
13003212,2453,1,194594,237518,0.27,-0.86,6.69,-0.08,-0.04,-0.10,29.83
13043199,2187,1,194409,238336,0.60,-1.72,7.79,-0.04,-0.06,-0.04,29.83
13083199,2559,1,194702,238938,0.24,-1.78,8.83,-0.02,0.02,-0.10,29.83
13123179,2417,1,194649,238751,-0.06,-1.38,7.92,-0.00,-0.09,-0.09,29.83
13163212,2595,1,194747,238641,0.51,-1.05,9.54,0.01,-0.02,-0.05,29.83
13203865,2551,1,195000,238477,-0.25,-1.39,9.37,0.03,-0.06,-0.04,29.39
13242199,2609,1,195383,238909,0.00,-1.58,10.01,0.02,-0.03,0.26,29.39
13282185,2901,1,195614,239365,-0.59,-1.38,10.90,0.05,0.02,-0.01,29.39
13322179,3103,1,195291,239325,-0.21,-0.83,9.74,0.06,-0.03,-0.03,29.39
13362199,3070,1,194647,238969,-0.72,-1.31,12.70,0.05,0.07,-0.05,29.39
13402179,2861,1,194155,238885,-0.41,-2.18,13.45,0.05,-0.04,-0.25,29.39
13442200,2208,1,194024,238668,-0.51,-1.14,12.66,0.05,-0.08,-0.09,29.39
13482199,2294,1,194108,238453,-0.85,-1.38,11.01,-0.00,-0.03,-0.03,29.39
13522219,2455,1,194372,237908,-0.55,-1.71,10.46,-0.07,-0.10,0.22,29.39
13562199,2315,1,194597,237641,-0.38,-1.12,9.24,-0.06,-0.04,0.35,29.39
13602199,2170,1,195255,238527,0.21,-1.80,10.20,-0.07,-0.01,0.44,29.39
13642179,2304,1,194559,238945,-0.29,-2.16,10.20,-0.03,0.02,-0.23,29.39
13682199,2065,1,194336,239657,0.72,0.11,8.55,0.04,-0.10,-0.47,29.39
13722168,1808,1,194306,239753,0.14,-1.55,10.82,-0.05,0.05,-0.28,29.39
13762179,1287,1,194140,238428,0.92,-0.34,7.38,-0.02,-0.17,-0.11,29.39
13802199,927,1,194353,238030,-0.19,-1.17,12.30,-0.07,-0.00,-0.03,29.39
13842214,978,1,194109,236293,0.04,-0.63,6.37,-0.08,-0.09,0.23,29.39
13882176,1243,1,194456,235994,-0.85,-2.21,10.71,-0.13,0.11,0.42,29.39
13922179,1643,1,194242,235737,0.64,-1.33,6.26,-0.05,-0.05,0.11,29.39
13962179,1934,1,195550,238228,-0.44,-1.41,12.61,-0.05,0.13,-0.01,29.39
14002200,1903,1,194782,237803,0.33,-0.87,6.85,0.04,-0.01,-0.46,29.39
14042179,1738,1,194408,238439,-0.23,-1.19,12.56,-0.01,0.07,-0.08,29.39
14082200,1826,1,193876,236220,0.18,-0.79,8.61,-0.06,0.06,-0.08,29.39
14122176,2128,1,193631,235698,0.33,-1.47,11.67,-0.05,-0.01,-0.03,29.39
14162200,2432,1,193555,234944,1.01,-0.63,9.39,-0.07,0.03,-0.01,29.39
14202179,2693,1,193810,235887,0.23,-0.82,10.54,-0.09,0.04,0.04,29.39
14242856,2866,1,194149,235607,0.68,-0.63,10.11,-0.07,0.06,-0.04,29.11
14281179,2954,1,194333,237337,-0.23,-1.47,10.37,-0.03,0.09,-0.03,29.11
14321199,3142,1,194652,238133,0.13,-1.17,9.59,-0.02,0.05,-0.04,29.11
14361179,3134,1,194499,238426,-0.20,-1.15,10.24,-0.02,0.02,-0.06,29.11
14401199,3046,1,194408,238520,-0.10,-0.84,10.04,-0.03,-0.02,-0.04,29.11
14441212,2969,1,194344,238635,-0.55,-1.24,10.96,-0.03,0.05,-0.04,29.11
14481200,2829,1,194221,238741,-0.44,-1.71,10.85,-0.02,0.06,-0.06,29.11
14521199,2511,1,194155,238838,-0.16,-1.34,11.03,-0.02,0.02,-0.11,29.11
14561199,2298,1,194123,238531,-0.34,-1.56,10.53,-0.05,0.01,-0.09,29.11
14601199,2221,1,193364,235786,0.16,-0.62,9.40,-0.08,-0.04,-0.07,29.11
14641199,2115,1,192878,234114,-0.38,-1.29,11.00,-0.10,0.03,-0.04,29.11
14681199,2045,1,192308,233312,0.68,-0.61,9.57,-0.04,-0.08,-0.03,29.11
14721218,1942,1,192487,232539,0.31,-1.28,9.50,-0.09,-0.01,-0.03,29.11
14761196,1866,1,192287,233132,0.35,-0.66,8.39,-0.05,-0.04,0.05,29.11
14801179,1882,1,192906,233231,0.04,-1.47,8.11,-0.07,-0.03,-0.03,29.11
14841199,1915,1,193301,235642,0.12,-1.19,9.91,-0.00,-0.04,0.02,29.11
14881178,1948,1,193895,236128,-0.38,-1.60,8.97,-0.02,0.00,-0.03,29.11
14921216,1923,1,194003,235960,0.20,-1.52,9.88,0.04,-0.11,-0.02,29.11
14961178,1904,1,194265,235537,-0.22,-1.87,9.29,0.00,-0.03,-0.02,29.11
15001199,1879,1,194381,236306,-0.46,-1.53,8.71,0.02,-0.02,0.05,29.11
15041178,1759,1,195170,237654,0.32,-0.88,10.58,0.03,-0.01,-0.03,29.11
15081178,1749,1,195403,238827,0.08,-0.89,10.14,0.03,0.00,-0.02,29.11
15121170,1763,1,195484,239257,0.05,-1.19,9.56,0.00,-0.03,-0.03,29.11
15161176,1795,1,195597,239670,0.18,-0.80,10.74,0.01,0.01,-0.03,29.11
15201170,1739,1,195501,239408,0.88,-1.43,11.37,-0.03,-0.04,-0.04,29.11
15241199,1701,1,194659,237408,0.20,-0.37,9.15,-0.05,-0.03,-0.19,29.11
15281886,1671,1,194573,237638,0.09,-0.37,11.38,-0.01,0.04,-0.02,29.15
15320179,1728,1,194720,236837,0.57,-0.58,9.49,-0.05,-0.03,-0.03,29.15
15360199,1648,1,194872,237202,0.10,-2.09,11.87,-0.02,0.01,0.12,29.15
15400170,1791,1,194926,237346,-0.63,-1.90,9.36,-0.04,0.01,-0.01,29.15
15440199,1987,1,194931,238166,0.68,-1.40,11.17,-0.02,-0.11,-0.02,29.15
15480199,1962,1,194912,238113,-0.28,-1.19,10.41,-0.07,-0.00,-0.02,29.15
15520216,1744,1,194915,238509,0.26,-2.35,13.32,-0.03,-0.08,-0.05,29.15
15560199,1799,1,194715,237827,-0.52,-1.64,10.40,-0.07,-0.04,-0.39,29.15
15600216,1744,1,195081,238039,0.62,-0.77,11.86,0.02,-0.17,-0.05,29.15
15640179,2263,1,195510,238599,0.16,-1.21,10.40,-0.12,0.05,-0.02,29.15
15680179,2365,1,195669,238360,0.40,-1.17,7.66,-0.06,-0.12,-0.00,29.15
15720199,2295,1,195824,239588,0.79,-0.17,11.94,-0.09,0.05,-0.03,29.15
15760179,2467,1,195948,239336,1.20,-1.23,5.98,-0.06,-0.10,-0.01,29.15
15800199,2282,1,195859,239133,1.02,-0.46,8.49,-0.10,0.05,-0.05,29.15
15840179,2403,1,195831,238631,0.64,-0.98,7.38,-0.04,-0.01,0.05,29.15
15880176,2452,1,195584,237136,1.26,-0.49,7.58,-0.02,-0.01,-0.04,29.15
15920199,2384,1,195399,237449,-0.17,-1.61,10.49,-0.03,0.06,0.01,29.15
15960179,2395,1,195216,236891,1.07,-1.05,7.23,0.03,-0.07,0.04,29.15
16000170,2313,1,195466,236800,-0.24,-1.43,9.96,-0.03,0.06,0.02,29.15
16040179,2186,1,195301,236762,0.48,-1.22,7.14,0.02,-0.00,0.22,29.15
16080169,2139,1,196376,238686,-0.05,-0.89,11.17,0.01,0.08,0.03,29.15
16120168,2188,1,196332,239349,0.85,-0.45,8.77,0.07,-0.02,-0.01,29.15
16160179,2257,1,196108,239671,0.09,-1.53,11.51,-0.01,0.12,-0.08,29.15
16200179,2242,1,195523,239446,0.65,-0.35,10.56,0.02,-0.01,-0.19,29.15
16240179,2219,1,195214,239261,-0.06,-0.86,12.13,-0.03,0.07,-0.10,29.15
16280199,2194,1,195048,239067,0.40,-0.42,11.20,-0.03,-0.00,-0.09,29.15
16320886,2021,1,194996,239023,0.45,-0.40,11.92,-0.06,-0.04,-0.02,29.17
16361222,1926,1,195242,239118,0.50,-0.61,11.41,-0.08,-0.00,-0.03,29.17
16401199,1981,1,195137,239089,0.09,-0.79,12.73,-0.07,0.01,-0.02,29.17
16441177,1936,1,195103,238683,0.17,-1.13,10.91,-0.08,-0.03,-0.02,29.17
16481199,2038,1,194591,236709,-0.45,-1.36,10.25,-0.10,-0.02,-0.02,29.17
16521212,2059,1,194334,235600,-0.27,-1.85,9.36,-0.08,-0.07,-0.02,29.17
16561250,1895,1,194242,235165,-0.25,-1.52,8.14,-0.10,-0.00,-0.03,29.17
16601212,1837,1,194359,236497,-0.60,-1.88,8.74,-0.10,0.06,-0.02,29.17
16641199,1962,1,194362,236858,0.67,-0.97,7.42,-0.07,-0.02,-0.18,29.17
16681199,2022,1,194775,238589,0.24,-1.12,9.60,-0.03,0.05,-0.16,29.17
16721178,2192,1,195289,239089,-0.11,-1.28,8.08,-0.05,0.02,-0.22,29.17
16761199,2327,1,195680,239506,0.07,-1.57,11.34,-0.02,0.05,-0.07,29.17
16801178,2510,1,195793,239053,-0.24,-1.56,8.75,-0.04,0.05,-0.06,29.17
16839199,2451,1,195978,239052,0.20,-0.84,10.24,-0.02,-0.04,-0.03,29.17
16879199,2610,1,196267,238505,-0.39,-2.23,9.06,-0.07,0.11,0.05,29.17
16919179,2558,1,196175,238951,-0.34,-1.27,9.85,0.03,0.03,0.00,29.17
16959170,2693,1,195975,238975,0.47,-1.54,9.47,-0.05,0.07,-0.02,29.17
16999179,2437,1,195844,239287,-0.49,-1.31,10.48,0.05,-0.08,-0.05,29.17
17039199,2508,1,196199,239732,-0.32,-1.33,10.77,-0.05,0.02,0.02,29.17
17079179,2226,1,196784,239433,-1.13,-1.57,11.11,0.02,-0.06,-0.00,29.17
17119199,2314,1,196674,238694,-0.24,-0.82,10.94,-0.03,0.06,-0.03,29.17
17159200,2237,1,197171,239571,-0.69,-0.88,10.41,-0.03,-0.03,0.05,29.17
17199199,2340,1,197460,239778,-0.26,-1.74,11.82,-0.09,0.11,-0.02,29.17
17239199,2176,1,197188,239831,-0.15,-0.99,8.90,-0.03,-0.07,-0.04,29.17
17279213,2163,1,196895,240286,-0.01,-1.13,12.40,-0.10,0.11,-0.05,29.17
17319199,2077,1,196524,240063,-0.23,-0.48,8.78,-0.04,-0.04,-0.13,29.17
17359903,1859,1,196311,240137,0.01,-1.12,10.72,-0.06,-0.01,-0.04,29.17
17400199,1939,1,196462,239450,0.56,-0.81,8.20,-0.08,-0.08,-0.07,29.17
17440199,1810,1,196416,239537,-0.29,-1.76,10.03,-0.03,-0.00,-0.04,29.17
17480212,1923,1,196370,239762,0.09,-0.78,8.69,-0.02,-0.02,-0.05,29.17
17520199,1847,1,196377,240017,-0.54,-1.54,10.44,-0.00,-0.06,-0.03,29.17
17560212,1837,1,196546,240190,-0.11,-1.23,8.50,-0.02,-0.03,-0.04,29.17
17600214,1886,1,196874,240460,-0.26,-1.99,9.56,-0.04,-0.07,-0.04,29.17
17640212,1779,1,197077,240499,-0.08,-1.09,9.24,-0.04,-0.05,-0.04,29.17
17680213,1743,1,197436,240640,0.00,-0.92,11.04,-0.02,-0.02,-0.02,29.17
17720196,1651,1,197196,238901,-0.17,-0.97,9.48,-0.00,-0.00,0.04,29.17
17760199,1650,1,197062,239214,0.12,-1.88,10.36,-0.04,0.02,0.12,29.17
17800169,1754,1,197182,239951,0.14,-1.17,10.56,-0.00,-0.02,-0.05,29.17
17840199,1507,1,197322,240421,0.98,-0.36,8.80,-0.01,-0.12,-0.07,29.17
17880199,1365,1,197195,240604,-0.00,-1.38,12.54,-0.08,0.06,-0.09,29.17
17920199,1011,1,197371,240636,0.44,-0.59,10.44,-0.01,-0.16,-0.06,29.17
17960199,1203,1,197925,240425,0.71,-0.81,10.64,-0.05,-0.04,-0.04,29.17
18000237,1273,1,198011,240422,-0.12,-1.43,10.85,-0.02,-0.03,0.13,29.17
18040200,1431,1,198054,239433,0.25,-0.97,7.53,-0.06,-0.08,0.02,29.17
18080179,1509,1,198243,241255,0.37,-0.97,11.75,-0.06,-0.02,0.14,29.17
18120179,1859,1,198385,241501,-0.23,-0.91,9.28,-0.02,0.03,-0.05,29.17
18160200,1911,1,198158,241771,0.34,-0.76,9.82,0.01,-0.04,-0.04,29.17
18200230,1910,1,197745,241427,-0.41,-2.19,10.15,-0.06,0.03,-0.13,29.17
18240200,1886,1,197813,241417,0.35,-0.35,8.62,0.02,-0.10,-0.05,29.17
18280176,2009,1,198140,241392,-0.67,-1.46,9.58,-0.07,0.09,-0.03,29.17
18320199,2035,1,198448,241748,0.95,-1.07,9.94,0.03,-0.09,0.22,29.17
18360856,2086,1,198253,239637,0.11,-1.36,7.54,-0.04,0.03,-0.03,29.11
18399179,2096,1,197857,240104,0.82,-0.82,9.57,0.01,-0.05,0.04,29.11
18440168,2182,1,198063,240837,0.17,-1.94,9.56,-0.03,0.04,-0.04,29.11
18478179,2286,1,198000,240900,0.45,-1.13,8.03,0.04,-0.06,-0.07,29.11
18518179,2205,1,197805,240851,0.40,-1.00,10.13,-0.02,-0.00,-0.15,29.11
18558200,2178,1,197793,240528,-0.52,-1.43,8.18,0.03,-0.03,-0.02,29.11
18598199,2069,1,198188,240664,0.24,-0.67,9.56,-0.02,0.00,-0.04,29.11
18638179,2101,1,198005,240742,-0.89,-1.67,8.64,-0.01,0.05,-0.02,29.11
18678199,2031,1,198365,240904,0.69,-0.62,10.25,0.01,0.03,-0.04,29.11
18718169,2033,1,197891,240827,-0.40,-0.84,10.83,-0.01,0.11,-0.04,29.11
18758199,1983,1,198040,241107,0.46,-1.13,9.30,-0.01,0.01,-0.04,29.11
18798179,2027,1,197959,241001,0.11,-0.99,10.42,-0.05,0.08,-0.05,29.11
18838179,2077,1,198044,241426,0.27,-1.53,11.40,-0.02,0.02,-0.04,29.11
18878179,2112,1,197682,241281,0.40,-0.93,10.28,-0.07,0.04,-0.22,29.11
18918179,2026,1,197361,241341,-0.35,-0.93,12.12,-0.02,-0.00,-0.05,29.11
18958216,2089,1,197258,240507,0.25,-0.75,11.02,-0.08,0.03,-0.12,29.11
18998179,2031,1,196780,239672,-0.29,-1.32,11.84,-0.03,-0.02,-0.05,29.11
19038216,2045,1,196908,239912,-0.37,-1.40,11.51,-0.07,-0.02,-0.04,29.11
19078212,2062,1,197010,239556,-0.22,-0.63,9.84,-0.04,-0.08,-0.03,29.11
19118214,2077,1,197129,240326,-0.64,-2.11,10.52,-0.09,-0.01,-0.03,29.11
19158213,2191,1,197098,240432,-0.74,-1.87,10.08,-0.08,-0.01,-0.05,29.11
19198216,2137,1,197235,240493,0.00,-1.10,9.59,-0.06,-0.09,-0.05,29.11
19238196,2080,1,197315,240838,-0.48,-1.13,10.12,-0.09,0.02,-0.04,29.11
19278200,2091,1,197418,240502,0.28,-1.45,8.94,-0.06,-0.07,-0.06,29.11
19318199,1957,1,197506,240502,0.37,-1.46,8.62,-0.06,-0.04,-0.04,29.11
19358199,2027,1,197656,240666,0.67,-1.76,9.18,-0.08,-0.09,-0.05,29.11
19398886,1990,1,197590,240608,-0.08,-1.00,9.89,-0.01,0.01,-0.08,29.15
19438200,1936,1,197477,240362,0.27,-0.73,8.09,-0.01,-0.06,-0.05,29.15
19478197,1968,1,197762,241002,-0.64,-1.75,10.63,-0.01,0.06,-0.03,29.15
19518200,2015,1,197742,240526,-0.06,-0.54,8.10,0.03,-0.06,-0.04,29.15
19558199,1874,1,197987,241438,-0.31,-2.03,10.92,-0.01,0.02,0.01,29.15
19598179,2015,1,197578,239074,-0.04,-0.43,7.77,-0.02,-0.04,-0.04,29.15
19638231,1891,1,197291,239673,-0.34,-1.68,11.11,0.01,0.00,0.04,29.15
19678169,1983,1,197263,238867,0.04,-0.70,9.83,-0.01,0.07,-0.04,29.15
19718176,1859,1,197273,239993,-0.20,-1.53,11.71,-0.00,-0.04,0.03,29.15
19758200,1859,1,197490,239802,0.40,-0.89,9.27,-0.07,0.08,-0.04,29.15
19798176,1811,1,197488,240768,0.04,-1.35,12.65,-0.03,0.01,-0.03,29.15
19838219,1758,1,197417,240369,0.31,-0.98,10.36,-0.08,0.05,-0.05,29.15
19878179,1721,1,197481,240928,-0.14,-0.65,12.03,-0.02,-0.01,-0.04,29.15
19918214,1661,1,197302,240168,0.06,-1.22,9.87,-0.09,0.02,-0.05,29.15
19958179,1733,1,197379,240755,-0.43,-1.71,10.65,-0.06,-0.05,0.05,29.15
19998200,1901,1,197418,240020,-0.61,-1.87,9.70,-0.10,0.02,-0.04,29.15
20038196,1875,1,197445,240717,-0.16,-1.18,9.68,-0.00,-0.13,0.19,29.15
20078200,1940,1,197498,240650,-0.53,-1.91,9.34,-0.09,0.05,-0.04,29.15
20118199,1939,1,197189,240575,-0.51,-1.46,6.79,-0.01,-0.16,-0.03,29.15
20158216,2015,1,197459,241192,-0.57,-1.94,9.76,-0.07,0.10,-0.04,29.15
20198199,2140,1,197409,240618,-0.20,-0.98,7.49,-0.03,-0.10,-0.04,29.15
20238214,2100,1,196960,238992,-0.00,-1.27,10.53,-0.02,0.07,-0.12,29.15
20278199,2017,1,196472,237952,0.10,-1.05,9.40,-0.03,-0.04,-0.04,29.15
20318200,2069,1,196408,236775,-0.02,-1.20,9.34,-0.03,0.05,-0.03,29.15
20358196,2029,1,195866,235545,0.48,-1.53,8.94,0.01,-0.03,-0.03,29.15
20398179,1935,1,196143,236400,-0.52,-1.95,9.34,-0.01,0.05,-0.03,29.15
20438886,1949,1,195931,235812,-0.18,-0.97,8.06,0.02,-0.03,-0.03,29.15
20478199,1955,1,196560,237979,-0.04,-1.18,10.95,0.02,0.01,-0.03,29.15
20518179,2100,1,196778,237086,-0.17,-0.77,10.00,0.03,-0.04,-0.03,29.15
20558200,1985,1,196650,237929,-1.03,-2.17,10.30,0.03,0.05,0.05,29.15
20598168,2083,1,196882,237816,-0.88,-2.05,9.46,0.01,0.01,-0.03,29.15
20638179,1986,1,196821,238437,-0.24,-1.68,10.34,0.00,-0.05,0.00,29.15
20678179,1920,1,197115,239208,-0.48,-1.18,9.89,-0.03,-0.01,-0.03,29.15
20718216,1863,1,197477,240203,-0.33,-1.13,10.59,-0.03,0.03,-0.04,29.15
20758199,1777,1,197739,240421,0.29,-0.68,11.00,-0.06,0.00,-0.05,29.15
20798179,1614,1,197942,240958,-0.30,-1.27,11.34,-0.06,0.01,-0.04,29.15
20838199,1535,1,197908,240221,-0.06,-0.79,11.17,-0.05,-0.01,-0.04,29.15
20878214,1435,1,197314,238782,0.02,-1.19,10.93,-0.05,-0.02,-0.04,29.15
20918199,1487,1,197086,238602,-0.35,-1.05,11.37,-0.05,0.00,-0.05,29.15
20958200,1445,1,196800,238637,-0.34,-1.38,10.79,-0.06,-0.05,-0.05,29.15
20998213,1515,1,196741,238078,-0.56,-1.26,9.44,-0.08,-0.01,-0.04,29.15
21038216,1535,1,196499,237026,-0.31,-1.67,9.54,-0.07,-0.05,-0.04,29.15
21078213,1585,1,196639,238601,-0.84,-1.61,9.20,-0.08,0.04,-0.03,29.15
21118199,1738,1,196821,238543,0.25,-1.16,8.12,-0.08,-0.02,-0.05,29.15
21158199,1728,1,196986,239449,-0.45,-1.06,9.76,-0.04,0.07,-0.04,29.15
21198199,1889,1,196980,239163,0.56,-1.29,7.87,-0.04,-0.04,-0.05,29.15
21238199,1958,1,197014,240030,-0.15,-1.67,9.43,-0.04,0.06,-0.05,29.15
21278212,2081,1,197174,240109,0.82,-1.02,9.17,-0.03,-0.09,-0.07,29.15
21318199,2047,1,197161,239597,0.49,-1.20,8.04,-0.04,-0.03,-0.04,29.15
21358199,2128,1,197224,239597,0.04,-1.48,9.48,-0.02,-0.04,-0.04,29.15
21398200,2141,1,197369,239228,-0.02,-1.32,10.16,0.02,-0.02,-0.03,29.15
21438886,2047,1,197311,239666,0.10,-0.78,10.44,0.03,-0.03,0.03,29.03
21477201,2131,1,197491,239714,-0.38,-1.43,10.88,0.03,-0.01,-0.03,29.03
21517200,2163,1,196934,238307,-0.51,-0.96,9.21,0.02,-0.03,-0.02,29.03
21557199,2192,1,196661,236734,0.01,-1.38,10.91,-0.01,-0.03,-0.03,29.03
21597200,2143,1,196625,238917,-0.79,-2.00,11.74,0.01,0.00,0.02,29.03
21637168,2153,1,196843,238740,-0.18,-1.24,10.30,-0.03,0.00,-0.03,29.03
21677200,1983,1,197130,239968,-0.06,-0.59,12.61,0.01,-0.03,-0.03,29.03
21717199,1954,1,197372,239697,-0.22,-1.33,11.08,-0.06,0.05,-0.04,29.03
21757199,1911,1,197374,240119,0.68,-1.07,11.14,-0.03,-0.10,-0.03,29.03
21797199,1968,1,197514,239949,-0.32,-1.07,11.27,-0.10,0.02,-0.04,29.03
21837199,1887,1,197435,239513,0.44,-0.17,8.89,-0.05,-0.16,0.05,29.03
21877179,1968,1,197799,240136,0.09,-1.76,10.68,-0.15,0.02,-0.02,29.03
21917179,2000,1,197421,238838,0.18,-0.88,8.61,-0.07,-0.12,0.01,29.03
21957179,1917,1,197631,239776,-0.23,-1.36,9.73,-0.07,0.02,0.03,29.03
21997179,1969,1,197437,239186,0.43,-1.07,7.64,-0.07,-0.15,-0.01,29.03
22037200,1865,1,197705,240678,-0.67,-1.81,10.54,-0.05,0.07,0.01,29.03
22077179,2083,1,197608,240188,0.17,-0.60,6.81,-0.04,-0.06,-0.03,29.03
22117196,2054,1,197748,240763,-0.32,-1.01,10.40,-0.04,0.08,-0.03,29.03
22157199,2117,1,197388,237736,-0.18,-1.14,8.78,-0.01,0.02,-0.03,29.03
22197199,2066,1,196299,234842,0.63,-1.42,8.79,-0.03,-0.01,-0.02,29.03
22237199,2177,1,195724,233498,0.11,-1.44,8.96,-0.05,0.03,0.05,29.03
22277170,2160,1,195233,233250,0.35,-1.51,8.55,-0.03,0.05,0.07,29.03
22317169,2207,1,196237,235199,0.57,-0.57,9.65,-0.00,0.02,-0.07,29.03
22357176,2253,1,196593,237866,0.26,-1.08,9.34,0.03,0.03,-0.03,29.03
22397169,2266,1,197346,239414,0.27,-1.08,10.43,0.04,0.01,-0.03,29.03
22437170,2302,1,197304,238934,-0.45,-1.31,9.49,0.01,0.01,-0.03,29.03
22477865,2214,1,197471,239868,0.02,-0.99,11.33,0.01,-0.02,-0.02,28.91
22517179,2149,1,197141,238696,0.03,-0.82,10.69,-0.02,0.03,-0.07,28.91
22557179,1941,1,197366,239598,-0.27,-0.64,12.21,0.03,-0.00,-0.01,28.91
22597199,1835,1,197558,239326,0.45,-0.93,11.15,-0.03,0.02,-0.03,28.91
22637179,1678,1,197515,240418,-0.15,-1.33,12.14,-0.05,-0.01,-0.02,28.91
22677213,1626,1,197616,240264,0.91,-0.72,10.79,-0.08,-0.06,-0.04,28.91
22717199,1535,1,197595,240503,0.21,-0.96,11.32,-0.09,-0.03,0.02,28.91
22757179,1831,1,197367,239049,1.21,-0.57,8.64,-0.10,-0.05,-0.04,28.91
22797199,1859,1,197071,239179,0.32,-1.38,10.93,-0.10,0.02,-0.01,28.91
22837179,2057,1,196965,238499,1.04,-0.82,8.36,-0.09,-0.07,-0.04,28.91
22877199,1964,1,196814,238902,0.15,-0.85,8.99,-0.07,-0.01,-0.02,28.91
22917212,2067,1,197095,239227,0.01,-1.58,8.62,-0.07,0.00,-0.02,28.91
22957179,2128,1,197230,239500,0.20,-1.32,9.64,-0.06,-0.02,-0.03,28.91
22997199,2064,1,197596,240288,0.31,-1.05,9.96,-0.03,-0.00,-0.05,28.91
23037199,1986,1,197707,240141,0.40,-0.86,8.74,-0.03,0.01,-0.06,28.91
23077177,2064,1,197744,240057,0.12,-1.49,9.12,-0.04,0.04,-0.03,28.91
23117223,2135,1,197743,239597,0.57,-1.25,8.47,-0.06,-0.05,-0.04,28.91
23157199,2071,1,198093,240361,0.35,-0.80,11.00,-0.01,0.05,-0.02,28.91
23197179,2114,1,198128,240376,0.84,-0.72,9.04,0.00,-0.01,-0.03,28.91
23235176,2176,1,198204,241493,-0.13,-1.32,11.14,-0.01,0.07,-0.02,28.91
23275200,2275,1,198151,241381,0.71,-1.13,8.37,-0.03,-0.07,-0.05,28.91
23315199,2224,1,198156,241836,-0.17,-1.45,10.61,-0.00,0.02,-0.02,28.91
23355199,2215,1,198093,241050,0.62,-0.61,9.33,-0.01,-0.06,-0.05,28.91
23395200,2192,1,197869,240442,-0.36,-1.09,11.77,-0.01,-0.00,-0.02,28.91
23435216,2278,1,197343,239408,-0.05,-0.83,10.22,-0.02,-0.00,-0.03,28.91
23475212,2271,1,197123,239943,-0.36,-1.43,11.84,-0.00,0.02,-0.02,28.91
23515887,2183,1,197096,239590,0.04,-1.06,10.42,-0.03,-0.04,-0.03,29.09
23556199,2171,1,197120,239959,0.26,-0.93,9.99,-0.04,-0.04,-0.03,29.09
23596200,2256,1,197201,239990,0.54,-1.03,9.69,-0.06,0.01,-0.04,29.09
23636179,2198,1,197263,240602,0.44,-1.02,10.86,-0.02,-0.02,-0.03,29.09
23676199,2231,1,197241,240509,0.68,-0.32,8.82,-0.03,-0.06,-0.03,29.09
23716199,2147,1,197074,240813,0.17,-1.33,10.42,-0.06,0.00,-0.03,29.09
23756178,2127,1,196896,240554,0.55,-0.91,8.79,-0.05,-0.06,-0.07,29.09
23796199,2071,1,196946,240180,0.27,-1.13,9.99,-0.06,-0.10,-0.03,29.09
23836200,2082,1,196929,239501,-0.23,-0.68,9.66,-0.03,-0.02,-0.03,29.09
23876212,2020,1,197065,239603,-0.13,-0.73,10.16,-0.01,-0.03,-0.00,29.09
23916216,2032,1,197284,239965,0.29,-1.12,9.73,-0.01,0.01,-0.02,29.09
23956179,1991,1,197356,240418,0.27,-1.13,7.91,-0.05,-0.04,-0.01,29.09
23996199,1936,1,197586,240874,0.56,-1.46,9.06,-0.06,0.03,-0.04,29.09
24036179,1878,1,197274,240079,0.08,-1.36,10.07,-0.05,0.04,-0.04,29.09
24076179,1823,1,196899,239302,0.80,-0.40,9.15,-0.04,-0.04,-0.11,29.09
24116196,1781,1,196784,239775,0.07,-1.28,11.65,-0.02,0.07,-0.04,29.09
24156179,1808,1,196815,239393,1.00,-0.85,9.60,-0.01,-0.07,-0.08,29.09
24196196,1776,1,196872,239974,-0.04,-1.33,10.19,-0.04,0.01,-0.03,29.09
24236199,1874,1,197061,239881,0.45,-0.88,9.45,-0.02,-0.04,-0.05,29.09
24276199,1856,1,197071,240058,0.07,-0.59,10.28,-0.02,-0.01,-0.03,29.09
24316199,1936,1,197196,240061,-0.48,-1.32,10.81,-0.03,0.01,-0.03,29.09
24356200,1962,1,197003,239426,0.40,-1.17,9.43,-0.03,-0.06,-0.03,29.09
24396200,1968,1,197102,240341,-0.20,-1.64,10.61,-0.05,0.04,-0.03,29.09
24436199,2047,1,197067,239637,0.86,-0.86,8.13,-0.06,-0.09,-0.04,29.09
24476200,1938,1,197271,240417,0.51,-0.85,9.93,-0.08,0.05,-0.04,29.09
24516863,2066,1,197396,240387,0.83,-0.59,9.79,-0.06,0.04,-0.05,29.09
24555184,2020,1,197501,240864,0.57,-0.65,10.48,-0.05,0.04,-0.04,29.09
24595179,2063,1,197522,240999,0.89,-0.92,9.90,-0.05,0.02,-0.05,29.09
24635179,2064,1,197344,240809,-0.13,-1.47,9.99,-0.06,0.04,-0.04,29.09
24675199,2069,1,197040,238855,0.74,-1.19,9.18,-0.04,-0.04,-0.04,29.09
24715199,2013,1,196887,239210,-0.41,-0.98,11.34,-0.04,0.03,-0.03,29.09
24755231,2006,1,197001,239457,0.34,-0.79,9.60,-0.00,-0.06,-0.04,29.09
24795200,1994,1,197102,240034,-0.57,-1.75,10.00,-0.05,0.07,-0.06,29.09
24835199,1999,1,197124,240053,-0.31,-1.87,10.07,-0.03,-0.05,-0.04,29.09
24875216,1981,1,197204,240249,-0.43,-1.57,9.66,-0.05,-0.00,-0.07,29.09
24915212,1878,1,197324,240272,0.16,-0.80,8.69,-0.04,-0.02,-0.04,29.09
24955224,1925,1,197497,240304,0.29,-0.82,9.92,-0.05,0.06,-0.06,29.09
24995179,1950,1,197450,240660,0.41,-1.56,10.34,-0.03,0.01,-0.04,29.09
25035178,2027,1,197530,240622,0.37,-0.69,9.00,-0.03,0.01,-0.13,29.09
25075176,1990,1,197431,240956,-0.46,-1.71,10.69,-0.02,0.02,-0.05,29.09
25115199,2000,1,197586,240832,-0.01,-1.37,10.46,-0.02,-0.04,-0.07,29.09
25155213,1997,1,197761,241018,-0.17,-0.96,10.20,-0.03,-0.10,-0.04,29.09
25195216,2012,1,197806,241132,-0.73,-1.54,10.06,-0.04,0.03,-0.04,29.09
25235200,1931,1,197938,241181,-0.01,-0.97,11.03,-0.01,-0.08,-0.04,29.09
25275214,1898,1,197798,240340,-0.80,-1.88,9.49,-0.07,0.02,-0.02,29.09
25315200,1916,1,197507,240067,-0.24,-1.25,9.31,-0.03,0.01,-0.03,29.09
25355200,1990,1,197460,239644,-0.12,-1.17,9.43,-0.07,0.00,-0.06,29.09
25395200,1997,1,197678,240408,-0.36,-0.90,10.09,-0.05,0.04,-0.05,29.09
25435199,2010,1,197689,240220,0.02,-1.24,10.44,-0.05,0.02,-0.08,29.09
25475179,1950,1,197682,240451,-0.08,-0.99,10.48,-0.01,0.01,-0.04,29.09
25515199,1968,1,197600,240330,-0.24,-1.99,10.05,-0.05,0.01,-0.05,29.09
25555886,1865,1,197525,240294,-0.24,-1.53,9.52,-0.03,-0.02,-0.05,28.91
25594216,1935,1,197572,240084,-0.14,-1.57,9.48,-0.07,-0.03,-0.05,28.91
25634213,1885,1,197693,240500,-0.43,-1.30,11.26,-0.02,-0.03,-0.04,28.91
25674216,1935,1,197722,240126,-0.31,-1.43,9.53,-0.06,-0.06,-0.05,28.91
25714212,1888,1,197920,240979,-0.66,-1.44,10.83,-0.03,0.03,-0.04,28.91
25754200,1920,1,198014,241107,0.09,-1.35,9.27,-0.05,-0.03,-0.04,28.91
25794199,1911,1,198115,241601,-0.60,-1.29,10.11,-0.05,0.03,-0.04,28.91
25834199,1953,1,198070,241641,-0.10,-1.17,9.65,-0.04,0.03,-0.04,28.91
25874199,1920,1,197896,240591,-0.32,-1.47,9.52,-0.08,0.05,-0.05,28.91
25914199,1901,1,197253,237026,0.62,-0.48,9.71,-0.03,-0.02,-0.05,28.91
25954199,1616,1,196762,238174,-0.52,-2.14,9.13,-0.06,0.04,-0.04,28.91
25994203,1727,1,197250,238079,0.80,-0.39,9.01,-0.01,-0.04,-0.06,28.91
26034196,1808,1,197360,238986,-0.30,-1.48,9.30,-0.03,-0.04,-0.04,28.91
26074214,1873,1,197506,239990,-0.22,-1.85,8.62,-0.01,-0.00,-0.04,28.91
26114212,1919,1,197703,240296,0.04,-0.85,9.76,0.01,-0.06,-0.10,28.91
26154179,1905,1,197690,240332,-0.20,-1.59,9.69,-0.02,-0.02,-0.04,28.91
26194280,1942,1,197913,240511,-0.78,-1.45,9.75,0.01,0.10,-0.04,28.91
26234179,1909,1,197683,240415,-0.60,-0.97,9.55,0.02,-0.02,-0.04,28.91
26274197,1971,1,197859,240787,0.23,-1.07,10.89,-0.03,-0.01,-0.04,28.91
26314199,2007,1,197947,241192,-0.20,-0.82,11.47,0.01,0.04,-0.04,28.91
26354176,2013,1,197885,240968,-0.21,-1.48,9.77,-0.05,0.01,-0.02,28.91
26394221,2071,1,198007,241485,-0.16,-1.16,11.11,-0.01,0.02,-0.04,28.91
26434199,2096,1,198076,241366,0.18,-1.17,9.36,-0.05,-0.05,-0.05,28.91
26474199,2064,1,198106,241516,-0.27,-1.86,10.60,-0.04,-0.00,-0.04,28.91
26514213,2103,1,197792,239893,0.10,-1.12,9.05,-0.06,-0.07,-0.05,28.91
26554199,2114,1,197716,240457,-0.28,-1.36,12.00,-0.04,-0.03,-0.04,28.91
26594921,1999,1,197716,239547,-0.39,-0.87,10.13,-0.05,-0.07,-0.11,28.95
26633216,2045,1,197885,240592,-0.67,-1.55,10.54,-0.03,-0.07,-0.01,28.95
26673213,2145,1,197922,239225,-0.18,-1.35,10.07,-0.05,0.06,-0.03,28.95
26713199,2064,1,197659,239181,-0.46,-1.82,9.40,-0.02,-0.04,0.19,28.95
26753199,2032,1,198024,238244,-0.14,-1.51,8.33,-0.07,0.03,-0.03,28.95
26793199,1815,1,197867,240252,0.09,-1.59,10.03,-0.02,-0.06,0.06,28.95
26833179,1925,1,198628,241387,0.56,-1.10,9.34,-0.03,0.00,-0.05,28.95
26873179,1985,1,198694,241768,0.35,-1.68,8.88,-0.05,-0.11,-0.04,28.95
26913199,2043,1,198806,241964,0.32,-1.43,9.41,-0.03,-0.01,-0.05,28.95
26953199,1974,1,198555,241659,0.68,-0.71,9.53,0.00,-0.06,-0.05,28.95
26993176,1983,1,198572,241319,0.02,-0.74,9.66,-0.02,-0.04,-0.05,28.95
27033199,2035,1,198552,241291,-0.52,-1.13,10.52,0.01,0.01,-0.03,28.95
27073179,1968,1,198614,241594,0.23,-1.41,10.52,0.00,-0.06,-0.04,28.95
27113179,1974,1,198623,241488,0.40,-0.54,9.91,0.01,-0.06,-0.04,28.95
27153176,1993,1,198654,241262,-0.06,-1.29,9.49,-0.00,-0.03,-0.03,28.95
27193216,1943,1,198427,240889,0.86,-0.33,10.30,-0.00,-0.05,-0.04,28.95
27233196,1995,1,198178,241073,-0.44,-1.53,11.25,-0.02,0.10,-0.03,28.95
27273200,2064,1,198226,240100,1.24,-0.20,10.00,-0.02,-0.13,-0.04,28.95
27313199,1929,1,198461,241060,-0.59,-1.14,11.55,-0.05,0.06,-0.01,28.95
27353199,1984,1,198793,241743,0.47,-1.12,11.26,-0.03,-0.10,-0.01,28.95
27393199,2071,1,198980,241591,-0.07,-1.27,10.11,-0.05,-0.02,-0.03,28.95
27433216,2031,1,198839,242000,0.40,-0.82,9.34,-0.05,-0.07,0.16,28.95
27473179,2079,1,199065,241665,0.02,-0.60,11.30,-0.05,0.02,-0.06,28.95
27513179,2006,1,198666,242107,-0.34,-1.67,8.58,0.01,-0.15,0.14,28.95
27553179,2016,1,198753,242369,0.16,-1.73,10.44,-0.08,0.02,-0.04,28.95
27593179,2000,1,198303,241854,-0.34,-1.27,7.03,-0.02,-0.14,-0.03,28.95
27633920,1897,1,198337,241905,0.68,-0.68,10.56,-0.06,0.02,-0.12,28.89
27674179,2014,1,198113,241459,0.47,-0.60,8.84,-0.06,-0.01,-0.07,28.89
27714196,1930,1,198280,241626,0.76,-0.45,9.95,-0.06,-0.01,-0.04,28.89
27754200,2064,1,198437,241039,0.91,-0.77,10.48,-0.05,-0.02,-0.06,28.89
27794199,2036,1,197968,239728,-0.63,-1.29,10.42,-0.01,0.07,-0.03,28.89
27834199,2014,1,197716,239755,-0.00,-1.24,9.86,-0.03,-0.02,-0.03,28.89
27874212,2039,1,197856,240304,-0.11,-1.51,9.96,-0.01,0.00,-0.03,28.89
27914199,2074,1,197921,240567,-0.03,-1.59,9.44,-0.04,-0.00,-0.03,28.89
27954212,2064,1,198011,241258,-0.49,-1.71,9.83,-0.03,0.05,-0.03,28.89
27994199,1989,1,198111,241040,0.14,-0.87,10.07,-0.03,-0.02,-0.03,28.89
28034204,1938,1,198241,241139,-0.03,-1.54,10.16,-0.02,0.03,-0.03,28.89
28074199,1977,1,198237,240777,-0.01,-1.14,9.93,-0.05,0.03,-0.03,28.89
28114199,1840,1,198143,240858,0.25,-1.05,9.46,-0.01,0.02,0.00,28.89
28154170,1858,1,198420,241458,0.59,-0.66,10.15,-0.00,-0.03,-0.03,28.89
28194199,1819,1,198403,241989,0.49,-1.49,9.42,-0.02,-0.04,-0.03,28.89
28234213,1865,1,198391,242281,0.10,-1.19,8.87,-0.04,-0.03,-0.03,28.89
28274199,1881,1,198273,242354,0.03,-1.19,10.68,-0.02,-0.07,-0.03,28.89
28312199,1919,1,198181,242091,-0.22,-0.64,9.44,-0.03,-0.05,-0.03,28.89
28352212,1841,1,198094,242253,-0.62,-1.38,10.94,0.00,-0.01,-0.03,28.89
28392199,1914,1,197800,240328,0.34,-0.66,9.82,-0.03,-0.07,-0.10,28.89
28432199,1907,1,197447,240384,0.05,-1.40,10.99,-0.01,-0.01,-0.03,28.89
28472199,1990,1,197388,239775,0.17,-0.68,8.91,-0.03,-0.01,-0.09,28.89
28512199,1894,1,197402,240756,-0.02,-0.97,10.45,-0.02,0.02,-0.03,28.89
28552199,2007,1,197574,240838,0.74,-0.20,10.16,-0.04,0.00,-0.10,28.89
28592176,1951,1,197456,240950,0.39,-0.70,10.50,-0.04,-0.05,-0.04,28.89
28632199,2000,1,197512,240772,0.79,-0.72,9.73,-0.06,-0.05,-0.05,28.89
28672886,1904,1,197443,240490,0.22,-0.87,10.64,-0.03,-0.01,-0.03,28.83
28713200,1860,1,197509,240293,0.41,-1.42,9.79,-0.03,-0.10,-0.02,28.83
28753199,1808,1,197613,241038,-0.63,-1.57,9.91,-0.03,-0.00,-0.03,28.83
28793216,1858,1,197527,240514,0.81,-1.41,7.63,-0.03,-0.12,-0.04,28.83
28833199,1801,1,197785,241569,0.20,-1.09,10.59,-0.03,0.04,-0.03,28.83
28873179,1899,1,197927,241514,0.24,-0.82,8.28,-0.02,-0.03,-0.09,28.83
28913199,1866,1,197996,241858,0.19,-0.56,11.08,0.00,0.03,-0.05,28.83
28953169,1898,1,197989,241868,-0.02,-1.25,10.59,0.00,0.05,-0.04,28.83
28993176,1787,1,197902,240524,0.51,-0.82,9.74,-0.00,-0.03,-0.04,28.83
29033200,1679,1,197294,239854,0.17,-1.39,10.21,-0.03,0.01,-0.03,28.83
29073179,1629,1,197220,239597,1.09,-0.80,9.64,-0.03,-0.07,-0.04,28.83
29113199,1648,1,197269,239650,0.62,-0.97,10.25,-0.05,-0.04,-0.04,28.83
29153200,1607,1,197490,240450,0.03,-0.95,10.41,-0.01,-0.01,-0.03,28.83
29193199,1601,1,197392,240405,0.39,-0.83,9.50,-0.04,-0.07,-0.03,28.83
29233197,1584,1,197436,241067,-0.54,-1.44,10.11,-0.03,0.02,-0.02,28.83
29273203,1600,1,197324,240197,0.41,-0.92,8.86,-0.06,-0.05,-0.04,28.83
29313200,1557,1,197441,240700,-0.34,-1.53,10.67,-0.02,0.04,-0.03,28.83
29353200,1670,1,197748,240365,0.46,-0.39,9.73,-0.02,0.02,-0.04,28.83
29393179,1614,1,197863,240713,0.49,-1.20,9.14,-0.05,-0.03,0.03,28.83
29433179,1581,1,198254,241287,0.97,-1.11,9.00,-0.07,0.01,-0.04,28.83
29473176,1739,1,198351,241214,1.32,-0.77,8.63,-0.06,-0.04,-0.04,28.83
29513199,1799,1,198447,241416,0.70,-0.63,9.23,-0.08,0.03,-0.04,28.83
29553176,1909,1,198577,241578,0.32,-0.83,10.86,-0.03,0.04,-0.03,28.83
29593179,1975,1,198370,240249,0.11,-0.86,10.02,-0.03,0.02,-0.02,28.83
29633176,1982,1,197877,239644,-0.07,-1.98,11.47,-0.05,0.04,0.10,28.83
29673905,1998,1,197593,238053,-0.12,-1.13,9.00,-0.08,0.03,-0.03,28.75
29712199,2035,1,197354,239027,0.30,-0.87,10.27,-0.06,0.00,0.09,28.75
29752170,2154,1,197947,239686,-0.30,-0.84,11.01,-0.05,0.13,-0.02,28.75
29792199,2143,1,197901,240711,-0.24,-1.14,10.72,-0.03,0.01,-0.02,28.75
29832200,2164,1,198276,241403,0.43,-0.99,10.84,-0.07,0.08,-0.04,28.75
29872179,2027,1,198206,241748,0.09,-1.01,10.94,-0.06,0.05,-0.02,28.75
29912179,2112,1,198135,241826,0.52,-1.11,10.11,-0.08,0.02,-0.06,28.75
29952179,2034,1,198012,241695,-0.02,-0.97,9.87,-0.07,0.03,-0.02,28.75
29992199,2070,1,198130,241329,0.57,-0.93,10.81,-0.06,-0.03,-0.03,28.75
30032199,2027,1,198020,241800,-0.61,-1.23,10.82,-0.04,0.05,-0.02,28.75
30072199,2013,1,198171,241711,0.18,-1.11,8.64,-0.06,-0.08,-0.03,28.75
30112199,2006,1,198240,242202,-0.80,-1.59,10.50,-0.05,0.07,-0.02,28.75
30152199,2055,1,198416,242151,-0.23,-1.77,9.11,-0.04,-0.06,-0.03,28.75
30192213,2005,1,198523,242423,-0.21,-1.04,10.27,-0.01,0.01,-0.10,28.75
30232199,1997,1,198532,241864,-0.46,-1.27,9.98,-0.01,0.05,-0.02,28.75
30272199,2013,1,198207,240663,0.05,-1.61,9.80,-0.04,-0.02,-0.04,28.75
30312199,2062,1,197955,240538,-0.04,-1.74,9.15,-0.03,-0.01,-0.03,28.75
30352212,2112,1,198093,240712,0.40,-1.39,8.64,-0.03,-0.07,-0.03,28.75
30392199,2096,1,198063,240766,-0.05,-1.19,9.54,-0.04,-0.05,-0.03,28.75
30432213,2064,1,198173,241360,-0.25,-0.91,11.32,0.02,-0.02,-0.02,28.75
30472199,2134,1,198052,241066,-0.27,-0.96,9.35,0.00,-0.03,-0.02,28.75
30511196,2059,1,198086,241507,-0.05,-1.92,11.21,-0.01,-0.04,-0.02,28.75
30551216,2123,1,198014,240718,-0.00,-0.97,8.82,-0.02,-0.06,-0.02,28.75
30591212,2096,1,198025,241545,-0.22,-1.81,9.86,-0.05,-0.01,0.12,28.75
30631200,2240,1,198452,241339,0.20,-0.35,9.52,-0.04,0.05,-0.03,28.75
30671176,2163,1,198550,242273,0.02,-1.02,10.72,-0.02,-0.01,-0.00,28.75
30711886,2204,1,199037,242633,0.63,-0.83,10.34,-0.07,0.06,-0.03,28.83
30752179,2107,1,199148,242994,0.37,-0.84,10.43,-0.03,-0.02,-0.01,28.83
30792199,2112,1,199247,242704,0.53,-1.47,8.60,-0.09,0.03,0.12,28.83
30832170,2059,1,199615,243663,-0.03,-1.88,10.37,-0.06,0.02,0.08,28.83
30872179,2135,1,199355,242516,0.30,-0.88,8.62,-0.03,-0.01,-0.02,28.83
30912196,2074,1,198748,241976,0.09,-1.11,11.23,-0.03,0.03,-0.02,28.83
30952179,1987,1,198072,241316,0.13,-0.95,9.73,-0.01,-0.04,-0.18,28.83
30992199,1870,1,198024,241564,0.35,-0.98,11.73,-0.01,-0.05,-0.02,28.83
31032199,1795,1,198193,240563,0.62,-1.06,9.06,-0.06,-0.02,-0.02,28.83
31072197,1795,1,198413,241089,-0.08,-0.87,11.48,-0.04,-0.01,0.09,28.83
31112199,1939,1,198428,239090,0.39,-0.63,9.74,-0.03,0.01,0.09,28.83
31152170,1984,1,197901,239767,0.81,-0.64,10.83,-0.06,0.01,0.42,28.83
31192169,2119,1,198538,239465,0.91,-1.18,9.47,-0.07,0.03,-0.05,28.83
31232179,2154,1,198231,241496,0.26,-0.34,9.86,-0.02,0.01,0.05,28.83
31272170,2102,1,199044,241721,0.44,-1.18,9.22,-0.10,0.07,-0.08,28.83
31312222,2129,1,198933,242230,0.48,-0.88,10.30,-0.04,-0.07,0.11,28.83
31352179,2171,1,199181,242287,0.34,-1.45,9.83,-0.05,-0.01,-0.00,28.83
31392199,2237,1,199185,242858,0.36,-1.17,10.13,-0.01,-0.09,0.01,28.83
31432179,2288,1,199090,242592,-0.61,-1.43,8.99,-0.02,0.04,0.00,28.83
31472179,2283,1,198865,241553,0.30,-1.35,9.30,-0.00,-0.04,0.00,28.83
31512209,2263,1,198537,240877,0.47,-0.83,8.98,-0.02,-0.01,-0.00,28.83
31552200,2295,1,198164,240557,0.73,-1.03,8.47,-0.04,-0.01,-0.00,28.83
31592200,2320,1,198290,241002,0.49,-0.83,10.24,-0.04,0.08,-0.02,28.83
31632179,2325,1,197950,240992,0.89,-0.34,9.32,-0.02,-0.03,-0.03,28.83
31672199,2322,1,197881,241777,0.06,-1.71,10.86,-0.05,0.10,-0.12,28.83
31712865,2165,1,197373,241433,1.44,0.07,11.21,0.01,-0.05,-0.31,28.85
31751169,1795,1,196978,240351,1.85,0.52,9.96,-0.05,-0.07,-0.18,28.85
31791179,1941,1,196803,240269,0.37,-0.83,11.86,-0.06,0.06,0.00,28.85
31831170,2150,1,196890,239350,0.29,-0.79,9.38,-0.05,-0.03,-0.01,28.85
31871199,1994,1,197018,239467,-0.07,-1.44,11.60,-0.05,-0.01,0.15,28.85
31911199,2007,1,197197,239271,-0.11,-1.91,9.33,-0.06,0.04,0.06,28.85
31951179,2027,1,197347,240277,-0.40,-0.96,9.56,-0.02,-0.02,0.03,28.85
31991199,2011,1,197537,239688,0.73,-1.12,8.40,-0.09,-0.05,0.00,28.85
32031177,2068,1,197960,240516,-0.30,-2.11,10.62,-0.06,0.08,0.16,28.85
32071179,1999,1,197372,237037,1.22,-1.12,7.55,-0.03,-0.07,-0.04,28.85
32111199,1902,1,196710,236534,0.66,-1.18,10.43,-0.06,0.04,0.12,28.85
32151169,1917,1,196744,236345,0.66,-0.94,8.71,0.01,0.00,-0.01,28.85
32191168,1888,1,197318,239072,-0.11,-0.73,10.24,0.00,0.03,0.01,28.85
32231170,1904,1,197275,238867,1.05,-0.79,8.55,0.02,-0.09,-0.07,28.85
32271176,1872,1,197628,240474,-0.57,-1.17,11.22,-0.01,0.04,0.00,28.85
32311179,1941,1,197491,239731,0.58,-0.47,9.61,-0.01,-0.07,-0.08,28.85
32351199,1879,1,197548,240270,-0.06,-1.09,10.81,0.01,-0.01,0.01,28.85
32391179,1916,1,197240,239216,0.05,-1.32,9.72,-0.04,0.03,-0.01,28.85
32431176,1872,1,197153,240388,-0.35,-0.99,10.25,-0.01,0.03,0.00,28.85
32471179,1889,1,197263,240285,1.00,-0.35,9.77,-0.05,-0.02,-0.11,28.85
32511199,1849,1,197150,241387,-0.35,-1.39,13.26,-0.02,0.10,-0.04,28.85
32551200,1913,1,196951,241055,0.40,-0.45,10.84,-0.05,-0.05,-0.23,28.85
32591199,1730,1,196794,241326,0.18,-0.72,13.92,-0.03,-0.04,-0.08,28.85
32631199,1675,1,196675,240556,-0.31,-1.62,10.64,-0.13,0.00,-0.02,28.85
32671199,1584,1,196867,240382,-0.48,-1.38,12.23,-0.06,-0.09,0.00,28.85
32711199,1750,1,196771,237383,0.51,-1.24,10.21,-0.13,-0.07,-0.01,28.85
32751886,1535,1,196622,238130,-0.25,-1.36,9.79,-0.09,-0.02,0.08,28.77
32790199,1711,1,197056,237793,0.17,-1.30,9.04,-0.12,-0.03,-0.00,28.77
32830199,1613,1,196881,239205,0.45,-1.00,7.96,-0.10,-0.09,-0.02,28.77
32870200,1775,1,197547,240135,0.40,-1.01,7.51,-0.11,0.08,-0.02,28.77
32910176,1885,1,197704,240542,0.74,-1.49,8.51,-0.07,0.01,-0.04,28.77
32950224,1875,1,197745,240626,0.32,-0.92,9.12,-0.05,0.05,-0.09,28.77
32990179,1936,1,197562,239559,0.73,-1.09,8.10,-0.03,0.01,-0.02,28.77
33030179,1989,1,197591,239596,0.14,-1.43,9.47,0.01,0.04,-0.01,28.77
33070170,2114,1,197660,239263,-0.05,-1.69,8.90,0.01,-0.00,-0.00,28.77
33110199,1968,1,197742,240008,0.08,-1.06,8.47,0.03,-0.01,0.00,28.77
33150202,1966,1,198239,241116,-0.28,-1.19,8.87,0.01,0.07,-0.00,28.77
33190179,1935,1,198517,242059,-0.25,-1.24,9.40,0.02,0.03,-0.00,28.77
33230177,1968,1,198668,242441,0.16,-0.82,10.33,0.03,0.05,0.00,28.77
33270148,2096,1,198550,242514,-0.39,-1.16,9.85,0.02,0.12,0.02,28.77
33310170,2102,1,198450,241633,-0.06,-1.12,10.38,-0.02,0.05,0.06,28.77
33350179,2073,1,198011,241099,-0.20,-1.22,11.68,-0.01,0.07,0.01,28.77
33390179,2047,1,197928,240218,0.18,-0.78,11.18,-0.06,-0.02,-0.01,28.77
33430199,1985,1,197802,240494,0.08,-1.24,11.66,-0.06,-0.00,-0.01,28.77
33470199,1955,1,198000,240342,0.10,-0.99,11.41,-0.08,-0.02,-0.02,28.77
33510199,1975,1,198214,241156,-0.25,-0.90,12.56,-0.06,-0.01,-0.01,28.77
33550212,2006,1,198128,240132,-0.15,-1.49,9.79,-0.10,-0.05,-0.01,28.77
33591217,1902,1,198217,241294,-0.66,-1.66,10.35,-0.09,0.02,0.05,28.77
33631179,1949,1,198392,240706,0.23,-0.52,8.93,-0.11,-0.03,-0.01,28.77
33671199,1734,1,198658,241879,-0.28,-1.13,10.08,-0.06,0.04,-0.01,28.77
33711199,1575,1,198933,241928,0.10,-0.95,8.91,-0.09,0.03,-0.02,28.77
33751866,1435,1,198925,242450,-0.16,-1.64,9.42,-0.07,0.03,-0.01,28.91
33790199,1745,1,199076,242591,0.56,-1.09,9.01,-0.08,0.01,-0.01,28.91
33830179,1843,1,199036,242904,-0.42,-1.53,9.42,-0.06,0.05,0.01,28.91
33870179,1958,1,199112,242310,0.27,-1.35,8.88,-0.07,-0.07,-0.01,28.91
33910199,1996,1,199013,241088,0.02,-1.22,10.20,-0.02,-0.03,-0.00,28.91
33950199,2089,1,198681,240847,-0.42,-1.69,9.90,0.01,0.02,0.03,28.91
33990169,2112,1,198854,240585,-0.44,-1.37,9.78,-0.01,-0.05,0.00,28.91
34030199,2096,1,198677,241044,-0.15,-1.69,9.30,-0.02,-0.05,-0.00,28.91
34070214,2105,1,198931,240757,-0.53,-1.57,9.05,-0.04,0.00,-0.00,28.91
34110196,1987,1,198444,240273,0.15,-1.08,9.59,-0.01,-0.05,-0.01,28.91
34150199,1946,1,199015,241882,-0.21,-0.94,9.98,-0.03,0.05,-0.00,28.91
34190199,1990,1,199229,242276,0.38,-0.73,10.24,-0.00,-0.01,-0.01,28.91
34230199,1974,1,199045,242544,-0.22,-1.32,10.54,-0.00,0.05,-0.00,28.91
34270199,1951,1,198813,242467,-0.18,-1.04,10.38,-0.02,-0.03,-0.01,28.91
34310216,1884,1,198651,242462,-0.28,-1.09,10.99,-0.01,-0.02,-0.02,28.91
34350213,1810,1,198620,242508,-0.38,-1.51,10.53,-0.03,-0.04,0.00,28.91
34390199,1778,1,198881,242587,-0.13,-0.82,10.85,-0.02,-0.08,-0.00,28.91
34430212,1745,1,198921,242843,-0.91,-1.57,10.75,-0.04,0.03,0.00,28.91
34470179,1709,1,199149,243237,0.06,-1.46,10.86,-0.03,-0.02,-0.00,28.91
34510199,1712,1,198976,241724,-0.89,-1.60,8.76,-0.07,0.03,0.00,28.91
34550179,1659,1,198312,240744,0.05,-1.21,9.25,-0.05,-0.06,0.00,28.91
34589213,1793,1,198727,241121,-0.81,-1.41,10.77,-0.05,0.13,-0.01,28.91
34629200,1730,1,198440,241585,0.49,-1.07,9.21,-0.01,-0.13,-0.00,28.91
34669199,1770,1,198747,241988,-0.18,-1.33,11.15,-0.10,0.11,-0.01,28.91
34709199,1728,1,198321,241950,0.27,-0.87,9.22,-0.03,-0.15,-0.00,28.91
34749199,1811,1,198187,240668,-0.04,-1.54,10.45,-0.10,0.01,0.00,28.91
34789869,1766,1,197865,240596,0.06,-1.25,10.60,-0.03,-0.09,0.09,28.85
34830176,1787,1,197909,238774,-0.22,-0.77,9.09,-0.08,-0.01,0.00,28.85
34870199,1747,1,197717,240025,-0.02,-1.66,9.91,-0.05,-0.05,0.28,28.85
34910199,1895,1,198658,240780,0.16,-1.38,8.46,-0.06,0.04,0.01,28.85
34950170,1885,1,198846,242410,-0.42,-1.13,8.71,-0.01,-0.02,0.01,28.85
34990214,1904,1,199145,242680,0.25,-1.25,8.62,-0.04,0.06,-0.05,28.85
35030179,1989,1,198996,242871,-0.14,-1.58,9.19,-0.01,-0.03,-0.00,28.85
35070212,1968,1,199172,241924,0.76,-0.57,8.18,-0.03,-0.01,-0.01,28.85
35110199,2064,1,199201,242275,-0.36,-1.71,10.03,0.04,0.08,0.03,28.85
35150170,1997,1,199023,241231,0.47,-1.28,7.43,0.01,-0.05,0.00,28.85
35190169,2005,1,199112,242200,-0.24,-1.33,10.47,0.02,0.03,0.01,28.85
35230170,2102,1,199215,242676,-0.47,-1.49,8.00,0.02,0.00,-0.00,28.85
35270179,2129,1,199388,242762,-0.24,-0.88,9.36,0.03,-0.04,-0.04,28.85
35310200,2081,1,199346,242952,-0.56,-1.71,10.47,0.01,0.02,0.01,28.85
35350170,2105,1,199263,242937,-0.37,-1.10,9.85,-0.00,0.01,-0.01,28.85
35390199,2025,1,199310,243096,-0.34,-1.07,11.35,0.01,0.03,0.01,28.85
35430170,2007,1,199434,243437,-0.42,-1.08,10.65,-0.03,0.03,0.01,28.85
35470179,1946,1,199592,243623,-0.33,-1.21,12.12,-0.03,0.02,-0.06,28.85
35510199,1868,1,199778,244096,-0.68,-0.84,11.18,-0.05,-0.03,-0.07,28.85
35550213,1954,1,200849,244808,0.35,-0.58,11.54,-0.08,-0.06,-0.02,28.85
35590199,1985,1,201549,245216,-0.06,-0.50,10.22,-0.11,-0.03,0.06,28.85
35629199,1931,1,202256,246033,-0.58,-1.90,9.77,-0.10,0.03,0.02,28.85
35669178,1886,1,202620,246819,0.08,-0.94,9.63,-0.05,-0.03,-0.01,28.85
35709196,1951,1,202478,246839,-1.02,-2.11,9.44,-0.10,0.02,-0.04,28.85
35749198,1840,1,202323,245998,-0.53,-1.26,8.72,-0.06,-0.02,-0.03,28.85
35789213,1885,1,202068,245283,-0.25,-1.97,9.41,-0.07,-0.02,-0.08,28.85
35829898,1917,1,201919,245451,-0.09,-1.27,7.55,-0.03,-0.08,-0.02,28.91
35868211,2099,1,202358,246279,-0.46,-2.38,10.89,-0.04,0.06,-0.04,28.91
35908198,2286,1,202264,245838,-0.00,-1.30,6.51,-0.04,-0.10,-0.04,28.91
35948212,2218,1,202514,246206,-0.25,-1.39,10.49,-0.01,0.08,-0.01,28.91
35988199,2351,1,202383,245399,0.25,-0.55,8.17,-0.01,-0.05,-0.03,28.91
36028199,2096,1,202431,246357,-0.66,-1.63,11.67,0.01,0.08,-0.01,28.91
36068179,2325,1,202444,246091,0.21,-1.31,8.44,-0.02,-0.08,-0.04,28.91
36108199,2087,1,202335,246695,-1.16,-1.67,10.87,0.02,0.04,0.02,28.91
36148169,2423,1,202240,246427,-0.29,-0.72,9.46,-0.00,-0.08,-0.09,28.91
36188212,2226,1,201930,246543,-1.20,-1.66,12.04,0.01,0.00,0.02,28.91
36228170,2128,1,202042,246217,-0.61,-1.16,9.44,-0.02,-0.03,-0.02,28.91
36268213,1805,1,201769,246295,-1.29,-1.73,13.38,-0.00,0.03,0.01,28.91
36308179,1573,1,202006,245933,0.34,-0.51,8.58,-0.07,-0.06,-0.02,28.91
36348199,1264,1,202288,246358,-0.77,-1.93,13.53,-0.02,0.12,0.03,28.91
36388179,919,1,201745,244193,0.17,-0.40,7.96,-0.09,0.01,-0.06,28.91
36428199,913,1,201790,245460,0.18,-1.46,11.84,-0.06,-0.01,0.00,28.91
36468179,1313,1,201863,244324,-0.19,-1.91,8.66,-0.11,0.08,-0.07,28.91
36508195,1159,1,201789,245377,-1.18,-2.25,10.19,0.00,-0.06,0.02,28.91
36548179,1515,1,202089,245723,-0.84,-2.14,8.29,-0.09,0.04,-0.01,28.91
36588199,1741,1,202248,246507,-1.30,-2.18,10.48,-0.00,-0.08,-0.01,28.91
36628232,2047,1,202210,245311,-0.51,-1.31,6.83,-0.07,-0.04,-0.08,28.91
36668212,1895,1,202274,245823,-0.97,-2.43,10.94,-0.00,-0.03,0.07,28.91
36708199,2368,1,202437,244648,-0.22,-0.43,8.07,-0.06,0.02,-0.02,28.91
36748196,2179,1,202347,246141,-0.38,-2.04,9.94,-0.01,0.01,0.16,28.91
36788179,2496,1,202593,245332,0.62,-0.34,8.17,-0.05,0.15,-0.10,28.91
36828179,2209,1,202362,246405,-0.51,-1.60,11.93,0.00,0.02,0.00,28.91
36868856,2349,1,202731,245774,-0.01,-1.29,9.20,-0.09,0.10,-0.08,28.85
36909196,1835,1,202543,246566,-0.94,-1.96,13.50,0.03,0.03,0.00,28.85
36949170,2213,1,202979,245799,-0.19,-1.34,10.15,-0.08,-0.04,-0.03,28.85
36989212,2329,1,202587,245055,-1.20,-1.47,12.62,0.03,0.03,0.00,28.85
37029169,2592,1,202152,244243,-1.08,-2.02,9.17,-0.07,0.03,0.02,28.85
37069179,2512,1,202259,244904,-1.20,-1.40,10.96,-0.01,0.02,0.00,28.85
37109179,2528,1,202161,245060,-0.41,-1.87,10.40,-0.05,-0.05,-0.00,28.85
37149212,2590,1,202221,245571,-0.67,-0.96,9.51,-0.05,0.03,-0.01,28.85
37189199,2546,1,202289,245726,-0.34,-1.29,10.09,-0.05,0.02,-0.02,28.85
37229199,2558,1,202276,246119,-0.39,-1.77,10.64,-0.05,0.02,-0.01,28.85
37269200,2506,1,202206,245548,0.26,-0.59,8.92,-0.07,-0.08,-0.05,28.85
37309199,2458,1,202096,245839,-0.69,-1.50,10.12,-0.06,0.02,-0.01,28.85
37349199,2466,1,202109,245709,-0.37,-1.46,9.77,-0.03,-0.07,-0.02,28.85
37389213,2378,1,202090,246279,-1.17,-1.25,11.01,-0.01,0.00,-0.01,28.85
37429199,2328,1,202183,246431,-0.72,-1.87,9.28,-0.03,-0.06,-0.01,28.85
37469213,2248,1,202210,246386,-0.49,-1.68,9.84,-0.03,-0.05,-0.05,28.85
37509216,2185,1,202242,246158,-0.72,-2.12,8.73,-0.03,-0.06,-0.01,28.85
37549213,2194,1,202469,246489,-0.54,-1.01,9.93,-0.02,0.02,-0.01,28.85
37589199,2195,1,202303,246056,-0.62,-1.39,10.58,-0.02,0.01,-0.01,28.85
37629199,2071,1,202011,245623,-0.33,-1.42,9.77,-0.05,-0.01,-0.03,28.85
37669216,1906,1,201920,245297,-0.70,-1.61,10.02,-0.03,0.01,0.00,28.85
37709176,1839,1,201709,244767,-0.17,-1.61,9.37,-0.05,-0.05,-0.02,28.85
37749216,2346,1,201825,244866,-0.21,-1.45,9.49,-0.03,-0.05,-0.01,28.85
37787213,2002,1,201796,245055,-0.62,-1.32,9.73,0.00,-0.05,-0.00,28.85
37827200,688,1,201831,244843,-0.35,-1.41,9.13,0.00,-0.05,0.00,28.85
37867200,91,1,201857,245294,-1.45,-1.81,9.90,0.02,0.01,0.02,28.85
37907856,3207,1,201378,245373,-1.19,-1.93,10.52,0.03,-0.01,0.00,29.35
37948179,4095,1,201526,245061,-0.48,-1.49,9.66,0.02,-0.05,0.01,29.35
37988179,4095,1,201444,245018,-0.64,-1.36,10.29,-0.00,0.02,0.00,29.35
38028176,4095,1,200996,244809,-1.25,-1.66,10.90,-0.04,0.03,-0.01,29.35
38068211,2992,1,201366,244974,0.21,-1.10,11.96,-0.01,-0.09,-0.01,29.35
38108199,2695,1,201015,243446,-0.50,-1.25,10.40,-0.06,-0.04,-0.01,29.35
38148216,2480,1,200442,242131,0.06,-0.65,10.44,-0.06,-0.09,0.23,29.35
38188179,2224,1,200017,239440,-0.40,-1.92,9.86,-0.08,-0.03,0.12,29.35
38228199,1945,1,199095,239782,-0.03,-1.49,8.73,-0.03,-0.08,0.06,29.35
38268199,1721,1,198920,240518,-0.63,-1.71,9.54,-0.05,-0.00,-0.12,29.35
38308216,38,1,198673,241411,-0.16,-1.03,9.26,0.01,-0.08,-0.06,29.35
38348196,35,1,198204,238946,0.54,-0.59,7.98,-0.04,-0.12,-0.06,29.35
38388199,37,1,197669,239862,-0.77,-2.34,9.29,-0.04,0.04,0.08,29.35
38428176,38,1,197397,236845,0.35,-0.79,9.32,-0.01,-0.02,-0.03,29.35
38468199,37,1,196750,236691,-0.60,-1.92,9.18,-0.06,0.00,0.25,29.35
38508176,35,1,196633,235461,0.41,-1.23,9.68,-0.00,0.04,0.00,29.35
38548170,30,1,196276,236766,0.50,-1.24,9.41,-0.02,-0.01,0.07,29.35
38588176,32,1,196765,238628,0.17,-1.18,8.77,-0.03,-0.01,-0.01,29.35
38628199,33,1,197085,237497,-0.07,-1.13,8.68,-0.02,-0.00,-0.00,29.35
38668212,412,1,197421,240455,-1.08,-1.86,9.90,-0.04,0.11,0.04,29.35
38708179,1331,1,197640,239375,-0.02,-0.78,10.40,-0.02,-0.07,-0.03,29.35
38748212,1735,1,198146,242023,-0.83,-1.37,11.62,0.01,0.08,0.09,29.35
38788170,2224,1,198356,240735,-0.08,-1.41,10.07,-0.02,-0.05,0.00,29.35
38828196,2556,1,198662,241482,-0.90,-1.29,11.80,-0.05,0.02,0.09,29.35
38868179,2698,1,198819,242025,0.22,-0.84,10.12,-0.04,-0.01,0.06,29.35
38908866,2803,1,199382,243281,-0.72,-0.93,11.50,-0.04,0.11,0.02,29.15
38947179,2480,1,199728,243036,1.20,0.03,11.06,-0.07,-0.14,0.00,29.15
38987168,2627,1,199839,243646,0.02,-1.03,11.53,-0.10,0.12,0.03,29.15
39027170,2670,1,199823,242966,0.73,-0.78,8.44,-0.09,-0.09,0.00,29.15
39067176,2672,1,199532,243293,-0.28,-1.62,11.46,-0.12,0.10,0.01,29.15
39107179,2839,1,199398,242767,0.45,-0.95,9.22,-0.06,-0.11,0.00,29.15
39147179,2880,1,199058,241293,-0.25,-1.26,8.77,-0.05,0.01,0.01,29.15
39187179,2939,1,198535,241844,-0.37,-1.47,9.41,-0.05,-0.01,0.02,29.15
39227199,2832,1,198046,239853,0.21,-1.29,8.12,-0.05,-0.08,-0.08,29.15
39267199,2765,1,198277,242814,-1.12,-1.71,9.71,-0.03,0.09,0.00,29.15
39307181,2699,1,198447,240849,-0.00,-0.58,7.62,0.02,-0.06,-0.28,29.15
39347199,2931,1,198667,242980,-1.06,-1.99,12.13,-0.00,0.13,0.02,29.15
39387179,2990,1,198256,238548,0.91,-0.72,8.06,-0.00,-0.11,-0.09,29.15
39427199,2978,1,198011,238498,-0.24,-1.50,10.84,-0.01,0.04,0.12,29.15
39467179,3247,1,198165,239430,0.37,-1.11,9.87,0.01,0.01,-0.01,29.15
39507169,3297,1,198783,241970,-0.18,-1.22,10.47,0.01,0.03,0.01,29.15
39547170,3354,1,199068,243205,-0.49,-1.66,10.06,-0.01,-0.00,0.01,29.15
39587199,3421,1,199368,244404,-0.57,-1.39,11.55,0.00,-0.03,0.00,29.15
39627179,3891,1,199680,244617,0.09,-0.13,10.37,-0.05,-0.10,-0.06,29.15
39667199,4095,1,199526,244716,-0.88,-1.91,11.94,-0.06,0.04,-0.03,29.15
39707199,4095,1,199515,243708,-0.18,-0.96,10.66,-0.05,-0.05,-0.00,29.15
39747216,4005,1,199317,244283,-0.69,-1.66,11.48,-0.08,0.05,0.01,29.15
39787179,3677,1,199400,244210,-0.65,-0.76,10.48,-0.07,0.01,-0.01,29.15
39827199,3993,1,199250,244642,-0.42,-1.36,10.69,-0.07,0.02,-0.00,29.15
39867199,4095,1,199167,243530,0.30,-0.87,8.96,-0.10,-0.04,-0.03,29.15
39907199,4095,1,199043,244502,-0.68,-1.43,10.18,-0.05,0.09,-0.01,29.15
39947885,4095,1,199029,245192,0.31,-0.83,7.89,-0.06,-0.06,-0.01,29.29
39986199,3910,1,199586,243847,-0.13,-1.91,10.81,-0.02,-0.00,-0.21,29.29
40026220,3415,1,198481,243034,-0.32,-1.30,6.54,-0.02,-0.10,0.03,29.29
40066199,3236,1,198926,242577,-0.64,-1.91,10.20,-0.03,0.01,0.01,29.29
40106179,2809,1,197503,241219,-0.12,-1.25,6.81,-0.01,-0.14,0.05,29.29
40146200,2559,1,198605,243951,-0.36,-2.50,10.52,0.03,0.06,0.00,29.29
40186168,2311,1,199090,245477,-0.64,-1.26,8.95,0.06,-0.06,0.01,29.29
40226179,2181,1,199427,246044,-0.40,-2.49,9.77,0.04,-0.00,-0.03,29.29
40266196,2093,1,199368,246261,-0.20,-1.34,8.14,0.03,-0.03,-0.01,29.29
40306199,2128,1,199480,246321,-0.37,-2.04,11.16,0.03,-0.01,-0.07,29.29
40346199,1968,1,199083,245340,0.38,-0.57,8.23,0.04,-0.12,-0.03,29.29
40386179,1893,1,199233,244838,-0.40,-1.34,11.56,0.04,0.03,-0.01,29.29
40426179,1863,1,198519,243490,0.45,-1.17,8.25,0.02,-0.19,0.00,29.29
40466169,1778,1,198725,244440,-0.44,-1.44,11.06,0.03,0.02,0.00,29.29
40506168,1676,1,198541,243297,-0.16,-1.19,8.12,0.00,-0.14,0.01,29.29
40546178,1587,1,197989,242005,-0.07,-0.86,9.63,0.01,-0.11,0.03,29.29
40586179,1561,1,197652,241135,-0.48,-1.14,9.61,-0.01,-0.08,0.02,29.29
40626199,1479,1,197295,241333,0.46,-1.17,9.35,-0.00,-0.12,0.01,29.29
40666179,1184,1,197870,243097,-0.42,-1.32,9.54,-0.01,0.04,0.01,29.29
40706179,835,1,198121,242978,-0.08,-0.87,10.37,-0.04,-0.08,-0.01,29.29
40746212,659,1,198079,242654,-0.35,-0.92,11.03,-0.04,0.03,-0.01,29.29
40786199,802,1,197894,241419,0.82,-0.21,11.84,-0.03,-0.03,-0.01,29.29
40826199,1045,1,197772,241703,-0.66,-1.47,12.56,-0.06,0.06,0.20,29.29
40866179,1147,1,197339,239275,0.53,-0.09,9.72,-0.09,-0.07,0.09,29.29
40906176,1197,1,197160,239044,-0.72,-1.52,12.20,-0.12,0.06,0.09,29.29
40946179,1303,1,196619,238470,0.41,-1.23,9.49,-0.11,-0.06,0.22,29.29
40986865,1334,1,197457,238676,-0.49,-0.86,9.76,-0.11,0.04,0.01,29.25
41027181,1389,1,197396,240381,-0.58,-1.52,9.37,-0.07,0.02,0.26,29.25
41067179,1437,1,198180,240377,-0.01,-1.89,9.39,-0.10,-0.01,-0.01,29.25
41107216,1474,1,198024,241564,-0.84,-1.74,8.47,-0.04,0.02,0.07,29.25
41147179,1587,1,198498,241683,-0.26,-1.65,8.44,-0.06,0.05,-0.01,29.25
41187199,1646,1,198190,240350,-0.45,-1.75,10.32,-0.03,0.07,-0.17,29.25
41227199,1703,1,197132,238264,0.51,-0.84,8.66,-0.04,-0.01,-0.04,29.25
41267199,1770,1,197301,237936,-0.03,-1.22,9.90,-0.03,0.02,-0.01,29.25
41307196,1789,1,196782,237604,0.11,-1.03,7.84,-0.03,0.01,0.09,29.25
41347216,1712,1,197545,240101,-0.37,-2.13,9.93,-0.04,0.07,0.02,29.25
41387179,1716,1,198074,241446,-0.36,-1.39,8.33,0.01,-0.02,0.00,29.25
41427179,1682,1,198583,242505,-0.77,-1.61,10.07,0.00,0.05,-0.08,29.25
41467176,1732,1,198446,243458,-0.79,-1.17,10.81,0.03,0.05,-0.02,29.25
41507178,1808,1,198587,243897,-0.55,-1.83,11.68,0.02,0.01,-0.25,29.25
41545179,2028,1,198373,243909,-1.02,-1.64,10.83,0.02,0.00,-0.02,29.25
41585179,1984,1,198228,243225,-0.85,-1.72,11.11,-0.04,0.01,0.01,29.25
41625179,2191,1,198127,243131,-0.76,-1.54,11.37,-0.04,-0.03,-0.01,29.25
41665216,2273,1,198185,243107,-0.81,-1.27,11.76,-0.06,0.04,-0.01,29.25
41705199,2559,1,198228,243113,0.16,-0.94,11.21,-0.05,-0.06,-0.02,29.25
41745199,2423,1,198229,242415,-0.19,-1.26,11.44,-0.07,0.01,-0.02,29.25
41785199,3293,1,197840,241561,-0.19,-1.36,9.35,-0.08,-0.10,-0.01,29.25
41825216,2655,1,198007,242394,-0.44,-1.72,10.13,-0.08,-0.03,-0.02,29.25
41865213,2289,1,198181,242346,-0.41,-1.02,9.88,-0.05,-0.06,-0.02,29.25
41905216,2353,1,197983,241224,-0.29,-1.54,9.23,-0.06,-0.11,-0.01,29.25
41945213,2032,1,198013,240614,-0.71,-1.25,8.91,-0.06,-0.07,0.02,29.25
41985199,1919,1,198291,240927,-0.09,-1.36,8.89,-0.03,-0.02,0.31,29.25
42025909,1814,1,198779,242448,-0.91,-1.82,8.52,-0.06,-0.01,0.08,29.29
42066199,1730,1,198945,242694,-0.47,-1.29,9.90,-0.02,0.03,-0.04,29.29
42106200,1716,1,198767,241990,-0.29,-1.00,9.27,-0.03,0.03,-0.02,29.29
42146199,1728,1,198522,240530,0.39,-1.18,9.66,-0.02,-0.03,-0.02,29.29
42186199,1628,1,198271,239326,-0.36,-1.29,10.52,-0.00,0.03,0.11,29.29
42226179,1657,1,197482,238584,-0.02,-1.62,8.17,-0.00,-0.02,0.23,29.29
42266199,1773,1,197913,238592,0.10,-1.39,9.61,-0.01,0.00,-0.04,29.29
42306179,1779,1,197484,239755,0.21,-1.41,9.08,-0.02,-0.08,0.03,29.29
42346179,1859,1,197944,238251,0.21,-0.86,8.74,-0.02,-0.05,-0.06,29.29
42386199,1923,1,197558,239672,-0.38,-0.98,10.58,0.01,-0.00,-0.01,29.29
42426199,2000,1,197590,238872,0.01,-0.61,9.40,-0.01,-0.02,-0.22,29.29
42466199,2124,1,197440,238522,-0.44,-1.06,10.49,-0.00,-0.02,0.00,29.29
42506199,2174,1,197256,237212,0.22,-0.84,8.95,-0.04,-0.03,0.02,29.29
42546179,2269,1,197706,240509,-0.23,-1.06,9.68,-0.06,0.02,0.26,29.29
42586179,2173,1,198786,241455,-0.04,-1.53,8.98,-0.03,0.04,-0.05,29.29
42626199,2111,1,198886,242976,-0.06,-0.73,10.05,-0.04,0.05,-0.02,29.29
42666196,2175,1,198767,242882,-0.35,-1.74,11.84,0.01,0.05,-0.52,29.29
42706179,2078,1,198095,243007,-0.33,-1.06,11.66,-0.00,-0.07,-0.02,29.29
42746212,2060,1,197934,241966,-0.17,-1.21,10.96,-0.10,0.03,-0.06,29.29
42786199,2193,1,197209,241136,0.09,-1.04,10.98,-0.04,-0.07,-0.02,29.29
42826199,2469,1,197067,238635,-0.51,-1.65,11.60,-0.10,0.05,0.00,29.29
42866179,2415,1,196446,239646,-0.41,-1.16,10.72,-0.13,-0.08,0.22,29.29
42906199,2176,1,197417,237531,-1.17,-1.87,11.93,-0.13,0.03,-0.07,29.29
42946200,2210,1,194998,234851,0.32,0.22,7.90,-0.05,-0.20,0.19,29.29
42986170,2151,1,195967,234326,-0.65,-1.82,8.26,-0.17,0.05,0.01,29.29
43026871,2099,1,193539,234166,-0.38,-0.33,5.19,-0.11,-0.08,0.12,29.49
43065199,2059,1,196768,237716,-0.22,-2.23,11.82,-0.19,-0.00,-0.11,29.49
43105215,1690,1,195398,235818,1.58,-0.32,5.86,-0.09,-0.19,-0.16,29.49
43145199,1763,1,197293,239816,0.09,-1.11,10.52,-0.04,0.22,0.01,29.49
43185202,1578,1,196704,235649,1.15,-0.16,6.42,-0.10,-0.04,-0.11,29.49
43225191,1782,1,196611,237704,0.39,-1.45,12.61,0.02,0.09,-0.01,29.49
43265169,1626,1,197144,236193,-0.29,-1.30,8.56,-0.01,0.03,-0.01,29.49
43305199,1729,1,196643,237682,-0.39,-0.88,8.77,0.09,0.04,0.01,29.49
43345170,1756,1,197516,239569,0.21,-1.02,9.90,0.02,-0.02,-0.00,29.49
43385176,1818,1,197805,241301,-0.61,-2.06,9.91,0.06,0.04,-0.08,29.49
43425178,1869,1,198064,241676,-0.56,-1.18,9.72,0.02,-0.06,-0.16,29.49
43465199,1872,1,197889,241973,-0.35,-1.07,11.62,0.03,-0.02,-0.15,29.49
43505200,1735,1,197646,241109,-1.01,-0.88,11.80,0.01,-0.04,-0.10,29.49
43545199,1751,1,197138,239283,0.01,-1.17,11.56,-0.01,-0.10,-0.03,29.49
43585199,1752,1,197284,239429,-0.89,-1.22,11.76,-0.03,0.04,-0.01,29.49
43624199,1818,1,196693,237664,0.82,-0.54,8.96,-0.06,-0.13,-0.01,29.49
43664199,1709,1,197711,239766,-0.55,-1.12,12.62,-0.05,0.08,0.01,29.49
43704179,1728,1,197343,237976,0.92,-0.50,9.55,-0.07,-0.14,-0.02,29.49
43744199,1648,1,198054,240086,-0.43,-1.45,11.09,-0.05,-0.02,0.04,29.49
43784199,1667,1,198113,239025,0.52,-1.04,9.33,-0.02,-0.09,-0.01,29.49
43824199,1744,1,198147,239303,-0.07,-1.22,9.52,-0.05,-0.11,0.12,29.49
43864199,1823,1,198140,238723,0.09,-0.93,8.75,-0.05,-0.12,0.07,29.49
43904178,1891,1,198393,239391,-0.30,-1.50,9.98,-0.00,-0.06,0.05,29.49
43944196,1889,1,198725,239976,0.29,-0.87,9.11,-0.01,-0.07,0.05,29.49
43984179,1898,1,199213,241235,-0.41,-1.85,10.08,-0.04,-0.04,0.12,29.49
44024209,1843,1,199677,242398,0.16,-1.23,9.12,-0.01,-0.05,0.09,29.49
44064865,1823,1,200030,242007,0.63,-0.70,8.83,-0.05,-0.08,-0.01,29.19
44105196,1808,1,200149,242942,-0.06,-1.22,11.25,-0.05,0.03,0.25,29.19
44145179,1816,1,199675,240128,0.68,-0.71,8.66,0.00,-0.03,-0.05,29.19
44185176,1787,1,199478,242433,0.35,-0.89,11.93,0.01,0.03,0.04,29.19
44225148,1712,1,199481,242163,0.23,-1.69,9.69,-0.06,-0.02,-0.02,29.19
44265199,1718,1,199122,242142,-0.37,-1.29,11.48,-0.01,0.02,-0.01,29.19
44305200,1690,1,198475,240346,0.36,-0.92,9.81,-0.03,-0.05,-0.03,29.19
44345199,1765,1,198462,241289,-0.72,-1.62,11.82,-0.01,0.06,0.06,29.19
44385178,1878,1,197768,238318,0.40,-1.13,8.82,-0.06,-0.11,-0.01,29.19
44425199,1934,1,197529,239233,-0.61,-2.20,10.49,-0.07,0.05,0.28,29.19
44465179,2046,1,198136,238765,0.21,-1.18,8.68,-0.02,0.04,0.00,29.19
44505170,2133,1,198222,241536,-0.48,-1.68,9.80,-0.04,0.04,0.10,29.19
44545179,2149,1,199239,243067,-0.14,-1.46,9.08,-0.04,0.10,-0.08,29.19
44585199,2269,1,199197,242905,0.17,-1.19,10.10,-0.03,0.05,-0.16,29.19
44624231,2256,1,199201,242593,0.37,-1.20,10.06,-0.07,0.07,-0.01,29.19
44664179,2222,1,198923,241501,0.27,-1.23,8.41,-0.05,0.01,-0.00,29.19
44704179,2182,1,198653,240158,0.22,-0.71,8.69,-0.08,0.03,0.20,29.19
44744168,2138,1,198580,239170,0.51,-0.74,9.27,-0.03,0.03,0.05,29.19
44784170,2111,1,199007,242031,-0.34,-1.22,10.44,-0.01,0.09,0.04,29.19
44824181,2029,1,199429,242837,-0.57,-1.30,9.37,-0.03,0.02,-0.01,29.19
44864200,1965,1,199546,244111,-0.47,-1.38,10.84,0.01,0.12,-0.07,29.19
44904179,1938,1,199580,243881,0.43,-0.45,8.98,-0.03,-0.01,-0.35,29.19
44944199,1907,1,199649,244577,-1.53,-1.88,11.82,-0.06,0.14,0.01,29.19
44984179,1967,1,199492,244116,0.21,-0.59,10.06,-0.02,-0.01,-0.18,29.19
45024209,2083,1,199448,244474,-0.57,-1.13,13.06,-0.05,0.07,-0.16,29.19
45064886,2064,1,199125,243953,0.00,-1.58,9.86,-0.05,-0.02,-0.01,29.17
45105199,2128,1,199717,246108,-0.81,-1.66,11.26,-0.08,0.13,-0.01,29.17
45145199,2176,1,200331,247086,0.57,-0.33,10.12,-0.05,-0.08,-0.18,29.17
45185199,2168,1,201037,248253,-0.17,-1.14,9.42,-0.10,-0.02,-0.06,29.17
45225212,2169,1,201560,248433,-0.10,-1.00,9.08,-0.07,-0.06,-0.10,29.17
45265213,2108,1,201826,248480,-0.57,-1.84,10.08,-0.01,0.02,-0.05,29.17
45305199,2146,1,201640,247640,-0.13,-1.38,9.26,-0.02,-0.05,-0.07,29.17
45343216,2212,1,201636,247251,-0.63,-2.04,10.94,0.01,-0.06,-0.13,29.17
45383199,2153,1,201127,244951,-0.70,-1.09,8.56,0.01,-0.09,-0.12,29.17
45423199,2076,1,200346,243639,-0.43,-1.46,11.18,0.02,-0.00,-0.04,29.17
45463199,2102,1,200115,243471,-0.90,-1.65,10.52,-0.00,-0.05,-0.03,29.17
45503216,1987,1,200158,244337,-0.48,-1.35,10.68,0.01,-0.03,0.00,29.17
45543179,1989,1,200170,244259,-0.24,-1.28,9.22,-0.03,-0.05,-0.01,29.17
45583216,1949,1,200224,244783,-0.10,-1.61,10.39,-0.05,-0.07,0.01,29.17
45623199,1965,1,200184,244648,0.21,-1.26,9.99,-0.03,-0.05,-0.01,29.17
45663199,2000,1,200788,246482,-0.20,-0.92,10.88,-0.03,-0.05,-0.01,29.17
45703212,2032,1,200609,244923,0.66,-0.66,9.25,-0.03,-0.12,-0.03,29.17
45743199,1968,1,200942,246178,-0.41,-1.66,9.62,-0.02,-0.02,0.03,29.17
45783199,1995,1,200696,244783,0.59,-1.07,8.13,-0.03,-0.16,0.03,29.17
45823178,1907,1,200835,245419,-0.62,-2.11,10.18,-0.01,-0.03,0.26,29.17
45863199,1983,1,200586,243799,0.02,-0.96,8.01,0.04,-0.14,0.00,29.17
45903170,2015,1,200475,244387,-0.95,-1.73,9.88,0.04,-0.01,0.00,29.17
45943179,2030,1,200453,244012,0.28,-1.15,9.11,0.04,-0.11,-0.02,29.17
45983178,2053,1,200332,244288,-0.60,-1.52,10.45,0.04,-0.00,-0.00,29.17
46023199,2000,1,200221,244297,0.11,-1.00,10.55,0.03,-0.05,-0.00,29.17
46063210,1965,1,199883,244259,-0.02,-0.66,11.81,-0.00,-0.00,-0.02,29.17
46103898,1795,1,199741,243933,0.29,-0.67,11.17,-0.03,-0.03,-0.01,29.23
46144199,1758,1,199607,243922,0.52,-0.82,11.66,-0.05,-0.02,-0.01,29.23
46184199,1755,1,199686,244126,0.44,-0.62,11.18,-0.06,-0.04,-0.01,29.23
46224199,1744,1,199754,243843,0.59,-0.81,9.68,-0.10,-0.08,-0.00,29.23
46264213,1673,1,200075,244368,0.03,-1.00,10.20,-0.10,-0.00,0.05,29.23
46304179,1744,1,200441,244218,0.59,-0.82,9.96,-0.12,-0.07,0.23,29.23
46344179,1770,1,200771,244712,0.25,-1.19,9.62,-0.11,-0.02,0.32,29.23
46384179,1795,1,201054,244681,-0.17,-1.87,8.95,-0.06,0.01,0.06,29.23
46424179,1789,1,200794,243533,0.44,-1.20,8.72,-0.07,-0.02,0.04,29.23
46464202,1756,1,200582,242630,-0.02,-1.73,8.79,-0.07,0.03,-0.00,29.23
46504199,1827,1,200167,241471,0.42,-0.65,7.58,-0.06,-0.02,0.02,29.23
46544179,1826,1,199859,240568,-0.01,-1.47,8.55,-0.06,0.10,0.01,29.23
46584179,1808,1,199441,240692,0.38,-1.23,7.69,-0.02,0.07,0.04,29.23
46624169,1911,1,199729,241589,0.47,-1.42,7.91,-0.04,0.03,-0.02,29.23
46664208,1977,1,200184,243681,0.36,-1.24,7.81,0.01,0.09,0.02,29.23
46704147,2061,1,200833,244278,0.53,-0.83,8.42,0.02,0.06,-0.09,29.23
46744166,2063,1,200834,245003,0.01,-0.86,9.36,0.02,0.06,0.01,29.23
46784148,2084,1,200926,244881,0.14,-0.95,8.29,0.04,0.06,-0.04,29.23
46824168,2110,1,200965,245433,-0.54,-1.34,10.38,0.02,0.05,0.01,29.23
46864169,2122,1,201056,245553,-0.20,-1.35,9.80,0.01,0.01,0.01,29.23
46904168,2110,1,200830,245787,-1.12,-1.19,10.59,0.01,0.09,0.01,29.23
46944169,2094,1,200587,245606,-0.16,-0.67,11.36,0.03,0.03,-0.17,29.23
46984179,2024,1,200124,245274,-1.09,-1.79,12.90,-0.02,0.07,-0.03,29.23
47024209,2019,1,199678,244885,-0.73,-1.34,11.72,-0.01,0.03,-0.13,29.23
47064199,2097,1,199407,244684,-1.07,-1.61,13.33,-0.04,0.03,-0.12,29.23
47104886,2155,1,199290,244203,-0.42,-1.11,11.61,-0.09,-0.02,-0.03,29.23
47143213,2129,1,199469,244118,-0.36,-1.07,12.42,-0.12,-0.01,-0.01,29.23
47183216,2187,1,199778,244544,-0.00,-1.01,11.48,-0.10,-0.05,-0.01,29.23
47223213,2163,1,200095,245322,-0.11,-0.68,11.29,-0.10,-0.05,-0.01,29.23
47263216,2149,1,200245,245787,-0.34,-1.38,11.66,-0.06,-0.01,-0.00,29.23
47303213,2172,1,200280,245413,0.09,-1.22,9.22,-0.12,-0.17,-0.01,29.23
47343200,2108,1,200438,245147,-0.19,-1.36,9.61,-0.12,-0.07,-0.01,29.23
47383213,2081,1,200616,245200,-0.11,-1.22,8.58,-0.10,-0.13,0.01,29.23
47423200,2063,1,201012,245569,-0.55,-1.35,8.71,-0.07,-0.05,0.01,29.23
47463199,1993,1,201333,246335,-0.69,-2.23,8.63,-0.05,-0.06,0.13,29.23
47503200,1987,1,201481,246448,0.30,-1.43,6.94,-0.03,-0.08,-0.01,29.23
47543199,1995,1,201251,246381,-0.56,-1.47,9.55,-0.02,0.02,0.00,29.23
47583178,1970,1,200723,245418,-0.29,-2.09,9.06,0.02,-0.04,-0.13,29.23
47623199,2015,1,200154,244163,0.16,-0.19,8.38,0.05,-0.06,-0.38,29.23
47663179,1915,1,199753,243204,-0.13,-1.71,9.90,0.03,0.01,-0.01,29.23
47703179,1900,1,199592,241975,0.46,-0.51,6.63,0.02,-0.11,0.08,29.23
47743170,1913,1,199977,243361,-0.49,-2.27,10.00,-0.00,0.02,0.14,29.23
47783179,1936,1,200134,243039,0.53,-0.27,5.91,0.08,-0.10,-0.00,29.23
47823179,1829,1,200181,244017,0.22,-0.84,11.54,-0.01,0.04,0.00,29.23
47863170,1891,1,200275,243759,-0.15,-1.18,8.77,0.07,-0.03,0.00,29.23
47903182,2007,1,200154,243987,0.01,-0.70,10.42,0.06,-0.01,0.01,29.23
47943168,2003,1,200181,243996,-0.46,-1.21,10.08,0.04,-0.01,0.01,29.23
47983179,2030,1,200085,243671,-0.26,-0.52,11.51,0.02,-0.04,-0.00,29.23
48023200,2026,1,199996,242976,-0.33,-1.15,11.40,-0.02,-0.01,0.05,29.23
48063199,2025,1,199992,243117,0.09,-1.01,12.33,-0.06,-0.02,0.39,29.23
48103192,2031,1,200266,242212,0.27,-1.02,11.89,-0.04,0.01,0.05,29.23
48143856,2001,1,199367,241191,0.23,-0.71,11.48,-0.08,-0.01,0.20,29.11
48182179,1941,1,199728,240796,0.31,-1.11,11.77,-0.12,0.03,0.00,29.11
48222169,1978,1,198966,239786,0.56,-0.24,9.72,-0.13,-0.06,0.09,29.11
48262179,1883,1,199593,241932,0.50,-1.08,12.08,-0.18,0.05,-0.00,29.11
48302201,1943,1,199319,239907,0.84,-0.54,8.89,-0.12,-0.08,-0.06,29.11
48342199,1925,1,199105,240885,0.05,-1.35,9.52,-0.15,0.03,0.03,29.11
48382169,1861,1,199260,240604,0.23,-1.36,8.24,-0.12,0.01,-0.14,29.11
48422178,1966,1,199563,243081,0.40,-1.38,10.16,-0.04,0.02,-0.06,29.11
48462179,2010,1,199937,243543,-0.11,-1.39,8.37,-0.05,-0.01,-0.19,29.11
48502213,2000,1,199805,243702,0.00,-1.41,9.32,-0.03,0.02,-0.03,29.11
48542179,1922,1,199582,243126,-0.53,-1.82,7.78,0.00,0.05,-0.13,29.11
48582179,1967,1,199383,242963,0.46,-1.88,9.09,-0.03,-0.01,-0.05,29.11
48622199,2000,1,199665,242508,-0.68,-1.29,8.66,-0.01,0.05,-0.04,29.11
48662199,1903,1,199237,242348,0.47,-0.69,8.62,0.02,-0.00,0.00,29.11
48702170,1904,1,199403,241738,0.13,-1.23,9.87,0.02,0.10,-0.13,29.11
48742170,1969,1,199026,242021,-0.25,-1.42,9.34,0.02,0.01,-0.00,29.11
48782179,1995,1,199273,242880,0.56,-1.13,9.20,0.01,0.03,-0.04,29.11
48822168,2064,1,198831,243149,-0.31,-1.32,10.58,0.04,0.01,-0.36,29.11
48862179,2081,1,198584,243239,0.24,-0.60,9.68,0.02,-0.01,-0.06,29.11
48902177,2119,1,198526,242926,-0.02,-1.08,10.82,-0.03,0.02,-0.04,29.11
48942199,2117,1,198519,243188,-0.21,-1.37,11.21,0.01,-0.03,0.01,29.11
48982179,2119,1,198621,242573,-0.53,-1.07,10.22,-0.04,-0.03,0.01,29.11
49022210,2020,1,198713,243101,-0.19,-0.96,11.16,-0.02,-0.06,0.05,29.11
49062199,2019,1,198865,242699,-0.63,-0.96,9.67,-0.08,0.02,0.03,29.11
49102179,1991,1,199109,243228,0.05,-1.12,11.57,-0.03,-0.02,0.19,29.11
49142178,1975,1,199273,243127,-0.22,-1.30,10.09,-0.07,0.01,0.01,29.11
49182866,1966,1,199272,244186,-0.37,-1.09,10.20,-0.04,-0.00,0.12,29.11
49221199,1994,1,199557,243751,0.45,-0.92,9.83,-0.08,0.01,-0.00,29.11
49261179,1981,1,199333,243505,0.34,-0.73,9.73,-0.11,-0.06,0.30,29.11
49301179,1935,1,199326,241798,0.40,-0.59,7.05,-0.14,-0.04,0.06,29.11
49341179,1918,1,199083,241397,-0.72,-2.04,11.49,-0.08,0.10,0.16,29.11
49381179,1922,1,198576,240690,1.00,-0.76,7.09,-0.05,-0.08,-0.03,29.11
49421200,1980,1,199357,243088,0.01,-1.35,11.65,-0.08,0.11,-0.06,29.11
49461175,1962,1,199117,243233,0.50,-0.77,7.21,-0.02,-0.05,-0.20,29.11
49501199,1969,1,199262,244462,-0.96,-2.24,12.03,-0.02,0.08,-0.24,29.11
49541203,1993,1,198992,243404,0.54,-0.59,9.41,-0.01,-0.12,-0.24,29.11
49581200,1975,1,198769,243734,-1.19,-1.65,10.13,0.01,0.01,0.00,29.11
49621169,1968,1,198618,242499,-0.12,-1.05,8.55,-0.01,-0.08,-0.02,29.11
49661216,1895,1,198634,244046,-1.22,-1.95,10.72,0.01,0.06,0.01,29.11
49701169,1935,1,198766,243669,0.11,-0.65,8.16,-0.02,-0.05,-0.09,29.11
49741234,1935,1,198698,244068,-0.28,-1.89,13.32,0.09,0.07,-0.14,29.11
49781179,1936,1,198573,243165,-0.90,-0.88,7.60,-0.07,-0.03,-0.07,29.11
49821214,1847,1,198617,243807,-0.44,-1.61,12.79,-0.01,0.07,-0.01,29.11
49861199,1873,1,198768,242953,-0.35,-1.45,9.46,-0.10,0.00,-0.03,29.11
49901199,1819,1,198960,243049,-0.24,-0.96,10.70,-0.02,-0.02,0.00,29.11
49941216,1873,1,198941,241386,0.09,-1.06,10.36,-0.09,0.04,-0.01,29.11
49981179,1891,1,199005,242127,-0.52,-1.76,11.37,-0.01,0.00,0.03,29.11
50021179,1950,1,199294,241416,-0.03,-1.54,9.55,-0.08,-0.05,0.01,29.11
50061199,1936,1,199519,242725,-0.89,-2.00,10.01,-0.03,0.02,0.23,29.11
50101179,1954,1,199905,242452,-0.19,-1.04,8.48,-0.09,-0.09,0.09,29.11
50141199,1974,1,200288,243800,-0.41,-1.47,10.39,-0.03,0.01,0.16,29.11
50181179,1994,1,200621,244035,-0.55,-1.53,8.95,-0.06,-0.00,0.01,29.11
50221886,1949,1,200651,244364,0.11,-1.25,10.25,-0.01,0.06,-0.00,29.15
50262179,1938,1,200705,244563,-0.05,-1.41,8.44,-0.06,0.01,-0.01,29.15
50302200,1942,1,200803,244561,-0.11,-1.13,9.13,-0.07,-0.00,-0.02,29.15
50342213,1943,1,200628,244624,0.52,-0.99,10.20,-0.04,0.03,-0.02,29.15
50382179,1948,1,200374,244539,-0.21,-1.14,9.43,-0.04,0.01,-0.02,29.15
50422199,1968,1,200184,244404,0.50,-0.61,9.90,-0.02,-0.10,-0.05,29.15
50462199,1982,1,200171,245131,-0.38,-1.62,9.93,0.00,0.03,-0.00,29.15
50502179,1993,1,200441,245048,-0.10,-1.24,8.71,-0.01,-0.07,-0.01,29.15
50542216,2007,1,200231,244784,-1.12,-2.01,10.66,-0.02,-0.02,0.00,29.15
50582199,1970,1,200204,244864,0.15,-0.69,9.02,0.02,-0.10,-0.01,29.15
50622179,2031,1,200221,244899,-1.25,-1.60,10.49,-0.03,-0.00,0.00,29.15
50662199,1981,1,200236,244870,-0.41,-1.58,8.88,0.01,-0.08,-0.00,29.15
50702199,2017,1,200264,245440,-1.04,-1.96,11.13,-0.00,0.06,-0.01,29.15
50742199,1963,1,200290,245380,-0.28,-1.03,8.65,0.01,-0.10,-0.01,29.15
50782199,1963,1,200278,245588,-0.10,-0.93,11.73,0.01,0.04,-0.01,29.15
50822179,1962,1,200193,245159,-0.56,-1.43,10.31,-0.04,-0.05,-0.02,29.15
50862216,1946,1,200177,244763,0.14,-0.88,10.25,-0.04,-0.07,-0.01,29.15
50902199,1929,1,200197,244617,0.03,-1.56,10.89,-0.03,-0.03,-0.01,29.15
50942199,1872,1,200178,244392,0.28,-0.91,8.70,-0.05,-0.11,0.00,29.15
50982179,1819,1,200295,244585,-0.02,-1.32,9.63,-0.06,-0.04,0.02,29.15
51022210,1817,1,200493,245374,-0.26,-1.22,9.55,-0.04,-0.05,0.01,29.15
51062199,1798,1,200471,245359,-0.31,-0.95,9.99,-0.03,-0.07,0.00,29.15
51102199,1793,1,200384,244632,-0.27,-1.54,10.14,0.01,-0.02,0.01,29.15
51142179,1812,1,200004,243038,-0.53,-1.01,9.05,-0.02,-0.07,0.01,29.15
51180199,1903,1,199666,242261,0.24,-0.51,8.89,-0.04,-0.05,0.24,29.15
51220179,1904,1,200069,244110,-0.70,-2.14,10.88,-0.04,0.02,0.18,29.15
51260866,1897,1,200017,243551,0.11,-1.08,8.19,0.00,-0.06,-0.08,29.11
51301176,1904,1,200002,244857,-0.69,-1.46,11.10,-0.02,0.09,-0.01,29.11
51341199,1942,1,200105,244807,-0.18,-1.27,10.09,0.01,0.01,-0.10,29.11
51381203,1965,1,200029,244619,-0.10,-0.92,11.78,-0.00,-0.01,-0.01,29.11
51421213,1961,1,200024,244260,0.68,-1.20,9.94,-0.03,-0.07,0.00,29.11
51461177,1941,1,200034,243983,0.36,-0.79,10.77,-0.02,0.00,0.00,29.11
51501170,1949,1,200004,243356,0.68,-0.26,9.11,-0.02,-0.04,0.27,29.11
51541179,1932,1,200355,243881,0.31,-1.36,9.88,-0.09,-0.01,0.47,29.11
51581205,1921,1,200671,244178,0.56,-1.03,10.19,-0.03,-0.07,0.11,29.11
51621179,1978,1,200608,244153,0.24,-0.75,9.42,-0.01,-0.04,0.13,29.11
51661179,1955,1,200688,244252,0.75,-0.72,10.53,-0.06,-0.05,0.24,29.11
51701179,1962,1,200665,243556,-0.36,-1.67,10.41,-0.04,-0.04,0.13,29.11
51741200,1895,1,199837,241988,0.72,-0.89,10.70,-0.00,-0.01,0.19,29.11
51781179,1871,1,199263,239562,0.23,-1.51,8.93,-0.05,-0.00,0.11,29.11
51821179,1904,1,198825,240881,0.77,-0.92,11.68,0.00,0.02,0.32,29.11
51861148,1853,1,199105,239649,0.49,-0.79,8.11,-0.02,-0.03,0.09,29.11
51901179,1872,1,198725,241210,0.62,-0.49,11.43,-0.01,0.04,0.27,29.11
51941169,1904,1,199298,240663,0.30,-1.38,8.49,-0.06,0.04,0.02,29.11
51981169,1979,1,198592,240954,1.16,-0.82,10.89,0.03,-0.01,0.20,29.11
52021170,1937,1,198897,240498,0.74,-1.17,9.16,-0.03,0.07,-0.01,29.11
52061179,2069,1,198341,241208,0.94,-1.07,9.77,0.01,-0.05,0.17,29.11
52101170,2025,1,199011,240935,0.87,-1.10,9.58,-0.05,-0.01,-0.05,29.11
52141200,2032,1,198305,240383,0.81,-0.63,9.24,0.02,-0.02,0.16,29.11
52181170,1977,1,198309,239973,0.48,-1.12,9.51,-0.06,0.02,0.11,29.11
52221169,1968,1,198736,240865,-1.03,-1.63,9.74,-0.01,0.08,0.09,29.11
52261866,1999,1,198485,241358,1.05,-0.72,9.15,0.02,-0.08,0.05,29.37
52300170,2064,1,199308,243375,-0.40,-1.71,8.40,-0.07,0.08,0.02,29.37
52340177,2027,1,199439,244042,1.53,-0.03,9.84,0.01,-0.12,-0.22,29.37
52380179,2080,1,199698,243213,-0.03,-1.26,10.86,-0.02,0.07,-0.07,29.37
52420199,2071,1,198927,243826,1.09,-0.14,10.43,0.01,-0.01,0.00,29.37
52460170,2032,1,199589,243612,-0.68,-2.52,10.63,-0.02,0.10,-0.22,29.37
52500200,2011,1,198652,244879,2.16,0.62,10.69,0.02,-0.15,-0.11,29.37
52540169,1984,1,200265,245655,-0.02,-2.31,11.78,-0.06,0.09,-0.51,29.37
52580199,2038,1,199601,247549,1.19,0.39,10.16,0.01,-0.09,0.03,29.37
52621148,2047,1,201454,248348,0.06,-1.77,13.84,-0.05,0.02,-0.75,29.37
52661179,1941,1,199963,247669,1.07,0.16,9.17,-0.02,-0.14,-0.03,29.37
52701179,1777,1,200784,244695,0.27,-1.43,11.01,-0.14,0.08,-0.25,29.37
52741179,1872,1,197827,241381,0.19,-0.22,8.21,-0.11,-0.13,0.55,29.37
52781179,1565,1,197962,240209,1.17,-0.79,9.33,-0.13,-0.02,-0.02,29.37
52821199,1826,1,196913,240006,0.69,-0.79,8.14,-0.02,-0.04,0.35,29.37
52861179,1451,1,197948,241297,0.87,-1.24,8.81,-0.06,0.04,-0.02,29.37
52901179,1959,1,198402,243925,0.23,-1.11,8.88,-0.02,0.02,-0.00,29.37
52939179,2118,1,199407,245436,0.15,-1.73,10.04,0.01,0.04,-0.32,29.37
52979169,2231,1,199513,245087,0.43,-1.71,10.77,0.05,0.00,-0.58,29.37
53019169,2156,1,198668,242860,0.58,-0.80,8.80,0.01,-0.02,-0.09,29.37
53059176,2111,1,197924,240255,1.10,-0.93,9.68,-0.01,-0.02,0.02,29.37
53099179,2175,1,197267,239963,-0.35,-1.81,9.08,-0.00,-0.01,0.27,29.37
53139199,2085,1,197895,240880,0.53,-1.44,9.45,0.00,-0.01,0.05,29.37
53179170,2237,1,197859,241723,0.67,-0.77,9.45,0.02,-0.10,0.04,29.37
53219169,2177,1,198554,243693,-0.52,-1.32,10.64,-0.02,0.02,0.03,29.37
53259179,2266,1,198311,242067,0.50,-0.58,8.87,0.02,-0.12,0.03,29.37
53299855,2186,1,198519,244116,-0.85,-2.02,11.01,0.01,0.08,0.06,29.31
53340170,2174,1,198475,242043,0.74,-0.26,8.35,0.02,-0.07,-0.02,29.31
53380179,2121,1,198645,244827,-1.16,-1.60,13.40,0.02,0.09,0.08,29.31
53420169,2149,1,198722,242685,0.81,-0.22,8.51,0.00,-0.01,-0.07,29.31
53460179,2097,1,198381,243645,-0.20,-1.36,13.49,-0.02,-0.06,0.04,29.31
53500199,2032,1,198154,242173,0.72,-0.79,7.49,-0.05,-0.06,0.06,29.31
53540179,1990,1,198071,242457,0.30,-0.82,10.86,-0.03,-0.01,0.06,29.31
53580179,2006,1,197805,239836,0.33,-0.74,8.13,-0.03,0.01,0.03,29.31
53620168,1920,1,197646,243168,0.56,-1.09,10.56,-0.04,-0.02,0.15,29.31
53659179,2003,1,198733,243187,0.15,-1.89,10.88,-0.06,0.00,-0.27,29.31
53699179,2000,1,198396,244781,-0.43,-1.18,8.73,0.02,-0.11,0.04,29.31
53739179,1969,1,199086,243496,1.18,-0.77,9.87,-0.09,-0.01,-0.25,29.31
53779199,1952,1,198116,243311,-0.79,-1.30,8.17,-0.09,-0.12,0.08,29.31
53819199,1882,1,198520,242971,0.81,-0.62,8.72,-0.05,-0.05,0.02,29.31
53859176,1872,1,198386,243740,0.46,-0.62,11.04,-0.09,-0.04,-0.05,29.31
53899200,1806,1,198407,243411,0.19,-0.88,7.58,-0.12,-0.01,-0.01,29.31
53939219,1744,1,198612,244153,0.68,-0.70,11.59,-0.05,0.03,-0.14,29.31
53979179,1894,1,198738,243742,0.12,-0.76,10.56,-0.03,-0.02,-0.23,29.31
54019199,1535,1,198646,243713,0.54,-0.78,12.20,-0.07,-0.13,-0.11,29.31
54059200,1776,1,198797,243447,0.35,-1.09,11.67,-0.11,0.06,-0.10,29.31
54099179,1680,1,198553,242900,0.13,-0.79,9.89,-0.04,-0.16,-0.02,29.31
54139199,1520,1,198991,242613,0.07,-1.79,13.00,-0.07,-0.01,-0.00,29.31
54179196,1695,1,198398,241814,-0.39,-1.44,9.28,-0.10,-0.09,0.00,29.31
54219199,1387,1,198462,241054,-0.01,-0.49,9.22,-0.05,-0.05,0.01,29.31
54259196,1569,1,197846,241250,0.35,-0.35,7.18,-0.12,-0.06,0.28,29.31
54299866,1591,1,198787,241912,-0.75,-1.87,9.21,-0.09,0.08,0.08,29.11
54340179,1757,1,198191,241843,0.32,-0.26,5.52,-0.01,-0.13,0.17,29.11
54380179,1581,1,199099,243488,-0.63,-1.66,10.39,-0.04,0.13,0.03,29.11
54420179,1947,1,198911,242626,0.84,-0.67,6.92,0.03,-0.15,0.01,29.11
54460169,1776,1,199082,243212,-0.02,-1.79,9.90,0.03,0.05,0.03,29.11
54500168,1951,1,199277,243287,0.87,-0.40,7.96,0.04,-0.06,0.26,29.11
54540169,1894,1,199289,243224,-0.31,-1.97,8.39,0.00,0.04,0.05,29.11
54580170,1891,1,199196,242999,0.40,-0.61,7.27,0.06,-0.06,0.31,29.11
54620169,2015,1,199469,243730,0.10,-1.42,9.93,0.02,0.01,0.15,29.11
54659185,2158,1,199706,244393,-0.12,-0.91,7.84,0.07,-0.01,0.05,29.11
54699179,2253,1,199944,245214,-0.60,-1.41,10.11,0.03,0.02,0.01,29.11
54739170,2244,1,199717,245231,-0.51,-1.10,11.65,0.07,0.03,-0.10,29.11
54779179,2207,1,199114,244053,0.50,-0.25,11.51,0.04,-0.01,-0.16,29.11
54819179,2161,1,198677,243607,-0.66,-1.12,12.77,-0.00,0.05,0.01,29.11
54859203,2117,1,198451,242876,0.16,-0.85,12.91,-0.06,-0.06,0.01,29.11
54899179,2087,1,198391,242985,0.02,-0.60,12.26,-0.08,0.03,0.01,29.11
54939169,2028,1,198406,242352,0.45,-0.44,11.91,-0.09,-0.04,0.01,29.11
54979179,1899,1,198340,242232,0.61,-0.79,10.80,-0.11,-0.05,0.05,29.11
55019179,1849,1,198694,242603,0.62,-0.42,10.25,-0.14,-0.06,0.11,29.11
55059179,1766,1,198561,242018,0.78,-0.64,7.99,-0.14,-0.08,0.10,29.11
55099179,1473,1,198680,242512,0.37,-0.95,8.44,-0.13,-0.03,0.12,29.11
55139179,1614,1,198955,243478,0.66,-1.18,8.05,-0.08,-0.09,0.01,29.11
55179179,1901,1,199626,245025,-0.35,-0.74,8.86,-0.06,0.03,0.01,29.11
55219179,2030,1,199672,245312,0.48,-1.58,9.11,-0.01,-0.03,-0.22,29.11
55259199,2033,1,199575,245221,-0.47,-1.76,9.46,0.01,0.02,-0.22,29.11
55299866,2116,1,199199,243843,0.81,-0.87,7.97,-0.01,-0.06,-0.01,29.31
55338199,2143,1,199020,242867,-0.06,-1.10,8.19,-0.01,0.06,0.01,29.31
55378176,2118,1,198634,241502,0.48,-0.85,9.38,0.01,-0.02,0.03,29.31
55418169,2176,1,198467,242095,0.47,-1.26,9.45,0.01,-0.02,0.01,29.31
55458170,2217,1,198753,243489,0.51,-0.96,8.89,0.02,-0.03,0.02,29.31
55498169,2270,1,198961,243565,0.39,-1.20,9.83,0.04,-0.00,0.01,29.31
55538168,2198,1,198790,243555,0.24,-1.28,10.08,0.01,-0.06,0.02,29.31
55578183,2219,1,198748,243312,-0.05,-0.98,10.08,0.02,0.00,0.01,29.31
55618168,2192,1,198686,243152,-0.42,-0.94,11.23,0.05,-0.03,0.02,29.31
55658179,2224,1,198699,243259,0.11,-1.14,11.71,-0.00,-0.06,0.01,29.31
55698179,2178,1,198859,243897,-1.03,-1.43,12.99,0.01,0.04,0.03,29.31
55738169,2127,1,198840,243217,0.44,-0.72,9.82,-0.02,-0.13,0.03,29.31
55778179,2032,1,198960,243941,-0.70,-1.16,13.65,-0.03,0.08,0.03,29.31
55818179,2020,1,198985,243290,0.74,-0.64,9.91,-0.05,-0.14,0.02,29.31
55858179,1925,1,199182,243557,0.36,-0.63,11.54,-0.06,-0.03,0.02,29.31
55898183,1841,1,199083,243726,0.82,-0.44,8.98,-0.10,-0.06,0.19,29.31
55938179,1745,1,199356,243442,-0.55,-1.31,10.46,-0.09,0.04,0.02,29.31
55978179,1835,1,198461,241790,1.54,-0.26,7.66,-0.05,-0.19,-0.00,29.31
56018199,1677,1,199012,243500,-0.16,-1.41,10.52,-0.10,0.11,0.01,29.31
56058179,1877,1,199004,243046,0.95,-0.40,8.19,-0.03,-0.11,-0.00,29.31
56098229,1609,1,199161,244023,-0.34,-1.35,9.99,-0.03,0.02,0.02,29.31
56138179,1871,1,199074,243281,0.68,-0.38,7.37,-0.04,-0.09,0.02,29.31
56178176,1766,1,199217,244044,-0.41,-1.36,9.28,-0.05,0.00,0.07,29.31
56218179,1932,1,199215,243634,0.62,-0.67,8.13,-0.04,-0.08,0.19,29.31
56258179,1999,1,199401,244126,0.03,-0.89,10.10,-0.02,0.03,0.03,29.31
56298170,1997,1,199370,244046,0.40,-0.73,8.94,0.00,-0.02,0.01,29.31
56338854,1796,1,199430,244344,0.48,-0.99,10.51,-0.01,0.05,0.01,29.35
56379169,2020,1,199536,244813,0.10,-0.60,10.33,0.02,0.04,0.02,29.35
56419148,2064,1,199354,244358,0.77,-0.09,9.11,-0.01,-0.02,0.16,29.35
56459179,1995,1,199571,245346,0.08,-0.69,12.09,-0.03,0.09,0.04,29.35
56497199,2163,1,199251,244518,0.82,-0.65,8.79,-0.04,-0.16,0.02,29.35
56537179,2169,1,199541,245061,-0.36,-1.18,12.54,-0.04,0.14,0.02,29.35
56577179,2224,1,198900,243740,0.81,-0.30,9.46,-0.02,-0.07,-0.02,29.35
56617199,2155,1,199114,244494,-0.76,-1.32,11.87,-0.04,0.02,0.02,29.35
56657179,2171,1,199020,243757,0.37,-0.05,7.81,-0.07,-0.06,-0.05,29.35
56697199,2101,1,199266,244735,-0.81,-1.14,11.65,-0.05,0.02,0.02,29.35
56737179,2129,1,198748,242164,0.47,-0.01,8.47,-0.05,-0.10,-0.00,29.35
56777199,1898,1,198274,242364,-0.66,-1.75,10.16,-0.07,0.03,0.22,29.35
56817179,1959,1,198289,241781,0.14,-0.76,8.15,-0.06,-0.01,0.01,29.35
56857179,1959,1,198224,242510,0.24,-0.92,9.67,-0.04,-0.05,0.05,29.35
56897179,2071,1,198671,243376,0.37,-0.62,8.53,-0.06,0.06,0.01,29.35
56937170,2208,1,198811,244059,0.19,-1.01,10.47,-0.06,-0.04,-0.05,29.35
56977199,2237,1,198741,242932,0.26,-0.58,9.31,-0.02,0.00,-0.17,29.35
57017179,2196,1,198201,242410,0.93,-0.86,9.56,-0.05,-0.03,-0.00,29.35
57057196,2193,1,198378,242169,0.26,-0.99,8.64,-0.04,0.03,0.01,29.35
57097170,2134,1,198336,242396,0.34,-0.70,9.43,-0.03,-0.03,0.14,29.35
57137179,2135,1,198702,242876,0.50,-0.88,9.77,-0.02,0.02,0.02,29.35
57177170,2190,1,198452,241258,-0.11,-0.66,8.86,-0.01,-0.04,0.02,29.35
57217199,2170,1,198156,241205,-0.26,-1.53,10.73,-0.02,0.01,0.01,29.35
57257179,2174,1,198246,240718,-0.46,-0.97,9.09,-0.02,-0.03,0.01,29.35
57297196,2086,1,198072,241271,-0.47,-1.43,10.14,0.01,0.01,0.01,29.35
57337169,2080,1,198307,241255,-0.35,-0.88,10.15,-0.01,0.02,0.01,29.35
57377866,2044,1,198254,241636,-0.12,-0.58,9.63,0.03,-0.01,0.01,29.17
57418179,2059,1,198559,242277,-0.37,-0.89,9.52,-0.01,0.07,0.01,29.17
57458179,2021,1,198713,243708,0.05,-0.91,10.72,0.01,0.02,0.01,29.17
57498148,2029,1,198808,243587,-0.13,-0.67,9.80,-0.01,-0.02,-0.25,29.17
57538212,1930,1,198503,243696,0.15,-0.94,10.45,-0.00,-0.04,0.00,29.17
57578179,1968,1,198643,243869,0.26,-0.92,11.80,-0.01,0.03,-0.11,29.17
57618179,1811,1,198425,243775,0.00,-0.45,12.01,-0.00,-0.11,-0.08,29.17
57658199,1886,1,198353,243437,0.07,-0.80,13.07,-0.06,-0.01,-0.08,29.17
57698196,1841,1,197997,242767,0.10,-0.85,10.84,-0.07,-0.15,-0.00,29.17
57737199,1845,1,198232,243124,-0.08,-0.74,12.83,-0.09,-0.00,0.01,29.17
57777197,1910,1,198411,243091,0.34,-0.54,10.66,-0.08,-0.13,0.01,29.17
57817178,1840,1,198398,241803,-0.53,-1.23,10.22,-0.11,-0.05,0.02,29.17
57857199,1710,1,197559,240561,-0.23,-0.90,8.23,-0.12,-0.09,0.07,29.17
57897199,1683,1,197651,240645,-0.20,-1.10,7.90,-0.10,-0.05,0.02,29.17
57937205,1667,1,197987,242158,0.24,-1.32,8.31,-0.07,-0.07,0.10,29.17
57977179,1677,1,198565,242947,-0.11,-1.42,8.04,-0.03,-0.00,-0.01,29.17
58017212,1685,1,198479,243132,-0.11,-1.30,7.85,-0.00,-0.03,-0.06,29.17
58057214,1593,1,198558,242821,0.43,-1.44,7.90,-0.01,-0.00,-0.09,29.17
58097199,1967,1,198626,242833,0.55,-1.41,8.39,-0.00,-0.02,-0.09,29.17
58137230,1998,1,198605,241984,0.47,-0.91,7.59,0.00,0.03,-0.06,29.17
58177168,1877,1,198768,242069,0.17,-0.90,8.81,0.02,0.07,-0.02,29.17
58217170,2145,1,198917,242965,0.54,-0.56,9.41,0.05,0.03,-0.02,29.17
58257168,2144,1,199676,244452,0.39,-0.82,8.70,0.01,0.05,0.01,29.17
58297149,2150,1,200079,245046,0.50,-0.55,9.43,0.03,0.08,-0.01,29.17
58337194,2128,1,199948,245277,-0.16,-0.81,11.03,-0.01,0.09,0.05,29.17
58377865,2159,1,199950,245195,0.01,-0.77,11.63,-0.01,0.08,0.00,29.05
58416168,2142,1,199721,244699,-0.55,-0.56,11.96,-0.05,0.03,-0.01,29.05
58456199,2157,1,199523,244020,-0.37,-1.04,12.97,-0.08,0.05,0.01,29.05
58496179,2135,1,199366,243536,-0.44,-0.57,12.90,-0.11,0.01,-0.01,29.05
58536199,2102,1,199518,243702,-0.36,-1.20,12.65,-0.13,0.01,-0.00,29.05
58576199,1982,1,199469,243383,-0.69,-0.71,11.86,-0.16,0.05,0.01,29.05
58616179,1887,1,199501,243558,-0.52,-1.22,11.07,-0.16,0.01,0.07,29.05
58656179,1856,1,199589,243457,-0.62,-1.02,9.24,-0.18,0.05,0.06,29.05
58696179,1645,1,199480,243760,-0.89,-1.71,9.27,-0.16,0.04,0.15,29.05
58736179,1534,1,199398,243326,-0.28,-0.98,8.20,-0.14,0.03,0.01,29.05
58777179,1428,1,199279,243790,-0.72,-1.95,9.44,-0.11,0.08,0.05,29.05
58817179,1508,1,199187,243234,-0.26,-1.74,8.24,-0.10,0.02,0.04,29.05
58857179,1405,1,199458,244163,-0.28,-1.42,8.79,-0.06,0.02,-0.01,29.05
58897199,1965,1,199986,244586,-0.50,-1.67,7.88,-0.04,0.02,-0.01,29.05
58937199,1833,1,200452,244760,-0.45,-1.18,8.63,-0.01,0.00,-0.01,29.05
58977199,1921,1,200774,245009,-0.69,-2.14,9.36,0.02,-0.03,-0.02,29.05
59017199,1959,1,201128,245286,-0.85,-1.68,8.78,0.04,0.01,0.03,29.05
59057170,2083,1,201223,244554,-0.72,-1.67,8.95,0.05,-0.03,0.01,29.05
59097179,2094,1,200925,244326,-0.92,-1.52,9.06,0.06,-0.00,0.04,29.05
59137179,2003,1,201016,244945,-0.54,-1.35,9.87,0.07,-0.04,0.04,29.05
59177179,2095,1,201217,245295,-0.85,-1.56,10.15,0.06,-0.03,-0.00,29.05
59217199,2047,1,201148,245501,-0.88,-1.36,10.52,0.08,-0.01,-0.02,29.05
59257199,2169,1,200973,245633,-0.97,-1.50,10.49,0.05,-0.03,-0.03,29.05
59297200,2205,1,200815,245623,-0.95,-1.21,11.37,0.05,-0.04,-0.02,29.05
59337200,2158,1,200862,245091,-0.34,-1.16,11.47,0.02,-0.10,-0.02,29.05
59377886,2101,1,200859,244938,-1.04,-1.53,12.99,0.02,0.01,-0.01,29.03
59416179,2126,1,200715,244758,-0.51,-1.07,11.91,-0.01,-0.08,-0.02,29.03
59456212,2042,1,200661,244654,-0.84,-0.95,13.01,-0.02,-0.03,-0.02,29.03
59496216,1917,1,200684,244204,0.22,-0.74,10.01,-0.09,-0.15,-0.03,29.03
59536199,1873,1,201074,244592,-0.79,-1.72,11.89,-0.10,-0.01,0.13,29.03
59576205,1827,1,200868,244177,-0.04,-0.19,8.48,-0.13,-0.09,0.06,29.03
59616199,1705,1,201083,244562,-0.16,-1.72,10.44,-0.14,0.00,0.16,29.03
59656179,1733,1,200799,243805,-0.20,-0.73,7.29,-0.12,-0.06,0.05,29.03
59696200,1651,1,200709,243085,-0.08,-1.80,9.84,-0.12,0.03,0.05,29.03
59736179,1821,1,200345,242230,0.76,-0.42,8.74,-0.07,-0.08,-0.06,29.03
59776220,1762,1,200331,243094,-0.53,-2.03,9.21,-0.07,0.06,-0.01,29.03
59816199,1796,1,200294,242750,0.49,-1.21,8.71,-0.03,-0.05,-0.04,29.03
59856200,1683,1,200119,242187,-0.17,-1.64,8.68,-0.06,-0.01,-0.01,29.03
59896216,1855,1,200163,242571,0.02,-1.09,8.33,-0.02,-0.01,0.01,29.03
59936176,1955,1,200660,243778,-0.66,-1.92,10.76,-0.05,0.04,-0.00,29.03
59976224,1968,1,200819,244231,0.00,-1.25,8.24,0.03,-0.06,-0.01,29.03
60016176,1973,1,201092,244654,-0.45,-1.38,10.80,-0.01,0.08,-0.02,29.03
60056199,2047,1,201159,245012,-0.68,-1.51,8.56,0.03,0.01,0.00,29.03
60096217,2091,1,201284,244978,-0.15,-1.08,10.46,-0.00,0.05,-0.02,29.03
60136199,2059,1,201012,245636,-0.78,-1.37,10.42,0.01,0.08,0.00,29.03
60176170,2128,1,200887,245519,-0.35,-1.31,10.38,0.02,0.04,-0.14,29.03
60216179,2079,1,200665,245660,0.11,-1.27,11.67,0.01,0.01,-0.02,29.03
60256170,2167,1,200525,245496,-0.38,-1.57,10.11,-0.04,0.02,-0.05,29.03
60296200,2191,1,200346,245273,-0.30,-0.97,10.69,-0.04,-0.02,-0.03,29.03
60336212,2173,1,200152,244410,-0.53,-1.37,11.46,-0.05,0.05,-0.02,29.03
60376199,2087,1,199586,242687,0.53,-0.95,10.19,-0.06,-0.06,-0.02,29.03
60416886,2013,1,199843,243122,-0.20,-1.56,11.20,-0.09,0.04,-0.01,28.83
60455199,2064,1,199904,243317,0.46,-0.72,9.11,-0.08,-0.07,-0.02,28.83
60495199,1824,1,200308,244042,-0.32,-1.40,10.40,-0.07,0.06,-0.01,28.83
60535199,2031,1,200452,244269,0.27,-0.71,8.91,-0.07,-0.07,-0.01,28.83
60575199,1919,1,200711,244317,-0.18,-1.63,10.03,-0.07,-0.01,-0.01,28.83
60615216,2011,1,200695,244768,-0.17,-1.48,9.01,-0.05,-0.03,0.18,28.83
60655199,2033,1,200880,244492,-0.45,-1.76,8.86,-0.05,-0.01,-0.01,28.83
60695216,2010,1,200644,244261,-0.08,-1.30,9.58,-0.04,-0.05,0.14,28.83
60735200,2063,1,200749,244108,-0.51,-1.94,9.26,-0.05,-0.04,0.02,28.83
60775199,2112,1,200791,244631,-0.12,-1.89,9.05,-0.00,-0.03,0.11,28.83
60815199,2112,1,201178,245022,-0.55,-1.45,8.82,-0.02,0.02,-0.00,28.83
60855199,2128,1,201218,245626,-0.56,-1.29,9.13,0.01,0.03,-0.01,28.83
60895179,2157,1,201389,246030,-0.69,-1.62,9.96,-0.01,0.03,-0.01,28.83
60935199,2143,1,201404,245792,-0.20,-1.31,10.03,-0.00,-0.01,-0.01,28.83
60975213,2171,1,201179,245121,-0.66,-1.41,10.20,0.01,0.06,-0.02,28.83
61015179,2175,1,200665,244538,-0.39,-1.30,9.86,0.01,0.02,-0.02,28.83
61055179,2143,1,200562,244843,-0.43,-1.41,10.33,0.00,0.00,-0.06,28.83
61095179,2145,1,200444,244986,0.04,-0.81,10.04,-0.01,-0.02,-0.12,28.83
61135199,2158,1,200427,245122,-0.19,-1.44,10.65,-0.02,0.00,-0.09,28.83
61175199,2223,1,200333,245127,0.26,-0.91,10.97,-0.02,-0.03,-0.06,28.83
61215199,2267,1,200208,244884,0.10,-1.42,10.87,-0.04,-0.04,-0.06,28.83
61255199,2304,1,200092,244638,-0.31,-0.69,10.03,-0.05,-0.03,-0.01,28.83
61295213,2315,1,200188,244146,0.45,-0.84,10.92,-0.06,-0.09,-0.02,28.83
61335199,2285,1,200279,244113,0.01,-0.91,11.07,-0.05,-0.03,-0.01,28.83
61375196,2255,1,200258,243962,-0.40,-1.55,9.83,-0.06,-0.03,0.01,28.83
61415202,2209,1,200444,244498,0.11,-1.08,9.88,-0.06,-0.04,0.11,28.83
61455866,2175,1,200580,244261,0.13,-1.32,9.01,-0.07,-0.06,0.03,28.85
61496179,2097,1,200578,244702,-0.05,-1.69,9.17,-0.06,-0.02,0.27,28.85
61536199,2082,1,200990,244896,-0.68,-1.81,9.18,-0.05,-0.01,0.02,28.85
61576199,1994,1,200714,244296,-0.11,-1.55,9.08,-0.04,-0.04,0.14,28.85
61616222,1923,1,200514,242609,-0.37,-1.83,9.01,-0.03,0.04,0.01,28.85
61656179,1922,1,199925,242518,0.18,-1.54,9.29,-0.02,-0.03,0.09,28.85
