timestamp_us,ecg,leads,ir,red,accX,accY,accZ,gyroX,gyroY,gyroZ,temp
2427481,1782,1,199846,240712,0.00,0.00,0.00,0.00,0.00,0.00,0.00
2457945,1739,1,199907,239805,-0.64,-0.21,9.67,0.11,0.12,0.57,34.47
2498160,1757,1,199625,239268,-0.68,-0.39,10.23,0.06,0.12,0.45,34.47
2538150,1685,1,199418,239216,-0.75,-0.67,10.40,-0.03,-0.02,0.32,34.47
2578180,1691,1,199436,239665,-0.83,-1.07,10.35,-0.08,-0.08,0.36,34.47
2618186,1698,1,199583,240025,-0.52,-1.12,9.92,-0.11,-0.29,0.32,34.47
2658181,1706,1,199775,240711,0.05,-1.11,9.34,-0.08,-0.39,0.26,34.47
2698165,1678,1,200022,241176,0.22,-0.74,9.19,-0.03,-0.15,0.30,34.47
2738165,1647,1,200082,241253,0.00,-0.62,9.57,-0.10,-0.00,0.27,34.47
2778165,1682,1,200029,240973,-0.60,-0.13,10.34,-0.18,0.07,0.18,34.47
2818167,1696,1,199840,240854,-0.51,-0.42,10.36,-0.25,-0.01,0.14,34.47
2858188,1713,1,199816,240972,-0.61,-0.73,10.44,-0.33,0.12,0.08,34.47
2898167,1734,1,199842,241346,-0.99,-0.79,10.46,-0.21,0.12,0.07,34.47
2938167,1725,1,200088,241633,-1.40,-0.50,10.44,0.06,0.06,0.16,34.47
2978158,1765,1,200150,241525,-1.43,-0.30,10.01,0.22,0.03,0.26,34.47
3018158,1749,1,200119,241088,-1.79,-0.11,9.94,0.17,0.08,0.35,34.47
3058159,1807,1,199845,239074,-2.19,0.18,9.91,0.07,0.12,0.52,34.47
3098135,1813,1,199386,238461,-2.30,0.21,9.64,-0.07,0.16,0.67,34.47
3138159,1799,1,199867,238953,-2.46,0.02,9.79,-0.19,0.20,0.79,34.47
3178155,1826,1,200183,239722,-2.31,-0.45,9.79,-0.23,0.11,0.82,34.47
3218167,1839,1,200372,239875,-1.75,-0.66,9.57,-0.27,-0.12,0.84,34.47
3258187,1857,1,200269,240343,-1.18,-0.93,9.44,-0.35,-0.15,0.85,34.47
3298187,1874,1,200372,240492,-0.94,-1.24,9.77,-0.34,-0.09,0.90,34.47
3338187,1826,1,200261,240607,-1.08,-1.65,10.15,-0.16,0.01,0.95,34.47
3378167,1857,1,200239,240123,-1.07,-1.55,10.23,0.02,-0.09,1.02,34.47
3418167,1866,1,200142,239903,-1.03,-1.30,10.07,0.09,-0.12,1.08,34.47
3458167,1875,1,200155,240034,-0.96,-1.05,10.03,0.05,-0.08,1.05,34.47
3498851,1879,1,200246,240745,-1.11,-1.10,10.01,-0.07,0.03,1.03,34.37
3537167,1893,1,200627,241486,-1.23,-1.07,9.98,-0.32,0.11,0.81,34.37
3577167,1904,1,200581,241496,-1.14,-0.74,9.66,-0.38,0.09,0.81,34.37
3617167,1902,1,200100,239754,-1.10,-0.68,9.45,-0.41,-0.05,0.87,34.37
3657187,1887,1,198337,235921,-0.93,-0.78,9.55,-0.45,-0.00,1.00,34.37
3697187,1930,1,197287,235024,-0.80,-1.24,9.58,-0.59,0.24,0.96,34.37
3737167,1945,1,197307,234946,-1.24,-1.32,9.99,-0.56,0.18,0.79,34.37
3777164,1936,1,197097,234086,-0.88,-1.21,9.62,-0.40,-0.05,0.67,34.37
3817180,1949,1,196123,232523,-0.83,-1.22,9.35,-0.39,-0.12,0.52,34.37
3857182,1942,1,195169,231120,-1.75,-1.16,9.66,-0.36,-0.06,0.52,34.37
3897186,1934,1,194749,230848,0.02,-1.58,11.18,-0.19,0.13,0.44,34.37
3937158,1970,1,194917,231083,-0.30,-1.34,9.90,-0.41,0.09,0.21,34.37
3977165,1961,1,195032,231640,-1.37,-1.36,10.11,-0.28,-0.26,0.09,34.37
4017188,1947,1,195379,232108,-1.89,-1.30,10.25,-0.04,0.02,0.50,34.37
4057194,1968,1,195908,232999,-1.31,-1.54,10.72,0.25,0.29,0.60,34.37
4097158,1936,1,196670,233608,-1.19,-1.32,9.83,0.30,0.10,0.32,34.37
4137158,1930,1,197133,233243,-1.64,-1.23,9.77,0.20,-0.06,0.21,34.37
4177167,1919,1,196931,232608,-1.68,-0.90,9.70,0.11,-0.25,0.22,34.37
4217167,1919,1,196508,230398,-1.64,-0.86,9.55,0.00,-0.32,0.26,34.37
4257202,1885,1,195079,225257,-1.85,-0.81,9.89,-0.08,-0.17,0.46,34.37
4297188,1883,1,193333,221375,-1.58,-0.94,10.20,-0.03,0.01,0.53,34.37
4337167,1897,1,192729,220655,-1.46,-0.88,9.93,0.04,-0.08,0.37,34.37
4377168,1826,1,192683,220157,-1.53,-0.79,9.71,0.02,0.00,0.30,34.37
4417158,1856,1,192367,220355,-1.54,-0.68,9.75,0.07,0.06,0.18,34.37
4457158,1867,1,192427,220936,-1.37,-0.83,9.86,0.08,-0.06,0.06,34.37
4497167,1843,1,192344,220600,-1.15,-0.75,9.84,0.06,-0.04,0.08,34.37
4537851,1842,1,192017,219492,-1.05,-0.62,9.82,-0.01,0.03,0.07,34.33
4578167,1795,1,191633,218687,-1.10,-0.76,10.02,-0.08,0.00,0.12,34.33
4618165,1776,1,191531,217967,-1.37,-0.45,9.92,-0.04,0.04,0.17,34.33
4658168,1793,1,191318,216827,-1.54,-0.36,9.99,-0.11,0.14,0.18,34.33
4698168,1776,1,190894,214977,-1.64,-0.14,9.98,-0.08,-0.10,0.12,34.33
4738188,1776,1,190221,213486,-1.57,-0.02,9.79,-0.07,-0.11,0.18,34.33
4778187,1856,1,190003,212766,-1.32,-0.33,9.67,-0.17,-0.03,0.17,34.33
4818187,1886,1,189245,209798,-1.44,-0.68,9.92,-0.28,-0.01,0.08,34.33
4858187,1873,1,188419,208269,-1.43,-0.98,10.13,-0.19,-0.09,0.01,34.33
4898188,1887,1,188262,208726,-1.25,-1.10,9.73,-0.13,-0.20,0.01,34.33
4938188,1853,1,188709,209975,-0.99,-1.31,9.70,-0.14,-0.24,0.00,34.33
4978188,1883,1,189311,210955,-0.98,-1.46,9.62,-0.13,-0.18,-0.05,34.33
5018201,1846,1,189186,209316,-1.26,-1.44,9.82,-0.03,-0.11,-0.03,34.33
5058205,1883,1,188302,207174,-1.27,-1.40,9.86,0.04,-0.01,0.01,34.33
5098167,1854,1,187840,206029,-1.23,-1.40,9.98,0.04,0.01,-0.02,34.33
5138167,1829,1,187633,205450,-1.26,-1.39,9.91,0.08,-0.05,-0.01,34.33
5178188,1798,1,187865,206916,-1.04,-1.20,9.91,0.07,-0.13,-0.09,34.33
5218189,1809,1,188501,207485,-0.85,-1.41,9.67,0.08,-0.17,-0.16,34.33
5258189,1774,1,188246,205626,-0.88,-1.66,9.65,0.07,-0.01,-0.24,34.33
5298189,1717,1,187395,203367,-1.00,-2.00,9.67,-0.00,0.07,-0.26,34.33
5338185,1827,1,186846,201200,-1.27,-1.56,10.00,0.05,0.29,-0.14,34.33
5378169,1850,1,186332,198857,-1.39,-1.12,10.19,0.10,0.07,-0.15,34.33
5418168,1835,1,185323,196379,-1.28,-0.86,9.93,0.07,-0.10,-0.26,34.33
5458188,1866,1,184511,194961,-1.08,-0.59,10.01,-0.03,0.05,-0.24,34.33
5498185,1893,1,184284,195432,-1.07,-0.51,10.01,-0.06,0.10,-0.18,34.33
5538874,1839,1,184731,196619,-1.10,-0.46,9.86,-0.08,0.12,-0.12,34.23
5577188,1865,1,185603,199468,-1.22,-0.60,9.88,-0.12,0.09,-0.05,34.23
5617187,1792,1,187011,202722,-1.10,-0.66,9.67,-0.12,-0.04,0.02,34.23
5657184,1776,1,188169,205466,-0.97,-0.73,9.47,-0.23,-0.12,0.08,34.23
5697194,1759,1,189469,209479,-0.84,-0.97,9.55,-0.28,-0.10,0.12,34.23
5737188,1735,1,191314,214077,-0.83,-1.26,9.77,-0.31,-0.11,0.16,34.23
5777189,1681,1,192835,216621,-0.88,-1.40,9.79,-0.26,0.04,0.21,34.23
5817167,1663,1,193354,217061,-0.96,-1.56,10.06,-0.14,0.06,0.25,34.23
5857167,1712,1,193786,219683,-0.65,-1.49,9.40,-0.24,0.09,0.23,34.23
5897185,1745,1,195413,223146,-1.26,-1.30,9.94,-0.35,0.67,0.29,34.23
5937167,1712,1,196310,224091,-1.98,-1.80,10.99,-0.18,0.41,0.22,34.23
5977167,1693,1,195129,218131,-1.78,-1.96,10.35,-0.09,0.01,0.09,34.23
6038170,1749,1,192379,211058,-1.37,-1.52,10.10,-0.14,0.05,0.15,34.23
6078167,1837,1,190574,209344,-1.24,-1.72,9.99,-0.03,0.02,0.16,34.23
6118167,1834,1,190712,211862,-1.55,-1.73,9.60,0.02,0.04,-0.09,34.23
6158165,1809,1,191773,216183,-1.40,-1.98,9.64,-0.06,0.14,-0.37,34.23
6198187,1808,1,193172,218980,-1.23,-2.38,9.73,0.20,0.17,-0.35,34.23
6238167,1809,1,193710,219670,-1.25,-1.78,9.24,0.35,0.01,-0.21,34.23
6278167,1797,1,194393,221305,-1.22,-1.59,9.29,0.21,0.13,-0.06,34.23
6318167,1831,1,195649,223445,-1.57,-1.39,9.56,0.14,0.31,0.00,34.23
6358159,1824,1,196757,224186,-2.31,-0.88,9.58,0.21,0.40,0.03,34.23
6398158,1841,1,197047,223862,-2.36,-1.06,9.46,0.27,0.32,0.09,34.23
6438159,1731,1,197309,224538,-2.54,-1.36,9.84,0.20,0.17,-0.04,34.23
6478167,1787,1,197765,225395,-3.19,-1.58,9.63,0.16,0.00,-0.15,34.23
6518167,1874,1,197992,226389,-2.66,-1.39,9.62,0.25,-0.12,-0.19,34.23
6558874,1878,1,198060,226167,-2.26,-1.69,9.15,0.12,-0.10,-0.44,34.33
6597187,1793,1,197279,224511,-2.57,-1.44,9.75,0.06,-0.21,-0.55,34.33
6637187,1872,1,196728,223461,-2.63,-1.30,9.36,0.10,-0.10,-0.43,34.33
6677181,2064,1,196289,222298,-2.63,-1.13,9.39,0.13,0.11,-0.33,34.33
6717204,1941,1,195757,219925,-2.73,-1.23,9.44,0.17,0.10,-0.22,34.33
6757164,2025,1,195122,217709,-2.67,-1.21,9.26,0.16,0.06,-0.15,34.33
6797164,1949,1,194854,218073,-2.98,-1.12,9.44,0.18,0.14,-0.10,34.33
6837164,1871,1,195363,219366,-2.03,-0.84,9.30,0.29,0.06,-0.28,34.33
6877164,1940,1,195159,218455,-1.97,-0.55,9.38,0.20,0.05,-0.64,34.33
6917185,1845,1,194349,217116,-2.28,-0.80,9.69,0.21,0.18,-0.67,34.33
6957159,1837,1,194457,218792,-2.63,-0.92,9.84,0.26,0.52,-0.65,34.33
6997164,1851,1,195364,219370,-3.17,-0.58,10.01,0.28,0.47,-0.84,34.33
7037159,1803,1,194929,216242,-3.22,-0.41,9.97,0.36,0.35,-0.80,34.33
7077164,1783,1,192834,208270,-2.91,-0.10,9.36,0.43,0.20,-0.81,34.33
7117159,1774,1,189334,201775,-3.02,0.04,9.32,0.36,0.20,-0.92,34.33
7158153,1809,1,187285,197077,-3.16,0.03,9.35,0.30,0.16,-1.06,34.33
7198149,1678,1,185960,195467,-3.66,0.03,9.63,0.41,0.41,-1.13,34.33
7238153,1634,1,185508,194529,-4.14,0.01,9.57,0.52,0.33,-1.19,34.33
7278153,1632,1,184884,193554,-3.75,0.21,9.21,0.53,0.06,-1.14,34.33
7318153,1678,1,184881,195828,-3.45,-0.23,9.15,0.29,0.14,-1.30,34.33
7358158,1629,1,186980,201053,-4.25,-0.75,9.70,0.05,0.28,-1.57,34.33
7398164,1655,1,188380,203216,-4.31,-0.60,9.39,0.20,-0.23,-1.46,34.33
7438179,1789,1,188408,204057,-3.38,-0.17,8.77,0.29,-0.50,-1.24,34.33
7478181,1854,1,188784,206794,-3.00,-0.24,8.69,0.21,-0.23,-0.99,34.33
7518182,1804,1,190190,210649,-3.15,-0.79,9.22,0.03,0.09,-0.85,34.33
7558853,1792,1,191081,213776,-3.34,-1.19,9.62,-0.04,-0.25,-0.88,34.43
7597201,1773,1,192736,217899,-3.30,-1.35,9.38,-0.06,-0.38,-0.83,34.43
7637204,1774,1,193507,218741,-3.12,-1.48,9.60,-0.02,-0.23,-0.72,34.43
7677200,1801,1,193290,216583,-3.04,-1.46,9.49,0.12,-0.11,-0.66,34.43
7717186,1825,1,192456,214432,-2.98,-1.28,9.33,0.21,-0.08,-0.61,34.43
7757187,1811,1,191594,210897,-2.76,-1.08,9.35,0.24,0.05,-0.58,34.43
7797166,1830,1,189762,207205,-2.55,-0.93,9.18,0.25,0.06,-0.70,34.43
7837167,1842,1,189798,209905,-3.01,-0.99,9.49,0.21,0.18,-0.69,34.43
7877167,1834,1,190903,211028,-2.90,-0.88,9.64,0.19,0.10,-0.60,34.43
7917165,1842,1,190400,210048,-2.77,-0.77,9.43,0.17,-0.08,-0.64,34.43
7957187,1811,1,190508,211477,-3.08,-0.82,9.45,-0.03,-0.24,-0.63,34.43
7997201,1787,1,190771,211755,-2.25,-0.78,9.25,0.10,-0.36,-0.50,34.43
8037187,1744,1,191237,216097,-1.96,-1.15,9.73,0.06,-0.21,-0.61,34.43
8077187,1791,1,194776,224235,-2.64,-0.82,9.97,0.21,-0.11,-0.47,34.43
8117187,1791,1,197197,227338,-2.19,-1.04,9.55,0.10,-0.16,-0.31,34.43
8158187,1712,1,197598,227378,-2.19,-0.70,9.76,-0.00,-0.36,-0.35,34.43
8198204,1712,1,197079,225566,-1.72,-0.56,9.59,-0.02,-0.46,-0.56,34.43
8238201,1731,1,196071,224845,-1.86,-0.55,9.64,-0.08,-0.18,-0.56,34.43
8278204,1705,1,196547,226900,-2.01,-0.83,10.19,0.02,0.02,-0.42,34.43
8318167,1727,1,197598,228301,-1.76,-1.08,10.02,0.04,0.13,-0.29,34.43
8358189,1675,1,198558,229211,-1.99,-0.92,10.11,-0.03,-0.00,-0.17,34.43
8398201,1654,1,199068,230224,-1.69,-0.74,9.70,-0.04,-0.22,-0.08,34.43
8438202,1635,1,200532,233243,-2.19,-0.84,9.98,0.07,-0.19,0.04,34.43
8478167,1619,1,203295,237495,-2.26,-0.49,10.13,0.24,-0.24,0.31,34.43
8518168,1614,1,205525,241442,-0.85,-0.65,9.50,0.15,-0.49,0.14,34.43
8558215,1630,1,206876,243129,-0.91,-0.59,9.41,-0.09,-0.32,-0.04,34.43
8598889,1601,1,207605,244412,-0.95,-1.15,9.78,-0.34,-0.34,-0.27,34.31
8637201,1584,1,207641,244762,-0.75,-1.08,9.76,-0.49,-0.69,-0.32,34.31
8677205,1578,1,207720,245823,-0.57,-1.57,9.58,-0.55,-0.50,-0.22,34.31
8717201,1556,1,208309,247195,-0.47,-2.01,9.21,-0.59,0.22,-0.31,34.31
8757188,1575,1,208768,247565,-0.61,-1.80,10.15,-0.28,0.42,-0.26,34.31
8797187,1598,1,208579,247406,-0.35,-1.48,10.24,-0.27,-0.10,0.02,34.31
8837188,1627,1,208646,247626,-0.44,-2.16,9.84,-0.10,-0.27,0.24,34.31
8877188,1685,1,208568,247544,-0.26,-2.57,9.70,-0.07,0.07,0.03,34.31
8917167,1728,1,208332,246600,-0.57,-2.08,10.17,0.04,0.30,0.10,34.31
8957155,1803,1,208258,246002,-0.92,-2.03,10.36,0.32,0.04,0.40,34.31
8997158,1856,1,208102,246224,-0.79,-1.98,9.81,0.42,-0.21,0.39,34.31
9037167,1882,1,208399,246744,-0.83,-1.77,9.66,0.42,-0.06,0.27,34.31
9077187,1927,1,208586,247138,-0.91,-1.40,9.62,0.62,-0.05,0.39,34.31
9117167,1904,1,208804,247527,-1.15,-1.08,9.67,0.54,0.10,0.38,34.31
9157159,1887,1,208908,247802,-1.24,-0.65,9.73,0.20,0.21,0.14,34.31
9198158,1854,1,209003,247931,-1.21,-0.47,9.87,-0.15,0.12,-0.06,34.31
9238187,1847,1,208943,247763,-1.14,-0.42,9.63,-0.31,0.02,-0.05,34.31
9278188,1856,1,209023,247974,-1.41,-0.84,9.54,-0.39,0.10,-0.01,34.31
9318188,1856,1,209211,248259,-1.66,-0.96,9.41,-0.37,-0.04,-0.05,34.31
9358200,1838,1,209269,248370,-1.53,-0.73,9.66,-0.20,-0.01,0.07,34.31
9398187,1791,1,209283,248315,-1.51,-0.85,9.67,0.07,-0.06,0.30,34.31
9438167,1801,1,209280,247993,-1.55,-0.98,9.79,0.12,0.00,0.26,34.31
9478158,1769,1,209002,246744,-1.51,-0.56,9.97,0.03,0.00,0.18,34.31
9518154,1755,1,208532,245832,-1.55,-0.52,9.51,0.02,-0.16,0.31,34.31
9558166,1763,1,208734,246933,-1.77,-0.89,9.69,-0.03,0.17,0.15,34.31
9598165,1753,1,209109,247364,-1.76,-0.60,10.41,-0.20,0.15,0.04,34.31
9638853,1765,1,209202,247699,-1.81,-1.02,10.43,-0.17,0.02,0.12,34.17
9677165,1776,1,209325,248107,-1.61,-1.32,10.56,-0.15,0.09,-0.01,34.17
9717188,1746,1,209342,248341,-1.64,-1.05,11.12,-0.17,0.09,-0.23,34.17
9757187,1719,1,209278,248398,-1.18,-1.03,10.12,-0.18,0.06,-0.41,34.17
9797188,1743,1,209107,248236,-0.85,-1.04,9.59,0.01,0.12,-0.48,34.17
9837167,1752,1,209049,248197,-0.92,-1.53,9.23,0.35,0.22,-0.57,34.17
9877168,1792,1,209230,248621,-0.74,-0.08,9.50,0.28,0.49,-0.45,34.17
9917165,1791,1,209331,248469,-1.51,-0.79,9.88,0.25,0.33,-0.11,34.17
9957167,1781,1,209398,248545,-1.74,-0.50,9.43,0.04,0.31,-0.26,34.17
9997167,1811,1,209436,248528,-1.62,-0.35,9.62,-0.06,0.27,-0.17,34.17
10037188,1814,1,209303,248269,-1.54,-0.58,9.62,-0.02,0.14,0.00,34.17
10077167,1840,1,209235,247423,-1.79,-0.87,9.98,-0.01,0.15,-0.03,34.17
10117188,1861,1,208911,246777,-1.71,-0.99,10.19,-0.06,0.03,-0.16,34.17
10157188,1891,1,208902,247141,-1.94,-0.57,9.76,0.06,-0.01,-0.17,34.17
10197225,1888,1,209162,247532,-2.24,-0.23,10.01,0.18,0.07,0.06,34.17
10237158,1926,1,209078,247694,-2.20,-0.49,9.76,0.12,-0.10,0.17,34.17
10277167,1904,1,209204,247927,-2.62,-0.64,9.72,0.02,0.06,0.13,34.17
10317158,1934,1,209288,247922,-2.61,-0.43,9.94,0.03,-0.04,0.22,34.17
10357167,1913,1,209219,247771,-2.60,-0.42,9.73,0.02,-0.14,0.33,34.17
10397167,1930,1,209241,247758,-2.19,-0.22,9.67,-0.11,-0.14,0.25,34.17
10437188,1936,1,209181,247679,-1.65,0.06,9.85,-0.38,-0.15,0.15,34.17
10477167,1927,1,209180,247789,-1.44,-0.14,10.01,-0.52,-0.13,0.21,34.17
10517188,1906,1,209327,248097,-1.86,-0.91,10.24,-0.54,-0.09,0.23,34.17
10557188,1930,1,209513,248439,-1.80,-1.10,10.16,-0.57,-0.35,0.20,34.17
10597188,1904,1,209498,248548,-1.51,-1.18,9.51,-0.43,-0.51,0.27,34.17
10637187,1931,1,209428,248614,-1.35,-1.47,9.21,-0.32,-0.46,0.34,34.17
10677877,1923,1,209261,248052,-1.21,-1.58,8.94,-0.24,-0.27,0.28,34.29
10718188,1931,1,208943,247289,-1.48,-1.59,8.99,-0.09,-0.04,0.36,34.29
10758188,1916,1,209001,247390,-2.23,-1.78,9.19,0.09,0.18,0.41,34.29
10798158,1915,1,208916,247533,-2.19,-1.31,9.51,0.09,0.16,0.33,34.29
10838158,1909,1,208961,247630,-1.90,-1.29,9.45,-0.07,0.03,0.30,34.29
10878167,1889,1,209189,248023,-1.75,-1.45,9.48,-0.25,0.10,0.18,34.29
10918167,1888,1,209329,248474,-2.07,-1.82,9.93,-0.34,0.18,0.08,34.29
10958168,1916,1,209434,248524,-2.06,-1.98,9.86,-0.35,0.06,-0.06,34.29
10998187,1895,1,209547,248417,-2.43,-2.02,9.99,-0.20,0.06,0.02,34.29
11038167,1904,1,209421,248230,-2.46,-1.88,9.80,-0.10,-0.03,0.06,34.29
11078187,1879,1,209444,248173,-2.50,-1.55,9.75,-0.07,0.03,0.19,34.29
11118167,1904,1,209266,248115,-2.33,-1.57,9.55,-0.07,-0.08,0.35,34.29
11158188,1860,1,209312,248051,-2.23,-1.56,9.37,-0.08,-0.03,0.42,34.29
11198188,1875,1,209206,248310,-2.06,-1.64,9.24,-0.21,0.07,0.31,34.29
11238167,1864,1,209360,248202,-1.96,-1.50,9.54,-0.24,0.19,0.38,34.29
11278167,1835,1,209146,247209,-2.18,-1.72,9.79,-0.13,0.19,0.58,34.29
11318167,1824,1,208808,246683,-2.48,-1.71,10.21,-0.12,0.16,0.74,34.29
11358167,1824,1,208862,247010,-2.91,-2.16,10.14,-0.19,-0.01,0.81,34.29
11398188,1817,1,209035,247241,-2.55,-2.32,9.87,-0.32,-0.23,0.71,34.29
11438187,1840,1,209104,247617,-2.38,-2.69,9.58,-0.43,-0.31,0.57,34.29
11478190,1842,1,209174,247703,-2.03,-2.33,9.34,-0.30,-0.19,0.64,34.29
11518187,1830,1,209089,247565,-2.18,-2.32,9.30,-0.13,-0.24,0.88,34.29
11558189,1823,1,209083,247599,-2.37,-2.26,9.43,-0.10,-0.28,1.00,34.29
11598187,1822,1,209074,247695,-2.44,-2.24,9.44,-0.23,-0.42,0.90,34.29
11638188,1829,1,208964,247602,-1.86,-1.59,9.14,-0.35,-0.48,0.90,34.29
11678874,1840,1,208908,247711,-1.30,-1.53,8.52,-0.65,-0.57,0.91,34.17
11717187,1869,1,209158,248214,-1.02,-1.83,8.69,-0.92,-0.44,0.81,34.17
11757186,1865,1,209584,248780,-1.81,-3.42,9.77,-0.61,-0.16,1.07,34.17
11797185,1870,1,209781,248865,-2.27,-3.80,10.47,-0.18,-0.17,1.11,34.17
11837225,1888,1,209656,247758,-2.24,-3.07,10.37,0.18,-0.20,1.09,34.17
11877165,1892,1,208894,246076,-1.73,-2.29,9.89,0.21,-0.30,0.90,34.17
11917165,1877,1,208633,246069,-1.25,-1.61,9.44,0.06,-0.16,0.72,34.17
11957165,1889,1,208697,246314,-1.23,-1.48,9.37,-0.08,-0.04,0.74,34.17
11997181,1859,1,208804,246886,-1.77,-2.09,9.38,-0.13,-0.01,0.76,34.17
12037202,1898,1,209193,247700,-1.86,-2.15,9.65,-0.15,-0.04,0.70,34.17
12077180,1879,1,209379,248109,-1.64,-1.97,9.52,-0.19,-0.22,0.67,34.17
12117187,1861,1,209570,248439,-1.70,-2.03,9.43,-0.12,-0.25,0.73,34.17
12157186,1873,1,209729,248811,-1.40,-2.10,9.49,-0.31,-0.27,0.46,34.17
12197187,1882,1,209785,249122,-1.23,-2.23,9.50,-0.46,-0.24,0.29,34.17
12237186,1905,1,209823,249234,-1.20,-2.50,9.65,-0.29,-0.18,0.26,34.17
12277186,1855,1,209828,249107,-0.94,-2.49,9.56,-0.07,-0.06,0.22,34.17
12317186,1901,1,209750,249162,-1.52,-2.88,9.61,0.19,0.26,0.16,34.17
12357158,1901,1,209906,249279,-1.90,-2.56,9.90,0.42,0.30,0.09,34.17
12397158,1886,1,209912,249293,-2.10,-1.71,9.97,0.42,0.35,-0.05,34.17
12437167,1875,1,209716,247813,-2.27,-1.03,10.15,0.23,0.28,-0.12,34.17
12477167,1904,1,208987,246150,-2.40,-0.82,9.89,0.33,0.15,0.08,34.17
12517159,1879,1,208661,245953,-2.21,-0.54,9.43,0.50,0.09,0.30,34.17
12557158,1893,1,208829,246072,-2.08,5.74,12.39,0.15,-0.10,0.57,34.17
12597159,1914,1,208306,245326,-1.75,-0.21,8.77,-0.14,-0.35,0.75,34.17
12637187,1947,1,262143,262143,-2.01,-1.46,8.74,0.37,0.33,0.98,34.17
12656985,1915,1,208906,246419,-2.30,-64.23,8.27,-0.32,4.66,-0.26,34.17
12735150,1959,1,208768,246283,-2.30,-64.23,8.27,-0.32,4.66,-0.26,34.15
12777188,1935,1,208465,246214,-1.88,0.76,9.69,-0.25,-0.27,0.06,34.15
12817165,1925,1,208657,246939,-1.25,0.39,8.98,-0.09,0.27,0.05,34.15
12857152,1905,1,209255,248156,-2.41,-0.91,9.66,0.35,0.53,0.23,34.15
12897153,1876,1,209700,248541,-2.76,0.01,10.34,0.50,0.14,0.10,34.15
12937132,1842,1,209523,248389,-2.34,0.70,9.86,0.33,-0.28,-0.08,34.15
12977159,1819,1,209077,248167,-1.92,1.66,9.80,-0.04,-0.21,-0.28,34.15
13017181,1878,1,208698,246441,-2.89,2.26,10.45,-0.10,-0.02,-0.12,34.15
13057180,1830,1,206524,240766,-2.43,0.61,9.60,-0.12,-0.39,-0.11,34.15
13097188,1871,1,202983,235540,-1.43,0.77,8.75,-0.23,-0.46,-0.20,34.15
13137187,1837,1,200510,233695,-2.12,0.47,9.37,-0.35,0.02,-0.15,34.15
13177167,1874,1,199996,232989,-2.56,0.32,9.58,-0.36,0.37,0.13,34.15
13217158,1937,1,199989,233282,-1.46,-0.40,9.90,-0.35,0.20,-0.09,34.15
13257183,1881,1,200027,232946,-2.62,-0.59,9.33,-0.25,-0.13,-0.40,34.15
13297199,1997,1,199455,232114,-2.66,-0.27,9.46,-0.28,-0.11,-0.11,34.15
13337202,1978,1,199194,231700,-2.35,-0.47,9.87,-0.22,-0.25,-0.07,34.15
13377198,1952,1,198916,231281,-2.45,-0.57,9.74,-0.13,-0.35,-0.00,34.15
13417203,1970,1,198790,230935,-2.22,-0.58,9.68,-0.08,-0.29,0.04,34.15
13457179,1971,1,198785,230756,-2.32,-0.71,9.62,-0.15,-0.25,0.07,34.15
13497188,2000,1,198625,230329,-2.07,-0.79,10.10,-0.09,-0.25,0.17,34.15
13537181,1982,1,198412,229305,-1.61,-0.52,9.97,0.17,-0.55,0.11,34.15
13577167,1970,1,197432,226924,-1.24,-0.27,8.96,0.27,-0.63,0.11,34.15
13617167,1937,1,196066,223178,-1.20,-0.56,9.91,-0.04,0.05,0.10,34.15
13657167,1902,1,194709,219203,-1.67,-0.70,10.88,-0.03,0.26,0.03,34.15
13697854,1844,1,193696,216119,-1.24,-0.66,10.26,0.05,-0.02,-0.10,34.15
13738188,1853,1,192973,214560,-0.91,-0.51,9.78,0.00,0.10,-0.03,34.15
13778165,1862,1,192613,214533,-0.79,-0.39,9.54,-0.12,0.08,0.09,34.15
13818167,1826,1,193084,216479,-0.93,-0.13,9.61,-0.16,0.01,0.18,34.15
13858167,1791,1,194231,219613,-1.11,-0.11,9.44,-0.21,0.17,0.32,34.15
13898168,1771,1,195455,221795,-1.14,-0.20,9.41,-0.39,0.22,0.36,34.15
13938167,1774,1,196212,223205,-1.42,-0.32,9.99,-0.45,-0.02,0.36,34.15
13978188,1747,1,196834,225127,-1.34,-0.47,9.85,-0.46,-0.19,0.31,34.15
14018187,1759,1,198023,227735,-1.49,-0.35,9.91,-0.53,-0.07,0.36,34.15
14058188,1700,1,199098,229923,-1.42,-0.82,10.49,-0.42,-0.19,0.28,34.15
14098186,1706,1,200193,232739,-1.21,-1.10,10.42,-0.24,-0.38,0.13,34.15
14198198,1771,1,200170,232286,-0.61,-0.82,10.27,0.10,-0.02,0.05,34.15
14235958,1724,1,199200,229770,-4.60,-128.47,16.55,-1.30,18.59,-1.02,34.15
14457180,1831,1,199519,230202,-1.64,-1.38,9.99,-0.24,0.31,-0.35,34.15
14497218,1755,1,199758,230404,-1.93,-1.40,9.46,-0.08,0.51,-0.35,34.15
14538188,1808,1,199606,230278,-2.22,-1.59,9.50,-0.13,0.76,-0.33,34.15
14578187,1807,1,199558,229644,-2.49,-1.56,9.54,-0.19,0.65,-0.33,34.15
14618188,1810,1,199096,228501,-2.81,-1.67,9.43,-0.22,0.43,-0.32,34.15
14658188,1885,1,198354,225972,-2.85,-1.37,9.17,-0.12,0.21,-0.13,34.15
14698888,1835,1,196474,219600,-2.22,-1.90,8.49,-0.13,-0.09,0.02,34.15
14737187,1845,1,194333,217185,-2.29,-2.24,8.64,-0.23,0.02,0.06,34.15
14777167,1716,1,195049,219650,-3.31,-2.36,9.61,-0.19,0.18,-0.17,34.15
14817186,1717,1,194740,216591,-3.37,-2.55,9.63,-0.09,0.01,-0.33,34.15
14857188,1690,1,193121,212728,-3.19,-2.52,9.07,0.03,-0.12,-0.40,34.15
14897187,1614,1,191978,209707,-2.78,-2.53,9.38,0.03,0.27,-0.37,34.15
14937168,1594,1,190540,205928,-3.02,-2.13,9.61,0.15,0.24,-0.47,34.15
14977167,1600,1,188748,200523,-2.29,-1.91,9.35,0.29,0.27,-0.43,34.15
15017167,1577,1,185744,194167,-1.81,-1.99,9.21,0.34,0.33,-0.79,34.15
15057167,1535,1,183775,191403,-2.88,-1.47,9.11,0.48,0.35,-0.48,34.15
15097167,1509,1,184523,194825,-0.70,-1.70,9.30,0.67,0.23,-0.47,34.15
15137167,1515,1,185525,195416,-2.95,-1.59,9.22,0.51,0.64,-0.66,34.15
15177166,1535,1,185495,200390,-3.72,-1.61,10.65,0.23,0.20,-0.90,34.15
15217165,1521,1,188906,207452,-3.78,-1.42,9.63,0.12,-0.28,-1.09,34.15
15257189,1569,1,191759,214111,-3.29,-1.34,9.67,0.03,-0.37,-1.18,34.15
15297186,1535,1,194306,219239,-3.34,-1.64,9.81,0.11,-0.22,-1.27,34.15
15337189,1609,1,195592,222047,-3.31,-1.58,9.50,0.28,-0.30,-1.25,34.15
15377182,1577,1,195856,221137,-2.70,-1.34,9.07,0.34,-0.12,-1.23,34.15
15417187,1535,1,194937,217290,-2.25,-1.02,8.69,0.40,-0.07,-1.50,34.15
15457187,1636,1,192991,211266,-2.50,-1.11,8.41,0.38,0.25,-1.30,34.15
15497167,1597,1,189700,202200,-2.87,-1.13,8.97,0.37,0.70,-1.09,34.15
15537167,1646,1,186862,200085,-3.56,-1.11,9.32,0.41,0.69,-0.82,34.15
15577167,1701,1,187353,201979,-3.57,-0.96,9.84,0.37,0.42,-0.70,34.15
15617167,1731,1,187249,200279,-3.69,-1.25,9.94,0.25,0.12,-0.82,34.15
15657167,1742,1,185515,195195,-3.95,-1.54,10.21,0.27,0.17,-0.74,34.15
15697167,1803,1,183621,190802,-3.31,-1.65,9.60,0.39,0.08,-0.65,34.15
15737853,1838,1,181571,187303,-2.69,-1.38,8.81,0.28,-0.34,-0.75,34.29
15778187,1893,1,180985,188377,-2.35,-1.30,8.69,0.25,-0.23,-0.72,34.29
15818188,1876,1,181808,188974,-2.43,-1.18,8.83,0.27,0.06,-0.71,34.29
15858167,1921,1,181460,188520,-2.77,-1.03,9.33,0.25,0.11,-0.72,34.29
15898167,1936,1,182226,191753,-2.96,-1.15,9.88,0.15,0.29,-0.75,34.29
15938188,1954,1,183069,190081,-3.11,-1.07,10.30,0.19,0.08,-0.86,34.29
15978167,1906,1,180962,186935,-2.99,-0.81,9.92,0.22,-0.03,-0.68,34.29
16018187,1925,1,181823,191636,-2.56,-1.06,10.29,0.27,0.21,-0.50,34.29
16058168,1936,1,183817,195077,-2.34,-0.57,9.83,0.17,0.06,-0.43,34.29
16098167,1969,1,186098,201775,-2.12,-0.67,9.45,0.09,-0.11,-0.37,34.29
16139208,1955,1,189072,211428,-2.50,-0.72,9.92,-0.12,-0.09,-0.47,34.29
16177201,1981,1,196087,227362,-3.12,-0.85,9.82,-0.06,-0.41,-0.37,34.29
16217203,1965,1,200868,233473,-2.15,-0.89,9.51,-0.11,-0.35,-0.19,34.29
16257200,1971,1,203495,239191,-2.48,-0.88,9.81,-0.10,0.09,-0.28,34.29
16297187,1932,1,206556,243592,-2.39,-1.67,9.92,-0.14,0.11,-0.32,34.29
16337201,1900,1,207768,244949,-2.00,-2.25,9.34,-0.46,-0.01,-0.62,34.29
16377204,1882,1,208543,247035,-2.11,-2.33,8.63,-0.47,0.85,-0.94,34.29
16417187,1889,1,210457,249407,-2.21,-1.28,9.61,-0.37,1.53,-0.48,34.29
16457189,1883,1,211022,249585,-3.31,-1.97,10.18,-0.09,0.53,-0.07,34.29
16497187,1914,1,210920,249441,-3.62,-2.06,9.28,0.09,-0.23,-0.05,34.29
16537187,1936,1,210852,249430,-3.70,-2.18,9.02,0.07,-0.17,-0.18,34.29
16577187,1923,1,211111,249660,-3.41,-1.91,9.11,0.04,-0.18,-0.21,34.29
16617188,1909,1,211221,249919,-3.25,-1.78,9.14,0.08,-0.14,-0.00,34.29
16657187,1936,1,211340,250109,-2.75,-1.60,9.28,0.11,-0.17,0.25,34.29
16697167,1937,1,211335,250351,-2.96,-1.67,9.18,0.07,-0.23,0.47,34.29
16737853,1934,1,211563,250760,-2.96,-1.76,9.12,0.12,-0.07,0.57,34.33
16778167,1951,1,211750,251141,-3.06,-2.26,9.04,0.12,0.11,0.41,34.33
16818158,1946,1,211921,251640,-2.93,-2.48,9.37,0.08,0.24,-0.06,34.33
16858167,1946,1,212069,251976,-3.12,-2.38,9.56,0.07,0.01,-0.39,34.33
16898167,1968,1,212224,252076,-2.92,-1.97,9.82,-0.04,-0.18,-0.49,34.33
16938204,2045,1,212098,251989,-3.28,-1.35,9.61,-0.04,-0.03,-0.13,34.33
16978201,2086,1,212031,251942,-3.63,-1.35,9.58,-0.04,-0.08,0.01,34.33
17018188,2086,1,211927,251759,-3.61,-1.01,9.26,-0.10,-0.41,0.07,34.33
17058187,2059,1,211863,251801,-3.06,-0.77,8.74,-0.13,-0.47,0.22,34.33
17098187,2064,1,211952,251536,-2.93,-0.83,8.63,-0.10,-0.17,0.46,34.33
17138187,2027,1,211805,251216,-2.72,-1.07,9.03,0.01,-0.13,0.60,34.33
17177167,2013,1,211637,250919,-2.79,-1.24,8.80,0.02,-0.16,0.67,34.33
17217167,2014,1,211578,250883,-2.89,-0.94,9.10,0.10,-0.03,0.75,34.33
17257167,1982,1,211614,251045,-3.17,-1.24,9.31,0.10,0.09,0.72,34.33
17297158,1975,1,211581,251125,-3.04,-1.12,9.65,-0.00,0.09,0.49,34.33
17337167,1982,1,211605,251542,-3.00,-1.17,9.47,-0.14,0.08,0.30,34.33
17377167,1961,1,211851,251969,-2.82,-1.53,9.37,-0.22,0.47,-0.02,34.33
17417188,1935,1,212013,252380,-3.03,-1.32,9.68,-0.29,0.70,-0.17,34.33
17457187,1979,1,212049,252474,-3.84,-1.87,9.46,-0.03,0.51,-0.25,34.33
17497188,1968,1,212001,252446,-3.85,-1.01,9.63,0.26,0.40,-0.45,34.33
17537167,1983,1,212003,252432,-3.48,-0.34,9.93,0.25,0.21,-0.37,34.33
17577167,1979,1,211953,252190,-3.33,-0.35,9.45,0.30,-0.02,-0.28,34.33
17617187,1970,1,211834,252099,-3.36,-0.24,9.16,0.37,0.22,-0.22,34.33
17657167,1991,1,211788,251872,-3.50,0.29,9.29,0.41,0.31,0.06,34.33
17697135,1970,1,211670,251684,-3.74,-0.09,9.17,0.32,0.18,0.12,34.33
17737159,1951,1,211707,251899,-3.22,-0.28,8.85,-0.01,0.13,-0.14,34.33
17777900,1915,1,211875,251735,-3.04,-0.39,8.23,-0.37,0.13,-0.28,34.37
17818188,1907,1,211769,251531,-3.31,-1.69,8.24,-0.52,-0.05,-0.32,34.37
17858201,1900,1,211693,251718,-4.15,-2.53,8.74,-0.61,0.14,-0.74,34.37
17898188,1854,1,211715,251536,-3.97,-2.24,9.49,-0.42,0.13,-0.82,34.37
17938188,1855,1,211373,251048,-3.31,-2.11,9.48,-0.14,-0.17,-0.74,34.37
17978232,1851,1,211127,250943,-3.38,-1.33,9.13,0.22,0.18,-0.41,34.37
18018168,1835,1,211303,251289,-4.07,-0.77,9.20,0.55,0.60,0.18,34.37
18058158,1809,1,211428,251122,-5.45,-1.13,8.99,0.66,0.49,0.48,34.37
18098159,1814,1,211279,251068,-5.84,-0.75,8.84,0.44,0.32,0.12,34.37
18138158,1797,1,211251,251183,-5.23,0.00,8.71,0.09,-0.10,-0.24,34.37
18178167,1808,1,211247,251264,-4.56,0.44,8.33,0.05,-0.01,0.02,34.37
18218158,1830,1,211241,251189,-4.82,0.20,8.71,0.02,0.26,0.40,34.37
18258135,1825,1,211207,250831,-5.17,-0.23,8.77,-0.09,0.21,0.48,34.37
18298167,1819,1,211204,251012,-4.59,0.03,8.44,-0.22,0.27,0.44,34.37
18338158,1827,1,211539,251832,-5.18,-0.12,7.88,-0.41,0.53,0.54,34.37
18378167,1838,1,211570,251856,-5.21,-0.91,8.67,-0.46,0.11,0.33,34.37
18418167,1842,1,211478,251913,-4.94,-0.98,8.67,-0.60,-0.04,0.05,34.37
18458187,1845,1,211512,252074,-4.91,-1.20,8.63,-0.62,-0.12,0.03,34.37
18498187,1852,1,211495,251959,-5.27,-1.92,8.30,-0.47,-0.07,0.03,34.37
18538187,1841,1,211373,251761,-5.58,-1.64,8.58,-0.28,-0.08,0.05,34.37
18578188,1837,1,211287,251603,-5.45,-1.78,8.09,-0.09,-0.28,0.22,34.37
18618188,1859,1,211243,251559,-5.14,-1.34,7.99,-0.04,-0.16,0.21,34.37
18658187,1833,1,211179,251528,-5.32,-1.13,8.31,-0.05,-0.11,0.34,34.37
18698188,1863,1,211184,251395,-5.17,-1.00,8.47,-0.12,-0.13,0.42,34.37
18738187,1837,1,211214,251618,-5.24,-0.67,8.68,-0.24,-0.11,0.53,34.37
18778875,1835,1,211272,251570,-6.00,-1.01,8.45,-0.27,-0.12,0.76,34.33
18817187,1815,1,211186,251342,-5.84,-1.56,8.71,-0.35,-0.19,0.52,34.33
18857188,1805,1,211156,251237,-5.26,-1.41,8.85,-0.58,-0.39,0.21,34.33
18897187,1825,1,211009,251012,-4.91,-1.24,8.11,-0.54,-0.46,0.26,34.33
18937190,1807,1,210883,251038,-4.49,-1.37,8.40,-0.50,-0.24,0.45,34.33
18977187,1798,1,210919,250881,-3.98,-1.30,8.48,-0.51,-0.33,0.62,34.33
19017188,1776,1,210798,250985,-4.14,-1.72,8.51,-0.46,-0.07,0.86,34.33
19057181,1776,1,210922,251157,-4.55,-1.98,8.74,-0.50,0.10,0.80,34.33
19097167,1779,1,210968,251245,-4.81,-1.97,8.98,-0.56,0.04,0.78,34.33
19137167,1793,1,211038,251384,-4.55,-2.19,8.61,-0.50,-0.18,0.75,34.33
19177188,1744,1,211045,251596,-4.14,-1.73,8.47,-0.44,-0.18,0.72,34.33
19217179,1797,1,211396,252142,-3.81,-2.23,8.60,-0.41,-0.21,1.01,34.33
19257181,1763,1,211655,252061,-3.89,-3.40,8.26,-0.14,-0.15,1.35,34.33
19297179,1749,1,212050,253914,-3.67,-3.43,7.84,0.10,0.03,1.28,34.33
19337157,1729,1,212778,253292,-6.83,-1.30,8.56,-1.21,-0.40,1.30,34.33
19377180,1741,1,212313,252659,-5.52,-2.57,8.49,-1.19,-0.50,0.45,34.33
19417216,1792,1,212013,252315,-3.70,-2.34,8.55,-0.76,-0.29,0.67,34.33
19457180,1791,1,211968,252150,-2.85,-1.90,8.65,-0.40,-0.43,1.05,34.33
19497181,1763,1,211901,252293,-3.39,-2.38,7.20,-0.06,0.07,0.95,34.33
19537164,1787,1,212068,252647,-4.05,-1.92,8.28,0.28,1.07,1.11,34.33
19577153,1842,1,211867,252391,-6.12,-0.04,12.55,0.01,-0.18,0.83,34.33
19617202,1872,1,210895,249870,-5.19,0.28,9.25,-0.37,-1.18,0.37,34.33
19657164,1847,1,208074,243845,-3.91,-1.00,9.35,-0.08,-1.59,0.57,34.33
19697179,1823,1,204058,240104,-3.89,-0.85,9.34,-0.17,-1.76,0.81,34.33
19737181,1877,1,202992,238730,-3.43,-0.68,9.36,-0.41,-0.34,0.87,34.33
19777179,1935,1,201107,235255,-2.92,-0.46,9.76,-0.36,-0.72,0.64,34.33
19817867,1925,1,199624,233514,-2.08,-0.85,9.65,-0.16,-0.36,0.70,34.23
19858179,1929,1,199092,231038,-2.24,-0.14,9.05,-0.15,0.05,0.94,34.23
19898164,2001,1,197518,225941,-2.12,-0.34,9.38,-0.20,0.05,0.75,34.23
19938164,2032,1,194979,219377,-2.72,-0.36,10.01,-0.05,0.01,0.45,34.23
19978164,1994,1,193489,217348,-3.10,-0.36,9.63,0.02,0.07,0.68,34.23
20018149,1963,1,193718,218951,-2.81,-0.38,9.65,-0.08,-0.06,0.56,34.23
20058180,1954,1,193876,219927,-3.01,-0.35,9.51,-0.16,-0.20,0.52,34.23
20098179,1948,1,194083,221724,-3.02,-0.40,9.78,-0.19,-0.13,0.58,34.23
20138180,1899,1,194708,223567,-2.90,-0.60,9.66,-0.14,-0.00,0.67,34.23
20178179,1968,1,195297,224990,-2.52,-0.73,9.86,-0.11,-0.02,0.56,34.23
20218181,1890,1,195490,225579,-2.64,-0.71,9.61,-0.08,-0.21,0.38,34.23
20257179,1882,1,195340,226003,-2.55,-0.75,9.65,-0.13,-0.34,0.19,34.23
20297180,1840,1,195161,0,-2.26,-0.62,9.58,-0.11,-0.38,0.02,34.23
20565958,1759,1,0,221720,-4.60,-128.47,16.55,-1.30,18.59,-1.02,34.23
20978178,1767,1,192797,222429,-1.35,-1.46,8.80,-0.21,-0.47,-0.30,34.23
21018885,1813,1,192441,221280,-1.28,-1.75,9.07,-0.29,-0.36,-0.36,34.09
21057209,1778,1,191950,220515,-1.43,-1.56,9.15,-0.14,-0.17,-0.11,34.09
21097198,1832,1,192058,221535,-1.31,-1.69,9.58,-0.10,0.20,0.11,34.09
21137165,1921,1,192646,222593,-1.79,-1.73,10.13,-0.16,0.20,0.10,34.09
21177165,1873,1,193198,224065,-1.97,-1.58,10.17,-0.11,0.08,0.13,34.09
21217165,1967,1,193962,225617,-1.91,-1.30,10.26,-0.07,0.07,0.12,34.09
21257180,1968,1,194378,226413,-1.80,-1.30,10.00,-0.04,0.09,0.08,34.09
21297165,1957,1,194713,226789,-1.76,-1.24,10.19,-0.07,0.14,0.06,34.09
21337165,1968,1,194640,226560,-1.63,-1.20,10.08,-0.06,-0.02,0.08,34.09
21377181,1969,1,194507,226225,-1.44,-1.25,9.94,-0.13,-0.10,0.18,34.09
21417179,1996,1,194435,226163,-1.06,-1.31,9.66,-0.20,-0.24,0.25,34.09
21457198,2046,1,194581,226381,-0.78,-1.33,9.28,-0.32,-0.25,0.29,34.09
21497179,1968,1,194798,226275,-0.76,-1.19,8.96,-0.43,0.16,0.34,34.09
21537164,2065,1,194658,224770,-1.27,-1.85,10.00,-0.45,0.32,0.32,34.09
21577158,2000,1,193909,221384,-1.64,-1.80,10.43,-0.32,-0.16,0.29,34.09
21617181,2025,1,192985,218806,-1.13,-1.74,9.95,-0.21,-0.33,0.34,34.09
21657179,2066,1,192819,0,-1.01,-1.80,10.09,-0.24,-0.35,0.31,34.09
21925958,2017,1,0,225740,-4.60,-128.47,16.55,-1.30,18.59,-1.02,34.09
22185179,1982,1,195830,225405,-1.40,-2.57,9.59,-0.06,-0.36,-0.23,34.09
22217883,1999,1,195630,225036,-1.35,-2.43,9.47,0.09,-0.30,-0.31,33.93
22258178,2023,1,195107,223692,-1.15,-2.32,9.19,0.26,-0.12,-0.33,33.93
22298180,2032,1,194276,221390,-0.87,-1.93,8.93,0.31,0.13,-0.25,33.93
22338158,2066,1,192911,217440,-0.78,-1.60,9.12,0.30,0.12,-0.26,33.93
22378164,2022,1,191114,213654,-0.51,-1.82,9.37,0.06,0.26,-0.29,33.93
22418158,2011,1,190561,214073,-1.14,-2.25,10.26,-0.07,0.38,-0.38,33.93
22458181,2055,1,191130,215708,-1.31,-2.15,10.39,-0.03,0.22,-0.51,33.93
22498179,2027,1,191752,216718,-1.04,-1.94,9.66,0.04,0.17,-0.65,33.93
22538164,2028,1,192219,217445,-1.07,-1.69,9.45,0.17,0.29,-0.69,33.93
22578164,1987,1,192714,217875,-1.05,-1.43,9.24,0.27,0.44,-0.69,33.93
22618164,2000,1,192909,217135,-1.08,-1.21,9.44,0.24,0.37,-0.72,33.93
22658158,2033,1,192377,213352,-1.14,-1.22,9.58,0.18,0.29,-0.82,33.93
22698158,2026,1,190610,207719,-1.54,-1.44,10.00,0.14,0.32,-0.99,33.93
22738164,1995,1,188942,205952,-1.74,-1.61,10.27,0.16,0.22,-1.21,33.93
22778165,1993,1,189224,207706,-1.81,-1.61,10.13,0.21,0.14,-1.43,33.93
22818164,1925,1,189236,207095,-1.91,-1.44,10.10,0.29,0.15,-1.46,33.93
22858164,1938,1,188816,206203,-2.03,-1.24,10.03,0.37,0.33,-1.36,33.93
22898164,1953,1,189042,206126,-2.51,-1.16,9.79,0.47,0.46,-1.23,33.93
22938164,1922,1,189575,207192,-2.67,-0.84,9.48,0.60,0.42,-1.10,33.93
22978164,1915,1,190570,208612,-2.27,-0.37,8.82,0.59,0.27,-1.07,33.93
23018165,1921,1,191151,210218,-2.30,-0.11,8.74,0.41,0.26,-1.06,33.93
23058164,1936,1,192104,212499,-2.67,-0.59,9.45,0.34,0.19,-1.00,33.93
23098190,1943,1,192315,212045,-2.77,-0.95,9.34,0.22,0.24,-0.96,33.93
23138164,1941,1,191682,212287,-2.74,-1.60,10.01,0.10,0.03,-1.11,33.93
23178164,1882,1,191295,213187,-2.39,-1.86,9.67,0.15,-0.06,-1.21,33.93
23218181,1889,1,190868,214517,-1.87,-2.22,9.59,0.17,0.02,-1.27,33.93
23258851,1936,1,191371,216043,-1.90,-2.13,9.38,0.18,0.06,-1.32,34.25
23297164,1903,1,191465,218139,-1.90,-1.97,9.57,0.18,0.12,-1.34,34.25
23337165,1911,1,193089,221097,-2.01,-1.71,9.24,0.09,0.13,-1.44,34.25
23377164,1904,1,193226,220624,-2.24,-1.71,9.79,-0.08,0.08,-1.53,34.25
23417185,1904,1,192455,219314,-2.48,-1.77,10.26,0.11,0.16,-1.44,34.25
23457164,1927,1,191771,219216,-1.96,-1.67,9.91,0.21,0.17,-1.35,34.25
23497164,1889,1,191728,219789,-2.22,-1.39,9.64,0.15,0.22,-1.33,34.25
23537164,1904,1,191960,222012,-2.36,-1.10,9.62,0.10,0.13,-1.22,34.25
23577165,1904,1,193139,225320,-2.16,-0.79,8.61,-0.13,-0.09,-1.21,34.25
23617197,1875,1,194195,228598,-1.52,-1.03,9.30,-0.33,-0.03,-1.35,34.25
23657198,1872,1,195314,231245,-2.23,-1.42,9.90,-0.18,0.34,-1.27,34.25
23697181,1897,1,196345,232381,-2.62,-1.39,10.20,0.02,0.43,-1.04,34.25
23737165,1909,1,196503,233356,-2.82,-1.56,10.56,0.29,0.43,-0.79,34.25
23777164,1894,1,197482,235277,-2.69,-1.42,10.25,0.38,0.29,-0.50,34.25
23817165,1842,1,197633,233162,-2.18,-1.41,9.96,0.36,0.23,-0.45,34.25
23857164,1894,1,196252,229571,-2.47,-1.44,9.86,0.31,0.24,-0.47,34.25
23897165,1877,1,196223,232483,-2.58,-1.39,9.59,0.31,0.06,-0.46,34.25
23937164,1878,1,198753,236618,-2.37,-1.44,9.30,0.17,0.02,-0.36,34.25
23977165,1879,1,200103,238671,-2.72,-1.13,9.73,0.22,0.14,-0.08,34.25
24017164,1853,1,200779,240751,-2.38,-0.73,9.42,0.22,0.21,0.21,34.25
24057152,1841,1,201363,242327,-2.55,-0.80,9.46,0.06,0.32,0.29,34.25
24097153,1831,1,201833,243241,-2.67,-0.56,9.33,-0.08,-0.01,0.36,34.25
24137182,1846,1,201818,243394,-2.90,-1.23,9.20,-0.16,0.01,0.29,34.25
24177164,1807,1,202094,244034,-3.43,-1.47,9.98,-0.19,-0.04,0.26,34.25
24217185,1831,1,202144,243920,-2.34,-1.55,9.63,-0.21,-0.71,0.01,34.25
24257181,1856,1,201886,243993,-2.42,-1.12,9.41,-0.09,-0.48,0.00,34.25
24297868,1821,1,202198,245154,-3.00,-1.32,10.58,0.31,-0.06,0.33,34.31
24338164,1851,1,202596,245634,-2.73,-0.52,10.09,0.57,-0.59,0.37,34.31
24378164,1853,1,202817,245523,-1.89,-0.33,9.82,0.48,-0.69,0.25,34.31
24418164,1854,1,202597,244598,-1.46,-0.36,9.17,0.19,-0.78,-0.03,34.31
24458183,1841,1,202499,244290,-1.72,-0.42,9.29,-0.02,-0.22,0.26,34.31
24498180,1827,1,202650,244264,-1.35,-0.85,9.72,-0.03,-0.38,0.08,34.31
24538181,1831,1,202989,245014,-1.63,-0.63,9.35,-0.02,-0.23,0.10,34.31
24578179,1777,1,203424,245752,-1.37,-0.72,9.79,0.04,-0.05,0.20,34.31
24618164,1744,1,203638,245813,-1.15,0.71,9.28,0.12,-0.29,0.60,34.31
24658153,1763,1,204091,245926,-1.00,0.07,9.52,-0.02,0.01,0.65,34.31
24698152,1839,1,204501,246140,-0.96,-0.41,9.61,-0.35,0.14,0.40,34.31
24738169,1771,1,204900,246677,-0.92,-0.34,10.13,-0.34,0.45,0.17,34.31
24778164,1926,1,205012,246826,-0.55,-0.37,10.43,-0.14,0.33,0.03,34.31
24818164,2031,1,204983,246795,-0.64,0.21,10.15,0.30,0.23,0.15,34.31
24858133,2055,1,205065,246978,-0.62,0.72,10.06,0.69,0.10,0.36,34.31
24898130,2087,1,205312,247158,-1.10,0.62,9.92,0.61,0.15,0.33,34.31
24938133,2038,1,205538,247563,-2.28,0.38,9.99,0.35,0.64,0.18,34.31
24978131,2031,1,205696,247375,-2.71,0.10,10.58,0.06,0.50,-0.02,34.31
25018153,2065,1,205542,247106,-2.78,0.39,10.19,-0.10,-0.09,-0.08,34.31
25058180,2037,1,205386,247047,-2.16,-0.08,9.71,-0.18,-0.29,-0.10,34.31
25098198,2018,1,205225,247014,-1.87,-0.13,9.62,-0.11,-0.16,-0.12,34.31
25138198,2032,1,205135,246957,-1.73,0.00,9.95,-0.00,-0.01,-0.06,34.31
25178181,1987,1,204977,246935,-1.84,0.44,9.80,-0.01,-0.03,-0.01,34.31
25218180,1930,1,204701,246835,-1.48,1.07,9.73,-0.16,-0.16,-0.10,34.31
25258183,1935,1,204275,246723,-1.23,1.04,9.01,-0.38,0.01,0.01,34.31
25298838,1911,1,204160,246640,-2.17,1.03,9.56,-0.28,0.48,0.59,34.43
25337155,1899,1,204202,246517,-2.43,0.34,9.65,-0.07,-0.08,1.00,34.43
25377165,1900,1,204275,246463,-2.89,-0.30,9.15,-0.06,-0.13,1.06,34.43
25417185,1872,1,204223,246319,-2.41,-0.32,9.44,-0.29,-0.17,0.72,34.43
25457181,1920,1,203933,246341,-1.77,-0.15,9.18,-0.49,-0.26,0.51,34.43
25497185,1899,1,203835,246386,-1.84,-0.18,9.46,-0.54,0.12,0.52,34.43
25537164,1897,1,203832,246209,-1.91,-0.22,10.15,-0.49,0.05,0.52,34.43
25577165,1873,1,203583,246084,-1.90,-0.30,9.96,-0.52,-0.20,0.39,34.43
25617179,1876,1,203369,246059,-1.62,-0.10,10.25,-0.48,-0.15,0.38,34.43
25657185,1895,1,203367,246011,-2.11,-0.08,10.53,-0.39,-0.10,0.62,34.43
25697181,1894,1,203457,245921,-2.80,-0.73,10.60,-0.23,-0.25,0.73,34.43
25737185,1887,1,203470,245826,-2.31,-0.43,10.13,-0.25,-0.51,0.61,34.43
25777182,1926,1,203488,245889,-2.39,-1.07,9.54,-0.19,-0.44,0.63,34.43
25817185,1950,1,203537,245939,-2.18,-1.30,9.35,-0.15,-0.35,0.49,34.43
25857180,1936,1,203458,245848,-2.04,-0.84,9.10,-0.09,-0.21,0.67,34.43
25897181,1934,1,203486,245916,-2.31,-1.16,9.27,-0.01,0.11,0.80,34.43
25937164,1611,1,203467,245962,-2.16,-0.69,9.83,-0.07,0.12,0.75,34.43
25977164,1669,1,203340,245977,-1.52,-0.27,9.22,-0.17,-0.10,0.67,34.43
26017180,1921,1,203247,246126,-1.24,-0.30,9.43,-0.29,0.16,0.78,34.43
26057164,1889,1,203401,246171,-1.72,-0.61,10.03,-0.35,0.28,1.03,34.43
26097164,1899,1,203722,246139,-2.72,-1.79,10.69,-0.21,0.16,1.39,34.43
26137164,1856,1,203833,245797,-2.29,-1.77,11.03,-0.19,-0.41,1.20,34.43
26177202,1887,1,203641,245927,-1.19,-1.78,10.55,-0.40,-0.86,0.80,34.43
26217185,1856,1,203228,246033,0.13,-0.77,9.89,-0.45,-1.03,0.52,34.43
26257165,1863,1,203083,246001,0.53,-0.45,9.62,-0.38,-0.61,1.02,34.43
26297165,1829,1,203248,245913,-0.65,-1.48,10.05,0.02,-0.10,1.60,34.43
26337851,1831,1,203407,245994,-0.81,-1.56,9.84,0.19,-0.40,1.47,34.21
26378193,1857,1,203478,246142,-0.64,-1.32,9.54,-0.05,-0.13,0.98,34.21
26418180,1841,1,203499,246134,-0.87,-1.05,9.83,-0.10,-0.04,0.84,34.21
26458182,1808,1,203448,246149,-0.91,-1.18,9.43,-0.15,-0.25,0.77,34.21
26498181,1797,1,203337,246201,-0.61,-1.16,8.95,-0.09,-0.23,0.71,34.21
26538186,1823,1,203174,246222,-0.07,-0.98,8.71,-0.05,-0.02,0.58,34.21
26578204,1849,1,203043,246095,-0.43,-0.97,9.13,0.03,0.32,0.61,34.21
26618157,1801,1,203082,246204,-0.09,-1.05,9.63,0.20,0.08,0.54,34.21
26658153,1798,1,203196,246360,0.01,-1.25,9.61,0.23,0.19,0.24,34.21
26698134,1813,1,203241,246223,-0.05,-0.94,10.01,0.26,0.52,-0.04,34.21
26738164,1840,1,203304,245999,-0.50,-0.28,10.68,0.75,0.66,0.39,34.21
26778153,1810,1,203436,245935,-0.73,0.38,10.61,0.97,0.32,0.70,34.21
26818134,1841,1,203698,246064,-1.11,0.67,10.30,0.43,0.46,0.49,34.21
26858134,1800,1,203874,246081,-1.39,0.77,10.52,-0.20,0.33,0.01,34.21
26898152,1858,1,203708,246273,-0.54,1.03,9.80,-0.61,-0.28,-0.29,34.21
26938187,1847,1,203546,246357,0.09,0.79,8.94,-0.68,-0.27,-0.32,34.21
26978164,1847,1,203534,246276,-0.22,0.25,9.49,-0.26,0.21,0.10,34.21
27018157,1911,1,203736,246162,-0.88,-0.04,10.21,0.26,0.21,0.39,34.21
27058153,1895,1,203899,246250,-1.21,0.08,10.07,0.36,0.14,0.32,34.21
27098135,1910,1,203895,246370,-1.21,0.32,10.09,0.22,0.26,0.05,34.21
27138134,1900,1,203787,246386,-1.14,0.68,9.76,0.26,0.20,-0.08,34.21
27178157,1994,1,203447,246378,-0.64,0.34,9.21,0.31,0.16,-0.06,34.21
27218153,1983,1,202985,246055,-0.59,1.36,7.76,0.82,0.10,0.34,34.21
27258135,1970,1,202607,245676,-2.09,3.34,11.52,0.05,-0.76,0.13,34.21
27298152,2030,1,201709,243727,-2.21,1.17,10.20,0.14,-1.13,0.24,34.21
27338844,1984,1,200773,242187,-0.28,0.95,10.65,0.08,-0.44,0.29,34.31
27377157,1935,1,200303,242065,0.04,0.95,9.52,-0.25,-0.15,0.19,34.31
27417157,2032,1,200061,242128,-0.12,0.31,8.69,-0.76,0.31,-0.13,34.31
27457166,1975,1,199720,241871,-0.91,-0.18,9.60,-0.95,0.65,-0.14,34.31
27497186,1988,1,199777,242824,-1.02,-1.12,10.59,-0.70,0.22,-0.26,34.31
27537186,2022,1,199992,242842,-0.96,-0.71,9.90,-0.39,0.36,-0.18,34.31
27577186,1855,1,199540,241221,-1.77,-0.98,10.41,-0.06,0.52,-0.00,34.31
27617186,1995,1,198809,239689,-2.01,-0.65,10.34,0.04,0.21,-0.11,34.31
27657166,1940,1,198244,238462,-1.81,-0.04,9.83,-0.00,-0.02,-0.22,34.31
27697199,1953,1,197685,237333,-2.09,0.48,9.75,0.05,-0.30,-0.41,34.31
27737166,1882,1,197208,235594,-2.23,0.96,8.52,0.42,-0.23,-0.09,34.31
27777166,1841,1,196777,234339,-2.29,0.17,8.71,0.27,0.76,0.35,34.31
27817134,1890,1,196818,233784,-3.10,0.14,11.18,-0.06,0.86,0.29,34.31
27857155,1847,1,196310,231485,-3.04,-0.07,11.08,-0.07,-0.15,0.04,34.31
27897186,1840,1,195115,228477,-1.92,0.22,9.85,-0.05,-0.45,0.19,34.31
27937165,1874,1,193885,225881,-0.86,0.25,9.60,-0.20,-0.37,0.32,34.31
27977166,1821,1,193580,225286,-0.80,0.06,9.63,-0.38,-0.08,0.42,34.31
28017190,1897,1,194003,226669,-1.03,-0.03,9.73,-0.68,0.19,0.44,34.31
28057165,1794,1,195099,229621,-1.38,-0.15,10.38,-0.72,-0.20,0.18,34.31
28097182,1830,1,196035,231554,-1.49,-0.70,10.66,-0.58,-0.40,0.23,34.31
28137185,1785,1,196473,232089,-1.42,-0.97,10.82,-0.35,-0.39,0.42,34.31
28177185,1879,1,196572,232105,-0.94,-1.23,10.83,-0.20,-0.51,0.46,34.31
28217185,1808,1,196792,232429,-0.42,-1.04,10.36,-0.07,-0.70,0.35,34.31
28257181,1866,1,196869,232891,0.15,-1.00,9.88,-0.13,-0.64,0.17,34.31
28297165,1929,1,196747,233348,0.61,-1.03,9.73,-0.35,-0.40,-0.10,34.31
28337181,1942,1,196586,233511,0.03,-1.29,10.17,-0.22,-0.23,-0.22,34.31
28377871,1950,1,196387,233344,-0.31,-1.01,10.07,0.19,-0.03,0.08,34.13
28418164,1989,1,196571,231495,-0.39,-0.97,9.53,0.37,0.41,0.39,34.13
28458157,1895,1,196166,229001,-1.28,-0.96,10.08,0.34,0.43,0.17,34.13
28498152,1951,1,195663,226982,-1.70,-0.95,9.79,0.37,0.17,-0.09,34.13
28538166,1950,1,195076,225446,-1.29,-0.77,9.53,0.37,0.23,-0.12,34.13
28578164,1943,1,194559,224014,-1.49,-0.68,9.13,0.30,0.42,-0.13,34.13
28618164,2044,1,194153,222979,-1.69,-0.73,9.72,0.18,0.37,-0.13,34.13
28658164,2017,1,193654,222049,-2.24,-0.69,9.81,0.19,0.34,-0.16,34.13
28698166,1999,1,193066,220392,-2.32,-0.94,9.80,0.30,0.27,-0.11,34.13
28738164,2043,1,192446,218316,-2.09,-0.78,9.53,0.25,0.21,-0.20,34.13
28778164,2033,1,191725,216169,-1.87,-0.53,9.78,0.16,0.16,-0.37,34.13
28818164,1996,1,191114,214910,-1.75,-0.35,9.39,0.16,0.08,-0.56,34.13
28858164,2014,1,190759,214814,-1.43,-0.25,9.50,0.17,0.20,-0.68,34.13
28898164,2034,1,190773,216090,-1.60,0.04,9.44,0.21,0.06,-0.91,34.13
28938152,1961,1,191437,218100,-2.16,0.80,8.88,0.19,-0.07,-0.94,34.13
28978164,1916,1,191722,218313,-2.01,0.67,8.94,-0.19,0.15,-0.79,34.13
29018166,1889,1,191513,217570,-2.70,0.14,10.72,-0.20,0.46,-0.82,34.13
29058164,1878,1,191533,216730,-2.86,0.05,10.83,0.22,-0.00,-0.98,34.13
29098166,1824,1,191058,215499,-2.21,0.18,9.84,0.15,-0.13,-1.13,34.13
29138164,1904,1,190632,216083,-2.51,-0.24,10.27,0.07,-0.08,-1.30,34.13
29178182,1911,1,190324,214731,-2.44,-0.16,10.06,0.14,-0.43,-1.34,34.13
29218180,1894,1,188939,209125,-2.11,-0.13,9.67,0.07,-0.26,-1.24,34.13
29258182,1843,1,187677,210355,-2.56,-0.62,10.10,0.13,0.01,-1.20,34.13
29298164,1936,1,189294,213337,-2.02,-0.22,8.82,0.25,-0.41,-1.20,34.13
29338185,1898,1,188594,210419,-1.29,0.29,8.38,0.27,-0.18,-0.98,34.13
29378850,1904,1,188272,213596,-1.09,0.02,8.77,0.17,0.39,-0.83,34.25
29417153,1854,1,189965,220860,-1.63,-0.52,9.67,-0.06,0.42,-1.07,34.25
29457180,1856,1,193321,227013,-2.99,-1.23,11.50,0.17,0.48,-1.08,34.25
29497164,1805,1,194347,228287,-1.62,-0.83,9.90,-0.03,-0.54,-1.20,34.25
29537198,1809,1,194153,227985,-1.00,-0.95,9.30,-0.16,-0.34,-1.06,34.25
29577197,1731,1,193451,225113,-0.79,-1.20,9.21,-0.25,-0.06,-1.00,34.25
29617198,1776,1,192329,222033,-1.35,-2.23,9.67,-0.31,0.36,-1.10,34.25
29657201,1799,1,191848,221787,-2.57,-2.19,10.37,-0.20,0.38,-1.25,34.25
29697182,1767,1,192526,223195,-1.76,-1.73,9.62,-0.02,-0.03,-1.31,34.25
29737198,1776,1,192968,224027,-1.45,-1.50,9.35,-0.02,0.22,-1.30,34.25
29777181,1777,1,193215,223886,-2.13,-1.35,10.71,0.16,0.41,-1.19,34.25
29817165,1789,1,192995,223105,-2.16,-1.00,10.66,0.37,0.12,-1.08,34.25
29857204,1804,1,192745,221756,-2.32,-1.04,10.25,0.37,0.18,-0.88,34.25
29897164,1732,1,192720,223341,-2.07,-1.10,9.94,0.27,0.34,-0.63,34.25
29937164,1819,1,193662,225450,-1.72,-1.47,9.63,0.20,0.20,-0.52,34.25
29977165,1789,1,194479,228522,-2.39,-1.12,10.06,0.25,0.13,-0.46,34.25
30017164,1803,1,196631,233820,-2.36,-0.78,9.78,0.26,0.05,-0.26,34.25
30057164,1818,1,198544,236909,-2.48,-0.27,9.63,0.15,-0.30,-0.23,34.25
30097179,1808,1,199337,238473,-1.94,-0.23,9.27,0.04,-0.58,-0.27,34.25
30137181,1749,1,200081,238818,-1.94,-0.49,9.31,0.05,-0.16,-0.07,34.25
30177179,1808,1,199956,237259,-1.26,-0.06,9.57,0.16,-0.01,0.05,34.25
30217164,1753,1,200391,238555,-1.31,0.89,9.67,0.34,0.26,0.35,34.25
30257129,1774,1,201789,241075,-2.18,0.64,9.97,0.29,0.35,0.99,34.25
30298132,1763,1,203596,244040,-2.74,0.02,9.93,-0.40,0.57,0.99,34.25
30338149,1729,1,205134,245721,-3.00,-0.45,10.15,-0.78,0.23,0.60,34.25
30378164,1728,1,205775,246271,-3.06,-1.06,9.69,-0.77,-0.30,0.48,34.25
30418865,1750,1,206053,246673,-2.81,-1.75,9.77,-0.46,-0.43,0.39,34.23
30457181,1794,1,206204,246707,-2.37,-1.20,9.49,-0.15,-0.37,0.42,34.23
30497179,1843,1,206245,246751,-1.77,-0.96,9.61,0.06,-0.28,0.52,34.23
30537164,1856,1,206293,246973,-1.35,-0.73,9.31,0.03,-0.19,0.47,34.23
30577159,1879,1,206592,247619,-1.33,-0.62,9.15,0.03,0.22,0.50,34.23
30617153,1926,1,207370,248490,-2.09,-0.48,9.80,0.04,0.65,0.63,34.23
30657149,1917,1,208178,249149,-2.87,-0.58,10.32,0.11,0.31,0.62,34.23
30697153,1957,1,208544,249169,-3.07,-0.41,10.28,0.11,-0.09,0.47,34.23
30737159,1984,1,208403,248524,-2.90,-0.09,9.86,-0.01,-0.10,0.27,34.23
30777180,1995,1,208279,248329,-2.64,0.20,9.95,0.05,-0.06,0.25,34.23
30817150,2009,1,208177,248326,-2.15,0.77,9.48,0.00,-0.16,0.31,34.23
30857153,2005,1,208275,248546,-2.56,0.81,9.30,0.08,0.08,0.54,34.23
30897129,2032,1,208601,249344,-2.77,0.12,9.51,0.05,0.20,0.43,34.23
30937132,1993,1,208744,249742,-2.49,0.37,9.45,-0.18,0.13,-0.12,34.23
30977164,1983,1,208673,249856,-2.19,0.62,9.98,-0.23,0.20,-0.03,34.23
31017164,1990,1,208414,249688,-1.91,0.00,9.67,-0.22,-0.06,0.08,34.23
31057159,1955,1,208253,249639,-1.75,-0.38,9.80,-0.29,0.05,0.03,34.23
31097164,1991,1,208167,249366,-1.99,-0.75,9.73,-0.41,0.11,0.11,34.23
31137164,1966,1,208214,249698,-2.13,-1.12,9.65,-0.73,0.10,0.03,34.23
31177164,1967,1,208135,249742,-2.53,-1.64,10.00,-0.82,-0.20,-0.14,34.23
31217198,1953,1,207964,249575,-2.27,-1.50,9.73,-0.77,-0.50,-0.02,34.23
31257197,1947,1,207730,249440,-1.95,-2.05,9.52,-0.82,-0.60,0.00,34.23
31298185,1965,1,207365,248827,-1.95,-2.07,9.45,-0.73,-0.47,0.02,34.23
31338181,1947,1,207077,248180,-1.87,-1.96,9.67,-0.48,-0.41,0.39,34.23
31378179,1951,1,206726,247346,-1.79,-1.98,8.96,-0.18,-0.51,0.72,34.23
31418867,1951,1,206221,247066,-1.17,-1.49,8.36,-0.13,-0.18,0.74,34.17
31457181,1936,1,206224,247320,-0.89,-1.83,8.99,-0.29,0.16,0.76,34.17
31497200,1941,1,206399,247624,-1.39,-2.38,9.72,-0.33,0.27,0.66,34.17
31537164,1922,1,206490,247721,-1.82,-2.36,10.56,-0.33,0.12,0.43,34.17
31577165,1942,1,206326,247416,-2.14,-2.40,10.30,-0.49,-0.17,0.16,34.17
31617181,1955,1,205922,246539,-2.57,-2.35,9.78,-0.51,-0.16,0.19,34.17
31657185,1935,1,205301,245672,-2.47,-3.11,9.25,-0.66,-0.17,0.12,34.17
31697201,1909,1,204974,245862,-2.48,-2.59,9.21,-0.61,-0.17,0.08,34.17
31737187,1916,1,205171,245951,-2.96,-3.73,8.65,-0.36,-0.31,0.24,34.17
31777182,1904,1,205209,245978,-3.66,-3.44,8.56,-0.13,-0.24,0.11,34.17
31817185,1872,1,205373,245811,-3.04,-3.01,9.18,0.03,-0.19,0.21,34.17
31857164,1871,1,205084,244626,-2.36,-2.38,9.11,0.16,-0.50,0.45,34.17
31897165,1841,1,204634,243731,-2.04,-2.68,9.26,0.20,-0.02,0.63,34.17
31937165,1835,1,204701,243737,-1.48,-2.21,9.95,0.12,0.19,0.59,34.17
31977155,1826,1,204793,243900,-1.57,-1.94,9.55,0.15,0.22,0.92,34.17
32017153,1838,1,205328,244832,-2.42,-2.54,9.50,0.25,0.44,0.94,34.17
32057154,1852,1,205694,245186,-2.93,-2.18,9.87,0.02,0.03,0.64,34.17
32097153,1848,1,205882,245465,-3.26,-2.40,9.32,-0.08,-0.27,0.77,34.17
32137182,1873,1,206228,245886,-3.32,-2.61,9.50,-0.09,-0.18,0.81,34.17
32177179,1867,1,206469,246160,-3.48,-2.60,9.73,0.04,-0.34,1.01,34.17
32217164,1903,1,206665,246383,-3.51,-3.07,10.16,0.47,-0.50,1.50,34.17
32257164,1931,1,206660,246704,-1.86,-2.87,9.63,0.26,-0.99,1.13,34.17
32297165,1953,1,206703,246771,-1.09,-2.77,9.21,0.09,-0.60,0.99,34.17
32338164,1973,1,206689,246524,-1.59,-2.37,9.72,0.44,-0.06,1.21,34.17
32378164,2010,1,206463,246446,-0.96,-1.55,9.53,0.34,-0.26,0.78,34.17
32418164,2046,1,206335,245794,-0.89,-0.80,9.25,-0.06,0.08,0.11,34.17
32458850,2054,1,206050,244998,-1.19,-0.10,9.58,-0.10,0.25,0.01,34.21
32497159,2043,1,206000,244997,-1.73,0.30,9.91,0.20,0.32,0.56,34.21
32537133,2055,1,206327,245676,-2.02,-0.30,9.70,0.23,0.17,0.83,34.21
32577153,2059,1,206528,246118,-2.16,-0.57,9.44,0.09,-0.09,0.54,34.21
32617164,2029,1,206664,246698,-1.82,-0.61,8.95,-0.21,-0.16,0.29,34.21
32657181,2020,1,206687,247090,-1.30,-0.32,8.25,-0.43,-0.20,0.10,34.21
32697182,1969,1,206795,247321,-1.28,-0.21,8.60,-0.42,-0.17,0.12,34.21
32737180,1989,1,206783,247279,-1.71,-0.86,9.47,-0.24,-0.15,0.57,34.21
32777182,1936,1,207086,247710,-1.96,-1.31,9.64,-0.07,0.23,0.78,34.21
32817164,1954,1,207514,248267,-2.38,-1.47,10.44,-0.08,0.69,0.61,34.21
32857166,1912,1,207782,248270,-2.66,-1.44,11.06,-0.17,0.42,0.31,34.21
32897165,1902,1,207723,248330,-2.27,-1.38,10.47,-0.24,0.02,0.03,34.21
32937165,1852,1,207679,248560,-2.08,-0.99,9.93,0.03,0.08,-0.03,34.21
32977165,1850,1,207547,247827,-1.70,-0.31,10.02,0.31,0.18,0.09,34.21
33017157,1829,1,207137,247355,-1.58,0.32,9.71,0.45,0.02,0.31,34.21
33057132,1791,1,207333,247331,-1.44,1.96,9.41,0.33,0.05,0.86,34.21
33097133,1815,1,207453,247472,-2.46,-1.32,8.94,0.30,0.37,0.46,34.21
33137153,1776,1,207251,246938,-3.12,0.70,11.52,0.06,-0.21,0.26,34.21
33177157,1747,1,206454,246355,-2.30,-0.31,9.74,-0.03,-0.84,0.21,34.21
33217181,1767,1,204832,244488,-1.71,0.95,9.78,-0.13,-0.75,-0.26,34.21
33257185,1853,1,202630,243629,-1.09,0.41,9.82,-0.11,-0.71,-0.26,34.21
33297182,1844,1,201903,245212,-0.72,-0.12,9.49,-0.19,-0.46,-0.38,34.21
33337199,1849,1,202464,246838,-0.66,0.36,9.66,-0.06,0.14,-0.21,34.21
33377165,1765,1,202436,246528,-1.08,0.20,10.14,0.04,0.19,-0.14,34.21
33417155,1850,1,202009,245709,-1.25,-0.08,10.12,-0.00,0.15,-0.06,34.21
33457180,1861,1,201280,244384,-1.33,0.34,10.02,-0.08,0.45,0.04,34.21
33497841,1851,1,201043,243072,-1.90,-0.63,9.80,-0.32,0.61,0.06,34.17
33538164,1802,1,200017,237619,-2.73,-0.56,10.45,-0.31,0.16,0.12,34.17
33578165,1835,1,198278,234242,-2.01,-0.72,9.40,-0.29,-0.35,0.11,34.17
33618180,1840,1,197886,233250,-1.81,-0.71,9.93,-0.09,-0.61,-0.02,34.17
33658198,1863,1,197445,232027,-1.94,-0.58,9.01,-0.06,-0.70,-0.03,34.17
33698198,1895,1,196716,230929,-1.13,-0.96,9.35,-0.06,-0.43,0.09,34.17
33738182,1906,1,196166,230199,-1.37,-1.00,9.78,-0.04,-0.12,0.11,34.17
33778180,1890,1,195892,229826,-1.68,-1.14,10.11,0.05,-0.08,0.15,34.17
33818166,1874,1,195888,229663,-1.36,-1.02,9.88,0.01,0.09,0.11,34.17
33858152,1889,1,195846,229581,-1.58,-0.71,9.96,0.03,0.21,0.01,34.17
33898152,1893,1,195527,229458,-1.55,-0.76,10.04,0.13,0.03,0.01,34.17
33938152,1872,1,195333,229369,-1.32,-0.53,9.71,0.20,0.09,0.00,34.17
33978152,1864,1,194897,229239,-1.29,-0.33,9.48,0.29,0.29,-0.13,34.17
34018164,1886,1,194584,229078,-1.43,-0.38,9.60,0.35,0.23,-0.20,34.17
34058166,1879,1,194438,228035,-1.23,-0.51,9.27,0.30,0.40,-0.27,34.17
34098164,1895,1,193755,225051,-1.25,-0.36,9.49,0.10,0.65,-0.30,34.17
34138164,1860,1,192721,222328,-1.60,0.08,9.85,-0.13,0.41,-0.27,34.17
34178164,1832,1,192095,220366,-1.66,0.22,10.11,-0.29,0.25,-0.16,34.17
34218166,1957,1,191506,218797,-1.70,0.03,9.87,-0.43,0.02,-0.08,34.17
34258164,1933,1,191357,218598,-1.85,0.19,10.20,-0.44,0.03,0.03,34.17
34298152,1920,1,191802,219125,-2.06,-0.26,10.58,-0.33,-0.14,0.19,34.17
34338181,1925,1,192020,219548,-1.77,-0.55,10.53,-0.28,-0.33,0.05,34.17
34378185,1908,1,192091,220230,-1.80,-0.71,10.78,-0.20,-0.49,-0.02,34.17
34418199,1975,1,192176,220998,-1.29,-0.52,10.41,0.02,-0.69,0.02,34.17
34458166,2015,1,192313,221935,-0.88,-0.21,10.05,0.03,-0.51,0.01,34.17
34498850,1973,1,192781,223034,-1.18,0.05,10.17,0.01,-0.20,0.11,34.17
34537152,2011,1,193550,223986,-1.40,0.10,10.24,-0.03,0.04,0.20,34.17
34577153,2013,1,193941,224139,-2.13,-0.01,10.23,-0.05,0.03,0.17,34.17
34617164,2032,1,194306,223887,-2.41,-0.14,9.96,0.14,-0.17,0.28,34.17
34657164,2035,1,193679,220791,-1.51,-0.33,9.18,0.16,-0.19,0.18,34.17
34697164,2003,1,192097,216943,-1.28,-0.74,8.84,0.13,-0.09,0.10,34.17
34737159,1954,1,190839,214645,-1.36,-1.12,8.99,0.06,0.05,0.13,34.17
34777198,1989,1,190307,213976,-1.75,-1.22,9.06,-0.05,0.12,0.09,34.17
34817164,1967,1,190096,214049,-1.90,-1.58,9.44,-0.09,0.05,0.01,34.17
34857164,1962,1,190344,215660,-1.83,-1.83,9.94,-0.15,0.02,-0.18,34.17
34897181,1920,1,190982,217571,-1.66,-1.86,9.86,-0.06,-0.03,-0.37,34.17
34937198,1930,1,191432,218634,-1.29,-1.50,9.61,0.05,0.12,-0.52,34.17
34977215,1936,1,191630,219102,-1.40,-1.34,9.86,0.10,0.29,-0.69,34.17
35017164,1983,1,191664,219147,-1.59,-1.19,9.91,0.18,0.31,-0.79,34.17
35057164,1942,1,191515,218583,-1.46,-0.98,9.78,0.30,0.30,-0.83,34.17
35097164,1973,1,191238,217765,-1.54,-0.90,9.74,0.36,0.29,-0.88,34.17
35137164,1927,1,190879,216474,-1.65,-0.46,9.39,0.46,0.23,-0.93,34.17
35177165,1936,1,190212,213870,-1.88,-0.31,9.24,0.54,0.22,-0.97,34.17
35217164,1950,1,188566,207856,-2.12,0.11,9.56,0.53,0.12,-0.96,34.17
35257153,1937,1,186404,203954,-2.28,0.27,9.73,0.37,0.11,-1.09,34.17
35297153,1920,1,185892,204556,-2.77,0.23,10.17,0.22,0.09,-1.24,34.17
35337152,1937,1,186311,206963,-2.86,0.19,10.22,0.13,-0.20,-1.41,34.17
35377164,1927,1,187203,210036,-2.85,0.04,10.25,0.14,-0.33,-1.47,34.17
35417165,1897,1,188021,212574,-2.98,-0.07,10.35,0.32,-0.33,-1.38,34.17
35457181,1881,1,188694,214641,-2.20,0.53,9.77,0.44,-0.49,-1.40,34.17
35497164,1873,1,189344,216173,-1.73,0.15,9.61,0.30,-0.07,-1.56,34.17
35537850,1873,1,189801,217241,-2.72,-0.58,9.84,0.31,0.30,-1.63,34.31
35578165,1903,1,190349,218464,-2.51,-0.26,9.12,0.51,0.09,-1.51,34.31
35618164,1872,1,190719,219224,-1.57,0.23,8.41,0.57,0.08,-1.43,34.31
35658152,1871,1,191075,220166,-2.10,0.12,9.21,0.45,0.37,-1.32,34.31
35698152,1844,1,191396,220725,-2.85,-0.11,9.97,0.25,0.23,-1.20,34.31
35738165,1887,1,191479,220351,-2.76,-0.12,9.82,0.16,-0.16,-1.11,34.31
35778180,1887,1,190935,218275,-1.98,-0.33,9.69,0.02,-0.29,-1.12,34.31
35818185,1871,1,190422,218141,-1.51,-0.62,9.74,-0.09,-0.32,-1.18,34.31
35858198,1817,1,190949,220061,-2.10,-0.76,10.31,0.06,-0.14,-1.03,34.31
35898182,1811,1,191585,221886,-1.67,-0.71,10.19,0.30,-0.24,-0.95,34.31
35938181,1872,1,192231,223769,-1.63,-0.40,9.94,0.29,-0.18,-1.02,34.31
35978182,1873,1,193021,225853,-1.57,-0.27,9.90,0.27,-0.10,-1.01,34.31
36018180,1888,1,193830,227964,-1.50,-0.20,9.86,0.24,-0.12,-1.03,34.31
36058182,1870,1,194617,229760,-1.64,0.01,9.77,0.11,-0.12,-1.12,34.31
36098164,1856,1,195380,231815,-1.81,0.13,9.81,0.00,-0.10,-1.12,34.31
36138164,1851,1,196239,233464,-1.92,0.10,9.92,0.04,-0.19,-1.01,34.31
36178164,1872,1,196790,234970,-1.86,0.17,9.44,-0.01,-0.09,-0.95,34.31
36218216,1904,1,197269,236217,-2.01,0.12,9.73,-0.11,-0.00,-0.84,34.31
36258181,1890,1,197630,237133,-2.06,-0.09,9.70,-0.12,-0.08,-0.74,34.31
36298199,1875,1,197715,236998,-2.07,-0.11,9.65,-0.08,-0.15,-0.57,34.31
36338199,1891,1,197155,233579,-1.78,-0.09,9.42,-0.07,-0.11,-0.42,34.31
36378199,1879,1,196013,231315,-1.92,-0.09,9.69,-0.08,-0.08,-0.31,34.31
36418202,1881,1,195424,230798,-2.09,-0.12,9.84,-0.04,-0.09,-0.17,34.31
36458199,1930,1,195580,231552,-1.78,-0.09,9.84,-0.08,-0.15,-0.06,34.31
36498198,1855,1,196018,232660,-1.66,-0.19,9.95,-0.17,-0.06,0.03,34.31
36538866,1883,1,196631,234603,-1.67,-0.46,10.11,-0.25,-0.04,0.08,34.29
36577179,1901,1,197366,235770,-1.85,-0.87,10.21,-0.31,-0.16,0.04,34.29
36617214,1872,1,197836,237395,-1.05,-0.61,9.63,-0.29,-0.25,-0.03,34.29
36657198,1811,1,198852,239727,-1.05,-0.97,9.98,-0.26,0.13,-0.09,34.29
36697181,1724,1,199651,240786,-1.47,-1.35,10.49,-0.24,0.20,-0.07,34.29
36737179,1785,1,199826,241161,-1.40,-0.93,9.90,-0.19,-0.07,-0.02,34.29
36777197,1771,1,200133,241900,-1.29,-0.78,9.31,0.12,0.10,-0.03,34.29
36817181,1784,1,200193,241974,-1.44,-0.43,9.86,0.24,0.11,0.13,34.29
36857153,1743,1,200344,242179,-1.65,-0.42,9.60,0.06,-0.07,0.28,34.29
36897164,1807,1,200684,242046,-1.83,-0.54,9.81,-0.04,-0.13,0.32,34.29
36937180,1803,1,200403,240403,-1.37,-0.43,9.76,-0.10,-0.35,0.34,34.29
36977179,1841,1,200033,239982,-1.17,-0.41,9.18,-0.15,-0.18,0.41,34.29
37017181,1833,1,200511,240840,-1.71,-0.55,9.66,-0.12,0.16,0.56,34.29
37057159,1891,1,200923,241365,-1.70,-0.68,9.96,-0.06,-0.14,0.61,34.29
37097181,1899,1,201158,242003,-1.60,-0.84,9.88,-0.16,-0.19,0.48,34.29
37137179,1916,1,201501,242317,-1.38,-0.70,10.18,-0.28,-0.08,0.33,34.29
37177181,1965,1,201326,242014,-1.21,-0.83,9.96,-0.33,-0.31,0.22,34.29
37217180,1951,1,201197,242273,-0.92,-0.73,9.79,-0.42,0.10,-0.04,34.29
37257181,1969,1,201479,242644,-1.83,-1.03,10.50,-0.41,0.40,-0.08,34.29
37297179,1974,1,201599,242610,-1.98,-1.08,10.49,-0.18,-0.03,0.04,34.29
37337181,1941,1,201516,242861,-1.38,-1.07,9.75,-0.16,-0.17,-0.05,34.29
37377198,1959,1,201605,243198,-1.37,-0.90,9.34,-0.10,0.11,-0.09,34.29
37417181,1935,1,201522,242954,-0.93,-0.55,9.36,0.03,0.13,-0.04,34.29
37457159,1975,1,201339,242636,-0.79,-0.51,9.05,0.09,0.18,0.05,34.29
37497153,1965,1,201379,242090,-1.07,-0.69,9.50,0.27,0.45,0.20,34.29
37537150,1920,1,200829,240142,-1.14,-1.02,9.03,0.31,0.37,0.17,34.29
37577839,1948,1,200541,239626,-1.77,-1.01,9.58,0.44,0.63,0.03,34.45
37618151,1936,1,200716,240463,-1.77,-0.29,10.19,0.46,0.45,0.05,34.45
37658153,1943,1,201150,241603,-1.94,-0.41,10.22,0.46,0.34,0.25,34.45
37698153,1958,1,201945,242791,-2.56,-0.28,10.63,0.47,0.40,0.33,34.45
37738153,1968,1,202292,242888,-2.93,-0.51,10.86,0.34,-0.01,0.25,34.45
37778164,1971,1,202216,242847,-2.57,0.01,9.99,0.11,-0.21,-0.03,34.45
37818164,1936,1,201862,242428,-1.52,1.06,8.88,0.01,-0.15,-0.07,34.45
37858164,1948,1,201890,242548,-2.20,1.25,8.64,0.37,0.42,0.48,34.45
37898133,1872,1,202486,242890,-3.12,0.96,9.92,0.50,0.38,0.84,34.45
37938129,1942,1,202857,243350,-3.67,0.54,9.75,0.13,-0.08,0.68,34.45
37978153,1927,1,203088,243737,-3.30,0.35,9.67,-0.31,-0.23,0.32,34.45
38018164,1941,1,203035,243623,-2.61,0.56,9.43,-0.45,-0.36,0.26,34.45
38058164,1983,1,202951,243827,-2.12,0.28,9.31,-0.45,-0.18,0.37,34.45
38098164,1963,1,202994,243254,-1.93,0.21,9.82,-0.48,0.07,0.38,34.45
38138152,1931,1,202806,242642,-2.26,0.07,10.11,-0.36,0.07,0.50,34.45
38178153,1925,1,202927,243151,-2.50,-0.21,10.17,-0.26,-0.07,0.46,34.45
38218181,1911,1,203211,243793,-2.13,-0.09,9.89,-0.33,-0.21,0.16,34.45
38258208,1911,1,203192,243825,-1.44,0.22,9.59,-0.41,-0.38,0.01,34.45
38298164,1897,1,203057,244296,-1.24,0.08,8.91,-0.44,-0.23,0.00,34.45
38338164,1872,1,203332,244886,-1.83,-0.42,8.89,-0.49,0.10,-0.16,34.45
38378181,1878,1,203398,244994,-2.59,-0.32,9.04,-0.58,0.06,-0.37,34.45
38418179,1918,1,203573,245271,-3.15,-0.42,9.83,-0.42,0.33,0.02,34.45
38458194,1910,1,203808,245178,-3.68,-1.43,10.81,-0.06,0.18,0.32,34.45
38498164,1906,1,203714,245398,-3.25,-0.97,10.15,-0.06,-0.15,0.21,34.45
38538181,1881,1,203670,245201,-2.96,-0.79,9.66,-0.00,-0.19,0.34,34.45
38578865,1835,1,203606,245236,-2.69,-0.47,9.33,0.17,-0.03,0.64,34.53
38617164,1844,1,203676,245176,-2.88,-0.69,9.73,0.09,0.09,0.63,34.53
38657153,1834,1,203603,244980,-2.56,-0.16,9.68,-0.06,-0.03,0.55,34.53
38697181,1835,1,203328,244005,-2.26,-0.20,9.53,-0.20,0.07,0.55,34.53
38737164,1869,1,202985,243480,-2.20,-0.24,9.75,-0.31,0.10,0.61,34.53
38777164,1859,1,203101,243693,-2.59,-0.24,10.19,-0.37,0.19,0.76,34.53
38817164,1902,1,203219,243754,-2.92,-0.57,10.34,-0.48,-0.08,0.75,34.53
38857185,1873,1,203171,244064,-2.57,-0.67,9.79,-0.61,-0.37,0.71,34.53
38897181,1905,1,203149,244079,-2.43,-0.98,9.48,-0.60,-0.50,0.85,34.53
38937181,1535,1,202978,244034,-2.26,-1.23,8.72,-0.41,-0.56,1.14,34.53
38977181,1473,1,203096,244081,-2.62,-1.51,9.26,-0.19,-0.14,1.44,34.53
39017185,1597,1,203089,243899,-2.81,-1.33,9.96,-0.23,-0.15,1.61,34.53
39057182,1483,1,203124,243883,-2.76,-1.79,9.65,-0.33,-0.27,1.47,34.53
39097185,1391,1,203017,244403,-1.67,-1.13,9.13,-0.55,-0.41,0.98,34.53
39137180,2039,1,203172,244668,-1.26,-1.13,9.32,-0.50,-0.11,0.92,34.53
39177181,2039,1,203225,244781,-1.30,-1.13,9.73,-0.14,-0.04,1.09,34.53
39217179,2011,1,203424,244874,-1.71,-1.25,10.07,-0.05,-0.00,1.06,34.53
39257180,2001,1,203328,244277,-1.68,-1.16,10.06,-0.06,-0.12,0.93,34.53
39297179,2002,1,202907,242076,-1.58,-1.37,10.29,-0.10,-0.14,0.90,34.53
39337181,1939,1,202141,240759,-2.05,-1.57,10.05,-0.32,-0.18,0.81,34.53
39377179,2000,1,202181,241020,-2.07,-1.83,9.90,-0.59,-0.08,0.54,34.53
39417181,1942,1,202147,241419,-1.35,-1.49,9.21,-0.69,-0.30,0.41,34.53
39457179,1968,1,202461,242319,-1.61,-1.80,9.44,-0.26,-0.04,0.58,34.53
39497186,1968,1,202557,242372,-0.92,-1.04,9.63,0.04,-0.21,0.58,34.53
39537164,1919,1,202632,242896,-0.67,-0.93,9.46,0.02,-0.11,0.64,34.53
39577164,1975,1,203048,243162,-1.11,-1.58,10.09,-0.01,-0.03,0.45,34.53
39617866,1939,1,203333,243680,-1.26,-1.30,10.08,0.03,-0.16,0.33,34.31
39658164,1938,1,203778,244691,-1.22,-1.48,9.78,-0.02,-0.19,0.14,34.31
39698180,1936,1,204241,245530,-0.99,-1.14,9.67,-0.03,-0.01,0.00,34.31
39738181,1923,1,204428,245447,-1.17,-0.87,9.63,0.21,0.05,0.12,34.31
39778152,1887,1,204510,245500,-1.61,-0.54,10.16,0.40,0.10,0.30,34.31
39818153,1922,1,204668,245998,-1.92,-0.62,10.01,0.41,0.22,0.22,34.31
39858153,1840,1,204751,244929,-2.49,2.37,10.58,-0.47,0.00,0.40,34.31
39898159,1878,1,204046,243247,-1.46,-0.96,9.08,-0.44,-0.02,0.16,34.31
39938181,1886,1,204093,243932,-1.55,-1.20,9.71,-0.01,0.14,0.28,34.31
39978166,1902,1,204337,244449,-1.63,-2.08,9.47,0.23,0.15,0.10,34.31
40018152,1882,1,204393,244581,-1.34,-1.41,9.24,0.66,0.16,0.08,34.31
40058157,1906,1,204375,244941,-1.14,-0.59,9.23,1.03,0.17,0.20,34.31
40098166,1904,1,204436,244963,-1.59,-0.31,9.42,1.13,0.37,0.15,34.31
40138157,1885,1,204043,244747,-2.55,1.55,10.83,0.25,-0.30,-0.23,34.31
40178164,1962,1,204021,244738,-1.33,0.87,9.45,-0.12,0.03,-0.43,34.31
40218166,1948,1,203842,244263,-1.98,0.74,9.91,0.03,-0.06,-0.27,34.31
40258164,1969,1,203548,243958,-2.09,0.76,9.97,0.01,-0.22,-0.27,34.31
40298166,1971,1,203145,243502,-1.86,1.24,9.64,-0.06,-0.31,-0.46,34.31
40338182,2003,1,202662,243011,-1.50,2.54,9.68,0.02,-0.15,-0.36,34.31
40378166,1971,1,202157,242194,-2.06,1.51,10.08,-0.05,-0.08,-0.14,34.31
40418182,2026,1,201519,241369,-1.87,1.15,9.53,-0.01,-0.16,-0.20,34.31
40458186,1971,1,200323,236547,-1.36,1.22,9.57,0.03,-0.18,-0.17,34.31
40498164,1999,1,198424,233366,-0.96,1.11,9.22,0.00,-0.20,-0.09,34.31
40538166,1987,1,197419,231428,-1.13,0.73,9.46,-0.10,0.00,-0.02,34.31
40578164,1921,1,196584,230225,-1.48,0.33,9.88,-0.15,-0.13,0.03,34.31
40618852,1928,1,196301,230139,-1.23,0.18,9.71,-0.22,-0.19,0.05,34.25
40657164,1931,1,196513,231096,-1.17,0.22,9.61,-0.23,-0.01,0.07,34.25
40697166,1923,1,196925,231972,-1.48,-0.02,9.93,-0.18,0.15,0.12,34.25
40737164,1921,1,197047,232441,-1.14,0.05,9.56,-0.18,0.13,0.11,34.25
40777155,1923,1,197145,232900,-1.10,0.03,9.41,-0.21,0.31,0.10,34.25
40817153,1900,1,197458,233899,-1.49,-0.20,10.12,-0.21,0.33,0.16,34.25
40857166,1885,1,197832,234883,-1.69,-0.51,10.35,-0.29,0.24,0.11,34.25
40897164,1871,1,197746,235011,-1.49,-0.69,10.29,-0.30,-0.03,0.02,34.25
40937185,1901,1,197496,235219,-1.49,-0.76,10.16,-0.22,-0.10,-0.01,34.25
40977199,1879,1,197898,236601,-1.40,-0.80,10.21,-0.08,-0.02,0.04,34.25
41017186,1914,1,198505,236868,-1.11,-0.57,10.01,-0.04,-0.03,-0.01,34.25
41057198,1891,1,198294,234683,-1.57,-0.61,10.25,-0.11,0.01,-0.08,34.25
41097186,1872,1,198123,234305,-1.54,-0.43,10.21,-0.05,-0.19,-0.08,34.25
41137198,1873,1,198376,235260,-1.22,-0.34,9.69,-0.07,-0.33,-0.06,34.25
41177200,1904,1,198821,236170,-1.03,-0.10,9.39,-0.21,-0.38,-0.06,34.25
41217200,1882,1,199063,237242,-0.99,-0.28,9.26,-0.32,-0.26,0.04,34.25
41257186,1869,1,199535,238294,-1.03,-0.37,9.56,-0.33,-0.18,0.17,34.25
41297182,1939,1,199620,238537,-0.80,-0.41,9.62,-0.33,-0.14,0.19,34.25
41337186,1943,1,199816,238681,-1.19,-0.48,10.21,-0.27,0.01,0.29,34.25
41377164,1933,1,199807,238720,-1.02,-0.59,10.29,-0.19,-0.07,0.37,34.25
41417186,1986,1,199898,238778,-1.23,-0.67,10.50,-0.06,0.01,0.43,34.25
41457165,1986,1,199993,239207,-0.96,-0.74,10.52,0.02,0.01,0.41,34.25
41497158,1984,1,200160,239615,-0.79,-0.89,10.47,0.03,0.11,0.28,34.25
41537159,2018,1,200293,240068,-0.79,-0.70,10.47,0.13,0.17,0.22,34.25
41577157,2032,1,200376,239933,-0.95,-0.85,10.34,0.18,0.19,0.26,34.25
41617153,2019,1,199669,235516,-1.58,-0.92,10.46,0.23,-0.03,0.29,34.25
41657852,2069,1,197529,232120,-1.32,-0.87,9.81,0.25,-0.42,0.21,34.23
41698164,2058,1,196685,231648,-1.16,-0.56,9.41,0.27,-0.32,0.24,34.23
41738183,2027,1,196997,232351,-0.88,-0.31,9.25,0.16,0.04,0.26,34.23
41778153,1968,1,197169,232403,-1.15,-0.75,9.53,0.11,-0.04,0.29,34.23
41818166,1982,1,197281,233128,-1.28,-0.82,9.62,-0.04,-0.07,0.16,34.23
41858183,1930,1,197711,234168,-1.31,-0.92,9.60,-0.13,-0.14,0.03,34.23
41898186,1971,1,197883,234646,-1.02,-0.80,9.52,-0.09,-0.17,-0.09,34.23
41938203,1951,1,198271,235800,-1.05,-0.88,9.47,0.06,0.03,-0.12,34.23
41978167,1922,1,199045,237299,-1.27,-0.64,9.76,0.23,0.13,-0.12,34.23
42018165,1874,1,199858,239120,-1.23,-0.22,9.82,0.17,0.18,-0.18,34.23
42058166,1847,1,200889,240885,-1.71,-0.39,10.22,0.02,0.16,-0.18,34.23
42098164,1815,1,201554,241785,-1.82,-0.11,9.99,-0.08,-0.08,-0.23,34.23
42138200,1840,1,201985,242459,-1.38,-0.04,9.94,-0.21,-0.11,-0.27,34.23
42178199,1847,1,202496,243319,-1.40,-0.30,10.08,-0.31,0.00,-0.38,34.23
42218183,1825,1,202789,242807,-1.46,-0.28,10.32,-0.31,-0.03,-0.55,34.23
42258199,1814,1,202735,242394,-0.79,-0.57,9.85,-0.27,0.11,-0.69,34.23
42298187,1783,1,203079,243280,-0.99,-0.58,10.27,-0.07,0.25,-0.65,34.23
42338182,1766,1,203640,244219,-0.81,-0.21,9.77,0.15,0.28,-0.56,34.23
42377166,1760,1,203868,244486,-1.39,0.06,10.06,0.30,0.19,-0.29,34.23
42417152,1747,1,204032,244813,-1.51,0.08,9.77,0.26,0.05,-0.28,34.23
42457157,1776,1,204288,245210,-1.42,0.50,9.78,0.07,0.21,-0.27,34.23
42497152,1728,1,204837,245707,-1.73,0.04,9.77,-0.12,0.21,-0.21,34.23
42537166,1791,1,205197,245926,-1.59,-0.41,9.74,-0.21,-0.07,-0.33,34.23
42577199,1776,1,205273,245989,-0.98,-0.41,9.09,-0.14,-0.15,-0.48,34.23
42617200,1808,1,205382,246347,-0.89,-0.03,9.13,0.05,0.06,-0.54,34.23
42657851,1766,1,205661,246842,-1.55,-0.04,9.82,0.07,0.35,-0.66,34.25
42698166,1808,1,205838,247071,-1.63,-0.16,9.89,0.17,0.17,-0.77,34.25
42738164,1798,1,205931,247300,-1.56,-0.30,9.84,0.30,0.25,-0.83,34.25
42778166,1774,1,206010,247206,-2.36,-0.07,10.78,0.36,0.30,-0.87,34.25
42818164,1833,1,205506,245041,-2.48,-0.33,10.15,0.34,-0.13,-0.81,34.25
42858185,1807,1,204452,242919,-2.14,-0.26,9.74,0.36,-0.26,-0.88,34.25
42898181,1890,1,204276,243673,-1.57,0.13,9.25,0.26,0.01,-0.87,34.25
42938152,1898,1,204705,244575,-1.75,-0.18,9.54,0.11,0.12,-0.80,34.25
42978164,1856,1,204782,244788,-1.90,-0.46,9.84,0.01,-0.08,-0.75,34.25
43018183,1881,1,204694,244804,-1.93,-0.64,9.72,0.00,-0.24,-0.68,34.25
43058182,1932,1,204588,244892,-1.89,-0.26,9.79,0.07,-0.18,-0.57,34.25
43098186,1957,1,204548,244850,-1.71,-0.37,9.54,0.07,-0.04,-0.58,34.25
43138183,1895,1,204492,244795,-1.81,-0.66,9.82,0.02,0.06,-0.63,34.25
43178166,1887,1,204370,244814,-1.81,-0.77,9.90,0.05,0.01,-0.67,34.25
43218164,1921,1,204391,245002,-1.55,-0.59,9.75,0.06,-0.00,-0.72,34.25
43258186,1951,1,204454,245420,-1.62,-0.55,9.73,0.08,0.06,-0.72,34.25
43298164,1931,1,204691,245695,-1.73,-0.62,10.10,0.13,0.04,-0.65,34.25
43338166,1923,1,204801,245975,-1.62,-0.57,9.96,0.15,-0.13,-0.60,34.25
43377182,1905,1,204990,245309,-1.50,-0.48,9.87,0.08,-0.18,-0.62,34.25
43417186,1926,1,204631,243992,-1.49,-0.42,9.92,0.04,-0.11,-0.58,34.25
43457182,1931,1,204553,244173,-1.52,-0.37,9.94,0.05,-0.08,-0.54,34.25
43497186,1945,1,205110,245208,-1.77,-0.36,9.99,-0.02,-0.11,-0.51,34.25
43537198,1925,1,205433,245577,-1.74,-0.53,10.24,-0.01,-0.21,-0.74,34.25
43577200,1914,1,205417,245613,-1.07,0.23,9.82,-0.13,-0.35,-0.72,34.25
43617182,1899,1,205397,245866,-0.51,0.02,8.94,0.00,-0.12,-0.51,34.25
43657166,1921,1,205493,245868,-1.04,-0.25,9.81,0.11,0.11,-0.38,34.25
43697851,1906,1,205567,246123,-1.54,-0.60,10.10,0.03,0.05,-0.45,34.21
43738166,1949,1,205590,246239,-1.35,-0.68,10.17,-0.04,-0.09,-0.60,34.21
43778199,1936,1,205602,246348,-0.84,-0.61,9.69,-0.05,-0.13,-0.60,34.21
43818200,1936,1,205618,246397,-0.92,-0.77,9.72,-0.09,-0.08,-0.63,34.21
43858199,1969,1,205634,246571,-0.64,-1.00,9.69,-0.06,-0.09,-0.67,34.21
43898199,1898,1,205667,246866,-0.85,-1.17,10.41,-0.12,-0.04,-0.81,34.21
43938199,1955,1,205774,247062,-0.63,-0.26,10.30,-0.41,-0.08,-0.98,34.21
43978200,1925,1,205678,246046,-0.35,-1.55,9.73,-0.47,-0.09,-1.04,34.21
44018199,1943,1,205186,244594,-0.41,-1.87,9.92,-0.44,0.03,-1.23,34.21
44058186,1985,1,204970,244382,-0.22,-1.70,9.86,-0.30,-0.04,-1.23,34.21
44098199,1981,1,204977,244936,-0.29,-1.95,9.84,-0.18,-0.02,-1.23,34.21
44138200,1959,1,205200,245516,-0.65,-1.83,10.13,-0.07,0.18,-1.25,34.21
44178183,1936,1,205417,246140,-0.80,-1.68,10.15,0.06,0.17,-1.14,34.21
44218166,1941,1,205601,246532,-1.18,-1.93,10.22,0.17,0.16,-0.97,34.21
44258164,1943,1,205573,246503,-1.28,-1.65,9.95,0.22,0.02,-0.89,34.21
44298166,1917,1,205597,246527,-1.19,-1.28,9.82,0.17,0.03,-0.81,34.21
44338164,1939,1,205488,246518,-1.09,-1.37,9.55,0.08,-0.05,-0.80,34.21
44378186,1906,1,205344,246533,-0.84,-1.14,9.48,0.03,0.01,-0.80,34.21
44418164,1943,1,205329,246639,-0.59,-1.11,9.61,0.01,0.08,-0.70,34.21
44458166,1937,1,205505,247111,-0.69,-1.40,9.79,-0.08,0.25,-0.67,34.21
44498182,1872,1,205802,247403,-1.03,-1.92,10.07,-0.11,0.32,-0.62,34.21
44538187,1868,1,205785,247225,-1.15,-2.21,9.99,-0.13,0.17,-0.70,34.21
44578183,1901,1,205288,245188,-0.99,-1.79,9.75,-0.06,0.09,-0.69,34.21
44618186,1936,1,204273,243060,-0.99,-1.35,9.69,0.09,0.14,-0.54,34.21
44658164,1920,1,204079,243105,-1.52,-1.35,9.90,0.24,0.34,-0.32,34.21
44698852,1905,1,204238,243423,-1.71,-1.33,9.94,0.35,0.33,-0.17,34.21
44737165,1933,1,204381,243783,-1.62,-1.13,9.80,0.28,0.21,-0.17,34.21
44777166,1997,1,204593,244579,-1.34,-0.85,9.63,0.06,0.10,-0.20,34.21
44817164,1920,1,204707,244801,-1.15,-0.92,9.57,-0.15,-0.00,-0.16,34.21
44857199,1968,1,204481,244631,-1.21,-1.62,9.79,-0.24,-0.03,-0.15,34.21
44897201,1959,1,204218,244523,-1.28,-2.09,9.91,-0.24,-0.15,-0.32,34.21
44937201,1990,1,204027,244573,-1.11,-1.78,9.59,-0.15,-0.09,-0.45,34.21
44977199,2027,1,203916,244703,-1.22,-1.75,9.73,0.02,-0.06,-0.43,34.21
45017232,2017,1,203876,244787,-1.20,-1.56,9.74,0.14,-0.04,-0.43,34.21
45057182,1846,1,203787,244900,-1.09,-1.45,9.66,0.16,-0.15,-0.40,34.21
45097186,1890,1,203919,245146,-1.35,-1.43,9.66,0.10,-0.01,-0.44,34.21
45137187,1746,1,203847,244033,-1.64,-1.27,10.03,0.08,-0.00,-0.36,34.21
45177187,2038,1,202785,240413,-1.67,-1.30,10.14,0.02,-0.04,-0.38,34.21
45217217,2028,1,201997,239454,-1.46,-1.18,9.94,-0.08,-0.02,-0.42,34.21
45257200,2019,1,201810,239505,-1.29,-1.28,9.83,-0.18,0.06,-0.51,34.21
45297186,1986,1,201731,239774,-1.33,-1.42,9.94,-0.20,0.16,-0.63,34.21
45337186,1984,1,201751,240261,-1.33,-1.27,9.76,-0.01,0.17,-0.62,34.21
45377183,1938,1,201874,241042,-1.13,-1.05,9.44,0.23,0.21,-0.54,34.21
45417167,1887,1,202120,241674,-1.14,-0.74,9.35,0.32,0.39,-0.48,34.21
45457165,1920,1,202453,241956,-1.65,-0.93,9.73,0.31,0.57,-0.40,34.21
45497166,1886,1,202500,241940,-2.04,-0.95,9.98,0.25,0.43,-0.38,34.21
45537165,1846,1,202573,242251,-1.92,-0.95,9.87,0.14,0.30,-0.41,34.21
45577166,1823,1,202595,242554,-1.83,-0.85,9.74,0.03,0.23,-0.45,34.21
45617165,1755,1,202611,242916,-1.68,-0.59,9.74,0.05,0.17,-0.42,34.21
45657166,1745,1,202792,243545,-1.64,-0.65,9.66,0.08,0.23,-0.37,34.21
45697165,1717,1,203101,243798,-1.84,-0.55,9.88,0.11,0.28,-0.32,34.21
45737853,1732,1,202753,240965,-2.33,-0.88,10.12,0.09,0.14,-0.35,34.47
45778164,1741,1,201474,238520,-2.09,-0.57,10.14,0.05,-0.10,-0.41,34.47
45818186,1719,1,201047,238544,-1.95,-0.44,10.11,0.01,-0.15,-0.43,34.47
45858183,1115,1,201278,239386,-1.78,-0.32,10.18,-0.04,-0.08,-0.43,34.47
45898200,931,1,201595,240192,-1.99,-0.74,10.03,-0.04,-0.10,-0.34,34.47
45938199,1195,1,201924,241285,-1.99,-0.60,9.75,0.04,-0.10,-0.18,34.47
45978186,1680,1,202267,242171,-2.09,-0.60,9.61,0.09,-0.17,-0.10,34.47
46018181,1315,1,202565,242733,-1.94,-0.60,9.56,0.05,-0.21,-0.07,34.47
46058186,1200,1,202749,243097,-1.87,-0.80,9.60,-0.00,-0.25,-0.04,34.47
46098199,1253,1,202786,243153,-1.60,-0.82,9.66,-0.13,-0.22,-0.03,34.47
46138200,1227,1,202748,243166,-1.78,-1.18,9.94,-0.22,-0.17,0.01,34.47
46178183,1203,1,202658,243077,-1.70,-1.26,9.95,-0.18,-0.19,0.08,34.47
46218186,1239,1,202524,243087,-1.46,-1.21,9.82,-0.15,-0.16,0.10,34.47
46258183,1785,1,202403,243298,-1.26,-1.24,9.81,-0.09,-0.10,0.08,34.47
46298186,1814,1,202493,242633,-1.07,-1.39,9.82,-0.04,0.08,0.07,34.47
46338164,1819,1,201524,238870,-1.17,-1.56,9.76,0.01,0.01,0.08,34.47
46378157,1778,1,200812,237830,-1.30,-1.53,9.56,0.03,-0.02,0.03,34.47
46418164,1854,1,200542,237692,-1.02,-1.36,9.33,0.02,-0.03,-0.04,34.47
46457186,1878,1,200483,237485,-1.03,-1.39,9.32,-0.03,0.03,-0.11,34.47
46497183,1859,1,200453,237960,-1.35,-1.58,9.44,-0.06,0.12,-0.19,34.47
46537186,1898,1,200730,238722,-1.43,-1.53,9.39,-0.05,0.16,-0.19,34.47
46577183,1908,1,200996,238975,-1.76,-1.46,9.57,-0.03,0.24,-0.19,34.47
46617187,1903,1,200971,238762,-2.16,-1.51,9.74,0.00,0.18,-0.15,34.47
46657190,1923,1,200817,238788,-2.19,-1.48,9.97,0.04,0.07,-0.13,34.47
46697166,1818,1,200969,239375,-2.03,-1.36,10.07,0.02,0.10,-0.12,34.47
46737853,1895,1,201088,239931,-1.92,-1.18,10.15,-0.04,0.05,-0.11,34.47
46778187,1898,1,201245,240607,-1.73,-1.25,9.98,-0.14,-0.00,-0.13,34.47
46818200,1953,1,201542,241430,-1.71,-1.19,9.79,-0.19,0.01,-0.13,34.47
46858197,1977,1,201630,241255,-1.76,-1.24,9.80,-0.21,-0.00,-0.09,34.47
46898199,2023,1,200580,237341,-1.55,-1.06,9.65,-0.15,-0.09,0.05,34.47
46938186,2014,1,199380,235502,-1.80,-1.08,9.55,-0.13,0.01,0.14,34.47
46978164,2001,1,198972,235089,-1.98,-0.93,9.54,-0.11,0.05,0.24,34.47
47018167,1983,1,198834,235156,-2.08,-1.29,9.77,-0.08,0.02,0.34,34.47
47058167,1965,1,199015,235938,-2.05,-1.36,9.73,-0.05,0.04,0.41,34.47
47098167,1936,1,199125,236310,-1.93,-1.31,9.62,-0.09,-0.02,0.49,34.47
47138183,1913,1,199108,236406,-1.85,-1.09,9.64,-0.14,0.05,0.58,34.47
47178167,1853,1,199184,236795,-2.26,-1.24,9.88,-0.13,0.08,0.75,34.47
47218164,1809,1,199332,237021,-2.36,-1.23,10.18,-0.14,0.05,0.90,34.47
47258167,1778,1,199431,237140,-3.13,-1.41,10.30,-0.10,0.06,1.08,34.47
47298164,1760,1,199204,237092,-2.60,-1.37,9.84,-0.05,-0.26,1.07,34.47
47338187,1618,1,199206,237730,-2.22,-1.06,9.46,-0.13,-0.11,1.03,34.47
47378183,1611,1,199394,238366,-2.28,-0.97,9.46,-0.11,0.03,1.06,34.47
47418166,1571,1,199724,238670,-2.37,-1.07,9.60,-0.03,0.13,1.15,34.47
47458164,1587,1,199379,235754,-2.57,-1.09,9.60,0.05,0.08,1.24,34.47
47498157,1370,1,198408,233830,-2.53,-1.01,9.55,0.02,0.01,1.16,34.47
47538153,1335,1,198109,233551,-2.47,-0.89,9.52,-0.05,0.00,1.10,34.47
47578166,1131,1,198138,233664,-2.13,-0.83,9.43,-0.08,-0.02,1.10,34.47
47618182,1535,1,198207,234179,-2.15,-0.82,9.46,-0.19,0.06,1.00,34.47
47658166,1577,1,198373,234647,-2.21,-0.83,9.72,-0.21,-0.05,0.95,34.47
47698183,1603,1,198518,235268,-2.07,-0.69,9.51,-0.22,-0.11,0.86,34.47
47738873,1643,1,198678,235451,-2.21,-0.72,9.69,-0.16,-0.07,0.79,34.59
47777183,1648,1,198704,235649,-2.18,-0.56,9.62,-0.09,-0.04,0.79,34.59
47817186,1674,1,198885,235902,-2.22,-0.54,9.66,-0.11,0.07,0.77,34.59
47857165,1701,1,198893,235949,-2.34,-0.55,9.76,-0.14,0.02,0.72,34.59
47897166,1731,1,198753,235894,-2.15,-0.52,9.67,-0.15,-0.11,0.62,34.59
47937183,1793,1,198716,236185,-2.12,-0.55,9.67,-0.18,-0.09,0.55,34.59
47977187,1798,1,198804,236667,-2.08,-0.57,9.68,-0.15,-0.03,0.49,34.59
48017182,1776,1,198777,235044,-2.09,-0.59,9.62,-0.10,0.04,0.48,34.59
48057166,1874,1,197704,232438,-2.12,-0.52,9.55,-0.07,-0.01,0.43,34.59
48097181,1905,1,196911,231378,-1.95,-0.27,9.51,-0.01,-0.04,0.38,34.59
48137185,1934,1,196842,231462,-1.94,-0.22,9.55,-0.01,0.15,0.32,34.59
48177164,1969,1,196841,231617,-2.23,0.15,9.72,0.03,0.02,0.23,34.59
48217133,1968,1,196768,232250,-2.22,0.28,9.62,0.06,-0.06,0.11,34.59
48257153,2017,1,196904,233234,-2.22,0.33,9.73,0.05,-0.11,0.00,34.59
48297153,2063,1,197285,234548,-2.27,0.26,9.72,0.00,0.04,-0.05,34.59
48337153,2053,1,197729,235062,-2.61,0.55,10.03,0.14,0.10,0.15,34.59
48377133,2076,1,197717,235171,-2.47,0.50,9.77,0.21,-0.11,0.26,34.59
48417153,2097,1,197820,235443,-2.49,0.53,9.78,0.15,-0.02,0.28,34.59
48457153,2075,1,197854,235547,-2.52,0.75,9.88,0.16,-0.09,0.28,34.59
48497153,2065,1,198152,236909,-2.03,0.81,9.44,0.04,-0.04,0.22,34.59
48537153,2129,1,199020,238557,-2.50,0.60,9.88,0.04,0.11,0.20,34.59
48577130,2113,1,199725,239475,-2.10,0.57,9.50,0.13,-0.13,0.21,34.59
48617153,2093,1,200117,238341,-1.86,0.96,9.36,0.30,0.20,0.20,34.59
48657130,2102,1,200362,238755,-2.10,1.18,9.57,0.40,0.32,0.44,34.59
48697133,2002,1,201103,240229,-2.22,0.65,9.51,0.38,0.22,0.36,34.59
48737133,2080,1,202449,242479,-2.56,1.81,9.50,0.21,0.36,0.22,34.59
48777824,2099,1,203525,243938,-3.07,1.44,9.87,0.03,0.21,0.16,34.51
48818131,2058,1,204080,244611,-2.91,1.50,10.02,-0.22,-0.09,-0.01,34.51
48858182,1997,1,204335,245227,-2.83,1.29,9.69,-0.32,-0.11,-0.07,34.51
48898181,1935,1,204605,245555,-2.76,1.15,9.91,-0.26,-0.07,-0.02,34.51
48938182,1970,1,204664,245523,-2.57,0.84,9.84,-0.29,-0.26,-0.09,34.51
48978181,1989,1,204710,245708,-2.39,0.92,9.54,-0.27,-0.19,-0.09,34.51
49018185,1950,1,204703,245780,-2.36,0.77,9.60,-0.28,-0.13,-0.13,34.51
49058182,2018,1,204776,245873,-2.08,0.85,9.62,-0.27,-0.12,-0.07,34.51
49098186,2000,1,204841,246127,-2.33,0.32,9.54,-0.28,-0.10,-0.07,34.51
49138182,1921,1,204972,246347,-2.22,0.57,9.74,-0.22,-0.06,-0.12,34.51
49178185,1986,1,205029,245936,-2.14,0.76,9.86,-0.20,-0.13,-0.01,34.51
49218181,1947,1,204501,244627,-2.09,0.41,9.57,-0.25,-0.18,-0.05,34.51
49258185,1963,1,204199,244167,-2.04,0.41,9.65,-0.30,-0.08,-0.06,34.51
49298181,1922,1,204227,244383,-2.33,0.04,9.72,-0.22,-0.18,-0.06,34.51
49338186,1883,1,204346,245002,-2.12,0.40,9.55,-0.20,-0.12,-0.07,34.51
49378181,1904,1,204470,245290,-1.99,0.39,9.54,-0.18,-0.15,0.01,34.51
49418164,1951,1,204591,245648,-2.03,0.30,9.41,-0.05,-0.09,0.14,34.51
49458164,1945,1,204742,245844,-2.25,0.14,9.61,0.01,-0.09,0.19,34.51
49498153,2010,1,204765,245774,-1.97,0.43,9.56,-0.02,-0.12,0.16,34.51
49538164,2005,1,204526,245543,-2.18,0.31,9.85,-0.04,-0.23,0.21,34.51
49578164,2042,1,204239,245420,-1.93,0.29,9.99,-0.16,-0.31,0.14,34.51
49618164,2010,1,203969,244851,-1.47,0.39,10.19,-0.21,-0.43,0.21,34.51
49658164,1271,1,203679,244771,-1.19,-0.14,9.74,-0.21,-0.34,0.27,34.51
49698179,880,1,203706,244949,-1.10,-0.41,9.85,-0.16,-0.16,0.26,34.51
49738181,847,1,203667,244808,-0.94,-0.40,9.98,-0.17,-0.21,0.21,34.51
49778865,821,1,203100,242356,-0.74,-0.25,9.73,-0.22,-0.20,0.23,34.51
49817181,1153,1,201959,240237,-0.58,-0.33,9.56,-0.20,-0.07,0.33,34.51
49857179,2005,1,201815,240318,-0.92,-0.78,9.84,-0.19,0.04,0.32,34.51
49897166,1678,1,201924,240923,-1.08,-0.70,10.01,-0.20,0.03,0.25,34.51
49937165,1905,1,201476,241595,-0.93,-0.51,9.87,-0.21,-0.03,0.17,34.51
49977187,1628,1,202612,243139,-0.32,0.15,9.36,-0.25,0.07,0.20,34.51
50017153,1642,1,202789,243502,-0.92,-0.70,9.89,-0.22,0.08,0.40,34.51
50057165,1535,1,202791,243450,-1.16,-0.82,10.49,-0.29,-0.15,0.32,34.51
50097183,1659,1,202701,243352,-0.74,-0.86,10.32,-0.41,-0.26,0.29,34.51
50137249,1673,1,202689,243425,-0.83,-1.20,10.10,-0.52,-0.15,0.29,34.51
50177181,1535,1,202592,243331,-1.40,-1.73,10.03,-0.41,-0.19,0.25,34.51
50217185,1232,1,202317,243011,-0.86,-1.12,9.57,-0.36,-0.35,0.07,34.51
50257181,1136,1,201955,243195,-0.36,-0.62,9.54,-0.33,-0.26,0.06,34.51
50297186,1683,1,202033,243640,-0.64,-0.93,9.79,-0.29,-0.08,0.23,34.51
50337227,1315,1,201986,242592,-0.90,-1.28,9.80,-0.19,-0.20,0.31,34.51
50377188,1213,1,200920,239340,-0.79,-1.20,9.78,-0.20,-0.32,0.26,34.51
50417186,1162,1,200147,238488,-0.56,-1.45,9.73,-0.30,-0.25,0.16,34.51
50457187,1098,1,200114,238817,-0.46,-1.51,9.79,-0.32,-0.18,0.14,34.51
50497186,1103,1,200324,239912,-0.48,-1.52,9.46,-0.28,-0.09,0.16,34.51
50537187,1082,1,201047,241771,-0.60,-1.78,9.69,-0.23,0.11,0.23,34.51
50577164,1201,1,201613,242950,-0.42,-1.94,9.58,-0.10,0.06,0.20,34.51
50617165,1262,1,202133,243936,-0.19,-1.41,9.74,-0.09,0.22,0.22,34.51
50657165,1340,1,202523,244209,-0.66,-1.60,10.21,-0.05,0.20,0.39,34.51
50697164,1271,1,202535,244156,-0.82,-1.92,10.43,-0.06,-0.03,0.34,34.51
50737180,1261,1,202534,243874,-0.84,-1.85,10.22,-0.09,-0.13,0.30,34.51
50777185,1341,1,202424,243736,-0.91,-2.03,10.06,-0.04,-0.16,0.28,34.51
50817865,1391,1,202553,243833,-0.89,-1.82,10.04,-0.03,-0.11,0.16,34.29
50858180,1691,1,202613,244068,-0.98,-1.36,9.89,0.04,-0.03,0.14,34.29
50898158,1672,1,202683,244062,-1.09,-1.05,9.96,0.08,-0.04,0.23,34.29
50938164,1680,1,202499,242500,-1.38,-1.14,10.32,0.07,-0.09,0.27,34.29
50978164,1691,1,201796,240987,-1.23,-1.29,10.27,-0.08,-0.20,0.17,34.29
51018186,1683,1,201666,241206,-0.96,-1.54,10.17,-0.21,-0.28,0.08,34.29
51058182,1710,1,201920,241603,-0.96,-2.00,10.22,-0.30,-0.21,0.09,34.29
51098187,1727,1,201932,242239,-0.65,-1.87,9.55,-0.16,-0.24,0.05,34.29
51138182,1745,1,202292,243165,-0.44,-1.67,9.50,-0.11,-0.08,0.09,34.29
51178184,1776,1,202490,243561,-0.38,-1.61,9.41,-0.07,0.00,0.10,34.29
51218165,1775,1,202606,243788,-0.25,-1.70,9.52,-0.09,0.03,0.10,34.29
51258166,1807,1,202592,243660,-0.50,-2.16,9.41,-0.07,-0.02,0.10,34.29
51298182,1829,1,202519,243579,-0.36,-1.87,9.44,0.00,-0.00,0.05,34.29
51338167,1810,1,202561,243850,-0.27,-1.87,9.20,-0.05,0.09,0.06,34.29
51378167,1817,1,202699,244187,-0.10,-1.78,9.20,-0.14,0.16,0.01,34.29
51418167,1826,1,202994,244445,-0.18,-1.89,9.74,-0.16,0.19,0.16,34.29
51458164,1825,1,203164,244606,-0.71,-2.85,9.95,-0.12,0.05,0.21,34.29
51498166,1856,1,203264,244003,-0.66,-2.63,10.38,-0.20,-0.08,0.07,34.29
51538182,1834,1,202687,241926,-0.58,-2.39,10.75,-0.40,-0.39,-0.00,34.29
51578200,1862,1,202132,241777,-0.05,-2.55,10.03,-0.52,-0.56,-0.08,34.29
51618199,1906,1,202194,242174,0.56,-2.43,9.62,-0.49,-0.51,0.00,34.29
51658166,1899,1,202303,242704,0.78,-2.96,9.23,-0.40,-0.40,0.16,34.29
51698164,1934,1,202498,243345,0.72,-3.37,9.31,-0.30,-0.31,0.17,34.29
51738166,1971,1,202718,243767,0.75,-3.52,9.04,-0.32,-0.32,0.01,34.29
51778164,1968,1,202646,244010,0.91,-3.29,8.81,-0.35,-0.25,-0.15,34.29
51818872,1633,1,202623,244216,1.03,-3.25,8.77,-0.39,-0.18,-0.25,33.95
51857181,1635,1,202743,244434,1.16,-2.65,8.85,-0.34,-0.04,-0.22,33.95
51897185,1833,1,202935,244639,0.72,-2.96,9.48,-0.32,-0.04,-0.07,33.95
51937182,1860,1,203066,244925,0.54,-3.00,9.79,-0.33,-0.10,-0.11,33.95
51977223,1930,1,203146,245074,0.31,-3.11,10.21,-0.33,-0.15,-0.09,33.95
52017183,1566,1,203093,244951,0.56,-3.22,9.82,-0.22,-0.14,-0.12,33.95
52057186,1319,1,203013,244602,0.91,-2.94,9.95,-0.03,-0.01,0.08,33.95
52097165,1247,1,202487,242348,0.83,-3.55,9.83,0.10,0.08,0.26,33.95
52137134,1984,1,201580,240638,0.49,-4.07,9.62,0.18,0.27,0.35,33.95
52177151,1954,1,201328,240896,0.44,-4.07,9.25,0.11,0.27,0.10,33.95
52217134,1677,1,201672,242129,1.05,-2.95,9.34,-0.14,0.44,-0.11,33.95
52257166,1641,1,201942,242643,0.80,-3.40,9.33,-0.20,0.29,-0.07,33.95
52297166,1457,1,202268,243535,0.57,-3.62,9.33,-0.26,0.22,-0.06,33.95
52337166,1774,1,202479,243841,0.14,-4.19,9.12,-0.31,0.02,-0.11,33.95
52377166,1942,1,202542,243984,0.29,-4.23,8.74,-0.22,0.05,-0.03,33.95
52417166,1839,1,202479,243887,-0.06,-4.34,8.58,-0.01,0.18,0.12,33.95
52457166,2029,1,202392,243571,-0.66,-3.45,9.63,-0.12,0.07,0.11,33.95
52497165,2032,1,201814,242591,0.19,-3.26,9.11,-0.18,-0.35,0.30,33.95
52537166,1883,1,201554,242864,0.82,-4.65,8.50,-0.28,-0.22,0.23,33.95
52577166,1708,1,201928,243437,0.95,-5.37,8.99,-0.29,0.10,-0.11,33.95
52617167,1749,1,202042,243927,1.05,-4.84,8.77,-0.13,-0.03,-0.08,33.95
52657186,1509,1,202448,244349,0.44,-4.90,8.81,-0.17,0.16,-0.14,33.95
52697166,1410,1,202394,242704,-0.03,-4.96,9.18,-0.22,0.00,-0.17,33.95
52737187,1291,1,201702,241466,0.10,-4.88,8.76,-0.22,-0.12,-0.13,33.95
52777187,1602,1,201437,241201,0.35,-4.98,8.65,-0.16,-0.12,-0.03,33.95
52817186,1650,1,201344,241237,0.49,-5.11,8.73,-0.08,-0.06,0.02,33.95
52857852,1750,1,201468,241916,0.50,-5.11,8.88,-0.01,0.02,0.05,34.01
52898153,1808,1,201950,243138,0.15,-5.22,8.90,-0.05,0.13,-0.02,34.01
52938166,1776,1,202322,243590,-0.12,-4.80,9.12,-0.03,0.03,-0.04,34.01
52978182,1838,1,202372,243633,0.01,-4.63,8.89,-0.03,-0.03,0.04,34.01
53018164,1855,1,202234,243327,0.12,-4.66,8.84,0.04,-0.02,0.10,34.01
53058153,1726,1,202083,243226,0.30,-4.78,8.92,0.07,-0.01,0.10,34.01
53098154,1695,1,202139,243519,0.37,-5.04,9.00,0.07,0.09,-0.03,34.01
53138153,1838,1,202293,243819,0.59,-4.89,8.91,0.01,0.06,-0.20,34.01
53178157,1762,1,202311,244029,0.65,-4.75,8.66,0.05,0.10,-0.19,34.01
53218153,1775,1,202508,244266,0.12,-4.70,9.14,0.10,0.20,-0.20,34.01
53258154,1749,1,202427,243065,-0.20,-4.55,9.19,0.10,0.10,-0.16,34.01
53298165,1698,1,201522,240673,0.01,-4.47,9.01,0.09,0.02,-0.17,34.01
53338158,1738,1,201153,240204,-0.11,-4.70,9.26,0.13,0.05,-0.23,34.01
53378167,1727,1,201048,240499,0.24,-4.49,8.96,0.19,-0.03,-0.26,34.01
53418167,1774,1,201334,241350,0.34,-4.37,8.88,0.27,0.19,-0.31,34.01
53458158,1773,1,201661,242250,0.01,-4.50,9.23,0.26,0.23,-0.34,34.01
53498159,1787,1,201862,242751,0.10,-4.35,9.11,0.18,0.05,-0.46,34.01
53538158,1823,1,202031,243320,0.09,-4.09,8.90,0.08,0.09,-0.52,34.01
53578158,1856,1,202223,243844,0.23,-3.76,8.93,0.00,0.11,-0.50,34.01
53618196,1821,1,202422,244283,0.17,-3.71,8.87,-0.01,0.09,-0.45,34.01
53658167,1840,1,202550,244469,0.14,-3.52,9.10,0.00,0.07,-0.38,34.01
53698158,1859,1,202633,244631,0.05,-3.50,9.18,-0.06,0.02,-0.29,34.01
53738167,1869,1,202724,244748,-0.20,-3.89,9.31,-0.06,0.00,-0.15,34.01
53778188,1853,1,202761,244696,0.03,-3.88,9.27,-0.09,-0.10,-0.15,34.01
53818223,1811,1,202676,244701,0.29,-3.64,9.00,-0.02,-0.06,-0.10,34.01
53858874,1915,1,202407,243174,0.49,-3.25,9.16,0.10,0.08,-0.00,33.95
53897158,1872,1,201905,242042,0.17,-3.16,9.65,0.11,0.18,0.14,33.95
53937136,1986,1,201795,242049,-0.26,-3.26,9.87,0.09,0.03,0.12,33.95
53977159,1952,1,201845,242243,-0.03,-2.58,10.04,-0.02,-0.04,0.05,33.95
54017187,1936,1,201847,242658,0.15,-2.09,9.76,-0.03,-0.18,0.08,33.95
54057167,1955,1,202114,243368,0.44,-1.78,9.73,-0.04,-0.13,0.20,33.95
54097167,1986,1,202287,243619,0.39,-2.05,9.94,-0.10,-0.15,0.42,33.95
54137167,2134,1,202371,243585,0.18,-2.90,10.21,-0.13,-0.20,0.54,33.95
54177167,2067,1,202331,243429,-0.19,-3.83,9.83,-0.10,-0.29,0.35,33.95
54217188,2035,1,202267,243844,0.33,-2.90,9.17,-0.00,-0.14,0.05,33.95
54257167,2016,1,202453,244443,0.68,-1.76,9.33,0.11,0.12,0.10,33.95
54297135,1983,1,202670,244702,0.67,-1.84,9.74,0.27,0.11,0.39,33.95
54337136,2021,1,202774,244886,0.62,-2.23,10.07,0.21,0.00,0.41,33.95
54377135,1956,1,202916,245146,0.90,-2.49,10.22,-0.04,-0.08,0.33,33.95
54417167,1904,1,203002,244682,0.40,-3.76,9.83,-0.13,-0.05,0.19,33.95
54458167,1910,1,202429,242476,0.25,-3.83,9.79,-0.03,0.15,0.15,33.95
54498158,1935,1,201811,241541,-0.09,-3.79,9.30,0.20,0.18,0.18,33.95
54538158,1923,1,201639,241613,0.17,-2.76,9.04,0.32,0.29,0.19,33.95
54578136,1889,1,201847,242071,-0.34,-3.14,9.47,0.31,0.33,0.37,33.95
54618158,1824,1,202214,243011,-0.81,-3.67,9.57,0.23,0.21,0.36,33.95
54658158,1786,1,202595,243854,-0.65,-3.36,9.52,0.04,-0.05,0.23,33.95
54698167,1842,1,202676,244032,-0.31,-3.60,9.18,-0.17,-0.28,0.13,33.95
54738187,1849,1,202671,244042,0.11,-3.50,9.12,-0.22,-0.29,0.07,33.95
54778167,1825,1,202645,243850,0.09,-3.96,9.05,-0.05,-0.17,0.18,33.95
54818167,1886,1,202616,243791,-0.18,-4.05,9.28,0.13,-0.10,0.26,33.95
54858167,1844,1,202733,244215,-0.37,-3.85,9.44,0.01,-0.07,0.10,33.95
54898854,1936,1,202904,244696,-0.03,-3.01,9.49,-0.10,-0.11,-0.09,34.01
54937204,1926,1,203098,245190,0.20,-2.40,9.60,-0.12,0.01,-0.11,34.01
54977167,1795,1,203194,245183,0.03,-2.36,9.92,-0.12,-0.05,-0.04,34.01
55017187,1760,1,203032,244011,0.19,-2.36,9.71,-0.07,-0.11,-0.03,34.01
55057188,1746,1,202135,241526,0.21,-2.87,9.66,-0.09,-0.08,-0.11,34.01
55097187,1763,1,201651,241090,0.15,-3.00,9.58,-0.04,-0.04,-0.14,34.01
55137188,1702,1,201651,241255,0.08,-3.13,9.74,-0.05,-0.04,-0.20,34.01
55177188,1633,1,201776,241943,0.11,-3.21,9.36,-0.10,-0.02,-0.30,34.01
55217187,1602,1,202132,242998,0.21,-3.14,9.57,-0.10,0.08,-0.40,34.01
55257167,1535,1,202427,243348,0.19,-3.21,9.76,-0.06,-0.02,-0.44,34.01
55297187,1463,1,202434,243615,0.30,-3.36,9.43,-0.02,0.03,-0.49,34.01
55337166,1605,1,202580,243795,0.21,-3.10,9.85,0.01,0.18,-0.57,34.01
55377158,1621,1,202629,243819,-0.05,-3.32,10.01,-0.01,0.14,-0.58,34.01
55417187,1462,1,202679,244128,0.28,-3.28,9.35,-0.05,0.19,-0.72,34.01
55457200,1457,1,202799,244172,-0.07,-3.46,9.53,-0.01,0.22,-0.72,34.01
55497187,1466,1,202679,244232,0.27,-3.00,9.25,-0.03,0.12,-0.80,34.01
55537167,1513,1,202774,244607,0.58,-2.91,9.08,-0.02,0.31,-0.76,34.01
55577167,1442,1,202770,243930,0.52,-3.20,9.30,0.10,0.35,-0.57,34.01
55617158,1509,1,202014,240954,0.31,-3.45,9.30,0.13,0.36,-0.45,34.01
55657157,1627,1,201425,240085,-0.08,-3.79,9.41,0.14,0.25,-0.44,34.01
55697166,1717,1,201296,240403,0.09,-3.85,8.89,0.10,0.17,-0.55,34.01
55737159,1775,1,201494,241088,0.33,-3.29,8.88,0.14,0.34,-0.57,34.01
55777157,1713,1,201896,241663,-0.16,-3.14,9.56,0.13,0.39,-0.53,34.01
55817166,1842,1,202034,242202,-0.45,-3.33,9.53,-0.01,0.15,-0.65,34.01
55857182,1869,1,202320,242926,-0.25,-3.11,9.48,-0.19,0.13,-0.82,34.01
55897187,1936,1,202505,243305,-0.24,-3.10,9.51,-0.28,0.10,-0.82,34.01
55937872,1959,1,202594,243471,-0.19,-3.11,9.52,-0.32,0.06,-0.77,34.07
55978186,2039,1,202640,243558,-0.08,-3.27,9.33,-0.35,0.03,-0.74,34.07
56018182,2058,1,202646,243726,0.11,-3.14,9.23,-0.37,0.06,-0.66,34.07
56058167,2032,1,202704,243983,0.17,-3.55,9.20,-0.47,0.05,-0.70,34.07
56098164,2054,1,202812,244285,0.42,-3.73,8.94,-0.50,0.04,-0.80,34.07
56138164,2034,1,202894,244376,0.66,-3.71,8.81,-0.41,0.14,-0.74,34.07
56178164,2121,1,202580,241871,0.49,-3.96,9.26,-0.31,0.19,-0.66,34.07
56218166,2108,1,201552,240394,0.45,-4.06,9.41,-0.27,0.14,-0.66,34.07
56258165,2145,1,201566,241063,0.36,-4.20,9.80,-0.32,0.11,-0.72,34.07
56298167,2162,1,201946,241833,0.85,-3.91,9.79,-0.41,0.12,-0.81,34.07
56338164,2207,1,202238,242626,0.86,-4.13,9.45,-0.34,0.09,-0.67,34.07
56378167,2171,1,202508,243388,0.75,-4.44,9.55,-0.25,0.02,-0.62,34.07
56418165,2192,1,202784,243865,0.62,-4.56,9.60,-0.19,0.00,-0.51,34.07
56458166,2223,1,202854,244044,0.63,-4.72,9.34,-0.08,-0.07,-0.42,34.07
56498183,2130,1,202880,244129,0.57,-4.84,9.15,-0.00,-0.06,-0.30,34.07
56538187,2267,1,202813,244196,0.61,-4.72,8.87,0.04,-0.08,-0.29,34.07
56578164,2160,1,202818,244381,0.85,-4.31,8.67,0.04,-0.01,-0.19,34.07
56618166,2199,1,202924,244766,0.85,-4.46,8.42,0.07,0.06,-0.06,34.07
56658153,2106,1,203129,244931,0.71,-4.25,8.77,0.09,0.22,0.04,34.07
56698135,2081,1,203038,244871,0.73,-4.03,8.90,0.10,0.07,0.20,34.07
56738132,2005,1,202885,243711,0.77,-4.26,8.86,0.04,0.06,0.27,34.07
56778135,1997,1,201963,241471,0.98,-4.33,8.94,-0.02,0.06,0.30,34.07
56818153,1939,1,201683,241328,0.79,-4.82,9.23,-0.01,0.03,0.31,34.07
56858157,1984,1,201664,241607,1.04,-4.54,9.11,0.03,-0.01,0.32,34.07
56898153,1933,1,201815,241975,0.97,-4.54,9.16,0.05,0.02,0.40,34.07
56938825,1949,1,201901,242663,1.02,-4.30,9.06,0.06,-0.05,0.33,34.01
56977154,1936,1,202170,243191,1.33,-4.12,9.01,0.09,-0.04,0.43,34.01
57017158,1929,1,202300,243513,1.30,-4.52,8.98,0.15,-0.02,0.53,34.01
57057158,1927,1,202440,243630,1.20,-4.57,9.17,0.18,0.06,0.45,34.01
57097186,2002,1,202391,243756,1.38,-4.10,9.13,0.07,-0.02,0.27,34.01
57137158,2076,1,202568,244294,1.30,-4.24,9.25,-0.06,0.03,0.04,34.01
57177157,2087,1,202887,244926,1.25,-4.35,9.43,-0.16,0.08,-0.25,34.01
57217166,2064,1,203064,245130,1.05,-4.25,9.35,-0.08,0.11,-0.44,34.01
57257166,2082,1,203141,245266,0.65,-3.99,9.33,0.11,0.19,-0.47,34.01
57297181,2054,1,203089,244879,0.54,-3.77,9.06,0.14,0.20,-0.58,34.01
57337158,1997,1,202495,242572,0.64,-3.51,8.96,0.13,0.20,-0.62,34.01
57377158,2014,1,201755,241547,0.51,-3.75,9.23,0.05,0.16,-0.74,34.01
57417158,2101,1,201715,241909,0.76,-3.63,8.88,0.00,0.18,-0.84,34.01
57457158,2166,1,201969,242448,0.33,-4.04,9.32,0.08,0.26,-0.82,34.01
57497158,2174,1,202188,243210,0.13,-3.81,9.06,0.09,0.28,-0.95,34.01
57538153,2215,1,202567,243870,-0.04,-3.35,9.30,0.07,0.28,-0.96,34.01
57578167,2233,1,202780,244311,-0.29,-3.11,9.41,-0.05,0.16,-0.98,34.01
57618183,2022,1,202941,244564,-0.26,-3.01,10.05,-0.21,0.11,-0.89,34.01
57658188,1671,1,202987,244745,-0.03,-3.17,9.75,-0.33,0.00,-0.74,34.01
57698182,1559,1,203112,244873,0.15,-3.36,9.44,-0.35,0.10,-0.53,34.01
57738166,1520,1,203078,244712,-0.09,-4.00,9.43,-0.11,0.09,-0.29,34.01
57778181,1418,1,202921,244774,0.23,-3.61,8.96,-0.03,0.13,-0.24,34.01
57818166,1595,1,202899,244568,0.46,-3.62,8.71,0.09,0.25,-0.04,34.01
57858153,2221,1,202702,244159,0.61,-3.57,8.59,0.15,0.45,-0.01,34.01
57898157,2223,1,202271,241622,0.09,-3.57,8.94,0.19,0.75,0.01,34.01
57938824,2157,1,201506,240497,-0.22,-3.68,9.22,0.26,0.72,-0.10,34.01
57977167,2195,1,201401,240536,0.08,-3.19,9.39,0.22,0.69,-0.14,34.01
58017158,2480,1,200937,239349,-0.81,-2.76,12.01,-0.09,0.60,-0.11,34.01
58057187,2305,1,200431,241585,-0.97,-3.48,10.12,-0.76,-0.08,-0.57,34.01
58097201,2191,1,202048,244296,0.25,-4.09,9.78,-0.84,0.87,-0.78,34.01
58137167,2147,1,202820,244992,-0.01,-4.18,8.17,-0.34,0.87,-0.56,34.01
58177187,2119,1,202788,243731,-0.43,-4.00,8.82,0.38,0.69,-0.06,34.01
58217166,2011,1,202174,242680,-0.89,-4.13,8.65,0.81,0.51,0.14,34.01
58257158,1584,1,202197,242726,-1.44,-3.43,9.17,1.00,0.89,0.06,34.01
58297159,1437,1,202411,242695,-1.95,-2.92,9.69,1.08,0.81,0.06,34.01
58337158,1296,1,202820,243352,-2.26,-2.36,9.84,1.07,0.82,0.01,34.01
58377158,1152,1,203258,243887,-3.59,-2.28,10.85,0.84,0.61,-0.31,34.01
58417167,1150,1,203643,244462,-3.31,-1.81,10.20,0.55,0.58,-0.66,34.01
58457167,1653,1,203499,242105,-3.23,-1.18,9.86,0.49,0.50,-0.61,34.01
58497167,1183,1,202652,240495,-3.47,-0.93,9.95,0.12,0.07,-0.70,34.01
58538166,1141,1,202354,240123,-2.99,-0.81,9.24,0.04,0.06,-0.50,34.01
58578167,1007,1,202219,239884,-3.34,-1.38,9.40,-0.01,0.07,-0.29,34.01
58618187,1040,1,202129,239782,-3.34,-2.14,9.02,0.03,-0.07,-0.11,34.01
58658188,953,1,202299,240441,-3.56,-2.50,9.04,0.13,-0.04,-0.32,34.01
58698187,1051,1,202285,240299,-2.82,-1.59,8.88,0.18,-0.13,-0.36,34.01
58738228,1023,1,202136,239898,-2.98,-1.69,9.03,0.18,0.03,-0.06,34.01
58778167,994,1,202028,239638,-3.22,-1.82,8.99,0.23,0.05,0.18,34.01
58818158,975,1,202036,239512,-3.35,-1.71,9.04,0.19,0.00,0.24,34.01
58858159,989,1,201873,239330,-3.28,-1.73,9.13,0.05,-0.18,0.17,34.01
58898167,946,1,201847,239591,-2.98,-1.88,9.24,-0.13,-0.16,0.02,34.01
58938904,917,1,201842,239986,-2.68,-2.13,9.38,-0.25,-0.13,-0.11,34.31
58977201,986,1,202198,240491,-2.54,-2.02,9.44,-0.23,0.12,-0.10,34.31
59017187,991,1,201590,237460,-2.74,-1.76,9.56,-0.14,0.11,0.12,34.31
59057167,957,1,200464,235368,-2.97,-1.84,9.46,-0.03,0.05,0.31,34.31
59097167,966,1,199849,234187,-2.93,-1.47,9.47,0.03,0.06,0.44,34.31
59137158,950,1,199382,233367,-2.63,-1.23,9.36,-0.05,0.01,0.46,34.31
59177167,928,1,199089,233245,-2.73,-1.48,9.30,-0.17,-0.05,0.44,34.31
59217187,919,1,199377,234489,-2.36,-1.56,9.32,-0.30,-0.13,0.30,34.31
59257188,919,1,200163,236449,-2.15,-1.55,9.37,-0.41,0.03,0.22,34.31
59297167,896,1,201070,237986,-2.06,-1.92,9.47,-0.44,0.13,0.26,34.31
59337166,879,1,201649,238884,-2.31,-2.09,9.52,-0.39,0.14,0.35,34.31
59377166,879,1,201769,238943,-2.67,-1.92,9.50,-0.29,-0.09,0.45,34.31
59417187,864,1,201815,239049,-3.21,-1.85,9.58,-0.23,0.01,0.59,34.31
59457166,849,1,201724,239032,-3.61,-2.15,9.83,-0.14,-0.15,0.70,34.31
59497188,853,1,201727,239402,-3.39,-1.92,9.66,-0.13,-0.22,0.70,34.31
59537187,857,1,201856,239469,-3.25,-1.83,9.47,-0.15,-0.12,0.69,34.31
59578186,856,1,201241,236642,-3.02,-1.85,9.31,-0.13,-0.12,0.71,34.31
59618183,831,1,200342,235034,-2.94,-1.68,9.30,-0.14,-0.02,0.69,34.31
59658187,838,1,200002,234658,-3.37,-2.10,9.28,-0.19,-0.01,0.67,34.31
59698183,832,1,199828,234362,-3.42,-1.72,9.15,-0.10,-0.13,0.64,34.31
59738187,848,1,199610,234517,-3.36,-1.52,9.06,-0.05,-0.06,0.67,34.31
59778182,909,1,199711,234836,-3.22,-1.55,9.06,-0.06,-0.02,0.68,34.31
59818187,954,1,199709,235317,-3.51,-1.48,9.04,-0.02,0.06,0.78,34.31
59858167,938,1,200095,235894,-3.76,-1.69,9.35,0.01,0.06,0.87,34.31
59898157,923,1,200131,235936,-3.50,-1.32,9.10,-0.02,-0.10,0.83,34.31
59938187,1003,1,200296,236718,-3.28,-1.22,9.02,-0.17,-0.03,0.80,34.31
59978874,1017,1,200637,237429,-3.22,-1.41,9.24,-0.34,-0.00,0.68,34.31
60017187,1893,1,200796,237960,-3.28,-1.47,9.18,-0.38,-0.11,0.66,34.31
60057190,1877,1,201024,238698,-3.32,-1.53,9.22,-0.33,-0.18,0.59,34.31
60097187,1874,1,201076,239025,-3.18,-1.27,9.09,-0.33,-0.14,0.43,34.31
60137221,1869,1,200651,236141,-3.08,-1.30,9.26,-0.26,-0.02,0.49,34.31
60177187,1859,1,199489,234028,-3.16,-1.51,9.27,-0.13,-0.04,0.64,34.31
60217188,1885,1,199097,233218,-3.44,-1.23,9.47,-0.10,-0.03,0.65,34.31
60257187,1901,1,199024,232943,-3.81,-1.18,9.49,-0.09,0.00,0.70,34.31
60297167,1907,1,198785,232617,-3.58,-0.97,9.35,-0.07,-0.13,0.70,34.31
60337187,1904,1,198839,233267,-3.40,-1.07,9.34,-0.17,-0.10,0.57,34.31
60377234,1905,1,199057,233842,-2.97,-0.86,9.35,-0.24,-0.11,0.45,34.31
60417187,1938,1,199217,234257,-2.93,-1.01,9.46,-0.31,0.06,0.40,34.31
60457167,1902,1,199313,234586,-3.30,-1.26,9.72,-0.28,0.10,0.36,34.31
60497167,1935,1,199159,234485,-2.87,-1.05,9.37,-0.18,-0.00,0.30,34.31
60537187,1983,1,199001,234334,-2.70,-1.19,9.43,-0.14,0.09,0.24,34.31
60577206,1986,1,198759,234379,-2.69,-1.32,9.35,-0.15,0.01,0.07,34.31
60617167,2035,1,198860,234577,-2.94,-1.03,9.62,-0.08,0.04,-0.02,34.31
60657187,2021,1,198659,234300,-2.75,-0.76,9.69,0.06,-0.26,-0.06,34.31
60697187,2080,1,198444,233038,-2.91,-0.85,9.62,0.09,-0.27,-0.21,34.31
60737187,2067,1,197521,230485,-2.96,-0.88,9.91,0.19,-0.28,-0.30,34.31
60777188,2077,1,196907,229660,-2.74,-1.12,9.61,0.15,-0.33,-0.47,34.31
60817187,2064,1,196831,229583,-2.77,-0.79,9.66,0.10,-0.26,-0.52,34.31
60857188,2017,1,196599,229509,-2.54,-0.60,9.59,0.04,-0.27,-0.45,34.31
60897187,1994,1,196233,229343,-2.79,-1.34,9.51,-0.16,-0.08,-0.41,34.31
60937204,1951,1,196135,229628,-3.53,-1.60,9.59,-0.02,-0.06,-0.32,34.31
60977201,1961,1,196151,229773,-3.02,-0.82,9.16,0.24,-0.22,-0.10,34.31
61017874,1945,1,196024,229683,-2.51,-0.02,8.73,0.18,-0.13,0.02,34.29
61058167,1917,1,196091,229732,-2.72,-0.51,9.22,-0.03,0.04,0.13,34.29
61098167,1894,1,195987,229645,-3.00,-0.95,9.59,-0.21,-0.13,0.10,34.29
61138188,1869,1,195856,229852,-3.01,-1.22,9.56,-0.19,-0.26,0.15,34.29
61178188,1872,1,196013,230579,-2.62,-1.05,9.37,-0.13,-0.22,0.23,34.29
61218188,1878,1,196539,231653,-2.75,-1.11,9.44,-0.06,-0.02,0.38,34.29
61258188,1907,1,196893,230709,-2.91,-1.32,9.45,-0.01,-0.06,0.50,34.29
61298187,1865,1,196086,228474,-2.89,-1.33,9.44,0.05,-0.29,0.51,34.29
61338168,1860,1,195689,227975,-2.58,-1.29,9.32,-0.01,-0.15,0.49,34.29
61378187,1845,1,195874,228536,-2.73,-1.41,9.68,-0.04,0.02,0.52,34.29
61418167,1808,1,196500,229962,-2.91,-1.58,9.78,-0.01,0.05,0.56,34.29
61458167,1854,1,197584,232511,-2.87,-1.37,9.89,0.00,0.08,0.60,34.29
61498159,1829,1,198673,234599,-2.61,-1.01,9.68,-0.01,-0.03,0.58,34.29
61538187,1831,1,199130,235533,-2.48,-0.94,9.50,-0.02,-0.06,0.57,34.29
61578187,1856,1,199209,235836,-2.09,-0.71,9.45,-0.07,-0.14,0.58,34.29
61618188,1874,1,199348,236684,-2.31,-0.55,9.47,-0.13,-0.03,0.60,34.29
61658187,1904,1,199740,237646,-2.48,-0.65,9.58,-0.16,-0.00,0.63,34.29
