timestamp_us,ecg,leads,ir,red,accX,accY,accZ,gyroX,gyroY,gyroZ,temp
1923501,1728,1,197892,244641,0.00,0.00,0.00,0.00,0.00,0.00,0.00
1953972,271,1,198255,246180,1.07,-0.62,10.68,0.09,0.03,0.04,25.61
1994166,0,1,198145,245412,0.75,-0.19,10.01,0.03,0.03,0.03,25.61
2034174,0,1,198276,245753,0.87,-0.31,10.77,0.01,0.02,-0.02,25.61
2074171,0,1,198009,244926,1.12,-0.37,9.90,-0.04,-0.00,-0.04,25.61
2114198,0,1,197814,244667,0.98,-0.36,10.47,-0.01,0.04,-0.03,25.61
2154181,0,1,197757,244920,0.92,-0.50,9.74,-0.04,-0.00,-0.03,25.61
2194199,0,1,197946,244744,0.97,-0.11,10.39,-0.03,0.02,-0.03,25.61
2234181,0,1,197764,244596,0.71,-0.72,9.89,-0.07,0.03,-0.05,25.61
2274179,0,1,197816,245080,0.81,-0.60,9.63,-0.03,0.03,-0.03,25.61
2314182,0,1,197822,244390,0.60,-0.31,10.14,0.01,0.05,-0.01,25.61
2354170,0,1,197804,245121,0.64,-0.58,10.34,-0.02,0.00,-0.01,25.61
2394182,0,1,197887,244184,0.50,-0.66,10.98,-0.00,-0.01,-0.01,25.61
2434198,192,1,197573,244847,0.57,-0.88,10.04,-0.13,-0.09,-0.03,25.61
2474202,448,1,197994,244544,0.54,-0.64,10.71,0.01,0.02,-0.02,25.61
2514171,742,1,197179,242737,0.82,-0.24,7.92,-0.23,-0.04,-0.05,25.61
2554202,960,1,196845,244212,1.15,-0.98,9.29,0.09,0.04,-0.04,25.61
2594171,1277,1,197685,244294,2.39,1.65,13.19,0.32,0.05,-0.16,25.61
2634151,1530,1,197441,246827,1.13,0.55,9.31,-0.49,-0.17,-0.14,25.61
2672181,1731,1,198368,245567,1.27,-1.01,12.93,0.31,0.07,-0.27,25.61
2712171,2137,1,196888,242988,0.66,-0.33,5.94,-0.45,-0.27,-0.16,25.61
2752205,2143,1,197163,241916,0.62,-0.07,10.20,0.28,0.05,0.02,25.61
2792152,2299,1,196252,240242,-0.41,-1.20,5.84,-0.29,-0.03,-0.04,25.61
2832216,2227,1,196470,241804,0.68,-0.35,9.72,0.10,0.17,-0.00,25.61
2872171,2288,1,196077,239828,0.59,-0.36,6.44,-0.16,0.19,-0.08,25.61
2912182,2128,1,196343,243310,1.84,-1.71,11.59,0.16,-0.18,0.07,25.61
2952171,2009,1,197774,245994,0.81,-0.69,10.62,0.12,0.06,-0.54,25.61
2992859,1947,1,198856,247721,-0.13,-0.96,10.50,-0.25,-0.08,-0.30,26.05
3033218,1776,1,198267,246359,-0.96,-0.82,13.45,0.09,0.08,-0.33,26.05
3073206,1738,1,197857,246642,0.12,-1.69,12.72,-0.17,-0.24,0.08,26.05
3113184,1781,1,198090,246345,0.21,0.36,15.44,-0.04,0.10,-0.02,26.05
3153171,2195,1,198226,246585,0.57,-2.10,11.75,-0.22,-0.21,0.06,26.05
3193184,2445,1,197910,245871,-0.24,-1.49,14.67,-0.14,0.09,-0.03,26.05
3233202,2432,1,197765,245735,-0.01,-2.91,11.32,-0.07,-0.38,-0.01,26.05
3273221,2461,1,197703,245448,-0.17,-1.47,9.48,-0.26,-0.13,0.01,26.05
3313202,2400,1,197693,245327,0.71,-1.41,9.03,-0.08,-0.16,-0.02,26.05
3353202,2463,1,197647,245016,-0.09,-1.13,5.85,-0.25,-0.27,-0.08,26.05
3393216,2308,1,197553,244343,1.12,-0.85,8.92,-0.02,0.07,-0.01,26.05
3433182,2352,1,197404,243898,0.51,-1.33,7.21,-0.17,-0.03,0.00,26.05
3473206,2213,1,196757,242531,1.05,0.05,7.92,-0.05,-0.06,-0.02,26.05
3513181,2219,1,197410,244083,0.91,-2.29,9.12,-0.03,-0.04,0.00,26.05
3553182,2096,1,198806,245246,1.37,-0.73,8.49,-0.04,-0.02,-0.03,26.05
3593203,2077,1,199234,245710,1.21,-0.84,8.95,-0.02,0.04,-0.13,26.05
3633181,1994,1,198895,244759,1.06,-1.19,6.21,0.03,0.15,-0.02,26.05
3673182,1859,1,198556,243991,0.36,-0.64,8.40,0.09,0.30,0.01,26.05
3713151,1744,1,197796,243391,0.61,-1.12,7.05,-0.01,0.12,-0.10,26.05
3753182,1565,1,197097,240494,0.45,0.56,8.56,0.13,0.16,-0.05,26.05
3793151,1641,1,196378,241301,0.06,-1.92,8.32,0.08,0.04,-0.01,26.05
3833171,1603,1,197055,242670,-0.12,-0.68,9.45,0.04,0.03,-0.20,26.05
3873182,1600,1,197700,244349,-0.06,-0.95,11.10,0.08,-0.03,-0.07,26.05
3911202,1601,1,198617,245816,-0.10,-0.58,13.23,0.04,0.02,-0.10,26.05
3951181,1622,1,199456,247506,0.33,-0.31,13.23,-0.01,-0.04,-0.06,26.05
3991203,1737,1,199898,247977,-0.10,-0.79,15.32,0.04,-0.03,-0.03,26.05
4031889,1806,1,199278,246981,0.38,0.14,13.81,-0.05,-0.10,-0.03,25.99
4072199,1785,1,198861,246525,-0.05,-1.33,14.25,-0.03,-0.08,-0.00,25.99
4112216,1773,1,198479,245432,0.34,-0.65,11.05,-0.14,-0.08,-0.07,25.99
4152203,1802,1,198333,245577,0.44,-0.80,10.70,-0.06,-0.09,-0.04,25.99
4192202,1825,1,198392,245375,0.48,-0.95,9.33,-0.12,-0.01,-0.12,25.99
4232203,1792,1,198195,245442,0.85,-0.39,8.32,-0.06,-0.17,-0.02,25.99
4272202,1819,1,198276,245230,0.53,-1.19,8.33,-0.07,-0.03,0.00,25.99
4311182,1841,1,197863,244778,0.82,-0.78,7.32,-0.06,-0.13,-0.02,25.99
4351202,1779,1,197924,244770,0.57,-1.19,8.03,-0.01,0.01,-0.01,25.99
4391181,2047,1,197787,245199,1.03,-0.65,7.93,-0.04,-0.05,-0.04,25.99
4431202,2234,1,198052,245062,0.46,-1.31,8.73,-0.03,0.04,-0.04,25.99
4471182,2320,1,197880,245484,0.42,-0.91,7.64,-0.02,-0.05,-0.04,25.99
4511202,2251,1,198405,245753,0.97,-0.54,10.29,0.03,0.04,-0.03,25.99
4551171,1826,1,198303,246242,0.32,-1.41,7.70,-0.04,-0.05,-0.10,25.99
4591203,1851,1,198696,246085,0.44,-0.45,10.54,0.08,0.13,-0.02,25.99
4631171,1926,1,198276,246406,0.84,-0.30,9.31,0.02,-0.07,-0.08,25.99
4671182,1881,1,199175,248427,0.56,-0.84,11.36,0.05,0.12,-0.01,25.99
4711171,1818,1,199330,247085,0.58,-0.01,10.50,-0.03,-0.03,-0.09,25.99
4751203,1648,1,199028,247155,0.15,-1.47,11.71,0.03,-0.00,0.00,25.99
4791171,1584,1,198763,246204,0.33,-0.40,12.14,-0.03,-0.02,-0.02,25.99
4831202,1359,1,198645,247258,0.58,-0.75,12.87,0.02,-0.06,-0.00,25.99
4871182,1311,1,199011,247699,0.39,-0.51,12.06,-0.11,-0.01,-0.03,25.99
4911215,1319,1,198828,247297,0.85,-0.10,13.15,-0.01,-0.10,-0.05,25.99
4951203,1509,1,198474,247449,0.77,-0.58,10.73,-0.08,-0.21,-0.06,25.99
4991202,1397,1,198698,247464,0.43,-1.13,10.44,-0.07,-0.08,-0.04,25.99
5031203,1390,1,198570,247281,0.61,-0.51,9.31,-0.07,-0.18,0.00,25.99
5071869,1454,1,198662,246782,0.45,-0.99,9.10,-0.07,-0.06,0.04,25.91
5110205,1467,1,198464,247803,0.92,-0.28,8.07,-0.11,-0.20,-0.02,25.91
5150202,1478,1,199459,248527,0.62,-0.64,9.22,-0.05,0.04,0.01,25.91
5190171,1469,1,199027,247431,0.59,0.11,7.86,-0.05,-0.08,0.01,25.91
5230171,1407,1,197971,245935,1.54,-0.62,9.96,0.01,-0.11,0.01,25.91
5270171,1354,1,197386,244962,0.69,-0.38,8.94,-0.06,-0.01,-0.02,25.91
5310212,1385,1,197359,245236,1.38,-0.84,8.75,-0.03,-0.16,-0.02,25.91
5351205,1456,1,197879,246067,0.79,0.03,9.54,-0.03,0.10,-0.01,25.91
5391171,1657,1,198054,246548,1.24,-0.94,8.46,-0.07,-0.03,-0.03,25.91
5431203,1826,1,198000,246272,1.47,0.40,11.29,0.02,0.03,-0.02,25.91
5471151,1898,1,197928,246436,0.78,-0.30,8.43,-0.10,-0.02,-0.07,25.91
5511202,1950,1,198034,246743,0.86,-0.60,9.68,-0.01,0.07,-0.01,25.91
5551182,1984,1,198449,246151,0.43,-0.41,10.49,0.01,0.09,-0.00,25.91
5591171,1997,1,197906,246419,0.80,-0.08,9.48,-0.03,-0.09,0.04,25.91
5631181,1959,1,198699,247209,0.56,-0.45,10.78,-0.06,0.16,-0.02,25.91
5671182,1997,1,198610,247443,0.68,0.09,10.00,-0.04,-0.06,-0.01,25.91
5711182,1998,1,198872,247319,0.51,-0.42,10.99,-0.05,0.07,-0.01,25.91
5751182,2000,1,198846,247760,0.34,-0.52,10.43,-0.04,0.00,-0.00,25.91
5791182,1942,1,198893,247332,0.69,0.04,10.63,-0.07,0.02,-0.01,25.91
5831171,1931,1,198793,248018,0.54,-0.19,10.89,-0.03,-0.00,-0.01,25.91
5871202,1905,1,198733,247321,1.23,-0.20,10.57,-0.10,-0.01,-0.04,25.91
5911203,1872,1,198806,247870,0.86,-0.42,10.58,-0.05,0.03,-0.02,25.91
5951182,1850,1,198313,246476,0.94,0.02,8.63,-0.10,-0.05,-0.03,25.91
5991181,1808,1,197979,246040,0.98,-0.45,9.61,-0.02,-0.01,0.04,25.91
6031181,1834,1,197530,244463,0.54,-0.77,7.06,-0.11,-0.02,-0.02,25.91
6071202,1814,1,196835,242921,1.34,0.24,8.77,0.06,0.01,0.08,25.91
6111820,1835,1,196193,241160,0.78,-0.67,7.45,-0.07,0.02,-0.00,26.05
6150181,1755,1,196337,242344,0.69,-0.17,8.96,0.03,0.06,0.01,26.05
6190151,1700,1,196598,242438,0.74,-0.99,9.50,0.02,0.01,0.00,26.05
6230150,1676,1,196590,242069,0.72,-0.85,9.40,-0.01,-0.03,-0.00,26.05
6270202,1664,1,197049,242898,1.02,-1.16,10.09,0.04,-0.02,-0.01,26.05
6310182,1662,1,197637,244167,0.49,0.48,10.73,0.00,0.06,-0.01,26.05
6349151,1667,1,198505,248043,0.96,-0.97,10.63,-0.01,0.06,-0.02,26.05
6389183,1648,1,200399,250579,0.15,-0.52,11.07,-0.04,0.06,-0.03,26.05
6429182,1643,1,200817,250404,0.54,-0.79,11.74,0.02,-0.02,0.04,26.05
6469171,1616,1,200098,249293,0.35,0.04,11.50,-0.02,-0.07,0.05,26.05
6509171,1621,1,199486,248901,0.17,-0.68,11.83,-0.04,-0.05,0.03,26.05
6549202,1647,1,199307,249109,0.15,-0.47,10.67,-0.08,-0.04,0.00,26.05
6589181,1648,1,199279,248754,0.79,0.83,12.53,-0.00,-0.01,0.01,26.05
6629171,1648,1,198637,247902,0.93,0.83,10.22,-0.10,-0.10,0.01,26.05
6669171,1618,1,198647,248129,0.73,-0.20,10.99,-0.06,-0.03,0.01,26.05
6709181,1651,1,198443,247156,1.08,0.47,9.03,-0.08,-0.07,0.02,26.05
6749199,1633,1,198326,247252,1.39,0.39,10.05,-0.01,-0.12,0.03,26.05
6789171,1600,1,198276,246395,1.34,-0.37,9.32,-0.10,-0.02,-0.02,26.05
6829201,1615,1,197820,245243,1.12,0.23,8.48,-0.06,-0.07,-0.08,26.05
6869181,1665,1,197680,244761,0.95,-0.58,8.37,-0.04,0.00,-0.07,26.05
6909181,1686,1,197639,244820,1.30,0.92,9.02,-0.03,-0.05,-0.05,26.05
6949208,1680,1,197769,244763,0.81,-0.56,9.01,-0.03,0.00,-0.05,26.05
6989181,1731,1,197518,244386,1.26,0.17,8.57,-0.04,-0.13,-0.07,26.05
7029181,1710,1,197469,244249,1.22,-0.56,8.88,-0.01,-0.02,-0.04,26.05
7069201,1762,1,197420,244393,1.16,-0.28,8.82,-0.01,-0.01,-0.00,26.05
7109202,1771,1,197508,244675,1.15,-0.12,9.00,0.00,0.04,0.04,26.05
7149837,1802,1,197615,246090,1.24,0.30,9.82,0.04,0.00,0.08,25.79
7190131,1794,1,198192,246417,0.93,0.55,10.31,-0.03,0.09,0.01,25.79
7230150,1819,1,198509,247574,0.96,-0.27,11.59,0.03,0.03,0.02,25.79
7270150,1798,1,198715,247588,1.05,0.13,12.91,-0.00,0.02,0.02,25.79
7310150,1769,1,198724,247848,0.13,-0.03,11.80,-0.13,-0.03,0.02,25.79
7350184,1815,1,198564,247756,0.87,-0.18,13.60,-0.06,-0.02,0.01,25.79
7389181,1798,1,198567,248156,0.75,0.04,11.76,-0.18,-0.02,-0.03,25.79
7429181,1744,1,199071,249680,0.76,-0.36,11.81,-0.15,-0.00,0.01,25.79
7469181,1699,1,199949,249869,0.93,0.43,10.57,-0.13,0.04,0.04,25.79
7509150,1639,1,200143,249288,0.64,-0.78,8.95,-0.09,-0.19,0.06,25.79
7549182,1626,1,199190,246399,0.94,-0.34,8.33,-0.10,0.05,0.08,25.79
7589171,1633,1,198197,245236,0.76,-1.37,7.64,-0.14,-0.05,0.06,25.79
7629182,1659,1,197532,244071,1.01,-0.93,8.03,-0.11,0.00,0.03,25.79
7669171,1675,1,197162,243269,0.86,-0.53,8.20,-0.06,-0.00,0.07,25.79
7709181,1644,1,197067,243892,0.79,-0.72,8.03,-0.07,-0.04,0.10,25.79
7749181,1680,1,197822,244581,1.18,-0.35,9.74,0.00,0.03,0.06,25.79
7789150,1689,1,198355,245225,0.76,-1.05,8.51,-0.13,-0.02,0.00,25.79
7829181,1759,1,198547,245436,1.13,-0.16,9.22,-0.03,0.06,-0.02,25.79
7869181,1766,1,198563,246095,0.91,-1.58,8.77,-0.06,0.12,-0.02,25.79
7909182,1767,1,198053,245146,0.64,0.37,7.86,-0.09,0.10,-0.03,25.79
7949171,1707,1,198481,245775,0.42,-1.24,10.67,0.12,0.26,0.02,25.79
7989151,1738,1,197632,243764,0.12,-0.06,7.68,-0.13,0.03,-0.03,25.79
8029181,1703,1,197997,245057,0.28,-0.98,11.71,0.13,0.21,0.06,25.79
8069150,1689,1,198252,245009,0.24,-0.89,9.60,-0.08,0.06,-0.10,25.79
8109182,1623,1,198802,246962,0.42,-0.61,12.42,0.08,0.04,0.00,25.79
8149151,1633,1,199345,247919,-0.19,-1.35,10.15,-0.11,0.04,-0.08,25.79
8189889,1623,1,199879,248214,0.21,-0.33,12.26,-0.01,0.00,-0.04,25.99
8228181,1616,1,199507,247202,0.08,-0.78,10.97,-0.08,-0.03,-0.02,25.99
8268202,1345,1,199071,246710,0.32,-0.23,10.88,-0.04,-0.05,0.00,25.99
8308182,951,1,199351,247843,0.25,-1.43,12.44,-0.01,0.00,0.02,25.99
8348171,843,1,199012,246279,0.38,-0.03,9.53,-0.13,-0.09,-0.02,25.99
8389202,882,1,199361,248610,0.49,-1.35,12.49,0.05,-0.02,0.09,25.99
8429171,933,1,199752,248216,-0.33,-0.95,9.09,-0.20,0.00,-0.05,25.99
8469202,1123,1,199924,249459,0.39,-1.16,10.83,0.03,-0.07,0.05,25.99
8509171,1305,1,199647,248702,0.44,-0.61,9.22,-0.18,-0.03,-0.03,25.99
8547203,1584,1,199761,248781,0.17,-1.61,10.89,-0.02,-0.02,0.00,25.99
8587197,1790,1,198979,247166,0.76,0.03,7.07,-0.18,-0.13,-0.05,25.99
8627181,1859,1,199054,247236,1.22,-0.53,10.89,0.02,0.07,-0.00,25.99
8667171,1920,1,198764,247086,0.51,-0.89,7.53,-0.17,-0.05,-0.05,25.99
8707203,1853,1,199190,248102,1.29,-0.69,10.22,0.02,0.03,-0.08,25.99
8747171,1872,1,199779,249619,0.36,-1.30,8.74,-0.08,-0.05,-0.16,25.99
8787203,1921,1,199822,249224,0.17,-0.32,9.92,-0.04,-0.04,-0.12,25.99
8827202,2000,1,199645,249507,0.30,-1.23,10.30,-0.01,0.00,-0.01,25.99
8867181,2180,1,199622,249684,0.88,0.58,10.59,-0.04,-0.01,-0.01,25.99
8907181,2235,1,199976,250170,1.10,-0.86,12.48,0.03,0.09,-0.01,25.99
8947171,2277,1,199848,249448,0.42,-0.30,10.50,-0.07,0.00,-0.05,25.99
8987181,2192,1,199199,247683,0.51,-1.13,11.05,0.02,-0.03,0.01,25.99
9027171,2203,1,198807,246855,0.30,-1.14,9.33,-0.03,-0.03,-0.01,25.99
9067202,2225,1,198265,245764,0.76,-0.93,8.38,-0.02,-0.05,0.00,25.99
9107181,2156,1,198241,245381,0.25,-0.79,9.57,0.02,0.07,0.01,25.99
9147150,2140,1,197782,245079,1.06,-0.53,8.20,-0.09,-0.12,-0.08,25.99
9187202,2097,1,197932,245710,0.54,-0.76,8.60,-0.03,0.05,-0.01,25.99
9227869,2089,1,198568,247233,0.96,-0.41,9.48,-0.02,0.00,-0.01,25.93
9268181,2046,1,199080,247524,0.20,-1.27,8.77,-0.06,-0.00,-0.05,25.93
9308202,1985,1,199522,248710,0.44,-1.63,10.55,0.03,-0.06,-0.01,25.93
9348182,1936,1,199516,247941,0.35,-0.26,9.62,-0.08,-0.05,-0.03,25.93
9388202,1895,1,199447,248997,0.92,-1.26,10.76,0.03,-0.05,0.02,25.93
9428171,1849,1,199235,247798,0.64,0.39,8.99,-0.14,0.06,-0.03,25.93
9468171,1805,1,199188,248242,0.17,-0.98,10.92,0.03,0.15,0.01,25.93
9508150,1808,1,198962,247441,0.57,-0.16,9.71,-0.10,0.01,-0.02,25.93
9548181,1760,1,198994,248544,0.23,-1.09,11.43,0.00,0.02,0.01,25.93
9588150,1759,1,199091,248444,0.81,-0.39,10.52,-0.10,-0.04,-0.00,25.93
9628202,1698,1,199470,248908,0.08,-0.42,11.75,0.00,0.03,0.00,25.93
9668151,1735,1,199027,248261,0.86,-0.95,10.06,-0.11,-0.10,-0.00,25.93
9708202,1701,1,198789,247383,0.19,-0.62,10.48,-0.06,-0.01,0.01,25.93
9748182,1698,1,198453,247318,0.52,-1.15,10.36,-0.05,-0.04,0.01,25.93
9786181,1675,1,198555,247300,0.66,-0.12,10.69,-0.09,-0.02,-0.01,25.93
9826214,1666,1,198427,247131,0.54,-1.50,9.58,-0.09,-0.03,-0.00,25.93
9866202,1684,1,198251,246741,0.95,-0.58,9.40,-0.10,-0.07,0.01,25.93
9906181,1665,1,198271,246524,0.50,-1.30,9.47,-0.06,-0.02,0.01,25.93
9946182,1665,1,198212,246449,0.31,-1.56,9.12,-0.11,-0.03,-0.01,25.93
9986205,1625,1,198120,246155,0.35,-1.47,9.54,-0.05,-0.04,-0.00,25.93
10026260,1621,1,198220,246486,0.82,-0.97,9.56,-0.03,-0.04,-0.01,25.93
10066202,1607,1,198348,246198,0.94,-0.92,8.24,-0.10,0.01,-0.03,25.93
10106181,1626,1,198544,246877,0.34,-1.01,9.22,0.00,0.06,-0.01,25.93
10146171,1651,1,198532,246509,0.39,-0.30,9.18,-0.06,0.05,-0.08,25.93
10186182,1664,1,198643,247262,0.68,-0.65,10.61,0.01,-0.02,0.00,25.93
10226184,1651,1,198969,247529,0.57,-0.49,10.07,-0.05,0.04,-0.01,25.93
10266869,1649,1,199188,248003,0.47,-1.20,10.40,-0.01,-0.00,-0.00,25.91
10307202,1654,1,199162,247999,0.57,-1.19,9.62,-0.04,-0.05,-0.01,25.91
10347202,1677,1,199309,246957,-0.19,-1.41,11.25,-0.00,0.06,0.00,25.91
10387182,1699,1,198568,245773,0.71,-1.28,9.45,-0.04,-0.06,0.00,25.91
10427182,1693,1,198493,245135,0.02,-0.96,10.99,0.00,0.07,0.00,25.91
10467151,1700,1,197889,244548,0.53,-1.14,8.80,-0.06,-0.05,-0.00,25.91
10507202,1664,1,198178,244796,0.12,-1.20,10.64,-0.01,0.04,-0.00,25.91
10547182,1680,1,198084,244961,0.29,-0.74,8.53,-0.08,-0.05,-0.01,25.91
10587202,1625,1,198773,246170,0.54,-0.87,11.55,0.00,-0.00,0.01,25.91
10627171,1619,1,198966,246340,0.44,-0.49,8.96,-0.06,-0.04,-0.01,25.91
10667202,1610,1,199077,246884,0.45,-1.00,10.23,-0.01,-0.01,-0.00,25.91
10707205,1623,1,199216,247098,0.25,-1.24,9.63,-0.02,-0.00,-0.01,25.91
10747202,1648,1,199168,246992,0.35,-0.89,10.05,-0.02,0.01,-0.00,25.91
10787182,1678,1,198981,246768,0.33,-0.85,9.87,-0.02,0.03,-0.01,25.91
10827182,1731,1,198590,246016,0.76,-0.65,9.66,-0.04,-0.02,-0.01,25.91
10867203,1774,1,198154,245285,0.38,-0.74,9.26,-0.05,-0.02,-0.01,25.91
10907202,1805,1,198119,245959,0.58,-1.17,9.73,-0.05,-0.02,-0.01,25.91
10947205,1811,1,198398,246358,0.52,-0.71,10.26,-0.07,-0.02,-0.02,25.91
10987202,1825,1,198625,247413,0.66,-1.07,10.02,-0.05,-0.07,-0.01,25.91
11027203,1825,1,198923,247586,0.32,-1.34,10.69,-0.04,-0.03,-0.01,25.91
11067202,1835,1,198469,246303,0.71,-0.66,8.82,-0.09,-0.11,-0.02,25.91
11105203,1843,1,198823,246982,0.71,-1.75,11.59,0.02,0.03,-0.00,25.91
11145171,1861,1,198614,246397,0.87,-0.33,8.49,-0.11,-0.10,-0.03,25.91
11185203,1841,1,198479,245912,0.21,-0.99,9.65,-0.02,0.04,0.00,25.91
11225171,1852,1,197988,244950,0.61,-0.70,9.03,-0.09,0.04,-0.01,25.91
11265181,1825,1,197776,244375,0.32,-0.72,9.87,-0.02,0.05,-0.00,25.91
11305869,1847,1,197646,244847,0.93,-0.35,8.95,-0.07,-0.01,-0.01,25.93
11346203,1840,1,198014,245283,-0.10,-1.27,10.03,-0.05,0.01,-0.00,25.93
11386202,1839,1,198209,246194,0.64,-0.69,9.47,-0.08,-0.06,-0.01,25.93
11426203,1806,1,198722,246679,0.26,-1.23,10.81,-0.02,0.08,-0.00,25.93
11466181,1810,1,198661,246908,0.35,-1.71,8.91,-0.08,-0.07,-0.01,25.93
11506205,1790,1,198973,247337,0.40,-0.80,11.00,-0.01,0.00,-0.00,25.93
11546179,1765,1,199083,247514,0.01,-1.46,9.85,-0.05,-0.04,-0.00,25.93
11586203,1715,1,199085,247296,0.71,-0.88,9.34,-0.05,-0.02,-0.01,25.93
11626202,1671,1,199213,247163,0.23,-1.06,10.01,-0.01,0.05,-0.00,25.93
11666182,1652,1,199019,247058,0.05,-1.13,8.81,-0.05,-0.03,-0.05,25.93
11706202,1634,1,199248,247697,0.28,-1.10,11.48,0.02,-0.01,-0.06,25.93
11746184,1639,1,199342,247620,0.35,-0.89,9.42,-0.06,-0.01,-0.05,25.93
11786202,1653,1,199106,246868,0.38,-1.24,10.18,-0.00,0.00,-0.01,25.93
11826182,1671,1,198857,245448,0.14,-1.37,10.23,-0.01,-0.03,0.00,25.93
11866183,1648,1,198384,244698,0.42,-1.63,10.49,0.02,-0.06,0.01,25.93
11906171,1607,1,198148,244249,0.51,-1.46,10.21,0.01,-0.06,-0.02,25.93
11946182,1583,1,197955,244315,0.40,-1.72,9.28,-0.03,-0.06,-0.02,25.93
11986203,1563,1,198037,244786,0.22,-1.26,9.86,-0.00,-0.02,-0.12,25.93
12026206,1533,1,198312,246220,0.41,-1.27,10.75,0.05,-0.04,-0.05,25.93
12066184,1519,1,198850,247906,0.33,-1.42,9.64,-0.02,-0.05,-0.15,25.93
12106203,1535,1,199631,249883,0.40,-1.26,11.16,0.04,-0.07,-0.10,25.93
12146182,1589,1,199957,249782,-0.20,-0.93,11.24,0.00,-0.06,-0.04,25.93
12186203,1647,1,199492,249661,0.35,-0.87,10.06,-0.01,-0.08,-0.00,25.93
12226203,1662,1,199516,248481,0.45,-0.76,10.18,-0.01,-0.01,0.02,25.93
12266184,1682,1,198772,247151,0.68,-0.79,10.07,0.02,-0.08,0.04,25.93
12306858,1679,1,198240,245973,0.63,-0.54,9.68,-0.04,-0.03,-0.02,25.75
12345202,1647,1,198321,246232,0.70,-1.10,9.00,0.00,-0.07,-0.02,25.75
12385181,1491,1,198382,246450,0.60,-0.46,8.37,-0.03,-0.09,-0.01,25.75
12425202,1365,1,198419,246984,1.02,-0.65,9.57,0.02,-0.06,0.03,25.75
12465171,1350,1,198481,246307,0.67,-0.89,8.39,-0.04,-0.02,-0.02,25.75
12505202,1351,1,198233,245551,0.82,-0.77,8.69,0.03,-0.06,-0.01,25.75
12545182,1315,1,198279,245907,1.12,-0.45,9.82,0.03,-0.03,-0.01,25.75
12585182,1269,1,198680,246084,0.52,-0.91,8.36,-0.05,-0.03,-0.03,25.75
12625202,1279,1,198977,246244,0.88,-0.26,9.35,-0.00,0.00,-0.05,25.75
12665182,1343,1,199044,246286,0.71,-0.91,9.77,0.00,0.06,-0.08,25.75
12705171,1392,1,198839,246143,0.76,-0.75,8.72,-0.04,-0.02,-0.04,25.75
12745202,1495,1,198885,246314,0.77,-0.11,10.73,0.03,0.08,-0.04,25.75
12785171,1653,1,198852,246520,0.28,-0.77,9.88,-0.06,-0.01,-0.03,25.75
12825202,1766,1,198744,246447,0.77,0.17,9.98,-0.05,-0.03,-0.04,25.75
12865182,1902,1,198939,247124,0.40,-0.60,10.27,-0.03,0.05,-0.01,25.75
12905182,2032,1,198891,247083,0.66,0.22,10.68,-0.06,-0.00,-0.00,25.75
12945182,2071,1,199113,248179,0.39,-0.66,11.21,-0.02,0.04,0.03,25.75
12985171,2065,1,199437,248413,0.80,-0.25,10.89,-0.11,-0.01,-0.01,25.75
13025209,2068,1,199798,249495,0.52,-0.88,11.50,-0.04,0.00,0.02,25.75
13065171,2055,1,199925,249507,0.34,-1.22,10.19,-0.13,-0.05,-0.01,25.75
13105206,2073,1,200001,249250,0.62,-1.13,10.83,-0.05,0.03,0.02,25.75
13145171,1986,1,199600,248883,1.00,-1.07,9.32,-0.10,-0.10,0.01,25.75
13185182,1942,1,199540,248311,0.28,-1.18,10.11,-0.12,0.02,0.01,25.75
13225171,2016,1,199234,247694,0.81,-0.39,8.12,-0.17,-0.06,-0.01,25.75
13265205,1968,1,199538,247329,0.60,-0.72,10.08,-0.02,0.07,0.01,25.75
13305193,1881,1,199245,246552,0.70,-0.40,8.70,-0.08,-0.01,0.00,25.75
13345868,1828,1,199206,246445,0.61,-1.06,10.51,-0.00,0.10,0.03,25.79
13384171,1751,1,199424,247440,0.79,-0.52,8.93,-0.06,-0.05,-0.00,25.79
13424202,1744,1,200148,248404,0.20,-1.45,10.00,-0.02,0.03,0.02,25.79
13464171,1745,1,200702,248974,0.88,-0.84,8.95,-0.04,-0.06,0.01,25.79
13504182,1740,1,200870,249288,0.59,-1.14,10.29,0.01,0.02,0.01,25.79
13544151,1698,1,200599,249037,0.38,-0.97,8.87,-0.04,-0.01,0.00,25.79
13584182,1725,1,200631,249406,0.90,-1.01,10.45,0.04,0.04,0.02,25.79
13624151,1753,1,200827,249826,0.17,-0.89,9.13,-0.01,-0.01,0.00,25.79
13664182,1781,1,201056,249865,0.21,-1.15,10.73,0.04,0.01,0.01,25.79
13704151,1787,1,201350,249889,0.42,-1.19,9.46,0.02,-0.02,0.00,25.79
13744171,1776,1,201679,249957,0.28,-1.49,11.17,0.09,0.00,0.02,25.79
13784152,1714,1,201572,250210,0.47,-1.12,9.62,-0.01,-0.07,-0.01,25.79
13824205,1671,1,201521,250549,0.76,-1.26,11.69,0.05,0.02,-0.09,25.79
13864171,1658,1,201106,250129,0.28,-0.54,9.47,-0.04,-0.08,-0.07,25.79
13904203,1660,1,200811,250265,0.26,-1.46,11.72,0.04,-0.03,0.00,25.79
13944171,1712,1,200489,249921,0.64,-0.16,9.22,-0.08,-0.07,-0.02,25.79
13984203,1742,1,200413,250131,0.70,-0.85,11.07,0.02,-0.02,-0.01,25.79
14024213,1750,1,200455,250235,0.40,-0.03,10.81,-0.06,-0.01,-0.03,25.79
14064203,1797,1,200458,250245,0.53,-0.80,10.25,-0.05,-0.01,-0.02,25.79
14104202,1811,1,200300,250484,0.73,-0.50,10.24,-0.05,-0.15,-0.02,25.79
14144205,1856,1,200503,250170,0.35,-1.23,10.63,-0.06,-0.01,-0.05,25.79
14184202,1950,1,199993,249736,0.93,-0.48,9.12,-0.09,-0.20,-0.08,25.79
14224203,1879,1,200122,249473,0.66,-0.94,10.47,-0.04,0.00,-0.03,25.79
14264182,1935,1,199991,249585,0.85,-0.73,9.05,-0.05,-0.13,-0.07,25.79
14304203,1966,1,199880,248966,0.96,-0.48,9.20,-0.06,-0.05,-0.03,25.79
14344202,1962,1,199826,249553,0.78,-0.87,9.53,0.01,-0.03,0.02,25.79
14384858,2002,1,199968,249930,1.07,-0.76,9.36,-0.05,-0.04,-0.01,25.73
14423202,1963,1,200331,250611,0.43,-1.25,9.50,0.02,0.02,0.03,25.73
14463151,1923,1,200303,250251,0.73,-1.02,9.78,-0.03,-0.05,-0.00,25.73
14503202,1885,1,200315,250382,0.61,-0.89,9.91,-0.03,0.00,0.01,25.73
14543171,1872,1,200039,249656,1.00,-1.32,9.69,-0.04,-0.03,-0.01,25.73
14583202,1843,1,199841,249204,0.74,-1.07,10.46,-0.01,0.01,-0.01,25.73
14623182,1807,1,199552,249231,1.23,-0.36,9.47,-0.05,-0.05,-0.01,25.73
14663202,1754,1,199999,250053,0.24,-1.13,10.44,-0.03,0.06,0.00,25.73
14703171,1742,1,199929,249912,0.81,-0.09,9.73,-0.06,-0.02,-0.02,25.73
14743202,1700,1,200105,250158,0.23,-0.63,10.15,0.00,0.09,0.00,25.73
14783151,1707,1,200111,250205,0.80,-0.15,10.15,-0.02,-0.01,-0.01,25.73
14823202,1759,1,200113,250373,0.85,-0.70,10.33,-0.00,-0.00,0.01,25.73
14863182,1728,1,200171,251008,0.84,-0.69,9.71,-0.04,-0.06,0.02,25.73
14903182,1535,1,200455,251237,0.56,-0.74,10.33,-0.04,-0.04,0.02,25.73
14943188,1410,1,200226,251474,0.78,-0.36,9.59,-0.03,-0.06,0.02,25.73
14983182,1355,1,200318,250978,0.50,-0.74,9.94,-0.04,0.02,-0.01,25.73
15023198,1263,1,200112,250904,0.55,-0.54,10.25,0.01,0.00,-0.01,25.73
15063171,1205,1,200034,250597,0.69,-0.23,10.42,-0.01,-0.01,-0.01,25.73
15103205,1214,1,200073,251267,0.57,-1.19,10.70,0.01,-0.05,-0.01,25.73
15143202,1251,1,200104,251117,0.77,-0.54,10.25,-0.03,-0.07,-0.02,25.73
15183205,1259,1,200166,251862,0.85,-1.39,9.78,-0.01,-0.08,-0.03,25.73
15223202,1307,1,200345,251507,0.97,-1.00,10.01,-0.06,-0.05,-0.02,25.73
15263202,1387,1,199843,250680,1.03,-0.55,9.43,0.00,-0.05,0.02,25.73
15303171,1474,1,199734,250265,0.64,-0.57,10.42,-0.01,0.01,0.02,25.73
15343171,1614,1,199377,249522,0.76,-0.62,8.97,-0.05,-0.03,-0.01,25.73
15382202,1714,1,199068,248822,0.81,-0.78,9.85,0.01,-0.00,0.02,25.73
15422858,1799,1,198703,247972,1.03,-0.86,8.82,-0.06,-0.04,-0.03,25.75
15463203,1827,1,198429,247674,1.00,-1.03,8.47,-0.05,-0.02,-0.00,25.75
15503202,1890,1,198318,247931,1.08,-0.69,9.24,-0.04,-0.04,0.01,25.75
15543182,1912,1,198573,247573,0.50,-0.75,9.00,-0.09,0.02,-0.01,25.75
15583182,1935,1,198336,247468,0.57,-0.32,8.34,-0.06,-0.04,0.03,25.75
15623182,1923,1,198562,247459,0.71,-1.10,10.26,0.05,0.14,0.02,25.75
15663151,1937,1,198405,247474,0.72,-0.52,8.50,-0.11,-0.03,0.04,25.75
15703182,1872,1,198658,248198,0.67,-1.29,10.30,0.04,0.13,0.04,25.75
15743151,1858,1,198761,248643,0.59,-0.18,9.15,-0.11,-0.07,0.04,25.75
15783182,1785,1,199123,249215,0.70,-0.84,10.53,-0.03,0.09,-0.00,25.75
15823182,1759,1,199164,249555,0.39,-0.38,9.58,-0.12,-0.07,-0.02,25.75
15863203,1715,1,199470,249626,0.91,-0.37,10.92,-0.06,0.09,-0.02,25.75
15903184,1667,1,199128,248988,0.56,-0.36,9.69,-0.11,-0.05,-0.01,25.75
15943203,1607,1,199397,249777,0.63,-0.30,11.53,-0.02,0.16,0.00,25.75
15983171,1584,1,199689,250027,0.01,-0.72,10.60,-0.12,0.05,0.00,25.75
16023177,1563,1,199488,250049,0.71,-0.64,11.56,-0.09,-0.02,0.00,25.75
16063182,1584,1,199477,250258,0.41,-0.98,10.42,-0.11,-0.01,0.00,25.75
16101181,1625,1,199302,249754,0.71,-0.33,10.76,-0.11,-0.03,0.02,25.75
16141183,1632,1,199248,249730,0.50,-0.48,10.28,-0.09,0.04,0.02,25.75
16181171,1712,1,199082,248539,0.63,-0.53,9.91,-0.09,-0.00,0.01,25.75
16221181,1779,1,198630,247690,0.46,-0.46,9.17,-0.08,0.03,0.02,25.75
16261171,1809,1,198366,246909,0.35,-1.52,9.61,-0.02,0.06,0.06,25.75
16301171,1872,1,198004,246345,0.49,-1.29,9.43,-0.06,0.01,0.01,25.75
16341171,1913,1,197794,246237,0.81,-1.23,9.08,-0.02,-0.04,-0.01,25.75
16382203,1894,1,198000,246946,0.38,-1.45,9.55,-0.02,-0.04,-0.06,25.75
16422890,1872,1,198415,247420,0.28,-1.57,9.11,-0.04,-0.02,-0.06,25.67
16461205,1885,1,198727,247771,0.60,-1.17,10.37,0.06,-0.03,-0.02,25.67
16501182,1861,1,199225,248819,0.43,-1.98,10.36,0.03,0.03,0.01,25.67
16541150,1834,1,199340,248738,0.51,-1.67,9.78,0.03,-0.03,-0.02,25.67
16581181,1821,1,199338,248918,0.43,-1.67,11.44,0.09,0.01,0.00,25.67
16621151,1883,1,199317,249361,0.11,-1.40,10.16,0.03,-0.05,-0.01,25.67
16661181,1953,1,199465,249790,0.30,-1.61,11.19,0.04,-0.04,-0.01,25.67
16701181,1962,1,199640,250241,0.46,-0.96,10.76,0.02,-0.05,-0.11,25.67
16741181,1965,1,199862,250629,0.22,-1.24,11.55,0.02,-0.05,-0.18,25.67
16781184,1950,1,200024,250964,0.19,-0.58,11.11,0.02,-0.08,-0.06,25.67
16821181,1929,1,200029,250560,0.32,-1.55,12.47,0.03,-0.08,-0.01,25.67
16861184,1909,1,199475,250311,0.61,-1.07,9.83,-0.09,-0.24,-0.02,25.67
16901202,1823,1,199618,250448,0.70,-1.48,10.57,-0.04,-0.08,-0.01,25.67
16941205,1735,1,199565,250204,0.77,-0.55,9.35,-0.10,-0.20,-0.07,25.67
16981202,1627,1,199363,249533,0.48,-0.99,9.27,-0.03,-0.03,-0.02,25.67
17021214,1519,1,199152,249841,1.08,-0.27,10.20,-0.01,-0.12,-0.03,25.67
17061202,1501,1,199439,249860,0.59,-1.01,8.95,-0.07,-0.07,-0.07,25.67
17101203,1487,1,199419,250431,0.93,-1.17,8.39,-0.05,-0.16,-0.09,25.67
17141202,1535,1,199769,250357,1.17,-1.48,8.80,-0.04,-0.03,-0.05,25.67
17181205,1603,1,199521,250116,1.01,-0.94,8.16,-0.07,-0.09,-0.05,25.67
17221202,1610,1,199218,248371,1.11,-0.89,9.07,-0.03,0.02,-0.04,25.67
17261182,1663,1,198729,248435,0.95,-0.55,8.14,-0.06,-0.06,-0.03,25.67
17301202,1674,1,199109,248802,0.87,-0.41,9.48,-0.03,0.03,-0.10,25.67
17341182,1715,1,199352,249263,0.79,-0.67,8.83,-0.02,-0.05,-0.03,25.67
17381202,1741,1,199671,249637,0.99,-0.78,9.54,-0.03,0.09,-0.07,25.67
17420182,1807,1,199826,249981,0.47,-1.17,8.70,-0.04,0.05,-0.02,25.67
17460869,1769,1,199619,250241,1.29,-0.42,9.40,-0.05,-0.01,-0.02,25.59
17501237,1760,1,200160,250963,0.26,-0.64,9.51,-0.05,0.12,-0.00,25.59
17541182,1792,1,199888,250556,0.82,0.06,9.54,-0.07,-0.04,-0.01,25.59
17581182,1744,1,200280,251195,0.38,-0.64,10.95,-0.01,0.16,0.03,25.59
17621171,1728,1,199898,250727,0.76,-0.35,10.26,-0.04,-0.04,0.01,25.59
17661182,1697,1,199961,251033,0.75,-1.07,10.82,-0.03,0.05,0.04,25.59
17701171,1712,1,199705,250927,0.56,-0.69,9.74,-0.11,-0.07,0.02,25.59
17741182,1715,1,199730,250974,0.64,-1.06,10.05,-0.09,0.03,0.03,25.59
17781171,1712,1,199540,250074,0.79,-0.32,9.89,-0.08,-0.01,-0.00,25.59
17821202,1699,1,199391,250009,0.70,-0.65,10.27,-0.05,0.05,0.01,25.59
17861171,1713,1,199443,249205,0.23,-0.70,10.09,-0.05,0.05,0.02,25.59
17901171,1741,1,198815,248238,1.07,-0.57,10.18,-0.01,-0.03,0.04,25.59
17941181,1714,1,198597,247810,0.26,-1.55,9.48,-0.08,-0.01,0.03,25.59
17981184,1718,1,198512,247663,0.97,-0.74,8.56,-0.08,-0.06,0.01,25.59
18021189,1742,1,198530,247676,0.53,-0.58,9.19,-0.04,0.03,0.02,25.59
18061171,1721,1,198285,246949,0.73,-0.40,8.83,-0.07,0.02,-0.01,25.59
18101182,1721,1,198048,246210,0.66,-1.21,9.28,-0.02,0.05,-0.01,25.59
18141184,1725,1,197697,246011,0.65,-0.77,8.98,-0.02,-0.01,0.00,25.59
18181182,1728,1,197548,244811,0.37,-1.02,8.56,-0.05,0.02,-0.01,25.59
18221229,1753,1,196913,244037,0.80,-1.01,8.50,-0.03,-0.02,-0.01,25.59
18261202,1746,1,196841,243180,0.79,-1.07,9.03,-0.02,0.05,-0.02,25.59
18301181,1744,1,196646,242895,0.50,-0.81,9.15,0.03,0.07,-0.01,25.59
18341171,1746,1,196250,242175,0.99,-0.73,9.37,0.02,0.01,-0.01,25.59
18381171,1738,1,196478,243335,0.41,-1.24,9.63,0.02,0.06,0.03,25.59
18421183,1734,1,196588,243764,0.92,-0.78,9.11,-0.03,-0.07,-0.02,25.59
18459890,1759,1,197472,245588,0.66,-1.20,10.13,0.01,0.01,-0.01,25.63
18500171,1766,1,197483,245181,0.92,-0.33,9.16,-0.10,-0.01,-0.03,25.63
18540205,1765,1,198050,245269,0.04,-1.09,12.22,0.07,0.14,0.01,25.63
18580151,1783,1,197805,245420,0.85,-0.55,10.80,-0.05,-0.08,-0.02,25.63
18620202,1763,1,198619,246538,-0.02,-1.76,12.79,0.01,0.11,0.00,25.63
18660171,1774,1,198328,246764,0.69,-0.20,9.64,-0.14,-0.19,-0.02,25.63
18700205,1767,1,199031,247541,0.13,-1.61,11.98,-0.02,0.02,0.07,25.63
18740171,1792,1,198912,246788,0.47,-0.47,9.11,-0.18,-0.12,-0.04,25.63
18780205,1744,1,198826,246423,0.84,-1.27,10.64,-0.01,0.05,0.09,25.63
18820171,1744,1,198472,246208,0.58,-0.71,9.13,-0.12,-0.04,0.06,25.63
18860184,1703,1,198701,247752,0.37,-1.77,10.16,-0.05,0.07,0.02,25.63
18900171,1688,1,198638,247874,0.86,-0.57,9.32,-0.14,-0.10,-0.02,25.63
18940205,1631,1,198511,248646,0.40,-1.82,9.11,-0.04,-0.07,0.00,25.63
18980181,1629,1,198683,247775,0.51,-0.68,9.34,-0.10,-0.00,-0.01,25.63
19020202,1645,1,198547,247974,0.94,-1.95,8.98,-0.04,-0.02,0.01,25.63
19060181,1648,1,198815,247521,0.69,-1.53,10.37,-0.04,0.10,-0.01,25.63
19100184,1655,1,198469,246826,0.80,-2.46,8.07,-0.11,-0.13,-0.01,25.63
19140202,1681,1,198347,246304,0.68,-1.48,8.75,-0.02,0.06,0.00,25.63
19180171,1733,1,198530,246496,-0.14,-1.40,10.30,-0.01,0.12,0.01,25.63
19220182,1731,1,198425,245331,0.68,-1.48,10.41,-0.03,0.04,-0.09,25.63
19260184,1723,1,198560,246571,0.99,-2.47,12.45,0.10,-0.11,0.01,25.63
19300171,1707,1,198981,247551,-0.44,-2.29,8.95,-0.09,-0.14,0.05,25.63
19340205,1735,1,199661,248818,0.51,-1.99,12.09,0.01,-0.05,0.03,25.63
19380171,1751,1,199704,249231,0.45,-1.89,8.86,-0.12,-0.14,-0.01,25.63
19420205,1770,1,199919,249092,0.27,-0.89,10.64,0.01,0.08,0.01,25.63
19459151,1769,1,199283,247345,0.85,-1.50,9.14,-0.02,-0.04,-0.00,25.63
19499890,1797,1,198777,246070,-0.16,-1.13,9.45,-0.00,0.02,0.06,25.47
19540181,1786,1,197373,242047,0.40,-1.55,7.33,-0.07,-0.02,-0.01,25.47
19580203,1767,1,195680,240127,0.55,-1.43,7.38,-0.03,0.08,0.02,25.47
19620171,1728,1,195079,240025,1.27,-2.82,8.32,0.03,0.02,0.02,25.47
19660151,1695,1,195267,239836,0.58,0.01,7.49,-0.01,0.05,-0.04,25.47
19698171,1712,1,195941,241342,0.29,-1.78,9.33,0.04,0.01,-0.12,25.47
19738171,1677,1,196204,240063,-0.05,-0.64,7.38,-0.02,0.03,-0.17,25.47
19778202,1703,1,195754,241181,0.41,-0.88,10.38,0.10,0.02,-0.00,25.47
19818171,1751,1,197143,244340,0.78,-0.62,9.64,0.04,-0.07,0.08,25.47
19858171,1773,1,197943,243987,0.47,-0.32,9.44,0.08,0.07,-0.02,25.47
19898171,1778,1,197332,242526,0.32,-1.19,10.68,0.10,0.16,-0.03,25.47
19938171,1774,1,197100,243227,-0.07,-0.83,7.81,-0.03,0.12,-0.18,25.47
19978205,1767,1,198765,246937,0.24,-1.62,11.46,0.13,0.09,-0.07,25.47
20018171,1761,1,201791,248739,-0.19,-0.63,9.02,-0.02,0.03,-0.13,25.47
20058209,1781,1,203509,250533,-0.25,-0.80,11.97,0.12,0.02,-0.01,25.47
20098182,1774,1,204345,252567,-0.17,0.27,12.09,-0.02,-0.01,-0.14,25.47
20138206,1789,1,204467,253290,0.50,-1.00,14.29,0.06,-0.06,-0.12,25.47
20178182,1712,1,201772,249755,-0.31,0.08,11.26,-0.16,-0.19,-0.28,25.47
20218205,1675,1,198139,247447,0.24,-0.76,12.05,-0.00,-0.16,-0.03,25.47
20258201,1702,1,197121,245796,0.10,-0.42,10.21,-0.16,-0.09,0.03,25.47
20298182,1647,1,196407,244265,1.11,-0.42,8.99,0.01,-0.18,0.13,25.47
20338171,1606,1,195766,242808,0.57,-0.70,8.88,-0.10,0.11,0.15,25.47
20378171,1577,1,195277,242812,1.03,-0.42,6.76,-0.13,-0.25,0.05,25.47
20418182,1509,1,195656,242830,1.19,-0.49,8.44,-0.02,0.13,0.04,25.47
20458171,1575,1,195681,243094,0.67,-0.46,6.96,-0.12,-0.14,-0.02,25.47
20498202,1457,1,196341,242860,0.92,-1.64,8.74,0.02,0.07,0.04,25.47
20538838,1469,1,196131,242450,0.90,-1.78,6.45,-0.19,-0.25,0.11,25.75
20579181,1408,1,196376,240941,0.85,-1.96,9.12,0.04,0.10,0.20,25.75
20619150,1520,1,196077,241830,1.53,-1.16,7.09,-0.23,-0.18,-0.04,25.75
20659201,1563,1,196759,241869,0.64,-1.68,8.26,0.04,0.26,-0.02,25.75
20699171,1680,1,196583,242900,1.15,-0.22,9.22,0.00,0.12,-0.09,25.75
20739171,1658,1,196050,242787,0.62,-0.74,10.17,0.06,0.20,0.04,25.75
20779151,1757,1,195807,244530,0.29,-0.52,9.56,0.04,0.10,0.03,25.75
20819151,1746,1,196481,246298,0.08,-1.59,12.05,0.05,0.16,0.04,25.75
20859150,1806,1,196227,246455,-0.06,0.10,11.63,-0.00,0.02,0.06,25.75
20899171,1795,1,196454,246866,0.27,-0.48,15.59,0.09,0.04,0.12,25.75
20939150,1760,1,196866,247649,0.30,-0.11,14.44,-0.13,-0.16,-0.01,25.75
20979201,1783,1,198068,249286,-0.40,-0.33,14.75,-0.07,-0.07,0.02,25.75
21017203,1835,1,199905,250906,-0.24,-0.79,15.28,-0.09,-0.04,-0.01,25.75
21057216,1904,1,201157,251640,-0.05,-0.14,11.62,-0.19,-0.18,-0.04,25.75
21097219,1911,1,202054,251649,1.41,0.10,11.93,-0.11,-0.24,-0.04,25.75
21137181,1978,1,201421,250423,0.14,-0.50,8.30,-0.24,-0.14,-0.07,25.75
21177203,1954,1,201094,250275,1.01,0.12,7.62,-0.13,-0.26,-0.02,25.75
21217181,1834,1,200969,249845,0.36,-1.47,8.60,-0.08,0.01,0.07,25.75
21257171,1875,1,201121,249817,0.93,-0.06,5.42,-0.14,-0.29,-0.01,25.75
21297202,1950,1,201277,250048,1.17,-2.32,8.68,0.06,-0.00,-0.04,25.75
21337182,1930,1,201357,250548,1.38,-2.92,8.67,-0.07,-0.17,-0.09,25.75
21377202,1823,1,201189,250769,0.49,-2.30,8.44,-0.00,-0.02,-0.15,25.75
21417203,1858,1,202451,253219,1.46,1.52,8.68,0.07,-0.08,-0.08,25.75
21457171,1841,1,204208,254134,1.11,-3.37,11.95,0.21,0.11,0.05,25.75
21497181,1773,1,203699,252963,1.18,-2.73,4.43,-0.14,-0.17,-0.08,25.75
21537201,1711,1,202247,251631,0.46,-2.41,10.03,0.19,0.32,-0.01,25.75
21577858,1664,1,201752,251363,0.04,-1.43,7.15,-0.04,0.04,-0.09,25.47
21618182,1636,1,201445,250084,0.45,0.15,9.07,0.15,0.16,0.01,25.47
21658132,1679,1,201084,250470,0.37,-0.49,9.26,0.12,0.05,0.05,25.47
21698150,1643,1,201194,251212,0.32,-0.85,9.03,0.05,0.01,0.09,25.47
21738150,1631,1,201409,252122,0.16,-0.51,11.18,0.08,-0.01,0.13,25.47
21778171,1601,1,201081,252401,0.24,-0.93,11.11,-0.05,-0.14,0.10,25.47
21818184,1636,1,200676,252024,0.34,-0.25,14.45,-0.01,0.04,0.02,25.47
21858171,1701,1,200381,251602,0.69,-0.23,12.70,-0.13,-0.15,-0.16,25.47
21898205,1687,1,199950,250749,0.29,-0.42,14.06,-0.11,0.01,-0.08,25.47
21938181,1651,1,199786,250394,0.60,-0.16,11.77,-0.16,-0.17,-0.13,25.47
21978205,1669,1,200049,250437,0.98,0.09,12.63,-0.09,-0.05,-0.08,25.47
22018182,1691,1,200429,250448,0.84,-0.88,9.58,-0.21,-0.12,-0.04,25.47
22058205,1669,1,200607,250749,1.00,-0.52,9.67,-0.16,-0.10,0.10,25.47
22098182,1680,1,201112,251045,0.85,-0.51,7.57,-0.22,-0.10,0.13,25.47
22138184,1645,1,201845,251482,1.34,-0.10,8.67,-0.11,-0.03,0.14,25.47
22178181,1648,1,202330,251315,1.14,-0.11,7.90,-0.12,0.04,0.02,25.47
22216171,1676,1,202463,251851,1.61,-0.84,8.06,-0.10,-0.01,-0.01,25.47
22256202,1687,1,202468,251783,1.22,-0.53,8.08,-0.10,0.05,-0.01,25.47
22296181,1713,1,202513,252096,1.08,-1.26,7.47,-0.11,0.01,-0.01,25.47
22336181,1730,1,202564,251930,1.02,-0.54,8.19,-0.10,0.02,-0.01,25.47
22376182,1754,1,202580,252392,0.83,-0.55,7.86,-0.05,0.08,-0.00,25.47
22416182,1790,1,202457,252267,1.06,-0.71,8.92,-0.05,0.12,-0.01,25.47
22456184,1808,1,202058,251771,0.87,-1.18,8.65,0.00,0.14,0.02,25.47
22496151,1812,1,201741,251698,0.65,-1.00,8.42,-0.03,0.06,0.02,25.47
22536171,1808,1,202105,252444,0.44,-0.85,10.37,0.05,0.15,0.03,25.47
22576151,1839,1,202358,252662,0.37,-0.95,9.39,0.01,0.06,-0.02,25.47
22616858,1796,1,202435,252622,0.35,-1.24,11.76,0.08,0.17,-0.01,25.75
22657171,1819,1,202568,252902,0.47,-1.48,11.07,0.01,0.04,-0.03,25.75
22697171,1846,1,202629,252937,0.13,-1.92,11.27,-0.05,0.02,-0.04,25.75
22737182,1862,1,202732,253386,0.19,-1.61,12.01,0.02,0.05,-0.03,25.75
22777171,1879,1,202781,253350,0.03,-1.03,11.06,-0.05,0.02,-0.08,25.75
22817181,1918,1,202952,253793,0.28,-1.50,12.94,0.02,0.01,-0.01,25.75
22857171,1904,1,202963,253620,0.30,-1.45,10.46,-0.06,-0.08,-0.05,25.75
22897201,1950,1,203042,253810,0.09,-1.65,11.05,-0.00,0.00,0.03,25.75
22937171,1971,1,202948,253440,0.27,-1.30,9.35,-0.09,-0.04,0.00,25.75
22977181,1948,1,203008,253564,0.22,-1.18,10.64,0.00,0.02,0.05,25.75
23017151,1959,1,202833,253123,0.39,-1.11,8.70,-0.13,-0.05,-0.04,25.75
23057202,1863,1,202817,253279,0.34,-1.47,9.43,0.04,-0.07,0.04,25.75
23097171,1808,1,202749,253121,0.13,-1.49,8.71,-0.09,-0.05,-0.04,25.75
23137214,1759,1,202580,252893,0.21,-1.49,8.61,-0.01,-0.07,0.01,25.75
23177183,1731,1,202506,252747,0.69,-0.85,8.80,-0.04,-0.04,-0.04,25.75
23217202,1727,1,202462,252841,0.73,-1.38,10.47,0.02,-0.05,-0.06,25.75
23257183,1696,1,202117,252211,0.17,-0.87,8.32,-0.03,-0.05,-0.09,25.75
23297203,1680,1,201974,252381,0.36,-1.13,10.92,0.05,-0.03,-0.02,25.75
23337216,1690,1,201788,252962,0.77,-0.88,8.61,-0.02,-0.04,-0.02,25.75
23377201,1701,1,202067,253569,0.37,-1.01,11.07,0.05,0.02,-0.01,25.75
23417171,1689,1,201580,253155,0.98,-0.32,9.73,0.01,-0.07,-0.03,25.75
23457182,1693,1,201704,253596,0.17,-1.17,10.63,0.01,0.02,-0.03,25.75
23495171,1709,1,201476,252974,0.68,-0.39,10.00,-0.05,-0.03,-0.09,25.75
23535201,1711,1,201363,252916,0.56,-1.29,10.07,0.02,-0.01,-0.02,25.75
23575181,1692,1,201264,251928,0.62,-0.74,9.65,-0.06,0.00,-0.06,25.75
23615181,1680,1,201257,251875,0.78,-1.51,10.94,0.05,-0.01,-0.01,25.75
23655871,1664,1,201118,251174,0.33,-1.10,9.20,-0.05,-0.04,-0.02,25.69
23696202,1637,1,200991,251265,0.79,-1.38,10.76,0.01,-0.04,-0.02,25.69
23736184,1643,1,200865,250924,0.67,-1.20,8.71,-0.09,-0.06,-0.03,25.69
23776201,1634,1,200927,250951,0.80,-0.98,10.84,0.00,-0.02,-0.01,25.69
23816182,1652,1,200907,251093,0.88,-1.23,10.08,-0.03,-0.08,-0.02,25.69
23856202,1648,1,200858,250353,0.11,-1.37,9.11,-0.06,-0.05,-0.02,25.69
23896205,1680,1,200359,250089,1.26,-1.30,10.66,0.01,-0.09,-0.00,25.69
23936182,1644,1,200369,249907,0.36,-1.33,9.39,-0.10,-0.03,-0.03,25.69
23976205,1696,1,200100,249976,1.21,-0.54,9.65,-0.03,-0.08,-0.07,25.69
24016202,1712,1,200302,250101,0.67,-1.07,10.19,-0.04,-0.01,-0.06,25.69
24056205,1713,1,200048,249877,0.74,-0.29,9.18,-0.05,-0.05,-0.07,25.69
24096202,1709,1,200077,249792,0.67,-0.86,10.24,-0.02,0.02,-0.03,25.69
24136182,1722,1,199961,250617,0.70,-0.92,9.23,-0.07,-0.02,-0.03,25.69
24176202,1707,1,200325,250114,0.67,-0.67,10.75,-0.04,0.03,-0.03,25.69
24216182,1712,1,199939,250242,0.67,-0.69,9.15,-0.03,-0.08,-0.01,25.69
24256202,1707,1,200387,250683,0.12,-0.94,10.23,-0.05,0.07,-0.01,25.69
24296184,1730,1,200089,250724,0.69,-0.97,8.92,-0.06,-0.08,0.00,25.69
24336182,1717,1,200067,250694,0.85,-1.01,8.88,-0.08,0.04,0.00,25.69
24376171,1747,1,199943,250923,0.95,-0.71,9.28,-0.06,-0.01,0.02,25.69
24416182,1730,1,200034,249925,0.45,-0.34,9.43,-0.06,0.07,-0.01,25.69
24456182,1743,1,199405,249742,1.07,-0.70,9.22,-0.03,0.02,-0.02,25.69
24496182,1745,1,199522,249863,0.68,-0.79,9.76,-0.03,0.08,-0.01,25.69
24536182,1757,1,199269,249369,1.03,-1.07,9.13,-0.06,-0.02,-0.01,25.69
24576202,1744,1,199096,248865,1.01,-1.20,9.61,-0.04,0.01,-0.01,25.69
24616182,1747,1,199252,249235,0.36,-0.90,9.67,-0.03,0.08,0.01,25.69
24656858,1742,1,199122,248826,0.66,-0.93,9.93,-0.03,0.00,0.03,25.85
24695171,1706,1,199428,249567,0.33,-1.58,10.41,-0.01,0.10,0.01,25.85
24735171,1709,1,199333,249323,0.99,-1.04,9.45,-0.08,-0.03,-0.02,25.85
24775205,1712,1,199584,249362,0.38,-1.93,10.59,0.00,0.09,-0.00,25.85
24815171,1757,1,199323,248865,0.73,-0.70,8.67,-0.05,-0.05,-0.01,25.85
24855202,1733,1,199711,249302,0.33,-1.53,11.77,0.03,0.12,-0.00,25.85
24895171,1722,1,199400,248939,0.42,-0.61,8.86,-0.08,-0.12,-0.01,25.85
24935205,1726,1,199661,249707,0.65,-1.77,11.26,0.01,0.06,-0.00,25.85
24975177,1734,1,199695,249530,0.50,-0.76,9.33,-0.07,-0.08,-0.01,25.85
25015203,1739,1,199840,250013,0.38,-1.02,10.79,-0.00,0.05,0.06,25.85
25055171,1727,1,199865,250290,0.39,-1.03,10.70,-0.06,-0.02,0.00,25.85
25095182,1728,1,199833,250537,0.26,-0.86,10.32,-0.06,0.04,-0.02,25.85
25135182,1728,1,199556,251162,0.90,-0.94,10.00,-0.07,-0.11,-0.02,25.85
25175203,1717,1,200004,251510,0.58,-1.30,9.76,-0.05,0.02,-0.02,25.85
25215182,1695,1,199729,250494,0.31,-0.33,9.27,-0.10,-0.07,-0.03,25.85
25255203,1687,1,199388,249789,0.75,-1.02,10.38,-0.03,0.06,-0.02,25.85
25295181,1677,1,199266,249803,0.28,-0.57,10.16,-0.05,0.01,-0.02,25.85
25335184,1693,1,199351,249740,0.69,-1.16,10.30,-0.04,-0.05,-0.02,25.85
25375202,1712,1,199189,249910,0.64,-0.72,9.53,-0.06,-0.07,-0.02,25.85
25415203,1727,1,199518,250201,0.33,-1.08,10.22,-0.04,0.00,-0.02,25.85
25455182,1744,1,199433,249870,0.58,-0.39,8.95,-0.06,0.01,-0.02,25.85
25495182,1743,1,199595,250163,0.47,-0.95,10.83,0.02,0.04,-0.01,25.85
25535171,1751,1,199915,250853,0.64,-1.25,9.75,-0.02,-0.01,-0.01,25.85
25575205,1778,1,199661,249904,0.64,-1.19,9.25,-0.04,-0.07,-0.01,25.85
25615202,1774,1,199518,250163,0.60,-1.10,9.43,0.02,-0.04,-0.01,25.85
25655182,1769,1,199754,250038,0.56,-0.69,9.64,-0.02,0.04,-0.02,25.85
25695869,1774,1,199680,250336,0.53,-1.13,10.24,0.03,0.01,-0.01,25.67
25734171,1776,1,199741,250572,0.82,-0.95,9.90,0.02,-0.05,-0.01,25.67
25774181,1789,1,199895,251819,0.57,-1.62,10.71,-0.00,-0.04,-0.01,25.67
25814205,1795,1,199712,250489,0.53,-0.82,9.00,-0.04,-0.09,-0.02,25.67
25854202,1785,1,199637,251335,0.66,-1.74,11.00,0.05,0.00,0.04,25.67
25894150,1810,1,199848,251066,0.83,-1.24,10.05,-0.05,-0.04,-0.05,25.67
25934202,1785,1,199807,250514,0.56,-0.98,10.93,0.03,0.03,-0.03,25.67
25974171,1799,1,199120,250001,0.87,-1.49,9.78,-0.06,-0.18,-0.10,25.67
26014201,1758,1,199295,250144,0.57,-1.52,9.54,-0.05,-0.01,-0.02,25.67
26054205,1825,1,198915,249484,0.93,-1.05,8.76,-0.07,-0.16,-0.14,25.67
26094201,1780,1,199202,249445,0.83,-0.96,9.67,0.01,0.08,-0.03,25.67
26134171,1814,1,199121,249921,0.96,-0.71,9.21,-0.02,-0.09,-0.13,25.67
26174202,1762,1,199277,249681,0.73,-0.91,9.30,-0.06,0.01,-0.07,25.67
26214182,1778,1,199033,250065,1.14,-1.47,8.69,-0.06,-0.11,-0.00,25.67
26254202,1764,1,199071,248989,0.98,-0.72,8.88,-0.08,-0.01,-0.02,25.67
26294203,1737,1,198660,249131,0.83,-0.89,8.02,-0.07,-0.05,0.09,25.67
26334182,1769,1,199021,249871,0.94,-1.08,10.48,0.01,0.17,0.02,25.67
26374151,1749,1,198991,249859,0.85,-0.40,9.88,-0.06,-0.03,0.02,25.67
26414205,1707,1,198879,249636,1.06,-1.10,9.80,-0.07,-0.05,0.09,25.67
26454181,1719,1,199195,250414,1.00,-0.91,10.35,-0.03,0.01,0.04,25.67
26494171,1718,1,199412,250214,0.45,-0.41,9.79,-0.10,0.03,-0.02,25.67
26534184,1746,1,199444,250471,0.91,-0.33,10.50,-0.02,0.06,-0.02,25.67
26574182,1744,1,199534,250195,0.94,-0.37,10.53,-0.08,0.09,-0.02,25.67
26614219,1710,1,199124,249182,0.58,-0.95,9.15,-0.06,-0.09,-0.02,25.67
26654202,1695,1,198711,248084,0.87,-0.98,9.43,-0.09,0.02,-0.01,25.67
26694182,1726,1,198767,248219,0.24,-0.09,9.99,-0.05,0.07,-0.01,25.67
26734869,1702,1,198219,246523,0.86,0.35,8.72,-0.12,-0.03,-0.01,25.79
26773184,1710,1,197667,245666,1.20,-0.66,10.49,-0.02,0.10,-0.02,25.79
26813182,1762,1,197258,244889,0.32,-0.36,8.83,-0.08,0.09,0.00,25.79
26853171,1770,1,197286,245798,0.64,-0.58,10.09,-0.01,0.03,0.01,25.79
26893171,1748,1,198080,247782,0.51,-1.13,10.11,0.01,0.04,0.02,25.79
26933150,1723,1,198651,248388,0.50,-0.67,10.50,-0.04,0.03,0.01,25.79
26973171,1737,1,199359,249222,0.58,-1.21,11.01,0.03,0.00,0.10,25.79
27013150,1722,1,199887,249723,0.74,-0.92,9.21,-0.09,-0.05,0.12,25.79
27053181,1738,1,200159,249729,0.19,-1.96,10.74,0.01,0.12,0.03,25.79
27093150,1723,1,199959,249193,0.90,-0.62,9.28,-0.03,-0.03,-0.01,25.79
27133202,1775,1,200330,249591,1.09,-1.82,10.37,0.02,0.03,-0.00,25.79
27173171,1749,1,200249,248826,0.26,-0.49,8.28,-0.02,0.01,-0.16,25.79
27213181,1804,1,200435,248741,0.22,-1.00,10.77,0.07,0.02,-0.01,25.79
27253171,1771,1,200641,248703,0.58,-0.96,10.95,0.05,-0.00,-0.05,25.79
27293181,1785,1,200700,248296,0.70,-1.78,9.91,-0.06,-0.15,-0.01,25.79
27333205,1761,1,200495,248289,0.67,-0.93,9.23,-0.03,-0.03,-0.07,25.79
27373201,1765,1,200628,249273,0.91,-1.51,10.15,-0.01,-0.11,-0.01,25.79
27413205,1776,1,200402,248848,0.59,-0.68,9.67,-0.03,0.00,-0.04,25.79
27453181,1759,1,200273,249070,0.77,-1.84,10.41,0.03,-0.02,-0.00,25.79
27493184,1762,1,200149,248680,0.52,-1.12,10.37,0.04,0.03,-0.00,25.79
27533171,1767,1,199709,248152,0.87,-1.72,9.15,-0.07,-0.17,-0.02,25.79
27573205,1721,1,199688,248368,1.12,-0.83,9.29,0.01,-0.05,-0.02,25.79
27613181,1717,1,199636,248201,0.62,-0.98,9.46,-0.04,-0.01,-0.01,25.79
27653204,1712,1,199470,248635,0.83,-0.96,9.13,-0.02,-0.08,-0.05,25.79
27693201,1714,1,199512,248392,0.36,-1.15,9.89,0.00,0.01,-0.00,25.79
27733171,1728,1,199387,249499,1.16,-1.41,8.89,-0.06,-0.13,-0.00,25.79
27773889,1702,1,199626,249200,0.82,-1.08,10.08,0.04,0.06,0.00,25.61
27812150,1717,1,199540,249943,1.00,-1.54,9.03,-0.02,-0.16,-0.04,25.61
27852202,1693,1,199809,248855,0.17,-0.84,10.37,0.03,0.16,0.00,25.61
27892150,1701,1,199492,249391,0.82,-1.35,9.00,-0.00,-0.26,-0.10,25.61
27932202,1755,1,199900,249767,0.58,-0.86,11.41,0.07,0.14,0.00,25.61
27972150,1808,1,199626,250381,0.71,-1.91,8.37,-0.06,-0.24,-0.03,25.61
28012202,1721,1,199857,250091,1.03,-1.22,11.41,0.03,0.10,-0.00,25.61
28052171,1791,1,199527,250192,0.34,-1.01,9.13,-0.09,-0.14,0.02,25.61
28092182,1712,1,199615,250561,1.32,-0.79,11.30,0.01,0.02,-0.00,25.61
28132171,1690,1,199663,250549,0.72,-1.28,9.68,-0.08,-0.05,-0.01,25.61
28172202,1712,1,199645,250420,0.99,-0.42,10.97,-0.01,0.02,-0.02,25.61
28212184,1709,1,199626,249908,0.83,-1.25,9.82,-0.07,0.01,-0.01,25.61
28252205,1719,1,199509,250572,1.54,-1.43,10.33,-0.03,-0.09,-0.07,25.61
28292205,1697,1,199718,249814,0.37,-0.79,10.49,-0.02,0.05,0.01,25.61
28332171,1712,1,199207,249903,1.34,-0.73,9.61,0.00,-0.20,-0.01,25.61
28372182,1711,1,199423,249275,0.87,-0.34,10.63,0.00,0.16,0.01,25.61
28412151,1746,1,198857,249345,0.93,-1.12,9.13,-0.06,-0.12,-0.01,25.61
28452205,1745,1,199077,248648,0.78,-1.01,9.94,0.01,0.13,0.01,25.61
28491150,1757,1,198728,249342,1.24,-1.53,8.88,-0.07,-0.17,0.01,25.61
28531184,1710,1,199126,249252,0.72,-0.69,10.01,0.04,0.10,0.01,25.61
28571151,1741,1,198921,249674,0.88,-1.42,8.60,-0.06,-0.16,0.01,25.61
28611184,1744,1,199417,249716,1.05,-1.13,10.74,0.06,0.12,0.00,25.61
28651151,1743,1,199046,249513,0.60,-1.44,7.97,-0.10,-0.16,0.00,25.61
28691182,1737,1,199199,249664,1.19,-1.03,10.33,0.08,0.08,0.01,25.61
28731151,1746,1,198982,249223,0.83,-1.17,9.41,-0.06,-0.05,0.00,25.61
28771182,1749,1,198812,248243,0.81,-1.39,9.06,-0.02,-0.00,-0.00,25.61
28811889,1782,1,198774,248537,0.48,-0.67,10.34,0.05,-0.01,0.01,25.49
28852171,1776,1,198940,249098,0.80,-1.71,9.55,-0.02,-0.00,0.01,25.49
28892182,1776,1,199203,249429,0.72,-0.79,10.35,0.02,-0.00,0.01,25.49
28932171,1759,1,199322,250280,0.77,-1.71,9.81,-0.04,0.01,0.02,25.49
28972171,1744,1,199561,250506,0.44,-0.59,10.40,0.01,0.00,0.02,25.49
29012150,1734,1,199585,250872,0.82,-1.86,10.30,-0.03,-0.05,0.04,25.49
29052181,1759,1,199788,251026,0.79,-0.30,10.47,-0.00,-0.02,0.01,25.49
29092184,1746,1,200041,250582,0.22,-1.41,10.91,0.03,0.05,0.05,25.49
29132151,1745,1,199693,250521,1.24,-0.33,10.20,-0.03,-0.12,0.00,25.49
29172184,1707,1,199995,250422,0.10,-1.99,12.18,0.06,0.09,0.02,25.49
29212151,1712,1,199421,249967,0.97,-0.40,8.61,-0.12,-0.32,0.00,25.49
29252182,1700,1,199751,250316,0.27,-1.53,12.30,0.12,0.15,0.03,25.49
29292150,1737,1,199385,250020,0.95,-0.25,7.98,-0.18,-0.34,-0.01,25.49
29332205,1727,1,199579,250001,0.97,-0.72,11.30,0.12,0.14,0.00,25.49
29372150,1764,1,199173,250330,0.95,-0.85,8.43,-0.13,-0.19,-0.01,25.49
29412205,1749,1,199414,249551,0.57,-0.94,10.15,0.04,0.06,0.00,25.49
29452151,1788,1,198514,247638,0.98,-1.46,8.17,-0.14,-0.16,-0.01,25.49
29491205,1783,1,198077,246138,1.24,-1.10,9.53,0.04,-0.00,0.00,25.49
29531171,1821,1,197543,245422,1.25,-0.56,7.79,-0.15,-0.08,0.03,25.49
29571184,1828,1,197597,245812,1.38,-0.26,8.92,-0.01,-0.04,-0.00,25.49
29611202,1901,1,197919,246252,0.79,-0.61,9.63,-0.05,0.05,0.01,25.49
29651171,1882,1,198108,246901,1.21,-0.12,8.58,-0.09,-0.04,0.01,25.49
29691197,1911,1,198763,247993,0.76,-0.56,10.38,0.03,0.03,0.04,25.49
29731150,1872,1,198897,247883,1.07,-0.95,8.88,-0.13,-0.01,0.16,25.49
29771181,1827,1,199071,248285,1.19,-0.72,10.20,0.03,0.06,0.06,25.49
29811150,1766,1,199079,248988,1.13,-0.83,8.63,-0.15,-0.02,0.13,25.49
29851869,1711,1,199466,249574,0.62,0.07,10.13,0.00,0.08,0.03,25.49
29890139,1690,1,199647,250322,0.79,-0.68,9.75,-0.12,-0.00,0.03,25.49
29930178,1680,1,200220,250814,0.70,-0.39,11.15,0.05,0.17,0.01,25.49
29970150,1701,1,200274,251312,0.81,-0.39,9.45,-0.18,-0.09,0.03,25.49
30010181,1682,1,200703,251870,0.83,-1.08,10.93,0.01,0.14,0.02,25.49
30050150,1696,1,200676,252209,0.81,-0.55,9.87,-0.15,-0.07,0.02,25.49
30090181,1674,1,200805,251968,0.72,-0.74,10.21,-0.06,0.06,0.01,25.49
30130171,1677,1,200589,251412,0.74,0.17,9.76,-0.07,-0.02,0.03,25.49
30170171,1677,1,200396,250532,0.78,-0.61,10.04,-0.05,0.07,0.02,25.49
30210171,1696,1,200297,250434,0.57,-0.49,9.84,-0.06,0.07,0.04,25.49
30250171,1712,1,200279,249905,0.61,-0.82,10.38,-0.05,0.03,0.04,25.49
30290171,1697,1,200141,249522,0.61,-0.67,9.09,-0.10,-0.00,0.09,25.49
30330181,1712,1,200278,249274,0.71,-0.98,8.47,-0.06,-0.02,0.09,25.49
30370182,1726,1,200528,249307,0.70,-0.43,9.58,0.00,0.04,0.07,25.49
30410150,1702,1,200386,249313,0.78,-0.59,8.31,-0.07,0.02,0.05,25.49
30450171,1683,1,200562,250010,0.94,-0.68,9.44,-0.02,0.01,0.04,25.49
30490171,1673,1,200925,250177,0.28,-0.78,9.29,0.00,0.06,0.03,25.49
30531150,1712,1,201515,250844,0.45,-1.23,9.66,-0.01,-0.01,0.10,25.49
30571182,1712,1,201758,250956,0.89,-0.77,10.08,0.02,0.04,0.01,25.49
30611151,1717,1,202024,250829,0.28,-2.13,9.24,-0.04,-0.03,0.11,25.49
30651182,1754,1,201717,250200,1.04,-0.59,10.24,0.00,-0.00,0.00,25.49
30691171,1767,1,201344,249889,0.24,-1.27,9.50,-0.01,0.07,-0.00,25.49
30731181,1776,1,200372,249357,1.02,-1.12,10.82,-0.01,0.04,-0.06,25.49
30771184,1771,1,200032,249607,0.18,-1.51,10.16,0.04,-0.01,-0.03,25.49
30811182,1782,1,200011,249740,0.42,-0.72,11.05,0.00,-0.04,-0.04,25.49
30849869,1789,1,200293,250550,0.46,-1.33,10.94,-0.02,-0.05,-0.01,25.59
30890202,1798,1,200576,251285,0.80,-1.21,10.00,-0.03,-0.08,-0.01,25.59
30930202,1778,1,200823,251628,0.27,-1.13,11.56,-0.01,-0.03,-0.00,25.59
30970201,1785,1,200638,251500,1.04,-0.77,9.86,-0.07,-0.10,-0.00,25.59
31010202,1759,1,200809,251336,-0.00,-1.12,10.56,-0.00,-0.02,0.00,25.59
31050201,1763,1,200935,251317,0.78,-0.70,10.35,-0.04,-0.04,-0.01,25.59
31090204,1719,1,201048,251117,0.39,-0.94,10.14,-0.03,0.01,-0.01,25.59
31130181,1701,1,201111,251349,0.47,-1.64,10.22,-0.04,-0.02,-0.01,25.59
31170205,1686,1,201018,251195,0.79,-0.53,9.28,-0.08,-0.06,-0.02,25.59
31210204,1681,1,200992,251399,0.55,-1.76,9.14,-0.06,-0.03,-0.01,25.59
31250205,1707,1,200929,251070,0.85,-0.99,9.25,-0.09,-0.05,-0.02,25.59
31290202,1697,1,201066,251158,0.73,-0.73,9.11,-0.03,-0.01,-0.02,25.59
31330207,1719,1,201160,251487,0.65,-0.75,9.95,-0.04,-0.02,-0.02,25.59
31370205,1712,1,201397,251603,0.43,-0.76,9.70,-0.04,0.03,-0.01,25.59
31410181,1743,1,201660,251796,0.49,-0.83,9.10,-0.03,-0.05,-0.01,25.59
31450202,1743,1,201637,251305,0.35,-1.10,10.11,-0.03,0.03,-0.01,25.59
31490183,1767,1,201201,249986,0.82,-0.99,8.99,-0.06,-0.01,-0.02,25.59
31531202,1759,1,201025,249450,0.65,-1.03,9.67,-0.01,-0.03,-0.01,25.59
31569205,1756,1,201092,249651,0.45,-0.69,9.05,-0.05,0.03,-0.02,25.59
31609181,1751,1,201315,249435,0.60,-0.20,9.63,-0.01,-0.00,-0.02,25.59
31649202,1750,1,201538,249857,0.39,-0.65,10.71,0.00,0.06,-0.01,25.59
31689171,1715,1,201765,250380,0.57,-0.65,9.65,-0.04,0.02,-0.02,25.59
31729197,1687,1,202115,251335,0.13,-0.86,10.96,0.01,0.03,-0.01,25.59
31769171,1681,1,202475,252440,0.62,-0.95,10.95,-0.02,-0.01,-0.01,25.59
31809205,1701,1,202635,253036,0.56,-0.86,10.69,-0.03,-0.05,0.02,25.59
31849181,1729,1,202854,253623,0.68,-1.59,10.38,-0.04,-0.06,0.02,25.59
31889871,1739,1,202685,253360,0.54,-0.73,10.23,-0.03,-0.01,-0.01,25.31
31930202,1754,1,202545,253337,0.43,-1.09,9.87,-0.04,-0.02,-0.02,25.31
31970205,1750,1,202551,253421,0.56,-1.70,10.64,-0.02,-0.03,-0.01,25.31
32010203,1744,1,202628,253466,0.38,-0.63,9.69,-0.07,-0.01,-0.02,25.31
32048202,1762,1,202971,253401,-0.05,-1.93,9.76,-0.01,-0.01,-0.01,25.31
32088216,1776,1,203000,253225,0.79,-0.80,10.24,-0.02,-0.01,-0.02,25.31
32128202,1808,1,202738,252013,0.17,-1.80,7.97,-0.08,-0.00,-0.02,25.31
32168202,1805,1,202241,250383,0.63,-1.64,9.29,-0.01,-0.01,-0.01,25.31
32208204,1782,1,201878,250107,0.54,-1.36,10.76,0.04,0.06,-0.04,25.31
32248171,1803,1,201706,250977,0.32,-1.01,8.85,-0.09,-0.12,-0.03,25.31
32288205,1807,1,202299,251802,0.26,-1.28,11.09,0.04,0.06,-0.01,25.31
32328171,1798,1,202319,252001,0.52,-1.21,8.84,-0.09,-0.10,0.00,25.31
32368182,1757,1,202187,252393,0.38,-1.13,11.23,0.05,0.08,-0.00,25.31
32408171,1744,1,202062,253343,0.62,-1.14,9.27,-0.08,-0.06,0.00,25.31
32448182,1725,1,202118,253268,0.68,-1.07,10.77,-0.01,0.00,-0.01,25.31
32488181,1699,1,202103,253591,0.06,-1.52,9.44,-0.08,-0.07,-0.01,25.31
32528205,1729,1,202221,253286,0.60,-0.63,10.75,0.02,-0.01,-0.01,25.31
32568181,1726,1,202241,253323,0.63,-0.36,10.47,-0.03,-0.06,-0.02,25.31
32608205,1737,1,202435,253571,0.22,-1.01,10.77,-0.03,-0.01,-0.02,25.31
32648201,1745,1,202555,253767,0.22,-0.67,10.04,-0.04,-0.02,-0.02,25.31
32688202,1753,1,202612,253947,0.41,-1.44,11.13,0.01,-0.06,-0.01,25.31
32728181,1756,1,202742,254021,0.37,-1.03,10.87,-0.04,-0.07,-0.01,25.31
32768205,1760,1,202633,254029,0.63,-1.14,10.07,-0.05,-0.06,-0.02,25.31
32808202,1763,1,202584,254117,0.33,-1.48,10.24,-0.03,-0.08,-0.02,25.31
32848205,1759,1,202484,254002,0.38,-0.88,10.56,-0.04,-0.03,-0.02,25.31
32888201,1751,1,202034,252633,0.58,-0.57,8.33,-0.09,-0.06,-0.02,25.31
32928890,1749,1,201531,252102,0.66,-1.19,9.44,-0.01,0.01,-0.02,25.55
32969182,1729,1,201310,251284,0.37,-0.67,9.02,-0.05,0.04,-0.01,25.55
33009183,1717,1,200673,250569,0.70,-0.98,7.80,-0.07,-0.02,-0.03,25.55
33049202,1724,1,200795,250853,0.20,-1.51,10.09,0.01,0.12,-0.02,25.55
33089171,1724,1,200228,249929,0.76,-0.38,7.95,-0.11,-0.17,-0.03,25.55
33129203,1730,1,200666,250290,0.59,-1.38,8.49,0.04,0.07,-0.02,25.55
33169184,1749,1,200823,251292,0.74,-0.68,9.34,-0.00,-0.04,-0.02,25.55
33209202,1746,1,200890,251389,0.21,-0.25,10.09,-0.02,0.03,-0.06,25.55
33247181,1760,1,201095,252363,0.81,-0.56,8.51,-0.10,-0.19,-0.11,25.55
33287201,1768,1,201660,252747,0.38,-0.71,10.71,0.07,0.14,0.02,25.55
33327150,1781,1,201781,253391,-0.01,-0.79,8.55,-0.07,-0.14,0.07,25.55
33367201,1747,1,202079,253828,0.24,-0.96,11.82,0.08,0.18,0.02,25.55
33407150,1831,1,201866,253973,0.30,-0.79,9.93,-0.11,-0.12,0.03,25.55
33447181,1759,1,202065,254195,0.52,-1.25,11.57,0.06,0.11,-0.01,25.55
33487171,1755,1,202070,254232,-0.05,-1.02,10.33,-0.10,-0.10,-0.01,25.55
33527215,1744,1,202143,253951,0.59,-0.63,12.30,-0.02,-0.03,-0.01,25.55
33567203,1769,1,202339,254372,0.17,-1.11,10.81,-0.10,-0.08,-0.05,25.55
33607201,1754,1,201996,252939,0.45,-0.70,11.84,-0.07,-0.00,-0.07,25.55
33647202,1710,1,201516,252343,0.93,-1.34,11.26,-0.04,-0.04,-0.08,25.55
33687201,1680,1,201274,251879,0.58,-0.79,10.84,-0.08,-0.04,-0.02,25.55
33727203,1635,1,201036,251606,0.09,-1.31,9.69,-0.07,-0.04,0.00,25.55
33767181,1616,1,200914,251666,0.86,-0.93,10.37,-0.03,-0.07,-0.01,25.55
33807205,1604,1,200931,251858,0.52,-1.24,8.56,-0.14,-0.06,-0.02,25.55
33847202,1603,1,200775,251806,0.66,-0.93,8.26,-0.06,-0.06,-0.04,25.55
33887205,1628,1,200823,252605,1.00,-1.04,8.80,-0.04,-0.02,-0.06,25.55
33927202,1697,1,200990,253012,0.68,-0.98,8.49,-0.09,-0.01,-0.02,25.55
33967889,1713,1,200901,252547,0.52,-0.73,8.32,-0.07,-0.08,-0.01,25.59
34008205,1728,1,200855,252384,0.87,-0.74,9.97,-0.00,-0.05,-0.01,25.59
34048202,1748,1,200569,251515,0.30,-1.29,7.77,-0.20,-0.11,-0.05,25.59
34088203,1810,1,200696,252409,1.96,-1.18,10.04,0.05,0.07,-0.05,25.59
34128171,1817,1,200912,251692,0.46,-0.07,9.76,0.00,0.07,0.03,25.59
34168150,1775,1,200648,252279,0.44,-1.84,8.54,-0.07,-0.04,-0.01,25.59
34208205,1808,1,201166,252795,0.06,-1.31,10.01,0.02,0.09,0.02,25.59
34248151,1776,1,200756,251775,0.69,-1.63,9.62,-0.05,-0.02,0.02,25.59
34288183,1744,1,200251,251437,0.73,-0.78,9.55,0.07,0.07,0.02,25.59
34328151,1722,1,200645,252219,-0.05,-0.76,11.23,0.08,0.15,0.05,25.59
34368171,1714,1,200345,251592,0.64,-0.51,10.92,-0.04,-0.06,-0.01,25.59
34408203,1701,1,200525,251763,0.11,-1.12,11.66,0.05,0.13,0.01,25.59
34448152,1734,1,200343,251502,0.03,-0.76,9.55,-0.09,-0.12,0.02,25.59
34488182,1741,1,200818,252367,0.44,-1.00,12.75,0.09,0.13,-0.00,25.59
34526171,1751,1,200944,252507,0.31,-0.08,11.60,-0.08,-0.07,-0.02,25.59
34566201,1738,1,200931,252374,0.47,-0.50,11.03,-0.08,-0.13,-0.01,25.59
34606208,1729,1,200878,252324,0.40,-0.49,10.61,-0.07,-0.05,-0.01,25.59
34646202,1766,1,200797,251845,0.72,-0.28,9.57,-0.11,-0.11,-0.02,25.59
34686205,1773,1,200712,251593,0.31,-0.92,10.11,-0.00,-0.00,-0.01,25.59
34726202,1799,1,200604,251786,0.98,-0.70,9.94,-0.09,-0.06,-0.06,25.59
34766201,1803,1,200666,251613,0.72,-0.95,9.86,-0.06,0.01,-0.02,25.59
34806218,1815,1,200218,250929,0.63,-1.39,8.48,-0.09,-0.11,-0.00,25.59
34846202,1789,1,200209,251067,0.66,-1.26,9.40,-0.00,-0.01,-0.00,25.59
34886201,1793,1,200292,251082,1.13,-1.11,9.18,-0.01,-0.01,-0.01,25.59
34926205,1745,1,200059,250896,0.70,-0.84,8.98,-0.03,-0.02,-0.00,25.59
34966202,1747,1,200105,251098,0.49,-1.00,9.20,0.02,0.04,0.02,25.59
35006858,1731,1,199983,250997,1.21,-0.55,8.85,-0.05,-0.08,0.01,25.55
35047181,1713,1,200216,251235,0.64,-0.42,9.50,0.03,0.05,-0.00,25.55
35087171,1729,1,200072,251163,0.48,-0.39,9.08,-0.06,-0.07,-0.01,25.55
35127201,1712,1,200225,251423,0.73,-0.24,10.07,0.06,0.06,-0.01,25.55
35167171,1737,1,200491,252320,0.64,-0.51,9.81,-0.00,0.07,0.00,25.55
35207171,1741,1,200783,252449,0.49,-0.46,9.93,-0.02,-0.03,0.02,25.55
35247182,1710,1,200883,252888,0.45,-0.85,10.60,0.03,0.03,0.01,25.55
35287151,1706,1,201053,253384,0.43,-0.79,9.99,-0.03,-0.00,0.00,25.55
35327182,1718,1,201035,253834,1.00,-0.55,10.23,-0.00,-0.08,0.00,25.55
35367181,1712,1,201929,255493,0.25,-1.30,11.41,0.03,0.08,0.01,25.55
35407150,1744,1,201651,254524,0.64,0.17,9.90,-0.10,-0.15,-0.01,25.55
35447181,1741,1,201435,254511,0.75,-1.18,11.10,0.07,0.02,0.00,25.55
35487151,1770,1,201196,253848,0.38,-0.59,9.39,-0.12,-0.12,-0.01,25.55
35527201,1741,1,201107,253666,1.14,-1.17,9.65,0.03,-0.00,-0.04,25.55
35567182,1725,1,200951,252668,0.32,-1.06,8.52,-0.05,-0.01,0.00,25.55
35607182,1697,1,200509,251263,0.55,-0.70,8.85,-0.03,0.00,-0.00,25.55
35647181,1708,1,200017,251419,0.85,-1.24,8.43,-0.03,0.00,-0.01,25.55
35687181,1719,1,200009,250679,0.57,-0.56,8.54,-0.05,-0.03,-0.01,25.55
35727204,1733,1,199621,250505,0.87,-0.54,8.09,-0.05,-0.07,-0.02,25.55
35767202,1740,1,200046,251549,1.23,-1.00,9.44,0.03,0.08,-0.02,25.55
35807171,1746,1,200500,251680,0.06,-0.75,8.53,-0.05,0.01,-0.01,25.55
35847181,1743,1,200505,252080,0.63,-1.32,9.94,0.05,0.03,-0.00,25.55
35885171,1739,1,200901,253690,0.41,-0.85,9.35,-0.04,-0.03,0.00,25.55
35925182,1746,1,201592,254023,0.08,-1.56,10.96,-0.01,0.06,0.03,25.55
35965171,1754,1,200814,253007,0.40,-0.67,10.22,-0.05,-0.05,0.03,25.55
36005181,1773,1,201013,253201,-0.09,-2.04,12.50,0.02,0.09,0.08,25.55
36045858,1745,1,200914,252866,0.28,-0.76,10.62,-0.12,-0.05,0.00,25.49
36086181,1792,1,201047,252896,0.07,-1.16,12.78,-0.01,0.08,-0.01,25.49
36126183,1795,1,201012,252814,0.52,-0.25,10.98,-0.12,-0.02,-0.01,25.49
36166201,1772,1,201003,252826,0.74,-1.08,11.57,-0.07,0.00,-0.03,25.49
36206182,1754,1,200968,252949,0.16,-1.14,10.62,-0.12,-0.04,-0.03,25.49
36246201,1732,1,200973,252726,0.12,-0.68,10.24,-0.16,-0.04,-0.02,25.49
36286205,1737,1,200945,253036,0.36,-1.56,9.45,-0.14,-0.01,-0.02,25.49
36326202,1727,1,201036,252418,0.08,-0.61,8.70,-0.15,-0.02,-0.04,25.49
36366202,1730,1,200702,251520,0.62,-0.79,11.05,-0.06,-0.01,-0.02,25.49
36406202,1744,1,200226,251287,0.53,-0.87,9.07,-0.17,-0.06,-0.03,25.49
36446202,1725,1,200342,251804,0.29,-0.95,9.44,-0.10,-0.02,-0.06,25.49
36486202,1743,1,200322,251865,0.52,-1.62,9.44,-0.10,-0.07,-0.08,25.49
36526204,1749,1,200483,252186,0.59,-1.62,10.17,-0.04,-0.02,-0.04,25.49
36566205,1750,1,200664,252611,0.65,-1.23,8.88,-0.05,-0.06,0.00,25.49
36606183,1763,1,201394,254073,0.41,-1.80,10.34,0.01,0.06,-0.01,25.49
36646171,1787,1,201808,254518,0.45,-1.03,9.40,-0.03,-0.05,-0.03,25.49
36686202,1845,1,202162,254866,-0.07,-1.62,9.29,0.00,0.06,0.03,25.49
36726171,1817,1,201769,254433,0.31,-1.42,10.16,0.04,-0.02,0.03,25.49
36766171,1793,1,201343,253381,0.06,-1.17,10.10,0.00,-0.03,0.03,25.49
36806171,1799,1,200934,253497,0.63,-1.79,9.81,-0.01,-0.03,0.09,25.49
36846183,1711,1,201089,253251,0.14,-0.08,9.80,-0.02,-0.03,-0.09,25.49
36886202,1712,1,201083,253627,0.35,-1.11,10.65,-0.01,-0.09,-0.02,25.49
36926204,1662,1,201013,253520,0.53,-0.56,10.19,-0.08,-0.00,-0.05,25.49
36966202,1655,1,200989,253921,0.54,-0.23,10.69,-0.02,-0.12,-0.02,25.49
37006204,1713,1,201116,253924,0.29,-1.04,10.86,-0.02,-0.01,-0.02,25.49
37046890,1737,1,201190,254374,0.12,-0.88,10.37,-0.02,-0.06,-0.02,25.37
37085205,1732,1,201185,254163,0.40,-1.22,11.20,-0.02,-0.05,-0.02,25.37
37125201,1731,1,201186,254637,0.14,-1.45,11.50,-0.01,-0.04,-0.02,25.37
37165234,1729,1,201267,253276,0.43,-0.82,10.29,-0.03,-0.10,-0.07,25.37
37205202,1766,1,200511,252947,0.77,-1.77,8.07,0.01,-0.27,-0.14,25.37
37245184,1782,1,201269,253418,0.43,-1.27,9.17,-0.03,0.15,-0.13,25.37
37285181,1878,1,200541,250905,0.66,-0.16,6.64,0.01,-0.16,-0.21,25.37
37325184,1728,1,200250,250152,0.78,-0.90,9.17,-0.01,0.13,-0.18,25.37
37365182,1748,1,199490,249687,0.80,-0.45,5.90,-0.06,-0.17,-0.04,25.37
37405202,1728,1,200422,251946,0.69,-0.63,10.24,0.04,0.21,-0.17,25.37
37445171,1698,1,200787,253618,0.67,0.01,7.69,0.02,-0.17,-0.04,25.37
37485171,1609,1,201768,254883,0.33,-0.69,10.08,-0.00,0.11,0.01,25.37
37525177,1641,1,201530,255595,1.61,-1.34,9.22,0.02,-0.12,-0.00,25.37
37565184,1602,1,202200,255415,0.09,-1.32,11.33,-0.06,0.14,-0.00,25.37
37605181,1616,1,201133,254134,0.82,-0.47,11.24,0.06,-0.08,0.01,25.37
37645171,1639,1,200318,253388,0.35,-0.79,13.20,-0.01,0.07,0.00,25.37
37685171,1696,1,199955,252778,0.36,-0.42,11.13,-0.01,-0.07,-0.03,25.37
37725204,1719,1,199582,252427,0.45,-0.35,10.46,-0.03,-0.06,-0.01,25.37
37765201,1747,1,199778,253340,0.56,-0.94,10.99,-0.03,-0.02,-0.01,25.37
37805205,1747,1,200702,253313,0.40,0.07,8.36,-0.03,-0.03,-0.23,25.37
37845181,1730,1,200991,254673,0.17,-1.38,10.63,-0.03,0.04,-0.06,25.37
37885184,1777,1,201194,252395,0.62,-1.24,7.25,-0.08,0.11,-0.37,25.37
37925181,1747,1,200317,252665,0.11,-0.17,10.91,0.14,-0.23,0.14,25.37
37965171,1759,1,200260,249718,0.07,-1.11,8.79,-0.10,0.17,-0.07,25.37
38005181,1749,1,199408,251092,0.34,-1.03,10.58,0.03,-0.14,0.09,25.37
38045171,1712,1,199542,249981,1.60,0.34,9.85,-0.02,-0.08,-0.01,25.37
38085873,1680,1,199160,251114,-0.06,-1.57,10.19,-0.04,0.04,0.24,25.37
38124184,1690,1,199109,249889,1.04,0.10,9.33,-0.05,-0.01,-0.00,25.37
38164181,1693,1,198613,250628,0.54,-0.70,10.33,0.02,0.02,0.18,25.37
38204151,1728,1,198717,249807,0.18,1.77,8.37,-0.10,0.12,0.02,25.37
38244150,1739,1,198997,251279,0.24,-0.74,10.69,0.02,0.09,-0.04,25.37
38284171,1748,1,199313,251335,1.17,1.19,10.36,-0.07,-0.01,-0.13,25.37
38324181,1712,1,199415,251508,0.16,-0.28,10.31,-0.05,0.03,-0.04,25.37
38364183,1747,1,199006,250628,0.58,-0.41,9.51,-0.09,-0.01,0.02,25.37
38404181,1728,1,199282,251276,0.32,-0.64,11.17,0.01,0.02,0.02,25.37
38444150,1761,1,199497,251443,0.18,-0.14,10.45,-0.09,-0.01,0.00,25.37
38484181,1794,1,199562,252241,0.14,-0.20,9.73,-0.05,0.02,0.01,25.37
38524177,1830,1,200040,252548,0.09,-1.49,11.20,-0.02,0.11,0.01,25.37
38564171,1842,1,199913,252367,-0.14,-0.55,8.72,-0.14,-0.12,-0.02,25.37
38604218,1847,1,200072,252340,0.17,-2.26,11.12,-0.02,0.10,0.02,25.37
38644171,1861,1,199617,251452,0.06,-0.49,8.04,-0.16,-0.14,0.03,25.37
38684181,1867,1,199813,251803,0.12,-1.38,10.75,0.01,0.09,0.07,25.37
38724150,1829,1,199798,251858,-0.14,-0.76,8.34,-0.13,-0.05,0.02,25.37
38764205,1795,1,199768,250681,0.43,-1.43,10.28,0.00,0.04,-0.06,25.37
38804171,1743,1,198819,250024,0.25,-0.53,7.92,-0.13,-0.14,-0.02,25.37
38844205,1711,1,199283,249372,0.29,-1.24,9.50,-0.01,0.13,-0.04,25.37
38884181,1694,1,198726,249548,0.03,-0.67,7.74,-0.04,-0.03,0.06,25.37
38924182,1686,1,199543,250996,0.19,-0.78,11.26,0.07,0.19,-0.03,25.37
38964171,1738,1,199729,252027,-0.81,-0.67,8.68,-0.11,0.01,-0.02,25.37
39004205,1713,1,200199,252962,-0.17,-1.11,10.86,0.04,0.05,-0.05,25.37
39044181,1744,1,199961,252451,-0.23,-0.27,9.68,-0.04,-0.08,0.01,25.37
39084205,1742,1,199725,252271,-0.31,-1.46,10.59,-0.01,0.00,0.06,25.37
39124868,1712,1,199545,252669,-0.15,-0.28,10.29,-0.02,-0.02,0.08,25.37
39163205,1731,1,200249,253125,-0.52,-0.92,11.70,-0.00,0.05,-0.01,25.37
39203201,1747,1,199972,253120,0.19,-0.75,9.70,-0.07,-0.12,-0.03,25.37
39243202,1764,1,200355,252417,-0.34,-0.57,10.95,-0.01,0.05,-0.03,25.37
39283202,1778,1,199744,251193,0.09,-0.90,9.08,-0.07,-0.09,-0.03,25.37
39323202,1774,1,199686,250456,0.19,-0.54,10.26,0.00,0.00,-0.03,25.37
39363171,1740,1,199852,250695,-0.07,-0.56,10.11,-0.05,-0.02,-0.04,25.37
39403219,1711,1,200004,250907,0.40,-0.43,9.88,-0.07,-0.08,-0.04,25.37
39443202,1712,1,200682,251944,0.07,-1.11,10.01,-0.05,-0.03,-0.03,25.37
39483204,1735,1,201124,252652,0.40,-1.26,9.61,-0.10,-0.04,-0.11,25.37
39524207,1746,1,201138,253004,0.44,-1.08,10.02,-0.06,-0.04,-0.15,25.37
39564205,1727,1,201013,253602,-0.03,-1.20,9.61,-0.07,-0.03,-0.07,25.37
39604216,1697,1,200999,253765,0.23,-0.73,10.02,-0.03,-0.02,-0.04,25.37
39644205,1679,1,200726,252987,-0.06,-0.74,9.92,-0.03,0.00,-0.02,25.37
39684202,1669,1,200439,251877,0.04,-1.17,9.70,-0.02,0.03,-0.03,25.37
39724184,1657,1,200026,251166,-0.05,-1.01,9.42,-0.03,-0.00,-0.06,25.37
39764219,1637,1,199981,250933,-0.04,-1.55,9.55,-0.01,0.01,-0.05,25.37
39804205,1680,1,200005,251555,0.08,-1.65,9.34,-0.03,-0.03,-0.03,25.37
39842202,1661,1,200109,251442,0.09,-1.20,8.68,-0.06,-0.06,-0.03,25.37
39882201,1693,1,200150,252500,-0.10,-1.36,9.58,-0.01,-0.02,-0.01,25.37
39922215,1705,1,200527,252530,0.23,-0.93,9.68,-0.04,-0.02,-0.04,25.37
39962202,1749,1,200713,253055,0.25,-1.23,10.74,0.02,0.02,-0.02,25.37
40002171,1730,1,200859,253469,0.44,-1.67,10.26,-0.04,-0.02,-0.03,25.37
40042205,1699,1,201040,253770,0.22,-1.27,11.98,0.05,0.02,-0.04,25.37
40082171,1695,1,200970,253743,0.28,-2.38,10.20,-0.06,-0.06,-0.02,25.37
40122205,1699,1,200930,253311,0.15,-1.36,11.39,0.02,-0.03,-0.01,25.37
40162869,1712,1,200497,251847,0.25,-1.21,9.64,-0.06,-0.04,-0.02,25.53
40203205,1741,1,199815,250841,0.28,-0.64,8.77,-0.04,-0.05,-0.03,25.53
40243201,1738,1,200040,250687,-0.58,-1.36,10.58,0.06,0.22,-0.04,25.53
40283183,1793,1,199605,249206,-0.27,-1.69,7.88,-0.09,-0.10,-0.06,25.53
40323216,1718,1,199620,250224,0.29,-1.10,13.31,0.13,0.09,-0.07,25.53
40363171,1696,1,199760,250567,-0.75,-1.42,7.85,-0.16,-0.24,-0.01,25.53
40403219,1845,1,199906,251190,1.19,-0.99,10.41,-0.02,-0.14,-0.05,25.53
40443205,1961,1,200033,251458,0.15,-1.94,8.00,-0.14,0.03,0.05,25.53
40483171,1971,1,200365,251439,0.64,-0.30,10.72,0.07,0.06,-0.01,25.53
40523177,1999,1,199925,251455,1.05,-1.29,9.88,0.00,-0.07,-0.01,25.53
40562181,1963,1,199711,250603,0.20,-1.07,8.35,-0.06,-0.09,0.06,25.53
40602181,1973,1,199484,249330,0.84,-2.16,9.59,0.01,0.01,-0.02,25.53
40642171,1932,1,198873,248411,0.30,-1.19,7.48,-0.07,-0.09,0.09,25.53
40682182,1840,1,199220,248551,0.32,-0.81,10.20,0.04,0.19,0.07,25.53
40722151,1868,1,199102,250284,0.23,-0.25,8.15,-0.12,-0.09,0.04,25.53
40762183,1788,1,200459,251671,0.12,-0.97,14.71,0.08,0.24,-0.01,25.53
40802171,1781,1,200551,252747,-0.01,-1.93,8.15,-0.17,-0.26,-0.02,25.53
40842218,1793,1,201177,253466,0.79,0.90,14.03,0.09,0.08,-0.01,25.53
40882150,1775,1,201698,254528,0.11,-2.33,10.13,-0.13,-0.09,-0.06,25.53
40922205,1767,1,201956,254296,0.36,-0.61,11.60,-0.05,0.02,-0.06,25.53
40962181,1745,1,201359,253512,0.48,-0.92,9.38,-0.03,-0.08,-0.01,25.53
41002202,1728,1,201104,253438,0.80,-0.55,10.77,0.02,0.02,0.01,25.53
41042151,1747,1,201206,251911,0.05,-1.05,9.43,-0.07,0.05,-0.02,25.53
41082183,1714,1,200517,251826,0.90,-1.63,10.66,-0.01,-0.02,-0.05,25.53
41122202,1706,1,200309,250962,0.12,-0.23,9.17,-0.07,-0.09,-0.10,25.53
41162202,1719,1,200260,252018,0.58,-0.99,10.77,-0.00,-0.13,0.01,25.53
41202871,1712,1,200608,251774,0.14,-0.52,10.26,-0.11,-0.01,-0.01,25.53
41241204,1727,1,200919,252845,0.97,-1.63,10.58,-0.01,-0.15,-0.04,25.53
41281201,1675,1,201198,252727,1.39,0.33,9.52,-0.04,-0.07,-0.02,25.53
41321181,1642,1,201507,254126,0.76,-1.60,10.68,0.08,0.01,0.01,25.53
41361161,1653,1,201476,253286,1.32,-0.85,9.13,-0.08,-0.04,-0.02,25.53
41401202,1664,1,201350,253766,0.60,-1.81,9.73,0.10,0.00,-0.01,25.53
41441171,1681,1,201021,252181,0.66,-0.30,8.42,-0.05,-0.00,-0.00,25.53
41481201,1673,1,200682,252524,0.91,-1.76,9.28,0.09,-0.01,0.00,25.53
41521177,1697,1,200786,252439,0.86,0.16,9.71,-0.04,-0.02,-0.01,25.53
41561181,1719,1,201033,253558,0.59,-1.23,9.65,-0.00,-0.01,-0.04,25.53
41601201,1749,1,201152,253609,1.06,0.32,8.93,-0.06,-0.11,-0.02,25.53
41641184,1730,1,201510,254610,0.94,-0.45,10.79,0.09,0.12,-0.05,25.53
41681171,1749,1,201593,254658,0.92,-0.04,8.86,-0.07,-0.08,-0.02,25.53
41721202,1723,1,201673,255261,0.89,-0.32,10.86,0.11,0.09,-0.04,25.53
41761171,1761,1,201744,255285,0.66,-0.57,9.76,-0.02,-0.01,-0.00,25.53
41801202,1739,1,201627,254631,0.75,0.04,10.01,0.01,0.00,0.01,25.53
41841130,1740,1,201206,253735,0.82,-0.92,9.69,-0.01,-0.06,0.01,25.53
41881181,1757,1,200714,252312,0.87,0.19,9.96,-0.05,-0.06,-0.01,25.53
41921181,1719,1,200532,252444,0.86,-0.51,10.42,0.01,-0.00,-0.01,25.53
41961184,1713,1,200789,252945,0.85,0.01,10.54,-0.03,-0.04,-0.01,25.53
42001181,1687,1,201114,253518,0.40,0.06,10.64,-0.01,0.02,0.00,25.53
42041150,1687,1,201134,253969,0.83,-0.50,9.98,-0.02,-0.07,0.01,25.53
42081181,1694,1,201429,254209,0.96,-0.16,10.73,0.00,-0.01,0.00,25.53
42121171,1688,1,201100,253819,0.83,-0.61,8.87,-0.02,-0.15,-0.02,25.53
42161201,1719,1,201112,253879,1.12,-0.39,9.98,-0.05,0.01,-0.03,25.53
42201183,1758,1,201111,253416,1.04,-0.15,9.45,-0.03,-0.02,-0.01,25.53
42241892,1739,1,200895,253399,0.71,-0.05,9.62,-0.03,0.01,-0.03,25.25
42282182,1744,1,200898,253102,0.88,0.19,10.01,-0.01,0.02,-0.00,25.25
42322171,1756,1,200719,253141,1.02,-0.55,10.14,0.01,0.02,-0.03,25.25
42362171,1746,1,200822,253786,1.06,-0.11,10.11,-0.01,-0.03,-0.03,25.25
42400201,1734,1,200984,253806,1.28,-0.84,9.11,-0.09,-0.02,-0.00,25.25
42440202,1748,1,201351,254193,1.15,-0.80,11.09,0.09,0.05,0.02,25.25
42480150,1713,1,201212,254198,0.72,-1.13,9.13,-0.07,-0.14,0.07,25.25
42520184,1723,1,201557,254748,1.60,0.29,13.19,0.14,0.06,0.06,25.25
42560130,1747,1,201123,253847,0.64,-1.11,6.83,-0.28,-0.33,0.10,25.25
42600181,1655,1,201201,254238,1.87,0.96,13.12,0.24,0.18,0.05,25.25
42640131,1649,1,200651,252294,0.78,0.05,8.55,-0.19,-0.16,0.07,25.25
42680171,1600,1,200613,253414,1.59,0.72,11.93,0.16,0.14,-0.02,25.25
42720149,1661,1,200679,252501,1.15,-0.05,10.58,-0.08,-0.01,0.04,25.25
42760181,1630,1,200595,253581,0.87,-0.63,10.08,-0.04,-0.05,0.00,25.25
42800181,1682,1,200540,252715,1.75,-0.41,10.36,-0.05,-0.01,0.01,25.25
42840184,1695,1,200786,253912,0.29,-2.81,9.35,-0.06,0.01,0.04,25.25
42880171,1731,1,200689,252354,1.21,0.78,9.56,-0.09,-0.10,0.01,25.25
42920171,1706,1,200762,253276,1.39,-0.85,10.62,0.12,0.03,-0.14,25.25
42960171,1762,1,200432,251813,1.32,0.91,8.32,-0.28,-0.23,-0.02,25.25
43000183,1727,1,200324,252663,1.23,-0.87,8.92,0.05,0.06,-0.18,25.25
43040171,1590,1,200239,251833,1.07,0.03,8.43,-0.13,-0.13,0.02,25.25
43080171,1434,1,200079,251938,1.28,-0.19,8.85,-0.05,0.03,0.00,25.25
43120171,1363,1,200055,251489,1.24,0.01,8.72,-0.05,-0.05,0.02,25.25
43160171,1328,1,200081,251673,0.91,-0.02,9.51,0.04,0.10,0.05,25.25
43200160,1335,1,200131,252020,1.05,-0.41,9.41,-0.07,0.04,0.03,25.25
43240171,1363,1,200284,252727,1.05,-0.22,9.82,0.02,0.04,0.04,25.25
43280839,1407,1,200524,253058,1.11,-0.23,10.58,-0.02,0.04,0.05,25.49
43321171,1478,1,200513,253096,0.99,-0.32,9.49,-0.05,-0.05,0.09,25.49
43361181,1535,1,200759,253436,0.80,-1.02,10.60,0.02,0.11,0.02,25.49
43401151,1616,1,200660,251905,0.72,-0.58,9.47,-0.02,-0.01,0.02,25.49
43441182,1680,1,200104,252148,1.25,-0.93,9.90,0.03,-0.00,0.01,25.49
43481171,1747,1,200789,252993,0.45,-1.42,10.64,0.00,0.17,0.02,25.49
43521150,1787,1,200576,252633,0.68,-0.53,9.58,-0.01,-0.02,0.02,25.49
43561182,1809,1,200591,252598,0.61,-1.03,11.14,0.09,0.06,0.07,25.49
43599151,1826,1,200449,252348,0.80,-0.88,9.05,-0.10,-0.11,0.02,25.49
43640181,1855,1,200839,252510,1.10,-0.74,11.49,0.08,0.04,-0.06,25.49
43680171,1875,1,200687,251824,0.84,-0.51,8.01,-0.19,-0.17,-0.02,25.49
43720205,1889,1,200844,251275,1.07,-0.33,10.44,0.12,0.24,-0.03,25.49
43760171,1946,1,200329,250349,1.01,-0.44,7.10,-0.12,-0.11,-0.01,25.49
43800205,1948,1,200472,250332,0.71,-0.29,11.78,0.18,0.35,-0.03,25.49
43840171,1970,1,199873,249209,0.40,-0.97,7.11,-0.14,-0.05,-0.06,25.49
43880205,1957,1,200195,250422,0.77,-1.08,10.78,0.12,0.11,-0.06,25.49
43920171,1944,1,200647,251220,0.57,-0.64,7.91,-0.10,-0.01,-0.16,25.49
43960205,1982,1,201034,252416,0.56,-1.03,11.43,0.04,0.03,-0.13,25.49
44000171,1967,1,201287,253338,0.13,-0.44,10.06,-0.12,0.07,-0.05,25.49
44040184,1888,1,201738,254552,0.61,-1.06,11.08,-0.00,0.01,0.01,25.49
44080171,1830,1,201730,254708,1.11,0.42,10.86,-0.10,-0.10,0.02,25.49
44120171,1779,1,201882,254863,0.20,-1.75,11.70,-0.04,0.03,0.06,25.49
44160171,1766,1,201315,252672,0.84,0.39,10.07,-0.10,-0.06,-0.02,25.49
44200182,1757,1,200945,252894,0.16,-1.77,11.60,0.02,0.05,0.01,25.49
44240151,1744,1,200817,251793,0.78,0.05,10.80,-0.09,-0.06,-0.02,25.49
44280181,1747,1,200613,251641,0.78,-1.52,10.59,-0.03,-0.07,0.00,25.49
44320869,1776,1,200614,251778,0.50,-1.32,10.19,-0.09,-0.08,0.05,25.41
44359182,1773,1,200736,251864,0.62,-0.96,10.43,-0.07,-0.02,-0.01,25.41
44399202,1776,1,200768,252350,0.84,-1.36,9.26,-0.07,-0.08,0.00,25.41
44439182,1773,1,200956,252095,0.48,-0.58,10.24,-0.05,-0.02,-0.02,25.41
44479201,1755,1,200663,252064,1.06,-1.44,9.33,-0.06,-0.03,-0.04,25.41
44519204,1745,1,200655,251584,0.95,-0.31,8.96,-0.05,-0.05,-0.03,25.41
44559202,1743,1,200557,251611,0.31,-1.40,9.25,-0.04,0.03,-0.03,25.41
44599182,1745,1,200574,251319,1.12,-0.73,9.30,-0.04,-0.02,-0.02,25.41
44640232,1752,1,200683,251463,0.60,-0.48,9.38,-0.01,0.02,-0.02,25.41
44680184,1753,1,200772,251466,0.62,-0.83,9.09,-0.03,-0.02,-0.02,25.41
44720202,1747,1,200810,251721,1.02,-0.80,10.26,-0.01,0.02,-0.02,25.41
44760183,1767,1,200842,251737,0.73,-0.94,8.71,-0.04,0.01,-0.02,25.41
44798181,1766,1,200698,251648,0.63,-0.54,10.04,0.02,0.01,-0.01,25.41
44838171,1761,1,200618,251357,0.74,-0.85,9.11,-0.02,0.03,-0.00,25.41
44878181,1767,1,200523,250276,0.80,-0.78,9.06,-0.01,-0.03,-0.01,25.41
44918202,1775,1,200074,248666,0.61,-1.09,10.07,0.02,0.02,-0.02,25.41
44958171,1763,1,199902,249685,1.15,-0.70,9.20,-0.02,-0.03,-0.02,25.41
44998202,1749,1,200463,250887,0.30,-1.03,9.58,0.00,0.02,-0.01,25.41
45038171,1747,1,200753,251864,0.71,-1.48,10.32,-0.00,-0.04,0.00,25.41
45078181,1745,1,201005,252095,0.94,-0.29,10.34,-0.00,0.01,-0.02,25.41
45118181,1741,1,200937,252834,0.96,-1.38,9.87,-0.01,-0.05,-0.01,25.41
45158205,1722,1,201213,253301,0.69,-0.86,10.87,0.01,-0.00,-0.02,25.41
45198181,1715,1,201356,253423,0.36,-0.91,10.60,-0.01,0.06,-0.01,25.41
45238182,1711,1,201225,253430,0.82,-0.80,9.99,-0.02,-0.04,0.00,25.41
45278181,1709,1,201330,253106,0.31,-0.82,11.07,-0.01,0.02,-0.02,25.41
45318181,1709,1,200952,252517,0.92,-0.62,9.98,-0.06,-0.04,-0.02,25.41
45358889,1729,1,200983,252431,0.54,-0.71,9.91,-0.03,-0.03,-0.02,25.17
45399202,1726,1,200891,252532,0.65,-1.16,10.27,-0.03,-0.04,-0.02,25.17
45439202,1721,1,200808,252094,1.32,-0.38,8.96,-0.06,-0.11,-0.02,25.17
45479205,1691,1,200941,252389,0.74,-1.12,10.22,-0.01,0.00,-0.02,25.17
45519181,1691,1,200736,251842,0.54,-0.67,8.59,-0.06,-0.14,-0.04,25.17
45559205,1687,1,200620,251950,1.27,-0.64,10.43,0.03,-0.02,-0.03,25.17
45599181,1703,1,200547,252014,0.75,-0.97,8.53,-0.11,-0.10,-0.00,25.17
45639203,1718,1,200689,252237,0.88,-0.96,9.21,0.01,0.02,-0.02,25.17
45679171,1695,1,200474,251274,0.82,-0.70,9.56,-0.01,-0.03,-0.01,25.17
45719205,1726,1,200313,251260,0.87,-1.03,9.49,-0.03,0.00,-0.03,25.17
45759181,1729,1,200155,251141,1.09,-0.37,9.74,-0.02,-0.04,-0.04,25.17
45799203,1729,1,200512,251897,0.61,-1.10,10.55,0.04,0.09,-0.01,25.17
45839171,1717,1,200446,251738,0.93,0.22,10.25,-0.07,-0.14,-0.02,25.17
45879183,1679,1,200774,252286,0.80,-1.08,10.45,-0.01,0.04,-0.02,25.17
45919181,1739,1,200748,252417,1.01,0.07,9.34,-0.07,-0.14,-0.12,25.17
45959184,1733,1,201106,252697,1.09,-0.56,10.86,0.06,0.05,-0.06,25.17
45997171,1759,1,201134,253258,0.81,-0.79,8.65,-0.06,-0.05,-0.02,25.17
46037203,1767,1,201470,253407,0.72,-0.55,10.98,0.09,0.13,0.00,25.17
46077151,1797,1,201288,253560,0.85,-0.81,9.31,-0.03,-0.12,0.03,25.17
46117182,1783,1,201554,253825,0.89,-0.70,10.25,0.04,-0.01,0.01,25.17
46157171,1817,1,201447,253811,1.37,-0.24,9.96,0.01,-0.09,-0.01,25.17
46197184,1776,1,201325,254073,1.17,-0.64,10.01,-0.01,-0.09,-0.01,25.17
46237202,1776,1,201400,254145,0.96,-0.02,10.53,0.02,-0.04,-0.01,25.17
46277190,1762,1,201246,254131,0.87,-0.67,8.97,-0.06,-0.13,-0.02,25.17
46317202,1770,1,201306,253928,1.06,0.20,10.43,0.07,0.01,-0.01,25.17
46357150,1791,1,200793,253288,0.68,-1.05,8.35,-0.11,-0.12,-0.03,25.17
46397889,1751,1,200644,253025,1.70,0.76,10.71,0.15,0.05,-0.07,25.23
46438150,1744,1,200325,252087,1.17,-0.34,9.00,-0.05,-0.05,0.06,25.23
46478232,1664,1,200107,252081,1.21,0.12,9.45,0.03,-0.01,0.03,25.23
46518150,1675,1,200334,252564,1.01,0.09,9.47,0.03,-0.05,0.02,25.23
46558151,1678,1,200680,253147,1.23,-0.53,9.99,0.05,0.01,-0.02,25.23
46598171,1679,1,200692,252857,1.13,-0.12,9.95,0.07,-0.03,0.03,25.23
46638171,1680,1,200714,253033,1.24,-0.01,10.06,0.04,0.03,0.05,25.23
46678151,1711,1,200818,253473,1.27,-0.24,9.95,0.03,-0.04,0.04,25.23
46718171,1724,1,201116,253855,1.22,0.11,10.00,0.05,-0.08,0.03,25.23
46758150,1706,1,201385,254086,1.23,-0.11,9.24,-0.07,0.01,0.03,25.23
46798171,1712,1,201436,254664,1.30,-0.32,9.55,0.05,-0.09,-0.03,25.23
46838184,1739,1,201727,255062,1.08,0.32,10.35,-0.01,0.04,0.01,25.23
46878151,1743,1,201671,255517,1.31,-0.18,9.16,-0.00,-0.11,0.02,25.23
46918184,1796,1,201980,255566,1.14,0.23,11.12,0.06,0.10,0.00,25.23
46958132,1794,1,201790,255349,1.18,-0.17,10.12,-0.07,-0.07,-0.00,25.23
46998205,1811,1,201684,255238,1.23,-0.13,10.40,0.07,-0.02,-0.03,25.23
47038181,1853,1,201779,255526,1.03,-0.69,10.28,-0.06,0.01,0.01,25.23
47078171,1836,1,201670,255190,1.39,0.06,10.84,0.02,-0.07,0.01,25.23
47118151,1817,1,201527,254999,0.94,-0.02,9.77,-0.12,0.02,0.04,25.23
47158171,1808,1,201408,254362,1.23,0.11,9.35,-0.03,-0.08,0.00,25.23
47198171,1797,1,200865,252895,1.20,-0.34,9.09,-0.08,-0.09,-0.01,25.23
47238205,1793,1,200635,252767,1.25,0.20,9.54,0.01,0.01,-0.02,25.23
47276151,1793,1,200457,251961,1.41,0.37,8.77,-0.09,-0.04,-0.00,25.23
47316181,1790,1,200383,251925,1.37,-0.49,9.05,0.00,0.04,-0.00,25.23
47356171,1796,1,200343,250690,0.97,0.23,8.07,-0.01,-0.02,0.01,25.23
47396171,1773,1,200266,251810,1.67,-0.48,9.77,0.06,0.03,-0.03,25.23
47436858,1761,1,200593,252035,1.24,0.38,8.78,-0.01,0.03,-0.06,25.23
47477171,1778,1,200860,252614,0.93,0.29,9.34,0.02,0.06,-0.01,25.23
47517151,1767,1,200911,252076,1.06,-0.28,8.83,-0.00,0.01,0.01,25.23
47557171,1776,1,200883,251862,0.56,-0.68,8.94,0.01,0.06,0.02,25.23
47597151,1839,1,200530,251082,1.19,-0.05,9.58,0.06,0.08,-0.05,25.23
47637171,1789,1,200523,251709,0.42,-1.08,10.34,0.04,0.14,-0.06,25.23
47677171,1759,1,200174,251529,1.40,-0.10,8.92,-0.18,-0.18,-0.07,25.23
47717204,1733,1,200828,253106,0.42,-1.26,10.13,-0.03,0.02,-0.05,25.23
47757181,1728,1,201081,253329,1.05,0.43,9.28,-0.06,-0.19,-0.03,25.23
47797184,1729,1,201549,254601,1.18,-0.73,11.65,-0.05,0.03,-0.04,25.23
47837181,1727,1,201866,255329,0.68,-0.25,9.81,-0.09,-0.08,-0.01,25.23
47877202,1733,1,202155,255609,1.20,0.52,11.16,0.00,0.01,-0.00,25.23
47917161,1744,1,202091,255699,0.74,-0.29,9.76,-0.12,0.01,0.00,25.23
47957171,1729,1,202251,255735,0.67,0.82,10.72,0.04,0.08,0.02,25.23
47997132,1705,1,202161,255413,1.46,0.51,13.96,0.08,0.02,-0.01,25.23
48037150,1678,1,201313,254277,1.19,1.08,9.45,-0.28,-0.25,0.00,25.23
48077171,1678,1,201369,254745,1.60,-0.79,12.46,-0.00,-0.05,-0.00,25.23
48117208,1651,1,201659,255230,0.91,0.62,10.26,-0.05,0.04,0.02,25.23
48157151,1636,1,201863,254975,0.40,-0.08,9.00,-0.05,0.00,0.05,25.23
48197171,1663,1,201833,255475,1.39,0.16,11.14,0.11,0.09,-0.01,25.23
48237150,1702,1,202201,255833,0.68,-0.43,10.16,-0.17,-0.03,-0.02,25.23
48277205,1725,1,201921,255422,1.27,-0.19,9.24,-0.18,-0.13,-0.07,25.23
48317205,1680,1,201393,254640,0.95,-0.59,10.31,0.03,0.01,-0.11,25.23
48357171,1680,1,200836,253660,1.92,-1.58,7.22,-0.23,-0.29,-0.03,25.23
48397205,1687,1,200854,253208,1.02,-0.28,7.57,0.05,0.12,-0.15,25.23
48437858,1585,1,201291,254041,1.08,-1.42,10.54,0.14,0.09,-0.02,25.17
48476171,1329,1,200870,253118,1.56,1.05,8.28,-0.23,-0.32,-0.06,25.17
48516184,1202,1,201011,253768,0.59,-1.46,8.11,-0.13,0.14,-0.01,25.17
48556182,883,1,200535,251090,1.62,2.20,6.92,-0.01,0.00,-0.00,25.17
48596171,282,1,199830,249293,0.82,-1.12,8.83,0.07,0.19,0.21,25.17
48636151,0,1,199205,247567,1.70,1.68,7.33,-0.02,0.09,0.03,25.17
48676150,3,1,199459,248854,0.36,-1.80,9.40,0.10,0.24,0.01,25.17
48716151,770,1,199246,248110,1.14,0.87,8.49,-0.13,-0.06,-0.02,25.17
48756184,1391,1,199314,249173,0.91,-0.80,10.22,0.09,0.19,0.03,25.17
48796151,1812,1,199882,251344,0.65,-0.62,9.22,-0.08,0.07,0.03,25.17
48836171,2078,1,200819,252572,0.58,0.18,11.38,0.03,0.15,-0.06,25.17
48876151,2224,1,200947,253429,0.32,-0.84,11.92,0.05,0.07,-0.00,25.17
48916171,2267,1,201344,254123,-0.07,0.12,12.52,0.00,0.02,-0.01,25.17
48956171,2261,1,201437,253991,0.48,-1.27,12.82,0.02,0.02,-0.02,25.17
48996171,2267,1,201123,253527,0.53,-0.06,12.56,-0.01,-0.08,-0.02,25.17
49036202,2255,1,200978,252342,0.68,-0.87,11.75,-0.04,-0.04,-0.03,25.17
49076205,2273,1,200376,252130,0.79,-0.78,9.65,-0.14,-0.24,-0.02,25.17
49116202,2243,1,200439,251025,0.64,-0.07,10.59,0.01,0.02,-0.09,25.17
49156171,2256,1,199230,248085,0.67,0.15,6.76,-0.30,-0.41,-0.06,25.17
49196182,2177,1,198088,246856,1.55,-1.34,8.51,0.06,0.08,-0.16,25.17
49236171,2095,1,197362,247369,0.39,-0.35,7.21,-0.03,0.05,-0.03,25.17
49276182,2257,1,198199,248346,1.10,-1.01,7.62,-0.00,0.10,-0.10,25.17
49316182,2333,1,198529,247488,0.88,-0.04,9.49,0.06,0.02,-0.23,25.17
49356171,2384,1,198358,246524,0.37,-1.27,7.62,-0.13,-0.15,-0.08,25.17
49396205,2336,1,198784,248215,1.24,-0.66,8.75,0.02,-0.03,-0.08,25.17
49436182,2145,1,199728,250441,0.99,0.07,9.74,0.04,0.03,-0.02,25.17
49476838,2130,1,200271,252198,0.72,-0.78,8.62,-0.05,-0.03,-0.03,25.13
49515202,2117,1,200612,253246,0.87,-0.34,9.10,-0.07,0.00,-0.03,25.13
49555225,2069,1,201090,254229,1.09,-0.65,11.76,0.17,0.14,-0.09,25.13
49595171,1994,1,201219,255053,0.63,0.12,10.98,0.00,-0.03,-0.13,25.13
49635171,1904,1,201129,254549,0.33,-0.85,13.64,0.07,0.06,-0.14,25.13
49675171,1878,1,200170,253551,0.07,-0.35,11.64,-0.08,-0.12,-0.01,25.13
49715205,1835,1,199454,252788,-0.14,-0.24,13.80,0.05,0.04,0.03,25.13
49755184,1819,1,198969,252349,1.62,1.17,11.16,-0.12,-0.26,0.12,25.13
49795171,1766,1,198951,252295,0.28,-0.35,13.97,-0.01,0.03,0.01,25.13
49835171,1824,1,198886,252203,0.52,1.03,7.69,-0.27,-0.25,-0.09,25.13
49875184,1773,1,198863,252348,0.78,-0.04,12.91,0.13,0.05,-0.02,25.13
49915171,1755,1,199356,253051,0.45,-0.86,8.96,-0.19,-0.10,-0.21,25.13
49955205,1674,1,199705,252297,1.69,-0.40,7.40,-0.05,-0.25,-0.22,25.13
49995202,1655,1,199411,251059,0.75,-0.92,10.52,0.07,0.13,-0.02,25.13
50035171,1739,1,198926,250655,0.98,-0.48,7.21,-0.14,-0.34,-0.04,25.13
50075202,1712,1,198833,250229,1.30,-0.70,10.21,0.17,0.13,-0.02,25.13
50115171,1782,1,198660,250511,0.79,-0.82,7.88,-0.01,-0.13,0.00,25.13
50155182,1805,1,198895,250629,1.62,-0.35,9.56,0.07,0.01,-0.03,25.13
50195171,1840,1,199124,251938,0.76,-0.61,8.24,0.01,-0.02,-0.02,25.13
50235182,1825,1,199501,251847,1.36,-0.30,8.83,0.00,-0.02,-0.03,25.13
50275181,1782,1,199570,252550,1.05,-0.85,8.75,0.04,0.01,-0.01,25.13
50315171,1744,1,199870,252545,0.96,-0.65,8.67,-0.01,0.03,0.01,25.13
50355171,1746,1,200033,253109,0.71,-0.17,10.44,0.07,0.11,0.05,25.13
50395150,1712,1,199958,252894,0.70,-0.38,8.45,-0.09,-0.02,0.06,25.13
50435184,1731,1,200050,253547,0.67,0.17,10.18,0.04,0.06,-0.05,25.13
50475150,1698,1,199944,253500,0.83,-0.11,10.05,-0.04,-0.04,-0.01,25.13
50515892,1691,1,200002,253676,0.81,-0.12,10.69,-0.02,0.00,-0.07,25.17
50554181,1675,1,200139,253899,0.85,-0.37,10.76,-0.08,-0.03,-0.05,25.17
50594205,1632,1,200204,253743,0.68,0.29,11.52,-0.07,-0.00,-0.06,25.17
50634181,1621,1,199998,253562,0.97,-0.22,11.26,-0.09,-0.02,-0.02,25.17
50674205,1630,1,199943,253565,0.98,0.46,11.18,-0.10,-0.05,-0.03,25.17
50714181,1605,1,200072,253703,1.06,0.02,10.66,-0.13,-0.02,-0.04,25.17
50754182,1599,1,200209,254094,1.00,0.10,11.16,-0.06,0.03,-0.03,25.17
50794171,1594,1,200133,252823,1.12,-0.18,9.71,-0.13,-0.07,-0.03,25.17
50834205,1615,1,199367,251182,0.72,-0.08,8.92,-0.11,-0.02,-0.00,25.17
50874202,1595,1,198888,249279,1.02,-0.56,8.40,-0.10,0.04,-0.03,25.17
50914182,1579,1,198125,247512,1.23,0.12,8.31,-0.08,-0.00,-0.04,25.17
50954182,1554,1,197887,248023,0.94,-0.92,8.60,-0.07,0.08,-0.03,25.17
50994182,1577,1,198379,250082,1.07,-0.12,8.52,-0.09,-0.06,-0.04,25.17
51034201,1571,1,198728,250992,0.97,-0.29,8.92,-0.09,-0.10,-0.02,25.17
51074202,1599,1,198765,250726,0.89,-0.27,8.29,-0.11,-0.02,0.00,25.17
51114181,1619,1,198852,251508,1.10,-1.00,9.18,-0.02,0.05,0.04,25.17
51154171,1627,1,199516,252077,0.83,-0.57,9.45,-0.04,0.08,-0.02,25.17
51194184,1648,1,199484,251647,1.01,-0.32,9.93,-0.03,0.02,-0.02,25.17
51234182,1651,1,199582,251327,0.21,-0.94,9.68,-0.06,0.06,-0.00,25.17
51274182,1680,1,199133,250274,0.72,-0.28,9.13,-0.05,-0.00,-0.03,25.17
51314205,1729,1,198982,250424,0.50,-1.02,9.54,-0.03,0.07,-0.01,25.17
51354181,1751,1,199182,250432,0.56,-0.06,10.00,-0.02,0.05,-0.06,25.17
51394205,1760,1,199035,249460,0.56,-0.68,9.31,-0.03,0.03,-0.03,25.17
51434182,1776,1,198565,249303,0.36,-0.50,9.01,-0.03,0.03,0.03,25.17
51474171,1776,1,198763,249575,0.43,-1.15,9.84,-0.00,0.06,-0.02,25.17
51514182,1770,1,198761,250404,0.17,-0.59,10.20,-0.03,0.03,-0.03,25.17
51554868,1728,1,199093,250274,0.19,-0.68,10.54,-0.04,0.01,-0.03,25.17
51593180,1728,1,198777,249341,0.51,-0.59,10.70,-0.05,-0.05,-0.01,25.17
51633202,1733,1,198960,250047,-0.04,-1.16,11.07,-0.04,-0.01,-0.01,25.17
51673216,1760,1,199063,250892,0.59,-0.41,11.48,-0.04,-0.05,-0.04,25.17
51713205,1750,1,199824,251923,0.12,-1.09,10.95,-0.07,0.02,-0.11,25.17
51753181,1754,1,199675,251870,0.14,-0.13,9.27,-0.10,-0.09,-0.06,25.17
51793203,1771,1,200056,251785,0.60,-0.84,10.75,0.01,0.03,-0.07,25.17
51833171,1792,1,199238,251204,1.06,-0.54,7.87,-0.13,-0.18,-0.05,25.17
51873204,1760,1,199745,251311,0.73,-1.40,9.71,0.01,0.06,-0.10,25.17
51913171,1782,1,199725,251844,0.56,-0.39,7.85,-0.11,-0.13,-0.07,25.17
51953204,1792,1,200130,251150,0.40,-1.19,8.13,-0.06,-0.00,-0.08,25.17
51993201,1794,1,199732,252455,1.41,-0.81,8.95,-0.02,-0.11,-0.04,25.17
52033205,1753,1,200851,252770,0.63,-0.51,9.79,-0.03,-0.01,-0.11,25.17
52073202,1771,1,200163,252541,0.96,-0.54,9.39,-0.05,-0.12,-0.04,25.17
52113205,1775,1,200186,251981,0.95,-0.72,10.71,-0.02,0.02,-0.04,25.17
52153181,1761,1,199906,252173,0.71,-0.82,10.06,-0.05,-0.01,-0.02,25.17
52193202,1748,1,199832,252011,0.66,-0.90,10.13,-0.03,0.01,-0.02,25.17
52233181,1733,1,199896,252160,0.81,-0.75,10.88,0.01,0.01,-0.05,25.17
52273171,1756,1,199760,251616,0.23,-0.93,9.94,-0.05,0.01,-0.05,25.17
52313182,1809,1,199134,250713,0.69,0.23,8.59,-0.05,-0.09,-0.04,25.17
52353181,1827,1,199485,252048,0.37,-1.10,10.68,0.02,0.07,-0.04,25.17
52393171,1813,1,199253,249517,0.41,-0.16,8.59,-0.11,-0.08,-0.12,25.17
52433204,1769,1,199335,251454,0.87,-0.79,10.78,0.04,0.04,-0.05,25.17
52473171,1728,1,200293,252557,0.06,-1.29,9.57,-0.07,0.02,-0.14,25.17
52513182,1696,1,200293,251864,0.33,-0.85,10.16,-0.02,-0.04,-0.10,25.17
52553214,1697,1,199289,248613,-0.24,-0.79,9.29,-0.08,0.02,-0.00,25.17
52593891,1673,1,198157,248124,0.47,-1.34,9.86,-0.04,-0.03,0.17,25.25
52632181,1695,1,199168,249985,0.12,-1.63,10.67,-0.05,0.12,-0.03,25.25
52672184,1785,1,198738,249093,0.45,-0.51,8.25,-0.08,-0.11,0.00,25.25
52712181,1789,1,199008,249418,0.08,-2.11,10.84,-0.07,0.10,0.04,25.25
52752171,1808,1,198540,248387,0.25,-0.85,8.02,-0.13,-0.13,0.03,25.25
52792181,1790,1,198478,248804,0.53,-1.51,10.56,-0.01,0.03,0.03,25.25
52832197,1744,1,198428,248594,0.09,-1.34,9.61,-0.10,-0.03,-0.02,25.25
52872201,1746,1,198471,249064,0.41,-1.58,10.43,-0.04,0.03,-0.05,25.25
52912184,1731,1,198469,248938,0.46,-0.91,10.23,-0.05,-0.01,-0.05,25.25
52952201,1730,1,198257,248706,0.66,-0.91,10.35,-0.03,-0.02,-0.03,25.25
52992205,1735,1,198764,250829,0.08,-1.92,10.48,-0.05,0.04,-0.06,25.25
53032183,1746,1,199050,249517,0.05,-0.48,10.14,-0.05,-0.02,-0.06,25.25
53072202,1744,1,198288,249370,0.00,-1.52,9.46,-0.05,-0.02,-0.04,25.25
53112201,1758,1,198303,248993,0.24,-0.91,9.40,-0.05,-0.01,-0.05,25.25
53152202,1750,1,198602,250933,0.20,-0.91,10.21,0.01,0.01,-0.05,25.25
53192171,1734,1,199473,251851,-0.05,-1.82,9.82,-0.07,0.01,-0.06,25.25
53232205,1744,1,199522,250089,0.03,-1.13,9.63,-0.03,-0.00,-0.06,25.25
53272201,1729,1,198621,248399,0.38,-1.28,10.25,-0.02,0.01,-0.06,25.25
53312183,1726,1,198352,247949,0.10,-1.32,10.11,-0.01,0.03,-0.05,25.25
53352181,1741,1,198055,248197,0.48,-1.28,9.71,-0.01,0.01,-0.06,25.25
53392182,1760,1,198766,249430,0.11,-0.81,10.28,-0.02,0.06,-0.05,25.25
53432181,1729,1,198330,248302,0.46,-0.83,9.05,-0.06,-0.03,-0.06,25.25
53472202,1681,1,198823,249373,-0.22,-0.92,10.52,0.05,0.11,-0.05,25.25
53512181,1703,1,198084,248188,0.67,-0.21,9.29,-0.05,-0.09,-0.06,25.25
53552202,1685,1,199033,250538,-0.51,-1.78,11.45,0.03,0.14,-0.05,25.25
53592181,1698,1,198195,248334,0.52,-0.01,8.37,-0.11,-0.18,-0.07,25.25
53632892,1648,1,198376,249352,0.84,-0.74,11.99,0.08,0.12,-0.02,25.25
53673171,1713,1,198167,248568,0.29,0.23,8.42,-0.14,-0.08,-0.05,25.25
53711181,1659,1,198846,250975,0.95,-0.62,11.70,0.05,0.11,-0.06,25.25
53751171,1762,1,198607,248866,0.21,0.26,8.67,-0.10,-0.11,-0.05,25.25
53791181,1674,1,198511,251392,1.53,-1.24,10.57,0.05,-0.03,-0.06,25.25
53831181,1758,1,199482,250827,0.08,0.06,9.07,-0.07,-0.00,-0.12,25.25
53871181,1746,1,199660,254303,1.04,-1.15,9.57,0.08,-0.13,-0.23,25.25
53911181,1311,1,201167,254069,0.88,0.16,11.37,0.00,0.08,-0.22,25.25
53951150,1087,1,199827,252972,0.63,-0.72,8.90,-0.03,-0.29,-0.05,25.25
53991201,1153,1,200133,252685,0.76,-0.89,12.40,0.05,0.08,-0.03,25.25
54031171,1281,1,199413,252108,0.35,-0.36,9.31,-0.03,-0.18,-0.03,25.25
54071202,1325,1,200035,253667,0.75,-1.04,13.16,0.12,0.04,-0.05,25.25
54111171,1434,1,199513,251760,0.53,0.52,8.40,-0.11,-0.19,-0.04,25.25
54151181,1455,1,200028,253254,0.54,-1.63,12.80,0.17,0.16,-0.01,25.25
54191171,1626,1,199542,250600,0.25,0.72,8.96,-0.04,-0.24,-0.02,25.25
54231181,1635,1,199572,253695,1.45,-0.93,11.09,0.22,-0.02,-0.06,25.25
54271183,1826,1,200617,253578,0.35,0.21,9.16,-0.18,-0.10,-0.04,25.25
54311181,1927,1,200063,253717,0.98,-0.37,8.39,0.10,-0.15,-0.01,25.25
54351184,1950,1,201057,254836,0.66,-0.04,11.48,-0.01,0.15,-0.02,25.25
54391181,2047,1,200659,253676,0.80,-0.04,9.01,0.01,-0.12,-0.05,25.25
54431181,2043,1,200994,254447,0.92,-0.03,12.30,0.06,0.04,-0.05,25.25
54471178,2084,1,200314,252628,0.24,-0.48,8.20,-0.01,-0.05,-0.03,25.25
54511202,2063,1,200152,253934,1.67,-0.12,10.99,0.03,-0.02,-0.01,25.25
54551181,2064,1,200045,251687,0.89,0.24,7.21,-0.05,-0.03,-0.07,25.25
54591182,2074,1,199346,253579,2.15,1.20,10.17,0.02,-0.03,0.37,25.25
54631150,1831,1,200803,253326,0.52,-0.58,8.11,-0.17,0.06,-0.15,25.25
54671889,1762,1,199392,253882,1.15,1.39,6.93,0.07,-0.14,0.22,25.11
54712150,1677,1,200717,253990,1.57,0.68,9.68,-0.20,0.12,-0.31,25.11
54752171,1786,1,199690,254407,0.50,1.34,7.54,-0.10,-0.18,0.22,25.11
54792171,1848,1,201642,256387,0.80,0.05,11.18,-0.04,0.28,-0.33,25.11
54832171,1918,1,201200,256044,0.54,1.10,8.85,-0.04,-0.10,-0.02,25.11
54870181,1919,1,201864,255951,0.95,-0.46,11.27,-0.08,0.11,-0.02,25.11
54910184,1927,1,200571,254092,0.68,0.12,8.56,-0.09,-0.10,-0.02,25.11
54950181,1936,1,201122,255733,0.68,-0.94,12.08,-0.04,0.14,-0.01,25.11
54990181,1904,1,201353,254059,-0.15,0.09,9.16,-0.08,0.07,-0.14,25.11
55030181,1904,1,201431,256277,0.03,-0.66,10.45,-0.05,0.02,-0.00,25.11
55070181,1808,1,202825,257183,0.17,-1.09,12.39,-0.10,0.05,-0.15,25.11
55110181,1807,1,201686,255379,0.76,0.41,9.10,0.04,-0.19,-0.03,25.11
55150171,1802,1,203311,259404,-0.31,-1.57,14.01,-0.06,0.25,-0.01,25.11
55190202,1694,1,202775,256346,0.39,1.38,7.33,-0.08,-0.13,-0.15,25.11
55230184,1791,1,203297,258948,-0.36,-1.72,13.69,0.00,0.16,0.10,25.11
55270171,1741,1,202004,255339,0.40,0.83,7.33,-0.22,0.02,-0.02,25.11
55310171,1776,1,202473,257834,-0.08,-1.61,14.08,0.05,0.21,0.05,25.11
55350171,1657,1,201446,254203,0.55,2.37,7.52,-0.15,-0.02,-0.18,25.11
55390184,1649,1,201301,256349,0.75,-1.20,12.76,0.00,0.09,0.03,25.11
55430151,1488,1,201314,254158,-0.14,0.58,8.14,-0.12,0.04,-0.04,25.11
55470181,1581,1,200643,255458,0.69,-0.78,10.29,0.11,-0.08,0.03,25.11
55510171,1465,1,201117,254222,0.55,0.59,9.28,-0.06,0.11,-0.03,25.11
55550171,1535,1,200411,254196,0.40,-1.25,9.08,-0.03,-0.10,0.07,25.11
55590181,1487,1,200478,252827,0.61,0.76,10.75,-0.02,0.03,-0.02,25.11
55630171,1535,1,199407,251640,0.14,-1.18,9.73,-0.03,-0.06,0.29,25.11
55670181,1535,1,198893,250253,0.68,0.13,10.43,-0.07,-0.00,0.10,25.11
55711858,1598,1,198462,248732,0.35,-0.79,10.49,0.03,0.00,0.07,24.93
55750151,1661,1,197715,246581,0.66,-0.32,10.47,-0.04,-0.04,0.06,24.93
55790184,1718,1,197833,247055,0.37,-0.60,11.93,0.03,0.04,-0.01,24.93
55830171,1791,1,197924,247772,0.57,-0.50,11.01,-0.02,-0.11,0.04,24.93
55870182,1808,1,198595,248844,0.20,-0.54,11.90,-0.02,0.00,0.01,24.93
55910171,1838,1,198505,248804,0.34,-0.30,10.09,-0.14,-0.14,0.03,24.93
55950183,1868,1,199178,250477,0.50,0.13,12.08,0.07,0.11,-0.02,24.93
55990150,1872,1,198907,249980,0.73,-0.23,8.98,-0.16,-0.15,0.00,24.93
56030183,1851,1,199363,251976,0.99,0.24,10.41,0.07,0.12,-0.04,24.93
56070150,1824,1,199147,250414,0.81,0.97,7.35,-0.27,-0.16,0.01,24.93
56110181,1840,1,199510,253626,1.07,-0.18,8.62,0.19,0.06,-0.05,24.93
56150171,1841,1,200472,253199,0.86,0.73,7.67,-0.10,0.05,-0.25,24.93
56190171,1863,1,201320,256480,0.80,-1.03,9.50,0.14,0.11,-0.02,24.93
56230171,1808,1,202215,255133,0.81,0.83,8.49,-0.10,0.05,-0.29,24.93
56270171,1837,1,201265,254586,0.56,-1.23,9.88,-0.15,-0.11,0.21,24.93
56310226,1757,1,200187,251413,0.50,0.57,9.27,0.03,0.05,-0.01,24.93
56350150,1743,1,198693,250958,0.46,-1.16,9.05,-0.16,-0.11,0.41,24.93
56390181,1696,1,199127,251024,0.48,0.05,10.50,0.04,0.24,-0.01,24.93
56430150,1780,1,198993,253014,0.33,-1.09,8.54,-0.23,-0.16,0.18,24.93
56470181,1712,1,200821,254991,0.29,0.07,11.77,0.08,0.26,-0.22,24.93
56510171,1729,1,200816,254761,0.00,-0.96,9.40,-0.15,-0.07,0.04,24.93
56550181,1728,1,201132,254064,0.37,-0.01,12.88,0.09,0.13,-0.20,24.93
56590171,1733,1,200305,253261,-0.01,0.24,10.21,-0.14,-0.05,0.02,24.93
56630181,1755,1,200927,254119,0.01,-0.94,14.08,0.03,0.08,-0.06,24.93
56670171,1759,1,200204,252838,-0.43,-0.24,9.39,-0.24,-0.09,0.02,24.93
56710202,1746,1,200368,253490,0.51,-0.39,12.78,0.05,0.06,-0.02,24.93
56750858,1744,1,199955,252665,0.22,-0.21,9.33,-0.17,-0.04,-0.02,25.05
56789202,1765,1,200187,253838,0.19,-1.29,9.93,-0.07,-0.01,-0.01,25.05
56829205,1709,1,200014,252949,0.12,0.43,7.93,-0.17,-0.01,-0.05,25.05
56869181,1760,1,200725,254960,0.46,-0.94,10.38,-0.02,0.06,-0.05,25.05
56909182,1800,1,201162,255636,0.11,-0.67,8.13,-0.16,-0.03,-0.14,25.05
56949202,1780,1,201636,255631,0.45,-0.70,10.62,0.02,-0.03,-0.20,25.05
56989181,1789,1,201082,254869,0.17,-1.04,9.51,-0.07,-0.08,-0.09,25.05
57029202,1771,1,200645,252938,0.20,-1.18,9.96,-0.01,-0.02,-0.07,25.05
57069204,1797,1,199531,252504,0.62,-0.99,9.35,-0.03,-0.09,0.05,25.05
57109181,1757,1,200204,252724,0.12,-1.28,10.00,-0.00,0.05,-0.04,25.05
57149181,1776,1,199668,253054,0.17,-0.83,8.89,-0.02,-0.06,-0.01,25.05
57189201,1773,1,200629,254248,0.32,-0.56,11.23,0.05,0.07,-0.07,25.05
57229171,1771,1,200858,255555,0.28,-0.80,9.52,-0.04,-0.07,-0.04,25.05
57269201,1744,1,201746,256633,0.11,-0.73,10.96,0.02,0.03,-0.09,25.05
57309171,1713,1,201823,256482,0.37,-0.27,10.13,-0.03,-0.03,-0.05,25.05
57349202,1687,1,202316,256703,0.32,-0.54,11.20,0.01,0.01,-0.10,25.05
57389171,1725,1,201751,255268,0.35,-0.30,9.81,-0.04,-0.08,-0.02,25.05
57429202,1712,1,201781,256672,0.28,-0.72,11.18,0.02,0.04,-0.01,25.05
57469171,1712,1,201860,254683,0.07,0.49,10.26,-0.07,-0.08,-0.11,25.05
57509181,1702,1,200840,253385,0.40,-0.59,10.85,-0.00,-0.04,0.01,25.05
57549181,1718,1,200016,252487,0.31,-0.07,8.84,-0.09,-0.08,0.08,25.05
57589181,1708,1,200245,253216,0.51,-0.55,10.79,0.03,0.03,-0.01,25.05
57629171,1709,1,200263,254482,0.52,-0.59,9.79,0.03,-0.07,0.01,25.05
57669171,1712,1,201099,254496,0.16,-0.60,9.89,-0.05,-0.06,-0.06,25.05
57709202,1733,1,200629,255099,0.52,-0.99,10.09,-0.01,-0.10,-0.03,25.05
57749204,1720,1,200960,253536,-0.12,0.04,10.11,-0.01,-0.02,-0.01,25.05
57789889,1689,1,200073,254733,0.62,-1.36,10.29,0.03,-0.09,0.07,24.95
57828171,1701,1,200939,253781,0.17,-0.72,9.43,-0.08,0.02,-0.01,24.95
57868181,1761,1,199965,254571,0.40,-1.01,8.28,-0.01,-0.23,0.09,24.95
57908181,1675,1,200921,254555,0.08,-0.63,9.40,-0.10,0.17,-0.02,24.95
57948218,1687,1,200588,256489,0.75,-0.18,8.32,-0.01,-0.16,-0.03,24.95
57988201,1662,1,202245,256857,0.33,-0.82,10.48,-0.05,0.14,-0.20,24.95
58028184,1727,1,201125,256377,1.16,0.59,8.05,-0.04,-0.26,-0.05,24.95
58068183,1673,1,201735,254503,0.27,-0.87,10.34,-0.11,0.18,-0.06,24.95
58108184,1750,1,199750,252436,0.54,0.79,7.29,-0.05,-0.28,0.02,24.95
58148189,1653,1,200777,253443,0.47,-0.35,13.17,-0.06,0.35,-0.01,24.95
58188184,1779,1,199680,252001,0.35,0.66,7.30,-0.08,-0.23,0.07,24.95
58228171,1710,1,200618,253552,0.48,-0.83,13.56,0.01,0.36,0.00,24.95
58268150,1761,1,199650,251749,0.27,0.18,7.88,-0.18,-0.15,0.24,24.95
58308171,1749,1,200072,252208,0.45,-0.62,13.01,0.00,0.16,0.03,24.95
58348150,1798,1,199195,251755,-0.48,-0.30,8.78,-0.28,-0.19,0.26,24.95
58388201,1728,1,199873,251754,0.47,-0.61,12.92,-0.03,0.19,-0.01,24.95
58428183,1763,1,198655,250545,-0.18,-0.78,8.88,-0.25,-0.30,0.28,24.95
58468202,1665,1,199254,251509,0.49,-0.72,11.52,-0.01,0.23,0.01,24.95
58508171,1734,1,198841,251395,0.21,-0.27,7.90,-0.21,-0.25,0.03,24.95
58548181,1729,1,199786,253346,0.62,-0.99,10.78,0.01,0.24,-0.07,24.95
58588171,1724,1,199493,252258,0.15,-0.19,8.21,-0.13,-0.07,-0.04,24.95
58628202,1723,1,199281,251955,0.25,-1.16,9.01,-0.09,0.05,-0.03,24.95
58668182,1673,1,198676,251825,1.02,-0.41,8.50,-0.06,-0.04,-0.02,24.95
58708202,1663,1,198966,251306,0.11,-0.40,9.33,-0.05,0.07,-0.01,24.95
58748181,1731,1,198293,250674,0.60,-0.59,8.70,-0.10,-0.06,-0.01,24.95
58788201,1734,1,198643,250803,0.21,-0.43,9.62,-0.02,0.11,-0.00,24.95
58828869,1771,1,198474,250467,0.41,-0.52,9.61,-0.03,0.02,-0.00,25.05
58867181,1760,1,198747,250410,-0.11,-1.14,9.83,-0.01,0.06,-0.01,25.05
58907205,1765,1,198368,249730,0.31,-0.93,9.83,0.00,-0.03,-0.00,25.05
58947181,1761,1,198368,249646,0.12,-1.24,10.18,-0.01,0.00,-0.00,25.05
58987183,1777,1,198261,249420,0.42,-0.62,10.55,0.02,-0.03,-0.02,25.05
59027181,1791,1,198457,250313,-0.37,-1.71,10.91,-0.01,0.02,-0.03,25.05
59067205,1807,1,198290,249732,0.16,-0.77,9.84,-0.04,-0.07,-0.01,25.05
59107201,1778,1,198597,250753,-0.08,-1.12,11.25,0.03,0.02,-0.03,25.05
59147182,1808,1,198677,251236,0.25,-0.61,10.19,-0.04,-0.06,-0.01,25.05
59187200,1772,1,199437,252272,-0.17,-0.43,13.00,0.08,0.04,-0.07,25.05
59227181,1757,1,198689,251455,0.06,0.14,8.89,-0.11,-0.12,-0.01,25.05
59267181,1729,1,199316,252126,0.01,-0.96,11.98,0.06,0.08,-0.04,25.05
59307171,1744,1,198828,252305,0.50,-0.30,8.56,-0.09,-0.14,0.01,25.05
59347181,1741,1,199859,253273,0.28,-0.74,12.42,0.05,0.05,-0.05,25.05
59387182,1723,1,199249,252644,0.24,-0.33,8.55,-0.12,-0.17,-0.02,25.05
59427202,1733,1,199667,253164,0.18,-1.28,10.69,-0.00,-0.03,-0.01,25.05
59467204,1755,1,199198,252067,0.44,0.09,8.67,-0.07,-0.16,-0.02,25.05
59507181,1742,1,199818,253160,-0.04,-1.92,10.51,-0.00,0.05,-0.01,25.05
59547205,1764,1,199244,250906,0.65,0.38,9.35,-0.03,-0.16,-0.03,25.05
59587183,1709,1,199613,252497,-0.23,-2.34,11.08,0.01,0.04,-0.01,25.05
59627183,1770,1,198965,250298,0.68,0.12,7.86,-0.03,-0.25,0.00,25.05
59667171,1723,1,199311,252399,-0.06,-2.10,11.76,0.07,0.14,0.02,25.05
59707171,1755,1,199009,251482,0.46,-0.27,7.68,-0.08,-0.19,-0.01,25.05
59747202,1738,1,199848,253546,0.30,-1.46,11.87,0.07,0.13,-0.02,25.05
59787191,1783,1,199805,253209,0.07,-0.79,8.28,-0.10,-0.10,-0.01,25.05
59827201,1744,1,200479,254795,0.66,-0.46,12.48,0.11,0.12,-0.02,25.05
59867858,1739,1,200605,254310,0.07,0.28,9.60,-0.06,-0.03,-0.02,25.13
59908181,1667,1,200831,255880,0.42,-0.83,11.49,0.02,0.04,-0.01,25.13
59946171,1706,1,201021,254127,0.00,0.57,10.00,-0.09,-0.03,-0.10,25.13
59986181,1712,1,200134,254853,0.68,-0.20,10.37,0.01,-0.05,-0.01,25.13
60026185,1727,1,200692,254089,0.96,0.48,11.26,-0.01,0.05,-0.01,25.13
60066171,1759,1,200043,254963,0.32,-0.61,8.75,-0.09,-0.20,0.00,25.13
60106185,1723,1,201029,254446,0.12,-0.04,10.38,-0.07,0.08,-0.04,25.13
60146181,1763,1,199912,253781,1.30,0.07,8.68,-0.07,-0.28,-0.02,25.13
60186181,1743,1,200345,254586,0.51,0.14,10.05,-0.05,0.07,-0.01,25.13
60226177,1802,1,200249,254550,0.88,-0.09,9.43,-0.05,-0.12,-0.02,25.13
60266203,1808,1,200919,254155,0.01,-0.51,10.68,-0.06,0.07,-0.04,25.13
60306181,1855,1,199590,252807,0.76,0.04,8.52,-0.11,-0.24,-0.01,25.13
60346181,1828,1,200151,254279,0.49,-1.02,10.61,-0.03,0.19,-0.02,25.13
60386181,1875,1,199693,252276,0.33,0.57,7.42,-0.11,-0.20,-0.01,25.13
60426197,1831,1,200031,254992,0.90,-1.13,10.82,0.05,0.29,-0.02,25.13
60466171,1845,1,200313,253627,-0.05,0.50,8.18,-0.16,-0.03,-0.02,25.13
60506202,1808,1,200548,255746,0.85,-1.25,10.54,0.00,0.07,-0.02,25.13
60546171,1776,1,200635,254309,0.16,0.56,8.87,-0.09,0.06,-0.01,25.13
60586171,1775,1,200482,255265,0.79,-0.88,11.15,-0.00,0.06,-0.01,25.13
60626181,1735,1,200386,253574,0.51,0.30,9.88,-0.08,0.01,-0.02,25.13
60666171,1727,1,199979,253980,0.40,-0.57,10.37,-0.00,0.04,-0.00,25.13
60706181,1725,1,200117,253972,0.46,0.07,9.56,-0.08,0.02,-0.01,25.13
60746171,1711,1,200189,255079,0.18,-0.50,10.13,-0.03,0.03,-0.00,25.13
60786181,1698,1,200761,255131,0.39,-0.59,10.69,-0.06,0.01,-0.02,25.13
60826183,1695,1,200353,254263,0.12,-0.30,10.13,-0.05,-0.05,-0.01,25.13
60866201,1683,1,200223,254998,0.09,-0.58,11.21,-0.04,0.01,-0.00,25.13
60906869,1730,1,200152,253665,0.14,-0.63,9.74,-0.09,-0.06,-0.00,24.93
60947202,1719,1,199763,253700,0.47,-0.93,11.07,-0.01,-0.01,-0.01,24.93
60987204,1723,1,199880,252432,0.01,-0.65,9.87,-0.07,-0.02,-0.01,24.93
61027202,1731,1,199439,253381,0.44,-0.76,11.04,-0.03,-0.00,-0.01,24.93
61067205,1745,1,199905,252323,-0.10,-1.24,9.84,-0.06,-0.00,-0.02,24.93
61105215,1759,1,199417,253276,0.13,-0.60,10.39,-0.03,-0.06,0.00,24.93
61145181,1712,1,199870,252023,0.33,-1.19,10.23,-0.06,-0.00,-0.07,24.93
61185201,1738,1,199258,252993,0.16,-0.68,10.37,0.00,-0.11,0.07,24.93
61225215,1712,1,199880,252757,0.40,0.02,9.91,-0.05,0.01,-0.01,24.93
61265171,1722,1,199936,254483,-0.25,-1.57,10.22,-0.04,-0.00,-0.01,24.93
61305218,1717,1,200416,253607,0.20,-0.24,10.06,-0.04,0.01,-0.16,24.93
61345181,1759,1,199381,252377,0.34,0.76,8.56,-0.04,-0.07,0.01,24.93
61385171,1777,1,199406,252276,1.14,0.51,11.54,0.01,0.03,0.01,24.93
61425148,1745,1,199126,251747,-0.19,-0.91,7.64,-0.08,-0.05,0.01,24.93
61465201,1712,1,199425,253679,0.82,-1.33,10.84,0.03,0.05,-0.02,24.93
61505171,1696,1,200213,253852,-0.27,-0.93,9.02,0.04,-0.03,0.00,24.93
61545181,1766,1,199400,253015,0.96,0.38,7.49,-0.02,-0.26,0.01,24.93
61585171,1760,1,200042,254853,-0.38,-1.28,9.34,-0.01,0.06,0.01,24.93
61625183,1808,1,200103,253591,0.69,-0.55,7.56,-0.06,-0.15,-0.02,24.93
61665201,1821,1,200100,254175,0.33,-1.61,10.98,0.10,0.05,0.05,24.93
