timestamp_us,ecg,leads,ir,red,accX,accY,accZ,gyroX,gyroY,gyroZ,temp
2418559,1737,1,204430,241360,0.00,0.00,0.00,0.00,0.00,0.00,0.00
2448959,1724,1,204412,241635,0.01,-0.82,9.67,-0.03,-0.01,-0.01,30.97
2489199,1746,1,204508,241938,0.03,-0.83,9.96,-0.03,-0.01,-0.01,30.97
2529189,1763,1,204599,242063,0.01,-0.85,9.94,-0.03,-0.01,-0.01,30.97
2569192,1776,1,204632,242020,0.00,-0.83,9.98,-0.03,-0.01,-0.00,30.97
2609188,1791,1,204639,241971,0.03,-0.81,9.92,-0.03,-0.01,-0.00,30.97
2649192,1795,1,204660,241342,0.03,-0.83,9.96,-0.03,-0.01,-0.00,30.97
2689188,1801,1,204053,239284,0.01,-0.82,9.96,-0.03,-0.01,-0.00,30.97
2729192,1807,1,203138,236809,0.01,-0.86,9.95,-0.03,-0.01,-0.01,30.97
2769189,1815,1,202454,235580,-0.00,-0.81,9.96,-0.03,-0.01,-0.00,30.97
2809206,1823,1,202570,236454,0.02,-0.82,9.94,-0.03,-0.02,-0.00,30.97
2849189,1821,1,202857,237310,0.01,-0.81,9.96,-0.03,-0.01,-0.01,30.97
2889192,1826,1,203125,238244,0.02,-0.83,9.94,-0.03,-0.01,-0.00,30.97
2929189,1833,1,203440,238943,0.04,-0.84,9.96,-0.03,-0.01,-0.01,30.97
2969192,1829,1,203623,239512,0.01,-0.82,9.93,-0.04,-0.01,-0.01,30.97
3009189,1835,1,203777,240153,-0.01,-0.84,9.98,-0.04,-0.00,-0.01,30.97
3049207,1837,1,203991,240717,0.02,-0.82,9.94,-0.03,-0.01,-0.01,30.97
3089189,1837,1,204112,241037,0.01,-0.83,9.96,-0.03,-0.01,-0.00,30.97
3129192,1831,1,204189,241119,0.04,-0.83,9.96,-0.03,-0.02,-0.01,30.97
3169189,1826,1,204225,241033,0.01,-0.83,9.97,-0.03,-0.02,-0.00,30.97
3209192,1838,1,204268,241056,0.01,-0.84,9.94,-0.03,-0.02,-0.00,30.97
3249188,1840,1,204327,241127,0.03,-0.81,9.93,-0.03,-0.02,-0.00,30.97
3289192,1827,1,204398,241234,0.02,-0.84,9.96,-0.03,-0.02,-0.00,30.97
3329188,1825,1,204492,240994,0.07,-0.81,9.95,-0.03,-0.01,-0.00,30.97
3369192,1819,1,204002,239079,0.04,-0.82,9.96,-0.03,-0.01,-0.00,30.97
3409189,1815,1,203331,237267,0.03,-0.80,9.97,-0.04,-0.01,-0.00,30.97
3449196,1812,1,202831,236115,0.02,-0.85,9.94,-0.03,-0.01,-0.01,30.97
3489875,1806,1,202803,236310,0.04,-0.83,9.96,-0.03,-0.01,-0.00,31.25
3528192,1827,1,202899,236480,0.03,-0.82,9.95,-0.03,-0.01,-0.00,31.25
3568188,1818,1,203051,237142,0.04,-0.82,9.96,-0.03,-0.01,-0.01,31.25
3608192,1820,1,203362,237981,0.02,-0.82,9.96,-0.03,-0.01,-0.01,31.25
3648210,1818,1,203597,238502,0.03,-0.80,9.93,-0.03,-0.01,-0.01,31.25
3688192,1818,1,203709,238850,0.02,-0.81,9.95,-0.03,-0.01,-0.01,31.25
3728189,1818,1,203801,239139,0.03,-0.84,9.94,-0.03,-0.01,-0.01,31.25
3768192,1821,1,203890,239436,0.03,-0.81,9.94,-0.03,-0.01,-0.00,31.25
3808188,1819,1,204029,239812,0.02,-0.82,9.98,-0.04,-0.01,-0.01,31.25
3848192,1817,1,204167,240368,0.02,-0.82,9.93,-0.04,-0.01,-0.01,31.25
3888189,1829,1,204352,240916,0.03,-0.83,9.96,-0.04,-0.00,-0.01,31.25
3928192,1813,1,204556,241540,0.00,-0.83,9.97,-0.03,-0.01,-0.01,31.25
3968189,1810,1,204720,242021,0.02,-0.83,9.98,-0.03,-0.01,-0.01,31.25
4008192,1821,1,204806,241584,0.03,-0.83,9.98,-0.03,-0.01,-0.00,31.25
4048188,1808,1,204065,239824,0.03,-0.82,9.93,-0.03,-0.01,-0.01,31.25
4088192,1821,1,203607,239106,0.02,-0.83,9.93,-0.03,-0.01,-0.01,31.25
4128189,1818,1,203396,238932,0.02,-0.82,9.95,-0.03,-0.01,-0.01,31.25
4168192,1813,1,203414,238925,0.02,-0.84,9.97,-0.03,-0.01,-0.00,31.25
4208189,1819,1,203365,238815,0.00,-0.82,9.96,-0.03,-0.01,-0.01,31.25
4248192,1822,1,203487,239199,0.00,-0.82,9.94,-0.03,-0.01,-0.00,31.25
4288188,1819,1,203623,239442,0.02,-0.85,9.94,-0.03,-0.01,-0.00,31.25
4328192,1824,1,203617,239397,-0.00,-0.81,9.95,-0.03,-0.01,-0.01,31.25
4368205,1811,1,203613,239263,0.02,-0.82,9.94,-0.03,-0.01,-0.00,31.25
4408192,1814,1,203627,239555,0.04,-0.80,9.93,-0.03,-0.01,-0.01,31.25
4448189,1808,1,203726,239976,0.01,-0.85,9.96,-0.04,-0.01,-0.01,31.25
4488192,1797,1,203855,240215,0.02,-0.83,9.98,-0.04,-0.01,-0.00,31.25
4528875,1808,1,203875,240502,0.01,-0.83,9.96,-0.03,-0.01,-0.01,30.87
4569192,1815,1,203965,241046,0.03,-0.82,9.93,-0.03,-0.01,-0.00,30.87
4609188,1808,1,204207,241565,0.02,-0.83,9.93,-0.03,-0.01,-0.01,30.87
4649192,1822,1,204364,241712,0.01,-0.83,9.95,-0.04,-0.01,-0.01,30.87
4687189,1827,1,204063,240173,-0.00,-0.84,9.97,-0.04,-0.01,-0.01,30.87
4727206,1827,1,203486,239112,0.01,-0.81,9.95,-0.03,-0.01,-0.00,30.87
4767189,1825,1,203187,238662,0.01,-0.82,9.94,-0.03,-0.01,-0.00,30.87
4807192,1840,1,203055,238173,0.00,-0.82,9.94,-0.03,-0.01,-0.00,30.87
4847188,1833,1,202962,237546,0.01,-0.83,9.95,-0.03,-0.01,-0.00,30.87
4887192,1838,1,202795,237083,0.00,-0.84,9.95,-0.03,-0.01,-0.00,30.87
4927188,1835,1,202870,237346,0.03,-0.83,9.96,-0.03,-0.01,-0.00,30.87
4967192,1847,1,203081,237733,0.03,-0.84,9.94,-0.03,-0.01,-0.01,30.87
5007189,1836,1,203233,238386,0.02,-0.82,9.96,-0.03,-0.01,-0.01,30.87
5047192,1837,1,203367,238950,0.01,-0.81,9.96,-0.03,-0.01,-0.01,30.87
5087207,1839,1,203514,239381,0.02,-0.82,9.95,-0.03,-0.01,-0.00,30.87
5127192,1839,1,203655,239939,0.03,-0.83,9.97,-0.03,-0.01,-0.01,30.87
5167189,1823,1,203888,240617,0.02,-0.82,9.96,-0.03,-0.01,-0.01,30.87
5207192,1840,1,204129,241289,0.04,-0.83,9.97,-0.03,-0.01,-0.00,30.87
5247188,1837,1,204283,241815,0.01,-0.82,9.96,-0.03,-0.01,-0.00,30.87
5287192,1825,1,204473,242225,0.04,-0.81,9.93,-0.03,-0.01,-0.00,30.87
5327188,1826,1,204651,242088,0.02,-0.83,9.97,-0.03,-0.01,-0.00,30.87
5367192,1825,1,204046,240119,0.02,-0.82,9.94,-0.03,-0.01,-0.00,30.87
5407189,1825,1,203493,239248,0.01,-0.83,9.96,-0.03,-0.01,-0.00,30.87
5447192,1827,1,203308,239053,0.01,-0.82,9.96,-0.03,-0.01,-0.01,30.87
5487189,1833,1,203272,239035,0.02,-0.84,9.96,-0.03,-0.01,-0.00,30.87
5527192,1824,1,203302,239221,0.02,-0.83,9.96,-0.03,-0.01,-0.00,30.87
5567875,1821,1,203391,239629,0.01,-0.85,9.95,-0.03,-0.01,-0.00,31.05
5608192,1822,1,203595,240067,-0.01,-0.82,9.94,-0.03,-0.01,-0.01,31.05
5648205,1809,1,203683,240189,0.02,-0.86,9.93,-0.03,-0.01,-0.00,31.05
5688192,1808,1,203772,240423,0.02,-0.83,9.94,-0.03,-0.01,-0.01,31.05
5728188,1818,1,203860,240662,0.04,-0.83,9.97,-0.03,-0.01,-0.01,31.05
5768192,1830,1,203964,240972,0.03,-0.83,9.93,-0.03,-0.01,-0.01,31.05
5808188,1829,1,204071,241286,0.01,-0.84,9.94,-0.03,-0.01,-0.01,31.05
5848192,1813,1,204209,241699,0.03,-0.80,9.95,-0.03,-0.01,-0.00,31.05
5888188,1823,1,204385,242075,0.02,-0.82,9.96,-0.03,-0.01,-0.01,31.05
5928192,1827,1,204527,242349,0.04,-0.85,9.93,-0.03,-0.01,-0.01,31.05
5968203,1819,1,204564,242472,0.03,-0.83,9.94,-0.03,-0.01,-0.01,31.05
6008192,1823,1,204659,242339,0.01,-0.82,9.94,-0.03,-0.01,-0.00,31.05
6048189,1820,1,204137,240425,0.00,-0.82,9.96,-0.03,-0.01,-0.01,31.05
6088192,1825,1,203514,239168,0.03,-0.83,9.97,-0.03,-0.01,-0.01,31.05
6128188,1820,1,203217,238448,0.03,-0.83,9.94,-0.03,-0.01,-0.00,31.05
6168192,1825,1,203059,237919,0.01,-0.82,9.93,-0.03,-0.01,-0.00,31.05
6208189,1830,1,202962,237666,0.04,-0.83,9.93,-0.03,-0.01,-0.00,31.05
6248192,1817,1,203041,238196,0.03,-0.85,9.95,-0.03,-0.01,-0.00,31.05
6288188,1826,1,203338,238852,0.01,-0.84,9.96,-0.03,-0.01,-0.00,31.05
6328192,1818,1,203446,239060,0.02,-0.82,9.96,-0.03,-0.01,-0.00,31.05
6368188,1814,1,203521,239146,0.03,-0.82,9.95,-0.03,-0.01,-0.01,31.05
6408192,1810,1,203619,239325,0.02,-0.83,9.95,-0.03,-0.01,-0.01,31.05
6448189,1812,1,203730,239620,0.02,-0.83,9.95,-0.03,-0.01,-0.00,31.05
6488192,1815,1,203870,239881,0.03,-0.84,9.95,-0.03,-0.01,-0.00,31.05
6528189,1808,1,203947,240257,0.03,-0.83,9.95,-0.03,-0.01,-0.00,31.05
6568879,1815,1,204049,240635,0.01,-0.83,9.94,-0.03,-0.01,-0.01,31.05
6607188,1819,1,204227,241055,0.05,-0.82,9.96,-0.03,-0.01,-0.01,31.05
6647192,1812,1,204382,241435,0.02,-0.84,9.94,-0.03,-0.01,-0.00,31.05
6687189,1814,1,204440,241140,0.01,-0.84,9.96,-0.03,-0.01,-0.00,31.05
6727220,1821,1,203852,239409,0.02,-0.83,9.95,-0.03,-0.01,-0.01,31.05
6767188,1813,1,203389,238611,0.02,-0.82,9.94,-0.03,-0.01,-0.01,31.05
6807192,1815,1,203229,238308,0.04,-0.83,9.94,-0.03,-0.01,-0.01,31.05
6847188,1820,1,203183,238214,0.02,-0.80,9.96,-0.03,-0.01,-0.00,31.05
6887192,1821,1,203156,238365,0.02,-0.83,9.97,-0.03,-0.01,-0.00,31.05
6927226,1817,1,203299,239095,0.02,-0.84,9.95,-0.03,-0.01,-0.01,31.05
6967192,1835,1,203557,239586,0.02,-0.83,9.97,-0.03,-0.01,-0.01,31.05
7007189,1840,1,203726,239862,0.03,-0.83,9.94,-0.03,-0.01,-0.00,31.05
7047192,1846,1,203760,240069,0.01,-0.84,9.96,-0.03,-0.01,-0.00,31.05
7087189,1845,1,203843,240399,0.02,-0.83,9.96,-0.03,-0.01,-0.01,31.05
7127192,1847,1,203935,240765,0.01,-0.84,9.95,-0.03,-0.01,-0.00,31.05
7167189,1855,1,203991,241117,0.00,-0.82,9.97,-0.03,-0.01,-0.01,31.05
7207192,1857,1,204205,241493,0.03,-0.83,9.94,-0.03,-0.01,-0.00,31.05
7247189,1867,1,204315,241842,0.02,-0.81,9.95,-0.03,-0.01,-0.00,31.05
7287192,1869,1,204434,242321,0.02,-0.81,9.93,-0.03,-0.01,-0.01,31.05
7327188,1859,1,204660,242747,0.00,-0.83,9.96,-0.04,-0.01,-0.00,31.05
7367192,1874,1,204529,241307,0.03,-0.86,9.96,-0.03,-0.01,-0.01,31.05
7407188,1871,1,203698,239737,0.02,-0.84,9.93,-0.03,-0.01,-0.01,31.05
7447192,1862,1,203318,239289,0.01,-0.83,9.94,-0.03,-0.01,-0.00,31.05
7487189,1875,1,203361,239177,0.04,-0.82,9.95,-0.03,-0.01,-0.01,31.05
7527192,1875,1,203290,239186,0.03,-0.82,9.96,-0.03,-0.01,-0.00,31.05
7567189,1869,1,203232,239283,0.02,-0.83,9.94,-0.03,-0.01,-0.01,31.05
7607879,1870,1,203436,239816,0.02,-0.82,9.95,-0.03,-0.01,-0.00,30.99
7648188,1867,1,203580,240114,0.02,-0.83,9.96,-0.03,-0.01,-0.00,30.99
7688192,1857,1,203627,240290,0.02,-0.83,9.95,-0.03,-0.01,-0.01,30.99
7728189,1854,1,203684,240481,0.01,-0.82,9.96,-0.04,-0.01,-0.01,30.99
7768192,1842,1,203830,240797,0.03,-0.82,9.91,-0.03,-0.01,-0.00,30.99
7808188,1839,1,203991,241141,0.01,-0.83,9.97,-0.03,-0.01,-0.01,30.99
7846192,1855,1,204122,241515,0.00,-0.84,9.96,-0.03,-0.01,-0.00,30.99
7886188,1847,1,204134,241758,0.01,-0.85,9.95,-0.03,-0.01,-0.00,30.99
7926192,1843,1,204331,242089,0.00,-0.83,9.96,-0.03,-0.01,-0.00,30.99
7966188,1840,1,204438,242457,0.03,-0.83,9.96,-0.03,-0.01,-0.00,30.99
8006192,1837,1,204613,242635,0.03,-0.80,9.96,-0.03,-0.01,-0.00,30.99
8046188,1825,1,204719,242732,0.01,-0.84,9.92,-0.03,-0.01,-0.01,30.99
8086192,1821,1,204270,240703,0.00,-0.85,9.94,-0.03,-0.01,-0.00,30.99
8126188,1828,1,203605,239563,0.02,-0.84,9.94,-0.03,-0.01,-0.01,30.99
8166192,1826,1,203324,239133,0.01,-0.84,9.99,-0.03,-0.01,-0.01,30.99
8206189,1818,1,203196,238955,0.02,-0.84,9.95,-0.03,-0.01,-0.01,30.99
8246192,1813,1,203211,239000,0.00,-0.83,9.97,-0.03,-0.01,-0.00,30.99
8286188,1814,1,203275,239412,0.01,-0.84,9.98,-0.03,-0.01,-0.01,30.99
8326192,1808,1,203519,240076,0.01,-0.83,9.96,-0.03,-0.01,-0.00,30.99
8366230,1799,1,203676,240266,0.00,-0.81,9.97,-0.03,-0.01,-0.01,30.99
8406192,1809,1,203703,240339,0.00,-0.85,9.95,-0.03,-0.01,-0.00,30.99
8446189,1805,1,203774,240541,0.01,-0.81,9.97,-0.03,-0.01,-0.01,30.99
8486192,1798,1,203862,240821,0.01,-0.83,9.96,-0.03,-0.01,-0.01,30.99
8526196,1791,1,204096,241273,0.02,-0.85,9.95,-0.03,-0.01,-0.01,30.99
8566215,1790,1,204209,241707,0.01,-0.83,9.96,-0.03,-0.01,-0.00,30.99
8606189,1794,1,204375,241944,0.02,-0.81,9.93,-0.03,-0.01,-0.01,30.99
8646878,1787,1,204446,242287,0.00,-0.82,9.94,-0.03,-0.01,-0.01,30.93
8687189,1787,1,204549,242928,0.00,-0.82,9.96,-0.03,-0.01,-0.00,30.93
8727192,1795,1,204803,243347,0.00,-0.84,9.94,-0.03,-0.01,-0.01,30.93
8767207,1786,1,204904,243460,0.00,-0.82,9.94,-0.03,-0.01,-0.00,30.93
8807192,1798,1,204707,241626,0.01,-0.85,9.96,-0.03,-0.01,-0.00,30.93
8847189,1789,1,203716,239783,0.02,-0.84,9.96,-0.03,-0.01,-0.01,30.93
8887192,1791,1,203288,239227,0.03,-0.84,9.94,-0.03,-0.01,-0.00,30.93
8927188,1799,1,203175,238974,0.01,-0.84,9.96,-0.03,-0.01,-0.00,30.93
8967192,1798,1,203183,239037,0.01,-0.83,9.96,-0.03,-0.01,-0.01,30.93
9007189,1803,1,203185,239209,0.00,-0.82,9.95,-0.03,-0.01,-0.01,30.93
9047192,1805,1,203394,239839,0.01,-0.82,9.93,-0.03,-0.01,-0.00,30.93
9087188,1806,1,203644,239999,0.01,-0.83,9.95,-0.03,-0.01,-0.01,30.93
9127192,1808,1,203623,240164,0.00,-0.85,9.93,-0.03,-0.01,-0.01,30.93
9167189,1802,1,203574,240337,0.01,-0.83,9.96,-0.03,-0.01,-0.00,30.93
9207192,1812,1,203752,240469,0.01,-0.82,9.94,-0.03,-0.01,-0.00,30.93
9247188,1813,1,203745,240702,0.00,-0.83,9.95,-0.03,-0.01,-0.01,30.93
9287192,1808,1,203914,240976,0.03,-0.83,9.94,-0.03,-0.01,-0.00,30.93
9327188,1814,1,203974,241245,0.02,-0.83,9.95,-0.03,-0.01,-0.00,30.93
9367192,1815,1,204119,241509,0.00,-0.80,9.96,-0.03,-0.01,-0.01,30.93
9406188,1819,1,204266,241777,0.02,-0.84,9.96,-0.03,-0.01,-0.00,30.93
9446192,1825,1,204392,241948,0.01,-0.82,9.93,-0.03,-0.01,-0.00,30.93
9486189,1830,1,204361,241978,0.03,-0.85,9.97,-0.03,-0.01,-0.00,30.93
9526197,1820,1,204026,240211,0.02,-0.83,9.95,-0.03,-0.01,-0.01,30.93
9566189,1831,1,203454,238863,0.03,-0.83,9.92,-0.03,-0.01,-0.00,30.93
9606192,1824,1,203064,238400,0.01,-0.84,9.94,-0.03,-0.01,-0.00,30.93
9646875,1813,1,203062,238285,0.02,-0.83,9.96,-0.03,-0.01,-0.00,30.73
9687192,1827,1,203044,238266,0.04,-0.84,9.96,-0.03,-0.01,-0.00,30.73
9727188,1821,1,203158,238941,0.05,-0.83,9.97,-0.03,-0.01,-0.00,30.73
9767192,1817,1,203505,239530,0.03,-0.82,9.96,-0.04,-0.01,-0.01,30.73
9807189,1819,1,203528,239685,0.01,-0.81,9.97,-0.03,-0.01,-0.01,30.73
9847192,1819,1,203599,239891,0.02,-0.82,9.97,-0.03,-0.01,-0.01,30.73
9887189,1823,1,203687,240182,0.01,-0.84,9.96,-0.03,-0.01,-0.01,30.73
9927192,1831,1,203843,240621,0.02,-0.83,9.95,-0.03,-0.01,-0.00,30.73
9967189,1825,1,204011,240885,0.03,-0.83,9.94,-0.03,-0.01,-0.00,30.73
10007192,1817,1,204125,241192,0.01,-0.85,9.93,-0.03,-0.01,-0.01,30.73
10047189,1826,1,204162,241706,0.03,-0.81,9.95,-0.03,-0.01,-0.01,30.73
10087192,1819,1,204418,242219,0.02,-0.84,9.95,-0.03,-0.01,-0.01,30.73
10127189,1815,1,204601,242697,0.01,-0.84,9.95,-0.03,-0.01,-0.00,30.73
10167192,1823,1,204781,242898,0.02,-0.81,9.93,-0.03,-0.01,-0.01,30.73
10207196,1825,1,204396,240948,0.02,-0.83,9.94,-0.03,-0.01,-0.01,30.73
10247192,1825,1,203702,239678,0.01,-0.83,9.97,-0.03,-0.01,-0.00,30.73
10287189,1821,1,203524,239551,0.02,-0.84,9.96,-0.03,-0.01,-0.01,30.73
10327192,1837,1,203550,239394,0.02,-0.83,9.97,-0.03,-0.01,-0.01,30.73
10367189,1831,1,203510,239522,0.03,-0.83,9.92,-0.03,-0.01,-0.01,30.73
10407192,1827,1,203641,239826,0.03,-0.83,9.96,-0.03,-0.01,-0.01,30.73
10447189,1825,1,203863,240449,0.01,-0.82,9.97,-0.03,-0.01,-0.01,30.73
10487192,1840,1,203959,240633,0.01,-0.81,9.96,-0.03,-0.01,-0.01,30.73
10527192,1837,1,203926,240820,0.01,-0.83,9.94,-0.03,-0.01,-0.01,30.73
10567192,1829,1,204102,241077,0.04,-0.84,9.96,-0.03,-0.01,-0.01,30.73
10607189,1839,1,204199,241413,0.00,-0.84,9.95,-0.03,-0.01,-0.01,30.73
10647878,1822,1,204226,241807,0.04,-0.83,9.97,-0.03,-0.01,-0.00,30.77
10686189,1826,1,204399,242069,0.02,-0.82,9.96,-0.03,-0.01,-0.01,30.77
10726192,1828,1,204543,242398,0.00,-0.82,9.94,-0.03,-0.01,-0.00,30.77
10766188,1831,1,204611,242747,0.01,-0.84,9.94,-0.03,-0.01,-0.01,30.77
10806192,1837,1,204763,243158,0.03,-0.83,9.98,-0.03,-0.01,-0.00,30.77
10846190,1835,1,204877,243446,0.01,-0.83,9.97,-0.03,-0.01,-0.00,30.77
10886192,1835,1,204938,242804,0.01,-0.85,9.95,-0.03,-0.01,-0.01,30.77
10926192,1835,1,204117,240621,-0.00,-0.83,9.93,-0.04,-0.01,-0.00,30.77
10966206,1829,1,203578,239718,0.02,-0.84,9.95,-0.03,-0.01,-0.00,30.77
11006189,1831,1,203528,239562,0.03,-0.83,9.95,-0.03,-0.01,-0.01,30.77
11046192,1830,1,203473,239429,0.02,-0.81,9.94,-0.03,-0.01,-0.00,30.77
11086189,1824,1,203443,239570,0.03,-0.83,9.96,-0.03,-0.01,-0.01,30.77
11126193,1827,1,203562,239931,0.02,-0.84,9.95,-0.03,-0.01,-0.01,30.77
11166189,1828,1,203729,240397,0.02,-0.82,9.95,-0.03,-0.01,-0.00,30.77
11206192,1826,1,203748,240449,-0.00,-0.82,9.96,-0.03,-0.01,-0.01,30.77
11246205,1824,1,203840,240626,0.03,-0.82,9.96,-0.03,-0.01,-0.01,30.77
11286193,1818,1,203892,240965,0.01,-0.85,9.98,-0.03,-0.01,-0.00,30.77
11326189,1823,1,204010,241336,0.01,-0.84,9.95,-0.03,-0.01,-0.01,30.77
11366192,1819,1,204088,241627,0.02,-0.83,9.96,-0.03,-0.01,-0.00,30.77
11406189,1827,1,204197,242063,0.02,-0.83,9.94,-0.03,-0.01,-0.01,30.77
11446193,1827,1,204388,242437,0.03,-0.82,9.97,-0.03,-0.01,-0.00,30.77
11486189,1829,1,204523,242764,0.02,-0.82,9.96,-0.03,-0.01,-0.01,30.77
11526196,1815,1,204641,243064,0.02,-0.84,9.94,-0.03,-0.01,-0.01,30.77
11566189,1824,1,204848,243466,0.02,-0.81,9.94,-0.03,-0.01,-0.01,30.77
11606192,1827,1,204883,242558,0.01,-0.84,9.96,-0.03,-0.01,-0.00,30.77
11646189,1818,1,203979,240410,0.02,-0.85,9.94,-0.03,-0.01,-0.00,30.77
11686879,1821,1,203460,239691,-0.00,-0.82,9.94,-0.03,-0.01,-0.00,30.79
11727205,1815,1,203326,239546,0.02,-0.82,9.95,-0.03,-0.01,-0.00,30.79
11767193,1826,1,203294,239335,0.02,-0.82,9.97,-0.03,-0.01,-0.00,30.79
11807190,1822,1,203337,239429,0.00,-0.84,9.96,-0.03,-0.01,-0.01,30.79
11847231,1823,1,203340,239805,0.01,-0.83,9.98,-0.03,-0.01,-0.00,30.79
11887189,1823,1,203446,239999,0.00,-0.82,9.97,-0.03,-0.01,-0.01,30.79
11927192,1826,1,203574,240195,0.04,-0.85,9.94,-0.03,-0.01,-0.01,30.79
11967189,1817,1,203541,240266,0.03,-0.81,9.93,-0.04,-0.01,-0.00,30.79
12007193,1828,1,203669,240583,0.01,-0.83,9.96,-0.03,-0.01,-0.00,30.79
12047231,1818,1,203789,240916,0.02,-0.84,9.96,-0.03,-0.01,-0.01,30.79
12085192,1844,1,203985,241280,0.03,-0.82,9.94,-0.03,-0.01,-0.01,30.79
12125192,1840,1,204096,241592,0.00,-0.84,9.96,-0.03,-0.01,-0.00,30.79
12165192,1840,1,204146,241797,0.01,-0.83,9.96,-0.03,-0.01,-0.00,30.79
12205189,1839,1,204402,242261,0.01,-0.81,9.93,-0.03,-0.01,-0.01,30.79
12245192,1840,1,204574,242864,0.03,-0.85,9.97,-0.03,-0.01,-0.01,30.79
12285192,1840,1,204666,243137,0.02,-0.83,9.96,-0.03,-0.01,-0.01,30.79
12325192,1845,1,204791,242435,0.02,-0.84,9.96,-0.03,-0.01,-0.01,30.79
12365189,1857,1,203983,240136,0.02,-0.82,9.96,-0.03,-0.01,-0.00,30.79
12405193,1847,1,203538,239443,0.02,-0.83,9.94,-0.03,-0.01,-0.00,30.79
12445189,1861,1,203402,239306,0.02,-0.82,9.93,-0.03,-0.01,-0.00,30.79
12486192,1853,1,203472,239340,0.02,-0.83,9.99,-0.03,-0.01,-0.01,30.79
12526196,1858,1,203440,239396,0.03,-0.84,9.95,-0.03,-0.01,-0.00,30.79
12566192,1877,1,203645,240078,0.02,-0.82,9.97,-0.03,-0.01,-0.01,30.79
12606189,1873,1,203837,240520,0.03,-0.83,9.93,-0.03,-0.01,-0.00,30.79
12646192,1885,1,203875,240545,0.01,-0.84,9.96,-0.03,-0.01,-0.01,30.79
12686878,1885,1,204049,240748,0.02,-0.83,9.97,-0.03,-0.01,-0.00,30.67
12725192,1906,1,204092,240896,0.02,-0.83,9.92,-0.03,-0.01,-0.00,30.67
12765189,1917,1,204195,241227,0.02,-0.83,9.94,-0.03,-0.01,-0.01,30.67
12805193,1917,1,204296,241572,0.01,-0.83,9.97,-0.03,-0.01,-0.00,30.67
12845189,1910,1,204423,241762,0.03,-0.85,9.93,-0.03,-0.01,-0.00,30.67
12885192,1906,1,204547,242036,0.04,-0.81,9.94,-0.03,-0.01,-0.01,30.67
12925189,1913,1,204652,242442,0.03,-0.84,9.96,-0.03,-0.01,-0.00,30.67
12965192,1905,1,204801,242851,0.03,-0.82,9.96,-0.03,-0.01,-0.01,30.67
13005192,1917,1,204993,242839,0.03,-0.82,9.94,-0.03,-0.01,-0.00,30.67
13045192,1912,1,204360,240782,0.01,-0.81,9.93,-0.03,-0.01,-0.00,30.67
13085189,1904,1,203824,239946,0.01,-0.83,9.96,-0.03,-0.01,-0.01,30.67
13125192,1904,1,203646,239812,0.03,-0.82,9.95,-0.03,-0.01,-0.01,30.67
13165192,1897,1,203596,239765,0.03,-0.84,9.95,-0.03,-0.01,-0.01,30.67
13205192,1889,1,203728,239953,0.02,-0.81,9.96,-0.03,-0.01,-0.01,30.67
13245189,1887,1,203773,240457,0.02,-0.83,9.96,-0.03,-0.01,-0.01,30.67
13285193,1869,1,204023,240861,0.04,-0.83,9.96,-0.03,-0.01,-0.01,30.67
13325189,1870,1,204073,240953,0.02,-0.83,9.95,-0.03,-0.01,-0.00,30.67
13365193,1860,1,204103,241191,0.03,-0.83,9.94,-0.03,-0.01,-0.00,30.67
13405190,1850,1,204228,241612,0.03,-0.83,9.97,-0.03,-0.01,-0.01,30.67
13445193,1841,1,204372,242026,0.03,-0.85,9.96,-0.03,-0.01,-0.01,30.67
13486225,1840,1,204516,242477,0.01,-0.83,9.96,-0.03,-0.01,-0.01,30.67
13526197,1831,1,204674,242910,0.02,-0.84,9.95,-0.03,-0.01,-0.00,30.67
13566189,1817,1,204800,243368,0.02,-0.84,9.97,-0.03,-0.01,-0.00,30.67
13606193,1811,1,204966,243821,0.00,-0.82,9.96,-0.03,-0.01,-0.00,30.67
13646188,1799,1,205100,244136,0.02,-0.82,9.95,-0.03,-0.01,-0.01,30.67
13686205,1805,1,205073,243100,0.00,-0.84,9.96,-0.03,-0.01,-0.01,30.67
13726875,1792,1,204146,240778,-0.00,-0.82,9.97,-0.03,-0.01,-0.01,30.81
13765207,1804,1,203622,240060,0.01,-0.83,9.95,-0.03,-0.01,-0.00,30.81
13805189,1808,1,203519,239911,0.03,-0.82,9.95,-0.03,-0.01,-0.00,30.81
13845192,1806,1,203514,239992,0.02,-0.82,9.97,-0.03,-0.01,-0.00,30.81
13885189,1799,1,203560,240118,0.01,-0.82,9.95,-0.03,-0.01,-0.00,30.81
13925192,1793,1,203672,240541,0.02,-0.83,9.95,-0.03,-0.01,-0.00,30.81
13965189,1789,1,203834,240916,0.01,-0.84,9.98,-0.03,-0.01,-0.01,30.81
14005193,1809,1,203902,241092,0.02,-0.84,9.94,-0.03,-0.01,-0.01,30.81
14045189,1793,1,203989,241270,0.01,-0.83,9.94,-0.03,-0.01,-0.00,30.81
14085192,1799,1,204054,241397,0.01,-0.84,9.98,-0.03,-0.01,-0.00,30.81
14125189,1795,1,204118,241712,0.03,-0.83,9.94,-0.03,-0.01,-0.01,30.81
14165192,1804,1,204204,242032,0.02,-0.83,9.97,-0.03,-0.01,-0.00,30.81
14205189,1785,1,204355,242307,0.01,-0.84,9.95,-0.03,-0.01,-0.00,30.81
14245192,1796,1,204491,242830,0.03,-0.83,9.97,-0.03,-0.01,-0.00,30.81
14285189,1799,1,204682,243368,0.00,-0.81,9.99,-0.03,-0.01,-0.01,30.81
14325192,1798,1,204865,243900,0.01,-0.83,9.96,-0.03,-0.01,-0.01,30.81
14365189,1805,1,204949,243334,-0.00,-0.83,9.95,-0.03,-0.01,-0.01,30.81
14405206,1795,1,204113,240961,-0.01,-0.83,9.94,-0.03,-0.01,-0.01,30.81
14445206,1795,1,203546,240067,0.05,-0.85,9.99,-0.03,-0.01,-0.01,30.81
14485193,1798,1,203387,239862,0.00,-0.82,9.96,-0.03,-0.01,-0.00,30.81
14525197,1803,1,203382,239714,0.03,-0.81,9.97,-0.03,-0.01,-0.00,30.81
14565192,1797,1,203330,239704,0.02,-0.84,9.94,-0.03,-0.01,-0.00,30.81
14605189,1804,1,203401,239961,0.02,-0.81,9.93,-0.03,-0.01,-0.00,30.81
14645193,1807,1,203563,240357,0.03,-0.84,9.96,-0.03,-0.01,-0.00,30.81
14685190,1808,1,203657,240546,0.00,-0.82,9.94,-0.03,-0.01,-0.01,30.81
14725192,1819,1,203722,240728,0.01,-0.83,9.98,-0.03,-0.01,-0.00,30.81
14765876,1794,1,203841,240853,0.02,-0.83,9.95,-0.04,-0.01,-0.00,30.97
14806193,1803,1,203849,241022,0.02,-0.82,9.97,-0.03,-0.01,-0.01,30.97
14846190,1803,1,203932,241170,0.01,-0.83,9.94,-0.03,-0.01,-0.00,30.97
14886193,1803,1,203989,241287,0.01,-0.82,9.94,-0.03,-0.01,-0.00,30.97
14926190,1807,1,204106,241587,0.01,-0.84,9.96,-0.03,-0.01,-0.00,30.97
14966193,1809,1,204209,241801,0.03,-0.83,9.96,-0.03,-0.01,-0.01,30.97
15006193,1808,1,204326,242209,0.02,-0.82,9.94,-0.03,-0.01,-0.00,30.97
15046193,1815,1,204436,242056,0.02,-0.82,9.95,-0.03,-0.01,-0.00,30.97
15086190,1818,1,203973,240331,0.02,-0.83,9.96,-0.03,-0.01,-0.00,30.97
15126205,1818,1,203381,239156,0.01,-0.83,9.97,-0.03,-0.01,-0.01,30.97
15166190,1819,1,203132,238594,0.04,-0.84,9.95,-0.03,-0.01,-0.00,30.97
15206193,1815,1,203009,238194,0.01,-0.83,9.96,-0.03,-0.01,-0.00,30.97
15246189,1814,1,202971,237984,0.03,-0.84,9.96,-0.03,-0.01,-0.00,30.97
15286192,1819,1,203014,238426,0.03,-0.82,9.95,-0.03,-0.01,-0.01,30.97
15326222,1822,1,203304,239063,0.01,-0.81,9.97,-0.03,-0.01,-0.00,30.97
15366192,1819,1,203420,239223,0.02,-0.83,9.94,-0.03,-0.01,-0.00,30.97
15406189,1829,1,203491,239452,0.03,-0.83,9.94,-0.03,-0.01,-0.01,30.97
15446193,1822,1,203542,239744,0.03,-0.84,9.96,-0.03,-0.01,-0.01,30.97
15486190,1831,1,203640,240027,-0.01,-0.82,9.96,-0.03,-0.01,-0.01,30.97
15526237,1835,1,203748,240176,0.03,-0.83,9.96,-0.03,-0.01,-0.00,30.97
15566190,1828,1,203828,240377,0.01,-0.82,9.94,-0.03,-0.01,-0.01,30.97
15606193,1825,1,203891,240604,0.03,-0.83,9.95,-0.03,-0.01,-0.01,30.97
15646193,1825,1,204003,240801,0.00,-0.83,9.95,-0.03,-0.01,-0.01,30.97
15686192,1827,1,204058,240946,0.02,-0.83,9.96,-0.03,-0.01,-0.01,30.97
15726190,1825,1,204096,240610,0.03,-0.81,9.95,-0.03,-0.01,-0.01,30.97
15766878,1826,1,203586,238948,0.04,-0.83,9.96,-0.03,-0.01,-0.00,30.77
15805189,1831,1,203003,237469,0.00,-0.81,9.98,-0.03,-0.01,-0.01,30.77
15845193,1838,1,202615,236549,0.02,-0.83,9.94,-0.03,-0.01,-0.01,30.77
15885193,1833,1,202462,236429,0.01,-0.85,9.94,-0.03,-0.01,-0.01,30.77
15925192,1828,1,202525,236729,0.03,-0.84,9.97,-0.03,-0.01,-0.00,30.77
15965189,1825,1,202717,237381,0.01,-0.82,9.95,-0.03,-0.01,-0.01,30.77
16005192,1831,1,202959,237862,0.01,-0.85,9.95,-0.03,-0.01,-0.00,30.77
16045192,1818,1,203071,238137,0.01,-0.81,9.95,-0.03,-0.01,-0.00,30.77
16085192,1834,1,203125,238506,0.04,-0.81,9.96,-0.03,-0.01,-0.00,30.77
16125190,1837,1,203253,238915,0.02,-0.82,9.96,-0.03,-0.01,-0.01,30.77
16165192,1839,1,203373,239203,0.02,-0.83,9.94,-0.03,-0.01,-0.01,30.77
16205193,1831,1,203427,239614,0.02,-0.83,9.95,-0.03,-0.01,-0.01,30.77
16245193,1822,1,203595,240129,0.02,-0.85,9.96,-0.03,-0.01,-0.01,30.77
16285192,1823,1,203763,240629,0.02,-0.81,9.94,-0.03,-0.01,-0.00,30.77
16325193,1825,1,203918,241115,0.02,-0.83,9.94,-0.03,-0.01,-0.01,30.77
16365193,1821,1,204075,241365,0.03,-0.83,9.93,-0.03,-0.01,-0.01,30.77
16405192,1831,1,203879,239939,0.02,-0.82,9.94,-0.03,-0.01,-0.00,30.77
16445192,1823,1,203201,238716,0.01,-0.82,9.98,-0.03,-0.01,-0.00,30.77
16485192,1825,1,202907,238236,0.03,-0.83,9.96,-0.03,-0.01,-0.00,30.77
16525200,1823,1,202838,237952,0.02,-0.86,9.98,-0.03,-0.01,-0.01,30.77
16565193,1824,1,202738,237843,0.03,-0.81,9.96,-0.03,-0.01,-0.00,30.77
16605189,1825,1,202818,238193,0.02,-0.82,9.97,-0.03,-0.01,-0.00,30.77
16645193,1823,1,203050,238929,0.03,-0.83,9.98,-0.03,-0.01,-0.00,30.77
16685192,1828,1,203219,239296,0.01,-0.83,9.96,-0.03,-0.01,-0.00,30.77
16725193,1819,1,203284,239492,0.03,-0.84,9.95,-0.03,-0.01,-0.00,30.77
16765189,1822,1,203356,239683,0.03,-0.82,9.95,-0.03,-0.01,-0.00,30.77
16805879,1813,1,203449,240061,0.03,-0.82,9.92,-0.03,-0.01,-0.01,30.87
16846193,1821,1,203538,240426,0.01,-0.81,9.95,-0.03,-0.01,-0.00,30.87
16886192,1807,1,203648,240708,0.00,-0.84,9.96,-0.03,-0.01,-0.00,30.87
16926189,1821,1,203780,240971,0.02,-0.83,9.96,-0.03,-0.01,-0.01,30.87
16966196,1825,1,203903,241379,0.02,-0.82,9.95,-0.03,-0.01,-0.01,30.87
17006190,1818,1,204067,241856,0.00,-0.83,9.97,-0.03,-0.01,-0.00,30.87
17046192,1823,1,204223,241765,0.01,-0.82,9.96,-0.03,-0.01,-0.00,30.87
17084189,1840,1,203691,239866,0.01,-0.82,9.96,-0.03,-0.01,-0.00,30.87
17124193,1835,1,203080,238770,0.03,-0.83,9.95,-0.03,-0.01,-0.00,30.87
17164208,1837,1,202851,238258,0.04,-0.82,9.97,-0.03,-0.01,-0.00,30.87
17204192,1840,1,202677,237809,0.03,-0.84,9.96,-0.03,-0.01,-0.00,30.87
17244189,1838,1,202629,237648,0.02,-0.83,9.93,-0.03,-0.01,-0.01,30.87
17284192,1840,1,202653,237951,-0.00,-0.83,9.96,-0.03,-0.01,-0.00,30.87
17324205,1835,1,202944,238626,0.03,-0.82,9.96,-0.03,-0.01,-0.00,30.87
17364192,1839,1,203096,238932,0.02,-0.82,9.95,-0.03,-0.01,-0.00,30.87
17404189,1840,1,203166,239169,0.01,-0.81,9.95,-0.03,-0.01,-0.00,30.87
17444192,1832,1,203331,239388,0.03,-0.81,9.96,-0.03,-0.01,-0.01,30.87
17484190,1838,1,203450,239733,0.02,-0.84,9.94,-0.03,-0.01,-0.00,30.87
17524206,1838,1,203561,240002,-0.00,-0.83,9.95,-0.03,-0.01,-0.01,30.87
17564205,1826,1,203646,240160,0.03,-0.83,9.95,-0.03,-0.01,-0.00,30.87
17604192,1837,1,203664,240462,0.03,-0.83,9.96,-0.03,-0.01,-0.00,30.87
17644189,1831,1,203805,240860,0.00,-0.85,9.96,-0.03,-0.01,-0.01,30.87
17684192,1825,1,203961,241263,0.03,-0.81,9.97,-0.03,-0.01,-0.00,30.87
17724190,1840,1,204104,241642,0.01,-0.84,9.97,-0.03,-0.01,-0.01,30.87
17764193,1829,1,203996,240352,0.02,-0.83,9.98,-0.03,-0.01,-0.00,30.87
17804189,1823,1,203237,238788,0.00,-0.82,9.95,-0.03,-0.01,-0.00,30.87
17844879,1818,1,202837,237968,0.03,-0.84,9.96,-0.03,-0.01,-0.00,30.67
17885189,1827,1,202643,237439,0.03,-0.83,9.95,-0.03,-0.01,-0.00,30.67
17925193,1821,1,202556,237154,0.04,-0.83,9.95,-0.03,-0.01,-0.01,30.67
17965190,1822,1,202536,237377,0.03,-0.82,9.94,-0.03,-0.01,-0.00,30.67
18005193,1831,1,202758,238153,0.01,-0.83,9.94,-0.03,-0.01,-0.01,30.67
18045192,1827,1,202965,238577,0.00,-0.81,9.96,-0.03,-0.01,-0.00,30.67
18085192,1820,1,203086,238834,0.01,-0.83,9.96,-0.03,-0.01,-0.01,30.67
18125190,1823,1,203085,239081,0.04,-0.83,9.94,-0.03,-0.01,-0.01,30.67
18165193,1824,1,203172,239281,0.03,-0.82,9.96,-0.03,-0.01,-0.00,30.67
18205189,1821,1,203279,239415,0.02,-0.82,9.94,-0.03,-0.01,-0.01,30.67
18245192,1818,1,203385,239667,0.06,-0.82,9.94,-0.03,-0.01,-0.01,30.67
18285189,1811,1,203471,239937,0.02,-0.84,9.99,-0.03,-0.01,-0.00,30.67
18325192,1824,1,203539,240245,0.01,-0.82,9.93,-0.03,-0.01,-0.00,30.67
18365190,1823,1,203691,240556,0.04,-0.82,9.97,-0.03,-0.01,-0.01,30.67
18405193,1822,1,203820,240872,0.03,-0.83,9.96,-0.03,-0.01,-0.01,30.67
18445192,1822,1,203936,240974,0.02,-0.82,9.96,-0.03,-0.01,-0.00,30.67
18485193,1821,1,203565,239322,0.03,-0.84,9.95,-0.03,-0.01,-0.00,30.67
18525198,1815,1,202950,237937,0.00,-0.83,9.95,-0.03,-0.01,-0.01,30.67
18565193,1827,1,202543,237028,0.03,-0.84,9.95,-0.03,-0.01,-0.01,30.67
18605223,1824,1,202328,236038,0.03,-0.81,9.96,-0.03,-0.01,-0.01,30.67
18645193,1818,1,202106,235661,0.03,-0.83,9.97,-0.03,-0.01,-0.00,30.67
18685190,1822,1,202194,236476,0.02,-0.82,9.94,-0.03,-0.01,-0.01,30.67
18725192,1820,1,202624,237605,0.03,-0.82,9.98,-0.04,-0.01,-0.00,30.67
18765190,1825,1,202857,238089,0.02,-0.84,9.95,-0.03,-0.01,-0.00,30.67
18805225,1821,1,202958,238381,0.01,-0.83,9.97,-0.03,-0.01,-0.01,30.67
18845876,1824,1,203011,238596,0.02,-0.83,9.95,-0.03,-0.01,-0.00,30.77
18884192,1826,1,203103,238941,0.04,-0.83,9.94,-0.03,-0.01,-0.00,30.77
18924189,1831,1,203226,239298,0.03,-0.81,9.96,-0.03,-0.01,-0.00,30.77
18964192,1821,1,203403,239675,0.04,-0.82,9.94,-0.03,-0.01,-0.01,30.77
19004190,1825,1,203523,240168,0.02,-0.84,9.95,-0.03,-0.01,-0.01,30.77
19044193,1824,1,203655,240628,0.01,-0.83,9.95,-0.03,-0.01,-0.01,30.77
19084190,1821,1,203902,241225,0.04,-0.83,9.95,-0.03,-0.01,-0.01,30.77
19124192,1823,1,204026,241146,0.03,-0.82,9.96,-0.03,-0.01,-0.00,30.77
19164190,1826,1,203518,239275,0.03,-0.84,9.95,-0.03,-0.01,-0.01,30.77
19204193,1830,1,202961,238403,0.02,-0.83,9.97,-0.03,-0.01,-0.01,30.77
19244189,1839,1,202791,238105,0.04,-0.83,9.96,-0.03,-0.01,-0.01,30.77
19284192,1837,1,202812,237976,0.03,-0.81,9.96,-0.03,-0.01,-0.00,30.77
19324189,1834,1,202788,238051,0.02,-0.84,9.94,-0.03,-0.01,-0.01,30.77
19364192,1840,1,202852,238559,0.02,-0.81,9.97,-0.03,-0.01,-0.01,30.77
19404190,1842,1,203149,239158,0.02,-0.83,9.94,-0.03,-0.01,-0.01,30.77
19444193,1835,1,203228,239394,0.01,-0.84,9.96,-0.03,-0.01,-0.01,30.77
19484190,1835,1,203258,239645,0.02,-0.82,9.97,-0.03,-0.01,-0.01,30.77
19524205,1840,1,203450,240024,0.02,-0.82,9.95,-0.03,-0.01,-0.00,30.77
19564189,1839,1,203583,240361,0.01,-0.82,9.96,-0.03,-0.01,-0.00,30.77
19604193,1837,1,203715,240701,0.04,-0.83,9.97,-0.03,-0.01,-0.00,30.77
19644189,1824,1,203815,241048,0.02,-0.83,9.95,-0.03,-0.01,-0.01,30.77
19684193,1833,1,203966,241458,-0.00,-0.82,9.95,-0.03,-0.01,-0.00,30.77
19724205,1823,1,204150,241979,0.02,-0.82,9.96,-0.03,-0.01,-0.00,30.77
19764193,1829,1,204277,242405,0.02,-0.82,9.98,-0.03,-0.01,-0.01,30.77
19804189,1825,1,204364,242157,0.03,-0.84,9.96,-0.03,-0.01,-0.01,30.77
19844193,1833,1,203701,239914,0.02,-0.83,9.95,-0.03,-0.01,-0.00,30.77
19884876,1826,1,203058,238730,0.01,-0.80,9.95,-0.03,-0.01,-0.00,30.77
19925192,1833,1,202754,238237,0.01,-0.83,9.93,-0.03,-0.01,-0.01,30.77
19965192,1824,1,202648,237983,0.02,-0.82,9.93,-0.03,-0.01,-0.01,30.77
20005193,1827,1,202591,237872,0.03,-0.83,9.95,-0.03,-0.01,-0.00,30.77
20045190,1820,1,202565,238167,0.03,-0.83,9.96,-0.03,-0.01,-0.00,30.77
20085193,1823,1,202798,238747,0.02,-0.83,9.96,-0.03,-0.01,-0.01,30.77
20125189,1825,1,202958,239003,0.01,-0.83,9.95,-0.03,-0.01,-0.00,30.77
20165192,1831,1,203052,239226,-0.00,-0.82,9.96,-0.03,-0.01,-0.00,30.77
20205205,1818,1,203143,239504,0.02,-0.82,9.98,-0.03,-0.01,-0.01,30.77
20245199,1819,1,203242,239921,0.02,-0.82,9.91,-0.03,-0.01,-0.01,30.77
20285190,1814,1,203416,240356,0.02,-0.80,9.94,-0.03,-0.01,-0.00,30.77
20325192,1824,1,203562,240725,0.01,-0.84,9.94,-0.03,-0.01,-0.01,30.77
20365190,1817,1,203666,241150,-0.00,-0.83,9.96,-0.03,-0.01,-0.00,30.77
20405207,1823,1,203852,241616,0.01,-0.82,9.97,-0.03,-0.01,-0.01,30.77
20445216,1839,1,203966,242011,0.01,-0.82,9.96,-0.03,-0.01,-0.00,30.77
20485192,1820,1,204134,242335,0.01,-0.83,9.98,-0.03,-0.01,-0.01,30.77
20525198,1824,1,204175,241460,0.03,-0.83,9.96,-0.03,-0.01,-0.00,30.77
20565192,1819,1,203329,239457,0.02,-0.84,9.96,-0.03,-0.01,-0.01,30.77
20605189,1822,1,202921,238650,0.00,-0.83,9.94,-0.03,-0.01,-0.00,30.77
20643192,1843,1,202692,238228,-0.00,-0.84,9.94,-0.03,-0.01,-0.00,30.77
20683205,1840,1,202585,237991,0.02,-0.85,9.96,-0.03,-0.01,-0.00,30.77
20723193,1833,1,202540,238002,0.03,-0.82,9.94,-0.03,-0.01,-0.00,30.77
20763190,1829,1,202666,238412,0.03,-0.82,9.98,-0.03,-0.01,-0.01,30.77
20803192,1835,1,202877,238739,0.02,-0.81,9.96,-0.03,-0.01,-0.00,30.77
20843190,1828,1,203017,238975,0.04,-0.83,9.92,-0.03,-0.01,-0.01,30.77
20883193,1831,1,203063,239172,0.03,-0.83,9.98,-0.03,-0.01,-0.01,30.77
20923879,1813,1,203142,239378,0.01,-0.84,9.96,-0.03,-0.01,-0.01,30.79
20964192,1829,1,203242,239608,0.02,-0.83,9.97,-0.03,-0.01,-0.01,30.79
21004193,1824,1,203390,240066,0.02,-0.83,9.97,-0.03,-0.01,-0.01,30.79
21044193,1828,1,203512,240345,0.02,-0.81,9.95,-0.03,-0.01,-0.01,30.79
21084192,1824,1,203623,240512,0.04,-0.82,9.96,-0.03,-0.01,-0.00,30.79
21124193,1831,1,203698,240756,0.00,-0.83,9.94,-0.03,-0.01,-0.00,30.79
21164189,1826,1,203824,241160,0.03,-0.82,9.95,-0.03,-0.01,-0.01,30.79
21204193,1820,1,203991,241706,0.03,-0.83,9.95,-0.04,-0.01,-0.00,30.79
21244190,1823,1,204170,241441,0.03,-0.81,9.96,-0.04,-0.01,-0.01,30.79
21284192,1819,1,203390,239313,0.01,-0.83,9.93,-0.03,-0.01,-0.01,30.79
21324192,1817,1,202960,238495,0.02,-0.82,9.95,-0.03,-0.01,-0.00,30.79
21364192,1813,1,202763,238103,0.02,-0.85,9.97,-0.03,-0.01,-0.00,30.79
21404189,1815,1,202663,237893,0.01,-0.83,9.95,-0.03,-0.01,-0.01,30.79
21444192,1814,1,202637,237816,0.02,-0.84,9.97,-0.03,-0.01,-0.01,30.79
21484192,1811,1,202699,238211,0.00,-0.83,9.95,-0.03,-0.01,-0.00,30.79
21524199,1813,1,202952,238592,0.02,-0.84,9.96,-0.03,-0.01,-0.01,30.79
21564192,1814,1,203016,238719,0.03,-0.84,9.94,-0.03,-0.01,-0.00,30.79
21604192,1820,1,203074,238849,0.03,-0.81,9.95,-0.03,-0.01,-0.00,30.79
21644189,1823,1,203137,239132,0.02,-0.81,9.96,-0.03,-0.01,-0.01,30.79
21684193,1818,1,203250,239405,0.02,-0.82,9.95,-0.03,-0.01,-0.00,30.79
21724189,1819,1,203394,239759,0.03,-0.81,9.95,-0.03,-0.01,-0.00,30.79
21764192,1808,1,203514,240073,0.03,-0.83,9.98,-0.03,-0.01,-0.01,30.79
21804192,1820,1,203625,240524,0.03,-0.84,9.93,-0.03,-0.01,-0.00,30.79
21844192,1829,1,203797,240996,0.04,-0.83,9.97,-0.03,-0.01,-0.01,30.79
21884205,1823,1,203970,241540,0.02,-0.83,9.97,-0.03,-0.01,-0.01,30.79
21924879,1823,1,204074,241450,0.03,-0.83,9.97,-0.03,-0.01,-0.01,30.93
21963192,1828,1,203469,239472,0.01,-0.83,9.96,-0.03,-0.01,-0.01,30.93
22003192,1823,1,202882,238490,0.01,-0.84,9.97,-0.03,-0.01,-0.00,30.93
22043190,1824,1,202637,238106,0.02,-0.82,9.95,-0.03,-0.01,-0.00,30.93
22083198,1824,1,202623,238008,0.02,-0.84,9.99,-0.03,-0.01,-0.01,30.93
22123190,1830,1,202611,238060,0.03,-0.83,9.95,-0.03,-0.01,-0.01,30.93
22163192,1830,1,202758,238729,0.03,-0.83,9.95,-0.03,-0.01,-0.00,30.93
22203189,1835,1,203044,239317,0.01,-0.82,9.97,-0.03,-0.01,-0.00,30.93
22243192,1831,1,203166,239596,0.03,-0.84,9.96,-0.03,-0.01,-0.00,30.93
22283189,1823,1,203220,239857,0.01,-0.81,9.96,-0.03,-0.01,-0.01,30.93
22323192,1827,1,203347,240157,0.01,-0.81,9.96,-0.03,-0.01,-0.01,30.93
22363192,1834,1,203470,240499,0.00,-0.82,9.94,-0.03,-0.01,-0.01,30.93
22403193,1825,1,203591,240910,0.04,-0.82,9.94,-0.03,-0.01,-0.00,30.93
22443189,1821,1,203748,241270,0.02,-0.84,9.95,-0.03,-0.01,-0.01,30.93
22483193,1819,1,203928,241729,0.03,-0.82,9.97,-0.03,-0.01,-0.00,30.93
22523190,1813,1,204066,242204,0.01,-0.83,9.96,-0.03,-0.01,-0.01,30.93
22563192,1821,1,204257,242618,0.02,-0.83,9.94,-0.03,-0.01,-0.01,30.93
22603192,1817,1,204289,241895,0.01,-0.81,9.95,-0.03,-0.01,-0.01,30.93
22643192,1813,1,203429,239790,0.00,-0.82,9.96,-0.03,-0.01,-0.00,30.93
22683189,1818,1,202955,239119,0.02,-0.82,9.94,-0.03,-0.01,-0.00,30.93
22723192,1828,1,202861,239019,0.02,-0.83,9.97,-0.03,-0.01,-0.01,30.93
22763192,1818,1,202823,238964,0.02,-0.82,9.97,-0.03,-0.01,-0.01,30.93
22803192,1828,1,202865,239115,0.01,-0.81,9.95,-0.03,-0.01,-0.01,30.93
22843192,1825,1,202964,239545,0.02,-0.83,9.94,-0.03,-0.01,-0.01,30.93
22883192,1826,1,203185,239974,0.01,-0.82,9.91,-0.03,-0.01,-0.01,30.93
22923192,1824,1,203255,240141,0.02,-0.84,9.95,-0.03,-0.01,-0.01,30.93
22963879,1821,1,203381,240301,0.00,-0.82,9.96,-0.03,-0.01,-0.01,30.87
23004190,1814,1,203454,240507,0.02,-0.83,9.97,-0.03,-0.01,-0.01,30.87
23044192,1825,1,203533,240838,0.02,-0.84,9.95,-0.03,-0.01,-0.00,30.87
23084190,1821,1,203671,241278,0.03,-0.81,9.94,-0.03,-0.01,-0.01,30.87
23124192,1811,1,203841,241661,0.01,-0.82,9.94,-0.03,-0.01,-0.00,30.87
23164190,1824,1,204019,242060,0.03,-0.82,9.95,-0.03,-0.01,-0.00,30.87
23204192,1827,1,204151,242526,0.02,-0.83,9.96,-0.03,-0.01,-0.01,30.87
23244192,1827,1,204372,242954,0.03,-0.81,9.96,-0.03,-0.01,-0.01,30.87
23284192,1825,1,204461,242529,0.02,-0.83,9.98,-0.03,-0.01,-0.00,30.87
23324189,1824,1,203694,240145,0.04,-0.84,9.96,-0.03,-0.01,-0.01,30.87
23364193,1819,1,203103,239232,0.05,-0.81,9.96,-0.03,-0.01,-0.00,30.87
23404189,1822,1,203002,239163,0.02,-0.84,9.96,-0.03,-0.01,-0.01,30.87
23444192,1823,1,202975,239096,0.01,-0.81,9.95,-0.03,-0.01,-0.00,30.87
23484190,1818,1,202987,239124,0.01,-0.83,9.93,-0.03,-0.01,-0.00,30.87
23523195,1831,1,203001,239493,0.01,-0.81,9.98,-0.04,-0.01,-0.00,30.87
23563190,1825,1,203276,239964,0.01,-0.82,9.96,-0.03,-0.01,-0.00,30.87
23603192,1823,1,203382,240155,0.02,-0.83,9.93,-0.03,-0.01,-0.01,30.87
23643189,1825,1,203400,240324,0.02,-0.84,9.93,-0.03,-0.01,-0.00,30.87
23683192,1833,1,203487,240565,0.00,-0.83,9.94,-0.03,-0.01,-0.00,30.87
23723216,1829,1,203605,240803,0.02,-0.83,9.96,-0.03,-0.01,-0.00,30.87
23763193,1830,1,203683,241043,0.01,-0.81,9.96,-0.03,-0.01,-0.00,30.87
23803190,1821,1,203792,241315,0.01,-0.82,9.96,-0.03,-0.01,-0.01,30.87
23843192,1828,1,203884,241661,0.01,-0.83,9.94,-0.03,-0.01,-0.00,30.87
23883193,1834,1,204081,241984,0.03,-0.84,9.94,-0.03,-0.01,-0.00,30.87
23923208,1818,1,204196,242348,0.02,-0.84,9.96,-0.03,-0.01,-0.00,30.87
23963876,1823,1,204370,242664,0.01,-0.83,9.95,-0.04,-0.01,-0.01,30.73
24004192,1823,1,204114,240885,0.01,-0.83,9.96,-0.03,-0.01,-0.00,30.73
24044189,1828,1,203262,239309,0.01,-0.83,9.96,-0.03,-0.01,-0.01,30.73
24084192,1830,1,202943,238678,0.03,-0.83,9.94,-0.03,-0.01,-0.01,30.73
24124192,1823,1,202817,238387,0.01,-0.81,9.96,-0.03,-0.01,-0.00,30.73
24164192,1827,1,202715,238137,0.01,-0.82,9.95,-0.03,-0.01,-0.00,30.73
24204189,1824,1,202718,238235,0.01,-0.82,9.96,-0.03,-0.01,-0.00,30.73
24244192,1817,1,202914,238818,0.00,-0.82,9.94,-0.03,-0.01,-0.00,30.73
24284190,1822,1,203049,239176,0.01,-0.82,9.94,-0.03,-0.01,-0.00,30.73
24324192,1810,1,203173,239271,0.00,-0.81,9.95,-0.03,-0.01,-0.00,30.73
24364190,1819,1,203203,239428,0.00,-0.83,9.94,-0.03,-0.01,-0.00,30.73
24404193,1826,1,203295,239572,0.03,-0.83,9.96,-0.03,-0.01,-0.01,30.73
24444192,1821,1,203362,239781,0.04,-0.83,9.96,-0.03,-0.01,-0.01,30.73
24484192,1819,1,203481,240057,0.03,-0.82,9.97,-0.03,-0.01,-0.01,30.73
24524206,1822,1,203524,240409,0.03,-0.82,9.96,-0.03,-0.01,-0.01,30.73
24563192,1822,1,203692,240825,0.03,-0.80,9.96,-0.03,-0.01,-0.01,30.73
24603192,1811,1,203811,241142,0.04,-0.84,9.94,-0.03,-0.01,-0.01,30.73
24643192,1813,1,203982,241535,0.01,-0.84,9.96,-0.03,-0.01,-0.00,30.73
24683190,1818,1,203803,240042,0.01,-0.82,9.96,-0.03,-0.01,-0.00,30.73
24723192,1814,1,203069,238630,0.04,-0.83,9.95,-0.03,-0.01,-0.01,30.73
24763192,1815,1,202733,238059,0.02,-0.81,9.94,-0.03,-0.01,-0.01,30.73
24803192,1834,1,202677,237940,0.04,-0.84,9.97,-0.03,-0.01,-0.01,30.73
24843193,1823,1,202621,237838,0.02,-0.83,9.94,-0.03,-0.01,-0.00,30.73
24883192,1815,1,202680,238193,0.04,-0.83,9.94,-0.03,-0.01,-0.00,30.73
24923190,1821,1,202931,238953,0.00,-0.81,9.97,-0.03,-0.01,-0.01,30.73
24963192,1821,1,203104,239345,0.03,-0.82,9.94,-0.03,-0.01,-0.01,30.73
25003879,1817,1,203204,239555,0.01,-0.83,9.95,-0.03,-0.01,-0.01,30.63
25044192,1821,1,203304,239833,0.03,-0.84,9.96,-0.03,-0.01,-0.00,30.63
25084190,1822,1,203447,240177,0.02,-0.81,9.95,-0.03,-0.01,-0.01,30.63
25124192,1819,1,203552,240615,0.03,-0.83,9.94,-0.03,-0.01,-0.00,30.63
25164189,1819,1,203682,240992,0.01,-0.83,9.93,-0.03,-0.01,-0.01,30.63
25204192,1823,1,203819,241334,0.03,-0.82,9.95,-0.03,-0.01,-0.00,30.63
25244190,1821,1,203902,241738,0.01,-0.82,9.95,-0.03,-0.01,-0.00,30.63
25284193,1824,1,204115,242225,0.01,-0.83,9.93,-0.03,-0.01,-0.01,30.63
25324192,1819,1,204193,241850,0.02,-0.83,9.97,-0.03,-0.01,-0.00,30.63
25364230,1822,1,203542,239800,0.02,-0.83,9.96,-0.03,-0.01,-0.01,30.63
25402192,1840,1,203028,239020,0.03,-0.81,9.96,-0.03,-0.01,-0.01,30.63
25442192,1843,1,202880,238747,0.01,-0.83,9.93,-0.03,-0.01,-0.00,30.63
25482189,1839,1,202792,238686,0.04,-0.84,9.95,-0.03,-0.01,-0.01,30.63
25522197,1823,1,202789,238712,0.01,-0.86,9.97,-0.03,-0.01,-0.01,30.63
25562193,1823,1,202942,239248,0.02,-0.84,9.95,-0.03,-0.01,-0.01,30.63
25602192,1829,1,203134,239648,0.00,-0.84,9.96,-0.03,-0.01,-0.00,30.63
25642188,1831,1,203222,239774,0.04,-0.82,9.90,-0.03,-0.01,-0.00,30.63
25682192,1834,1,203303,239947,0.02,-0.82,9.96,-0.03,-0.01,-0.00,30.63
25722189,1840,1,203394,240321,0.04,-0.82,9.94,-0.03,-0.01,-0.01,30.63
25762192,1833,1,203534,240564,0.02,-0.83,9.94,-0.03,-0.01,-0.01,30.63
25802189,1828,1,203682,240938,0.01,-0.83,9.93,-0.03,-0.01,-0.00,30.63
25842192,1831,1,203861,241310,0.01,-0.84,9.96,-0.03,-0.01,-0.01,30.63
25882192,1825,1,204076,241817,0.01,-0.82,9.96,-0.03,-0.01,-0.01,30.63
25922192,1822,1,204176,242234,0.03,-0.83,9.95,-0.03,-0.01,-0.00,30.63
25962189,1825,1,204340,242681,0.01,-0.83,9.95,-0.03,-0.01,-0.00,30.63
26002192,1830,1,204367,241607,0.02,-0.81,9.96,-0.03,-0.01,-0.00,30.63
26042876,1815,1,203435,239574,-0.00,-0.81,9.97,-0.03,-0.01,-0.01,30.63
26083207,1821,1,202954,238760,0.02,-0.85,9.93,-0.03,-0.01,-0.00,30.63
26123190,1819,1,202808,238454,0.03,-0.82,9.95,-0.03,-0.01,-0.00,30.63
26163192,1824,1,202699,238282,0.03,-0.82,9.97,-0.03,-0.01,-0.00,30.63
26203189,1824,1,202676,238278,0.02,-0.85,9.97,-0.03,-0.01,-0.00,30.63
26243192,1821,1,202758,238797,0.02,-0.83,9.95,-0.03,-0.01,-0.00,30.63
26283189,1824,1,203022,239245,0.01,-0.84,9.97,-0.03,-0.01,-0.00,30.63
26323192,1815,1,203058,239444,0.01,-0.81,9.96,-0.03,-0.01,-0.01,30.63
26363192,1818,1,203134,239622,0.00,-0.83,9.96,-0.03,-0.01,-0.01,30.63
26403193,1824,1,203248,239927,0.00,-0.83,9.96,-0.03,-0.01,-0.00,30.63
26443189,1825,1,203357,240257,0.02,-0.83,9.96,-0.03,-0.01,-0.01,30.63
26483192,1823,1,203489,240687,0.04,-0.82,9.96,-0.03,-0.01,-0.01,30.63
26523189,1826,1,203598,240942,0.03,-0.81,9.97,-0.03,-0.01,-0.01,30.63
26563192,1820,1,203783,241420,0.01,-0.84,9.96,-0.03,-0.01,-0.00,30.63
26602189,1838,1,203908,241839,0.01,-0.82,9.96,-0.03,-0.01,-0.00,30.63
26642192,1831,1,204123,242197,0.02,-0.82,9.95,-0.03,-0.01,-0.00,30.63
26682189,1827,1,204117,241281,0.01,-0.82,9.94,-0.03,-0.01,-0.01,30.63
26722192,1829,1,203259,239418,0.02,-0.82,9.96,-0.03,-0.01,-0.00,30.63
26762189,1823,1,202797,238776,0.01,-0.81,9.95,-0.04,-0.01,-0.00,30.63
26802193,1822,1,202661,238609,0.00,-0.83,9.94,-0.03,-0.01,-0.00,30.63
26842189,1827,1,202605,238567,0.01,-0.84,9.96,-0.03,-0.01,-0.00,30.63
26882192,1827,1,202646,238749,0.01,-0.82,9.93,-0.03,-0.01,-0.00,30.63
26922189,1829,1,202757,239340,0.00,-0.84,9.97,-0.03,-0.01,-0.00,30.63
26962192,1824,1,202985,239669,0.01,-0.83,9.95,-0.03,-0.01,-0.00,30.63
27002231,1829,1,203088,239727,0.03,-0.82,9.98,-0.03,-0.01,-0.01,30.63
27042879,1814,1,203183,240080,0.01,-0.82,9.93,-0.03,-0.01,-0.00,30.63
27083193,1826,1,203278,240411,0.00,-0.83,9.94,-0.03,-0.01,-0.00,30.63
27123193,1822,1,203369,240735,0.02,-0.82,9.95,-0.03,-0.01,-0.01,30.63
27163192,1826,1,203550,241092,0.01,-0.82,9.97,-0.03,-0.01,-0.01,30.63
27203197,1815,1,203698,241706,0.02,-0.82,9.95,-0.03,-0.01,-0.00,30.63
27243189,1828,1,203932,242283,0.02,-0.82,9.95,-0.03,-0.01,-0.01,30.63
27283192,1823,1,204163,243003,0.02,-0.83,9.96,-0.03,-0.01,-0.01,30.63
27323192,1819,1,204403,243730,0.01,-0.80,9.96,-0.03,-0.01,-0.01,30.63
27363192,1815,1,204613,242929,0.02,-0.83,9.95,-0.03,-0.01,-0.00,30.63
27403189,1809,1,203552,240434,0.00,-0.85,9.99,-0.04,-0.01,-0.01,30.63
27443192,1822,1,203057,239840,0.00,-0.83,9.94,-0.03,-0.01,-0.00,30.63
27483189,1826,1,203064,239830,0.01,-0.83,9.96,-0.03,-0.01,-0.01,30.63
27523192,1834,1,203101,239920,0.03,-0.84,9.95,-0.03,-0.01,-0.00,30.63
27563190,1815,1,203156,240317,-0.00,-0.83,9.96,-0.03,-0.02,-0.01,30.63
27603207,1814,1,203561,241982,0.04,-0.83,9.95,-0.04,-0.02,-0.01,30.63
27643192,1824,1,204218,243607,0.02,-0.85,9.96,-0.03,-0.01,-0.00,30.63
27683193,1819,1,204745,244830,0.05,-0.86,9.96,-0.04,-0.02,-0.01,30.63
27723189,1818,1,205081,245674,0.02,-0.84,9.98,-0.03,-0.02,-0.00,30.63
27763193,1824,1,205646,246792,0.05,-0.83,9.96,-0.03,-0.01,-0.00,30.63
27803189,1809,1,206121,248185,0.04,-0.82,9.94,-0.03,-0.01,-0.01,30.63
27843192,1813,1,206731,249636,0.04,-0.83,9.96,-0.03,-0.01,-0.01,30.63
27883190,1822,1,207348,251152,0.05,-0.84,9.92,-0.03,-0.01,-0.01,30.63
27923192,1815,1,207840,252386,0.05,-0.83,9.97,-0.03,-0.01,-0.00,30.63
27963190,1818,1,208295,253439,0.05,-0.83,9.94,-0.03,-0.01,-0.01,30.63
28003192,1809,1,208742,254512,0.02,-0.84,9.96,-0.04,-0.01,-0.00,30.63
28043876,1792,1,208787,252207,0.03,-0.85,10.01,-0.04,-0.02,-0.01,30.71
28082193,1778,1,206992,248061,0.06,-0.82,9.95,-0.03,-0.01,-0.00,30.71
28122190,1792,1,206348,247673,0.03,-0.84,9.93,-0.03,-0.01,-0.00,30.71
28162192,1808,1,206485,248014,0.04,-0.83,9.93,-0.03,-0.01,-0.00,30.71
28202193,1809,1,206673,248300,0.05,-0.83,9.95,-0.03,-0.01,-0.00,30.71
28242192,1819,1,206883,249182,0.04,-0.83,9.95,-0.03,-0.01,-0.01,30.71
28282190,1821,1,207492,250800,0.04,-0.84,9.93,-0.03,-0.01,-0.01,30.71
28322193,1827,1,207935,251390,0.04,-0.85,9.96,-0.03,-0.01,-0.00,30.71
28362189,1826,1,208052,251811,0.05,-0.82,9.96,-0.03,-0.01,-0.00,30.71
28402192,1833,1,208244,252399,0.06,-0.84,9.94,-0.03,-0.01,-0.00,30.71
28442189,1831,1,208504,253003,0.04,-0.83,9.97,-0.03,-0.01,-0.01,30.71
28482192,1829,1,208743,253689,0.06,-0.82,9.94,-0.03,-0.01,-0.00,30.71
28522193,1826,1,208955,254311,0.04,-0.82,9.96,-0.03,-0.01,-0.00,30.71
28562193,1831,1,209260,255088,0.04,-0.84,9.96,-0.03,-0.01,-0.01,30.71
28602193,1840,1,209506,255884,0.06,-0.82,9.97,-0.04,-0.01,-0.00,30.71
28642199,1827,1,209752,256536,0.06,-0.80,9.96,-0.03,-0.01,-0.01,30.71
28682189,1826,1,209856,255522,0.05,-0.84,9.94,-0.03,-0.01,-0.01,30.71
28722193,1825,1,208351,250348,0.06,-0.83,9.95,-0.03,-0.01,-0.00,30.71
28762189,1827,1,207094,248699,0.05,-0.83,9.94,-0.03,-0.01,-0.00,30.71
28802193,1830,1,206999,248857,0.05,-0.84,9.97,-0.03,-0.01,-0.00,30.71
28842225,1829,1,207035,248922,0.02,-0.83,9.96,-0.03,-0.01,-0.00,30.71
28882193,1823,1,207160,249375,0.06,-0.85,9.93,-0.03,-0.01,-0.00,30.71
28922190,1823,1,207528,250837,0.04,-0.83,9.96,-0.03,-0.01,-0.00,30.71
28962193,1825,1,208130,251890,0.03,-0.82,9.95,-0.03,-0.01,-0.00,30.71
29002190,1813,1,208264,252272,0.01,-0.83,9.95,-0.03,-0.01,-0.00,30.71
29042212,1806,1,208435,252791,0.05,-0.84,9.96,-0.03,-0.01,-0.00,30.71
29082876,1808,1,208628,253441,0.04,-0.83,9.95,-0.03,-0.01,-0.01,30.87
29123193,1818,1,208910,254206,0.05,-0.84,9.96,-0.03,-0.01,-0.01,30.87
29163192,1811,1,209100,254741,0.04,-0.83,9.94,-0.04,-0.01,-0.00,30.87
29203193,1814,1,209289,255351,0.05,-0.83,9.95,-0.03,-0.01,-0.00,30.87
29243190,1799,1,209514,255891,0.03,-0.84,9.94,-0.03,-0.01,-0.00,30.87
29283193,1808,1,209642,256238,0.06,-0.81,9.97,-0.03,-0.01,-0.00,30.87
29323190,1806,1,209815,256492,0.06,-0.84,9.96,-0.03,-0.01,-0.01,30.87
29363193,1809,1,209534,253327,0.04,-0.82,9.96,-0.03,-0.01,-0.01,30.87
29403192,1808,1,207550,248914,0.04,-0.84,9.95,-0.03,-0.01,-0.01,30.87
29443193,1797,1,206715,248143,0.05,-0.84,9.94,-0.03,-0.01,-0.01,30.87
29483193,1808,1,206737,248236,0.05,-0.85,9.97,-0.03,-0.01,-0.01,30.87
29523192,1811,1,206803,248493,0.04,-0.82,9.94,-0.03,-0.01,-0.00,30.87
29563190,1815,1,207054,249390,0.06,-0.84,9.96,-0.03,-0.01,-0.01,30.87
29603192,1808,1,207559,250975,0.03,-0.83,9.95,-0.03,-0.01,-0.00,30.87
29643189,1811,1,207989,251756,0.05,-0.84,9.94,-0.03,-0.01,-0.01,30.87
29683192,1821,1,208165,252167,0.06,-0.84,9.96,-0.03,-0.01,-0.01,30.87
29723193,1815,1,208311,252557,0.06,-0.83,9.96,-0.03,-0.01,-0.01,30.87
29763192,1821,1,208550,253279,0.03,-0.83,9.95,-0.03,-0.01,-0.01,30.87
29803193,1811,1,208809,254014,0.03,-0.82,9.98,-0.03,-0.01,-0.00,30.87
29843193,1808,1,209044,254604,0.06,-0.84,9.93,-0.03,-0.01,-0.01,30.87
29883192,1808,1,209235,255166,0.04,-0.85,9.94,-0.03,-0.01,-0.00,30.87
29923193,1808,1,209487,255855,0.06,-0.83,9.95,-0.03,-0.01,-0.00,30.87
29963190,1808,1,209763,256484,0.04,-0.81,9.96,-0.03,-0.01,-0.00,30.87
30003193,1817,1,209998,256948,0.06,-0.83,9.96,-0.03,-0.01,-0.00,30.87
30043192,1811,1,209833,254081,0.05,-0.85,9.96,-0.03,-0.01,-0.00,30.87
30081879,1808,1,207873,249375,0.05,-0.84,9.97,-0.03,-0.01,-0.00,30.87
30122189,1820,1,206987,248638,0.03,-0.82,9.96,-0.03,-0.01,-0.01,30.87
30162192,1821,1,207033,248757,0.03,-0.82,9.95,-0.03,-0.01,-0.00,30.87
30202189,1821,1,207088,248794,0.05,-0.83,9.96,-0.03,-0.01,-0.00,30.87
30242193,1813,1,207153,249337,0.04,-0.83,9.95,-0.03,-0.01,-0.00,30.87
30282190,1819,1,207613,250636,0.04,-0.83,9.96,-0.03,-0.01,-0.00,30.87
30322193,1812,1,207996,251009,0.06,-0.81,9.97,-0.03,-0.01,-0.00,30.87
30362189,1822,1,208021,251060,0.05,-0.83,9.96,-0.03,-0.02,-0.00,30.87
30402193,1820,1,208112,251479,0.03,-0.83,9.96,-0.03,-0.01,-0.01,30.87
30442192,1817,1,208379,252118,0.05,-0.83,9.93,-0.03,-0.01,-0.00,30.87
30482193,1824,1,208611,252723,0.07,-0.83,9.97,-0.03,-0.01,-0.00,30.87
30522193,1823,1,208888,253461,0.04,-0.82,9.97,-0.03,-0.01,-0.01,30.87
30562193,1810,1,209119,253973,0.03,-0.81,9.95,-0.03,-0.01,-0.00,30.87
30602190,1814,1,209354,254730,0.05,-0.85,9.94,-0.03,-0.01,-0.01,30.87
30642192,1821,1,209656,255210,0.03,-0.83,9.95,-0.03,-0.01,-0.00,30.87
30682190,1817,1,209859,255723,0.04,-0.83,9.95,-0.03,-0.01,-0.01,30.87
30722192,1819,1,209972,255158,0.05,-0.83,9.96,-0.04,-0.01,-0.01,30.87
30762192,1816,1,208689,249471,0.04,-0.83,9.96,-0.03,-0.01,-0.00,30.87
30802192,1811,1,207007,247035,0.05,-0.83,9.97,-0.03,-0.01,-0.00,30.87
30842189,1826,1,206748,246731,0.05,-0.83,9.95,-0.03,-0.01,-0.01,30.87
30882192,1818,1,206703,246683,0.01,-0.81,9.98,-0.03,-0.01,-0.00,30.87
30922189,1808,1,206741,246723,0.04,-0.84,9.97,-0.03,-0.01,-0.00,30.87
30962192,1814,1,206898,247383,0.04,-0.83,9.96,-0.03,-0.01,-0.01,30.87
31002192,1814,1,207234,247928,0.06,-0.83,9.92,-0.03,-0.01,-0.01,30.87
31042192,1817,1,207307,247933,0.05,-0.86,9.94,-0.03,-0.01,-0.01,30.87
31082192,1819,1,207270,248014,0.04,-0.83,9.96,-0.03,-0.01,-0.00,30.87
31122879,1823,1,207370,248305,0.05,-0.82,9.98,-0.03,-0.01,-0.01,30.81
31161192,1821,1,207502,248694,0.05,-0.82,9.93,-0.03,-0.01,-0.01,30.81
31201192,1826,1,207663,249099,0.04,-0.83,9.98,-0.03,-0.01,-0.01,30.81
31241192,1826,1,207789,249428,0.03,-0.82,9.97,-0.03,-0.01,-0.00,30.81
31281193,1827,1,208006,250050,0.07,-0.80,9.93,-0.03,-0.01,-0.00,30.81
31321189,1827,1,208244,250786,0.04,-0.82,9.98,-0.03,-0.01,-0.01,30.81
31361192,1827,1,208480,251567,0.04,-0.83,9.95,-0.03,-0.01,-0.01,30.81
31401192,1837,1,208664,250974,0.05,-0.82,9.97,-0.03,-0.01,-0.01,30.81
31441192,1829,1,207427,246773,0.04,-0.83,9.95,-0.03,-0.01,-0.00,30.81
31481190,1823,1,206451,245887,0.03,-0.84,9.96,-0.03,-0.01,-0.00,30.81
31521192,1826,1,206436,246006,0.05,-0.82,9.94,-0.03,-0.01,-0.01,30.81
31561192,1817,1,206396,246013,0.04,-0.82,9.95,-0.03,-0.01,-0.00,30.81
31601193,1820,1,206446,246421,0.04,-0.83,9.96,-0.03,-0.01,-0.00,30.81
31641190,1819,1,206756,247742,0.06,-0.81,9.96,-0.03,-0.01,-0.01,30.81
31681192,1822,1,207209,248438,0.05,-0.83,9.95,-0.03,-0.01,-0.00,30.81
31721189,1823,1,207271,248537,0.03,-0.84,9.96,-0.03,-0.01,-0.00,30.81
31761192,1827,1,207429,249029,0.02,-0.83,9.96,-0.04,-0.01,-0.01,30.81
31801192,1814,1,207677,249751,0.05,-0.82,9.96,-0.04,-0.01,-0.01,30.81
31841192,1815,1,207934,250469,0.05,-0.84,9.94,-0.03,-0.01,-0.01,30.81
31881192,1821,1,208132,251053,0.05,-0.85,9.97,-0.03,-0.01,-0.01,30.81
31921192,1807,1,208354,251542,0.05,-0.84,9.96,-0.03,-0.01,-0.01,30.81
31961192,1822,1,208513,252001,0.03,-0.83,9.95,-0.03,-0.01,-0.01,30.81
32001192,1823,1,208730,252768,0.04,-0.83,9.95,-0.03,-0.01,-0.01,30.81
32041192,1819,1,208954,253293,0.04,-0.83,9.97,-0.03,-0.01,-0.00,30.81
32081192,1829,1,208642,249965,0.05,-0.82,9.97,-0.03,-0.01,-0.00,30.81
32121193,1822,1,206807,246797,0.04,-0.83,9.96,-0.03,-0.01,-0.01,30.81
32161879,1817,1,206456,246514,0.03,-0.83,9.96,-0.03,-0.01,-0.00,30.91
32202189,1813,1,206471,246659,0.05,-0.82,9.95,-0.03,-0.01,-0.01,30.91
32242193,1813,1,206544,246854,0.05,-0.82,9.95,-0.03,-0.01,-0.00,30.91
32282190,1818,1,206628,247483,0.01,-0.83,9.94,-0.03,-0.01,-0.01,30.91
32322241,1817,1,207098,248609,0.03,-0.82,9.97,-0.03,-0.01,-0.01,30.91
32362192,1822,1,207337,248857,0.06,-0.83,9.97,-0.03,-0.01,-0.00,30.91
32402192,1819,1,207371,249080,0.03,-0.82,9.97,-0.03,-0.01,-0.01,30.91
32442192,1821,1,207529,249755,0.02,-0.83,9.95,-0.04,-0.01,-0.01,30.91
32482192,1813,1,207759,250337,0.03,-0.81,9.97,-0.03,-0.01,-0.00,30.91
32522193,1808,1,208004,250940,0.05,-0.84,9.95,-0.03,-0.01,-0.01,30.91
32562192,1815,1,208213,251531,0.02,-0.83,9.98,-0.03,-0.01,-0.01,30.91
32602192,1823,1,208425,252319,0.05,-0.83,9.94,-0.03,-0.01,-0.01,30.91
32642192,1814,1,208717,252930,0.03,-0.82,9.95,-0.03,-0.01,-0.01,30.91
32682192,1813,1,208872,253378,0.03,-0.84,9.96,-0.03,-0.01,-0.01,30.91
32722192,1817,1,209042,253462,0.02,-0.82,9.94,-0.03,-0.01,-0.01,30.91
32762192,1818,1,208549,249653,0.04,-0.83,9.96,-0.03,-0.01,-0.01,30.91
32802192,1818,1,206652,246485,0.05,-0.82,9.93,-0.03,-0.01,-0.01,30.91
32842192,1819,1,206328,246254,0.03,-0.83,9.95,-0.03,-0.01,-0.01,30.91
32882192,1810,1,206352,246237,0.03,-0.82,9.96,-0.03,-0.01,-0.00,30.91
32922189,1818,1,206353,246310,0.03,-0.85,9.95,-0.03,-0.01,-0.00,30.91
32962192,1814,1,206475,246840,0.03,-0.81,9.95,-0.03,-0.01,-0.01,30.91
33002192,1813,1,206862,247947,0.04,-0.83,9.94,-0.03,-0.01,-0.00,30.91
33042192,1827,1,207186,248372,0.03,-0.82,9.96,-0.03,-0.01,-0.01,30.91
33082192,1816,1,207284,248497,0.04,-0.81,9.95,-0.03,-0.01,-0.00,30.91
33122193,1814,1,207318,248720,0.04,-0.84,9.93,-0.03,-0.01,-0.01,30.91
33162879,1814,1,207414,249192,0.04,-0.83,9.98,-0.03,-0.01,-0.01,30.63
33201193,1818,1,207596,249736,0.03,-0.81,9.95,-0.03,-0.01,-0.01,30.63
33241192,1821,1,207770,250121,0.03,-0.81,9.94,-0.03,-0.01,-0.01,30.63
33281192,1818,1,207871,250476,0.04,-0.85,9.97,-0.03,-0.01,-0.00,30.63
33321189,1825,1,208081,251106,0.02,-0.84,9.95,-0.03,-0.01,-0.01,30.63
33361193,1817,1,208339,251957,0.03,-0.82,9.94,-0.03,-0.01,-0.01,30.63
33401192,1818,1,208604,252529,0.04,-0.82,10.00,-0.03,-0.01,-0.00,30.63
33441192,1830,1,208631,251216,0.03,-0.82,9.96,-0.03,-0.01,-0.01,30.63
33481192,1818,1,207094,246699,0.03,-0.84,9.94,-0.03,-0.01,-0.01,30.63
33521192,1821,1,206182,245852,0.03,-0.81,9.95,-0.03,-0.01,-0.00,30.63
33561189,1814,1,206132,245856,0.02,-0.82,9.93,-0.03,-0.01,-0.00,30.63
33601192,1819,1,206178,245861,0.03,-0.85,9.95,-0.03,-0.01,-0.00,30.63
33641189,1814,1,206178,246122,0.04,-0.83,9.94,-0.03,-0.01,-0.01,30.63
33681192,1819,1,206409,246986,0.06,-0.84,9.92,-0.03,-0.01,-0.00,30.63
33721189,1826,1,206815,247669,0.04,-0.82,9.96,-0.03,-0.01,-0.01,30.63
33761224,1829,1,206867,247712,0.03,-0.81,9.96,-0.03,-0.01,-0.01,30.63
33801192,1823,1,206890,247985,0.06,-0.82,9.96,-0.03,-0.01,-0.00,30.63
33841193,1817,1,207080,248414,0.02,-0.83,9.94,-0.03,-0.01,-0.00,30.63
33881189,1818,1,207256,248750,0.04,-0.83,9.95,-0.03,-0.01,-0.00,30.63
33921192,1818,1,207404,249210,0.03,-0.83,9.92,-0.03,-0.01,-0.00,30.63
33961190,1806,1,207579,249706,0.04,-0.82,9.95,-0.03,-0.01,-0.00,30.63
34001193,1823,1,207778,250185,0.03,-0.81,9.95,-0.03,-0.01,-0.01,30.63
34041192,1827,1,207966,250577,0.06,-0.82,9.95,-0.03,-0.01,-0.01,30.63
34081192,1825,1,208080,250912,0.05,-0.83,9.95,-0.03,-0.01,-0.01,30.63
34121192,1819,1,208190,251028,0.02,-0.82,9.93,-0.03,-0.01,-0.00,30.63
34161192,1829,1,207654,247518,0.04,-0.83,9.96,-0.03,-0.01,-0.01,30.63
34201879,1829,1,206149,245514,0.04,-0.81,9.93,-0.03,-0.01,-0.00,30.79
34242192,1824,1,205911,245359,0.05,-0.83,9.96,-0.03,-0.01,-0.00,30.79
34282189,1828,1,205956,245348,0.04,-0.83,9.95,-0.03,-0.01,-0.01,30.79
34322192,1827,1,205966,245439,0.04,-0.82,9.93,-0.03,-0.01,-0.01,30.79
34362192,1826,1,206043,246015,0.03,-0.82,9.96,-0.03,-0.01,-0.01,30.79
34402193,1825,1,206504,246922,0.03,-0.81,9.94,-0.03,-0.01,-0.01,30.79
34442192,1833,1,206634,247151,0.03,-0.83,9.99,-0.03,-0.01,-0.01,30.79
34482192,1824,1,206704,247338,0.06,-0.82,9.96,-0.03,-0.01,-0.01,30.79
34522197,1831,1,206836,247783,0.03,-0.82,9.95,-0.03,-0.01,-0.00,30.79
34562193,1822,1,207004,248353,0.04,-0.84,9.95,-0.03,-0.01,-0.00,30.79
34602189,1822,1,207190,248876,0.05,-0.81,9.97,-0.03,-0.01,-0.00,30.79
34642192,1831,1,207375,249301,0.04,-0.83,9.97,-0.03,-0.01,-0.00,30.79
34682189,1822,1,207557,249726,0.05,-0.83,9.96,-0.03,-0.01,-0.01,30.79
34722193,1822,1,207708,250191,0.06,-0.83,9.97,-0.03,-0.01,-0.01,30.79
34762192,1813,1,207843,250792,0.01,-0.82,9.92,-0.03,-0.01,-0.01,30.79
34802192,1818,1,207975,249990,0.02,-0.82,9.95,-0.03,-0.01,-0.00,30.79
34842189,1825,1,206752,246192,0.04,-0.84,9.95,-0.03,-0.01,-0.00,30.79
34882192,1823,1,205959,245406,0.02,-0.83,9.92,-0.03,-0.01,-0.01,30.79
34922190,1830,1,205848,245437,0.01,-0.83,9.95,-0.03,-0.01,-0.00,30.79
34962192,1829,1,205945,245515,0.05,-0.83,9.97,-0.03,-0.01,-0.00,30.79
35002189,1823,1,205938,245682,0.04,-0.82,9.95,-0.03,-0.01,-0.00,30.79
35042192,1830,1,206163,246561,0.04,-0.82,9.94,-0.03,-0.01,-0.00,30.79
35082189,1826,1,206512,247118,0.03,-0.84,9.95,-0.03,-0.01,-0.01,30.79
35122192,1819,1,206583,247276,0.03,-0.83,9.95,-0.03,-0.01,-0.01,30.79
35162189,1819,1,206653,247534,0.03,-0.82,9.95,-0.03,-0.01,-0.01,30.79
35202879,1821,1,206791,247986,0.01,-0.81,9.98,-0.03,-0.01,-0.01,30.81
35241192,1824,1,207029,248455,0.03,-0.83,9.94,-0.04,-0.01,-0.00,30.81
35281192,1814,1,207204,248956,0.02,-0.80,9.94,-0.03,-0.01,-0.00,30.81
35321189,1823,1,207388,249417,0.04,-0.84,9.96,-0.03,-0.01,-0.01,30.81
35361193,1823,1,207547,249891,0.02,-0.83,9.97,-0.03,-0.01,-0.00,30.81
35401205,1824,1,207665,250368,0.02,-0.84,9.94,-0.03,-0.01,-0.00,30.81
35441192,1821,1,207871,250633,0.02,-0.83,9.94,-0.03,-0.01,-0.01,30.81
35481189,1822,1,207486,247530,0.01,-0.84,9.96,-0.03,-0.01,-0.00,30.81
35521192,1824,1,206008,245394,0.04,-0.83,9.94,-0.03,-0.01,-0.00,30.81
35561189,1829,1,205728,245234,0.05,-0.83,9.92,-0.03,-0.01,-0.00,30.81
35602192,1826,1,205732,245315,0.04,-0.84,9.96,-0.03,-0.01,-0.00,30.81
35640189,1837,1,205783,245379,0.00,-0.85,9.95,-0.03,-0.01,-0.00,30.81
35680192,1843,1,205829,245686,0.04,-0.84,9.94,-0.03,-0.01,-0.00,30.81
35720189,1840,1,206170,246631,0.01,-0.82,9.96,-0.03,-0.01,-0.01,30.81
35760192,1845,1,206460,246946,0.02,-0.82,9.94,-0.03,-0.01,-0.01,30.81
35800204,1837,1,206493,247119,0.03,-0.84,9.96,-0.03,-0.01,-0.00,30.81
35840192,1835,1,206621,247582,0.01,-0.85,9.96,-0.03,-0.01,-0.00,30.81
35880189,1837,1,206849,248214,0.03,-0.84,9.98,-0.03,-0.01,-0.00,30.81
35920192,1838,1,207101,248876,0.03,-0.83,9.94,-0.03,-0.01,-0.01,30.81
35960192,1829,1,207402,249572,0.02,-0.84,9.97,-0.03,-0.01,-0.00,30.81
36000193,1834,1,207541,250121,0.04,-0.82,9.94,-0.03,-0.01,-0.01,30.81
36040192,1838,1,207787,250540,0.02,-0.82,9.95,-0.03,-0.01,-0.01,30.81
36080192,1839,1,207978,250879,0.04,-0.84,9.96,-0.03,-0.01,-0.01,30.81
36120192,1841,1,207979,250688,0.05,-0.82,9.94,-0.03,-0.01,-0.01,30.81
36160192,1841,1,207297,246916,0.01,-0.84,9.95,-0.03,-0.01,-0.01,30.81
36200192,1840,1,205912,245329,0.02,-0.79,9.96,-0.03,-0.01,-0.01,30.81
36240879,1830,1,205770,245263,0.02,-0.83,9.93,-0.03,-0.01,-0.01,30.77
36281192,1827,1,205704,245175,0.03,-0.81,9.96,-0.03,-0.01,-0.00,30.77
36321192,1823,1,205673,245163,0.05,-0.84,9.94,-0.03,-0.01,-0.01,30.77
36361192,1830,1,205796,245851,0.02,-0.82,9.96,-0.03,-0.01,-0.01,30.77
36401192,1830,1,206131,246555,0.02,-0.84,9.95,-0.03,-0.01,-0.01,30.77
36441189,1826,1,206324,246698,0.02,-0.82,9.94,-0.03,-0.01,-0.00,30.77
36481245,1833,1,206279,246723,0.04,-0.82,9.94,-0.03,-0.01,-0.00,30.77
36521189,1838,1,206426,247078,0.04,-0.82,9.94,-0.03,-0.01,-0.01,30.77
36561192,1840,1,206533,247357,0.03,-0.83,9.95,-0.03,-0.01,-0.00,30.77
36601192,1835,1,206668,247778,0.05,-0.81,9.95,-0.03,-0.01,-0.01,30.77
36640192,1840,1,206834,248137,0.03,-0.83,9.97,-0.03,-0.01,-0.01,30.77
36680192,1835,1,206879,248624,0.04,-0.85,9.95,-0.03,-0.01,-0.01,30.77
36720193,1823,1,207174,249125,0.04,-0.81,9.94,-0.03,-0.01,-0.00,30.77
36760189,1833,1,207294,249584,0.03,-0.83,9.95,-0.03,-0.01,-0.01,30.77
36800192,1837,1,207434,249233,0.02,-0.83,9.96,-0.03,-0.01,-0.00,30.77
36840189,1825,1,206387,245735,0.03,-0.83,9.96,-0.03,-0.01,-0.00,30.77
36880192,1833,1,205442,244651,0.04,-0.84,9.93,-0.03,-0.01,-0.00,30.77
36920189,1838,1,205395,244642,0.02,-0.84,9.93,-0.03,-0.01,-0.00,30.77
36960192,1831,1,205410,244498,0.03,-0.85,9.95,-0.03,-0.01,-0.00,30.77
37000189,1838,1,205317,244463,0.04,-0.83,9.92,-0.03,-0.01,-0.00,30.77
37040192,1831,1,205493,245143,0.04,-0.85,9.98,-0.03,-0.01,-0.01,30.77
37080190,1825,1,205762,245724,0.04,-0.84,9.96,-0.03,-0.01,-0.01,30.77
37120192,1833,1,205868,245839,0.03,-0.84,9.96,-0.03,-0.01,-0.01,30.77
37160192,1838,1,205990,246135,0.03,-0.81,9.93,-0.03,-0.01,-0.01,30.77
37200192,1831,1,206071,246464,0.02,-0.82,9.99,-0.03,-0.01,-0.01,30.77
37240896,1818,1,206198,246854,0.04,-0.82,9.95,-0.03,-0.01,-0.01,31.01
37281192,1812,1,206425,247367,0.03,-0.82,9.98,-0.03,-0.01,-0.01,31.01
37321189,1815,1,206541,247740,0.03,-0.84,9.94,-0.03,-0.01,-0.01,31.01
37361192,1819,1,206792,248247,0.04,-0.85,9.96,-0.03,-0.01,-0.00,31.01
37401189,1829,1,206876,248524,0.07,-0.83,9.95,-0.03,-0.01,-0.01,31.01
37441216,1829,1,207073,248994,0.03,-0.82,9.92,-0.04,-0.01,-0.01,31.01
37481192,1832,1,206915,247014,0.03,-0.84,9.98,-0.03,-0.01,-0.00,31.01
37521192,1823,1,205662,244755,0.03,-0.82,9.98,-0.03,-0.01,-0.00,31.01
37561189,1837,1,205309,244361,0.02,-0.85,9.94,-0.03,-0.01,-0.01,31.01
37601193,1821,1,205356,244305,0.02,-0.84,9.96,-0.03,-0.01,-0.01,31.01
37641192,1821,1,205313,244323,0.03,-0.82,9.97,-0.03,-0.01,-0.01,31.01
37680192,1834,1,205322,244717,0.04,-0.83,9.97,-0.03,-0.01,-0.01,31.01
37720189,1828,1,205547,245435,0.03,-0.82,9.96,-0.03,-0.01,-0.00,31.01
37760192,1827,1,205747,245712,0.03,-0.82,9.95,-0.03,-0.01,-0.01,31.01
37800193,1829,1,205810,245852,0.04,-0.83,9.95,-0.03,-0.01,-0.01,31.01
37840192,1826,1,205946,246258,0.03,-0.83,9.96,-0.03,-0.01,-0.00,31.01
37880189,1827,1,206167,246769,0.03,-0.84,9.94,-0.03,-0.01,-0.01,31.01
37920193,1835,1,206349,247246,0.03,-0.84,9.94,-0.03,-0.01,-0.01,31.01
37960192,1836,1,206546,247779,0.03,-0.83,9.96,-0.03,-0.01,-0.00,31.01
38000192,1827,1,206693,248284,0.02,-0.83,9.94,-0.03,-0.01,-0.01,31.01
38040189,1827,1,206929,248885,0.04,-0.81,9.96,-0.03,-0.01,-0.01,31.01
38080192,1838,1,207046,249152,0.02,-0.84,9.94,-0.03,-0.01,-0.00,31.01
38120189,1829,1,207031,248094,0.02,-0.84,9.96,-0.03,-0.01,-0.01,31.01
38160192,1833,1,205839,245010,0.02,-0.84,9.97,-0.03,-0.01,-0.01,31.01
38200189,1829,1,205267,244379,0.02,-0.84,9.95,-0.03,-0.01,-0.00,31.01
38240192,1826,1,205239,244381,0.01,-0.85,9.94,-0.03,-0.01,-0.01,31.01
38280879,1824,1,205297,244441,0.02,-0.82,9.94,-0.03,-0.01,-0.00,30.87
38321192,1836,1,205280,244499,0.04,-0.84,9.96,-0.03,-0.01,-0.00,30.87
38361190,1830,1,205500,245272,0.04,-0.83,9.93,-0.03,-0.01,-0.01,30.87
38401193,1824,1,205783,245792,0.03,-0.85,9.96,-0.03,-0.01,-0.01,30.87
38441192,1829,1,205822,245934,0.05,-0.83,9.95,-0.03,-0.01,-0.01,30.87
38481192,1829,1,205882,246143,0.03,-0.82,9.95,-0.04,-0.01,-0.00,30.87
38521189,1822,1,206041,246545,0.05,-0.84,9.96,-0.03,-0.01,-0.01,30.87
38561192,1829,1,206192,247055,0.03,-0.82,9.96,-0.03,-0.01,-0.01,30.87
38601192,1824,1,206398,247468,0.04,-0.83,9.95,-0.03,-0.01,-0.00,30.87
38641193,1827,1,206539,247947,0.02,-0.84,9.94,-0.03,-0.01,-0.01,30.87
38680190,1821,1,206734,248554,0.03,-0.81,9.95,-0.03,-0.01,-0.00,30.87
38720192,1831,1,206832,248903,0.02,-0.83,9.95,-0.03,-0.01,-0.00,30.87
38760189,1823,1,207056,249221,0.03,-0.84,9.95,-0.03,-0.01,-0.00,30.87
38800192,1828,1,206948,247352,0.03,-0.85,9.97,-0.03,-0.01,-0.01,30.87
38840193,1829,1,205526,244733,0.01,-0.84,9.96,-0.03,-0.01,-0.01,30.87
38880229,1839,1,205081,244393,0.01,-0.81,9.96,-0.03,-0.01,-0.01,30.87
38920192,1839,1,205028,244395,0.04,-0.84,9.95,-0.03,-0.01,-0.01,30.87
38960192,1831,1,205144,244451,0.03,-0.83,9.97,-0.03,-0.01,-0.00,30.87
39000192,1825,1,205128,244789,0.03,-0.83,9.96,-0.03,-0.01,-0.00,30.87
39040192,1835,1,205486,245969,0.04,-0.81,9.96,-0.03,-0.01,-0.00,30.87
39080233,1833,1,205918,246752,0.05,-0.84,9.94,-0.03,-0.01,-0.00,30.87
39120193,1826,1,206083,247258,0.03,-0.83,9.90,-0.03,-0.01,-0.01,30.87
39160189,1830,1,206250,248052,0.03,-0.84,9.95,-0.03,-0.01,-0.00,30.87
39200192,1833,1,206543,248737,0.03,-0.82,9.94,-0.03,-0.01,-0.01,30.87
39240192,1828,1,206710,249307,0.04,-0.83,9.95,-0.03,-0.01,-0.01,30.87
39280878,1821,1,206926,249886,0.05,-0.83,9.97,-0.03,-0.01,-0.00,30.97
39321189,1831,1,207124,250472,0.06,-0.83,9.96,-0.03,-0.01,-0.00,30.97
39361193,1823,1,207361,251003,0.05,-0.84,9.95,-0.03,-0.01,-0.00,30.97
39401189,1825,1,207537,251724,0.04,-0.84,9.95,-0.03,-0.01,-0.00,30.97
39441192,1827,1,207881,252126,0.04,-0.83,9.93,-0.03,-0.01,-0.01,30.97
39481192,1829,1,207646,249589,0.03,-0.83,9.97,-0.03,-0.01,-0.00,30.97
39521192,1834,1,205846,245656,0.05,-0.82,9.95,-0.03,-0.01,-0.01,30.97
39561192,1831,1,205252,245149,0.06,-0.85,9.91,-0.03,-0.01,-0.01,30.97
39601192,1840,1,205264,245184,0.03,-0.83,9.97,-0.03,-0.01,-0.00,30.97
39641189,1829,1,205355,245269,0.04,-0.85,9.98,-0.03,-0.01,-0.00,30.97
39681192,1837,1,205421,245591,0.04,-0.85,9.96,-0.03,-0.01,-0.00,30.97
39720192,1832,1,205733,246560,0.04,-0.84,9.94,-0.03,-0.01,-0.01,30.97
39760192,1827,1,206090,247143,0.04,-0.82,9.97,-0.03,-0.01,-0.01,30.97
39800192,1835,1,206180,247210,0.05,-0.83,9.96,-0.03,-0.01,-0.01,30.97
39840192,1834,1,206201,247584,0.06,-0.83,9.95,-0.03,-0.01,-0.00,30.97
39880189,1822,1,206327,248030,0.02,-0.84,9.98,-0.03,-0.01,-0.01,30.97
39920192,1825,1,206553,248432,0.05,-0.83,9.94,-0.03,-0.01,-0.01,30.97
39960192,1819,1,206738,248956,0.05,-0.82,9.96,-0.03,-0.01,-0.01,30.97
40000192,1826,1,206938,249737,0.06,-0.81,9.94,-0.03,-0.01,-0.00,30.97
40040192,1831,1,207230,250631,0.05,-0.83,9.97,-0.03,-0.01,-0.00,30.97
40080192,1827,1,207488,251271,0.05,-0.84,9.94,-0.03,-0.01,-0.01,30.97
40120193,1830,1,207755,251630,0.04,-0.83,9.96,-0.03,-0.01,-0.00,30.97
40160192,1831,1,207390,248288,0.05,-0.84,9.96,-0.03,-0.02,-0.00,30.97
40200192,1826,1,205735,245677,0.04,-0.84,9.94,-0.03,-0.01,-0.00,30.97
40240192,1835,1,205425,245548,0.05,-0.83,9.95,-0.03,-0.01,-0.00,30.97
40280876,1838,1,205474,245930,0.08,-0.83,9.96,-0.03,-0.01,-0.00,30.99
40319193,1843,1,205635,246320,0.05,-0.83,9.93,-0.03,-0.01,-0.00,30.99
40359189,1840,1,205875,247506,0.03,-0.82,9.95,-0.03,-0.01,-0.00,30.99
40399193,1853,1,206575,249310,0.06,-0.82,9.96,-0.03,-0.01,-0.01,30.99
40439192,1853,1,207008,249987,0.06,-0.83,9.97,-0.03,-0.01,-0.00,30.99
40479192,1842,1,207137,250256,0.06,-0.84,9.96,-0.03,-0.01,-0.00,30.99
40519241,1840,1,207358,250837,0.06,-0.82,9.93,-0.03,-0.01,-0.00,30.99
40559193,1841,1,207699,251610,0.06,-0.82,9.95,-0.03,-0.01,-0.00,30.99
40599189,1842,1,207945,252443,0.05,-0.84,9.95,-0.03,-0.01,-0.00,30.99
40639193,1841,1,208235,253141,0.06,-0.83,9.95,-0.03,-0.01,-0.00,30.99
40679190,1845,1,208591,253690,0.04,-0.84,9.97,-0.03,-0.01,-0.01,30.99
40719230,1844,1,208735,254452,0.05,-0.83,9.92,-0.03,-0.01,-0.01,30.99
40759190,1840,1,209093,255017,0.05,-0.83,9.94,-0.03,-0.01,-0.01,30.99
40799192,1841,1,209011,253508,0.06,-0.82,9.96,-0.03,-0.01,-0.01,30.99
40839192,1839,1,207377,248375,0.05,-0.83,9.95,-0.03,-0.01,-0.00,30.99
40879193,1842,1,206247,247345,0.05,-0.83,9.94,-0.04,-0.01,-0.00,30.99
40919189,1844,1,206325,247650,0.03,-0.83,9.94,-0.03,-0.01,-0.00,30.99
40959193,1850,1,206435,247808,0.05,-0.85,9.96,-0.03,-0.01,-0.01,30.99
40999189,1841,1,206612,248204,0.04,-0.84,9.95,-0.03,-0.01,-0.01,30.99
41039192,1845,1,206932,249658,0.04,-0.83,9.96,-0.03,-0.01,-0.00,30.99
41079189,1847,1,207478,250624,0.04,-0.84,9.98,-0.03,-0.01,-0.01,30.99
41119192,1840,1,207521,250812,0.05,-0.86,9.96,-0.03,-0.01,-0.01,30.99
41159192,1841,1,207654,251314,0.06,-0.83,9.95,-0.03,-0.01,-0.01,30.99
41199193,1842,1,207942,251966,0.05,-0.83,9.94,-0.03,-0.01,-0.01,30.99
41239193,1846,1,208155,252594,0.06,-0.82,9.95,-0.03,-0.01,-0.00,30.99
41279192,1833,1,208261,253154,0.06,-0.82,9.96,-0.03,-0.01,-0.00,30.99
41319876,1819,1,208492,253765,0.04,-0.85,9.97,-0.03,-0.01,-0.00,30.87
41360193,1833,1,208677,254527,0.04,-0.81,9.96,-0.03,-0.01,-0.00,30.87
41400189,1821,1,209065,255083,0.05,-0.84,9.96,-0.03,-0.01,-0.00,30.87
41440192,1823,1,209180,254915,0.05,-0.83,9.97,-0.03,-0.01,-0.01,30.87
41480192,1829,1,208114,249877,0.06,-0.82,9.95,-0.03,-0.01,-0.01,30.87
41520192,1826,1,206372,247269,0.04,-0.84,9.95,-0.03,-0.01,-0.01,30.87
41560192,1834,1,206116,247292,0.05,-0.82,9.96,-0.03,-0.01,-0.01,30.87
41600192,1835,1,206262,247234,0.04,-0.84,9.96,-0.03,-0.01,-0.01,30.87
41640192,1837,1,206142,247465,0.04,-0.85,9.93,-0.03,-0.01,-0.00,30.87
41680192,1830,1,206396,248282,0.05,-0.82,9.95,-0.03,-0.01,-0.01,30.87
41720192,1837,1,206780,249435,0.06,-0.82,9.96,-0.03,-0.01,-0.00,30.87
41760193,1836,1,207134,249822,0.04,-0.84,9.96,-0.03,-0.01,-0.00,30.87
41800189,1839,1,207153,250108,0.04,-0.84,9.97,-0.03,-0.01,-0.01,30.87
41840192,1834,1,207211,250643,0.06,-0.81,9.95,-0.03,-0.01,-0.01,30.87
41880192,1837,1,207467,250960,0.04,-0.84,9.97,-0.03,-0.01,-0.01,30.87
41920192,1829,1,207556,251305,0.04,-0.82,9.94,-0.03,-0.01,-0.01,30.87
41960192,1831,1,207644,251860,0.07,-0.82,9.93,-0.03,-0.01,-0.01,30.87
42000192,1835,1,208002,252736,0.03,-0.82,9.95,-0.03,-0.01,-0.01,30.87
42040192,1836,1,208311,253471,0.04,-0.85,9.94,-0.03,-0.01,-0.00,30.87
42080192,1831,1,208467,254329,0.06,-0.82,9.95,-0.03,-0.01,-0.00,30.87
42120189,1837,1,208790,254343,0.04,-0.84,9.95,-0.03,-0.01,-0.00,30.87
42160193,1828,1,208020,249906,0.04,-0.83,9.93,-0.03,-0.01,-0.01,30.87
42200192,1839,1,206213,247133,0.06,-0.81,9.96,-0.03,-0.01,-0.00,30.87
42240193,1839,1,205856,247222,0.08,-0.84,9.93,-0.03,-0.01,-0.01,30.87
42280192,1835,1,206072,247224,0.04,-0.84,9.93,-0.03,-0.01,-0.01,30.87
42320879,1831,1,206064,247400,0.04,-0.83,9.96,-0.03,-0.01,-0.01,30.99
42359241,1841,1,206167,248150,0.04,-0.82,9.95,-0.03,-0.01,-0.01,30.99
42399192,1836,1,206516,249253,0.03,-0.83,9.96,-0.03,-0.01,-0.01,30.99
42439193,1835,1,206851,249463,0.05,-0.81,9.96,-0.03,-0.01,-0.00,30.99
42479192,1829,1,206848,249791,0.05,-0.83,9.96,-0.03,-0.01,-0.01,30.99
42519192,1835,1,207018,250126,0.06,-0.85,9.94,-0.03,-0.01,-0.00,30.99
42559212,1831,1,207160,250833,0.05,-0.84,9.93,-0.03,-0.01,-0.01,30.99
42599193,1837,1,207434,251295,0.05,-0.84,9.94,-0.03,-0.01,-0.01,30.99
42639193,1840,1,207592,251858,0.04,-0.82,9.96,-0.03,-0.01,-0.01,30.99
42679192,1840,1,207809,252196,0.02,-0.84,9.96,-0.03,-0.01,-0.00,30.99
42719193,1837,1,207990,252706,0.06,-0.85,9.95,-0.03,-0.01,-0.00,30.99
42759190,1839,1,208105,253121,0.04,-0.82,9.99,-0.03,-0.01,-0.00,30.99
42799192,1838,1,208277,253631,0.04,-0.82,9.97,-0.03,-0.01,-0.01,30.99
42839192,1837,1,208032,250192,0.03,-0.83,9.97,-0.03,-0.01,-0.01,30.99
42879192,1838,1,206033,246977,0.04,-0.81,9.96,-0.03,-0.01,-0.01,30.99
42919192,1837,1,205788,246529,0.03,-0.81,9.95,-0.03,-0.01,-0.01,30.99
42959192,1839,1,205689,246604,0.05,-0.82,9.95,-0.03,-0.01,-0.00,30.99
42999193,1825,1,205716,246554,0.03,-0.84,9.97,-0.03,-0.01,-0.01,30.99
43039192,1839,1,205809,246852,0.03,-0.84,9.96,-0.03,-0.01,-0.00,30.99
43079193,1840,1,206124,247827,0.03,-0.84,9.94,-0.04,-0.01,-0.00,30.99
43119192,1840,1,206406,248108,0.06,-0.83,9.97,-0.03,-0.01,-0.00,30.99
43159193,1834,1,206474,247960,0.05,-0.82,9.96,-0.03,-0.01,-0.00,30.99
43199192,1841,1,206418,248162,0.03,-0.84,9.92,-0.03,-0.01,-0.00,30.99
43239192,1842,1,206474,248469,0.06,-0.83,9.97,-0.03,-0.01,-0.01,30.99
43279192,1835,1,206701,248783,0.05,-0.82,9.96,-0.03,-0.01,-0.01,30.99
43319192,1835,1,206873,249061,0.05,-0.83,9.96,-0.03,-0.01,-0.00,30.99
43359879,1839,1,206909,249452,0.05,-0.84,9.95,-0.03,-0.01,-0.01,30.91
43400192,1833,1,207198,249653,0.03,-0.83,9.94,-0.03,-0.01,-0.00,30.91
43440192,1837,1,207273,250142,0.04,-0.82,9.96,-0.03,-0.01,-0.01,30.91
43480192,1837,1,207464,250382,0.05,-0.83,9.97,-0.04,-0.01,-0.01,30.91
43520192,1834,1,207192,247651,0.05,-0.83,9.95,-0.03,-0.01,-0.00,30.91
43560189,1837,1,205919,245806,0.03,-0.82,9.96,-0.03,-0.01,-0.01,30.91
43600192,1837,1,205536,245835,0.03,-0.81,9.94,-0.03,-0.01,-0.00,30.91
43640189,1846,1,205754,245983,0.05,-0.83,9.96,-0.03,-0.01,-0.00,30.91
43680192,1840,1,205744,246080,0.05,-0.85,9.96,-0.03,-0.01,-0.01,30.91
43720192,1837,1,205836,246785,0.05,-0.82,9.91,-0.03,-0.01,-0.00,30.91
43760192,1837,1,206299,247930,0.04,-0.84,9.94,-0.03,-0.01,-0.00,30.91
43800189,1824,1,206573,248049,0.06,-0.82,9.97,-0.03,-0.01,-0.01,30.91
43840192,1838,1,206513,248196,0.03,-0.84,9.96,-0.03,-0.01,-0.01,30.91
43880192,1833,1,206642,248488,0.04,-0.83,9.95,-0.03,-0.01,-0.00,30.91
43920193,1840,1,206745,249220,0.04,-0.82,9.96,-0.04,-0.01,-0.01,30.91
43960192,1839,1,207053,249722,0.03,-0.82,9.97,-0.03,-0.01,-0.01,30.91
44000239,1830,1,207146,250293,0.05,-0.83,9.94,-0.03,-0.01,-0.01,30.91
44040193,1830,1,207446,250797,0.05,-0.86,9.95,-0.03,-0.01,-0.00,30.91
44080192,1829,1,207576,251342,0.05,-0.84,9.96,-0.03,-0.01,-0.01,30.91
44120192,1829,1,207806,251841,0.04,-0.83,9.96,-0.03,-0.01,-0.01,30.91
44160192,1831,1,207846,251295,0.05,-0.83,9.97,-0.03,-0.01,-0.00,30.91
44200226,1823,1,206638,247144,0.04,-0.83,9.93,-0.04,-0.01,-0.01,30.91
44240192,1837,1,205648,246121,0.02,-0.83,9.92,-0.04,-0.01,-0.01,30.91
44280193,1841,1,205663,246152,0.05,-0.84,9.96,-0.03,-0.01,-0.01,30.91
44320192,1843,1,205681,246165,0.05,-0.85,9.96,-0.03,-0.01,-0.00,30.91
44360876,1838,1,205626,246438,0.04,-0.83,9.94,-0.03,-0.01,-0.01,30.91
44399192,1823,1,205817,247294,0.03,-0.81,9.97,-0.03,-0.01,-0.01,30.91
44439192,1834,1,206144,247983,0.03,-0.83,9.94,-0.03,-0.01,-0.00,30.91
44479192,1837,1,206229,248092,0.05,-0.83,9.95,-0.03,-0.01,-0.01,30.91
44519192,1837,1,206273,248399,0.02,-0.84,9.94,-0.03,-0.01,-0.01,30.91
44559192,1842,1,206486,248803,0.02,-0.85,9.97,-0.03,-0.01,-0.01,30.91
44599192,1839,1,206792,249312,0.03,-0.82,9.96,-0.03,-0.01,-0.00,30.91
44639192,1838,1,206918,249750,0.01,-0.84,9.98,-0.03,-0.01,-0.00,30.91
44679189,1839,1,206973,250307,0.03,-0.83,9.94,-0.03,-0.01,-0.01,30.91
44719192,1834,1,207307,250938,0.04,-0.84,9.98,-0.03,-0.01,-0.00,30.91
44759189,1826,1,207496,251527,0.05,-0.81,9.96,-0.03,-0.01,-0.01,30.91
44799192,1831,1,207592,252034,0.02,-0.84,9.96,-0.03,-0.01,-0.00,30.91
44839189,1840,1,207509,249592,0.02,-0.83,9.96,-0.03,-0.01,-0.00,30.91
44879192,1831,1,205903,246468,0.03,-0.84,9.96,-0.03,-0.01,-0.00,30.91
44919189,1835,1,205511,245994,0.04,-0.81,9.95,-0.03,-0.01,-0.01,30.91
44959192,1830,1,205499,246043,0.04,-0.84,9.93,-0.03,-0.01,-0.01,30.91
44999192,1834,1,205471,245979,0.03,-0.82,9.99,-0.03,-0.01,-0.00,30.91
45039192,1830,1,205465,246268,0.03,-0.85,9.96,-0.03,-0.01,-0.01,30.91
45079192,1834,1,205658,247247,0.07,-0.85,9.94,-0.03,-0.01,-0.00,30.91
45119192,1838,1,205965,247756,0.05,-0.83,9.95,-0.03,-0.01,-0.01,30.91
45159192,1841,1,206146,247992,0.02,-0.82,9.94,-0.03,-0.01,-0.00,30.91
45199192,1834,1,206254,248393,0.04,-0.83,9.95,-0.03,-0.01,-0.01,30.91
45239192,1837,1,206412,248787,0.05,-0.85,9.95,-0.03,-0.01,-0.01,30.91
45279192,1841,1,206509,249405,0.04,-0.83,9.97,-0.03,-0.01,-0.00,30.91
45319189,1836,1,206746,249816,0.03,-0.83,9.94,-0.03,-0.01,-0.01,30.91
45359192,1843,1,206885,250196,0.02,-0.82,9.94,-0.03,-0.01,-0.00,30.91
45399876,1835,1,207096,250737,0.05,-0.82,9.96,-0.03,-0.01,-0.00,30.73
45438192,1856,1,207285,251334,0.04,-0.81,9.96,-0.03,-0.01,-0.00,30.73
45478189,1859,1,207498,251786,0.03,-0.82,9.95,-0.03,-0.01,-0.01,30.73
45518192,1851,1,207403,249899,0.04,-0.83,9.95,-0.03,-0.01,-0.00,30.73
45558189,1854,1,205868,246357,0.03,-0.84,9.97,-0.03,-0.01,-0.00,30.73
45598193,1853,1,205234,245787,0.04,-0.82,9.93,-0.03,-0.01,-0.00,30.73
45638214,1851,1,205325,245769,0.03,-0.84,9.93,-0.03,-0.01,-0.00,30.73
45678192,1856,1,205392,245645,0.03,-0.82,9.96,-0.03,-0.01,-0.01,30.73
45718192,1850,1,205313,245828,0.04,-0.82,9.95,-0.03,-0.01,-0.00,30.73
45758192,1852,1,205590,246705,0.05,-0.83,9.94,-0.03,-0.01,-0.00,30.73
45798189,1840,1,205964,247241,0.02,-0.84,9.97,-0.03,-0.01,-0.01,30.73
45838215,1841,1,206001,247308,0.04,-0.83,9.95,-0.03,-0.01,-0.01,30.73
45878192,1849,1,206051,247646,0.05,-0.85,9.94,-0.03,-0.01,-0.00,30.73
45918192,1847,1,206114,248254,0.04,-0.81,9.94,-0.03,-0.01,-0.01,30.73
45958192,1846,1,206464,248765,0.03,-0.80,9.95,-0.03,-0.01,-0.01,30.73
45998192,1845,1,206659,249360,0.04,-0.83,9.99,-0.03,-0.01,-0.01,30.73
46038192,1841,1,206852,249819,0.05,-0.84,9.94,-0.03,-0.01,-0.01,30.73
46078193,1843,1,207017,250459,0.04,-0.83,9.95,-0.03,-0.01,-0.00,30.73
46118190,1850,1,207250,251118,0.05,-0.83,9.96,-0.03,-0.01,-0.01,30.73
46158192,1845,1,207429,251730,0.04,-0.85,9.95,-0.03,-0.01,-0.01,30.73
46198189,1843,1,207512,251505,0.04,-0.84,9.97,-0.03,-0.01,-0.00,30.73
46238193,1849,1,206589,247096,0.05,-0.81,9.95,-0.03,-0.01,-0.01,30.73
46278189,1846,1,205398,245847,0.02,-0.83,9.96,-0.03,-0.01,-0.01,30.73
46318192,1845,1,205217,245857,0.03,-0.81,9.95,-0.03,-0.01,-0.00,30.73
46358189,1847,1,205326,245799,0.04,-0.83,9.95,-0.03,-0.01,-0.00,30.73
46398192,1841,1,205329,245771,0.02,-0.83,9.95,-0.03,-0.01,-0.00,30.73
46438876,1831,1,205404,246309,0.03,-0.83,9.94,-0.03,-0.01,-0.00,30.77
46479192,1837,1,205696,246975,0.06,-0.81,9.92,-0.03,-0.01,-0.01,30.77
46519192,1829,1,205802,247020,0.03,-0.81,9.97,-0.03,-0.01,-0.01,30.77
46559192,1840,1,205765,247132,0.04,-0.83,9.94,-0.03,-0.01,-0.00,30.77
46599189,1838,1,205770,247382,0.04,-0.83,9.98,-0.03,-0.01,-0.01,30.77
46639192,1823,1,205907,247521,0.04,-0.83,9.96,-0.03,-0.01,-0.00,30.77
46679189,1827,1,206041,247893,0.04,-0.83,9.95,-0.03,-0.01,-0.00,30.77
46719192,1840,1,206226,248431,0.04,-0.83,9.96,-0.03,-0.01,-0.00,30.77
46759189,1841,1,206362,249005,0.02,-0.82,9.96,-0.03,-0.01,-0.00,30.77
46799192,1831,1,206578,249610,0.03,-0.84,9.95,-0.03,-0.01,-0.00,30.77
46839189,1829,1,206786,249997,0.04,-0.84,9.96,-0.03,-0.01,-0.01,30.77
46879192,1835,1,206977,249940,0.02,-0.84,9.97,-0.03,-0.01,-0.00,30.77
46919190,1841,1,206068,246523,0.04,-0.83,9.96,-0.04,-0.01,-0.01,30.77
46959192,1840,1,205191,245575,0.04,-0.85,9.96,-0.03,-0.01,-0.01,30.77
46999192,1850,1,205235,245652,0.04,-0.82,9.96,-0.03,-0.01,-0.01,30.77
47039192,1841,1,205257,245699,0.04,-0.84,9.93,-0.03,-0.01,-0.01,30.77
47079192,1831,1,205261,245984,0.02,-0.82,9.99,-0.03,-0.01,-0.01,30.77
47119192,1834,1,205455,246810,0.03,-0.82,9.97,-0.03,-0.01,-0.00,30.77
47159189,1840,1,205828,247440,0.05,-0.83,9.93,-0.03,-0.01,-0.01,30.77
47199192,1839,1,205901,247837,0.05,-0.83,9.94,-0.03,-0.01,-0.01,30.77
47239192,1834,1,205966,248123,0.06,-0.82,9.95,-0.03,-0.01,-0.00,30.77
47279198,1830,1,206171,248569,0.04,-0.84,9.97,-0.03,-0.01,-0.00,30.77
47319189,1836,1,206384,248990,0.05,-0.85,9.93,-0.03,-0.01,-0.01,30.77
47359192,1838,1,206511,249670,0.05,-0.82,9.95,-0.03,-0.01,-0.01,30.77
47399192,1840,1,206748,250333,0.02,-0.83,9.98,-0.03,-0.01,-0.01,30.77
47439879,1840,1,206927,250857,0.02,-0.82,9.96,-0.03,-0.01,-0.01,30.73
47478209,1840,1,207127,251446,0.06,-0.83,9.94,-0.03,-0.01,-0.00,30.73
47518192,1840,1,207302,251715,0.06,-0.83,9.97,-0.03,-0.01,-0.00,30.73
47558189,1841,1,206935,248374,0.02,-0.84,9.97,-0.03,-0.01,-0.01,30.73
47598192,1842,1,205462,246193,0.02,-0.84,9.98,-0.03,-0.01,-0.00,30.73
47638189,1842,1,205163,246141,0.05,-0.83,9.97,-0.03,-0.01,-0.00,30.73
47678193,1834,1,205322,246474,0.05,-0.84,9.94,-0.04,-0.01,-0.00,30.73
47719189,1839,1,205392,246568,0.03,-0.84,9.96,-0.03,-0.01,-0.01,30.73
47759192,1838,1,205418,247130,0.04,-0.80,9.96,-0.03,-0.01,-0.00,30.73
47799188,1838,1,205843,248259,0.02,-0.83,9.94,-0.03,-0.01,-0.00,30.73
47839193,1835,1,206227,248923,0.05,-0.83,9.97,-0.03,-0.01,-0.01,30.73
47879192,1840,1,206436,249138,0.04,-0.82,9.98,-0.03,-0.01,-0.01,30.73
47919192,1842,1,206496,249478,0.04,-0.84,9.91,-0.03,-0.01,-0.01,30.73
47959192,1839,1,206671,250195,0.03,-0.83,9.97,-0.03,-0.01,-0.00,30.73
47999192,1837,1,206871,250840,0.01,-0.83,9.97,-0.03,-0.01,-0.01,30.73
48039192,1820,1,207184,251460,0.03,-0.84,9.94,-0.03,-0.01,-0.00,30.73
48079192,1836,1,207279,251825,0.04,-0.84,9.95,-0.03,-0.01,-0.00,30.73
48119189,1834,1,207528,252543,0.03,-0.82,9.96,-0.03,-0.01,-0.01,30.73
48159192,1836,1,207807,253161,0.03,-0.82,9.94,-0.03,-0.01,-0.00,30.73
48199190,1833,1,207939,252824,0.04,-0.82,9.95,-0.03,-0.01,-0.00,30.73
48239192,1837,1,207071,248313,0.02,-0.82,9.94,-0.03,-0.01,-0.01,30.73
48279192,1840,1,205531,246443,0.02,-0.82,9.96,-0.03,-0.01,-0.00,30.73
48319193,1843,1,205422,246507,0.02,-0.84,9.92,-0.03,-0.01,-0.00,30.73
48359189,1844,1,205386,246634,0.03,-0.82,9.94,-0.03,-0.01,-0.01,30.73
48399192,1840,1,205373,246718,0.04,-0.83,9.94,-0.03,-0.01,-0.01,30.73
48439879,1846,1,205443,247299,0.03,-0.84,9.96,-0.03,-0.01,-0.00,30.57
48478192,1842,1,205943,248257,0.04,-0.85,9.96,-0.03,-0.01,-0.00,30.57
48518189,1839,1,206219,248585,0.04,-0.85,9.97,-0.03,-0.01,-0.00,30.57
48558193,1838,1,206135,248514,0.03,-0.83,9.96,-0.03,-0.01,-0.00,30.57
48598190,1841,1,206200,248708,0.01,-0.83,9.94,-0.03,-0.01,-0.01,30.57
48638193,1835,1,206234,248931,0.04,-0.84,9.94,-0.03,-0.01,-0.01,30.57
48678192,1848,1,206325,249227,0.04,-0.82,9.95,-0.03,-0.01,-0.00,30.57
48719193,1828,1,206517,249497,0.04,-0.84,9.92,-0.03,-0.01,-0.01,30.57
48759192,1840,1,206750,250021,0.03,-0.84,9.97,-0.03,-0.01,-0.00,30.57
48799192,1840,1,207021,250664,0.05,-0.83,9.95,-0.04,-0.01,-0.01,30.57
48839192,1827,1,207341,251597,0.03,-0.83,9.97,-0.03,-0.01,-0.01,30.57
48879192,1835,1,207608,252121,0.04,-0.83,9.97,-0.04,-0.01,-0.01,30.57
48919193,1837,1,206878,247871,0.04,-0.81,9.96,-0.03,-0.01,-0.00,30.57
48959192,1827,1,205350,245892,0.04,-0.85,9.95,-0.03,-0.01,-0.00,30.57
48999189,1831,1,205101,245457,0.04,-0.84,9.96,-0.03,-0.02,-0.01,30.57
49039192,1837,1,204999,244893,0.03,-0.83,9.95,-0.03,-0.02,-0.00,30.57
49079189,1839,1,204973,244673,0.06,-0.84,9.96,-0.03,-0.02,-0.00,30.57
49119192,1847,1,204898,244791,0.05,-0.82,9.94,-0.03,-0.02,-0.00,30.57
49159189,1841,1,205203,245494,0.06,-0.86,9.91,-0.04,-0.01,-0.01,30.57
49199192,1844,1,205291,245781,0.06,-0.86,9.96,-0.03,-0.01,-0.00,30.57
49239192,1833,1,205330,245922,0.06,-0.84,9.94,-0.03,-0.01,-0.01,30.57
49279192,1839,1,205443,246234,0.05,-0.78,9.97,-0.03,-0.01,-0.00,30.57
49319194,1834,1,205491,246437,0.04,-0.85,9.99,-0.04,-0.01,-0.01,30.57
49359192,1829,1,205717,246766,0.08,-0.85,9.97,-0.03,-0.01,-0.01,30.57
49399192,1839,1,205751,247481,0.05,-0.81,9.94,-0.04,-0.01,-0.01,30.57
49439879,1839,1,205984,248309,0.05,-0.82,9.95,-0.03,-0.01,-0.01,30.53
49478192,1838,1,206240,248859,0.04,-0.83,9.98,-0.03,-0.01,-0.00,30.53
49518193,1835,1,206320,248219,0.04,-0.85,9.97,-0.03,-0.02,-0.01,30.53
49558192,1843,1,205936,246134,0.08,-0.81,9.93,-0.03,-0.01,-0.01,30.53
49598192,1841,1,204952,245132,0.03,-0.82,9.90,-0.04,0.01,-0.01,30.53
49638169,1845,1,204896,245761,0.04,-0.81,9.94,-0.04,0.01,-0.01,30.53
49678172,1842,1,205109,246032,-0.00,-0.86,9.99,-0.04,-0.01,-0.01,30.53
49718205,1845,1,204827,245250,0.06,-0.85,10.00,-0.03,-0.02,-0.00,30.53
49759192,1856,1,204760,244774,0.04,-0.83,9.94,-0.03,-0.03,-0.00,30.53
49799190,1855,1,204918,245405,0.03,-0.81,9.92,-0.04,-0.01,-0.00,30.53
49839193,1851,1,205043,245725,0.02,-0.87,9.97,-0.04,0.00,-0.01,30.53
49879169,1861,1,205066,245568,0.04,-0.82,9.96,-0.03,-0.01,-0.00,30.53
49919192,1857,1,205000,245733,0.06,-0.82,9.95,-0.03,-0.01,-0.00,30.53
49959190,1856,1,205173,246290,0.04,-0.81,9.98,-0.03,-0.01,-0.01,30.53
49999192,1856,1,205507,247298,0.02,-0.85,9.90,-0.03,-0.00,-0.01,30.53
50039189,1856,1,205840,248033,0.04,-0.84,9.97,-0.03,-0.01,-0.00,30.53
50079192,1855,1,206040,248554,0.02,-0.82,9.95,-0.03,-0.01,-0.01,30.53
50119192,1856,1,206195,249154,0.03,-0.81,9.97,-0.03,-0.01,-0.00,30.53
50159192,1861,1,206381,249704,0.03,-0.82,9.94,-0.03,-0.01,-0.01,30.53
50199192,1862,1,206559,248724,0.04,-0.86,9.92,-0.04,-0.01,-0.01,30.53
50239192,1863,1,205227,246042,0.07,-0.84,9.92,-0.04,-0.00,-0.01,30.53
50279189,1862,1,204804,245711,0.02,-0.83,9.96,-0.04,-0.00,-0.00,30.53
50319192,1870,1,204736,245475,0.02,-0.81,9.96,-0.03,-0.01,-0.00,30.53
50359189,1866,1,204680,244993,0.01,-0.87,9.94,-0.03,-0.02,-0.00,30.53
50399192,1867,1,204455,244428,0.05,-0.84,9.99,-0.03,-0.02,-0.00,30.53
50439876,1859,1,204455,244694,0.06,-0.82,9.87,-0.03,-0.02,-0.00,30.51
50478192,1851,1,204773,245733,0.05,-0.82,9.99,-0.04,-0.00,-0.00,30.51
50518189,1856,1,205050,246197,0.04,-0.84,9.94,-0.03,-0.01,-0.00,30.51
50558192,1856,1,205182,246345,0.06,-0.85,9.96,-0.04,-0.01,-0.01,30.51
50598192,1853,1,205146,246189,0.04,-0.82,9.94,-0.03,-0.01,-0.00,30.51
50638192,1858,1,205245,246292,0.03,-0.83,9.93,-0.03,-0.01,-0.00,30.51
50678189,1854,1,205267,246673,0.06,-0.80,9.95,-0.04,-0.01,-0.01,30.51
50718192,1855,1,205542,247021,0.03,-0.87,9.98,-0.04,-0.00,-0.01,30.51
50757189,1872,1,205654,247231,0.04,-0.85,9.97,-0.03,-0.01,-0.00,30.51
50797192,1859,1,205870,247744,0.05,-0.83,9.94,-0.03,-0.00,-0.01,30.51
50837189,1861,1,206039,248274,0.02,-0.80,9.99,-0.03,-0.01,-0.01,30.51
50877193,1863,1,205892,246834,0.01,-0.86,9.93,-0.03,-0.01,-0.01,30.51
50917192,1861,1,204794,244515,0.03,-0.84,9.95,-0.03,-0.01,-0.01,30.51
50957192,1847,1,204418,244019,0.06,-0.83,9.94,-0.03,-0.01,-0.00,30.51
50997189,1855,1,204404,244126,0.02,-0.81,9.98,-0.03,-0.01,-0.00,30.51
51037192,1850,1,204236,244001,0.06,-0.83,9.95,-0.03,-0.01,-0.01,30.51
51077192,1856,1,204399,244207,0.02,-0.85,9.92,-0.03,-0.01,-0.01,30.51
51117192,1851,1,204663,245222,0.05,-0.82,9.96,-0.04,-0.01,-0.01,30.51
51157192,1854,1,204963,245713,0.02,-0.82,9.94,-0.04,-0.01,-0.01,30.51
51197192,1843,1,204855,244779,0.03,-0.81,10.03,-0.03,-0.02,-0.00,30.51
51237189,1843,1,204778,244453,0.02,-0.81,9.92,-0.03,-0.02,-0.00,30.51
51277192,1850,1,204757,244109,0.06,-0.85,9.92,-0.03,-0.01,-0.00,30.51
51317192,1846,1,204707,244192,0.09,-0.85,9.89,-0.03,-0.01,-0.01,30.51
51357192,1843,1,204980,245690,0.05,-0.82,9.91,-0.04,0.01,-0.01,30.51
51397169,1840,1,205518,247862,0.02,-0.83,9.96,-0.04,0.02,-0.01,30.51
51437172,1844,1,206255,249143,-0.03,-0.85,10.03,-0.03,0.01,-0.01,30.51
51477879,1835,1,206103,248030,0.01,-0.82,9.97,-0.03,-0.03,-0.00,30.53
51518192,1838,1,205673,247198,0.03,-0.83,9.88,-0.03,-0.03,-0.00,30.53
51558189,1825,1,205535,246304,0.04,-0.82,9.94,-0.03,-0.01,-0.01,30.53
51598192,1837,1,204625,243900,0.05,-0.82,9.96,-0.03,-0.01,-0.01,30.53
51638192,1835,1,204053,243427,0.02,-0.84,9.97,-0.03,-0.02,-0.01,30.53
51678192,1829,1,203961,244060,-0.00,-0.86,9.95,-0.04,0.00,-0.01,30.53
51718189,1835,1,204225,244146,0.05,-0.85,9.94,-0.03,-0.01,-0.00,30.53
51758192,1827,1,204174,244034,0.04,-0.85,9.96,-0.03,-0.02,-0.00,30.53
51798189,1838,1,204212,244290,0.02,-0.80,10.00,-0.03,-0.02,-0.00,30.53
51838192,1840,1,204236,244374,0.05,-0.83,9.91,-0.03,-0.01,-0.00,30.53
51878189,1840,1,204409,244676,0.04,-0.85,9.95,-0.04,-0.01,-0.01,30.53
51918192,1836,1,204409,244797,0.06,-0.82,9.97,-0.03,-0.01,-0.01,30.53
51958192,1836,1,204486,244638,0.01,-0.82,10.01,-0.03,-0.01,-0.00,30.53
51998192,1840,1,204407,244876,0.03,-0.85,9.89,-0.04,-0.01,-0.01,30.53
52038192,1838,1,204835,246831,0.03,-0.84,9.92,-0.04,0.01,-0.01,30.53
52078172,1840,1,205473,248120,0.02,-0.84,9.95,-0.03,-0.00,-0.01,30.53
52118189,1834,1,205463,247230,0.05,-0.82,10.06,-0.03,-0.02,-0.00,30.53
52158192,1837,1,205069,246286,0.02,-0.82,9.95,-0.03,-0.03,-0.00,30.53
52198189,1840,1,204990,246880,0.01,-0.82,9.89,-0.04,-0.00,-0.01,30.53
52238193,1831,1,205395,246432,0.02,-0.82,9.95,-0.04,0.00,-0.01,30.53
52278169,1839,1,204300,243851,0.06,-0.85,10.01,-0.03,-0.02,-0.00,30.53
52318193,1840,1,203822,243165,0.03,-0.81,10.00,-0.03,-0.01,-0.01,30.53
52358189,1840,1,203806,243763,0.03,-0.82,9.91,-0.04,-0.00,-0.01,30.53
52398199,1840,1,204282,245442,0.01,-0.85,9.90,-0.04,0.03,-0.01,30.53
52438169,1840,1,204692,246528,0.00,-0.86,10.01,-0.04,-0.00,-0.01,30.53
52478879,1838,1,205072,247151,0.04,-0.81,10.02,-0.03,-0.01,-0.00,30.79
52517189,1846,1,205064,247145,-0.03,-0.82,9.98,-0.03,-0.01,-0.01,30.79
52557209,1855,1,205008,247561,0.01,-0.87,9.93,-0.03,-0.01,-0.00,30.79
52597226,1840,1,205197,247646,0.01,-0.83,9.90,-0.03,-0.02,-0.00,30.79
52637192,1853,1,205096,246722,0.00,-0.82,10.05,-0.03,-0.04,-0.00,30.79
52677189,1843,1,204584,246367,0.05,-0.85,9.95,-0.03,-0.05,-0.00,30.79
52717192,1845,1,204818,246929,0.05,-0.84,9.93,-0.03,-0.01,-0.00,30.79
52757192,1841,1,205020,248016,0.07,-0.84,9.89,-0.03,-0.01,-0.01,30.79
52797192,1847,1,205815,250499,0.08,-0.85,9.97,-0.04,-0.00,-0.01,30.79
52837189,1845,1,206577,252198,0.01,-0.83,10.00,-0.03,-0.00,-0.01,30.79
52877192,1856,1,206876,252232,0.06,-0.82,10.01,-0.03,-0.02,-0.00,30.79
52917192,1840,1,206046,247496,0.05,-0.80,9.96,-0.03,-0.02,-0.00,30.79
52957192,1852,1,204254,245160,0.03,-0.84,9.91,-0.04,-0.00,-0.01,30.79
52997192,1840,1,204192,245150,0.03,-0.83,9.92,-0.03,-0.01,-0.00,30.79
53037192,1845,1,204401,245147,0.05,-0.83,9.98,-0.03,-0.02,-0.00,30.79
53077192,1840,1,204498,245220,0.04,-0.84,9.98,-0.03,-0.01,-0.00,30.79
53117192,1840,1,204666,245982,0.04,-0.82,9.96,-0.03,-0.01,-0.01,30.79
53157192,1841,1,205059,246834,0.06,-0.81,9.92,-0.04,-0.01,-0.01,30.79
53197193,1855,1,205386,247728,0.06,-0.85,9.92,-0.04,-0.01,-0.01,30.79
53237192,1846,1,205682,249018,0.05,-0.84,9.94,-0.04,-0.00,-0.01,30.79
53277192,1851,1,206084,249959,0.00,-0.83,9.97,-0.04,-0.00,-0.01,30.79
53317189,1850,1,206329,250188,0.03,-0.84,9.99,-0.03,-0.01,-0.00,30.79
53357192,1843,1,206394,250349,0.04,-0.86,9.95,-0.03,-0.01,-0.00,30.79
53397192,1856,1,206514,251027,0.06,-0.85,9.94,-0.03,-0.01,-0.00,30.79
53437192,1856,1,206727,252150,0.04,-0.82,9.94,-0.04,-0.01,-0.01,30.79
53477193,1845,1,207119,253564,0.02,-0.85,9.94,-0.04,0.00,-0.01,30.79
53517859,1842,1,207695,255041,0.06,-0.84,9.96,-0.04,-0.00,-0.01,30.91
53558189,1851,1,207685,252791,0.04,-0.83,9.93,-0.04,-0.00,-0.01,30.91
53598192,1843,1,206123,250442,0.03,-0.84,9.98,-0.04,-0.01,-0.01,30.91
53638192,1843,1,206012,251270,0.03,-0.84,9.95,-0.03,-0.01,-0.01,30.91
53678192,1846,1,206431,252458,0.04,-0.84,9.96,-0.03,-0.01,-0.00,30.91
53718189,1843,1,206741,253537,0.02,-0.84,9.90,-0.03,-0.01,-0.01,30.91
53758192,1843,1,207225,255260,0.03,-0.85,9.99,-0.04,-0.01,-0.00,30.91
53798190,1841,1,207799,255573,0.02,-0.80,10.00,-0.03,-0.01,-0.00,30.91
53838192,1840,1,207486,254752,-0.02,-0.86,9.96,-0.03,-0.02,-0.00,30.91
53878206,1843,1,207518,255856,0.04,-0.87,9.87,-0.04,-0.01,-0.01,30.91
53918192,1843,1,208129,257912,0.07,-0.83,9.94,-0.04,0.00,-0.01,30.91
53958170,1839,1,208726,259030,0.05,-0.83,9.97,-0.04,0.00,-0.01,30.91
53998172,1845,1,208966,259218,-0.00,-0.81,10.02,-0.03,-0.01,-0.00,30.91
54038212,1854,1,208622,258098,0.00,-0.81,9.98,-0.03,-0.01,-0.00,30.91
54078192,1852,1,208323,256529,0.02,-0.87,9.88,-0.03,-0.02,-0.00,30.91
54118189,1853,1,207872,255087,0.03,-0.81,9.89,-0.03,-0.02,-0.00,30.91
54158192,1840,1,207292,252581,0.08,-0.84,10.03,-0.03,-0.03,-0.00,30.91
54198189,1842,1,205957,246209,0.01,-0.82,10.00,-0.02,-0.03,-0.00,30.91
54238205,1834,1,204518,243967,0.04,-0.79,9.96,-0.02,-0.04,0.01,30.91
54278169,1824,1,204405,241321,0.09,-0.82,9.92,-0.03,-0.04,0.01,30.91
54318172,1776,1,203485,236243,0.11,-0.86,9.90,-0.03,-0.02,0.00,30.91
54358169,1792,1,203171,237027,0.09,-0.83,9.91,-0.04,-0.01,-0.01,30.91
54398192,1799,1,204221,239792,0.08,-0.83,9.93,-0.04,-0.00,-0.01,30.91
54438196,1808,1,205102,242848,0.08,-0.83,9.94,-0.04,0.01,-0.01,30.91
54478172,1823,1,205789,244385,0.06,-0.81,9.97,-0.04,-0.01,-0.01,30.91
54518879,1834,1,206006,245038,0.06,-0.83,9.95,-0.04,-0.01,-0.01,31.15
54557192,1841,1,206186,245296,0.07,-0.86,9.92,-0.04,-0.01,-0.01,31.15
54597192,1853,1,206365,245409,0.06,-0.85,9.95,-0.04,-0.01,-0.01,31.15
54637192,1847,1,206387,245510,0.06,-0.83,9.96,-0.03,-0.01,-0.01,31.15
54677192,1857,1,206493,246109,0.06,-0.82,9.96,-0.03,-0.01,-0.01,31.15
54717193,1851,1,206802,247069,0.05,-0.83,9.94,-0.04,0.01,-0.01,31.15
54757172,1851,1,207085,247776,0.03,-0.83,9.97,-0.04,-0.01,-0.01,31.15
54797192,1851,1,207186,248316,0.06,-0.84,9.96,-0.03,-0.01,-0.01,31.15
54837192,1857,1,206768,245809,0.05,-0.84,9.99,-0.03,-0.00,-0.01,31.15
54877192,1850,1,205304,244231,0.07,-0.85,9.99,-0.03,-0.00,-0.00,31.15
54917189,1843,1,205177,243985,0.03,-0.81,9.97,-0.03,0.00,-0.00,31.15
54957172,1842,1,205486,243728,0.06,-0.84,9.97,-0.03,-0.01,-0.00,31.15
54997189,1840,1,205501,243637,0.07,-0.83,9.91,-0.03,-0.02,-0.00,31.15
55037192,1835,1,205484,243892,0.06,-0.83,9.95,-0.03,-0.01,-0.01,31.15
55077192,1843,1,205593,244291,0.03,-0.85,9.98,-0.03,-0.01,-0.01,31.15
55117192,1831,1,205652,244080,0.04,-0.83,9.97,-0.03,-0.02,-0.00,31.15
55157192,1818,1,205895,243388,-0.07,-0.82,10.13,-0.01,-0.07,0.01,31.15
55197192,1803,1,205873,239237,0.01,-0.82,9.96,-0.01,-0.05,0.17,31.15
55237172,1787,1,205226,238292,0.41,-0.98,9.89,-0.03,-0.00,0.05,31.15
55277172,1808,1,206151,241852,0.10,-0.81,9.96,-0.06,0.06,-0.02,31.15
55317172,1823,1,207141,243859,0.02,-0.84,10.01,-0.05,0.02,-0.01,31.15
55357172,1744,1,207484,244754,0.04,-0.84,9.93,-0.04,-0.01,-0.01,31.15
55397192,1824,1,207594,245244,0.03,-0.80,9.92,-0.03,-0.01,-0.01,31.15
55437192,1806,1,207681,245510,0.05,-0.83,9.92,-0.04,-0.01,-0.01,31.15
55477192,1763,1,206954,243969,0.02,-0.85,9.93,-0.04,0.02,-0.01,31.15
55517172,1826,1,206060,243847,-0.03,-0.82,9.99,-0.04,0.01,-0.01,31.15
55557879,1869,1,205952,244314,0.03,-0.85,9.94,-0.04,-0.01,-0.00,31.13
55598192,1854,1,206186,244685,0.04,-0.81,9.94,-0.04,-0.01,-0.00,31.13
55638189,1846,1,206288,245391,0.01,-0.85,9.96,-0.04,-0.01,-0.01,31.13
55678192,1849,1,206530,246604,0.02,-0.87,10.02,-0.04,-0.01,-0.01,31.13
55718192,1843,1,206880,247014,0.00,-0.77,10.01,-0.03,-0.01,-0.00,31.13
55758192,1846,1,206991,247226,-0.02,-0.82,9.97,-0.03,-0.01,-0.00,31.13
55798205,1850,1,206994,246926,0.06,-0.88,9.90,-0.03,-0.02,-0.00,31.13
55838192,1847,1,207013,247227,0.06,-0.86,9.95,-0.03,-0.02,-0.00,31.13
55878223,1846,1,207061,247776,-0.01,-0.80,10.00,-0.04,-0.00,-0.00,31.13
55918206,1854,1,207351,248200,-0.00,-0.85,10.00,-0.04,-0.01,-0.00,31.13
55958205,1847,1,207444,248630,0.07,-0.81,10.00,-0.03,-0.02,-0.00,31.13
55998192,1845,1,207612,249845,0.10,-0.89,9.95,-0.03,-0.01,-0.00,31.13
56038189,1840,1,208007,250479,0.05,-0.84,9.96,-0.03,-0.00,-0.01,31.13
56078224,1839,1,207888,247622,0.07,-0.89,9.90,-0.03,-0.02,-0.01,31.13
56118189,1825,1,206331,244468,0.08,-0.81,9.97,-0.03,-0.02,-0.01,31.13
56158192,1833,1,205902,243986,0.03,-0.87,9.96,-0.03,-0.01,-0.01,31.13
56198192,1830,1,205862,243904,-0.01,-0.89,9.94,-0.03,-0.02,-0.01,31.13
56238207,1828,1,205829,243890,0.02,-0.84,9.88,-0.04,-0.02,-0.01,31.13
56278189,1826,1,205873,244015,0.01,-0.80,10.00,-0.03,-0.01,-0.01,31.13
56318192,1817,1,206039,244514,0.01,-0.81,9.99,-0.03,-0.01,-0.00,31.13
56358189,1819,1,206213,244527,0.08,-0.81,9.96,-0.03,-0.02,-0.00,31.13
56398192,1817,1,206307,244514,0.06,-0.86,9.89,-0.03,-0.02,-0.00,31.13
56438192,1823,1,206331,244651,0.07,-0.86,9.94,-0.04,-0.01,-0.01,31.13
56478193,1825,1,206397,245265,0.05,-0.80,9.93,-0.04,-0.00,-0.01,31.13
56518188,1829,1,206559,245674,0.00,-0.82,9.97,-0.04,-0.00,-0.01,31.13
56558879,1834,1,206699,245626,0.03,-0.84,9.97,-0.03,-0.02,-0.00,30.93
56597189,1831,1,206735,245563,0.07,-0.84,9.98,-0.03,-0.03,-0.00,30.93
56637192,1823,1,206890,245637,0.06,-0.84,9.91,-0.03,-0.04,-0.00,30.93
56677189,1808,1,207023,245821,0.08,-0.83,9.91,-0.03,-0.02,-0.00,30.93
56717192,1807,1,206908,244784,0.07,-0.83,9.96,-0.04,-0.00,-0.01,30.93
56757189,1806,1,206257,243510,0.06,-0.83,9.95,-0.03,-0.01,-0.01,30.93
56797192,1808,1,206099,243175,0.06,-0.82,9.93,-0.03,-0.01,-0.01,30.93
56837192,1808,1,205994,243157,0.06,-0.84,9.95,-0.04,-0.01,-0.01,30.93
56877192,1807,1,206128,243315,0.07,-0.84,9.96,-0.03,-0.01,-0.00,30.93
56917192,1819,1,206109,243784,0.07,-0.82,9.97,-0.03,-0.00,-0.01,30.93
56957192,1825,1,206355,244264,0.04,-0.82,9.95,-0.03,-0.01,-0.00,30.93
56997192,1827,1,206541,244345,0.06,-0.83,9.94,-0.03,-0.01,-0.01,30.93
57037192,1834,1,206516,244221,0.05,-0.83,9.95,-0.03,-0.01,-0.00,30.93
57077189,1843,1,206645,244305,0.08,-0.83,9.97,-0.03,-0.01,-0.01,30.93
57117192,1854,1,206616,244313,0.06,-0.82,9.96,-0.03,-0.01,-0.01,30.93
57157193,1842,1,206790,244418,0.08,-0.83,9.93,-0.03,-0.01,-0.00,30.93
57197192,1847,1,206881,244530,0.07,-0.83,9.93,-0.03,-0.02,-0.00,30.93
57237189,1853,1,207124,244859,0.06,-0.85,9.95,-0.03,-0.02,-0.00,30.93
57277192,1853,1,207290,245044,0.09,-0.82,9.97,-0.03,-0.02,-0.00,30.93
57317189,1841,1,207405,245056,0.08,-0.82,9.95,-0.03,-0.01,-0.00,30.93
57357192,1855,1,207290,243972,0.09,-0.82,9.92,-0.04,-0.00,-0.01,30.93
57397189,1850,1,206568,243129,0.06,-0.81,9.91,-0.04,0.01,-0.01,30.93
57437172,1847,1,206279,243604,0.08,-0.84,9.89,-0.05,0.02,-0.01,30.93
57477169,1851,1,206355,244263,0.05,-0.85,10.00,-0.04,0.01,-0.01,30.93
57517223,1855,1,206375,244327,0.05,-0.85,10.01,-0.03,-0.01,-0.01,30.93
57557192,1847,1,206320,244513,0.05,-0.84,9.96,-0.03,-0.02,-0.00,30.93
57597879,1840,1,206642,245133,0.09,-0.83,9.95,-0.03,-0.01,-0.00,30.73
57636189,1855,1,206873,245597,0.05,-0.84,9.96,-0.03,-0.01,-0.01,30.73
57676193,1852,1,206932,246205,0.08,-0.81,9.91,-0.03,-0.01,-0.01,30.73
57716217,1853,1,207279,248486,0.06,-0.82,9.91,-0.04,0.00,-0.01,30.73
57756172,1847,1,208043,250907,0.05,-0.86,9.99,-0.04,0.01,-0.01,30.73
57796169,1838,1,208590,251060,0.02,-0.84,9.98,-0.04,-0.01,-0.01,30.73
57836192,1830,1,208299,249473,0.03,-0.84,9.98,-0.03,-0.04,-0.00,30.73
57876189,1829,1,207813,247907,0.06,-0.83,9.96,-0.03,-0.03,-0.00,30.73
57916192,1826,1,207341,246581,0.04,-0.87,10.02,-0.03,-0.03,-0.00,30.73
57956189,1820,1,207054,246070,0.11,-0.86,9.82,-0.03,-0.03,-0.00,30.73
57996192,1823,1,206690,244990,0.07,-0.83,9.94,-0.04,0.02,-0.01,30.73
58036172,1824,1,206037,244184,0.04,-0.84,9.89,-0.04,0.01,-0.01,30.73
58076171,1824,1,206164,243552,0.02,-0.85,10.00,-0.03,-0.03,-0.00,30.73
58116189,1823,1,206038,242580,0.11,-0.79,9.98,-0.03,-0.10,0.01,30.73
58156172,1821,1,205510,242296,0.20,-0.86,9.82,-0.03,-0.02,-0.00,30.73
58196189,1826,1,205312,243935,0.13,-0.80,9.91,-0.05,0.08,-0.02,30.73
58236172,1822,1,206138,246560,0.00,-0.80,10.00,-0.05,0.05,-0.02,30.73
58276169,1818,1,206676,244709,-0.02,-0.88,9.95,-0.02,-0.06,-0.00,30.73
58316207,1843,1,206439,243535,0.09,-0.81,10.07,-0.02,-0.15,0.02,30.73
58356172,1870,1,206082,242880,0.23,-0.85,9.78,-0.04,-0.01,-0.00,30.73
58396192,1874,1,205972,245322,0.09,-0.85,9.92,-0.06,0.12,-0.02,30.73
58436172,1917,1,207061,247675,-0.05,-0.81,9.97,-0.04,0.05,-0.02,30.73
58476192,1919,1,207272,245477,-0.02,-0.89,9.98,-0.02,-0.05,-0.00,30.73
58516204,1904,1,206883,244565,0.07,-0.82,10.02,-0.02,-0.10,0.01,30.73
58556169,1904,1,206837,244315,0.10,-0.82,10.00,-0.04,-0.00,-0.01,30.73
58596185,1887,1,206669,245112,0.06,-0.85,9.97,-0.04,0.02,-0.01,30.73
58636856,1870,1,207029,247216,0.03,-0.82,9.80,-0.04,0.02,-0.01,30.97
58677169,1863,1,207523,246024,0.03,-0.86,9.96,-0.03,-0.02,-0.00,30.97
58717188,1857,1,206332,243322,0.10,-0.84,10.00,-0.03,-0.04,-0.00,30.97
58756186,1851,1,205686,243164,0.04,-0.82,9.97,-0.04,0.01,-0.01,30.97
58796172,1859,1,205691,243911,0.05,-0.85,9.97,-0.04,0.02,-0.01,30.97
58836170,1855,1,205924,244292,0.05,-0.83,9.96,-0.03,-0.01,-0.00,30.97
58876192,1853,1,206214,244140,0.05,-0.84,9.94,-0.03,-0.03,-0.00,30.97
58916186,1857,1,206523,244173,0.07,-0.84,9.92,-0.03,-0.04,-0.00,30.97
58956187,1861,1,206765,244139,0.10,-0.82,9.95,-0.03,-0.03,-0.00,30.97
58996186,1880,1,206802,244513,0.11,-0.82,9.95,-0.04,-0.01,-0.01,30.97
59036191,1883,1,206902,245509,0.09,-0.82,9.95,-0.04,0.01,-0.01,30.97
59076169,1893,1,207116,246061,0.04,-0.84,9.97,-0.04,-0.01,-0.01,30.97
59116191,1904,1,207199,245938,0.05,-0.85,9.94,-0.03,-0.02,-0.01,30.97
59156194,1933,1,207151,246235,0.09,-0.84,9.92,-0.03,-0.01,-0.00,30.97
59196188,1938,1,207354,247434,0.10,-0.84,9.89,-0.04,0.03,-0.01,30.97
59236169,1952,1,207417,247450,0.02,-0.83,10.05,-0.04,-0.01,-0.00,30.97
59276192,1966,1,207515,248919,0.08,-0.82,9.90,-0.04,-0.02,-0.01,30.97
59316189,1975,1,208314,251608,0.04,-0.84,9.90,-0.04,0.00,-0.01,30.97
59356176,1983,1,208540,249300,0.02,-0.87,9.95,-0.04,-0.01,-0.00,30.97
59396189,2001,1,206756,245328,0.07,-0.86,9.98,-0.03,-0.02,-0.00,30.97
59436192,2006,1,206291,244621,-0.00,-0.85,10.02,-0.03,-0.02,-0.00,30.97
59476204,2018,1,206259,244403,0.03,-0.83,9.92,-0.03,-0.02,-0.00,30.97
59516188,2015,1,206264,244552,0.13,-0.83,9.90,-0.03,-0.02,-0.00,30.97
59556188,2007,1,206375,245533,0.13,-0.87,9.96,-0.04,-0.00,-0.01,30.97
59596192,2023,1,206826,246300,0.03,-0.84,9.91,-0.04,-0.00,-0.01,30.97
59636876,1999,1,206908,246088,0.04,-0.78,10.01,-0.04,-0.02,-0.00,31.13
59677192,1994,1,206900,246166,0.08,-0.85,9.99,-0.03,-0.00,-0.01,31.13
59717189,1986,1,206935,246355,0.03,-0.89,9.91,-0.03,-0.00,-0.00,31.13
59757192,1974,1,207004,246578,0.06,-0.82,9.95,-0.03,-0.01,-0.00,31.13
59796189,1973,1,207133,246970,0.03,-0.86,9.95,-0.03,-0.01,-0.01,31.13
59836192,1957,1,207200,247132,0.03,-0.84,9.97,-0.03,-0.01,-0.00,31.13
59876189,1952,1,207244,247343,0.05,-0.83,9.97,-0.03,-0.01,-0.00,31.13
59916192,1929,1,207406,247880,0.06,-0.85,9.93,-0.03,-0.01,-0.01,31.13
59956192,1916,1,207495,248257,0.03,-0.85,9.98,-0.03,-0.01,-0.01,31.13
59996192,1907,1,207321,245985,0.03,-0.87,9.94,-0.03,-0.01,-0.00,31.13
60036189,1892,1,206178,244107,0.00,-0.82,9.97,-0.03,-0.01,-0.00,31.13
60076192,1891,1,205912,243926,0.04,-0.84,9.97,-0.03,-0.01,-0.00,31.13
60116189,1870,1,205966,244030,0.07,-0.85,9.97,-0.03,-0.01,-0.00,31.13
60156196,1869,1,206019,244146,0.05,-0.82,9.89,-0.03,-0.01,-0.00,31.13
60196205,1858,1,206123,244669,0.05,-0.85,9.89,-0.04,-0.01,-0.00,31.13
60236192,1856,1,206354,245683,0.08,-0.87,10.02,-0.03,-0.01,-0.00,31.13
60276189,1852,1,206688,246036,0.04,-0.78,9.97,-0.03,-0.01,-0.00,31.13
60316192,1842,1,206691,245642,-0.01,-0.84,9.88,-0.03,-0.01,-0.00,31.13
60356205,1835,1,206732,245763,0.09,-0.91,9.90,-0.04,-0.02,-0.00,31.13
60396193,1825,1,206851,246361,0.16,-0.92,9.95,-0.04,-0.01,-0.00,31.13
60436192,1824,1,207027,246730,0.12,-0.83,10.05,-0.03,-0.00,-0.01,31.13
60476192,1808,1,206985,246404,0.00,-0.76,10.01,-0.03,-0.01,-0.01,31.13
60516189,1781,1,206898,245975,0.01,-0.87,9.95,-0.02,-0.03,-0.00,31.13
60556192,1808,1,206859,246324,0.11,-0.86,9.87,-0.03,-0.02,-0.00,31.13
60596193,1819,1,207108,247440,0.05,-0.83,9.94,-0.04,0.01,-0.01,31.13
60636859,1754,1,207357,246582,0.03,-0.83,10.04,-0.03,-0.01,-0.01,31.13
60677192,1712,1,206529,243867,0.08,-0.85,9.96,-0.03,-0.02,-0.00,31.13
60717192,1779,1,205921,242788,0.10,-0.91,9.87,-0.03,-0.01,-0.01,31.13
60757192,1803,1,205750,242540,0.11,-0.88,9.88,-0.03,-0.01,-0.01,31.13
60796195,1821,1,205700,242508,0.08,-0.84,9.99,-0.04,-0.00,-0.01,31.13
60836189,1837,1,205655,242508,0.00,-0.79,10.03,-0.03,0.00,-0.01,31.13
60876172,1839,1,205716,242570,-0.01,-0.83,9.95,-0.03,-0.01,-0.01,31.13
60916205,1843,1,205815,242738,0.05,-0.81,9.91,-0.03,-0.01,-0.01,31.13
60956192,1841,1,205883,243054,0.05,-0.82,9.92,-0.04,-0.00,-0.01,31.13
60996216,1831,1,205930,243267,0.04,-0.81,9.94,-0.04,-0.01,-0.01,31.13
61036192,1844,1,205994,243301,0.05,-0.83,10.02,-0.03,-0.01,-0.01,31.13
61076192,1843,1,206019,243384,0.05,-0.85,9.99,-0.03,-0.01,-0.00,31.13
61116192,1842,1,206061,243513,0.08,-0.81,9.95,-0.03,-0.02,-0.01,31.13
61156193,1845,1,206134,243857,0.07,-0.85,9.95,-0.03,-0.01,-0.00,31.13
61196209,1843,1,206224,244277,0.07,-0.83,9.92,-0.03,-0.01,-0.01,31.13
61236192,1840,1,206343,244691,0.03,-0.83,9.95,-0.03,-0.01,-0.01,31.13
61276192,1837,1,206429,245270,0.04,-0.84,9.96,-0.03,-0.00,-0.01,31.13
61316189,1835,1,206523,244718,0.04,-0.82,9.97,-0.04,-0.00,-0.01,31.13
61356192,1841,1,205827,243092,0.05,-0.83,9.95,-0.04,-0.01,-0.01,31.13
61396192,1840,1,205512,242758,0.06,-0.82,9.93,-0.03,-0.01,-0.00,31.13
61436192,1840,1,205549,242873,0.04,-0.82,9.94,-0.03,-0.01,-0.00,31.13
61476189,1840,1,205608,242924,0.05,-0.83,9.96,-0.03,-0.01,-0.01,31.13
61516192,1835,1,205663,243116,0.06,-0.83,9.97,-0.03,-0.01,-0.00,31.13
61556189,1846,1,205786,243526,0.05,-0.85,9.95,-0.03,-0.01,-0.01,31.13
61596192,1840,1,205878,243791,0.04,-0.83,9.94,-0.03,-0.01,-0.00,31.13
61636192,1847,1,205920,243931,0.07,-0.82,9.95,-0.03,-0.01,-0.01,31.13
61676878,1842,1,205894,244262,0.05,-0.83,9.94,-0.03,-0.01,-0.01,30.93
