timestamp_us,ecg,leads,ir,red,accX,accY,accZ,gyroX,gyroY,gyroZ,temp
1921486,1680,1,193795,229460,0.00,0.00,0.00,0.00,0.00,0.00,0.00
1951960,1381,1,193991,231228,0.07,-1.32,11.42,-0.04,-0.04,-0.17,27.75
1992197,1216,1,194194,230382,-0.03,-0.93,11.33,-0.05,-0.01,-0.20,27.75
2032203,1162,1,193350,227841,-0.11,-0.82,10.49,-0.09,-0.25,-0.02,27.75
2072228,1091,1,192780,225840,-0.26,-1.03,10.65,-0.09,0.16,-0.00,27.75
2112190,1154,1,191986,224978,0.23,-1.15,9.79,-0.06,-0.24,0.02,27.75
2152170,1259,1,191785,223599,-0.18,-1.77,9.23,-0.10,0.08,0.01,27.75
2192168,1399,1,191014,222091,-0.01,-0.47,7.81,-0.08,-0.20,0.19,27.75
2231190,1428,1,190999,221404,-0.00,-1.63,9.12,-0.06,0.53,0.11,27.75
2271170,1439,1,191470,221651,-0.22,-1.54,9.39,-0.03,-0.04,0.31,27.75
2311190,1525,1,192177,221837,-0.50,-1.61,9.27,-0.03,-0.00,0.09,27.75
2351187,1593,1,192696,222830,-0.17,-1.33,9.26,-0.04,-0.43,0.19,27.75
2391190,1697,1,193831,224297,-0.17,-1.49,9.30,-0.02,0.26,0.06,27.75
2431171,1743,1,194771,225706,0.10,-1.02,9.63,0.01,-0.02,0.01,27.75
2471161,1797,1,194557,225906,0.04,-1.07,10.50,-0.02,0.05,-0.00,27.75
2511168,1882,1,194160,226788,-0.06,-1.25,9.94,-0.02,-0.08,-0.04,27.75
2551205,1920,1,194668,228736,-0.03,-1.03,11.39,-0.02,0.14,-0.02,27.75
2591188,1925,1,194376,227810,-0.16,-1.06,10.65,-0.04,-0.15,-0.02,27.75
2631208,1965,1,193374,226168,-0.09,-1.14,11.43,-0.06,-0.02,-0.05,27.75
2671203,2003,1,192912,226044,-0.24,-1.21,11.39,-0.04,-0.06,-0.05,27.75
2711207,2054,1,192914,225997,-0.04,-1.19,11.18,-0.04,-0.17,-0.01,27.75
2751204,2077,1,192781,224956,-0.46,-1.07,10.03,-0.08,-0.06,-0.00,27.75
2791205,2102,1,192916,224832,-0.51,-1.59,9.96,-0.02,-0.02,-0.01,27.75
2831203,2157,1,192762,224361,0.06,-1.41,9.32,-0.05,-0.08,-0.01,27.75
2871190,2176,1,192975,224362,-0.20,-1.21,9.72,-0.06,0.08,0.01,27.75
2911168,2185,1,192648,223099,-0.17,-1.16,8.44,-0.06,-0.05,0.07,27.75
2951190,2231,1,192271,222727,0.51,-1.10,8.50,-0.06,-0.18,0.14,27.75
2991854,2160,1,192518,222668,0.24,-1.86,8.61,-0.05,0.21,0.02,27.91
3030161,2133,1,192172,222786,0.45,-1.38,7.90,-0.02,-0.12,-0.06,27.91
3070187,1995,1,192271,222621,0.86,-0.72,8.29,-0.03,0.40,-0.01,27.91
3110173,1976,1,192321,222735,0.51,-0.90,7.83,-0.01,0.01,0.04,27.91
3150157,1968,1,192939,222887,-0.21,-1.46,9.12,0.02,0.52,0.02,27.91
3190161,1953,1,192864,222727,-0.43,-1.26,8.19,0.00,-0.13,0.11,27.91
3230170,1968,1,192717,221015,-0.43,-1.09,9.23,0.01,0.12,0.04,27.91
3270161,2002,1,191994,219847,-0.16,-0.63,8.70,0.03,-0.02,0.05,27.91
3310168,2003,1,191913,220257,-0.78,-1.12,9.75,0.04,0.06,0.01,27.91
3350162,2015,1,191968,221732,-0.12,-0.96,9.93,0.01,-0.07,0.01,27.91
3390168,2000,1,192132,223055,-0.78,-1.56,11.27,0.03,0.12,-0.02,27.91
3430170,1963,1,192030,224757,-0.34,-1.16,9.72,0.00,-0.18,0.04,27.91
3470171,1890,1,192837,227531,-0.23,-1.27,12.79,-0.00,0.20,-0.02,27.91
3510191,1924,1,192994,229023,-0.24,-0.43,10.74,-0.01,-0.14,-0.09,27.91
3550204,1917,1,193531,230515,-0.12,-1.52,13.21,-0.03,0.10,-0.19,27.91
3590191,1919,1,193449,230472,-0.44,-0.89,11.45,-0.08,-0.18,-0.09,27.91
3630204,1927,1,193554,230239,-0.45,-1.28,12.19,-0.06,-0.07,-0.04,27.91
3670208,1920,1,193395,229687,0.08,-1.30,10.88,-0.10,-0.18,-0.01,27.91
3710188,1906,1,193437,229616,-0.67,-2.02,10.85,-0.10,-0.02,-0.00,27.91
3750205,1983,1,192637,226551,0.33,-0.45,9.30,-0.11,-0.24,-0.00,27.91
3790188,1980,1,192660,226076,-0.61,-1.66,9.54,-0.11,0.16,0.00,27.91
3830170,1981,1,192376,225626,-0.01,-0.70,8.06,-0.11,-0.29,0.08,27.91
3870205,1873,1,193149,226103,-0.56,-1.87,9.55,-0.09,0.25,0.00,27.91
3910170,1823,1,192187,224425,0.16,-0.94,8.94,-0.06,-0.03,0.01,27.91
3950168,1924,1,192025,224263,-0.05,-1.48,9.58,-0.08,-0.02,0.06,27.91
3990190,1859,1,191921,224197,0.14,-1.35,8.74,-0.02,-0.10,-0.00,27.91
4030874,1906,1,192433,224753,0.07,-1.68,10.39,-0.05,0.10,-0.08,27.75
4071175,1919,1,192090,223744,0.26,-1.35,8.86,-0.03,-0.23,-0.04,27.75
4111190,1974,1,191970,223575,0.07,-1.51,9.33,-0.04,0.09,-0.06,27.75
4151170,2033,1,191878,223077,0.68,-1.20,8.94,-0.03,0.05,-0.00,27.75
4191168,2009,1,192099,223420,-0.00,-1.14,9.26,0.00,0.36,0.01,27.75
4231161,1984,1,192154,224422,-0.48,-1.78,9.17,-0.00,0.05,0.01,27.75
4271168,1936,1,192233,225251,-0.59,-1.03,9.52,0.01,0.03,0.01,27.75
4311161,1775,1,192678,226018,-0.65,-1.34,9.84,0.01,0.05,0.06,27.75
4351158,1776,1,192757,226878,-0.67,-0.88,9.05,0.02,-0.16,0.01,27.75
4391170,1794,1,193138,227673,0.13,-1.27,11.46,0.01,0.02,0.01,27.75
4431139,1799,1,192817,226910,-0.53,-0.87,8.95,-0.03,-0.14,-0.02,27.75
4471205,1849,1,192888,227156,0.04,-1.61,10.05,0.01,0.08,0.00,27.75
4511139,1879,1,193196,227282,-0.05,-1.13,10.62,-0.04,0.16,0.01,27.75
4551170,1881,1,192816,225728,-0.55,-1.52,10.02,-0.01,0.05,0.01,27.75
4589170,1943,1,192296,224729,0.01,-0.90,10.26,-0.04,-0.01,0.01,27.75
4629170,1993,1,192292,224771,-0.48,-1.73,10.43,-0.06,0.06,0.03,27.75
4669170,2057,1,191780,222804,-0.39,-0.76,9.20,-0.02,-0.04,0.02,27.75
4709191,2094,1,191903,223180,-0.35,-1.93,10.01,-0.06,-0.17,0.00,27.75
4749191,2037,1,192007,223902,-0.37,-1.14,8.88,-0.06,-0.02,-0.00,27.75
4789207,2065,1,192645,225272,-0.22,-1.35,10.07,-0.01,0.17,-0.06,27.75
4829190,2064,1,192753,226287,-0.31,-1.13,9.34,-0.03,-0.12,0.07,27.75
4869191,2054,1,193254,226416,-0.61,-1.23,10.45,-0.03,0.09,-0.09,27.75
4909190,1998,1,193020,226955,-0.46,-1.58,9.82,-0.02,-0.17,-0.00,27.75
4949207,1957,1,193264,226660,-0.46,-1.23,10.20,-0.02,0.04,0.00,27.75
4989168,1940,1,193093,226846,-0.20,-1.30,10.05,-0.03,-0.12,-0.00,27.75
5029205,1941,1,193006,227535,-0.19,-1.20,9.76,-0.03,-0.01,0.01,27.75
5069874,1929,1,193587,229599,0.11,-1.29,11.25,-0.01,0.13,0.00,27.69
5110162,1873,1,193877,230211,-0.26,-1.62,10.19,-0.06,-0.08,-0.02,27.69
5150204,1808,1,193731,229336,-0.35,-1.05,9.83,-0.03,-0.08,0.01,27.69
5190191,1808,1,192764,224571,-0.28,-1.20,10.74,-0.04,0.04,-0.00,27.69
5230188,1874,1,191445,223376,-0.10,-1.53,9.61,-0.05,-0.40,-0.01,27.69
5270205,1864,1,191658,223124,-0.17,-1.30,10.39,-0.03,0.21,0.00,27.69
5310168,1914,1,191396,223411,-0.27,-0.82,9.76,-0.02,-0.19,-0.00,27.69
5350205,1871,1,191489,222366,-0.58,-1.58,10.06,-0.02,0.05,0.01,27.69
5390171,1927,1,191312,222819,-0.34,-1.53,9.78,-0.02,-0.37,-0.00,27.69
5430207,1958,1,191453,222327,-0.47,-1.19,9.51,-0.03,-0.06,-0.04,27.69
5470203,2029,1,191379,222408,0.27,-1.15,10.11,0.03,-0.16,-0.08,27.69
5510233,2019,1,191339,221995,0.36,-1.30,9.41,-0.04,-0.06,-0.04,27.69
5550188,1986,1,191509,222568,0.09,-1.25,9.59,-0.02,0.06,0.00,27.69
5590161,2019,1,191622,223074,0.85,-1.26,9.72,-0.03,-0.12,-0.02,27.69
5630190,2043,1,192154,225245,0.07,-1.23,9.16,-0.04,0.01,-0.00,27.69
5670170,2081,1,192501,225995,0.53,-0.95,9.10,-0.04,-0.08,-0.02,27.69
5710195,2100,1,192621,225545,0.26,-0.90,9.46,-0.01,0.01,0.00,27.69
5750161,2108,1,192380,225641,0.59,-1.13,9.05,-0.03,-0.10,0.01,27.69
5790168,2106,1,192428,224108,-0.32,-1.70,9.84,-0.03,0.22,0.01,27.69
5830170,2102,1,191605,223278,-0.09,-0.79,8.93,0.01,-0.26,0.01,27.69
5870168,2060,1,191753,223561,0.27,-1.52,10.39,-0.01,0.08,0.01,27.69
5910162,2029,1,192014,225743,-0.13,-1.09,9.34,-0.02,-0.03,0.01,27.69
5950187,2008,1,192502,226695,0.02,-1.35,10.70,0.00,0.09,-0.02,27.69
5990161,1990,1,192832,228413,0.67,-0.51,9.94,-0.02,-0.07,0.01,27.69
6030168,2000,1,193463,229551,-0.03,-1.63,10.57,-0.06,0.08,-0.01,27.69
6070877,1949,1,193460,230017,0.58,-1.01,10.15,-0.02,-0.07,0.01,27.55
6109168,1953,1,193814,231059,0.47,-0.94,11.07,-0.06,0.04,0.01,27.55
6150161,1930,1,193949,231697,0.38,-1.03,10.97,-0.07,0.00,0.01,27.55
6190158,1933,1,194014,231229,0.06,-1.26,10.72,-0.07,-0.02,0.01,27.55
6230170,1939,1,193896,231030,0.39,-0.91,9.79,-0.05,-0.14,0.01,27.55
6268168,1968,1,194215,231600,0.09,-1.28,10.80,-0.11,0.08,0.01,27.55
6308161,1981,1,194039,231571,0.38,-1.19,8.88,-0.05,-0.20,0.02,27.55
6348170,1948,1,194289,231857,0.16,-1.03,10.30,-0.08,0.02,0.01,27.55
6388161,1986,1,194377,231505,0.01,-1.12,9.65,-0.08,0.02,0.02,27.55
6428157,1953,1,193889,227385,0.36,-1.01,9.41,-0.03,-0.07,0.02,27.55
6468170,1959,1,193008,225997,-0.08,-1.36,10.05,-0.06,0.07,0.02,27.55
6508168,1938,1,192515,225278,0.34,-1.28,8.99,-0.06,-0.07,0.01,27.55
6548170,1962,1,192357,224217,0.40,-1.30,8.93,-0.04,-0.02,0.02,27.55
6588168,1941,1,192403,224138,0.42,-1.49,9.19,-0.03,0.06,0.12,27.55
6628161,1927,1,192431,224568,0.58,-1.06,9.49,-0.03,0.09,-0.00,27.55
6668168,1923,1,192614,226110,0.27,-1.16,8.74,-0.01,-0.08,0.01,27.55
6708170,1885,1,193597,227729,0.26,-1.19,9.52,-0.01,0.01,0.02,27.55
6748158,1888,1,193703,227213,0.59,-1.16,9.36,0.01,-0.13,0.02,27.55
6788162,1899,1,193767,229187,-0.07,-0.84,10.13,0.02,0.05,0.03,27.55
6828157,1926,1,194411,231578,0.11,-1.14,9.76,0.03,-0.03,0.02,27.55
6868161,1927,1,194292,232260,-0.07,-1.20,10.51,0.00,0.00,-0.06,27.55
6908168,1906,1,194427,233151,0.03,-1.20,10.33,0.02,-0.02,0.02,27.55
6948161,1863,1,194580,234025,0.34,-0.76,10.80,0.03,-0.13,0.02,27.55
6988158,1841,1,194673,234929,0.20,-1.19,11.18,-0.03,-0.04,-0.05,27.55
7028191,1856,1,194624,234909,0.40,-0.55,10.70,-0.01,-0.07,0.00,27.55
7068168,1854,1,194264,233573,0.29,-0.93,10.89,-0.02,-0.09,-0.00,27.55
7108877,1859,1,193969,233109,0.33,-0.89,11.12,-0.06,0.00,0.02,27.59
7148197,1865,1,193875,233425,0.52,-0.84,10.55,-0.05,-0.12,0.01,27.59
7188170,1871,1,194008,233735,0.64,-0.63,11.05,-0.05,-0.08,0.02,27.59
7228168,1867,1,194183,233106,0.57,-0.76,10.42,-0.08,-0.05,0.02,27.59
7268170,1909,1,193881,232152,0.63,-0.70,9.51,-0.05,-0.17,0.03,27.59
7308168,1850,1,194202,232809,0.49,-0.91,10.26,-0.06,0.04,-0.11,27.59
7348191,1744,1,194405,233000,0.61,-1.16,8.47,-0.05,-0.11,-0.03,27.59
7388190,1687,1,194649,233642,0.90,-0.78,10.13,-0.04,-0.06,0.02,27.59
7428170,1724,1,194738,233594,0.75,-0.91,8.47,-0.03,-0.07,0.03,27.59
7468168,1712,1,194797,233971,0.69,-0.91,10.20,-0.04,0.14,0.03,27.59
7508161,1738,1,194702,233677,0.91,-1.08,8.87,-0.05,-0.06,0.03,27.59
7548168,1741,1,194697,233013,0.72,-0.96,9.46,-0.03,0.09,0.05,27.59
7588161,1788,1,194438,232255,0.96,-1.05,8.24,-0.04,-0.07,0.07,27.59
7628168,1810,1,194718,233488,0.59,-0.49,9.67,-0.01,0.21,0.03,27.59
7668161,1847,1,194861,232928,0.99,-0.60,9.98,-0.01,-0.02,0.03,27.59
7708168,1878,1,194286,231612,0.61,-1.03,10.17,-0.03,0.04,0.03,27.59
7748161,1913,1,194082,231741,0.47,-0.85,10.31,-0.02,0.11,0.08,27.59
7788158,2000,1,194043,232026,0.50,-1.14,10.56,0.01,-0.10,0.04,27.59
7828161,2082,1,194040,232046,0.09,-0.42,9.92,-0.04,-0.07,0.02,27.59
7868168,2115,1,194164,233330,0.10,-1.36,11.19,-0.04,0.09,0.03,27.59
7908161,2141,1,194248,232927,0.34,-0.52,10.13,-0.02,-0.08,0.03,27.59
7948168,2150,1,194501,234316,0.21,-1.05,11.37,-0.05,0.14,0.04,27.59
7988162,2125,1,194523,233194,0.39,-0.74,10.55,-0.06,-0.03,0.08,27.59
8028168,2116,1,194233,233533,0.14,-1.33,10.47,-0.05,-0.08,0.03,27.59
8068170,2122,1,194277,232845,0.74,-0.57,10.83,-0.09,0.12,0.07,27.59
8108844,2115,1,193958,232061,0.29,-1.21,10.11,-0.04,-0.03,0.08,27.61
8147170,2126,1,193781,231520,0.40,-0.79,9.10,-0.06,-0.16,0.04,27.61
8187168,2090,1,193992,233014,0.23,-1.55,10.31,-0.09,0.16,0.03,27.61
8227162,2070,1,194105,233253,0.20,-1.03,9.42,-0.05,-0.03,0.01,27.61
8267168,2067,1,194299,233863,0.30,-1.36,9.78,-0.05,-0.03,0.05,27.61
8307170,2030,1,194281,232567,0.59,-0.82,8.93,-0.04,-0.07,-0.01,27.61
8347188,2009,1,193324,229715,-0.09,-1.02,9.90,-0.01,-0.08,0.03,27.61
8387191,1986,1,192891,229051,0.27,-1.28,10.43,-0.03,-0.05,0.05,27.61
8427170,2000,1,193100,230200,-0.34,-1.53,9.71,-0.05,-0.04,0.03,27.61
8467190,2022,1,193029,229750,0.50,-1.00,9.85,-0.01,-0.12,0.02,27.61
8507168,2007,1,193121,230831,0.50,-0.91,10.85,-0.03,0.10,0.02,27.61
8547161,2055,1,193196,231667,0.28,-1.23,9.28,-0.03,-0.09,-0.01,27.61
8587190,2061,1,193579,232279,0.48,-0.67,10.47,-0.02,0.24,-0.08,27.61
8627170,2022,1,193260,231441,-0.02,-1.03,8.96,-0.03,-0.07,0.06,27.61
8667187,2002,1,193215,231789,0.24,-0.70,10.46,-0.02,0.07,0.02,27.61
8707161,2016,1,193496,233211,0.47,-1.20,10.04,-0.03,-0.07,0.02,27.61
8747168,1987,1,193922,234190,0.22,-0.77,10.58,0.00,0.06,-0.10,27.61
8787162,1975,1,193872,233220,0.23,-1.38,9.75,-0.04,-0.08,0.00,27.61
8827168,1975,1,193489,231897,0.18,-1.05,9.39,-0.02,-0.13,0.02,27.61
8867170,1951,1,192855,229530,-0.12,-0.65,8.30,-0.00,-0.15,0.04,27.61
8907187,1975,1,192604,230123,0.54,-1.44,9.26,0.01,0.03,-0.06,27.61
8947161,1999,1,192925,228691,0.16,-0.97,9.44,-0.01,0.14,0.02,27.61
8987170,2028,1,192148,227534,-0.22,-1.32,9.23,0.03,-0.01,0.07,27.61
9027172,2030,1,192121,228756,0.32,-0.88,10.30,-0.01,-0.03,0.12,27.61
9067168,1969,1,193201,232133,-0.03,-1.52,10.61,-0.01,0.05,-0.01,27.61
9107190,1978,1,193504,232629,0.24,-1.20,9.72,-0.01,-0.27,-0.01,27.61
9147877,1971,1,193413,232610,0.46,-1.03,11.15,-0.03,0.03,0.02,27.69
9188180,1956,1,193393,232121,0.34,-0.63,10.22,-0.03,-0.12,0.00,27.69
9228170,1959,1,193138,231681,0.62,-1.03,11.08,-0.03,-0.06,-0.03,27.69
9268190,1957,1,193184,231507,0.17,-1.14,10.43,-0.07,0.13,0.02,27.69
9308161,1918,1,192889,231350,0.17,-1.07,10.48,-0.04,-0.08,0.04,27.69
9348170,1893,1,192897,231026,0.42,-0.92,10.49,-0.06,-0.09,0.06,27.69
9388171,1855,1,192942,231753,0.01,-1.00,10.38,-0.05,-0.12,0.02,27.69
9428170,1834,1,193161,231596,-0.02,-1.20,9.98,-0.05,-0.04,0.02,27.69
9468186,1840,1,193088,231691,0.49,-1.29,9.94,-0.04,-0.10,0.04,27.69
9508170,1839,1,193105,231268,0.38,-1.16,9.51,-0.07,0.02,0.02,27.69
9548158,1870,1,192882,231369,0.13,-1.23,9.11,-0.02,-0.06,-0.00,27.69
9588190,1903,1,192589,227305,0.80,-1.06,10.00,-0.05,0.06,0.01,27.69
9626157,1936,1,191008,224411,0.41,-0.68,9.19,-0.04,-0.03,0.02,27.69
9666170,1930,1,190394,222922,0.99,-1.36,8.74,-0.05,-0.02,0.01,27.69
9706168,1936,1,190256,223676,0.39,-0.97,8.60,-0.05,0.15,0.07,27.69
9746162,1965,1,191354,226659,1.03,-0.18,11.77,0.01,0.33,0.02,27.69
9786139,1966,1,192307,230808,1.28,0.40,8.13,-0.02,-0.26,-0.09,27.69
9826170,2000,1,193281,232475,0.66,-1.35,11.87,-0.04,0.18,-0.10,27.69
9866171,2039,1,193211,232068,0.31,-0.13,9.42,-0.04,-0.02,-0.04,27.69
9906190,2035,1,192892,231849,0.36,-0.89,11.85,-0.02,0.03,0.01,27.69
9946159,2019,1,192959,231898,0.83,-0.83,10.21,-0.06,0.05,0.01,27.69
9986161,2003,1,193178,232572,-0.47,-1.46,11.23,-0.03,0.08,0.02,27.69
10026194,2017,1,192807,231644,1.07,-0.34,10.52,-0.03,-0.22,0.01,27.69
10066170,2007,1,193221,233197,0.29,-1.15,11.71,-0.05,0.23,0.04,27.69
10106161,2039,1,193157,232311,0.20,-1.28,9.25,-0.07,-0.18,0.03,27.69
10146170,1969,1,193310,232906,-0.01,-1.31,11.53,-0.01,0.12,0.03,27.69
10186857,1964,1,193170,230085,0.64,-0.72,9.49,-0.09,-0.19,0.00,27.55
10226170,1956,1,191862,226776,0.37,-1.21,10.77,-0.03,0.09,-0.03,27.55
10266170,1957,1,191526,227233,0.71,-1.16,9.38,-0.07,-0.10,-0.04,27.55
10306190,1949,1,192026,228432,0.12,-0.87,10.13,-0.07,0.13,0.01,27.55
10346161,1921,1,191877,227510,0.79,-1.13,9.07,-0.05,-0.12,0.02,27.55
10386170,1887,1,191731,227311,0.63,-1.15,9.37,-0.08,-0.01,0.03,27.55
10426193,1919,1,192107,229680,0.33,-1.05,9.31,-0.06,0.01,0.05,27.55
10466162,1915,1,192989,231327,0.44,-1.11,9.94,-0.04,-0.02,0.02,27.55
10506171,1933,1,193396,231865,0.02,-1.23,10.23,-0.04,-0.00,0.02,27.55
10546170,1929,1,193173,229884,0.31,-1.43,8.82,-0.03,-0.07,0.02,27.55
10586170,1904,1,193073,230435,-0.11,-1.26,9.81,-0.03,0.08,0.03,27.55
10626205,1872,1,192889,229704,0.57,-0.99,8.47,-0.00,-0.04,0.02,27.55
10666168,1875,1,193111,231356,-0.06,-1.27,10.66,-0.03,0.15,0.03,27.55
10706170,1872,1,193416,232477,0.16,-1.35,9.66,-0.04,0.05,0.01,27.55
10746160,1834,1,193647,232689,0.31,-0.94,10.62,-0.01,0.04,-0.02,27.55
10786170,1803,1,193543,232210,0.84,-1.44,9.81,-0.04,-0.04,0.02,27.55
10826199,1785,1,193225,228546,0.11,-1.36,9.66,-0.05,0.07,0.02,27.55
10866162,1794,1,191331,224157,0.28,-1.16,9.90,-0.02,-0.04,0.02,27.55
10906168,1771,1,190814,223876,0.51,-0.66,9.19,-0.03,0.01,0.04,27.55
10946161,1801,1,191529,227065,0.35,-1.06,9.90,-0.04,0.06,0.02,27.55
10986157,1835,1,193084,230734,-0.20,-1.57,9.87,-0.04,0.05,0.02,27.55
11026194,1840,1,193640,232063,-0.08,-1.14,9.77,-0.03,-0.01,0.03,27.55
11066190,1841,1,194049,233174,-0.18,-0.98,11.03,-0.02,0.07,0.03,27.55
11106170,1862,1,194110,233902,-0.15,-1.43,10.83,-0.02,-0.04,-0.01,27.55
11146204,1872,1,194014,233903,-0.04,-1.44,11.18,-0.02,-0.01,-0.06,27.55
11186894,1905,1,193673,233510,-0.11,-1.17,10.49,-0.04,-0.08,-0.03,27.67
11227204,1935,1,193589,233114,-0.15,-1.38,10.75,-0.06,0.07,0.02,27.67
11266170,1950,1,193286,232603,0.34,-0.84,10.07,-0.04,-0.07,0.02,27.67
11306168,1961,1,193630,233799,0.27,-0.89,10.84,-0.06,0.12,0.01,27.67
11346162,1968,1,193805,234084,0.43,-1.03,10.01,-0.09,0.06,-0.02,27.67
11386171,1965,1,193850,234068,0.29,-1.29,10.23,-0.07,0.01,0.03,27.67
11426162,1957,1,193725,233287,-0.02,-0.86,9.46,-0.07,-0.03,0.06,27.67
11466188,1933,1,193598,232557,0.23,-1.39,9.54,-0.05,-0.06,0.02,27.67
11506170,1931,1,192656,227029,0.23,-1.22,9.73,-0.03,-0.03,0.01,27.67
11546171,1925,1,191146,225648,0.29,-1.68,9.45,-0.04,-0.11,0.02,27.67
11586170,1959,1,191021,224583,-0.24,-1.25,8.70,-0.02,0.10,0.02,27.67
11626168,1901,1,190890,224969,-0.06,-1.24,8.76,-0.00,-0.10,0.02,27.67
11666190,1936,1,191087,224756,-0.25,-1.75,9.61,-0.00,0.30,0.03,27.67
11706170,1869,1,191155,225764,-0.31,-1.07,9.20,0.02,-0.19,0.02,27.67
11746170,1744,1,191703,225568,-0.20,-1.24,10.33,0.02,0.10,0.02,27.67
11786161,1678,1,191468,226546,0.09,-0.91,8.50,0.01,-0.41,0.06,27.67
11826161,1649,1,192385,228311,-0.09,-1.30,10.97,0.02,0.29,0.02,27.67
11866161,1625,1,192710,230680,0.67,-1.04,9.13,0.02,-0.38,0.01,27.67
11906162,1643,1,193436,232373,0.10,-1.14,11.27,-0.02,0.13,0.01,27.67
11946161,1675,1,193573,232642,0.46,-0.62,9.91,-0.00,-0.11,-0.01,27.67
11986191,1685,1,193955,233927,0.42,-1.17,12.27,-0.01,0.02,0.02,27.67
12026173,1703,1,194209,234464,0.41,-0.82,9.96,-0.05,-0.20,-0.02,27.67
12066191,1746,1,194418,234555,-0.08,-1.44,10.63,-0.04,-0.06,0.01,27.67
12106190,1883,1,194399,233436,0.10,-1.62,9.77,-0.05,-0.10,0.01,27.67
12146170,1891,1,193487,229035,0.59,-0.94,8.86,-0.02,-0.18,0.02,27.67
12186171,1946,1,192768,228531,0.40,-1.18,9.47,-0.05,-0.04,0.01,27.67
12226857,2007,1,192997,230982,-0.12,-1.52,7.87,-0.03,-0.10,0.02,27.49
12265221,2063,1,193915,233003,0.05,-1.44,10.27,-0.02,0.09,0.02,27.49
12305161,2054,1,193969,231193,0.49,-0.67,8.71,-0.00,-0.18,0.12,27.49
12345170,2047,1,193970,231450,-0.10,-1.48,9.52,-0.02,-0.01,0.02,27.49
12385190,2090,1,193600,228800,1.11,-1.12,8.83,-0.04,-0.14,0.01,27.49
12425171,2105,1,193166,228307,-0.17,-1.31,8.65,0.00,0.11,0.01,27.49
12465179,2132,1,193428,227849,0.57,-1.03,8.87,0.00,0.06,0.01,27.49
12505139,2118,1,193974,231156,0.55,-1.24,8.49,-0.03,-0.02,0.00,27.49
12545170,2138,1,195088,231961,0.49,-0.96,9.45,0.02,0.15,0.02,27.49
12585139,2102,1,195179,233643,1.01,-1.18,9.57,-0.02,-0.11,0.03,27.49
12625170,2111,1,196081,235384,0.08,-1.09,10.22,-0.03,0.25,0.08,27.49
12665161,2042,1,195873,235785,0.39,-0.77,8.81,-0.00,-0.24,0.04,27.49
12705170,1961,1,196109,236553,0.03,-1.71,11.62,-0.01,0.15,0.01,27.49
12745161,1968,1,195988,236447,0.59,-0.79,9.44,-0.04,-0.14,-0.02,27.49
12785191,1935,1,195544,234240,-0.19,-1.52,12.32,0.01,0.16,-0.07,27.49
12825171,1936,1,194263,230730,0.36,-0.65,9.40,-0.03,-0.29,0.12,27.49
12865170,1934,1,194443,231720,-0.47,-1.67,12.12,-0.06,0.26,0.03,27.49
12905171,1956,1,194045,230155,0.49,-1.05,7.84,-0.03,-0.36,0.01,27.49
12945170,1923,1,193914,229698,0.04,-1.32,11.77,-0.05,0.09,0.02,27.49
12985158,1983,1,193748,230250,0.20,-1.05,8.25,-0.07,-0.05,0.04,27.49
13025201,1936,1,194450,231552,0.19,-1.15,10.87,-0.05,0.28,0.02,27.49
13065161,2013,1,194783,232719,0.39,-1.24,9.48,-0.06,-0.12,0.08,27.49
13105170,1967,1,195228,232824,0.19,-0.94,9.86,-0.07,0.04,0.03,27.49
13145158,1984,1,195339,233741,0.04,-1.71,9.67,-0.05,0.01,0.02,27.49
13185161,1965,1,195442,233557,0.55,-0.98,9.68,-0.06,-0.07,0.04,27.49
13225168,1939,1,196080,235253,0.00,-1.14,10.59,-0.04,0.14,0.01,27.49
13265849,1949,1,196389,235647,0.09,-1.96,8.90,-0.07,-0.06,0.01,27.59
13304168,1975,1,196524,236480,-0.13,-1.58,10.10,-0.06,0.09,0.04,27.59
13344170,1932,1,196283,236152,0.00,-1.27,9.87,-0.05,-0.06,0.10,27.59
13384168,1756,1,196242,235077,0.02,-1.30,10.96,-0.01,0.04,0.01,27.59
13424161,1609,1,195376,232834,-0.17,-1.51,10.33,-0.06,-0.10,-0.01,27.59
13464204,1567,1,195068,233093,-0.43,-1.58,9.90,-0.04,-0.03,-0.02,27.59
13504205,1574,1,194965,232069,-0.15,-1.46,10.02,-0.04,0.01,0.06,27.59
13544170,1565,1,194708,232523,-0.36,-1.20,9.92,-0.04,0.03,0.00,27.59
13584170,1639,1,194805,232370,0.27,-1.43,10.25,-0.04,0.00,-0.00,27.59
13624170,1638,1,194614,232137,-0.05,-1.02,9.76,-0.05,0.09,0.02,27.59
13664170,1626,1,194446,231703,0.11,-1.99,9.47,-0.06,0.08,0.03,27.59
13704161,1583,1,194027,230750,0.12,-0.98,9.52,-0.03,-0.07,-0.00,27.59
13744191,1562,1,194270,232815,-0.50,-1.31,9.82,-0.03,0.20,-0.07,27.59
13784190,1739,1,194570,233779,-0.21,-1.37,8.98,-0.03,-0.18,-0.20,27.59
13824207,1791,1,194854,234709,0.22,-1.36,10.16,-0.00,0.06,-0.19,27.59
13864170,1831,1,194789,234315,-0.49,-1.29,8.91,-0.01,-0.00,-0.02,27.59
13904209,1901,1,194888,235707,-0.57,-1.41,9.69,0.00,-0.01,0.00,27.59
13944168,1966,1,195319,236373,-0.40,-1.44,9.96,0.01,-0.12,-0.05,27.59
13984190,2032,1,195402,236878,-0.48,-1.81,9.63,-0.01,-0.07,-0.02,27.59
14024235,2045,1,195444,235313,-0.51,-1.60,10.38,0.01,0.11,-0.05,27.59
14064170,2110,1,194551,234536,-0.23,-0.87,9.74,-0.01,-0.12,-0.01,27.59
14104204,2093,1,194867,235000,-0.12,-1.42,11.00,-0.01,0.10,-0.05,27.59
14144190,2096,1,194760,235698,-0.39,-1.75,9.16,-0.05,-0.10,-0.01,27.59
14184203,2112,1,195070,235225,-0.18,-1.42,10.99,-0.01,0.14,-0.04,27.59
14224191,2116,1,194600,235369,0.00,-1.16,9.50,-0.03,-0.20,0.07,27.59
14264168,2129,1,195313,236500,-0.09,-1.36,11.92,-0.03,0.24,-0.05,27.59
14304877,2047,1,195514,236740,-0.25,-1.02,9.84,-0.04,-0.20,-0.02,27.59
14345204,1970,1,195725,236790,-0.43,-1.84,10.78,-0.04,-0.01,-0.01,27.59
14385207,1953,1,195347,235201,-0.06,-0.97,9.74,-0.04,-0.17,-0.01,27.59
14425203,1906,1,195266,235527,-0.83,-1.91,10.73,-0.02,0.03,-0.00,27.59
14465190,1917,1,195260,235253,0.00,-0.73,9.59,-0.02,-0.22,-0.01,27.59
14505187,1891,1,195457,235914,-0.56,-2.07,11.08,-0.05,0.09,-0.04,27.59
14545191,1926,1,195365,235336,-0.45,-2.04,8.79,-0.04,-0.14,-0.01,27.59
14585204,1915,1,195208,235055,-0.32,-1.15,10.79,-0.01,-0.05,-0.01,27.59
14625207,1952,1,195154,234889,-0.02,-1.50,9.14,-0.04,-0.15,-0.10,27.59
14665203,2070,1,194637,230875,-0.14,-1.37,8.76,-0.05,-0.10,-0.19,27.59
14705207,2055,1,192487,225878,0.34,-1.17,9.03,-0.05,0.08,-0.11,27.59
14745170,1953,1,191253,224088,-0.25,-1.37,7.41,-0.06,-0.05,0.02,27.59
14785191,1936,1,191042,223590,0.59,-0.85,9.56,-0.05,0.16,-0.00,27.59
14825168,2100,1,190937,223410,0.23,-1.63,8.15,-0.05,-0.01,0.15,27.59
14865170,2241,1,191468,224177,0.41,-1.78,9.68,-0.02,0.11,0.04,27.59
14905161,2347,1,191960,224912,0.12,-1.42,8.98,0.00,-0.04,0.01,27.59
14943161,2412,1,192277,225098,-0.02,-1.13,9.77,0.03,-0.02,0.00,27.59
14983168,2426,1,192442,225827,-0.15,-1.43,9.32,0.03,-0.04,-0.02,27.59
15023197,2374,1,192730,227191,0.23,-1.17,9.61,0.00,-0.00,-0.07,27.59
15063168,2283,1,192807,227700,-0.20,-1.30,9.67,-0.01,0.09,-0.01,27.59
15103191,2237,1,192558,227604,-0.03,-1.03,10.24,0.02,0.06,0.00,27.59
15143157,2187,1,192842,229329,0.05,-1.32,10.27,-0.02,0.02,-0.00,27.59
15183170,2143,1,193502,231861,-0.73,-1.41,10.25,-0.06,0.14,0.03,27.59
15223170,2119,1,193763,232249,0.13,-1.46,10.78,-0.04,-0.08,0.08,27.59
15263170,2095,1,194037,233508,-0.15,-1.39,11.43,-0.06,0.08,0.05,27.59
15303170,2070,1,194063,233265,0.03,-0.92,11.81,-0.08,0.01,0.00,27.59
15343848,2011,1,193438,231274,-0.20,-1.20,13.09,-0.07,0.09,-0.06,27.59
15384188,1961,1,192408,228318,-0.35,-1.02,10.90,-0.12,-0.22,0.00,27.59
15424191,1963,1,192301,229007,-0.63,-2.00,13.13,-0.11,0.20,-0.01,27.59
15464190,2000,1,191011,224268,-0.13,-0.65,8.46,-0.15,-0.31,0.07,27.59
15504190,2045,1,190553,223551,-0.27,-1.87,10.96,-0.11,0.13,-0.07,27.59
15544217,2064,1,189641,221653,-0.04,-1.23,7.29,-0.19,-0.01,-0.02,27.59
15584208,1821,1,189340,221796,-0.69,-2.31,8.95,-0.09,0.25,-0.05,27.59
15624190,1995,1,188043,217942,0.26,-0.80,6.80,-0.10,-0.27,0.23,27.59
15664170,2029,1,187296,216931,-0.78,-2.61,8.50,-0.05,0.16,0.19,27.59
15704170,1998,1,186063,210617,0.69,-0.49,6.63,-0.08,-0.26,0.20,27.59
15744210,1774,1,185579,213966,-0.88,-3.16,8.04,0.02,0.23,0.16,27.59
15784161,1741,1,184835,207378,0.11,-1.16,7.28,0.04,-0.31,0.10,27.59
15824161,1648,1,186693,215003,-0.28,-2.60,8.84,0.05,0.37,0.04,27.59
15864162,1648,1,187544,214303,-0.34,-1.15,7.05,0.12,-0.23,0.00,27.59
15904170,1424,1,189748,221177,-0.06,-1.80,9.64,0.07,0.33,-0.01,27.59
15944170,1414,1,189879,221380,-0.61,-1.27,8.05,0.09,-0.01,0.00,27.59
15984170,1293,1,190358,228137,-0.76,-1.34,10.80,0.11,0.47,0.02,27.59
16024175,1007,1,193058,233150,-0.93,-1.33,10.98,0.10,-0.03,-0.05,27.59
16064191,1231,1,194795,238391,-1.38,-1.55,12.00,0.05,-0.08,0.02,27.59
16104170,1503,1,197108,243308,-0.68,-1.51,14.24,0.04,-0.09,-0.09,27.59
16144190,1008,1,200056,247217,-1.23,-1.35,14.75,0.02,-0.07,-0.26,27.59
16184190,998,1,200523,245830,-1.37,-0.82,14.80,-0.00,-0.15,-0.34,27.59
16224207,1494,1,198472,241649,-1.64,-1.49,13.98,-0.10,-0.08,-0.13,27.59
16264204,2028,1,195677,237694,-1.01,-1.68,12.13,-0.16,-0.11,-0.04,27.59
16304208,2304,1,193451,235574,-0.16,-1.05,10.00,-0.12,-0.37,-0.05,27.59
16344890,2397,1,193242,235710,0.03,-1.37,10.13,-0.16,-0.02,-0.08,27.91
16383191,2482,1,193387,236502,-0.00,-1.08,7.96,-0.15,-0.14,-0.06,27.91
16423203,2533,1,193315,235991,0.39,-1.16,8.68,-0.09,-0.05,-0.02,27.91
16463190,2597,1,193205,235342,-0.15,-1.60,7.65,-0.11,-0.01,0.06,27.91
16503190,2621,1,192855,234595,0.24,-1.18,7.45,-0.06,-0.19,0.10,27.91
16543170,2559,1,192836,233554,-0.32,-1.85,8.03,-0.05,-0.03,0.04,27.91
16583190,2442,1,191896,229139,0.29,-1.47,7.67,-0.03,-0.17,0.05,27.91
16623170,2351,1,191214,227913,-0.12,-1.90,9.25,0.02,0.07,0.00,27.91
16663161,2317,1,190947,228264,-0.30,-1.55,8.04,0.04,-0.19,-0.15,27.91
16703190,2271,1,191101,228982,0.05,-1.36,9.17,0.03,-0.02,-0.20,27.91
16743168,2098,1,190935,228698,-0.37,-1.91,7.88,0.04,0.01,-0.35,27.91
16783170,2128,1,190681,228284,0.67,-0.91,9.23,0.05,0.08,-0.25,27.91
16823161,1920,1,190674,228941,0.60,-0.94,9.21,0.02,0.05,0.04,27.91
16863140,1885,1,190918,229371,0.51,-0.77,9.40,0.04,0.03,-0.01,27.91
16903157,1943,1,191282,232115,0.26,-1.15,10.39,0.03,0.06,0.01,27.91
16943138,1903,1,191977,233966,0.48,-1.09,10.54,0.01,-0.05,-0.01,27.91
16983170,1905,1,192837,235268,-0.55,-1.30,11.60,0.01,0.15,0.03,27.91
17023171,1953,1,192627,234652,0.57,-0.58,10.79,0.00,-0.25,0.02,27.91
17063161,1920,1,192820,235725,-0.31,-1.03,12.96,-0.05,0.10,-0.01,27.91
17103191,1963,1,192985,235723,-0.14,-1.22,10.59,-0.07,-0.14,-0.01,27.91
17143205,2067,1,193127,235953,-0.28,-1.35,12.44,-0.06,0.03,-0.01,27.91
17183239,2032,1,192707,233782,0.37,-0.79,10.05,-0.10,-0.14,-0.01,27.91
17223191,2017,1,191668,231245,-0.27,-1.25,10.45,-0.11,0.05,-0.01,27.91
17263191,1917,1,191370,230940,0.28,-1.02,9.40,-0.12,0.02,-0.01,27.91
17303170,1863,1,190959,229734,0.25,-1.19,8.66,-0.13,-0.02,0.06,27.91
17343170,1874,1,190209,226631,0.41,-0.99,8.22,-0.12,-0.00,0.05,27.91
17383873,1811,1,189771,228397,-0.04,-1.47,8.90,-0.12,0.11,0.12,27.93
17422170,1776,1,190803,231137,0.24,-1.37,8.83,-0.08,0.00,0.02,27.93
17462158,1728,1,191819,233950,0.01,-1.66,9.69,-0.08,0.00,0.03,27.93
17502161,1764,1,192439,234336,-0.17,-1.83,9.78,-0.06,0.01,0.07,27.93
17542170,1782,1,192491,234127,-0.54,-1.22,10.23,-0.04,-0.05,0.10,27.93
17582191,1815,1,192473,233405,-0.29,-1.54,10.26,-0.05,0.01,0.08,27.93
17622170,1831,1,192756,233956,-0.35,-1.97,9.91,-0.02,-0.00,0.03,27.93
17662191,1863,1,193224,235043,-0.54,-1.70,10.49,-0.02,0.10,0.01,27.93
17702171,1897,1,193340,236058,-0.12,-0.89,10.47,0.01,0.09,0.04,27.93
17742162,1821,1,193359,235920,-0.18,-1.23,10.52,-0.02,0.13,-0.05,27.93
17782190,1755,1,193115,235416,-0.29,-1.86,8.55,-0.04,-0.16,0.05,27.93
17822191,1760,1,192531,230263,-0.12,-1.21,9.39,-0.02,0.15,0.01,27.93
17862170,1786,1,189840,225067,0.12,-1.08,9.01,0.00,0.01,0.03,27.93
17902140,1744,1,189703,225255,-0.02,-1.38,9.57,-0.01,0.24,0.01,27.93
17942171,1600,1,190240,226532,-0.48,-1.42,8.56,-0.00,-0.04,0.02,27.93
17982191,1585,1,190433,226891,-0.16,-1.46,9.59,0.04,-0.03,0.03,27.93
18022176,1593,1,190732,226861,-1.00,-1.47,8.91,0.04,0.09,0.02,27.93
18062161,1678,1,190282,226068,-0.45,-1.37,9.25,0.05,-0.27,0.00,27.93
18102170,1712,1,190713,226582,-0.64,-1.27,9.85,0.04,-0.01,0.00,27.93
18142170,1811,1,190764,228099,-0.46,-1.40,9.44,0.04,-0.25,-0.10,27.93
18182190,1846,1,191749,230626,-0.24,-1.36,11.14,0.03,0.09,-0.02,27.93
18222170,1955,1,192371,233391,-0.26,-0.76,11.02,0.01,-0.10,-0.01,27.93
18262191,2002,1,192750,234009,-0.20,-0.89,11.29,-0.01,-0.09,-0.13,27.93
18302208,2062,1,193004,235092,0.16,-1.59,11.26,-0.04,-0.09,-0.05,27.93
18342190,2106,1,192844,233468,0.26,-0.38,11.30,-0.07,-0.15,-0.07,27.93
18382191,2137,1,192734,232637,-0.01,-0.97,10.48,-0.05,-0.03,-0.07,27.93
18422890,2163,1,192865,229154,0.76,-1.21,10.10,-0.12,-0.07,-0.04,28.19
18461191,2137,1,191876,226366,0.05,-1.42,10.23,-0.06,0.08,-0.07,28.19
18501170,2083,1,191189,225852,0.42,-1.11,9.04,-0.09,-0.14,-0.01,28.19
18541190,2055,1,191980,227934,-0.23,-1.69,9.82,-0.07,0.35,0.00,28.19
18581170,2071,1,191739,226385,0.22,-0.73,9.06,-0.06,-0.16,0.02,28.19
18621170,2083,1,192067,226393,-0.16,-1.83,9.61,-0.06,0.03,0.00,28.19
18661170,2064,1,192650,226697,0.24,-1.06,8.46,-0.08,-0.32,-0.01,28.19
18701190,2038,1,194238,228027,0.17,-1.47,9.02,-0.03,0.12,-0.00,28.19
18741170,2054,1,195731,228945,-0.01,-0.88,7.85,-0.04,-0.22,0.09,28.19
18781190,2038,1,197234,230150,0.57,-1.18,9.92,-0.04,0.46,0.01,28.19
18821204,2046,1,196877,230717,0.14,-1.10,8.60,-0.01,-0.04,-0.00,28.19
18861190,2030,1,196131,232641,0.40,-1.16,10.09,-0.02,0.20,-0.00,28.19
18901168,2019,1,196415,234963,-0.26,-1.28,9.66,-0.03,0.01,0.00,28.19
18941170,2031,1,196648,235377,0.13,-1.02,10.70,-0.02,0.01,-0.00,28.19
18981168,2028,1,196965,236363,-0.25,-1.64,11.08,-0.02,-0.15,-0.00,28.19
19021251,2038,1,196790,236405,-0.60,-1.25,10.92,-0.05,-0.10,-0.00,28.19
19061204,2022,1,195939,233271,-0.45,-1.69,11.52,-0.02,0.12,-0.01,28.19
19101191,2047,1,194144,229986,-0.39,-1.11,10.58,-0.06,-0.15,0.01,28.19
19141191,2015,1,194177,231491,-0.66,-1.80,11.59,-0.06,0.08,-0.00,28.19
19181190,2038,1,193863,230606,-0.42,-0.74,9.68,-0.08,-0.25,-0.02,28.19
19221203,2032,1,193768,230601,0.21,-1.16,11.16,-0.07,0.06,-0.00,28.19
19261170,2034,1,193412,229027,-0.21,-1.20,9.54,-0.11,-0.03,0.07,28.19
19301190,2006,1,193108,229686,0.03,-1.35,10.19,-0.07,-0.00,-0.00,28.19
19341190,1978,1,193308,229328,0.10,-1.30,9.05,-0.09,0.07,0.02,28.19
19381157,1958,1,192532,228088,0.01,-1.44,8.23,-0.07,-0.08,0.00,28.19
19421170,1957,1,192244,226586,0.28,-1.37,8.87,-0.05,0.03,0.03,28.19
19461848,1902,1,192522,227459,-0.06,-1.44,8.74,-0.03,0.02,0.01,28.57
19502170,1878,1,192786,226957,-0.16,-1.14,8.40,-0.03,-0.05,-0.01,28.57
19542203,1843,1,193279,228495,-0.54,-1.81,8.43,0.00,0.03,0.01,28.57
19582161,1839,1,193484,228266,-0.25,-1.67,8.48,-0.01,0.08,0.06,28.57
19622170,1849,1,193466,228259,-0.40,-1.19,8.80,0.04,0.01,0.04,28.57
19662161,1818,1,193996,228483,-0.12,-1.43,9.22,0.03,0.05,0.01,28.57
19702161,1813,1,193852,226947,-0.32,-1.14,9.68,0.02,0.07,0.00,28.57
19742161,1814,1,193584,226998,-0.34,-1.48,9.94,0.02,0.09,0.03,28.57
19782161,1841,1,193928,228621,-0.25,-1.08,10.75,0.03,0.05,0.03,28.57
19822162,1747,1,194630,232155,-0.24,-1.26,12.08,-0.00,-0.03,-0.01,28.57
19862204,1712,1,195159,233823,-0.66,-0.91,11.34,-0.01,-0.15,-0.04,28.57
19900207,1718,1,195333,234926,-0.36,-1.70,12.97,-0.05,-0.01,-0.04,28.57
19940204,1739,1,195376,234953,-0.55,-1.20,12.90,-0.06,-0.03,-0.05,28.57
19980207,1781,1,195203,233679,-0.56,-0.95,11.90,-0.05,-0.20,-0.02,28.57
20020203,1794,1,194875,231263,-0.53,-1.62,10.82,-0.11,-0.09,-0.01,28.57
20060207,1859,1,193877,228263,-0.34,-1.33,9.04,-0.10,-0.22,-0.05,28.57
20100204,1929,1,193488,227461,0.10,-1.19,9.00,-0.06,-0.06,-0.07,28.57
20140191,1797,1,194400,229594,0.33,-1.00,8.30,-0.06,-0.06,-0.15,28.57
20180190,1696,1,195365,233548,-0.04,-1.34,8.05,-0.07,0.10,-0.01,28.57
20220191,1725,1,196039,235646,0.43,-1.27,8.81,-0.03,0.02,0.10,28.57
20261161,1726,1,196565,236466,0.02,-1.43,8.80,-0.05,0.06,0.10,28.57
20301161,1745,1,196732,236311,-0.47,-1.18,8.83,-0.01,0.01,-0.01,28.57
20341191,1871,1,196514,231503,0.51,-1.81,9.70,-0.00,-0.16,-0.01,28.57
20381190,1973,1,195155,228218,-0.56,-1.61,8.44,0.00,-0.11,-0.12,28.57
20421190,2110,1,194940,227884,0.31,-1.25,9.40,0.01,0.03,-0.13,28.57
20461859,2183,1,194988,228223,0.14,-1.22,8.32,0.03,-0.07,0.06,28.85
20500161,2181,1,195100,230455,-0.12,-1.14,10.15,0.02,0.10,0.01,28.85
20540162,2209,1,195175,232904,-0.58,-1.57,10.18,0.02,0.16,0.01,28.85
20580161,2177,1,195077,234246,-0.30,-1.47,10.28,0.02,-0.09,-0.02,28.85
20620190,2171,1,195173,234513,-0.35,-1.53,11.92,0.00,0.11,-0.01,28.85
20660170,2128,1,194920,234129,-0.24,-0.73,10.59,0.01,-0.20,-0.01,28.85
20700191,2171,1,195392,234414,0.01,-1.56,11.97,-0.03,0.01,-0.01,28.85
20740170,2209,1,195053,233936,0.46,-0.86,10.20,-0.06,-0.13,-0.01,28.85
20780190,2181,1,195038,233350,-0.23,-1.23,11.56,-0.04,0.15,-0.00,28.85
20820190,2192,1,194517,232700,0.28,-0.83,9.43,-0.06,-0.13,-0.00,28.85
20860190,2160,1,194580,231912,0.14,-1.34,10.27,-0.09,0.07,-0.01,28.85
20900170,2134,1,193932,230556,0.05,-1.40,8.58,-0.05,-0.11,-0.00,28.85
20940190,2084,1,193713,229081,-0.23,-1.70,8.96,-0.06,0.03,-0.00,28.85
20980188,2013,1,192627,226179,-0.11,-0.96,9.12,-0.02,0.03,0.00,28.85
21020170,1955,1,192229,226181,-0.46,-1.40,9.67,-0.02,0.04,0.01,28.85
21060170,1905,1,192442,226617,-0.05,-1.77,9.17,-0.02,-0.08,0.02,28.85
21100190,1898,1,192727,226644,-0.68,-1.40,9.46,-0.03,0.00,0.01,28.85
21140170,1851,1,192314,225687,0.11,-1.30,9.00,-0.01,-0.08,-0.00,28.85
21180191,1843,1,192541,225753,0.05,-1.26,9.86,-0.04,0.05,0.03,28.85
21220158,1842,1,192746,225642,0.33,-1.39,8.96,-0.04,-0.02,0.01,28.85
21260170,1847,1,192771,226555,0.31,-1.11,8.76,-0.06,0.03,-0.03,28.85
21301170,1862,1,193058,228404,0.45,-1.91,10.18,-0.06,0.36,0.00,28.85
21341162,1874,1,192966,229728,-0.49,-0.99,8.96,-0.01,-0.15,0.04,28.85
21381190,1845,1,193945,232470,-0.09,-1.81,11.07,-0.02,0.06,-0.01,28.85
21421190,1834,1,194126,232352,-0.35,-1.00,9.92,-0.04,-0.08,-0.01,28.85
21461890,1834,1,194220,233189,-0.49,-1.87,11.84,0.00,0.08,0.00,28.69
21500162,1818,1,194062,231992,-0.22,-1.03,10.32,-0.04,-0.06,0.05,28.69
21540190,1840,1,194430,234304,-0.59,-2.00,12.39,-0.04,0.23,0.00,28.69
21580170,1827,1,194032,229085,-0.38,-1.03,9.89,-0.01,-0.25,0.03,28.69
21620190,1839,1,192339,227345,-0.57,-1.59,11.94,-0.03,0.09,0.00,28.69
21660170,1856,1,191662,224906,-0.45,-0.66,9.89,-0.07,-0.03,-0.03,28.69
21700203,1894,1,191502,226605,0.22,-1.41,10.94,-0.03,-0.08,0.00,28.69
21740170,1898,1,191682,225214,0.11,-0.84,9.65,-0.09,0.09,0.01,28.69
21780157,1898,1,191625,227304,-0.35,-1.70,9.30,-0.07,-0.05,-0.00,28.69
21820205,1907,1,192008,226153,0.33,-1.34,9.64,-0.07,0.07,0.07,28.69
21860161,1898,1,191859,226886,-0.19,-1.42,8.99,0.00,-0.11,0.02,28.69
21900170,1886,1,191949,225854,-0.21,-1.00,9.59,-0.06,0.00,-0.03,28.69
21940187,1908,1,191959,226458,-0.40,-1.68,9.03,-0.01,-0.03,-0.01,28.69
21980205,1917,1,192113,226451,-0.16,-1.41,9.27,-0.03,-0.03,-0.01,28.69
22020204,1920,1,192332,227340,-0.44,-1.46,9.32,0.01,0.00,0.00,28.69
22060161,1933,1,192711,227874,0.26,-1.13,9.55,-0.02,-0.06,-0.02,28.69
22100204,1942,1,192918,227836,-0.12,-1.31,9.88,-0.01,0.05,-0.05,28.69
22140190,1920,1,192784,227606,0.41,-1.56,9.36,-0.02,-0.08,-0.08,28.69
22180191,1911,1,192868,227296,-0.14,-0.90,10.12,-0.01,0.11,-0.02,28.69
22220190,1946,1,192804,227079,0.13,-1.17,9.41,-0.00,-0.07,-0.13,28.69
22260190,1925,1,192365,225696,0.11,-1.51,10.60,-0.03,0.07,-0.01,28.69
22301170,1938,1,191869,225542,-0.26,-1.38,8.89,-0.02,-0.15,-0.09,28.69
22339204,1942,1,192208,225597,-0.40,-1.40,11.71,-0.01,0.27,-0.00,28.69
22379190,1954,1,191789,225408,0.11,-0.85,9.04,-0.01,-0.33,-0.01,28.69
22419190,1936,1,192337,225784,-0.28,-1.67,11.82,-0.03,0.12,-0.02,28.69
22459191,1946,1,191914,225567,-0.56,-1.39,8.49,-0.06,-0.18,-0.08,28.69
22499912,1915,1,192346,226036,-0.37,-1.50,11.82,-0.03,0.16,-0.01,28.57
22540191,1974,1,192140,225787,0.31,-0.51,9.07,-0.05,-0.18,0.02,28.57
22580168,1936,1,192756,226958,0.06,-1.57,12.30,-0.06,0.18,-0.00,28.57
22620170,1961,1,192107,225948,0.73,-0.79,8.10,-0.09,-0.22,-0.02,28.57
22660190,1941,1,192455,226674,0.15,-1.19,11.26,-0.08,0.23,-0.02,28.57
22700170,1900,1,191943,225420,0.58,-0.97,7.64,-0.08,-0.23,-0.01,28.57
22740190,1849,1,192423,227349,0.35,-0.85,11.32,-0.06,0.26,-0.07,28.57
22780170,1831,1,192427,226861,0.47,-1.18,7.87,-0.07,-0.16,-0.01,28.57
22820190,1820,1,192764,229102,-0.16,-1.28,10.46,-0.05,0.12,-0.01,28.57
22860191,1839,1,192868,227065,0.33,-1.16,8.70,-0.06,-0.03,0.09,28.57
22900170,1826,1,192423,225704,-0.22,-1.55,10.50,-0.01,0.10,0.01,28.57
22940170,1842,1,192080,224630,0.24,-1.19,9.33,-0.03,-0.11,0.01,28.57
22980170,1844,1,192025,224594,0.02,-1.17,9.94,-0.03,0.01,0.00,28.57
23020161,1893,1,192214,224495,0.05,-1.41,9.80,-0.03,0.11,-0.00,28.57
23060168,1895,1,192122,224741,0.10,-0.94,9.98,0.00,0.01,0.01,28.57
23100140,1899,1,192541,226755,0.15,-1.29,10.79,-0.03,0.04,0.00,28.57
23140161,1903,1,192753,227347,0.01,-0.91,9.68,-0.04,-0.06,0.00,28.57
23180170,1902,1,193074,228752,-0.26,-1.74,10.98,-0.02,0.04,0.01,28.57
23220170,1919,1,193017,227657,-0.22,-1.09,9.94,-0.03,-0.08,0.05,28.57
23260190,1966,1,193199,229662,-0.43,-1.47,11.54,-0.01,0.01,0.00,28.57
23300170,1963,1,193405,228555,-0.43,-1.20,9.47,-0.05,-0.11,0.01,28.57
23339190,1986,1,193229,230149,-0.26,-1.99,10.91,-0.01,-0.06,0.00,28.57
23379190,1980,1,193520,229394,-0.31,-0.93,9.56,-0.04,0.01,-0.02,28.57
23419190,1975,1,193455,231748,-0.07,-1.23,10.66,-0.00,-0.06,-0.00,28.57
23459203,1964,1,193835,231123,0.31,-1.07,9.52,-0.06,-0.04,-0.05,28.57
23499876,1952,1,193543,231681,-0.15,-1.34,10.08,-0.04,0.01,-0.01,28.71
23538190,1991,1,192962,226030,0.38,-0.95,9.41,-0.06,0.09,-0.03,28.71
23578170,1985,1,191698,225622,-0.04,-1.15,9.55,-0.02,-0.06,-0.00,28.71
23618203,1978,1,191530,225025,0.64,-1.22,9.04,-0.08,-0.05,-0.01,28.71
23658190,1996,1,191915,226272,-0.13,-1.40,9.46,-0.02,0.12,-0.05,28.71
23698190,1973,1,191744,224785,0.33,-1.09,8.85,-0.03,-0.04,-0.01,28.71
23738203,1989,1,191846,226218,-0.60,-1.82,9.24,-0.01,0.04,0.01,28.71
23778170,1974,1,192218,226097,-0.09,-1.36,9.32,-0.02,0.03,0.00,28.71
23818170,1953,1,192191,226521,-0.59,-1.28,9.57,0.02,0.01,0.01,28.71
23858161,1947,1,192194,226436,0.11,-1.36,8.66,0.01,-0.17,0.01,28.71
23898162,1954,1,192574,226541,-0.26,-1.07,10.95,0.01,0.25,0.00,28.71
23938194,1962,1,192359,226904,0.42,-0.82,9.75,-0.02,-0.21,-0.01,28.71
23978190,1966,1,193021,227827,-0.05,-1.35,10.97,-0.02,0.12,-0.00,28.71
24018190,1945,1,192867,228760,-0.08,-1.46,10.16,-0.04,-0.10,-0.01,28.71
24058207,1934,1,193567,230606,-0.49,-1.22,10.62,-0.04,0.10,0.00,28.71
24098170,1920,1,193663,230597,0.10,-1.05,10.75,-0.01,-0.18,-0.00,28.71
24138209,1933,1,193661,228128,-0.38,-1.41,11.34,-0.06,-0.05,-0.01,28.71
24178204,1938,1,192155,225731,0.18,-1.25,10.28,-0.05,-0.17,-0.01,28.71
24218191,1920,1,191923,225198,-0.70,-1.15,10.84,-0.06,0.10,-0.00,28.71
24258190,1931,1,191632,225175,-0.04,-1.58,9.48,-0.05,-0.16,-0.00,28.71
24298207,1922,1,191902,225630,-0.33,-1.64,10.67,-0.07,0.11,0.00,28.71
24338170,1938,1,191600,225452,-0.13,-0.92,9.03,-0.04,-0.12,-0.01,28.71
24378207,1938,1,191993,227489,0.42,-1.24,10.50,-0.06,0.01,-0.01,28.71
24418170,1917,1,192663,228085,0.18,-1.16,10.05,-0.07,0.07,-0.01,28.71
24458170,1901,1,192283,227770,0.29,-1.14,9.33,-0.04,-0.20,-0.01,28.71
24498190,1929,1,192428,226517,0.33,-1.47,10.03,-0.07,0.05,-0.01,28.71
24538856,1936,1,191769,226513,-0.41,-1.91,7.87,-0.08,-0.09,-0.06,28.57
24579204,1936,1,192154,225951,-0.24,-1.16,9.24,-0.01,0.25,0.04,28.57
24619170,1927,1,192205,228772,-0.03,-1.49,9.66,-0.04,-0.06,0.01,28.57
24659190,1917,1,193590,230880,-0.14,-1.44,10.57,0.00,0.14,-0.02,28.57
24699170,1913,1,193689,232353,-0.17,-1.23,9.41,0.01,-0.18,0.01,28.57
24739170,1891,1,194389,232042,-0.14,-1.41,11.21,-0.00,0.13,-0.02,28.57
24779190,1933,1,192443,225586,0.43,-0.82,8.59,0.00,-0.32,-0.01,28.57
24819170,1931,1,192097,225286,-0.09,-1.62,12.03,-0.03,0.33,-0.00,28.57
24859190,1984,1,191539,224713,0.66,-0.60,7.76,-0.04,-0.31,-0.02,28.57
24899191,1979,1,192243,226215,-0.27,-1.53,12.06,-0.03,0.41,0.00,28.57
24939170,2012,1,191336,225049,0.46,-1.11,7.05,-0.08,-0.36,-0.00,28.57
24979190,1989,1,192013,226148,-0.24,-1.68,11.73,-0.00,0.40,0.00,28.57
25019170,1979,1,191356,224875,0.73,-1.02,7.36,-0.05,-0.47,-0.01,28.57
25059190,1979,1,191963,227429,-0.41,-1.58,11.02,-0.03,0.22,-0.03,28.57
25099191,1975,1,191995,226252,0.15,-0.86,8.61,-0.03,-0.13,-0.01,28.57
25139190,1954,1,192214,227912,-0.25,-1.08,10.88,-0.01,0.10,0.00,28.57
25179170,1942,1,192310,226824,0.04,-1.45,8.70,-0.04,-0.11,-0.01,28.57
25219190,1959,1,192134,227805,-0.34,-1.12,10.29,-0.02,0.08,-0.00,28.57
25259190,1948,1,192316,227243,0.34,-1.23,9.27,-0.01,-0.02,-0.01,28.57
25299191,1947,1,192766,230825,0.57,-1.19,11.28,-0.02,0.01,-0.01,28.57
25337170,1943,1,193910,232999,-0.07,-1.29,10.28,-0.05,0.00,-0.08,28.57
25377190,1913,1,194092,233545,0.01,-1.02,10.25,-0.02,-0.07,-0.02,28.57
25417190,1942,1,193928,230190,-0.07,-1.64,10.94,-0.07,0.05,-0.01,28.57
25457191,1931,1,192026,226519,-0.31,-1.05,9.92,-0.05,-0.12,0.00,28.57
25497190,1936,1,192375,228861,-0.50,-1.52,11.74,-0.04,0.07,0.00,28.57
25537170,1915,1,192757,229283,-0.13,-0.84,10.18,-0.06,-0.18,-0.02,28.57
25577910,1895,1,193307,231385,-0.30,-1.89,11.77,-0.05,0.06,-0.00,28.59
25618191,1878,1,193227,229148,-0.23,-1.15,9.91,-0.05,-0.12,0.00,28.59
25658191,1888,1,192635,228677,-0.26,-1.28,10.42,-0.05,-0.07,-0.01,28.59
25698204,1910,1,192187,226795,0.52,-1.32,8.71,-0.10,-0.05,-0.03,28.59
25738191,1916,1,191624,226069,0.22,-1.29,8.90,-0.05,0.01,-0.10,28.59
25778171,1901,1,191405,225357,0.32,-0.85,8.27,-0.06,0.04,-0.01,28.59
25818170,1943,1,191513,227167,0.45,-1.34,8.44,-0.05,0.04,-0.08,28.59
25858171,1943,1,192107,227218,-0.02,-1.74,8.72,-0.03,0.16,-0.00,28.59
25898190,1931,1,191866,227675,0.17,-1.62,7.75,-0.01,-0.18,0.00,28.59
25938170,1954,1,192466,227066,-0.08,-1.45,9.28,0.00,0.23,0.01,28.59
25978161,1904,1,192099,226960,-0.49,-1.11,7.82,0.05,-0.15,0.02,28.59
26018170,1869,1,192751,227569,-0.13,-1.68,9.72,0.05,0.07,0.04,28.59
26058162,1891,1,193049,227716,-0.06,-0.69,8.88,0.00,-0.08,0.01,28.59
26098168,1926,1,192853,226497,-0.31,-1.46,9.50,0.03,0.16,0.00,28.59
26138162,1957,1,192702,226871,0.07,-1.09,10.16,0.03,0.03,0.00,28.59
26178139,1895,1,193332,229869,0.24,-1.13,11.62,-0.02,0.07,-0.00,28.59
26218170,1857,1,193772,231028,-0.31,-0.81,10.83,-0.01,-0.01,-0.01,28.59
26258204,1872,1,194337,233048,-0.24,-1.38,12.32,-0.03,0.02,-0.00,28.59
26298191,1842,1,194823,233126,-0.21,-0.98,11.92,-0.05,-0.07,-0.01,28.59
26338204,1911,1,195098,233730,-0.00,-1.46,10.96,-0.07,-0.25,-0.02,28.59
26378207,1953,1,195847,233987,-0.19,-1.17,11.22,-0.08,-0.05,-0.09,28.59
26418204,1923,1,195428,233580,-0.24,-1.35,8.83,-0.08,-0.19,-0.24,28.59
26458207,1655,1,195942,233297,-0.43,-1.44,10.41,-0.10,0.11,-0.02,28.59
26498191,1639,1,195560,233553,-0.00,-1.51,7.51,-0.08,-0.20,0.01,28.59
26538191,1607,1,196072,235902,-0.39,-1.90,10.71,-0.09,0.27,-0.03,28.59
26578877,1630,1,195989,236918,0.74,-0.98,7.78,-0.06,-0.24,0.01,28.39
26617170,1615,1,196100,236636,-0.06,-1.55,10.74,-0.03,0.24,-0.01,28.39
26657190,1678,1,195807,235939,0.29,-1.17,7.69,-0.05,-0.27,0.06,28.39
26697170,1733,1,196012,233819,-0.08,-0.93,10.75,-0.04,0.15,0.00,28.39
26737168,1766,1,194169,227727,0.65,-0.82,7.92,-0.01,-0.18,0.01,28.39
26777170,1842,1,193775,228253,-0.20,-1.98,9.67,-0.08,0.12,-0.01,28.39
26817191,1897,1,193666,227958,0.50,-0.85,8.52,-0.03,0.02,0.04,28.39
26857161,1921,1,193903,229521,-0.21,-1.14,10.33,0.02,0.12,0.02,28.39
26897161,1977,1,194410,229409,0.02,-1.63,9.27,-0.03,-0.03,0.03,28.39
26937170,1953,1,194119,229297,-0.44,-1.62,8.97,-0.01,-0.02,0.01,28.39
26977191,2045,1,194112,228302,-0.19,-1.48,9.39,0.03,-0.00,0.01,28.39
27017170,2089,1,194030,228130,0.10,-0.94,8.66,0.01,-0.09,0.01,28.39
27057158,2146,1,194268,230581,-0.16,-2.00,9.73,-0.00,0.26,0.00,28.39
27097170,2064,1,194662,234309,0.26,-0.37,10.27,0.05,0.05,0.03,28.39
27137138,1974,1,195849,237003,-0.01,-1.35,13.51,0.04,0.24,-0.08,28.39
27177170,2167,1,196382,237783,-0.50,-0.69,9.92,-0.05,-0.59,0.03,28.39
27217203,2115,1,196797,238206,-0.82,-1.91,14.93,-0.00,0.23,-0.05,28.39
27257191,2249,1,196723,237242,-0.29,-1.02,10.90,-0.04,-0.32,-0.02,28.39
27297204,2261,1,197233,238304,-0.56,-1.58,13.22,-0.06,-0.05,-0.05,28.39
27337208,2079,1,196692,236984,-0.51,-0.89,10.25,-0.10,-0.03,-0.02,28.39
27377204,2189,1,196133,237309,0.05,-1.21,12.38,-0.07,-0.06,-0.04,28.39
27417214,2138,1,196060,237071,0.13,-1.04,10.16,-0.12,-0.07,-0.03,28.39
27457191,2238,1,195907,236329,-0.40,-1.43,9.73,-0.09,-0.06,-0.03,28.39
27497208,2086,1,195211,234302,0.30,-1.39,7.97,-0.13,-0.18,0.03,28.39
27537171,2063,1,195223,235395,0.37,-1.24,9.07,-0.05,0.09,-0.01,28.39
27577170,2034,1,195039,235048,0.44,-1.62,8.26,-0.07,0.01,-0.11,28.39
27617857,2096,1,194844,236068,0.36,-1.33,7.58,-0.05,-0.09,-0.01,28.39
27656190,1990,1,195218,236022,0.50,-1.65,9.35,-0.03,0.29,-0.04,28.39
27696171,1851,1,194891,235654,-0.15,-1.07,7.56,-0.02,-0.29,0.04,28.39
27736190,1702,1,195257,235618,0.03,-1.71,9.88,0.06,0.29,0.04,28.39
27776139,1717,1,194960,233433,-0.94,-1.30,7.80,-0.01,-0.09,0.07,28.39
27816190,1711,1,194667,231329,-0.05,-1.49,9.38,0.06,-0.11,0.04,28.39
27856171,1730,1,194016,230376,0.05,-1.22,8.90,0.03,0.05,0.02,28.39
27896140,1747,1,194052,233558,0.15,-1.41,9.18,0.04,0.01,-0.09,28.39
27936161,1702,1,194105,233277,0.01,-0.68,9.27,0.04,0.19,-0.03,28.39
27976161,1703,1,193954,233144,0.15,-1.47,9.50,0.01,-0.10,-0.00,28.39
28016168,1692,1,193121,228235,-0.36,-0.54,10.60,0.02,0.27,0.02,28.39
28056162,1735,1,192343,229665,0.16,-1.15,10.14,-0.02,-0.34,-0.00,28.39
28096190,1706,1,192851,229251,-0.17,-0.85,11.40,-0.01,0.02,-0.02,28.39
28136190,1802,1,192682,229861,-0.17,-1.64,10.78,-0.08,-0.12,-0.05,28.39
28176204,1789,1,192448,227913,-0.15,-1.19,10.33,-0.04,-0.01,-0.01,28.39
28216207,1868,1,192031,227424,-0.11,-1.25,10.76,-0.03,0.01,-0.01,28.39
28256191,1954,1,192119,227164,-0.71,-1.54,10.33,-0.08,0.09,-0.01,28.39
28296190,2060,1,191865,227873,-0.26,-1.49,9.22,-0.04,-0.14,-0.02,28.39
28336204,2023,1,192576,229210,-0.78,-1.72,10.30,-0.07,0.30,-0.01,28.39
28376190,2031,1,192785,232205,-0.39,-1.25,8.67,-0.04,-0.17,0.02,28.39
28416190,1983,1,193830,233622,-0.64,-1.25,11.15,-0.03,0.18,0.04,28.39
28456170,1995,1,194255,233820,0.11,-1.60,9.59,-0.07,-0.18,0.01,28.39
28496170,1989,1,194461,233455,0.01,-1.42,9.76,-0.11,0.02,-0.01,28.39
28536170,2096,1,194413,232715,0.04,-0.94,9.67,-0.08,0.04,0.09,28.39
28576158,2096,1,194699,233350,0.04,-0.67,9.75,-0.10,0.09,0.00,28.39
28616161,1998,1,194593,230066,-0.18,-0.94,9.32,-0.07,0.00,0.01,28.39
28656857,1968,1,193199,227490,0.13,-1.00,10.34,-0.05,0.07,-0.00,28.39
28697170,1955,1,192859,227262,-0.62,-1.44,9.60,-0.05,0.10,-0.01,28.39
28735190,1995,1,192671,226601,-0.46,-1.40,9.79,-0.05,-0.02,-0.00,28.39
28775205,1945,1,192590,226057,-0.74,-1.94,9.55,-0.04,0.03,-0.00,28.39
28815190,1936,1,192512,225839,-0.26,-1.42,9.71,-0.02,-0.04,-0.01,28.39
28855212,1949,1,192414,225867,-0.56,-1.67,9.51,-0.02,0.14,0.00,28.39
28895170,1919,1,192460,226198,-0.03,-1.17,9.90,0.01,0.05,-0.01,28.39
28935170,1958,1,192701,226185,0.01,-1.12,10.60,-0.00,0.12,-0.01,28.39
28975170,1963,1,192517,226325,-0.11,-1.40,9.23,-0.03,-0.15,-0.01,28.39
29015208,1938,1,192525,226052,-0.39,-1.32,9.43,-0.01,0.13,-0.01,28.39
29055205,1942,1,192286,226155,-0.20,-1.26,9.34,0.00,-0.01,-0.00,28.39
29095191,1963,1,192374,227031,-0.05,-1.26,9.98,-0.00,-0.04,-0.01,28.39
29135203,1935,1,192696,227684,-0.63,-1.19,9.89,-0.01,0.06,-0.01,28.39
29175190,1904,1,192926,228818,-0.44,-1.50,9.24,0.00,-0.21,-0.01,28.39
29215190,1906,1,193655,230309,-0.62,-1.52,10.90,-0.00,0.06,-0.01,28.39
29255190,1907,1,192677,225995,-0.58,-1.30,9.86,-0.02,-0.29,-0.01,28.39
29295204,1930,1,192273,225967,-0.44,-1.50,11.08,-0.00,-0.05,-0.01,28.39
29335205,1941,1,191900,225545,0.00,-0.61,9.64,-0.05,-0.16,-0.06,28.39
29375187,1925,1,192317,226286,-0.12,-1.31,11.95,-0.02,0.11,-0.04,28.39
29415191,1904,1,192045,225550,0.27,-0.91,9.18,-0.08,-0.13,-0.03,28.39
29455190,1829,1,192539,227078,0.74,-1.22,12.29,-0.05,0.12,-0.08,28.39
29495170,1683,1,191718,224739,-0.18,-0.84,6.95,-0.10,-0.29,-0.01,28.39
29535204,1589,1,191701,225173,0.98,-0.92,12.28,-0.04,0.32,-0.14,28.39
29575171,1437,1,191470,224302,0.80,-0.55,8.34,-0.07,-0.11,0.00,28.39
29615168,1424,1,192213,227513,0.93,-1.41,12.97,-0.03,0.14,-0.07,28.39
29655170,1424,1,191771,223894,0.68,-0.43,6.67,-0.10,-0.37,0.07,28.39
29695857,1571,1,191504,223421,0.56,-1.87,9.78,-0.05,0.39,-0.11,28.33
29736170,1625,1,190856,219350,0.51,-0.60,6.70,-0.06,-0.20,0.28,28.33
29776168,1862,1,190755,221661,1.50,-1.00,11.15,0.06,0.19,-0.11,28.33
29816162,1825,1,192131,222522,0.20,-0.48,8.68,-0.01,0.03,0.00,28.33
29856158,1899,1,192735,223842,-0.19,-1.54,9.29,-0.03,0.00,0.09,28.33
29896170,2019,1,191360,221966,0.51,-0.95,9.88,0.04,0.10,0.14,28.33
29936139,2058,1,191151,222790,-0.75,-1.43,10.25,0.04,0.04,0.06,28.33
29976162,2193,1,191327,222235,0.26,-0.56,11.69,-0.01,-0.09,-0.01,28.33
30016190,2194,1,191067,222408,0.22,-1.61,8.55,-0.02,-0.30,-0.07,28.33
30056191,2255,1,191265,224465,0.14,-1.07,12.05,-0.03,0.23,-0.07,28.33
30096171,2233,1,191496,227985,-0.24,-1.45,10.67,-0.02,0.02,-0.10,28.33
30136191,2251,1,192218,230112,0.24,-0.78,12.00,-0.02,-0.10,0.02,28.33
30176168,2138,1,192558,230291,-0.54,-1.31,11.48,-0.06,-0.02,0.08,28.33
30216190,2123,1,192399,229533,-0.42,-1.45,12.14,-0.06,-0.05,-0.03,28.33
30256204,2096,1,191768,226662,0.13,-0.62,11.13,-0.03,-0.20,-0.01,28.33
30296190,2093,1,191712,227001,-0.08,-1.13,11.54,-0.08,-0.02,-0.11,28.33
30336204,2130,1,191275,225966,0.25,-1.34,8.51,-0.09,-0.13,-0.13,28.33
30376191,2003,1,191097,226226,0.74,-1.03,9.36,-0.06,0.02,-0.12,28.33
30416171,1930,1,190886,227033,0.69,-0.97,8.13,-0.09,-0.01,-0.01,28.33
30456191,1954,1,191548,228271,0.44,-1.15,8.67,-0.06,0.06,-0.02,28.33
30496174,1923,1,191160,226848,0.53,-1.27,9.08,-0.04,0.02,-0.01,28.33
30536170,1927,1,190726,225999,0.39,-1.06,8.66,-0.03,-0.08,0.10,28.33
30576170,1933,1,190439,224926,0.15,-1.69,8.79,-0.00,-0.04,0.11,28.33
30616170,1925,1,189994,223212,-0.12,-1.47,8.63,0.01,-0.02,0.03,28.33
30656170,1925,1,189557,221938,0.41,-1.23,9.10,0.03,-0.06,0.01,28.33
30694882,1898,1,189537,221333,0.14,-1.31,9.16,0.04,0.09,0.01,28.43
30735139,1893,1,189475,223051,0.17,-1.04,9.01,0.03,0.03,0.01,28.43
30775140,1907,1,190349,224480,0.43,-0.93,10.18,0.01,0.26,0.04,28.43
30815139,1818,1,190385,227162,0.02,-1.07,9.08,0.03,-0.12,0.09,28.43
30855161,1703,1,191238,228518,0.50,-1.02,11.31,0.01,0.14,-0.01,28.43
30895161,1697,1,191365,229744,0.24,-0.75,9.85,-0.02,-0.12,-0.01,28.43
30935190,1691,1,191677,230293,0.29,-0.89,11.16,-0.01,0.03,-0.04,28.43
30975170,1717,1,191693,230513,0.27,-1.06,11.05,-0.03,-0.01,-0.00,28.43
31015190,1755,1,191924,231906,-0.17,-1.37,11.14,-0.05,-0.06,0.00,28.43
31055190,1794,1,192202,231051,0.13,-0.84,10.68,-0.04,-0.08,-0.00,28.43
31095191,1825,1,191698,228658,-0.06,-1.63,10.85,-0.05,-0.05,0.00,28.43
31135191,1856,1,190315,223493,-0.12,-0.87,10.26,-0.08,0.00,0.00,28.43
31175171,1893,1,189397,223416,0.09,-1.30,10.72,-0.04,-0.09,0.00,28.43
31215168,1912,1,189390,222495,0.18,-0.69,9.23,-0.09,-0.01,-0.00,28.43
31255190,1983,1,189253,223045,0.23,-1.50,9.51,-0.08,-0.00,-0.05,28.43
31295188,1974,1,189277,222706,0.34,-0.99,8.85,-0.10,0.11,0.01,28.43
31334162,2039,1,189598,225207,0.14,-1.15,9.67,-0.05,0.14,0.02,28.43
31374161,2029,1,190469,225691,0.46,-1.25,9.95,-0.09,0.12,0.08,28.43
31414162,2032,1,190647,227209,-0.23,-1.60,9.04,-0.07,-0.02,0.06,28.43
31454188,2047,1,190694,225723,0.29,-1.30,8.94,-0.09,-0.00,0.04,28.43
31494170,2063,1,190529,226467,-0.54,-1.61,9.63,-0.04,0.14,0.02,28.43
31534170,2075,1,190284,225300,0.24,-1.42,8.91,-0.02,-0.12,0.03,28.43
31574170,2038,1,190596,226316,-0.34,-1.30,10.37,-0.04,0.23,0.04,28.43
31614170,1875,1,190315,225496,-0.14,-1.35,8.94,-0.04,-0.14,0.12,28.43
31654191,1792,1,190597,225858,-0.40,-1.30,10.69,0.01,0.24,0.02,28.43
31694161,1722,1,190236,226307,-0.26,-1.52,9.12,-0.05,-0.14,0.13,28.43
31734878,1690,1,190519,224468,-0.57,-1.14,10.10,-0.01,0.25,0.01,28.47
31775171,1593,1,189238,222072,-0.46,-1.92,9.54,-0.03,-0.04,0.08,28.47
31815190,1535,1,188848,220933,-0.46,-1.27,10.68,-0.03,0.27,-0.00,28.47
31855191,1584,1,188558,221567,-0.58,-1.47,9.73,-0.04,-0.15,0.03,28.47
31895191,1648,1,188865,221204,-0.70,-1.47,10.35,-0.04,0.12,-0.03,28.47
31935190,1702,1,188609,221533,-0.58,-2.07,9.72,-0.06,-0.08,-0.00,28.47
31975207,1754,1,188684,221138,-0.76,-1.20,9.34,-0.03,0.02,-0.01,28.47
32015191,1812,1,188744,222112,-0.72,-1.51,10.30,0.02,0.08,-0.01,28.47
32055170,1854,1,188971,222084,-0.68,-1.36,10.23,-0.03,0.03,-0.10,28.47
32095191,1835,1,188810,222593,-0.66,-1.60,9.85,0.00,-0.11,-0.00,28.47
32135210,1847,1,189051,222433,-0.80,-1.40,10.19,-0.02,0.21,-0.01,28.47
32175191,1900,1,189010,223580,-0.94,-1.65,10.02,-0.03,-0.11,-0.01,28.47
32215207,1973,1,189115,222838,-0.26,-1.12,10.01,-0.04,-0.06,-0.03,28.47
32255204,2130,1,189330,223941,-0.41,-1.58,9.85,-0.06,0.04,-0.02,28.47
32295190,2217,1,189261,223576,-0.46,-1.13,9.82,-0.04,-0.10,-0.02,28.47
32336204,2225,1,189680,224781,-0.64,-1.82,10.46,-0.04,0.20,-0.01,28.47
32374191,2239,1,189361,223437,-0.58,-1.54,9.89,-0.05,-0.35,-0.02,28.47
32414204,2198,1,188965,221215,-1.17,-1.72,10.16,-0.04,0.12,-0.01,28.47
32454191,2211,1,188018,219804,-0.26,-1.44,9.49,-0.02,-0.41,-0.02,28.47
32494204,2212,1,188189,219668,-0.93,-1.47,10.65,-0.03,0.20,-0.01,28.47
32534204,2191,1,187771,219418,-0.54,-1.42,8.92,-0.03,-0.35,-0.02,28.47
32574204,2159,1,188186,219737,-0.43,-1.78,11.02,-0.02,0.17,-0.01,28.47
32614191,2129,1,187942,219710,-0.36,-1.49,8.34,-0.04,-0.33,-0.02,28.47
32654204,2110,1,188346,219530,-0.07,-1.43,10.35,-0.01,0.15,-0.02,28.47
32694191,2064,1,188004,219777,-0.03,-1.24,9.50,-0.03,-0.10,-0.06,28.47
32734890,2093,1,188436,220063,-0.03,-1.28,10.36,-0.03,0.08,-0.05,28.45
32773190,2086,1,188312,220158,-0.29,-1.06,9.28,-0.04,-0.04,-0.05,28.45
32813203,2064,1,188451,220789,-0.53,-1.70,9.82,-0.06,0.05,-0.03,28.45
32853190,2016,1,188297,221059,-0.22,-1.47,9.29,-0.03,-0.14,-0.08,28.45
32893204,1997,1,189012,222488,-0.41,-1.32,10.65,-0.02,0.04,-0.08,28.45
32933190,1977,1,188827,221578,-0.29,-1.59,8.97,-0.01,-0.23,-0.11,28.45
32973204,1575,1,188789,221914,-0.05,-1.04,10.24,-0.02,0.06,-0.16,28.45
33013190,1442,1,188106,219159,-0.14,-2.25,8.38,-0.04,-0.15,-0.05,28.45
33053204,1483,1,187229,217363,0.18,-0.54,10.69,0.01,0.10,-0.08,28.45
33093162,1620,1,186803,216016,0.27,-1.51,9.36,-0.05,-0.09,-0.00,28.45
33133190,1666,1,186523,215506,-0.11,-0.89,10.28,-0.01,0.01,-0.06,28.45
33173190,1770,1,186532,215150,0.05,-1.27,10.14,-0.01,-0.03,-0.03,28.45
33213191,1776,1,186629,215313,-0.04,-1.30,10.55,-0.03,0.05,-0.07,28.45
33253191,1653,1,186852,215382,-0.05,-1.40,10.28,-0.11,-0.04,-0.01,28.45
33293204,1733,1,186799,215361,-0.06,-1.20,9.87,-0.13,-0.06,-0.01,28.45
33333207,1887,1,186697,214637,-0.02,-1.19,10.35,-0.05,0.03,0.03,28.45
33374170,2003,1,186724,215131,0.20,-1.31,9.72,-0.11,0.03,0.03,28.45
33414161,1926,1,187048,215629,0.12,-0.87,10.47,-0.05,-0.07,0.04,28.45
33454170,1928,1,187221,216162,-0.09,-1.45,9.50,-0.09,-0.15,0.03,28.45
33494190,1917,1,187242,215982,-0.01,-1.32,9.71,-0.08,-0.13,0.05,28.45
33534190,1917,1,187535,216631,0.28,-1.42,9.98,0.05,0.14,0.02,28.45
33574139,1930,1,187684,216819,0.18,-1.09,10.28,-0.09,-0.06,0.02,28.45
33614171,1962,1,188128,218213,0.25,-1.61,10.43,0.00,-0.01,0.03,28.45
33654162,1989,1,188002,217132,0.42,-1.21,9.85,-0.11,-0.17,0.04,28.45
33694170,1979,1,187477,214906,0.13,-1.51,9.59,-0.01,0.03,-0.00,28.45
33734170,1968,1,186694,213202,0.00,-1.03,9.59,-0.08,-0.09,0.01,28.45
33774854,1973,1,186615,213325,-0.07,-1.58,10.32,0.02,0.15,0.03,28.43
33813162,2062,1,186145,212083,0.30,-1.17,9.14,-0.15,-0.46,0.01,28.43
33853170,2035,1,186164,212399,0.39,-1.70,9.91,0.10,0.14,0.11,28.43
33893139,1941,1,185622,210982,0.12,-0.79,9.58,-0.25,-0.65,0.18,28.43
33933170,2002,1,185632,210957,0.40,-2.32,9.85,-0.02,-0.34,0.17,28.43
33973210,1925,1,184991,209635,0.18,-1.16,9.19,-0.28,-0.78,0.05,28.43
34013170,1937,1,184806,208263,0.79,-2.70,9.26,-0.01,-0.17,-0.09,28.43
34053190,1792,1,183325,206235,1.11,-1.65,8.93,-0.08,-0.33,-0.09,28.43
34093190,1839,1,184230,208521,1.43,-1.72,9.27,0.08,0.34,-0.19,28.43
34133161,1920,1,184446,209792,0.87,-1.03,9.00,-0.13,0.10,-0.09,28.43
34173192,1958,1,186151,213476,0.89,-1.12,9.20,0.03,0.44,-0.07,28.43
34213162,1936,1,187066,215357,0.51,-1.53,9.56,-0.06,0.17,-0.05,28.43
34253170,1868,1,188684,217452,0.61,-1.56,10.24,0.11,0.58,-0.01,28.43
34293162,1681,1,188830,217727,-0.43,-1.47,9.82,-0.11,-0.08,-0.03,28.43
34333204,1616,1,189502,218122,0.65,-1.40,10.36,0.12,0.36,-0.02,28.43
34373162,1533,1,188772,215802,-0.26,-1.69,9.62,-0.12,-0.13,-0.01,28.43
34412204,1487,1,188974,215164,0.50,-1.34,10.70,0.18,0.66,0.01,28.43
34452139,1418,1,188716,215415,-0.00,-1.42,10.62,-0.07,-0.01,0.03,28.43
34492191,1378,1,189248,216171,-0.33,-1.19,11.55,0.12,0.39,0.05,28.43
34532162,1181,1,189341,216355,-0.12,-1.65,10.30,-0.04,-0.08,-0.00,28.43
34572208,0,1,189661,217111,0.40,-1.46,11.58,0.13,-0.03,-0.00,28.43
34612172,0,1,189675,217255,-0.13,-1.21,9.32,-0.17,-0.02,0.04,28.43
34652191,0,1,189897,217909,0.12,-1.49,10.58,0.06,-0.02,0.01,28.43
34692163,0,1,189672,217859,-0.08,-1.14,8.74,-0.25,-0.02,0.08,28.43
34732192,0,1,189735,218587,0.13,-1.71,9.75,0.07,-0.02,0.01,28.43
34772162,0,1,189998,219950,-0.05,-1.01,9.28,-0.09,-0.06,0.03,28.43
34812879,0,1,190387,221600,-0.17,-1.70,9.87,0.01,-0.05,0.09,28.43
34853171,0,1,190492,221613,-0.12,-1.10,9.05,-0.13,-0.05,0.05,28.43
34893187,0,1,190383,220649,-0.05,-1.79,9.57,0.04,-0.06,-0.02,28.43
34933191,0,1,190328,220372,0.11,-1.59,9.21,-0.09,0.02,0.04,28.43
34973158,673,1,190411,220104,0.59,-1.27,9.60,0.04,-0.06,0.01,28.43
35013162,1788,1,190435,219342,0.11,-1.74,9.36,-0.15,0.01,0.09,28.43
35053162,2417,1,189735,217020,0.28,-1.32,9.29,0.05,-0.03,0.07,28.43
35093162,3915,1,189091,215598,-0.05,-1.33,9.50,0.04,-0.16,0.11,28.43
35133171,4051,1,189002,215730,0.05,-1.61,9.94,0.14,-0.15,0.05,28.43
35173162,4038,1,189318,216082,0.13,-1.09,10.48,0.01,-0.07,0.06,28.43
35213161,4035,1,189607,216870,-0.20,-1.45,10.64,0.05,-0.07,0.07,28.43
35253171,3977,1,190125,218374,0.31,-1.42,11.39,0.00,-0.07,0.01,28.43
35293161,3991,1,190591,219162,0.06,-1.26,11.60,-0.04,0.01,0.02,28.43
35333161,3995,1,190486,218744,0.03,-1.17,10.57,-0.06,-0.05,0.08,28.43
35373170,3994,1,190501,218852,0.33,-1.65,11.70,0.04,-0.07,0.00,28.43
35412162,3933,1,190515,219056,0.18,-1.31,10.67,-0.06,-0.02,-0.01,28.43
35452190,3941,1,190608,219818,0.31,-1.08,10.65,0.01,-0.05,-0.02,28.43
35492170,3911,1,190937,220169,0.34,-1.32,10.29,-0.08,-0.01,0.00,28.43
35532171,3926,1,190734,219987,0.30,-1.29,8.87,-0.13,-0.08,0.00,28.43
35572170,3969,1,190718,219983,-0.05,-1.80,9.43,-0.05,0.04,0.01,28.43
35612188,3963,1,190876,220324,0.30,-1.19,9.16,-0.05,-0.03,0.02,28.43
35652170,3858,1,190676,219121,0.24,-1.50,9.28,-0.05,-0.02,0.01,28.43
35692170,3578,1,190212,217955,0.15,-1.04,9.23,-0.05,-0.03,0.02,28.43
35732170,3295,1,189789,217130,0.00,-1.48,8.76,-0.05,-0.00,0.02,28.43
35772168,3047,1,189911,217363,-0.09,-1.24,9.53,0.01,0.05,0.04,28.43
35812857,2834,1,190244,218077,0.46,-1.44,9.84,-0.01,0.02,0.00,28.51
35853161,2672,1,190761,219271,-0.12,-1.23,9.15,-0.01,0.08,0.00,28.51
35893170,2466,1,191374,220479,0.44,-1.28,9.55,-0.00,0.08,-0.02,28.51
35933170,2282,1,191939,221563,0.32,-1.16,10.03,0.01,0.08,-0.03,28.51
35973162,2009,1,192201,222183,-0.19,-1.29,9.73,-0.03,0.02,-0.01,28.51
36011190,1826,1,192603,223005,-0.27,-1.53,9.79,-0.02,0.04,0.00,28.51
36051170,1683,1,192854,224127,0.19,-1.15,10.57,-0.03,-0.07,-0.02,28.51
36091191,1621,1,193182,225211,-0.27,-1.20,10.16,-0.02,-0.02,0.00,28.51
36131190,1517,1,194465,228316,-0.29,-1.35,11.44,0.02,0.18,-0.03,28.51
36171171,1388,1,194787,228695,-0.12,-1.47,10.35,-0.06,-0.30,-0.02,28.51
36211207,1269,1,195077,229372,-0.28,-1.11,10.80,-0.02,0.06,-0.00,28.51
36251191,1223,1,194779,226634,0.28,-1.38,10.16,-0.04,-0.02,-0.00,28.51
36291190,1139,1,193536,224119,0.18,-1.00,10.75,-0.02,0.13,-0.01,28.51
36331170,1065,1,192545,223008,0.52,-0.97,9.74,-0.07,-0.20,-0.00,28.51
36371191,954,1,192884,223635,-0.36,-1.65,10.68,-0.06,0.14,0.00,28.51
36411171,640,1,192186,222385,0.28,-1.14,8.35,-0.10,-0.27,0.02,28.51
36452170,941,1,192685,223637,-0.27,-2.17,10.70,-0.02,0.11,0.00,28.51
36492171,1088,1,192405,222701,-0.28,-0.96,8.97,-0.08,-0.22,0.01,28.51
36532191,1228,1,192451,222905,-0.87,-1.62,9.55,-0.03,-0.03,-0.00,28.51
36572204,1364,1,192504,222003,0.05,-1.30,8.09,-0.05,-0.17,-0.02,28.51
36612191,1616,1,192442,222539,0.28,-1.52,9.95,0.03,0.07,-0.12,28.51
36652161,1587,1,192598,222521,-0.14,-1.13,8.83,-0.03,-0.11,0.02,28.51
36692190,1612,1,192882,223676,0.21,-1.31,9.78,0.00,0.00,-0.01,28.51
36732158,1691,1,193105,223528,0.29,-1.22,9.02,-0.05,-0.03,0.01,28.51
36772170,1733,1,193532,224425,0.09,-1.13,9.79,0.02,0.03,0.01,28.51
36812828,1753,1,193848,224429,0.39,-0.93,9.95,-0.02,0.05,0.02,28.37
36851162,1793,1,194077,225268,0.15,-1.32,9.87,-0.03,-0.06,0.02,28.37
36891170,1739,1,193725,222934,0.39,-0.89,9.57,-0.05,-0.02,0.01,28.37
36931170,1817,1,193288,222359,-0.24,-1.84,10.40,-0.00,0.07,0.01,28.37
36971170,1711,1,192595,221725,0.35,-0.62,10.66,-0.02,0.14,0.07,28.37
37011162,1459,1,192960,223530,-0.63,-1.76,11.78,-0.00,0.03,0.06,28.37
37051170,1168,1,192904,222088,-0.01,-0.74,10.17,-0.08,-0.19,0.06,28.37
37091191,1520,1,192946,222818,-0.88,-2.03,11.18,-0.01,-0.05,0.10,28.37
37131191,1559,1,192894,222168,0.54,-1.15,9.36,-0.06,-0.02,-0.01,28.37
37171190,1535,1,193049,223739,-0.43,-1.30,10.41,-0.01,0.07,0.02,28.37
37211171,1689,1,192886,222521,1.19,-0.25,9.14,-0.08,-0.09,-0.07,28.37
37251191,1894,1,192760,223200,-0.24,-1.36,10.38,-0.05,0.10,0.02,28.37
37291170,2043,1,192587,222346,0.24,-1.54,9.07,-0.09,0.07,-0.03,28.37
37331170,1967,1,192658,223770,-0.50,-1.96,10.03,-0.02,0.10,0.03,28.37
37371170,1883,1,193089,224004,0.19,-1.23,9.86,-0.07,-0.01,-0.01,28.37
37411190,2096,1,193082,224827,-0.62,-1.33,9.62,-0.02,-0.07,0.08,28.37
37451191,1921,1,193390,225060,0.03,-1.03,9.79,-0.03,-0.01,0.02,28.37
37491170,1742,1,193622,224568,-0.53,-1.48,10.29,0.02,0.06,0.02,28.37
37531161,1349,1,192899,222729,0.11,-1.63,10.64,-0.02,-0.03,-0.02,28.37
37571191,1247,1,192651,222705,-0.68,-1.35,10.58,-0.03,0.06,-0.01,28.37
37611191,1079,1,192327,222773,0.13,-1.33,9.54,-0.08,-0.09,-0.00,28.37
37651190,1525,1,192725,223144,0.23,-1.37,11.55,0.01,0.16,-0.04,28.37
37691161,1822,1,192550,223214,0.08,-1.35,9.74,-0.07,-0.14,0.00,28.37
37731171,1741,1,192654,222760,-0.23,-0.86,10.57,-0.05,0.11,0.01,28.37
37771171,1629,1,192715,222111,0.49,-1.07,8.18,-0.08,-0.29,0.04,28.37
37811170,1841,1,193133,221551,-0.15,-1.69,10.02,-0.04,0.14,0.03,28.37
37851857,2034,1,192699,220944,-0.31,-1.47,7.60,-0.05,-0.18,0.03,28.31
37890191,1895,1,192455,221015,0.19,-1.39,9.76,0.01,0.21,-0.00,28.31
37930161,1251,1,192439,220972,0.00,-1.30,7.87,-0.06,-0.22,0.04,28.31
37970170,1093,1,192783,221125,-0.23,-1.45,9.73,0.04,0.22,-0.00,28.31
38010171,1194,1,192982,221704,0.33,-1.13,8.54,-0.01,-0.16,-0.01,28.31
38050192,1159,1,193433,222027,0.16,-1.19,10.02,0.00,0.09,-0.00,28.31
38090158,1253,1,193364,221282,0.10,-1.18,9.07,-0.02,-0.05,-0.01,28.31
38130191,1646,1,193075,219277,0.13,-1.22,9.99,0.00,0.03,-0.01,28.31
38170161,1958,1,192427,218306,0.25,-0.80,10.21,0.01,0.04,-0.00,28.31
38210161,2157,1,192417,219010,-0.27,-1.58,10.75,-0.02,-0.01,-0.00,28.31
38250204,2261,1,192239,219351,-0.51,-1.19,10.92,-0.02,0.03,0.00,28.31
38290170,2287,1,192169,219728,-0.45,-1.39,10.41,-0.04,-0.09,0.02,28.31
38330191,2291,1,192453,220290,-0.11,-1.13,10.85,-0.02,-0.07,-0.01,28.31
38370207,2304,1,192620,221051,-0.37,-1.13,11.42,-0.04,-0.03,-0.00,28.31
38410204,2316,1,192420,220775,0.16,-1.09,10.52,-0.05,-0.10,-0.01,28.31
38450191,2304,1,192589,220698,0.14,-1.02,10.33,-0.04,-0.05,-0.01,28.31
38490191,2235,1,192523,220612,-0.37,-1.59,10.17,-0.04,0.04,-0.00,28.31
38530190,2160,1,192451,220883,0.45,-1.18,9.62,-0.04,-0.08,-0.01,28.31
38570191,2034,1,192586,220891,0.48,-1.43,9.72,-0.06,-0.06,-0.01,28.31
38610191,1906,1,192550,220278,0.03,-0.95,8.86,-0.05,-0.15,-0.01,28.31
38650191,1085,1,192262,219804,0.08,-1.44,9.11,-0.02,-0.05,-0.01,28.31
38690190,986,1,192323,220098,0.40,-1.36,8.96,-0.03,-0.04,0.08,28.31
38730168,511,1,192227,218804,-0.22,-1.37,8.92,-0.04,-0.09,0.00,28.31
38770191,532,1,191601,216691,-0.22,-1.13,8.74,0.00,-0.21,-0.00,28.31
38810191,733,1,191357,216732,0.29,-1.72,9.39,-0.00,0.06,-0.00,28.31
38850171,853,1,191561,216432,0.17,-0.94,9.89,0.02,-0.07,-0.00,28.31
38890861,1023,1,192104,217881,0.29,-0.95,10.22,0.00,0.04,-0.09,28.05
38931161,1207,1,192422,218642,0.23,-1.36,9.80,-0.05,-0.02,-0.01,28.05
38971191,1303,1,192349,219172,0.45,-0.85,10.43,-0.01,-0.03,-0.01,28.05
39011191,1180,1,192839,220147,0.02,-1.21,10.70,-0.02,0.05,-0.00,28.05
39051168,1401,1,192908,220767,0.03,-1.09,10.45,-0.05,-0.04,-0.01,28.05
39091243,1581,1,192800,220978,0.28,-1.38,11.35,-0.03,-0.02,-0.01,28.05
39131191,1807,1,192932,221937,0.15,-1.25,10.21,-0.05,-0.12,-0.02,28.05
39171191,1952,1,192905,221528,0.06,-1.35,10.69,-0.04,0.02,-0.01,28.05
39211170,2101,1,192257,221237,-0.04,-1.17,9.37,-0.02,-0.33,-0.01,28.05
39251208,2163,1,192576,221567,0.03,-1.31,10.46,-0.04,0.05,-0.01,28.05
39291170,2245,1,192168,220988,0.19,-0.44,9.37,-0.03,-0.05,-0.00,28.05
39331191,2254,1,191805,220771,0.18,-1.27,8.37,-0.04,-0.19,-0.03,28.05
39371191,2206,1,191698,220129,0.96,-1.10,9.86,-0.07,0.21,0.01,28.05
39411162,2225,1,191073,219721,0.59,-1.26,9.33,-0.06,-0.01,-0.04,28.05
39451191,2218,1,191175,220147,0.36,-0.90,9.86,-0.00,-0.06,-0.00,28.05
39491191,2186,1,191013,219645,0.24,-1.35,9.66,-0.05,-0.15,-0.00,28.05
39531191,2099,1,190946,219123,0.10,-1.07,10.03,-0.02,-0.02,-0.00,28.05
39571191,2047,1,191011,219413,0.37,-1.13,9.81,-0.01,-0.02,0.03,28.05
39611171,2010,1,191193,219916,-0.04,-1.25,9.68,-0.03,-0.01,-0.01,28.05
39649207,2047,1,190967,219953,0.09,-1.29,9.06,-0.02,-0.26,-0.00,28.05
39689190,2012,1,191366,220592,-0.09,-1.36,10.07,-0.01,0.26,0.00,28.05
39729171,1952,1,191306,220949,0.36,-1.12,9.76,-0.03,-0.04,0.00,28.05
39769171,1920,1,191862,222044,-0.06,-1.09,10.78,-0.03,0.14,-0.00,28.05
39809191,1915,1,191716,221662,0.40,-1.16,9.74,-0.04,-0.00,0.00,28.05
39849168,1872,1,191941,222103,0.40,-1.35,10.65,-0.04,0.07,-0.00,28.05
39889171,1790,1,192160,223185,0.30,-0.88,9.97,-0.05,0.03,-0.00,28.05
39929855,1693,1,192397,223616,0.17,-1.26,10.04,-0.05,-0.02,0.00,28.13
39970171,1827,1,192151,222108,0.46,-0.74,9.82,-0.05,-0.05,-0.01,28.13
40010191,1856,1,191598,220591,0.03,-1.56,9.68,-0.04,0.04,-0.00,28.13
40050171,1842,1,191110,219672,0.28,-1.25,9.32,-0.02,-0.03,0.00,28.13
40090168,1872,1,191037,220360,-0.23,-1.23,9.59,-0.04,0.08,0.00,28.13
40130171,1883,1,191063,220451,-0.01,-1.31,9.24,-0.04,0.01,0.02,28.13
40170171,1904,1,191040,220600,-0.00,-1.58,9.60,-0.01,0.00,-0.00,28.13
40210191,1942,1,190998,220345,-0.06,-0.81,9.69,-0.02,0.02,0.05,28.13
40250168,1920,1,190929,220281,0.26,-0.99,9.49,-0.01,0.03,0.00,28.13
40290162,1869,1,190911,219939,0.36,-1.24,9.60,-0.02,0.06,-0.01,28.13
40330171,1834,1,190713,219769,0.21,-1.21,8.68,-0.04,-0.11,-0.01,28.13
40370191,1826,1,190854,220355,0.07,-1.40,9.60,-0.03,0.08,-0.00,28.13
40410168,1859,1,190935,221496,0.32,-0.97,9.52,-0.01,-0.03,0.00,28.13
40450171,1835,1,191617,223317,0.24,-1.36,11.25,0.00,0.05,-0.02,28.13
40490162,1762,1,192089,223667,-0.11,-0.79,10.08,-0.01,-0.13,-0.01,28.13
40530254,1742,1,192351,225207,-0.12,-1.66,11.02,-0.01,-0.05,-0.04,28.13
40570204,1791,1,192887,225367,-0.65,-1.30,11.09,-0.01,-0.00,-0.01,28.13
40610206,1806,1,192444,224117,0.27,-1.35,11.36,0.03,-0.13,-0.03,28.13
40650171,1761,1,191799,222151,0.11,-0.77,11.73,-0.03,-0.01,-0.02,28.13
40690191,1787,1,191291,222317,0.38,-1.32,11.19,-0.02,-0.12,-0.08,28.13
40730191,1759,1,191469,221907,0.37,-0.95,11.05,-0.05,-0.07,-0.02,28.13
40770191,1820,1,191388,222524,0.27,-1.37,9.49,-0.05,-0.06,-0.27,28.13
40810191,1804,1,191311,221375,0.14,-1.16,9.76,-0.09,-0.12,-0.01,28.13
40850192,1789,1,190418,221590,0.25,-1.35,6.63,-0.07,-0.56,0.02,28.13
40890171,1667,1,190687,220877,0.80,-0.58,10.36,-0.03,0.16,0.05,28.13
40930860,1681,1,190304,222032,0.76,-1.39,6.17,0.05,-0.62,0.11,28.23
40969162,1563,1,191487,223699,0.28,-1.01,10.88,0.00,0.20,0.00,28.23
41009140,1557,1,191207,224562,0.21,-1.16,6.91,0.01,-0.41,0.18,28.23
41049162,1520,1,191767,223115,0.58,-0.97,10.07,0.03,0.02,0.01,28.23
41089140,1481,1,191399,223999,0.13,-1.26,7.40,0.08,-0.21,0.03,28.23
41129162,1406,1,191798,223775,0.81,-0.38,10.25,0.03,-0.01,-0.04,28.23
41169172,1389,1,191546,224827,0.62,-0.71,8.32,0.03,0.13,-0.08,28.23
41209163,1411,1,192262,226795,0.24,-1.05,9.72,0.00,0.06,0.01,28.23
41249140,1366,1,192497,225626,0.90,-0.90,11.37,0.02,0.05,0.02,28.23
41289140,1467,1,191290,223526,0.76,-0.36,10.06,-0.05,-0.10,0.10,28.23
41329171,1424,1,191093,223639,0.55,-0.42,10.66,-0.00,-0.03,0.02,28.23
41369171,1408,1,191312,223966,0.62,-1.19,11.56,-0.04,-0.03,0.01,28.23
41409172,1456,1,190928,223870,0.50,-0.93,9.92,-0.05,-0.14,0.01,28.23
41449172,1370,1,191731,225476,0.38,-0.79,11.52,-0.04,0.04,-0.02,28.23
41489173,1365,1,191558,226110,0.48,-1.12,8.67,-0.03,-0.21,-0.03,28.23
41529192,1414,1,191949,226314,0.68,-0.27,10.70,-0.05,-0.01,0.01,28.23
41569174,1435,1,191744,226254,0.76,-0.52,9.37,-0.01,0.03,0.03,28.23
41609163,1389,1,192245,228316,-0.03,-0.58,9.83,-0.05,0.12,0.02,28.23
41649174,1280,1,192140,226490,0.89,-0.70,9.49,-0.06,-0.04,0.10,28.23
41689172,1242,1,191447,224431,0.28,-1.06,9.04,-0.07,0.01,0.18,28.23
41729163,1324,1,191098,223668,0.20,-1.38,8.71,-0.08,0.04,0.15,28.23
41769163,1337,1,191184,223806,0.09,-1.25,9.06,-0.03,0.07,0.08,28.23
41809163,1394,1,191193,224367,0.30,-1.11,8.67,-0.04,0.04,0.08,28.23
41849163,1341,1,191524,225241,0.30,-1.04,9.43,-0.04,0.07,0.01,28.23
41889163,2041,1,191705,224354,0.01,-1.10,9.09,-0.02,-0.01,0.04,28.23
41929173,2244,1,190863,221896,0.03,-1.13,9.80,-0.00,0.06,0.06,28.23
41969849,1952,1,190467,220983,-0.15,-0.81,10.16,-0.01,0.08,0.08,28.37
42008175,2107,1,190345,220381,-0.17,-1.02,10.53,0.00,0.01,0.04,28.37
42048162,2660,1,190226,220269,-0.39,-1.11,10.32,-0.03,-0.06,0.03,28.37
42088191,2219,1,190294,220347,-0.33,-1.36,10.81,-0.03,0.09,-0.02,28.37
42128191,3093,1,190548,220872,-0.12,-0.90,10.79,-0.02,-0.02,-0.02,28.37
42168263,2390,1,190886,221001,-0.12,-1.02,11.39,-0.04,0.05,-0.03,28.37
42208195,2330,1,191062,220787,-0.05,-0.75,10.53,-0.07,-0.10,0.03,28.37
42248192,2074,1,191301,220856,-0.33,-1.17,11.12,-0.05,0.02,0.01,28.37
42288171,2385,1,191786,221718,0.16,-1.21,10.79,-0.07,-0.04,0.00,28.37
42328171,2321,1,191768,221638,-0.16,-0.99,9.85,-0.10,-0.06,-0.01,28.37
42368249,2165,1,192257,222194,-0.51,-1.41,10.13,-0.05,-0.03,-0.01,28.37
42408206,2207,1,191917,221805,0.07,-1.12,8.30,-0.10,-0.15,-0.01,28.37
42448192,2117,1,192403,222398,-0.49,-1.24,9.83,-0.01,0.03,-0.01,28.37
42488191,2118,1,192175,222346,-0.47,-1.34,8.85,-0.05,-0.02,-0.00,28.37
42528208,2103,1,192108,222667,-0.52,-1.23,8.75,-0.01,-0.06,-0.00,28.37
42568208,1955,1,191851,221179,-0.02,-0.87,8.97,-0.03,-0.05,0.06,28.37
42608191,2065,1,191290,220070,-0.45,-1.60,9.21,0.01,0.02,-0.02,28.37
42648171,1761,1,191274,219882,0.16,-0.72,9.89,0.02,0.03,-0.05,28.37
42688163,1616,1,191101,219992,-0.58,-1.14,9.45,0.00,-0.02,-0.05,28.37
42728192,1474,1,191519,220240,0.31,-1.04,9.79,0.01,-0.05,-0.02,28.37
42768171,1509,1,191457,220718,-0.11,-1.49,10.08,-0.01,-0.02,-0.02,28.37
42808206,1658,1,191979,222250,0.06,-1.40,10.31,0.01,-0.04,-0.04,28.37
42848174,1615,1,192242,222512,-0.13,-0.40,10.52,0.01,-0.03,-0.13,28.37
42888192,1405,1,192595,224069,-0.30,-1.40,10.94,0.00,-0.04,-0.08,28.37
42928195,1295,1,192655,223806,-0.15,-0.71,9.98,-0.03,-0.11,-0.05,28.37
42968209,1366,1,193480,227420,-0.10,-1.18,12.07,0.03,-0.01,-0.12,28.37
43008883,1283,1,193790,226680,0.30,-0.12,9.64,-0.04,-0.19,-0.05,28.33
43049193,1230,1,193872,228539,-0.14,-1.33,11.34,-0.01,-0.03,-0.10,28.33
43089210,1237,1,193986,226529,0.64,-0.25,9.22,-0.08,-0.12,-0.02,28.33
43129193,1335,1,193804,227825,0.10,-1.62,10.95,-0.00,0.03,-0.08,28.33
43169173,1317,1,194138,226905,0.30,-0.06,8.48,-0.08,-0.08,-0.02,28.33
43209193,1514,1,194195,227898,-0.28,-1.40,10.29,-0.01,0.09,-0.03,28.33
43249193,1598,1,193354,223607,0.88,-0.43,8.71,-0.05,-0.20,-0.02,28.33
43289193,1686,1,192811,223287,0.28,-0.82,10.38,-0.01,0.10,-0.04,28.33
43329173,1664,1,192847,223022,1.33,-0.61,8.86,-0.06,-0.14,-0.02,28.33
43369193,1715,1,192967,223271,-0.05,-0.40,10.15,-0.00,0.08,-0.04,28.33
43407195,1747,1,193184,223053,0.47,-0.74,8.60,-0.05,-0.12,0.02,28.33
43447172,1654,1,193317,223401,0.48,-0.54,10.33,-0.03,0.04,-0.03,28.33
43487174,1667,1,193357,223751,0.01,-1.25,9.06,-0.04,-0.08,0.00,28.33
43527171,1673,1,193855,224784,0.02,-0.95,11.06,-0.00,0.08,-0.02,28.33
43567174,1751,1,193691,224949,0.28,-1.01,9.79,-0.01,-0.13,-0.01,28.33
43607192,1747,1,194301,226171,-0.05,-0.76,10.82,-0.01,-0.05,-0.01,28.33
43647208,2059,1,194277,226088,0.21,-1.39,9.96,-0.03,-0.12,-0.07,28.33
43687191,2299,1,194644,227234,0.01,-0.60,10.99,-0.01,-0.01,-0.03,28.33
43727194,2387,1,194833,227350,0.47,-0.68,10.70,-0.00,-0.06,-0.01,28.33
43767191,2448,1,195112,229020,0.27,-0.84,10.64,-0.03,0.00,-0.08,28.33
43807174,2470,1,195270,229130,0.23,-1.02,9.89,-0.06,-0.05,-0.02,28.33
43847191,2405,1,195062,227370,0.42,-0.75,9.87,-0.03,-0.04,0.01,28.33
43887173,2339,1,194009,224541,0.35,-0.98,10.41,-0.07,0.05,-0.01,28.33
43927171,2280,1,193266,223456,0.29,-0.80,8.66,-0.06,-0.13,0.02,28.33
43967174,2143,1,193083,222964,0.34,-0.52,8.99,-0.06,-0.01,-0.01,28.33
44007197,2031,1,192758,222616,0.33,-1.11,8.36,-0.05,0.03,0.01,28.33
44047850,1903,1,192969,223839,0.42,-0.62,9.60,-0.02,0.06,-0.01,28.23
44088172,1791,1,193198,225255,0.66,-0.93,9.43,-0.02,-0.06,-0.02,28.23
44128193,1692,1,193719,226707,-0.07,-0.91,10.01,-0.03,0.04,-0.01,28.23
44168193,1642,1,193313,224228,0.49,-1.01,9.22,-0.02,-0.12,0.02,28.23
44208194,1583,1,193332,224746,0.00,-1.17,10.38,-0.01,0.01,0.00,28.23
44248163,1600,1,193589,225310,-0.25,-1.09,9.72,-0.02,-0.04,-0.01,28.23
44288209,1655,1,193699,226008,0.22,-0.70,10.42,0.00,-0.08,-0.01,28.23
44328173,1693,1,194203,228251,0.17,-0.89,10.54,-0.03,-0.00,-0.01,28.23
44368193,1732,1,194655,229773,0.24,-0.58,10.71,-0.02,0.04,-0.01,28.23
44408172,1731,1,195197,231712,0.06,-1.19,11.47,-0.02,0.05,0.01,28.23
44447163,1712,1,195175,231555,0.24,-0.44,10.21,-0.07,-0.14,0.05,28.23
44487172,1625,1,195335,230672,-0.06,-1.03,11.59,-0.03,0.09,-0.06,28.23
44527195,1579,1,193344,224522,0.14,-1.28,9.58,-0.07,-0.07,0.07,28.23
44567172,1492,1,192714,224470,0.37,-1.10,11.44,-0.04,0.16,-0.04,28.23
44607174,1529,1,192373,224009,-0.07,-1.11,9.00,-0.09,-0.13,0.03,28.23
44647193,1430,1,192503,224091,-0.11,-1.26,9.72,-0.05,0.02,-0.02,28.23
44687195,1392,1,192295,223231,0.13,-1.00,8.99,-0.08,-0.03,0.03,28.23
44727172,1395,1,192045,223213,0.19,-1.22,8.87,-0.03,-0.04,-0.02,28.23
44767195,1338,1,192556,223901,0.07,-0.97,9.81,-0.02,0.16,-0.03,28.23
44807171,1463,1,192414,223670,-0.16,-1.24,8.83,-0.05,-0.26,0.05,28.23
44847195,1597,1,192712,224031,-0.33,-1.22,9.40,0.00,-0.02,0.03,28.23
44887172,1656,1,192800,223978,-0.47,-1.20,9.46,-0.00,0.00,0.03,28.23
44927174,1656,1,193107,225291,-0.36,-1.14,9.94,0.01,-0.06,-0.03,28.23
44967193,1712,1,193497,225671,-0.20,-0.99,10.00,-0.01,-0.03,-0.07,28.23
45007210,1535,1,193494,226919,-0.53,-1.26,10.00,0.01,-0.04,-0.03,28.23
45047879,2224,1,194145,227887,-0.30,-1.15,10.30,-0.00,0.03,-0.05,28.37
45088192,2608,1,194221,229600,-0.23,-0.91,10.20,0.00,-0.06,-0.03,28.37
45128193,2559,1,194887,228652,0.01,-0.50,10.84,0.01,0.13,-0.06,28.37
45168162,1828,1,193094,224763,-0.42,-1.50,10.25,-0.03,-0.08,-0.01,28.37
45208210,1357,1,192636,223699,0.14,-0.77,10.70,-0.02,0.12,-0.05,28.37
45248175,1170,1,192513,225317,-0.12,-1.06,10.46,-0.02,-0.05,-0.03,28.37
45288210,1155,1,193537,226250,0.03,-0.88,11.22,-0.03,0.15,-0.07,28.37
45328175,1088,1,193174,226230,-0.17,-1.07,10.47,-0.05,-0.12,-0.03,28.37
45368208,1139,1,193593,226470,-0.08,-1.01,10.85,-0.06,0.06,-0.04,28.37
45408196,1239,1,193437,227018,-0.06,-0.94,10.51,-0.05,-0.07,-0.04,28.37
45447212,1425,1,193601,226585,0.45,-0.88,10.74,-0.07,-0.06,-0.04,28.37
45487195,1633,1,193698,228769,-0.57,-0.83,10.61,-0.06,-0.02,-0.04,28.37
45527209,1750,1,194329,228933,-0.06,-0.96,10.64,-0.07,-0.02,-0.06,28.37
45567209,1866,1,194062,227886,0.07,-0.99,10.23,-0.07,-0.11,-0.04,28.37
45607192,1974,1,193834,226742,-0.24,-1.32,8.98,-0.10,-0.10,-0.05,28.37
45647237,2032,1,194206,227981,-0.30,-1.29,10.17,-0.03,0.04,-0.11,28.37
45687196,1909,1,193864,226689,0.22,-1.09,8.22,-0.08,-0.17,-0.05,28.37
45727195,2119,1,194380,228974,-0.64,-1.09,10.06,-0.01,0.16,-0.04,28.37
45767192,2160,1,194456,228249,-0.06,-1.11,7.94,-0.07,-0.10,-0.03,28.37
45807210,2120,1,194355,226394,-0.50,-1.45,9.96,0.02,0.09,-0.03,28.37
45847187,2064,1,192957,223512,-0.19,-0.96,8.76,-0.05,-0.11,-0.03,28.37
45887209,2016,1,192690,222777,-0.40,-1.27,9.95,0.01,0.09,-0.05,28.37
45927172,2016,1,192498,222134,0.27,-1.30,8.65,-0.04,-0.08,-0.05,28.37
45967196,2019,1,192597,221208,-0.35,-1.63,8.95,0.00,0.13,-0.03,28.37
46007172,1933,1,192258,220968,-0.07,-1.07,9.01,0.02,0.10,-0.04,28.37
46047175,1831,1,192055,221946,-0.24,-1.00,8.93,0.01,0.18,-0.05,28.37
46087859,1808,1,192379,223039,-0.09,-0.71,9.99,0.02,0.23,-0.03,28.39
46126174,1788,1,192300,222792,-0.53,-0.99,9.67,-0.03,0.07,0.03,28.39
46166171,1801,1,192381,223973,-0.43,-1.33,10.17,-0.02,0.04,-0.01,28.39
46206195,1958,1,192832,224276,-0.40,-0.70,10.79,-0.05,0.10,-0.05,28.39
46246192,1989,1,192874,225414,-0.89,-1.38,10.09,-0.04,-0.07,-0.04,28.39
46286211,1884,1,193299,225099,-0.47,-1.22,11.28,-0.05,0.17,-0.06,28.39
46326192,1995,1,193015,226768,-0.83,-1.40,9.91,-0.07,-0.06,-0.05,28.39
46366209,2044,1,194242,228232,-0.43,-0.82,11.42,-0.01,0.22,-0.08,28.39
46406195,1998,1,194288,229517,-0.99,-1.55,10.09,-0.09,-0.18,-0.00,28.39
46446211,1755,1,194212,224819,-0.67,-0.88,11.17,-0.07,0.09,-0.01,28.39
46487192,1663,1,192474,222620,-1.33,-1.92,9.93,-0.06,-0.06,-0.02,28.39
46527209,1565,1,192437,222404,-0.85,-1.53,10.20,-0.10,-0.02,-0.06,28.39
46567207,1577,1,192148,222018,-1.07,-1.34,9.56,-0.08,-0.06,-0.06,28.39
46607209,1559,1,192123,221771,-0.77,-1.61,9.75,-0.04,-0.05,-0.06,28.39
46647210,1467,1,191879,222020,-0.90,-1.09,9.64,-0.05,-0.01,-0.06,28.39
46687210,1342,1,192596,225096,-1.09,-1.68,9.87,-0.02,0.02,-0.05,28.39
46727193,1329,1,193038,225599,-0.91,-1.41,10.07,-0.02,-0.10,-0.04,28.39
46767210,1250,1,192509,223754,-0.76,-1.39,9.70,-0.04,-0.16,-0.06,28.39
46807210,1250,1,192321,223418,-1.14,-1.65,9.61,-0.03,-0.08,-0.09,28.39
46847213,1018,1,192185,223554,-0.68,-1.62,8.95,-0.02,-0.10,-0.17,28.39
46887210,1200,1,192588,225197,-0.41,-1.65,10.32,0.01,0.07,-0.07,28.39
46927172,1707,1,192625,225074,-0.78,-1.45,9.75,-0.01,-0.05,-0.06,28.39
46967206,2098,1,192602,225732,-0.42,-1.52,10.17,0.02,-0.04,-0.06,28.39
47007193,2256,1,192951,225499,-0.55,-1.11,10.36,0.02,-0.03,-0.15,28.39
47047193,2335,1,192666,224293,-0.40,-1.51,9.75,0.01,-0.09,-0.20,28.39
47087883,2207,1,192179,222024,-0.21,-1.19,10.60,0.01,0.01,-0.18,28.43
47126174,2017,1,191548,221398,-0.44,-1.63,9.53,-0.01,-0.07,-0.22,28.43
47166209,2032,1,191542,221467,-0.08,-0.96,10.65,-0.00,0.05,-0.12,28.43
47206192,2032,1,191497,221967,-0.20,-1.37,9.50,-0.02,-0.04,-0.13,28.43
47246209,1999,1,191927,222968,-0.02,-1.18,10.60,-0.03,0.13,-0.06,28.43
47286192,2012,1,191747,223576,0.11,-1.28,9.59,-0.03,-0.07,-0.06,28.43
47326195,1942,1,192557,223712,-0.35,-1.23,10.53,-0.02,0.12,-0.06,28.43
47366192,1874,1,192232,222982,0.06,-0.92,9.45,-0.05,-0.15,-0.05,28.43
47406192,2279,1,192803,222658,-0.15,-1.36,10.42,-0.04,0.00,-0.06,28.43
47446191,2607,1,192485,222953,-0.25,-1.36,8.78,-0.05,-0.12,-0.22,28.43
47486208,2799,1,192676,223075,-0.14,-1.12,10.08,-0.08,-0.01,-0.07,28.43
47526211,2498,1,192528,223254,-0.14,-1.35,8.79,-0.04,-0.07,-0.08,28.43
47566209,2521,1,193056,224956,0.28,-1.14,10.61,-0.06,0.03,-0.05,28.43
47606171,2514,1,193136,225937,-0.25,-1.51,8.52,-0.07,-0.20,-0.11,28.43
47646208,2467,1,193904,227965,-0.33,-0.94,11.31,-0.03,0.11,-0.11,28.43
47686192,2419,1,192913,223352,-0.60,-1.65,8.53,-0.08,-0.31,-0.11,28.43
47726209,2080,1,192068,221655,0.38,-0.76,11.90,-0.05,0.15,-0.07,28.43
47766172,2143,1,191065,220186,-0.57,-1.67,8.58,-0.10,-0.34,-0.07,28.43
47806208,2150,1,191096,220254,0.68,-0.72,12.17,-0.03,0.26,-0.07,28.43
47846171,2288,1,190827,220558,-0.44,-1.43,8.43,-0.10,-0.27,-0.01,28.43
47886208,2281,1,191367,222199,-0.09,-1.13,10.97,-0.00,0.17,-0.06,28.43
47926191,2295,1,191366,222373,0.05,-1.18,8.65,-0.07,-0.14,-0.02,28.43
47966191,2262,1,191469,222707,-0.09,-1.19,9.69,-0.01,0.03,-0.04,28.43
48006192,2177,1,191638,223370,-0.27,-1.07,9.56,-0.01,0.06,0.01,28.43
48046171,2073,1,191709,223753,-0.09,-1.31,9.57,-0.01,-0.03,0.08,28.43
48086192,1905,1,191901,223785,-0.15,-0.87,9.88,-0.02,-0.01,0.11,28.43
48126878,1765,1,191698,222745,-0.28,-1.60,9.45,-0.02,-0.01,0.08,28.37
48165191,1535,1,191651,223206,-0.43,-1.56,9.28,0.00,0.01,0.07,28.37
48205163,1307,1,192026,223352,-0.08,-1.31,10.04,0.02,0.14,-0.03,28.37
48245171,947,1,192139,225510,-0.24,-1.28,9.33,0.02,-0.11,-0.04,28.37
48285194,660,1,193075,224515,-0.11,-0.99,10.70,-0.00,0.01,-0.07,28.37
48325191,496,1,191470,221804,-0.64,-1.87,8.87,0.00,-0.11,0.01,28.37
48365170,770,1,191334,222054,-0.19,-1.13,11.31,0.02,0.08,-0.06,28.37
48405170,1876,1,191406,223319,-0.36,-1.28,10.35,0.00,-0.09,-0.07,28.37
48445191,2605,1,192042,223954,-0.26,-1.13,11.09,0.01,-0.03,-0.09,28.37
48485190,2870,1,191633,223301,0.29,-1.17,10.60,-0.03,-0.08,-0.05,28.37
48525198,2864,1,191881,224501,-0.37,-1.48,10.41,-0.03,0.00,-0.04,28.37
48565191,2192,1,192179,225985,0.03,-0.90,10.32,-0.01,-0.05,-0.06,28.37
48605191,1680,1,192848,227703,-0.06,-1.30,10.77,-0.05,-0.02,-0.07,28.37
48645204,1392,1,192720,227143,0.11,-0.85,9.36,-0.06,-0.12,-0.06,28.37
48685191,1311,1,193002,227839,0.00,-1.60,11.05,-0.03,0.08,-0.05,28.37
48725171,1042,1,192844,227843,0.19,-0.99,9.66,-0.05,-0.06,-0.05,28.37
48765191,973,1,192738,226707,0.29,-1.08,9.99,-0.04,-0.05,-0.05,28.37
48805191,1103,1,192534,226655,0.34,-1.09,9.53,-0.05,-0.03,-0.05,28.37
48845191,1119,1,192644,226200,0.39,-1.33,9.70,-0.06,-0.03,-0.05,28.37
48885191,1309,1,192488,225617,0.44,-1.18,9.96,-0.04,-0.04,-0.05,28.37
48925191,1481,1,191773,222580,0.32,-0.78,10.23,-0.05,-0.02,-0.05,28.37
48965191,1535,1,191064,221581,0.35,-1.30,8.99,-0.06,-0.18,-0.07,28.37
49005191,1632,1,191198,220780,0.65,-0.68,9.96,-0.06,-0.05,-0.09,28.37
49045191,1699,1,190910,220678,-0.11,-1.26,8.97,-0.06,0.00,-0.18,28.37
49085191,1769,1,191254,222153,0.32,-1.48,10.04,-0.08,-0.01,-0.04,28.37
49125199,1823,1,191078,222883,0.73,-0.59,8.71,-0.08,-0.09,-0.05,28.37
49165878,1872,1,191837,224793,0.00,-1.38,10.24,-0.04,0.13,-0.05,28.43
49206171,1907,1,191688,223292,0.82,-0.78,8.88,-0.07,-0.06,-0.03,28.43
49246191,1920,1,191859,224322,-0.57,-1.98,9.95,-0.04,0.12,-0.04,28.43
49286191,1926,1,191507,222760,0.51,-0.79,8.54,-0.05,-0.09,-0.05,28.43
49326191,1873,1,191627,224541,-0.45,-1.92,10.21,-0.02,0.12,-0.04,28.43
49366191,1879,1,191884,224651,0.44,-0.57,8.98,-0.03,-0.03,0.00,28.43
49406170,1877,1,192103,226703,-0.31,-1.78,10.31,0.00,0.17,-0.00,28.43
49446171,1910,1,192262,225857,0.09,-0.72,9.52,-0.04,-0.10,0.09,28.43
49486171,1776,1,192304,224414,-0.59,-1.29,10.50,0.02,0.16,-0.02,28.43
49526173,1725,1,190795,221286,0.11,-0.93,9.63,-0.05,-0.25,-0.01,28.43
49565191,1708,1,190558,221304,-0.16,-1.35,10.65,-0.04,0.10,-0.05,28.43
49605191,1695,1,190387,221206,-0.22,-1.27,9.48,-0.05,-0.11,-0.04,28.43
49645208,1648,1,190543,221146,-0.52,-1.07,10.54,-0.00,0.13,-0.03,28.43
49685191,1585,1,190288,221166,-0.03,-1.22,9.29,-0.07,-0.16,-0.03,28.43
49725209,1427,1,190877,222059,-0.28,-1.32,10.59,-0.04,0.18,-0.05,28.43
49765191,1303,1,190551,221252,-0.11,-1.64,9.66,-0.05,-0.08,0.01,28.43
49805192,1264,1,191003,222055,-0.40,-1.64,10.68,-0.04,0.17,-0.01,28.43
49845192,1254,1,190797,221631,-0.46,-1.07,9.94,-0.05,-0.11,-0.03,28.43
49885209,1219,1,191050,222078,-0.14,-1.41,10.90,-0.01,0.03,-0.04,28.43
49925192,1263,1,191029,221998,-0.22,-1.36,10.17,-0.06,-0.01,-0.05,28.43
49965209,1315,1,191133,222039,-0.06,-1.43,10.70,-0.02,0.01,-0.05,28.43
50005191,1461,1,191015,221920,-0.50,-1.27,9.52,-0.03,-0.03,-0.05,28.43
50045207,1602,1,191127,222165,0.09,-1.38,10.13,-0.04,0.01,-0.05,28.43
50085172,1639,1,191008,221105,-0.13,-1.10,9.54,-0.02,0.07,-0.06,28.43
50125191,1658,1,190471,219276,0.08,-1.40,9.38,-0.03,-0.08,-0.04,28.43
50165189,1680,1,189937,218264,-0.14,-1.40,9.53,-0.04,0.14,-0.05,28.43
50205878,1737,1,189572,217614,-0.30,-1.26,8.98,-0.03,-0.07,-0.04,28.31
50244206,1767,1,189651,217702,0.39,-1.25,9.82,-0.01,0.04,-0.05,28.31
50284171,1787,1,189719,218268,-0.25,-1.44,9.50,-0.04,0.03,-0.05,28.31
50324191,1813,1,189794,218753,-0.17,-1.78,9.52,-0.01,-0.03,-0.05,28.31
50364209,1851,1,190271,220292,-0.27,-1.53,10.29,-0.00,-0.00,-0.05,28.31
50404205,1866,1,190457,220543,-0.08,-0.87,10.51,-0.03,-0.05,-0.10,28.31
50444208,1882,1,190571,221115,-0.11,-1.03,10.44,-0.02,-0.06,-0.06,28.31
50484205,1903,1,190697,220925,0.07,-1.17,10.43,-0.04,-0.04,-0.06,28.31
50524205,1943,1,190703,220968,-0.02,-1.32,10.24,-0.03,-0.09,-0.06,28.31
50564244,1968,1,190975,221398,-0.02,-1.10,10.29,-0.04,-0.05,-0.08,28.31
50604208,1966,1,191016,221524,-0.20,-0.96,9.51,-0.04,-0.09,-0.14,28.31
50644205,2002,1,191308,222025,0.10,-1.23,10.10,-0.04,-0.00,-0.14,28.31
50684191,2005,1,191353,222128,-0.12,-1.60,9.10,-0.07,-0.07,-0.09,28.31
50724205,1994,1,191407,221425,-0.10,-1.13,9.40,-0.06,-0.04,-0.05,28.31
50764244,1978,1,190825,219622,0.22,-1.01,9.04,-0.06,-0.03,-0.05,28.31
50804191,1998,1,190342,218320,-0.39,-1.52,9.67,-0.04,0.05,-0.05,28.31
50844192,1980,1,189885,216715,0.19,-1.25,8.97,-0.04,-0.06,-0.04,28.31
50884192,1935,1,189599,215171,-0.16,-1.64,8.75,-0.05,0.04,0.06,28.31
50924172,1982,1,189309,214508,-0.08,-1.00,9.52,0.02,0.13,-0.03,28.31
50964172,1963,1,188972,215028,0.02,-0.84,9.45,-0.02,-0.04,-0.05,28.31
51004191,1995,1,189430,216450,-0.35,-1.18,10.13,-0.01,0.09,-0.04,28.31
51044192,2047,1,189403,216567,-0.48,-2.37,9.38,-0.04,-0.10,-0.04,28.31
51084208,2125,1,189447,216967,-0.35,-0.78,9.78,0.01,-0.14,-0.05,28.31
51124191,2039,1,189896,218799,-0.11,-1.01,11.51,0.01,0.16,-0.05,28.31
51164171,1951,1,190221,220764,-0.46,-1.36,10.79,-0.03,-0.13,-0.10,28.31
51204206,1871,1,190894,223289,-0.22,-1.27,11.71,-0.03,-0.03,-0.05,28.31
51244895,1849,1,191862,227185,-0.35,-1.52,12.51,-0.04,0.01,-0.07,28.31
51285192,2035,1,192932,228045,-0.36,-0.59,12.67,-0.02,-0.08,-0.15,28.31
51325209,1778,1,192768,225505,0.00,-1.06,11.77,-0.10,-0.12,-0.05,28.31
51365192,1741,1,191582,219968,-0.29,-1.71,10.08,-0.15,-0.09,-0.12,28.31
51405209,1584,1,190129,217738,0.17,-1.49,8.05,-0.11,0.11,-0.27,28.31
51445172,1715,1,189352,215237,0.34,-0.66,8.09,-0.09,-0.01,0.08,28.31
51485172,1232,1,188746,215403,1.00,-0.92,8.55,-0.04,0.21,-0.02,28.31
51525176,1481,1,188916,216637,0.62,-1.22,8.60,-0.03,0.27,0.02,28.31
51565162,1535,1,189145,217792,-0.01,-1.10,7.61,-0.05,-0.27,0.17,28.31
51603190,1459,1,190327,219539,-0.03,-2.06,9.68,0.02,0.21,0.09,28.31
51643162,1489,1,190559,219435,-0.25,-1.47,8.15,0.02,-0.21,0.10,28.31
51683171,1535,1,190822,219018,0.39,-1.23,10.15,0.04,0.07,-0.04,28.31
51723162,1583,1,190504,218188,-0.75,-1.50,7.65,0.01,-0.05,-0.20,28.31
51763191,1565,1,189845,217162,0.27,-1.41,9.70,0.04,0.16,-0.14,28.31
51803162,1475,1,189548,219024,-0.00,-1.03,7.97,0.04,-0.05,-0.06,28.31
51843192,1535,1,191248,223594,0.23,-1.15,10.75,0.07,0.56,-0.05,28.31
51883162,1680,1,191560,224597,-0.51,-0.87,9.51,-0.00,-0.32,-0.03,28.31
51923205,1842,1,191601,223784,-0.04,-1.35,10.78,0.01,0.02,-0.03,28.31
51963174,1659,1,191516,222090,-0.67,-1.03,10.52,-0.03,-0.14,-0.05,28.31
52003208,1486,1,190797,219929,-0.39,-1.69,10.52,0.00,-0.14,-0.18,28.31
52043195,1505,1,190706,219636,0.15,-0.81,11.50,-0.05,-0.02,-0.18,28.31
52083192,1486,1,190720,220498,0.11,-1.08,10.69,-0.07,-0.08,-0.15,28.31
52123195,1469,1,190987,220558,-0.00,-0.83,11.22,-0.07,-0.05,-0.05,28.31
52163205,1808,1,190893,220968,-0.09,-1.52,10.48,-0.07,-0.11,-0.04,28.31
52203268,1938,1,191060,220346,-0.03,-0.49,11.27,-0.09,0.01,-0.05,28.31
52243192,2000,1,190699,220462,-0.43,-2.04,8.39,-0.12,-0.21,-0.09,28.31
52283896,1998,1,191016,220213,0.39,-0.89,10.63,-0.12,0.03,0.05,28.31
52324163,1747,1,190736,220544,0.23,-1.50,7.77,-0.07,-0.21,-0.15,28.31
52364196,1634,1,191448,222172,0.33,-0.91,10.39,-0.04,0.11,-0.06,28.31
52404199,1560,1,191128,221196,0.24,-0.80,8.04,-0.11,-0.09,-0.01,28.31
52444194,1483,1,191220,221402,0.02,-1.45,9.91,-0.01,0.11,-0.03,28.31
52484173,1429,1,191046,220627,0.14,-0.92,8.26,-0.08,-0.07,0.15,28.31
52524187,1477,1,191567,220888,-0.17,-1.96,9.61,0.00,0.06,0.02,28.31
52564162,1663,1,191580,220970,0.26,-0.71,8.89,-0.02,0.00,-0.02,28.31
52604191,1894,1,191901,221921,0.28,-1.35,9.57,0.00,-0.02,-0.03,28.31
52644173,2107,1,191652,220807,-0.28,-1.30,8.66,-0.01,0.09,-0.03,28.31
52684193,2158,1,190881,219843,-0.29,-1.45,9.52,0.02,0.05,-0.03,28.31
52724173,2114,1,190614,219911,0.13,-0.91,9.95,0.03,0.11,-0.00,28.31
52764162,1840,1,190572,220154,0.04,-1.11,10.25,0.01,0.03,-0.01,28.31
52804162,1680,1,190715,221206,0.19,-1.63,10.87,0.02,0.04,-0.07,28.31
52844162,1626,1,190695,221618,-0.15,-0.94,10.25,-0.02,-0.13,-0.07,28.31
52884210,1527,1,191258,223719,-0.11,-1.27,11.56,0.03,0.08,-0.05,28.31
52924173,1495,1,191765,224386,0.05,-1.04,11.60,-0.01,-0.00,-0.05,28.31
52964190,1600,1,191605,223253,0.33,-0.81,11.83,-0.02,-0.05,-0.04,28.31
53004193,1863,1,191743,223148,-0.24,-1.05,11.29,-0.06,0.03,-0.04,28.31
53044193,1999,1,191619,222798,0.03,-1.34,10.01,-0.09,-0.14,-0.10,28.31
53084193,2066,1,191912,222905,0.30,-0.78,10.77,-0.07,0.03,-0.04,28.31
53124173,2115,1,191860,222933,0.10,-1.17,9.12,-0.09,-0.07,-0.04,28.31
53164193,2066,1,191993,223064,0.27,-1.16,10.10,-0.09,0.03,-0.03,28.31
53204173,2112,1,192043,223306,0.28,-1.02,8.63,-0.09,-0.02,-0.03,28.31
53244193,2128,1,192058,223303,0.62,-0.80,9.44,-0.05,0.07,-0.04,28.31
53284857,2112,1,192416,222566,0.32,-1.13,9.80,-0.03,0.12,-0.01,28.33
53323174,2089,1,191824,220683,0.41,-1.35,8.92,-0.09,-0.05,-0.04,28.33
53363192,2130,1,191383,219203,0.30,-1.14,9.10,-0.06,-0.02,-0.03,28.33
53403193,2192,1,191014,218546,0.11,-1.29,8.46,-0.08,0.01,-0.01,28.33
53443172,2160,1,191027,218555,0.43,-0.83,9.50,-0.02,0.08,-0.03,28.33
53483172,2096,1,190748,218663,0.58,-1.04,8.82,-0.05,-0.05,-0.03,28.33
53523193,2047,1,191273,219638,0.29,-1.21,9.79,-0.01,0.00,-0.04,28.33
53563172,2053,1,190992,219507,0.38,-0.96,8.71,-0.05,-0.04,-0.03,28.33
53603192,2027,1,191377,219658,0.11,-1.41,9.66,0.01,0.01,-0.04,28.33
53643163,2031,1,191319,219948,0.52,-0.85,10.08,-0.01,0.04,-0.03,28.33
53683172,1997,1,191427,220881,0.15,-1.11,10.07,-0.02,-0.04,-0.03,28.33
53723193,1917,1,191678,221543,-0.10,-1.03,9.96,-0.03,-0.01,-0.03,28.33
53763206,1808,1,192009,222984,0.02,-1.63,10.90,-0.03,-0.02,-0.03,28.33
53803192,1728,1,192376,223262,0.42,-0.74,10.62,-0.05,-0.02,-0.02,28.33
53843206,1712,1,192464,223805,-0.17,-1.34,11.21,-0.01,-0.00,-0.02,28.33
53883210,1682,1,192581,223342,0.08,-0.84,10.50,-0.07,-0.07,-0.03,28.33
53923192,1671,1,192156,222004,0.05,-0.79,10.39,-0.02,0.03,-0.14,28.33
53963172,1631,1,191683,220518,0.21,-1.20,10.07,-0.05,-0.04,-0.02,28.33
54003193,1567,1,191482,221056,-0.10,-1.10,10.81,-0.02,0.08,-0.01,28.33
54043236,1483,1,191502,221034,-0.01,-0.88,9.92,-0.08,-0.04,0.05,28.33
54083193,1337,1,191546,221237,-0.43,-1.37,9.79,-0.03,-0.02,-0.00,28.33
54123209,1241,1,191620,221082,0.01,-1.58,9.61,-0.09,-0.01,-0.02,28.33
54163193,1121,1,191643,221236,0.42,-1.19,9.16,-0.05,-0.06,-0.02,28.33
54203196,910,1,191754,221502,0.11,-1.00,10.02,-0.02,0.12,-0.02,28.33
54243191,935,1,191808,221888,0.26,-1.25,9.03,-0.04,-0.05,-0.02,28.33
54283196,867,1,192049,222424,0.16,-1.26,9.84,-0.04,0.06,-0.02,28.33
54323860,896,1,192181,222694,0.05,-1.27,9.24,-0.02,0.02,-0.01,28.51
54362174,1110,1,192347,223079,0.58,-1.13,10.30,-0.01,0.02,-0.01,28.51
54402172,1349,1,192410,223100,-0.15,-0.97,9.79,-0.02,0.04,-0.01,28.51
54442195,1520,1,192334,223161,0.27,-1.41,9.10,-0.05,-0.04,-0.03,28.51
54482192,1633,1,192576,223721,0.37,-0.94,10.18,-0.00,0.11,-0.02,28.51
54522176,1701,1,192285,223191,0.24,-1.20,9.13,-0.03,0.00,-0.02,28.51
54562172,1681,1,192231,222135,0.06,-0.89,10.62,0.01,0.12,-0.02,28.51
54602163,1725,1,191461,220624,0.43,-0.73,9.28,-0.06,-0.06,-0.01,28.51
54642192,1706,1,191440,220748,-0.07,-1.10,10.35,-0.00,0.04,-0.02,28.51
54682195,1694,1,191358,220422,0.52,-0.88,9.80,-0.05,0.02,-0.02,28.51
54722172,1725,1,191536,221817,-0.02,-1.64,11.16,-0.01,0.05,-0.02,28.51
54762196,1770,1,191540,221258,0.15,-0.27,9.83,-0.07,-0.09,0.02,28.51
54802172,1847,1,191973,222512,-0.18,-1.58,10.39,-0.03,-0.02,-0.04,28.51
54842212,1819,1,192282,222655,0.45,-0.65,10.08,-0.08,0.03,-0.02,28.51
54882173,1713,1,192130,222851,0.40,-1.02,10.13,-0.03,-0.07,-0.02,28.51
54922195,1762,1,192733,223598,0.36,-0.46,10.49,-0.04,0.01,-0.02,28.51
54962172,1850,1,192557,224139,0.47,-1.14,9.92,-0.11,-0.05,-0.03,28.51
55002195,2032,1,192792,224149,0.02,-1.21,9.89,-0.05,0.01,-0.02,28.51
55042172,2112,1,192867,225233,0.45,-1.51,10.21,-0.04,0.05,-0.01,28.51
55082174,2144,1,193786,227056,-0.26,-1.01,10.25,-0.05,0.03,-0.01,28.51
55122193,2192,1,193941,227994,-0.06,-1.20,9.78,-0.04,-0.09,-0.01,28.51
55162209,2198,1,194133,227120,-0.01,-1.34,9.45,-0.08,-0.04,-0.02,28.51
55202209,2165,1,193399,223823,0.04,-1.02,9.73,-0.01,0.02,-0.01,28.51
55242174,2124,1,192307,222365,0.06,-1.32,9.34,-0.04,-0.04,-0.02,28.51
55282192,2032,1,192407,223444,-0.17,-1.07,10.13,-0.02,0.08,-0.01,28.51
55322196,1971,1,192539,223385,0.17,-1.21,9.68,-0.03,-0.01,0.02,28.51
55362863,1727,1,192721,224011,-0.03,-1.21,10.13,0.00,0.05,-0.01,28.43
55403176,1276,1,193160,224816,-0.43,-1.76,10.55,-0.02,0.12,-0.01,28.43
55441195,1491,1,193160,225440,0.36,-1.05,9.92,-0.01,-0.10,-0.02,28.43
55481211,1744,1,193583,225578,0.18,-1.20,10.86,-0.02,0.08,-0.00,28.43
55521171,1951,1,193248,225376,0.01,-1.50,9.41,-0.05,-0.03,-0.02,28.43
55561195,2103,1,193343,225284,0.29,-1.29,10.55,-0.02,0.04,-0.02,28.43
55601174,2197,1,193279,225801,-0.42,-1.48,9.08,-0.05,0.03,-0.01,28.43
55641195,2148,1,193751,225975,0.26,-0.82,10.79,0.01,0.07,-0.02,28.43
55681181,2074,1,193390,225657,-0.05,-0.64,9.22,-0.08,-0.02,0.01,28.43
55721195,2042,1,194037,227702,0.16,-1.32,10.87,0.00,0.11,-0.02,28.43
55761163,1933,1,194383,227169,0.07,-0.83,9.84,-0.05,0.04,-0.02,28.43
55801174,1943,1,194677,230078,-0.23,-1.99,11.14,-0.04,0.04,-0.02,28.43
55841193,2034,1,194952,225738,0.40,-0.32,9.76,-0.07,0.03,0.04,28.43
55881180,2103,1,193035,223408,-0.21,-2.16,10.20,-0.02,-0.06,-0.07,28.43
55921209,2066,1,192511,222182,0.29,-0.78,8.92,-0.10,-0.01,-0.00,28.43
55961193,2201,1,192228,222162,-0.40,-1.36,9.38,-0.00,0.05,-0.02,28.43
56001191,2005,1,192104,222151,0.83,-0.83,9.94,-0.05,-0.00,-0.01,28.43
56041195,1954,1,192140,223624,0.44,-0.77,8.94,-0.09,-0.01,-0.02,28.43
56081191,1889,1,192877,224019,0.41,-0.88,10.43,-0.03,0.17,-0.03,28.43
56121174,1779,1,192545,223466,0.04,-1.48,7.91,-0.08,-0.17,0.03,28.43
56161174,1572,1,193344,224702,-0.51,-1.84,11.07,-0.02,0.25,-0.02,28.43
56201195,1518,1,192980,224236,-0.04,-0.98,8.41,-0.08,-0.09,0.02,28.43
56241193,1450,1,193492,225982,-0.34,-1.52,11.39,0.00,0.08,-0.02,28.43
56281174,1402,1,193523,225975,-0.44,-1.38,8.29,-0.10,-0.04,0.06,28.43
56321196,1349,1,193946,227139,-0.29,-1.70,11.05,0.02,0.07,-0.03,28.43
56361175,1211,1,194179,227879,-0.29,-1.18,9.73,-0.04,-0.09,0.06,28.43
56401880,1191,1,194635,229050,-0.51,-0.97,10.83,-0.01,0.05,-0.04,28.43
56442196,1182,1,194997,229276,-0.35,-1.47,10.58,-0.04,-0.02,0.03,28.43
56482193,1138,1,194163,224947,-0.45,-1.47,10.01,-0.05,-0.07,-0.02,28.43
56522213,1181,1,193153,224100,-0.23,-1.23,11.02,-0.02,0.06,-0.02,28.43
56562193,1341,1,193064,224419,-0.47,-1.40,10.46,-0.05,-0.03,-0.02,28.43
56602210,1435,1,193138,224480,-0.18,-1.39,10.51,-0.03,-0.02,-0.02,28.43
56642210,1526,1,193262,225218,-0.48,-1.68,10.59,-0.06,0.04,-0.02,28.43
56682196,1659,1,193367,226216,-0.10,-1.05,10.13,-0.05,-0.03,-0.03,28.43
56722207,1761,1,194100,227350,-0.15,-0.91,10.73,-0.02,0.02,-0.04,28.43
56762196,1831,1,193932,226929,-0.21,-1.28,9.97,-0.06,-0.04,-0.02,28.43
56802208,1863,1,194021,226021,-0.06,-1.18,10.38,-0.05,0.08,-0.03,28.43
56842196,1843,1,193686,225653,0.01,-1.67,9.03,-0.06,-0.16,-0.03,28.43
56882193,1835,1,193849,225513,0.63,-0.88,9.71,-0.07,0.05,-0.03,28.43
56922173,1808,1,193797,226406,0.02,-1.10,9.12,-0.02,0.00,-0.15,28.43
56962173,1806,1,194004,226263,0.43,-1.12,9.45,-0.05,-0.03,-0.03,28.43
57002196,1799,1,193925,226778,0.15,-1.21,8.99,-0.04,-0.02,-0.15,28.43
57042194,1791,1,194187,226796,-0.11,-1.13,9.25,-0.04,-0.01,-0.03,28.43
57082210,1806,1,193908,226775,0.11,-1.32,9.05,0.02,-0.02,-0.17,28.43
57122173,1744,1,193515,224425,0.00,-0.48,10.06,-0.04,0.00,-0.02,28.43
57162173,1671,1,192524,223020,-0.14,-1.35,8.53,0.00,-0.08,-0.20,28.43
57202197,1532,1,192335,222815,0.40,-0.86,10.37,-0.02,0.02,-0.03,28.43
57242175,1366,1,192173,223389,0.21,-1.25,9.02,-0.01,-0.05,-0.03,28.43
57282197,1299,1,192490,224236,0.09,-0.83,10.75,-0.00,0.05,-0.00,28.43
57322196,1258,1,192647,226182,0.22,-0.81,9.39,-0.01,-0.11,0.01,28.43
57362174,1339,1,193810,228720,-0.02,-1.12,10.91,-0.01,0.06,-0.00,28.43
57402884,1366,1,193887,228626,0.04,-1.08,9.71,-0.02,-0.13,0.00,28.37
57441173,1472,1,194207,229417,0.39,-1.01,11.48,-0.01,-0.01,-0.00,28.37
57481196,1488,1,194310,229556,-0.28,-0.69,10.27,-0.05,-0.04,0.00,28.37
57521196,1642,1,194501,229698,0.27,-1.10,11.57,-0.00,-0.02,0.00,28.37
57561175,1619,1,194100,227335,0.54,-0.46,9.79,-0.07,-0.17,0.00,28.37
57601174,1680,1,193908,227787,-0.10,-1.61,10.32,-0.05,0.05,-0.08,28.37
57641196,1776,1,194095,228076,0.44,-0.63,10.11,-0.06,-0.04,0.00,28.37
57681174,1838,1,194145,229562,0.23,-1.20,9.26,-0.02,-0.07,-0.14,28.37
57721196,1888,1,194794,231844,0.76,-0.60,10.22,-0.08,0.02,-0.02,28.37
57761173,1809,1,194764,227506,-0.15,-1.29,8.32,-0.09,-0.06,0.02,28.37
57801196,1772,1,192301,223560,0.43,-1.02,9.05,-0.01,-0.11,0.00,28.37
57841174,1827,1,192176,222805,0.22,-1.27,10.26,-0.06,0.20,0.06,28.37
57881163,1821,1,191891,222202,-0.14,-1.35,8.33,-0.02,-0.14,0.13,28.37
57921196,1993,1,191820,221636,0.32,-1.33,9.37,-0.06,-0.02,0.01,28.37
57961175,2102,1,192000,221863,0.39,-1.18,9.35,-0.02,0.08,0.10,28.37
58001163,2119,1,192084,222813,-0.15,-0.58,9.34,0.00,0.13,0.01,28.37
58041162,2154,1,192425,225225,0.84,-1.07,11.00,-0.01,-0.00,0.01,28.37
58081173,2170,1,193308,226310,0.36,-0.88,11.02,-0.02,0.15,0.02,28.37
58121163,2102,1,192941,226213,-0.25,-1.69,10.10,-0.04,-0.12,0.06,28.37
58161196,2128,1,193511,227380,0.02,-1.17,11.05,-0.04,0.10,0.01,28.37
58201163,2037,1,193598,227890,-0.09,-0.85,10.58,-0.06,0.01,0.02,28.37
58241173,2055,1,193996,228433,0.21,-1.31,11.75,-0.03,0.05,-0.02,28.37
58281175,2096,1,193499,226616,0.06,-0.91,9.20,-0.11,-0.07,0.03,28.37
58321173,2019,1,193234,226602,-0.14,-1.71,10.81,-0.05,0.15,0.01,28.37
58361175,2055,1,192901,226818,0.48,-0.63,8.43,-0.09,-0.11,0.06,28.37
58401172,2066,1,193328,226190,0.17,-1.20,10.36,-0.05,0.16,-0.01,28.37
58441862,2112,1,191984,223542,0.10,-0.87,8.41,-0.13,-0.09,0.13,28.37
58480173,2135,1,191929,223810,0.10,-1.40,10.62,-0.00,0.07,-0.01,28.37
58520175,2000,1,191863,223893,0.01,-1.07,8.51,-0.09,-0.12,0.10,28.37
58560172,1991,1,192491,225299,-0.02,-1.26,11.25,-0.00,0.10,0.01,28.37
58600174,1965,1,192382,224846,0.05,-0.64,8.80,-0.06,-0.06,0.03,28.37
58640173,1773,1,192571,225985,0.41,-1.05,10.66,0.00,0.01,0.00,28.37
58680142,1731,1,192735,226994,-0.12,-1.52,8.97,-0.08,0.01,0.00,28.37
58720175,1678,1,193379,228244,-0.04,-0.56,10.26,0.01,0.03,-0.03,28.37
58760174,1523,1,193519,228532,-0.35,-1.04,9.66,-0.05,-0.09,0.04,28.37
58800193,1648,1,194017,230292,-0.56,-1.60,10.45,-0.03,0.04,0.00,28.37
58840174,1638,1,194025,228173,-0.33,-1.05,9.64,-0.07,-0.10,-0.01,28.37
58880209,1637,1,194054,229153,-0.74,-1.46,10.21,-0.01,-0.04,0.01,28.37
58920196,1601,1,194343,228012,0.24,-0.60,10.21,-0.05,0.02,-0.00,28.37
58960172,1618,1,194601,230602,-0.86,-2.09,10.64,-0.02,-0.02,0.02,28.37
59000195,1631,1,195023,229033,0.26,-0.65,9.86,-0.07,-0.07,0.02,28.37
59040173,1639,1,193805,225502,-0.75,-2.22,10.96,-0.01,0.02,0.01,28.37
59080174,1681,1,192725,224196,0.09,-0.91,9.86,-0.04,-0.09,0.02,28.37
59120172,1646,1,192692,224400,-0.97,-1.24,10.51,-0.01,0.04,0.02,28.37
59160179,1695,1,192620,223883,0.31,-1.22,9.19,-0.03,-0.15,0.02,28.37
59200174,1635,1,192513,223789,-0.84,-1.49,10.06,-0.02,0.06,-0.00,28.37
59240196,1601,1,191973,223017,0.19,-1.20,8.38,-0.03,-0.13,0.01,28.37
59280175,1593,1,192091,223188,-0.54,-0.96,9.67,-0.00,0.11,0.02,28.37
59320174,1561,1,191539,222059,0.03,-1.20,8.01,-0.06,-0.20,0.05,28.37
59360172,1654,1,191618,222413,-0.40,-1.40,9.46,0.00,0.11,0.02,28.37
59400163,1818,1,191443,221816,-0.23,-1.39,8.63,-0.03,-0.07,-0.01,28.37
59440209,1863,1,191900,223309,-0.28,-1.49,10.18,0.00,0.04,-0.00,28.37
59480862,1768,1,191924,223181,-0.58,-1.37,8.94,-0.05,-0.01,-0.01,28.33
59521208,1895,1,192031,224654,-0.06,-1.57,10.31,0.01,0.01,-0.03,28.33
59561176,1781,1,192508,224984,-0.19,-1.12,9.83,-0.02,0.07,-0.05,28.33
59600196,1807,1,192304,225522,-0.11,-1.59,10.32,0.00,-0.01,-0.01,28.33
59640196,1744,1,192666,223594,-0.35,-1.30,10.58,-0.01,0.21,-0.01,28.33
59680194,1757,1,191182,221311,-0.02,-1.16,10.17,-0.03,-0.16,-0.00,28.33
59720209,2064,1,190926,220820,-0.45,-1.17,10.36,-0.02,0.17,-0.01,28.33
59760193,2004,1,190771,220379,-0.03,-1.20,9.94,-0.03,-0.12,-0.00,28.33
59800209,1904,1,190912,220033,0.06,-1.16,10.19,-0.03,0.09,-0.01,28.33
59840173,1856,1,190819,219945,-0.31,-1.14,9.67,-0.04,-0.02,0.00,28.33
59880196,1794,1,191030,220170,-0.32,-1.24,9.46,-0.04,0.03,-0.00,28.33
59920196,1641,1,191071,220336,0.03,-1.07,9.68,-0.04,0.01,-0.01,28.33
59960175,1535,1,191184,220456,-0.23,-1.51,9.49,-0.05,0.10,-0.00,28.33
60000192,1567,1,191341,220934,-0.29,-1.08,9.94,-0.00,0.08,0.01,28.33
60040172,1735,1,191344,220993,-0.20,-1.15,9.69,-0.05,-0.04,-0.01,28.33
60080207,1871,1,191442,221409,-0.38,-1.20,9.50,-0.04,-0.01,-0.01,28.33
60120209,1943,1,191411,221259,-0.10,-1.27,9.94,-0.04,0.01,-0.02,28.33
60160225,1890,1,191430,221347,0.00,-1.13,9.78,-0.03,0.00,-0.01,28.33
60200173,1879,1,191699,222510,-0.30,-1.46,10.30,-0.04,0.10,-0.01,28.33
60240192,1870,1,191575,222158,-0.33,-1.28,9.12,-0.06,-0.08,-0.02,28.33
60280209,1906,1,191495,220452,-0.14,-1.28,10.54,-0.02,0.09,-0.01,28.33
60320193,1874,1,190536,218110,-0.10,-1.38,9.79,-0.06,-0.06,-0.01,28.33
60360209,1777,1,190350,218251,0.24,-1.16,11.15,-0.02,0.04,-0.01,28.33
60400172,1654,1,190049,217400,-0.39,-0.94,9.17,-0.08,-0.05,-0.02,28.33
60440209,1655,1,190542,217822,-0.12,-1.87,10.38,-0.03,-0.02,-0.02,28.33
60480896,1715,1,189972,217240,-0.08,-1.07,9.53,-0.08,0.04,-0.02,28.25
60519195,1679,1,190696,218541,-0.21,-1.40,9.87,-0.01,-0.07,-0.01,28.25
60559209,1718,1,190670,218924,-0.03,-0.94,10.04,-0.05,0.12,-0.01,28.25
60600235,1703,1,190777,220193,0.05,-1.42,9.72,-0.03,-0.17,-0.01,28.25
60640193,1646,1,190980,219621,0.11,-0.65,10.12,-0.02,0.09,-0.02,28.25
60680173,1626,1,191096,220024,0.17,-1.37,9.61,-0.05,-0.12,-0.04,28.25
60720193,1631,1,191206,219875,-0.11,-1.34,10.00,-0.04,0.12,-0.02,28.25
60760194,1647,1,191125,220464,-0.17,-1.17,9.20,-0.02,-0.15,-0.03,28.25
60800212,1677,1,191788,221434,0.07,-1.19,10.07,-0.02,0.10,-0.01,28.25
60840173,1689,1,191639,221854,-0.18,-0.98,9.21,-0.05,-0.11,-0.01,28.25
60880207,1725,1,192322,222681,-0.27,-1.44,9.93,-0.03,0.04,-0.01,28.25
60920196,1629,1,192189,221514,-0.31,-1.24,9.85,-0.03,-0.08,-0.01,28.25
60960210,1643,1,191674,219487,-0.36,-1.37,9.84,-0.06,-0.07,-0.01,28.25
61000210,1562,1,191117,218198,0.03,-1.10,9.42,-0.03,-0.15,-0.02,28.25
61040193,1606,1,191168,217635,0.02,-1.52,9.90,-0.05,-0.01,-0.03,28.25
61080194,1645,1,190954,217389,-0.16,-1.23,9.41,-0.02,-0.02,-0.02,28.25
61120208,1610,1,191131,218029,-0.36,-1.63,9.83,-0.03,-0.01,0.01,28.25
61160197,1622,1,191332,219075,0.08,-0.92,9.76,-0.02,-0.09,-0.01,28.25
61200193,1600,1,191550,219222,-0.52,-1.56,10.24,-0.02,0.06,-0.00,28.25
61240196,1430,1,191735,219234,-0.55,-1.48,10.14,-0.01,-0.11,0.01,28.25
61280193,1648,1,192162,220223,0.11,-1.79,10.57,-0.03,-0.06,-0.02,28.25
61320196,1834,1,191858,221155,-0.96,-1.69,8.81,-0.04,-0.14,-0.09,28.25
61360207,1979,1,192539,222733,0.45,-1.83,11.31,0.02,0.01,-0.01,28.25
61400162,2007,1,192778,222346,-1.16,-0.68,10.05,0.02,0.04,-0.00,28.25
61440173,2020,1,193240,224465,-0.11,-2.19,11.53,0.00,0.03,-0.01,28.25
61480173,1977,1,193436,225163,-0.60,-0.50,9.51,-0.05,-0.10,0.00,28.25
61520880,1982,1,193928,225541,-0.48,-1.90,11.06,-0.02,-0.01,-0.00,28.31
61559209,1990,1,193275,221884,-1.01,-0.88,8.17,-0.11,-0.20,-0.02,28.31
61599209,1871,1,192020,218335,0.86,-2.74,11.41,-0.10,0.11,-0.06,28.31
61639174,1967,1,190506,217221,-0.55,-2.10,6.06,-0.05,-0.19,-0.04,28.31
61679206,2407,1,190791,218102,0.08,-1.50,9.90,0.10,0.26,0.00,28.31
