timestamp_us,ecg,leads,ir,red,accX,accY,accZ,gyroX,gyroY,gyroZ,temp
1919486,1985,1,196760,229264,0.00,0.00,0.00,0.00,0.00,0.00,0.00
1949961,2068,1,196260,228722,0.80,-0.40,9.66,-0.04,-0.02,-0.00,31.35
1990198,2066,1,196290,230204,0.81,-0.41,10.00,-0.05,0.02,-0.01,31.35
2030220,2073,1,196632,231323,0.76,-0.47,10.00,-0.05,0.00,-0.04,31.35
2070192,2017,1,196738,231222,0.67,-0.44,10.01,-0.04,-0.02,-0.01,31.35
2110188,2000,1,196471,228817,0.70,-0.47,10.00,-0.03,-0.04,-0.00,31.35
2150192,2105,1,195045,225450,0.81,-0.37,9.93,-0.03,-0.03,-0.00,31.35
2189188,2117,1,194582,225676,0.82,-0.44,9.95,-0.03,-0.02,-0.01,31.35
2229192,2188,1,195075,227688,0.79,-0.47,9.95,-0.04,-0.01,-0.00,31.35
2269189,2223,1,195498,228411,0.74,-0.46,9.96,-0.03,-0.01,-0.00,31.35
2309192,2259,1,195504,228297,0.74,-0.41,9.97,-0.03,-0.01,-0.00,31.35
2349188,2224,1,195469,227743,0.79,-0.45,10.00,-0.03,-0.01,-0.00,31.35
2389192,2198,1,195368,226965,0.79,-0.47,9.96,-0.04,-0.02,-0.00,31.35
2429188,2171,1,195320,226681,0.78,-0.41,9.99,-0.03,-0.02,-0.01,31.35
2469191,2076,1,195442,227365,0.76,-0.40,9.97,-0.03,-0.00,-0.00,31.35
2509187,1971,1,195744,228556,0.74,-0.45,9.96,-0.03,-0.01,-0.00,31.35
2549191,1907,1,196175,230055,0.75,-0.47,9.99,-0.03,-0.01,-0.00,31.35
2589189,1875,1,196644,231810,0.77,-0.43,9.97,-0.03,-0.01,-0.00,31.35
2629191,1818,1,197163,232565,0.77,-0.42,9.96,-0.03,-0.01,-0.01,31.35
2669189,1747,1,196398,229493,0.75,-0.44,9.99,-0.03,-0.01,-0.00,31.35
2709191,1709,1,195580,228268,0.79,-0.44,9.97,-0.03,-0.02,-0.00,31.35
2749188,1712,1,195592,228625,0.79,-0.42,9.96,-0.03,-0.02,-0.00,31.35
2789191,1664,1,195985,229276,0.76,-0.43,9.94,-0.03,-0.01,-0.00,31.35
2829188,1703,1,196276,229722,0.79,-0.42,9.94,-0.03,0.02,-0.01,31.35
2869171,1686,1,196428,229264,0.79,-0.43,10.01,-0.03,-0.00,-0.00,31.35
2909188,1671,1,196270,227650,0.69,-0.42,10.07,-0.02,-0.01,-0.00,31.35
2949191,1648,1,196652,227247,0.81,-0.43,9.85,-0.02,-0.07,0.00,31.35
2989879,1600,1,197295,227800,0.83,-0.41,9.90,-0.03,-0.01,-0.00,31.41
3030191,1626,1,197646,229190,0.81,-0.41,9.95,-0.04,0.01,-0.01,31.41
3070169,1648,1,198004,231057,0.72,-0.44,10.01,-0.04,0.01,-0.01,31.41
3110171,1664,1,198428,232656,0.74,-0.40,9.97,-0.03,-0.01,-0.00,31.41
3150188,1655,1,198679,231273,0.80,-0.40,9.98,-0.03,-0.02,-0.00,31.41
3190220,1727,1,197211,227572,0.77,-0.43,9.96,-0.03,-0.01,-0.00,31.41
3230188,1719,1,196566,227058,0.75,-0.41,9.95,-0.03,-0.01,-0.00,31.41
3270191,1701,1,196618,227577,0.75,-0.40,9.98,-0.04,-0.01,-0.01,31.41
3310188,1765,1,196951,228404,0.74,-0.40,10.01,-0.04,-0.02,-0.00,31.41
3350191,1757,1,197496,229752,0.78,-0.42,9.93,-0.04,-0.02,-0.01,31.41
3390188,1777,1,197979,230349,0.77,-0.43,9.95,-0.03,-0.01,-0.01,31.41
3430191,1803,1,197990,230104,0.75,-0.40,9.98,-0.03,-0.01,-0.00,31.41
3470187,1792,1,197899,229781,0.76,-0.42,10.01,-0.03,-0.01,-0.00,31.41
3510191,1808,1,197974,229790,0.79,-0.41,9.96,-0.03,-0.01,-0.00,31.41
3550188,1829,1,198069,230396,0.80,-0.44,9.95,-0.04,-0.01,-0.00,31.41
3590192,1843,1,198272,231264,0.75,-0.42,9.97,-0.04,-0.01,-0.00,31.41
3630188,1879,1,198552,232175,0.77,-0.41,9.95,-0.04,-0.01,-0.00,31.41
3670192,1894,1,198473,229752,0.76,-0.44,9.97,-0.03,-0.01,-0.00,31.41
3710188,1919,1,197161,227515,0.77,-0.43,9.97,-0.03,-0.01,-0.00,31.41
3750191,1922,1,196893,227617,0.78,-0.40,9.96,-0.03,-0.01,-0.00,31.41
3790188,1984,1,197085,228478,0.78,-0.42,10.00,-0.03,-0.01,-0.00,31.41
3830191,1982,1,197377,229303,0.77,-0.42,9.99,-0.03,-0.01,-0.00,31.41
3870187,1968,1,197657,230755,0.78,-0.39,9.99,-0.03,-0.01,-0.00,31.41
3910191,1923,1,198151,231800,0.77,-0.40,9.97,-0.04,-0.01,-0.00,31.41
3950188,1929,1,198361,232158,0.78,-0.43,10.00,-0.04,-0.01,-0.00,31.41
3990878,1878,1,198378,232078,0.80,-0.43,9.97,-0.03,-0.01,-0.00,31.05
4029211,1808,1,198412,232254,0.79,-0.41,9.97,-0.03,-0.01,-0.00,31.05
4069191,1749,1,198493,232931,0.77,-0.43,9.96,-0.03,-0.00,-0.00,31.05
4109187,1750,1,198698,233912,0.79,-0.43,9.98,-0.03,-0.00,-0.00,31.05
4149191,1829,1,198929,234608,0.76,-0.44,9.97,-0.03,-0.01,-0.00,31.05
4189188,1867,1,198647,231107,0.77,-0.43,9.97,-0.03,-0.01,-0.00,31.05
4229191,1867,1,196791,227079,0.74,-0.42,10.00,-0.03,-0.02,-0.00,31.05
4269187,1839,1,196328,226116,0.77,-0.42,9.91,-0.03,-0.01,-0.00,31.05
4309191,1785,1,196318,225803,0.78,-0.41,9.98,-0.03,-0.00,-0.00,31.05
4349188,1625,1,196459,225889,0.76,-0.40,9.96,-0.03,-0.01,-0.00,31.05
4389191,1633,1,196831,226494,0.78,-0.45,9.97,-0.04,-0.02,-0.01,31.05
4429188,1745,1,197040,227071,0.76,-0.41,10.00,-0.04,-0.00,-0.00,31.05
4469191,1805,1,197140,227487,0.79,-0.41,9.93,-0.03,-0.01,-0.00,31.05
4509188,1877,1,197165,228296,0.78,-0.42,9.96,-0.04,-0.00,-0.01,31.05
4549191,1790,1,197313,229296,0.73,-0.41,9.99,-0.04,0.00,-0.01,31.05
4589169,1742,1,197601,229989,0.74,-0.41,10.00,-0.03,-0.01,-0.01,31.05
4629196,1673,1,197897,230260,0.78,-0.43,9.99,-0.03,-0.03,-0.00,31.05
4669187,1666,1,198187,230543,0.78,-0.41,9.97,-0.03,-0.02,-0.00,31.05
4709191,1661,1,198115,228953,0.77,-0.40,9.95,-0.03,-0.00,-0.01,31.05
4749187,1648,1,196885,227251,0.79,-0.40,9.99,-0.04,0.01,-0.01,31.05
4789171,1692,1,196405,227362,0.74,-0.41,9.97,-0.03,0.00,-0.01,31.05
4829174,1714,1,196511,227981,0.75,-0.41,9.99,-0.03,-0.01,-0.00,31.05
4869191,1773,1,196715,228465,0.76,-0.42,9.98,-0.03,-0.02,-0.00,31.05
4909188,1731,1,197026,229048,0.74,-0.40,9.98,-0.04,-0.01,-0.00,31.05
4949191,1567,1,197330,229120,0.75,-0.42,9.98,-0.03,-0.01,-0.00,31.05
4989188,1488,1,197488,229388,0.77,-0.42,9.96,-0.03,-0.02,-0.00,31.05
5029901,1471,1,197688,230043,0.77,-0.41,9.97,-0.03,-0.02,-0.00,31.15
5068188,1441,1,197959,230693,0.78,-0.43,9.96,-0.03,-0.01,-0.00,31.15
5108191,1387,1,198123,231190,0.76,-0.43,9.97,-0.03,-0.02,-0.00,31.15
5148187,1520,1,198289,231869,0.80,-0.40,9.95,-0.03,-0.01,-0.00,31.15
5188191,1625,1,198548,232146,0.76,-0.42,9.96,-0.04,-0.00,-0.01,31.15
5228188,1654,1,198201,229062,0.77,-0.40,9.98,-0.03,-0.01,-0.00,31.15
5268192,1679,1,196870,226998,0.76,-0.42,9.95,-0.04,-0.01,-0.01,31.15
5308191,1731,1,196640,226880,0.77,-0.42,9.96,-0.03,-0.01,-0.00,31.15
5348191,1799,1,196781,227327,0.77,-0.41,9.98,-0.03,-0.01,-0.00,31.15
5388189,1808,1,196939,227766,0.78,-0.41,9.97,-0.03,-0.01,-0.01,31.15
5428191,1776,1,197270,228535,0.80,-0.45,9.98,-0.03,-0.01,-0.00,31.15
5468188,1830,1,197412,228837,0.81,-0.41,9.98,-0.03,-0.01,-0.00,31.15
5508244,1831,1,197483,228934,0.78,-0.42,9.96,-0.03,-0.01,-0.01,31.15
5548189,1845,1,197527,228969,0.78,-0.42,9.96,-0.03,-0.01,-0.00,31.15
5588191,1834,1,197546,229289,0.76,-0.42,9.97,-0.03,-0.01,-0.00,31.15
5628188,1835,1,197658,229631,0.77,-0.41,9.96,-0.03,-0.01,-0.00,31.15
5668191,1855,1,197875,229795,0.76,-0.41,10.01,-0.03,-0.02,-0.00,31.15
5708188,1791,1,198064,229955,0.79,-0.40,9.96,-0.03,-0.02,-0.00,31.15
5748192,1711,1,197983,228087,0.80,-0.42,9.97,-0.03,-0.02,-0.00,31.15
5788188,1664,1,197181,226554,0.78,-0.39,9.97,-0.03,-0.01,-0.00,31.15
5828191,1632,1,196908,226559,0.80,-0.41,9.93,-0.03,-0.01,-0.00,31.15
5868188,1669,1,196964,227021,0.77,-0.44,9.96,-0.03,-0.01,-0.00,31.15
5908191,1759,1,197167,227584,0.79,-0.40,9.95,-0.03,-0.01,-0.00,31.15
5948188,1795,1,197431,228527,0.77,-0.40,9.96,-0.03,-0.01,-0.00,31.15
5988191,1798,1,197665,229011,0.79,-0.41,9.96,-0.03,-0.01,-0.00,31.15
6028188,1795,1,197771,229288,0.79,-0.42,9.95,-0.03,-0.01,-0.00,31.15
6068878,1741,1,197838,229655,0.77,-0.41,9.96,-0.04,-0.01,-0.00,30.87
6109188,1755,1,197930,230358,0.78,-0.42,9.95,-0.04,0.00,-0.01,30.87
6149171,1799,1,198212,231189,0.77,-0.42,9.97,-0.03,-0.01,-0.00,30.87
6189188,1909,1,198459,231618,0.77,-0.41,9.98,-0.03,-0.01,-0.01,30.87
6229191,1958,1,198587,231654,0.77,-0.42,9.96,-0.03,-0.01,-0.00,30.87
6269188,2097,1,198522,229666,0.78,-0.43,9.96,-0.03,-0.01,-0.01,30.87
6309192,2163,1,197312,227198,0.78,-0.42,9.98,-0.04,0.00,-0.01,30.87
6349169,2235,1,196833,226846,0.76,-0.41,9.97,-0.04,0.00,-0.01,30.87
6389171,2288,1,196766,227048,0.74,-0.43,9.95,-0.03,0.00,-0.01,30.87
6429169,2099,1,196651,227900,0.77,-0.46,9.96,-0.04,0.02,-0.01,30.87
6469188,2030,1,196800,229942,0.74,-0.44,10.00,-0.03,0.01,-0.03,30.87
6509169,1889,1,197321,230973,0.74,-0.38,9.97,-0.03,-0.02,-0.02,30.87
6549191,1808,1,197355,230354,0.75,-0.40,9.98,-0.03,-0.03,-0.00,30.87
6589188,1702,1,197361,229818,0.78,-0.41,9.92,-0.03,-0.02,-0.00,30.87
6629191,1598,1,197434,229792,0.75,-0.42,9.96,-0.04,-0.00,-0.01,30.87
6669203,1457,1,197539,230287,0.78,-0.42,9.96,-0.03,-0.01,-0.01,30.87
6709191,1350,1,197762,230684,0.73,-0.42,9.98,-0.03,-0.01,-0.01,30.87
6749188,1376,1,198061,231000,0.74,-0.42,9.97,-0.03,-0.01,-0.00,30.87
6789191,1488,1,198190,231020,0.77,-0.42,10.01,-0.03,-0.01,-0.00,30.87
6829188,1556,1,197763,227906,0.76,-0.40,9.95,-0.03,-0.01,-0.00,30.87
6869191,1660,1,196691,226372,0.76,-0.44,9.98,-0.03,-0.01,-0.00,30.87
6909188,1655,1,196502,226588,0.76,-0.41,9.96,-0.03,-0.01,-0.00,30.87
6949191,1721,1,196619,227218,0.77,-0.42,9.97,-0.03,-0.01,-0.00,30.87
6989188,1761,1,196772,227888,0.76,-0.41,9.98,-0.03,-0.00,-0.00,30.87
7029191,1779,1,196952,228172,0.74,-0.42,9.99,-0.03,-0.02,-0.00,30.87
7069874,1703,1,197023,227957,0.75,-0.40,9.95,-0.03,-0.01,-0.00,31.05
7108191,1724,1,197044,227329,0.74,-0.44,10.01,-0.03,-0.01,-0.00,31.05
7148188,1717,1,197034,226724,0.78,-0.41,9.97,-0.03,-0.03,-0.00,31.05
7188191,1744,1,197141,226184,0.74,-0.41,10.00,-0.03,-0.03,-0.00,31.05
7228187,1776,1,197414,226227,0.80,-0.44,9.95,-0.04,-0.02,-0.00,31.05
7268191,1831,1,197635,226717,0.78,-0.42,9.94,-0.03,-0.00,-0.01,31.05
7308188,1856,1,197596,227638,0.80,-0.41,9.94,-0.04,0.03,-0.01,31.05
7348171,1961,1,197312,227549,0.73,-0.43,9.99,-0.03,0.01,-0.01,31.05
7388169,2064,1,196134,224888,0.74,-0.45,9.96,-0.03,-0.01,-0.00,31.05
7428192,2064,1,195192,224251,0.76,-0.42,9.96,-0.03,-0.01,-0.00,31.05
7468187,2081,1,195166,224771,0.75,-0.39,9.99,-0.03,-0.02,-0.00,31.05
7508191,2096,1,195443,225338,0.74,-0.42,9.99,-0.03,-0.02,-0.00,31.05
7548187,2016,1,195726,226327,0.73,-0.45,9.97,-0.04,-0.01,-0.00,31.05
7588192,1985,1,196233,227140,0.74,-0.42,9.98,-0.04,-0.02,-0.00,31.05
7628188,1991,1,196539,227480,0.79,-0.40,9.95,-0.03,-0.02,-0.00,31.05
7668191,1969,1,196667,227942,0.77,-0.44,9.99,-0.03,-0.01,-0.00,31.05
7708187,1914,1,196869,229116,0.78,-0.42,9.96,-0.03,-0.01,-0.00,31.05
7748192,1924,1,197217,230802,0.77,-0.41,9.97,-0.03,-0.01,-0.00,31.05
7788187,1957,1,197608,232252,0.74,-0.40,9.98,-0.03,-0.02,-0.00,31.05
7828192,1978,1,198006,233873,0.76,-0.42,9.92,-0.03,-0.02,-0.00,31.05
7868187,2020,1,198450,235180,0.78,-0.41,9.95,-0.03,-0.01,-0.00,31.05
7908191,2068,1,198223,232533,0.80,-0.41,9.99,-0.03,-0.01,-0.00,31.05
7948188,2128,1,196513,228691,0.75,-0.41,9.98,-0.03,-0.03,-0.00,31.05
7988191,2064,1,195930,228410,0.78,-0.42,9.94,-0.03,-0.02,-0.00,31.05
8028188,2240,1,196232,228364,0.76,-0.41,10.03,-0.04,0.00,-0.00,31.05
8068171,2321,1,196409,228062,0.76,-0.39,10.01,-0.03,-0.04,-0.00,31.05
8108874,2357,1,196793,229126,0.80,-0.42,9.91,-0.03,-0.01,-0.00,30.91
8147191,2385,1,197166,231040,0.79,-0.43,9.98,-0.03,-0.01,-0.00,30.91
8187188,2480,1,197561,232531,0.83,-0.40,9.95,-0.03,0.00,-0.00,30.91
8227171,2428,1,197502,233097,0.79,-0.41,10.00,-0.03,0.01,-0.00,30.91
8267169,2487,1,197493,233647,0.74,-0.41,9.96,-0.03,0.01,-0.00,30.91
8307193,2442,1,197582,233702,0.76,-0.40,10.01,-0.03,-0.02,-0.00,30.91
8347188,2393,1,197234,232603,0.77,-0.40,9.99,-0.03,-0.04,-0.00,30.91
8387191,2386,1,196879,231086,0.80,-0.42,9.95,-0.02,-0.04,0.00,30.91
8427169,2231,1,196256,226913,0.79,-0.40,9.93,-0.02,-0.01,0.00,30.91
8467171,2195,1,194520,223510,0.83,-0.40,9.92,-0.03,0.01,-0.00,30.91
8507169,2166,1,193997,223184,0.78,-0.41,9.98,-0.04,0.02,-0.01,30.91
8547171,1948,1,194174,223415,0.76,-0.42,9.99,-0.04,-0.01,-0.01,30.91
8587188,1867,1,194540,223561,0.76,-0.40,9.95,-0.03,-0.02,-0.00,30.91
8627191,1767,1,194741,223944,0.79,-0.40,10.00,-0.03,-0.01,-0.00,30.91
8667188,1617,1,194989,223659,0.76,-0.41,9.98,-0.03,-0.02,-0.00,30.91
8707191,1535,1,195001,222386,0.77,-0.41,9.99,-0.03,-0.02,-0.00,30.91
8747188,1432,1,194700,220897,0.79,-0.39,9.99,-0.03,-0.02,-0.00,30.91
8787192,1361,1,194527,219920,0.81,-0.40,9.97,-0.04,-0.01,-0.00,30.91
8827188,1306,1,194450,218383,0.78,-0.40,10.00,-0.04,-0.01,-0.00,30.91
8867191,1251,1,194520,221216,0.82,-0.39,9.87,-0.03,-0.02,-0.00,30.91
8907187,1227,1,195154,225554,0.81,-0.39,9.95,-0.04,0.04,-0.01,30.91
8947171,1212,1,195913,229919,0.79,-0.40,9.97,-0.05,0.06,-0.01,30.91
8987169,1200,1,196133,228281,0.71,-0.44,10.03,-0.04,0.03,-0.01,30.91
9027175,1183,1,194629,224665,0.71,-0.40,10.01,-0.03,-0.04,-0.00,30.91
9067188,1146,1,193558,222528,0.76,-0.40,9.94,-0.02,-0.04,-0.00,30.91
9107192,1118,1,192939,220331,0.77,-0.41,9.96,-0.02,-0.01,-0.00,30.91
9147875,1061,1,192513,219298,0.76,-0.40,9.99,-0.03,-0.03,-0.00,31.05
9188191,1057,1,192527,219705,0.72,-0.36,10.00,-0.04,0.00,-0.00,31.05
9228169,1099,1,192634,219908,0.73,-0.40,9.98,-0.04,-0.01,-0.00,31.05
9268192,1150,1,192822,220240,0.75,-0.41,9.97,-0.04,-0.01,-0.01,31.05
9308188,1166,1,193034,220120,0.78,-0.44,9.98,-0.03,-0.02,-0.00,31.05
9348191,1178,1,193317,221341,0.78,-0.39,9.94,-0.04,-0.01,-0.01,31.05
9388191,1218,1,193820,223546,0.72,-0.41,9.99,-0.05,0.01,-0.01,31.05
9428171,1275,1,194689,226995,0.77,-0.41,9.93,-0.04,0.01,-0.01,31.05
9468169,1344,1,195677,228969,0.75,-0.46,9.99,-0.05,0.01,-0.01,31.05
9508171,1430,1,195106,225141,0.74,-0.40,9.97,-0.03,-0.01,-0.01,31.05
9548188,1535,1,193830,222756,0.74,-0.41,9.98,-0.03,-0.01,-0.01,31.05
9588191,1637,1,193262,221164,0.74,-0.43,9.97,-0.02,-0.03,-0.00,31.05
9628187,1739,1,192948,219483,0.77,-0.41,9.98,-0.02,-0.02,-0.00,31.05
9668191,1811,1,192715,218613,0.75,-0.39,9.98,-0.03,-0.01,-0.00,31.05
9708188,1875,1,192761,218677,0.75,-0.41,9.98,-0.04,-0.00,-0.01,31.05
9748196,1911,1,192709,217517,0.73,-0.42,10.01,-0.03,-0.01,-0.00,31.05
9788188,1935,1,191725,212945,0.75,-0.40,9.97,-0.03,-0.01,-0.00,31.05
9828192,1978,1,190842,211293,0.75,-0.40,9.96,-0.03,-0.02,-0.00,31.05
9868188,1989,1,191008,211478,0.75,-0.41,9.96,-0.04,-0.02,-0.00,31.05
9908191,2000,1,191475,211559,0.74,-0.41,9.99,-0.04,-0.01,-0.01,31.05
9948232,1963,1,191900,212071,0.75,-0.42,9.99,-0.04,-0.02,-0.00,31.05
9988191,1994,1,193052,214139,0.72,-0.42,9.96,-0.04,-0.02,-0.01,31.05
10028188,2013,1,193162,211731,0.75,-0.42,9.99,-0.04,-0.01,-0.00,31.05
10068191,2026,1,192415,209679,0.75,-0.40,9.96,-0.03,-0.01,-0.00,31.05
10108188,1981,1,192466,210553,0.77,-0.42,9.95,-0.03,-0.01,-0.00,31.05
10148878,1958,1,192831,210978,0.74,-0.42,9.97,-0.03,-0.00,-0.00,30.97
10187188,1952,1,192816,209996,0.74,-0.42,9.96,-0.03,-0.01,-0.00,30.97
10227192,1943,1,192557,208086,0.76,-0.40,10.00,-0.03,-0.01,-0.00,30.97
10267188,1917,1,192173,209133,0.79,-0.40,9.94,-0.03,-0.02,-0.00,30.97
10307192,1898,1,193441,212815,0.79,-0.41,9.97,-0.04,0.01,-0.01,30.97
10347171,1853,1,194128,215329,0.76,-0.42,9.96,-0.03,-0.01,-0.00,30.97
10387192,1893,1,194818,217822,0.76,-0.41,9.98,-0.03,-0.01,-0.00,30.97
10427191,1927,1,195288,218898,0.75,-0.41,9.97,-0.03,-0.01,-0.00,30.97
10467192,1909,1,195408,219034,0.77,-0.43,9.96,-0.03,-0.01,-0.00,30.97
10507189,1910,1,195281,217475,0.76,-0.39,9.97,-0.03,-0.02,-0.00,30.97
10547192,1857,1,194146,212984,0.78,-0.42,9.95,-0.04,-0.02,-0.00,30.97
10587189,1838,1,192954,211753,0.76,-0.39,9.97,-0.04,-0.01,-0.01,30.97
10627191,1843,1,193554,214941,0.73,-0.40,9.99,-0.04,-0.01,-0.00,30.97
10667188,1776,1,195000,218539,0.76,-0.42,9.96,-0.04,-0.01,-0.01,30.97
10707192,1808,1,196037,220927,0.76,-0.43,9.94,-0.03,-0.00,-0.00,30.97
10747188,1649,1,196672,222693,0.76,-0.39,9.93,-0.03,-0.01,-0.00,30.97
10787191,1650,1,197032,223586,0.77,-0.39,9.98,-0.03,-0.01,-0.00,30.97
10827191,1606,1,197186,223831,0.79,-0.42,9.96,-0.03,-0.01,-0.00,30.97
10867192,1616,1,197672,225899,0.78,-0.41,9.97,-0.03,-0.02,-0.00,30.97
10907189,1666,1,199036,229806,0.75,-0.42,9.98,-0.04,-0.02,-0.00,30.97
10947191,1791,1,200234,232453,0.74,-0.40,9.97,-0.03,-0.01,-0.00,30.97
10987189,1840,1,201229,235788,0.76,-0.41,9.96,-0.03,-0.01,-0.00,30.97
11027195,1914,1,202235,238016,0.79,-0.40,9.94,-0.03,-0.02,-0.01,30.97
11067189,1952,1,201722,235483,0.77,-0.41,9.96,-0.04,-0.01,-0.00,30.97
11107191,1980,1,200999,234612,0.79,-0.42,9.98,-0.03,-0.01,-0.00,30.97
11147191,2032,1,201070,234775,0.77,-0.41,9.98,-0.03,-0.01,-0.00,30.97
11187878,2005,1,201416,234977,0.76,-0.41,9.99,-0.03,-0.02,-0.00,30.91
11228189,2158,1,201554,235299,0.79,-0.40,9.96,-0.03,-0.01,-0.00,30.91
11268191,2102,1,201608,235914,0.78,-0.40,9.96,-0.03,-0.00,-0.00,30.91
11308188,2061,1,201745,236301,0.76,-0.41,9.98,-0.03,-0.01,-0.00,30.91
11348191,1990,1,201944,237007,0.77,-0.40,10.00,-0.03,-0.02,-0.00,30.91
11388204,1936,1,202163,238259,0.79,-0.42,9.96,-0.03,-0.01,-0.00,30.91
11428192,1894,1,202932,240061,0.77,-0.41,9.97,-0.03,-0.02,-0.00,30.91
11468189,1917,1,203462,241175,0.82,-0.41,9.97,-0.03,-0.02,-0.01,30.91
11508191,1879,1,203706,241570,0.76,-0.41,9.97,-0.03,-0.01,-0.00,30.91
11548188,1869,1,203758,240846,0.79,-0.41,9.97,-0.03,-0.01,-0.00,30.91
11588217,1808,1,202908,238006,0.81,-0.40,9.96,-0.03,-0.01,-0.00,30.91
11628188,1830,1,202261,237677,0.79,-0.39,9.97,-0.03,-0.01,-0.01,30.91
11668191,1807,1,202257,238164,0.76,-0.41,9.99,-0.03,-0.01,-0.00,30.91
11708189,1714,1,202338,238492,0.78,-0.41,9.96,-0.03,-0.01,-0.00,30.91
11746191,1805,1,202469,238752,0.81,-0.39,9.97,-0.03,-0.01,-0.01,30.91
11786191,1791,1,202521,238337,0.80,-0.41,9.98,-0.03,-0.01,-0.00,30.91
11826192,1774,1,202222,237257,0.78,-0.41,9.98,-0.03,-0.01,-0.00,30.91
11866188,1759,1,202057,237191,0.78,-0.40,9.96,-0.03,-0.01,-0.01,30.91
11906191,1776,1,202294,237668,0.79,-0.40,9.97,-0.04,-0.01,-0.00,30.91
11946188,1773,1,202586,238179,0.80,-0.42,9.96,-0.03,-0.01,-0.00,30.91
11986191,1744,1,202907,238511,0.81,-0.42,9.98,-0.03,-0.02,-0.00,30.91
12026197,1751,1,203019,238870,0.80,-0.40,9.97,-0.03,-0.01,-0.00,30.91
12066191,1739,1,202877,237708,0.80,-0.40,9.97,-0.04,-0.00,-0.01,30.91
12106187,1757,1,201738,234982,0.79,-0.42,9.96,-0.03,-0.00,-0.01,30.91
12146191,1739,1,201152,234874,0.79,-0.42,9.96,-0.04,-0.01,-0.00,30.91
12186189,1712,1,201394,235244,0.79,-0.40,9.99,-0.03,-0.01,-0.00,30.91
12226878,1709,1,201514,235673,0.78,-0.40,9.97,-0.03,-0.01,-0.00,30.91
12267188,1730,1,201627,235986,0.79,-0.42,9.99,-0.03,-0.01,-0.00,30.91
12307195,1735,1,201713,235517,0.78,-0.40,9.96,-0.03,-0.01,-0.00,30.91
12347189,1739,1,201628,235149,0.79,-0.40,9.94,-0.03,-0.01,-0.00,30.91
12387191,1786,1,201556,235170,0.80,-0.41,9.94,-0.03,-0.01,-0.00,30.91
12427188,1744,1,201577,235653,0.81,-0.40,9.95,-0.04,-0.01,-0.01,30.91
12467192,1762,1,201658,235954,0.79,-0.38,9.99,-0.03,-0.01,-0.00,30.91
12507191,1745,1,201723,236170,0.79,-0.39,9.99,-0.03,-0.01,-0.00,30.91
12547191,1771,1,201845,236522,0.79,-0.41,9.99,-0.03,-0.01,-0.00,30.91
12587188,1748,1,201736,234336,0.79,-0.41,9.98,-0.04,-0.01,-0.01,30.91
12627191,1732,1,200374,231615,0.81,-0.41,9.96,-0.04,-0.01,-0.00,30.91
12667191,1750,1,199893,232133,0.78,-0.40,9.98,-0.03,-0.01,-0.00,30.91
12707192,1728,1,200264,233603,0.78,-0.42,9.96,-0.04,-0.01,-0.00,30.91
12747188,1713,1,200630,234756,0.80,-0.44,9.99,-0.03,-0.01,-0.00,30.91
12787191,1747,1,200929,235887,0.80,-0.43,9.96,-0.03,-0.01,-0.00,30.91
12827188,1773,1,201161,236265,0.80,-0.43,9.99,-0.03,-0.01,-0.00,30.91
12867191,1814,1,201259,236286,0.79,-0.41,9.97,-0.03,-0.01,-0.00,30.91
12907188,1828,1,201215,235950,0.78,-0.40,9.97,-0.03,-0.01,-0.00,30.91
12947191,1827,1,201172,235780,0.80,-0.41,9.96,-0.03,-0.01,-0.00,30.91
12987188,1811,1,201262,236166,0.79,-0.40,9.96,-0.04,-0.00,-0.00,30.91
13027211,1731,1,201448,236514,0.77,-0.41,9.99,-0.03,-0.01,-0.00,30.91
13067189,1680,1,201595,236709,0.79,-0.41,9.98,-0.03,-0.01,-0.00,30.91
13107192,1617,1,201396,233744,0.79,-0.41,9.96,-0.03,-0.01,-0.00,30.91
13147188,1703,1,199903,230998,0.81,-0.40,9.96,-0.03,-0.01,-0.01,30.91
13187192,1663,1,199539,230829,0.79,-0.42,9.98,-0.03,-0.01,-0.00,30.91
13228875,1616,1,199758,231327,0.77,-0.40,9.95,-0.03,-0.02,-0.00,30.91
13267192,1568,1,199962,231461,0.79,-0.41,9.99,-0.03,-0.01,-0.00,30.91
13307189,1535,1,200138,231522,0.81,-0.39,9.95,-0.03,-0.01,-0.00,30.91
13347191,1533,1,200166,231065,0.78,-0.39,9.96,-0.03,-0.01,-0.00,30.91
13387188,1535,1,200184,230380,0.82,-0.41,9.94,-0.03,-0.02,-0.00,30.91
13427213,1587,1,200201,230175,0.80,-0.41,9.95,-0.03,-0.01,-0.00,30.91
13467188,1572,1,200276,230304,0.80,-0.39,9.96,-0.03,-0.01,-0.00,30.91
13507191,1616,1,200380,230792,0.79,-0.37,9.97,-0.03,-0.01,-0.00,30.91
13547191,1627,1,200640,231317,0.79,-0.40,9.96,-0.03,-0.01,-0.00,30.91
13587191,1647,1,200836,231858,0.78,-0.40,9.98,-0.04,-0.01,-0.00,30.91
13627188,1628,1,200865,230288,0.77,-0.40,9.97,-0.03,-0.01,-0.00,30.91
13667191,1679,1,199767,227035,0.81,-0.40,10.00,-0.03,-0.01,-0.00,30.91
13707187,1659,1,199053,225189,0.79,-0.40,9.96,-0.03,-0.01,-0.00,30.91
13747192,1663,1,198828,224448,0.79,-0.39,9.98,-0.03,-0.01,-0.00,30.91
13787188,1624,1,198722,223968,0.79,-0.40,9.96,-0.03,-0.01,-0.00,30.91
13827191,1617,1,198904,224996,0.80,-0.40,9.93,-0.03,-0.01,-0.00,30.91
13867188,1645,1,199281,225805,0.80,-0.38,9.97,-0.03,-0.01,-0.01,30.91
13907191,1680,1,199432,226273,0.79,-0.40,9.97,-0.03,-0.01,-0.00,30.91
13947188,1705,1,199584,226846,0.80,-0.40,9.98,-0.03,-0.01,-0.00,30.91
13987192,1728,1,199839,227428,0.80,-0.40,9.96,-0.03,-0.01,-0.00,30.91
14027194,1782,1,200113,228572,0.78,-0.38,9.98,-0.03,-0.00,-0.01,30.91
14067191,1840,1,200562,229919,0.80,-0.39,9.97,-0.04,-0.01,-0.00,30.91
14107188,1867,1,200910,230942,0.78,-0.41,10.00,-0.03,-0.01,-0.00,30.91
14147191,1870,1,200718,228946,0.80,-0.39,9.98,-0.03,-0.01,-0.00,30.91
14187188,1893,1,199389,226071,0.82,-0.40,9.96,-0.04,0.00,-0.01,30.91
14227171,1919,1,198641,225015,0.79,-0.40,9.97,-0.03,-0.01,-0.00,30.91
14266875,1926,1,198548,225012,0.78,-0.38,9.96,-0.03,-0.01,-0.00,30.99
14307191,1935,1,198578,225337,0.80,-0.41,9.98,-0.03,-0.01,-0.00,30.99
14347188,1938,1,198863,226320,0.80,-0.41,9.96,-0.03,-0.01,-0.01,30.99
14387191,1959,1,199094,227288,0.78,-0.42,9.97,-0.04,-0.00,-0.00,30.99
14427188,1990,1,199227,227705,0.77,-0.40,9.97,-0.04,-0.00,-0.00,30.99
14467191,1986,1,199228,228211,0.77,-0.39,9.96,-0.03,-0.01,-0.00,30.99
14507189,2000,1,199350,228859,0.79,-0.41,9.98,-0.03,-0.01,-0.00,30.99
14547191,1953,1,199602,229728,0.80,-0.41,9.98,-0.03,-0.01,-0.00,30.99
14587188,1958,1,199892,230602,0.80,-0.41,9.98,-0.03,-0.01,-0.00,30.99
14627191,1939,1,200053,230811,0.78,-0.37,9.96,-0.03,-0.01,-0.00,30.99
14667188,1969,1,199549,227669,0.79,-0.41,9.99,-0.03,-0.01,-0.00,30.99
14707192,1975,1,198303,225401,0.80,-0.39,9.96,-0.03,-0.01,-0.00,30.99
14747189,1980,1,197959,225159,0.79,-0.42,9.94,-0.03,-0.01,-0.00,30.99
14787192,1963,1,198123,225508,0.80,-0.39,9.97,-0.03,-0.02,-0.00,30.99
14827188,1937,1,198365,226026,0.80,-0.39,9.97,-0.03,-0.02,-0.00,30.99
14867196,1915,1,198697,227098,0.80,-0.40,9.97,-0.03,-0.01,-0.00,30.99
14907188,1890,1,198938,228037,0.78,-0.41,10.00,-0.03,-0.00,-0.01,30.99
14947191,1879,1,199112,228180,0.77,-0.40,9.97,-0.03,-0.01,-0.00,30.99
14987188,1859,1,199225,228161,0.79,-0.38,9.98,-0.03,-0.01,-0.00,30.99
15027194,1842,1,199289,228540,0.79,-0.41,9.96,-0.03,-0.01,-0.00,30.99
15067210,1809,1,199430,229315,0.79,-0.41,9.97,-0.03,-0.01,-0.00,30.99
15107192,1797,1,199714,230625,0.79,-0.39,9.95,-0.04,-0.01,-0.00,30.99
15147191,1780,1,199974,231617,0.78,-0.41,9.96,-0.04,-0.00,-0.00,30.99
15187191,1775,1,199233,228478,0.75,-0.40,9.96,-0.04,-0.00,-0.00,30.99
15227188,1767,1,198063,226805,0.79,-0.41,9.98,-0.03,-0.01,-0.00,30.99
15267878,1776,1,197966,226480,0.78,-0.38,9.96,-0.03,-0.02,-0.00,30.97
15306189,1776,1,198187,226278,0.79,-0.41,9.95,-0.03,-0.02,-0.00,30.97
15346192,1776,1,198185,226138,0.77,-0.42,9.96,-0.03,-0.01,-0.00,30.97
15386192,1745,1,198009,226340,0.78,-0.40,9.97,-0.03,-0.00,-0.00,30.97
15426192,1787,1,197995,226364,0.78,-0.39,9.96,-0.03,-0.00,-0.00,30.97
15466188,1776,1,198012,226171,0.79,-0.42,9.96,-0.03,-0.02,-0.00,30.97
15506191,1774,1,198279,226279,0.78,-0.39,9.98,-0.03,-0.02,-0.00,30.97
15546188,1776,1,198752,227355,0.78,-0.38,9.96,-0.03,-0.02,-0.00,30.97
15586192,1767,1,199341,229233,0.78,-0.38,9.97,-0.04,-0.01,-0.00,30.97
15626189,1756,1,199957,230612,0.78,-0.42,9.99,-0.04,-0.01,-0.00,30.97
15666192,1728,1,200051,230401,0.79,-0.43,9.96,-0.03,-0.01,-0.00,30.97
15706191,1696,1,199128,227056,0.80,-0.39,9.95,-0.04,0.00,-0.01,30.97
15746171,1681,1,197903,225601,0.79,-0.41,9.98,-0.04,0.00,-0.00,30.97
15786169,1712,1,197703,225677,0.76,-0.41,9.99,-0.03,-0.01,-0.00,30.97
15826191,1743,1,198011,226262,0.81,-0.40,9.94,-0.03,-0.02,-0.00,30.97
15866188,1741,1,198361,227343,0.78,-0.40,9.97,-0.03,-0.02,-0.00,30.97
15906191,1739,1,199163,229532,0.80,-0.40,9.94,-0.04,-0.01,-0.01,30.97
15946188,1746,1,199797,231432,0.78,-0.42,9.98,-0.04,-0.01,-0.00,30.97
15986192,1745,1,200195,232357,0.80,-0.41,9.96,-0.03,-0.01,-0.00,30.97
16026197,1763,1,200079,232551,0.77,-0.41,9.96,-0.03,0.00,-0.00,30.97
16066171,1745,1,199889,232514,0.77,-0.42,9.98,-0.03,0.00,-0.01,30.97
16106169,1744,1,199744,232370,0.81,-0.39,9.97,-0.03,-0.01,-0.01,30.97
16146192,1757,1,199753,232708,0.79,-0.42,9.96,-0.03,-0.01,-0.01,30.97
16186191,1769,1,199821,231480,0.78,-0.42,9.95,-0.03,-0.01,-0.00,30.97
16226192,1757,1,198689,228562,0.77,-0.39,9.98,-0.03,-0.01,-0.01,30.97
16266191,1777,1,198277,228238,0.77,-0.42,9.97,-0.03,-0.01,-0.00,30.97
16306883,1743,1,198261,228751,0.78,-0.43,9.96,-0.03,-0.00,-0.00,30.87
16345189,1766,1,198139,228697,0.76,-0.42,9.96,-0.03,0.00,-0.00,30.87
16385171,1755,1,198124,228629,0.76,-0.40,9.98,-0.03,-0.01,-0.00,30.87
16425188,1744,1,198446,228527,0.77,-0.39,9.97,-0.03,-0.02,-0.00,30.87
16465191,1760,1,198995,228659,0.79,-0.39,9.97,-0.03,-0.04,-0.00,30.87
16505189,1754,1,199808,228966,0.79,-0.39,9.99,-0.03,-0.05,-0.00,30.87
16545192,1739,1,200234,229495,0.83,-0.42,9.91,-0.03,-0.01,-0.00,30.87
16585191,1740,1,200231,232285,0.77,-0.40,9.98,-0.04,0.01,-0.01,30.87
16625171,1735,1,200347,234444,0.80,-0.42,9.96,-0.04,0.03,-0.01,30.87
16665169,1717,1,200163,235002,0.77,-0.40,9.98,-0.04,0.01,-0.01,30.87
16705171,1712,1,199403,230403,0.79,-0.41,9.99,-0.03,-0.01,-0.01,30.87
16745191,1712,1,197958,227636,0.77,-0.42,9.97,-0.03,-0.04,-0.00,30.87
16785191,1719,1,198511,228232,0.80,-0.40,9.93,-0.03,-0.05,-0.00,30.87
16825187,1719,1,199271,230166,0.86,-0.40,9.91,-0.04,-0.02,-0.00,30.87
16865191,1717,1,199640,233112,0.82,-0.42,9.98,-0.04,0.01,-0.01,30.87
16905172,1728,1,199997,234552,0.75,-0.42,10.00,-0.04,0.01,-0.01,30.87
16945171,1731,1,200122,234364,0.77,-0.41,9.99,-0.03,-0.01,-0.00,30.87
16985192,1744,1,199920,233356,0.78,-0.42,9.97,-0.03,-0.02,-0.00,30.87
17025218,1665,1,199922,232208,0.81,-0.43,9.96,-0.03,-0.02,-0.00,30.87
17065189,1745,1,199909,231762,0.81,-0.41,9.94,-0.03,-0.01,-0.00,30.87
17105191,1755,1,200006,232331,0.81,-0.39,9.98,-0.03,-0.01,-0.00,30.87
17145188,1762,1,200079,233058,0.78,-0.40,9.96,-0.03,-0.01,-0.01,30.87
17185191,1760,1,200435,232837,0.80,-0.42,9.99,-0.04,-0.01,-0.00,30.87
17225188,1758,1,199405,229500,0.79,-0.40,9.98,-0.03,-0.01,-0.00,30.87
17265192,1775,1,198530,228653,0.80,-0.40,9.96,-0.03,-0.01,-0.00,30.87
17305187,1776,1,198469,228989,0.79,-0.42,9.97,-0.03,-0.01,-0.00,30.87
17346878,1791,1,198692,229494,0.80,-0.40,9.96,-0.03,-0.01,-0.00,30.85
17385188,1779,1,199039,230105,0.78,-0.40,9.98,-0.03,-0.01,-0.00,30.85
17425191,1777,1,199170,230212,0.78,-0.41,9.96,-0.03,-0.01,-0.00,30.85
17465189,1792,1,199270,230105,0.80,-0.42,9.97,-0.03,-0.02,-0.00,30.85
17505191,1821,1,199348,230302,0.81,-0.41,9.96,-0.03,-0.01,-0.00,30.85
17545188,1792,1,199316,230725,0.78,-0.41,10.00,-0.03,-0.01,-0.00,30.85
17585191,1792,1,199636,231528,0.79,-0.41,9.96,-0.03,-0.00,-0.00,30.85
17625188,1772,1,199883,232055,0.79,-0.42,9.98,-0.03,-0.01,-0.00,30.85
17665191,1803,1,200001,232030,0.81,-0.43,9.95,-0.03,-0.01,-0.00,30.85
17705188,1792,1,200003,230104,0.80,-0.40,9.99,-0.03,-0.01,-0.00,30.85
17745191,1791,1,198962,227806,0.79,-0.40,9.99,-0.04,-0.01,-0.01,30.85
17785189,1773,1,198562,227476,0.79,-0.43,9.97,-0.04,-0.01,-0.00,30.85
17825192,1776,1,198787,228561,0.81,-0.42,9.98,-0.03,-0.01,-0.00,30.85
17865189,1792,1,199062,230029,0.81,-0.43,10.00,-0.04,-0.00,-0.01,30.85
17905191,1759,1,199554,231485,0.77,-0.41,9.96,-0.03,-0.00,-0.00,30.85
17945188,1783,1,199608,231243,0.79,-0.42,10.01,-0.03,-0.01,-0.00,30.85
17985192,1799,1,199564,230532,0.80,-0.42,9.98,-0.03,-0.02,-0.00,30.85
18025214,1766,1,199534,230200,0.79,-0.42,9.95,-0.03,-0.01,-0.00,30.85
18065191,1745,1,199359,230447,0.79,-0.42,9.97,-0.03,-0.01,-0.00,30.85
18105192,1747,1,199469,230959,0.79,-0.42,9.97,-0.03,-0.01,-0.00,30.85
18145191,1741,1,199770,231747,0.78,-0.43,9.98,-0.03,-0.01,-0.00,30.85
18185189,1732,1,199868,231368,0.79,-0.42,9.98,-0.03,-0.01,-0.00,30.85
18225191,1735,1,198738,227434,0.80,-0.40,9.97,-0.03,-0.01,-0.00,30.85
18265188,1739,1,197429,225497,0.79,-0.40,9.97,-0.03,-0.01,-0.00,30.85
18305191,1763,1,197183,225290,0.78,-0.40,9.96,-0.03,-0.01,-0.00,30.85
18345912,1746,1,197237,225560,0.78,-0.42,9.95,-0.03,-0.01,-0.00,30.91
18386191,1749,1,197273,226083,0.79,-0.41,9.97,-0.03,-0.01,-0.00,30.91
18426188,1754,1,197664,227193,0.79,-0.42,9.98,-0.03,-0.01,-0.00,30.91
18466192,1755,1,197965,228140,0.79,-0.41,9.97,-0.03,-0.01,-0.00,30.91
18506188,1744,1,198149,228299,0.77,-0.42,10.02,-0.03,-0.01,-0.00,30.91
18546208,1750,1,198050,228021,0.80,-0.41,9.96,-0.03,-0.01,-0.00,30.91
18586188,1743,1,198037,227630,0.80,-0.42,10.00,-0.03,-0.01,-0.00,30.91
18626191,1759,1,197867,227151,0.79,-0.41,9.98,-0.03,-0.01,-0.00,30.91
18666188,1744,1,197818,226720,0.81,-0.41,9.98,-0.03,-0.01,-0.00,30.91
18706191,1758,1,197555,225338,0.78,-0.40,9.98,-0.03,-0.01,-0.01,30.91
18746188,1763,1,196370,222345,0.80,-0.43,9.98,-0.03,-0.00,-0.00,30.91
18786191,1763,1,195520,221411,0.78,-0.41,9.99,-0.03,-0.01,-0.00,30.91
18826192,1770,1,195304,221439,0.78,-0.41,9.98,-0.03,-0.01,-0.00,30.91
18866191,1783,1,195490,222118,0.79,-0.42,9.96,-0.03,-0.01,-0.00,30.91
18906189,1765,1,195705,223140,0.79,-0.42,9.98,-0.03,-0.00,-0.00,30.91
18946191,1771,1,195765,223850,0.77,-0.39,9.97,-0.03,-0.01,-0.00,30.91
18986192,1771,1,195915,223980,0.76,-0.40,9.98,-0.03,-0.01,-0.00,30.91
19026198,1769,1,195816,223754,0.78,-0.41,9.96,-0.03,-0.01,-0.00,30.91
19066189,1780,1,195802,223649,0.77,-0.42,9.97,-0.03,-0.01,-0.00,30.91
19106191,1761,1,195706,223549,0.77,-0.41,9.97,-0.03,-0.01,-0.00,30.91
19146189,1777,1,195698,223342,0.78,-0.40,9.98,-0.03,-0.01,-0.00,30.91
19186191,1753,1,195599,223047,0.77,-0.42,9.96,-0.03,-0.01,-0.00,30.91
19226189,1772,1,195568,222541,0.76,-0.40,9.96,-0.03,-0.01,-0.00,30.91
19266191,1749,1,194935,220272,0.75,-0.44,9.96,-0.03,-0.01,-0.00,30.91
19306189,1760,1,194329,219591,0.79,-0.40,9.97,-0.04,-0.01,-0.00,30.91
19346878,1754,1,194284,220164,0.80,-0.40,10.00,-0.03,-0.01,-0.00,30.81
19385187,1744,1,194356,220953,0.79,-0.43,9.98,-0.03,-0.01,-0.00,30.81
19425192,1744,1,194686,222694,0.78,-0.39,9.96,-0.03,-0.01,-0.00,30.81
19465189,1754,1,195253,224407,0.80,-0.40,9.94,-0.04,-0.01,-0.00,30.81
19505191,1750,1,195540,224924,0.77,-0.39,9.98,-0.04,-0.01,-0.00,30.81
19545188,1744,1,195630,225177,0.79,-0.40,9.98,-0.04,-0.01,-0.00,30.81
19585191,1731,1,195821,225942,0.78,-0.41,9.96,-0.04,-0.01,-0.00,30.81
19625192,1749,1,196109,226990,0.78,-0.40,9.96,-0.04,-0.01,-0.01,30.81
19665191,1749,1,196329,227890,0.77,-0.42,9.97,-0.03,-0.01,-0.00,30.81
19705188,1751,1,196561,228313,0.77,-0.42,9.96,-0.03,-0.01,-0.00,30.81
19745192,1756,1,196688,228534,0.77,-0.41,9.93,-0.03,-0.01,-0.00,30.81
19785188,1731,1,196539,227770,0.76,-0.41,9.98,-0.03,-0.01,-0.00,30.81
19825191,1757,1,195542,222919,0.77,-0.43,9.99,-0.03,-0.01,-0.00,30.81
19865189,1741,1,194041,220006,0.78,-0.41,9.98,-0.03,-0.01,-0.00,30.81
19905191,1732,1,193403,218807,0.78,-0.43,9.95,-0.03,-0.01,-0.00,30.81
19945191,1740,1,193428,218611,0.76,-0.40,9.96,-0.03,-0.01,-0.00,30.81
19985231,1745,1,193552,219122,0.77,-0.40,9.96,-0.04,-0.01,-0.00,30.81
20025214,1730,1,193867,220298,0.77,-0.41,9.96,-0.03,-0.01,-0.00,30.81
20065191,1742,1,194294,221477,0.78,-0.41,9.96,-0.04,-0.01,-0.00,30.81
20105189,1738,1,194751,222507,0.77,-0.43,9.99,-0.03,-0.01,-0.00,30.81
20145192,1738,1,195118,223725,0.78,-0.42,9.94,-0.03,-0.01,-0.00,30.81
20185208,1722,1,195667,224645,0.78,-0.42,10.00,-0.04,-0.01,-0.01,30.81
20225191,1753,1,195928,225423,0.78,-0.42,9.97,-0.03,-0.01,-0.00,30.81
20265189,1744,1,196228,226473,0.79,-0.40,9.98,-0.03,-0.01,-0.00,30.81
20305191,1766,1,196431,227253,0.80,-0.40,9.98,-0.03,-0.01,-0.00,30.81
20345188,1755,1,196735,227897,0.79,-0.40,9.97,-0.04,-0.01,-0.00,30.81
20385878,1761,1,196715,225853,0.78,-0.42,10.01,-0.03,-0.01,-0.00,30.91
20424188,1766,1,195356,222056,0.79,-0.41,9.97,-0.03,-0.01,-0.00,30.91
20464191,1759,1,194255,220458,0.78,-0.42,9.97,-0.03,-0.01,-0.00,30.91
20504191,1755,1,193987,219912,0.78,-0.43,9.95,-0.03,-0.01,-0.00,30.91
20544191,1760,1,193862,219771,0.78,-0.42,9.98,-0.03,-0.01,-0.00,30.91
20584191,1775,1,193822,220352,0.77,-0.39,9.97,-0.03,-0.00,-0.00,30.91
20624191,1772,1,193831,220160,0.76,-0.41,10.00,-0.03,-0.01,-0.00,30.91
20664188,1770,1,193769,219704,0.77,-0.41,9.98,-0.03,-0.01,-0.00,30.91
20704192,1776,1,193567,219307,0.78,-0.40,9.98,-0.03,-0.01,-0.00,30.91
20744189,1776,1,193767,219705,0.76,-0.41,9.96,-0.03,-0.02,-0.00,30.91
20784192,1747,1,193974,220608,0.79,-0.40,9.96,-0.04,-0.01,-0.00,30.91
20824188,1766,1,194458,221887,0.78,-0.41,10.00,-0.04,-0.01,-0.00,30.91
20864191,1745,1,194919,223451,0.79,-0.42,9.96,-0.04,-0.01,-0.00,30.91
20904189,1755,1,195482,225007,0.76,-0.40,9.97,-0.04,-0.01,-0.00,30.91
20944191,1745,1,195597,223859,0.79,-0.41,9.97,-0.04,-0.01,-0.00,30.91
20984192,1761,1,194622,221226,0.78,-0.41,9.98,-0.03,-0.01,-0.00,30.91
21024201,1759,1,194012,220364,0.75,-0.43,9.97,-0.03,-0.02,-0.00,30.91
21064188,1763,1,194065,220411,0.79,-0.41,9.96,-0.03,-0.01,-0.00,30.91
21104191,1767,1,194176,220608,0.79,-0.43,9.96,-0.03,-0.01,-0.00,30.91
21144192,1772,1,194181,221044,0.76,-0.40,9.99,-0.03,-0.01,-0.00,30.91
21184191,1766,1,194472,221395,0.77,-0.38,9.96,-0.03,-0.01,-0.00,30.91
21224191,1755,1,194441,221458,0.77,-0.41,9.96,-0.03,-0.01,-0.00,30.91
21264191,1759,1,194602,221729,0.79,-0.40,9.99,-0.03,-0.01,-0.00,30.91
21304188,1757,1,194625,221978,0.79,-0.41,9.96,-0.03,-0.01,-0.00,30.91
21344192,1744,1,194844,222799,0.77,-0.41,9.96,-0.04,-0.01,-0.01,30.91
21384191,1744,1,195096,223489,0.80,-0.41,10.02,-0.03,-0.01,-0.00,30.91
21424878,1767,1,195375,224288,0.77,-0.40,9.99,-0.03,-0.01,-0.00,30.67
21465188,1786,1,195603,224032,0.79,-0.40,9.95,-0.03,-0.01,-0.00,30.67
21505191,1755,1,194916,220097,0.77,-0.41,9.97,-0.03,-0.01,-0.00,30.67
21545189,1760,1,193392,216051,0.79,-0.41,9.97,-0.03,-0.02,-0.00,30.67
21585191,1775,1,192461,213473,0.80,-0.40,9.99,-0.03,-0.02,-0.00,30.67
21625204,1769,1,192073,213262,0.77,-0.41,10.01,-0.03,-0.01,-0.00,30.67
21665191,1776,1,192233,214935,0.79,-0.41,9.96,-0.03,-0.01,-0.00,30.67
21705191,1760,1,192845,216320,0.78,-0.40,9.97,-0.03,-0.01,-0.00,30.67
21745191,1757,1,193206,216721,0.79,-0.40,9.98,-0.03,-0.01,-0.00,30.67
21785188,1775,1,193285,216173,0.78,-0.41,10.00,-0.03,-0.01,-0.00,30.67
21825195,1780,1,193294,216664,0.79,-0.41,9.97,-0.03,-0.01,-0.00,30.67
21865191,1781,1,193820,219015,0.78,-0.40,9.97,-0.04,-0.00,-0.00,30.67
21905191,1792,1,194715,221061,0.76,-0.42,9.97,-0.04,-0.01,-0.01,30.67
21945191,1787,1,195507,223683,0.79,-0.39,9.96,-0.04,-0.01,-0.01,30.67
21985191,1753,1,196166,226064,0.78,-0.41,9.95,-0.04,-0.00,-0.00,30.67
22025214,1795,1,196621,227345,0.79,-0.40,9.96,-0.03,-0.00,-0.00,30.67
22065192,1795,1,196220,224439,0.78,-0.40,9.95,-0.04,-0.00,-0.01,30.67
22105188,1799,1,194998,222549,0.78,-0.42,9.97,-0.04,-0.01,-0.00,30.67
22145192,1777,1,194825,222997,0.77,-0.40,9.96,-0.03,-0.01,-0.00,30.67
22185188,1790,1,194998,223819,0.78,-0.41,9.95,-0.03,-0.01,-0.00,30.67
22225192,1796,1,195273,224504,0.77,-0.42,9.99,-0.03,-0.01,-0.00,30.67
22265188,1782,1,195615,225888,0.77,-0.39,9.94,-0.03,-0.01,-0.00,30.67
22305191,1776,1,195976,226849,0.76,-0.42,9.97,-0.04,-0.00,-0.01,30.67
22345188,1771,1,196045,226497,0.74,-0.41,10.00,-0.03,-0.02,-0.00,30.67
22385191,1782,1,196041,226540,0.80,-0.40,9.98,-0.03,-0.02,-0.00,30.67
22425874,1808,1,196253,227377,0.78,-0.40,9.92,-0.03,-0.01,-0.00,30.81
22464191,1782,1,196539,228505,0.79,-0.40,9.96,-0.04,-0.01,-0.00,30.81
22504188,1779,1,196769,229291,0.77,-0.39,9.98,-0.04,-0.01,-0.00,30.81
22544191,1762,1,196948,229796,0.77,-0.40,9.97,-0.03,-0.01,-0.00,30.81
22584189,1775,1,197152,229949,0.77,-0.41,9.99,-0.04,-0.01,-0.00,30.81
22624191,1787,1,196756,225979,0.78,-0.42,9.99,-0.03,-0.01,-0.00,30.81
22664191,1758,1,194957,222072,0.79,-0.40,9.97,-0.03,-0.02,-0.00,30.81
22704191,1767,1,194362,222028,0.79,-0.41,9.97,-0.03,-0.01,-0.00,30.81
22744188,1758,1,194594,223150,0.79,-0.44,9.97,-0.03,-0.01,-0.01,30.81
22784191,1791,1,194956,224287,0.79,-0.40,9.99,-0.03,-0.01,-0.00,30.81
22824188,1791,1,195425,225393,0.79,-0.39,9.94,-0.03,-0.01,-0.00,30.81
22864191,1775,1,195639,225347,0.78,-0.41,9.96,-0.03,-0.01,-0.00,30.81
22904188,1789,1,195548,224641,0.77,-0.41,9.98,-0.03,-0.01,-0.00,30.81
22944191,1777,1,195462,224432,0.76,-0.41,9.98,-0.03,-0.01,-0.00,30.81
22984188,1762,1,195455,224448,0.79,-0.39,9.98,-0.03,-0.01,-0.00,30.81
23024201,1745,1,195580,225303,0.79,-0.43,9.97,-0.03,-0.01,-0.00,30.81
23064191,1758,1,196105,226838,0.77,-0.42,9.97,-0.04,-0.01,-0.00,30.81
23104192,1759,1,196411,227840,0.77,-0.40,9.99,-0.03,-0.01,-0.00,30.81
23144188,1762,1,196607,228459,0.77,-0.40,9.99,-0.03,-0.01,-0.00,30.81
23184191,1792,1,196586,226116,0.77,-0.41,10.00,-0.03,-0.01,-0.00,30.81
23224188,1777,1,195492,224016,0.79,-0.41,9.95,-0.03,-0.02,-0.00,30.81
23264209,1777,1,195364,224787,0.79,-0.41,9.97,-0.04,-0.01,-0.01,30.81
23304191,1802,1,195807,226349,0.78,-0.41,9.99,-0.03,-0.01,-0.00,30.81
23344191,1807,1,196340,227148,0.77,-0.42,9.99,-0.03,-0.02,-0.00,30.81
23384189,1818,1,196719,227848,0.79,-0.40,9.96,-0.03,-0.02,-0.00,30.81
23424191,1822,1,196899,228368,0.79,-0.39,9.95,-0.03,-0.00,-0.01,30.81
23464902,1826,1,196904,228664,0.78,-0.40,10.01,-0.03,-0.00,-0.00,30.73
23503191,1814,1,196947,228824,0.80,-0.42,9.99,-0.03,-0.01,-0.00,30.73
23543188,1826,1,197165,229104,0.78,-0.40,9.96,-0.03,-0.01,-0.00,30.73
23583191,1827,1,197334,229188,0.80,-0.39,9.97,-0.03,-0.01,-0.00,30.73
23623188,1840,1,197438,229202,0.80,-0.42,9.98,-0.03,-0.01,-0.00,30.73
23663191,1826,1,197500,229198,0.79,-0.41,9.96,-0.03,-0.01,-0.00,30.73
23703191,1813,1,197562,229193,0.78,-0.41,9.97,-0.03,-0.01,-0.00,30.73
23743191,1824,1,196931,225893,0.79,-0.42,9.97,-0.04,-0.01,-0.01,30.73
23783192,1839,1,195947,224428,0.78,-0.38,9.96,-0.04,-0.01,-0.00,30.73
23823191,1830,1,195894,224799,0.78,-0.40,9.98,-0.03,-0.02,-0.00,30.73
23863188,1830,1,196300,225365,0.79,-0.42,9.96,-0.03,-0.02,-0.00,30.73
23903191,1822,1,196583,226462,0.79,-0.40,9.95,-0.03,-0.01,-0.00,30.73
23943188,1831,1,196933,227652,0.79,-0.40,9.97,-0.03,-0.00,-0.00,30.73
23983191,1827,1,197287,228253,0.79,-0.40,9.97,-0.03,-0.01,-0.00,30.73
24023188,1810,1,197532,228887,0.81,-0.41,9.95,-0.04,-0.02,-0.00,30.73
24063191,1815,1,197704,229253,0.80,-0.40,9.97,-0.04,-0.01,-0.01,30.73
24103189,1811,1,197697,229410,0.80,-0.41,9.97,-0.03,-0.01,-0.00,30.73
24143191,1807,1,197843,229732,0.80,-0.39,10.01,-0.03,-0.01,-0.00,30.73
24183189,1810,1,197843,229838,0.78,-0.42,9.96,-0.03,-0.01,-0.00,30.73
24223191,1804,1,197909,230098,0.78,-0.41,9.96,-0.03,-0.01,-0.00,30.73
24263188,1778,1,197866,228562,0.80,-0.42,9.98,-0.03,-0.01,-0.00,30.73
24303191,1788,1,196682,225221,0.79,-0.40,9.97,-0.03,-0.01,-0.00,30.73
24343188,1799,1,196048,224774,0.79,-0.42,9.98,-0.03,-0.01,-0.00,30.73
24383191,1799,1,196305,225721,0.80,-0.41,9.98,-0.04,-0.01,-0.00,30.73
24423189,1791,1,196654,227033,0.79,-0.41,9.96,-0.04,-0.01,-0.00,30.73
24463191,1794,1,197176,228649,0.79,-0.41,9.98,-0.03,-0.01,-0.00,30.73
24503875,1791,1,197584,229630,0.79,-0.41,9.97,-0.03,-0.01,-0.00,30.87
24544191,1779,1,197778,230031,0.79,-0.42,9.96,-0.03,-0.01,-0.00,30.87
24584188,1777,1,197871,230465,0.79,-0.41,9.95,-0.03,-0.01,-0.00,30.87
24624191,1798,1,198008,231247,0.78,-0.38,9.98,-0.04,-0.01,-0.00,30.87
24664192,1776,1,198305,232123,0.80,-0.40,9.98,-0.04,-0.01,-0.00,30.87
24704191,1780,1,198510,232586,0.80,-0.42,9.96,-0.03,-0.01,-0.00,30.87
24744188,1776,1,198630,232789,0.79,-0.40,9.96,-0.03,-0.01,-0.01,30.87
24784192,1792,1,198671,232710,0.79,-0.43,9.98,-0.03,-0.01,-0.00,30.87
24824188,1791,1,198255,228677,0.78,-0.40,9.96,-0.03,-0.02,-0.00,30.87
24864191,1777,1,196776,225975,0.79,-0.42,9.97,-0.03,-0.01,-0.00,30.87
24904195,1805,1,196446,225722,0.78,-0.43,9.99,-0.03,-0.02,-0.00,30.87
24944191,1792,1,196636,226434,0.78,-0.41,9.94,-0.03,-0.01,-0.00,30.87
24984191,1803,1,197056,228233,0.82,-0.41,9.96,-0.03,-0.00,-0.00,30.87
25024201,1797,1,197809,230520,0.82,-0.41,9.98,-0.04,-0.01,-0.00,30.87
25064192,1783,1,198309,231577,0.80,-0.40,9.97,-0.03,-0.01,-0.00,30.87
25104209,1798,1,198637,232339,0.78,-0.40,9.97,-0.03,-0.02,-0.00,30.87
25144188,1804,1,199037,233934,0.81,-0.41,9.94,-0.04,-0.02,-0.01,30.87
25184191,1795,1,199517,235466,0.81,-0.40,9.94,-0.04,-0.01,-0.00,30.87
25224188,1799,1,199735,236476,0.82,-0.40,9.96,-0.04,0.00,-0.01,30.87
25264171,1795,1,199750,236968,0.80,-0.41,9.98,-0.03,-0.00,-0.01,30.87
25304188,1786,1,199746,237114,0.79,-0.42,9.94,-0.03,-0.01,-0.00,30.87
25344191,1805,1,199748,236047,0.79,-0.43,9.95,-0.03,-0.01,-0.00,30.87
25384191,1792,1,198575,231552,0.81,-0.42,9.97,-0.03,-0.01,-0.00,30.87
25424191,1790,1,197546,230520,0.80,-0.40,9.97,-0.03,-0.01,-0.01,30.87
25464188,1807,1,197678,231556,0.81,-0.44,9.96,-0.03,-0.01,-0.00,30.87
25504878,1803,1,198129,232492,0.81,-0.41,9.98,-0.03,-0.01,-0.00,30.87
25543188,1808,1,198354,233199,0.81,-0.41,9.97,-0.03,-0.01,-0.00,30.87
25583191,1799,1,198595,233078,0.82,-0.41,9.98,-0.03,-0.01,-0.00,30.87
25623192,1805,1,198402,232298,0.80,-0.41,9.97,-0.03,-0.01,-0.00,30.87
25663191,1782,1,198179,231732,0.81,-0.41,9.95,-0.03,-0.01,-0.00,30.87
25703189,1840,1,198217,231689,0.80,-0.42,9.95,-0.03,-0.01,-0.00,30.87
25743191,1814,1,198313,232538,0.80,-0.40,9.98,-0.04,-0.01,-0.00,30.87
25783187,1817,1,198767,234042,0.80,-0.40,9.97,-0.04,-0.01,-0.00,30.87
25823191,1819,1,199035,235270,0.79,-0.41,9.96,-0.04,-0.01,-0.01,30.87
25863191,1815,1,199237,235662,0.79,-0.40,10.00,-0.03,-0.01,-0.00,30.87
25903191,1817,1,198527,231836,0.76,-0.40,9.97,-0.03,-0.02,-0.00,30.87
25943188,1797,1,197444,230589,0.79,-0.42,9.96,-0.03,-0.01,-0.00,30.87
25983191,1819,1,197545,231200,0.81,-0.43,9.96,-0.03,-0.01,-0.00,30.87
26023191,1809,1,197829,232150,0.79,-0.41,9.97,-0.03,-0.01,-0.00,30.87
26063192,1811,1,198146,232900,0.80,-0.40,9.96,-0.03,-0.01,-0.01,30.87
26103188,1798,1,198373,233337,0.79,-0.43,9.96,-0.03,-0.01,-0.01,30.87
26143191,1791,1,198378,233228,0.80,-0.42,9.99,-0.03,-0.01,-0.00,30.87
26183188,1796,1,198418,233308,0.79,-0.40,9.92,-0.03,-0.01,-0.00,30.87
26223191,1815,1,198412,233735,0.79,-0.39,9.96,-0.03,-0.01,-0.00,30.87
26263191,1796,1,198653,234573,0.81,-0.40,10.00,-0.03,-0.02,-0.00,30.87
26303191,1783,1,198899,235235,0.77,-0.43,9.96,-0.03,-0.01,-0.00,30.87
26343191,1815,1,199110,236054,0.82,-0.41,9.97,-0.03,-0.01,-0.00,30.87
26383191,1810,1,199198,236226,0.79,-0.40,9.97,-0.03,-0.00,-0.00,30.87
26423188,1829,1,198602,232774,0.79,-0.40,9.98,-0.04,-0.01,-0.00,30.87
26463191,1829,1,197400,231072,0.79,-0.41,9.95,-0.03,-0.01,-0.00,30.87
26503191,1826,1,197350,232111,0.81,-0.41,9.96,-0.03,-0.01,-0.00,30.87
26543891,1818,1,197727,233462,0.78,-0.40,9.98,-0.03,-0.01,-0.00,30.87
26584188,1818,1,198084,234760,0.77,-0.42,9.97,-0.03,-0.01,-0.00,30.87
26624191,1801,1,198411,235367,0.80,-0.40,9.98,-0.03,-0.01,-0.00,30.87
26664187,1817,1,198410,235359,0.82,-0.41,9.98,-0.03,-0.01,-0.00,30.87
26704191,1776,1,198452,235483,0.80,-0.40,9.96,-0.03,-0.01,-0.00,30.87
26744204,1793,1,198448,235602,0.77,-0.43,9.95,-0.04,-0.00,-0.00,30.87
26784191,1808,1,198556,235865,0.78,-0.43,9.99,-0.04,-0.01,-0.00,30.87
26824188,1803,1,198587,235917,0.79,-0.43,9.97,-0.03,-0.02,-0.00,30.87
26864191,1790,1,198760,235910,0.79,-0.42,9.96,-0.03,-0.01,-0.01,30.87
26904191,1808,1,198700,235098,0.78,-0.43,9.98,-0.03,-0.01,-0.00,30.87
26944195,1799,1,197840,230243,0.80,-0.42,9.94,-0.03,-0.01,-0.00,30.87
26984188,1823,1,196483,227671,0.81,-0.43,9.98,-0.03,-0.01,-0.00,30.87
27024201,1840,1,196442,227730,0.81,-0.41,9.97,-0.03,-0.02,-0.00,30.87
27064188,1883,1,196714,229048,0.82,-0.40,9.97,-0.03,-0.01,-0.00,30.87
27104192,1924,1,197177,230356,0.78,-0.43,9.96,-0.03,-0.01,-0.00,30.87
27144191,1974,1,197518,231098,0.80,-0.40,9.95,-0.03,-0.01,-0.00,30.87
27182191,2041,1,197700,231283,0.80,-0.42,9.98,-0.03,-0.01,-0.00,30.87
27222189,2117,1,197661,231266,0.78,-0.44,9.96,-0.03,-0.01,-0.00,30.87
27262191,2160,1,197606,231039,0.78,-0.42,9.95,-0.03,-0.01,-0.01,30.87
27302191,2234,1,197686,231325,0.80,-0.40,9.99,-0.03,-0.01,-0.00,30.87
27342192,2320,1,197852,231840,0.79,-0.39,9.96,-0.03,-0.01,-0.00,30.87
27383191,2374,1,198038,232652,0.81,-0.41,9.96,-0.03,-0.01,-0.00,30.87
27423191,2414,1,198149,231783,0.79,-0.38,9.98,-0.03,-0.01,-0.00,30.87
27463191,2431,1,197067,228212,0.81,-0.41,9.95,-0.03,-0.01,-0.00,30.87
27503191,2480,1,196286,227631,0.81,-0.40,9.96,-0.03,-0.01,-0.00,30.87
27543875,2499,1,196513,228432,0.79,-0.41,9.96,-0.03,-0.01,-0.00,30.85
27582191,2512,1,196822,229518,0.79,-0.40,9.98,-0.03,-0.01,-0.01,30.85
27622189,2499,1,197184,230931,0.80,-0.40,9.98,-0.03,-0.01,-0.00,30.85
27662191,2474,1,197601,231738,0.82,-0.41,9.99,-0.03,-0.01,-0.00,30.85
27702192,2434,1,197692,232151,0.79,-0.40,9.98,-0.03,-0.01,-0.00,30.85
27742191,2385,1,197777,232437,0.79,-0.43,9.98,-0.03,-0.01,-0.00,30.85
27782192,2332,1,197822,232890,0.77,-0.41,9.99,-0.03,-0.01,-0.00,30.85
27822191,2289,1,197941,233063,0.79,-0.41,9.97,-0.03,-0.01,-0.01,30.85
27862191,2214,1,198156,233328,0.81,-0.40,10.00,-0.03,-0.01,-0.00,30.85
27902191,2142,1,198283,233511,0.79,-0.42,9.96,-0.03,-0.01,-0.00,30.85
27942189,2089,1,197946,230540,0.80,-0.40,9.95,-0.03,-0.01,-0.01,30.85
27982229,2009,1,196533,228027,0.78,-0.42,9.98,-0.03,-0.01,-0.00,30.85
28022199,1949,1,196110,227746,0.81,-0.39,9.95,-0.03,-0.02,-0.00,30.85
28062191,1854,1,196241,227733,0.81,-0.40,9.97,-0.03,-0.01,-0.00,30.85
28102189,1804,1,196240,227966,0.77,-0.40,9.96,-0.03,-0.00,-0.01,30.85
28142191,1765,1,196385,228350,0.80,-0.42,9.96,-0.03,-0.00,-0.00,30.85
28182205,1735,1,196425,229126,0.80,-0.40,9.96,-0.04,-0.00,-0.00,30.85
28222191,1699,1,196704,230421,0.77,-0.41,10.02,-0.04,-0.00,-0.01,30.85
28262188,1655,1,197066,230896,0.79,-0.42,10.00,-0.04,-0.02,-0.00,30.85
28302192,1600,1,197266,231000,0.79,-0.41,9.98,-0.03,-0.02,-0.00,30.85
28342192,1605,1,197326,231548,0.80,-0.39,9.95,-0.03,-0.01,-0.01,30.85
28383191,1503,1,197401,231460,0.78,-0.40,9.99,-0.03,0.00,-0.01,30.85
28423169,1505,1,197300,230256,0.78,-0.40,9.97,-0.03,-0.01,-0.01,30.85
28463191,1488,1,196235,227386,0.77,-0.39,9.96,-0.04,-0.01,-0.00,30.85
28503191,1462,1,195849,227023,0.77,-0.43,9.99,-0.04,-0.02,-0.00,30.85
28543878,1472,1,196063,227448,0.79,-0.41,9.93,-0.03,-0.03,-0.00,31.01
28582210,1485,1,196361,228895,0.81,-0.41,9.94,-0.03,-0.02,-0.00,31.01
28622191,1483,1,196831,231263,0.82,-0.40,9.94,-0.04,0.01,-0.01,31.01
28662171,1509,1,197388,233019,0.79,-0.41,9.97,-0.04,0.01,-0.01,31.01
28702171,1525,1,197476,233322,0.77,-0.42,9.96,-0.04,-0.01,-0.01,31.01
28742192,1535,1,197529,232942,0.76,-0.41,9.99,-0.03,-0.02,-0.00,31.01
28782191,1517,1,197436,232689,0.81,-0.40,9.98,-0.03,-0.02,-0.00,31.01
28822188,1555,1,197422,232540,0.81,-0.41,9.98,-0.03,-0.01,-0.00,31.01
28862191,1584,1,197435,232485,0.80,-0.44,9.97,-0.03,-0.01,-0.00,31.01
28902188,1600,1,197355,232473,0.78,-0.42,9.98,-0.03,-0.01,-0.00,31.01
28942191,1595,1,196880,229686,0.79,-0.42,9.98,-0.04,-0.01,-0.01,31.01
28982192,1585,1,195864,228330,0.79,-0.42,9.98,-0.04,-0.02,-0.00,31.01
29022202,1593,1,195769,229578,0.82,-0.42,9.94,-0.03,-0.01,-0.00,31.01
29062191,1606,1,196272,230909,0.80,-0.42,9.98,-0.03,-0.01,-0.00,31.01
29102192,1593,1,196587,232234,0.79,-0.41,9.97,-0.03,-0.01,-0.00,31.01
29142192,1630,1,197116,233084,0.79,-0.40,9.98,-0.03,-0.02,-0.00,31.01
29182191,1632,1,197353,233364,0.80,-0.42,9.98,-0.03,-0.03,-0.00,31.01
29222188,1648,1,197484,233985,0.83,-0.41,9.98,-0.03,-0.03,-0.00,31.01
29262191,1659,1,197796,234820,0.83,-0.41,9.93,-0.04,-0.00,-0.00,31.01
29302188,1664,1,197931,235351,0.78,-0.40,10.01,-0.04,0.00,-0.00,31.01
29342171,1714,1,197873,235103,0.78,-0.42,9.99,-0.03,-0.01,-0.00,31.01
29382192,1705,1,197834,234523,0.79,-0.43,9.97,-0.03,-0.02,-0.00,31.01
29423191,1717,1,197620,233742,0.83,-0.39,9.96,-0.03,-0.01,-0.00,31.01
29463191,1725,1,196814,228897,0.80,-0.40,9.95,-0.03,-0.00,-0.00,31.01
29503191,1737,1,194956,225400,0.78,-0.41,9.97,-0.03,-0.01,-0.00,31.01
29543877,1717,1,194541,224273,0.77,-0.40,10.00,-0.03,-0.02,-0.00,30.91
29582191,1794,1,194373,223443,0.81,-0.39,9.91,-0.03,-0.02,-0.00,30.91
29622189,1776,1,194312,224087,0.81,-0.38,9.95,-0.04,0.01,-0.01,30.91
29662171,1778,1,194753,225413,0.80,-0.40,9.95,-0.04,0.01,-0.01,30.91
29702169,1677,1,195096,225547,0.78,-0.40,9.99,-0.03,-0.01,-0.00,30.91
29742192,1810,1,195209,225565,0.80,-0.40,9.98,-0.03,-0.02,-0.00,30.91
29782188,1781,1,195475,226749,0.79,-0.40,9.97,-0.03,-0.03,-0.00,30.91
29822192,1768,1,196128,229524,0.83,-0.40,9.97,-0.03,-0.01,-0.00,30.91
29862189,1815,1,196677,232062,0.82,-0.40,9.99,-0.04,0.01,-0.01,30.91
29902171,1794,1,197229,233929,0.79,-0.40,9.95,-0.04,0.01,-0.01,30.91
29942169,1808,1,197563,234326,0.78,-0.40,10.00,-0.03,-0.00,-0.01,30.91
29982191,1708,1,196817,230303,0.80,-0.40,9.96,-0.03,-0.02,-0.00,30.91
30022203,1803,1,195606,228447,0.79,-0.40,9.96,-0.03,-0.01,-0.00,30.91
30062192,1819,1,195523,229028,0.79,-0.39,9.95,-0.04,-0.01,-0.00,30.91
30102191,1772,1,195934,229555,0.78,-0.41,9.99,-0.04,-0.01,-0.01,30.91
30142191,1783,1,196148,230089,0.80,-0.41,9.97,-0.03,-0.01,-0.00,30.91
30182188,1789,1,196400,230761,0.81,-0.41,9.95,-0.03,-0.00,-0.00,30.91
30222218,1791,1,196424,230401,0.79,-0.42,9.96,-0.03,-0.00,-0.01,30.91
30262189,1796,1,196171,229376,0.79,-0.41,9.96,-0.03,-0.01,-0.00,30.91
30302191,1797,1,195809,228230,0.79,-0.41,9.97,-0.03,-0.01,-0.00,30.91
30342192,1807,1,195564,227687,0.78,-0.37,9.95,-0.03,-0.01,-0.00,30.91
30382191,1806,1,195569,227528,0.80,-0.40,9.98,-0.03,-0.01,-0.00,30.91
30422187,1797,1,195626,227974,0.78,-0.40,9.96,-0.03,-0.01,-0.00,30.91
30463192,1765,1,195758,228318,0.78,-0.41,9.98,-0.04,-0.01,-0.01,30.91
30503191,1789,1,195175,225716,0.77,-0.40,9.94,-0.04,-0.00,-0.01,30.91
30543878,1759,1,194345,224380,0.79,-0.40,10.00,-0.04,-0.01,-0.01,30.97
30582188,1809,1,194399,223879,0.77,-0.42,9.98,-0.03,-0.02,-0.00,30.97
30622192,1787,1,194474,223894,0.80,-0.40,9.93,-0.03,-0.01,-0.00,30.97
30662187,1795,1,194560,224687,0.81,-0.40,9.95,-0.03,-0.00,-0.01,30.97
30702191,1808,1,194752,225650,0.77,-0.40,9.94,-0.03,-0.00,-0.00,30.97
30742188,1795,1,194961,225820,0.78,-0.42,9.99,-0.03,-0.01,-0.00,30.97
30782191,1814,1,194908,225629,0.78,-0.42,9.98,-0.03,-0.01,-0.00,30.97
30822191,1813,1,194737,225460,0.81,-0.41,9.97,-0.03,-0.01,-0.00,30.97
30862191,1821,1,194743,225572,0.79,-0.42,9.98,-0.03,-0.01,-0.00,30.97
30902191,1815,1,194764,225690,0.79,-0.40,9.97,-0.03,-0.01,-0.00,30.97
30942191,1812,1,194766,225501,0.78,-0.40,9.98,-0.03,-0.02,-0.00,30.97
30982188,1829,1,194730,225273,0.79,-0.40,9.95,-0.03,-0.02,-0.00,30.97
31022203,1844,1,194763,224521,0.81,-0.41,9.98,-0.03,-0.01,-0.00,30.97
31062192,1854,1,193938,221862,0.77,-0.38,9.96,-0.04,-0.01,-0.00,30.97
31102191,1845,1,193020,220636,0.79,-0.40,9.98,-0.04,-0.01,-0.01,30.97
31142192,1831,1,192840,220470,0.78,-0.42,9.98,-0.03,-0.01,-0.00,30.97
31182191,1846,1,192932,221125,0.79,-0.40,9.98,-0.04,-0.01,-0.00,30.97
31222188,1831,1,193194,222473,0.79,-0.38,9.95,-0.04,-0.00,-0.01,30.97
31262192,1850,1,193744,223912,0.78,-0.41,10.00,-0.04,-0.00,-0.00,30.97
31302188,1891,1,194056,224512,0.79,-0.41,9.99,-0.03,-0.02,-0.00,30.97
31342192,1858,1,194243,224997,0.79,-0.41,9.96,-0.03,-0.01,-0.00,30.97
31382191,1831,1,194340,225757,0.79,-0.40,9.97,-0.03,-0.01,-0.00,30.97
31422191,1863,1,194527,226448,0.79,-0.42,9.99,-0.03,-0.01,-0.00,30.97
31462191,1904,1,194693,226826,0.78,-0.43,9.98,-0.03,-0.01,-0.00,30.97
31502191,1891,1,194801,226885,0.78,-0.42,9.98,-0.03,-0.01,-0.00,30.97
31542188,1881,1,194790,226864,0.79,-0.39,9.97,-0.03,-0.01,-0.01,30.97
31582878,1839,1,194828,227553,0.79,-0.40,9.97,-0.03,-0.01,-0.00,31.15
31623189,1881,1,195155,228862,0.78,-0.40,9.95,-0.04,-0.01,-0.01,31.15
31663208,1874,1,195404,228528,0.79,-0.42,9.99,-0.04,-0.01,-0.00,31.15
31703191,1840,1,194208,223887,0.79,-0.41,9.98,-0.03,-0.01,-0.00,31.15
31743192,1856,1,192919,221529,0.77,-0.40,9.98,-0.03,-0.01,-0.00,31.15
31783188,1824,1,192420,220264,0.77,-0.41,9.98,-0.03,-0.01,-0.00,31.15
31823191,1826,1,192047,219489,0.78,-0.42,9.96,-0.03,-0.01,-0.00,31.15
31863233,1819,1,191832,220027,0.79,-0.40,9.98,-0.04,-0.01,-0.00,31.15
31901191,1828,1,192293,221615,0.77,-0.41,9.96,-0.04,-0.01,-0.00,31.15
31941191,1812,1,192929,223571,0.79,-0.38,9.96,-0.04,-0.01,-0.01,31.15
31981191,1831,1,193328,224174,0.78,-0.41,9.98,-0.04,0.00,-0.01,31.15
32021169,1807,1,193134,223123,0.77,-0.40,9.95,-0.03,-0.01,-0.00,31.15
32061191,1830,1,192750,221951,0.78,-0.40,9.95,-0.03,-0.01,-0.00,31.15
32101188,1819,1,192380,221212,0.79,-0.38,9.98,-0.03,-0.01,-0.00,31.15
32141191,1809,1,192227,220759,0.77,-0.43,9.95,-0.04,-0.01,-0.01,31.15
32181191,1806,1,192215,220795,0.78,-0.41,9.97,-0.03,-0.01,-0.00,31.15
32221191,1811,1,192455,221754,0.78,-0.39,9.96,-0.03,-0.02,-0.00,31.15
32261191,1783,1,192873,222690,0.79,-0.41,9.95,-0.04,-0.01,-0.01,31.15
32301191,1779,1,192720,220028,0.77,-0.42,9.96,-0.04,-0.01,-0.00,31.15
32341191,1786,1,191564,217473,0.77,-0.42,9.95,-0.04,-0.01,-0.01,31.15
32381191,1789,1,190851,216097,0.78,-0.41,9.96,-0.03,-0.01,-0.00,31.15
32421191,1780,1,190489,215485,0.79,-0.42,9.96,-0.03,-0.01,-0.00,31.15
32461191,1773,1,190378,216407,0.77,-0.43,9.96,-0.03,-0.01,-0.00,31.15
32501191,1773,1,191201,219220,0.79,-0.41,9.97,-0.04,-0.01,-0.00,31.15
32541191,1745,1,191922,220627,0.78,-0.40,9.97,-0.03,-0.01,-0.00,31.15
32581188,1767,1,192102,221118,0.81,-0.41,9.97,-0.03,-0.01,-0.00,31.15
32621878,1727,1,192249,221755,0.77,-0.40,9.98,-0.03,-0.01,-0.00,31.21
32662188,1739,1,192753,223010,0.79,-0.41,9.96,-0.04,-0.01,-0.00,31.21
32702191,1758,1,193293,223919,0.79,-0.41,10.00,-0.04,-0.02,-0.00,31.21
32742188,1771,1,193845,224768,0.81,-0.41,9.97,-0.04,-0.02,-0.01,31.21
32782191,1741,1,194269,225128,0.79,-0.43,9.98,-0.03,-0.02,-0.00,31.21
32822188,1768,1,194488,225391,0.81,-0.41,9.95,-0.03,-0.02,-0.00,31.21
32862191,1767,1,194611,225010,0.79,-0.43,9.97,-0.03,-0.00,-0.00,31.21
32902188,1748,1,193664,220479,0.77,-0.43,9.99,-0.02,-0.00,-0.00,31.21
32942191,1782,1,192188,218213,0.82,-0.41,9.95,-0.03,-0.02,-0.00,31.21
32982191,1787,1,191808,218904,0.79,-0.41,9.96,-0.04,0.00,-0.01,31.21
33022178,1787,1,192224,220132,0.79,-0.41,9.98,-0.04,0.01,-0.01,31.21
33062171,1814,1,192484,220249,0.77,-0.43,10.01,-0.03,-0.02,-0.00,31.21
33102192,1814,1,192726,220411,0.81,-0.41,9.95,-0.03,-0.02,-0.00,31.21
33142188,1837,1,192640,219231,0.79,-0.40,9.97,-0.04,-0.01,-0.00,31.21
33182191,1817,1,192392,218046,0.79,-0.42,9.94,-0.04,-0.02,-0.01,31.21
33222191,1811,1,192341,217681,0.79,-0.42,9.98,-0.04,-0.00,-0.01,31.21
33262191,1807,1,192316,217932,0.81,-0.42,9.96,-0.03,-0.01,-0.01,31.21
33302191,1794,1,192478,218457,0.79,-0.40,9.96,-0.03,-0.00,-0.00,31.21
33342191,1810,1,192756,219436,0.78,-0.41,9.98,-0.03,-0.01,-0.00,31.21
33382191,1811,1,193157,220561,0.79,-0.40,9.97,-0.03,-0.02,-0.00,31.21
33422191,1809,1,193476,221656,0.80,-0.40,9.96,-0.03,-0.01,-0.00,31.21
33462187,1792,1,193854,222620,0.81,-0.41,9.98,-0.03,-0.01,-0.00,31.21
33502225,1790,1,193535,220985,0.79,-0.42,10.00,-0.04,-0.00,-0.00,31.21
33542188,1786,1,192573,219621,0.78,-0.40,9.95,-0.03,0.00,-0.01,31.21
33582171,1777,1,192333,219308,0.78,-0.41,9.93,-0.03,-0.01,-0.01,31.21
33622878,1759,1,192284,219232,0.79,-0.41,9.98,-0.03,-0.01,-0.00,31.11
33661191,1770,1,192387,219727,0.80,-0.43,9.97,-0.03,-0.02,-0.00,31.11
33701212,1781,1,192738,221433,0.83,-0.40,9.94,-0.04,-0.01,-0.00,31.11
33741191,1765,1,193148,222453,0.78,-0.39,9.98,-0.03,0.00,-0.00,31.11
33781169,1802,1,193331,222811,0.80,-0.42,9.95,-0.03,-0.01,-0.00,31.11
33821191,1798,1,193255,222556,0.80,-0.41,9.99,-0.03,-0.01,-0.00,31.11
33861189,1806,1,193082,221997,0.80,-0.40,9.97,-0.03,-0.01,-0.00,31.11
33901191,1783,1,192865,221298,0.78,-0.41,9.96,-0.03,-0.01,-0.00,31.11
33941192,1781,1,192667,220798,0.80,-0.39,9.96,-0.03,-0.00,-0.01,31.11
33981191,1776,1,192480,220175,0.75,-0.40,9.97,-0.03,-0.01,-0.00,31.11
34021189,1779,1,192377,219988,0.79,-0.42,9.96,-0.03,-0.01,-0.00,31.11
34061192,1723,1,192421,220183,0.78,-0.40,9.96,-0.04,-0.01,-0.00,31.11
34101188,1737,1,192030,217908,0.77,-0.40,10.00,-0.03,-0.00,-0.00,31.11
34141191,1712,1,191111,216456,0.78,-0.40,10.00,-0.03,-0.00,-0.01,31.11
34181188,1661,1,190835,216607,0.78,-0.40,9.97,-0.03,-0.02,-0.00,31.11
34221191,1711,1,191015,217320,0.81,-0.40,9.98,-0.03,-0.01,-0.00,31.11
34261188,1671,1,191155,217982,0.78,-0.38,9.96,-0.03,-0.01,-0.00,31.11
34301191,1677,1,191391,218713,0.75,-0.39,9.97,-0.03,-0.01,-0.00,31.11
34341191,1690,1,191430,218552,0.77,-0.41,9.98,-0.03,-0.01,-0.00,31.11
34381191,1680,1,191171,217589,0.79,-0.39,9.99,-0.03,-0.01,-0.00,31.11
34421191,1717,1,190757,216422,0.78,-0.41,10.00,-0.03,-0.01,-0.00,31.11
34461191,1742,1,190392,215706,0.78,-0.40,9.99,-0.03,-0.01,-0.00,31.11
34501188,1762,1,190241,215739,0.77,-0.39,9.95,-0.03,-0.01,-0.00,31.11
34541191,1750,1,190270,215892,0.79,-0.39,9.98,-0.03,-0.01,-0.01,31.11
34581191,1775,1,190327,216265,0.79,-0.38,9.98,-0.03,-0.01,-0.00,31.11
34621191,1713,1,190477,216514,0.76,-0.39,9.99,-0.03,-0.01,-0.00,31.11
34661878,1719,1,190481,215470,0.79,-0.40,9.97,-0.04,-0.02,-0.00,31.15
34702191,1733,1,189820,213790,0.77,-0.40,9.97,-0.04,-0.01,-0.01,31.15
34742191,1732,1,189342,213387,0.76,-0.41,9.99,-0.03,-0.01,-0.00,31.15
34782192,1762,1,189481,214110,0.78,-0.37,9.94,-0.03,-0.01,-0.00,31.15
34822191,1715,1,189896,215199,0.77,-0.41,9.99,-0.03,-0.01,-0.00,31.15
34862191,1735,1,190313,216391,0.79,-0.40,9.97,-0.03,-0.01,-0.00,31.15
34902188,1742,1,190705,217451,0.79,-0.40,9.98,-0.03,-0.01,-0.00,31.15
34942191,1731,1,191067,218731,0.77,-0.38,9.96,-0.04,-0.01,-0.00,31.15
34982191,1715,1,191521,219874,0.79,-0.40,10.01,-0.04,-0.01,-0.00,31.15
35022202,1714,1,191943,221012,0.79,-0.40,9.98,-0.04,-0.01,-0.00,31.15
35062188,1719,1,192325,221926,0.77,-0.42,9.99,-0.04,-0.01,-0.01,31.15
35102191,1710,1,192515,222592,0.76,-0.40,9.99,-0.03,-0.01,-0.00,31.15
35142188,1733,1,192760,223222,0.79,-0.40,9.96,-0.04,-0.01,-0.00,31.15
35182191,1731,1,193116,224255,0.81,-0.40,9.95,-0.04,-0.01,-0.00,31.15
35222188,1709,1,193315,223042,0.76,-0.41,9.98,-0.04,-0.01,-0.00,31.15
35262191,1736,1,192241,220274,0.78,-0.40,9.96,-0.03,-0.01,-0.00,31.15
35302188,1719,1,191719,220206,0.77,-0.39,9.98,-0.03,-0.01,-0.00,31.15
35342216,1712,1,192053,221767,0.78,-0.42,9.97,-0.04,-0.01,-0.00,31.15
35382191,1726,1,192524,222567,0.79,-0.42,10.00,-0.03,-0.01,-0.00,31.15
35422191,1725,1,192610,222753,0.79,-0.42,9.99,-0.03,-0.01,-0.00,31.15
35462191,1754,1,192507,222314,0.79,-0.41,9.96,-0.03,-0.02,-0.00,31.15
35502191,1737,1,192372,222715,0.79,-0.39,9.93,-0.03,-0.02,-0.00,31.15
35542191,1741,1,192795,224940,0.81,-0.40,9.96,-0.04,-0.00,-0.00,31.15
35582191,1749,1,193661,227101,0.78,-0.40,9.96,-0.04,0.01,-0.01,31.15
35622169,1774,1,194086,227276,0.77,-0.39,10.02,-0.04,-0.01,-0.01,31.15
35662877,1754,1,193839,225492,0.77,-0.40,9.98,-0.03,-0.02,-0.00,31.07
35701188,1749,1,193006,222401,0.80,-0.40,9.99,-0.02,-0.03,-0.00,31.07
35741191,1747,1,192284,221033,0.82,-0.40,9.90,-0.03,-0.01,-0.00,31.07
35781197,1734,1,192369,222415,0.82,-0.40,9.96,-0.04,0.03,-0.01,31.07
35821171,1733,1,191906,218313,0.73,-0.43,9.99,-0.04,0.00,-0.00,31.07
35861169,1724,1,190005,213361,0.77,-0.41,10.02,-0.03,-0.02,-0.00,31.07
35901191,1740,1,188233,206844,0.76,-0.40,9.98,-0.02,-0.03,-0.00,31.07
35941188,1743,1,186119,201488,0.79,-0.40,9.97,-0.02,-0.04,0.00,31.07
35981171,1743,1,185326,199886,0.83,-0.39,9.94,-0.03,-0.01,0.01,31.07
36021171,1746,1,185295,201442,0.79,-0.37,9.97,-0.04,-0.00,-0.00,31.07
36061191,1747,1,186560,206053,0.79,-0.41,9.95,-0.04,0.01,-0.01,31.07
36101171,1759,1,188394,212145,0.79,-0.39,9.97,-0.04,-0.01,-0.01,31.07
36141191,1700,1,190650,217978,0.79,-0.40,9.97,-0.04,-0.00,-0.01,31.07
36181188,1747,1,192277,222422,0.77,-0.39,10.00,-0.04,-0.01,-0.01,31.07
36221191,1733,1,193483,224923,0.78,-0.41,9.95,-0.04,-0.01,-0.00,31.07
36261191,1741,1,193940,225459,0.75,-0.41,9.97,-0.03,-0.02,-0.00,31.07
36301191,1761,1,193988,225229,0.81,-0.38,9.97,-0.03,-0.02,-0.00,31.07
36341191,1771,1,193980,224808,0.81,-0.40,9.97,-0.04,0.00,-0.01,31.07
36381171,1761,1,193241,219308,0.78,-0.42,10.00,-0.03,-0.01,-0.00,31.07
36421188,1782,1,190671,212486,0.79,-0.40,9.99,-0.03,-0.01,-0.00,31.07
36461191,1770,1,188345,205970,0.78,-0.41,9.96,-0.03,-0.00,-0.01,31.07
36501191,1808,1,186888,203178,0.76,-0.40,9.99,-0.03,-0.00,-0.01,31.07
36541191,1799,1,186075,200862,0.75,-0.41,10.01,-0.03,-0.00,-0.00,31.07
36581188,1778,1,185568,199807,0.78,-0.41,9.95,-0.03,-0.02,-0.00,31.07
36621191,1776,1,185696,200365,0.80,-0.41,9.99,-0.04,-0.01,-0.00,31.07
36661187,1740,1,186315,202532,0.78,-0.43,9.97,-0.04,-0.01,-0.00,31.07
36701878,1739,1,187458,206198,0.79,-0.40,9.98,-0.04,-0.01,-0.00,31.25
36740188,1703,1,189324,213206,0.78,-0.39,9.98,-0.04,-0.02,-0.00,31.25
36780218,1718,1,191966,219041,0.77,-0.41,9.99,-0.04,-0.01,-0.00,31.25
36820191,1709,1,193516,223526,0.78,-0.41,9.94,-0.04,-0.00,-0.01,31.25
36860191,1671,1,194676,227159,0.79,-0.43,9.95,-0.03,-0.01,-0.01,31.25
36900191,1728,1,195413,229107,0.77,-0.39,9.96,-0.03,0.02,-0.01,31.25
36940171,1714,1,195178,226009,0.67,-0.45,10.23,-0.04,-0.01,-0.00,31.25
36980197,1682,1,192955,220083,0.80,-0.43,9.86,-0.02,-0.01,-0.00,31.25
37020191,1716,1,191600,218346,0.74,-0.37,10.10,-0.03,-0.01,-0.00,31.25
37060191,1712,1,191526,219105,0.77,-0.41,9.97,-0.03,-0.02,-0.00,31.25
37100191,1722,1,191848,219903,0.74,-0.39,10.05,-0.04,-0.03,-0.00,31.25
37140188,1702,1,192226,221672,0.79,-0.41,9.96,-0.03,-0.02,-0.00,31.25
37180191,1721,1,192908,223622,0.80,-0.41,9.98,-0.03,-0.01,-0.00,31.25
37220188,1761,1,193529,225561,0.80,-0.38,9.93,-0.03,0.00,-0.01,31.25
37260171,1813,1,193761,224741,0.74,-0.38,10.01,-0.03,-0.00,-0.00,31.25
37300191,1842,1,192977,223017,0.81,-0.39,9.94,-0.03,-0.02,-0.00,31.25
37340191,1906,1,192984,225666,0.80,-0.38,9.93,-0.03,0.00,-0.00,31.25
37380169,1920,1,194676,230656,0.75,-0.35,9.97,-0.05,0.02,-0.01,31.25
37420171,1970,1,195888,232164,0.69,-0.37,10.09,-0.05,-0.00,-0.01,31.25
37460191,1961,1,195724,232807,0.76,-0.40,9.96,-0.05,-0.04,-0.00,31.25
37500191,1988,1,195905,233165,0.81,-0.42,9.92,-0.05,-0.03,-0.00,31.25
37540189,1999,1,195617,232248,0.82,-0.42,9.94,-0.05,0.00,-0.01,31.25
37580171,1991,1,195440,232206,0.70,-0.41,10.01,-0.04,0.00,-0.01,31.25
37620169,2014,1,195239,231585,0.72,-0.41,10.01,-0.02,-0.02,-0.00,31.25
37660192,1995,1,194962,230213,0.79,-0.40,9.94,-0.02,-0.03,-0.00,31.25
37700188,2000,1,194570,228324,0.83,-0.41,9.92,-0.03,-0.01,-0.00,31.25
37740878,2014,1,194208,226091,0.79,-0.42,9.97,-0.03,0.01,-0.00,31.11
37781171,2001,1,193578,223218,0.75,-0.39,10.00,-0.03,-0.00,-0.01,31.11
37821191,2005,1,192779,219252,0.72,-0.41,10.04,-0.02,-0.02,-0.00,31.11
37861188,2010,1,191262,212459,0.83,-0.39,9.97,-0.01,-0.03,0.01,31.11
37901171,2031,1,189187,208816,0.80,-0.41,10.00,-0.02,-0.01,0.01,31.11
37941169,2009,1,189209,212017,0.78,-0.37,9.93,-0.04,-0.01,-0.00,31.11
37981191,1990,1,190796,216962,0.76,-0.37,9.96,-0.04,-0.01,-0.00,31.11
38021191,1966,1,192177,220696,0.79,-0.39,10.00,-0.04,-0.01,-0.00,31.11
38061191,1901,1,193187,222005,0.79,-0.40,9.98,-0.04,-0.02,-0.00,31.11
38101188,1878,1,192581,220587,0.77,-0.39,9.97,-0.04,-0.02,-0.00,31.11
38141191,1855,1,192245,220334,0.79,-0.39,9.96,-0.03,-0.02,-0.00,31.11
38181188,1827,1,192237,220042,0.79,-0.40,9.97,-0.03,-0.03,-0.00,31.11
38221191,1854,1,192147,220091,0.81,-0.38,9.95,-0.03,-0.01,-0.00,31.11
38261189,1702,1,192476,221542,0.78,-0.37,9.97,-0.04,0.00,-0.01,31.11
38301171,1802,1,193111,223111,0.81,-0.38,9.97,-0.04,-0.01,-0.01,31.11
38341191,1793,1,193480,223248,0.78,-0.38,10.01,-0.04,-0.01,-0.00,31.11
38381191,1733,1,193451,222596,0.79,-0.40,9.99,-0.03,-0.02,-0.00,31.11
38420220,1776,1,193412,222431,0.81,-0.36,9.92,-0.03,-0.01,-0.00,31.11
38460191,1742,1,193608,223207,0.81,-0.40,9.99,-0.04,-0.00,-0.01,31.11
38500188,1723,1,194042,225421,0.80,-0.42,9.92,-0.04,-0.01,-0.01,31.11
38540191,1705,1,195026,229053,0.77,-0.40,9.95,-0.05,-0.01,-0.01,31.11
38580188,1728,1,196012,232659,0.82,-0.40,9.93,-0.05,-0.01,-0.01,31.11
38620209,1711,1,196637,233910,0.80,-0.40,9.96,-0.06,0.01,-0.01,31.11
38660169,1697,1,196286,232660,0.75,-0.41,10.00,-0.05,-0.01,-0.01,31.11
38700192,1721,1,195447,231142,0.76,-0.41,9.97,-0.02,-0.04,-0.00,31.11
38740875,1695,1,195384,231136,0.80,-0.40,9.93,-0.03,-0.01,-0.00,31.19
38781191,1673,1,195123,228795,0.78,-0.44,10.00,-0.02,-0.01,-0.00,31.19
38821210,1639,1,194030,225136,0.82,-0.43,9.95,-0.00,-0.02,0.00,31.19
38861171,1639,1,193237,223388,0.81,-0.36,9.96,-0.02,-0.04,0.02,31.19
38901171,1597,1,193214,224211,0.82,-0.36,9.94,-0.04,-0.01,-0.00,31.19
38941191,1613,1,193829,226022,0.81,-0.42,10.00,-0.05,-0.01,-0.01,31.19
38981188,1535,1,194650,227844,0.81,-0.43,9.98,-0.06,-0.03,-0.01,31.19
39021191,1581,1,195333,229130,0.79,-0.40,10.00,-0.04,-0.04,-0.00,31.19
39061188,1566,1,195947,230210,0.83,-0.42,9.95,-0.03,-0.03,-0.00,31.19
39101191,1563,1,196344,230879,0.86,-0.42,9.92,-0.03,-0.02,-0.00,31.19
39141191,1583,1,196548,231858,0.85,-0.41,9.93,-0.03,0.00,-0.01,31.19
39181171,1576,1,196380,229527,0.86,-0.39,9.93,-0.04,0.03,-0.01,31.19
39221171,1589,1,194837,226582,0.79,-0.41,9.99,-0.04,0.02,-0.01,31.19
39261171,1591,1,194269,226001,0.78,-0.43,10.01,-0.04,-0.01,-0.01,31.19
39301191,1619,1,194404,225932,0.82,-0.43,9.96,-0.03,-0.03,-0.00,31.19
39341191,1679,1,194714,226470,0.85,-0.42,9.94,-0.03,-0.03,-0.00,31.19
39381192,1696,1,195163,228009,0.83,-0.42,9.98,-0.03,-0.01,-0.00,31.19
39421191,1711,1,195523,228902,0.84,-0.42,9.95,-0.03,-0.00,-0.00,31.19
39460188,1717,1,195513,228733,0.82,-0.40,9.99,-0.03,-0.00,-0.01,31.19
39500191,1808,1,195435,229383,0.82,-0.38,9.98,-0.03,-0.01,-0.00,31.19
39540191,1846,1,195750,230342,0.80,-0.41,10.02,-0.04,-0.01,-0.00,31.19
39580191,1867,1,196161,231914,0.83,-0.42,9.97,-0.04,-0.02,-0.00,31.19
39620188,1907,1,196716,233617,0.84,-0.40,9.98,-0.04,-0.01,-0.01,31.19
39660191,1938,1,197086,234621,0.84,-0.40,9.99,-0.03,-0.01,-0.00,31.19
39700188,1984,1,197180,234701,0.81,-0.41,9.97,-0.03,-0.01,-0.00,31.19
39740191,2038,1,196527,231039,0.85,-0.40,10.00,-0.03,-0.01,-0.00,31.19
39780874,2047,1,195461,230572,0.84,-0.42,9.96,-0.04,0.00,-0.00,31.29
39821171,2127,1,195681,232363,0.82,-0.41,10.00,-0.04,0.01,-0.01,31.29
39861169,2123,1,196108,233550,0.79,-0.42,9.99,-0.04,-0.01,-0.01,31.29
39901191,2096,1,196339,234055,0.82,-0.40,9.94,-0.04,-0.02,-0.00,31.29
39941188,2144,1,196552,234411,0.83,-0.42,9.94,-0.03,-0.02,-0.00,31.29
39981192,2172,1,196630,234690,0.83,-0.42,9.94,-0.03,-0.01,-0.00,31.29
40021188,2156,1,196658,234770,0.82,-0.41,9.98,-0.03,-0.01,-0.00,31.29
40059200,2083,1,196657,234711,0.84,-0.42,9.97,-0.03,-0.00,-0.00,31.29
40099191,2047,1,196583,234204,0.82,-0.41,9.99,-0.03,-0.01,-0.00,31.29
40139191,2064,1,196539,233750,0.83,-0.40,9.99,-0.03,-0.01,-0.00,31.29
40179188,2030,1,196507,233734,0.83,-0.41,9.96,-0.03,-0.01,-0.00,31.29
40219192,1936,1,196760,234311,0.83,-0.40,9.98,-0.04,-0.02,-0.00,31.29
40259208,1914,1,196734,232361,0.84,-0.44,9.97,-0.04,-0.02,-0.00,31.29
40299191,1904,1,195350,228902,0.83,-0.43,9.97,-0.03,-0.01,-0.00,31.29
40339191,1831,1,194878,229059,0.84,-0.41,9.96,-0.03,-0.01,-0.00,31.29
40379191,1797,1,195214,230428,0.84,-0.42,9.95,-0.03,-0.01,-0.00,31.29
40419191,1742,1,195661,231653,0.82,-0.41,10.00,-0.03,-0.00,-0.00,31.29
40459191,1717,1,195996,233109,0.83,-0.40,9.97,-0.04,-0.01,-0.00,31.29
40500188,1714,1,196461,234040,0.85,-0.42,9.97,-0.04,-0.01,-0.01,31.29
40540191,1670,1,196581,234176,0.82,-0.42,9.98,-0.04,-0.02,-0.00,31.29
40580191,1632,1,196576,234064,0.83,-0.45,9.97,-0.03,-0.02,-0.00,31.29
40620191,1584,1,196555,233725,0.84,-0.40,9.98,-0.03,-0.02,-0.00,31.29
40660188,1584,1,196543,233472,0.83,-0.41,9.98,-0.03,-0.03,-0.00,31.29
40700191,1533,1,196539,233274,0.85,-0.43,9.97,-0.03,-0.01,-0.00,31.29
40740191,1527,1,196539,233091,0.85,-0.40,9.97,-0.03,-0.01,-0.00,31.29
40780878,1518,1,196616,232216,0.84,-0.38,9.98,-0.03,-0.01,-0.00,31.29
40819192,1493,1,195400,226678,0.83,-0.40,9.96,-0.03,-0.01,-0.00,31.29
40859191,1451,1,194062,224624,0.85,-0.42,9.95,-0.03,-0.02,-0.00,31.29
40899191,1525,1,193908,224289,0.85,-0.41,9.95,-0.03,-0.01,-0.00,31.29
40939192,1498,1,193971,224321,0.84,-0.40,9.99,-0.03,-0.01,-0.00,31.29
40979188,1506,1,194105,224671,0.84,-0.40,9.96,-0.03,-0.01,-0.00,31.29
41019192,1475,1,194424,224963,0.84,-0.40,10.00,-0.03,-0.01,-0.00,31.29
41059187,1571,1,194687,225272,0.85,-0.41,9.97,-0.03,-0.01,-0.00,31.29
41099191,1581,1,194835,225508,0.85,-0.40,9.96,-0.04,-0.00,-0.01,31.29
41139188,1584,1,195060,225272,0.83,-0.41,9.96,-0.03,-0.01,-0.00,31.29
41179191,1650,1,195140,224999,0.85,-0.40,9.93,-0.04,-0.01,-0.01,31.29
41219191,1674,1,195097,224800,0.84,-0.42,9.96,-0.04,-0.01,-0.01,31.29
41259191,1658,1,195105,225437,0.85,-0.41,9.95,-0.04,-0.00,-0.00,31.29
41299188,1716,1,195595,227673,0.83,-0.40,10.00,-0.04,-0.01,-0.00,31.29
41339191,1712,1,195798,225868,0.83,-0.41,9.98,-0.04,-0.02,-0.00,31.29
41379191,1747,1,194696,224581,0.85,-0.42,9.95,-0.04,-0.01,-0.00,31.29
41419191,1791,1,194537,225297,0.82,-0.41,9.96,-0.03,-0.01,-0.00,31.29
41459191,1811,1,194975,226517,0.88,-0.41,9.95,-0.04,-0.01,-0.00,31.29
41500191,1793,1,195362,227656,0.85,-0.41,9.94,-0.04,0.00,-0.01,31.29
41540169,1794,1,195699,228355,0.85,-0.44,10.00,-0.03,-0.00,-0.01,31.29
41580191,1815,1,195860,228676,0.85,-0.41,9.96,-0.04,0.00,-0.01,31.29
41620169,1841,1,195976,228895,0.82,-0.41,9.96,-0.04,-0.01,-0.01,31.29
41660192,1845,1,196081,229236,0.82,-0.43,9.93,-0.04,-0.00,-0.01,31.29
41700191,1824,1,196298,230338,0.83,-0.43,9.97,-0.04,-0.01,-0.01,31.29
41740191,1852,1,196763,231863,0.81,-0.41,9.97,-0.04,-0.00,-0.01,31.29
41780874,1854,1,197083,233030,0.82,-0.43,9.97,-0.04,-0.01,-0.01,31.21
41819191,1796,1,197253,233417,0.80,-0.41,9.97,-0.04,-0.01,-0.00,31.21
41859189,1842,1,196962,229622,0.83,-0.40,9.96,-0.03,-0.01,-0.00,31.21
41899207,1842,1,195181,225888,0.84,-0.42,9.97,-0.04,-0.01,-0.00,31.21
41939192,1815,1,194685,225177,0.81,-0.42,9.96,-0.03,-0.02,-0.00,31.21
41979191,1857,1,194856,225498,0.82,-0.40,9.96,-0.03,-0.01,-0.00,31.21
42019188,1840,1,195063,226104,0.83,-0.43,9.96,-0.04,-0.00,-0.01,31.21
42059191,1825,1,195319,226933,0.82,-0.43,9.97,-0.03,-0.00,-0.00,31.21
42099192,1840,1,195533,227419,0.82,-0.44,9.95,-0.03,-0.01,-0.00,31.21
42139191,1823,1,195525,227527,0.82,-0.42,9.97,-0.03,-0.01,-0.00,31.21
42179192,1808,1,195499,227700,0.81,-0.41,9.98,-0.03,-0.01,-0.00,31.21
42219191,1827,1,195597,228287,0.83,-0.43,9.96,-0.03,-0.01,-0.00,31.21
42259191,1766,1,195891,229355,0.83,-0.42,9.95,-0.03,-0.01,-0.00,31.21
42299191,1777,1,196187,230118,0.81,-0.40,9.95,-0.03,-0.01,-0.00,31.21
42339188,1808,1,196398,230734,0.81,-0.42,9.96,-0.03,-0.01,-0.00,31.21
42379191,1791,1,196355,228675,0.83,-0.41,9.98,-0.03,-0.01,-0.00,31.21
42419191,1792,1,194977,225332,0.85,-0.43,9.98,-0.03,-0.01,-0.00,31.21
42459191,1743,1,194407,224793,0.82,-0.42,9.96,-0.03,-0.01,-0.00,31.21
42499192,1765,1,194567,225489,0.81,-0.43,9.97,-0.03,-0.02,-0.00,31.21
42540191,1792,1,194875,226133,0.82,-0.45,9.97,-0.03,-0.01,-0.00,31.21
42580191,1808,1,195144,226883,0.84,-0.41,9.96,-0.03,-0.01,-0.00,31.21
42620191,1786,1,195386,227185,0.81,-0.44,9.98,-0.03,-0.01,-0.01,31.21
42660191,1786,1,195517,227279,0.83,-0.42,9.94,-0.03,-0.02,-0.00,31.21
42700191,1759,1,195605,227433,0.85,-0.42,9.99,-0.03,-0.01,-0.00,31.21
42740191,1773,1,195698,227789,0.83,-0.41,9.97,-0.03,-0.01,-0.00,31.21
42780878,1808,1,195857,228323,0.83,-0.42,9.98,-0.03,-0.01,-0.00,31.19
42819192,1799,1,196010,228746,0.83,-0.42,9.98,-0.03,-0.01,-0.00,31.19
42859191,1822,1,196164,229192,0.82,-0.42,9.97,-0.03,-0.01,-0.00,31.19
42899191,1826,1,196323,228041,0.82,-0.41,9.96,-0.03,-0.01,-0.00,31.19
42939192,1811,1,195304,225080,0.83,-0.43,9.93,-0.04,-0.01,-0.00,31.19
42979191,1829,1,194667,224537,0.83,-0.41,9.96,-0.03,-0.01,-0.00,31.19
43019191,1802,1,194756,225004,0.84,-0.42,9.97,-0.03,-0.01,-0.00,31.19
43059191,1799,1,195017,225518,0.84,-0.41,9.98,-0.03,-0.01,-0.00,31.19
43099191,1810,1,195296,226490,0.84,-0.41,9.94,-0.03,-0.01,-0.00,31.19
43139192,1790,1,195650,227080,0.83,-0.42,9.97,-0.03,-0.01,-0.00,31.19
43179191,1799,1,195790,227148,0.81,-0.41,9.97,-0.03,-0.01,-0.00,31.19
43219191,1782,1,195866,227683,0.83,-0.41,9.96,-0.03,-0.01,-0.00,31.19
43259191,1815,1,196168,228649,0.83,-0.41,9.98,-0.04,-0.01,-0.01,31.19
43299191,1815,1,196516,230127,0.81,-0.42,9.96,-0.04,-0.01,-0.01,31.19
43339192,1795,1,196941,231326,0.83,-0.41,9.97,-0.03,-0.01,-0.00,31.19
43379191,1789,1,197281,232287,0.81,-0.43,9.98,-0.03,-0.01,-0.00,31.19
43419191,1771,1,197473,231494,0.82,-0.43,9.97,-0.03,-0.01,-0.00,31.19
43459191,1812,1,196188,226832,0.83,-0.42,9.94,-0.03,-0.01,-0.00,31.19
43499191,1830,1,195140,225502,0.82,-0.41,9.96,-0.03,-0.01,-0.00,31.19
43540228,1824,1,195270,226141,0.84,-0.43,9.99,-0.03,-0.02,-0.01,31.19
43580192,1826,1,195590,227519,0.85,-0.42,9.95,-0.04,-0.01,-0.00,31.19
43620191,1823,1,196125,229452,0.84,-0.42,9.99,-0.04,-0.01,-0.00,31.19
43660191,1810,1,196796,230895,0.83,-0.42,9.98,-0.04,-0.01,-0.00,31.19
43700191,1781,1,197165,231373,0.85,-0.44,9.98,-0.03,-0.02,-0.00,31.19
43740197,1818,1,197387,232349,0.83,-0.42,9.96,-0.04,-0.01,-0.00,31.19
43780878,1850,1,197654,233221,0.83,-0.44,9.96,-0.04,-0.00,-0.00,30.99
43819191,1833,1,197778,233901,0.85,-0.43,9.98,-0.03,-0.00,-0.00,30.99
43859189,1850,1,197945,234087,0.83,-0.43,9.97,-0.03,-0.01,-0.01,30.99
43899191,1865,1,197989,233771,0.85,-0.44,9.95,-0.03,-0.01,-0.00,30.99
43939191,1847,1,197879,232504,0.84,-0.43,9.97,-0.03,-0.01,-0.00,30.99
43979191,1831,1,196520,227117,0.81,-0.43,9.97,-0.03,-0.01,-0.00,30.99
44019191,1804,1,195115,225160,0.84,-0.42,9.97,-0.03,-0.01,-0.00,30.99
44059191,1832,1,194892,224837,0.84,-0.40,9.99,-0.03,-0.01,-0.00,30.99
44099188,1826,1,194910,224999,0.84,-0.41,9.99,-0.03,-0.01,-0.00,30.99
44139192,1810,1,195029,226209,0.84,-0.41,9.96,-0.04,-0.01,-0.00,30.99
44179191,1786,1,195492,228129,0.82,-0.41,9.96,-0.04,0.00,-0.00,30.99
44219171,1804,1,195924,229725,0.82,-0.41,9.99,-0.04,-0.01,-0.01,30.99
44259191,1825,1,196201,230779,0.85,-0.44,9.96,-0.04,-0.01,-0.00,30.99
44299191,1786,1,196453,231575,0.82,-0.42,9.96,-0.03,-0.01,-0.00,30.99
44339191,1805,1,196594,232293,0.83,-0.41,9.98,-0.03,-0.01,-0.00,30.99
44379191,1808,1,196707,232459,0.83,-0.45,9.96,-0.04,-0.00,-0.00,30.99
44419188,1843,1,196734,232112,0.84,-0.43,9.97,-0.03,-0.02,-0.00,30.99
44459191,1808,1,196743,232027,0.83,-0.40,9.95,-0.04,-0.01,-0.00,30.99
44499188,1781,1,196154,228240,0.84,-0.42,9.96,-0.04,-0.01,-0.01,30.99
44539192,1795,1,194776,226520,0.80,-0.42,10.05,-0.04,-0.00,-0.01,30.99
44579188,1790,1,194666,226927,0.81,-0.44,9.96,-0.03,-0.01,-0.00,30.99
44619192,1795,1,194948,227986,0.84,-0.43,9.98,-0.03,-0.02,-0.00,30.99
44659191,1776,1,195336,229407,0.83,-0.41,9.94,-0.03,-0.01,-0.00,30.99
44699192,1790,1,195836,230763,0.81,-0.44,9.97,-0.03,-0.01,-0.00,30.99
44739191,1795,1,196067,231573,0.82,-0.44,9.98,-0.03,-0.01,-0.00,30.99
44779191,1799,1,196183,232229,0.81,-0.42,9.98,-0.03,-0.01,-0.00,30.99
44819878,1829,1,196360,232862,0.82,-0.43,9.98,-0.04,-0.01,-0.00,31.01
44860191,1824,1,196457,233296,0.84,-0.42,9.96,-0.03,-0.01,-0.00,31.01
44900191,1825,1,196622,233692,0.83,-0.44,9.99,-0.04,-0.01,-0.01,31.01
44940192,1879,1,196668,233614,0.83,-0.44,9.95,-0.03,-0.01,-0.00,31.01
44980191,1906,1,196630,233113,0.82,-0.43,9.95,-0.03,-0.01,-0.00,31.01
45020192,1965,1,196250,229017,0.82,-0.43,9.95,-0.04,-0.01,-0.00,31.01
45060191,1990,1,194692,225381,0.84,-0.45,9.98,-0.04,-0.02,-0.01,31.01
45100191,2055,1,194497,224885,0.85,-0.41,9.93,-0.03,-0.02,-0.00,31.01
45138188,2116,1,194634,225270,0.84,-0.44,9.94,-0.03,-0.01,-0.00,31.01
45178245,2167,1,194833,226310,0.84,-0.44,9.96,-0.03,-0.01,-0.00,31.01
45218191,2218,1,195246,227995,0.84,-0.46,9.93,-0.03,-0.01,-0.00,31.01
45258192,2199,1,195502,228020,0.85,-0.41,9.96,-0.03,-0.01,-0.00,31.01
45298192,2308,1,195465,227451,0.84,-0.42,9.95,-0.03,-0.02,-0.00,31.01
45338192,2322,1,195390,226987,0.84,-0.44,9.99,-0.03,-0.01,-0.00,31.01
45378239,2353,1,195259,227190,0.84,-0.43,9.99,-0.03,-0.01,-0.00,31.01
45418191,2384,1,195497,228203,0.84,-0.42,9.98,-0.03,-0.01,-0.00,31.01
45458188,2362,1,195850,229824,0.83,-0.43,9.94,-0.03,-0.01,-0.00,31.01
45498191,2342,1,196447,231319,0.84,-0.42,9.95,-0.03,-0.01,-0.00,31.01
45538192,2301,1,196705,229510,0.84,-0.41,9.96,-0.04,-0.01,-0.00,31.01
45578192,2274,1,195592,226691,0.86,-0.42,9.96,-0.05,-0.02,-0.00,31.01
45618191,2241,1,195269,226869,0.84,-0.44,9.90,-0.04,-0.02,-0.01,31.01
45658192,2182,1,195555,228383,0.86,-0.44,9.96,-0.03,-0.00,-0.00,31.01
45698188,2124,1,196003,230091,0.83,-0.43,9.97,-0.03,-0.01,-0.00,31.01
45738191,2054,1,196581,232006,0.84,-0.44,10.00,-0.03,-0.02,-0.00,31.01
45778191,1977,1,197060,233162,0.87,-0.44,9.94,-0.03,-0.01,-0.00,31.01
45818192,1934,1,197244,233602,0.85,-0.43,9.93,-0.03,0.00,-0.00,31.01
45858855,1846,1,197267,233451,0.85,-0.44,9.99,-0.03,-0.01,-0.00,30.85
45899192,1749,1,197157,232335,0.83,-0.42,9.97,-0.03,-0.01,-0.00,30.85
45939191,1722,1,196913,231410,0.85,-0.41,9.95,-0.03,-0.03,-0.00,30.85
45979191,1655,1,196844,230817,0.87,-0.42,9.97,-0.03,-0.02,-0.00,30.85
46019191,1589,1,196894,229992,0.86,-0.41,9.95,-0.03,-0.03,-0.00,30.85
46059192,1531,1,196649,227461,0.86,-0.42,9.92,-0.03,-0.02,-0.00,30.85
46099189,1509,1,195479,224803,0.86,-0.40,9.96,-0.03,-0.01,-0.00,30.85
46139191,1487,1,195011,224572,0.87,-0.42,9.98,-0.04,-0.01,-0.00,30.85
46179191,1488,1,195072,225583,0.85,-0.42,9.96,-0.03,-0.01,-0.01,30.85
46219191,1484,1,195527,228312,0.89,-0.41,9.92,-0.03,0.00,-0.00,30.85
46259169,1449,1,196478,232399,0.85,-0.39,9.95,-0.04,0.02,-0.01,30.85
46299171,1459,1,197034,233729,0.83,-0.44,10.01,-0.04,0.01,-0.01,30.85
46339171,1475,1,196995,233103,0.83,-0.43,10.01,-0.03,-0.02,-0.00,30.85
46379191,1459,1,196630,231379,0.82,-0.41,9.99,-0.03,-0.03,-0.00,30.85
46419191,1435,1,196040,229817,0.86,-0.41,9.95,-0.03,-0.03,-0.00,30.85
46459192,1467,1,195768,229528,0.86,-0.41,9.98,-0.03,-0.01,-0.00,30.85
46499192,1472,1,195847,230344,0.88,-0.42,9.97,-0.03,-0.01,-0.00,30.85
46539191,1439,1,196246,231656,0.86,-0.41,9.98,-0.04,-0.01,-0.00,30.85
46579191,1469,1,196370,229989,0.85,-0.43,9.96,-0.03,-0.02,-0.00,30.85
46619191,1456,1,195041,226857,0.86,-0.41,9.96,-0.04,-0.03,-0.00,30.85
46659191,1433,1,194663,227376,0.89,-0.43,9.93,-0.03,-0.02,-0.00,30.85
46699192,1482,1,195104,229220,0.86,-0.41,9.96,-0.04,0.00,-0.01,30.85
46739169,1483,1,195557,229976,0.85,-0.42,9.98,-0.03,-0.01,-0.00,30.85
46779192,1491,1,195779,230256,0.86,-0.42,9.96,-0.03,-0.01,-0.00,30.85
46819192,1535,1,195870,229714,0.87,-0.43,9.97,-0.03,-0.01,-0.00,30.85
46859878,1584,1,195685,228754,0.85,-0.41,9.97,-0.03,-0.02,-0.00,30.97
46898188,1639,1,195485,227752,0.87,-0.43,9.96,-0.03,-0.03,-0.00,30.97
46938192,1646,1,195257,226955,0.87,-0.39,9.98,-0.03,-0.02,-0.00,30.97
46978189,1664,1,195163,226788,0.91,-0.41,9.93,-0.03,-0.01,-0.00,30.97
47018233,1693,1,195170,226890,0.89,-0.43,9.97,-0.03,-0.00,-0.01,30.97
47058191,1735,1,195187,227214,0.89,-0.41,9.93,-0.03,-0.00,-0.00,30.97
47098192,1744,1,195108,225637,0.86,-0.41,9.96,-0.04,0.01,-0.01,30.97
47138172,1744,1,193978,223334,0.85,-0.40,9.98,-0.04,-0.00,-0.00,30.97
47178191,1779,1,193661,223147,0.84,-0.41,9.99,-0.04,-0.01,-0.00,30.97
47218208,1791,1,193777,223409,0.84,-0.40,9.96,-0.03,-0.02,-0.00,30.97
47258192,1810,1,193923,223598,0.86,-0.39,9.97,-0.03,-0.01,-0.00,30.97
47298191,1789,1,194101,223972,0.87,-0.41,9.92,-0.04,-0.01,-0.00,30.97
47338191,1826,1,194175,223816,0.86,-0.41,9.96,-0.03,-0.00,-0.00,30.97
47378192,1814,1,194141,223356,0.85,-0.40,9.96,-0.03,-0.01,-0.00,30.97
47418191,1840,1,194084,222793,0.86,-0.40,9.99,-0.03,-0.01,-0.00,30.97
47458192,1829,1,194003,222351,0.87,-0.41,9.96,-0.03,-0.01,-0.00,30.97
47498191,1825,1,193933,222308,0.85,-0.41,9.98,-0.03,-0.01,-0.00,30.97
47538192,1836,1,194021,223029,0.88,-0.39,9.94,-0.04,0.00,-0.00,30.97
47578171,1827,1,194362,224187,0.85,-0.38,9.97,-0.04,0.00,-0.00,30.97
47618169,1814,1,194431,222673,0.84,-0.40,9.99,-0.04,-0.01,-0.00,30.97
47658191,1823,1,193319,219878,0.86,-0.41,9.99,-0.03,-0.01,-0.00,30.97
47698191,1817,1,192445,217966,0.84,-0.40,9.96,-0.03,-0.02,-0.00,30.97
47738192,1798,1,191999,217090,0.85,-0.41,9.93,-0.03,-0.01,-0.00,30.97
47778191,1680,1,191778,216272,0.85,-0.40,9.95,-0.03,-0.00,-0.01,30.97
47818192,1749,1,191456,214536,0.91,-0.39,9.90,-0.03,-0.00,-0.00,30.97
47858189,1561,1,190565,211745,0.85,-0.38,9.94,-0.03,-0.02,-0.00,30.97
47898877,1389,1,189862,210072,0.85,-0.42,9.97,-0.03,-0.01,-0.00,31.13
47939191,1353,1,189642,210568,0.85,-0.41,9.98,-0.03,-0.02,-0.00,31.13
47979192,1311,1,190493,214950,0.89,-0.40,9.91,-0.04,0.00,-0.01,31.13
48019169,1191,1,192016,218615,0.86,-0.41,9.92,-0.05,0.02,-0.01,31.13
48059171,1157,1,192489,219630,0.85,-0.39,9.99,-0.04,0.01,-0.00,31.13
48099171,1254,1,192538,219909,0.83,-0.39,9.97,-0.03,-0.01,-0.00,31.13
48139191,1342,1,192199,217728,0.77,-0.47,9.97,-0.03,-0.02,-0.01,31.13
48179191,1297,1,191097,215702,0.81,-0.42,10.02,-0.03,-0.01,-0.00,31.13
48219191,1392,1,190704,215508,0.86,-0.40,9.96,-0.04,-0.02,-0.00,31.13
48259188,1621,1,190869,216236,0.86,-0.41,9.93,-0.04,-0.01,-0.00,31.13
48299191,1809,1,191215,216896,0.83,-0.40,9.99,-0.03,-0.04,-0.00,31.13
48339188,1941,1,191691,218088,0.85,-0.42,9.97,-0.03,-0.02,-0.00,31.13
48379191,2127,1,192183,218690,0.86,-0.39,10.00,-0.04,-0.02,-0.00,31.13
48419188,2159,1,192467,218659,0.86,-0.41,9.98,-0.03,-0.05,-0.00,31.13
48459192,2181,1,192685,218742,0.90,-0.38,9.93,-0.03,-0.03,0.01,31.13
48499169,2224,1,192972,220512,0.88,-0.43,9.97,-0.03,-0.02,0.01,31.13
48539171,2224,1,193901,224022,0.92,-0.39,9.84,-0.04,-0.03,0.00,31.13
48579169,2218,1,194823,226602,0.87,-0.42,10.00,-0.04,0.02,-0.00,31.13
48619171,2176,1,195210,227805,0.85,-0.40,9.97,-0.04,0.01,-0.00,31.13
48659216,2135,1,194705,225476,0.88,-0.42,9.89,-0.06,-0.00,-0.01,31.13
48699191,2107,1,193592,224567,0.81,-0.44,10.06,-0.05,0.01,-0.01,31.13
48739171,2047,1,193409,224694,0.84,-0.42,9.98,-0.04,-0.02,-0.00,31.13
48779191,1996,1,193775,225341,0.87,-0.43,10.00,-0.03,-0.04,-0.00,31.13
48819188,1966,1,194984,226855,0.90,-0.43,9.93,-0.04,-0.08,-0.00,31.13
48859229,1917,1,196307,228857,0.92,-0.42,9.95,-0.04,-0.05,-0.00,31.13
48899878,1856,1,197207,229867,0.94,-0.45,9.95,-0.05,-0.04,-0.00,31.19
48938192,1808,1,197631,230382,0.94,-0.44,9.96,-0.04,-0.01,-0.00,31.19
48978191,1776,1,197863,231107,0.92,-0.43,9.94,-0.04,0.01,-0.01,31.19
49018171,1774,1,197968,231317,0.95,-0.47,9.93,-0.03,0.00,-0.01,31.19
49058169,1759,1,197966,231329,0.94,-0.44,9.95,-0.03,0.00,-0.01,31.19
49098171,1717,1,197873,231335,0.90,-0.42,9.99,-0.03,-0.01,-0.00,31.19
49138188,1737,1,197718,230974,0.87,-0.43,9.98,-0.03,-0.00,-0.00,31.19
49178191,1722,1,196589,227346,0.87,-0.43,10.07,-0.03,0.03,-0.01,31.19
49218171,1707,1,195415,225771,0.91,-0.45,9.93,-0.03,-0.00,-0.01,31.19
49258192,1737,1,195078,225538,0.90,-0.45,9.95,-0.03,0.01,-0.00,31.19
49298169,1712,1,194955,225106,0.87,-0.43,9.99,-0.03,0.01,-0.00,31.19
49338171,1745,1,194952,225004,0.88,-0.44,9.99,-0.03,-0.01,-0.00,31.19
49378192,1716,1,195549,225983,0.91,-0.44,9.92,-0.03,-0.04,-0.00,31.19
49418191,1746,1,195986,224776,0.92,-0.42,9.95,-0.03,-0.02,-0.00,31.19
49458192,1703,1,195757,224138,0.91,-0.43,10.02,-0.03,-0.02,-0.00,31.19
49498191,1677,1,195859,224197,0.91,-0.42,9.96,-0.03,-0.01,-0.00,31.19
49538191,1648,1,196121,225200,0.88,-0.44,9.99,-0.03,-0.01,-0.00,31.19
49578191,1616,1,196825,226618,0.87,-0.42,10.03,-0.04,-0.03,-0.00,31.19
49618189,1647,1,197472,228239,0.92,-0.42,9.93,-0.04,-0.00,-0.00,31.19
49658192,1649,1,197903,228816,0.88,-0.44,9.98,-0.04,0.01,-0.01,31.19
49698171,1662,1,197149,225828,0.89,-0.45,9.94,-0.04,0.01,-0.01,31.19
49738171,1658,1,196307,224509,0.87,-0.41,9.99,-0.03,-0.00,-0.01,31.19
49778192,1671,1,196461,224745,0.91,-0.45,9.88,-0.03,-0.04,-0.00,31.19
49818192,1670,1,197039,225758,0.91,-0.45,9.97,-0.04,-0.01,-0.01,31.19
49858191,1699,1,197776,227285,0.91,-0.45,9.98,-0.04,-0.02,-0.01,31.19
49898192,1699,1,198427,229356,0.93,-0.44,9.89,-0.05,0.00,-0.01,31.19
49938855,1742,1,199016,231720,0.85,-0.46,10.00,-0.06,0.01,-0.02,31.01
49979171,1713,1,199553,233329,0.87,-0.45,9.99,-0.06,-0.01,-0.02,31.01
50019192,1776,1,199794,233806,0.91,-0.48,9.97,-0.05,-0.02,-0.01,31.01
50059191,1777,1,200049,234004,0.87,-0.48,10.01,-0.04,-0.03,-0.01,31.01
50099191,1761,1,200298,234067,0.88,-0.47,9.96,-0.03,-0.03,-0.00,31.01
50139191,1805,1,200386,234662,0.92,-0.45,9.96,-0.03,-0.00,-0.00,31.01
50179188,1837,1,200383,233399,0.91,-0.47,9.99,-0.04,-0.00,-0.00,31.01
50219192,1872,1,198913,228960,0.90,-0.46,9.95,-0.04,-0.01,-0.01,31.01
50259191,1902,1,197996,227647,0.88,-0.46,9.95,-0.03,-0.02,-0.01,31.01
50299199,1951,1,197813,227804,0.94,-0.45,9.93,-0.03,-0.00,-0.01,31.01
50339191,2000,1,197940,228347,0.92,-0.46,9.96,-0.03,-0.00,-0.00,31.01
50379191,2058,1,198147,229458,0.87,-0.47,9.95,-0.03,-0.00,-0.01,31.01
50419188,2126,1,198414,230135,0.87,-0.46,9.95,-0.03,-0.01,-0.00,31.01
50459192,2183,1,198534,230123,0.88,-0.46,9.98,-0.03,-0.02,-0.00,31.01
50499204,2194,1,198574,229916,0.91,-0.45,9.94,-0.03,-0.02,-0.00,31.01
50539192,2237,1,198581,230280,0.88,-0.46,9.97,-0.03,-0.01,-0.00,31.01
50577192,2318,1,198826,231448,0.88,-0.46,9.97,-0.04,-0.01,-0.01,31.01
50617191,2352,1,199157,232553,0.90,-0.47,9.96,-0.03,-0.01,-0.01,31.01
50657192,2410,1,199445,233519,0.89,-0.46,9.98,-0.04,-0.01,-0.00,31.01
50697192,2417,1,199405,231552,0.88,-0.48,9.94,-0.03,-0.01,-0.00,31.01
50737192,2414,1,197889,227862,0.89,-0.43,9.94,-0.03,-0.01,-0.00,31.01
50777192,2459,1,197196,227325,0.90,-0.46,9.96,-0.03,-0.01,-0.00,31.01
50817188,2499,1,197209,228002,0.91,-0.47,9.95,-0.03,-0.01,-0.00,31.01
50857192,2467,1,197422,228992,0.90,-0.46,9.96,-0.03,-0.01,-0.00,31.01
50897188,2485,1,197796,229709,0.87,-0.47,9.96,-0.03,-0.01,-0.01,31.01
50937191,2485,1,197884,229420,0.89,-0.48,9.96,-0.03,-0.01,-0.00,31.01
50977878,2451,1,197740,228268,0.91,-0.45,9.99,-0.02,-0.02,-0.00,30.87
51018191,2453,1,197378,228243,0.91,-0.46,9.93,-0.02,-0.02,-0.00,30.87
51058188,2401,1,197625,229893,0.89,-0.44,9.96,-0.03,-0.01,-0.00,30.87
51098191,2403,1,198119,231450,0.89,-0.40,9.96,-0.03,-0.02,-0.00,30.87
51138189,2317,1,198745,233020,0.90,-0.45,9.98,-0.03,-0.03,-0.00,30.87
51178192,2320,1,199356,234326,0.92,-0.44,9.96,-0.04,-0.02,-0.00,30.87
51218192,2271,1,199619,232835,0.92,-0.44,9.94,-0.03,-0.01,-0.00,30.87
51258192,2233,1,198110,229330,0.91,-0.45,9.94,-0.03,0.00,-0.00,30.87
51298169,2131,1,197173,229038,0.89,-0.45,9.98,-0.03,0.00,-0.00,30.87
51338171,2093,1,197202,230537,0.91,-0.43,9.93,-0.04,0.01,-0.00,30.87
51378171,1994,1,197466,231446,0.90,-0.42,9.98,-0.03,-0.01,-0.00,30.87
51418191,1897,1,197743,232140,0.90,-0.44,9.96,-0.03,-0.02,-0.00,30.87
51458188,1808,1,197928,231685,0.90,-0.43,9.96,-0.03,-0.02,-0.00,30.87
51498192,1755,1,197754,230440,0.90,-0.44,9.97,-0.02,-0.02,-0.00,30.87
51537189,1663,1,197466,229797,0.92,-0.42,9.92,-0.03,-0.00,-0.00,30.87
51577192,1637,1,197321,230137,0.89,-0.43,9.98,-0.04,0.01,-0.00,30.87
51617171,1563,1,197456,230781,0.88,-0.43,9.97,-0.04,-0.00,-0.00,30.87
51657191,1477,1,197733,231096,0.92,-0.42,9.95,-0.03,-0.02,-0.00,30.87
51697191,1460,1,197849,231161,0.89,-0.44,9.96,-0.03,-0.03,-0.00,30.87
51737191,1411,1,197841,229696,0.90,-0.44,9.95,-0.03,-0.01,-0.01,30.87
51777191,1350,1,196723,227429,0.93,-0.40,9.96,-0.04,0.00,-0.01,30.87
51817172,1302,1,196218,227551,0.89,-0.42,10.01,-0.04,0.01,-0.01,30.87
51857172,1287,1,196270,228219,0.88,-0.44,9.97,-0.04,-0.00,-0.00,30.87
51897191,1264,1,196345,228363,0.88,-0.42,9.95,-0.03,-0.01,-0.00,30.87
51937191,1293,1,196498,229107,0.90,-0.42,9.96,-0.03,-0.01,-0.00,30.87
51977879,1271,1,196660,229874,0.91,-0.45,9.95,-0.03,0.00,-0.01,31.19
52018171,1296,1,196668,230321,0.84,-0.43,9.98,-0.03,0.00,-0.01,31.19
52058170,1320,1,196699,230558,0.90,-0.40,9.97,-0.03,-0.01,-0.00,31.19
52098188,1352,1,196825,231343,0.91,-0.44,9.94,-0.03,-0.01,-0.00,31.19
52138204,1360,1,197157,232659,0.86,-0.45,9.98,-0.03,-0.01,-0.00,31.19
52178191,1417,1,197466,233924,0.89,-0.45,9.97,-0.03,-0.00,-0.00,31.19
52218192,1421,1,197607,234681,0.87,-0.41,9.96,-0.04,-0.00,-0.00,31.19
52258188,1459,1,197391,232506,0.87,-0.45,9.96,-0.04,-0.01,-0.00,31.19
52298191,1460,1,195942,229749,0.87,-0.46,9.95,-0.04,-0.01,-0.00,31.19
52338211,1479,1,195527,230308,0.88,-0.44,9.94,-0.03,-0.01,-0.01,31.19
52378191,1535,1,195912,231861,0.87,-0.41,9.97,-0.04,-0.01,-0.00,31.19
52418191,1578,1,196250,233060,0.87,-0.45,9.97,-0.03,-0.01,-0.00,31.19
52458191,1585,1,196633,234210,0.86,-0.45,9.96,-0.03,-0.00,-0.00,31.19
52498188,1599,1,196795,234485,0.89,-0.44,9.94,-0.03,-0.01,-0.00,31.19
52538191,1653,1,196768,234358,0.84,-0.43,9.96,-0.03,-0.02,-0.00,31.19
52577191,1691,1,196808,234034,0.86,-0.45,9.98,-0.03,-0.03,-0.00,31.19
52617191,1665,1,196870,233585,0.90,-0.44,9.97,-0.03,-0.03,-0.00,31.19
52657188,1745,1,197085,233150,0.92,-0.43,9.92,-0.03,-0.01,-0.00,31.19
52697191,1799,1,197197,233029,0.88,-0.43,9.95,-0.03,-0.01,-0.00,31.19
52737192,1811,1,197439,233831,0.91,-0.42,9.93,-0.04,-0.01,-0.00,31.19
52777191,1831,1,197487,231982,0.89,-0.43,9.98,-0.04,0.00,-0.01,31.19
52817169,1839,1,196048,228247,0.88,-0.45,9.98,-0.03,-0.02,-0.00,31.19
52857192,1840,1,195581,227728,0.90,-0.42,9.96,-0.03,-0.03,-0.00,31.19
52897188,1842,1,195917,228230,0.92,-0.41,9.93,-0.03,-0.02,-0.00,31.19
52937192,1845,1,196300,229259,0.93,-0.47,9.97,-0.04,-0.01,-0.00,31.19
52977877,1821,1,196947,230793,0.89,-0.44,9.97,-0.04,-0.01,-0.00,31.05
53018192,1794,1,197388,231620,0.89,-0.44,9.96,-0.04,-0.00,-0.01,31.05
53058191,1744,1,197686,232234,0.91,-0.42,9.99,-0.04,-0.01,-0.01,31.05
53098191,1731,1,197924,232594,0.88,-0.45,9.94,-0.04,-0.01,-0.01,31.05
53138191,1719,1,198178,233101,0.89,-0.43,9.96,-0.04,-0.02,-0.00,31.05
53178191,1726,1,198576,233835,0.90,-0.43,9.95,-0.04,-0.01,-0.00,31.05
53218188,1709,1,198821,234661,0.88,-0.44,9.97,-0.03,-0.01,-0.00,31.05
53258191,1673,1,199159,235308,0.90,-0.45,9.96,-0.03,-0.01,-0.00,31.05
53298188,1696,1,199360,234184,0.90,-0.44,9.98,-0.03,-0.02,-0.00,31.05
53338192,1666,1,198203,229762,0.89,-0.44,9.93,-0.04,-0.02,-0.00,31.05
53378191,1659,1,197238,228424,0.91,-0.44,9.95,-0.03,-0.01,-0.00,31.05
53418191,1675,1,197275,228788,0.91,-0.45,9.97,-0.03,-0.01,-0.00,31.05
53458191,1659,1,197527,229556,0.91,-0.45,9.96,-0.04,-0.01,-0.00,31.05
53498191,1659,1,197837,230673,0.90,-0.45,9.96,-0.03,-0.01,-0.00,31.05
53538189,1645,1,198154,231355,0.88,-0.42,9.96,-0.03,-0.00,-0.00,31.05
53577194,1687,1,198153,231400,0.90,-0.43,9.98,-0.03,-0.01,-0.00,31.05
53617188,1682,1,198082,231665,0.89,-0.44,9.96,-0.03,-0.01,-0.00,31.05
53657191,1705,1,198209,231733,0.90,-0.44,9.99,-0.03,-0.01,-0.00,31.05
53697188,1725,1,198282,231643,0.90,-0.42,9.99,-0.03,-0.02,-0.00,31.05
53737192,1683,1,198326,231352,0.91,-0.42,9.95,-0.03,-0.01,-0.00,31.05
53777217,1677,1,198308,231295,0.91,-0.43,9.91,-0.03,-0.01,-0.00,31.05
53817191,1691,1,198363,231824,0.90,-0.44,9.95,-0.03,-0.01,-0.01,31.05
53857192,1710,1,198253,229702,0.91,-0.43,9.98,-0.03,-0.00,-0.01,31.05
53897192,1660,1,197073,227373,0.91,-0.43,9.97,-0.04,-0.01,-0.00,31.05
53937191,1677,1,196728,227436,0.89,-0.43,9.95,-0.04,-0.01,-0.01,31.05
53977207,1685,1,196995,228779,0.91,-0.42,9.96,-0.04,-0.01,-0.01,31.05
54017878,1666,1,197522,230443,0.91,-0.42,9.98,-0.04,-0.00,-0.01,30.97
54058192,1699,1,198099,231671,0.93,-0.44,9.99,-0.04,-0.01,-0.00,30.97
54098192,1693,1,198356,231661,0.92,-0.45,9.94,-0.03,-0.01,-0.00,30.97
54138192,1703,1,198353,231447,0.88,-0.43,9.96,-0.03,-0.02,-0.00,30.97
54178192,1710,1,198483,232118,0.91,-0.42,9.98,-0.04,-0.01,-0.00,30.97
54218191,1711,1,198851,233195,0.91,-0.42,9.95,-0.04,-0.01,-0.01,30.97
54258192,1713,1,199275,234432,0.90,-0.43,9.96,-0.04,-0.01,-0.00,30.97
54298192,1711,1,199609,234833,0.89,-0.46,9.96,-0.03,-0.01,-0.00,30.97
54338192,1735,1,199688,235126,0.89,-0.45,9.96,-0.03,-0.01,-0.00,30.97
54378191,1723,1,199824,234297,0.90,-0.42,9.95,-0.04,-0.00,-0.01,30.97
54418189,1731,1,198538,231106,0.93,-0.45,9.96,-0.04,-0.01,-0.00,30.97
54458192,1741,1,197977,230992,0.92,-0.41,9.98,-0.04,-0.01,-0.00,30.97
54498191,1776,1,198233,231801,0.89,-0.43,9.93,-0.03,-0.01,-0.00,30.97
54538191,1795,1,198520,232190,0.89,-0.45,9.98,-0.03,-0.01,-0.00,30.97
54578191,1827,1,198630,232809,0.91,-0.44,9.94,-0.03,-0.02,-0.00,30.97
54617192,1825,1,198980,233977,0.94,-0.45,9.91,-0.03,-0.00,-0.00,30.97
54657191,1823,1,199218,234779,0.91,-0.41,10.00,-0.04,0.00,-0.00,30.97
54697171,1812,1,199399,235262,0.89,-0.44,9.97,-0.04,-0.01,-0.00,30.97
54737191,1831,1,199582,235710,0.91,-0.43,9.97,-0.04,-0.02,-0.00,30.97
54777191,1855,1,199824,235855,0.91,-0.44,9.95,-0.03,-0.02,-0.00,30.97
54817191,1875,1,199803,236010,0.89,-0.46,9.95,-0.03,-0.01,-0.00,30.97
54857191,1856,1,199810,236640,0.90,-0.45,9.94,-0.03,-0.00,-0.00,30.97
54897187,1893,1,199915,237234,0.94,-0.43,9.94,-0.04,0.00,-0.01,30.97
54937171,1930,1,199670,233905,0.89,-0.44,9.98,-0.04,-0.01,-0.00,30.97
54977192,1873,1,198132,230833,0.91,-0.42,9.98,-0.04,-0.02,-0.00,30.97
55017191,1939,1,197839,230918,0.91,-0.45,9.97,-0.03,-0.01,-0.00,30.97
55057878,1872,1,197973,231654,0.88,-0.46,9.97,-0.03,-0.01,-0.00,30.79
55098191,1873,1,198205,233003,0.90,-0.45,9.96,-0.03,-0.00,-0.00,30.79
55138187,1851,1,198709,234703,0.91,-0.42,10.00,-0.04,-0.00,-0.00,30.79
55178191,1843,1,199188,235494,0.89,-0.44,9.97,-0.04,-0.01,-0.01,30.79
55218192,1846,1,199467,235790,0.89,-0.43,9.96,-0.04,-0.02,-0.00,30.79
55258191,1821,1,199646,235587,0.89,-0.45,9.96,-0.03,-0.02,-0.00,30.79
55298191,1831,1,199709,235978,0.92,-0.45,9.90,-0.03,-0.02,-0.00,30.79
55338191,1798,1,199924,237028,0.91,-0.45,9.96,-0.04,-0.00,-0.00,30.79
55378188,1804,1,200153,237800,0.89,-0.44,9.97,-0.04,-0.00,-0.01,30.79
55418191,1803,1,200355,237948,0.89,-0.44,9.98,-0.04,-0.01,-0.00,30.79
55458192,1787,1,200531,237798,0.91,-0.43,9.95,-0.04,-0.01,-0.00,30.79
55498191,1779,1,199880,233574,0.89,-0.46,9.98,-0.04,-0.01,-0.00,30.79
55538191,1759,1,198403,231454,0.94,-0.46,9.95,-0.04,-0.01,-0.01,30.79
55576191,1754,1,198385,232060,0.93,-0.43,9.97,-0.04,-0.02,-0.00,30.79
55616191,1713,1,198844,233124,0.91,-0.45,9.96,-0.04,-0.01,-0.00,30.79
55656191,1744,1,199242,233462,0.90,-0.47,9.98,-0.03,-0.01,-0.00,30.79
55696189,1762,1,199511,233589,0.90,-0.46,9.97,-0.03,-0.02,-0.00,30.79
55736191,1729,1,199716,233508,0.93,-0.44,9.94,-0.03,-0.01,-0.00,30.79
55776192,1680,1,199900,233646,0.94,-0.44,9.95,-0.04,-0.02,-0.00,30.79
55816191,1686,1,200116,234264,0.94,-0.45,9.94,-0.04,-0.01,-0.01,30.79
55856191,1725,1,200512,234551,0.94,-0.43,9.99,-0.04,-0.01,-0.00,30.79
55896191,1654,1,200661,234329,0.91,-0.45,9.97,-0.03,-0.02,-0.00,30.79
55936191,1687,1,200699,234820,0.92,-0.48,9.91,-0.03,-0.00,-0.00,30.79
55976191,1685,1,200967,236398,0.94,-0.43,9.97,-0.04,0.01,-0.00,30.79
56016169,1693,1,201410,237013,0.91,-0.44,9.96,-0.04,0.01,-0.01,30.79
56056171,1690,1,200433,233035,0.92,-0.45,9.95,-0.04,-0.01,-0.01,30.79
56096926,1680,1,199351,231761,0.90,-0.47,9.97,-0.04,-0.01,-0.01,30.87
56137192,1691,1,199337,232075,0.89,-0.45,9.98,-0.03,-0.02,-0.00,30.87
56177191,1699,1,199568,232712,0.90,-0.43,9.95,-0.03,-0.02,-0.00,30.87
56217192,1718,1,199922,234299,0.91,-0.44,9.97,-0.03,-0.01,-0.01,30.87
56257191,1674,1,200494,235501,0.92,-0.45,10.01,-0.04,-0.01,-0.01,30.87
56297191,1705,1,200761,235783,0.91,-0.43,9.98,-0.04,-0.02,-0.00,30.87
56337191,1708,1,200896,236309,0.90,-0.45,9.96,-0.04,-0.02,-0.00,30.87
56377191,1744,1,201125,236654,0.91,-0.45,9.96,-0.04,-0.01,-0.01,30.87
56417191,1708,1,201117,236445,0.91,-0.45,9.95,-0.03,-0.01,-0.00,30.87
56457192,1712,1,201073,236607,0.91,-0.46,9.98,-0.03,-0.01,-0.00,30.87
56497192,1712,1,201154,237153,0.91,-0.43,9.95,-0.03,-0.00,-0.00,30.87
56537191,1718,1,201367,237267,0.94,-0.43,9.97,-0.03,-0.01,-0.00,30.87
56577191,1696,1,201106,233883,0.94,-0.44,9.95,-0.04,-0.02,-0.00,30.87
56617191,1698,1,199628,230682,0.90,-0.47,9.96,-0.03,-0.02,-0.00,30.87
56657187,1733,1,199156,230377,0.91,-0.45,9.90,-0.03,-0.02,-0.00,30.87
56697191,1728,1,199273,231644,0.90,-0.45,9.93,-0.03,-0.01,-0.01,30.87
56737192,1723,1,199690,234112,0.94,-0.45,9.96,-0.04,-0.00,-0.00,30.87
56777191,1751,1,200439,236685,0.91,-0.46,9.94,-0.04,0.00,-0.00,30.87
56817169,1744,1,200647,237159,0.90,-0.45,9.98,-0.04,0.00,-0.01,30.87
56857171,1744,1,200457,236159,0.90,-0.46,10.02,-0.03,-0.02,-0.00,30.87
56897189,1744,1,200018,235055,0.91,-0.47,9.97,-0.02,-0.01,-0.00,30.87
56937191,1749,1,199691,235613,0.91,-0.46,9.94,-0.03,0.00,-0.00,30.87
56977169,1738,1,199539,236229,0.89,-0.44,9.94,-0.04,0.03,-0.01,30.87
57017171,1734,1,198913,235768,0.89,-0.46,9.98,-0.03,0.01,-0.01,30.87
57057185,1756,1,198256,235257,0.88,-0.44,9.96,-0.03,-0.00,-0.00,30.87
57097878,1758,1,197787,234224,0.90,-0.45,9.96,-0.03,-0.01,-0.00,30.77
57136189,1746,1,196460,229983,0.89,-0.45,9.96,-0.03,0.00,-0.00,30.77
57176171,1743,1,195184,227831,0.84,-0.45,9.97,-0.03,-0.01,-0.00,30.77
57216192,1722,1,194849,227168,0.86,-0.44,9.95,-0.03,-0.02,-0.00,30.77
57256229,1757,1,194832,226828,0.91,-0.41,9.94,-0.02,-0.02,-0.00,30.77
57296191,1726,1,194850,228198,0.90,-0.43,10.02,-0.03,-0.01,-0.00,30.77
57336191,1719,1,195536,230808,0.91,-0.44,9.91,-0.03,0.01,-0.01,30.77
57376171,1739,1,195993,231744,0.85,-0.43,10.02,-0.03,0.00,-0.00,30.77
57416171,1706,1,195987,231273,0.86,-0.42,9.97,-0.03,-0.00,-0.00,30.77
57456188,1747,1,195745,229977,0.87,-0.44,9.96,-0.03,-0.01,-0.01,30.77
57496191,1728,1,195283,228122,0.85,-0.44,9.96,-0.02,-0.00,-0.00,30.77
57536188,1770,1,194853,226362,0.82,-0.39,10.01,-0.02,-0.02,0.00,30.77
57576171,1776,1,194686,226304,0.88,-0.38,9.97,-0.02,-0.04,0.02,30.77
57616172,1759,1,195327,228262,0.94,-0.43,9.90,-0.04,-0.01,-0.00,30.77
57656191,1741,1,195594,226888,0.90,-0.43,9.98,-0.04,0.01,-0.01,30.77
57696172,1764,1,194607,224937,0.85,-0.40,9.97,-0.04,-0.00,-0.01,30.77
57736191,1761,1,194282,224486,0.87,-0.42,9.98,-0.03,-0.01,-0.00,30.77
57776191,1795,1,194442,224721,0.90,-0.41,9.96,-0.03,-0.01,-0.00,30.77
57816191,1758,1,194798,225225,0.86,-0.42,10.01,-0.03,-0.03,-0.00,30.77
57856188,1750,1,195520,226608,0.90,-0.40,9.90,-0.03,-0.05,-0.00,30.77
57896191,1735,1,196182,227548,0.90,-0.40,9.97,-0.03,-0.01,-0.00,30.77
57936187,1706,1,196629,228862,0.90,-0.42,9.93,-0.04,-0.02,-0.00,30.77
57976191,1754,1,197114,230464,0.93,-0.42,9.95,-0.04,0.01,-0.01,30.77
58016171,1779,1,197541,231536,0.88,-0.42,10.01,-0.04,-0.01,-0.00,30.77
58056191,1759,1,197981,232171,0.88,-0.41,10.01,-0.04,-0.02,-0.00,30.77
58096188,1764,1,198406,232791,0.91,-0.42,9.96,-0.04,-0.04,-0.00,30.77
58136878,1774,1,199116,234035,0.93,-0.43,9.95,-0.04,-0.03,-0.00,30.85
58177192,1779,1,199667,233634,0.92,-0.41,9.96,-0.04,-0.02,-0.00,30.85
58217191,1783,1,199005,231045,0.92,-0.42,9.96,-0.04,-0.01,-0.00,30.85
58257191,1769,1,198786,231265,0.92,-0.44,9.99,-0.04,-0.02,-0.00,30.85
58297191,1771,1,199519,232392,0.94,-0.43,9.97,-0.04,-0.05,-0.00,30.85
58337188,1775,1,200280,233161,0.94,-0.40,9.98,-0.03,-0.07,-0.00,30.85
58377191,1781,1,201161,234493,0.97,-0.42,9.96,-0.03,-0.09,0.00,30.85
58417169,1767,1,201967,235832,1.03,-0.42,9.94,-0.03,-0.05,-0.00,30.85
58457191,1785,1,202495,236820,1.07,-0.44,9.82,-0.03,-0.00,-0.00,30.85
58497188,1772,1,202654,237320,0.98,-0.42,10.05,-0.04,0.01,-0.00,30.85
58537171,1793,1,202676,237837,0.97,-0.42,9.99,-0.04,0.03,-0.01,30.85
58577171,1776,1,202428,238353,1.00,-0.42,9.96,-0.04,0.03,-0.01,30.85
58617171,1790,1,202282,238839,0.97,-0.45,9.98,-0.04,0.03,-0.01,30.85
58657171,1802,1,202232,239283,0.92,-0.42,10.01,-0.04,0.02,-0.01,30.85
58697174,1780,1,202213,238422,0.91,-0.42,9.99,-0.03,0.00,-0.01,30.85
58737169,1765,1,200901,234393,0.96,-0.43,9.96,-0.03,-0.01,-0.00,30.85
58777191,1782,1,199924,233385,0.96,-0.44,9.94,-0.03,-0.01,-0.00,30.85
58817191,1780,1,199842,233476,0.94,-0.43,9.98,-0.03,-0.02,-0.00,30.85
58857191,1782,1,199986,233759,0.96,-0.43,9.93,-0.03,-0.03,-0.00,30.85
58897209,1783,1,200241,234861,0.97,-0.44,9.96,-0.03,-0.02,-0.00,30.85
58937191,1805,1,200706,236588,0.98,-0.44,9.97,-0.04,0.00,-0.01,30.85
58977169,1808,1,201127,237783,0.95,-0.44,9.95,-0.04,0.00,-0.00,30.85
59017171,1789,1,201292,238290,0.94,-0.43,9.97,-0.04,-0.01,-0.01,30.85
59057191,1803,1,201357,238672,0.94,-0.45,9.98,-0.04,-0.02,-0.00,30.85
59097212,1797,1,201499,239087,0.96,-0.44,9.95,-0.04,-0.02,-0.00,30.85
59137878,1810,1,201603,239274,0.93,-0.43,9.98,-0.03,-0.02,-0.00,30.87
59176191,1802,1,201710,239423,0.96,-0.45,9.97,-0.03,-0.02,-0.00,30.87
59216188,1803,1,201781,238163,0.96,-0.44,9.96,-0.03,-0.02,-0.00,30.87
59256191,1799,1,200633,233835,0.96,-0.45,9.94,-0.03,-0.03,-0.00,30.87
59296191,1808,1,199856,232830,0.97,-0.45,9.97,-0.03,-0.01,-0.01,30.87
59336192,1797,1,200033,233833,0.96,-0.42,9.97,-0.03,-0.01,-0.00,30.87
59376192,1811,1,200726,235742,0.99,-0.45,9.89,-0.04,-0.03,-0.00,30.87
59416191,1817,1,201484,237908,1.00,-0.45,9.96,-0.04,-0.02,-0.00,30.87
59456188,1808,1,202210,239277,0.98,-0.45,9.95,-0.04,-0.02,-0.00,30.87
59496192,1826,1,202594,239818,0.99,-0.44,9.97,-0.04,-0.01,-0.01,30.87
59536191,1807,1,202831,240134,0.97,-0.46,9.95,-0.04,-0.02,-0.00,30.87
59576191,1809,1,203024,240619,0.99,-0.45,9.97,-0.04,-0.02,-0.01,30.87
59616192,1815,1,203309,241317,0.99,-0.45,9.95,-0.04,-0.01,-0.00,30.87
59656191,1798,1,203581,241725,0.98,-0.48,9.98,-0.04,-0.01,-0.01,30.87
59696191,1799,1,203861,242020,0.99,-0.47,9.98,-0.04,-0.02,-0.00,30.87
59736191,1792,1,204081,242207,1.01,-0.47,9.91,-0.04,-0.01,-0.00,30.87
59776191,1792,1,203682,239275,0.99,-0.45,9.97,-0.04,0.01,-0.01,30.87
59816171,1771,1,202694,237382,0.97,-0.48,9.98,-0.04,-0.02,-0.01,30.87
59856192,1783,1,202777,237983,1.00,-0.47,9.96,-0.04,-0.02,-0.00,30.87
59896191,1787,1,203238,239308,1.01,-0.47,9.94,-0.04,-0.01,-0.00,30.87
59936192,1764,1,203709,241014,1.02,-0.45,9.92,-0.04,-0.00,-0.00,30.87
59976191,1765,1,204046,242057,0.97,-0.47,9.95,-0.04,0.02,-0.01,30.87
60016171,1776,1,203941,242248,0.98,-0.46,9.95,-0.04,0.01,-0.01,30.87
60056171,1747,1,203709,242163,0.99,-0.48,9.95,-0.03,0.00,-0.01,30.87
60096169,1767,1,203387,242091,0.96,-0.50,9.96,-0.04,0.01,-0.01,30.87
60136170,1764,1,203162,242117,0.94,-0.47,9.97,-0.03,0.00,-0.01,30.87
60176855,1805,1,203127,242231,0.92,-0.45,9.95,-0.03,-0.01,-0.00,31.01
60215191,1783,1,203205,242383,0.96,-0.49,9.97,-0.03,-0.01,-0.00,31.01
60255192,1778,1,203312,242486,0.95,-0.47,9.99,-0.03,-0.01,-0.01,31.01
60295192,1776,1,203262,241021,0.94,-0.49,9.96,-0.03,-0.01,-0.00,31.01
60335207,1765,1,202192,238407,0.97,-0.49,9.93,-0.03,-0.01,-0.00,31.01
60375192,1797,1,201621,238548,0.96,-0.46,9.98,-0.03,0.00,-0.01,31.01
60415169,1792,1,201552,239254,0.93,-0.48,9.95,-0.03,0.01,-0.00,31.01
60455171,1808,1,201412,239455,0.95,-0.48,9.96,-0.03,0.00,-0.00,31.01
60495169,1768,1,201106,239595,0.93,-0.45,9.97,-0.03,0.01,-0.00,31.01
60535191,1795,1,200835,239497,0.92,-0.47,9.96,-0.03,-0.00,-0.01,31.01
60575188,1762,1,200661,239320,0.92,-0.45,9.97,-0.03,-0.01,-0.01,31.01
60615192,1846,1,200635,239265,0.91,-0.48,9.99,-0.03,-0.02,-0.00,31.01
60655191,1794,1,200736,239447,0.93,-0.46,9.97,-0.03,-0.02,-0.00,31.01
60695191,1823,1,200974,239497,0.93,-0.46,9.95,-0.03,-0.03,-0.00,31.01
60735217,1845,1,201306,239786,0.94,-0.46,9.94,-0.03,-0.02,-0.01,31.01
60775192,1837,1,201873,240383,0.94,-0.47,9.96,-0.04,-0.03,-0.00,31.01
60815191,1869,1,202448,240092,0.96,-0.46,9.93,-0.04,-0.02,-0.00,31.01
60855192,1872,1,202049,237400,0.95,-0.47,9.96,-0.04,-0.02,-0.01,31.01
60895192,1911,1,201879,236964,0.96,-0.49,9.96,-0.04,-0.01,-0.01,31.01
60935192,1941,1,202396,237956,0.95,-0.46,9.94,-0.04,-0.01,-0.01,31.01
60975192,1999,1,202881,238745,0.97,-0.47,9.93,-0.03,-0.01,-0.00,31.01
61015191,1958,1,203142,239523,0.96,-0.47,9.94,-0.03,-0.00,-0.00,31.01
61055188,2063,1,203161,240075,0.97,-0.45,9.94,-0.03,0.01,-0.00,31.01
61095171,2125,1,202874,239815,0.93,-0.47,9.94,-0.03,0.02,-0.01,31.01
61135171,2102,1,202135,239281,0.96,-0.45,9.96,-0.02,0.00,-0.00,31.01
61175171,2115,1,201554,238875,0.94,-0.46,9.95,-0.02,0.01,-0.00,31.01
61215857,2190,1,201240,238417,0.93,-0.46,9.95,-0.03,-0.00,-0.00,30.99
61256192,2219,1,201050,238263,0.92,-0.45,9.97,-0.03,-0.01,-0.00,30.99
61296192,2266,1,200932,238092,0.94,-0.44,9.97,-0.03,-0.00,-0.00,30.99
61336192,2268,1,200780,237267,0.90,-0.46,9.96,-0.03,-0.01,-0.00,30.99
61376188,2286,1,199601,232865,0.91,-0.45,9.94,-0.03,-0.00,-0.00,30.99
61416191,2327,1,198355,231179,0.93,-0.44,9.96,-0.03,-0.00,-0.01,30.99
61456188,2338,1,198128,231238,0.91,-0.43,9.96,-0.03,-0.01,-0.00,30.99
61496191,2326,1,198186,231676,0.93,-0.46,9.98,-0.03,-0.01,-0.00,30.99
61536191,2302,1,198325,232336,0.92,-0.47,9.94,-0.03,-0.01,-0.00,30.99
61576191,2291,1,198500,232495,0.91,-0.45,9.96,-0.03,-0.01,-0.00,30.99
61616191,2187,1,198506,232159,0.91,-0.47,9.99,-0.03,-0.01,-0.00,30.99
61656191,2182,1,198470,231986,0.91,-0.44,9.96,-0.03,-0.01,-0.00,30.99
