timestamp_us,ecg,leads,ir,red,accX,accY,accZ,gyroX,gyroY,gyroZ,temp
1918488,1872,1,189058,220116,0.00,0.00,0.00,0.00,0.00,0.00,0.00
1948971,1856,1,189078,220187,0.13,0.13,9.71,-0.04,-0.01,-0.00,31.49
1989178,1883,1,189188,221113,0.12,0.14,10.01,-0.04,-0.02,-0.00,31.49
2029171,1887,1,189308,220583,0.12,0.15,9.95,-0.04,-0.02,-0.01,31.49
2069173,1887,1,188662,219400,0.16,0.09,10.01,-0.03,-0.02,-0.00,31.49
2109171,1899,1,188484,219114,0.18,0.11,9.95,-0.04,-0.01,-0.01,31.49
2149173,1897,1,187987,218186,0.16,0.11,9.97,-0.03,-0.00,-0.01,31.49
2189171,1904,1,187989,218818,0.13,0.13,9.95,-0.03,0.00,-0.01,31.49
2229165,1903,1,188239,220177,0.13,0.15,9.98,-0.03,-0.01,-0.00,31.49
2269171,1901,1,188656,221298,0.15,0.11,9.98,-0.03,0.00,-0.01,31.49
2309164,1915,1,189005,222525,0.16,0.12,9.96,-0.03,0.01,-0.00,31.49
2349160,1919,1,189347,223238,0.14,0.12,9.97,-0.03,-0.00,-0.00,31.49
2389175,1920,1,189497,223437,0.16,0.12,9.99,-0.03,-0.00,-0.01,31.49
2429171,1924,1,189266,221711,0.14,0.14,9.93,-0.03,-0.00,-0.01,31.49
2469173,1922,1,188467,220234,0.11,0.14,9.99,-0.04,-0.01,-0.01,31.49
2509171,1911,1,188097,219600,0.13,0.14,10.00,-0.04,-0.02,-0.01,31.49
2549173,1923,1,187955,219270,0.10,0.15,10.01,-0.04,-0.02,-0.01,31.49
2589171,1926,1,188139,221237,0.16,0.12,9.97,-0.04,-0.03,-0.01,31.49
2629173,1913,1,189373,224689,0.18,0.11,9.96,-0.04,-0.01,-0.01,31.49
2669171,1920,1,190238,226137,0.14,0.14,9.97,-0.04,-0.02,-0.01,31.49
2709173,1920,1,190569,226905,0.14,0.12,9.98,-0.04,-0.01,-0.01,31.49
2749171,1925,1,190797,227034,0.16,0.13,9.96,-0.03,-0.01,-0.01,31.49
2789173,1921,1,190732,226738,0.14,0.11,9.97,-0.03,-0.01,-0.00,31.49
2829171,1915,1,190709,226839,0.14,0.12,9.97,-0.03,-0.01,-0.00,31.49
2869174,1910,1,190725,226892,0.16,0.10,9.99,-0.03,-0.01,-0.00,31.49
2909171,1902,1,190804,227125,0.16,0.14,9.99,-0.03,-0.01,-0.01,31.49
2949173,1893,1,190937,227325,0.15,0.11,9.99,-0.03,-0.01,-0.00,31.49
2989857,1891,1,190949,227222,0.14,0.12,10.02,-0.03,-0.01,-0.00,31.71
3028177,1874,1,190766,226120,0.17,0.12,9.96,-0.03,-0.01,-0.00,31.71
3068171,1885,1,190318,225023,0.15,0.13,9.99,-0.03,-0.01,-0.00,31.71
3108173,1888,1,190191,224581,0.16,0.13,9.97,-0.03,-0.01,-0.01,31.71
3148171,1904,1,190042,224034,0.13,0.11,9.99,-0.03,-0.01,-0.01,31.71
3188178,1907,1,189798,223318,0.15,0.12,9.99,-0.03,-0.01,-0.01,31.71
3228171,1907,1,189549,222846,0.17,0.13,9.93,-0.03,-0.01,-0.01,31.71
3268173,1879,1,189559,222681,0.14,0.11,10.00,-0.03,-0.01,-0.01,31.71
3308171,1873,1,189406,221964,0.12,0.11,9.96,-0.03,-0.01,-0.00,31.71
3348173,1872,1,189187,221104,0.15,0.12,9.98,-0.03,-0.01,-0.00,31.71
3389171,1879,1,188921,220738,0.15,0.14,10.01,-0.03,-0.01,-0.00,31.71
3429173,1871,1,188957,221291,0.13,0.11,9.93,-0.03,-0.01,-0.00,31.71
3469171,1874,1,189135,221880,0.15,0.12,10.01,-0.04,-0.01,-0.00,31.71
3509173,1881,1,189310,222519,0.15,0.13,9.93,-0.03,-0.01,-0.01,31.71
3549171,1876,1,189425,222670,0.12,0.12,9.96,-0.03,-0.01,-0.00,31.71
3589173,1872,1,189412,222563,0.15,0.11,9.95,-0.03,-0.01,-0.01,31.71
3629171,1874,1,189484,223252,0.14,0.13,9.97,-0.03,-0.01,-0.01,31.71
3669173,1887,1,189558,222798,0.16,0.13,9.95,-0.03,-0.01,-0.01,31.71
3709171,1889,1,189045,221115,0.16,0.11,9.96,-0.03,-0.01,-0.01,31.71
3749173,1899,1,188372,218684,0.16,0.13,9.96,-0.03,-0.01,-0.00,31.71
3789171,1889,1,187666,216981,0.14,0.10,9.97,-0.03,-0.01,-0.00,31.71
3829173,1903,1,187302,216050,0.16,0.13,9.98,-0.03,-0.01,-0.00,31.71
3869171,1901,1,186980,215364,0.15,0.11,9.94,-0.03,-0.01,-0.00,31.71
3907173,1895,1,186948,216041,0.14,0.12,9.98,-0.03,-0.01,-0.00,31.71
3947171,1895,1,187211,216733,0.15,0.13,9.98,-0.03,-0.01,-0.00,31.71
3987173,1897,1,187287,216912,0.13,0.11,9.97,-0.03,-0.01,-0.01,31.71
4027900,1883,1,187408,217043,0.14,0.11,9.96,-0.03,-0.01,-0.01,31.55
4068173,1891,1,187252,216696,0.14,0.12,9.96,-0.03,-0.01,-0.00,31.55
4108171,1904,1,187152,216227,0.15,0.11,9.98,-0.03,-0.01,-0.00,31.55
4148173,1898,1,187046,216040,0.15,0.11,9.96,-0.03,-0.01,-0.01,31.55
4188171,1885,1,187077,216279,0.16,0.11,10.00,-0.03,-0.01,-0.01,31.55
4228173,1903,1,187195,216730,0.14,0.11,9.96,-0.03,-0.01,-0.00,31.55
4268171,1909,1,187434,217513,0.13,0.11,9.99,-0.03,-0.01,-0.01,31.55
4308173,1904,1,187626,218004,0.17,0.11,9.99,-0.03,-0.01,-0.00,31.55
4348171,1904,1,187722,217857,0.13,0.11,9.92,-0.03,-0.01,-0.01,31.55
4388174,1904,1,187218,215442,0.11,0.14,9.95,-0.03,-0.01,-0.00,31.55
4427176,1904,1,186163,212159,0.12,0.11,9.97,-0.03,-0.01,-0.00,31.55
4467174,1910,1,185766,212036,0.13,0.12,9.96,-0.03,-0.01,-0.01,31.55
4507171,1907,1,185881,212374,0.14,0.13,9.96,-0.03,-0.01,-0.01,31.55
4547173,1907,1,185891,212129,0.16,0.12,9.96,-0.03,-0.01,-0.00,31.55
4587171,1915,1,185768,211804,0.15,0.14,9.95,-0.03,-0.02,-0.00,31.55
4627173,1902,1,185780,211749,0.16,0.12,9.99,-0.03,-0.02,-0.00,31.55
4667171,1904,1,185738,211446,0.15,0.13,9.96,-0.03,-0.01,-0.00,31.55
4707173,1903,1,185668,211295,0.18,0.14,9.98,-0.03,-0.01,-0.00,31.55
4747171,1895,1,185690,211496,0.13,0.11,9.96,-0.03,-0.01,-0.01,31.55
4787173,1904,1,185817,212024,0.16,0.10,9.99,-0.03,-0.01,-0.01,31.55
4827171,1905,1,185972,212554,0.17,0.12,10.00,-0.03,-0.01,-0.01,31.55
4867173,1904,1,186085,213105,0.13,0.12,9.96,-0.03,-0.01,-0.00,31.55
4907171,1904,1,186190,213672,0.17,0.11,9.97,-0.03,-0.01,-0.00,31.55
4947173,1899,1,186462,214267,0.16,0.12,9.96,-0.03,-0.01,-0.01,31.55
4987171,1894,1,186653,215157,0.16,0.14,9.97,-0.03,-0.01,-0.01,31.55
5027190,1897,1,187007,215959,0.16,0.12,9.98,-0.03,-0.01,-0.01,31.55
5067860,1898,1,187041,215196,0.15,0.13,9.99,-0.03,-0.01,-0.01,31.29
5108173,1895,1,186280,211888,0.15,0.11,9.98,-0.03,-0.01,-0.01,31.29
5148171,1895,1,185412,210490,0.17,0.11,10.00,-0.03,-0.01,-0.00,31.29
5188173,1887,1,185405,210748,0.13,0.10,9.96,-0.04,-0.01,-0.01,31.29
5228181,1879,1,185453,210842,0.16,0.15,9.95,-0.03,-0.01,-0.01,31.29
5268173,1887,1,185469,211196,0.14,0.11,9.98,-0.03,-0.01,-0.00,31.29
5308171,1881,1,185759,212402,0.14,0.12,9.97,-0.03,-0.01,-0.01,31.29
5348173,1872,1,186070,212995,0.13,0.12,9.95,-0.03,-0.01,-0.00,31.29
5388171,1872,1,186149,213067,0.13,0.13,9.99,-0.03,-0.01,-0.00,31.29
5428173,1869,1,186118,213142,0.15,0.12,9.98,-0.04,-0.01,-0.01,31.29
5467171,1880,1,186151,213340,0.14,0.14,9.97,-0.03,-0.01,-0.01,31.29
5507173,1880,1,186250,213536,0.16,0.11,9.98,-0.03,-0.01,-0.00,31.29
5547171,1874,1,186240,213620,0.16,0.11,9.99,-0.03,-0.01,-0.01,31.29
5587173,1882,1,186358,214150,0.16,0.12,9.96,-0.04,-0.01,-0.01,31.29
5627171,1889,1,186560,214581,0.14,0.11,9.97,-0.03,-0.01,-0.01,31.29
5667173,1889,1,186707,215014,0.13,0.13,9.99,-0.03,-0.01,-0.01,31.29
5707183,1904,1,186964,215561,0.14,0.11,9.99,-0.03,-0.01,-0.01,31.29
5747173,1905,1,186764,213902,0.16,0.13,9.97,-0.03,-0.01,-0.00,31.29
5787171,1907,1,185739,210418,0.14,0.12,9.98,-0.03,-0.01,-0.00,31.29
5827173,1915,1,185252,209894,0.13,0.12,9.97,-0.03,-0.01,-0.00,31.29
5867171,1908,1,185314,210334,0.15,0.13,9.94,-0.03,-0.01,-0.00,31.29
5907174,1919,1,185489,210982,0.15,0.11,10.05,-0.03,-0.01,-0.00,31.29
5947171,1922,1,185589,211199,0.13,0.12,9.89,-0.03,-0.02,-0.00,31.29
5987173,1919,1,185605,211332,0.11,0.15,10.04,-0.03,-0.01,-0.00,31.29
6027173,1909,1,185569,210820,0.17,0.15,10.02,-0.03,-0.01,-0.00,31.29
6067173,1904,1,185247,209536,0.18,0.08,9.93,-0.03,-0.02,-0.00,31.29
6107857,1906,1,185175,210464,0.14,0.12,9.97,-0.03,-0.01,-0.00,31.21
6148173,1899,1,185658,211684,0.20,0.15,9.92,-0.03,-0.01,-0.01,31.21
6188171,1905,1,185881,212363,0.17,0.15,10.00,-0.04,-0.01,-0.01,31.21
6228173,1907,1,186289,213733,0.17,0.11,9.99,-0.03,-0.01,-0.01,31.21
6268171,1906,1,186646,214258,0.13,0.13,9.97,-0.03,-0.01,-0.01,31.21
6308173,1897,1,186835,214616,0.09,0.13,9.97,-0.03,-0.00,-0.00,31.21
6348171,1900,1,186849,214880,0.17,0.14,9.94,-0.04,-0.01,-0.00,31.21
6388174,1890,1,186966,215257,0.15,0.12,9.98,-0.04,-0.01,-0.01,31.21
6428171,1904,1,186882,214484,0.16,0.12,10.01,-0.04,-0.01,-0.00,31.21
6467173,1898,1,186174,211404,0.15,0.12,10.01,-0.04,-0.01,-0.01,31.21
6507171,1897,1,185259,210187,0.13,0.14,9.97,-0.04,-0.01,-0.01,31.21
6547173,1887,1,185551,210855,0.13,0.14,9.98,-0.03,-0.01,-0.01,31.21
6587171,1904,1,185595,211321,0.12,0.12,9.97,-0.03,-0.01,-0.01,31.21
6627173,1907,1,185838,211983,0.13,0.10,9.98,-0.03,-0.01,-0.00,31.21
6667211,1889,1,186022,212644,0.15,0.14,9.95,-0.03,-0.01,-0.00,31.21
6707173,1888,1,186100,212718,0.13,0.11,9.98,-0.03,-0.01,-0.00,31.21
6747171,1891,1,186172,212932,0.13,0.11,9.95,-0.03,-0.01,-0.00,31.21
6787173,1900,1,186313,213324,0.14,0.14,9.99,-0.03,-0.01,-0.00,31.21
6827171,1899,1,186486,214106,0.13,0.11,9.96,-0.03,-0.01,-0.01,31.21
6867213,1895,1,186672,214840,0.14,0.15,9.98,-0.03,-0.01,-0.00,31.21
6907171,1891,1,186889,215148,0.14,0.11,9.99,-0.03,-0.01,-0.01,31.21
6947173,1893,1,186810,214813,0.13,0.13,9.94,-0.03,-0.01,-0.01,31.21
6987171,1895,1,186752,215077,0.13,0.10,9.99,-0.04,-0.01,-0.00,31.21
7027175,1884,1,187137,216115,0.17,0.15,9.88,-0.03,-0.01,-0.00,31.21
7067171,1892,1,187294,216540,0.17,0.10,10.02,-0.03,-0.01,-0.01,31.21
7107174,1894,1,187445,216239,0.16,0.13,9.99,-0.04,-0.01,-0.01,31.21
7147857,1891,1,186892,213985,0.15,0.11,10.00,-0.03,-0.01,-0.01,31.05
7186173,1905,1,185997,210800,0.16,0.12,9.95,-0.03,-0.01,-0.01,31.05
7226171,1895,1,185628,211360,0.12,0.11,9.96,-0.03,-0.01,-0.01,31.05
7266173,1885,1,186043,212364,0.14,0.13,10.00,-0.04,-0.01,-0.00,31.05
7306171,1901,1,186178,212515,0.13,0.13,9.98,-0.03,-0.01,-0.00,31.05
7346173,1889,1,186223,212699,0.16,0.13,10.00,-0.03,-0.01,-0.00,31.05
7386171,1883,1,186296,212720,0.18,0.10,9.99,-0.03,-0.01,-0.01,31.05
7426173,1887,1,186328,212638,0.16,0.12,9.96,-0.03,-0.01,-0.01,31.05
7466171,1882,1,186427,213511,0.12,0.13,9.98,-0.03,-0.01,-0.01,31.05
7507173,1898,1,186809,214548,0.17,0.15,9.96,-0.03,-0.01,-0.00,31.05
7547171,1897,1,187124,215400,0.15,0.11,10.01,-0.03,-0.01,-0.01,31.05
7587173,1887,1,187397,216193,0.15,0.10,10.00,-0.03,-0.01,-0.01,31.05
7627171,1889,1,187699,217057,0.17,0.11,9.96,-0.03,-0.01,-0.00,31.05
7667173,1892,1,188023,218070,0.15,0.11,9.97,-0.03,-0.01,-0.01,31.05
7707171,1889,1,188714,220749,0.17,0.12,9.98,-0.04,-0.01,-0.00,31.05
7747173,1885,1,189595,222774,0.18,0.13,9.96,-0.03,-0.01,-0.01,31.05
7787171,1891,1,190108,223748,0.14,0.12,9.99,-0.03,-0.01,-0.01,31.05
7827173,1884,1,190361,223922,0.15,0.11,9.98,-0.03,-0.02,-0.00,31.05
7867171,1889,1,190446,224267,0.16,0.10,9.98,-0.03,-0.01,-0.01,31.05
7907173,1887,1,190620,224800,0.13,0.10,10.00,-0.03,-0.01,-0.00,31.05
7947171,1901,1,190910,225491,0.15,0.09,9.95,-0.03,-0.01,-0.00,31.05
7987174,1893,1,191309,226864,0.17,0.13,9.97,-0.03,-0.01,-0.01,31.05
8027175,1901,1,191919,228085,0.15,0.14,9.98,-0.04,-0.02,-0.01,31.05
8067173,1886,1,192293,228900,0.16,0.13,9.94,-0.03,-0.01,-0.01,31.05
8107171,1877,1,192577,229411,0.15,0.11,9.98,-0.03,-0.01,-0.01,31.05
8147173,1879,1,192783,229729,0.17,0.12,9.99,-0.03,-0.01,-0.01,31.05
8187857,1853,1,192703,229453,0.17,0.12,9.97,-0.03,-0.01,-0.00,31.05
8226173,1835,1,192567,229222,0.18,0.12,9.94,-0.03,-0.01,-0.00,31.05
8266171,1872,1,192581,229248,0.17,0.12,9.96,-0.03,-0.00,-0.01,31.05
8306218,1875,1,192595,229434,0.16,0.11,9.99,-0.03,-0.01,-0.00,31.05
8346171,1957,1,192549,229386,0.16,0.13,9.96,-0.03,-0.00,-0.01,31.05
8386173,1939,1,192446,229158,0.14,0.10,10.00,-0.03,-0.01,-0.01,31.05
8426171,1949,1,192355,229094,0.16,0.11,9.96,-0.03,-0.01,-0.01,31.05
8466173,1939,1,192154,227607,0.13,0.12,9.99,-0.03,-0.01,-0.01,31.05
8506213,1936,1,191379,226102,0.15,0.11,9.99,-0.03,-0.01,-0.01,31.05
8546173,1939,1,191110,225786,0.13,0.12,9.97,-0.03,-0.02,-0.00,31.05
8586171,1937,1,191213,225899,0.17,0.14,9.96,-0.03,-0.01,-0.00,31.05
8626173,1925,1,191149,226055,0.15,0.13,9.98,-0.03,-0.01,-0.00,31.05
8666171,1888,1,191143,226242,0.15,0.11,9.97,-0.03,-0.01,-0.00,31.05
8706173,1872,1,191246,226515,0.15,0.13,9.96,-0.03,-0.01,-0.01,31.05
8746171,1863,1,191339,226368,0.15,0.12,9.98,-0.03,-0.01,-0.00,31.05
8786173,1862,1,191271,226274,0.16,0.11,9.99,-0.03,-0.01,-0.00,31.05
8826171,1871,1,191254,226292,0.15,0.13,9.96,-0.03,-0.01,-0.01,31.05
8866173,1872,1,191407,226559,0.16,0.12,9.97,-0.03,-0.01,-0.00,31.05
8906171,1872,1,191522,226979,0.14,0.12,9.97,-0.03,-0.01,-0.01,31.05
8946173,1882,1,191650,227098,0.16,0.13,9.98,-0.03,-0.01,-0.00,31.05
8986171,1897,1,191758,227323,0.15,0.12,9.95,-0.03,-0.01,-0.00,31.05
9026196,1904,1,191904,227558,0.17,0.12,9.98,-0.03,-0.01,-0.00,31.05
9066171,1902,1,191934,227723,0.19,0.13,9.94,-0.03,-0.01,-0.01,31.05
9106173,1895,1,192049,227675,0.18,0.10,9.97,-0.03,-0.01,-0.00,31.05
9146171,1895,1,192016,226927,0.17,0.13,9.98,-0.03,-0.01,-0.01,31.05
9186173,1890,1,191549,225625,0.16,0.12,9.96,-0.03,-0.01,-0.00,31.05
9226857,1889,1,191402,225657,0.16,0.12,9.98,-0.03,-0.01,-0.00,30.99
9267173,1891,1,191517,226230,0.16,0.11,10.00,-0.04,-0.01,-0.01,30.99
9307171,1887,1,191674,226383,0.20,0.11,9.99,-0.03,-0.01,-0.01,30.99
9347173,1897,1,191800,226738,0.16,0.13,10.00,-0.03,-0.01,-0.01,30.99
9387171,1893,1,192003,227165,0.19,0.12,9.93,-0.03,-0.01,-0.00,30.99
9427173,1897,1,192162,227461,0.13,0.11,9.97,-0.04,-0.01,-0.00,30.99
9467171,1895,1,192192,227646,0.17,0.13,9.97,-0.03,-0.01,-0.00,30.99
9507173,1904,1,192266,227904,0.18,0.11,9.96,-0.03,-0.01,-0.01,30.99
9547171,1899,1,192268,227994,0.17,0.12,9.97,-0.03,-0.01,-0.01,30.99
9587173,1905,1,192271,228022,0.16,0.12,9.95,-0.03,-0.01,-0.01,30.99
9627171,1905,1,192196,228115,0.17,0.12,9.95,-0.03,-0.01,-0.00,30.99
9667173,1908,1,192272,228310,0.16,0.11,9.96,-0.03,-0.01,-0.00,30.99
9707171,1911,1,192332,228692,0.15,0.10,9.99,-0.03,-0.01,-0.01,30.99
9747174,1907,1,192460,228995,0.17,0.14,9.99,-0.03,-0.01,-0.01,30.99
9787171,1911,1,192570,229061,0.18,0.13,9.98,-0.03,-0.01,-0.01,30.99
9827173,1905,1,192603,228470,0.17,0.12,9.98,-0.03,-0.01,-0.00,30.99
9867171,1904,1,192137,226940,0.19,0.13,9.96,-0.03,-0.01,-0.00,30.99
9907174,1904,1,191761,226468,0.17,0.12,9.98,-0.03,-0.01,-0.01,30.99
9947171,1904,1,191695,226515,0.13,0.10,10.00,-0.03,-0.01,-0.01,30.99
9987173,1905,1,191717,226545,0.17,0.12,9.95,-0.03,-0.01,-0.01,30.99
10027175,1904,1,191718,226782,0.20,0.12,10.00,-0.03,-0.01,-0.00,30.99
10067173,1897,1,191865,227291,0.18,0.12,9.99,-0.03,-0.01,-0.01,30.99
10107174,1903,1,192061,227545,0.17,0.11,9.97,-0.03,-0.01,-0.01,30.99
10147183,1903,1,192088,227664,0.16,0.11,9.94,-0.03,-0.01,-0.00,30.99
10185173,1908,1,192137,227994,0.17,0.12,9.96,-0.03,-0.01,-0.01,30.99
10225173,1906,1,192299,228455,0.18,0.13,10.00,-0.04,-0.01,-0.01,30.99
10265857,1904,1,192435,228636,0.17,0.14,9.99,-0.03,-0.01,-0.01,30.79
10306173,1894,1,192470,228584,0.16,0.11,9.98,-0.03,-0.01,-0.00,30.79
10346193,1882,1,192451,228644,0.15,0.13,9.98,-0.03,-0.01,-0.00,30.79
10386173,1882,1,192514,228806,0.18,0.12,9.97,-0.03,-0.01,-0.00,30.79
10426171,1872,1,192680,229266,0.15,0.12,9.95,-0.03,-0.01,-0.00,30.79
10466173,1872,1,192786,229391,0.15,0.13,9.97,-0.03,-0.01,-0.01,30.79
10506173,1871,1,192564,228007,0.16,0.11,9.97,-0.03,-0.01,-0.01,30.79
10546173,1875,1,192027,226777,0.18,0.12,9.96,-0.03,-0.01,-0.01,30.79
10586173,1886,1,191863,226628,0.17,0.13,9.96,-0.03,-0.01,-0.01,30.79
10626173,1879,1,191851,226658,0.17,0.11,9.97,-0.03,-0.01,-0.00,30.79
10666173,1873,1,191827,226704,0.16,0.13,10.00,-0.03,-0.01,-0.01,30.79
10706173,1878,1,191872,226949,0.18,0.11,9.94,-0.03,-0.01,-0.00,30.79
10746171,1879,1,191977,227287,0.18,0.12,9.99,-0.03,-0.01,-0.01,30.79
10786173,1872,1,192075,227487,0.17,0.13,9.96,-0.03,-0.01,-0.00,30.79
10826174,1883,1,192093,227534,0.17,0.11,9.96,-0.03,-0.01,-0.01,30.79
10866174,1884,1,192128,227640,0.17,0.11,9.96,-0.03,-0.01,-0.01,30.79
10906174,1882,1,192177,227721,0.16,0.12,9.96,-0.03,-0.01,-0.00,30.79
10946173,1890,1,192238,227962,0.16,0.11,9.96,-0.03,-0.01,-0.01,30.79
10986174,1883,1,192312,228217,0.18,0.12,9.96,-0.03,-0.01,-0.01,30.79
11026178,1893,1,192383,228519,0.18,0.12,9.99,-0.03,-0.01,-0.00,30.79
11066171,1891,1,192468,228802,0.17,0.11,9.98,-0.03,-0.01,-0.01,30.79
11106173,1899,1,192500,228958,0.18,0.12,9.97,-0.03,-0.01,-0.00,30.79
11146173,1904,1,192554,229084,0.19,0.13,9.95,-0.03,-0.01,-0.01,30.79
11186173,1894,1,192456,228111,0.16,0.13,9.98,-0.03,-0.01,-0.01,30.79
11226174,1893,1,191929,226741,0.16,0.09,9.99,-0.03,-0.01,-0.01,30.79
11266859,1901,1,191612,226386,0.17,0.11,9.95,-0.04,-0.01,-0.01,31.05
11305174,1902,1,191600,226399,0.18,0.13,9.98,-0.03,-0.01,-0.01,31.05
11345173,1904,1,191610,226303,0.15,0.11,9.99,-0.03,-0.01,-0.00,31.05
11385173,1903,1,191574,226327,0.17,0.13,9.96,-0.03,-0.01,-0.00,31.05
11425173,1904,1,191633,226666,0.18,0.12,9.97,-0.03,-0.01,-0.00,31.05
11465173,1905,1,191754,226992,0.17,0.11,9.96,-0.03,-0.01,-0.00,31.05
11505173,1906,1,191822,227204,0.17,0.12,9.98,-0.03,-0.01,-0.01,31.05
11545174,1903,1,191865,227325,0.17,0.13,9.97,-0.03,-0.01,-0.01,31.05
11585173,1899,1,191907,227464,0.19,0.12,9.99,-0.03,-0.01,-0.00,31.05
11625171,1904,1,191961,227528,0.17,0.13,9.95,-0.03,-0.01,-0.00,31.05
11665173,1901,1,192033,227681,0.14,0.09,10.00,-0.03,-0.01,-0.00,31.05
11705171,1905,1,192063,227829,0.17,0.10,9.98,-0.03,-0.01,-0.00,31.05
11745173,1904,1,192093,228062,0.17,0.13,9.98,-0.03,-0.01,-0.01,31.05
11785192,1910,1,192215,228433,0.15,0.12,10.00,-0.03,-0.01,-0.01,31.05
11825173,1910,1,192305,228693,0.16,0.12,9.97,-0.03,-0.01,-0.00,31.05
11865173,1904,1,192454,228766,0.17,0.13,9.98,-0.03,-0.01,-0.00,31.05
11905173,1904,1,192294,227701,0.18,0.12,9.98,-0.03,-0.01,-0.01,31.05
11945174,1898,1,191854,226681,0.18,0.11,9.97,-0.03,-0.01,-0.01,31.05
11985189,1894,1,191681,226365,0.16,0.10,9.96,-0.03,-0.01,-0.01,31.05
12025200,1892,1,191664,226426,0.17,0.12,9.97,-0.03,-0.01,-0.01,31.05
12065173,1879,1,191773,226518,0.16,0.12,10.01,-0.03,-0.01,-0.00,31.05
12105174,1884,1,191780,226727,0.18,0.11,9.96,-0.03,-0.01,-0.00,31.05
12145173,1883,1,191856,227014,0.17,0.12,9.96,-0.03,-0.01,-0.00,31.05
12185173,1883,1,192003,227186,0.19,0.13,9.97,-0.03,-0.01,-0.01,31.05
12225173,1878,1,192061,227359,0.17,0.11,9.96,-0.03,-0.01,-0.00,31.05
12265173,1887,1,192092,227585,0.17,0.13,9.96,-0.03,-0.01,-0.01,31.05
12305860,1887,1,192136,227819,0.18,0.13,9.98,-0.03,-0.01,-0.00,30.93
12346171,1886,1,192270,228147,0.16,0.12,9.99,-0.03,-0.01,-0.00,30.93
12386173,1891,1,192381,228603,0.16,0.12,9.99,-0.03,-0.01,-0.01,30.93
12426174,1891,1,192515,228980,0.17,0.12,9.99,-0.03,-0.01,-0.01,30.93
12466173,1890,1,192624,229346,0.17,0.12,9.96,-0.03,-0.01,-0.01,30.93
12506174,1895,1,192783,229663,0.17,0.11,9.96,-0.03,-0.01,-0.01,30.93
12546173,1887,1,192879,229861,0.15,0.12,9.98,-0.03,-0.01,-0.00,30.93
12586173,1889,1,192872,229479,0.16,0.13,9.96,-0.03,-0.01,-0.01,30.93
12626174,1892,1,192506,228193,0.18,0.11,9.96,-0.03,-0.01,-0.00,30.93
12666171,1899,1,192164,227724,0.16,0.11,9.98,-0.03,-0.01,-0.01,30.93
12706174,1894,1,192105,227710,0.18,0.11,9.98,-0.03,-0.01,-0.01,30.93
12746174,1904,1,192084,227739,0.17,0.13,9.99,-0.03,-0.01,-0.00,30.93
12786173,1898,1,192153,227889,0.19,0.12,9.96,-0.03,-0.01,-0.01,30.93
12826174,1904,1,192200,228284,0.14,0.12,9.97,-0.03,-0.01,-0.00,30.93
12866173,1923,1,192343,228510,0.17,0.12,9.96,-0.03,-0.01,-0.01,30.93
12906173,1930,1,192404,228588,0.17,0.12,9.99,-0.03,-0.01,-0.00,30.93
12946173,1927,1,192462,228778,0.18,0.12,9.98,-0.03,-0.01,-0.01,30.93
12986173,1928,1,192503,228978,0.17,0.12,9.96,-0.03,-0.01,-0.00,30.93
13026178,1931,1,192589,229228,0.16,0.13,9.96,-0.03,-0.01,-0.01,30.93
13066173,1929,1,192678,229467,0.14,0.11,9.98,-0.03,-0.01,-0.00,30.93
13106173,1922,1,192790,229756,0.16,0.11,9.98,-0.03,-0.01,-0.01,30.93
13146173,1904,1,192845,230118,0.17,0.10,9.98,-0.03,-0.01,-0.01,30.93
13186173,1909,1,192933,230421,0.17,0.11,9.98,-0.03,-0.01,-0.00,30.93
13226171,1907,1,193019,230663,0.16,0.11,9.98,-0.03,-0.01,-0.00,30.93
13266173,1906,1,193027,230107,0.14,0.12,9.97,-0.03,-0.01,-0.00,30.93
13306860,1904,1,192650,228790,0.16,0.14,9.97,-0.03,-0.01,-0.01,30.97
13345174,1891,1,192340,228327,0.16,0.12,9.97,-0.03,-0.01,-0.00,30.97
13385174,1898,1,192233,228312,0.16,0.12,9.96,-0.03,-0.01,-0.00,30.97
13425206,1899,1,192240,228290,0.15,0.14,9.99,-0.03,-0.01,-0.01,30.97
13465173,1899,1,192251,228331,0.17,0.14,9.96,-0.03,-0.01,-0.00,30.97
13505173,1903,1,192319,228583,0.17,0.13,9.95,-0.03,-0.01,-0.00,30.97
13545171,1901,1,192426,228808,0.17,0.13,9.96,-0.03,-0.01,-0.01,30.97
13585173,1885,1,192436,228814,0.17,0.13,9.98,-0.03,-0.01,-0.01,30.97
13625201,1875,1,192440,228813,0.16,0.12,9.96,-0.03,-0.01,-0.01,30.97
13665173,1887,1,192474,228901,0.17,0.11,9.95,-0.03,-0.01,-0.00,30.97
13705171,1885,1,192519,229168,0.17,0.12,9.95,-0.03,-0.01,-0.00,30.97
13745173,1873,1,192596,229358,0.18,0.12,9.98,-0.03,-0.01,-0.01,30.97
13785173,1874,1,192712,229582,0.17,0.14,10.00,-0.03,-0.01,-0.00,30.97
13825173,1872,1,192811,229835,0.16,0.12,9.98,-0.03,-0.01,-0.01,30.97
13865173,1872,1,192908,230141,0.16,0.13,9.99,-0.03,-0.01,-0.01,30.97
13905173,1879,1,192975,230333,0.17,0.11,9.96,-0.03,-0.01,-0.00,30.97
13945174,1881,1,192951,229462,0.16,0.10,9.97,-0.03,-0.01,-0.00,30.97
13985173,1873,1,192489,228253,0.17,0.12,9.99,-0.03,-0.01,-0.00,30.97
14025201,1873,1,192239,227965,0.16,0.12,9.95,-0.03,-0.01,-0.00,30.97
14065173,1885,1,192199,228023,0.15,0.13,9.98,-0.03,-0.01,-0.00,30.97
14105171,1879,1,192204,228003,0.15,0.11,9.96,-0.03,-0.01,-0.01,30.97
14145173,1881,1,192209,228160,0.17,0.13,9.98,-0.03,-0.01,-0.00,30.97
14185174,1874,1,192301,228463,0.16,0.11,9.96,-0.03,-0.01,-0.01,30.97
14225173,1863,1,192376,228547,0.17,0.10,9.99,-0.03,-0.01,-0.00,30.97
14265171,1867,1,192381,228563,0.15,0.10,9.99,-0.03,-0.01,-0.00,30.97
14305173,1875,1,192386,228645,0.16,0.12,9.99,-0.03,-0.01,-0.00,30.97
14345860,1875,1,192440,228812,0.15,0.13,9.95,-0.03,-0.01,-0.00,31.11
14384173,1891,1,192557,229011,0.19,0.11,9.96,-0.03,-0.01,-0.00,31.11
14424171,1889,1,192534,229087,0.17,0.12,9.98,-0.03,-0.01,-0.00,31.11
14464173,1877,1,192544,229254,0.17,0.11,9.97,-0.03,-0.01,-0.00,31.11
14504171,1887,1,192581,229460,0.17,0.14,9.97,-0.03,-0.01,-0.01,31.11
14544173,1890,1,192689,229815,0.17,0.12,9.98,-0.03,-0.01,-0.01,31.11
14584174,1885,1,192775,230197,0.17,0.14,9.99,-0.03,-0.01,-0.01,31.11
14624173,1903,1,192841,230047,0.18,0.12,10.00,-0.03,-0.01,-0.01,31.11
14664171,1890,1,192540,228473,0.17,0.10,9.96,-0.03,-0.01,-0.00,31.11
14704173,1892,1,192056,227530,0.16,0.12,9.96,-0.03,-0.01,-0.00,31.11
14744173,1888,1,191887,227381,0.15,0.11,9.96,-0.03,-0.01,-0.00,31.11
14784173,1890,1,191904,227458,0.14,0.13,9.96,-0.03,-0.01,-0.00,31.11
14824171,1887,1,191895,227464,0.17,0.15,10.02,-0.03,-0.01,-0.01,31.11
14864173,1893,1,191925,227437,0.18,0.11,9.96,-0.03,-0.01,-0.01,31.11
14904173,1890,1,191924,227352,0.17,0.14,9.96,-0.03,-0.01,-0.01,31.11
14944173,1886,1,191939,227402,0.15,0.12,9.96,-0.03,-0.01,-0.00,31.11
14984173,1895,1,191942,227556,0.16,0.15,9.95,-0.03,-0.01,-0.01,31.11
15024191,1878,1,191993,227762,0.15,0.12,9.98,-0.03,-0.01,-0.01,31.11
15064226,1872,1,192051,227958,0.17,0.13,9.98,-0.03,-0.01,-0.00,31.11
15104173,1879,1,192112,228258,0.16,0.12,10.00,-0.03,-0.01,-0.00,31.11
15144171,1877,1,192271,228648,0.18,0.13,9.98,-0.03,-0.01,-0.00,31.11
15184173,1875,1,192379,228743,0.15,0.11,10.00,-0.03,-0.01,-0.00,31.11
15224171,1878,1,192408,228820,0.17,0.13,10.00,-0.03,-0.01,-0.01,31.11
15264227,1875,1,192454,229023,0.17,0.10,9.96,-0.03,-0.01,-0.00,31.11
15304171,1881,1,192531,229310,0.16,0.12,9.96,-0.03,-0.01,-0.01,31.11
15344173,1875,1,192601,229466,0.17,0.11,9.98,-0.03,-0.01,-0.00,31.11
15384860,1879,1,192528,228257,0.16,0.14,9.96,-0.03,-0.01,-0.01,31.13
15425173,1879,1,192036,227127,0.19,0.12,9.96,-0.03,-0.01,-0.01,31.13
15465174,1883,1,191844,226926,0.18,0.14,9.92,-0.03,-0.01,-0.01,31.13
15505173,1887,1,191875,226965,0.15,0.11,9.98,-0.03,-0.01,-0.01,31.13
15545173,1885,1,191901,227069,0.15,0.12,9.98,-0.03,-0.01,-0.00,31.13
15585173,1876,1,192004,227292,0.17,0.12,9.97,-0.03,-0.02,-0.00,31.13
15625174,1885,1,192132,227650,0.18,0.13,9.95,-0.03,-0.01,-0.01,31.13
15665173,1895,1,192224,227835,0.14,0.13,10.01,-0.03,-0.01,-0.00,31.13
15705171,1890,1,192297,228033,0.15,0.11,10.02,-0.03,-0.01,-0.00,31.13
15745173,1898,1,192305,228179,0.18,0.15,9.97,-0.03,-0.02,-0.00,31.13
15785173,1898,1,192430,228454,0.18,0.14,9.97,-0.03,-0.01,-0.00,31.13
15825173,1888,1,192461,228703,0.17,0.12,9.97,-0.03,-0.01,-0.01,31.13
15865174,1893,1,192594,228968,0.18,0.09,9.98,-0.03,-0.01,-0.01,31.13
15905174,1879,1,192697,229255,0.16,0.13,9.99,-0.03,-0.01,-0.01,31.13
15945174,1883,1,192748,229691,0.15,0.14,9.98,-0.03,-0.01,-0.01,31.13
15985174,1887,1,192913,230035,0.17,0.14,9.96,-0.03,-0.01,-0.00,31.13
16025204,1887,1,193019,230316,0.18,0.11,9.98,-0.03,-0.01,-0.01,31.13
16065173,1883,1,193091,230164,0.17,0.11,9.97,-0.03,-0.01,-0.00,31.13
16105173,1893,1,192755,228743,0.18,0.10,9.96,-0.03,-0.01,-0.00,31.13
16145174,1892,1,192401,228008,0.18,0.13,9.95,-0.03,-0.01,-0.00,31.13
16185171,1891,1,192234,228020,0.18,0.12,9.99,-0.03,-0.01,-0.01,31.13
16225173,1904,1,192257,227954,0.17,0.15,10.00,-0.03,-0.01,-0.00,31.13
16265171,1901,1,192228,227946,0.19,0.13,9.97,-0.03,-0.01,-0.00,31.13
16305173,1904,1,192271,228208,0.16,0.13,9.96,-0.03,-0.01,-0.00,31.13
16345173,1904,1,192299,228431,0.17,0.12,9.97,-0.03,-0.01,-0.00,31.13
16385860,1904,1,192378,228412,0.18,0.14,9.98,-0.03,-0.01,-0.00,31.15
16424173,1896,1,192314,228289,0.16,0.12,9.97,-0.03,-0.01,-0.01,31.15
16464173,1899,1,192338,228298,0.18,0.13,9.96,-0.03,-0.01,-0.00,31.15
16504171,1905,1,192377,228418,0.18,0.13,9.97,-0.03,-0.01,-0.00,31.15
16544173,1910,1,192405,228476,0.17,0.13,9.99,-0.03,-0.01,-0.00,31.15
16584171,1907,1,192486,228575,0.18,0.12,9.97,-0.03,-0.01,-0.00,31.15
16624173,1918,1,192554,228854,0.20,0.12,9.99,-0.03,-0.01,-0.01,31.15
16664174,1909,1,192618,229146,0.17,0.12,9.97,-0.03,-0.01,-0.01,31.15
16704195,1919,1,192663,229282,0.17,0.13,9.97,-0.03,-0.01,-0.00,31.15
16744171,1913,1,192645,228877,0.17,0.11,9.94,-0.03,-0.01,-0.01,31.15
16784173,1908,1,192305,227364,0.17,0.13,9.95,-0.03,-0.01,-0.00,31.15
16824171,1907,1,191833,226297,0.16,0.13,9.98,-0.03,-0.01,-0.00,31.15
16864173,1910,1,191568,225878,0.17,0.13,9.98,-0.03,-0.01,-0.01,31.15
16904206,1904,1,191463,225437,0.17,0.13,10.00,-0.03,-0.01,-0.01,31.15
16944173,1906,1,191353,225380,0.17,0.11,9.96,-0.03,-0.01,-0.00,31.15
16984171,1895,1,191375,225733,0.16,0.16,9.93,-0.03,-0.01,-0.00,31.15
17024190,1891,1,191448,225891,0.19,0.12,10.00,-0.03,-0.01,-0.00,31.15
17064171,1897,1,191468,225870,0.16,0.11,9.95,-0.03,-0.01,-0.01,31.15
17104195,1898,1,191484,226011,0.17,0.13,9.96,-0.03,-0.01,-0.00,31.15
17144174,1901,1,191526,226135,0.15,0.12,9.95,-0.03,-0.01,-0.00,31.15
17184173,1901,1,191571,226285,0.18,0.13,9.96,-0.03,-0.01,-0.00,31.15
17224171,1897,1,191602,226486,0.17,0.12,9.96,-0.03,-0.01,-0.01,31.15
17264173,1888,1,191672,226665,0.17,0.12,9.97,-0.03,-0.01,-0.00,31.15
17304171,1900,1,191778,226876,0.17,0.12,9.97,-0.03,-0.01,-0.01,31.15
17344173,1893,1,191811,227117,0.20,0.12,9.98,-0.03,-0.01,-0.01,31.15
17384174,1879,1,191872,227399,0.17,0.12,9.98,-0.03,-0.01,-0.00,31.15
17424860,1884,1,191947,227428,0.15,0.13,9.99,-0.03,-0.01,-0.00,30.91
17463171,1887,1,191767,226051,0.16,0.13,9.93,-0.03,-0.01,-0.00,30.91
17503173,1884,1,191204,224809,0.19,0.11,9.97,-0.03,-0.01,-0.00,30.91
17544171,1881,1,190995,224287,0.16,0.11,9.99,-0.03,-0.01,-0.00,30.91
17584173,1878,1,190854,223774,0.18,0.14,9.92,-0.03,-0.01,-0.00,30.91
17624171,1867,1,190829,223745,0.16,0.12,9.98,-0.03,-0.01,-0.01,30.91
17664173,1877,1,190821,223914,0.18,0.12,9.96,-0.03,-0.01,-0.01,30.91
17704173,1890,1,190850,224162,0.18,0.13,9.98,-0.03,-0.01,-0.01,30.91
17744173,1872,1,190972,224404,0.17,0.13,9.97,-0.03,-0.01,-0.01,30.91
17784174,1872,1,191047,224623,0.17,0.12,9.98,-0.03,-0.01,-0.00,30.91
17824173,1877,1,191129,224987,0.17,0.13,9.96,-0.03,-0.01,-0.00,30.91
17864171,1862,1,191237,225270,0.17,0.13,10.00,-0.03,-0.01,-0.00,30.91
17904173,1867,1,191305,225508,0.16,0.12,9.96,-0.03,-0.01,-0.00,30.91
17944173,1863,1,191338,225835,0.18,0.13,9.99,-0.03,-0.01,-0.00,30.91
17984173,1867,1,191482,226274,0.20,0.13,9.97,-0.03,-0.01,-0.01,30.91
18024187,1872,1,191653,226762,0.16,0.13,9.98,-0.03,-0.01,-0.01,30.91
18064173,1877,1,191842,227287,0.18,0.11,9.97,-0.04,-0.01,-0.00,30.91
18104171,1879,1,192003,227690,0.18,0.13,10.00,-0.03,-0.01,-0.00,30.91
18144173,1875,1,191999,227139,0.16,0.12,9.99,-0.03,-0.01,-0.01,30.91
18184173,1879,1,191516,225305,0.18,0.11,9.96,-0.03,-0.01,-0.00,30.91
18224173,1881,1,191045,224209,0.20,0.12,10.02,-0.03,-0.01,-0.00,30.91
18264171,1885,1,190822,223912,0.17,0.14,9.96,-0.03,-0.01,-0.00,30.91
18304173,1877,1,190743,223724,0.18,0.13,9.98,-0.03,-0.01,-0.00,30.91
18344171,1884,1,190720,223714,0.17,0.11,9.98,-0.03,-0.01,-0.01,30.91
18384173,1885,1,190843,224315,0.20,0.14,9.96,-0.03,-0.01,-0.01,30.91
18424174,1875,1,191062,224841,0.17,0.13,10.00,-0.03,-0.01,-0.01,30.91
18464860,1872,1,191155,224944,0.15,0.11,9.98,-0.03,-0.01,-0.01,30.77
18503173,1874,1,191172,225169,0.17,0.12,9.96,-0.03,-0.01,-0.01,30.77
18544173,1873,1,191317,225670,0.19,0.11,10.00,-0.03,-0.01,-0.00,30.77
18584171,1888,1,191476,226209,0.18,0.12,9.98,-0.03,-0.01,-0.01,30.77
18624173,1886,1,191667,226715,0.17,0.13,9.98,-0.03,-0.01,-0.00,30.77
18664171,1876,1,191822,227101,0.20,0.11,9.98,-0.03,-0.01,-0.01,30.77
18704173,1878,1,191948,227507,0.17,0.12,9.98,-0.03,-0.01,-0.01,30.77
18744174,1872,1,192082,227903,0.18,0.11,9.98,-0.03,-0.01,-0.01,30.77
18784173,1881,1,192230,228244,0.16,0.14,9.93,-0.03,-0.01,-0.01,30.77
18824174,1876,1,192328,228537,0.15,0.12,9.98,-0.04,-0.01,-0.00,30.77
18864173,1884,1,192233,227237,0.19,0.12,9.98,-0.04,-0.01,-0.00,30.77
18904174,1890,1,191726,226188,0.15,0.14,9.97,-0.03,-0.01,-0.00,30.77
18944173,1883,1,191547,225967,0.18,0.11,9.95,-0.03,-0.01,-0.00,30.77
18984171,1895,1,191501,226082,0.19,0.13,9.95,-0.03,-0.01,-0.00,30.77
19024189,1888,1,191557,226234,0.18,0.12,9.97,-0.03,-0.01,-0.01,30.77
19064174,1892,1,191704,226688,0.17,0.12,9.96,-0.03,-0.01,-0.01,30.77
19104173,1900,1,191820,227047,0.17,0.11,9.99,-0.03,-0.01,-0.00,30.77
19144173,1895,1,191921,226981,0.17,0.11,9.98,-0.03,-0.01,-0.00,30.77
19184173,1899,1,191912,226993,0.18,0.14,9.98,-0.03,-0.01,-0.00,30.77
19224173,1904,1,191961,227271,0.17,0.13,9.98,-0.03,-0.01,-0.00,30.77
19264173,1891,1,192075,227427,0.18,0.12,9.98,-0.03,-0.01,-0.00,30.77
19304171,1899,1,192139,227520,0.18,0.11,9.96,-0.03,-0.01,-0.01,30.77
19344173,1897,1,192204,227600,0.17,0.13,10.02,-0.03,-0.01,-0.00,30.77
19384171,1904,1,192208,227798,0.17,0.11,9.98,-0.03,-0.01,-0.00,30.77
19424174,1892,1,192283,228031,0.18,0.12,9.98,-0.03,-0.01,-0.00,30.77
19464857,1897,1,192269,228264,0.18,0.11,9.96,-0.03,-0.01,-0.01,30.97
19503173,1900,1,192354,228060,0.17,0.11,10.00,-0.03,-0.01,-0.00,30.97
19543171,1891,1,192079,226711,0.16,0.12,9.99,-0.03,-0.01,-0.01,30.97
19584173,1892,1,191647,225945,0.16,0.11,9.97,-0.03,-0.01,-0.01,30.97
19624174,1879,1,191517,225828,0.17,0.12,9.97,-0.03,-0.01,-0.00,30.97
19664173,1889,1,191472,225792,0.16,0.11,10.01,-0.03,-0.01,-0.00,30.97
19704171,1882,1,191473,225823,0.17,0.13,9.95,-0.03,-0.01,-0.00,30.97
19744173,1876,1,191520,226180,0.17,0.14,9.98,-0.03,-0.01,-0.00,30.97
19784173,1878,1,191671,226492,0.15,0.13,9.98,-0.03,-0.01,-0.00,30.97
19824173,1885,1,191758,226604,0.17,0.11,9.98,-0.03,-0.01,-0.00,30.97
19864173,1874,1,191766,226693,0.18,0.12,9.97,-0.03,-0.01,-0.00,30.97
19904173,1872,1,191800,226809,0.17,0.13,9.97,-0.03,-0.01,-0.01,30.97
19944174,1875,1,191820,226963,0.18,0.12,9.97,-0.03,-0.01,-0.01,30.97
19984173,1887,1,191883,227224,0.17,0.13,9.97,-0.03,-0.01,-0.01,30.97
20024190,1872,1,191895,227464,0.18,0.12,9.99,-0.03,-0.01,-0.01,30.97
20064173,1891,1,191928,227608,0.17,0.12,9.98,-0.03,-0.01,-0.00,30.97
20104174,1871,1,192032,227861,0.18,0.12,9.96,-0.03,-0.01,-0.01,30.97
20144173,1885,1,192079,228208,0.17,0.13,9.98,-0.03,-0.01,-0.00,30.97
20184231,1878,1,192127,228179,0.18,0.11,9.98,-0.03,-0.01,-0.00,30.97
20224173,1883,1,191875,226756,0.18,0.11,9.98,-0.03,-0.01,-0.01,30.97
20264173,1878,1,191381,225762,0.17,0.12,9.97,-0.03,-0.01,-0.01,30.97
20304173,1879,1,191250,225692,0.17,0.13,9.98,-0.03,-0.01,-0.00,30.97
20344171,1875,1,191243,225689,0.17,0.13,9.99,-0.03,-0.01,-0.01,30.97
20384213,1872,1,191231,225703,0.15,0.11,9.97,-0.03,-0.01,-0.01,30.97
20424174,1871,1,191276,225941,0.18,0.14,9.98,-0.03,-0.01,-0.01,30.97
20464860,1872,1,191379,226187,0.17,0.12,9.97,-0.03,-0.01,-0.00,31.13
20503173,1879,1,191439,226275,0.18,0.11,9.96,-0.03,-0.01,-0.01,31.13
20543173,1872,1,191507,226475,0.17,0.13,9.99,-0.04,-0.01,-0.00,31.13
20583171,1878,1,191559,226712,0.17,0.13,9.98,-0.03,-0.01,-0.01,31.13
20624173,1883,1,191597,226994,0.16,0.13,9.98,-0.03,-0.01,-0.00,31.13
20664173,1882,1,191703,227262,0.17,0.12,9.97,-0.03,-0.01,-0.00,31.13
20704173,1882,1,191782,227416,0.16,0.14,9.98,-0.03,-0.01,-0.00,31.13
20744173,1871,1,191796,227586,0.18,0.13,9.99,-0.03,-0.01,-0.01,31.13
20784173,1885,1,191894,227904,0.16,0.12,9.97,-0.03,-0.01,-0.00,31.13
20824173,1877,1,192021,228229,0.17,0.12,9.97,-0.03,-0.01,-0.00,31.13
20864173,1874,1,192115,228644,0.17,0.12,9.95,-0.03,-0.01,-0.01,31.13
20904173,1872,1,192140,228065,0.15,0.12,9.97,-0.03,-0.01,-0.00,31.13
20942173,1890,1,191647,226445,0.17,0.11,10.00,-0.03,-0.01,-0.00,31.13
20982171,1888,1,191322,225869,0.19,0.12,9.96,-0.03,-0.01,-0.00,31.13
21022180,1893,1,191215,225776,0.17,0.13,9.98,-0.03,-0.01,-0.00,31.13
21062174,1888,1,191225,225731,0.16,0.11,9.96,-0.03,-0.01,-0.01,31.13
21102173,1877,1,191171,225768,0.18,0.11,9.99,-0.03,-0.01,-0.01,31.13
21142173,1881,1,191233,226022,0.17,0.11,9.99,-0.03,-0.01,-0.00,31.13
21182173,1883,1,191340,226072,0.17,0.12,9.97,-0.03,-0.01,-0.01,31.13
21222174,1882,1,191303,226091,0.17,0.13,9.98,-0.03,-0.01,-0.00,31.13
21262173,1872,1,191319,226178,0.15,0.11,9.99,-0.03,-0.01,-0.00,31.13
21302173,1872,1,191423,226365,0.18,0.12,9.97,-0.03,-0.01,-0.00,31.13
21342173,1874,1,191493,226542,0.16,0.12,9.97,-0.03,-0.01,-0.01,31.13
21382174,1879,1,191619,226910,0.15,0.12,9.97,-0.03,-0.01,-0.01,31.13
21422173,1878,1,191682,227001,0.17,0.11,9.96,-0.03,-0.01,-0.00,31.13
21462173,1883,1,191845,227167,0.17,0.11,9.97,-0.03,-0.01,-0.01,31.13
21502860,1872,1,191824,227492,0.18,0.10,9.96,-0.03,-0.01,-0.00,31.01
21543171,1876,1,191965,227878,0.17,0.11,9.95,-0.03,-0.01,-0.01,31.01
21583173,1877,1,192062,228217,0.16,0.12,9.96,-0.03,-0.01,-0.01,31.01
21623173,1874,1,192093,227688,0.17,0.12,10.01,-0.03,-0.01,-0.00,31.01
21663173,1878,1,191657,226265,0.17,0.10,9.95,-0.03,-0.01,-0.00,31.01
21703171,1878,1,191331,225761,0.17,0.13,9.98,-0.03,-0.01,-0.00,31.01
21743173,1886,1,191261,225765,0.17,0.12,9.96,-0.03,-0.01,-0.01,31.01
21783173,1877,1,191228,225681,0.17,0.13,9.98,-0.03,-0.01,-0.01,31.01
21823190,1886,1,191209,225614,0.16,0.12,9.95,-0.03,-0.01,-0.00,31.01
21863173,1895,1,191280,225940,0.17,0.12,9.99,-0.03,-0.01,-0.01,31.01
21903173,1890,1,191402,226143,0.17,0.11,9.96,-0.03,-0.01,-0.00,31.01
21943173,1876,1,191446,226235,0.19,0.11,9.98,-0.03,-0.01,-0.00,31.01
21983173,1891,1,191514,226335,0.18,0.10,9.98,-0.03,-0.01,-0.00,31.01
22023188,1875,1,191582,226547,0.16,0.12,9.98,-0.03,-0.01,-0.00,31.01
22063173,1885,1,191609,226676,0.17,0.11,9.99,-0.03,-0.01,-0.00,31.01
22103173,1877,1,191715,226981,0.17,0.15,9.96,-0.03,-0.01,-0.01,31.01
22143173,1872,1,191757,227202,0.20,0.10,9.98,-0.03,-0.01,-0.00,31.01
22183171,1873,1,191912,227733,0.19,0.12,9.98,-0.03,-0.01,-0.00,31.01
22223173,1877,1,192040,228330,0.18,0.12,9.97,-0.04,-0.01,-0.01,31.01
22263173,1877,1,192274,228945,0.19,0.10,9.99,-0.03,-0.01,-0.00,31.01
22303173,1878,1,192416,229284,0.18,0.14,9.97,-0.03,-0.01,-0.01,31.01
22343173,1887,1,192205,228020,0.21,0.13,9.97,-0.04,-0.01,-0.01,31.01
22383173,1882,1,191748,226974,0.17,0.10,9.97,-0.04,-0.01,-0.00,31.01
22423171,1878,1,191562,227101,0.20,0.12,9.96,-0.04,-0.01,-0.01,31.01
22463173,1883,1,191771,227509,0.17,0.13,9.97,-0.04,-0.01,-0.01,31.01
22503860,1874,1,191787,227654,0.15,0.16,10.04,-0.04,-0.01,-0.00,30.93
22542173,1877,1,191895,228039,0.18,0.11,9.96,-0.03,-0.01,-0.00,30.93
22582173,1883,1,191997,228509,0.18,0.12,9.98,-0.03,-0.01,-0.01,30.93
22622173,1873,1,192198,228760,0.17,0.12,9.97,-0.03,-0.01,-0.00,30.93
22662174,1883,1,192223,228839,0.19,0.10,9.97,-0.03,-0.01,-0.01,30.93
22702173,1879,1,192237,228976,0.19,0.13,9.97,-0.03,-0.01,-0.00,30.93
22742173,1872,1,192301,229139,0.17,0.12,9.98,-0.04,-0.02,-0.00,30.93
22782173,1877,1,192346,229330,0.17,0.11,9.97,-0.03,-0.01,-0.01,30.93
22822174,1867,1,192401,229505,0.19,0.09,9.99,-0.04,-0.01,-0.00,30.93
22862173,1872,1,192528,229766,0.19,0.11,9.98,-0.03,-0.01,-0.00,30.93
22902174,1878,1,192586,230156,0.19,0.11,9.96,-0.03,-0.01,-0.01,30.93
22942173,1874,1,192731,230561,0.17,0.13,9.98,-0.03,-0.01,-0.01,30.93
22982173,1872,1,192868,230874,0.18,0.12,9.98,-0.03,-0.01,-0.01,30.93
23022181,1876,1,192829,229580,0.18,0.10,9.97,-0.03,-0.01,-0.01,30.93
23062173,1873,1,192105,228115,0.18,0.10,9.97,-0.03,-0.01,-0.01,30.93
23102173,1876,1,191775,227734,0.18,0.12,9.98,-0.03,-0.01,-0.00,30.93
23142174,1884,1,191880,227867,0.17,0.11,9.98,-0.03,-0.01,-0.01,30.93
23182173,1881,1,191849,227899,0.17,0.09,9.96,-0.04,-0.01,-0.01,30.93
23222173,1897,1,191789,227952,0.17,0.13,9.99,-0.03,-0.01,-0.01,30.93
23262173,1890,1,191951,228348,0.17,0.12,9.96,-0.03,-0.01,-0.00,30.93
23302173,1887,1,192061,228554,0.16,0.12,9.98,-0.03,-0.01,-0.01,30.93
23342173,1879,1,192026,228505,0.18,0.13,9.98,-0.03,-0.01,-0.01,30.93
23382174,1878,1,192066,228536,0.19,0.11,9.99,-0.03,-0.01,-0.01,30.93
23422173,1881,1,192202,228756,0.20,0.13,9.96,-0.03,-0.01,-0.01,30.93
23462177,1877,1,192287,229050,0.16,0.12,9.98,-0.03,-0.01,-0.01,30.93
23502173,1877,1,192276,229203,0.20,0.12,9.99,-0.03,-0.01,-0.01,30.93
23542860,1872,1,192390,229377,0.20,0.10,9.96,-0.03,-0.01,-0.01,30.77
23583173,1880,1,192484,229610,0.18,0.12,9.99,-0.03,-0.01,-0.00,30.77
23623173,1887,1,192592,229992,0.17,0.12,9.99,-0.03,-0.01,-0.01,30.77
23663215,1882,1,192634,230307,0.17,0.12,9.99,-0.03,-0.01,-0.00,30.77
23703173,1881,1,192786,230664,0.18,0.13,9.98,-0.03,-0.01,-0.01,30.77
23743173,1877,1,192750,229860,0.18,0.12,9.98,-0.03,-0.01,-0.00,30.77
23783173,1872,1,192166,228090,0.19,0.13,9.97,-0.03,-0.01,-0.01,30.77
23823173,1884,1,191784,227616,0.17,0.11,9.97,-0.03,-0.01,-0.01,30.77
23863198,1876,1,191695,227564,0.18,0.10,9.98,-0.03,-0.01,-0.00,30.77
23903173,1875,1,191712,227487,0.18,0.11,9.97,-0.03,-0.01,-0.00,30.77
23943174,1888,1,191750,227553,0.19,0.11,9.96,-0.03,-0.01,-0.00,30.77
23983173,1890,1,191721,227941,0.17,0.11,9.97,-0.03,-0.01,-0.01,30.77
24023173,1879,1,191870,228205,0.17,0.11,9.96,-0.03,-0.01,-0.01,30.77
24063173,1888,1,191874,228242,0.18,0.11,9.99,-0.03,-0.01,-0.01,30.77
24103174,1889,1,191879,228386,0.18,0.12,9.98,-0.03,-0.01,-0.01,30.77
24143173,1885,1,191906,228513,0.18,0.12,9.99,-0.03,-0.01,-0.00,30.77
24183173,1885,1,191881,228725,0.16,0.11,9.98,-0.03,-0.01,-0.00,30.77
24223173,1880,1,192046,228988,0.17,0.11,9.98,-0.03,-0.01,-0.01,30.77
24263173,1881,1,192152,229223,0.18,0.12,9.97,-0.03,-0.01,-0.01,30.77
24303173,1873,1,192223,229494,0.17,0.13,9.99,-0.03,-0.01,-0.00,30.77
24343173,1877,1,192381,229793,0.19,0.10,9.99,-0.03,-0.01,-0.01,30.77
24383173,1882,1,192482,230250,0.20,0.13,9.98,-0.03,-0.01,-0.00,30.77
24423171,1867,1,192525,230592,0.18,0.13,9.95,-0.03,-0.01,-0.01,30.77
24463173,1867,1,192628,230220,0.19,0.09,9.97,-0.03,-0.01,-0.00,30.77
24503171,1872,1,192069,228290,0.18,0.12,9.95,-0.03,-0.01,-0.00,30.77
24543860,1872,1,191669,227485,0.18,0.12,9.97,-0.03,-0.01,-0.00,30.73
24582173,1883,1,191634,227441,0.17,0.12,9.96,-0.03,-0.01,-0.01,30.73
24622173,1871,1,191563,227622,0.16,0.12,9.95,-0.03,-0.01,-0.01,30.73
24662173,1880,1,191624,227714,0.16,0.11,9.96,-0.03,-0.01,-0.01,30.73
24702173,1873,1,191712,228051,0.18,0.11,9.98,-0.03,-0.01,-0.00,30.73
24742173,1871,1,191921,228427,0.18,0.13,9.97,-0.03,-0.01,-0.00,30.73
24782173,1877,1,191903,228490,0.19,0.11,9.96,-0.03,-0.01,-0.01,30.73
24822173,1883,1,191961,228547,0.18,0.12,9.95,-0.03,-0.01,-0.01,30.73
24862173,1875,1,192106,228745,0.19,0.12,9.98,-0.03,-0.01,-0.00,30.73
24902173,1776,1,192225,229236,0.19,0.12,9.95,-0.04,-0.01,-0.00,30.73
24942173,1899,1,192279,229603,0.21,0.12,9.96,-0.03,-0.00,-0.01,30.73
24982174,1582,1,192229,229221,0.17,0.10,10.01,-0.03,0.00,-0.01,30.73
25022168,1793,1,192008,228257,0.17,0.10,9.99,-0.03,0.01,-0.00,30.73
25062161,1974,1,191695,227404,0.15,0.13,9.99,-0.03,-0.00,-0.00,30.73
25102173,1986,1,191401,226849,0.14,0.12,10.00,-0.04,-0.01,-0.01,30.73
25142174,1902,1,191337,227076,0.19,0.14,9.96,-0.03,-0.01,-0.01,30.73
25182173,1895,1,191399,227125,0.17,0.13,9.98,-0.04,-0.00,-0.01,30.73
25222173,1920,1,191249,226701,0.17,0.10,9.99,-0.03,0.00,-0.01,30.73
25262164,1920,1,191138,226115,0.13,0.10,9.99,-0.03,-0.01,-0.01,30.73
25302175,1872,1,190810,225163,0.14,0.14,10.01,-0.03,-0.02,-0.00,30.73
25342173,1904,1,190617,224289,0.17,0.10,9.96,-0.03,-0.01,-0.00,30.73
25382171,1889,1,190477,224330,0.15,0.12,9.98,-0.03,-0.01,-0.01,30.73
25422173,1871,1,190603,224621,0.13,0.13,10.00,-0.03,-0.01,-0.00,30.73
25462171,1863,1,190792,225011,0.17,0.13,9.93,-0.04,-0.04,-0.00,30.73
25502173,1851,1,190797,224640,0.16,0.11,10.00,-0.03,0.00,-0.01,30.73
25542161,1866,1,190682,224675,0.17,0.11,9.94,-0.03,-0.02,-0.00,30.73
25582859,1872,1,190871,224928,0.17,0.12,9.99,-0.03,-0.02,-0.00,30.87
25621173,1856,1,191112,226554,0.19,0.12,9.96,-0.04,-0.03,-0.00,30.87
25661173,1878,1,191685,227800,0.20,0.11,9.94,-0.04,-0.01,-0.01,30.87
25701173,1901,1,191898,227847,0.16,0.11,10.00,-0.03,-0.00,-0.00,30.87
25741173,1904,1,191859,227595,0.18,0.10,9.97,-0.03,-0.02,-0.00,30.87
25781171,1894,1,191727,227540,0.19,0.12,9.97,-0.03,-0.02,-0.00,30.87
25821173,1901,1,191846,227322,0.19,0.13,9.98,-0.03,-0.01,-0.00,30.87
25861171,1891,1,191526,225850,0.20,0.14,9.97,-0.04,-0.01,-0.00,30.87
25901173,1886,1,191082,224940,0.18,0.14,9.96,-0.03,-0.01,-0.00,30.87
25941174,1887,1,190838,224841,0.17,0.13,9.96,-0.03,-0.01,-0.01,30.87
25981173,1902,1,190973,224666,0.17,0.12,9.97,-0.03,-0.01,-0.01,30.87
26021173,1877,1,190835,224796,0.17,0.12,9.97,-0.03,-0.01,-0.01,30.87
26061173,1877,1,190839,225035,0.18,0.12,9.95,-0.03,-0.01,-0.01,30.87
26101173,1878,1,191083,225391,0.19,0.11,9.96,-0.03,-0.01,-0.01,30.87
26141173,1883,1,191166,225538,0.19,0.12,9.99,-0.03,-0.01,-0.01,30.87
26181173,1871,1,191163,225684,0.20,0.09,9.95,-0.03,-0.01,-0.01,30.87
26221173,1879,1,191265,225977,0.17,0.10,9.98,-0.03,-0.01,-0.00,30.87
26261171,1885,1,191335,226454,0.19,0.11,9.96,-0.03,-0.01,-0.01,30.87
26301173,1881,1,191394,226836,0.17,0.12,9.95,-0.03,-0.01,-0.01,30.87
26341174,1886,1,191487,227202,0.17,0.12,9.96,-0.03,-0.01,-0.01,30.87
26381173,1885,1,191701,227603,0.17,0.09,9.95,-0.03,-0.01,-0.00,30.87
26421171,1875,1,191823,228173,0.17,0.11,9.98,-0.03,-0.01,-0.00,30.87
26461173,1898,1,192026,228458,0.17,0.13,10.00,-0.03,-0.01,-0.00,30.87
26501171,1892,1,192115,228444,0.20,0.13,9.99,-0.03,-0.01,-0.01,30.87
26541173,1904,1,191799,227196,0.18,0.11,9.96,-0.03,-0.01,-0.00,30.87
26581173,1909,1,191307,226013,0.17,0.11,9.96,-0.03,-0.01,-0.01,30.87
26621860,1920,1,191078,225885,0.19,0.13,9.96,-0.03,-0.01,-0.01,30.79
26662173,1930,1,191164,226007,0.17,0.12,9.99,-0.03,-0.01,-0.00,30.79
26702173,1931,1,191095,225989,0.17,0.12,9.96,-0.03,-0.01,-0.00,30.79
26742174,1936,1,191184,226057,0.19,0.13,9.97,-0.03,-0.01,-0.00,30.79
26782173,1942,1,191239,226367,0.19,0.13,9.97,-0.03,-0.01,-0.00,30.79
26822171,1948,1,191247,226680,0.17,0.11,9.97,-0.03,-0.01,-0.01,30.79
26862173,1958,1,191444,226763,0.19,0.11,9.97,-0.03,-0.01,-0.01,30.79
26902173,1958,1,191390,227095,0.18,0.11,9.97,-0.03,-0.01,-0.01,30.79
26942218,1958,1,191564,227286,0.16,0.13,9.95,-0.03,-0.01,-0.00,30.79
26982173,1955,1,191586,227536,0.17,0.11,9.96,-0.03,-0.01,-0.00,30.79
27022181,1952,1,191599,227731,0.16,0.12,9.97,-0.03,-0.01,-0.00,30.79
27062173,1947,1,191775,228005,0.19,0.12,9.98,-0.03,-0.01,-0.01,30.79
27102173,1947,1,191815,228305,0.18,0.12,9.95,-0.03,-0.01,-0.00,30.79
27142213,1936,1,192027,228632,0.18,0.12,9.97,-0.03,-0.01,-0.00,30.79
27182173,1942,1,192071,228831,0.18,0.12,9.96,-0.03,-0.01,-0.00,30.79
27222173,1936,1,191944,227666,0.18,0.14,9.97,-0.03,-0.01,-0.01,30.79
27262173,1937,1,191315,226286,0.18,0.12,9.96,-0.03,-0.01,-0.00,30.79
27302174,1918,1,191170,226029,0.18,0.12,9.96,-0.03,-0.01,-0.00,30.79
27342173,1920,1,191176,225935,0.17,0.12,9.97,-0.04,-0.01,-0.00,30.79
27382173,1904,1,191127,226143,0.18,0.12,10.00,-0.03,-0.01,-0.00,30.79
27422173,1899,1,191297,226433,0.19,0.11,9.96,-0.03,-0.01,-0.00,30.79
27462174,1901,1,191527,226811,0.19,0.10,9.99,-0.03,-0.01,-0.00,30.79
27502174,1897,1,191543,227057,0.18,0.11,9.97,-0.03,-0.01,-0.00,30.79
27542174,1893,1,191744,227251,0.19,0.12,9.99,-0.03,-0.01,-0.01,30.79
27581173,1891,1,191777,227394,0.17,0.13,9.96,-0.03,-0.01,-0.00,30.79
27621860,1898,1,191877,227598,0.17,0.12,9.98,-0.03,-0.01,-0.00,30.81
27662173,1883,1,191996,227628,0.18,0.14,9.94,-0.04,-0.01,-0.00,30.81
27702173,1876,1,191959,227867,0.24,0.10,10.01,-0.03,-0.01,-0.00,30.81
27742173,1882,1,192001,228021,0.18,0.10,10.01,-0.03,-0.01,-0.00,30.81
27782171,1873,1,192126,228153,0.16,0.13,9.96,-0.03,-0.01,-0.00,30.81
27822173,1878,1,192204,228273,0.15,0.10,9.95,-0.03,-0.01,-0.00,30.81
27862171,1875,1,192253,228964,0.17,0.11,9.99,-0.03,-0.01,-0.00,30.81
27902173,1872,1,192216,227833,0.16,0.13,9.95,-0.04,-0.01,-0.00,30.81
27942173,1870,1,191742,226824,0.18,0.11,9.99,-0.04,-0.01,-0.00,30.81
27982173,1866,1,191564,226657,0.27,0.08,10.07,-0.03,-0.02,-0.01,30.81
28022177,1861,1,191473,226278,0.25,0.08,10.03,-0.03,-0.01,-0.01,30.81
28062173,1870,1,191373,226041,0.16,0.13,9.93,-0.03,-0.01,-0.01,30.81
28102173,1861,1,191452,226488,0.14,0.10,9.91,-0.03,-0.02,-0.01,30.81
28142173,1870,1,191696,227631,0.15,0.12,9.95,-0.04,-0.01,-0.01,30.81
28182173,1865,1,191978,228234,0.10,0.14,9.97,-0.04,0.00,-0.00,30.81
28222165,1872,1,192039,228235,0.16,0.11,10.01,-0.03,-0.02,-0.00,30.81
28262173,1887,1,191924,227920,0.23,0.09,10.00,-0.03,-0.02,-0.00,30.81
28302173,1887,1,191900,227691,0.27,0.11,9.99,-0.03,-0.01,-0.00,30.81
28342174,1906,1,191816,227621,0.23,0.11,9.96,-0.03,-0.01,-0.01,30.81
28382173,1920,1,191938,227989,0.18,0.11,9.96,-0.03,-0.01,-0.01,30.81
28422173,1929,1,192145,228748,0.16,0.11,9.95,-0.04,-0.01,-0.01,30.81
28462173,1946,1,192366,229543,0.14,0.13,9.97,-0.03,-0.01,-0.01,30.81
28502173,1956,1,192404,230039,0.13,0.12,9.97,-0.03,-0.01,-0.00,30.81
28542173,1968,1,192410,228572,0.18,0.11,9.99,-0.03,-0.01,-0.00,30.81
28581211,1968,1,191676,226670,0.19,0.11,9.94,-0.03,-0.01,-0.00,30.81
28621859,1983,1,191343,226215,0.21,0.13,9.96,-0.03,-0.01,-0.00,30.73
28662173,1989,1,191218,226225,0.19,0.12,9.99,-0.03,-0.01,-0.01,30.73
28702173,2000,1,191178,226289,0.17,0.12,9.97,-0.03,-0.01,-0.01,30.73
28742173,1995,1,191171,226547,0.15,0.12,9.96,-0.03,-0.01,-0.01,30.73
28782213,1991,1,191351,227007,0.19,0.11,9.97,-0.03,-0.01,-0.00,30.73
28822173,1984,1,191457,227125,0.16,0.12,9.96,-0.03,-0.01,-0.00,30.73
28862173,1983,1,191459,227052,0.18,0.11,9.98,-0.03,-0.01,-0.00,30.73
28902174,1982,1,191492,227083,0.19,0.12,9.96,-0.03,-0.01,-0.00,30.73
28942173,1959,1,191466,227294,0.18,0.11,9.97,-0.03,-0.01,-0.00,30.73
28982198,1947,1,191584,227564,0.18,0.12,9.99,-0.03,-0.01,-0.01,30.73
29022180,1939,1,191718,227980,0.18,0.12,9.97,-0.03,-0.01,-0.01,30.73
29062173,1930,1,191905,228447,0.17,0.13,9.96,-0.03,-0.01,-0.01,30.73
29102173,1929,1,192058,228825,0.19,0.12,9.96,-0.03,-0.01,-0.01,30.73
29142174,1916,1,192103,229067,0.17,0.11,9.97,-0.03,-0.01,-0.00,30.73
29180173,1907,1,192146,229165,0.17,0.12,9.97,-0.03,-0.01,-0.01,30.73
29220173,1891,1,191944,227677,0.17,0.09,9.99,-0.03,-0.01,-0.01,30.73
29260173,1873,1,191368,226402,0.18,0.11,9.95,-0.03,-0.01,-0.01,30.73
29300173,1883,1,191080,226140,0.18,0.12,9.99,-0.03,-0.01,-0.01,30.73
29340173,1872,1,191068,226130,0.17,0.11,9.98,-0.03,-0.01,-0.01,30.73
29380174,1865,1,191102,226270,0.17,0.13,9.98,-0.03,-0.01,-0.01,30.73
29420173,1855,1,191020,226211,0.17,0.10,9.98,-0.03,-0.01,-0.00,30.73
29460171,1843,1,191219,226492,0.19,0.10,9.99,-0.03,-0.01,-0.01,30.73
29500173,1840,1,191389,226626,0.17,0.12,9.97,-0.03,-0.01,-0.01,30.73
29540173,1831,1,191377,226633,0.17,0.11,9.98,-0.03,-0.01,-0.00,30.73
29580173,1824,1,191316,226658,0.16,0.13,9.99,-0.03,-0.01,-0.01,30.73
29620173,1815,1,191453,226815,0.18,0.12,9.93,-0.03,-0.01,-0.01,30.73
29660859,1820,1,191488,227089,0.17,0.10,9.98,-0.03,-0.01,-0.00,30.63
29701171,1836,1,191708,227394,0.20,0.11,9.97,-0.03,-0.01,-0.00,30.63
29741174,1833,1,191752,227575,0.19,0.13,9.96,-0.03,-0.01,-0.01,30.63
29781173,1819,1,191803,227949,0.19,0.14,9.97,-0.03,-0.01,-0.01,30.63
29821173,1834,1,191936,228355,0.19,0.14,9.96,-0.03,-0.01,-0.00,30.63
29861173,1840,1,192150,228807,0.17,0.11,9.96,-0.03,-0.01,-0.00,30.63
29901173,1830,1,192204,228195,0.17,0.12,9.96,-0.03,-0.01,-0.00,30.63
29941173,1826,1,191629,226549,0.19,0.13,9.97,-0.03,-0.01,-0.01,30.63
29981173,1826,1,191182,225999,0.16,0.12,9.98,-0.03,-0.01,-0.00,30.63
30021173,1838,1,191162,226131,0.18,0.12,9.98,-0.03,-0.01,-0.01,30.63
30061173,1842,1,191237,226176,0.18,0.13,9.98,-0.03,-0.01,-0.00,30.63
30101173,1840,1,191295,226185,0.20,0.10,9.98,-0.03,-0.01,-0.00,30.63
30141173,1845,1,191418,226621,0.20,0.12,9.97,-0.03,-0.01,-0.01,30.63
30181173,1847,1,191426,226714,0.18,0.11,9.96,-0.03,-0.01,-0.00,30.63
30221178,1856,1,191501,226829,0.18,0.12,9.97,-0.04,-0.01,-0.00,30.63
30261173,1857,1,191573,227046,0.20,0.11,9.99,-0.03,-0.01,-0.00,30.63
30301173,1866,1,191529,227131,0.19,0.11,9.99,-0.03,-0.01,-0.00,30.63
30341174,1871,1,191686,227443,0.19,0.13,9.96,-0.03,-0.01,-0.00,30.63
30381173,1870,1,191742,227637,0.22,0.12,9.98,-0.03,-0.01,-0.01,30.63
30421196,1870,1,191882,228133,0.17,0.11,9.96,-0.03,-0.01,-0.01,30.63
30461173,1871,1,191862,228305,0.18,0.12,9.96,-0.03,-0.01,-0.00,30.63
30501174,1873,1,192009,228595,0.18,0.11,10.00,-0.03,-0.01,-0.00,30.63
30541173,1865,1,192078,228823,0.21,0.12,9.94,-0.03,-0.01,-0.00,30.63
30581173,1872,1,192101,228101,0.19,0.11,9.99,-0.03,-0.01,-0.01,30.63
30621200,1875,1,191538,226668,0.17,0.11,9.96,-0.03,-0.01,-0.00,30.63
30661860,1884,1,191107,226065,0.18,0.12,9.96,-0.03,-0.01,-0.00,30.63
30700173,1883,1,191090,226159,0.17,0.09,9.97,-0.03,-0.01,-0.00,30.63
30740171,1883,1,191122,226371,0.17,0.14,9.99,-0.03,-0.01,-0.01,30.63
30780173,1883,1,191106,226498,0.17,0.11,9.98,-0.03,-0.01,-0.01,30.63
30820173,1886,1,191212,226719,0.18,0.10,9.95,-0.03,-0.01,-0.00,30.63
30860173,1890,1,191303,226959,0.19,0.10,9.94,-0.03,-0.01,-0.00,30.63
30900171,1879,1,191419,227156,0.17,0.13,9.97,-0.03,-0.01,-0.01,30.63
30940174,1889,1,191443,227313,0.18,0.11,9.99,-0.03,-0.01,-0.01,30.63
30980173,1894,1,191448,227354,0.18,0.10,9.93,-0.03,-0.01,-0.01,30.63
31020173,1890,1,191567,227692,0.17,0.10,9.96,-0.04,-0.01,-0.01,30.63
31060173,1890,1,191690,228163,0.17,0.13,9.97,-0.03,-0.01,-0.01,30.63
31100173,1875,1,191796,228393,0.17,0.09,9.96,-0.04,-0.01,-0.00,30.63
31140171,1889,1,191890,228627,0.17,0.10,9.99,-0.03,-0.01,-0.01,30.63
31180173,1891,1,191899,228895,0.17,0.13,9.95,-0.03,-0.01,-0.01,30.63
31220173,1893,1,191983,229079,0.18,0.09,9.99,-0.03,-0.01,-0.00,30.63
31260173,1889,1,192027,228547,0.19,0.15,9.96,-0.04,-0.01,-0.01,30.63
31300173,1891,1,191455,226715,0.17,0.12,9.96,-0.04,-0.01,-0.01,30.63
31340173,1896,1,191063,226134,0.19,0.05,10.03,-0.04,-0.01,-0.00,30.63
31380171,1901,1,191027,226113,0.15,0.14,10.01,-0.03,-0.01,-0.00,30.63
31420173,1899,1,190947,225878,0.20,0.11,9.91,-0.03,-0.01,-0.01,30.63
31460173,1897,1,190999,225889,0.17,0.08,9.99,-0.03,-0.01,-0.00,30.63
31500173,1895,1,191114,226701,0.20,0.13,9.96,-0.03,-0.01,-0.00,30.63
31540171,1888,1,191397,227347,0.15,0.12,10.02,-0.03,-0.01,-0.00,30.63
31580173,1889,1,191551,227403,0.18,0.10,9.98,-0.03,-0.01,-0.00,30.63
31620171,1889,1,191401,227182,0.18,0.10,9.95,-0.03,-0.01,-0.00,30.63
31661173,1882,1,191456,227368,0.17,0.11,9.97,-0.03,-0.01,-0.00,30.63
31701860,1894,1,191678,227984,0.17,0.12,9.98,-0.03,-0.01,-0.00,30.59
31740173,1895,1,191768,228052,0.19,0.11,9.96,-0.03,-0.01,-0.01,30.59
31780173,1899,1,191839,228174,0.17,0.12,9.97,-0.03,-0.01,-0.00,30.59
31820173,1902,1,191822,228271,0.17,0.12,9.96,-0.03,-0.01,-0.00,30.59
31860175,1902,1,191912,228485,0.20,0.11,9.95,-0.03,-0.01,-0.00,30.59
31900173,1898,1,192049,228724,0.17,0.13,9.95,-0.03,-0.01,-0.01,30.59
31940173,1894,1,192105,228853,0.19,0.10,9.97,-0.03,-0.01,-0.01,30.59
31980173,1903,1,192078,227740,0.17,0.11,10.01,-0.04,-0.01,-0.01,30.59
32020174,1901,1,191356,226108,0.18,0.11,9.96,-0.03,-0.01,-0.00,30.59
32060187,1899,1,191034,225743,0.17,0.12,9.95,-0.03,-0.01,-0.01,30.59
32100173,1891,1,191008,225791,0.16,0.12,9.97,-0.03,-0.01,-0.00,30.59
32140173,1893,1,191008,225758,0.18,0.11,9.97,-0.03,-0.01,-0.01,30.59
32180173,1889,1,191074,225917,0.18,0.12,9.98,-0.03,-0.01,-0.01,30.59
32220173,1889,1,191181,226412,0.18,0.11,9.96,-0.03,-0.01,-0.01,30.59
32260178,1887,1,191257,226690,0.17,0.12,9.99,-0.03,-0.01,-0.01,30.59
32300173,1889,1,191407,226991,0.18,0.11,9.99,-0.03,-0.01,-0.01,30.59
32340174,1883,1,191423,227157,0.21,0.11,9.97,-0.03,-0.01,-0.01,30.59
32380173,1883,1,191461,227187,0.19,0.11,9.96,-0.03,-0.01,-0.01,30.59
32420173,1881,1,191500,227156,0.17,0.11,9.96,-0.03,-0.01,-0.00,30.59
32460173,1883,1,191592,227279,0.20,0.09,9.93,-0.03,-0.01,-0.00,30.59
32500171,1875,1,191625,227591,0.18,0.11,9.97,-0.03,-0.01,-0.00,30.59
32540173,1885,1,191697,227835,0.18,0.13,9.99,-0.03,-0.01,-0.00,30.59
32580171,1878,1,191756,228175,0.18,0.12,9.95,-0.03,-0.01,-0.01,30.59
32620173,1886,1,191905,228461,0.16,0.11,9.99,-0.03,-0.01,-0.01,30.59
32660174,1878,1,192017,228305,0.18,0.12,9.95,-0.03,-0.01,-0.00,30.59
32701173,1887,1,191639,226586,0.18,0.12,9.95,-0.03,-0.01,-0.01,30.59
32741860,1876,1,191122,225840,0.19,0.08,9.96,-0.03,-0.01,-0.00,30.77
32780173,1889,1,190999,225866,0.17,0.11,9.97,-0.03,-0.01,-0.00,30.77
32820173,1875,1,191032,226072,0.18,0.14,10.00,-0.03,-0.01,-0.01,30.77
32860173,1877,1,191063,226151,0.17,0.12,9.98,-0.03,-0.01,-0.00,30.77
32900173,1882,1,191144,226398,0.17,0.10,9.99,-0.03,-0.01,-0.00,30.77
32940173,1886,1,191273,226627,0.19,0.12,9.97,-0.03,-0.01,-0.00,30.77
32980173,1881,1,191324,226694,0.16,0.11,9.95,-0.03,-0.02,-0.00,30.77
33020173,1872,1,191368,226874,0.19,0.10,9.97,-0.03,-0.01,-0.00,30.77
33060171,1873,1,191387,227021,0.19,0.11,9.96,-0.03,-0.01,-0.01,30.77
33100173,1877,1,191535,227328,0.18,0.12,9.99,-0.03,-0.01,-0.00,30.77
33140174,1881,1,191662,227712,0.19,0.12,9.97,-0.03,-0.01,-0.01,30.77
33180173,1879,1,191763,228114,0.19,0.12,9.96,-0.03,-0.01,-0.01,30.77
33220173,1891,1,191910,228549,0.19,0.11,9.98,-0.03,-0.01,-0.00,30.77
33260173,1885,1,192096,229022,0.17,0.12,9.98,-0.03,-0.01,-0.00,30.77
33300173,1885,1,192209,229449,0.17,0.11,9.96,-0.03,-0.01,-0.01,30.77
33340173,1892,1,192395,229889,0.17,0.11,9.98,-0.03,-0.01,-0.01,30.77
33380174,1889,1,192449,228909,0.17,0.11,9.97,-0.03,-0.01,-0.00,30.77
33420173,1886,1,191747,227210,0.19,0.12,9.98,-0.03,-0.01,-0.01,30.77
33460173,1889,1,191424,226870,0.19,0.09,9.98,-0.03,-0.01,-0.01,30.77
33500173,1888,1,191407,227033,0.18,0.09,9.98,-0.04,-0.01,-0.00,30.77
33540171,1888,1,191437,227058,0.16,0.12,10.00,-0.03,-0.01,-0.01,30.77
33580173,1885,1,191431,227207,0.18,0.11,9.97,-0.03,-0.01,-0.00,30.77
33620173,1889,1,191513,227557,0.20,0.11,9.96,-0.03,-0.01,-0.00,30.77
33660173,1887,1,191588,227714,0.17,0.11,9.99,-0.03,-0.01,-0.00,30.77
33700209,1878,1,191649,227697,0.17,0.11,9.98,-0.03,-0.01,-0.01,30.77
33740173,1889,1,191681,227804,0.16,0.11,10.01,-0.03,-0.01,-0.00,30.77
33780860,1889,1,191673,227897,0.18,0.10,10.00,-0.03,-0.01,-0.00,30.81
33819173,1899,1,191709,228055,0.17,0.11,10.00,-0.03,-0.01,-0.00,30.81
33859171,1892,1,191756,228166,0.18,0.10,9.95,-0.03,-0.01,-0.01,30.81
33899173,1876,1,191815,228484,0.17,0.13,9.96,-0.03,-0.01,-0.01,30.81
33939173,1887,1,191974,228808,0.17,0.14,9.97,-0.03,-0.01,-0.00,30.81
33979173,1895,1,192031,229150,0.18,0.11,9.98,-0.03,-0.01,-0.01,30.81
34019173,1885,1,192210,229536,0.18,0.10,9.98,-0.03,-0.01,-0.01,30.81
34059173,1891,1,192345,229044,0.17,0.11,9.97,-0.04,-0.01,-0.01,30.81
34099173,1879,1,191760,227079,0.18,0.13,9.95,-0.03,-0.01,-0.00,30.81
34139173,1883,1,191306,226343,0.19,0.11,9.98,-0.03,-0.01,-0.01,30.81
34179174,1886,1,191213,226385,0.17,0.12,9.97,-0.03,-0.01,-0.00,30.81
34219173,1885,1,191226,226444,0.17,0.12,10.00,-0.03,-0.01,-0.01,30.81
34259174,1889,1,191275,226565,0.18,0.11,9.98,-0.03,-0.01,-0.00,30.81
34299173,1889,1,191406,226976,0.17,0.12,9.95,-0.03,-0.01,-0.01,30.81
34339174,1893,1,191532,227273,0.17,0.11,9.97,-0.03,-0.01,-0.00,30.81
34379173,1892,1,191557,227378,0.16,0.11,9.98,-0.03,-0.01,-0.00,30.81
34419173,1889,1,191573,227526,0.17,0.13,9.98,-0.03,-0.01,-0.00,30.81
34459173,1889,1,191634,227661,0.19,0.10,10.00,-0.03,-0.01,-0.00,30.81
34499171,1883,1,191679,227909,0.18,0.11,9.95,-0.03,-0.01,-0.01,30.81
34539173,1887,1,191794,228198,0.18,0.11,9.98,-0.03,-0.01,-0.00,30.81
34579173,1882,1,191909,228488,0.16,0.11,10.01,-0.03,-0.01,-0.01,30.81
34619173,1894,1,191988,228808,0.18,0.11,9.99,-0.03,-0.01,-0.01,30.81
34659173,1889,1,192045,229190,0.18,0.11,10.00,-0.03,-0.01,-0.00,30.81
34699173,1883,1,192214,229557,0.18,0.09,10.00,-0.03,-0.01,-0.01,30.81
34739171,1875,1,192270,229825,0.18,0.12,9.95,-0.03,-0.01,-0.01,30.81
34779173,1878,1,192206,228484,0.17,0.13,9.97,-0.03,-0.01,-0.01,30.81
34819860,1879,1,191504,226847,0.18,0.10,10.00,-0.03,-0.01,-0.00,30.87
34860173,1875,1,191152,226479,0.17,0.11,9.99,-0.03,-0.01,-0.01,30.87
34900174,1885,1,191053,226479,0.18,0.14,9.97,-0.03,-0.01,-0.00,30.87
34940173,1877,1,191062,226529,0.17,0.12,9.99,-0.03,-0.01,-0.00,30.87
34980173,1885,1,191129,226703,0.18,0.12,9.96,-0.03,-0.01,-0.01,30.87
35020173,1886,1,191290,227195,0.18,0.10,9.99,-0.03,-0.01,-0.00,30.87
35060171,1887,1,191403,227292,0.18,0.11,9.99,-0.03,-0.01,-0.00,30.87
35100173,1889,1,191440,227324,0.20,0.10,10.00,-0.03,-0.01,-0.01,30.87
35140171,1882,1,191413,227496,0.17,0.11,9.97,-0.03,-0.01,-0.00,30.87
35180173,1883,1,191478,227745,0.18,0.13,9.96,-0.03,-0.01,-0.00,30.87
35220173,1878,1,191599,228023,0.18,0.10,9.98,-0.04,-0.01,-0.01,30.87
35260173,1874,1,191753,228409,0.18,0.12,9.97,-0.03,-0.01,-0.00,30.87
35300173,1871,1,191904,228790,0.19,0.11,9.96,-0.03,-0.01,-0.01,30.87
35340193,1861,1,192055,229165,0.17,0.11,9.99,-0.03,-0.01,-0.00,30.87
35380173,1875,1,192149,229677,0.18,0.14,9.99,-0.03,-0.01,-0.01,30.87
35420173,1882,1,192313,230195,0.17,0.09,9.97,-0.04,-0.01,-0.01,30.87
35460171,1872,1,192446,230592,0.18,0.10,9.93,-0.03,-0.01,-0.01,30.87
35500173,1875,1,192505,230049,0.17,0.10,9.98,-0.03,-0.01,-0.01,30.87
35540196,1871,1,191829,227699,0.20,0.11,9.99,-0.03,-0.01,-0.01,30.87
35580173,1871,1,191326,226979,0.17,0.14,9.97,-0.03,-0.01,-0.01,30.87
35620173,1881,1,191331,227082,0.18,0.11,9.97,-0.03,-0.01,-0.01,30.87
35660173,1882,1,191309,227195,0.17,0.12,9.99,-0.03,-0.01,-0.00,30.87
35700173,1890,1,191397,227245,0.18,0.12,9.96,-0.03,-0.01,-0.01,30.87
35740191,1872,1,191460,227669,0.17,0.12,9.96,-0.03,-0.01,-0.00,30.87
35780173,1872,1,191638,227857,0.17,0.12,9.95,-0.03,-0.01,-0.00,30.87
35820860,1875,1,191659,227910,0.19,0.11,9.97,-0.03,-0.01,-0.01,30.53
35859173,1877,1,191752,228008,0.19,0.11,9.96,-0.03,-0.01,-0.00,30.53
35899173,1881,1,191745,228145,0.20,0.12,9.98,-0.03,-0.01,-0.00,30.53
35939171,1876,1,191829,228526,0.17,0.10,9.98,-0.03,-0.01,-0.01,30.53
35979173,1879,1,192002,228985,0.18,0.11,9.96,-0.03,-0.01,-0.01,30.53
36019174,1872,1,192208,229298,0.18,0.11,9.97,-0.03,-0.01,-0.01,30.53
36059173,1890,1,192287,229680,0.18,0.11,9.97,-0.03,-0.01,-0.00,30.53
36099174,1895,1,192438,230095,0.17,0.12,9.99,-0.03,-0.01,-0.01,30.53
36139173,1901,1,192594,230514,0.18,0.12,9.95,-0.03,-0.01,-0.01,30.53
36179173,1882,1,192739,230543,0.18,0.11,9.98,-0.03,-0.01,-0.01,30.53
36219173,1889,1,192249,228189,0.19,0.10,9.97,-0.03,-0.01,-0.01,30.53
36259171,1893,1,191586,227194,0.18,0.13,9.96,-0.03,-0.01,-0.00,30.53
36299173,1889,1,191446,227163,0.17,0.12,9.99,-0.03,-0.01,-0.00,30.53
36339173,1902,1,191478,227304,0.16,0.11,9.98,-0.03,-0.01,-0.00,30.53
36379173,1904,1,191517,227311,0.17,0.12,9.97,-0.03,-0.01,-0.01,30.53
36419174,1907,1,191491,227573,0.19,0.11,9.99,-0.03,-0.01,-0.01,30.53
36459173,1910,1,191654,227850,0.18,0.13,9.98,-0.03,-0.01,-0.01,30.53
36499174,1904,1,191709,227907,0.17,0.11,9.98,-0.03,-0.01,-0.00,30.53
36539173,1901,1,191702,228013,0.17,0.13,9.96,-0.03,-0.01,-0.01,30.53
36579173,1906,1,191725,228171,0.18,0.12,9.95,-0.03,-0.01,-0.00,30.53
36619173,1899,1,191819,228438,0.17,0.11,9.97,-0.03,-0.01,-0.01,30.53
36659174,1907,1,191886,228726,0.19,0.11,9.95,-0.03,-0.01,-0.01,30.53
36699173,1904,1,192030,229013,0.19,0.11,9.96,-0.03,-0.01,-0.00,30.53
36739173,1904,1,192142,229423,0.19,0.11,9.97,-0.03,-0.01,-0.01,30.53
36779173,1900,1,192300,229924,0.17,0.09,9.98,-0.03,-0.01,-0.01,30.53
36819173,1894,1,192375,230277,0.16,0.10,9.97,-0.03,-0.01,-0.01,30.53
36859860,1904,1,192404,229515,0.18,0.11,9.98,-0.03,-0.01,-0.01,30.53
36900174,1903,1,191667,227453,0.18,0.10,9.97,-0.03,-0.01,-0.00,30.53
36940173,1901,1,191275,226888,0.17,0.11,9.97,-0.03,-0.01,-0.00,30.53
36980173,1899,1,191140,226953,0.17,0.11,9.98,-0.03,-0.01,-0.00,30.53
37020174,1906,1,191172,226959,0.16,0.14,9.96,-0.03,-0.01,-0.00,30.53
37060174,1904,1,191179,226977,0.18,0.10,10.01,-0.03,-0.01,-0.00,30.53
37100173,1908,1,191213,227304,0.18,0.14,9.97,-0.03,-0.01,-0.01,30.53
37140174,1905,1,191310,227491,0.17,0.12,9.98,-0.03,-0.01,-0.01,30.53
37180186,1905,1,191368,227592,0.17,0.11,9.97,-0.03,-0.01,-0.00,30.53
37220173,1915,1,191413,227606,0.18,0.12,9.98,-0.03,-0.01,-0.01,30.53
37260173,1914,1,191403,227686,0.17,0.11,9.99,-0.03,-0.01,-0.01,30.53
37300174,1927,1,191480,227829,0.17,0.10,9.96,-0.03,-0.01,-0.00,30.53
37340173,1930,1,191525,228005,0.15,0.12,9.97,-0.03,-0.01,-0.00,30.53
37380173,1934,1,191622,228348,0.18,0.11,9.98,-0.03,-0.01,-0.00,30.53
37420174,1955,1,191729,228714,0.17,0.12,9.98,-0.03,-0.01,-0.00,30.53
37460173,1947,1,191860,229145,0.18,0.13,9.96,-0.03,-0.01,-0.01,30.53
37500173,1951,1,191977,229519,0.18,0.11,9.98,-0.03,-0.01,-0.00,30.53
37540171,1969,1,192004,228723,0.17,0.12,9.99,-0.03,-0.01,-0.00,30.53
37580173,1969,1,191388,226947,0.16,0.12,9.96,-0.03,-0.01,-0.00,30.53
37620173,1974,1,190964,226424,0.16,0.12,9.97,-0.03,-0.01,-0.00,30.53
37660173,1974,1,190948,226484,0.18,0.11,10.00,-0.03,-0.01,-0.01,30.53
37700171,1968,1,190976,226465,0.17,0.10,9.98,-0.03,-0.01,-0.01,30.53
37740173,1971,1,190976,226568,0.19,0.10,10.02,-0.03,-0.01,-0.00,30.53
37780171,1963,1,191095,226980,0.18,0.13,10.01,-0.03,-0.01,-0.01,30.53
37820173,1955,1,191226,227086,0.17,0.11,9.98,-0.03,-0.01,-0.01,30.53
37858860,1949,1,191212,227044,0.17,0.11,9.96,-0.03,-0.01,-0.00,30.51
37899231,1955,1,191263,227238,0.17,0.11,9.96,-0.03,-0.01,-0.00,30.51
37939173,1952,1,191393,227479,0.18,0.11,9.97,-0.03,-0.01,-0.00,30.51
37979173,1941,1,191449,227728,0.17,0.10,9.99,-0.03,-0.01,-0.00,30.51
38019171,1926,1,191552,227984,0.18,0.11,9.99,-0.03,-0.01,-0.01,30.51
38059173,1921,1,191657,228351,0.17,0.11,9.95,-0.03,-0.01,-0.00,30.51
38099173,1920,1,191799,228835,0.19,0.11,9.96,-0.03,-0.01,-0.00,30.51
38139173,1904,1,192007,229413,0.18,0.11,9.97,-0.03,-0.01,-0.01,30.51
38179173,1891,1,192168,229908,0.18,0.13,9.99,-0.03,-0.01,-0.01,30.51
38219173,1887,1,192281,229458,0.20,0.10,9.99,-0.03,-0.01,-0.00,30.51
38259171,1890,1,191653,227261,0.18,0.13,9.97,-0.03,-0.01,-0.00,30.51
38299173,1870,1,191267,226641,0.18,0.11,9.99,-0.03,-0.01,-0.01,30.51
38339173,1877,1,191227,226816,0.20,0.11,10.00,-0.03,-0.01,-0.00,30.51
38379173,1872,1,191240,226775,0.18,0.11,9.96,-0.03,-0.01,-0.01,30.51
38419173,1859,1,191233,226794,0.20,0.11,9.99,-0.03,-0.01,-0.01,30.51
38459173,1856,1,191344,227187,0.19,0.10,9.97,-0.03,-0.01,-0.00,30.51
38499171,1843,1,191519,227470,0.19,0.11,9.96,-0.03,-0.01,-0.00,30.51
38539173,1841,1,191560,227503,0.17,0.11,9.98,-0.03,-0.01,-0.00,30.51
38579173,1840,1,191533,227512,0.19,0.10,10.00,-0.03,-0.01,-0.00,30.51
38619173,1843,1,191571,227666,0.18,0.10,9.97,-0.03,-0.01,-0.00,30.51
38659171,1840,1,191648,228035,0.19,0.12,9.98,-0.03,-0.01,-0.01,30.51
38699173,1846,1,191740,228283,0.17,0.11,9.97,-0.03,-0.01,-0.00,30.51
38739173,1842,1,191849,228556,0.18,0.11,9.97,-0.03,-0.01,-0.01,30.51
38779173,1835,1,191938,228937,0.17,0.11,9.98,-0.03,-0.01,-0.01,30.51
38819173,1841,1,192076,229363,0.17,0.11,9.98,-0.03,-0.01,-0.01,30.51
38859173,1845,1,192198,229549,0.18,0.09,9.97,-0.03,-0.01,-0.01,30.51
38899857,1847,1,192114,228232,0.18,0.11,9.97,-0.03,-0.01,-0.00,30.51
38938173,1842,1,191402,226820,0.16,0.11,10.01,-0.03,-0.01,-0.01,30.51
38978173,1852,1,191167,226487,0.18,0.11,9.99,-0.03,-0.01,-0.01,30.51
39018187,1846,1,191159,226498,0.18,0.11,9.98,-0.03,-0.01,-0.00,30.51
39058173,1845,1,191104,226514,0.19,0.11,9.99,-0.03,-0.01,-0.00,30.51
39098173,1856,1,191127,226708,0.18,0.13,9.96,-0.03,-0.01,-0.00,30.51
39138171,1854,1,191324,227173,0.20,0.11,9.99,-0.03,-0.01,-0.00,30.51
39178173,1851,1,191343,227273,0.18,0.12,9.98,-0.03,-0.01,-0.00,30.51
39218174,1856,1,191369,227348,0.17,0.10,9.94,-0.03,-0.01,-0.01,30.51
39258173,1866,1,191384,227530,0.17,0.10,9.99,-0.03,-0.01,-0.00,30.51
39298171,1867,1,191473,227818,0.20,0.09,9.98,-0.03,-0.01,-0.00,30.51
39338173,1866,1,191518,227908,0.17,0.11,9.98,-0.03,-0.01,-0.00,30.51
39378173,1856,1,191510,228190,0.19,0.12,9.96,-0.03,-0.01,-0.01,30.51
39418173,1865,1,191719,228756,0.18,0.13,9.96,-0.03,-0.01,-0.01,30.51
39458174,1872,1,191853,229160,0.18,0.10,9.98,-0.03,-0.01,-0.01,30.51
39498173,1873,1,192018,229502,0.19,0.10,9.99,-0.03,-0.01,-0.00,30.51
39538171,1872,1,192020,229009,0.18,0.11,10.00,-0.03,-0.01,-0.00,30.51
39578173,1872,1,191508,227204,0.17,0.11,9.98,-0.03,-0.01,-0.01,30.51
39618173,1869,1,191102,226544,0.19,0.13,9.99,-0.03,-0.01,-0.00,30.51
39658173,1868,1,190961,226453,0.20,0.08,9.98,-0.03,-0.01,-0.01,30.51
39698171,1862,1,190998,226427,0.19,0.11,9.98,-0.03,-0.01,-0.01,30.51
39738173,1859,1,191024,226531,0.17,0.11,9.96,-0.03,-0.01,-0.00,30.51
39778174,1861,1,191074,226930,0.18,0.13,9.97,-0.03,-0.01,-0.00,30.51
39818173,1869,1,191269,227245,0.17,0.11,10.03,-0.03,-0.01,-0.01,30.51
39858173,1871,1,191274,227330,0.17,0.10,9.97,-0.03,-0.01,-0.01,30.51
39898173,1862,1,191296,227591,0.18,0.12,9.96,-0.03,-0.01,-0.01,30.51
39938860,1862,1,191444,228129,0.20,0.11,9.99,-0.03,-0.00,-0.00,30.71
39979173,1862,1,191614,228347,0.17,0.11,9.99,-0.03,-0.01,-0.00,30.71
40019173,1867,1,191562,228010,0.19,0.10,9.99,-0.03,-0.02,-0.01,30.71
40059173,1875,1,191478,227759,0.18,0.10,9.97,-0.03,-0.01,-0.01,30.71
40099171,1873,1,191445,227622,0.18,0.09,9.96,-0.03,-0.01,-0.00,30.71
40139173,1878,1,191460,227595,0.19,0.11,9.98,-0.03,-0.01,-0.00,30.71
40179173,1868,1,191486,227546,0.17,0.09,9.98,-0.03,-0.01,-0.00,30.71
40219173,1876,1,191328,226241,0.17,0.11,9.98,-0.03,-0.01,-0.00,30.71
40259173,1867,1,190684,224339,0.19,0.13,9.99,-0.03,-0.02,-0.00,30.71
40299173,1886,1,190084,222746,0.19,0.11,9.95,-0.03,-0.01,-0.00,30.71
40339173,1881,1,189755,221903,0.19,0.12,9.99,-0.03,-0.01,-0.01,30.71
40379173,1881,1,189735,222009,0.19,0.13,9.98,-0.03,-0.01,-0.00,30.71
40419171,1885,1,189815,222516,0.20,0.13,9.96,-0.03,-0.01,-0.00,30.71
40459227,1888,1,190119,223753,0.18,0.11,9.98,-0.03,-0.01,-0.01,30.71
40499173,1885,1,190498,224738,0.17,0.14,9.97,-0.04,-0.01,-0.00,30.71
40539173,1885,1,190733,225474,0.21,0.09,10.00,-0.04,-0.01,-0.01,30.71
40579171,1900,1,190895,226116,0.18,0.11,10.00,-0.04,-0.00,-0.01,30.71
40619173,1887,1,191095,226510,0.17,0.12,9.98,-0.03,-0.01,-0.01,30.71
40659210,1875,1,191255,226891,0.18,0.11,9.97,-0.03,-0.01,-0.01,30.71
40699173,1879,1,191358,227143,0.18,0.07,9.96,-0.03,-0.01,-0.01,30.71
40739171,1879,1,191420,227383,0.16,0.11,9.96,-0.03,-0.01,-0.00,30.71
40779173,1873,1,191509,227627,0.17,0.15,9.98,-0.03,-0.01,-0.00,30.71
40819174,1879,1,191586,227873,0.17,0.12,10.01,-0.03,-0.01,-0.00,30.71
40859173,1872,1,191568,227606,0.17,0.10,9.99,-0.03,-0.01,-0.00,30.71
40899171,1890,1,191264,225964,0.19,0.11,9.98,-0.03,-0.01,-0.00,30.71
40939859,1888,1,190647,224854,0.19,0.11,10.04,-0.03,-0.01,-0.00,30.57
40978173,1888,1,190500,224864,0.17,0.12,9.98,-0.03,-0.01,-0.01,30.57
41018173,1887,1,190488,225177,0.19,0.11,9.97,-0.03,-0.01,-0.01,30.57
41058173,1889,1,190625,225524,0.19,0.12,9.96,-0.03,-0.01,-0.01,30.57
41098173,1883,1,190728,226059,0.16,0.12,9.96,-0.03,-0.01,-0.00,30.57
41138173,1883,1,190952,226576,0.16,0.11,9.96,-0.03,-0.01,-0.01,30.57
41178173,1877,1,191044,226696,0.17,0.11,9.99,-0.03,-0.01,-0.01,30.57
41218173,1873,1,191054,226749,0.17,0.11,9.96,-0.03,-0.01,-0.00,30.57
41258173,1874,1,191100,226918,0.17,0.12,9.97,-0.03,-0.01,-0.00,30.57
41298174,1877,1,191156,227180,0.18,0.10,9.99,-0.03,-0.01,-0.00,30.57
41338173,1878,1,191298,227456,0.20,0.11,9.99,-0.03,-0.01,-0.01,30.57
41378173,1875,1,191362,227676,0.17,0.12,10.00,-0.03,-0.01,-0.00,30.57
41418173,1879,1,191467,227959,0.17,0.11,9.96,-0.03,-0.01,-0.00,30.57
41458173,1882,1,191594,228249,0.18,0.10,9.99,-0.03,-0.01,-0.01,30.57
41498173,1875,1,191690,228649,0.19,0.13,9.98,-0.03,-0.01,-0.01,30.57
41538173,1872,1,191821,228727,0.16,0.11,9.96,-0.03,-0.01,-0.00,30.57
41578173,1882,1,191557,227069,0.18,0.13,9.96,-0.03,-0.01,-0.00,30.57
41618173,1875,1,190932,226009,0.21,0.11,9.98,-0.04,-0.01,-0.00,30.57
41658173,1873,1,190767,226010,0.19,0.09,9.96,-0.03,-0.01,-0.00,30.57
41698171,1874,1,190794,226076,0.18,0.11,9.99,-0.03,-0.01,-0.00,30.57
41738173,1875,1,190827,226067,0.20,0.11,9.96,-0.03,-0.01,-0.01,30.57
41778174,1873,1,190878,226240,0.21,0.09,9.91,-0.04,-0.02,-0.01,30.57
41818173,1884,1,191053,226776,0.17,0.14,9.98,-0.03,-0.01,-0.01,30.57
41858173,1883,1,191171,227008,0.17,0.11,9.96,-0.03,-0.01,-0.01,30.57
41898173,1878,1,191218,227177,0.18,0.12,9.96,-0.03,-0.01,-0.00,30.57
41938173,1879,1,191268,227389,0.18,0.11,9.97,-0.03,-0.01,-0.00,30.57
41978859,1877,1,191363,227719,0.17,0.13,9.97,-0.03,-0.01,-0.00,30.63
42019173,1882,1,191452,228019,0.19,0.11,9.99,-0.03,-0.01,-0.00,30.63
42059173,1870,1,191539,228254,0.19,0.10,9.97,-0.03,-0.01,-0.00,30.63
42099190,1878,1,191628,228567,0.18,0.11,9.98,-0.03,-0.01,-0.00,30.63
42139173,1872,1,191772,229024,0.19,0.11,9.95,-0.03,-0.01,-0.00,30.63
42179173,1884,1,191850,229355,0.17,0.11,9.96,-0.03,-0.01,-0.01,30.63
42219173,1887,1,191961,229089,0.19,0.11,9.97,-0.03,-0.01,-0.00,30.63
42259173,1879,1,191495,227289,0.17,0.12,10.00,-0.03,-0.01,-0.01,30.63
42299214,1881,1,190993,226550,0.18,0.13,9.95,-0.04,-0.01,-0.00,30.63
42339173,1875,1,190869,226545,0.18,0.11,10.00,-0.03,-0.01,-0.00,30.63
42379173,1883,1,190937,226570,0.18,0.11,9.99,-0.03,-0.01,-0.00,30.63
42419173,1879,1,190889,226503,0.17,0.11,9.95,-0.03,-0.01,-0.00,30.63
42459173,1878,1,190947,226865,0.18,0.08,9.98,-0.03,-0.01,-0.00,30.63
42499188,1868,1,191128,227215,0.18,0.13,9.94,-0.04,-0.01,-0.00,30.63
42537173,1879,1,191190,227309,0.17,0.12,9.99,-0.04,-0.01,-0.00,30.63
42577174,1887,1,191199,227382,0.19,0.12,9.96,-0.03,-0.01,-0.00,30.63
42617173,1873,1,191264,227603,0.17,0.12,9.97,-0.03,-0.01,-0.00,30.63
42657173,1876,1,191319,227820,0.17,0.10,9.94,-0.03,-0.01,-0.00,30.63
42697173,1879,1,191411,228066,0.19,0.11,9.97,-0.03,-0.01,-0.00,30.63
42738174,1886,1,191527,228320,0.18,0.11,10.00,-0.03,-0.01,-0.00,30.63
42778173,1885,1,191628,228532,0.17,0.13,9.95,-0.03,-0.01,-0.01,30.63
42818173,1877,1,191692,228863,0.17,0.11,9.99,-0.03,-0.01,-0.01,30.63
42858173,1882,1,191797,229147,0.18,0.11,9.97,-0.03,-0.01,-0.01,30.63
42898173,1881,1,191796,227937,0.18,0.11,9.98,-0.03,-0.01,-0.01,30.63
42938173,1879,1,191139,226326,0.17,0.12,9.99,-0.03,-0.01,-0.01,30.63
42978860,1875,1,190863,225900,0.17,0.11,9.96,-0.03,-0.01,-0.01,30.65
43017173,1879,1,190817,225833,0.17,0.11,9.96,-0.03,-0.01,-0.01,30.65
43057173,1875,1,190845,225743,0.17,0.10,9.97,-0.03,-0.01,-0.00,30.65
43097173,1873,1,190864,225867,0.21,0.11,9.98,-0.03,-0.01,-0.01,30.65
43137174,1877,1,190973,226351,0.19,0.12,9.96,-0.03,-0.01,-0.00,30.65
43177173,1872,1,191165,226652,0.18,0.12,10.00,-0.03,-0.01,-0.00,30.65
43217171,1875,1,191263,226960,0.19,0.11,9.98,-0.04,-0.01,-0.00,30.65
43257173,1874,1,191377,227293,0.19,0.11,9.94,-0.03,-0.01,-0.01,30.65
43297173,1877,1,191481,227653,0.18,0.11,9.98,-0.03,-0.01,-0.01,30.65
43337173,1881,1,191576,228058,0.19,0.12,9.96,-0.03,-0.01,-0.01,30.65
43377174,1885,1,191674,228585,0.17,0.11,9.96,-0.03,-0.01,-0.00,30.65
43417173,1894,1,191861,228969,0.17,0.11,9.99,-0.03,-0.01,-0.01,30.65
43457173,1888,1,191931,229132,0.18,0.11,9.97,-0.03,-0.01,-0.00,30.65
43497173,1888,1,191924,229118,0.18,0.12,9.98,-0.03,-0.01,-0.00,30.65
43537173,1894,1,191951,228967,0.19,0.12,9.96,-0.03,-0.01,-0.01,30.65
43577173,1889,1,191798,227539,0.19,0.11,9.96,-0.03,-0.01,-0.01,30.65
43617173,1906,1,191124,225911,0.18,0.11,9.99,-0.03,-0.01,-0.00,30.65
43657173,1914,1,190775,225443,0.21,0.09,9.94,-0.03,-0.01,-0.00,30.65
43697171,1910,1,190711,225338,0.17,0.11,9.99,-0.03,-0.01,-0.01,30.65
43738175,1917,1,190635,225403,0.19,0.12,9.97,-0.03,-0.01,-0.00,30.65
43778173,1921,1,190683,225620,0.17,0.11,9.95,-0.03,-0.01,-0.00,30.65
43818173,1926,1,190830,226104,0.20,0.11,9.99,-0.03,-0.01,-0.00,30.65
43858171,1935,1,190989,226411,0.18,0.11,10.00,-0.03,-0.01,-0.01,30.65
43898173,1934,1,191037,226657,0.17,0.11,9.98,-0.03,-0.01,-0.01,30.65
43938194,1938,1,191154,226952,0.19,0.13,9.97,-0.04,-0.01,-0.01,30.65
43978860,1930,1,191223,227329,0.17,0.11,9.98,-0.03,-0.01,-0.01,30.79
44017173,1930,1,191364,227809,0.17,0.13,10.00,-0.03,-0.01,-0.00,30.79
44057174,1930,1,191493,228249,0.19,0.10,9.96,-0.03,-0.01,-0.01,30.79
44097174,1939,1,191590,228451,0.15,0.11,9.97,-0.03,-0.01,-0.00,30.79
44137192,1941,1,191665,228705,0.17,0.10,9.95,-0.03,-0.01,-0.00,30.79
44177171,1952,1,191742,228912,0.17,0.11,9.98,-0.03,-0.01,-0.00,30.79
44217173,1947,1,191831,228937,0.19,0.09,10.00,-0.03,-0.01,-0.00,30.79
44257171,1953,1,191476,227185,0.17,0.10,9.97,-0.03,-0.01,-0.01,30.79
44297173,1965,1,190918,226138,0.20,0.11,9.96,-0.03,-0.01,-0.01,30.79
44337173,1955,1,190714,226037,0.18,0.11,9.96,-0.03,-0.01,-0.00,30.79
44377173,1959,1,190749,226076,0.17,0.12,10.00,-0.03,-0.01,-0.00,30.79
44417171,1968,1,190763,226068,0.20,0.12,9.98,-0.03,-0.01,-0.00,30.79
44457173,1968,1,190748,226263,0.19,0.13,9.97,-0.03,-0.01,-0.00,30.79
44497173,1965,1,190895,226542,0.18,0.12,9.99,-0.03,-0.01,-0.01,30.79
44537173,1963,1,190998,226754,0.19,0.12,9.97,-0.03,-0.01,-0.00,30.79
44577173,1958,1,191092,226977,0.18,0.12,9.98,-0.03,-0.01,-0.00,30.79
44617173,1984,1,191106,227207,0.17,0.11,9.99,-0.03,-0.01,-0.01,30.79
44657173,1984,1,191215,227484,0.19,0.12,9.96,-0.03,-0.01,-0.01,30.79
44697173,1994,1,191309,227806,0.18,0.11,9.97,-0.03,-0.01,-0.00,30.79
44737173,1984,1,191462,228089,0.17,0.11,9.97,-0.03,-0.01,-0.00,30.79
44778173,2001,1,191520,228276,0.18,0.09,9.98,-0.03,-0.01,-0.00,30.79
44818171,2006,1,191662,228585,0.19,0.11,9.96,-0.03,-0.01,-0.00,30.79
44858173,2010,1,191738,228823,0.18,0.08,9.97,-0.03,-0.01,-0.00,30.79
44898171,2018,1,191844,228770,0.18,0.12,9.98,-0.03,-0.01,-0.01,30.79
44938173,2032,1,191468,226994,0.19,0.11,9.97,-0.03,-0.01,-0.01,30.79
44978173,2041,1,190970,226013,0.19,0.11,9.97,-0.03,-0.01,-0.01,30.79
45018860,2037,1,190725,225843,0.19,0.12,9.97,-0.03,-0.01,-0.01,30.79
45057173,2032,1,190745,225909,0.20,0.11,9.97,-0.03,-0.01,-0.00,30.79
45097173,2030,1,190762,225869,0.16,0.11,9.96,-0.03,-0.01,-0.00,30.79
45137173,2003,1,190780,226168,0.17,0.11,9.98,-0.03,-0.01,-0.00,30.79
45177173,1994,1,190941,226543,0.17,0.12,9.97,-0.03,-0.01,-0.00,30.79
45217173,1979,1,191023,226678,0.20,0.10,9.95,-0.03,-0.01,-0.00,30.79
45257173,1963,1,191096,226919,0.17,0.12,9.98,-0.03,-0.01,-0.01,30.79
45297173,1949,1,191168,227208,0.17,0.11,9.95,-0.03,-0.01,-0.01,30.79
45337173,1933,1,191232,227554,0.17,0.11,9.95,-0.03,-0.01,-0.00,30.79
45377173,1921,1,191385,228019,0.17,0.12,9.98,-0.03,-0.01,-0.00,30.79
45417173,1911,1,191501,228307,0.17,0.12,9.97,-0.03,-0.01,-0.01,30.79
45457173,1891,1,191586,228520,0.16,0.11,9.96,-0.03,-0.01,-0.01,30.79
45497173,1872,1,191691,228817,0.18,0.11,9.95,-0.03,-0.01,-0.01,30.79
45537173,1857,1,191802,229219,0.19,0.12,9.95,-0.03,-0.01,-0.00,30.79
45577173,1850,1,191916,229209,0.17,0.10,9.97,-0.03,-0.01,-0.01,30.79
45617174,1841,1,191441,227366,0.18,0.10,9.98,-0.03,-0.01,-0.00,30.79
45657173,1830,1,190926,226338,0.17,0.10,9.99,-0.03,-0.01,-0.01,30.79
45697173,1808,1,190753,226311,0.18,0.11,9.98,-0.03,-0.01,-0.01,30.79
45737174,1806,1,190763,226336,0.15,0.11,9.97,-0.03,-0.01,-0.00,30.79
45777174,1794,1,190720,226341,0.17,0.12,9.96,-0.03,-0.01,-0.00,30.79
45817173,1793,1,190836,226834,0.19,0.12,9.98,-0.03,-0.01,-0.00,30.79
45857173,1787,1,191037,227144,0.20,0.11,9.97,-0.03,-0.01,-0.01,30.79
45897173,1783,1,191098,227072,0.18,0.10,9.98,-0.03,-0.01,-0.00,30.79
45937171,1789,1,191050,226933,0.19,0.10,9.98,-0.03,-0.01,-0.00,30.79
45977174,1783,1,191059,227159,0.17,0.12,9.99,-0.03,-0.01,-0.00,30.79
46017173,1787,1,191188,227622,0.19,0.13,9.98,-0.03,-0.01,-0.01,30.79
46057860,1783,1,191264,227965,0.17,0.10,9.96,-0.03,-0.01,-0.01,30.79
46098173,1802,1,191371,228260,0.22,0.12,9.98,-0.03,-0.01,-0.01,30.79
46138173,1798,1,191489,228588,0.20,0.10,9.98,-0.03,-0.01,-0.00,30.79
46178171,1798,1,191615,228916,0.17,0.11,9.99,-0.03,-0.01,-0.00,30.79
46218173,1822,1,191745,229288,0.17,0.11,9.98,-0.03,-0.01,-0.00,30.79
46258174,1821,1,191862,229124,0.20,0.09,10.01,-0.03,-0.01,-0.00,30.79
46298173,1819,1,191409,227420,0.18,0.11,9.98,-0.03,-0.01,-0.01,30.79
46338173,1823,1,190982,226781,0.18,0.10,9.95,-0.03,-0.01,-0.00,30.79
46378173,1834,1,190935,226916,0.19,0.10,10.00,-0.03,-0.01,-0.00,30.79
46418171,1839,1,190993,227060,0.17,0.11,9.99,-0.03,-0.01,-0.01,30.79
46458173,1830,1,191043,227083,0.17,0.12,9.98,-0.03,-0.01,-0.00,30.79
46498174,1840,1,191113,227363,0.18,0.11,9.98,-0.03,-0.02,-0.00,30.79
46538173,1840,1,191234,227676,0.19,0.11,9.98,-0.03,-0.01,-0.00,30.79
46576174,1849,1,191378,227951,0.19,0.11,9.96,-0.03,-0.01,-0.00,30.79
46616173,1856,1,191427,227971,0.19,0.11,9.94,-0.03,-0.01,-0.00,30.79
46656173,1857,1,191445,228090,0.19,0.09,9.98,-0.03,-0.01,-0.01,30.79
46696173,1858,1,191493,228273,0.20,0.09,9.96,-0.03,-0.01,-0.00,30.79
46736171,1855,1,191599,228678,0.16,0.11,9.95,-0.03,-0.01,-0.00,30.79
46776173,1872,1,191698,228940,0.20,0.09,9.97,-0.03,-0.01,-0.00,30.79
46816171,1872,1,191828,229334,0.18,0.12,9.97,-0.03,-0.01,-0.01,30.79
46856173,1871,1,191935,229729,0.18,0.11,9.97,-0.03,-0.01,-0.00,30.79
46896173,1872,1,192172,230084,0.18,0.11,10.02,-0.03,-0.01,-0.01,30.79
46936173,1875,1,192027,228624,0.17,0.11,9.97,-0.03,-0.01,-0.01,30.79
46976173,1874,1,191467,227387,0.15,0.10,9.98,-0.03,-0.01,-0.01,30.79
47016173,1883,1,191232,227180,0.17,0.10,9.96,-0.03,-0.01,-0.00,30.79
47056171,1876,1,191319,227371,0.20,0.10,9.98,-0.03,-0.01,-0.01,30.79
47096860,1870,1,191353,227495,0.19,0.11,9.99,-0.03,-0.01,-0.00,30.79
47137173,1872,1,191367,227650,0.18,0.12,9.98,-0.03,-0.01,-0.00,30.79
47177173,1872,1,191477,227935,0.18,0.12,9.95,-0.03,-0.01,-0.01,30.79
47217218,1871,1,191538,227934,0.18,0.11,9.97,-0.03,-0.01,-0.01,30.79
47257173,1875,1,191509,228018,0.19,0.11,9.96,-0.03,-0.01,-0.00,30.79
47297173,1878,1,191563,228154,0.17,0.12,9.98,-0.03,-0.01,-0.01,30.79
47337173,1878,1,191641,228355,0.18,0.10,9.98,-0.03,-0.01,-0.01,30.79
47377174,1872,1,191683,228636,0.19,0.09,9.99,-0.03,-0.01,-0.01,30.79
47417221,1872,1,191808,229035,0.18,0.12,9.98,-0.03,-0.01,-0.00,30.79
47457173,1869,1,191960,229553,0.19,0.12,10.00,-0.03,-0.01,-0.01,30.79
47497173,1872,1,192129,230049,0.18,0.10,9.97,-0.03,-0.01,-0.01,30.79
47537171,1875,1,192259,230337,0.17,0.13,9.95,-0.03,-0.01,-0.01,30.79
47577173,1867,1,192175,229004,0.18,0.12,9.99,-0.03,-0.01,-0.00,30.79
47617174,1866,1,191570,227730,0.18,0.11,10.00,-0.03,-0.01,-0.01,30.79
47657173,1877,1,191353,227296,0.17,0.10,9.98,-0.03,-0.01,-0.01,30.79
47697173,1872,1,191277,227355,0.17,0.10,9.97,-0.03,-0.01,-0.00,30.79
47737173,1875,1,191267,227341,0.16,0.13,9.97,-0.03,-0.01,-0.01,30.79
47777173,1883,1,191266,227327,0.19,0.11,9.95,-0.03,-0.01,-0.01,30.79
47817173,1877,1,191313,227591,0.17,0.11,9.98,-0.03,-0.01,-0.01,30.79
47857173,1889,1,191338,227674,0.17,0.11,9.99,-0.03,-0.01,-0.00,30.79
47897173,1884,1,191410,227710,0.18,0.11,9.95,-0.03,-0.01,-0.00,30.79
47937174,1888,1,191393,227801,0.18,0.12,9.97,-0.03,-0.01,-0.01,30.79
47977173,1873,1,191439,227844,0.15,0.12,9.97,-0.03,-0.01,-0.00,30.79
48017173,1885,1,191380,227667,0.18,0.11,9.98,-0.03,-0.02,-0.00,30.79
48057173,1886,1,191357,227431,0.15,0.12,9.96,-0.03,-0.01,-0.00,30.79
48097860,1886,1,191302,227378,0.19,0.12,9.98,-0.03,-0.01,-0.00,30.79
48136173,1893,1,191359,227410,0.19,0.13,9.97,-0.03,-0.01,-0.00,30.79
48176173,1884,1,191338,227452,0.19,0.13,10.00,-0.03,-0.01,-0.01,30.79
48216173,1878,1,191283,226604,0.18,0.11,9.99,-0.03,-0.01,-0.00,30.79
48256173,1879,1,190733,224578,0.19,0.12,9.96,-0.03,-0.01,-0.01,30.79
48296173,1879,1,189870,222000,0.17,0.10,9.98,-0.03,-0.01,-0.00,30.79
48336171,1874,1,189456,221852,0.19,0.11,9.98,-0.03,-0.01,-0.01,30.79
48376173,1870,1,189708,222686,0.18,0.13,9.97,-0.03,-0.01,-0.01,30.79
48416173,1873,1,189934,223414,0.16,0.12,9.98,-0.03,-0.01,-0.00,30.79
48456173,1871,1,190176,224234,0.15,0.12,9.93,-0.03,-0.01,-0.01,30.79
48496173,1877,1,190389,224695,0.18,0.12,9.97,-0.03,-0.01,-0.01,30.79
48536173,1889,1,190432,224887,0.20,0.11,9.98,-0.03,-0.01,-0.00,30.79
48576171,1879,1,190450,224901,0.18,0.11,9.99,-0.03,-0.01,-0.00,30.79
48616173,1882,1,190446,225112,0.17,0.12,9.97,-0.03,-0.01,-0.01,30.79
48656173,1883,1,190566,225441,0.18,0.11,9.95,-0.03,-0.01,-0.01,30.79
48696173,1867,1,190703,225809,0.16,0.13,9.99,-0.03,-0.01,-0.00,30.79
48736171,1875,1,190801,226023,0.16,0.12,9.97,-0.03,-0.01,-0.00,30.79
48776173,1873,1,190900,226426,0.18,0.09,9.97,-0.03,-0.01,-0.01,30.79
48816173,1875,1,191025,226717,0.20,0.14,9.95,-0.03,-0.01,-0.00,30.79
48856213,1869,1,191089,226630,0.18,0.13,9.98,-0.03,-0.01,-0.01,30.79
48896173,1872,1,190797,225135,0.17,0.12,9.96,-0.03,-0.01,-0.00,30.79
48936173,1873,1,190127,222830,0.18,0.11,9.96,-0.03,-0.01,-0.01,30.79
48976173,1869,1,189417,221354,0.17,0.11,9.99,-0.03,-0.01,-0.00,30.79
49016173,1867,1,189498,221808,0.18,0.11,9.97,-0.03,-0.01,-0.00,30.79
49056173,1863,1,189568,222034,0.17,0.11,9.98,-0.03,-0.01,-0.00,30.79
49096173,1872,1,189621,222290,0.21,0.13,9.96,-0.03,-0.01,-0.00,30.79
49136860,1878,1,189875,222872,0.20,0.12,9.97,-0.03,-0.01,-0.01,30.63
49177173,1873,1,190056,223284,0.20,0.12,9.96,-0.03,-0.01,-0.01,30.63
49217173,1887,1,190151,223568,0.18,0.10,9.98,-0.03,-0.01,-0.01,30.63
49257201,1886,1,190263,223837,0.17,0.10,9.96,-0.03,-0.01,-0.01,30.63
49297173,1891,1,190410,224285,0.16,0.14,9.96,-0.03,-0.01,-0.01,30.63
49337173,1894,1,190549,224712,0.19,0.13,9.90,-0.04,-0.01,-0.00,30.63
49377171,1891,1,190755,225523,0.17,0.10,10.01,-0.04,-0.01,-0.00,30.63
49417173,1890,1,190999,226424,0.18,0.07,10.06,-0.03,-0.00,-0.00,30.63
49457171,1889,1,191215,226714,0.17,0.13,9.96,-0.03,-0.01,-0.00,30.63
49497174,1890,1,191186,226807,0.18,0.13,9.96,-0.03,-0.01,-0.00,30.63
49537173,1893,1,191249,226704,0.18,0.11,9.98,-0.03,-0.01,-0.01,30.63
49577173,1879,1,190964,225505,0.18,0.12,9.97,-0.03,-0.01,-0.01,30.63
49617173,1895,1,190562,224502,0.17,0.10,9.98,-0.03,-0.01,-0.01,30.63
49657173,1889,1,190256,223684,0.18,0.10,9.96,-0.03,-0.01,-0.00,30.63
49697171,1881,1,190108,223328,0.17,0.10,9.99,-0.03,-0.01,-0.00,30.63
49737173,1885,1,190137,223729,0.19,0.11,9.96,-0.03,-0.01,-0.00,30.63
49777173,1882,1,190350,224446,0.18,0.12,10.00,-0.03,-0.01,-0.00,30.63
49817173,1873,1,190572,224862,0.17,0.09,9.99,-0.04,-0.01,-0.01,30.63
49857174,1878,1,190589,225018,0.18,0.10,10.00,-0.03,-0.01,-0.00,30.63
49897173,1876,1,190644,225096,0.19,0.12,9.95,-0.03,-0.01,-0.00,30.63
49937173,1872,1,190645,225365,0.16,0.11,9.96,-0.03,-0.01,-0.00,30.63
49977173,1872,1,190761,225774,0.19,0.12,9.99,-0.03,-0.01,-0.00,30.63
50017173,1868,1,190840,226143,0.16,0.11,9.96,-0.03,-0.01,-0.01,30.63
50057173,1872,1,190937,226426,0.17,0.11,9.97,-0.03,-0.01,-0.00,30.63
50097173,1861,1,191012,226875,0.19,0.11,9.97,-0.03,-0.01,-0.00,30.63
50137860,1866,1,191181,227268,0.18,0.12,10.01,-0.03,-0.01,-0.01,30.79
50176173,1872,1,191325,227644,0.18,0.13,9.96,-0.03,-0.01,-0.01,30.79
50216173,1872,1,191403,227460,0.19,0.12,9.96,-0.03,-0.01,-0.00,30.79
50256173,1872,1,190996,225998,0.17,0.11,9.96,-0.03,-0.01,-0.01,30.79
50296173,1879,1,190642,225521,0.16,0.10,9.98,-0.03,-0.01,-0.01,30.79
50336174,1881,1,190614,225659,0.17,0.11,9.98,-0.03,-0.01,-0.01,30.79
50376173,1877,1,190645,225752,0.17,0.12,9.99,-0.03,-0.01,-0.01,30.79
50416173,1883,1,190694,225830,0.17,0.11,9.97,-0.03,-0.01,-0.01,30.79
50456173,1877,1,190809,226252,0.17,0.11,9.98,-0.03,-0.01,-0.00,30.79
50496199,1874,1,190936,226486,0.18,0.12,10.00,-0.03,-0.01,-0.01,30.79
50536173,1872,1,190982,226615,0.19,0.12,9.96,-0.03,-0.01,-0.00,30.79
50576173,1879,1,191030,226847,0.17,0.13,9.99,-0.04,-0.01,-0.01,30.79
50616173,1887,1,191143,227188,0.18,0.13,9.97,-0.03,-0.01,-0.01,30.79
50656173,1887,1,191242,227499,0.18,0.12,9.99,-0.03,-0.01,-0.00,30.79
50696193,1875,1,191373,227843,0.16,0.11,9.95,-0.03,-0.01,-0.00,30.79
50736173,1881,1,191486,228247,0.17,0.10,9.99,-0.03,-0.01,-0.00,30.79
50776173,1872,1,191630,228672,0.19,0.11,9.99,-0.03,-0.01,-0.01,30.79
50816173,1874,1,191783,228999,0.20,0.10,9.99,-0.03,-0.01,-0.01,30.79
50856173,1872,1,191895,229282,0.17,0.11,9.96,-0.03,-0.01,-0.01,30.79
50896201,1866,1,191863,228449,0.16,0.13,9.97,-0.03,-0.01,-0.00,30.79
50936173,1867,1,191321,226994,0.18,0.11,10.02,-0.03,-0.01,-0.00,30.79
50976173,1871,1,191020,226642,0.17,0.11,9.95,-0.04,-0.01,-0.00,30.79
51016173,1875,1,191025,226721,0.17,0.10,9.98,-0.03,-0.01,-0.00,30.79
51056171,1879,1,191075,226856,0.18,0.12,9.97,-0.03,-0.01,-0.00,30.79
51096173,1878,1,191156,227169,0.20,0.11,9.95,-0.03,-0.01,-0.00,30.79
51136171,1873,1,191324,227588,0.20,0.11,9.92,-0.03,-0.01,-0.01,30.79
51176860,1875,1,191459,227777,0.20,0.12,9.96,-0.03,-0.01,-0.01,30.63
51215173,1884,1,191537,227873,0.19,0.12,9.98,-0.03,-0.01,-0.00,30.63
51255173,1885,1,191555,228030,0.20,0.11,9.99,-0.03,-0.01,-0.00,30.63
51295171,1887,1,191641,228244,0.18,0.13,9.98,-0.03,-0.01,-0.01,30.63
51335173,1885,1,191739,228462,0.17,0.13,9.96,-0.03,-0.01,-0.01,30.63
51375173,1885,1,191881,228788,0.18,0.10,9.98,-0.03,-0.01,-0.01,30.63
51415173,1873,1,191986,229132,0.17,0.10,9.98,-0.03,-0.01,-0.00,30.63
51455171,1889,1,192068,229482,0.17,0.11,9.97,-0.03,-0.01,-0.00,30.63
51495173,1882,1,192168,229824,0.19,0.10,9.97,-0.03,-0.01,-0.00,30.63
51535171,1887,1,192216,229040,0.20,0.12,9.98,-0.03,-0.01,-0.01,30.63
51575173,1883,1,191583,227463,0.18,0.11,9.97,-0.03,-0.01,-0.00,30.63
51615173,1888,1,191238,227029,0.20,0.12,9.96,-0.03,-0.01,-0.00,30.63
51655173,1883,1,191215,227083,0.17,0.11,9.98,-0.03,-0.01,-0.01,30.63
51695173,1880,1,191241,227131,0.18,0.12,9.96,-0.03,-0.01,-0.01,30.63
51735173,1887,1,191232,227356,0.17,0.11,9.98,-0.03,-0.01,-0.01,30.63
51775173,1884,1,191384,227742,0.17,0.11,9.97,-0.03,-0.01,-0.01,30.63
51815173,1876,1,191470,227739,0.16,0.11,9.99,-0.03,-0.01,-0.00,30.63
51855173,1883,1,191430,227709,0.18,0.10,9.97,-0.03,-0.01,-0.00,30.63
51895173,1873,1,191450,227903,0.18,0.13,10.01,-0.03,-0.01,-0.01,30.63
51935173,1871,1,191521,228125,0.18,0.12,10.00,-0.03,-0.01,-0.01,30.63
51975173,1871,1,191558,228240,0.18,0.11,9.98,-0.03,-0.01,-0.01,30.63
52015173,1883,1,191591,228450,0.19,0.11,9.98,-0.03,-0.01,-0.00,30.63
52055173,1872,1,191626,228704,0.16,0.11,9.99,-0.03,-0.01,-0.01,30.63
52095173,1870,1,191742,229088,0.17,0.12,9.98,-0.03,-0.01,-0.00,30.63
52135173,1866,1,191853,229323,0.17,0.12,10.00,-0.03,-0.01,-0.00,30.63
52175171,1869,1,191691,228138,0.19,0.11,9.99,-0.03,-0.01,-0.01,30.63
52215860,1871,1,191198,226849,0.19,0.11,9.99,-0.03,-0.01,-0.01,30.65
52256173,1872,1,190916,226601,0.19,0.11,9.98,-0.03,-0.01,-0.00,30.65
52296173,1877,1,190902,226659,0.18,0.12,9.98,-0.03,-0.01,-0.01,30.65
52336177,1872,1,190855,226550,0.15,0.13,9.96,-0.03,-0.01,-0.01,30.65
52376173,1877,1,190853,226692,0.18,0.13,9.95,-0.03,-0.01,-0.00,30.65
52416173,1872,1,191006,227127,0.18,0.11,9.98,-0.03,-0.01,-0.01,30.65
52456173,1878,1,191116,227323,0.17,0.11,10.00,-0.03,-0.01,-0.01,30.65
52496171,1872,1,191147,227355,0.18,0.12,9.96,-0.03,-0.01,-0.00,30.65
52536195,1870,1,191175,227427,0.18,0.11,9.96,-0.03,-0.01,-0.00,30.65
52576173,1872,1,191176,227645,0.17,0.11,9.96,-0.03,-0.01,-0.01,30.65
52616173,1877,1,191297,227962,0.19,0.11,10.00,-0.03,-0.01,-0.00,30.65
52656171,1874,1,191378,228109,0.18,0.13,9.97,-0.03,-0.01,-0.00,30.65
52696174,1873,1,191451,228335,0.18,0.11,9.97,-0.03,-0.01,-0.01,30.65
52736173,1873,1,191542,228756,0.18,0.11,9.96,-0.03,-0.01,-0.01,30.65
52775173,1872,1,191662,229109,0.18,0.12,9.98,-0.03,-0.01,-0.01,30.65
52815173,1869,1,191724,228470,0.17,0.12,9.98,-0.03,-0.01,-0.00,30.65
52855173,1876,1,191169,226812,0.19,0.13,9.98,-0.03,-0.01,-0.01,30.65
52895173,1873,1,190773,226205,0.20,0.12,9.97,-0.03,-0.01,-0.01,30.65
52935173,1878,1,190725,226112,0.17,0.11,9.98,-0.03,-0.01,-0.00,30.65
52975174,1889,1,190707,226078,0.18,0.12,9.95,-0.03,-0.01,-0.01,30.65
53015173,1885,1,190696,226008,0.17,0.11,9.96,-0.03,-0.01,-0.00,30.65
53055173,1878,1,190727,226263,0.15,0.13,9.96,-0.03,-0.01,-0.01,30.65
53095173,1882,1,190872,226487,0.17,0.11,9.97,-0.03,-0.01,-0.00,30.65
53135173,1872,1,190951,226661,0.18,0.11,9.96,-0.03,-0.01,-0.00,30.65
53175173,1875,1,191033,226869,0.17,0.11,9.97,-0.03,-0.01,-0.00,30.65
53215860,1875,1,191137,227167,0.18,0.11,9.98,-0.04,-0.01,-0.01,30.67
53256173,1883,1,191275,227446,0.17,0.13,9.97,-0.03,-0.01,-0.00,30.67
53296173,1879,1,191374,227918,0.18,0.12,9.96,-0.03,-0.01,-0.01,30.67
53336173,1874,1,191579,228678,0.18,0.12,9.98,-0.03,-0.01,-0.00,30.67
53376173,1886,1,191853,229460,0.18,0.11,9.98,-0.04,-0.01,-0.00,30.67
53416173,1874,1,192106,230164,0.17,0.10,9.97,-0.03,-0.01,-0.00,30.67
53456171,1872,1,192422,230898,0.17,0.11,9.98,-0.03,-0.01,-0.01,30.67
53496173,1871,1,192467,229625,0.18,0.11,9.96,-0.03,-0.01,-0.01,30.67
53536173,1869,1,191619,227912,0.17,0.10,10.00,-0.03,-0.01,-0.00,30.67
53576174,1872,1,191327,227578,0.17,0.11,9.97,-0.03,-0.01,-0.00,30.67
53616173,1872,1,191305,227614,0.17,0.13,9.99,-0.03,-0.01,-0.00,30.67
53656173,1872,1,191258,227664,0.16,0.13,9.96,-0.03,-0.01,-0.01,30.67
53696173,1875,1,191357,227814,0.19,0.11,9.98,-0.03,-0.01,-0.01,30.67
53736173,1874,1,191449,228305,0.19,0.11,9.98,-0.03,-0.01,-0.01,30.67
53775173,1873,1,191581,228431,0.17,0.12,9.97,-0.03,-0.01,-0.00,30.67
53815173,1872,1,191610,228527,0.21,0.11,9.95,-0.03,-0.01,-0.00,30.67
53855174,1873,1,191652,228689,0.18,0.11,9.96,-0.03,-0.01,-0.00,30.67
53895173,1875,1,191725,228891,0.19,0.11,9.96,-0.03,-0.01,-0.00,30.67
53935173,1872,1,191828,229142,0.18,0.12,9.98,-0.03,-0.01,-0.01,30.67
53975211,1877,1,191899,229409,0.17,0.11,9.97,-0.03,-0.01,-0.01,30.67
54015173,1871,1,191961,229635,0.18,0.10,9.98,-0.03,-0.01,-0.01,30.67
54055173,1871,1,192063,230019,0.16,0.12,9.97,-0.03,-0.01,-0.01,30.67
54095173,1867,1,192138,230286,0.20,0.10,9.99,-0.03,-0.01,-0.00,30.67
54135173,1865,1,192263,230485,0.19,0.12,9.96,-0.03,-0.01,-0.00,30.67
54175216,1869,1,192261,230047,0.17,0.10,9.99,-0.04,-0.01,-0.01,30.67
54215859,1873,1,191693,228095,0.19,0.11,9.97,-0.03,-0.01,-0.00,30.71
54256173,1871,1,191259,227331,0.19,0.11,10.01,-0.03,-0.01,-0.01,30.71
54296173,1874,1,191161,227263,0.18,0.11,9.94,-0.03,-0.01,-0.00,30.71
54336173,1872,1,191153,227263,0.20,0.11,9.98,-0.03,-0.01,-0.01,30.71
54376173,1875,1,191105,227292,0.20,0.12,9.98,-0.03,-0.01,-0.00,30.71
54416171,1872,1,191189,227626,0.19,0.14,9.95,-0.03,-0.01,-0.01,30.71
54456173,1874,1,191312,227941,0.17,0.11,9.98,-0.03,-0.01,-0.01,30.71
54496173,1879,1,191445,228009,0.20,0.10,10.01,-0.03,-0.01,-0.00,30.71
54536173,1877,1,191397,228032,0.18,0.12,9.96,-0.03,-0.01,-0.01,30.71
54576173,1873,1,191458,228154,0.18,0.12,9.96,-0.03,-0.01,-0.00,30.71
54616173,1870,1,191529,228482,0.17,0.12,9.97,-0.04,-0.01,-0.00,30.71
54656174,1869,1,191589,228752,0.19,0.11,9.99,-0.03,-0.01,-0.01,30.71
54696173,1879,1,191753,229004,0.20,0.09,9.95,-0.03,-0.01,-0.01,30.71
54736171,1866,1,191861,229302,0.18,0.13,9.95,-0.03,-0.01,-0.00,30.71
54774173,1876,1,191970,229606,0.18,0.11,9.96,-0.03,-0.01,-0.01,30.71
54815173,1874,1,192094,230025,0.18,0.10,9.96,-0.03,-0.01,-0.01,30.71
54855173,1885,1,192080,229025,0.18,0.11,10.01,-0.03,-0.01,-0.01,30.71
54895173,1877,1,191518,227573,0.19,0.12,9.99,-0.04,-0.01,-0.01,30.71
54935173,1877,1,191171,227202,0.18,0.10,9.99,-0.03,-0.01,-0.00,30.71
54975171,1873,1,191142,227250,0.17,0.09,9.96,-0.03,-0.01,-0.01,30.71
55015173,1878,1,191149,227147,0.18,0.10,9.98,-0.03,-0.01,-0.00,30.71
55055171,1877,1,191183,227317,0.19,0.11,9.94,-0.03,-0.01,-0.00,30.71
55095173,1872,1,191258,227730,0.18,0.11,10.00,-0.03,-0.01,-0.00,30.71
55135171,1879,1,191404,227836,0.16,0.11,9.97,-0.03,-0.01,-0.00,30.71
55175173,1881,1,191398,227851,0.17,0.09,9.97,-0.03,-0.01,-0.00,30.71
55215171,1885,1,191435,228071,0.18,0.11,9.96,-0.03,-0.01,-0.01,30.71
55255860,1883,1,191549,228246,0.19,0.13,9.96,-0.03,-0.01,-0.01,30.65
55294173,1875,1,191620,228496,0.17,0.11,9.99,-0.03,-0.01,-0.01,30.65
55334173,1872,1,191728,228738,0.20,0.11,9.97,-0.03,-0.01,-0.01,30.65
55374173,1877,1,191842,229159,0.18,0.12,9.96,-0.03,-0.01,-0.00,30.65
55414173,1872,1,191940,229501,0.18,0.11,9.97,-0.03,-0.01,-0.00,30.65
55454173,1883,1,192032,229835,0.17,0.12,9.99,-0.03,-0.01,-0.00,30.65
55494173,1872,1,192102,229689,0.19,0.12,9.96,-0.03,-0.01,-0.00,30.65
55534174,1872,1,191631,227714,0.18,0.10,9.97,-0.03,-0.01,-0.01,30.65
55574173,1866,1,191128,226854,0.18,0.10,9.96,-0.03,-0.01,-0.00,30.65
55614213,1881,1,190929,226727,0.18,0.12,10.00,-0.03,-0.01,-0.00,30.65
55654173,1874,1,190919,226714,0.18,0.12,9.95,-0.03,-0.01,-0.01,30.65
55694173,1870,1,190891,226679,0.16,0.11,9.99,-0.03,-0.01,-0.00,30.65
55734173,1873,1,190929,226928,0.18,0.11,9.96,-0.03,-0.01,-0.00,30.65
55774173,1872,1,191086,227244,0.17,0.12,9.99,-0.03,-0.01,-0.01,30.65
55814210,1871,1,191141,227295,0.19,0.12,9.98,-0.03,-0.01,-0.01,30.65
55854173,1872,1,191123,227354,0.18,0.11,9.96,-0.03,-0.01,-0.00,30.65
55894173,1873,1,191178,227566,0.18,0.09,10.00,-0.03,-0.01,-0.00,30.65
55934171,1875,1,191270,227827,0.18,0.13,9.98,-0.03,-0.01,-0.01,30.65
55974173,1877,1,191324,228083,0.17,0.11,9.96,-0.03,-0.01,-0.00,30.65
56014174,1881,1,191339,228357,0.17,0.11,10.00,-0.04,-0.01,-0.00,30.65
56054173,1879,1,191422,228669,0.17,0.13,9.98,-0.03,-0.01,-0.00,30.65
56094173,1878,1,191524,229081,0.19,0.09,9.97,-0.03,-0.01,-0.00,30.65
56134173,1881,1,191610,229359,0.18,0.11,9.98,-0.03,-0.01,-0.00,30.65
56174173,1877,1,191707,229541,0.17,0.11,9.96,-0.03,-0.01,-0.01,30.65
56214173,1881,1,191681,228881,0.17,0.10,9.96,-0.03,-0.01,-0.01,30.65
56254173,1884,1,191116,227061,0.19,0.11,10.02,-0.03,-0.01,-0.00,30.65
56294860,1886,1,190688,226393,0.18,0.11,9.96,-0.03,-0.01,-0.00,30.63
56335173,1872,1,190604,226279,0.18,0.11,9.97,-0.04,-0.01,-0.00,30.63
56375173,1871,1,190545,226239,0.18,0.11,9.98,-0.03,-0.01,-0.00,30.63
56415173,1874,1,190514,226241,0.18,0.10,9.98,-0.03,-0.01,-0.01,30.63
56455173,1879,1,190626,226550,0.18,0.12,9.98,-0.03,-0.01,-0.00,30.63
56495173,1875,1,190682,226679,0.18,0.09,9.96,-0.03,-0.01,-0.00,30.63
56535173,1877,1,190752,226678,0.16,0.13,9.95,-0.03,-0.01,-0.00,30.63
56575173,1871,1,190719,226748,0.19,0.09,9.98,-0.03,-0.01,-0.00,30.63
56615173,1876,1,190793,226989,0.19,0.11,9.96,-0.03,-0.01,-0.01,30.63
56655173,1872,1,190926,227311,0.17,0.09,9.98,-0.03,-0.01,-0.01,30.63
56695174,1875,1,190990,227673,0.18,0.10,9.96,-0.03,-0.01,-0.01,30.63
56735174,1873,1,191184,227970,0.18,0.11,9.97,-0.03,-0.01,-0.01,30.63
56775174,1865,1,191274,228263,0.18,0.12,9.98,-0.03,-0.01,-0.01,30.63
56815173,1872,1,191362,228700,0.18,0.10,9.99,-0.03,-0.01,-0.00,30.63
56855173,1874,1,191583,229103,0.17,0.11,10.00,-0.03,-0.01,-0.01,30.63
56895173,1876,1,191688,229498,0.18,0.12,9.97,-0.03,-0.01,-0.01,30.63
56935173,1883,1,191738,229401,0.16,0.11,9.98,-0.03,-0.01,-0.01,30.63
56975173,1874,1,191413,227410,0.18,0.11,9.99,-0.03,-0.01,-0.00,30.63
57015173,1872,1,190797,226418,0.19,0.14,9.98,-0.03,-0.01,-0.00,30.63
57055173,1875,1,190643,226306,0.18,0.11,9.99,-0.03,-0.01,-0.01,30.63
57095173,1872,1,190599,226192,0.18,0.10,9.97,-0.03,-0.01,-0.01,30.63
57135171,1872,1,190630,226120,0.17,0.10,9.98,-0.03,-0.01,-0.01,30.63
57175173,1881,1,190674,226330,0.17,0.12,9.98,-0.03,-0.01,-0.00,30.63
57215174,1872,1,190868,226725,0.18,0.11,9.95,-0.03,-0.01,-0.00,30.63
57255173,1872,1,190962,226865,0.18,0.11,10.00,-0.03,-0.01,-0.01,30.63
57295857,1875,1,190954,227036,0.20,0.10,9.98,-0.03,-0.01,-0.01,30.79
57334173,1873,1,191036,227260,0.20,0.11,9.96,-0.03,-0.01,-0.01,30.79
57374173,1872,1,191131,227559,0.17,0.12,9.95,-0.03,-0.01,-0.01,30.79
57414173,1871,1,191231,227993,0.19,0.12,9.99,-0.03,-0.01,-0.00,30.79
57454210,1866,1,191381,228332,0.18,0.12,9.98,-0.03,-0.01,-0.01,30.79
57494173,1878,1,191459,228649,0.17,0.12,9.96,-0.03,-0.01,-0.01,30.79
57534173,1872,1,191554,229053,0.16,0.12,9.99,-0.03,-0.01,-0.00,30.79
57574173,1872,1,191697,229584,0.19,0.11,9.98,-0.03,-0.01,-0.01,30.79
57614173,1865,1,191827,229646,0.16,0.12,9.98,-0.03,-0.01,-0.00,30.79
57654194,1863,1,191458,227578,0.17,0.13,9.97,-0.03,-0.01,-0.00,30.79
57694173,1872,1,190823,226511,0.19,0.12,9.96,-0.03,-0.01,-0.00,30.79
57734173,1873,1,190580,226366,0.19,0.11,9.98,-0.03,-0.01,-0.00,30.79
57774173,1875,1,190586,226257,0.17,0.10,9.97,-0.03,-0.01,-0.01,30.79
57814173,1879,1,190530,226170,0.18,0.13,9.96,-0.03,-0.01,-0.01,30.79
57854173,1872,1,190512,226406,0.18,0.11,9.99,-0.03,-0.01,-0.00,30.79
57895173,1874,1,190700,226800,0.19,0.11,9.96,-0.03,-0.01,-0.01,30.79
57935173,1870,1,190848,226889,0.17,0.11,9.99,-0.03,-0.01,-0.00,30.79
57975173,1868,1,190846,226984,0.19,0.10,9.96,-0.03,-0.01,-0.01,30.79
58015173,1870,1,190894,227124,0.19,0.11,9.97,-0.03,-0.01,-0.01,30.79
58055173,1873,1,190955,227477,0.16,0.12,9.97,-0.03,-0.01,-0.00,30.79
58095173,1874,1,191074,227954,0.18,0.12,10.00,-0.03,-0.01,-0.01,30.79
58135173,1872,1,191174,228322,0.17,0.09,9.97,-0.03,-0.01,-0.01,30.79
58175173,1874,1,191289,228629,0.18,0.11,9.98,-0.03,-0.01,-0.00,30.79
58215173,1879,1,191375,229081,0.16,0.10,9.93,-0.03,-0.01,-0.00,30.79
58255171,1874,1,191495,229463,0.17,0.11,9.97,-0.03,-0.01,-0.01,30.79
58295173,1869,1,191614,229651,0.17,0.12,9.99,-0.03,-0.01,-0.01,30.79
58335860,1871,1,191464,228110,0.17,0.11,9.99,-0.03,-0.01,-0.00,30.79
58374173,1869,1,190739,226517,0.18,0.11,9.98,-0.03,-0.01,-0.00,30.79
58414173,1875,1,190486,226115,0.17,0.10,9.95,-0.03,-0.01,-0.01,30.79
58454173,1872,1,190446,226136,0.18,0.11,9.96,-0.03,-0.01,-0.00,30.79
58494173,1872,1,190404,226066,0.17,0.10,10.00,-0.03,-0.01,-0.01,30.79
58534173,1881,1,190370,226120,0.19,0.12,9.97,-0.03,-0.01,-0.00,30.79
58574173,1869,1,190433,226412,0.17,0.11,9.96,-0.03,-0.01,-0.00,30.79
58614173,1870,1,190576,226653,0.18,0.10,9.98,-0.03,-0.01,-0.00,30.79
58654171,1871,1,190590,226716,0.17,0.13,9.95,-0.03,-0.01,-0.00,30.79
58694173,1863,1,190630,226930,0.17,0.12,9.99,-0.03,-0.01,-0.00,30.79
58734173,1870,1,190703,227197,0.19,0.11,9.98,-0.03,-0.01,-0.01,30.79
58774173,1878,1,190814,227403,0.17,0.11,9.95,-0.03,-0.01,-0.00,30.79
58814173,1872,1,190926,227701,0.18,0.12,9.95,-0.03,-0.01,-0.01,30.79
58854173,1874,1,190984,227883,0.18,0.11,9.97,-0.04,-0.01,-0.01,30.79
58894173,1879,1,191070,228227,0.17,0.11,9.92,-0.04,-0.01,-0.00,30.79
58934173,1886,1,191183,228560,0.19,0.11,9.94,-0.03,-0.01,-0.00,30.79
58974174,1881,1,191326,228947,0.16,0.13,9.99,-0.03,-0.01,-0.01,30.79
59014173,1877,1,191455,229317,0.17,0.12,9.98,-0.03,-0.01,-0.00,30.79
59054173,1879,1,191412,228190,0.19,0.12,9.96,-0.03,-0.01,-0.01,30.79
59094173,1872,1,190655,226316,0.17,0.11,9.99,-0.03,-0.01,-0.01,30.79
59134173,1873,1,190316,225702,0.18,0.10,9.96,-0.03,-0.01,-0.00,30.79
59174173,1887,1,190255,225784,0.17,0.11,9.99,-0.03,-0.01,-0.00,30.79
59214174,1873,1,190272,225830,0.17,0.12,10.00,-0.03,-0.01,-0.00,30.79
59254173,1874,1,190296,225924,0.18,0.11,9.99,-0.03,-0.01,-0.01,30.79
59294173,1872,1,190362,226326,0.17,0.10,9.98,-0.03,-0.01,-0.00,30.79
59334173,1873,1,190481,226531,0.19,0.10,9.95,-0.04,-0.01,-0.00,30.79
59374857,1867,1,190596,226733,0.18,0.11,9.98,-0.03,-0.01,-0.00,30.93
59413173,1872,1,190633,226857,0.17,0.12,9.96,-0.03,-0.01,-0.01,30.93
59453173,1873,1,190767,227097,0.19,0.09,9.96,-0.03,-0.01,-0.01,30.93
59493173,1875,1,190833,227336,0.18,0.13,9.97,-0.03,-0.01,-0.01,30.93
59533173,1877,1,190961,227626,0.17,0.11,9.98,-0.03,-0.01,-0.01,30.93
59573173,1871,1,191092,227884,0.16,0.12,9.95,-0.03,-0.01,-0.00,30.93
59613174,1873,1,191196,228263,0.18,0.11,9.98,-0.03,-0.01,-0.01,30.93
59653173,1878,1,191376,228683,0.16,0.10,9.98,-0.03,-0.01,-0.01,30.93
59693173,1883,1,191517,229023,0.19,0.13,9.97,-0.03,-0.01,-0.00,30.93
59733173,1877,1,191568,229053,0.17,0.11,10.00,-0.03,-0.01,-0.00,30.93
59773171,1881,1,191253,227043,0.19,0.12,9.96,-0.03,-0.01,-0.00,30.93
59813173,1873,1,190540,225822,0.19,0.11,9.96,-0.03,-0.01,-0.00,30.93
59853171,1873,1,190365,225663,0.18,0.11,9.97,-0.03,-0.01,-0.01,30.93
59893173,1872,1,190327,225724,0.17,0.12,9.98,-0.03,-0.01,-0.01,30.93
59933173,1874,1,190382,225787,0.18,0.10,9.98,-0.03,-0.01,-0.00,30.93
59973173,1872,1,190425,226125,0.20,0.11,9.98,-0.03,-0.01,-0.00,30.93
60013171,1873,1,190583,226535,0.20,0.11,9.98,-0.03,-0.01,-0.00,30.93
60053173,1875,1,190668,226621,0.18,0.11,9.98,-0.03,-0.01,-0.00,30.93
60093173,1882,1,190681,226706,0.18,0.11,9.96,-0.03,-0.01,-0.01,30.93
60133173,1874,1,190742,226840,0.17,0.11,10.01,-0.03,-0.01,-0.00,30.93
60173173,1886,1,190744,227014,0.17,0.10,9.97,-0.03,-0.01,-0.00,30.93
60213173,1887,1,190823,227277,0.18,0.12,9.98,-0.03,-0.01,-0.01,30.93
60253173,1864,1,190883,227559,0.17,0.11,10.00,-0.03,-0.01,-0.01,30.93
60293173,1875,1,190976,227898,0.17,0.11,9.97,-0.03,-0.01,-0.00,30.93
60333173,1873,1,191036,228199,0.17,0.12,9.98,-0.03,-0.01,-0.01,30.93
60373173,1882,1,191145,228640,0.18,0.10,9.97,-0.03,-0.01,-0.01,30.93
60413857,1872,1,191274,228542,0.17,0.11,9.99,-0.03,-0.01,-0.00,30.99
60454173,1869,1,190869,226646,0.18,0.13,9.97,-0.03,-0.01,-0.01,30.99
60494173,1876,1,190279,225695,0.18,0.10,9.97,-0.03,-0.01,-0.00,30.99
60534173,1873,1,190158,225714,0.16,0.12,9.97,-0.03,-0.01,-0.01,30.99
60574173,1887,1,190180,225714,0.18,0.12,9.99,-0.03,-0.01,-0.00,30.99
60614173,1882,1,190175,225747,0.18,0.11,9.98,-0.03,-0.01,-0.00,30.99
60654173,1875,1,190187,225985,0.17,0.13,9.97,-0.03,-0.01,-0.00,30.99
60694173,1878,1,190341,226267,0.17,0.12,9.95,-0.03,-0.01,-0.01,30.99
60734173,1875,1,190395,226285,0.18,0.10,9.98,-0.03,-0.01,-0.00,30.99
60774173,1879,1,190377,226405,0.18,0.11,9.94,-0.03,-0.01,-0.00,30.99
60814173,1872,1,190430,226539,0.18,0.14,9.97,-0.03,-0.01,-0.01,30.99
60854173,1883,1,190550,226727,0.17,0.10,9.97,-0.03,-0.01,-0.00,30.99
60894171,1887,1,190586,226970,0.19,0.11,9.96,-0.03,-0.01,-0.01,30.99
60934207,1872,1,190635,227144,0.19,0.13,10.00,-0.03,-0.01,-0.01,30.99
60974173,1870,1,190679,227422,0.19,0.13,9.97,-0.03,-0.01,-0.01,30.99
61014173,1873,1,190788,227547,0.16,0.12,9.96,-0.03,-0.01,-0.01,30.99
61054173,1878,1,190835,227615,0.18,0.11,9.99,-0.03,-0.01,-0.00,30.99
61094173,1877,1,190835,227459,0.17,0.12,9.98,-0.03,-0.01,-0.00,30.99
61134174,1872,1,190492,225802,0.17,0.11,9.99,-0.03,-0.01,-0.01,30.99
61174173,1872,1,189987,224581,0.18,0.11,10.00,-0.03,-0.01,-0.00,30.99
61214171,1875,1,189720,224100,0.17,0.11,9.97,-0.03,-0.01,-0.00,30.99
61254173,1879,1,189581,223702,0.19,0.10,9.94,-0.03,-0.01,-0.00,30.99
61294171,1888,1,189506,223362,0.19,0.10,9.96,-0.03,-0.01,-0.00,30.99
61334173,1878,1,189483,223337,0.19,0.11,9.96,-0.03,-0.01,-0.01,30.99
61374173,1889,1,189611,223669,0.19,0.11,9.97,-0.03,-0.01,-0.00,30.99
61414860,1874,1,189657,223810,0.20,0.11,9.99,-0.03,-0.01,-0.01,30.97
61453173,1873,1,189734,224222,0.19,0.11,9.96,-0.03,-0.01,-0.01,30.97
61493173,1872,1,189886,224505,0.16,0.10,9.97,-0.03,-0.01,-0.01,30.97
61533173,1872,1,189995,224883,0.18,0.09,9.96,-0.03,-0.01,-0.00,30.97
61573173,1873,1,190152,225322,0.18,0.10,9.98,-0.03,-0.01,-0.01,30.97
61613173,1865,1,190315,225776,0.19,0.14,9.96,-0.03,-0.01,-0.00,30.97
61653173,1872,1,190436,226018,0.19,0.12,9.98,-0.03,-0.01,-0.01,30.97
