timestamp_us,ecg,leads,ir,red,accX,accY,accZ,gyroX,gyroY,gyroZ,temp
1919492,2159,1,187242,229640,0.00,0.00,0.00,0.00,0.00,0.00,0.00
1949963,1918,1,186830,228073,0.94,-0.82,7.49,-0.06,-0.06,0.01,26.59
1990182,1700,1,187523,228976,0.46,-0.69,12.15,-0.05,0.11,0.03,26.59
2030164,1600,1,187064,229315,1.06,-0.67,9.00,-0.02,-0.05,0.00,26.59
2070176,1486,1,187305,230079,0.48,-0.93,10.74,-0.06,0.05,-0.01,26.59
2110174,1489,1,187047,230135,0.50,-0.78,8.62,-0.02,-0.05,-0.01,26.59
2150197,1466,1,187120,228921,0.98,-1.11,9.03,-0.05,-0.02,-0.00,26.59
2190223,1503,1,187243,231622,0.88,-1.41,9.88,-0.07,0.00,0.11,26.59
2230168,1443,1,188012,230890,0.07,-2.82,10.82,-0.07,0.10,-0.28,26.59
2270176,1526,1,186724,231777,1.19,-0.09,8.19,-0.08,-0.24,0.16,26.59
2310176,1520,1,187475,230192,0.12,-1.17,10.68,-0.06,0.12,-0.12,26.59
2350176,1486,1,186711,231321,0.98,0.23,9.77,0.02,-0.14,0.00,26.59
2390183,1461,1,187283,230883,0.72,-1.21,10.49,-0.10,0.10,-0.12,26.59
2430176,1490,1,186914,231118,0.97,-0.30,9.49,-0.06,-0.07,-0.00,26.59
2470197,1584,1,187545,231149,-0.11,-2.77,11.09,-0.12,0.16,-0.01,26.59
2510197,1631,1,186788,230206,1.47,0.38,9.58,-0.01,-0.24,-0.01,26.59
2550176,1629,1,186995,232425,0.94,-1.20,10.32,-0.06,0.01,-0.00,26.59
2590174,1664,1,187077,231147,0.79,1.27,8.18,-0.13,0.06,-0.51,26.59
2628168,1712,1,187090,231576,0.38,-1.35,10.77,-0.14,0.05,0.10,26.59
2668167,1775,1,186933,230783,1.14,0.18,10.55,-0.04,0.06,-0.04,26.59
2708168,1813,1,187070,231202,0.53,-0.63,9.74,-0.07,0.05,-0.01,26.59
2748174,1869,1,187277,231695,0.49,-1.08,10.70,-0.02,0.05,-0.07,26.59
2788176,1898,1,187339,231066,0.53,-1.12,10.61,-0.03,-0.06,-0.01,26.59
2829197,1909,1,187377,232698,0.48,-2.09,10.26,-0.01,-0.09,0.02,26.59
2869176,1948,1,186864,230348,0.45,-0.81,7.34,-0.10,-0.11,-0.02,26.59
2909194,1950,1,186245,228976,0.04,-1.92,8.86,-0.04,0.05,0.00,26.59
2949167,2030,1,185801,227028,0.02,-1.51,8.27,-0.08,0.05,-0.01,26.59
2989860,2111,1,185386,226948,0.34,-1.89,8.87,-0.00,0.00,0.12,26.41
3028167,2005,1,185857,229484,0.48,-1.25,9.98,-0.00,0.04,-0.03,26.41
3068174,1964,1,186404,230564,0.73,-0.96,9.33,-0.01,-0.04,-0.04,26.41
3108197,1949,1,187091,231516,-0.38,-0.85,9.71,0.01,0.02,0.03,26.41
3148164,1971,1,186793,230631,0.29,-1.49,10.62,0.02,-0.09,0.01,26.41
3188168,1973,1,186316,230469,0.61,-1.25,10.00,-0.02,-0.05,0.24,26.41
3228174,1968,1,186367,229911,0.17,-1.78,9.49,-0.00,-0.03,-0.00,26.41
3268197,1985,1,186336,231310,0.42,-0.25,10.03,0.04,-0.01,-0.00,26.41
3308174,1937,1,187455,232859,-0.03,-2.32,11.72,-0.05,0.08,-0.02,26.41
3348197,1975,1,187189,233588,0.34,-0.81,9.22,-0.01,-0.10,-0.04,26.41
3388194,1919,1,188062,232731,-0.15,-2.73,12.58,-0.06,0.04,-0.13,26.41
3428196,1985,1,186809,231572,0.85,-0.42,8.43,-0.02,-0.29,0.02,26.41
3468176,1968,1,187417,230748,-0.36,-1.69,12.01,-0.07,0.16,0.01,26.41
3508176,2025,1,186668,231205,0.50,-0.35,8.94,0.01,-0.16,-0.00,26.41
3548174,2030,1,187717,233197,-0.25,-2.84,12.83,-0.03,0.15,-0.08,26.41
3588197,1990,1,186969,231976,0.04,-1.05,7.79,-0.01,-0.13,-0.04,26.41
3628193,1840,1,187110,230278,-0.54,-1.91,9.45,-0.03,0.04,0.04,26.41
3668176,1818,1,185883,229228,0.78,-0.67,9.38,-0.00,-0.16,-0.01,26.41
3708197,1811,1,186283,230665,-0.16,-1.30,8.88,-0.06,0.07,-0.00,26.41
3748196,1792,1,186628,231610,0.83,-1.26,10.54,-0.01,0.00,-0.05,26.41
3788174,1803,1,186728,230676,-0.14,-0.58,8.91,-0.07,0.05,-0.00,26.41
3827196,1821,1,186901,231676,0.73,-1.02,11.26,0.03,-0.01,0.01,26.41
3867164,1793,1,187190,232187,0.33,-0.78,9.91,0.00,-0.00,-0.00,26.41
3907176,1809,1,187372,233043,0.34,-1.13,9.92,-0.00,0.01,0.00,26.41
3947164,1824,1,187305,232485,0.42,-0.88,10.14,-0.01,0.01,-0.00,26.41
3987177,1841,1,186995,232227,0.53,-1.05,8.57,-0.05,-0.04,0.03,26.41
4027865,1856,1,187282,232742,0.24,-1.20,9.90,-0.04,0.07,0.00,26.37
4068167,1843,1,187039,232599,0.53,-0.98,8.93,-0.07,0.02,-0.01,26.37
4108174,1861,1,187486,233096,0.28,-0.78,10.84,-0.03,0.08,-0.01,26.37
4148177,1874,1,187216,232264,0.38,-0.66,9.40,-0.05,-0.02,-0.01,26.37
4188193,1919,1,187047,232384,0.74,-0.52,9.60,-0.04,-0.02,-0.01,26.37
4228197,1894,1,187132,231785,0.52,-1.64,9.82,-0.06,0.06,-0.01,26.37
4268177,1920,1,186593,231564,0.85,-0.66,9.49,-0.01,-0.04,0.00,26.37
4308176,1930,1,186977,230059,-0.24,-1.47,8.87,-0.05,0.11,0.00,26.37
4348177,1983,1,185524,229004,1.16,-0.60,8.36,0.00,-0.16,0.01,26.37
4388168,1889,1,186767,230480,0.52,-1.25,11.85,-0.03,0.13,0.02,26.37
4428167,1904,1,185521,228086,0.89,-0.34,5.95,-0.00,-0.27,0.02,26.37
4468176,1973,1,186262,230638,1.20,-0.96,11.59,-0.03,0.10,0.04,26.37
4508164,1910,1,185862,228589,1.00,0.47,6.76,0.01,-0.14,-0.05,26.37
4548167,1931,1,187374,234266,-0.01,-0.91,14.01,-0.01,0.22,0.06,26.37
4588174,1808,1,187825,231891,0.61,0.70,9.44,0.04,-0.04,-0.74,26.37
4628167,1707,1,187464,233895,1.35,-0.94,14.58,0.00,-0.13,0.40,26.37
4668165,1639,1,187557,231413,0.31,-0.45,9.98,-0.11,0.03,0.01,26.37
4708167,1777,1,187652,233092,0.64,-1.90,12.91,0.10,-0.14,0.84,26.37
4748167,1971,1,187564,231525,0.72,-1.07,7.96,-0.08,-0.02,0.03,26.37
4788176,2091,1,187280,233668,0.91,-1.50,9.54,0.00,-0.25,0.31,26.37
4828167,2082,1,187940,233386,0.06,-2.23,8.92,-0.15,0.09,-0.16,26.37
4866176,2024,1,187382,234557,0.91,0.75,8.13,-0.02,-0.19,-0.03,26.37
4906174,1911,1,188174,233220,0.53,-1.73,11.46,-0.09,0.04,-0.43,26.37
4946176,1969,1,187089,231566,0.44,-0.17,9.04,0.02,-0.13,0.01,26.37
4986163,2000,1,187308,231146,1.30,-2.35,11.69,-0.01,-0.07,0.03,26.37
5026180,2034,1,186777,231129,0.75,-1.52,7.73,0.01,-0.12,0.07,26.37
5066854,2042,1,186932,231554,0.68,-1.64,8.86,-0.03,0.02,0.02,26.35
5107167,2067,1,187135,231952,0.29,-0.82,9.26,-0.03,0.05,0.01,26.35
5147164,2014,1,187142,232233,0.15,-1.12,9.44,0.01,-0.04,-0.08,26.35
5187176,2019,1,187186,232534,0.51,-1.02,9.99,0.01,0.00,0.01,26.35
5227145,1933,1,187243,232067,-0.11,-1.71,9.73,0.02,-0.01,-0.02,26.35
5267197,1925,1,186723,231998,0.86,-0.82,9.91,0.07,-0.10,0.01,26.35
5307164,1885,1,187125,232229,0.43,-0.74,10.01,0.00,0.04,0.02,26.35
5347146,1896,1,186957,233560,0.45,-0.91,9.34,0.02,-0.02,0.03,26.35
5387163,1868,1,188042,233690,0.34,-1.71,11.34,-0.03,0.08,-0.04,26.35
5427176,1869,1,187017,234052,1.03,-0.97,9.09,0.03,-0.13,0.01,26.35
5467223,1840,1,187819,233420,0.31,-0.66,10.27,-0.07,0.09,-0.02,26.35
5507176,1827,1,187085,233811,0.91,-0.04,9.41,-0.00,-0.09,0.02,26.35
5547174,1822,1,188074,234133,0.25,-0.78,11.17,-0.08,0.14,0.00,26.35
5587167,1834,1,187064,233358,0.79,-0.51,9.90,-0.03,-0.07,0.02,26.35
5627174,1817,1,187786,233844,-0.03,-1.03,11.15,-0.09,0.10,0.01,26.35
5667224,1802,1,186751,231657,0.96,-0.17,9.75,-0.05,-0.11,0.03,26.35
5707174,1802,1,186888,232769,0.39,-1.87,11.67,-0.08,0.02,0.07,26.35
5747168,1834,1,186151,231493,0.66,-0.29,6.71,-0.10,-0.08,-0.00,26.35
5787193,1823,1,187201,233294,-0.16,-1.95,9.90,-0.18,0.28,-0.01,26.35
5827197,1856,1,186327,230882,1.30,0.61,8.24,-0.10,0.02,-0.06,26.35
5867164,1808,1,187154,233729,0.02,-1.61,13.94,-0.07,0.20,0.04,26.35
5907167,1863,1,186593,231412,0.73,0.16,6.77,-0.10,-0.03,-0.18,26.35
5947174,1840,1,186932,233279,0.38,-2.03,12.62,-0.03,0.09,0.05,26.35
5985167,1863,1,186432,230786,0.78,-0.40,6.41,-0.18,0.04,-0.21,26.35
6025180,1899,1,186954,232800,0.50,-1.64,11.78,-0.05,0.06,0.15,26.35
6065168,1881,1,186893,231732,0.30,-1.13,9.34,-0.19,0.16,-0.34,26.35
6105863,1870,1,186688,232540,0.77,-1.13,10.40,-0.04,-0.07,0.01,26.35
6146198,1867,1,187019,231259,0.19,-0.93,11.05,-0.07,0.12,-0.09,26.35
6186174,1914,1,186747,231074,0.03,-1.28,10.90,-0.02,-0.13,0.18,26.35
6226176,1947,1,186546,229732,0.28,-1.38,10.92,-0.02,0.03,-0.01,26.35
6266176,1953,1,185931,230097,0.59,-0.85,9.11,-0.03,-0.23,-0.02,26.35
6306197,1962,1,186434,230736,-0.35,-2.35,9.55,-0.05,0.09,-0.05,26.35
6346196,1949,1,185609,230220,0.91,-0.65,7.58,-0.07,-0.24,-0.05,26.35
6386196,1922,1,186639,232863,0.48,-1.74,11.41,-0.03,0.14,-0.04,26.35
6426177,1911,1,186318,232259,0.06,0.93,6.62,-0.11,-0.01,-0.10,26.35
6466176,1915,1,187129,231907,0.36,-2.22,13.08,-0.01,0.23,-0.01,26.35
6506177,1904,1,185625,228620,0.39,-0.62,6.67,-0.08,-0.21,0.07,26.35
6546176,1913,1,185637,229082,1.42,-2.21,12.89,0.13,0.07,0.00,26.35
6586145,1882,1,185524,230059,0.08,-1.09,9.30,0.02,-0.06,-0.02,26.35
6626176,1855,1,186485,232269,0.34,-1.66,10.30,0.02,-0.08,-0.03,26.35
6666176,1840,1,186630,232556,0.01,-0.77,8.69,-0.01,-0.04,-0.03,26.35
6706197,1829,1,187187,234540,0.36,-1.89,10.86,0.01,-0.09,-0.01,26.35
6746177,1857,1,186779,231655,0.56,-1.28,9.25,-0.05,-0.08,-0.05,26.35
6786197,1890,1,186588,232206,-0.31,-1.19,10.78,0.02,-0.05,0.11,26.35
6826177,1895,1,186766,230983,0.19,0.02,12.74,0.01,0.13,-0.05,26.35
6866145,1890,1,185626,231524,0.41,-0.79,9.01,-0.03,-0.18,-0.02,26.35
6906194,1861,1,186965,232122,0.10,-2.07,12.62,0.00,0.14,-0.03,26.35
6946167,1878,1,185746,230836,0.17,-1.71,7.19,-0.04,-0.27,0.00,26.35
6986174,1877,1,185799,231508,0.42,-2.05,9.57,-0.08,0.05,-0.01,26.35
7026179,1881,1,186048,231718,-0.07,-0.67,8.48,-0.06,0.04,-0.03,26.35
7064193,1875,1,186687,230537,0.22,-0.14,10.99,-0.05,0.13,-0.01,26.35
7104176,1883,1,185704,230935,0.46,-1.16,10.86,-0.05,-0.05,0.11,26.35
7144863,1863,1,186059,230365,0.52,-1.42,10.59,-0.01,0.09,-0.02,26.53
7185176,1891,1,185911,232343,0.94,-0.14,10.29,0.01,-0.01,-0.05,26.53
7225177,1871,1,187295,232884,0.44,-1.71,10.77,-0.04,0.08,-0.02,26.53
7265176,1904,1,185804,230538,0.48,-0.84,8.34,-0.14,-0.11,-0.00,26.53
7305234,1873,1,186125,230430,0.51,-2.18,12.22,0.15,0.05,0.02,26.53
7345145,1862,1,184953,228782,-0.28,-0.21,7.65,-0.01,-0.05,0.00,26.53
7385193,1837,1,186121,230825,1.15,-2.16,14.58,0.22,0.12,-0.00,26.53
7425167,1846,1,185043,228605,0.20,-0.40,7.71,-0.03,-0.17,-0.00,26.53
7465193,1831,1,185071,228871,0.33,-1.24,11.75,-0.01,0.06,0.11,26.53
7505168,1857,1,184384,226260,0.81,-0.30,9.05,0.04,-0.09,-0.01,26.53
7545174,1818,1,184272,227075,0.39,-1.87,9.13,-0.04,-0.05,0.05,26.53
7585176,1897,1,184364,226078,1.28,-2.12,10.36,-0.05,-0.00,-0.01,26.53
7625196,1898,1,183841,230139,0.14,-0.54,6.98,-0.28,0.09,0.27,26.53
7665168,1887,1,186293,228992,1.23,-0.74,9.50,0.02,0.06,-0.30,26.53
7705164,1918,1,184574,229202,0.21,-0.69,8.15,-0.05,-0.13,0.09,26.53
7745176,1889,1,186430,230282,0.17,-0.82,12.42,-0.01,0.18,0.01,26.53
7785167,1903,1,185505,230786,0.62,-1.76,10.29,0.03,-0.18,0.04,26.53
7825168,1878,1,186039,232291,0.40,-1.11,9.41,-0.06,-0.09,0.01,26.53
7865174,1860,1,186517,229940,-0.20,-0.38,9.64,-0.02,0.05,-0.01,26.53
7905196,1935,1,186113,231380,0.77,-0.11,10.24,-0.03,-0.12,-0.01,26.53
7945197,1877,1,186952,231407,-0.11,-2.28,11.69,-0.03,0.10,-0.09,26.53
7985197,1884,1,186203,232613,0.24,-2.34,9.21,-0.04,-0.19,0.09,26.53
8025180,1878,1,186441,230121,0.27,-1.19,8.04,-0.08,0.01,-0.29,26.53
8065176,1904,1,185409,227079,0.25,-0.21,8.21,-0.03,-0.21,0.05,26.53
8105176,1895,1,184703,228216,0.52,-1.72,9.98,-0.04,0.08,-0.03,26.53
8145862,1857,1,186268,232604,0.38,-2.20,11.94,0.01,0.02,-0.28,26.37
8184167,1861,1,187452,234040,1.10,-2.96,11.04,-0.04,-0.08,-0.10,26.37
8224196,1869,1,187539,232018,-0.20,0.29,9.83,-0.00,-0.05,-0.17,26.37
8264194,1894,1,186139,229568,0.25,-2.98,10.62,-0.02,-0.19,0.01,26.37
8304176,1937,1,185244,228673,-0.09,-0.60,8.58,0.01,-0.06,0.02,26.37
8344174,1859,1,185685,229628,-0.87,-1.87,10.79,-0.03,0.19,0.00,26.37
8384176,1886,1,185239,231869,0.48,-2.27,7.88,-0.03,-0.16,-0.01,26.37
8424196,1787,1,188207,232757,0.49,-2.65,13.14,0.02,0.10,-0.13,26.37
8464168,1923,1,185494,231835,0.32,-0.58,5.61,-0.03,-0.48,0.08,26.37
8504174,1808,1,187071,230808,-0.44,-2.29,11.95,-0.02,0.29,-0.14,26.37
8544197,1955,1,184946,230498,0.15,-0.75,6.14,-0.07,-0.37,0.36,26.37
8584177,1804,1,185695,229074,-0.15,-1.55,9.31,-0.05,0.23,-0.07,26.37
8624196,1973,1,184518,229272,0.25,-0.65,7.12,-0.07,-0.26,0.09,26.37
8664177,1867,1,185737,231348,-0.04,-1.97,12.66,0.00,0.25,-0.00,26.37
8704176,1885,1,185799,230773,0.37,0.31,8.66,-0.04,-0.06,-0.03,26.37
8744223,1824,1,186880,232154,0.00,-1.90,14.95,0.07,0.08,-0.04,26.37
8784167,1905,1,186292,230149,0.23,-0.04,10.80,-0.03,-0.12,0.05,26.37
8824174,1867,1,185649,229882,-0.05,-1.46,10.42,-0.03,-0.11,0.17,26.37
8864197,1991,1,184656,226578,-0.37,-0.69,6.77,-0.13,0.04,0.04,26.37
8904174,1926,1,184147,228494,1.84,-0.44,11.75,-0.02,-0.01,-0.11,26.37
8944214,1966,1,184309,228113,1.09,-0.36,7.86,-0.08,0.02,-0.02,26.37
8984174,1873,1,186135,233325,0.25,-1.01,10.41,-0.06,0.11,-0.00,26.37
9024245,1895,1,187182,232961,0.68,-0.89,9.32,-0.05,-0.02,-0.12,26.37
9064196,1828,1,187251,234605,-0.29,-1.14,10.14,-0.03,-0.01,0.02,26.37
9104197,1907,1,187270,234303,0.96,-1.38,11.18,-0.05,-0.07,-0.00,26.37
9144196,1909,1,187497,235120,0.26,-0.68,10.88,-0.04,-0.05,-0.00,26.37
9184883,1984,1,187001,234474,1.05,-1.08,9.48,-0.11,-0.14,-0.01,26.61
9223197,1946,1,187700,235097,-0.46,-2.11,12.28,-0.03,0.17,-0.01,26.61
9263197,2000,1,186577,232991,1.16,0.92,7.47,-0.11,-0.22,-0.04,26.61
9303176,1935,1,187114,234662,0.55,-1.54,12.69,-0.00,0.17,-0.02,26.61
9343176,1968,1,186839,233786,0.64,0.37,6.69,-0.10,-0.04,-0.19,26.61
9383174,1904,1,187439,234691,0.83,-1.78,12.57,-0.01,0.03,-0.09,26.61
9423176,1973,1,186839,232537,0.15,-0.53,7.26,-0.10,-0.05,-0.04,26.61
9463193,1889,1,186602,233290,0.91,-2.42,11.65,-0.00,-0.16,0.02,26.61
9503176,1892,1,186109,231201,0.35,0.07,7.86,-0.07,-0.03,-0.01,26.61
9543174,1857,1,186024,233047,0.68,-2.38,9.60,-0.02,-0.05,0.03,26.61
9583176,1887,1,185994,230937,1.37,-0.59,7.56,-0.06,0.02,-0.10,26.61
9623174,1857,1,185567,232300,0.29,-1.30,7.87,-0.05,-0.03,-0.01,26.61
9663197,1872,1,186647,232301,0.33,-1.13,9.92,0.05,0.15,-0.15,26.61
9703167,1808,1,186812,233626,0.10,-0.46,8.82,0.01,-0.05,0.02,26.61
9743168,1777,1,187452,234542,1.06,-2.05,10.59,0.02,-0.02,0.00,26.61
9783164,1782,1,186833,234089,0.15,0.16,8.37,0.00,-0.09,-0.00,26.61
9823167,1808,1,186915,234262,0.73,-0.59,10.23,0.02,-0.03,0.03,26.61
9863164,1805,1,186874,235564,0.28,-0.59,8.50,-0.06,0.04,0.07,26.61
9903167,1776,1,188213,235210,0.11,-0.59,11.02,-0.07,0.13,-0.00,26.61
9943174,1792,1,187164,234102,0.55,-0.98,11.49,-0.02,0.05,0.05,26.61
9983167,1728,1,186998,232801,0.24,-0.77,12.10,-0.03,0.02,-0.00,26.61
10023185,1757,1,186863,233149,-0.13,-1.31,12.82,-0.00,0.00,0.05,26.61
10063176,1790,1,186022,229997,0.79,-0.06,11.49,-0.04,-0.14,-0.02,26.61
10103197,1853,1,185616,231770,1.39,-3.64,13.80,-0.03,-0.16,0.11,26.61
10143176,1906,1,185116,228858,-0.79,-1.29,6.44,-0.13,0.02,-0.01,26.61
10183197,1883,1,185384,231611,0.59,-1.53,11.41,-0.04,-0.01,-0.00,26.61
10223883,1933,1,185790,230404,0.42,-1.51,8.29,-0.12,0.00,-0.13,26.41
10262176,1955,1,185333,230760,0.33,-1.22,9.80,-0.08,-0.15,-0.00,26.41
10302197,1968,1,185750,229680,0.42,-1.68,10.31,-0.06,0.11,-0.01,26.41
10342177,1953,1,184972,229438,0.54,-1.70,7.69,-0.04,-0.25,0.01,26.41
10382177,1933,1,185376,229147,0.24,-1.68,8.81,-0.07,0.12,0.01,26.41
10422167,1927,1,184681,229201,-0.57,-0.53,4.97,-0.10,-0.13,0.14,26.41
10462196,1904,1,185694,231347,1.01,-1.98,11.13,-0.03,0.18,-0.02,26.41
10502176,1911,1,185231,231207,-0.13,0.15,6.46,-0.10,0.04,0.04,26.41
10542168,1904,1,185921,229852,0.27,-0.64,11.71,0.01,0.20,-0.05,26.41
10582211,1940,1,185305,230193,-0.17,-0.18,9.84,-0.06,-0.10,0.22,26.41
10622197,1895,1,185687,229581,0.65,-1.42,11.99,0.00,0.10,0.09,26.41
10662145,1951,1,185248,229812,0.92,-0.83,10.62,0.01,-0.07,0.10,26.41
10702168,1873,1,185865,229710,-0.74,-1.50,11.59,-0.00,0.16,-0.00,26.41
10742197,1927,1,184847,230524,0.79,-1.10,9.43,-0.07,-0.13,0.03,26.41
10782176,1850,1,185775,230047,-0.49,-1.92,10.42,-0.03,-0.01,-0.12,26.41
10822210,1952,1,184881,228691,1.30,-0.21,7.39,-0.12,-0.26,-0.01,26.41
10862197,1889,1,185405,227684,-0.04,-2.41,10.13,-0.08,0.22,-0.03,26.41
10902197,1953,1,184780,227781,0.60,0.85,9.58,0.00,-0.17,0.01,26.41
10942146,1903,1,185422,230609,-0.38,-2.10,11.59,0.01,0.21,-0.01,26.41
10982176,1921,1,185011,229841,0.34,0.26,7.60,-0.08,0.01,-0.05,26.41
11022167,1902,1,186002,231556,-0.49,-2.96,10.33,-0.02,0.06,0.02,26.41
11062177,1953,1,185289,229948,0.65,-0.09,8.52,-0.02,-0.06,-0.03,26.41
11102196,1911,1,185920,232440,0.08,-4.16,11.57,-0.02,-0.02,0.02,26.41
11142176,1936,1,185924,230744,0.34,0.56,8.33,-0.01,0.01,-0.11,26.41
11182167,1931,1,186145,232740,-1.35,-2.36,11.78,-0.00,0.06,0.19,26.41
11222177,1938,1,186032,230484,1.05,-0.78,9.37,0.01,0.01,-0.11,26.41
11262855,1903,1,185848,231608,-0.57,-2.52,11.67,0.01,-0.06,0.07,26.27
11301177,1942,1,185445,229866,0.51,0.11,8.27,0.04,-0.05,-0.11,26.27
11341168,1892,1,185489,231637,0.28,-1.59,10.66,-0.02,-0.10,0.00,26.27
11381177,1903,1,185989,231088,0.07,-1.71,9.54,-0.01,0.02,-0.13,26.27
11421176,1852,1,185587,232047,-0.26,-1.17,8.53,-0.05,-0.12,0.12,26.27
11461197,1847,1,185932,232104,0.20,-1.20,11.12,-0.05,-0.00,-0.08,26.27
11501197,1855,1,186231,231918,-0.11,-1.05,11.63,-0.05,-0.00,0.01,26.27
11541197,1917,1,185875,230423,0.33,-0.37,9.63,-0.10,-0.06,-0.01,26.27
11581197,1871,1,185658,229674,0.50,-0.44,11.90,0.01,0.09,-0.02,26.27
11621163,1882,1,185191,230466,0.37,-0.83,9.19,-0.10,0.01,-0.06,26.27
11661176,1851,1,185802,230913,0.14,-1.24,11.40,0.04,0.12,-0.13,26.27
11701167,1870,1,185643,231766,0.12,-1.25,8.55,-0.10,-0.12,0.05,26.27
11741176,1831,1,185980,231322,0.37,-2.35,10.30,-0.01,-0.02,-0.06,26.27
11781197,1859,1,185558,230037,1.11,-1.50,9.33,-0.04,-0.18,-0.00,26.27
11820197,1898,1,185336,229600,0.34,-1.38,8.24,-0.04,-0.05,0.04,26.27
11860176,1903,1,184765,228176,1.04,-0.36,8.81,-0.03,0.03,-0.07,26.27
11900176,1913,1,184516,230053,0.12,-0.67,8.04,-0.07,0.06,-0.07,26.27
11940174,1830,1,184808,229703,0.62,0.70,8.98,0.03,0.15,-0.28,26.27
11980145,1831,1,185295,230796,0.00,-1.27,11.77,-0.01,0.10,0.01,26.27
12020190,1822,1,185303,230713,0.10,-0.60,10.37,0.02,-0.02,-0.02,26.27
12060176,1813,1,185108,228997,-0.17,-0.38,8.68,0.03,-0.08,0.01,26.27
12100176,1906,1,184099,228232,1.75,-0.73,9.82,0.00,-0.14,0.00,26.27
12140167,1880,1,184039,227459,0.02,-1.72,9.57,-0.04,0.13,-0.00,26.27
12180174,1931,1,183654,228037,0.67,-0.43,9.59,-0.01,-0.08,-0.01,26.27
12220231,1845,1,184362,228691,0.43,-1.40,11.45,-0.02,0.05,-0.01,26.27
12260177,1890,1,184483,230235,0.23,-1.02,9.46,-0.03,-0.15,-0.00,26.27
12300883,1872,1,185398,229988,-0.44,-1.40,11.98,-0.03,0.08,-0.00,26.49
12341196,1891,1,185310,229848,0.57,0.07,10.79,0.01,-0.18,0.02,26.49
12381145,1882,1,185557,229845,0.31,-1.63,12.86,-0.01,0.01,0.04,26.49
12421167,1902,1,184923,229234,0.41,-0.58,7.51,-0.05,-0.24,-0.02,26.49
12461196,1895,1,185311,230078,0.06,-2.30,12.55,-0.05,0.19,-0.04,26.49
12501177,1921,1,185392,230493,0.22,-0.62,9.67,-0.02,-0.08,-0.02,26.49
12541197,1879,1,185963,231346,-0.03,-0.88,10.87,0.00,-0.02,0.01,26.49
12581176,1921,1,186416,232207,0.62,-1.15,10.48,0.03,-0.14,0.01,26.49
12621167,1872,1,186376,231826,0.07,-1.51,8.81,-0.03,-0.09,0.08,26.49
12661174,1874,1,186422,232707,1.08,-1.29,10.43,0.07,0.02,-0.03,26.49
12701168,1872,1,186207,231989,0.28,-0.05,8.23,-0.01,-0.02,0.01,26.49
12741174,1887,1,186782,233385,0.93,-1.90,11.26,-0.03,0.02,0.01,26.49
12781168,1868,1,186897,232459,0.06,0.21,7.67,-0.08,-0.04,0.01,26.49
12819163,1890,1,187917,233604,0.79,-1.03,11.04,0.04,-0.10,0.14,26.49
12860168,1891,1,187975,232669,0.82,-0.11,10.35,0.06,0.09,-0.01,26.49
12900167,1934,1,187192,232720,0.92,-0.95,8.86,-0.02,-0.06,0.06,26.49
12940176,2014,1,187364,232863,0.42,-0.70,10.87,-0.01,0.15,0.05,26.49
12980167,1904,1,187015,233412,0.83,-0.62,8.00,-0.08,-0.17,0.19,26.49
13020176,1885,1,187755,234456,0.28,0.08,11.95,0.05,0.24,0.05,26.49
13060126,1885,1,187945,234503,0.95,0.81,10.86,0.04,-0.09,0.02,26.49
13100145,1866,1,188439,235500,0.54,-0.38,10.48,0.00,-0.03,0.15,26.49
13140167,1869,1,188554,235789,0.74,-0.41,10.91,-0.08,0.08,0.01,26.49
13180168,1857,1,188434,235735,1.24,-1.52,10.98,-0.01,-0.10,0.00,26.49
13220177,1872,1,188552,236191,0.05,0.07,9.86,-0.08,0.10,0.02,26.49
13260146,1883,1,188511,235787,1.09,-1.13,10.75,-0.02,-0.04,-0.01,26.49
13300197,1853,1,188508,235830,0.96,0.10,10.42,-0.02,-0.09,0.00,26.49
13340854,1856,1,187806,234405,0.77,0.12,7.21,-0.19,-0.14,-0.00,26.23
13379177,1895,1,187437,233406,1.25,-0.20,10.65,0.08,0.14,0.02,26.23
13419145,1882,1,186567,230355,0.26,-1.13,9.63,-0.13,0.12,0.04,26.23
13459167,1869,1,186747,232628,0.47,-0.80,11.42,0.10,-0.14,0.11,26.23
13499168,1846,1,187337,232588,0.05,-1.99,10.90,-0.01,0.00,0.03,26.23
13539163,1869,1,187236,232496,0.85,-0.53,8.03,-0.16,-0.31,0.07,26.23
13579176,1852,1,188069,232097,0.98,-1.11,10.57,0.03,0.13,0.03,26.23
13619145,1898,1,187214,231072,0.20,-0.34,7.36,-0.14,-0.08,0.00,26.23
13659223,1923,1,187074,230945,1.32,-1.28,9.44,0.01,0.11,0.03,26.23
13699145,1977,1,186759,230934,0.41,0.00,7.48,-0.10,0.05,0.17,26.23
13739146,1873,1,187395,232346,0.24,-0.57,10.23,0.18,0.08,0.08,26.23
13779145,1853,1,187621,233332,0.65,-0.89,10.60,-0.01,-0.01,-0.02,26.23
13819197,1823,1,188238,234236,-0.08,-1.49,11.74,0.03,-0.08,0.10,26.23
13859209,1855,1,188592,235196,0.52,-1.25,8.37,-0.01,-0.11,0.01,26.23
13899176,1794,1,188662,235084,0.39,-1.99,9.32,-0.09,-0.01,-0.01,26.23
13939196,1877,1,188194,233310,0.18,-1.58,8.47,-0.10,0.04,-0.03,26.23
13979176,1825,1,187807,232787,1.11,0.07,11.31,0.01,-0.04,-0.03,26.23
14019167,1877,1,187988,233431,0.05,-1.77,9.79,-0.06,-0.02,-0.00,26.23
14059196,1849,1,187850,231886,-0.21,-0.87,10.16,-0.03,-0.00,-0.09,26.23
14099210,1836,1,187406,231168,0.75,-1.21,10.18,-0.07,-0.07,0.03,26.23
14139176,1856,1,187941,232191,0.07,-1.06,10.00,-0.01,-0.04,0.01,26.23
14179174,1856,1,187648,230860,0.91,-1.09,9.01,-0.06,-0.06,0.00,26.23
14219176,1878,1,187588,232068,0.11,-1.96,9.85,-0.04,-0.00,0.00,26.23
14259174,1885,1,186925,230127,0.57,-0.88,9.21,-0.06,0.01,-0.30,26.23
14299176,1968,1,186744,231172,0.19,-0.92,9.59,-0.05,-0.07,0.08,26.23
14339174,1899,1,186322,229052,0.75,-0.56,9.09,-0.03,0.04,-0.06,26.23
14379863,1953,1,186299,229993,0.40,-1.69,10.86,0.01,-0.08,0.09,26.37
14418167,1874,1,185479,228232,0.29,-1.88,9.82,-0.01,0.09,-0.19,26.37
14458176,1935,1,185199,229538,0.55,-0.32,10.56,-0.01,-0.05,0.00,26.37
14498174,1875,1,185748,230351,0.20,-1.13,10.15,0.02,0.02,-0.09,26.37
14538167,1936,1,186817,232817,0.86,0.21,10.86,0.01,-0.12,0.02,26.37
14578145,1901,1,187699,233279,0.27,-1.34,11.72,-0.01,0.02,0.00,26.37
14618168,1941,1,187493,232706,0.84,-0.56,9.00,-0.04,-0.09,-0.01,26.37
14658193,1914,1,187656,232027,-0.18,-1.79,11.99,-0.02,0.12,0.00,26.37
14698176,1962,1,186984,230453,0.74,-0.47,8.60,-0.02,-0.14,-0.03,26.37
14738196,1924,1,186578,229654,0.31,-1.99,11.15,0.03,0.02,-0.03,26.37
14778168,1965,1,185914,229159,1.07,-0.28,6.64,-0.04,-0.10,-0.05,26.37
14818197,1930,1,186120,229723,0.51,-0.62,10.25,-0.04,0.06,-0.00,26.37
14858176,1997,1,185921,230332,1.15,-0.12,6.75,-0.08,-0.06,-0.00,26.37
14898196,1869,1,186403,230716,0.65,-0.43,11.13,-0.02,0.13,-0.00,26.37
14938176,1925,1,186288,231475,1.61,-0.29,8.29,-0.06,-0.08,-0.01,26.37
14978196,1871,1,186984,232144,0.80,0.34,11.49,0.02,0.08,0.00,26.37
15018126,1903,1,186419,231456,1.64,0.41,8.35,-0.06,-0.08,-0.03,26.37
15058174,1860,1,186453,231699,-0.02,-0.73,11.04,-0.02,0.22,-0.04,26.37
15098197,1841,1,185821,231100,1.24,-0.14,9.73,-0.00,-0.02,-0.17,26.37
15138196,1787,1,186415,233258,0.01,-1.41,11.46,0.02,0.00,0.01,26.37
15178145,1811,1,186450,232760,0.70,-0.68,7.52,-0.12,-0.03,-0.10,26.37
15218197,1846,1,187063,233364,-0.05,-1.28,12.93,0.00,0.03,0.00,26.37
15258167,1879,1,186372,231666,1.54,0.39,8.38,-0.09,-0.09,-0.01,26.37
15298179,1808,1,186359,231321,-0.12,-0.54,9.75,-0.01,-0.01,0.03,26.37
15338197,1843,1,185802,230172,1.09,-1.01,9.66,-0.06,0.00,-0.03,26.37
15378174,1862,1,185580,231361,1.33,-0.52,10.29,-0.04,-0.06,-0.03,26.37
15418884,1844,1,186178,231342,0.18,-0.86,11.88,-0.07,0.07,0.01,26.31
15457167,1920,1,186671,233380,0.93,-1.17,9.78,-0.06,-0.22,0.20,26.31
15497227,1851,1,187254,232895,0.31,-0.45,9.68,-0.02,-0.05,0.06,26.31
15537176,1805,1,187083,232914,0.67,-1.72,10.65,-0.04,-0.11,0.11,26.31
15577176,1845,1,186804,231849,0.68,-1.05,10.36,-0.08,0.08,-0.06,26.31
15617177,1886,1,186748,231938,-0.18,-1.78,9.53,-0.25,0.14,0.03,26.31
15657176,1907,1,186425,230974,0.56,-1.32,7.81,0.00,-0.16,0.01,26.31
15697167,1923,1,186098,230304,0.31,-0.91,8.63,-0.03,-0.03,0.02,26.31
15737176,1855,1,185057,229091,0.98,-1.44,7.95,0.06,-0.01,-0.06,26.31
15777177,1856,1,184901,229713,0.64,-0.36,9.69,-0.01,0.13,-0.01,26.31
15817176,1827,1,186028,232878,1.03,-0.23,10.37,0.02,-0.07,-0.11,26.31
15857177,1830,1,186857,234725,0.38,-0.39,8.65,-0.09,0.03,0.13,26.31
15897167,1878,1,187412,234726,0.29,-0.97,11.28,-0.05,0.02,0.13,26.31
15938167,1891,1,187409,234462,0.26,0.02,11.63,0.04,0.01,0.06,26.31
15978126,1879,1,187471,233682,1.14,-0.28,11.72,0.00,0.05,-0.03,26.31
16018164,1896,1,186777,231563,1.02,-0.79,10.71,0.02,0.02,0.01,26.31
16058145,1895,1,186019,230366,-0.02,-1.70,9.56,-0.14,0.08,0.03,26.31
16098177,1920,1,185451,228928,0.83,-0.68,9.83,-0.01,-0.03,0.05,26.31
16138176,1897,1,185762,230639,0.28,-1.39,10.30,-0.04,-0.01,0.05,26.31
16178176,1931,1,186405,230671,0.32,-0.14,10.62,-0.08,0.13,0.00,26.31
16218168,1909,1,186994,233053,0.85,-0.52,10.93,-0.05,-0.04,0.02,26.31
16258177,1927,1,187256,233240,0.85,-0.76,9.92,-0.07,0.03,-0.01,26.31
16298176,1975,1,187106,232822,1.05,-1.05,10.10,-0.13,-0.02,0.03,26.31
16338176,1950,1,186693,230221,0.31,-1.31,8.99,-0.02,0.00,0.00,26.31
16378167,1954,1,185779,228890,-0.07,0.17,6.89,-0.16,-0.10,0.12,26.31
16418177,1936,1,185171,227600,0.70,-1.67,9.02,0.02,0.18,-0.09,26.31
16456854,1954,1,184089,227026,0.65,0.25,6.77,-0.15,-0.07,-0.01,26.29
16497177,1908,1,184159,226482,0.28,-2.22,11.74,-0.04,0.40,-0.03,26.29
16537176,1883,1,183968,227023,0.51,0.22,7.29,-0.05,-0.07,0.05,26.29
16577164,1871,1,185192,230853,-0.01,-2.38,11.10,-0.06,0.02,0.21,26.29
16617176,1955,1,186464,232309,0.32,-1.21,7.01,-0.05,-0.09,0.02,26.29
16657177,1792,1,187576,233121,0.37,-1.97,12.06,-0.01,0.05,-0.02,26.29
16697176,1907,1,187339,231522,0.11,-1.43,10.43,-0.07,0.07,-0.02,26.29
16737177,1849,1,186816,230408,-0.45,-2.15,10.90,-0.01,0.04,-0.02,26.29
16777196,1873,1,186007,228931,0.55,-0.64,10.75,0.01,-0.01,0.00,26.29
16817164,1914,1,186350,230810,-0.38,-2.01,11.71,-0.02,-0.03,0.01,26.29
16857196,1920,1,186711,230724,0.36,-1.51,11.68,-0.02,-0.04,-0.07,26.29
16897197,1910,1,186999,231567,-0.17,-1.83,11.76,-0.04,-0.10,0.08,26.29
16937203,1909,1,187235,231171,-0.06,-1.30,11.38,-0.04,-0.02,-0.00,26.29
16977209,1929,1,187074,230951,-0.34,-1.32,11.58,-0.05,-0.08,-0.00,26.29
17017213,1934,1,187152,230973,-0.29,-1.15,12.19,0.02,-0.06,0.00,26.29
17057176,1898,1,187292,231053,0.12,-1.71,9.66,-0.05,-0.16,0.01,26.29
17097176,1872,1,187643,231055,-0.16,-1.88,9.17,-0.03,-0.10,0.03,26.29
17137244,1886,1,187443,230144,0.36,-0.89,8.20,-0.05,-0.12,-0.01,26.29
17177197,1915,1,187050,229791,0.28,-1.22,7.96,-0.05,-0.04,-0.02,26.29
17217196,1891,1,187027,230003,-0.08,-1.66,10.68,0.03,0.07,-0.06,26.29
17257176,1904,1,186483,230365,0.75,-0.11,7.94,-0.05,-0.03,-0.06,26.29
17297197,1870,1,186984,231542,-0.40,-0.43,11.02,0.06,0.10,0.04,26.29
17337189,1871,1,187129,232059,0.62,-1.14,7.66,-0.01,-0.09,-0.01,26.29
17377196,1850,1,187284,232263,0.76,-1.22,11.20,0.04,0.06,-0.02,26.29
17417168,1904,1,186623,231278,0.46,-1.19,8.37,-0.01,-0.01,-0.02,26.29
17457197,1870,1,186175,230330,0.74,-0.75,9.93,0.07,0.02,-0.04,26.29
17497854,1886,1,185504,228933,0.49,-0.96,7.92,-0.01,-0.01,-0.04,26.31
17536196,1885,1,185379,229035,0.57,-1.46,9.82,0.04,-0.03,-0.00,26.31
17576176,1856,1,185584,229356,0.19,-1.58,11.54,0.03,0.04,-0.02,26.31
17616167,1853,1,185674,230626,0.29,-1.58,9.65,-0.01,-0.06,-0.01,26.31
17656197,1846,1,186147,231501,0.46,-1.21,10.97,0.03,-0.01,-0.03,26.31
17696176,1844,1,186315,231600,0.18,-1.23,10.46,-0.05,-0.03,0.03,26.31
17736176,1862,1,186487,231237,0.38,0.69,11.14,0.03,-0.00,0.00,26.31
17776145,1863,1,186608,231564,0.37,-1.30,11.28,-0.04,-0.03,0.00,26.31
17816176,1863,1,186383,231026,1.23,-1.38,9.29,-0.06,-0.05,-0.01,26.31
17856197,1869,1,186381,230983,0.45,-0.56,8.32,-0.10,-0.07,-0.01,26.31
17896197,1883,1,186222,229735,0.83,-1.03,10.24,-0.02,-0.02,-0.02,26.31
17936197,1888,1,185886,230034,0.41,-0.82,9.87,-0.06,-0.06,-0.00,26.31
17976197,1866,1,185546,229877,0.49,-1.26,8.14,-0.03,0.00,-0.13,26.31
18016176,1861,1,186049,231309,0.39,-1.02,9.56,-0.04,-0.07,0.05,26.31
18056176,1836,1,186618,231497,0.32,-1.85,8.45,-0.04,-0.06,-0.00,26.31
18096197,1855,1,186822,231038,0.41,-0.90,9.24,-0.02,-0.09,-0.00,26.31
18136197,1873,1,185974,228967,0.50,-2.16,7.86,-0.07,-0.02,-0.01,26.31
18176197,1847,1,185212,228756,1.31,-1.68,8.32,-0.04,-0.05,-0.07,26.31
18216197,1843,1,185333,229539,0.34,-1.38,8.71,-0.06,0.05,-0.04,26.31
18256176,1871,1,185570,229098,0.65,-1.21,9.22,-0.04,-0.06,0.01,26.31
18296176,1879,1,185567,229117,0.02,-1.30,10.74,-0.01,0.04,-0.01,26.31
18336176,1885,1,185190,228218,0.66,-0.77,9.78,-0.03,-0.02,-0.08,26.31
18376197,1872,1,185063,228917,0.54,-1.30,10.68,-0.01,-0.01,-0.01,26.31
18416196,1887,1,184965,228080,0.85,-1.01,9.74,-0.04,-0.03,-0.06,26.31
18456196,1911,1,184606,227946,0.34,-1.31,11.13,-0.00,-0.06,0.02,26.31
18496177,1887,1,184651,228081,-0.42,-2.12,10.26,-0.01,0.03,-0.00,26.31
18536883,1891,1,184452,228968,0.73,-0.85,10.09,-0.06,-0.10,0.03,26.23
18575197,1872,1,185207,228882,-0.68,-0.85,10.67,-0.01,0.06,-0.00,26.23
18615196,1908,1,184926,229577,1.17,-0.82,11.06,-0.05,-0.19,-0.01,26.23
18655196,1909,1,185272,228932,-0.62,-2.21,11.25,-0.04,0.08,-0.00,26.23
18695197,1923,1,184740,229339,1.18,-0.54,7.84,-0.08,-0.26,0.02,26.23
18735177,1879,1,185696,229553,-0.65,-2.95,12.85,0.00,0.14,0.03,26.23
18775179,1915,1,185034,228478,0.35,0.23,6.11,-0.12,-0.27,0.13,26.23
18815167,1871,1,185052,226966,-0.30,-1.38,12.06,0.03,0.20,0.01,26.23
18855168,1907,1,184203,226984,0.68,0.02,7.80,-0.02,-0.13,-0.02,26.23
18895174,1854,1,184633,227667,-0.40,-2.06,10.02,-0.04,0.16,-0.01,26.23
18935197,1904,1,184977,228929,1.02,0.09,9.61,0.00,-0.08,0.02,26.23
18975151,1837,1,185942,230209,-0.13,-1.88,9.88,-0.03,-0.03,0.04,26.23
19015197,1906,1,185810,229612,1.16,0.15,8.22,-0.06,-0.05,-0.02,26.23
19055177,1879,1,185693,229399,0.30,-1.90,9.23,-0.09,0.11,-0.04,26.23
19095176,1919,1,185366,229117,1.10,0.97,8.80,-0.05,0.07,-0.07,26.23
19135163,1871,1,185826,230090,0.18,-0.38,12.36,-0.01,0.18,-0.01,26.23
19175176,1907,1,185737,230738,0.99,-0.01,9.33,-0.05,-0.05,-0.01,26.23
19215194,1871,1,186372,231600,0.72,-1.17,11.78,-0.01,0.09,0.01,26.23
19255168,1885,1,186195,231348,0.91,-0.47,8.71,-0.08,-0.03,-0.02,26.23
19295194,1873,1,186322,231605,0.68,-0.63,12.24,-0.01,0.11,-0.01,26.23
19335176,1903,1,186295,231088,0.60,-0.71,10.05,-0.07,-0.03,-0.02,26.23
19375193,1887,1,186327,231915,0.62,-0.87,12.05,0.01,-0.02,-0.00,26.23
19415176,1885,1,186046,231157,0.61,-0.98,8.48,-0.07,-0.01,-0.01,26.23
19455197,1875,1,186625,232642,0.40,-1.26,11.70,-0.01,-0.03,-0.00,26.23
19495196,1884,1,186633,231831,0.56,-0.94,8.88,-0.07,-0.03,-0.01,26.23
19535196,1901,1,186330,230985,-0.03,-0.93,10.89,-0.07,-0.00,-0.00,26.23
19575897,1904,1,186162,229434,0.48,-0.97,10.55,-0.02,0.00,-0.01,26.27
19614174,1871,1,186057,229385,0.13,-0.79,9.89,-0.06,-0.07,0.02,26.27
19654176,1855,1,186134,229213,0.39,-1.58,10.23,-0.01,0.03,-0.00,26.27
19694176,1863,1,185780,229525,0.44,-0.79,8.23,-0.07,-0.08,-0.01,26.27
19734197,1863,1,186181,229718,0.21,-2.00,10.78,-0.05,0.08,-0.00,26.27
19774174,1884,1,186063,229846,1.08,-1.07,6.92,-0.13,-0.22,-0.01,26.27
19814197,1839,1,185938,229226,0.97,-0.86,8.82,-0.04,0.05,-0.01,26.27
19854176,1843,1,185681,230097,0.77,-0.97,8.92,-0.04,0.03,-0.05,26.27
19894176,1844,1,185686,229431,0.09,-1.66,10.13,-0.04,0.14,-0.14,26.27
19934176,1892,1,185863,231112,0.05,-1.16,11.88,0.02,0.01,0.08,26.27
19974145,1857,1,186345,231575,0.02,-1.49,10.88,0.07,-0.03,0.01,26.27
20014167,1859,1,186254,231841,0.40,-1.36,11.09,0.00,-0.03,0.01,26.27
20054167,1874,1,186033,230776,-0.04,-1.99,10.78,-0.01,0.02,0.00,26.27
20094176,1887,1,185714,230734,0.72,0.28,11.26,0.01,-0.08,-0.00,26.27
20134167,1872,1,185880,230737,-0.09,-2.44,10.60,-0.02,-0.04,0.01,26.27
20174196,1918,1,185485,230019,0.89,-0.09,9.00,-0.04,-0.16,-0.02,26.27
20214214,1904,1,185877,230887,-1.02,-1.39,12.35,0.02,0.12,0.03,26.27
20254167,1904,1,185754,229385,1.30,0.75,10.44,0.04,-0.13,-0.01,26.27
20294167,1909,1,185653,229129,-0.18,-0.96,11.24,-0.02,-0.06,0.11,26.27
20334197,1935,1,185489,227918,0.87,-0.37,9.59,-0.03,-0.01,0.06,26.27
20374176,1893,1,185259,228373,1.28,-1.46,10.32,0.00,-0.15,-0.00,26.27
20414226,1876,1,185386,228208,0.42,-0.71,10.23,0.02,0.02,-0.02,26.27
20454167,1901,1,185030,229299,0.51,-0.61,7.27,-0.10,-0.18,0.03,26.27
20494176,1862,1,185591,229386,0.36,-1.49,11.92,-0.00,0.14,0.00,26.27
20534168,1902,1,185090,229475,1.26,0.18,7.80,-0.03,-0.19,-0.00,26.27
20574176,1843,1,185566,229623,0.18,-0.22,12.02,0.08,0.15,-0.01,26.27
20614872,1889,1,184810,228438,1.58,0.00,8.23,-0.02,-0.08,-0.01,26.53
20653174,1875,1,185024,228942,-0.39,-1.57,8.67,-0.05,0.07,0.00,26.53
20693176,1989,1,184139,226463,0.95,0.38,8.30,-0.03,0.07,-0.14,26.53
20733164,1967,1,183791,227173,0.78,-1.07,9.67,0.04,0.02,-0.03,26.53
20773167,1898,1,183622,226736,0.74,0.62,7.68,-0.06,0.09,-0.31,26.53
20813167,1930,1,184183,228431,-0.48,-1.89,11.46,-0.01,0.06,0.04,26.53
20853176,1847,1,184485,228724,0.67,0.04,10.63,0.01,0.06,-0.06,26.53
20893145,1872,1,184918,229357,0.44,-1.12,11.26,0.00,0.00,0.02,26.53
20933145,1754,1,184742,228799,0.80,-0.49,10.77,-0.02,0.04,-0.01,26.53
20973174,1782,1,184396,227698,0.26,-0.94,11.35,-0.02,0.02,0.04,26.53
21013168,1790,1,184031,228489,1.44,-0.36,9.38,-0.05,-0.08,-0.00,26.53
21053197,1821,1,184438,227927,-0.28,-1.81,11.03,-0.09,0.10,-0.01,26.53
21093197,1839,1,183941,227258,1.08,0.05,9.48,-0.07,-0.04,-0.03,26.53
21133174,1845,1,184408,228032,-1.02,-0.94,12.62,-0.07,0.13,0.00,26.53
21173176,1866,1,184123,227459,0.95,-0.26,9.58,-0.04,-0.09,-0.01,26.53
21213196,1849,1,184505,229020,0.21,-1.92,13.10,-0.05,0.00,-0.01,26.53
21253176,1900,1,184376,228605,0.69,-0.73,7.81,-0.11,-0.03,-0.05,26.53
21293196,1892,1,184414,228521,0.50,-0.95,10.22,-0.08,-0.06,0.05,26.53
21333176,1936,1,184383,228170,0.61,-1.40,9.08,-0.11,-0.04,0.01,26.53
21373176,1911,1,184433,228322,0.18,-1.03,8.15,-0.12,-0.04,0.04,26.53
21413176,1888,1,185031,229447,0.62,-1.16,10.02,-0.05,0.04,-0.04,26.53
21453176,1885,1,186481,234767,0.60,-0.71,8.31,-0.06,-0.04,-0.00,26.53
21493197,1859,1,188006,237215,0.29,-1.76,10.05,0.03,0.04,0.00,26.53
21533145,1883,1,188446,238039,0.51,-0.84,8.97,0.00,-0.01,-0.05,26.53
21573176,1968,1,188220,237921,0.03,-1.71,9.44,-0.01,-0.06,0.03,26.53
21613176,1975,1,187531,236287,-0.20,-0.89,8.55,-0.01,0.02,-0.02,26.53
21653883,2064,1,186476,233464,0.45,-1.68,9.84,0.02,0.00,-0.00,26.47
21692164,2028,1,185552,231325,0.24,-0.73,9.84,0.03,0.00,-0.00,26.47
21732167,2032,1,185357,233931,0.48,-1.26,10.86,0.03,0.03,0.00,26.47
21772145,1934,1,186360,232683,-0.35,-1.58,8.88,0.02,0.02,0.00,26.47
21812168,1904,1,185209,232700,0.62,-0.84,10.39,0.04,-0.07,0.05,26.47
21852174,1844,1,185510,233074,0.16,-1.34,9.88,0.02,-0.01,0.00,26.47
21892167,1773,1,186121,235168,0.22,-1.35,10.53,-0.01,-0.01,-0.00,26.47
21932196,1775,1,187014,236736,0.07,-1.48,11.34,-0.03,0.01,-0.01,26.47
21972176,1799,1,187550,238150,0.43,-0.37,12.08,-0.02,-0.02,0.01,26.47
22012174,1865,1,187444,237496,0.30,-0.49,11.21,-0.02,-0.06,0.03,26.47
22052208,1826,1,187393,238069,0.20,0.64,11.60,-0.05,-0.03,-0.02,26.47
22092174,1857,1,187140,235608,0.35,-0.67,9.65,-0.11,-0.00,-0.11,26.47
22132196,1833,1,186430,235653,0.97,-0.48,9.91,-0.05,-0.03,-0.03,26.47
22172196,1843,1,186588,234138,0.88,-0.70,9.72,-0.08,-0.01,-0.06,26.47
22212197,1884,1,186622,236227,0.22,-0.40,10.69,-0.02,0.03,-0.01,26.47
22252192,1905,1,186961,234414,0.84,-0.73,9.66,-0.05,-0.06,-0.09,26.47
22292196,1901,1,186207,235219,0.63,-0.59,8.93,-0.03,-0.07,0.02,26.47
22332176,1858,1,186584,232983,0.82,-1.22,9.01,-0.06,0.02,-0.03,26.47
22372176,1878,1,185479,231632,0.57,-1.73,9.30,-0.03,-0.05,0.02,26.47
22412176,1838,1,185337,229790,0.82,-0.94,9.02,-0.03,0.01,-0.05,26.47
22452176,1851,1,185039,231591,0.50,-1.82,10.34,-0.02,0.03,-0.01,26.47
22492176,1861,1,185249,230483,0.97,-0.99,9.21,-0.02,-0.03,-0.03,26.47
22532196,1821,1,185124,230753,0.46,-1.20,9.15,-0.01,-0.04,-0.01,26.47
22572196,1892,1,184318,228857,0.76,-0.82,8.03,-0.02,-0.10,-0.02,26.47
22612196,1950,1,184450,228254,0.43,-1.51,10.13,-0.01,0.11,0.01,26.47
22652168,2014,1,183649,228031,0.51,-0.25,8.60,0.02,-0.04,0.06,26.47
22692854,1903,1,185393,230309,0.56,-1.52,11.64,-0.01,0.15,-0.03,26.83
22731176,1968,1,184365,230163,0.72,-0.17,8.96,0.02,-0.18,0.01,26.83
22771168,1840,1,185836,231759,-0.33,-0.57,10.79,0.04,0.07,0.01,26.83
22811167,1893,1,185006,232856,0.66,0.74,9.16,-0.00,-0.08,0.12,26.83
22851167,1825,1,186677,235335,0.56,-1.30,10.81,-0.05,0.04,-0.00,26.83
22891174,1898,1,185881,234711,1.08,-0.05,8.93,-0.08,-0.13,-0.02,26.83
22931197,1840,1,187324,235979,0.18,-1.45,10.86,-0.09,0.13,-0.01,26.83
22971177,1868,1,186144,234178,1.27,0.71,9.80,-0.06,-0.17,-0.02,26.83
23011176,1891,1,187450,236940,-0.13,-0.05,13.13,-0.07,0.24,0.01,26.83
23051176,1936,1,186455,233643,0.66,-0.16,8.66,-0.07,-0.10,-0.01,26.83
23091197,1886,1,186635,231465,-0.06,-2.45,11.80,-0.06,0.13,0.00,26.83
23131177,1905,1,184268,229482,-0.39,-0.25,5.75,-0.11,-0.24,0.11,26.83
23171197,1799,1,186044,231993,0.09,-2.63,10.09,-0.09,0.11,-0.06,26.83
23211176,1902,1,185052,232969,1.13,-1.25,8.68,-0.09,-0.22,-0.01,26.83
23251196,1855,1,187797,234889,0.16,-2.25,11.78,-0.08,0.15,-0.10,26.83
23291176,1884,1,186717,234139,0.45,-0.39,10.67,0.01,-0.16,0.08,26.83
23331168,1830,1,187499,234437,-0.80,-0.98,10.82,0.01,0.06,0.08,26.83
23371164,1904,1,185164,228202,1.25,0.74,8.64,0.00,-0.17,0.07,26.83
23411144,1885,1,183721,226694,-0.67,-2.03,6.17,-0.23,-0.00,0.28,26.83
23451196,1994,1,183206,225437,1.11,0.06,6.75,0.02,0.15,-0.06,26.83
23491156,1959,1,184332,232806,2.09,-1.55,10.95,0.05,0.03,0.03,26.83
23531145,1822,1,187029,234902,2.07,0.62,7.98,0.03,-0.08,-0.11,26.83
23571168,1840,1,188693,236657,0.46,-1.24,12.39,0.08,-0.03,0.10,26.83
23611167,1801,1,187911,232913,-0.96,-1.09,10.23,0.07,-0.02,0.04,26.83
23651176,1761,1,185592,230719,0.32,-0.42,11.04,0.04,-0.05,0.07,26.83
23691195,1831,1,185244,231955,0.81,-0.98,10.07,-0.02,0.07,-0.09,26.83
23731863,1890,1,185822,231044,1.11,-0.32,8.93,-0.06,0.03,-0.20,26.87
23770176,1931,1,188230,237242,-0.08,-1.32,13.23,-0.04,0.23,0.01,26.87
23810176,1815,1,189943,237051,1.34,-0.39,11.93,0.11,-0.08,-0.17,26.87
23850176,1761,1,190684,239158,-0.15,-1.61,14.03,0.08,-0.06,0.12,26.87
23890176,1787,1,189120,232909,-0.45,-0.90,10.83,0.03,-0.07,0.05,26.87
23931174,1844,1,185747,231927,0.53,-0.51,11.94,0.01,-0.12,0.30,26.87
23971168,1863,1,186048,231556,0.38,-2.26,9.80,-0.07,-0.05,-0.00,26.87
24011194,1861,1,185482,233783,0.29,-0.11,7.77,-0.06,-0.12,-0.05,26.87
24051196,1854,1,188324,235223,0.19,-1.36,11.06,-0.12,0.16,-0.02,26.87
24091176,1984,1,186636,233478,0.64,-0.17,10.41,-0.02,-0.18,0.12,26.87
24131176,1901,1,186507,232598,0.44,-0.79,11.79,-0.02,0.00,0.06,26.87
24171164,1857,1,185029,230323,-0.62,0.13,6.74,-0.14,-0.07,0.22,26.87
24211176,1826,1,185921,231618,0.93,-1.17,10.70,-0.07,0.17,-0.05,26.87
24251176,1868,1,185394,232528,1.08,-0.33,8.58,-0.12,-0.17,0.01,26.87
24291176,1904,1,186567,234391,0.88,-1.08,9.41,-0.04,0.06,0.02,26.87
24331166,1958,1,186317,232421,1.00,-1.06,8.29,-0.12,-0.10,0.04,26.87
24371176,1931,1,185674,230234,0.76,-0.61,7.52,-0.07,-0.08,0.02,26.87
24411174,1915,1,184995,227754,0.62,-0.31,8.24,0.02,0.13,-0.08,26.87
24451168,1936,1,184164,226175,0.73,-0.14,8.19,-0.07,0.04,-0.03,26.87
24491174,2054,1,183864,227881,1.00,-0.49,8.62,-0.15,0.09,0.07,26.87
24531168,1932,1,185970,232518,0.64,-1.30,10.16,0.03,0.15,-0.00,26.87
24571167,1911,1,187108,235054,0.85,-0.79,10.38,-0.01,0.02,0.04,26.87
24611168,1906,1,187677,235771,-0.02,-1.17,11.15,-0.03,0.05,0.05,26.87
24651176,1934,1,186948,234770,0.29,-0.87,11.08,-0.01,-0.04,0.02,26.87
24691176,1885,1,186747,233539,0.64,-0.99,11.48,-0.03,0.03,-0.00,26.87
24731176,1872,1,186187,234668,0.06,-1.75,10.72,-0.07,-0.04,-0.00,26.87
24771882,1873,1,187404,235713,0.22,-1.19,11.53,-0.00,0.02,-0.15,26.79
24810176,1900,1,187261,235249,-0.01,-0.89,10.95,-0.08,-0.06,0.09,26.79
24850197,1919,1,186506,232367,0.39,-0.67,11.12,-0.02,-0.06,0.01,26.79
24890176,1886,1,186012,230740,0.17,-1.16,11.18,-0.06,-0.06,0.13,26.79
24929176,1853,1,185619,231487,0.19,-1.49,9.01,-0.07,-0.07,0.03,26.79
24969176,1809,1,186511,231692,0.31,-1.20,8.33,-0.07,0.02,-0.01,26.79
25009177,1891,1,186745,233651,0.82,-1.17,10.21,-0.10,-0.04,0.02,26.79
25049177,1875,1,187461,233828,0.20,-0.47,10.36,0.00,0.01,0.05,26.79
25089145,1871,1,187242,233531,0.79,-1.11,9.99,-0.03,-0.07,0.05,26.79
25129196,1838,1,187050,231666,0.01,-1.04,9.52,-0.03,0.04,0.01,26.79
25169167,1846,1,186199,229698,0.48,-0.69,9.33,-0.02,-0.02,0.01,26.79
25209174,1901,1,185062,227870,0.62,-1.09,8.64,-0.08,-0.06,-0.02,26.79
25249197,1957,1,185051,227833,0.94,-1.28,9.27,0.08,0.02,-0.11,26.79
25289167,1939,1,185000,231139,0.64,-0.72,8.97,-0.02,0.02,-0.04,26.79
25329215,1872,1,187487,235443,1.41,-2.08,12.65,0.11,0.02,-0.06,26.79
25369167,1891,1,186746,233766,-0.04,-0.42,8.26,-0.10,-0.16,0.21,26.79
25409196,1847,1,186558,232472,0.10,-0.73,12.26,0.07,0.13,0.06,26.79
25449145,1875,1,185526,231218,0.17,-0.71,9.91,-0.09,-0.11,0.06,26.79
25489176,1889,1,185807,231734,1.85,0.51,12.68,0.23,-0.05,-0.05,26.79
25529186,1935,1,185976,233851,0.99,-0.49,9.90,-0.09,-0.09,0.03,26.79
25569176,1946,1,187216,236131,0.34,-0.98,11.37,-0.11,0.08,0.06,26.79
25609167,1969,1,187302,233259,0.43,-0.38,10.34,0.03,-0.03,0.14,26.79
25649168,1842,1,186823,234832,1.01,-1.46,12.14,0.02,-0.31,0.01,26.79
25689167,1817,1,187500,231694,0.60,-0.04,10.21,-0.05,-0.00,-0.12,26.79
25729196,1845,1,186665,232281,0.21,-0.85,9.56,-0.21,0.00,-0.07,26.79
25769177,1911,1,186816,230566,1.72,-0.21,9.39,-0.03,-0.01,0.02,26.79
25809863,1904,1,186750,233602,1.08,-0.65,9.22,-0.06,0.01,-0.07,26.71
25850176,1903,1,187162,233139,1.13,-0.05,8.28,-0.00,-0.05,-0.04,26.71
25890197,1912,1,186611,233518,0.99,0.37,8.68,-0.08,-0.10,0.10,26.71
25930164,1890,1,187029,231204,0.89,-0.85,8.61,-0.10,-0.05,0.07,26.71
25969176,1874,1,186580,230545,0.93,-0.11,8.31,-0.05,-0.14,0.18,26.71
26009176,1806,1,186439,229176,1.33,-0.54,8.26,0.07,0.06,-0.05,26.71
26049167,1825,1,186385,232449,1.10,-0.33,9.48,0.01,0.09,-0.01,26.71
26089167,1834,1,187249,233276,1.13,-0.59,9.50,-0.03,0.05,-0.11,26.71
26129176,1913,1,187001,233598,0.83,-0.22,10.10,-0.04,-0.07,0.19,26.71
26169176,1843,1,187443,234258,0.51,-1.92,10.46,0.07,0.03,0.08,26.71
26209145,1835,1,187387,235271,0.89,0.09,9.17,0.01,-0.06,0.03,26.71
26249144,1821,1,188030,234026,0.44,-1.53,10.26,-0.04,0.07,0.03,26.71
26289168,1902,1,186821,233490,-0.04,-0.99,8.27,-0.19,-0.08,0.14,26.71
26329196,1911,1,187570,234440,0.19,-2.16,10.18,-0.01,0.19,0.01,26.71
26369168,1859,1,187333,236435,1.08,0.09,9.15,-0.09,-0.12,-0.01,26.71
26409177,1867,1,188505,237365,0.90,-0.92,11.83,-0.02,0.09,-0.15,26.71
26449176,1920,1,187951,236770,0.03,1.22,9.39,-0.10,-0.11,0.17,26.71
26489168,1895,1,188382,236909,0.61,-1.83,12.87,0.02,0.07,0.05,26.71
26529145,1937,1,186988,232917,1.26,0.42,8.77,-0.07,-0.17,0.01,26.71
26569168,1875,1,187449,235378,0.23,-2.19,11.30,-0.06,0.06,-0.02,26.71
26609176,1936,1,186819,233719,1.10,0.91,8.24,-0.12,-0.11,-0.02,26.71
26649176,1909,1,187534,235168,0.43,-1.80,10.94,-0.12,0.13,0.06,26.71
26689168,1940,1,186851,232688,0.88,0.39,8.12,-0.06,-0.05,0.02,26.71
26729165,1857,1,187032,233350,0.49,-0.66,10.17,-0.08,0.07,0.04,26.71
26769186,1849,1,186663,231977,0.96,-0.09,8.75,-0.08,-0.01,0.02,26.71
26809860,1835,1,186588,231477,0.84,-0.52,9.60,-0.10,0.05,0.05,26.61
26848168,1843,1,186472,230746,0.48,-1.26,9.45,-0.06,0.05,0.10,26.61
26888167,1836,1,186834,231468,0.29,-1.75,10.68,-0.06,0.07,0.05,26.61
26928168,1827,1,186936,232607,1.32,-0.96,10.28,-0.04,-0.03,0.05,26.61
26969176,1819,1,187207,232317,0.61,0.07,9.49,-0.07,0.02,0.02,26.61
27009146,1856,1,187158,233790,0.63,-1.96,10.77,-0.07,0.09,0.01,26.61
27049167,1882,1,187456,233061,0.56,-0.41,10.24,-0.06,0.08,-0.06,26.61
27089176,1877,1,186942,234574,1.06,-1.03,10.05,-0.01,-0.02,0.01,26.61
27129176,1859,1,187372,233965,0.60,0.34,8.78,-0.01,0.06,-0.08,26.61
27169167,1843,1,187264,235525,0.39,0.03,11.16,0.01,0.06,0.02,26.61
27209126,1864,1,187011,232024,1.21,0.05,8.44,0.00,-0.02,-0.01,26.61
27247164,1863,1,185999,233655,0.83,-0.75,9.21,-0.08,-0.02,0.00,26.61
27287174,1886,1,186848,231902,0.87,1.32,8.54,0.01,0.11,-0.33,26.61
27327145,1877,1,186876,235056,0.80,1.36,10.74,-0.04,0.05,0.05,26.61
27367145,1904,1,187547,232763,1.40,-0.90,12.09,-0.03,0.10,-0.09,26.61
27407176,1909,1,186321,233744,1.42,-1.38,10.29,-0.08,-0.17,0.14,26.61
27447176,1894,1,187106,232295,1.05,-2.10,11.15,-0.04,0.04,-0.05,26.61
27487176,1917,1,185927,231285,0.14,0.44,7.32,-0.07,-0.20,0.08,26.61
27527164,1986,1,187635,234260,-0.23,-1.49,14.14,-0.08,0.31,0.03,26.61
27567177,2092,1,186030,229837,1.12,1.49,7.36,-0.03,-0.24,0.16,26.61
27607167,1917,1,187561,236437,0.33,-2.71,15.90,0.14,0.18,0.12,26.61
27647144,1983,1,187511,232887,0.69,-0.08,7.68,-0.12,-0.03,-0.13,26.61
27687227,1899,1,188117,237510,0.08,-1.98,12.62,-0.09,-0.04,0.13,26.61
27727176,2015,1,187816,233125,1.36,2.67,7.35,-0.09,0.06,-0.22,26.61
27767167,1904,1,187806,237036,1.03,-2.90,12.10,-0.04,0.00,0.03,26.61
27807167,2061,1,187915,233002,1.06,1.97,7.94,-0.08,0.03,-0.25,26.61
27847854,1941,1,187036,234881,0.81,-0.77,9.91,0.07,-0.10,0.20,26.61
27888167,1926,1,188322,234734,0.45,-1.36,11.05,-0.02,0.19,-0.12,26.61
27928176,1925,1,187009,233302,0.84,-0.91,9.22,0.00,-0.29,0.23,26.61
27968168,1898,1,187583,232507,0.51,-1.98,11.94,0.09,0.08,0.05,26.61
28007145,1920,1,185581,229870,-0.92,0.96,4.40,-0.20,-0.36,0.24,26.61
28047176,1839,1,186911,233739,1.20,-1.04,10.47,0.03,0.20,-0.10,26.61
28087167,1904,1,187037,236398,1.13,2.22,7.19,-0.07,-0.06,-0.06,26.61
28127176,1828,1,188794,238289,1.68,-0.27,10.69,-0.03,0.05,-0.13,26.61
28167177,1938,1,188263,236073,0.13,0.50,10.11,-0.10,0.05,0.15,26.61
28207145,1810,1,187205,234803,0.94,-0.88,10.79,0.09,-0.01,0.03,26.61
28247167,1829,1,187253,233241,0.61,0.83,10.98,-0.01,0.05,0.02,26.61
28287145,1823,1,186124,234379,0.39,-1.88,9.76,-0.03,-0.16,-0.02,26.61
28327196,1873,1,187535,233880,0.32,-0.45,9.27,-0.04,0.07,-0.14,26.61
28367176,1830,1,186500,234899,1.17,-0.83,9.73,-0.09,-0.24,0.08,26.61
28407177,1795,1,187638,235912,0.47,-1.02,9.77,-0.01,0.08,0.03,26.61
28447168,1777,1,187526,234606,0.69,-1.48,10.39,-0.05,-0.10,0.05,26.61
28487176,1790,1,186875,235668,1.71,-0.80,11.09,-0.01,-0.16,0.10,26.61
28527176,1763,1,187602,234711,0.04,0.97,10.13,-0.04,0.04,0.02,26.61
28567145,1808,1,186920,236735,1.72,-0.53,9.67,-0.04,-0.19,0.01,26.61
28607193,1822,1,188015,234690,0.68,0.91,8.94,-0.04,0.07,-0.14,26.61
28647167,1845,1,186832,236560,1.78,-0.33,10.95,-0.05,-0.17,0.08,26.61
28687176,1872,1,187153,230730,1.15,1.22,7.40,-0.06,0.10,-0.16,26.61
28727167,1877,1,185522,232984,1.00,-0.17,10.47,-0.07,0.01,0.03,26.61
28767168,1891,1,187209,231525,1.32,0.38,9.63,-0.00,0.10,-0.31,26.61
28807167,1905,1,185732,233860,0.76,-0.62,9.54,-0.05,-0.12,0.22,26.61
28847863,1894,1,187446,234699,0.72,-2.41,8.84,-0.05,0.04,-0.08,26.73
28886176,1952,1,186398,234229,0.59,-0.26,6.94,-0.10,-0.13,0.10,26.73
28926176,1911,1,187519,236093,0.96,-1.65,11.22,-0.07,0.15,0.01,26.73
28966167,1935,1,187477,234740,0.72,0.45,9.53,-0.02,0.03,0.02,26.73
29006146,1887,1,187615,237374,1.19,-1.28,11.48,-0.05,-0.04,0.02,26.73
29046176,1947,1,187017,233776,1.33,1.00,8.19,-0.03,-0.01,-0.05,26.73
29086176,1894,1,187298,237131,0.59,-1.02,11.52,-0.04,0.06,0.03,26.73
29126167,1942,1,187260,234198,1.02,0.72,8.46,-0.04,0.00,-0.05,26.73
29166167,1863,1,187267,235755,0.24,-1.02,11.40,-0.03,0.10,0.09,26.73
29206165,1931,1,186122,232355,1.44,0.12,7.90,-0.07,-0.13,0.02,26.73
29246167,1865,1,186900,235528,0.50,-0.56,10.75,-0.03,0.20,0.01,26.73
29286167,1897,1,187272,236688,1.33,0.02,9.18,-0.06,-0.03,-0.05,26.73
29326176,1865,1,188631,238549,0.75,0.05,11.59,0.01,0.04,0.01,26.73
29366125,1947,1,187896,236001,0.24,-0.86,9.23,-0.11,-0.02,0.16,26.73
29406176,1931,1,187308,234794,0.12,-0.60,9.62,0.01,0.03,0.03,26.73
29446145,1883,1,186249,231557,1.33,-0.58,10.05,-0.09,-0.09,-0.01,26.73
29486196,1858,1,186226,233518,0.50,-0.79,9.85,-0.01,0.06,-0.13,26.73
29526174,1903,1,186375,233337,1.34,-0.60,9.21,-0.03,-0.13,-0.07,26.73
29566196,1858,1,187468,238664,0.42,-1.26,9.58,-0.01,0.01,0.02,26.73
29606167,1867,1,189364,240492,1.18,-0.04,9.82,0.03,-0.03,-0.18,26.73
29646176,1930,1,189134,238047,0.15,-0.85,11.34,-0.08,-0.06,0.11,26.73
29686176,1907,1,186911,233737,-0.35,-1.27,10.49,-0.05,-0.05,0.15,26.73
29726197,1869,1,185545,229684,-0.04,-0.89,8.97,0.00,-0.01,0.11,26.73
29766174,1955,1,185095,232864,2.14,-1.83,10.98,0.06,0.02,-0.07,26.73
29806168,1856,1,186685,235042,0.52,-0.51,6.73,-0.05,0.03,-0.10,26.73
29846174,1872,1,189310,239542,1.34,-0.72,13.04,-0.03,0.07,0.18,26.73
29886854,1904,1,188808,238109,-0.66,-0.63,8.72,-0.05,-0.08,0.26,26.83
29925196,1847,1,188543,237122,0.09,-2.65,12.48,0.03,-0.02,0.08,26.83
29965168,1851,1,187337,235652,-0.20,-0.76,10.16,-0.03,-0.05,0.01,26.83
30005197,1841,1,186800,234475,1.13,0.36,11.23,-0.04,-0.11,-0.10,26.83
30045180,1891,1,187375,236082,0.13,-2.60,10.87,-0.11,0.09,-0.02,26.83
30085176,1904,1,186910,233263,0.25,-0.51,8.87,0.00,-0.09,0.01,26.83
30125167,1913,1,186681,235295,1.00,-1.13,11.54,-0.02,-0.08,0.05,26.83
30165176,1840,1,187344,233953,-0.38,-2.24,9.29,-0.05,-0.01,0.00,26.83
30205196,1841,1,185785,232253,0.97,-0.45,9.93,-0.08,-0.26,0.12,26.83
30245194,1827,1,186816,233747,-0.60,-1.85,11.03,-0.03,0.19,0.04,26.83
30285176,1861,1,185466,232874,1.75,0.69,8.48,-0.04,-0.34,0.01,26.83
30325167,1819,1,187790,236888,0.13,-2.48,12.51,-0.05,0.18,0.02,26.83
30365168,1959,1,185746,230206,0.68,2.08,4.71,-0.20,-0.26,0.06,26.83
30405167,1825,1,186444,233740,2.05,-1.79,13.85,0.20,0.19,0.05,26.83
30445161,2021,1,185074,227832,0.23,0.94,5.57,-0.13,0.11,-0.06,26.83
30485167,1837,1,185388,233407,2.17,-3.72,12.20,0.14,-0.08,0.01,26.83
30525168,1965,1,185998,229355,0.92,1.55,5.98,-0.02,0.17,-0.33,26.83
30565167,1808,1,187278,238298,-0.20,-3.37,13.11,0.05,0.06,0.20,26.83
30605168,1760,1,189700,239438,0.62,0.89,8.43,0.10,0.08,-0.35,26.83
30645144,1692,1,191660,243694,0.53,-1.82,12.90,0.05,-0.08,0.14,26.83
30685168,1806,1,190285,236171,-0.29,-0.74,7.92,-0.08,0.10,-0.14,26.83
30725197,1759,1,186639,234948,0.19,-1.44,10.43,-0.04,-0.13,0.29,26.83
30765177,1765,1,188794,237824,0.46,-0.34,12.02,0.10,0.28,-0.49,26.83
30805167,1761,1,189387,242650,0.91,-1.17,9.17,-0.00,-0.26,-0.01,26.83
30845196,1751,1,192430,239906,1.36,-0.50,12.98,0.04,0.19,-0.40,26.83
30885167,1919,1,188213,237869,0.66,0.49,8.77,-0.00,-0.40,0.31,26.83
30925855,1754,1,189968,237212,0.39,-1.36,13.54,0.05,0.23,-0.07,26.85
30964167,1924,1,187365,237076,0.80,-0.55,9.03,-0.13,-0.30,0.26,26.85
31004176,1828,1,188158,233439,-0.25,0.01,9.89,-0.04,0.09,-0.09,26.85
31044174,1952,1,186066,234163,-0.19,-1.50,9.40,-0.10,-0.16,0.32,26.85
31084196,1840,1,186889,231722,0.46,-1.57,9.53,-0.04,0.14,-0.14,26.85
31124177,1930,1,185989,233694,0.71,-0.96,10.74,-0.03,-0.19,0.11,26.85
31164176,1877,1,186840,233854,0.79,-1.27,10.45,-0.04,0.02,-0.00,26.85
31204176,1955,1,186112,232849,0.38,-0.96,8.10,-0.07,-0.22,0.04,26.85
31244176,1927,1,186122,234143,0.79,-1.73,9.30,-0.04,-0.00,0.00,26.85
31284174,1903,1,186801,234541,0.94,-0.22,10.19,-0.01,-0.04,-0.04,26.85
31324196,1904,1,186605,234101,0.88,-2.12,9.70,-0.08,-0.13,0.02,26.85
31364177,1947,1,186003,231465,-0.28,0.45,6.85,-0.08,-0.09,0.09,26.85
31404176,2009,1,185346,230778,1.75,-1.59,10.97,0.10,0.02,0.12,26.85
31444145,1929,1,185327,231048,0.92,-0.26,9.17,0.09,0.06,-0.04,26.85
31484167,1887,1,186427,237503,1.27,-0.13,10.46,0.02,-0.16,0.02,26.85
31524168,1874,1,189053,236350,1.23,-0.03,10.53,0.03,0.01,-0.18,26.85
31564168,1936,1,185979,233699,-0.63,-0.30,6.39,-0.30,-0.48,0.27,26.85
31604196,2012,1,186804,234799,2.00,-0.12,12.21,0.13,0.31,-0.01,26.85
31644168,1881,1,185311,230482,1.08,2.46,6.65,-0.01,-0.21,-0.02,26.85
31684195,1792,1,186793,235952,3.12,-1.02,14.01,0.36,0.12,-0.23,26.85
31724167,1983,1,186506,231467,0.88,1.84,7.88,-0.08,0.10,0.07,26.85
31764145,1617,1,186876,237457,1.12,-1.25,13.31,0.14,-0.13,0.11,26.85
31804167,1721,1,187114,232992,0.89,0.74,8.73,-0.05,0.03,0.01,26.85
31844145,1563,1,187403,237675,1.19,-3.57,13.06,0.17,-0.13,0.07,26.85
31884184,1733,1,186782,230850,0.41,1.47,6.59,-0.17,-0.07,0.02,26.85
31924167,1883,1,185801,234630,1.76,-3.31,12.63,-0.12,-0.14,0.12,26.85
31964865,1934,1,186147,230994,0.80,0.19,7.90,0.01,0.10,-0.05,26.83
32005144,2015,1,186444,237439,1.42,-1.73,13.89,-0.23,0.03,-0.04,26.83
32045177,2100,1,186979,233091,0.03,2.89,6.05,0.09,-0.09,-0.07,26.83
32085178,1997,1,187352,237808,0.11,-2.03,12.54,-0.05,0.09,0.06,26.83
32125168,2131,1,187211,232184,-0.06,1.47,9.52,0.02,0.00,0.11,26.83
32165145,1920,1,186279,232973,1.80,-4.44,12.28,0.11,-0.05,0.13,26.83
32203168,1927,1,185808,228749,0.27,-0.54,9.12,-0.00,0.12,-0.06,26.83
32243176,1945,1,185026,229967,1.36,-2.42,9.20,-0.15,-0.08,0.04,26.83
32283176,1938,1,185715,230027,0.89,0.04,10.13,-0.01,0.08,-0.03,26.83
32323167,1951,1,186192,233735,1.04,-1.46,9.79,-0.04,-0.04,0.04,26.83
32363176,1981,1,186909,233291,1.22,-0.58,10.62,0.03,-0.06,0.16,26.83
32403167,1937,1,186566,235661,0.52,-1.04,8.34,-0.12,-0.09,0.23,26.83
32443176,1920,1,187791,234761,1.05,0.35,12.67,0.08,0.17,0.01,26.83
32483126,1908,1,186541,235318,1.06,-0.72,10.52,-0.10,-0.18,0.19,26.83
32523192,1886,1,186110,229461,2.00,0.76,9.19,-0.02,-0.00,-0.02,26.83
32563174,1917,1,185041,232278,0.93,-1.67,9.92,-0.22,0.12,0.04,26.83
32603200,1883,1,186103,230468,1.83,-0.42,9.99,0.01,0.14,-0.30,26.83
32643167,1939,1,187006,237106,0.25,-0.78,11.54,-0.23,0.08,0.16,26.83
32683168,1940,1,187741,233336,-0.01,0.12,8.67,0.03,0.09,-0.08,26.83
32723163,1984,1,185862,233097,0.23,-0.31,8.66,-0.06,-0.30,0.16,26.83
32763176,1968,1,185182,230706,0.35,-1.53,8.45,-0.02,0.02,0.02,26.83
32803168,1972,1,185195,231699,0.71,2.58,8.90,-0.04,0.11,-0.03,26.83
32843168,1965,1,186516,234596,0.99,-1.86,11.06,-0.08,0.15,-0.10,26.83
32883176,2056,1,186409,232126,1.33,0.26,10.77,-0.09,-0.10,0.09,26.83
32923168,1999,1,186591,233453,0.17,-2.54,11.91,0.12,0.05,0.23,26.83
32963146,2125,1,185315,231127,1.03,0.08,7.96,-0.04,-0.19,0.00,26.83
33003867,2015,1,186414,231546,-0.82,-1.54,10.53,-0.09,0.25,0.06,26.77
33044176,2128,1,184811,228157,1.18,0.25,8.87,-0.06,-0.13,0.01,26.77
33084168,2045,1,185263,230306,0.06,-2.02,10.66,-0.02,0.17,0.01,26.77
33124167,2093,1,185635,233573,0.69,-0.47,9.82,0.03,-0.03,-0.03,26.77
33164176,1998,1,187726,235903,1.21,0.01,12.32,0.07,-0.01,-0.18,26.77
33204167,2115,1,187552,235954,0.14,-0.53,9.72,-0.07,-0.15,0.24,26.77
33244176,2027,1,187125,234241,0.42,-2.54,10.98,-0.00,-0.06,0.10,26.77
33284176,1951,1,186322,236571,0.16,-0.82,8.60,-0.03,-0.11,0.03,26.77
33324176,1879,1,188656,238694,1.08,-0.57,11.73,-0.08,0.08,-0.43,26.77
33364176,1978,1,187879,236741,0.50,-0.89,9.08,-0.09,-0.12,0.04,26.77
33402176,1850,1,188349,236061,0.08,-0.30,13.30,-0.01,0.09,0.04,26.77
33442164,1810,1,186032,232291,1.13,-0.93,8.62,-0.09,-0.26,-0.00,26.77
33482196,1790,1,186753,235540,0.16,-1.98,10.24,0.00,0.08,-0.15,26.77
33522168,1824,1,186372,232315,1.13,-0.51,7.04,-0.12,-0.13,-0.09,26.77
33562197,1805,1,187083,235808,-0.32,-1.57,9.25,-0.07,0.17,0.01,26.77
33602176,1824,1,187719,232858,1.02,-1.25,10.46,0.00,-0.02,0.02,26.77
33642167,1722,1,187296,236804,0.47,-1.59,9.27,0.07,-0.04,0.02,26.77
33682164,1713,1,188457,234691,0.45,-0.28,8.04,-0.10,-0.02,-0.05,26.77
33722197,1732,1,186948,233754,0.61,-2.19,10.64,0.02,0.01,0.10,26.77
33762145,1767,1,187387,232778,0.21,0.29,10.98,0.05,0.13,0.03,26.77
33802125,1737,1,185748,233039,0.84,-0.94,9.68,-0.02,-0.16,0.19,26.77
33842174,1785,1,187551,237057,0.48,-0.86,10.83,-0.02,0.18,-0.02,26.77
33882177,1814,1,187859,236292,0.21,-0.25,8.59,-0.08,-0.11,0.02,26.77
33922176,1801,1,188366,237797,0.32,-0.61,11.62,-0.02,0.18,0.03,26.77
33962168,1793,1,188145,235802,0.62,0.08,13.02,-0.01,-0.00,0.07,26.77
34002163,1809,1,186015,233438,0.30,-0.68,8.82,-0.14,-0.18,0.29,26.77
34042863,1842,1,185738,233430,0.33,-0.87,9.39,-0.16,0.01,0.03,26.85
34083167,1893,1,185779,232942,0.57,0.14,8.52,-0.14,0.01,-0.01,26.85
34123168,1904,1,185971,234188,1.19,0.22,10.30,-0.13,0.03,0.01,26.85
34163145,1953,1,186303,232219,1.05,-0.25,10.63,-0.10,0.11,0.01,26.85
34203168,1871,1,185487,231246,0.47,0.31,8.97,-0.06,-0.08,0.15,26.85
34243177,1819,1,185301,229109,0.83,-1.13,9.98,-0.07,0.14,0.04,26.85
34283168,1830,1,184259,227695,0.41,-1.25,8.77,-0.10,-0.05,0.14,26.85
34323177,1831,1,183984,225892,1.21,-1.27,8.89,-0.00,0.03,-0.04,26.85
34363176,1857,1,183220,228380,-0.02,-0.98,7.48,-0.24,-0.15,0.21,26.85
34403197,1842,1,185386,229213,0.88,-1.13,8.61,-0.01,0.16,-0.16,26.85
34443198,1877,1,183865,229960,0.98,0.55,7.50,-0.15,-0.33,0.18,26.85
34483167,1851,1,185978,230997,0.87,-0.62,11.23,0.09,0.27,0.04,26.85
34523160,1934,1,184125,229740,-0.76,-0.57,7.28,-0.15,-0.15,0.24,26.85
34563197,1871,1,185009,230685,0.90,-0.72,10.32,0.07,0.12,-0.04,26.85
34603167,1954,1,184923,234354,0.50,-0.27,9.58,-0.09,-0.18,0.00,26.85
34641174,1875,1,187920,236568,0.24,-1.49,11.26,-0.01,0.14,0.01,26.85
34681168,1975,1,187120,237037,0.62,-0.01,9.52,-0.20,-0.10,0.14,26.85
34721176,1920,1,187516,235378,1.04,-1.83,12.51,0.17,-0.09,0.06,26.85
34761168,1917,1,186414,234858,0.63,-0.41,10.22,-0.08,-0.31,0.01,26.85
34801176,1888,1,187461,236062,1.14,-1.53,12.59,0.03,0.10,-0.08,26.85
34841168,1959,1,186342,232225,0.60,-0.27,8.72,-0.24,-0.13,0.03,26.85
34881176,1874,1,185611,231043,0.54,-1.79,7.71,-0.09,-0.03,-0.01,26.85
34921196,1872,1,185328,230258,1.37,-0.21,9.17,0.07,-0.00,0.06,26.85
34961167,1808,1,186026,232859,0.66,-1.79,9.43,-0.02,0.04,0.03,26.85
35001167,1853,1,186192,233939,1.79,-0.49,9.09,-0.06,-0.20,0.03,26.85
35041176,1840,1,186543,233103,0.67,-1.26,8.91,-0.10,-0.09,0.19,26.85
35081862,1879,1,185688,232337,0.81,-0.14,8.01,-0.09,-0.18,0.10,26.77
35122176,1830,1,186091,232287,0.93,0.74,10.54,0.18,0.08,0.05,26.77
35162126,1838,1,186675,236184,1.14,-0.01,10.73,0.05,0.09,0.04,26.77
35202144,1891,1,187760,235480,1.17,-0.03,10.68,-0.08,0.07,0.06,26.77
35242168,1931,1,187275,236622,0.59,-1.04,10.59,0.05,-0.13,0.10,26.77
35282167,1940,1,188100,239608,1.32,0.55,10.41,0.09,-0.07,-0.14,26.77
35322168,1931,1,188798,238573,1.22,0.92,10.64,-0.05,-0.02,-0.19,26.77
35362176,1942,1,189031,239726,0.65,-1.83,11.82,-0.14,0.12,0.03,26.77
35402167,1937,1,187553,234481,0.83,0.42,8.48,-0.15,-0.09,-0.01,26.77
35442176,1870,1,187177,236016,1.98,-0.23,12.37,0.25,0.03,-0.14,26.77
35482167,1890,1,187199,235936,0.60,-0.34,8.63,-0.14,0.00,0.03,26.77
35522163,1899,1,188381,237017,1.40,0.55,12.91,0.18,-0.02,0.07,26.77
35562145,1991,1,186173,233346,1.65,-0.17,8.54,-0.16,-0.35,0.23,26.77
35602176,1840,1,186817,237129,1.83,-2.78,11.79,0.13,0.19,0.08,26.77
35642145,1897,1,187200,233363,1.40,0.52,8.15,-0.01,-0.03,-0.03,26.77
35682176,1875,1,186030,234047,0.51,-0.30,9.31,-0.12,-0.34,0.14,26.77
35722176,1874,1,186544,230459,1.11,-1.18,10.77,0.05,0.49,-0.08,26.77
35762167,1916,1,184706,232392,0.40,-0.66,7.61,-0.17,-0.21,-0.02,26.77
35802196,1815,1,186434,232615,1.44,0.65,7.85,0.05,0.07,-0.29,26.77
35842145,1856,1,187501,238377,1.06,-0.17,9.63,0.04,0.04,-0.01,26.77
35882168,1792,1,189302,236904,0.96,0.33,10.46,-0.08,0.14,-0.16,26.77
35922167,1901,1,186774,236310,0.48,-0.64,8.54,-0.09,-0.21,0.24,26.77
35962176,1840,1,187320,236927,1.50,-0.96,11.62,0.01,0.15,-0.02,26.77
36000168,1822,1,188457,236996,0.29,-1.00,10.47,-0.07,0.06,-0.13,26.77
36040176,1823,1,186792,234359,1.61,0.94,10.84,-0.04,-0.21,0.03,26.77
36080168,1794,1,187195,236411,0.03,-2.02,10.58,-0.12,0.15,0.05,26.77
36120855,1894,1,186090,232763,1.07,0.34,7.77,-0.14,-0.23,-0.04,26.85
36161176,1862,1,187369,234825,-0.15,-2.77,12.64,-0.06,0.40,0.05,26.85
36201176,1903,1,185544,230535,1.28,1.36,8.62,-0.00,-0.25,-0.01,26.85
36241176,1823,1,185468,232273,1.06,-2.49,11.00,-0.02,0.00,-0.00,26.85
36281202,1987,1,185428,233504,0.13,-0.88,8.11,-0.11,-0.00,0.01,26.85
36321176,1823,1,188177,236249,0.35,-1.32,12.80,0.07,0.17,-0.09,26.85
36361168,1904,1,187862,239162,1.42,-0.43,11.04,-0.00,-0.25,0.05,26.85
36401176,1859,1,189025,238042,0.00,-2.03,12.75,-0.02,0.02,0.15,26.85
36441167,1926,1,186104,233697,0.99,-0.36,8.30,-0.09,-0.48,0.24,26.85
36481176,1857,1,186178,232414,-0.03,-1.30,9.90,-0.05,0.13,0.04,26.85
36520176,1856,1,185412,233445,0.20,-0.93,8.70,-0.04,-0.11,-0.14,26.85
36560196,1891,1,186589,232698,0.26,-0.78,9.96,-0.02,0.03,-0.10,26.85
36600176,1904,1,185996,234823,0.62,-1.28,9.71,0.02,-0.17,0.04,26.85
36640167,1877,1,186875,234506,0.61,-0.92,9.46,0.02,-0.08,0.02,26.85
36680167,1897,1,185827,232501,1.12,-0.76,8.83,-0.03,-0.24,0.05,26.85
36720176,1873,1,185156,231278,0.51,-2.14,7.10,-0.04,-0.07,0.05,26.85
36760176,1873,1,185545,231127,1.39,0.18,11.03,0.08,0.11,-0.01,26.85
36800145,1867,1,186231,233988,0.18,-1.28,9.06,-0.03,0.07,0.05,26.85
36840168,1872,1,187078,236634,1.09,-0.47,10.92,0.09,0.03,-0.00,26.85
36880167,1888,1,188203,235128,0.83,-0.25,11.15,0.01,0.01,0.07,26.85
36920145,1899,1,186362,235586,0.03,-1.31,7.08,0.03,-0.15,-0.05,26.85
36960176,1924,1,187535,234454,1.01,-0.63,10.86,0.10,0.20,-0.06,26.85
37000167,2009,1,186309,238167,0.20,-1.17,6.35,-0.20,-0.07,-0.01,26.85
37040196,1955,1,189508,237405,1.35,-0.23,10.77,0.11,0.18,0.00,26.85
37080144,1929,1,189713,240419,0.69,-0.81,10.83,0.02,-0.03,0.10,26.85
37120167,1840,1,189041,236420,1.05,0.52,9.78,0.07,-0.11,0.07,26.85
37160834,1821,1,186468,234661,1.19,-0.67,10.21,-0.07,-0.22,0.20,26.91
37201176,1817,1,185414,233216,0.53,-0.30,8.00,-0.08,-0.16,0.05,26.91
37241176,1779,1,185999,233923,1.33,0.83,10.08,-0.09,0.13,-0.04,26.91
37281167,1857,1,186706,236639,1.31,1.04,11.42,-0.11,0.01,-0.09,26.91
37319168,1856,1,186328,232245,1.54,0.91,9.91,-0.10,-0.04,-0.03,26.91
37359176,2027,1,185311,232977,1.87,-1.73,10.48,-0.27,-0.07,0.14,26.91
37399176,1947,1,185471,228697,0.67,-0.21,8.62,0.21,0.12,0.11,26.91
37439144,1840,1,184399,229064,1.00,-1.69,10.80,-0.31,0.05,0.29,26.91
37479168,1827,1,184846,228382,0.62,-2.95,8.89,0.06,0.06,0.09,26.91
37520149,1885,1,184429,229460,0.62,-0.18,7.91,-0.31,-0.04,0.36,26.91
37560176,1860,1,185924,233917,0.29,-2.72,9.66,0.04,0.17,-0.04,26.91
37600167,1918,1,186460,233253,1.34,0.68,9.92,0.04,-0.16,-0.03,26.91
37640168,1872,1,187312,234485,-0.39,-2.63,10.81,-0.19,0.26,0.14,26.91
37680176,1936,1,185353,230365,0.77,1.14,9.49,-0.08,-0.13,0.06,26.91
37720185,1854,1,187388,239196,0.71,-4.71,13.00,0.25,0.26,-0.11,26.91
37760167,1921,1,187193,233510,0.19,2.21,4.63,-0.18,-0.08,-0.17,26.91
37800176,1805,1,188563,237693,0.52,-1.39,13.88,0.01,0.25,0.29,26.91
37840146,1907,1,185847,231295,0.82,2.02,4.43,-0.02,-0.14,-0.11,26.91
37880176,1693,1,189277,238921,0.76,-2.95,16.03,0.27,0.42,0.01,26.91
37920162,1911,1,186081,230070,0.38,0.59,4.34,-0.15,-0.19,0.12,26.91
37960168,1697,1,186474,234777,0.83,-1.58,12.36,0.12,-0.02,0.15,26.91
38000167,1925,1,185839,232535,0.58,0.24,6.76,-0.07,0.03,-0.05,26.91
38040167,1763,1,187368,237375,1.30,-0.50,12.09,0.02,0.10,0.01,26.91
38080144,1882,1,187206,233446,0.72,1.00,8.63,-0.16,0.03,-0.00,26.91
38120167,1803,1,186444,236251,0.01,-1.59,11.05,-0.01,0.06,0.08,26.91
38160853,1834,1,187366,232320,1.06,-0.17,10.61,-0.08,0.04,-0.17,26.87
38199175,1794,1,184929,230589,0.14,-1.13,9.34,-0.08,-0.15,0.25,26.87
38239176,1847,1,185242,230918,1.06,-0.87,10.99,0.01,0.13,-0.13,26.87
38279168,1885,1,184819,232319,0.64,-1.16,8.01,-0.08,-0.20,-0.00,26.87
38319193,1878,1,186133,233542,1.19,-0.99,9.91,-0.01,0.06,-0.08,26.87
38359176,1918,1,186215,235324,0.14,-0.30,8.09,-0.06,-0.04,0.08,26.87
38399174,1873,1,187418,236499,0.89,-0.43,10.87,0.04,0.04,0.02,26.87
38439145,1906,1,187202,235902,0.91,-0.76,9.89,-0.07,-0.09,0.08,26.87
38479176,1915,1,186435,235177,0.89,-0.86,9.80,-0.03,0.02,0.05,26.87
38519167,1916,1,187208,236196,0.34,-0.90,9.86,-0.03,0.10,0.02,26.87
38560164,1897,1,187753,238417,1.19,-0.28,11.49,0.02,-0.00,-0.02,26.87
38600176,1917,1,188884,239401,0.68,-0.40,11.27,-0.03,0.03,-0.08,26.87
38638176,1915,1,188788,237289,0.37,-0.51,11.54,-0.04,-0.05,-0.01,26.87
38678196,1949,1,186773,233961,0.36,-1.16,10.36,-0.02,-0.11,0.05,26.87
38718176,1920,1,185816,233052,0.94,-1.61,9.23,-0.01,-0.10,-0.02,26.87
38758197,1917,1,186808,235940,0.68,-1.95,10.76,-0.02,-0.02,-0.12,26.87
38798196,1920,1,187419,236078,0.63,0.15,9.54,-0.00,-0.12,-0.05,26.87
38838176,1949,1,188010,236805,0.46,-2.25,10.42,-0.07,-0.03,0.12,26.87
38878176,1932,1,186923,233549,0.18,-0.83,8.31,-0.01,-0.14,0.03,26.87
38918176,1891,1,185203,230359,0.14,-0.63,7.90,-0.07,-0.14,0.13,26.87
38958176,1920,1,184716,230781,1.49,-1.74,9.52,0.06,0.02,-0.05,26.87
38998167,1923,1,184386,231718,1.37,0.11,7.32,-0.03,-0.20,-0.01,26.87
39038177,1905,1,187100,237383,0.84,-1.51,8.26,-0.16,0.12,0.03,26.87
39078168,1890,1,187749,237062,0.65,-0.04,6.91,-0.01,0.05,-0.02,26.87
39118174,1855,1,189792,240024,0.89,-1.70,11.67,0.05,0.13,-0.03,26.87
39158168,1883,1,188034,236000,0.65,-0.08,8.65,-0.02,-0.12,0.05,26.87
39198863,1840,1,188100,237562,0.18,-0.93,10.46,0.03,0.17,0.01,27.03
39239145,1861,1,188572,237652,0.63,-0.45,10.31,-0.04,0.06,-0.00,27.03
39279176,1817,1,189028,239345,0.95,-1.23,10.86,0.01,0.03,0.02,27.03
39319145,1869,1,189428,239696,0.84,0.11,10.14,-0.02,-0.00,-0.06,27.03
39359177,1847,1,189409,239176,0.03,-0.75,9.42,-0.10,-0.07,0.01,27.03
39399176,1882,1,187988,232044,0.38,-0.64,10.00,-0.10,0.09,0.00,27.03
39439164,1871,1,185040,230658,0.31,-0.47,10.12,-0.06,-0.00,0.14,27.03
39479176,1840,1,185516,232335,1.91,-0.59,10.40,-0.01,0.09,-0.17,27.03
39519176,1840,1,185763,235689,0.65,0.46,8.79,-0.14,-0.08,-0.02,27.03
39559176,1898,1,188371,235635,1.51,-0.12,12.13,-0.06,0.24,0.03,27.03
39599167,1926,1,186988,235351,1.00,-1.06,10.60,-0.06,-0.12,0.19,27.03
39639176,1965,1,186062,231413,1.46,-0.81,10.67,-0.06,-0.08,0.03,27.03
39679177,1871,1,184673,231616,0.24,-1.90,9.62,-0.16,-0.02,0.18,27.03
39719176,1863,1,185411,233534,1.16,-0.65,10.27,-0.10,0.05,-0.20,27.03
39759176,1886,1,186189,236221,0.50,-0.51,8.87,-0.14,0.05,-0.03,27.03
39799176,1921,1,187806,237718,1.03,-1.68,10.67,-0.01,0.07,-0.14,27.03
39839176,1941,1,187883,237183,0.24,0.23,9.05,-0.04,-0.08,-0.05,27.03
39879176,1897,1,188469,238085,-0.41,-2.34,10.29,-0.10,0.14,0.01,27.03
39917176,1921,1,187519,235715,0.94,-1.85,10.24,-0.03,-0.08,-0.04,27.03
39957196,1889,1,187446,236372,-0.03,-1.14,9.09,-0.07,-0.07,-0.01,27.03
39997210,1904,1,187864,238647,1.54,-2.49,10.41,-0.01,-0.12,-0.01,27.03
40037199,1903,1,189459,240872,-0.35,-1.44,7.40,-0.06,-0.04,-0.03,27.03
40077209,1902,1,190170,239824,0.29,-1.25,8.44,-0.02,-0.00,-0.00,27.03
40117197,2042,1,189064,236987,0.20,-2.04,9.23,0.01,0.05,0.02,27.03
40157145,1931,1,188461,236061,-0.37,-1.51,9.18,-0.03,0.06,-0.01,27.03
40197197,1898,1,187724,235120,0.84,-0.75,10.36,0.06,-0.05,-0.01,27.03
40237862,1855,1,188027,238037,-0.46,-1.31,7.98,-0.03,-0.02,-0.00,26.99
40278213,1853,1,189481,238931,0.44,-1.87,9.17,0.00,0.01,-0.05,26.99
40318163,1821,1,189462,239203,0.11,-1.75,8.61,0.01,0.08,-0.01,26.99
40358167,1785,1,189846,240509,0.24,-0.43,9.77,0.02,0.00,-0.05,26.99
40398163,1755,1,190994,241877,0.14,-2.22,10.58,0.04,0.12,-0.12,26.99
40438168,1799,1,192000,243978,0.26,-0.76,12.01,0.03,-0.03,-0.06,26.99
40478177,1803,1,192274,242405,0.24,-1.56,12.65,0.03,0.01,0.01,26.99
40518145,1842,1,190868,241383,-0.18,-1.05,10.58,-0.02,-0.14,-0.01,26.99
40558211,1874,1,189620,238337,0.17,-1.12,10.07,-0.06,-0.08,-0.01,26.99
40597197,1877,1,188462,239466,0.30,-0.09,10.47,-0.05,-0.03,-0.02,26.99
40637194,1945,1,189774,239514,0.02,-0.49,10.42,-0.08,0.07,-0.03,26.99
40677176,1961,1,188399,237943,0.88,-0.86,9.45,-0.07,-0.08,-0.02,26.99
40717197,1915,1,187501,234421,0.76,-0.72,10.02,-0.09,-0.02,-0.01,26.99
40757197,1904,1,185671,231010,0.06,0.10,8.94,-0.06,-0.05,0.02,26.99
40797168,1975,1,185126,232717,1.44,-0.38,11.18,-0.08,0.05,-0.05,26.99
40837176,1920,1,186523,237300,1.00,-1.47,8.95,-0.10,-0.04,-0.01,26.99
40877197,1965,1,187521,235308,1.02,-0.34,9.63,-0.12,-0.03,0.10,26.99
40917176,1936,1,186583,234561,0.07,-1.59,9.70,-0.07,-0.04,0.17,26.99
40957177,1903,1,185676,232349,0.06,0.00,8.96,-0.01,-0.14,-0.02,26.99
40997188,1856,1,185515,233515,1.15,-2.63,10.46,-0.06,0.00,-0.07,26.99
41037176,1941,1,185118,230870,1.24,0.76,7.81,-0.03,-0.10,-0.05,26.99
41077176,1884,1,185549,233385,1.43,-1.21,9.04,-0.01,0.06,-0.01,26.99
41117177,1891,1,186014,234662,1.28,-0.16,9.57,0.04,-0.04,-0.01,26.99
41157176,1862,1,187050,235383,0.21,-2.09,10.13,-0.04,0.02,0.05,26.99
41197168,1904,1,185833,233043,0.67,-0.31,8.46,-0.02,-0.17,0.11,26.99
41237176,1869,1,185450,231663,0.30,-1.59,8.85,0.01,0.05,-0.00,26.99
41277851,1935,1,185392,232380,1.36,-0.40,10.13,0.04,0.04,-0.07,26.97
41316168,1889,1,186116,233943,0.76,-0.97,10.45,-0.04,0.09,0.09,26.97
41356165,1891,1,186754,234864,0.55,-0.67,9.90,0.09,-0.00,0.05,26.97
41396167,1887,1,186295,234877,0.25,-1.48,9.44,-0.11,-0.08,0.14,26.97
41436176,1837,1,186392,234974,0.84,-1.34,10.35,0.03,-0.05,-0.02,26.97
41476176,1862,1,186672,235454,-0.15,-0.48,10.41,-0.05,0.00,-0.02,26.97
41516197,1860,1,186078,236053,0.44,-1.27,9.42,-0.09,-0.11,-0.00,26.97
41556197,1951,1,187338,236234,0.78,0.10,12.30,0.06,0.11,0.01,26.97
41596126,1958,1,187220,237549,0.57,-1.70,10.83,-0.08,-0.04,0.11,26.97
41636176,1943,1,186888,233649,0.61,1.36,9.72,-0.04,-0.01,-0.03,26.97
41676176,1871,1,186445,235353,0.80,-2.38,11.24,-0.13,-0.07,0.01,26.97
41716176,1903,1,186336,233061,0.80,1.18,9.48,-0.01,-0.03,-0.07,26.97
41756176,1835,1,186322,234621,1.02,0.31,10.81,0.02,0.02,-0.02,26.97
41796145,1894,1,185715,231922,1.81,0.09,8.42,-0.12,-0.19,-0.04,26.97
41836177,1815,1,185763,234489,0.88,-2.09,8.84,-0.08,-0.04,0.00,26.97
41876176,1839,1,186290,233259,1.07,-1.34,9.51,-0.04,0.02,-0.01,26.97
41916177,1840,1,185550,232755,1.39,-2.24,9.00,-0.14,-0.25,0.02,26.97
41956176,1825,1,185955,231292,0.31,-1.51,9.42,-0.01,0.13,-0.01,26.97
41996176,1826,1,185190,233088,0.16,-1.52,8.20,-0.17,-0.07,-0.00,26.97
42036197,1802,1,186651,234545,0.07,-1.07,8.74,0.02,0.21,-0.00,26.97
42076165,1841,1,187165,237463,1.17,-1.78,9.62,-0.16,-0.05,0.05,26.97
42116176,1855,1,188384,237088,0.55,-1.70,9.74,0.09,-0.04,-0.02,26.97
42156174,1861,1,186703,235079,0.16,-1.14,8.83,-0.16,-0.07,0.00,26.97
42196176,1904,1,187027,236730,0.38,0.15,9.62,0.06,0.19,-0.03,26.97
42236145,1856,1,188718,239126,1.10,-0.51,11.29,0.01,0.09,-0.18,26.97
42276168,1865,1,189706,240078,1.07,-1.11,11.44,0.01,0.06,-0.05,26.97
42316854,1837,1,189895,241672,0.09,-0.39,11.21,-0.01,0.01,0.03,26.91
42355168,1847,1,191257,244223,0.62,-1.16,11.47,0.03,-0.01,-0.19,26.91
42395176,1882,1,191836,242910,0.30,-0.62,10.48,-0.08,-0.02,-0.08,26.91
42435204,1879,1,189831,239547,0.54,-1.08,10.58,-0.09,-0.10,0.02,26.91
42475176,1886,1,187375,235554,1.29,0.18,8.26,-0.03,-0.12,-0.03,26.91
42515176,1857,1,187217,238616,0.96,-1.07,9.37,-0.07,0.00,-0.22,26.91
42555176,1876,1,189166,238932,0.57,-0.25,9.28,-0.12,0.16,-0.08,26.91
42595176,1837,1,190346,242320,1.09,-0.67,11.10,-0.00,0.01,0.04,26.91
42635189,1874,1,189859,239332,0.26,0.15,8.02,-0.08,-0.05,0.11,26.91
42675168,1875,1,188694,239382,1.41,-2.30,11.51,-0.03,-0.01,0.02,26.91
42715176,1920,1,188425,236936,0.52,-0.70,10.64,-0.05,0.02,-0.01,26.91
42755176,1872,1,187590,239067,0.30,-2.30,9.42,-0.05,-0.18,-0.09,26.91
42795197,1950,1,187446,236111,0.66,-1.13,8.61,-0.12,-0.10,-0.02,26.91
42835214,1907,1,186509,235683,0.68,-1.81,9.03,-0.04,0.01,0.00,26.91
42875164,1920,1,187554,237367,0.41,-1.35,9.35,-0.03,0.09,-0.03,26.91
42915176,1896,1,188172,237848,0.32,-0.76,10.28,-0.05,-0.01,0.03,26.91
42955177,1919,1,187341,234343,1.14,-0.82,9.47,-0.05,-0.03,-0.00,26.91
42995197,1892,1,186009,234403,0.36,-1.04,8.18,-0.11,-0.04,-0.02,26.91
43035196,1905,1,186936,233772,0.49,-0.27,10.00,0.01,0.21,-0.02,26.91
43075168,1872,1,187209,237348,1.02,0.07,10.30,0.00,0.01,-0.02,26.91
43115145,1876,1,188309,237503,0.53,-0.24,9.92,-0.05,0.08,0.06,26.91
43155168,1883,1,188138,239952,0.62,-0.91,9.45,-0.05,0.07,0.03,26.91
43195164,1903,1,190284,240841,0.90,-1.31,11.55,0.01,0.08,-0.14,26.91
43235168,1906,1,188851,239374,0.68,-0.10,11.01,-0.03,-0.08,-0.02,26.91
43275194,1911,1,189799,240260,0.04,-2.18,12.01,-0.07,0.13,0.00,26.91
43315167,1932,1,188062,238566,0.50,0.01,9.37,-0.02,-0.19,0.02,26.91
43355850,1925,1,188503,239055,0.45,-1.86,10.68,-0.05,0.04,0.00,26.85
43396168,1936,1,187229,237361,0.51,-1.05,8.94,-0.10,-0.15,-0.00,26.85
43436196,1915,1,187596,236089,0.24,-0.87,10.23,-0.08,0.11,-0.00,26.85
43476181,1876,1,186509,236755,0.57,-1.01,9.26,-0.07,-0.10,-0.01,26.85
43516197,1891,1,187627,232902,0.52,-2.41,10.52,-0.01,0.09,-0.03,26.85
43554176,1917,1,185112,233532,0.48,-0.56,7.76,-0.10,-0.26,0.12,26.85
43594176,1875,1,187358,234201,0.88,-1.84,11.59,0.08,0.17,-0.16,26.85
43634167,1923,1,187279,238232,0.51,-1.84,8.29,-0.08,-0.23,0.11,26.85
43674176,1871,1,188656,234525,-0.02,-1.12,9.62,-0.01,0.08,-0.14,26.85
43714197,1887,1,185981,231805,0.03,-1.58,9.05,0.01,-0.11,0.07,26.85
43754164,1874,1,187175,237350,0.02,-2.38,11.77,0.04,0.13,-0.09,26.85
43794168,1849,1,187923,235845,-0.10,-0.31,9.10,0.03,-0.12,-0.07,26.85
43834194,1858,1,189160,240962,0.27,-2.02,11.08,-0.04,0.02,0.00,26.85
43874167,1877,1,188335,233879,-0.03,-0.27,9.18,-0.04,0.01,0.10,26.85
43914174,1825,1,185373,232229,-0.22,-2.69,9.98,-0.04,-0.13,0.23,26.85
43954197,1843,1,185271,232338,1.14,-1.58,10.84,-0.01,0.08,-0.05,26.85
43994177,1812,1,185699,233170,-0.17,-1.12,9.36,-0.04,-0.06,-0.11,26.85
44034213,1958,1,185887,233013,0.43,-2.04,10.63,-0.08,0.07,-0.00,26.85
44074176,1872,1,185217,230921,-0.33,-1.46,9.02,0.03,0.00,0.10,26.85
44114167,1841,1,185103,232406,1.63,-2.58,13.55,0.12,-0.10,0.00,26.85
44154167,1857,1,184470,232193,-0.83,-1.47,6.60,-0.11,-0.22,0.26,26.85
44194197,1833,1,185665,233398,0.45,-1.38,9.94,-0.05,0.03,-0.03,26.85
44234176,1871,1,184896,232494,0.06,-1.32,7.95,-0.16,-0.17,0.06,26.85
44274190,1843,1,186361,233380,0.24,-0.97,12.16,0.04,0.16,0.01,26.85
44314145,1856,1,185912,234197,0.55,-0.20,10.48,-0.07,-0.15,0.03,26.85
44354176,1847,1,185865,232431,0.55,-0.77,9.91,-0.08,-0.01,-0.01,26.85
44394883,1878,1,185311,232265,0.52,-0.78,10.09,-0.06,-0.06,-0.02,26.85
44435197,1914,1,184853,229145,0.41,-0.15,7.95,-0.10,-0.04,-0.01,26.85
44475219,1873,1,184843,230834,1.84,0.06,11.60,0.27,0.09,-0.08,26.85
44515145,1892,1,185001,231490,0.33,-1.58,8.79,-0.10,-0.04,0.01,26.85
44555176,1881,1,185264,233832,1.20,-1.45,9.23,-0.15,-0.11,0.04,26.85
44595176,1906,1,186051,232702,-0.01,-1.98,8.43,0.00,0.07,0.08,26.85
44635164,1904,1,185639,233556,0.76,-0.42,9.39,-0.01,-0.11,0.05,26.85
44675176,1879,1,186403,231127,0.15,-0.19,10.68,-0.01,0.21,0.02,26.85
44715167,1903,1,184692,231675,0.20,-2.81,9.46,-0.11,-0.12,0.15,26.85
44753176,1889,1,185973,231834,0.18,-2.60,10.43,0.02,0.25,-0.04,26.85
44793167,1892,1,185066,235241,-0.05,-2.08,8.18,-0.13,-0.38,0.07,26.85
44833197,1867,1,186632,232145,0.28,-1.20,8.64,-0.00,0.09,-0.09,26.85
44873174,1872,1,184880,231915,-0.30,-1.17,9.38,-0.05,-0.23,0.21,26.85
44913197,1836,1,185400,228425,-0.37,-1.74,9.40,0.03,0.13,-0.01,26.85
44953176,1863,1,183694,228530,-0.35,-1.61,7.94,-0.22,-0.11,0.19,26.85
44993198,1842,1,184955,231298,-0.15,-2.44,9.19,0.02,0.17,-0.00,26.85
45033176,1838,1,185560,234456,0.09,0.02,9.71,0.01,-0.18,-0.01,26.85
45073168,1887,1,187652,236598,0.50,-1.90,13.24,0.04,0.16,0.12,26.85
45113145,1895,1,185739,232162,0.19,-0.87,7.73,-0.10,-0.30,0.09,26.85
45153176,1824,1,185560,231304,0.33,-2.27,10.44,0.06,0.11,0.00,26.85
45193145,1838,1,184654,233881,0.02,-1.54,7.67,-0.07,-0.04,-0.09,26.85
45233196,1834,1,188537,239589,0.95,-1.13,12.11,-0.05,0.23,-0.41,26.85
45273176,1943,1,188492,238732,0.52,0.55,10.66,-0.13,-0.08,0.06,26.85
45313168,1983,1,187660,238248,-1.02,0.04,11.81,0.09,-0.04,0.12,26.85
45353167,1991,1,187656,237361,0.74,-0.49,12.85,-0.02,0.08,-0.01,26.85
45393176,1957,1,186453,234210,0.96,-0.64,10.01,-0.14,-0.12,-0.03,26.85
45433883,1878,1,185760,231905,0.46,-1.44,9.03,-0.10,0.06,-0.08,26.91
45474176,1911,1,184793,229167,1.13,-1.35,9.25,-0.08,-0.07,-0.12,26.91
45514197,1902,1,183972,228035,0.70,-1.41,7.27,-0.07,-0.05,-0.00,26.91
45554196,1874,1,184148,228708,0.65,-1.37,8.97,0.00,0.08,-0.01,26.91
45594164,1893,1,184409,232234,0.71,-2.14,8.39,-0.14,-0.02,0.10,26.91
45634176,1872,1,185916,231549,0.26,-0.42,8.00,0.01,-0.01,-0.00,26.91
45674174,1870,1,186677,236663,0.64,-1.88,11.04,-0.01,0.03,0.01,26.91
45714168,1874,1,186557,230499,0.74,-0.49,9.92,-0.05,-0.03,-0.02,26.91
45754194,1881,1,184243,230290,0.06,-2.09,9.39,-0.13,-0.29,0.16,26.91
45794176,1790,1,186128,234083,0.57,-2.39,12.44,0.07,0.40,-0.03,26.91
45834167,1691,1,188174,239832,0.48,-1.60,10.23,-0.07,-0.21,0.05,26.91
45874176,1721,1,190061,241306,-0.02,-1.54,10.58,-0.04,0.09,-0.08,26.91
45914231,1834,1,188538,237029,-0.87,-0.37,8.26,-0.07,-0.24,0.05,26.91
45954197,1795,1,186663,235548,0.56,-1.46,11.18,-0.04,0.00,-0.03,26.91
45992176,1824,1,185803,233929,0.80,-0.63,9.42,-0.09,-0.10,-0.04,26.91
46032196,1843,1,186019,234140,0.36,-1.79,9.43,-0.09,-0.04,-0.14,26.91
46072196,1878,1,185315,233092,0.51,-0.18,8.20,-0.07,-0.07,-0.03,26.91
46112215,1879,1,186623,234704,-0.21,-1.25,11.03,-0.02,0.21,-0.01,26.91
46152197,1963,1,185658,232113,0.57,0.00,8.74,-0.08,-0.14,-0.00,26.91
46192176,1867,1,186190,233701,-0.29,-2.28,12.10,0.04,0.21,0.04,26.91
46232168,1928,1,185319,232518,0.63,-1.27,7.99,-0.05,-0.33,0.05,26.91
46272176,1872,1,185774,232640,-0.10,-1.30,10.57,-0.00,0.12,0.00,26.91
46312176,1957,1,184024,227505,-0.08,-1.14,6.18,-0.07,-0.14,0.04,26.91
46352196,1889,1,183890,228178,0.24,-1.18,10.78,0.07,0.26,-0.12,26.91
46392167,1905,1,184217,231204,-0.07,-0.46,8.86,-0.04,-0.05,-0.02,26.91
46432211,1883,1,186416,234847,0.64,-1.26,11.82,0.03,0.10,-0.14,26.91
46472854,1918,1,185994,233392,0.36,-0.84,9.21,-0.10,-0.15,0.14,26.99
46513176,1893,1,185928,233170,-0.31,-1.52,10.83,0.02,0.06,-0.00,26.99
46553177,1922,1,184322,229040,1.18,0.15,8.74,-0.07,-0.21,-0.03,26.99
46593176,1908,1,184561,232575,1.81,-1.42,12.92,0.08,0.21,-0.12,26.99
46633168,1989,1,184514,229644,0.60,-0.06,7.62,-0.11,-0.22,-0.02,26.99
46673197,1953,1,186186,236851,0.51,-3.34,13.15,0.04,0.25,0.02,26.99
46713145,2031,1,186617,231624,0.12,0.31,8.63,-0.01,-0.05,-0.01,26.99
46753176,1928,1,185157,232426,0.50,-3.47,12.43,0.04,-0.27,0.19,26.99
46793167,1919,1,184825,229884,-0.09,-0.85,9.43,-0.06,-0.05,0.07,26.99
46833197,1878,1,185071,232210,1.39,-2.51,11.71,0.15,-0.01,-0.22,26.99
46873177,1951,1,184729,231425,0.66,0.83,9.41,-0.03,-0.25,0.02,26.99
46913168,1866,1,186175,236092,-0.54,-1.80,8.66,-0.04,0.08,0.05,26.99
46953177,1970,1,186395,234366,0.68,-0.22,10.03,0.03,-0.13,0.01,26.99
46993168,1906,1,186398,236369,-0.07,-2.12,11.38,-0.06,0.06,0.16,26.99
47033176,1936,1,186143,232957,1.19,0.62,10.66,0.00,-0.09,-0.00,26.99
47073168,1877,1,185096,230673,-0.20,-0.81,9.96,-0.07,-0.29,0.06,26.99
47113197,1825,1,184548,230629,0.68,-0.61,9.34,-0.00,-0.03,-0.07,26.99
47153196,1792,1,184514,230514,1.04,0.50,8.67,-0.13,-0.02,-0.08,26.99
47193177,1817,1,184673,230688,1.19,-1.20,8.84,-0.14,0.05,-0.02,26.99
47231176,1839,1,185784,232081,0.58,-1.23,11.22,0.12,0.12,0.05,26.99
47271145,1791,1,185447,231647,0.51,-1.15,9.16,0.02,-0.20,0.01,26.99
47311168,1799,1,185323,231143,0.42,-1.90,8.60,0.01,-0.24,-0.09,26.99
47351176,1843,1,184618,230228,-0.16,-1.91,7.07,-0.24,-0.08,0.03,26.99
47391196,1846,1,184406,228570,0.71,-0.52,8.49,0.01,0.25,-0.01,26.99
47431167,1828,1,186200,236470,0.70,-1.98,11.87,0.06,0.28,0.06,26.99
47471145,1889,1,186418,232627,-0.08,1.02,7.25,-0.11,-0.01,0.12,26.99
47511863,1859,1,186182,236103,0.32,-2.80,9.97,0.00,-0.34,0.17,27.11
47552197,1943,1,186215,232429,0.57,0.30,8.14,-0.04,0.06,0.00,27.11
47592145,1809,1,185992,233800,2.72,-2.09,13.23,0.21,0.03,-0.15,27.11
47632167,1903,1,185242,230076,0.75,1.10,8.73,-0.07,0.02,-0.04,27.11
47672164,1881,1,185250,234696,2.47,-4.29,11.20,-0.21,0.03,-0.04,27.11
47712176,1854,1,185778,232420,0.61,0.80,8.25,-0.01,0.08,0.10,27.11
47752174,1776,1,186399,237894,0.61,-1.99,11.72,-0.09,0.01,0.20,27.11
47792168,1939,1,187203,233387,0.40,0.26,8.99,-0.13,0.13,-0.33,27.11
47832167,1809,1,185872,235418,0.52,-3.02,12.23,-0.16,-0.52,0.25,27.11
47872177,1807,1,185945,229745,-0.01,-0.51,7.44,-0.04,0.13,-0.00,27.11
47912194,1736,1,185660,236680,1.94,-3.98,13.17,-0.01,-0.02,-0.06,27.11
47952198,1839,1,187327,232858,1.07,1.16,8.50,0.02,0.10,-0.57,27.11
47992145,1904,1,186627,239039,0.24,-3.25,11.78,-0.36,-0.40,0.42,27.11
48032177,1887,1,188530,236123,0.45,-0.29,10.98,0.07,0.21,-0.60,27.11
48072167,1934,1,186613,238033,0.52,-1.52,12.67,-0.02,-0.59,0.24,27.11
48112177,1803,1,186899,233060,0.16,-0.96,9.31,-0.07,0.13,-0.08,27.11
48152176,1850,1,185407,232705,-0.33,-1.60,8.81,-0.08,-0.18,0.23,27.11
48192197,1849,1,185680,231001,0.41,-0.36,9.21,-0.05,0.11,-0.24,27.11
48232177,1914,1,184558,233132,0.11,-0.31,7.10,-0.09,-0.11,0.01,27.11
48272176,1853,1,186524,233149,0.23,-1.44,10.11,0.01,0.16,-0.10,27.11
48312168,1926,1,184441,234804,1.50,0.37,8.11,-0.04,-0.32,0.11,27.11
48352168,1792,1,188731,238954,0.12,-2.12,10.21,0.01,0.26,-0.28,27.11
48392167,1911,1,187743,237318,0.79,-0.74,8.66,-0.04,-0.22,0.01,27.11
48432176,1820,1,188934,235244,-0.13,-1.79,10.26,0.02,0.21,-0.02,27.11
48472176,1993,1,185567,231373,-0.25,-1.37,7.87,0.01,-0.14,-0.07,27.11
48510883,1934,1,188016,233894,-0.51,-0.92,10.89,0.10,0.22,-0.14,27.15
48551176,1968,1,185934,235948,0.61,-1.44,7.71,0.01,-0.34,0.08,27.15
48591168,1813,1,190166,241635,-0.81,-1.24,8.95,-0.02,0.08,-0.00,27.15
48631196,1858,1,191362,242714,0.45,-0.49,10.62,0.02,-0.03,0.04,27.15
48671168,1830,1,191304,241583,-0.28,-0.62,11.73,-0.03,-0.03,0.05,27.15
48711196,1859,1,188904,237620,0.52,-0.65,11.61,-0.04,-0.09,-0.02,27.15
48751196,1911,1,186956,236890,-0.32,-0.91,10.09,-0.09,-0.10,-0.00,27.15
48791209,1915,1,186524,236562,1.05,-1.22,10.56,-0.09,-0.09,-0.02,27.15
48831197,1927,1,186288,235118,0.51,0.50,9.41,-0.11,-0.02,-0.01,27.15
48871176,1925,1,186315,235730,0.65,-0.89,11.31,-0.09,0.14,-0.01,27.15
48911176,1947,1,186444,235177,0.21,0.22,10.21,-0.07,0.02,-0.01,27.15
48951167,1954,1,185954,234813,0.85,-0.54,9.58,-0.11,-0.12,0.05,27.15
48991176,1946,1,185732,231929,1.22,-0.36,8.44,-0.07,-0.07,-0.02,27.15
49031197,1887,1,185166,231418,0.01,-2.08,7.89,-0.12,-0.06,0.05,27.15
49071176,1886,1,184906,231778,1.28,-1.17,8.92,-0.04,0.04,-0.02,27.15
49111176,1872,1,186439,236545,0.08,-2.01,10.10,-0.05,0.15,0.00,27.15
49151167,1982,1,187129,234818,0.49,0.34,7.97,-0.05,-0.04,-0.12,27.15
49191223,1919,1,186089,232950,-0.23,-1.92,9.02,-0.04,-0.11,0.21,27.15
49231196,1868,1,185076,229210,0.35,-1.08,9.61,0.07,0.11,0.02,27.15
49271145,1877,1,183838,227988,0.30,-0.98,8.77,-0.00,-0.06,-0.04,27.15
49311196,1929,1,184360,230641,0.80,-0.79,10.62,-0.01,0.24,-0.05,27.15
49351176,1895,1,184413,231689,0.45,-0.11,8.07,-0.03,-0.09,0.03,27.15
49391219,1850,1,186522,236467,0.68,-1.92,12.10,0.03,0.19,0.04,27.15
49431145,1921,1,186314,236011,0.00,-0.70,8.37,-0.07,-0.16,0.02,27.15
49471176,1857,1,187161,236624,0.10,-1.75,12.09,-0.03,0.19,0.00,27.15
49511164,1893,1,186297,235124,0.28,-0.81,10.28,-0.04,-0.08,-0.01,27.15
49551883,1866,1,186901,237646,0.27,-2.32,12.41,-0.01,0.18,-0.01,26.93
49590176,1891,1,188418,238885,0.15,-1.18,12.46,0.00,0.04,-0.15,26.93
49629168,1936,1,187942,237284,-0.42,-1.39,11.37,-0.04,-0.08,0.16,26.93
49669197,1915,1,186523,235905,0.45,-0.88,9.97,0.03,-0.16,-0.01,26.93
49709176,1856,1,186317,234453,0.04,-1.14,10.32,0.00,-0.07,-0.01,26.93
49749176,1847,1,186161,237044,0.40,-2.60,9.73,-0.04,-0.16,-0.10,26.93
49789196,1886,1,186374,234661,0.86,-0.52,9.02,-0.09,-0.15,-0.05,26.93
49829197,1823,1,186178,237758,0.36,-2.20,9.01,-0.07,0.07,-0.02,26.93
49869176,1877,1,187248,234572,0.93,-0.64,10.63,-0.04,0.10,-0.01,26.93
49909176,1823,1,185660,233126,0.27,-1.72,9.96,0.01,-0.11,0.13,26.93
49949168,1829,1,184544,229167,0.82,0.57,9.20,0.01,-0.02,-0.02,26.93
49989164,1796,1,184182,230917,1.01,-2.17,9.62,-0.03,-0.06,-0.12,26.93
50029196,1858,1,183635,227964,0.35,-0.66,5.78,-0.12,-0.06,0.02,26.93
50069176,1806,1,184220,233411,1.19,-0.38,11.90,0.20,0.19,-0.02,26.93
50109168,1803,1,187328,236309,0.68,-0.49,10.07,-0.03,0.09,-0.27,26.93
50149176,1853,1,186648,234956,0.31,-1.66,9.91,-0.25,-0.02,0.12,26.93
50189176,1893,1,186029,235315,0.33,-1.72,9.50,0.13,-0.18,0.01,26.93
50229167,1855,1,185368,231824,0.44,-0.02,8.12,-0.02,-0.03,-0.03,26.93
50269196,1881,1,186286,237710,0.98,-0.14,13.97,0.04,0.36,-0.15,26.93
50309167,1897,1,187885,236602,1.17,-1.08,9.92,-0.05,-0.02,-0.09,26.93
50349197,1903,1,188827,239176,0.44,-2.18,13.39,0.09,-0.05,0.04,26.93
50389168,1914,1,188170,237060,-0.70,-2.35,10.42,-0.02,-0.12,0.16,26.93
50429197,1856,1,186939,236361,-0.15,-3.22,10.77,0.05,-0.18,0.01,26.93
50469176,1891,1,186093,233702,-0.32,-1.01,9.01,-0.11,-0.11,-0.01,26.93
50509213,1834,1,186432,236842,0.43,-1.62,11.31,0.08,0.17,-0.07,26.93
50549168,1900,1,187629,236578,0.65,0.93,10.33,0.00,-0.05,-0.09,26.93
50589854,1904,1,187926,240262,0.47,-2.30,10.92,-0.03,-0.21,0.13,26.97
50629176,2029,1,186325,231392,0.20,0.15,6.03,-0.15,-0.09,-0.09,26.97
50669176,1789,1,185221,234269,1.65,-2.10,10.24,-0.02,-0.12,0.03,26.97
50709176,1850,1,184704,228894,1.25,2.49,8.51,0.01,0.07,-0.06,26.97
50749145,1802,1,185033,235897,1.85,-2.86,11.83,0.06,-0.03,-0.14,26.97
50789177,1873,1,185957,231268,1.45,1.39,7.21,-0.05,0.02,-0.16,26.97
50829198,1751,1,186965,238614,-0.10,-2.08,11.17,-0.11,0.19,0.16,26.97
50869177,1794,1,186875,232511,0.61,0.24,6.85,-0.05,-0.09,-0.09,26.97
50909176,1726,1,185603,232710,0.96,-1.05,10.41,0.03,0.06,0.01,26.97
50949145,1898,1,184355,228721,-0.08,-0.91,7.42,-0.05,-0.18,0.02,26.97
50989197,1866,1,183619,233266,0.75,-1.15,6.75,-0.09,0.08,0.07,26.97
51029200,1758,1,189376,239464,1.47,-0.92,12.24,-0.02,0.25,-0.44,26.97
51069177,1862,1,190014,241760,0.96,-0.63,9.90,-0.27,-0.10,0.29,26.97
51109176,1862,1,189618,236828,-1.36,-1.21,10.57,0.16,-0.08,0.03,26.97
51149177,1856,1,186229,235207,-1.01,-1.79,8.50,-0.00,-0.43,-0.05,26.97
51189210,1860,1,186210,233873,1.18,-0.16,11.23,-0.06,0.28,-0.09,26.97
51229177,1939,1,186213,239627,0.98,-0.87,9.93,-0.10,-0.12,-0.06,26.97
51269196,1920,1,189826,239603,1.13,0.78,11.47,-0.08,0.07,-0.01,26.97
51309168,1967,1,189325,241021,-0.01,-1.60,13.70,0.06,-0.17,0.20,26.97
51349177,2064,1,187866,236812,0.54,-0.13,10.84,0.00,-0.22,0.00,26.97
51389167,1904,1,186021,234529,0.54,-1.71,10.43,-0.16,-0.32,-0.07,26.97
51429196,1909,1,185626,231369,1.00,-0.75,10.75,-0.10,0.15,-0.09,26.97
51469176,1909,1,184680,230550,0.68,0.17,9.82,-0.14,-0.12,-0.04,26.97
51509176,1900,1,184818,229846,0.18,-0.04,9.89,0.04,0.06,0.09,26.97
51549145,1925,1,184972,231934,0.40,-1.41,9.98,-0.11,0.07,0.06,26.97
51589167,1938,1,184988,229221,0.41,-0.59,8.32,-0.21,-0.04,0.18,26.97
51629863,1869,1,184347,229327,0.22,-1.64,6.86,-0.05,-0.24,0.01,26.87
51669177,1858,1,184150,228425,0.86,0.58,7.19,-0.04,0.07,-0.10,26.87
51709168,1851,1,184734,230163,2.00,-1.70,10.71,0.03,0.11,-0.01,26.87
51749167,1904,1,184005,229215,0.85,0.32,7.93,-0.12,-0.03,0.09,26.87
51789168,1853,1,185629,232542,0.03,-1.71,10.63,0.09,0.35,0.20,26.87
51829145,1930,1,184556,230691,0.31,0.24,8.11,-0.02,-0.05,0.04,26.87
51869168,1856,1,185599,233325,0.80,-1.30,12.08,0.10,0.19,0.03,26.87
51909145,1921,1,184923,231838,0.40,-0.91,9.29,-0.05,-0.09,-0.00,26.87
51949196,1859,1,187220,237391,-0.07,-1.12,12.67,-0.01,0.29,0.02,26.87
51989177,1887,1,186961,238839,1.30,0.79,10.45,0.02,-0.13,-0.01,26.87
52029168,1851,1,189279,239051,-0.15,-1.39,9.85,-0.10,0.06,-0.14,26.87
52067196,1967,1,186118,229405,0.94,-0.85,9.64,-0.08,-0.10,-0.01,26.87
52107197,1872,1,183686,227440,0.51,-2.11,10.71,0.08,-0.05,0.01,26.87
52147167,1891,1,183264,227580,0.59,-1.15,9.35,0.04,-0.06,-0.05,26.87
52187176,1857,1,185973,234307,-0.51,-1.69,10.13,-0.06,-0.00,0.00,26.87
52227196,1917,1,187295,234647,0.26,-0.45,8.71,-0.08,-0.13,0.06,26.87
52267176,1983,1,186046,234001,0.12,-0.17,8.26,-0.04,-0.14,0.01,26.87
52307177,1886,1,187210,234039,-0.01,-1.52,11.86,-0.01,0.12,0.00,26.87
52347176,1904,1,185112,230190,0.76,-0.97,9.70,-0.00,-0.19,-0.01,26.87
52387196,1840,1,184682,231058,-0.17,-1.30,10.10,-0.04,0.09,-0.01,26.87
52427197,1861,1,185573,232622,-0.32,-1.03,10.25,-0.01,0.09,-0.01,26.87
52467220,1907,1,185999,234590,-0.00,-0.10,9.40,-0.06,-0.04,0.01,26.87
52507197,1915,1,187880,236450,0.56,-1.38,13.10,0.10,0.13,-0.10,26.87
52547167,2003,1,186901,236226,0.02,-0.77,8.34,-0.03,-0.33,-0.02,26.87
52587197,1873,1,186826,233939,-0.05,-2.13,10.52,-0.08,0.00,-0.01,26.87
52627197,1905,1,185295,235744,-0.03,-2.30,8.91,-0.07,-0.09,0.11,26.87
52667901,1862,1,188927,239452,-0.01,-1.74,11.14,-0.00,0.15,-0.23,26.99
52708197,1930,1,189914,241454,0.45,-0.42,11.95,0.00,-0.09,0.08,26.99
52748167,1951,1,189632,240248,-0.49,-1.04,11.44,-0.04,-0.06,0.11,26.99
52788196,1905,1,188820,239071,-0.13,-0.49,11.02,0.01,-0.10,0.02,26.99
52828176,1892,1,186995,236608,0.67,-1.78,9.36,-0.12,-0.13,-0.03,26.99
52868197,1803,1,187224,235995,0.53,-0.57,10.30,-0.04,0.14,-0.11,26.99
52908176,1841,1,186321,235418,0.68,-0.68,8.97,-0.11,-0.14,-0.14,26.99
52948196,1841,1,186707,233890,0.50,0.43,8.80,0.01,0.19,-0.14,26.99
52988145,1910,1,185640,234998,1.21,-0.85,9.20,-0.00,-0.03,-0.06,26.99
53028197,1805,1,188147,239370,0.18,-0.67,8.17,-0.03,0.15,-0.06,26.99
53068176,1839,1,189617,240588,0.92,-1.40,10.60,-0.04,-0.05,0.07,26.99
53108177,1849,1,188951,239578,0.32,-0.89,7.98,-0.01,-0.08,0.06,26.99
53148176,1880,1,186950,235986,1.33,0.14,9.03,-0.05,-0.23,0.00,26.99
53188167,1891,1,185962,233608,0.55,-1.98,9.95,-0.04,0.27,0.08,26.99
53228168,1943,1,185027,233194,0.75,0.25,9.85,-0.01,0.00,0.01,26.99
53266145,1835,1,187459,236857,-0.18,-1.25,11.35,-0.04,0.22,0.01,26.99
53306176,1942,1,185498,234122,0.85,0.18,8.28,-0.19,-0.31,0.00,26.99
53346167,1908,1,186535,234501,0.36,-1.93,11.56,0.18,0.23,0.04,26.99
53386145,1925,1,185621,235727,-1.44,-0.53,8.41,-0.17,-0.27,0.15,26.99
53426196,1843,1,187331,235044,0.22,-1.66,13.53,-0.07,0.36,-0.01,26.99
53466177,2045,1,185430,233948,-1.41,-1.14,10.01,-0.36,-0.83,0.30,26.99
53506196,1657,1,186384,233248,1.14,-2.12,8.86,0.01,0.64,0.14,26.99
53546145,1600,1,185016,230944,-1.29,-0.43,7.10,-0.25,-0.41,0.24,26.99
53586197,1493,1,185413,229936,0.47,-0.21,11.88,0.05,0.56,-0.03,26.99
53626168,1555,1,184947,230572,-0.15,-0.20,8.95,-0.26,-0.22,0.15,26.99
53666197,1602,1,185342,229594,0.31,-0.98,8.95,-0.14,0.19,0.05,26.99
53707854,1601,1,185529,229953,0.75,0.21,8.64,-0.05,-0.02,0.20,27.03
53746164,1615,1,186176,231029,0.72,-1.18,10.45,0.11,0.13,0.02,27.03
53786145,1675,1,185863,231302,0.95,0.24,8.86,-0.17,-0.11,-0.02,27.03
53826176,1683,1,186580,231669,0.30,-1.03,11.38,0.01,0.33,0.02,27.03
53866145,1758,1,185733,231258,0.52,-0.48,8.16,-0.09,-0.16,-0.05,27.03
53906197,1759,1,186457,233116,0.43,-1.46,10.60,0.11,0.20,-0.00,27.03
53946168,1861,1,186162,234187,0.88,-0.90,8.98,-0.04,-0.14,-0.00,27.03
53986197,1866,1,186912,235382,0.31,-2.03,9.95,0.01,-0.02,0.01,27.03
54026168,1936,1,186837,236575,0.10,-0.44,8.53,-0.09,-0.04,0.01,27.03
54066174,1943,1,187916,237096,0.46,-1.70,11.42,0.12,0.02,-0.05,27.03
54106199,1979,1,187179,238020,0.59,-0.27,9.57,-0.05,-0.14,-0.02,27.03
54146197,2004,1,188607,239313,0.45,-1.84,12.86,0.05,0.13,-0.08,27.03
54186168,2085,1,187605,238761,0.27,-0.90,10.45,-0.08,-0.21,0.09,27.03
54226176,2039,1,188238,237434,0.09,-1.91,12.84,0.09,0.11,-0.04,27.03
54266168,2080,1,186157,235281,0.65,-0.29,9.30,-0.03,-0.36,-0.02,27.03
54306242,1997,1,186406,236437,0.44,-2.18,9.82,-0.04,-0.09,-0.09,27.03
54346197,2042,1,186675,236469,0.53,0.01,9.26,-0.09,-0.12,-0.03,27.03
54386176,2070,1,186316,234610,0.51,-1.78,8.86,-0.13,-0.05,-0.01,27.03
54426197,2018,1,185770,234188,0.79,-0.59,8.42,-0.02,-0.04,-0.00,27.03
54466196,1991,1,186359,235369,-0.04,-0.29,9.97,-0.02,0.10,-0.00,27.03
54506196,2012,1,185993,233447,0.45,-0.14,9.15,-0.15,-0.03,-0.02,27.03
54546197,1998,1,185318,231449,0.79,-1.36,8.56,-0.04,-0.15,-0.05,27.03
54586197,1919,1,184553,229103,0.99,-1.24,8.48,0.03,0.16,-0.04,27.03
54626167,1871,1,184243,231239,0.97,-1.12,9.86,0.06,0.00,-0.05,27.03
54666168,1853,1,186052,236852,0.34,-1.81,8.62,-0.12,0.07,0.03,27.03
54706167,1845,1,187861,237020,0.44,-0.92,9.84,-0.05,0.01,0.06,27.03
54746854,1845,1,187389,235195,-0.31,-2.05,9.57,-0.00,-0.03,0.11,27.03
54785197,1886,1,185364,229966,0.63,-2.38,10.61,0.15,-0.18,-0.06,27.03
54825176,1883,1,185173,231802,0.48,-1.36,11.13,0.15,0.11,-0.05,27.03
54865167,1906,1,186651,236257,0.06,-1.38,10.93,-0.03,-0.03,-0.08,27.03
54905196,2020,1,187636,237312,0.58,-1.68,11.72,-0.20,0.12,0.20,27.03
54945167,1975,1,187016,235819,-0.36,-0.48,9.36,0.04,-0.08,0.12,27.03
54985176,1943,1,186541,236358,0.58,-0.34,12.26,0.11,-0.04,-0.04,27.03
55025180,1932,1,186824,236651,0.13,-1.76,11.37,-0.11,-0.01,-0.01,27.03
55065196,1952,1,186339,234020,0.30,-0.05,9.79,-0.17,-0.02,-0.02,27.03
55105194,1911,1,185491,231820,0.75,-1.71,9.65,-0.07,-0.04,-0.07,27.03
55145197,1901,1,184540,228518,0.26,-0.06,7.70,-0.05,0.03,-0.01,27.03
55185174,1849,1,184521,229451,2.00,-0.52,12.03,0.22,0.08,-0.09,27.03
55225168,1873,1,185022,234709,0.86,-0.51,10.53,-0.06,-0.13,0.02,27.03
55265176,1926,1,186470,233951,0.25,-0.80,8.40,-0.17,-0.02,0.21,27.03
55305176,1979,1,186019,232840,-0.07,-1.70,8.43,0.01,-0.46,0.08,27.03
55345176,1834,1,186297,234232,0.69,-1.60,10.23,0.17,0.02,-0.15,27.03
55385168,1821,1,185800,232464,0.88,-1.79,8.50,-0.11,-0.20,-0.06,27.03
55425196,1856,1,185699,234706,0.50,-2.04,8.92,-0.18,0.04,-0.10,27.03
55465176,1865,1,186449,234512,0.93,-1.07,10.24,0.11,-0.07,-0.12,27.03
55505176,1943,1,186191,236251,0.07,-1.46,8.61,-0.20,0.01,0.10,27.03
55545167,1866,1,187444,237137,0.06,-0.13,9.93,0.10,0.11,-0.31,27.03
55585167,1889,1,187628,238523,0.73,0.34,11.55,-0.02,-0.07,-0.01,27.03
55625176,1878,1,186495,233975,-0.02,-0.33,8.88,-0.15,0.01,0.10,27.03
55665176,1859,1,186794,238034,0.10,-0.80,12.15,0.12,0.37,-0.01,27.03
55705168,1889,1,188370,236587,0.97,0.60,10.84,0.03,-0.04,-0.38,27.03
55745192,1904,1,186142,236995,0.30,-1.59,10.41,-0.14,-0.24,0.09,27.03
55785863,1885,1,187381,237839,0.32,-1.76,9.27,-0.03,0.11,-0.13,27.03
55824176,1895,1,187437,238124,1.07,-0.51,9.81,-0.09,-0.09,-0.06,27.03
55864196,1857,1,188753,238904,0.32,-2.07,10.70,0.09,0.09,-0.03,27.03
55904164,1905,1,186567,236790,0.73,-0.39,8.42,-0.07,-0.24,-0.02,27.03
55944229,1847,1,188573,238690,0.09,-2.13,10.80,-0.05,0.24,-0.01,27.03
55984176,1936,1,185870,234139,1.02,0.14,7.88,-0.16,-0.32,-0.04,27.03
56024203,1835,1,187922,237785,-0.15,-0.97,12.78,0.08,0.57,-0.03,27.03
56064176,1894,1,186208,233092,0.59,0.59,8.39,-0.09,-0.21,0.04,27.03
56104168,1825,1,186646,234544,-0.05,-3.25,10.63,0.03,0.29,0.02,27.03
56144167,1920,1,184723,232068,0.61,0.25,8.02,-0.03,-0.17,0.01,27.03
56184167,1797,1,188495,240099,0.25,-3.13,13.25,0.06,0.34,-0.11,27.03
56224167,1975,1,187857,234976,0.31,0.76,9.64,-0.09,-0.21,-0.07,27.03
56264176,1855,1,186408,235686,-0.45,-4.28,9.33,-0.06,-0.15,0.11,27.03
56304197,1909,1,185586,232676,0.70,0.16,9.21,-0.01,0.01,-0.03,27.03
56344167,1869,1,187204,237675,-0.45,-3.29,10.64,-0.03,0.20,0.01,27.03
56384176,1929,1,187868,237723,0.42,-0.41,9.75,-0.01,-0.01,-0.17,27.03
56424196,1872,1,189561,238822,0.12,-2.08,11.62,-0.04,0.12,0.03,27.03
56464168,1934,1,187318,236092,0.65,-1.17,9.06,0.02,-0.30,0.00,27.03
56504167,1877,1,186437,235928,0.77,-1.69,10.11,-0.02,0.04,-0.02,27.03
56544176,1884,1,186355,233129,0.32,-0.99,7.56,-0.07,0.01,-0.08,27.03
56584176,1918,1,185454,233120,0.64,-1.80,9.70,-0.10,-0.22,-0.17,27.03
56624197,1787,1,185406,236581,0.20,-0.30,7.92,0.01,0.19,-0.01,27.03
56664167,1699,1,190711,244016,1.43,-1.38,11.40,0.00,0.16,-0.12,27.03
56704167,1779,1,191906,243783,0.58,-1.81,11.10,-0.08,-0.01,0.10,27.03
56744176,1814,1,190302,238495,-1.03,-0.36,10.50,0.03,-0.05,0.11,27.03
56784176,1803,1,187064,235563,0.45,-1.95,11.94,0.04,-0.04,-0.05,27.03
56824862,1827,1,186107,234231,-0.31,-1.51,9.73,-0.07,-0.12,-0.16,27.03
56865210,1871,1,187660,239270,1.08,-0.32,12.11,0.07,0.17,-0.15,27.03
56905167,1898,1,187909,238481,0.53,-1.15,8.75,-0.06,-0.25,0.06,27.03
56943176,1893,1,190238,241501,-0.34,-1.67,11.29,0.14,-0.04,0.05,27.03
56983176,1987,1,186710,234345,0.06,-0.55,6.71,-0.13,-0.32,0.13,27.03
57023195,1838,1,185990,234200,1.83,-3.13,8.88,0.08,-0.21,-0.02,27.03
57063176,1758,1,185071,230666,0.77,-0.68,9.55,0.01,0.06,0.05,27.03
57103145,1706,1,186182,235446,0.72,-1.03,10.09,0.02,-0.00,-0.15,27.03
57143176,1837,1,186505,235638,0.72,-1.12,10.08,-0.08,-0.07,0.10,27.03
57183176,1837,1,186503,236316,-0.50,-0.53,8.19,-0.09,-0.07,0.15,27.03
57223197,1871,1,186259,234419,0.93,-1.61,9.90,-0.04,-0.02,-0.00,27.03
57263193,1875,1,185434,233061,-0.24,-1.45,8.98,-0.07,-0.06,0.03,27.03
57303196,1907,1,184587,229736,0.53,0.11,9.01,-0.06,0.06,-0.02,27.03
57343163,1984,1,183950,233161,1.19,-1.09,8.92,-0.15,-0.00,0.05,27.03
57383236,1968,1,186280,235320,1.16,-0.80,10.07,0.00,0.14,0.14,27.03
57423144,2017,1,186773,235688,0.51,-0.03,9.64,-0.22,0.13,0.24,27.03
57463168,2046,1,186066,232594,-0.32,-0.72,10.19,0.21,-0.29,0.03,27.03
57503176,2000,1,184343,229985,-0.58,-0.52,8.58,-0.04,-0.13,-0.08,27.03
57543213,2031,1,184134,230587,1.40,-1.85,10.00,-0.05,0.01,-0.20,27.03
57583216,2001,1,185757,236979,0.15,-1.08,10.25,-0.04,0.08,0.00,27.03
57623167,2023,1,186563,235796,0.15,-0.17,7.92,-0.26,-0.01,0.12,27.03
57663176,2000,1,187099,237281,-0.05,-1.85,11.12,0.15,-0.01,0.08,27.03
57703176,2022,1,187013,234855,0.08,0.02,10.50,-0.03,0.06,0.03,27.03
57743144,1945,1,185970,233237,1.22,-0.58,11.19,0.09,-0.08,0.01,27.03
57783168,1910,1,185597,234601,0.47,-1.26,10.42,-0.04,-0.02,-0.05,27.03
57823197,1921,1,187221,236945,0.51,-1.03,13.76,0.08,0.10,0.00,27.03
57863834,2060,1,185871,234036,-0.28,-0.41,7.98,-0.34,-0.09,0.17,26.85
57904196,1890,1,186775,237653,1.14,-0.56,11.85,0.27,0.56,-0.11,26.85
57944167,1979,1,185941,231332,0.32,0.42,9.64,-0.11,-0.24,0.10,26.85
57984167,1817,1,184454,232885,0.80,-2.72,6.84,-0.34,-0.53,0.25,26.85
58024204,1669,1,185267,229706,1.36,0.63,12.11,0.09,0.63,-0.12,26.85
58064145,1631,1,184564,235666,0.38,-1.71,9.64,-0.49,-0.31,-0.07,26.85
58104197,1714,1,186430,232682,0.67,0.59,11.40,0.44,-0.28,-0.09,26.85
58142167,1823,1,185696,236816,-0.42,-1.30,8.41,-0.24,-0.09,0.20,26.85
58182197,1838,1,187259,234423,0.02,-0.28,10.29,0.24,-0.14,-0.17,26.85
58222176,1973,1,184396,230276,-0.32,-1.55,8.70,-0.20,-0.30,0.04,26.85
58262197,1762,1,184583,229016,1.11,-1.23,11.76,0.11,0.81,-0.38,26.85
58302167,1843,1,184610,233576,0.13,1.00,8.33,-0.10,0.05,-0.03,26.85
58342167,1715,1,188819,240458,1.34,-1.86,13.34,0.25,0.01,-0.02,26.85
58382167,1923,1,190309,242456,0.12,-0.41,8.09,-0.12,-0.05,0.08,26.85
58422176,1894,1,190452,241450,-0.57,-3.62,11.82,0.10,-0.01,0.06,26.85
58462176,1914,1,188165,237095,-0.80,-0.48,8.45,-0.07,-0.12,0.01,26.85
58502196,1850,1,187203,236732,0.18,-0.92,11.00,0.08,0.18,-0.08,26.85
58542163,1904,1,188239,240516,-0.32,-0.06,11.26,-0.02,0.05,-0.07,26.85
58582197,1897,1,189752,241007,0.30,-1.99,12.90,0.01,0.05,-0.02,26.85
58622164,2006,1,188821,241532,0.16,-0.77,10.69,-0.03,-0.19,0.18,26.85
58662176,2022,1,188484,238862,-0.53,-1.80,10.46,-0.03,-0.06,0.07,26.85
58702196,1921,1,187294,238250,0.17,0.28,12.35,-0.01,-0.03,-0.01,26.85
58742176,1893,1,186634,234949,-0.36,-2.19,10.48,-0.10,-0.11,-0.02,26.85
58782210,1857,1,185382,233534,0.42,-0.22,8.49,-0.02,-0.18,-0.24,26.85
58822197,1878,1,185452,230621,-0.41,-2.49,8.93,-0.09,0.17,0.02,26.85
58862176,1933,1,183655,227440,1.19,-0.94,8.16,-0.11,-0.27,0.03,26.85
58902863,1876,1,185004,230998,-0.60,-1.80,9.48,0.05,0.43,0.07,27.03
58943164,1929,1,183802,228525,0.86,-0.83,7.44,-0.03,-0.35,-0.03,27.03
58983197,1923,1,184216,227854,-0.53,-1.25,6.51,-0.29,0.40,0.16,27.03
59023204,1945,1,183463,230038,0.90,0.17,6.07,0.26,-0.16,-0.22,27.03
59063168,1856,1,188318,238604,1.18,-0.56,12.62,0.06,0.28,-0.18,27.03
59103167,1923,1,189915,241833,0.23,0.07,7.63,-0.25,0.06,0.11,27.03
59143144,1894,1,191617,241206,0.18,-1.00,11.56,0.27,0.03,-0.12,27.03
59183167,1907,1,190641,242614,-0.22,-2.45,10.47,-0.20,-0.05,-0.01,27.03
59223249,1877,1,189503,237212,0.24,0.56,9.66,0.15,-0.02,-0.10,27.03
59263167,1888,1,189018,241904,0.45,-1.44,12.30,0.02,-0.04,-0.06,27.03
59303176,1910,1,191643,243969,0.19,-0.10,10.48,-0.06,-0.06,-0.12,27.03
59341196,1893,1,192330,243395,0.18,-1.24,12.97,-0.11,0.00,0.14,27.03
59381167,2000,1,189156,239417,0.17,-1.08,11.04,-0.04,-0.26,0.04,27.03
59421176,1887,1,187704,236872,-0.15,-0.91,11.74,-0.05,-0.06,-0.02,27.03
59461213,1936,1,186478,234129,-0.28,-0.92,9.60,-0.12,-0.36,-0.10,27.03
59501210,1963,1,185512,231450,1.01,-0.25,9.90,-0.07,0.06,0.05,27.03
59541167,1923,1,184765,231665,0.98,-1.69,8.91,-0.24,-0.09,0.19,27.03
59581176,1853,1,184403,229794,0.87,-0.20,7.00,-0.17,-0.05,0.14,27.03
59621176,1888,1,184559,230942,0.97,-0.71,9.09,-0.22,0.18,0.18,27.03
59661167,1835,1,185362,229942,0.58,-1.01,11.18,0.01,0.56,0.14,27.03
59701144,1799,1,184184,227385,0.48,-0.57,9.27,-0.06,-0.33,0.08,27.03
59741176,1839,1,183298,226214,1.94,-2.19,9.89,-0.13,-0.17,0.21,27.03
59781176,1743,1,182918,225182,1.35,-1.20,8.27,-0.01,0.74,0.08,27.03
59821167,1664,1,183496,230065,1.65,-0.52,9.12,-0.15,0.32,-0.02,27.03
59861176,1710,1,184928,231109,1.00,-0.90,9.62,-0.12,0.17,0.23,27.03
59901167,1726,1,185839,234203,0.58,-2.74,10.28,-0.08,0.09,0.08,27.03
59941854,1742,1,185340,229829,-0.21,-0.31,6.70,0.12,-0.25,-0.06,27.03
59982196,1815,1,185145,233256,1.07,-2.18,9.67,0.18,-0.21,-0.23,27.03
60022176,1842,1,185648,231891,0.94,-0.28,10.72,-0.01,0.08,-0.02,27.03
60062176,1802,1,186743,239245,0.87,-1.22,10.10,-0.23,-0.08,-0.11,27.03
60102201,1894,1,188887,239007,0.46,-0.34,10.05,0.20,-0.13,-0.01,27.03
60142176,1872,1,189435,242160,-0.15,-1.52,11.97,-0.14,0.05,0.04,27.03
60182176,1934,1,189530,238954,-0.72,-0.56,11.30,0.15,0.00,-0.22,27.03
60222176,1970,1,186923,238241,-0.03,-0.42,10.91,-0.08,-0.35,-0.09,27.03
60262213,1959,1,187068,236475,1.36,-2.01,11.77,-0.09,0.06,-0.02,27.03
60302176,1919,1,185929,237215,-0.18,-0.68,8.86,-0.19,-0.30,-0.13,27.03
60342213,1962,1,187550,233589,0.26,0.17,11.72,0.06,0.35,0.01,27.03
60382125,1973,1,184024,230631,-1.14,0.08,8.73,-0.38,-0.76,0.09,27.03
60422176,1909,1,185236,228389,-0.40,-2.53,12.10,0.14,1.07,0.12,27.03
60462167,1922,1,183503,229309,-0.31,-0.86,7.88,-0.20,-0.51,0.09,27.03
60502196,1867,1,184329,227532,-0.02,-1.18,9.63,0.21,0.02,0.01,27.03
60540167,1946,1,183936,231438,0.94,-2.03,9.46,-0.06,-0.07,-0.05,27.03
60580196,1895,1,186411,233942,0.01,-1.67,9.86,-0.18,0.25,0.03,27.03
60620167,1909,1,186018,233962,0.45,-2.26,9.08,-0.07,-0.00,0.06,27.03
60660176,1920,1,188094,237613,-0.30,-0.71,9.24,0.13,0.05,-0.14,27.03
60700176,1898,1,189478,238191,0.82,-0.74,10.54,0.12,-0.06,-0.16,27.03
60740176,1893,1,189765,241238,0.80,-1.48,9.84,-0.11,-0.02,-0.09,27.03
60780196,1937,1,191056,240920,0.45,-0.77,9.83,0.00,0.00,-0.07,27.03
60820167,1921,1,190549,242470,0.13,-1.02,8.64,-0.07,-0.04,-0.04,27.03
60860216,1897,1,191547,241416,0.41,-1.06,10.66,0.14,-0.04,-0.07,27.03
60900176,1890,1,192192,245046,0.19,-1.60,11.20,-0.01,0.07,-0.01,27.03
60940176,1899,1,192232,240905,0.52,-0.18,11.56,-0.03,0.02,-0.05,27.03
60980862,1895,1,188671,238378,0.20,-2.66,10.29,-0.13,-0.23,0.01,27.03
61021183,1872,1,187705,235674,0.25,-0.34,8.80,0.06,-0.02,-0.02,27.03
61061198,1859,1,187066,235379,0.66,-0.73,9.67,-0.12,0.12,-0.03,27.03
61101176,1885,1,188947,239391,0.83,-1.78,11.71,0.14,0.11,0.01,27.03
61141144,1891,1,189253,238451,-0.13,0.61,9.05,-0.18,0.00,0.16,27.03
61181167,1903,1,189337,238169,0.41,-1.62,12.64,0.13,-0.02,0.05,27.03
61221168,1936,1,186263,232906,0.37,-0.19,9.07,-0.14,-0.32,-0.05,27.03
61261196,1856,1,185576,231265,1.40,-1.20,8.75,0.00,0.23,-0.10,27.03
61301167,1889,1,184903,231962,0.67,-0.17,8.67,-0.11,0.01,-0.06,27.03
61341176,1872,1,187745,235167,0.56,-2.05,11.76,0.03,0.19,0.01,27.03
61381144,1936,1,185850,234742,-0.12,-0.22,8.00,-0.27,-0.16,0.22,27.03
61421196,1872,1,187021,235417,-0.06,-2.08,10.09,0.18,-0.06,0.01,27.03
61461176,1937,1,185392,232636,0.96,-0.47,9.00,-0.16,-0.34,-0.03,27.03
61501196,1843,1,185755,232839,0.36,-1.68,9.97,0.03,0.36,-0.02,27.03
61541167,1888,1,184876,232730,-0.15,-0.04,8.10,-0.09,-0.26,-0.03,27.03
61581209,1851,1,187156,237925,-0.13,-1.71,11.36,-0.01,0.39,0.01,27.03
61621176,1890,1,186933,234974,0.46,-0.32,9.44,-0.12,-0.07,0.07,27.03
61661176,1873,1,188343,241407,0.47,-1.47,11.54,0.18,0.17,-0.13,27.03
