timestamp_us,ecg,leads,ir,red,accX,accY,accZ,gyroX,gyroY,gyroZ,temp
2420524,1664,1,196186,243676,0.00,0.00,0.00,0.00,0.00,0.00,0.00
2450963,1648,1,196612,244682,-1.85,-2.99,10.75,-0.01,0.02,-0.34,28.19
2491203,1744,1,195912,243947,-2.70,-2.56,8.77,-0.10,-0.17,-0.35,28.19
2531210,1733,1,196558,244679,-2.43,-2.30,9.43,-0.01,0.01,-0.46,28.19
2571196,1782,1,196745,245947,-2.41,-3.50,9.84,-0.09,-0.06,-0.42,28.19
2611209,1691,1,196745,245020,-2.39,-2.62,10.60,-0.06,0.01,-0.40,28.19
2651196,1701,1,196417,245231,-2.54,-2.83,9.04,-0.07,-0.01,-0.37,28.19
2691209,1783,1,196574,245585,-2.04,-2.73,10.73,-0.07,0.08,-0.36,28.19
2731196,1776,1,196165,243757,-2.46,-3.25,9.45,-0.08,-0.00,-0.35,28.19
2771210,1904,1,195733,244493,-2.00,-2.71,8.73,-0.08,0.05,-0.47,28.19
2811196,1863,1,195897,244085,-2.37,-2.84,9.67,-0.07,0.10,-0.39,28.19
2851196,1776,1,196150,244948,-2.52,-3.05,8.71,-0.05,0.07,-0.34,28.19
2891196,1813,1,196211,243610,-2.04,-2.27,10.02,-0.02,0.13,-0.30,28.19
2931195,1808,1,195954,244133,-2.49,-3.82,8.67,-0.11,-0.01,-0.32,28.19
2971213,1861,1,195675,243498,-2.35,-2.93,9.82,-0.05,0.03,-0.34,28.19
3011196,1857,1,195725,244074,-2.28,-2.88,8.56,-0.07,0.04,-0.32,28.19
3051196,1943,1,195936,244621,-2.16,-3.10,9.55,-0.01,0.06,-0.28,28.19
3091195,1995,1,195817,243367,-2.18,-3.28,10.13,-0.04,-0.01,-0.19,28.19
3131213,1984,1,195645,244016,-2.27,-2.34,9.07,-0.03,-0.07,-0.23,28.19
3171209,1808,1,195898,243378,-2.29,-2.64,9.66,-0.01,0.05,-0.26,28.19
3211197,1873,1,195593,242887,-2.06,-2.85,11.05,0.00,0.04,-0.19,28.19
3251173,1817,1,195573,242934,-2.10,-2.52,9.05,-0.01,-0.00,-0.21,28.19
3291210,1797,1,195223,241119,-2.33,-2.17,9.88,-0.02,0.07,-0.11,28.19
3331191,2021,1,195136,241211,-2.13,-2.93,10.53,0.06,0.01,-0.17,28.19
3371175,2022,1,195033,241586,-2.24,-2.34,9.92,-0.04,-0.05,-0.23,28.19
3411207,2096,1,195714,242617,-2.05,-1.76,9.81,-0.00,0.06,-0.26,28.19
3451201,2175,1,195280,241623,-1.70,-2.37,9.50,-0.02,-0.05,-0.30,28.19
3491892,1915,1,195641,243105,-1.24,-1.87,10.18,-0.03,-0.03,-0.29,28.05
3530207,2139,1,196057,243301,-1.89,-2.18,9.15,0.04,-0.10,-0.27,28.05
3570189,1771,1,196075,243462,-1.09,-2.30,9.93,0.01,-0.04,-0.28,28.05
3610189,1679,1,196626,244558,-1.55,-2.17,10.14,-0.02,-0.01,-0.27,28.05
3650210,1795,1,196289,243650,-1.21,-1.48,9.25,0.01,-0.06,-0.26,28.05
3690189,2187,1,197226,245207,-1.13,-1.76,10.64,0.03,0.04,-0.25,28.05
3730167,274,1,196483,244137,-0.55,-1.84,9.12,-0.07,-0.12,-0.25,28.05
3770212,2753,1,196946,244528,-0.86,-1.62,9.37,0.00,-0.02,-0.24,28.05
3810188,1584,1,196561,244182,-0.45,-1.46,9.52,-0.01,-0.07,-0.23,28.05
3850213,2431,1,197141,245265,-0.53,-1.74,9.74,-0.03,-0.02,-0.22,28.05
3890209,2384,1,196618,243681,-0.49,-0.76,8.76,0.00,-0.11,-0.21,28.05
3930195,2502,1,197378,246192,-0.40,-1.48,9.81,0.01,0.06,-0.20,28.05
3970173,2368,1,197390,245069,-0.61,-1.96,10.17,-0.03,-0.06,-0.19,28.05
4010213,2007,1,197124,245979,-0.47,-0.81,8.68,-0.01,-0.09,-0.18,28.05
4050209,2096,1,197290,244214,-1.00,-1.43,9.50,-0.01,0.06,-0.18,28.05
4090196,2110,1,196624,245007,-0.30,-1.83,10.14,-0.02,0.00,-0.17,28.05
4130193,1535,1,196587,242423,-0.57,-0.57,9.15,-0.00,-0.02,-0.17,28.05
4170210,1467,1,196293,245777,0.06,-1.14,9.25,-0.03,0.03,-0.15,28.05
4210173,1403,1,197851,245164,-0.79,-1.93,11.05,-0.05,0.06,-0.16,28.05
4250196,1923,1,196746,247248,0.37,0.01,8.59,0.00,-0.21,-0.13,28.05
4289191,2118,1,199017,249854,-0.04,-1.18,11.64,-0.06,0.13,-0.13,28.05
4329197,1584,1,197952,248513,0.18,-0.50,9.68,-0.07,-0.12,-0.15,28.05
4369197,1435,1,198574,249391,0.23,-1.47,11.43,-0.05,0.03,-0.10,28.05
4409179,834,1,197669,247723,-0.34,-0.62,8.88,-0.14,-0.06,-0.13,28.05
4449209,1651,1,198109,248390,-0.36,-2.26,10.26,-0.05,0.11,-0.13,28.05
4489196,2869,1,197397,246007,-0.14,-1.08,9.79,-0.04,-0.06,-0.13,28.05
4529895,2742,1,197954,248942,0.23,-1.25,9.98,-0.03,0.14,-0.12,28.13
4570176,2079,1,197953,247304,-0.32,-0.72,10.63,-0.01,0.10,-0.05,28.13
4610196,1874,1,197635,249284,-0.12,-1.13,9.33,0.00,-0.09,-0.06,28.13
4650196,1968,1,198200,248794,-0.78,-0.82,10.61,-0.01,0.08,-0.11,28.13
4690196,2151,1,197464,249041,-0.49,-1.02,9.00,-0.06,-0.21,-0.11,28.13
4730211,2173,1,198100,249041,-0.32,-0.81,10.60,0.03,0.05,-0.19,28.13
4770173,2087,1,197148,247824,-0.41,-0.38,8.90,-0.10,-0.19,-0.11,28.13
4810210,2144,1,197883,248848,-0.17,-1.15,10.12,-0.02,0.12,-0.11,28.13
4850196,2183,1,197145,247707,0.06,-0.01,9.89,-0.03,-0.16,-0.10,28.13
4890196,2298,1,198010,250052,-0.11,-0.43,11.04,0.02,0.11,-0.14,28.13
4930176,1936,1,197722,248959,-0.89,-0.04,10.18,-0.02,-0.05,-0.09,28.13
4970210,1137,1,197737,249750,0.62,-0.25,10.82,0.00,-0.07,-0.07,28.13
5010173,1849,1,197704,249239,-0.59,-0.32,9.31,-0.07,-0.06,-0.10,28.13
5050214,0,1,197429,248262,0.00,-0.07,9.80,-0.01,-0.05,-0.11,28.13
5090201,2157,1,197422,248797,-0.03,-0.20,9.95,-0.00,-0.02,-0.17,28.13
5128210,2099,1,197551,248603,0.39,0.64,10.14,-0.04,-0.04,-0.12,28.13
5168176,2027,1,197847,249144,0.26,0.49,9.42,0.00,0.00,-0.12,28.13
5208145,2303,1,197510,248464,0.45,0.13,9.89,-0.02,-0.08,-0.16,28.13
5248173,2347,1,197744,249515,0.55,0.38,11.60,-0.03,0.00,-0.11,28.13
5288208,2543,1,197673,249072,0.05,0.81,9.10,0.01,-0.13,-0.08,28.13
5328162,2525,1,197513,248729,0.53,0.02,10.03,0.00,-0.10,-0.12,28.13
5368167,2200,1,197696,248657,1.00,1.36,11.07,0.01,0.13,-0.20,28.13
5408144,2063,1,196491,245559,-0.26,0.03,8.99,0.01,-0.26,-0.09,28.13
5448176,2091,1,196716,246572,1.52,1.25,9.61,0.07,0.11,-0.16,28.13
5488144,1969,1,196548,245466,0.33,0.21,9.09,-0.04,-0.06,0.01,28.13
5528167,2191,1,196886,247104,1.28,0.62,9.19,0.07,0.01,0.00,28.13
5568813,2047,1,197660,248057,0.41,1.40,10.21,0.02,0.15,0.09,28.25
5609125,2106,1,197952,247807,0.10,-0.08,10.09,0.00,-0.01,0.20,28.25
5649163,2019,1,197753,248635,0.64,0.08,10.10,-0.01,-0.00,0.12,28.25
5689168,1075,1,197894,247016,0.36,0.70,9.78,-0.01,-0.06,0.05,28.25
5729162,429,1,197222,248338,-0.17,0.18,7.63,-0.01,-0.20,-0.17,28.25
5769196,1677,1,198057,248996,1.01,0.96,10.72,0.00,0.11,-0.06,28.25
5809144,1793,1,197702,250312,0.18,0.59,7.80,-0.01,-0.18,-0.16,28.25
5849175,1814,1,197737,249429,0.85,1.17,11.94,0.03,0.22,0.06,28.25
5889127,1394,1,197067,248627,0.56,0.16,8.83,-0.06,-0.06,0.28,28.25
5929168,1373,1,197693,249757,0.56,0.34,12.27,0.07,0.21,0.09,28.25
5969134,1361,1,197333,249196,-0.01,1.84,10.44,-0.13,-0.15,0.13,28.25
6009176,969,1,197359,249601,0.42,-0.18,10.18,-0.10,-0.06,-0.01,28.25
6049193,2334,1,197182,249008,0.83,0.80,10.79,-0.11,-0.03,-0.02,28.25
6089176,2183,1,196893,249101,0.31,0.72,9.67,-0.08,-0.14,-0.35,28.25
6129176,2208,1,196813,247800,0.86,1.60,9.91,-0.14,-0.06,0.02,28.25
6169167,2079,1,196651,247919,1.06,0.34,9.39,-0.11,0.03,-0.09,28.25
6209163,2268,1,196865,247901,0.82,1.34,8.88,-0.12,0.06,0.19,28.25
6249144,2167,1,197292,247516,0.64,1.41,10.08,-0.04,0.14,0.33,28.25
6289144,2178,1,196888,247578,0.13,0.85,8.52,-0.13,-0.03,0.41,28.25
6329168,2138,1,197393,248068,0.19,0.84,9.99,-0.09,0.11,0.34,28.25
6369144,1742,1,197725,248467,0.42,0.41,9.97,-0.06,-0.06,0.18,28.25
6409168,1685,1,197757,249659,1.16,0.68,10.18,-0.14,-0.12,0.12,28.25
6449167,1360,1,197846,248962,-0.36,1.43,11.20,-0.05,0.12,0.11,28.25
6489168,2174,1,197520,249261,1.24,0.75,9.98,-0.08,-0.16,0.10,28.25
6529164,1750,1,197393,248855,0.41,1.19,10.35,-0.14,-0.06,0.11,28.25
6569854,2033,1,197305,249312,0.53,0.12,10.43,-0.06,-0.03,0.00,27.93
6608163,2027,1,197304,249215,0.62,1.35,10.53,-0.02,-0.03,0.09,27.93
6648167,1791,1,197207,248890,0.09,0.80,10.78,-0.03,0.01,0.10,27.93
6688144,1757,1,197198,248378,0.38,0.95,10.20,-0.02,-0.06,0.06,27.93
6728173,1607,1,196949,248668,0.65,0.43,10.11,0.00,-0.04,-0.08,27.93
6768163,1680,1,197166,248929,0.63,1.61,9.79,-0.01,-0.10,-0.02,27.93
6808176,1659,1,196867,248344,0.06,0.75,9.46,0.01,-0.03,0.07,27.93
6848144,1443,1,196864,248828,0.66,1.23,9.23,0.02,-0.07,0.14,27.93
6888145,1822,1,196972,248655,-0.17,1.10,10.47,0.06,0.12,0.18,27.93
6928207,1888,1,197061,249119,0.09,1.84,9.25,0.04,-0.12,0.23,27.93
6968145,1989,1,197273,249106,0.60,1.44,11.86,0.04,0.06,0.17,27.93
7008125,1935,1,197214,249394,-0.02,1.66,9.92,-0.01,-0.16,0.16,27.93
7048176,1719,1,197141,249439,0.37,2.25,10.39,0.00,-0.16,0.16,27.93
7088145,1591,1,196791,249368,0.37,2.28,11.27,0.05,-0.07,0.02,27.93
7128170,2433,1,196469,249141,0.78,1.51,10.91,-0.00,-0.13,-0.00,27.93
7168173,2320,1,196155,248713,0.54,2.72,11.07,0.03,-0.14,-0.04,27.93
7208167,2350,1,195941,248385,0.46,1.60,10.75,0.00,-0.07,-0.04,27.93
7248163,2115,1,195920,247913,0.71,2.09,10.47,-0.01,-0.25,-0.11,27.93
7288176,2510,1,195774,246767,1.34,1.76,10.66,0.02,0.19,-0.11,27.93
7328145,2224,1,195572,246437,0.82,2.76,9.19,-0.05,-0.17,-0.02,27.93
7367175,2397,1,195708,246198,1.27,2.13,9.98,0.01,0.11,0.17,27.93
7407125,2859,1,195695,245381,1.35,2.65,8.52,-0.03,-0.13,0.23,27.93
7447167,2559,1,194896,244989,0.97,2.89,8.84,0.02,-0.04,0.35,27.93
7487144,2193,1,195436,246378,1.43,2.18,8.20,-0.09,-0.04,0.20,27.93
7527167,2029,1,195148,245089,0.88,2.48,9.09,-0.03,-0.05,0.23,27.93
7567164,1535,1,194005,242776,1.92,1.60,9.82,-0.09,0.12,0.33,27.93
7607833,1706,1,193423,243540,1.84,1.92,9.23,0.04,-0.07,0.16,27.93
7648145,1502,1,194947,247063,1.59,2.46,10.00,0.05,0.02,0.04,27.93
7688128,0,1,196314,248700,1.90,1.85,10.19,-0.10,-0.03,0.02,27.93
7728164,0,1,196140,248075,1.42,2.38,10.40,-0.06,0.08,-0.11,27.93
7768168,237,1,195897,249175,1.96,2.54,9.50,0.09,-0.12,-0.11,27.93
7808168,1323,1,197008,250639,2.00,2.80,11.41,0.07,-0.01,0.13,27.93
7848144,1430,1,197397,250783,1.73,2.22,10.11,-0.03,-0.05,0.20,27.93
7888167,2055,1,197295,250274,1.12,2.19,10.54,-0.05,0.01,0.29,27.93
7928144,2064,1,197008,250204,1.46,2.27,9.69,-0.05,-0.11,0.34,27.93
7968167,2288,1,196759,250500,1.30,1.98,10.10,-0.03,-0.03,0.26,27.93
8008167,2352,1,197182,251394,1.35,2.07,10.23,-0.07,0.03,0.21,27.93
8048144,2260,1,197144,251110,1.02,2.19,9.01,-0.04,0.04,0.34,27.93
8088144,2186,1,197177,251802,1.65,2.18,10.75,0.07,0.08,0.44,27.93
8128125,2187,1,196738,251884,1.65,2.47,9.70,-0.04,-0.07,0.57,27.93
8168164,2093,1,197112,251699,1.24,2.37,10.39,0.02,0.03,0.37,27.93
8208125,2032,1,196383,251166,1.73,2.91,9.40,-0.07,-0.13,0.32,27.93
8248167,2038,1,196975,251928,1.33,1.88,10.08,0.01,0.05,0.22,27.93
8288125,1981,1,196783,251502,1.97,2.18,10.02,0.03,-0.05,0.35,27.93
8328144,1968,1,196338,251588,1.69,3.29,9.18,-0.03,-0.11,0.45,27.93
8367168,2064,1,196067,250275,1.87,3.22,10.95,0.02,0.08,0.43,27.93
8407125,2019,1,195575,250734,2.26,3.16,9.57,-0.04,-0.15,0.37,27.93
8447162,1998,1,195837,250265,1.83,3.01,11.21,0.07,0.09,0.37,27.93
8487125,1966,1,196141,251484,1.36,3.11,10.45,-0.01,-0.04,0.35,27.93
8527163,1874,1,196636,252000,1.96,2.16,11.90,0.06,0.18,0.37,27.93
8567152,1856,1,197114,253001,1.43,2.69,11.51,0.02,-0.05,0.43,27.93
8607144,1794,1,196221,251310,1.31,3.75,10.47,-0.03,0.03,0.50,27.93
8647833,1802,1,196706,252680,1.53,2.47,10.88,-0.08,-0.17,0.31,27.93
8686168,1773,1,196553,251271,1.96,2.23,11.04,-0.02,-0.05,0.17,27.93
8726168,1618,1,196505,252936,0.80,1.91,6.43,-0.18,-0.19,0.03,27.93
8766184,1697,1,196662,249780,1.70,2.85,10.02,0.04,0.08,0.31,27.93
8806125,1835,1,195963,251658,-0.11,1.74,5.91,-0.38,0.08,0.61,27.93
8846163,1829,1,196725,250791,2.67,2.77,9.52,0.26,0.18,0.42,27.93
8886126,1621,1,196025,249982,1.00,3.49,9.66,-0.08,-0.13,0.72,27.93
8926163,1688,1,195822,248500,1.36,1.91,9.38,0.01,0.19,0.56,27.93
8966125,1241,1,195906,249599,1.72,1.29,11.02,0.04,0.05,0.48,27.93
9006123,1532,1,195495,248476,0.96,1.97,8.74,-0.03,0.06,0.41,27.93
9046144,1669,1,196399,249980,0.68,2.76,10.82,0.02,-0.05,0.38,27.93
9086144,1773,1,196815,252768,1.66,2.33,10.31,-0.07,-0.20,0.38,27.93
9126168,1802,1,197636,254060,1.51,2.81,10.58,-0.01,-0.00,0.40,27.93
9166164,1867,1,197936,254019,1.24,3.50,10.11,-0.05,-0.07,0.39,27.93
9206167,1962,1,197785,254608,2.56,2.41,11.91,-0.09,-0.10,0.39,27.93
9246167,2074,1,197803,254362,1.32,2.38,10.60,-0.02,-0.03,0.40,27.93
9286168,2064,1,197259,251702,0.98,1.90,10.83,0.03,0.08,0.41,27.93
9326125,1968,1,196311,251191,1.57,2.01,9.87,-0.08,-0.15,0.47,27.93
9366167,1989,1,195895,250740,1.15,2.51,9.99,-0.03,-0.01,0.41,27.93
9407167,1975,1,195810,250495,1.41,3.29,9.08,-0.02,-0.08,0.39,27.93
9447167,2006,1,195566,249842,1.63,1.77,8.69,-0.10,-0.01,0.38,27.93
9487167,1955,1,195746,250395,1.17,3.50,8.48,-0.04,-0.08,0.36,27.93
9527168,1969,1,196300,252988,2.59,3.22,9.08,0.10,-0.05,0.40,27.93
9567145,1763,1,197237,252329,1.39,3.81,10.00,0.01,0.12,0.51,27.93
9607126,1629,1,195650,248745,1.53,1.48,9.34,-0.06,0.04,0.64,27.93
9647144,1837,1,196163,251034,1.28,1.70,11.42,0.00,0.09,0.47,27.93
9687813,1776,1,195684,250123,1.00,1.60,8.93,-0.09,-0.10,0.56,27.85
9726163,1906,1,196032,250781,1.24,1.10,11.59,0.04,0.20,0.44,27.85
9766126,1861,1,195932,250402,1.29,1.52,11.42,-0.06,-0.01,0.50,27.85
9806163,1916,1,195821,251931,0.94,1.57,10.09,-0.08,-0.11,0.46,27.85
9846168,1925,1,196582,252160,1.17,1.19,12.06,-0.01,0.05,0.20,27.85
9886145,1856,1,196271,252303,1.54,1.17,9.74,-0.08,-0.26,0.37,27.85
9926168,1963,1,196356,251228,1.18,0.83,11.31,-0.02,0.09,0.31,27.85
9966144,1978,1,195162,248791,1.18,0.57,9.35,-0.09,-0.13,0.45,27.85
10006168,1965,1,194723,247596,1.16,0.77,10.89,-0.01,0.14,0.39,27.85
10046145,2019,1,193895,246385,0.72,0.85,7.98,-0.10,-0.19,0.43,27.85
10086168,2037,1,194196,246758,1.57,-0.35,10.76,0.00,0.19,0.37,27.85
10126144,2110,1,193631,246009,0.92,0.06,8.08,-0.10,-0.16,0.52,27.85
10166167,2032,1,193647,245295,0.57,0.56,8.72,-0.03,0.20,0.45,27.85
10206145,1951,1,193550,245108,1.26,-0.50,9.62,-0.04,-0.04,0.46,27.85
10246176,1871,1,193338,244023,0.74,-0.32,9.21,-0.05,0.01,0.33,27.85
10286167,1774,1,193342,245271,0.70,0.43,9.34,-0.04,-0.05,0.33,27.85
10326167,875,1,194177,247018,0.73,-0.60,10.18,-0.05,-0.02,0.27,27.85
10366173,1030,1,194214,247743,0.85,-0.53,10.03,-0.05,-0.06,0.27,27.85
10406176,971,1,194622,248067,0.36,0.08,9.81,-0.06,-0.12,0.25,27.85
10446169,763,1,194367,248259,1.03,-0.33,10.07,-0.06,-0.17,0.23,27.85
10486181,0,1,194710,249397,1.15,-0.26,11.01,-0.02,-0.03,0.06,27.85
10526178,0,1,194820,249675,0.83,0.16,9.56,-0.02,-0.11,-0.01,27.85
10566181,1347,1,195053,249867,1.24,0.04,10.56,0.01,-0.00,0.07,27.85
10606148,1585,1,195171,250020,0.91,0.02,9.65,-0.00,-0.03,0.13,27.85
10646168,1600,1,195220,249920,1.00,0.66,10.05,0.01,0.01,0.20,27.85
10686128,1978,1,195054,250053,1.46,0.20,9.87,0.00,-0.05,0.22,27.85
10726836,2029,1,195174,250483,1.34,-0.15,11.00,-0.01,0.05,0.23,27.95
10765168,2286,1,195120,250427,0.76,0.87,9.22,-0.00,-0.05,0.22,27.95
10805168,2290,1,195267,250969,1.19,0.26,10.35,0.02,0.04,0.22,27.95
10845128,2455,1,195502,251148,1.03,-0.23,10.24,-0.01,0.00,0.22,27.95
10885168,2423,1,195583,251319,0.66,0.43,9.60,0.03,-0.00,0.22,27.95
10925181,2458,1,195675,251240,0.87,0.39,10.11,0.00,0.02,0.21,27.95
10965129,2435,1,195286,250275,1.08,-0.02,10.26,0.00,-0.02,0.21,27.95
11005168,2383,1,195461,249834,0.51,0.30,10.29,0.02,0.05,0.21,27.95
11045127,2242,1,194413,248197,0.88,0.64,10.63,-0.02,-0.06,0.33,27.95
11085168,2153,1,194247,247366,0.77,-0.84,10.97,-0.01,0.01,0.25,27.95
11125168,2160,1,193414,246279,1.07,1.15,10.44,-0.03,-0.17,0.18,27.95
11165168,2366,1,193850,248803,1.24,0.33,10.46,-0.05,-0.15,0.10,27.95
11205168,2716,1,194002,248508,1.08,0.65,9.41,-0.05,-0.17,-0.04,27.95
11245176,2559,1,194803,249077,1.45,-0.18,10.44,0.03,0.09,0.00,27.95
11285145,2320,1,194273,247651,1.28,0.13,9.22,-0.03,-0.04,0.18,27.95
11325168,1959,1,193742,245750,0.89,-0.28,9.28,-0.03,0.09,0.28,27.95
11365168,1760,1,193126,244656,0.83,-0.63,9.19,-0.04,0.09,0.28,27.95
11405168,1904,1,192946,243635,0.74,0.37,9.03,-0.02,0.02,0.17,27.95
11445146,1850,1,191868,241595,1.19,0.25,8.74,-0.06,-0.11,0.15,27.95
11485168,1853,1,191346,240402,1.23,-0.26,9.38,-0.07,-0.02,0.13,27.95
11525180,1901,1,190892,239670,0.84,-0.49,9.12,-0.11,-0.09,0.07,27.95
11565177,1685,1,190920,239656,1.05,0.05,8.84,-0.08,0.05,0.09,27.95
11605146,1365,1,190817,238645,1.03,-0.91,9.79,-0.05,0.20,0.17,27.95
11645167,1764,1,190109,237060,1.08,-0.57,9.58,-0.06,0.03,0.38,27.95
11685168,2010,1,190009,236540,0.75,-0.48,10.16,-0.03,0.31,0.26,27.95
11725167,1937,1,190302,238984,0.66,-1.03,10.16,-0.10,0.00,0.17,27.95
11765854,1978,1,191989,241963,0.88,-0.99,10.84,-0.06,0.09,0.07,27.87
11806163,1946,1,192660,243452,0.39,-0.44,9.54,-0.11,-0.15,0.15,27.87
11846224,1893,1,192818,242650,0.52,-0.62,10.64,-0.07,0.17,0.16,27.87
11886167,1810,1,191967,241187,0.58,-1.23,10.53,-0.08,-0.03,0.27,27.87
11926176,1786,1,191402,240025,0.55,-1.15,11.00,-0.05,0.14,0.19,27.87
11966167,1807,1,190742,238625,0.02,-0.97,10.27,-0.09,0.03,0.14,27.87
12004167,1781,1,190976,239380,0.47,-1.81,11.08,-0.01,0.18,-0.04,27.87
12044181,1891,1,191000,238335,-0.34,-1.11,10.17,-0.04,0.00,-0.02,27.87
12084196,1949,1,190493,237980,-0.02,-0.55,9.98,-0.03,0.04,0.09,27.87
12124173,1921,1,190445,237369,0.12,-1.20,10.56,-0.06,0.04,0.09,27.87
12164167,1807,1,189937,236950,0.24,-1.20,10.06,-0.06,-0.07,0.13,27.87
12204176,1535,1,190223,236235,-0.29,-0.87,9.90,-0.04,0.08,0.10,27.87
12244176,1629,1,189270,235055,0.02,-1.05,9.75,-0.07,-0.11,0.07,27.87
12284176,1791,1,189357,234727,0.34,-1.38,9.49,-0.05,-0.12,0.04,27.87
12324176,1980,1,189086,233434,0.17,-0.62,9.37,-0.03,-0.07,0.02,27.87
12364173,2019,1,188674,232909,0.34,-0.42,9.44,-0.01,-0.06,0.08,27.87
12404176,2014,1,188939,233510,0.33,-1.46,10.01,-0.02,0.06,0.07,27.87
12444167,2006,1,188699,233154,0.15,-0.70,9.37,-0.02,-0.17,0.09,27.87
12484176,1954,1,188972,233863,0.42,-1.08,10.00,0.01,0.01,0.07,27.87
12524156,1966,1,188819,233718,0.52,-1.19,9.84,-0.03,-0.12,0.06,27.87
12564176,1954,1,189142,234744,0.74,-1.05,10.49,0.05,0.10,0.07,27.87
12604144,1872,1,189357,235655,0.06,-0.23,9.55,-0.01,-0.16,0.06,27.87
12644176,1809,1,189932,236484,0.66,-1.00,10.61,0.03,0.03,0.06,27.87
12684144,1797,1,189980,237213,0.54,-0.63,10.05,-0.01,-0.25,0.05,27.87
12724176,1699,1,189986,236727,0.50,-0.24,9.97,0.02,-0.10,0.06,27.87
12764164,1703,1,190283,238915,0.70,-0.68,10.01,0.01,-0.07,0.06,27.87
12804854,1600,1,191176,241445,1.07,-0.74,10.75,0.02,-0.05,0.05,27.99
12845164,1573,1,191903,243242,0.55,-0.22,9.99,0.01,-0.02,-0.01,27.99
12885176,1521,1,191777,242874,0.63,-0.16,10.03,0.01,-0.05,0.06,27.99
12925163,1588,1,192255,242261,0.90,-0.68,10.06,0.02,0.01,0.02,27.99
12965145,1705,1,190346,235723,0.00,0.18,9.30,0.02,-0.12,0.11,27.99
13005144,1794,1,188774,233251,0.25,-0.11,9.14,0.01,-0.09,0.58,27.99
13045168,1771,1,188352,232989,1.53,-0.42,9.41,-0.03,-0.03,0.51,27.99
13085176,1840,1,188454,234107,1.62,-0.13,9.23,0.01,-0.05,0.14,27.99
13125168,1858,1,189024,236552,0.99,-0.09,8.76,-0.01,-0.11,-0.10,27.99
13165193,1858,1,189806,237855,1.17,0.07,9.29,0.01,-0.02,-0.12,27.99
13205168,1834,1,189606,237180,1.31,-0.29,9.65,0.02,-0.00,-0.12,27.99
13245176,1813,1,189491,236746,1.21,0.44,9.60,0.04,0.01,0.02,27.99
13285125,1787,1,189222,237012,0.86,0.07,9.42,0.02,0.03,0.10,27.99
13325123,1770,1,189368,237326,1.23,0.27,10.07,0.01,0.13,0.17,27.99
13365125,1697,1,190119,239811,1.06,0.08,10.10,0.01,0.21,0.11,27.99
13405123,1703,1,190964,242322,0.65,0.50,9.83,-0.01,0.09,0.09,27.99
13445145,1691,1,191911,244221,1.14,0.11,10.65,-0.01,0.10,0.09,27.99
13485173,1710,1,192649,245459,1.08,-0.09,10.45,-0.05,-0.02,0.09,27.99
13523193,1766,1,192519,244281,1.01,0.59,10.07,-0.04,-0.07,0.07,27.99
13563164,1795,1,191971,242550,0.94,0.17,9.83,-0.06,-0.14,0.08,27.99
13603168,1870,1,190418,236625,1.50,0.18,10.27,-0.05,-0.14,0.08,27.99
13643167,1872,1,189107,235221,0.94,0.10,9.11,-0.06,-0.09,0.08,27.99
13683167,1984,1,188961,235425,0.99,0.67,9.35,-0.02,0.02,0.02,27.99
13723145,2133,1,189726,238976,1.36,0.29,9.74,-0.03,0.02,0.03,27.99
13763145,2231,1,191101,241813,1.21,0.01,9.87,-0.06,0.06,0.10,27.99
13803145,2283,1,191891,243202,0.75,0.36,9.28,-0.05,0.02,0.11,27.99
13843834,2253,1,192108,242804,0.74,0.06,9.63,-0.03,0.12,0.12,28.43
13884147,2279,1,191921,243474,1.05,0.20,9.73,-0.04,0.05,0.14,28.43
13924147,2231,1,192089,242687,0.93,0.16,10.08,-0.03,0.14,0.15,28.43
13964146,2182,1,191128,240356,0.60,0.43,9.89,-0.08,-0.10,0.22,28.43
14004168,2096,1,190520,239349,1.10,-0.53,10.23,-0.06,0.02,0.13,28.43
14044168,2020,1,190036,239267,1.14,0.14,9.82,-0.08,-0.10,0.13,28.43
14084168,1967,1,190521,241621,0.57,0.17,9.12,-0.05,-0.02,0.12,28.43
14124167,1941,1,191485,243240,0.87,0.16,10.15,-0.03,0.04,0.12,28.43
14164147,1872,1,192257,245640,1.41,-0.10,10.14,-0.04,-0.03,0.12,28.43
14204178,1786,1,192460,243481,0.72,-0.02,9.87,-0.06,-0.04,0.12,28.43
14244178,1755,1,191023,240172,1.07,-0.06,10.09,-0.04,-0.03,0.12,28.43
14284175,1764,1,190606,239516,1.10,-0.75,10.31,-0.05,-0.01,0.11,28.43
14324177,1733,1,190546,239807,0.90,-0.13,10.18,-0.03,-0.01,0.12,28.43
14364178,1711,1,190690,238852,0.46,-0.43,10.05,-0.03,0.03,0.12,28.43
14404167,1710,1,189643,237598,1.11,-0.02,9.97,-0.06,-0.03,0.11,28.43
14444177,1712,1,189625,237146,0.82,-0.10,9.97,-0.02,0.01,0.10,28.43
14484168,1711,1,189184,237257,0.92,0.44,9.32,-0.03,-0.06,0.08,28.43
14524168,1725,1,189735,239118,1.09,-0.25,10.63,-0.01,0.06,0.08,28.43
14564168,1731,1,190453,241074,0.89,-0.11,9.86,-0.06,-0.04,0.12,28.43
14604177,1668,1,191289,242778,0.71,-0.11,10.38,-0.01,0.02,0.13,28.43
14644168,1651,1,191985,244832,0.74,0.10,10.00,-0.07,-0.04,0.12,28.43
14684166,1682,1,192292,245480,1.22,-0.23,10.78,-0.03,0.01,0.12,28.43
14724167,1698,1,192748,246539,0.92,0.25,10.29,-0.06,-0.04,0.13,28.43
14764167,1703,1,192757,247001,0.77,0.29,10.42,-0.04,0.00,0.13,28.43
14804146,1726,1,193094,247291,0.93,-0.06,11.01,-0.06,0.00,0.13,28.43
14844852,1721,1,192689,245212,1.12,-0.38,10.74,-0.06,-0.04,0.13,28.45
14883177,1746,1,191470,241101,0.71,0.21,10.42,-0.07,-0.04,0.15,28.45
14923167,1750,1,190060,238630,0.78,-0.15,10.26,-0.07,-0.03,0.15,28.45
14963176,1761,1,189816,238121,0.84,-0.03,10.22,-0.07,-0.03,0.13,28.45
15003176,1777,1,189548,238086,0.93,0.27,9.86,-0.07,-0.07,0.13,28.45
15043168,1797,1,189432,238194,1.04,0.04,9.48,-0.09,-0.10,0.12,28.45
15083164,1783,1,189475,238466,1.28,-0.37,9.76,-0.07,-0.05,0.13,28.45
15123237,1843,1,189793,239716,0.91,-0.38,9.15,-0.08,-0.08,0.13,28.45
15163176,1870,1,190426,240744,0.69,-0.34,9.91,-0.04,0.05,0.14,28.45
15203168,1883,1,190148,239097,1.08,-0.83,10.00,-0.08,-0.05,0.24,28.45
15243173,1861,1,189615,238524,0.91,-0.66,10.16,-0.05,0.01,0.19,28.45
15283168,1872,1,189588,238618,0.70,-0.04,10.14,-0.04,-0.04,0.15,28.45
15323219,1855,1,190048,240323,0.68,-0.22,10.14,-0.04,-0.04,0.12,28.45
15363176,1879,1,190679,241901,1.07,0.04,10.77,-0.02,-0.03,0.12,28.45
15403164,1885,1,191345,244374,1.11,0.23,9.96,-0.07,-0.15,0.12,28.45
15443168,1873,1,191776,244167,1.06,-0.39,10.08,-0.05,-0.07,0.12,28.45
15483177,1849,1,191606,241570,1.08,-0.40,10.46,-0.02,-0.06,0.13,28.45
15523193,1850,1,189320,236552,1.07,-0.35,8.85,-0.07,-0.14,0.12,28.45
15563176,1822,1,188952,236182,0.85,-0.01,9.48,0.02,0.01,0.02,28.45
15603146,1859,1,188396,235389,1.08,-0.09,8.71,-0.03,-0.07,0.09,28.45
15643173,1847,1,188412,235350,1.36,-0.12,9.44,0.03,0.04,0.04,28.45
15683144,1851,1,187870,234630,1.06,-0.11,8.45,-0.02,-0.06,0.13,28.45
15723176,1835,1,187956,234609,0.79,-0.28,8.61,0.06,0.06,0.08,28.45
15763145,1873,1,187890,234734,0.79,0.10,8.06,0.04,-0.01,0.09,28.45
15803145,1852,1,188296,235697,1.36,0.38,9.22,0.08,0.06,0.09,28.45
15843126,1854,1,188409,236750,1.61,-0.12,8.87,0.02,-0.02,0.13,28.45
15883850,1821,1,189398,238939,1.29,-0.22,9.54,0.07,0.06,0.14,28.11
15922145,1856,1,190592,241674,0.39,-0.51,9.64,0.04,0.06,0.16,28.11
15962145,1808,1,191142,243142,0.77,-0.14,10.35,0.05,0.04,0.29,28.11
16002144,1804,1,191815,243693,0.42,-0.12,10.81,0.05,0.05,0.28,28.11
16042144,1822,1,191768,244018,1.07,0.15,11.92,0.06,0.01,0.24,28.11
16082125,1829,1,192084,244505,1.44,0.29,12.12,0.02,-0.08,0.13,28.11
16122144,1862,1,191697,242795,0.92,0.38,11.37,-0.01,-0.07,0.13,28.11
16162168,1831,1,190650,238669,0.64,0.10,10.49,0.03,-0.11,0.08,28.11
16202145,1826,1,189475,238452,1.10,0.69,10.16,0.05,-0.08,-0.13,28.11
16242168,1821,1,189569,236277,1.24,0.30,10.15,0.04,-0.05,-0.15,28.11
16282167,1881,1,188523,235587,1.10,-0.20,8.42,-0.00,-0.15,-0.12,28.11
16322196,2003,1,188411,235334,1.15,0.95,8.18,0.04,0.00,-0.06,28.11
16362144,2090,1,188548,236447,1.37,0.70,7.44,0.01,-0.05,-0.04,28.11
16402168,2112,1,188727,236457,1.62,0.43,8.58,0.04,0.03,-0.03,28.11
16442145,1940,1,188973,237793,1.60,0.51,8.12,0.02,-0.04,0.05,28.11
16482144,2399,1,189490,238113,0.81,0.26,7.88,0.01,0.05,0.15,28.11
16522125,2375,1,189899,239609,1.41,1.28,8.95,0.00,0.04,0.23,28.11
16562125,2232,1,190089,240489,1.97,0.11,10.05,-0.02,0.04,0.28,28.11
16602144,2023,1,189928,239677,1.19,0.74,8.89,-0.05,-0.02,0.31,28.11
16642168,2000,1,190070,240061,1.06,0.47,9.91,0.00,0.11,0.22,28.11
16682125,1920,1,189944,240019,1.36,0.69,10.53,-0.05,0.03,0.21,28.11
16722144,1863,1,190216,242511,2.02,0.55,11.19,-0.05,0.00,0.20,28.11
16762149,1853,1,191731,244094,0.97,0.79,11.39,-0.06,0.01,0.21,28.11
16802144,1878,1,192349,246274,1.34,0.65,11.61,-0.06,-0.00,0.16,28.11
16842167,1802,1,193344,245793,1.44,0.34,12.11,-0.04,0.03,0.14,28.11
16882144,1791,1,192885,246638,1.30,0.40,10.27,-0.06,-0.04,0.13,28.11
16922851,1758,1,193488,246311,0.62,1.09,10.50,0.01,0.07,0.15,27.99
16961168,1741,1,192693,246464,1.47,1.03,9.74,-0.05,-0.06,0.13,27.99
17001163,1712,1,193147,246639,1.35,0.50,10.37,0.01,0.03,0.04,27.99
17041125,1715,1,192601,246536,0.88,0.77,8.72,-0.08,-0.09,0.06,27.99
17081163,1734,1,192818,246138,1.12,1.02,10.04,0.01,0.03,0.11,27.99
17121125,1722,1,192459,246001,1.25,0.39,9.74,-0.05,-0.04,0.15,27.99
17161163,1730,1,192550,246090,1.17,0.36,9.84,-0.01,-0.00,0.17,27.99
17201168,1733,1,192091,245342,0.94,1.41,9.13,-0.02,-0.06,0.18,27.99
17241167,1728,1,192324,246192,1.32,0.27,10.40,-0.01,0.02,0.18,27.99
17281144,1744,1,192130,245648,1.57,1.03,9.96,-0.05,-0.08,0.23,27.99
17321167,1721,1,192050,246110,1.31,0.79,10.19,0.00,-0.06,0.27,27.99
17361144,1747,1,192312,246390,1.17,0.46,10.79,-0.03,-0.04,0.20,27.99
17402167,1753,1,192084,246003,1.53,0.16,10.52,-0.07,-0.13,0.20,27.99
17442168,1781,1,192396,244818,0.83,-0.30,11.06,-0.02,0.04,0.17,27.99
17482164,1771,1,191449,243293,1.13,1.06,9.69,-0.08,-0.10,0.16,27.99
17522168,1797,1,191368,244208,1.84,0.13,10.89,-0.01,-0.00,0.07,27.99
17562167,1791,1,191391,243132,1.55,0.74,9.58,-0.10,-0.10,0.11,27.99
17602168,1827,1,190957,243289,1.69,1.04,9.69,0.04,-0.03,0.07,27.99
17642144,1840,1,191854,244743,1.64,0.89,10.15,-0.03,-0.00,0.11,27.99
17682168,1887,1,191506,244649,2.34,0.57,9.89,-0.04,-0.08,0.17,27.99
17722167,1883,1,192186,245046,0.99,0.43,9.38,-0.04,0.01,0.17,27.99
17762145,1887,1,191722,244310,1.61,1.24,9.02,-0.05,-0.08,0.16,27.99
17802167,1840,1,191542,243830,1.54,0.57,9.88,-0.03,0.02,0.09,27.99
17842144,1904,1,191018,243663,1.69,0.61,8.40,-0.07,-0.10,0.12,27.99
17882164,1881,1,191621,244474,1.32,1.24,9.39,-0.02,0.07,0.16,27.99
17922833,1911,1,191656,245535,1.56,1.28,8.96,-0.08,0.02,0.18,28.11
17961145,1936,1,192646,247717,2.03,0.44,10.42,-0.00,0.08,0.19,28.11
18001145,1904,1,193258,248535,1.18,1.14,9.41,-0.07,-0.00,0.22,28.11
18041167,1909,1,193387,248967,1.51,0.70,10.72,-0.02,0.08,0.28,28.11
18081145,1905,1,193587,248677,1.34,0.36,11.04,-0.08,0.02,0.31,28.11
18121144,1885,1,192788,247911,1.29,0.82,10.40,-0.08,-0.04,0.28,28.11
18161168,1861,1,193112,247621,0.80,1.10,11.65,-0.03,0.06,0.21,28.11
18201144,1878,1,192415,247617,1.75,0.89,10.51,-0.13,-0.13,0.19,28.11
18241167,1909,1,192973,247609,1.35,0.57,11.46,-0.05,-0.00,0.15,28.11
18281167,1915,1,192250,246600,1.33,1.19,9.59,-0.15,-0.13,0.16,28.11
18321168,1908,1,192435,247013,1.43,0.60,10.47,-0.01,-0.01,0.07,28.11
18361167,1899,1,192157,246512,1.84,0.54,9.85,-0.11,-0.10,0.13,28.11
18400200,1895,1,192019,246159,1.56,0.52,9.69,-0.02,-0.06,0.18,28.11
18440167,1882,1,191652,244926,1.36,0.99,9.31,-0.07,-0.04,0.18,28.11
18480168,1906,1,191413,243792,1.72,0.36,10.41,-0.02,0.02,0.19,28.11
18520145,1875,1,190969,242972,1.23,0.42,8.61,-0.07,-0.06,0.18,28.11
18560168,1891,1,191046,243192,0.97,0.96,9.15,0.00,0.06,0.20,28.11
18600145,1863,1,191476,245273,1.53,0.69,9.88,-0.04,0.01,0.19,28.11
18640144,1889,1,192086,246462,1.46,-0.09,9.42,-0.05,0.02,0.19,28.11
18680163,1867,1,192843,247073,1.03,0.56,9.48,-0.04,-0.01,0.20,28.11
18720167,1891,1,192970,247525,1.27,0.37,9.90,-0.06,-0.00,0.23,28.11
18760164,1890,1,193152,247650,1.36,0.18,10.43,-0.02,0.02,0.19,28.11
18800144,1878,1,193130,247916,1.38,1.02,10.03,-0.02,-0.05,0.19,28.11
18840167,1904,1,193195,247751,1.29,0.65,10.54,-0.04,-0.01,0.16,28.11
18880168,1913,1,192815,246312,1.48,0.12,10.07,-0.04,-0.06,0.17,28.11
18920167,1883,1,192895,246878,1.08,0.41,10.40,0.01,0.01,0.19,28.11
18960813,1892,1,192508,245451,0.98,0.79,9.16,-0.05,-0.05,0.18,28.11
19001163,1908,1,192124,246279,1.89,0.31,10.39,0.01,-0.03,0.15,28.11
19041144,1874,1,192706,246628,1.17,0.89,9.34,-0.02,-0.05,0.13,28.11
19081167,1883,1,192255,247082,1.34,0.88,8.75,-0.01,-0.05,0.12,28.11
19121168,1886,1,193006,246986,1.56,0.68,10.48,0.02,0.04,0.17,28.11
19161125,1869,1,192597,247246,1.43,0.08,9.14,-0.05,-0.08,0.16,28.11
19201164,1889,1,192723,246562,1.23,0.82,9.27,0.03,0.03,0.19,28.11
19241125,1875,1,192761,246719,1.25,0.32,9.13,-0.02,-0.00,0.18,28.11
19281167,1873,1,193113,248181,1.68,0.66,9.78,0.01,0.04,0.19,28.11
19321125,1889,1,193281,247904,1.26,0.84,9.34,-0.01,-0.03,0.19,28.11
19361167,1867,1,193605,248517,1.10,0.81,10.47,0.02,0.10,0.19,28.11
19401125,1869,1,193409,248027,1.55,0.94,10.51,-0.03,0.01,0.25,28.11
19440144,1890,1,193998,249274,1.34,0.57,11.06,0.04,0.06,0.24,28.11
19480125,1866,1,193729,248208,1.07,1.24,10.88,-0.03,-0.03,0.24,28.11
19520167,1881,1,193539,248942,1.38,0.08,11.34,-0.02,-0.01,0.20,28.11
19560164,1888,1,193232,248563,1.19,0.68,10.46,-0.05,-0.06,0.17,28.11
19600168,1893,1,193566,249052,1.29,0.55,10.76,-0.01,-0.05,0.18,28.11
19640167,1891,1,193087,248364,0.91,0.88,9.31,-0.09,-0.05,0.17,28.11
19680168,1872,1,193131,248705,1.89,0.45,10.45,0.01,-0.03,0.18,28.11
19720145,1866,1,193004,247571,1.13,0.97,9.97,-0.04,-0.03,0.19,28.11
19760168,1869,1,192441,248053,1.21,0.87,9.10,-0.06,-0.07,0.18,28.11
19800164,1904,1,192886,246749,1.33,0.30,11.23,0.00,0.09,0.19,28.11
19840125,1856,1,192123,246180,1.12,0.13,8.63,-0.14,-0.15,0.21,28.11
19880163,1879,1,191751,244872,1.23,1.23,9.30,-0.03,0.02,0.18,28.11
19920144,1869,1,191205,244625,1.76,0.71,9.28,-0.12,-0.13,0.16,28.11
19960167,1872,1,191047,243175,1.67,0.63,8.77,-0.05,-0.07,0.16,28.11
20000854,1853,1,190320,242050,1.45,0.77,8.21,-0.07,-0.10,0.04,27.91
20039168,1886,1,191295,241953,1.36,0.63,9.35,-0.01,0.07,0.08,27.91
20079144,1917,1,190877,242129,1.99,0.55,8.84,-0.07,-0.10,0.11,27.91
20119167,1920,1,191866,245262,2.03,0.74,10.41,0.02,0.09,0.12,27.91
20159125,1893,1,191612,243147,1.23,0.99,8.35,-0.07,-0.03,0.17,27.91
20199162,1886,1,191922,245718,2.52,0.25,10.64,0.11,0.04,0.16,27.91
20239141,1827,1,192679,246365,1.05,0.42,9.39,-0.06,0.05,0.18,27.91
20279141,1831,1,192628,247209,1.11,1.69,9.63,0.04,0.05,0.24,27.91
20319125,1859,1,193663,248795,1.66,0.31,11.65,0.02,0.10,0.17,27.91
20359123,1856,1,193628,249321,1.22,0.87,11.24,-0.06,-0.02,0.28,27.91
20399167,1905,1,193789,249165,1.07,0.94,10.86,0.03,0.03,0.18,27.91
20439125,1890,1,193936,250529,1.51,1.05,11.53,-0.06,-0.07,0.19,27.91
20480167,1935,1,193909,249344,1.14,0.35,11.92,0.01,0.06,0.13,27.91
20520125,1872,1,193491,249779,1.14,1.65,10.38,-0.07,-0.16,0.19,27.91
20560167,1878,1,193026,247776,1.04,0.77,11.74,-0.02,0.09,0.13,27.91
20600144,1852,1,192153,247442,1.33,1.19,9.13,-0.14,-0.32,0.14,27.91
20640167,1851,1,192002,245182,1.57,0.74,10.13,0.06,0.07,-0.01,27.91
20680144,1808,1,190935,244548,0.63,1.49,8.32,-0.13,-0.27,0.09,27.91
20720168,1872,1,191476,245347,1.83,0.60,10.47,0.08,0.11,0.12,27.91
20760125,1846,1,191800,246806,1.26,1.41,8.94,-0.12,-0.18,0.17,27.91
20800167,1879,1,192056,247076,1.66,1.16,9.26,-0.02,-0.06,0.17,27.91
20840167,1872,1,192193,247157,1.48,0.29,9.34,-0.07,-0.08,0.11,27.91
20880168,1889,1,192069,247518,2.21,0.84,9.44,-0.05,-0.10,0.15,27.91
20920167,1889,1,192411,247393,1.34,1.13,9.63,0.01,0.02,0.10,27.91
20960125,1889,1,192438,248229,2.05,1.39,8.62,-0.06,-0.13,0.07,27.91
21000163,1915,1,192749,248513,2.07,1.80,10.83,0.01,-0.02,0.02,27.91
21040833,1843,1,193285,250357,2.40,1.02,9.54,-0.03,0.06,0.02,27.85
21079144,1759,1,194114,250821,1.87,1.78,9.63,-0.00,0.02,0.02,27.85
21119145,1486,1,194754,251911,2.00,1.16,10.61,0.02,0.01,0.09,27.85
21159125,1655,1,194296,249925,1.40,1.52,9.05,-0.04,0.01,0.10,27.85
21199145,1820,1,193429,249024,1.98,1.21,9.66,0.03,-0.08,0.17,27.85
21239145,1883,1,193618,249916,1.43,2.83,10.12,0.00,0.12,0.26,27.85
21279126,1920,1,193643,249809,1.66,1.56,10.01,-0.01,0.03,0.28,27.85
21319144,1937,1,193522,249147,1.50,1.41,10.81,0.02,0.14,0.31,27.85
21359126,1941,1,192624,248521,1.34,2.21,10.58,-0.04,-0.02,0.45,27.85
21399162,2224,1,192251,248005,1.46,1.86,11.64,-0.02,0.08,0.37,27.85
21439144,2016,1,191602,246968,1.60,2.12,11.51,-0.08,-0.02,0.42,27.85
21478167,2091,1,191315,245924,1.47,1.37,11.37,-0.04,0.00,0.31,27.85
21518144,1853,1,190728,244226,1.58,2.72,10.71,-0.11,-0.12,0.35,27.85
21558167,1918,1,190551,242917,1.66,0.85,11.33,-0.05,-0.04,0.24,27.85
21598168,1993,1,190031,241319,1.62,1.98,9.94,-0.10,-0.13,0.23,27.85
21638167,2032,1,190223,242095,1.26,1.26,10.44,-0.00,-0.01,0.25,27.85
21678176,2039,1,190673,244219,1.78,1.41,9.52,-0.11,-0.12,0.21,27.85
21718167,2064,1,191104,244461,2.08,1.30,10.51,0.02,-0.07,0.17,27.85
21758144,2096,1,191202,246069,1.34,1.42,7.67,-0.17,-0.16,0.11,27.85
21798167,2124,1,191648,246382,2.49,1.60,10.59,0.10,0.00,0.06,27.85
21838125,1914,1,192007,247531,1.57,0.97,8.91,-0.13,-0.12,0.16,27.85
21878191,1851,1,192360,248102,2.47,1.79,9.80,0.04,-0.00,0.18,27.85
21918145,1865,1,192482,247281,1.61,1.58,9.59,0.04,-0.00,0.31,27.85
21958144,1823,1,191678,246053,2.11,1.83,9.72,0.01,-0.01,0.37,27.85
21998144,1869,1,191116,243096,1.99,2.00,10.24,0.06,0.09,0.34,27.85
22038125,1856,1,190365,243577,1.76,1.67,9.34,-0.04,-0.08,0.30,27.85
22078884,1840,1,190968,244665,1.58,2.17,9.67,-0.07,-0.05,0.23,27.59
22119167,1808,1,191677,247601,1.90,1.43,9.95,-0.05,-0.05,0.18,27.59
22159167,1819,1,192229,248165,1.81,1.92,10.09,0.01,-0.01,0.24,27.59
22199145,1751,1,192659,249009,1.26,1.41,10.30,-0.01,-0.01,0.20,27.59
22239168,1511,1,192441,248460,1.85,1.36,9.73,-0.06,-0.05,0.22,27.59
22279167,1627,1,192674,249084,1.28,1.87,10.52,-0.03,-0.06,0.15,27.59
22319167,1783,1,192481,248767,1.58,1.46,10.14,-0.03,0.00,0.24,27.59
22359145,1830,1,192586,249384,2.28,2.60,10.90,-0.03,-0.08,0.23,27.59
22399168,1902,1,192585,249058,2.30,1.87,11.59,-0.03,-0.02,0.25,27.59
22439167,1871,1,192525,249308,1.39,2.49,9.64,-0.12,-0.13,0.24,27.59
22479167,1898,1,192367,248637,2.36,1.79,10.95,0.04,0.02,0.23,27.59
22519125,1915,1,192256,248353,1.89,2.15,9.73,-0.09,-0.13,0.25,27.59
22559167,1923,1,191888,247434,1.99,1.73,9.87,-0.02,-0.01,0.25,27.59
22599167,1914,1,191466,246650,1.69,1.99,9.04,-0.05,-0.07,0.25,27.59
22639168,1931,1,191085,246024,2.32,1.89,9.92,0.04,0.03,0.26,27.59
22679125,1907,1,191308,246505,2.00,2.24,10.18,0.01,-0.01,0.26,27.59
22719145,1923,1,191450,246852,1.77,2.14,10.20,-0.01,0.01,0.29,27.59
22759145,1895,1,191766,247496,1.81,1.34,10.39,0.00,0.03,0.26,27.59
22799125,1793,1,191996,248590,2.26,1.45,10.55,0.00,-0.03,0.27,27.59
22839144,1775,1,192265,248983,1.47,1.91,10.69,-0.00,-0.03,0.27,27.59
22879167,1759,1,192210,249145,1.92,2.65,10.29,-0.06,-0.07,0.27,27.59
22917167,1767,1,192309,248617,2.01,1.12,10.76,-0.03,-0.05,0.18,27.59
22957168,1839,1,191909,248834,1.89,2.46,9.28,-0.08,-0.21,0.15,27.59
22997167,2000,1,192387,248930,2.07,2.32,10.85,0.04,0.04,0.02,27.59
23037125,1847,1,192166,249175,2.33,2.59,9.52,-0.08,-0.13,0.23,27.59
23077163,1915,1,192536,248902,2.20,1.51,11.13,0.09,0.09,0.22,27.59
23117813,1840,1,192360,249273,1.75,2.83,9.49,-0.07,-0.10,0.30,27.79
23158162,1886,1,192400,249074,2.07,1.60,10.59,0.01,0.02,0.26,27.79
23198125,1950,1,192172,248641,2.02,2.33,10.00,-0.03,-0.06,0.30,27.79
23238162,1919,1,191891,248479,2.08,2.68,10.13,-0.01,-0.03,0.29,27.79
23278168,1869,1,191971,248049,1.91,1.60,10.67,-0.02,0.01,0.27,27.79
23318145,1862,1,191462,245674,2.36,0.96,9.63,-0.06,-0.08,0.26,27.79
23358168,1871,1,190944,243344,1.47,1.17,9.01,-0.06,-0.02,0.25,27.79
23398167,1839,1,190079,241078,1.78,2.02,9.61,-0.00,0.06,0.29,27.79
23438144,1857,1,189383,239451,2.12,0.32,8.77,-0.07,0.01,0.34,27.79
23478145,1686,1,188987,238884,1.85,1.66,8.83,-0.02,0.07,0.43,27.79
23518144,1689,1,189268,239422,1.22,1.11,8.79,-0.01,0.12,0.42,27.79
23558145,1716,1,189625,241551,1.81,1.18,10.40,0.01,0.16,0.32,27.79
23598125,1801,1,190336,241683,1.52,0.24,10.50,0.02,0.11,0.26,27.79
23638123,1867,1,189650,240907,0.86,1.01,9.57,-0.07,-0.14,0.36,27.79
23678167,1899,1,190264,242808,1.27,-0.06,11.22,-0.03,0.06,0.20,27.79
23718167,1831,1,190149,243056,1.38,0.51,9.93,-0.13,-0.13,0.19,27.79
23758168,2032,1,190821,245021,1.21,1.07,10.33,-0.03,-0.01,0.18,27.79
23798167,2000,1,191427,245556,1.25,0.50,11.62,-0.05,0.05,0.17,27.79
23838144,2015,1,191212,245834,2.06,0.81,11.10,-0.06,-0.07,0.17,27.79
23878167,1973,1,191705,246334,0.87,0.87,11.05,-0.07,0.00,0.16,27.79
23918144,1930,1,191683,246818,1.30,1.11,10.36,-0.08,-0.06,0.15,27.79
23958167,1939,1,191921,246832,1.30,0.31,10.96,-0.03,0.01,0.15,27.79
23998145,1891,1,191773,247275,1.35,1.32,10.60,-0.05,-0.01,0.17,27.79
24038167,1887,1,191892,246889,1.29,0.41,10.67,-0.05,-0.03,0.17,27.79
24078168,1879,1,191797,246890,1.52,0.30,11.01,-0.08,-0.07,0.16,27.79
24118854,1889,1,191918,247751,1.35,0.63,9.73,-0.09,-0.15,0.14,27.67
24157168,1886,1,191951,247180,1.24,1.36,9.62,-0.05,-0.10,0.07,27.67
24197167,1899,1,191714,247456,1.70,0.10,9.57,-0.06,-0.12,0.01,27.67
24237167,1905,1,191969,247066,1.35,0.39,9.56,-0.02,-0.05,0.04,27.67
24277164,1893,1,191597,246202,1.29,1.05,8.94,-0.02,-0.06,0.13,27.67
24317167,1867,1,191800,246644,1.42,0.02,9.91,-0.03,0.03,0.14,27.67
24357144,1853,1,191770,246210,1.50,-0.33,9.73,-0.03,-0.04,0.14,27.67
24397176,1872,1,191976,247584,1.29,0.70,9.26,-0.02,-0.05,0.13,27.67
24437164,1872,1,192449,248382,1.34,-0.09,9.67,-0.04,-0.01,0.13,27.67
24477175,1902,1,192539,248861,1.79,-0.01,9.84,-0.02,-0.03,0.12,27.67
24517176,1903,1,192796,249250,1.14,0.28,9.42,-0.02,-0.00,0.13,27.67
24557168,1863,1,192736,248926,1.15,0.62,9.77,-0.01,0.02,0.12,27.67
24597145,1886,1,192702,248904,1.55,-0.26,10.36,-0.01,0.03,0.11,27.67
24637168,1874,1,192620,248416,0.85,0.08,9.74,-0.02,0.03,0.13,27.67
24677145,1867,1,192602,248573,0.92,0.59,9.86,0.00,0.01,0.16,27.67
24717125,1863,1,192729,248362,1.03,-0.46,10.52,-0.04,0.02,0.14,27.67
24757163,1839,1,192273,247449,0.99,0.13,10.04,-0.05,-0.02,0.13,27.67
24797167,1839,1,191893,245318,0.82,0.36,10.13,-0.03,0.01,0.14,27.67
24837144,1862,1,190583,243054,1.09,-0.20,9.77,-0.07,-0.02,0.18,27.67
24877175,1905,1,190684,242457,0.75,-0.98,10.50,-0.03,0.03,0.10,27.67
24917163,1918,1,190032,242079,1.00,0.53,9.10,-0.04,-0.09,0.09,27.67
24957167,1914,1,190562,242796,0.73,-0.26,10.60,-0.01,0.06,0.08,27.67
24997163,2000,1,190228,242846,1.13,-0.34,9.32,-0.10,-0.07,0.07,27.67
25037175,1971,1,191037,244693,0.95,-0.26,10.17,-0.04,-0.01,0.07,27.67
25077176,1946,1,190548,243397,0.72,0.42,8.76,-0.09,-0.07,0.06,27.67
25117167,2000,1,191060,245311,1.07,-1.34,10.38,-0.04,0.09,0.06,27.67
25157853,1872,1,190966,244551,0.77,-0.57,9.41,-0.08,-0.09,0.05,27.67
25196176,1719,1,191651,246600,0.72,-0.85,10.03,-0.04,0.02,-0.16,27.67
25236177,963,1,191672,245497,0.73,-0.67,10.11,-0.06,0.01,-0.03,27.67
25276176,1407,1,192021,247432,0.80,-1.82,10.36,-0.03,0.01,-0.07,27.67
25316176,1872,1,192408,247080,0.57,0.13,9.63,-0.01,0.01,-0.07,27.67
25356167,2032,1,192275,248133,0.88,-0.73,9.85,-0.05,-0.02,0.03,27.67
25396174,2105,1,192799,248077,0.56,-0.91,10.30,-0.01,0.05,0.04,27.67
25436167,2065,1,192659,248309,0.55,-0.45,9.54,-0.02,-0.03,0.04,27.67
25476176,2038,1,192951,245785,0.43,0.04,10.65,0.00,0.08,0.08,27.67
25516125,2074,1,191845,246205,0.79,-1.61,10.32,-0.05,-0.05,0.09,27.67
25556173,2054,1,192590,246110,0.47,-0.37,10.42,-0.02,-0.01,0.03,27.67
25596176,2043,1,192114,246681,0.28,-0.31,9.27,-0.05,-0.07,0.02,27.67
25636176,2020,1,192312,245244,0.75,-0.74,10.77,-0.03,0.03,0.02,27.67
25676168,2017,1,191324,245053,0.81,-0.96,9.29,-0.06,-0.12,0.05,27.67
25716178,1840,1,191870,244964,0.44,-0.37,9.67,-0.00,0.04,0.02,27.67
25756168,1266,1,191219,243897,0.87,-0.36,9.56,-0.03,-0.07,0.06,27.67
25796177,1424,1,191418,244872,0.85,-1.07,9.77,-0.01,-0.00,0.02,27.67
25836178,1531,1,191185,244460,0.76,0.14,9.20,-0.06,-0.06,0.06,27.67
25876168,1482,1,191556,245630,0.69,-0.38,9.44,-0.04,0.03,0.11,27.67
25916168,1578,1,191656,246016,0.64,-1.06,10.01,-0.06,0.01,0.03,27.67
25956168,1584,1,192497,248470,0.73,-1.16,9.64,-0.10,0.01,0.01,27.67
25996168,1687,1,192650,247879,0.77,0.10,10.15,-0.04,-0.03,0.10,27.67
26036168,1646,1,192420,248285,0.53,-1.00,10.46,-0.05,-0.00,0.15,27.67
26076180,1934,1,192352,247592,0.51,-1.11,10.71,0.08,-0.05,0.05,27.67
26116168,2110,1,192411,247835,0.40,-0.06,10.25,-0.08,0.02,0.04,27.67
26156168,2128,1,191953,244643,0.34,-0.59,10.93,0.01,0.01,0.01,27.67
26196833,2138,1,191010,244428,0.68,-1.20,10.58,-0.09,-0.01,0.03,27.61
26235176,2137,1,190702,241677,0.31,-0.66,9.95,-0.02,-0.03,0.01,27.61
26275176,1938,1,189424,239847,0.45,-0.10,8.49,-0.19,-0.02,0.03,27.61
26315176,1765,1,189196,238593,0.40,-1.02,9.75,0.03,-0.09,-0.10,27.61
26355173,1727,1,188883,238884,0.37,-1.04,7.73,-0.10,-0.01,-0.16,27.61
26395200,1597,1,189715,239301,0.22,-0.55,9.16,0.11,-0.02,-0.03,27.61
26435176,1517,1,189043,238435,0.43,-0.01,8.90,-0.08,-0.01,0.13,27.61
26475180,1557,1,189827,241723,0.12,-2.12,10.07,0.01,0.03,0.04,27.61
26515146,1606,1,190537,243107,0.15,-0.38,9.31,-0.07,0.00,0.00,27.61
26555168,1733,1,191457,243796,-0.28,-0.79,10.51,0.03,0.05,0.09,27.61
26595168,1781,1,190532,243904,0.50,-0.22,9.88,-0.09,-0.04,0.06,27.61
26635179,1954,1,191564,245997,0.25,-1.75,11.87,0.02,0.07,-0.04,27.61
26675168,2007,1,191327,246411,-0.20,-0.17,9.60,-0.06,-0.05,-0.05,27.61
26715214,2081,1,192172,246533,-0.09,-1.76,13.35,0.04,0.10,0.05,27.61
26755167,2139,1,190983,244718,-0.50,-0.56,10.72,-0.14,-0.01,0.25,27.61
26795197,2122,1,190577,242845,-0.49,-1.08,12.26,0.01,-0.03,0.14,27.61
26835176,2288,1,189175,238626,-1.12,-0.83,10.93,-0.14,-0.05,0.15,27.61
26875197,2202,1,187626,234437,-0.46,-1.23,10.23,-0.04,-0.05,-0.04,27.61
26915209,2069,1,186834,233153,-0.47,-1.40,8.85,-0.08,-0.17,-0.05,27.61
26955213,1878,1,186243,230664,-0.88,-0.41,8.09,-0.06,-0.05,-0.17,27.61
26995215,1840,1,185141,228975,-0.38,-1.20,8.30,-0.04,-0.07,-0.19,27.61
27035211,1744,1,185205,230898,-0.51,-1.46,8.08,-0.04,-0.03,-0.16,27.61
27075209,1666,1,186939,233395,-0.41,-2.10,9.18,-0.02,0.06,-0.03,27.61
27115196,1703,1,187194,234765,-0.33,-1.45,9.29,-0.02,0.00,0.10,27.61
27155173,1782,1,187662,233214,-0.64,-1.11,10.71,-0.02,0.03,0.16,27.61
27195176,1789,1,187004,235640,-1.32,-1.42,8.67,-0.07,-0.11,-0.04,27.61
27235896,1775,1,188361,236756,-0.43,-0.25,11.37,0.06,0.03,-0.15,27.59
27276176,1636,1,188486,238936,-0.38,-2.82,11.63,-0.00,-0.05,-0.05,27.59
27316209,1886,1,189091,240404,-0.54,-1.03,11.64,0.06,0.05,-0.06,27.59
27356175,1823,1,190074,242250,-0.90,-1.85,13.48,0.08,0.03,-0.06,27.59
27396176,1785,1,190052,242995,-1.09,-0.99,11.70,0.00,-0.06,-0.00,27.59
27436196,1872,1,190333,242569,-1.42,-1.82,12.72,0.06,-0.01,-0.06,27.59
27476196,1874,1,189601,241600,-1.07,-0.51,9.79,-0.04,-0.19,-0.07,27.59
27516213,1889,1,189123,236037,-1.04,-1.08,9.62,0.07,-0.03,-0.09,27.59
27556196,1744,1,186711,231833,-0.45,-1.50,8.09,-0.02,-0.17,-0.11,27.59
27596213,1741,1,186505,229948,-1.65,-1.82,7.74,0.03,0.00,-0.08,27.59
27636176,1766,1,185689,229549,-0.92,-0.48,7.01,0.02,-0.11,-0.09,27.59
27676196,1979,1,186602,230269,-1.03,-1.93,9.30,0.03,0.08,-0.08,27.59
27716180,1987,1,186250,231290,-0.67,-1.64,7.83,-0.06,-0.15,-0.05,27.59
27754213,2031,1,186517,230281,-1.17,-1.47,8.25,-0.01,-0.04,-0.05,27.59
27794210,1986,1,186578,232037,-1.30,-1.56,8.20,-0.06,-0.07,-0.12,27.59
27834213,1973,1,187194,232844,-0.65,-1.60,9.68,-0.01,0.00,-0.12,27.59
27874196,1926,1,188565,237446,-1.18,-2.00,10.30,-0.00,-0.00,-0.11,27.59
27914211,1812,1,189265,238662,-0.69,-0.89,10.88,-0.01,0.03,-0.13,27.59
27954196,1865,1,189792,239284,-1.20,-2.73,11.70,-0.06,0.05,-0.09,27.59
27994196,1718,1,189258,238607,-1.00,-1.32,11.21,-0.06,-0.03,-0.15,27.59
28034210,1688,1,189356,238199,-1.29,-1.88,9.91,-0.05,0.00,-0.14,27.59
28074196,1655,1,188637,236063,-1.36,-1.52,9.28,-0.05,0.04,-0.16,27.59
28114196,1709,1,188008,233065,-1.17,-1.96,9.80,-0.00,0.11,-0.16,27.59
28154197,1763,1,186879,231760,-1.77,-1.76,7.50,-0.06,-0.01,-0.15,27.59
28194210,1789,1,187220,230729,-1.72,-1.33,9.29,0.02,0.24,-0.15,27.59
28234176,1695,1,186553,230738,-1.12,-1.79,8.86,-0.07,0.01,0.02,27.59
28274863,1570,1,187138,231577,-1.51,-1.43,9.82,-0.04,0.08,-0.10,27.59
28315197,1453,1,187237,233653,-1.81,-2.18,8.47,-0.15,-0.08,-0.16,27.59
28355210,1606,1,188570,236880,-1.42,-1.88,10.82,-0.07,0.05,-0.20,27.59
28395197,1679,1,189197,238896,-1.36,-2.25,10.87,-0.07,0.05,-0.18,27.59
28435243,1729,1,189467,239029,-1.77,-2.12,10.84,-0.10,0.05,-0.17,27.59
28475197,1565,1,189741,238495,-1.78,-3.01,12.62,-0.06,0.11,-0.20,27.59
28515196,1648,1,188784,235766,-1.68,-2.92,11.32,-0.14,-0.09,-0.16,27.59
28555213,1725,1,188112,233673,-1.92,-3.17,10.96,-0.10,0.02,-0.25,27.59
28595196,1723,1,187621,233404,-1.90,-2.94,9.67,-0.14,-0.10,-0.24,27.59
28635234,1853,1,187222,232244,-1.22,-2.79,10.15,-0.05,-0.03,-0.23,27.59
28675211,1878,1,187313,233092,-1.88,-3.51,9.14,-0.08,-0.02,-0.23,27.59
28715213,1854,1,187324,231401,-1.98,-2.45,9.22,-0.02,0.02,-0.23,27.59
28755197,1814,1,186996,231600,-1.61,-3.24,8.70,-0.05,-0.05,-0.22,27.59
28795214,1664,1,187017,232083,-1.30,-3.10,9.88,-0.03,-0.02,-0.25,27.59
28835210,1776,1,187514,232486,-1.74,-3.14,8.83,-0.04,-0.03,-0.29,27.59
28875214,1840,1,186925,231906,-1.65,-2.59,8.81,-0.01,-0.07,-0.26,27.59
28915211,1863,1,187472,233144,-1.31,-3.23,10.50,0.02,0.09,-0.31,27.59
28955177,1923,1,187621,232296,-1.96,-3.53,9.65,-0.03,-0.04,-0.25,27.59
28995211,1909,1,187212,234065,-1.64,-1.82,9.80,0.01,0.00,-0.26,27.59
29035177,1984,1,188108,233211,-2.02,-3.03,10.92,-0.02,0.07,-0.28,27.59
29075197,1920,1,187229,234798,-1.36,-3.62,9.29,-0.07,-0.09,-0.27,27.59
29115214,1974,1,188547,234974,-1.93,-2.92,11.98,0.07,0.14,-0.32,27.59
29155176,1981,1,187094,235147,-1.56,-2.88,8.55,-0.17,-0.24,-0.20,27.59
29195214,2017,1,188041,235809,-0.98,-3.31,12.29,0.07,0.19,-0.37,27.59
29235177,2019,1,187387,234730,-1.62,-2.91,8.92,-0.14,-0.19,-0.23,27.59
29275901,1942,1,187968,234118,-2.15,-2.96,10.00,0.05,0.17,-0.30,27.47
29314177,1878,1,187329,233838,-1.68,-2.75,9.78,-0.10,-0.09,-0.29,27.47
29354214,1853,1,187242,233735,-1.47,-3.13,9.47,-0.05,-0.01,-0.29,27.47
29394212,1826,1,187614,235779,-1.76,-2.83,8.86,-0.04,-0.01,-0.33,27.47
29434214,1859,1,188444,238213,-1.52,-2.98,8.61,-0.06,-0.07,-0.32,27.47
29474211,1869,1,188633,237636,-1.49,-3.02,9.75,-0.02,0.04,-0.30,27.47
29514198,1904,1,187912,233879,-1.54,-3.20,8.53,-0.06,-0.06,-0.29,27.47
29554211,1919,1,187104,232028,-1.90,-2.80,8.97,-0.00,0.10,-0.33,27.47
29594197,1904,1,186768,232291,-1.53,-2.98,9.40,-0.04,-0.03,-0.29,27.47
29634211,1925,1,187075,232609,-1.67,-3.35,9.85,0.01,0.07,-0.28,27.47
29674177,1877,1,187135,235012,-1.69,-2.21,9.47,-0.05,-0.03,-0.28,27.47
29714211,1869,1,187965,235084,-1.78,-3.27,10.34,-0.00,0.11,-0.28,27.47
29754198,1853,1,187827,236598,-1.79,-2.78,9.76,-0.03,0.03,-0.28,27.47
29794197,1806,1,188505,237015,-1.83,-2.80,10.72,0.01,0.08,-0.27,27.47
29834177,1808,1,188094,236016,-1.94,-2.74,10.01,-0.06,0.02,-0.22,27.47
29874197,1776,1,188019,236501,-1.72,-3.31,11.15,-0.01,0.10,-0.29,27.47
29914201,1699,1,188401,237273,-1.95,-2.99,10.41,-0.04,-0.02,-0.23,27.47
29954212,1579,1,188322,237714,-2.18,-3.20,10.02,-0.06,0.02,-0.23,27.47
29994198,1643,1,188802,238476,-1.98,-3.06,10.76,-0.04,0.01,-0.32,27.47
30034198,1680,1,188595,238129,-1.97,-3.20,9.32,-0.10,-0.08,-0.29,27.47
30074219,1730,1,188697,237849,-2.06,-2.69,9.62,-0.05,0.01,-0.32,27.47
30114198,1751,1,188240,236487,-1.50,-3.25,9.23,-0.10,-0.07,-0.31,27.47
30154215,1788,1,187646,233553,-1.62,-3.25,9.42,-0.05,0.03,-0.35,27.47
30194198,1782,1,186757,232042,-1.94,-2.43,8.50,-0.09,-0.09,-0.31,27.47
30234214,1749,1,186739,232565,-1.51,-2.88,8.79,-0.05,0.04,-0.36,27.47
30274215,1751,1,187161,234827,-1.35,-3.16,9.59,-0.08,-0.02,-0.32,27.47
30314902,1745,1,187784,235843,-1.76,-2.44,8.81,-0.05,-0.01,-0.31,27.37
30353214,1763,1,188031,236720,-1.60,-2.32,9.52,-0.03,0.06,-0.30,27.37
30393201,1767,1,188564,238394,-1.24,-3.47,10.19,-0.03,0.01,-0.30,27.37
30433198,1757,1,188825,238321,-1.64,-2.91,9.79,0.01,0.06,-0.28,27.37
30473179,1778,1,188952,239131,-1.69,-2.79,10.00,0.01,0.06,-0.26,27.37
30513177,1819,1,188831,238409,-1.60,-3.04,10.41,0.02,0.05,-0.26,27.37
30553180,1834,1,188709,238682,-1.62,-2.87,9.77,0.01,0.02,-0.26,27.37
30593177,1818,1,188896,239321,-1.64,-2.32,9.89,0.03,-0.02,-0.26,27.37
30633201,1783,1,189006,239847,-1.25,-3.20,10.08,0.01,-0.02,-0.26,27.37
30673197,1773,1,189300,240291,-1.55,-2.58,10.15,0.03,-0.03,-0.27,27.37
30713201,1750,1,189253,240928,-1.53,-2.37,9.00,0.01,-0.10,-0.27,27.37
30753197,1762,1,189849,242631,-1.28,-2.33,10.65,0.03,0.08,-0.30,27.37
30793180,1776,1,190008,241910,-1.31,-2.64,10.23,-0.02,-0.08,-0.25,27.37
30833215,1775,1,189972,242483,-1.32,-2.26,9.62,0.01,-0.03,-0.29,27.37
30873201,1808,1,190111,242237,-1.24,-1.55,10.99,-0.03,-0.01,-0.34,27.37
30913214,1810,1,190212,243594,-0.90,-2.73,10.19,-0.02,-0.08,-0.27,27.37
30953214,1797,1,190509,243648,-1.12,-1.88,10.62,-0.01,-0.02,-0.35,27.37
30993215,1815,1,190390,243606,-1.11,-2.15,9.44,-0.07,-0.11,-0.26,27.37
31033214,1809,1,190490,243623,-0.58,-2.06,10.42,0.01,0.01,-0.27,27.37
31073177,1790,1,190201,242740,-0.76,-2.10,9.78,-0.04,-0.04,-0.22,27.37
31113215,1791,1,189997,242579,-0.74,-2.12,9.18,-0.03,-0.04,-0.22,27.37
31153212,1791,1,189802,241984,-0.69,-1.98,9.68,-0.04,-0.03,-0.22,27.37
31193215,1792,1,190021,242427,-0.61,-2.39,9.54,-0.03,-0.00,-0.22,27.37
31233212,1744,1,189813,242396,-0.87,-1.32,9.11,-0.03,-0.01,-0.20,27.37
31273215,1749,1,189905,242085,-0.58,-2.11,9.69,-0.03,0.02,-0.20,27.37
31313198,1741,1,189800,242474,-0.40,-2.49,9.56,-0.05,0.00,-0.20,27.37
31353885,1742,1,189765,241842,-0.96,-2.07,9.31,-0.02,0.01,-0.19,27.37
31392197,1802,1,189719,242126,-0.71,-1.76,9.15,-0.02,-0.02,-0.20,27.37
31432213,1840,1,190020,243062,-0.55,-2.43,9.93,-0.03,0.04,-0.20,27.37
31472197,1728,1,190129,242747,-0.76,-2.06,9.81,-0.01,0.00,-0.19,27.37
31513198,1725,1,189823,240449,-0.95,-2.11,9.35,-0.03,0.03,-0.19,27.37
31553198,1755,1,188922,239655,-0.85,-2.19,10.17,-0.05,0.02,-0.20,27.37
31593198,1766,1,189288,239822,-0.74,-2.36,10.37,-0.01,0.02,-0.18,27.37
31633198,1759,1,189199,240974,-1.03,-1.85,9.45,-0.07,-0.00,-0.15,27.37
31673215,1791,1,189586,240685,-0.91,-1.87,10.62,-0.04,0.05,-0.18,27.37
31713211,1805,1,189798,242124,-0.74,-3.01,9.82,-0.07,-0.03,-0.18,27.37
31753215,1813,1,189604,241209,-1.07,-1.50,10.23,-0.04,0.00,-0.20,27.37
31793198,1769,1,189951,241814,-0.98,-2.84,9.98,-0.07,0.01,-0.16,27.37
31833198,1803,1,189403,240438,-0.83,-2.41,9.95,-0.06,-0.03,-0.20,27.37
31873212,1789,1,189777,241842,-0.84,-2.60,9.72,-0.04,0.01,-0.20,27.37
31913227,1837,1,189604,240889,-1.35,-1.73,9.34,-0.07,-0.01,-0.18,27.37
31953212,1771,1,189705,242400,-0.52,-2.29,10.14,-0.04,0.00,-0.20,27.37
31993199,1744,1,190199,243243,-1.05,-2.36,9.57,-0.07,-0.01,-0.21,27.37
32033214,1631,1,190557,244347,-0.74,-1.62,9.56,-0.01,-0.01,-0.23,27.37
32073215,1616,1,190712,244285,-0.70,-2.56,10.22,-0.04,-0.01,-0.19,27.37
32113240,1629,1,190591,244527,-0.70,-2.10,10.18,-0.03,-0.02,-0.22,27.37
32153216,1674,1,190927,244792,-0.86,-1.75,9.90,-0.01,-0.02,-0.21,27.37
32193213,1662,1,190704,244810,-0.60,-2.00,10.17,-0.04,-0.04,-0.18,27.37
32233215,1714,1,190673,243646,-0.66,-2.17,10.53,-0.01,0.03,-0.23,27.37
32273198,1701,1,190465,244826,-0.46,-1.66,9.64,-0.01,-0.09,-0.23,27.37
32313216,1717,1,190943,244773,-0.45,-1.45,11.19,0.01,0.02,-0.20,27.37
32353869,1602,1,191046,245611,-0.42,-2.37,10.44,-0.04,-0.08,-0.17,27.31
32392214,1585,1,191437,245718,-0.41,-1.95,11.37,0.03,0.00,-0.22,27.31
32432177,2142,1,191195,245633,-0.54,-1.03,9.96,-0.03,-0.15,-0.17,27.31
32472218,1872,1,191624,246123,-0.20,-2.32,10.40,-0.01,0.01,-0.26,27.31
32512202,1838,1,190827,244314,-0.25,-1.26,9.11,-0.04,-0.16,-0.15,27.31
32553216,1849,1,191092,245777,-0.13,-1.26,9.06,0.02,-0.01,-0.19,27.31
32591200,1933,1,191141,245166,-0.14,-1.12,10.13,-0.01,-0.02,-0.13,27.31
32631214,2019,1,191093,246146,0.23,-1.92,9.22,-0.03,-0.10,-0.14,27.31
32671198,2129,1,191564,246218,-0.07,-1.01,9.69,-0.00,0.00,-0.18,27.31
32711200,2166,1,191598,246815,0.11,-1.58,9.08,-0.03,-0.10,-0.16,27.31
32751197,2179,1,191937,247229,0.07,-1.41,9.65,0.02,0.03,-0.16,27.31
32791168,2118,1,191722,246747,-0.14,-0.74,8.80,-0.01,-0.06,-0.11,27.31
32831211,2079,1,191961,247474,0.22,-1.12,9.28,0.00,0.02,-0.11,27.31
32871168,2045,1,191775,246759,0.24,-1.40,10.18,-0.01,0.00,-0.11,27.31
32911177,1993,1,191867,245851,0.11,-1.83,9.47,0.02,0.00,-0.10,27.31
32951168,1954,1,190509,240702,-0.07,-0.60,9.35,-0.01,-0.01,-0.09,27.31
32991209,1899,1,189971,241500,0.12,-1.97,10.06,-0.00,0.06,-0.11,27.31
33031176,1837,1,189635,239913,-0.00,-1.09,9.69,0.00,-0.00,-0.10,27.31
33071193,1756,1,189627,242994,0.50,-0.52,9.63,0.03,-0.02,-0.10,27.31
33111176,1744,1,190818,244684,-0.02,-1.08,10.77,-0.02,0.08,-0.10,27.31
33151197,1776,1,191215,245980,0.18,-1.23,10.33,-0.02,-0.04,-0.10,27.31
33191196,1808,1,191926,246748,-0.10,-1.01,10.47,-0.01,0.03,-0.09,27.31
33231196,1792,1,191368,246441,0.06,-0.95,10.23,-0.09,-0.06,-0.01,27.31
33271196,1882,1,191849,246027,-0.11,-2.04,11.34,0.02,0.12,-0.09,27.31
33311176,1873,1,190983,245495,0.15,-0.73,9.52,-0.09,-0.17,-0.05,27.31
33351203,1865,1,191299,245137,-0.07,-0.98,10.16,-0.04,0.07,-0.10,27.31
33391883,1957,1,191046,246077,0.20,-1.95,9.80,-0.10,-0.11,-0.12,27.41
33432196,2091,1,191556,246107,0.28,-0.74,9.72,-0.01,-0.03,-0.19,27.41
33472196,1936,1,191586,246471,0.26,-0.92,9.11,-0.10,-0.05,-0.11,27.41
33512196,1898,1,191476,245700,0.39,-1.24,9.52,-0.07,-0.02,-0.15,27.41
33553196,1882,1,191517,245505,0.34,-1.40,8.95,-0.04,-0.02,-0.15,27.41
33591196,1878,1,190803,242234,0.17,-0.31,8.78,-0.05,-0.01,-0.09,27.41
33631196,1868,1,190308,241745,0.43,-1.37,9.64,-0.05,0.06,-0.09,27.41
33671176,1767,1,190974,245469,0.56,-2.15,10.07,-0.06,-0.02,-0.10,27.41
33711196,1763,1,191390,245648,0.25,-0.07,9.63,-0.03,-0.02,-0.07,27.41
33751213,1682,1,192034,247519,0.14,-1.62,9.38,-0.04,0.03,-0.07,27.41
33791176,1648,1,192208,247957,0.36,-0.97,10.84,-0.01,0.01,-0.10,27.41
33831175,1563,1,192785,248130,-0.20,-1.46,10.57,0.01,0.07,-0.06,27.41
33871176,1775,1,191673,246872,0.18,0.00,9.69,-0.02,-0.07,-0.06,27.41
33911176,1770,1,192579,248687,0.51,-1.88,11.73,0.03,0.13,-0.07,27.41
33951168,1175,1,192127,248301,-0.22,-0.22,10.17,0.00,-0.13,-0.07,27.41
33991197,847,1,192966,249671,0.61,-0.80,10.65,0.07,0.03,-0.06,27.41
34031163,1361,1,193020,249809,0.10,-0.96,11.20,-0.03,-0.07,-0.08,27.41
34071196,1817,1,193405,250447,0.30,-1.34,10.35,0.05,-0.08,-0.08,27.41
34111176,1950,1,193330,250292,0.04,-0.15,9.69,0.01,-0.10,-0.07,27.41
34151176,1907,1,193394,250012,0.53,-1.03,10.30,0.02,-0.03,-0.05,27.41
34191173,1856,1,193214,249984,0.44,-1.19,9.78,0.01,-0.12,-0.06,27.41
34231176,1906,1,193261,249795,0.49,-0.54,9.56,0.04,-0.07,-0.09,27.41
34271173,1900,1,193175,249228,0.54,-0.33,9.22,0.01,-0.11,-0.15,27.41
34311176,1840,1,193488,250468,0.81,-0.77,9.39,0.04,-0.08,-0.24,27.41
34351176,1794,1,194251,251869,0.88,-0.05,9.35,0.03,-0.09,-0.20,27.41
34391176,1629,1,194483,251729,0.75,-0.15,9.04,0.04,-0.08,-0.13,27.41
34431860,1647,1,194414,252347,1.33,-0.45,9.96,0.03,-0.03,-0.08,27.29
34470176,1648,1,194658,252022,0.74,-0.80,10.30,0.05,-0.00,-0.04,27.29
34510173,1884,1,194517,252541,1.02,0.02,9.51,0.05,-0.08,-0.04,27.29
34550167,1968,1,194755,252058,0.61,0.13,10.36,0.03,0.06,-0.06,27.29
34590145,1965,1,194250,251814,1.11,-0.36,10.04,0.01,-0.06,-0.05,27.29
34630176,1933,1,194350,251759,0.95,0.08,9.98,0.04,0.03,-0.05,27.29
34670145,1927,1,193678,250681,0.78,0.46,9.58,-0.01,-0.05,-0.03,27.29
34710176,1927,1,193604,250957,0.95,-0.40,10.06,-0.00,0.02,-0.04,27.29
34750173,1938,1,193312,249673,0.94,0.23,10.12,-0.02,-0.05,-0.04,27.29
34790176,1943,1,193026,249645,0.72,0.18,9.50,-0.02,-0.03,-0.04,27.29
34830173,1975,1,192834,248762,0.85,-0.14,10.11,-0.05,-0.02,-0.04,27.29
34870196,1915,1,192905,249555,0.97,-0.46,9.55,-0.04,-0.05,-0.10,27.29
34910193,1866,1,193114,249041,0.64,0.48,9.40,-0.06,-0.01,-0.06,27.29
34950176,1878,1,192686,248633,1.00,-0.31,9.16,-0.09,-0.03,-0.04,27.29
34990201,1840,1,193166,248352,0.83,-0.62,10.17,-0.07,0.08,-0.03,27.29
35030175,1843,1,192600,248027,0.87,0.34,8.84,-0.07,-0.08,-0.02,27.29
35070173,1850,1,193410,247709,0.40,-0.37,10.23,-0.07,0.15,-0.02,27.29
35110175,1826,1,192192,246121,0.65,-0.98,9.48,-0.13,-0.07,0.07,27.29
35150176,1818,1,192990,247737,0.43,-0.88,10.06,-0.06,0.18,-0.01,27.29
35190229,1801,1,192201,246668,0.24,0.34,8.82,-0.13,-0.04,0.13,27.29
35230166,1759,1,192737,248306,0.40,-1.57,9.92,-0.10,0.18,0.07,27.29
35270167,1778,1,192558,247468,-0.10,-0.88,10.13,-0.15,0.05,0.05,27.29
35310176,1814,1,192306,247530,0.06,-0.89,9.60,-0.11,0.05,0.12,27.29
35350167,1845,1,192381,248229,-0.38,-1.14,9.92,-0.13,0.09,0.10,27.29
35390196,1860,1,192459,248085,-0.34,-1.88,10.68,-0.13,0.09,0.10,27.29
35430176,1759,1,192161,247516,-0.83,-1.12,9.61,-0.12,0.05,0.14,27.29
35470863,1600,1,191864,248114,-0.86,-1.08,10.16,-0.13,0.15,0.08,27.31
35509176,1686,1,192125,248461,-0.69,-2.03,11.01,-0.14,0.06,-0.00,27.31
35549196,1746,1,192136,248558,-0.74,-1.51,10.60,-0.15,-0.02,-0.04,27.31
35589213,1806,1,191896,245342,-1.10,-1.28,10.32,-0.16,0.08,-0.02,27.31
35629196,1882,1,190555,243491,-0.93,-2.23,9.89,-0.18,0.02,-0.02,27.31
35669197,1889,1,190638,242063,-1.07,-1.91,10.74,-0.10,0.13,-0.17,27.31
35709196,1919,1,189665,240349,-1.46,-2.03,9.21,-0.15,-0.03,0.04,27.31
35749196,1890,1,189539,239727,-1.54,-2.66,9.67,-0.10,0.20,-0.06,27.31
35789196,1919,1,189212,239632,-1.08,-2.70,10.20,-0.12,0.02,-0.00,27.31
35829196,1978,1,189405,239747,-1.56,-2.69,9.55,-0.10,0.01,-0.06,27.31
35869197,1873,1,189209,240195,-1.62,-2.38,9.07,-0.09,-0.01,-0.11,27.31
35909213,1973,1,189723,241731,-1.25,-2.69,10.28,-0.07,-0.01,-0.15,27.31
35949211,1793,1,190128,242589,-1.70,-2.73,9.47,-0.07,-0.03,-0.17,27.31
35989213,1658,1,190664,243836,-1.69,-2.33,9.45,-0.01,0.03,-0.20,27.31
36029197,1383,1,190733,243529,-1.79,-2.57,10.06,-0.02,0.03,-0.14,27.31
36069197,1316,1,190567,243717,-1.43,-2.97,10.54,-0.02,0.05,-0.15,27.31
36109197,1456,1,190595,243744,-2.07,-2.47,9.56,-0.02,-0.01,-0.19,27.31
36149213,1596,1,190809,244856,-2.03,-2.56,9.41,0.01,0.01,-0.20,27.31
36189177,1663,1,191165,244691,-1.58,-2.86,10.73,0.04,0.06,-0.17,27.31
36229177,1750,1,190640,242214,-1.74,-2.59,10.21,0.01,-0.00,-0.16,27.31
36269197,1803,1,190198,241310,-2.15,-2.23,10.15,0.02,0.02,-0.17,27.31
36309177,1857,1,189953,241096,-1.80,-2.25,10.49,-0.02,-0.04,-0.14,27.31
36349211,1745,1,190382,242002,-1.73,-3.16,11.04,-0.02,0.01,-0.18,27.31
36389197,2071,1,190006,241901,-2.02,-2.19,9.94,-0.04,-0.08,-0.19,27.31
36429210,2149,1,190517,242660,-2.34,-2.63,10.13,-0.02,0.01,-0.22,27.31
36469197,2094,1,190497,244305,-1.68,-2.37,10.24,-0.08,-0.05,-0.21,27.31
36509897,2059,1,190872,243223,-1.93,-2.37,10.44,-0.04,0.03,-0.23,27.41
36550197,2144,1,190939,244804,-1.91,-2.35,9.56,-0.08,-0.05,-0.21,27.41
36590210,2167,1,190792,242478,-1.97,-2.15,10.53,-0.08,0.01,-0.25,27.41
36630197,2112,1,190062,241402,-1.74,-3.21,9.59,-0.12,-0.05,-0.20,27.41
36670210,2106,1,189555,241511,-1.95,-2.38,9.33,-0.10,-0.06,-0.25,27.41
36710213,1942,1,189930,241469,-1.89,-2.35,9.05,-0.07,-0.02,-0.23,27.41
36750210,1840,1,190152,243357,-1.44,-3.06,9.59,-0.06,0.06,-0.22,27.41
36790196,1720,1,190202,242492,-1.96,-2.56,9.18,-0.07,0.01,-0.22,27.41
36830197,1706,1,190739,243918,-2.39,-2.48,8.85,-0.04,0.05,-0.20,27.41
36870197,1773,1,190181,241773,-1.77,-1.94,9.47,-0.08,0.01,-0.20,27.41
36908196,1810,1,189754,239040,-1.72,-3.53,10.11,-0.09,0.05,-0.20,27.41
36948196,1870,1,189009,240629,-2.16,-2.55,8.94,-0.09,-0.08,-0.23,27.41
36988210,1829,1,189497,239713,-2.21,-2.59,9.55,-0.03,0.07,-0.22,27.41
37028221,1866,1,189832,241163,-1.91,-3.31,10.11,-0.04,0.10,-0.22,27.41
37068196,1872,1,189548,240809,-2.20,-2.47,10.39,-0.04,0.02,-0.20,27.41
37108196,1935,1,190628,242368,-2.44,-3.05,10.38,-0.01,0.04,-0.21,27.41
37148196,1866,1,190165,242997,-2.05,-3.15,10.52,-0.05,-0.01,-0.19,27.41
37188212,1869,1,190861,243079,-2.46,-3.32,11.24,0.00,0.08,-0.29,27.41
37228176,1837,1,190521,243275,-2.65,-2.35,9.25,-0.03,-0.08,-0.21,27.41
37268213,1821,1,190300,242380,-2.22,-2.80,10.56,0.01,0.06,-0.24,27.41
37308176,1822,1,190508,242396,-2.21,-3.28,10.35,-0.04,-0.04,-0.24,27.41
37348213,1769,1,190090,243756,-2.23,-2.79,9.33,-0.01,-0.09,-0.24,27.41
37388210,1757,1,190607,242121,-2.70,-2.34,10.33,0.00,0.04,-0.23,27.41
37428176,1707,1,189411,240965,-2.07,-3.03,9.00,-0.08,-0.14,-0.17,27.41
37468210,1646,1,189982,242226,-2.20,-3.05,9.87,-0.00,0.02,-0.40,27.41
37508197,1436,1,190029,243373,-2.32,-2.31,8.15,-0.04,-0.18,-0.34,27.41
37548897,1586,1,190625,243841,-1.65,-2.50,9.51,0.03,0.07,-0.33,27.35
37589176,1815,1,190189,240017,-2.06,-2.70,9.61,-0.02,0.01,-0.24,27.35
37629196,1969,1,188954,239645,-2.05,-2.38,8.55,-0.02,-0.08,-0.23,27.35
37669213,2035,1,189513,240490,-2.22,-2.54,9.77,-0.03,0.04,-0.25,27.35
37709196,2019,1,190091,241604,-2.01,-3.26,9.44,-0.02,-0.01,-0.24,27.35
37749213,1997,1,189590,240996,-1.91,-2.52,9.76,0.02,0.03,-0.23,27.35
37789176,1932,1,190463,242656,-2.66,-2.80,9.65,-0.02,0.06,-0.22,27.35
37829196,1895,1,189671,240537,-1.92,-2.77,10.01,-0.01,0.03,-0.18,27.35
37869196,1846,1,190009,241157,-2.05,-3.49,10.36,0.03,0.07,-0.23,27.35
37909176,1827,1,189525,240679,-2.62,-2.41,9.43,-0.01,-0.01,-0.21,27.35
37949210,1792,1,189995,239931,-2.27,-3.12,10.61,0.04,0.04,-0.18,27.35
37989176,1787,1,189256,241171,-1.92,-3.58,10.44,-0.02,-0.04,-0.21,27.35
38029210,1798,1,189921,240380,-2.79,-2.60,9.95,-0.01,-0.01,-0.25,27.35
38069213,1761,1,189771,242437,-2.56,-2.88,8.77,-0.02,-0.08,-0.26,27.35
38109210,1767,1,190237,242629,-2.13,-2.33,11.17,-0.00,0.08,-0.27,27.35
38149197,1767,1,190455,242983,-2.24,-3.25,9.78,-0.07,-0.06,-0.27,27.35
38189210,1779,1,190198,243168,-2.16,-2.35,9.47,-0.05,-0.06,-0.30,27.35
38229213,1779,1,190020,240265,-2.17,-2.76,9.74,-0.10,-0.02,-0.32,27.35
38269210,1744,1,189482,242411,-1.76,-3.13,9.54,-0.04,-0.03,-0.42,27.35
38309213,1718,1,189875,240162,-2.09,-1.90,9.49,-0.06,-0.01,-0.32,27.35
38349210,1697,1,189796,242959,-1.84,-2.87,8.83,-0.08,0.00,-0.32,27.35
38389196,1717,1,189855,240151,-1.84,-3.20,10.49,-0.05,0.05,-0.28,27.35
38429196,1694,1,189972,242713,-1.53,-3.51,9.35,-0.06,-0.03,-0.26,27.35
38467232,1762,1,190026,242217,-2.23,-2.88,9.83,-0.04,0.05,-0.27,27.35
38507196,1775,1,190625,243638,-1.77,-3.31,9.63,-0.04,0.02,-0.27,27.35
38547197,1774,1,190712,244217,-1.47,-3.21,10.55,-0.04,0.02,-0.27,27.35
38587883,1825,1,190897,243909,-2.03,-3.23,9.95,-0.06,0.02,-0.26,27.35
38628197,1848,1,190641,243412,-2.05,-3.50,9.60,-0.04,0.02,-0.27,27.35
38668196,1842,1,190613,243856,-1.53,-3.56,10.13,-0.05,0.02,-0.27,27.35
38708197,1870,1,191009,244132,-2.22,-3.33,9.49,-0.02,0.01,-0.27,27.35
38748196,1849,1,190437,243657,-1.97,-3.05,9.51,-0.05,0.00,-0.26,27.35
38788196,1815,1,191000,244185,-1.54,-3.54,10.98,-0.02,0.05,-0.28,27.35
38828196,1795,1,190517,243573,-1.99,-3.34,8.59,-0.08,-0.11,-0.28,27.35
38868213,1809,1,191531,244949,-1.70,-3.16,10.29,0.03,0.15,-0.47,27.35
38908176,1867,1,189944,239104,-1.92,-3.00,9.11,-0.12,-0.10,-0.24,27.35
38948213,1858,1,189706,241702,-1.81,-4.12,9.53,-0.01,0.13,-0.34,27.35
38988196,1888,1,190157,239977,-2.46,-3.21,10.11,-0.06,0.04,-0.28,27.35
39028197,1865,1,189296,240780,-1.72,-4.09,9.09,-0.10,-0.06,-0.19,27.35
39068209,1879,1,190177,241738,-2.19,-3.32,10.60,-0.00,0.16,-0.28,27.35
39108197,1823,1,189580,241311,-1.63,-2.66,8.35,-0.13,-0.10,-0.16,27.35
39148210,1840,1,190671,242442,-1.95,-4.03,10.09,0.03,0.18,-0.31,27.35
39188182,1849,1,189818,242058,-1.54,-3.08,9.21,-0.10,-0.10,-0.25,27.35
39228210,1858,1,190211,240872,-1.95,-3.78,9.38,0.01,0.10,-0.28,27.35
39268176,1845,1,189574,241647,-2.33,-3.23,8.50,-0.07,0.00,-0.27,27.35
39308196,1859,1,189498,240878,-1.07,-3.31,9.67,-0.02,0.03,-0.28,27.35
39348196,1843,1,190249,243091,-2.03,-3.57,8.80,-0.03,0.04,-0.28,27.35
39388196,1855,1,190232,242964,-2.16,-3.05,8.55,-0.04,-0.01,-0.27,27.35
39428213,1845,1,191141,244283,-1.69,-3.83,10.39,0.01,0.11,-0.30,27.35
39468176,1823,1,190935,244928,-2.18,-3.62,9.45,-0.07,-0.03,-0.30,27.35
39508213,1808,1,191667,245907,-2.02,-2.84,9.89,0.02,0.13,-0.33,27.35
39548176,1806,1,191795,245558,-2.00,-3.85,10.50,-0.03,0.07,-0.26,27.35
39588883,1800,1,191283,244326,-1.85,-3.59,10.47,-0.03,0.06,-0.27,27.25
39627196,1826,1,191240,244693,-2.13,-3.25,10.45,-0.03,0.04,-0.27,27.25
39667197,1818,1,191423,245729,-1.87,-3.49,10.76,-0.03,0.03,-0.27,27.25
39707196,1771,1,191503,245256,-2.18,-3.52,10.25,-0.01,0.03,-0.27,27.25
39747197,1791,1,190928,244144,-1.96,-2.76,9.53,-0.02,-0.04,-0.27,27.25
39787210,1785,1,191167,244771,-1.78,-3.08,10.51,-0.01,0.03,-0.28,27.25
39827197,1797,1,191091,245745,-1.53,-3.40,9.67,-0.03,-0.09,-0.27,27.25
39867210,1776,1,191393,245371,-1.64,-2.71,10.01,0.02,0.02,-0.30,27.25
39907175,1802,1,191688,247237,-1.69,-2.89,8.84,-0.04,-0.09,-0.36,27.25
39947210,1749,1,192119,247822,-1.40,-3.00,9.71,0.01,-0.05,-0.40,27.25
39987196,1778,1,192831,248757,-1.46,-2.80,9.13,-0.00,-0.03,-0.34,27.25
40027210,1811,1,192455,248324,-1.53,-2.81,8.93,-0.03,-0.04,-0.22,27.25
40067213,1819,1,193043,248655,-1.51,-3.55,10.55,0.05,0.12,-0.22,27.25
40107181,1802,1,192424,247811,-1.34,-2.95,9.71,0.01,-0.03,-0.12,27.25
40147197,1827,1,192511,247795,-1.76,-2.77,9.52,0.04,0.05,-0.13,27.25
40187176,1817,1,192580,248159,-1.35,-3.17,10.49,0.02,0.03,-0.20,27.25
40227176,1809,1,192204,246991,-1.38,-3.11,10.36,0.01,-0.05,-0.13,27.25
40267196,1840,1,191892,246143,-1.95,-2.84,9.79,0.00,-0.02,-0.15,27.25
40307212,1814,1,191077,242441,-1.78,-3.38,9.95,-0.01,-0.02,-0.20,27.25
40347210,1841,1,190176,241550,-1.37,-3.08,10.15,0.02,-0.08,-0.23,27.25
40387196,1841,1,190241,241909,-1.62,-2.83,9.33,-0.02,-0.07,-0.23,27.25
40427210,1663,1,190658,243906,-1.55,-2.66,8.69,-0.02,-0.05,-0.37,27.25
40467213,1660,1,191464,246165,-0.96,-2.90,9.84,-0.01,-0.04,-0.41,27.25
40507210,1653,1,192135,246938,-1.18,-3.13,9.53,-0.05,-0.06,-0.28,27.25
40546213,1687,1,192205,247238,-1.76,-2.79,8.80,-0.05,-0.02,-0.23,27.25
40586210,1702,1,192556,247633,-1.39,-3.27,9.99,-0.05,0.06,-0.23,27.25
40626884,1767,1,192246,248153,-1.08,-3.30,9.51,-0.08,-0.01,-0.24,27.25
40667210,1753,1,193194,248552,-1.68,-2.72,9.07,-0.02,0.09,-0.22,27.25
40707197,1818,1,192796,248468,-1.54,-2.59,8.75,-0.07,0.06,-0.21,27.25
40747197,1805,1,193194,248181,-1.06,-3.34,10.76,-0.03,0.11,-0.21,27.25
40787197,1813,1,192056,246834,-1.60,-2.35,9.22,-0.09,-0.01,-0.10,27.25
40827210,1846,1,192924,248335,-2.05,-3.11,10.03,-0.01,0.12,-0.19,27.25
40867197,1863,1,192158,247426,-1.54,-2.95,9.93,-0.09,-0.02,-0.16,27.25
40907210,1869,1,192923,248620,-2.13,-3.63,10.49,-0.01,0.11,-0.21,27.25
40947199,1874,1,192318,246760,-2.17,-1.93,9.15,-0.04,-0.04,-0.20,27.25
40987210,1856,1,192016,245717,-2.12,-3.74,10.07,-0.05,0.07,-0.16,27.25
41027197,1878,1,191568,243504,-2.63,-3.11,10.92,-0.02,0.05,-0.24,27.25
41067196,1862,1,190386,242483,-2.30,-3.10,9.14,-0.05,-0.06,-0.10,27.25
41107213,1881,1,191381,244655,-2.39,-2.79,11.58,0.01,0.11,-0.24,27.25
41147176,1860,1,190923,243088,-2.42,-3.58,10.31,-0.07,-0.07,-0.24,27.25
41187213,1887,1,190926,243963,-2.30,-2.92,10.71,0.01,-0.03,-0.24,27.25
41227197,1904,1,190868,243168,-3.04,-3.13,9.18,-0.08,-0.08,-0.26,27.25
41267213,1849,1,190531,244054,-2.56,-2.63,9.09,-0.04,0.02,-0.36,27.25
41307196,1883,1,191440,244121,-2.06,-2.98,10.78,0.03,-0.01,-0.38,27.25
41347197,1862,1,190690,244728,-2.27,-2.15,8.12,-0.07,-0.13,-0.25,27.25
41387211,1849,1,191238,243348,-2.60,-2.22,9.91,0.03,0.07,-0.26,27.25
41427176,1869,1,190585,244553,-1.83,-2.79,8.89,-0.08,-0.13,-0.26,27.25
41467210,1834,1,191359,245679,-1.96,-2.24,9.61,0.04,-0.00,-0.42,27.25
41507196,1818,1,191669,246529,-2.21,-2.73,8.02,-0.06,-0.11,-0.29,27.25
41546210,1881,1,192213,247457,-1.53,-2.87,10.29,0.06,0.09,-0.33,27.25
41586177,1850,1,192491,248032,-2.51,-2.66,9.45,0.03,-0.02,-0.22,27.25
41626196,1837,1,192698,247978,-2.14,-2.12,9.95,0.04,0.03,-0.21,27.25
41666863,1811,1,192787,245279,-2.35,-3.37,11.11,0.03,0.08,-0.22,27.11
41705176,1871,1,191463,244890,-1.92,-3.17,10.11,-0.00,-0.08,-0.23,27.11
41745213,1905,1,192027,243962,-2.80,-2.44,10.29,0.06,0.06,-0.21,27.11
41785176,1872,1,190904,244212,-2.05,-2.49,9.33,-0.01,-0.07,-0.20,27.11
41825213,1862,1,191756,244395,-2.09,-2.72,11.04,0.06,0.09,-0.22,27.11
41865176,1872,1,191139,245050,-2.24,-2.04,9.07,0.01,-0.10,-0.22,27.11
41905196,1842,1,191973,245594,-1.94,-2.01,10.49,0.03,0.03,-0.23,27.11
41945176,1867,1,191810,246640,-1.90,-2.86,9.72,-0.06,-0.15,-0.25,27.11
41985213,1852,1,192587,248083,-1.77,-2.15,9.21,0.02,-0.03,-0.44,27.11
42025203,1849,1,193007,248836,-1.64,-1.78,9.43,-0.02,-0.06,-0.33,27.11
42065213,1874,1,193199,250357,-1.63,-2.18,8.77,-0.08,-0.11,-0.28,27.11
42105211,1865,1,194289,252007,-1.73,-0.92,9.92,-0.04,0.07,-0.40,27.11
42145197,1821,1,194379,252586,-1.62,-1.07,9.62,-0.06,-0.09,-0.23,27.11
42185210,1819,1,194793,252913,-1.63,-1.92,10.85,-0.05,0.13,-0.22,27.11
42225199,1756,1,194378,252303,-1.57,-1.65,10.30,-0.09,-0.04,-0.22,27.11
42265210,1774,1,194673,252688,-1.73,-1.44,10.34,-0.07,0.02,-0.21,27.11
42305197,1747,1,194603,252490,-2.01,-1.55,10.35,-0.06,0.05,-0.22,27.11
42345196,1733,1,194640,252240,-1.38,-1.78,10.67,-0.02,0.06,-0.19,27.11
42385197,1766,1,193976,250902,-1.67,-1.31,9.40,-0.06,-0.03,-0.17,27.11
42425210,1746,1,193782,250527,-1.70,-1.21,10.29,-0.03,0.06,-0.17,27.11
42465197,1765,1,193635,250268,-1.59,-1.55,10.21,-0.04,0.01,-0.16,27.11
42505197,1756,1,193281,250223,-1.47,-0.66,9.73,-0.03,-0.07,-0.18,27.11
42545213,1680,1,193788,250134,-1.83,-1.18,9.86,-0.05,0.03,-0.17,27.11
42586196,1775,1,193393,250414,-1.43,-1.84,9.67,-0.05,-0.08,-0.20,27.11
42626213,1778,1,194042,250956,-1.43,-0.88,10.08,-0.00,0.04,-0.18,27.11
42666883,1791,1,193850,251241,-1.68,-0.76,8.95,-0.03,-0.06,-0.15,27.15
42705213,1811,1,194208,251521,-1.28,-1.18,10.55,0.00,0.07,-0.15,27.15
42745176,1808,1,194027,251243,-1.38,-1.06,10.07,-0.01,-0.04,-0.14,27.15
42785213,1746,1,194116,251859,-1.02,0.04,9.98,0.01,-0.05,-0.14,27.15
42825176,1693,1,194396,252110,-1.36,-0.60,10.67,-0.02,0.01,-0.19,27.15
42865197,1702,1,194302,252167,-1.20,-0.83,10.02,0.01,-0.06,-0.22,27.15
42905196,1739,1,194596,252346,-1.12,-0.09,10.11,0.02,0.02,-0.19,27.15
42945176,1770,1,194148,252009,-1.02,-0.47,9.75,-0.01,-0.06,-0.11,27.15
42985210,1761,1,194132,251942,-0.80,-0.44,10.36,0.02,-0.01,-0.11,27.15
43025203,1834,1,194045,251938,-0.99,-0.04,9.67,0.02,-0.06,-0.09,27.15
43065193,1726,1,194084,251692,-1.05,0.08,9.71,0.03,-0.01,-0.08,27.15
43105176,1825,1,193834,250317,-0.71,-0.50,10.35,0.02,-0.02,-0.08,27.15
43145193,1866,1,193443,249388,-0.76,-0.00,9.54,0.03,-0.07,-0.07,27.15
43185196,1851,1,193348,249098,-1.04,0.26,9.43,0.03,-0.00,-0.06,27.15
43225173,1833,1,193177,248466,-0.63,-0.06,10.24,0.04,0.01,-0.06,27.15
43265176,1778,1,192990,249248,-0.60,0.20,9.72,0.04,-0.05,-0.05,27.15
43305173,1821,1,193216,249772,-0.59,0.96,9.56,0.03,-0.04,-0.05,27.15
43345176,1793,1,193249,250011,-0.44,0.54,10.16,0.04,-0.05,-0.05,27.15
43385217,1814,1,193452,250556,-0.37,0.22,10.60,0.04,-0.02,-0.04,27.15
43425176,1817,1,193151,249498,-0.49,1.26,9.57,0.04,-0.09,-0.04,27.15
43465176,1834,1,193348,249966,-0.49,0.68,10.28,0.04,0.01,-0.03,27.15
43505168,1878,1,193231,249817,-0.18,0.13,10.84,0.02,-0.03,-0.02,27.15
43545176,1867,1,193533,250560,-0.39,0.87,10.31,0.05,-0.03,-0.01,27.15
43585215,1830,1,193391,250110,-0.42,1.28,9.84,0.02,-0.05,-0.01,27.15
43625176,2055,1,193567,251066,-0.11,0.68,10.53,-0.01,-0.04,-0.01,27.15
43665196,2105,1,193521,250922,0.00,1.13,9.99,-0.00,-0.12,-0.01,27.15
43705860,1968,1,193704,251481,-0.20,1.54,9.36,0.02,-0.06,-0.06,27.11
43744176,1893,1,193719,251180,0.12,1.52,9.97,0.01,-0.02,-0.05,27.11
43784167,1831,1,193840,250911,0.16,0.28,9.99,0.02,-0.03,-0.11,27.11
43824168,1839,1,194005,251502,-0.26,1.01,9.11,-0.01,-0.02,-0.17,27.11
43864197,1767,1,195079,253834,-0.01,1.52,8.83,0.01,0.03,-0.24,27.11
43904168,1654,1,195688,253892,0.16,1.11,9.37,-0.04,-0.06,-0.17,27.11
43944176,1702,1,195950,255184,0.24,1.64,9.77,0.03,0.00,-0.28,27.11
43984144,1792,1,196471,255153,-0.02,2.44,9.40,-0.00,-0.05,-0.11,27.11
44024216,1879,1,196322,255139,0.51,1.90,10.67,0.00,0.01,-0.00,27.11
44064146,1840,1,195771,253838,0.29,1.92,10.22,-0.12,-0.08,0.03,27.11
44104167,1948,1,195538,253776,0.00,1.68,10.43,-0.08,0.02,0.03,27.11
44144145,1840,1,195508,253218,-0.30,2.01,9.58,-0.11,-0.11,0.03,27.11
44184176,1879,1,195830,254800,0.71,1.20,10.04,-0.06,0.02,-0.04,27.11
44224167,1888,1,196091,254453,0.06,1.74,10.21,-0.07,0.04,0.06,27.11
44264144,1924,1,196334,256008,0.22,2.02,9.63,-0.04,-0.03,0.04,27.11
44304167,2006,1,196616,255630,0.03,1.74,10.35,-0.11,0.06,0.06,27.11
44344145,1977,1,196561,256214,0.15,0.58,9.55,-0.06,-0.02,-0.00,27.11
44384176,1967,1,196761,255578,-0.21,1.88,10.08,-0.07,0.10,0.07,27.11
44424167,1916,1,196469,255530,0.09,1.40,9.42,-0.08,-0.04,0.07,27.11
44464168,1887,1,196216,253753,0.13,1.52,10.29,-0.09,0.06,0.08,27.11
44504145,1865,1,195433,253637,0.02,1.05,9.42,-0.09,-0.09,0.09,27.11
44544168,1839,1,195433,252747,-0.44,2.06,8.88,-0.08,0.06,0.11,27.11
44584167,1840,1,195561,252739,0.13,0.72,10.56,-0.02,0.07,0.11,27.11
44624145,1823,1,195554,252901,0.10,1.16,9.64,-0.11,0.01,0.10,27.11
44664145,1797,1,195731,251937,-0.60,1.07,8.91,-0.09,0.01,0.09,27.11
44704167,1794,1,194776,249589,0.02,0.45,8.20,-0.13,-0.10,0.05,27.11
44744850,1765,1,194418,252529,-1.13,1.10,6.78,-0.44,0.31,0.22,27.11
44783167,1776,1,198155,255415,0.77,0.44,10.50,0.51,-0.26,-0.05,27.11
44823167,1680,1,198533,259237,-0.99,2.73,8.48,0.04,0.02,0.19,27.11
44863144,1397,1,199364,257270,0.95,-0.81,17.08,0.16,0.19,-0.11,27.11
44903167,1309,1,197043,254496,-1.26,1.91,10.27,-0.06,-0.09,0.35,27.11
44943176,1283,1,197261,254879,-0.93,0.17,14.94,-0.09,-0.00,0.21,27.11
44983176,1456,1,195470,253707,-1.28,2.42,10.10,-0.42,-0.16,0.04,27.11
45023221,1610,1,197336,256176,1.19,0.70,10.41,-0.58,-0.23,-0.10,27.11
45063176,1621,1,197289,256250,0.22,2.30,9.12,0.20,-0.10,-0.43,27.11
45103168,1514,1,199147,257384,1.42,0.17,9.76,-0.22,-0.22,0.05,27.11
45143167,1728,1,197282,252698,-0.15,3.19,6.95,0.21,0.07,0.12,27.11
45183145,1991,1,198090,256105,0.73,0.98,10.09,-0.16,-0.05,0.36,27.11
45223210,2101,1,198090,254972,0.02,1.83,7.11,0.15,-0.04,0.23,27.11
45263144,2193,1,198406,256574,-0.67,1.08,7.98,0.02,-0.01,0.33,27.11
45303167,2160,1,199188,257472,0.17,0.26,9.74,0.03,0.11,0.18,27.11
45343125,2128,1,198779,257008,-0.49,1.13,8.84,-0.02,-0.07,0.27,27.11
45383173,2152,1,199271,257986,-0.07,0.79,9.85,-0.02,0.00,0.15,27.11
45423167,2064,1,198720,257416,-0.14,1.99,10.92,-0.06,-0.05,0.19,27.11
45463176,2019,1,199638,259314,0.25,-0.72,11.55,0.01,0.11,0.05,27.11
45503144,1998,1,199180,257908,-0.04,2.83,11.70,0.02,0.06,0.11,27.11
45543144,1952,1,198994,258240,0.40,-0.07,13.95,0.03,-0.04,0.18,27.11
45583167,1995,1,198431,257466,0.25,-0.51,12.74,-0.12,0.12,-0.07,27.11
45623176,2035,1,198142,256947,-0.37,1.70,10.33,-0.06,-0.39,0.12,27.11
45664176,2069,1,199293,259261,1.05,1.17,10.95,-0.10,0.04,-0.29,27.11
45704167,2031,1,200058,259477,-0.54,1.84,8.87,-0.19,-0.26,-0.13,27.11
45744884,2023,1,200736,260790,1.22,1.37,8.48,-0.14,-0.09,0.08,26.99
45783167,2029,1,201591,261131,0.26,2.52,7.47,-0.10,0.00,0.12,26.99
45823144,2061,1,201265,260151,0.62,1.45,9.07,0.13,0.25,0.34,26.99
45863125,2014,1,201239,260494,0.33,1.45,9.10,0.05,0.09,0.35,26.99
45903126,1921,1,200734,259985,0.57,2.26,9.47,-0.00,0.08,0.28,26.99
45943144,1914,1,200558,259267,-0.04,1.92,10.16,-0.03,0.01,0.32,26.99
45983168,1858,1,200155,259605,0.73,2.14,10.02,-0.05,-0.08,0.21,26.99
46023168,1821,1,200352,259559,0.49,1.61,10.70,-0.03,0.06,0.20,26.99
46063145,1789,1,200264,259735,0.37,1.87,10.51,-0.01,-0.01,0.21,26.99
46103167,1728,1,200567,260120,0.62,1.42,11.93,-0.02,0.02,0.21,26.99
46143144,1709,1,200657,260269,0.56,2.04,11.87,-0.07,-0.01,0.21,26.99
46183167,1735,1,200729,260158,0.13,1.80,11.33,-0.07,-0.07,0.21,26.99
46223168,1712,1,200695,260042,0.67,2.08,11.71,-0.10,-0.10,0.20,26.99
46263167,1717,1,200844,260241,0.71,1.33,10.75,-0.11,-0.12,0.02,26.99
46303168,1705,1,200728,259807,0.57,2.46,10.06,-0.10,-0.13,0.08,26.99
46343167,1743,1,200862,259916,0.70,2.21,9.66,-0.06,-0.16,0.08,26.99
46383168,1750,1,200932,260019,0.89,1.97,9.28,-0.10,-0.16,0.15,26.99
46423167,1777,1,201155,260083,0.94,1.53,8.85,-0.02,-0.15,0.22,26.99
46463168,1722,1,201104,259738,0.97,2.33,8.77,-0.04,-0.07,0.23,26.99
46503167,1727,1,200965,259376,0.76,2.07,9.36,-0.01,0.16,0.31,26.99
46543145,1730,1,200994,260094,0.75,2.27,9.34,0.02,-0.01,0.34,26.99
46583145,1761,1,201037,259956,0.57,2.11,10.15,0.10,0.05,0.39,26.99
46623126,1788,1,200991,260235,0.68,2.51,10.98,0.01,0.05,0.50,26.99
46663142,1763,1,200829,260145,0.71,2.11,11.36,0.02,-0.00,0.44,26.99
46703145,1778,1,200644,259878,0.36,2.32,11.04,-0.05,-0.02,0.32,26.99
46743167,1854,1,200478,259627,0.46,2.43,11.05,-0.08,-0.14,0.26,26.99
46783854,1851,1,200358,259079,0.49,2.43,10.67,-0.05,-0.14,0.13,27.15
46822167,1861,1,200056,258641,1.10,3.02,10.65,-0.03,-0.11,0.15,27.15
46862168,1881,1,199721,258141,0.79,3.13,10.28,-0.04,-0.12,0.24,27.15
46902167,1852,1,199554,258049,0.70,3.18,10.34,-0.02,-0.06,0.29,27.15
46942168,1815,1,199564,257324,0.87,2.43,10.07,-0.04,-0.04,0.29,27.15
46982167,1873,1,199001,256312,1.15,2.16,9.68,-0.05,-0.12,0.32,27.15
47022168,1874,1,198609,256014,0.61,2.59,9.61,-0.02,0.01,0.38,27.15
47062145,1883,1,198275,255960,1.17,3.13,9.67,0.01,-0.02,0.41,27.15
47102145,1865,1,198301,254726,0.56,2.33,10.20,0.00,0.02,0.35,27.15
47142125,1903,1,197912,253991,0.64,2.89,9.38,-0.03,-0.08,0.37,27.15
47182167,1875,1,198042,253929,0.59,2.99,9.68,-0.01,-0.07,0.34,27.15
47222167,1905,1,198656,256623,1.08,2.56,10.55,-0.03,-0.05,0.33,27.15
47262168,1874,1,199015,257111,0.79,2.95,9.67,-0.04,-0.10,0.34,27.15
47302167,1872,1,199393,257412,0.79,2.22,10.80,0.02,-0.00,0.27,27.15
47342144,1885,1,199751,258603,0.98,2.26,10.53,-0.08,-0.07,0.30,27.15
47382167,1859,1,200040,257897,0.70,2.43,11.41,0.01,0.00,0.35,27.15
47422125,1882,1,199431,257693,1.01,2.80,10.95,-0.04,-0.06,0.37,27.15
47462163,1874,1,199782,257124,0.87,2.08,11.65,-0.03,0.01,0.36,27.15
47502145,1862,1,198948,256312,0.99,1.95,10.96,-0.05,-0.10,0.39,27.15
47542167,1840,1,199691,258106,1.00,1.99,10.80,-0.03,-0.08,0.34,27.15
47582168,1862,1,199511,256366,0.96,2.08,10.72,-0.00,-0.08,0.35,27.15
47622167,1845,1,199064,257836,1.31,1.96,10.48,-0.04,-0.17,0.30,27.15
47662168,1856,1,199357,257168,1.00,2.26,9.93,-0.07,-0.11,0.31,27.15
47702167,1840,1,199377,257862,1.14,2.23,9.76,-0.03,-0.16,0.26,27.15
47742167,1854,1,200567,259652,1.04,1.95,9.59,-0.11,-0.17,0.17,27.15
47782167,1855,1,201011,259193,1.36,2.06,9.33,-0.09,-0.39,0.18,27.15
47822854,1834,1,201726,260161,1.84,2.01,8.75,-0.20,-0.21,0.23,27.15
47861167,1915,1,201917,259470,1.65,1.96,8.97,-0.10,-0.07,0.30,27.15
47901168,1933,1,201773,259122,1.72,1.58,8.70,-0.04,-0.06,0.43,27.15
47941167,1951,1,202366,261818,1.86,1.87,9.19,0.10,0.05,0.36,27.15
47981125,1735,1,201649,259494,0.81,2.92,10.76,0.24,0.31,0.50,27.15
48021136,1685,1,201937,262128,1.44,1.87,10.92,0.05,0.02,0.41,27.15
48061125,1683,1,202395,261148,1.14,2.19,10.74,-0.04,-0.01,0.39,27.15
48101163,1743,1,202636,262143,1.29,1.90,9.50,-0.12,-0.27,0.28,27.15
48141167,1820,1,203007,261197,1.64,2.61,11.31,0.06,0.12,0.31,27.15
48181125,1856,1,202615,261202,1.65,2.05,9.59,-0.05,-0.31,0.38,27.15
48221167,1680,1,202353,260289,1.24,2.58,10.27,0.03,0.03,0.37,27.15
48261125,1738,1,201564,260043,1.05,2.46,9.45,-0.08,-0.37,0.39,27.15
48301176,1812,1,202054,259583,1.47,1.79,9.61,0.00,0.17,0.38,27.15
48341125,1859,1,201328,259208,1.49,2.02,9.08,0.03,-0.09,0.45,27.15
48381145,1904,1,201629,259874,1.11,1.87,10.50,0.19,0.35,0.48,27.15
48421124,1904,1,201143,258600,1.13,1.77,9.63,0.09,0.02,0.54,27.15
48461125,1922,1,200761,257664,1.06,1.76,10.66,0.09,0.10,0.48,27.15
48501149,1936,1,200647,258008,0.73,2.01,9.90,0.04,-0.02,0.43,27.15
48541145,1935,1,201055,258798,1.00,2.15,10.03,0.01,-0.02,0.36,27.15
48581145,1938,1,202042,260685,1.06,1.81,10.43,0.03,-0.03,0.31,27.15
48621145,1911,1,202748,261468,0.96,2.57,10.27,0.04,-0.05,0.32,27.15
48661145,1906,1,202971,261936,1.13,2.30,10.46,0.01,-0.04,0.32,27.15
48701153,1916,1,203109,261470,0.98,2.20,10.64,0.00,-0.03,0.36,27.15
48741145,1920,1,202922,261456,1.26,2.28,10.43,0.03,-0.12,0.33,27.15
48781145,1909,1,202823,261609,1.30,2.94,10.53,0.00,-0.07,0.32,27.15
48821145,1909,1,202783,261398,1.20,2.00,10.12,0.00,-0.11,0.29,27.15
48861833,1873,1,202863,261692,1.26,2.54,9.69,-0.01,-0.23,0.25,27.09
48902167,1884,1,203020,261354,1.43,2.38,9.84,-0.02,-0.06,0.27,27.09
48942168,1902,1,202751,260266,1.34,2.52,8.71,-0.15,-0.37,0.42,27.09
48980167,1895,1,202329,259062,1.87,2.51,8.77,-0.13,-0.19,0.47,27.09
49020167,1904,1,201752,258163,1.15,2.76,7.81,-0.21,-0.04,0.52,27.09
49060167,1907,1,201611,257302,1.85,1.87,8.31,0.05,0.04,0.44,27.09
49100126,1895,1,200424,252439,1.27,2.23,8.41,0.09,0.13,0.48,27.09
49140123,1887,1,198918,250723,1.73,1.76,8.52,0.18,0.06,0.47,27.09
49180125,1860,1,198539,250346,1.58,1.40,9.50,0.14,0.45,0.41,27.09
49220123,1879,1,198173,251099,1.76,1.67,9.41,0.06,0.00,0.49,27.09
49260125,1863,1,199079,252318,1.18,2.11,10.52,0.06,0.20,0.46,27.09
49300123,1818,1,199540,254100,1.10,1.88,10.18,-0.01,0.05,0.46,27.09
49340145,1854,1,200164,255345,1.42,2.10,10.64,-0.05,0.03,0.34,27.09
49380144,1825,1,201056,258072,1.31,1.56,10.58,-0.08,0.00,0.32,27.09
49420144,1869,1,201800,258400,1.03,1.89,10.48,-0.06,0.02,0.33,27.09
49460144,1826,1,201933,259214,1.20,1.25,10.75,-0.05,0.08,0.34,27.09
49500145,1866,1,202249,259622,1.17,1.38,10.75,-0.02,0.05,0.37,27.09
49540145,1836,1,202029,259414,0.80,2.16,10.27,-0.04,0.01,0.42,27.09
49580145,1865,1,202210,259724,1.23,1.10,10.97,-0.05,0.01,0.32,27.09
49620145,1861,1,201886,258689,1.04,1.03,9.82,-0.06,-0.05,0.31,27.09
49660167,1887,1,202201,259263,0.73,1.94,9.88,-0.01,-0.01,0.24,27.09
49700167,1850,1,201981,258899,0.84,1.53,9.47,-0.07,-0.10,0.26,27.09
49740168,1872,1,202258,259366,1.36,1.42,9.90,-0.01,-0.02,0.19,27.09
49780167,1881,1,202091,258538,0.94,1.64,9.20,-0.07,-0.24,0.25,27.09
49820168,1898,1,202093,258741,1.24,1.92,9.79,-0.03,-0.12,0.26,27.09
49860167,1902,1,202335,259128,1.31,1.02,9.68,-0.06,-0.05,0.31,27.09
49900854,1910,1,202574,259808,1.50,1.69,9.38,0.02,0.04,0.29,27.31
49941125,1893,1,203103,260537,0.79,1.77,10.75,0.10,0.26,0.37,27.31
49981125,1877,1,203231,261425,1.28,1.48,10.54,0.04,-0.03,0.38,27.31
50021156,1887,1,203745,261809,1.12,1.50,11.36,0.05,0.08,0.34,27.31
50061126,1861,1,203838,262111,0.79,2.15,10.07,-0.03,-0.14,0.32,27.31
50101163,1856,1,203827,262110,1.74,2.09,11.47,0.00,-0.05,0.23,27.31
50141160,1847,1,203647,261638,1.51,1.96,10.91,-0.01,-0.13,0.23,27.31
50181168,1829,1,203366,261375,1.54,1.98,10.22,-0.00,-0.21,0.16,27.31
50221168,1843,1,203102,260712,1.44,2.19,10.49,-0.03,-0.27,0.26,27.31
50261168,1855,1,202823,260294,1.89,2.03,9.80,-0.09,-0.38,0.37,27.31
50301168,1860,1,202645,259830,1.80,2.39,9.28,-0.18,-0.33,0.40,27.31
50341168,1862,1,202460,259529,1.70,2.23,9.37,-0.28,-0.27,0.42,27.31
50379168,1909,1,202415,260072,1.97,1.92,8.85,-0.31,-0.29,0.38,27.31
50419168,1938,1,202753,260347,1.84,1.66,8.33,-0.16,0.03,0.33,27.31
50459145,1922,1,202739,259136,1.90,1.64,9.04,0.01,0.11,0.32,27.31
50499125,1939,1,202395,258571,1.88,1.96,9.41,0.14,0.04,0.35,27.31
50539125,1936,1,202585,259294,2.03,1.57,9.69,0.15,0.15,0.35,27.31
50579126,1895,1,203249,260989,1.94,1.92,9.87,0.12,0.16,0.37,27.31
50619126,1849,1,203335,261239,1.78,2.10,10.63,0.16,0.25,0.31,27.31
50659125,1808,1,203330,261441,1.52,2.02,10.77,0.05,0.20,0.30,27.31
50699125,1783,1,203169,261069,1.24,2.06,10.72,0.01,0.15,0.28,27.31
50739126,1735,1,203061,261056,1.56,2.31,10.25,-0.04,-0.16,0.24,27.31
50779167,1760,1,202876,260796,1.51,2.59,10.95,-0.06,-0.10,0.27,27.31
50819167,1804,1,202906,260992,2.02,1.77,10.23,-0.08,-0.24,0.30,27.31
50859168,1818,1,202764,260870,1.53,2.05,10.36,-0.08,-0.04,0.34,27.31
50899167,1838,1,202921,260922,1.70,2.10,10.18,-0.10,-0.11,0.37,27.31
50939854,1841,1,202865,260703,1.65,1.53,10.08,-0.11,-0.14,0.35,27.37
50980168,1868,1,202730,260743,1.84,1.52,9.43,-0.08,-0.18,0.34,27.37
51020168,1862,1,202756,260820,1.44,2.06,9.62,-0.05,0.04,0.34,27.37
51060145,1845,1,202774,260952,1.81,1.46,10.00,0.08,0.05,0.33,27.37
51100126,1844,1,202909,261000,1.61,1.36,9.62,0.01,0.21,0.34,27.37
51140125,1815,1,202802,260986,1.23,2.25,9.65,0.00,0.02,0.35,27.37
51180125,1849,1,202940,260185,1.56,1.22,10.25,0.05,0.21,0.37,27.37
51220125,1829,1,202485,259800,1.53,1.65,9.59,0.01,-0.03,0.34,27.37
51260144,1837,1,202779,260768,1.48,1.82,9.98,0.05,0.09,0.34,27.37
51300125,1822,1,202900,260966,1.06,2.18,10.22,0.02,-0.02,0.34,27.37
51340145,1831,1,202980,261080,1.63,1.16,10.52,0.08,0.12,0.31,27.37
51380124,1813,1,202915,261214,1.11,1.95,10.24,0.07,0.00,0.35,27.37
51420125,1839,1,203063,261382,1.20,2.09,10.90,0.05,0.01,0.34,27.37
51460123,1839,1,203220,261680,1.31,1.72,10.44,-0.02,-0.10,0.27,27.37
51500166,1845,1,203317,261664,1.56,1.78,10.43,0.03,-0.08,0.26,27.37
51540144,1840,1,203201,261588,1.32,2.39,10.26,-0.00,-0.13,0.31,27.37
51580167,1840,1,202909,261121,1.34,2.29,10.67,-0.01,-0.22,0.30,27.37
51620167,1871,1,202899,261154,1.61,1.76,9.96,-0.05,-0.40,0.25,27.37
51660168,1872,1,202942,260808,1.64,2.32,9.59,-0.07,-0.25,0.25,27.37
51700168,1901,1,202701,260126,2.03,2.17,9.35,-0.10,-0.30,0.35,27.37
51740167,1904,1,202360,258951,2.08,1.69,8.98,-0.08,-0.08,0.35,27.37
51780166,1907,1,201908,258398,2.09,1.45,8.64,0.02,-0.09,0.40,27.37
51818144,1963,1,201746,256151,1.90,1.58,8.74,0.11,0.16,0.38,27.37
51858125,1918,1,199923,252001,1.60,1.86,9.07,0.17,0.23,0.40,27.37
51898125,1895,1,199390,251873,1.81,1.19,8.79,0.10,0.33,0.38,27.37
51938125,1863,1,199950,253459,1.37,1.60,9.43,0.06,0.58,0.37,27.37
51978833,1783,1,200290,254543,1.61,1.22,10.10,0.03,0.11,0.43,27.31
52019125,1805,1,200620,255052,1.20,1.04,10.36,-0.01,0.12,0.41,27.31
52059144,1783,1,200917,256653,1.37,1.31,10.04,-0.01,0.06,0.36,27.31
52099145,1799,1,201305,256880,0.98,1.10,10.18,-0.06,0.05,0.32,27.31
52139144,1824,1,201460,257621,1.33,0.78,10.18,-0.06,-0.00,0.27,27.31
52179167,1823,1,201680,257860,1.11,1.47,9.86,-0.06,-0.03,0.26,27.31
52219168,1853,1,201760,258134,1.12,1.05,9.87,-0.08,-0.01,0.26,27.31
52259167,1854,1,201389,257157,1.69,0.90,9.78,-0.05,-0.04,0.26,27.31
52299167,1838,1,201286,257566,1.22,0.74,9.41,-0.07,-0.05,0.23,27.31
52339167,1828,1,201213,256596,1.32,0.85,9.36,-0.04,-0.03,0.25,27.31
52379168,1872,1,200731,256051,1.19,0.56,9.32,-0.06,-0.03,0.25,27.31
52419166,1850,1,200871,256020,1.03,0.56,9.06,-0.01,0.10,0.26,27.31
52459144,1851,1,201048,256949,1.03,0.40,9.49,0.02,0.11,0.32,27.31
52499125,1855,1,201220,257166,1.35,-0.14,10.04,-0.02,0.06,0.30,27.31
52539166,1855,1,200653,254581,1.12,0.38,9.66,0.02,0.02,0.27,27.31
52579125,1842,1,200729,256116,0.82,0.84,9.91,0.00,0.05,0.25,27.31
52619125,1831,1,201308,256792,1.24,0.60,10.88,0.02,0.05,0.23,27.31
52659123,1802,1,201890,257903,0.99,0.59,10.84,0.02,0.00,0.22,27.31
52699125,1830,1,202008,258038,0.91,0.90,10.41,-0.01,-0.00,0.13,27.31
52739163,1935,1,202538,259501,1.05,0.66,11.56,0.01,-0.04,-0.06,27.31
52779167,1970,1,202570,259714,0.72,0.34,10.39,-0.09,-0.11,-0.11,27.31
52819176,1936,1,202703,260460,1.32,1.04,9.88,-0.08,-0.15,-0.07,27.31
52859175,1962,1,203219,260601,0.88,2.03,10.75,0.01,0.01,0.14,27.31
52899126,1936,1,202942,260742,1.13,1.00,9.96,0.01,-0.03,0.22,27.31
52939144,1909,1,203098,260438,0.96,1.15,10.95,0.01,0.05,0.30,27.31
52979812,1889,1,202657,259836,0.79,1.54,9.73,-0.04,-0.05,0.33,27.23
53018167,1872,1,202461,259876,1.28,0.70,9.94,0.02,-0.03,0.20,27.23
53058144,1883,1,202460,260038,1.16,1.38,10.32,-0.03,-0.10,0.19,27.23
53098167,1838,1,202592,260449,0.90,1.47,9.25,-0.01,-0.11,0.08,27.23
53138167,1830,1,202589,260287,1.40,1.19,9.91,-0.01,-0.04,0.12,27.23
53178168,1853,1,202569,260316,1.30,0.57,9.24,-0.02,-0.11,0.16,27.23
53218166,1866,1,202616,260820,1.29,1.07,9.29,0.00,-0.02,0.22,27.23
53258144,1867,1,202897,260411,1.27,1.20,10.08,0.02,0.07,0.27,27.23
53298125,1863,1,202458,259173,1.34,0.14,10.01,0.03,-0.02,0.33,27.23
53338144,1823,1,202488,258144,1.30,1.39,10.71,-0.13,-0.14,0.33,27.23
53378167,1822,1,201746,258113,1.15,0.80,9.11,-0.15,-0.27,0.31,27.23
53418168,1842,1,202250,258930,1.25,0.51,9.76,0.01,-0.01,-0.04,27.23
53458166,1779,1,202456,258353,1.37,1.09,9.05,0.02,-0.24,0.04,27.23
53498144,1857,1,201722,255720,2.03,0.08,9.05,0.08,0.40,0.21,27.23
53538125,1863,1,200491,254805,1.39,0.73,9.83,0.00,0.10,0.46,27.23
53578125,1871,1,200292,254020,1.14,0.28,9.38,-0.07,0.01,0.43,27.23
53618144,1742,1,200052,254126,1.03,0.41,9.00,-0.08,-0.01,0.24,27.23
53658167,1722,1,200223,254985,1.08,-0.21,9.46,-0.07,-0.02,0.13,27.23
53698176,1727,1,200717,256090,1.40,-0.03,9.57,-0.02,-0.01,0.03,27.23
53738175,1753,1,201125,257440,1.32,1.00,9.48,0.00,0.03,0.13,27.23
53778125,1799,1,201317,257579,1.18,0.24,10.19,0.01,0.11,0.16,27.23
53818125,1821,1,201249,257764,1.10,-0.21,10.14,-0.02,0.06,0.23,27.23
53858163,1808,1,201232,257566,0.85,0.50,10.19,-0.04,0.02,0.28,27.23
53898145,1869,1,201120,257996,0.75,0.35,10.46,-0.06,-0.03,0.26,27.23
53938167,1872,1,201497,258619,0.93,-0.45,10.64,-0.06,0.01,0.14,27.23
53978167,1882,1,201356,258431,0.98,0.52,9.99,-0.03,-0.04,0.14,27.23
54018853,1893,1,201448,257658,0.76,0.41,10.78,-0.04,0.02,0.14,27.15
54057144,1907,1,200559,255821,1.25,-0.22,10.46,-0.05,-0.02,0.14,27.15
54097176,1873,1,200568,256135,1.02,0.09,10.83,0.01,-0.00,0.14,27.15
54137145,1840,1,200534,256812,0.91,0.65,9.63,-0.05,-0.04,0.14,27.15
54177166,1870,1,200916,255962,1.03,0.10,10.28,-0.03,-0.01,0.13,27.15
54217167,1859,1,200928,256337,0.87,-0.37,9.91,-0.06,-0.09,0.11,27.15
54257176,1862,1,200643,255758,0.99,0.86,9.13,-0.04,-0.06,0.10,27.15
54297167,1859,1,200785,256380,1.26,0.48,9.84,0.03,0.02,0.11,27.15
54337125,1861,1,200608,256103,0.92,-0.41,9.39,-0.04,-0.01,0.13,27.15
54377176,1831,1,200583,256593,1.03,0.14,9.08,-0.01,-0.01,0.14,27.15
54417166,1826,1,201147,257591,1.05,0.22,9.85,-0.02,0.01,0.14,27.15
54457144,1889,1,201046,257184,1.07,-0.52,9.68,-0.05,-0.04,0.12,27.15
54497176,1905,1,201144,257408,1.08,-0.36,9.67,-0.03,-0.01,0.12,27.15
54537176,1842,1,201046,256687,0.84,0.31,9.58,-0.01,0.03,0.12,27.15
54577144,1851,1,200798,257059,1.26,-0.32,9.95,-0.02,0.02,0.10,27.15
54617167,1792,1,201022,257173,0.89,-0.38,10.03,-0.01,0.06,0.11,27.15
54657167,1904,1,200768,257673,1.12,0.41,9.53,-0.01,-0.02,0.17,27.15
54697167,2129,1,200740,255278,0.85,0.22,10.23,-0.04,0.08,0.21,27.15
54737144,2074,1,199268,253692,0.92,-0.99,9.76,-0.11,-0.12,0.18,27.15
54777175,2135,1,199704,254005,0.96,0.18,9.61,-0.04,-0.00,0.08,27.15
54817163,1878,1,199796,254754,0.96,0.25,10.07,0.01,0.04,0.11,27.15
54857125,1679,1,199476,253658,1.05,-0.39,10.41,-0.00,0.02,0.17,27.15
54897162,1798,1,199109,253274,0.87,-0.01,9.85,-0.04,-0.03,0.11,27.15
54937175,1936,1,199425,254891,0.82,0.35,9.91,-0.07,-0.08,0.08,27.15
54977163,1936,1,200002,255639,1.03,-0.29,9.83,-0.05,-0.00,-0.02,27.15
55017197,1983,1,199968,255441,1.17,-0.07,9.94,-0.02,-0.04,0.05,27.15
55057860,1988,1,199532,254351,0.94,0.68,9.32,-0.04,-0.01,0.12,27.31
55096167,2007,1,199574,255107,1.14,-0.13,9.86,-0.03,0.05,0.14,27.31
55136166,2032,1,199732,254858,0.95,-0.78,9.97,-0.03,-0.01,0.11,27.31
55176175,1997,1,199839,256095,0.99,0.12,9.61,-0.03,-0.02,0.10,27.31
55216164,1980,1,199697,255529,0.78,0.31,9.66,-0.04,0.01,0.10,27.31
55256158,1935,1,200073,257150,1.10,-0.71,10.32,-0.03,0.03,0.07,27.31
55296166,1899,1,200102,256108,0.66,0.18,9.50,-0.04,-0.02,0.08,27.31
55336167,1901,1,200165,257061,1.07,0.29,9.65,-0.03,-0.02,0.07,27.31
55376163,1872,1,200214,256650,0.95,-0.03,10.39,-0.06,-0.01,0.07,27.31
55416176,1763,1,199977,256227,0.89,-0.46,8.88,-0.05,-0.08,0.03,27.31
55456173,1674,1,199856,254695,1.06,0.70,9.86,-0.00,0.06,0.05,27.31
55496146,1808,1,199289,253716,0.76,-0.41,9.54,-0.04,-0.02,0.08,27.31
55536173,1622,1,198955,253467,0.91,-0.34,9.49,-0.02,0.01,0.08,27.31
55576167,1686,1,199328,255190,0.96,0.42,9.90,-0.01,0.00,0.08,27.31
55616144,1712,1,200216,256604,0.69,-0.07,10.16,-0.02,0.02,0.08,27.31
55656167,1745,1,200369,256555,1.15,0.05,10.13,-0.03,0.00,0.07,27.31
55697144,1923,1,201038,257944,0.77,0.13,11.04,-0.01,0.03,0.08,27.31
55737145,2091,1,200901,258124,0.66,0.42,9.75,-0.06,-0.02,0.07,27.31
55777163,2110,1,201223,258168,1.09,-0.52,10.96,-0.01,0.03,0.07,27.31
55817167,2149,1,201388,258892,0.82,-0.20,10.57,-0.05,-0.03,0.08,27.31
55857173,2107,1,201282,258494,0.57,0.66,10.03,-0.01,-0.02,0.09,27.31
55897167,2042,1,201532,259204,1.00,-0.33,11.10,-0.04,-0.00,0.08,27.31
55937173,2012,1,201484,258960,0.74,-0.16,10.26,-0.06,-0.04,0.08,27.31
55977176,1937,1,201308,258808,1.01,0.35,10.01,-0.01,-0.05,0.08,27.31
56017164,1949,1,201143,258261,0.89,0.07,10.54,-0.04,-0.00,0.08,27.31
56057167,1953,1,200969,258476,1.02,-0.39,9.72,-0.03,-0.08,0.07,27.31
56097862,1936,1,200845,257951,0.79,0.38,9.59,-0.03,-0.05,0.08,27.35
56136167,1951,1,200900,258138,1.09,0.38,9.38,-0.12,-0.13,0.05,27.35
56176166,1905,1,201061,256625,0.95,-0.29,9.49,-0.03,-0.02,0.04,27.35
56216175,1915,1,199898,255189,1.33,0.58,9.10,0.04,-0.06,0.11,27.35
56256144,1879,1,200021,255268,1.04,0.66,10.21,0.02,0.03,0.16,27.35
56296125,1881,1,199570,255295,0.93,0.27,9.59,-0.09,-0.10,0.07,27.35
56336162,1860,1,200263,255701,1.22,-0.43,9.55,-0.03,-0.04,-0.04,27.35
56376196,1834,1,200607,257076,1.19,0.40,9.62,0.00,-0.05,-0.08,27.35
56416163,1853,1,200900,257144,1.06,0.37,9.54,-0.06,-0.01,0.04,27.35
56456167,1849,1,201023,257608,1.30,-0.21,9.69,-0.02,0.00,0.04,27.35
56496163,1873,1,201355,258451,1.30,0.59,10.13,-0.01,0.00,0.08,27.35
56536144,1835,1,201158,258162,0.96,0.59,9.51,-0.05,-0.01,0.13,27.35
56576163,1836,1,201182,258335,1.32,-0.05,10.43,-0.00,0.06,0.12,27.35
56616168,1805,1,201200,258269,0.93,-0.53,10.07,-0.03,0.01,0.15,27.35
56656166,1861,1,201100,258384,0.95,0.82,9.62,-0.02,0.01,0.11,27.35
56695144,1909,1,201152,258031,1.04,-0.12,10.25,-0.03,0.05,0.11,27.35
56735166,1906,1,200895,258310,0.98,-0.23,9.59,-0.05,-0.04,0.08,27.35
56775175,1890,1,201214,258724,0.91,0.90,9.78,-0.01,0.01,0.08,27.35
56815144,1905,1,201169,258433,1.04,0.37,10.19,-0.04,-0.01,0.08,27.35
56855167,1924,1,200943,256844,0.99,-0.32,10.58,-0.04,0.05,0.10,27.35
56895167,1918,1,200597,256799,0.80,-0.21,9.58,-0.05,-0.01,0.16,27.35
56935175,1872,1,200847,257613,0.94,0.66,10.47,-0.01,0.03,0.11,27.35
56975144,1840,1,201276,257949,0.84,-0.19,11.20,-0.02,-0.00,0.14,27.35
57015176,1856,1,200899,257725,0.80,0.09,9.93,-0.06,-0.06,0.10,27.35
57055163,1877,1,201039,258122,0.95,0.82,10.55,-0.04,-0.03,0.08,27.35
57095167,1883,1,200939,257934,0.93,0.21,10.18,-0.05,-0.09,0.06,27.35
57135853,1885,1,200854,257869,1.05,0.04,10.02,-0.04,-0.05,0.04,27.21
57176167,1872,1,201331,258272,0.88,0.43,10.08,-0.03,0.00,0.08,27.21
57216144,1875,1,201062,257659,0.96,0.37,9.69,-0.06,-0.12,0.08,27.21
57256167,1888,1,201145,258138,0.91,-0.50,9.93,-0.03,-0.02,-0.02,27.21
57296193,1904,1,201188,258205,1.03,0.31,9.35,-0.07,-0.09,0.01,27.21
57336167,1919,1,201187,258187,1.16,0.80,9.12,0.00,-0.09,0.02,27.21
57376144,1910,1,201118,258381,1.10,0.04,9.42,-0.05,-0.03,0.04,27.21
57416167,1915,1,201511,259356,1.16,0.29,9.13,-0.02,-0.05,-0.02,27.21
57456176,1949,1,201680,259837,1.33,0.85,9.53,0.02,-0.05,0.04,27.21
57496144,1945,1,202009,259943,0.92,0.50,9.85,-0.01,0.07,0.10,27.21
57536144,1954,1,201665,258137,1.05,0.03,9.36,-0.01,0.01,0.12,27.21
57576144,1955,1,201940,259641,1.27,0.13,10.70,0.04,0.08,0.10,27.21
57616125,1943,1,202065,259401,0.71,0.92,10.05,-0.02,-0.03,0.11,27.21
57656166,1871,1,201884,259911,1.35,0.06,10.50,-0.03,-0.03,0.08,27.21
57696164,1904,1,202140,260505,0.97,0.40,10.19,-0.04,-0.03,0.00,27.21
57736166,1837,1,202361,260825,1.13,1.34,9.94,-0.04,-0.11,0.01,27.21
57774167,1922,1,202431,260723,0.84,0.65,9.58,-0.07,0.02,-0.04,27.21
57814167,1865,1,202351,260549,1.59,0.33,10.23,-0.03,-0.05,-0.03,27.21
57854176,1986,1,202182,259496,1.08,0.49,9.18,0.04,0.05,0.19,27.21
57894125,2035,1,201844,259855,1.04,1.14,10.17,0.06,0.14,0.29,27.21
57934125,1991,1,201744,258701,0.80,0.74,10.28,-0.06,0.02,0.32,27.21
57974145,1997,1,201347,259346,1.13,0.50,9.87,-0.07,-0.13,0.10,27.21
58014167,1985,1,201989,260389,0.79,0.78,9.32,-0.10,-0.08,-0.13,27.21
58054176,1968,1,202456,260991,1.37,0.95,9.20,-0.08,-0.17,-0.07,27.21
58094176,1921,1,202627,260749,1.75,0.55,9.55,0.01,0.06,0.09,27.21
58134125,1895,1,202327,260589,1.36,0.61,10.07,0.02,0.12,0.31,27.21
58174810,1842,1,202311,260640,0.95,0.99,10.42,-0.02,0.08,0.32,27.23
58215144,1874,1,202294,260271,1.10,0.01,10.91,-0.13,-0.10,0.10,27.23
58255167,1826,1,202351,259752,1.12,0.50,10.47,-0.05,0.02,-0.07,27.23
58295167,1840,1,201708,259522,1.03,1.30,9.76,-0.05,-0.16,0.02,27.23
58335216,1872,1,202132,260176,1.38,0.84,11.14,-0.04,0.14,0.11,27.23
58375144,1854,1,201656,259261,1.10,0.94,10.22,-0.05,-0.05,0.19,27.23
58415167,1853,1,202022,260353,1.14,0.74,10.64,-0.02,0.08,0.14,27.23
58455144,1870,1,201971,259972,1.08,0.61,10.59,-0.11,-0.03,0.17,27.23
58495167,1840,1,201479,259092,0.97,0.32,10.10,-0.05,-0.03,0.21,27.23
58535201,1840,1,201520,259842,0.94,0.56,10.07,-0.04,0.04,0.14,27.23
58575144,1868,1,201620,258902,0.98,0.68,9.71,-0.09,-0.02,0.19,27.23
58615167,1895,1,201217,258798,1.09,0.29,9.71,-0.04,-0.08,0.14,27.23
58655167,1875,1,201167,258381,1.02,0.46,9.54,-0.08,-0.01,0.11,27.23
58695167,1933,1,201192,258660,0.90,0.36,8.80,-0.07,-0.09,0.08,27.23
58735163,1932,1,201321,258960,1.35,-0.12,9.55,-0.02,-0.02,0.03,27.23
58775175,1936,1,201310,258619,0.90,0.11,9.25,-0.04,-0.01,0.11,27.23
58815163,1920,1,200923,258493,1.22,0.90,9.37,-0.01,-0.05,0.12,27.23
58855167,1907,1,201187,259087,0.96,-0.17,9.90,-0.04,0.04,0.11,27.23
58895164,1904,1,200905,257661,1.23,0.10,9.44,-0.03,-0.02,0.12,27.23
58935167,1895,1,200565,256407,1.40,0.52,10.05,0.01,0.01,0.15,27.23
58975125,1892,1,200160,255675,0.99,-0.11,9.89,-0.04,0.01,0.17,27.23
59015167,1905,1,200203,256703,1.24,-0.24,9.87,-0.00,0.00,0.10,27.23
59055163,1868,1,200585,257252,1.00,0.33,10.55,0.03,0.03,0.12,27.23
59095125,1853,1,200399,257468,0.57,0.83,9.61,-0.00,-0.01,0.13,27.23
59135163,1872,1,200978,258353,1.10,-0.26,11.37,0.02,0.10,0.13,27.23
59173833,1878,1,200890,258745,0.91,0.14,10.36,-0.01,-0.06,0.15,27.15
59214167,1874,1,200738,257755,0.68,1.13,10.30,0.01,0.01,0.14,27.15
59254125,1872,1,200773,258131,0.79,-0.12,10.57,-0.01,-0.00,0.11,27.15
59294173,1895,1,200737,258197,1.14,0.04,10.00,-0.01,-0.08,0.09,27.15
59334167,1887,1,200935,258111,0.64,0.70,10.13,0.03,0.01,0.11,27.15
59374125,1897,1,200801,258294,0.99,0.25,10.02,0.00,-0.05,0.11,27.15
59414144,1899,1,201076,258765,1.05,-0.08,10.41,-0.01,-0.05,0.10,27.15
59454176,1892,1,201072,259319,0.96,0.84,9.29,-0.05,-0.15,0.10,27.15
59494168,1884,1,201144,258414,0.78,0.69,9.75,-0.01,-0.03,0.10,27.15
59534163,1863,1,201005,258505,1.29,-0.18,9.83,-0.01,-0.08,0.08,27.15
59574175,1857,1,200594,255079,1.07,0.29,9.57,0.01,-0.03,0.10,27.15
59614144,1840,1,199429,253635,1.07,0.54,9.58,0.02,-0.04,0.11,27.15
59654144,1877,1,199234,253850,1.12,0.15,9.81,-0.02,-0.04,0.10,27.15
59694166,1869,1,199517,254093,0.92,0.15,9.84,-0.05,-0.06,0.09,27.15
59734167,1872,1,199994,255969,1.39,0.00,9.17,-0.05,-0.07,0.08,27.15
59774163,1870,1,199935,254409,1.13,-0.13,9.91,0.02,0.07,0.12,27.15
59814144,1872,1,198981,254022,1.23,-0.16,9.32,-0.01,-0.04,0.21,27.15
59854176,1876,1,199232,254784,0.85,0.54,9.18,-0.02,0.02,0.08,27.15
59894145,1873,1,199678,256176,1.22,0.36,9.70,-0.06,-0.03,0.03,27.15
59934164,1891,1,200269,256966,1.20,-0.51,9.86,-0.01,0.05,0.02,27.15
59974168,1907,1,199989,255525,0.99,0.42,9.71,-0.02,0.04,0.08,27.15
60014144,1899,1,200049,257385,0.81,0.15,9.46,-0.06,0.00,0.11,27.15
60054144,1901,1,200532,256961,0.83,0.05,10.68,-0.03,0.06,0.11,27.15
60094144,1891,1,200300,257611,0.86,-0.23,10.40,-0.04,0.01,0.19,27.15
60134168,1891,1,200471,257295,0.85,1.06,10.56,-0.04,0.06,0.16,27.15
60174156,1904,1,200326,257548,0.77,-0.51,10.81,-0.06,-0.03,0.18,27.15
60214862,1917,1,200477,257616,0.92,0.12,11.01,-0.04,-0.00,0.07,27.23
60253163,1929,1,200175,256182,0.85,0.56,10.52,-0.03,-0.03,0.08,27.23
60293167,1925,1,200048,256169,0.78,0.12,10.66,-0.05,-0.01,0.11,27.23
60333167,1904,1,199434,254788,1.02,-0.48,10.64,-0.08,-0.04,0.15,27.23
60373176,1872,1,199434,255136,0.77,-0.32,10.27,-0.02,-0.02,0.13,27.23
60413176,1839,1,198507,252227,0.84,0.61,9.72,-0.05,-0.06,0.13,27.23
60453167,1840,1,198332,253496,1.09,-0.52,10.37,-0.03,-0.00,0.05,27.23
60493176,1818,1,198139,251900,0.98,0.01,9.21,-0.07,-0.11,0.04,27.23
60533167,1830,1,197705,251141,0.86,0.07,9.24,-0.01,-0.05,-0.04,27.23
60573173,1854,1,197641,251513,0.68,-0.15,10.40,-0.04,0.06,-0.02,27.23
60613175,1867,1,197355,250911,1.95,-0.79,8.64,-0.07,-0.05,0.02,27.23
60653176,1909,1,197421,251793,0.89,0.07,8.20,-0.10,-0.15,0.03,27.23
60693167,1905,1,197764,251090,0.46,0.61,8.39,-0.06,0.01,0.02,27.23
60733144,1903,1,197765,251862,1.60,-0.57,8.80,-0.04,-0.02,-0.09,27.23
60773196,1905,1,198099,252413,1.16,0.02,8.75,-0.05,-0.05,-0.05,27.23
60813173,1904,1,199134,255205,1.37,0.25,8.99,0.01,0.15,-0.06,27.23
60853144,1923,1,199790,256017,1.14,0.29,9.68,-0.04,0.06,0.08,27.23
60893144,1956,1,200030,256636,0.99,-0.51,10.00,-0.01,0.10,0.10,27.23
60933167,1919,1,200541,258066,0.97,0.81,10.55,-0.02,0.09,0.15,27.23
60973144,1903,1,200815,257475,0.68,-0.27,11.78,-0.03,0.11,0.24,27.23
61013167,1904,1,199626,256309,1.07,0.10,10.50,-0.11,-0.02,0.26,27.23
61053166,1872,1,199361,256066,0.70,0.02,11.72,-0.03,0.14,0.13,27.23
61093144,1855,1,199464,256922,0.82,0.72,10.96,-0.06,0.01,0.07,27.23
61133144,1825,1,199498,257013,0.44,-0.34,11.99,-0.04,0.02,0.08,27.23
61173167,1853,1,199581,256639,0.89,-0.34,13.90,-0.05,0.04,0.05,27.23
61213164,1885,1,198316,253034,-0.03,0.25,10.43,-0.09,-0.14,0.31,27.23
61253862,1902,1,197881,254015,0.15,-1.70,11.25,-0.13,0.02,0.03,27.35
61292167,1845,1,197207,249669,0.38,-0.13,9.31,-0.20,-0.09,-0.02,27.35
61332196,1884,1,196329,252003,1.18,-1.35,7.32,-0.11,-0.46,-0.06,27.35
61372196,1895,1,197071,250509,1.13,0.86,8.53,-0.07,0.06,-0.04,27.35
61412167,1874,1,197633,254375,1.58,-1.98,7.79,-0.09,-0.12,-0.04,27.35
61452196,1955,1,198440,253031,0.68,0.21,8.61,-0.01,-0.02,0.07,27.35
61492167,1975,1,198201,254360,0.59,-0.29,8.50,-0.10,-0.13,0.10,27.35
61532173,2004,1,198422,252970,1.45,-0.45,9.51,-0.09,0.05,0.04,27.35
61572167,1919,1,197916,253579,0.57,-1.09,7.90,-0.08,-0.31,-0.07,27.35
61612245,1919,1,198508,253650,1.73,0.34,9.27,0.01,0.11,0.00,27.35
61652125,1866,1,198235,251087,0.59,-0.55,10.07,-0.01,-0.02,0.06,27.35
