timestamp_us,ecg,leads,ir,red,accX,accY,accZ,gyroX,gyroY,gyroZ,temp
2420494,1735,1,205604,247384,0.00,0.00,0.00,0.00,0.00,0.00,0.00
2450979,1664,1,206660,248269,0.49,-1.78,10.48,-0.04,0.01,0.00,29.57
2491173,1651,1,205381,245763,0.76,-0.26,8.89,0.01,-0.10,0.00,29.57
2531166,1725,1,205059,245943,0.57,-1.71,9.89,-0.03,-0.07,0.00,29.57
2571179,1667,1,206434,246422,1.02,-0.63,7.01,-0.02,0.15,0.40,29.57
2611166,1859,1,206096,245499,0.46,-1.71,9.62,-0.04,0.02,0.01,29.57
2651170,1840,1,206148,245476,0.33,-0.67,7.96,0.02,0.03,0.01,29.57
2691148,1929,1,206277,245775,0.33,-1.88,9.06,-0.02,0.02,0.00,29.57
2731170,2061,1,206255,247181,0.48,-0.72,8.47,0.01,-0.01,0.00,29.57
2771166,1996,1,207068,248406,0.55,-1.78,9.75,-0.01,0.00,-0.00,29.57
2811179,2029,1,206627,247884,0.94,-0.51,7.58,0.01,-0.07,-0.00,29.57
2851177,1913,1,207102,248671,0.84,-1.77,10.58,-0.02,0.02,-0.00,29.57
2891179,2035,1,206804,248254,0.34,-0.97,8.56,0.01,0.04,-0.00,29.57
2931167,1945,1,207741,250612,0.32,-1.91,11.24,-0.02,0.04,0.00,29.57
2971170,2018,1,207982,252099,0.44,-0.19,9.19,-0.00,0.02,0.00,29.57
3011166,1982,1,208623,252539,0.16,-1.68,11.66,-0.04,-0.01,-0.00,29.57
3051200,1990,1,207797,251475,0.78,-0.25,9.87,-0.03,-0.03,-0.01,29.57
3091197,2023,1,207955,253373,0.31,-1.47,11.43,-0.08,0.02,-0.00,29.57
3131179,1958,1,207650,251465,0.77,-0.84,8.90,-0.06,0.00,-0.01,29.57
3171240,1903,1,207567,252455,0.46,-1.66,12.13,-0.09,-0.01,-0.00,29.57
3211199,1903,1,207421,251011,0.24,-0.81,9.06,-0.09,0.02,-0.01,29.57
3249177,1870,1,207570,252385,-0.15,-1.97,11.51,-0.08,0.03,0.00,29.57
3289179,1840,1,207728,251876,0.01,-0.99,9.73,-0.07,0.03,-0.00,29.57
3329177,1887,1,207736,253641,0.48,-1.59,11.00,-0.07,-0.01,-0.01,29.57
3369200,1936,1,208001,252932,0.33,-1.23,9.04,-0.07,-0.01,-0.00,29.57
3409197,1968,1,208161,253757,0.51,-1.65,10.39,-0.07,-0.00,-0.01,29.57
3449200,2032,1,207144,249590,0.69,-1.16,8.87,-0.05,-0.02,-0.01,29.57
3489886,1921,1,206249,248620,-0.37,-1.99,9.66,-0.06,-0.01,-0.00,29.55
3530217,1921,1,205475,246602,0.67,-1.34,7.19,-0.03,-0.01,-0.01,29.55
3570200,1963,1,204991,245266,-0.18,-1.53,8.97,-0.04,0.04,-0.00,29.55
3610199,1979,1,204280,242123,0.89,-1.27,6.53,-0.01,0.03,-0.01,29.55
3650179,1917,1,204203,238391,0.11,-1.25,9.15,-0.00,0.07,-0.00,29.55
3690179,1929,1,202663,235848,0.35,-1.81,8.14,0.01,0.02,-0.01,29.55
3730167,2005,1,202898,237807,0.30,-0.79,9.51,0.02,-0.00,-0.00,29.55
3770179,1923,1,203871,241897,-0.52,-1.87,9.45,0.04,0.03,0.00,29.55
3810167,1920,1,203804,243743,0.08,-1.37,9.92,0.02,-0.02,-0.00,29.55
3850179,1921,1,204577,246114,0.11,-0.94,10.67,0.04,0.03,-0.00,29.55
3890167,1920,1,205455,249153,-0.02,-1.23,9.52,0.02,0.02,-0.01,29.55
3930179,1926,1,206886,251842,-0.03,-1.63,11.82,-0.00,0.03,-0.01,29.55
3970197,1925,1,207526,253457,0.34,-0.63,10.41,-0.01,-0.04,-0.01,29.55
4010200,1889,1,207560,253221,0.38,-1.45,12.31,-0.03,-0.04,-0.01,29.55
4050200,1830,1,207404,253067,0.04,-1.08,11.27,-0.04,-0.06,-0.01,29.55
4090200,1803,1,207294,252790,-0.29,-1.73,12.06,-0.05,-0.04,-0.01,29.55
4130213,1811,1,207054,252254,0.27,-0.86,11.39,-0.04,-0.06,-0.01,29.55
4170200,1831,1,206310,248012,-0.04,-1.70,10.49,-0.06,-0.07,-0.01,29.55
4210237,1806,1,204211,244970,0.70,-0.89,8.19,-0.07,-0.12,-0.01,29.55
4250200,1824,1,204159,244757,-0.07,-1.84,9.88,-0.07,-0.05,-0.01,29.55
4290213,1877,1,203949,244495,1.38,-0.47,7.53,-0.04,-0.10,-0.01,29.55
4330200,1878,1,204048,244452,-0.03,-2.02,9.62,-0.05,0.02,-0.01,29.55
4370196,1892,1,203914,244313,0.41,-1.18,7.64,-0.02,-0.02,-0.01,29.55
4410199,1863,1,204158,244694,-0.04,-1.88,9.69,-0.01,0.00,0.00,29.55
4450177,1883,1,203942,244685,0.73,-0.98,7.67,0.00,-0.01,-0.01,29.55
4490866,1901,1,204209,245200,0.70,-1.81,8.77,0.00,-0.03,-0.00,29.71
4529177,1955,1,204070,245092,1.24,-0.08,6.55,0.02,-0.08,-0.01,29.71
4569180,1936,1,204550,246245,0.24,-2.08,10.18,-0.01,0.01,0.00,29.71
4609166,1968,1,204685,246652,0.96,-0.25,8.23,0.04,-0.00,-0.00,29.71
4649179,1899,1,205330,248056,-0.04,-1.81,11.23,0.00,0.02,0.00,29.71
4689166,1897,1,205529,248251,0.32,-0.84,9.44,0.04,0.03,0.00,29.71
4729149,1874,1,206047,249823,-0.03,-1.51,12.49,-0.00,-0.03,0.00,29.71
4769199,1963,1,205888,249461,0.97,-0.52,9.17,0.02,-0.00,-0.00,29.71
4809219,1941,1,206006,247989,0.07,-1.38,12.47,-0.03,-0.05,0.00,29.71
4849177,1957,1,204761,246020,1.02,-0.40,9.55,-0.01,-0.02,-0.00,29.71
4889199,1915,1,204856,246856,0.04,-1.89,11.88,-0.04,-0.04,0.00,29.71
4929177,1921,1,204858,246365,0.76,-0.67,9.73,-0.01,-0.04,-0.01,29.71
4969200,1904,1,205140,246767,0.22,-1.16,12.77,-0.05,-0.04,0.01,29.71
5009230,1899,1,204224,245324,0.89,-0.80,7.49,-0.03,-0.10,-0.01,29.71
5048200,1851,1,204267,245803,0.72,-1.30,11.23,-0.06,-0.04,0.00,29.71
5088177,1952,1,203986,245002,1.26,-0.30,7.45,-0.03,-0.04,-0.01,29.71
5128200,1980,1,204021,245674,1.07,-0.93,9.99,-0.06,-0.04,0.00,29.71
5168177,1981,1,204182,245910,0.84,-1.19,7.60,-0.04,-0.01,0.01,29.71
5208179,1954,1,204852,248053,0.82,-0.97,9.72,-0.04,-0.03,0.00,29.71
5248177,1915,1,205043,247017,1.07,-0.69,9.04,-0.03,-0.03,0.00,29.71
5288179,1913,1,204861,247742,0.76,-0.66,10.21,-0.03,-0.01,0.01,29.71
5328180,1941,1,205117,247822,1.14,-1.28,8.24,-0.02,-0.00,0.00,29.71
5368179,1926,1,205693,250091,1.04,-0.71,9.83,-0.04,0.01,0.00,29.71
5408166,1933,1,206517,250005,0.71,-1.13,8.79,-0.01,0.04,0.01,29.71
5448170,1874,1,206471,252197,0.40,-1.09,10.16,-0.02,-0.01,0.01,29.71
5488177,1879,1,207179,250197,0.81,-1.39,10.69,-0.02,0.05,0.01,29.71
5528858,1881,1,206257,251857,0.32,-0.65,11.28,-0.01,-0.02,0.01,29.55
5569180,1911,1,206920,250538,0.87,-1.12,11.73,-0.04,0.02,0.00,29.55
5609170,1792,1,206005,251698,0.37,-0.40,12.39,-0.05,-0.05,0.01,29.55
5649177,1753,1,205613,248940,1.18,-1.39,11.43,-0.05,-0.03,0.00,29.55
5689179,1808,1,204345,248155,0.27,-0.80,12.09,-0.09,-0.05,0.01,29.55
5729177,1745,1,204538,246878,0.37,-1.54,9.61,-0.08,-0.03,0.01,29.55
5769179,1864,1,204495,246709,0.27,-0.93,11.10,-0.10,0.00,0.00,29.55
5809167,1857,1,204648,245992,1.23,-1.46,8.25,-0.09,-0.05,-0.01,29.55
5849199,1906,1,205246,246094,0.45,-0.87,9.55,-0.11,0.11,0.04,29.55
5889167,1902,1,205454,246018,0.43,-1.83,8.54,-0.10,0.05,-0.00,29.55
5927179,1974,1,205350,246223,0.69,-0.55,8.83,-0.05,0.03,-0.00,29.55
5967177,1947,1,205419,246162,0.37,-2.04,8.91,-0.05,0.05,-0.00,29.55
6007180,1953,1,205289,246384,0.09,-0.93,7.95,-0.02,0.04,0.00,29.55
6047166,1889,1,205569,247652,0.00,-2.05,8.66,-0.04,0.06,-0.00,29.55
6087179,2034,1,205838,248354,0.74,-0.82,7.96,-0.03,0.02,-0.00,29.55
6127177,1951,1,206132,248555,0.28,-1.61,8.58,-0.02,0.06,-0.00,29.55
6167179,1966,1,205326,246574,0.36,-1.02,8.21,-0.01,0.02,0.00,29.55
6207166,1969,1,205387,246987,-0.31,-1.67,10.44,-0.02,0.08,0.01,29.55
6247179,2066,1,205607,248896,0.38,-0.74,10.43,0.00,0.05,0.00,29.55
6287147,1974,1,206557,251667,-0.24,-1.82,11.63,-0.00,0.05,0.00,29.55
6327179,1983,1,207069,253040,0.35,-1.07,11.14,-0.02,-0.03,-0.01,29.55
6367199,1927,1,207448,253526,-0.35,-1.96,12.79,-0.03,0.03,-0.00,29.55
6407200,1894,1,207152,253419,0.98,-0.94,10.49,-0.06,-0.08,-0.02,29.55
6448232,1918,1,207231,253199,-0.56,-1.62,13.21,-0.07,-0.02,-0.01,29.55
6488216,1811,1,206873,252925,0.17,-1.14,11.26,-0.07,-0.05,-0.01,29.55
6528886,1874,1,206775,252383,-0.43,-1.61,13.48,-0.06,-0.05,-0.01,29.25
6567216,1889,1,206566,252256,0.66,-0.82,10.30,-0.08,-0.08,-0.01,29.25
6607196,1861,1,206719,251737,-0.03,-1.54,11.07,-0.09,-0.12,-0.01,29.25
6647252,1872,1,206585,250880,0.84,-1.41,8.24,-0.09,-0.07,-0.01,29.25
6687199,1818,1,206586,249843,-0.35,-2.04,9.49,-0.09,-0.04,-0.01,29.25
6727214,1908,1,206065,249951,0.62,-0.93,6.89,-0.04,-0.04,-0.00,29.25
6767196,1517,1,206390,248581,-0.11,-1.83,8.69,-0.07,-0.05,-0.01,29.25
6807214,1879,1,205177,246397,0.58,-0.98,6.64,-0.02,-0.05,-0.01,29.25
6847197,1626,1,204928,245750,0.40,-1.78,8.64,-0.02,-0.02,-0.01,29.25
6887200,2029,1,204916,246898,0.81,-1.27,8.13,0.02,0.03,-0.01,29.25
6927167,2064,1,205662,248116,0.19,-1.49,8.69,0.03,-0.02,-0.00,29.25
6967179,1902,1,206425,250808,0.34,-1.16,8.50,0.05,0.03,0.00,29.25
7007147,2037,1,207754,253236,0.09,-2.02,9.39,0.05,-0.01,-0.00,29.25
7047179,2070,1,209074,257823,0.50,-1.08,9.41,0.06,0.00,-0.01,29.25
7087167,2078,1,210978,259950,0.53,-1.11,9.57,0.04,-0.01,-0.01,29.25
7127179,2084,1,211535,260529,0.16,-0.93,10.15,0.05,-0.01,-0.01,29.25
7167179,2055,1,210676,258613,0.14,-1.23,11.82,0.02,-0.04,0.00,29.25
7207170,1923,1,209144,256698,-0.06,-0.90,12.41,0.01,-0.05,-0.00,29.25
7247195,2016,1,207636,254652,0.74,-0.83,13.59,0.01,-0.07,-0.01,29.25
7287179,2002,1,206714,253401,0.41,-0.91,12.52,-0.04,-0.10,-0.01,29.25
7327197,1987,1,206312,253014,-0.13,-1.54,13.46,-0.05,-0.07,-0.01,29.25
7367217,1924,1,206305,253135,1.21,-0.46,10.68,-0.07,-0.14,-0.01,29.25
7407199,1862,1,206767,253558,0.18,-1.40,11.22,-0.07,-0.13,-0.00,29.25
7447199,1843,1,206965,250325,0.80,-0.74,8.57,-0.09,-0.10,0.03,29.25
7487177,1791,1,205520,246994,-0.14,-1.84,9.98,-0.08,-0.07,0.02,29.25
7527199,1535,1,207257,248771,1.31,0.31,7.02,-0.10,0.04,0.53,29.25
7567837,1795,1,209380,249164,0.24,-1.70,8.40,-0.10,-0.14,0.46,29.19
7606179,1827,1,209962,248912,1.22,-1.17,6.94,-0.06,0.08,0.36,29.19
7646171,1904,1,210275,248547,0.80,-2.55,8.83,-0.06,0.06,0.13,29.19
7686170,1915,1,210375,248370,1.36,-0.46,6.73,0.02,-0.11,-0.05,29.19
7726179,1904,1,209429,247910,0.08,-1.61,10.11,-0.05,0.13,0.00,29.19
7766170,1915,1,208862,248123,0.90,-0.69,7.24,0.02,-0.03,0.00,29.19
7806167,1920,1,208776,248926,0.65,-1.73,10.36,-0.02,0.02,0.00,29.19
7846170,1917,1,208353,249484,1.21,-0.37,8.38,0.04,-0.10,0.00,29.19
7886167,1904,1,208885,251303,0.15,-1.37,10.02,-0.02,0.12,0.01,29.19
7926171,1954,1,209379,253791,0.22,-1.03,9.70,-0.01,0.12,0.01,29.19
7966166,1917,1,210532,255114,0.36,-1.46,11.87,-0.04,0.08,0.01,29.19
8006171,1941,1,210390,255115,0.70,-0.51,11.13,-0.01,-0.01,0.01,29.19
8046177,1936,1,210026,254587,0.43,-1.35,11.69,-0.06,-0.03,-0.00,29.19
8086237,1936,1,209661,254607,0.37,-1.01,11.47,-0.05,-0.03,0.00,29.19
8126177,1895,1,209750,253863,0.01,-1.61,12.68,-0.07,0.01,0.00,29.19
8166170,1899,1,208275,248647,0.75,-0.45,11.61,-0.05,-0.07,0.00,29.19
8206177,1893,1,207448,247795,-0.07,-1.72,12.04,-0.11,0.04,0.00,29.19
8246179,1914,1,207654,247840,0.65,-0.49,10.70,-0.11,0.04,-0.00,29.19
8286214,1888,1,208103,247921,0.42,-1.67,10.96,-0.12,0.05,0.00,29.19
8326171,1904,1,208352,248194,0.44,-0.53,9.17,-0.09,-0.04,0.01,29.19
8366177,1889,1,209040,249628,0.55,-1.49,8.61,-0.09,-0.05,0.00,29.19
8406179,1887,1,210491,249896,0.12,-0.29,8.00,-0.10,0.07,0.11,29.19
8446167,1930,1,210770,250202,0.55,-1.82,7.89,-0.08,-0.02,0.03,29.19
8486179,1972,1,210966,250073,0.63,-0.36,6.80,-0.05,-0.00,0.05,29.19
8526177,1979,1,210977,250066,0.81,-2.00,9.14,-0.08,0.07,0.01,29.19
8566170,1951,1,211064,251440,0.64,-0.24,8.32,0.02,0.01,0.01,29.19
8606837,2045,1,211822,254228,-0.03,-2.63,10.68,-0.02,0.11,0.01,29.39
8647179,2027,1,212043,255229,0.61,-0.06,9.33,0.05,-0.03,0.00,29.39
8687166,1879,1,212039,255859,0.70,-1.89,10.73,0.02,-0.02,0.00,29.39
8727170,1887,1,211546,256641,0.52,-0.34,9.02,0.05,-0.16,0.02,29.39
8765166,1872,1,211989,257591,0.48,-1.54,11.44,-0.01,0.10,0.02,29.39
8805171,1910,1,212502,258702,0.06,-0.78,10.82,0.01,0.13,0.02,29.39
8845148,1856,1,212539,257878,0.10,-1.45,12.09,-0.00,-0.03,0.01,29.39
8885179,1871,1,211954,257523,0.14,-0.74,12.09,0.02,-0.08,0.01,29.39
8925166,1889,1,211335,256419,0.33,-1.66,13.35,-0.05,-0.10,0.01,29.39
8965179,1867,1,210577,256112,0.48,-0.29,11.07,-0.00,-0.18,0.02,29.39
9005177,1820,1,210565,255806,0.91,-1.83,11.34,-0.04,-0.15,0.01,29.39
9045179,1829,1,211004,256085,0.46,-0.38,9.77,-0.06,0.09,0.01,29.39
9085166,1861,1,211779,256810,-0.32,-2.09,10.70,-0.06,0.07,0.01,29.39
9125179,1899,1,211710,256857,0.85,-0.28,9.01,-0.02,-0.10,0.00,29.39
9165177,1945,1,211787,257064,0.34,-1.81,11.25,-0.06,-0.04,0.01,29.39
9205179,1908,1,211231,256800,1.55,-0.13,7.42,0.01,-0.23,0.00,29.39
9245167,1904,1,211344,256838,0.31,-1.84,11.31,-0.06,-0.08,0.01,29.39
9285179,1872,1,210905,257194,1.26,-0.13,7.70,0.04,-0.33,0.02,29.39
9325167,1881,1,211242,257171,0.52,-1.70,10.32,-0.06,0.02,0.02,29.39
9365170,1885,1,211042,257177,1.56,0.26,7.63,-0.01,-0.15,0.17,29.39
9405170,1890,1,211259,256769,1.01,-1.35,10.17,-0.06,-0.04,0.02,29.39
9445179,1887,1,211074,255742,1.65,0.07,8.05,-0.03,0.04,0.27,29.39
9485148,1899,1,209854,250373,0.87,-1.28,8.20,-0.00,-0.25,0.03,29.39
9525182,1899,1,209462,249905,1.25,-0.86,8.94,-0.03,0.12,0.43,29.39
9565170,1919,1,209931,250033,1.22,-1.27,8.34,-0.00,-0.10,0.03,29.39
9605179,1909,1,210477,249792,1.74,-0.49,9.42,0.01,0.09,0.21,29.39
9645837,1931,1,210304,249507,1.71,-1.07,8.72,0.01,-0.04,0.03,29.43
9686170,1951,1,210097,249531,1.27,-0.16,8.50,0.02,0.03,0.03,29.43
9726170,1941,1,209842,249493,0.96,-1.12,9.74,0.02,0.08,0.02,29.43
9766148,1932,1,209697,249873,1.06,-0.11,9.07,0.04,0.05,0.03,29.43
9806148,1963,1,209744,250477,0.85,-0.95,9.96,0.01,0.08,0.03,29.43
9846149,1947,1,209773,252601,1.48,-0.44,9.06,0.02,-0.02,0.03,29.43
9886166,1943,1,211057,255321,0.95,-0.88,10.62,-0.02,0.04,0.03,29.43
9926189,1892,1,211658,257404,1.14,-0.18,11.26,-0.01,-0.02,0.04,29.43
9966179,1936,1,211923,257400,0.79,-0.85,10.51,-0.03,0.01,0.04,29.43
10006170,1883,1,211518,257165,0.80,-0.38,12.44,-0.03,-0.02,0.04,29.43
10046177,1869,1,211256,256925,1.35,-0.66,12.93,-0.06,-0.00,0.03,29.43
10086180,1845,1,211162,256862,1.35,-0.23,12.34,-0.07,-0.08,0.04,29.43
10126203,1870,1,211202,256770,1.29,-0.81,11.60,-0.10,-0.04,0.04,29.43
10164179,1885,1,211149,256461,0.98,-0.33,11.81,-0.11,-0.07,0.04,29.43
10204179,1886,1,210866,254977,1.39,-1.12,9.54,-0.08,-0.11,0.04,29.43
10244179,1904,1,210571,254673,0.91,-0.71,10.59,-0.11,-0.05,0.04,29.43
10284179,1910,1,210401,253203,1.36,-1.03,8.40,-0.07,-0.13,0.03,29.43
10324179,1947,1,210401,253734,1.33,-0.51,10.42,-0.10,-0.01,0.04,29.43
10364179,1891,1,210693,254657,1.88,-1.17,8.17,-0.05,-0.07,0.04,29.43
10404179,1904,1,211074,255266,1.18,-0.67,9.23,-0.05,-0.04,0.04,29.43
10444179,1882,1,210647,254361,1.76,-0.89,8.20,-0.00,-0.11,0.04,29.43
10484180,1904,1,210432,253359,1.36,-0.74,8.65,-0.04,-0.01,0.41,29.43
10524193,1852,1,210311,252946,1.71,-1.56,8.01,-0.02,0.07,0.31,29.43
10564170,1899,1,210303,253970,1.10,-0.72,7.47,-0.01,0.01,0.05,29.43
10604170,1925,1,211437,257808,1.33,-0.95,9.50,-0.01,0.14,0.05,29.43
10644170,1886,1,212391,258865,1.17,-0.64,7.77,0.04,-0.03,0.05,29.43
10684854,1911,1,212175,258732,1.02,-1.01,9.48,0.03,-0.05,0.04,29.65
10725170,1919,1,212126,258620,0.96,-0.22,10.00,0.01,0.01,0.17,29.65
10765148,1875,1,212167,258520,1.36,-0.78,9.34,0.00,0.06,0.25,29.65
10805148,1875,1,212053,256373,1.75,-0.42,10.67,-0.02,0.08,0.04,29.65
10845170,1950,1,211239,255350,1.21,-0.73,9.78,-0.02,0.11,0.05,29.65
10885170,1926,1,211452,255839,1.13,-0.41,10.50,-0.03,-0.02,0.05,29.65
10925180,1926,1,212082,257923,0.48,-0.94,12.45,-0.04,0.10,0.06,29.65
10965170,1929,1,211966,258059,1.71,-0.64,10.00,-0.03,-0.11,0.05,29.65
11005179,1925,1,212269,257944,1.14,-0.86,12.51,-0.08,0.05,0.05,29.65
11045170,1905,1,211954,257052,1.59,-0.20,10.82,-0.07,-0.07,0.05,29.65
11085179,1892,1,211769,256419,0.93,-0.71,10.96,-0.07,0.04,0.06,29.65
11125171,1877,1,211507,256177,1.30,-0.80,10.63,-0.08,0.01,0.05,29.65
11165169,1855,1,211394,256199,1.49,-0.63,9.56,-0.07,0.00,0.06,29.65
11205171,1898,1,211660,256636,1.04,-1.01,10.41,-0.10,-0.04,0.05,29.65
11245179,1882,1,211237,255461,1.46,-0.65,8.02,-0.06,-0.06,0.05,29.65
11285179,1895,1,211068,255181,0.91,-1.28,9.86,-0.09,-0.02,0.05,29.65
11325179,1926,1,210538,254204,1.60,-0.81,6.66,-0.01,-0.09,0.05,29.65
11365183,1925,1,210614,254713,0.81,-1.17,9.37,-0.07,-0.00,0.05,29.65
11405179,1941,1,210650,255355,0.87,-0.89,8.09,-0.02,0.07,0.04,29.65
11445171,1967,1,211529,257649,1.24,-0.87,10.20,-0.04,-0.02,0.04,29.65
11485180,1959,1,212017,257343,1.52,-0.77,8.96,0.01,0.02,0.04,29.65
11525159,1909,1,211930,257133,0.78,-0.97,9.88,-0.03,-0.00,0.05,29.65
11565204,1901,1,211639,256620,1.26,-0.51,9.51,0.02,0.00,0.04,29.65
11603148,1907,1,211756,257428,0.21,-1.25,10.35,-0.03,0.06,0.05,29.65
11643170,1916,1,211543,257721,1.25,-0.75,8.73,0.02,-0.03,0.04,29.65
11683171,1911,1,212251,259194,0.53,-0.90,11.43,-0.04,-0.00,0.05,29.65
11723863,1904,1,212723,260322,1.24,-0.55,9.19,-0.01,-0.00,0.04,29.59
11764192,1893,1,212902,260618,1.25,-0.87,11.61,-0.06,-0.03,0.05,29.59
11804179,1856,1,212796,260936,0.91,-0.41,9.99,-0.02,0.02,0.05,29.59
11844171,1872,1,212837,260778,0.91,-0.94,11.60,-0.05,-0.03,0.05,29.59
11884177,1878,1,212725,260844,0.81,-0.68,10.53,-0.05,0.03,0.05,29.59
11924171,1879,1,212681,260538,1.07,-1.08,11.01,-0.07,-0.07,0.04,29.59
11964180,1895,1,212534,260689,1.35,-0.52,9.62,-0.05,-0.02,0.05,29.59
12004179,1883,1,212673,260652,0.69,-1.41,9.95,-0.07,-0.03,0.05,29.59
12044179,1872,1,212484,260399,1.16,-0.55,8.66,-0.04,-0.03,0.05,29.59
12084179,1898,1,212505,260477,0.56,-1.24,10.05,-0.07,-0.01,0.05,29.59
12124180,1863,1,212312,259509,1.30,-0.55,8.10,-0.02,-0.05,0.04,29.59
12164179,1875,1,211830,258124,1.05,-1.10,10.81,-0.06,-0.02,0.05,29.59
12204180,1903,1,211087,257104,1.40,-0.72,7.84,-0.02,-0.02,0.04,29.59
12244179,1914,1,211392,258154,0.94,-0.98,10.13,-0.05,-0.04,0.05,29.59
12284179,1907,1,211667,258940,0.79,-0.79,8.68,-0.00,0.04,0.05,29.59
12324170,1925,1,212079,259547,0.50,-1.20,9.32,-0.02,-0.02,0.05,29.59
12364177,1911,1,212162,260279,1.27,-0.84,9.61,-0.01,-0.01,0.04,29.59
12404179,1907,1,212473,260523,0.94,-1.12,9.27,-0.02,-0.02,0.04,29.59
12444179,1920,1,212475,260748,1.53,-0.59,10.49,-0.01,-0.04,0.04,29.59
12484179,1899,1,212557,260345,1.04,-1.05,10.01,-0.01,-0.01,0.05,29.59
12524183,1917,1,212263,259958,0.59,-0.80,10.04,-0.00,-0.01,0.04,29.59
12564179,1927,1,212158,259600,0.96,-1.11,10.99,-0.03,-0.04,0.04,29.59
12604179,1908,1,212029,260012,0.66,-0.67,11.31,-0.03,-0.00,0.05,29.59
12644179,1917,1,212097,259958,1.45,-1.06,10.39,-0.03,-0.07,0.04,29.59
12684179,1904,1,212082,259844,1.02,-0.56,10.49,-0.04,-0.01,0.05,29.59
12724866,1933,1,211883,259611,1.06,-1.31,9.33,-0.04,-0.07,0.04,29.43
12763179,1904,1,211892,259659,0.75,-0.44,10.08,-0.04,0.00,0.05,29.43
12803171,1915,1,211556,257820,0.62,-1.28,10.04,-0.04,-0.02,0.04,29.43
12843180,1907,1,210800,256279,1.32,-0.57,11.15,-0.05,0.00,0.04,29.43
12883171,1911,1,210455,254432,0.19,-1.29,9.39,-0.05,-0.01,0.04,29.43
12923179,1842,1,209579,254007,1.13,-1.23,8.85,-0.08,-0.02,0.04,29.43
12963180,1931,1,209805,252518,-0.16,-1.68,8.56,-0.08,-0.00,0.04,29.43
13003212,1903,1,208830,252569,0.90,-1.58,5.86,-0.05,-0.10,0.03,29.43
13043179,1973,1,209582,253691,-0.40,-2.11,9.90,-0.12,0.12,0.03,29.43
13083179,1931,1,209310,254371,1.05,-0.72,6.41,-0.04,-0.00,0.02,29.43
13123180,1894,1,210678,256963,0.28,-1.68,11.69,-0.09,0.04,0.03,29.43
13163171,1957,1,210809,257116,1.37,-0.91,6.39,-0.06,0.02,0.02,29.43
13203216,1904,1,210774,256847,1.97,0.02,11.37,-0.09,-0.07,0.01,29.43
13243171,1926,1,210500,256992,0.27,-1.71,7.53,-0.02,0.15,0.02,29.43
13283171,1967,1,210970,257375,0.68,-0.95,10.68,-0.07,0.04,0.01,29.43
13323171,1882,1,211243,258226,0.08,-1.76,11.63,-0.06,0.11,0.02,29.43
13363171,1942,1,210958,258630,1.17,-0.59,7.92,-0.02,-0.03,0.01,29.43
13403199,1909,1,211993,259731,0.25,-1.48,13.83,-0.09,0.08,0.02,29.43
13443171,1855,1,211466,258970,-0.21,-0.63,7.64,-0.00,0.01,0.02,29.43
13483177,1949,1,211167,256025,0.34,-1.79,12.30,-0.08,0.04,0.02,29.43
13523177,1889,1,210133,255761,-0.28,-1.02,9.80,-0.04,0.01,0.02,29.43
13563177,1885,1,209920,254569,0.96,-1.22,9.34,-0.04,-0.03,0.01,29.43
13603180,1921,1,209737,254640,-0.43,-1.41,10.82,-0.07,0.05,0.02,29.43
13643180,1911,1,209179,253790,0.89,-1.14,8.31,-0.05,-0.02,0.01,29.43
13683180,1911,1,209697,255601,-1.16,-1.99,11.04,-0.06,0.09,0.02,29.43
13723180,1880,1,210041,256852,1.09,-0.60,9.27,-0.00,-0.03,0.01,29.43
13763867,1902,1,211070,257726,-0.56,-1.52,10.16,-0.02,0.01,0.02,29.37
13802180,1887,1,210653,257348,0.85,-1.42,8.52,-0.02,-0.06,0.00,29.37
13842180,1883,1,210848,257396,-0.15,-1.41,10.88,-0.03,0.00,0.01,29.37
13882181,1904,1,210833,258564,0.55,-0.76,8.84,0.01,-0.03,0.01,29.37
13922171,1905,1,211903,259536,-0.37,-1.44,11.55,-0.04,-0.02,0.02,29.37
13962200,1914,1,211945,260941,-0.18,-0.42,9.31,0.02,-0.07,0.02,29.37
14002180,1867,1,212441,260529,0.06,-1.34,11.13,-0.03,-0.07,0.01,29.37
14042179,1862,1,212083,260840,-0.12,-0.88,11.37,-0.01,-0.06,0.01,29.37
14082200,1861,1,211784,259992,0.71,-1.32,10.01,-0.01,-0.08,0.01,29.37
14122180,1873,1,211424,259576,0.29,-1.13,10.87,-0.01,-0.07,0.02,29.37
14162179,1839,1,211118,258116,0.40,-1.23,10.33,-0.02,-0.09,0.02,29.37
14202180,1845,1,210174,256758,0.57,-0.41,11.30,0.01,-0.06,0.01,29.37
14242171,1870,1,210252,256129,0.52,-0.56,10.12,0.01,-0.08,0.02,29.37
14282170,1854,1,209687,255835,1.02,-0.83,10.93,-0.02,-0.10,0.01,29.37
14322179,1883,1,209773,255300,0.37,-1.32,11.01,-0.02,-0.07,0.02,29.37
14362179,1897,1,209215,255460,1.17,-0.73,9.28,0.01,-0.10,0.02,29.37
14402171,1872,1,209899,255620,-0.42,-1.93,9.65,-0.04,-0.02,0.03,29.37
14442200,1839,1,209137,254735,0.87,-0.63,7.63,0.03,-0.11,0.02,29.37
14482170,1872,1,209471,254923,0.18,-0.90,9.71,-0.03,-0.05,0.03,29.37
14522177,1911,1,209014,255213,0.81,-0.68,7.03,0.03,-0.08,0.01,29.37
14562170,1952,1,210018,256864,0.54,-1.30,11.40,-0.02,-0.05,0.01,29.37
14602177,1940,1,210217,258374,1.27,0.01,8.44,0.03,-0.06,0.02,29.37
14642148,1952,1,211339,260089,0.60,-1.35,10.52,-0.01,-0.06,0.02,29.37
14682180,1936,1,211645,261038,0.97,0.04,9.14,0.03,-0.03,0.03,29.37
14722149,1905,1,212071,261445,-0.09,-1.42,10.72,-0.02,-0.01,0.03,29.37
14762200,1934,1,211926,261290,1.02,-0.23,9.60,0.01,-0.06,0.02,29.37
14802857,1909,1,211943,261044,0.86,-1.02,11.01,-0.03,-0.07,0.02,29.11
14841218,1948,1,211685,260882,1.17,-0.04,10.54,-0.01,-0.05,0.02,29.11
14881179,1887,1,211378,258866,1.28,-0.70,11.17,-0.05,-0.10,0.02,29.11
14921179,1913,1,210496,257578,0.72,-0.23,11.41,-0.05,0.01,0.03,29.11
14961171,1919,1,209692,254627,1.09,-1.18,9.87,-0.06,-0.14,0.02,29.11
15001179,1911,1,208968,254262,0.54,-0.19,10.84,-0.04,0.01,0.03,29.11
15041193,1876,1,209031,253253,0.85,-1.09,9.48,-0.05,-0.11,0.03,29.11
15081179,1898,1,208671,253060,1.67,0.39,9.02,-0.04,0.11,0.46,29.11
15121148,1884,1,208763,252975,1.61,-0.80,9.35,-0.06,-0.10,0.05,29.11
15161177,1922,1,208973,254589,0.32,-1.15,9.55,-0.04,0.18,0.12,29.11
15201171,1938,1,209937,256662,1.30,-1.55,10.08,-0.04,-0.06,0.02,29.11
15241179,1930,1,210367,257794,0.53,-0.42,9.14,-0.01,0.05,0.03,29.11
15281170,1897,1,210714,258467,0.46,-1.44,10.02,-0.02,0.01,0.02,29.11
15321170,1937,1,210520,258477,1.52,0.16,7.84,0.01,-0.05,0.02,29.11
15361148,1937,1,211387,260601,1.11,-0.24,11.44,-0.04,0.09,0.03,29.11
15401171,1985,1,211961,261030,-0.00,-2.08,8.98,-0.05,0.06,0.03,29.11
15441180,1894,1,211819,260900,0.96,-0.45,9.12,-0.04,-0.08,-0.09,29.11
15481197,1942,1,211610,260118,0.71,-0.52,10.52,-0.05,0.05,0.02,29.11
15521171,1926,1,211411,260166,0.07,-0.94,11.64,-0.02,-0.01,0.03,29.11
15561180,1936,1,210615,256325,1.28,-0.12,9.97,-0.01,-0.02,0.03,29.11
15601179,1904,1,209860,256775,0.77,-0.68,11.88,-0.06,0.02,0.03,29.11
15641170,1917,1,210034,257331,1.36,-0.57,9.97,-0.04,0.04,0.02,29.11
15681171,1913,1,210563,258183,0.56,-0.73,12.11,-0.06,-0.03,0.03,29.11
15721179,1878,1,210272,257741,0.98,-0.88,9.35,-0.07,-0.02,0.03,29.11
15761179,1903,1,210211,257285,0.43,-0.75,11.33,-0.10,-0.03,0.02,29.11
15801179,1922,1,209772,256544,0.75,-0.83,8.77,-0.04,-0.03,0.03,29.11
15841865,1889,1,209768,256218,0.58,-1.03,11.55,-0.10,-0.00,0.02,29.25
15882180,1919,1,209379,255837,0.76,-0.61,8.40,-0.04,0.01,0.02,29.25
15922170,1918,1,209371,255339,1.40,-0.40,9.31,-0.06,-0.08,0.02,29.25
15962177,1937,1,209311,256120,0.54,-1.08,9.04,-0.05,0.03,0.03,29.25
16002170,1943,1,209737,256926,1.10,-0.87,9.32,-0.04,-0.05,0.02,29.25
16042177,1945,1,210003,257321,0.52,-1.03,9.35,-0.03,0.01,0.03,29.25
16080171,1930,1,210087,257590,0.40,-1.13,9.20,-0.04,-0.04,0.02,29.25
16120177,1936,1,210104,257309,0.85,-0.76,9.75,-0.01,-0.01,0.02,29.25
16160179,1926,1,210369,258292,0.14,-0.96,10.34,-0.04,0.02,0.02,29.25
16200170,1902,1,210315,257788,1.19,-0.31,7.92,0.01,-0.05,0.02,29.25
16240171,1909,1,210430,257584,0.38,-0.88,10.48,-0.02,0.02,0.02,29.25
16280179,1935,1,209510,255272,0.82,-1.29,8.91,-0.01,0.01,0.01,29.25
16320171,1947,1,209784,256415,0.55,-0.86,11.25,-0.02,0.02,0.02,29.25
16360168,1898,1,209887,256830,0.65,-1.98,9.34,0.00,-0.00,-0.04,29.25
16400180,1922,1,210339,257550,-0.21,-1.46,11.64,-0.02,0.04,-0.06,29.25
16440200,1936,1,210173,258093,0.29,-1.07,9.66,-0.00,0.01,-0.09,29.25
16481181,1918,1,210817,259809,0.18,-1.20,11.05,-0.02,0.02,-0.17,29.25
16521184,1905,1,211227,260369,0.20,-1.08,9.74,-0.01,-0.02,-0.18,29.25
16561201,1883,1,211414,260437,0.38,-0.67,10.88,-0.05,-0.02,-0.06,29.25
16601201,1882,1,211187,260264,0.60,-1.21,10.76,-0.07,0.00,-0.03,29.25
16641181,1873,1,211226,260243,0.08,-1.03,11.65,-0.07,-0.00,-0.06,29.25
16681201,1914,1,210831,258560,-0.26,-1.37,9.90,-0.08,-0.03,-0.00,29.25
16721218,1870,1,210138,257354,-0.58,-1.25,11.10,-0.09,0.01,-0.00,29.25
16761201,1905,1,209482,255964,-0.49,-1.63,8.75,-0.07,0.01,-0.00,29.25
16801201,1924,1,209119,255887,0.10,-0.98,9.52,-0.07,-0.00,-0.01,29.25
16841887,1923,1,209583,256668,-0.29,-1.42,10.13,-0.08,0.04,-0.01,29.35
16880202,1911,1,209450,256862,0.39,-1.03,9.11,-0.05,-0.01,-0.01,29.35
16920201,1903,1,209711,256914,0.38,-1.38,10.74,-0.10,0.03,-0.01,29.35
16960181,1927,1,209321,256611,0.34,-1.06,8.23,-0.04,0.01,-0.01,29.35
17000181,1906,1,209517,256777,-0.08,-1.70,9.84,-0.08,0.01,-0.00,29.35
17040201,1904,1,209002,255390,0.04,-0.91,8.03,-0.03,0.01,0.00,29.35
17080172,1872,1,209030,255107,-0.23,-1.60,9.79,-0.06,0.01,-0.00,29.35
17120201,1919,1,208913,255046,-0.26,-1.12,9.07,-0.02,0.03,-0.01,29.35
17160201,1917,1,209043,255202,-0.29,-1.00,10.62,-0.04,0.03,-0.00,29.35
17200202,1950,1,208802,255061,0.45,-0.56,9.02,-0.01,0.03,-0.01,29.35
17240181,1923,1,208948,255474,-0.11,-1.57,9.93,-0.04,0.05,-0.00,29.35
17280201,1919,1,209110,256067,0.22,-0.98,7.75,-0.01,0.02,-0.01,29.35
17320181,1897,1,210087,257968,0.01,-1.46,10.92,-0.02,0.01,-0.00,29.35
17360182,1923,1,211036,260052,0.15,-1.16,9.16,0.01,0.01,-0.27,29.35
17400172,1895,1,212443,261447,-0.52,-1.34,11.00,-0.00,-0.00,-0.08,29.35
17440219,1954,1,212790,261831,-0.18,-1.17,10.37,0.02,0.02,-0.08,29.35
17480181,1905,1,213045,262143,-0.60,-1.69,11.70,-0.02,-0.01,-0.01,29.35
17519218,1914,1,213104,262143,-0.28,-1.48,10.03,-0.01,-0.05,-0.08,29.35
17559218,1819,1,212907,262143,-0.21,-0.96,11.34,-0.04,-0.05,-0.02,29.35
17599218,1904,1,212549,261720,0.20,-1.16,10.46,-0.04,-0.03,-0.02,29.35
17639201,1893,1,212039,261404,0.12,-0.87,11.19,-0.04,-0.05,-0.01,29.35
17679204,1852,1,211891,261113,0.16,-0.94,10.14,-0.04,-0.01,-0.00,29.35
17719201,1856,1,211258,260343,0.02,-1.25,9.91,-0.05,-0.05,-0.01,29.35
17759202,1815,1,210759,258881,0.14,-1.43,8.75,-0.05,-0.05,-0.01,29.35
17799201,1877,1,209929,256524,-0.11,-1.34,9.83,-0.05,-0.06,-0.01,29.35
17839218,1975,1,208890,254004,0.05,-1.18,8.98,-0.04,-0.05,-0.01,29.35
17879888,1943,1,208404,253789,-0.06,-1.11,9.64,-0.04,-0.05,-0.00,29.29
17920218,1974,1,208555,253938,0.31,-0.89,9.17,-0.03,-0.04,-0.01,29.29
17960201,1857,1,208568,254141,0.40,-1.13,9.69,-0.02,-0.06,-0.01,29.29
18000202,1883,1,208842,255120,0.46,-0.96,9.78,-0.02,-0.01,-0.01,29.29
18040201,1882,1,209372,256061,0.36,-0.86,9.13,-0.00,-0.04,-0.01,29.29
18080203,1943,1,209551,256017,0.94,-0.57,10.11,0.01,-0.04,-0.01,29.29
18120185,1949,1,209642,256111,0.30,-1.36,10.65,-0.02,-0.03,-0.01,29.29
18160204,1899,1,209603,256366,0.20,-0.99,10.02,0.01,-0.03,-0.00,29.29
18200181,1933,1,209761,256279,-0.16,-1.18,10.39,-0.01,-0.04,0.00,29.29
18240205,1985,1,209555,256515,-0.42,-1.20,10.21,-0.00,-0.03,0.00,29.29
18280201,1934,1,209473,255950,0.20,-1.07,9.67,-0.02,-0.08,0.00,29.29
18320200,1867,1,209188,256401,0.09,-0.68,10.67,-0.00,-0.01,0.01,29.29
18360181,1949,1,209381,256482,0.41,-0.98,10.42,-0.03,-0.03,-0.00,29.29
18400201,1940,1,209151,256612,0.75,-0.89,10.56,-0.04,-0.04,-0.00,29.29
18440201,1934,1,209060,256086,0.97,-0.71,8.87,-0.05,-0.06,-0.00,29.29
18480201,1937,1,208819,255761,0.83,-0.83,9.28,-0.04,-0.04,-0.00,29.29
18520198,1941,1,208708,254214,0.63,-0.93,9.81,-0.05,-0.02,-0.00,29.29
18559200,1893,1,207795,252048,0.63,-0.63,8.91,-0.03,-0.02,0.00,29.29
18599177,1873,1,207523,251813,0.47,-0.99,9.83,-0.05,0.02,0.00,29.29
18639171,1902,1,207245,251110,0.72,-1.35,9.18,-0.04,-0.02,0.00,29.29
18679177,1937,1,207220,251731,-0.35,-1.34,9.63,-0.04,0.05,0.01,29.29
18719181,1903,1,207407,251651,0.43,-0.80,8.73,-0.01,-0.03,0.01,29.29
18759178,1962,1,207564,252373,0.11,-0.86,10.18,-0.02,0.00,0.01,29.29
18799171,1931,1,207763,252374,0.41,-1.38,9.30,-0.03,0.00,0.00,29.29
18839171,1879,1,208090,253466,0.02,-0.99,10.43,-0.02,0.02,0.01,29.29
18879171,1911,1,208648,254941,0.26,-1.00,9.67,-0.03,0.02,0.01,29.29
18919858,1920,1,209236,256125,0.43,-0.96,10.30,-0.03,0.01,0.00,29.19
18958171,1936,1,209395,256681,0.41,-0.84,9.62,-0.05,-0.02,0.00,29.19
18998181,1905,1,209688,257894,0.75,-0.62,10.38,-0.03,0.01,0.00,29.19
19038172,1895,1,210525,259425,0.61,-0.90,11.32,-0.05,0.02,0.00,29.19
19078171,1823,1,210518,259517,0.14,-0.98,9.58,-0.04,-0.03,0.00,29.19
19118181,1913,1,210693,259705,-0.03,-1.48,11.59,-0.08,0.01,0.00,29.19
19158181,1864,1,210306,259007,0.57,-0.96,9.33,-0.05,-0.05,-0.00,29.19
19198202,1931,1,210377,258751,0.06,-1.13,11.41,-0.07,0.02,0.00,29.19
19238172,1863,1,209362,254732,0.27,-0.80,9.22,-0.05,-0.06,0.00,29.19
19278181,1872,1,208362,253278,-0.11,-1.10,10.33,-0.06,-0.02,0.00,29.19
19318201,1887,1,207855,252661,0.27,-1.43,9.65,-0.06,0.00,0.00,29.19
19358172,1872,1,207767,253311,0.02,-1.36,9.58,-0.03,0.00,0.00,29.19
19398172,1951,1,208111,253218,0.52,-0.56,9.00,-0.05,-0.05,0.00,29.19
19438181,1913,1,208163,254177,-0.24,-1.34,9.62,-0.02,-0.00,0.00,29.19
19478201,1905,1,208360,253563,1.08,-0.69,8.94,-0.04,-0.03,-0.00,29.19
19518202,1878,1,208249,254422,-0.18,-1.63,10.03,-0.03,0.00,0.00,29.19
19559181,1870,1,208684,254511,1.13,-0.33,8.20,0.00,-0.01,-0.00,29.19
19599181,1927,1,208979,255525,-0.00,-1.16,10.89,-0.02,-0.00,0.01,29.19
19639201,1907,1,209131,256324,0.44,-0.75,8.70,0.01,0.00,-0.00,29.19
19679171,1904,1,209719,256861,0.06,-1.36,11.25,-0.04,-0.01,-0.00,29.19
19719201,1891,1,209607,258026,-0.04,-0.96,9.46,0.01,0.00,0.00,29.19
19759202,1865,1,210021,257606,0.33,-1.19,9.31,-0.02,-0.06,-0.00,29.19
19799201,1975,1,209938,258435,-0.27,-1.30,10.60,-0.01,-0.01,0.00,29.19
19839202,1917,1,209987,257605,0.57,-0.74,9.11,-0.01,-0.05,-0.00,29.19
19879201,1936,1,209659,258096,-0.06,-0.98,11.01,-0.01,-0.01,0.01,29.19
19919892,1921,1,209701,256669,0.31,-1.22,9.22,-0.03,-0.01,0.00,29.05
19958181,1941,1,208596,253761,-0.03,-1.20,10.32,-0.03,-0.03,-0.00,29.05
19998218,1966,1,207853,252550,0.60,-0.86,9.09,-0.02,-0.03,-0.00,29.05
20038202,1997,1,207533,252184,0.61,-0.75,10.01,-0.03,0.00,-0.00,29.05
20078181,1835,1,207441,252245,0.83,-0.72,9.13,-0.03,0.01,-0.01,29.05
20118181,1953,1,207456,252050,0.33,-0.91,8.98,-0.04,0.00,-0.00,29.05
20158181,1925,1,207464,252545,0.43,-0.76,9.13,-0.04,0.03,-0.00,29.05
20198181,1936,1,207825,252599,0.89,-0.63,9.46,-0.04,0.01,-0.01,29.05
20238181,1930,1,207836,253073,0.69,-1.01,10.05,-0.02,0.05,-0.00,29.05
20278181,1926,1,208143,253433,0.49,-1.07,9.20,-0.04,-0.00,-0.00,29.05
20318202,1933,1,208363,254064,0.17,-0.87,9.61,-0.03,0.02,0.00,29.05
20358171,1943,1,208606,254245,0.31,-0.92,8.89,-0.03,0.01,0.00,29.05
20398171,1935,1,208784,255485,0.13,-1.34,10.51,-0.04,0.02,0.00,29.05
20438171,1937,1,209160,255827,0.29,-0.98,10.10,-0.04,-0.00,0.00,29.05
20478181,1935,1,209292,256810,-0.16,-1.24,10.57,-0.03,0.00,0.01,29.05
20518181,1953,1,209517,256875,0.10,-1.18,10.04,-0.03,-0.00,0.00,29.05
20558181,1933,1,209489,256806,-0.00,-1.39,10.95,-0.05,-0.03,0.00,29.05
20597202,1877,1,209289,257151,-0.08,-1.40,10.49,-0.04,-0.00,0.00,29.05
20637202,1927,1,209537,256617,-0.28,-1.16,11.01,-0.04,-0.03,0.00,29.05
20677202,1938,1,208418,253672,0.02,-0.82,9.71,-0.04,-0.03,0.01,29.05
20717181,1920,1,207712,252331,-0.19,-1.39,9.48,-0.06,-0.02,0.00,29.05
20757201,1881,1,207257,251902,0.31,-1.25,9.21,-0.05,-0.04,-0.00,29.05
20797205,1906,1,207333,252109,0.00,-0.86,9.67,-0.06,0.00,0.00,29.05
20837172,1862,1,207247,251712,0.23,-0.62,8.64,-0.03,-0.00,0.00,29.05
20877181,1883,1,207250,251619,-0.09,-1.44,10.01,-0.05,0.03,-0.00,29.05
20917201,1936,1,206877,250940,0.46,-0.89,7.83,-0.03,-0.03,-0.01,29.05
20957892,1919,1,207592,252885,-0.58,-1.36,10.68,-0.05,0.10,-0.00,29.09
20998205,1968,1,208866,254521,0.39,-0.66,8.51,-0.02,0.03,-0.01,29.09
21038184,1957,1,210162,256111,0.20,-1.94,10.68,-0.02,-0.02,-0.10,29.09
21078205,1897,1,209990,255770,0.14,-0.72,8.76,-0.03,-0.01,-0.11,29.09
21118205,1936,1,209780,256703,-0.17,-1.78,10.00,-0.03,-0.01,-0.01,29.09
21158219,1962,1,210132,257394,0.42,-0.77,9.02,-0.03,0.02,-0.01,29.09
21198184,1968,1,210518,258750,-0.28,-1.36,9.76,-0.04,0.02,-0.01,29.09
21238205,1918,1,210601,258630,0.34,-0.79,8.04,-0.04,-0.01,-0.03,29.09
21278205,1919,1,210458,257492,0.68,-0.50,9.95,-0.04,-0.04,-0.02,29.09
21318203,1887,1,210086,259084,-0.62,-1.40,9.63,-0.05,0.09,-0.01,29.09
21358205,1904,1,210756,258038,0.21,-0.75,9.58,-0.06,-0.00,-0.02,29.09
21398202,1900,1,209525,255612,0.09,-1.06,10.07,-0.03,0.03,-0.01,29.09
21438184,1839,1,208821,252361,-0.14,-1.94,8.32,-0.07,0.03,-0.01,29.09
21478202,1827,1,207482,251160,-0.33,-1.89,9.18,-0.03,0.03,-0.01,29.09
21518205,1808,1,207629,249154,-0.50,-1.94,8.27,-0.05,0.03,-0.01,29.09
21558203,1953,1,207199,247831,-0.04,-2.50,10.07,-0.04,-0.01,-0.02,29.09
21598259,1955,1,207845,248275,-1.81,-1.85,8.65,0.00,0.06,-0.00,29.09
21638184,1946,1,207445,247043,-0.01,-0.67,8.84,0.03,-0.05,-0.02,29.09
21676205,1974,1,207941,249803,-1.03,-2.04,10.12,0.02,0.07,-0.01,29.09
21716184,1984,1,208510,250379,-0.09,-1.52,7.99,0.00,-0.04,-0.11,29.09
21756205,1997,1,208721,251194,-1.29,-1.83,11.40,-0.00,0.01,-0.02,29.09
21796205,1952,1,208829,251827,-0.82,-1.12,10.17,-0.00,0.01,-0.05,29.09
21836205,1934,1,208788,252705,-1.11,-2.05,11.71,-0.03,-0.00,-0.01,29.09
21876219,1882,1,208792,253770,-0.39,-1.10,11.85,-0.03,-0.03,-0.02,29.09
21916222,1929,1,208330,253027,-0.41,-1.09,11.34,-0.05,-0.07,-0.03,29.09
21956218,1913,1,208061,253281,-1.13,-1.31,12.53,-0.05,0.01,-0.02,29.09
21996891,1891,1,207416,251212,0.15,-1.17,9.64,-0.07,-0.09,-0.03,29.05
22037202,1863,1,206755,251250,-0.70,-1.45,11.10,-0.08,-0.01,-0.02,29.05
22077220,1869,1,206715,249402,0.22,-1.33,8.77,-0.08,-0.05,-0.04,29.05
22117205,1899,1,205793,247322,-0.69,-1.29,10.92,-0.06,-0.04,-0.03,29.05
22157222,1958,1,204697,243691,0.59,-0.93,7.87,-0.06,-0.07,-0.03,29.05
22197202,1955,1,203480,242414,0.18,-1.38,10.01,-0.05,-0.04,-0.03,29.05
22237205,1883,1,203109,241718,0.64,-1.19,8.09,-0.04,-0.04,-0.03,29.05
22277203,1981,1,203550,242975,0.31,-0.98,10.54,-0.03,-0.03,-0.02,29.05
22317205,1930,1,203757,243323,0.24,-1.13,7.90,-0.01,-0.01,-0.02,29.05
22357205,1922,1,203993,243712,0.43,-1.08,9.21,-0.01,-0.05,-0.01,29.05
22397205,1877,1,204268,245087,0.36,-1.19,8.60,0.01,-0.01,-0.01,29.05
22437184,1931,1,205038,246164,0.52,-0.78,9.70,0.00,-0.05,-0.01,29.05
22477184,1910,1,205521,247415,0.29,-0.92,10.42,0.02,-0.00,-0.01,29.05
22517184,1904,1,205877,247929,0.25,-0.99,8.97,0.01,-0.06,-0.01,29.05
22557184,1855,1,205777,247997,0.68,-0.94,9.94,0.00,-0.07,-0.01,29.05
22597181,1920,1,206121,249512,0.17,-1.02,10.64,-0.01,-0.03,-0.01,29.05
22637205,1877,1,206693,250655,0.17,-0.93,10.26,-0.00,-0.04,-0.01,29.05
22677202,1895,1,207094,251990,-0.02,-1.02,11.25,-0.03,-0.04,-0.00,29.05
22717218,1843,1,207207,251896,0.28,-0.79,9.50,-0.02,-0.05,-0.00,29.05
22757202,1889,1,207255,251494,0.07,-1.39,12.09,-0.05,-0.04,-0.01,29.05
22797202,1877,1,206687,249769,0.37,-0.98,9.98,-0.04,-0.05,-0.01,29.05
22837202,1888,1,206241,249188,-0.22,-1.19,10.15,-0.05,-0.07,0.00,29.05
22877204,1903,1,205953,248586,0.27,-0.97,9.04,-0.06,-0.04,-0.00,29.05
22917202,1914,1,205648,248228,0.03,-1.21,10.01,-0.07,-0.03,-0.00,29.05
22957202,1938,1,205402,247964,0.11,-1.15,9.17,-0.04,-0.01,-0.00,29.05
22997889,1903,1,205521,248044,0.06,-1.31,9.49,-0.05,-0.04,0.00,29.09
23036235,1890,1,205676,248478,-0.06,-0.98,9.44,-0.03,-0.01,0.00,29.09
23076202,1938,1,205591,247818,0.36,-1.30,8.40,-0.04,-0.06,-0.00,29.09
23116205,1937,1,205522,248203,-0.11,-1.21,9.78,-0.03,0.04,0.00,29.09
23156184,1927,1,205912,248537,-0.36,-1.37,8.58,-0.02,0.00,0.00,29.09
23196184,1937,1,206226,249654,-0.09,-0.95,9.91,0.00,-0.01,0.01,29.09
23236232,1904,1,206823,250480,0.00,-1.13,8.75,-0.02,0.03,0.01,29.09
23276172,1936,1,207025,251410,-0.03,-1.07,9.54,0.01,-0.01,0.00,29.09
23316182,1888,1,207414,252583,0.06,-1.24,10.36,-0.01,0.04,0.01,29.09
23356172,1905,1,207850,254328,-0.06,-0.98,10.72,-0.01,-0.01,0.01,29.09
23396201,1936,1,208304,254927,0.20,-0.95,10.26,-0.01,0.02,0.01,29.09
23436171,1900,1,208422,254645,-0.31,-1.34,10.90,-0.02,0.02,0.01,29.09
23476181,1911,1,207653,252120,0.62,-1.08,10.25,-0.02,-0.00,-0.00,29.09
23516202,1921,1,207436,252675,0.01,-1.08,12.12,-0.04,0.00,0.01,29.09
23556171,1897,1,207470,252948,0.26,-1.18,9.92,-0.03,-0.00,-0.00,29.09
23596202,1881,1,207770,253237,-0.09,-1.25,11.82,-0.06,-0.00,0.00,29.09
23636201,1904,1,207489,252757,0.55,-0.78,10.13,-0.05,-0.01,-0.00,29.09
23676202,1927,1,207520,253366,0.18,-1.06,11.17,-0.07,0.02,-0.00,29.09
23716181,1907,1,207546,252873,0.49,-0.96,9.84,-0.06,-0.04,-0.00,29.09
23756201,1932,1,207382,252804,0.28,-1.34,10.38,-0.08,-0.04,-0.00,29.09
23796202,1902,1,207238,252137,0.41,-1.04,8.70,-0.07,-0.02,-0.00,29.09
23836202,1956,1,206839,251708,0.57,-1.20,9.68,-0.07,-0.02,-0.00,29.09
23876201,1871,1,206729,251710,0.34,-1.07,8.68,-0.07,0.00,-0.00,29.09
23916184,1887,1,206886,252361,0.56,-1.19,9.07,-0.06,-0.02,-0.00,29.09
23956203,1899,1,207513,253331,0.45,-1.11,9.15,-0.05,-0.00,0.00,29.09
23996184,1906,1,207739,253730,1.08,-1.09,9.10,-0.03,-0.06,-0.00,29.09
24036889,1914,1,207866,254681,0.68,-1.27,10.05,-0.03,-0.02,0.00,29.17
24075184,1901,1,208389,255837,0.68,-0.87,9.55,-0.01,-0.01,0.00,29.17
24115182,1889,1,208808,256536,0.31,-1.30,9.86,-0.01,0.02,0.00,29.17
24155171,1872,1,208792,255493,0.36,-1.01,9.23,-0.01,-0.02,0.00,29.17
24195182,1939,1,207928,252881,0.41,-1.29,9.96,-0.02,-0.04,-0.00,29.17
24235205,1872,1,207394,252802,0.11,-1.13,10.65,-0.01,-0.01,0.01,29.17
24275184,1921,1,207699,253466,0.18,-1.08,10.30,-0.01,-0.03,0.00,29.17
24315184,1904,1,207866,254242,-0.05,-1.04,10.09,-0.01,-0.03,0.01,29.17
24355203,1874,1,207769,253608,0.43,-1.15,9.36,-0.02,-0.06,-0.00,29.17
24395205,1923,1,207670,254509,0.13,-1.26,10.73,-0.03,-0.03,0.00,29.17
24435181,1941,1,208041,254673,-0.04,-1.39,10.15,-0.03,-0.03,0.00,29.17
24475202,1920,1,207715,253971,0.06,-1.25,9.38,-0.03,-0.04,0.00,29.17
24515181,1895,1,207383,253007,0.16,-1.38,8.99,-0.03,0.00,0.00,29.17
24555171,1926,1,206878,251640,0.57,-1.07,8.29,-0.03,-0.03,0.00,29.17
24595182,1918,1,206633,251839,0.18,-1.83,10.35,-0.03,0.04,0.00,29.17
24635171,1953,1,207094,252902,0.27,-1.53,9.27,-0.02,-0.02,0.00,29.17
24675222,1967,1,207789,254397,-0.02,-1.46,9.79,-0.00,-0.01,0.01,29.17
24715205,1926,1,208446,254807,0.08,-1.39,10.12,-0.01,-0.01,0.00,29.17
24755182,1906,1,208254,254719,0.54,-1.79,10.62,-0.01,-0.05,-0.00,29.17
24795204,1872,1,208243,254943,-0.17,-1.72,10.21,-0.01,0.01,0.00,29.17
24835181,1959,1,208212,255041,-0.27,-1.52,9.79,-0.02,-0.03,-0.00,29.17
24875221,1858,1,208420,255160,-0.22,-1.04,10.32,-0.01,0.01,0.00,29.17
24915184,1930,1,208152,253156,-0.00,-1.03,9.34,-0.02,-0.01,0.00,29.17
24955205,1890,1,207702,252942,-0.17,-1.68,11.23,-0.04,0.00,0.00,29.17
24995184,1907,1,207845,253640,-0.21,-1.23,10.12,-0.03,-0.04,0.00,29.17
25035204,1924,1,208178,256000,-0.07,-1.30,11.57,-0.04,-0.04,0.00,29.17
25075902,1906,1,208929,256617,0.02,-1.12,11.16,-0.04,-0.02,0.00,29.03
25114180,1881,1,208395,256234,0.28,-1.24,10.14,-0.05,-0.08,-0.00,29.03
25154200,1827,1,208387,254969,-0.38,-1.87,11.11,-0.09,0.04,0.00,29.03
25194181,1905,1,207203,252435,0.19,-1.06,7.89,-0.02,-0.08,-0.00,29.03
25234201,1937,1,206680,251625,0.38,-0.97,10.09,-0.07,0.04,-0.00,29.03
25274181,1937,1,206216,249659,0.92,-0.27,6.32,-0.02,-0.01,-0.00,29.03
25314201,1822,1,205802,248113,0.45,-1.13,10.55,-0.04,0.04,-0.00,29.03
25354184,1696,1,205529,247139,0.19,-0.91,8.58,0.00,0.07,0.00,29.03
25394150,1863,1,205939,249807,0.37,-1.14,10.36,0.04,0.03,0.00,29.03
25434152,1897,1,207724,252934,0.48,-0.77,8.51,0.03,0.02,0.00,29.03
25474151,1727,1,209449,256259,0.17,-1.25,11.16,0.01,0.01,-0.00,29.03
25514172,2047,1,210877,259079,-0.23,-1.29,10.69,-0.00,0.05,0.00,29.03
25554184,2102,1,211596,259927,-0.40,-1.53,10.72,0.00,0.01,-0.00,29.03
25594183,2203,1,211233,258839,-0.10,-1.12,12.07,-0.03,0.03,-0.01,29.03
25634201,1940,1,210318,257220,0.62,-0.56,11.09,-0.03,-0.04,-0.01,29.03
25674202,2080,1,209665,258284,0.08,-1.34,12.33,-0.06,0.03,-0.01,29.03
25714203,1991,1,209791,257150,0.15,-1.15,11.13,-0.07,-0.01,-0.01,29.03
25754202,1782,1,208692,256294,0.37,-1.09,11.28,-0.09,-0.05,-0.01,29.03
25794201,1913,1,208586,255655,0.55,-0.93,10.19,-0.11,-0.01,-0.01,29.03
25834202,1856,1,208282,255385,0.57,-1.19,10.35,-0.10,-0.04,-0.01,29.03
25874201,1936,1,208561,256010,0.01,-1.43,10.20,-0.11,0.02,-0.01,29.03
25914183,1933,1,208502,256100,0.43,-1.04,9.00,-0.07,-0.06,-0.01,29.03
25954201,1904,1,208601,256381,-0.01,-1.52,9.84,-0.08,-0.01,-0.00,29.03
25994217,1881,1,208394,255940,0.40,-1.06,8.57,-0.04,-0.05,-0.00,29.03
26034201,1910,1,208631,256710,0.47,-1.77,10.16,-0.06,0.01,-0.00,29.03
26074181,1897,1,209131,258260,0.27,-1.39,8.63,-0.02,-0.00,0.00,29.03
26114869,1885,1,209731,258325,0.21,-1.83,8.33,-0.02,-0.03,0.00,29.29
26153183,1833,1,209786,258966,0.10,-1.31,9.14,-0.01,-0.03,-0.00,29.29
26193203,1872,1,210197,259104,0.75,-1.46,9.10,-0.02,-0.03,-0.01,29.29
26233204,1879,1,210791,260436,-0.33,-1.87,9.75,0.01,-0.01,0.00,29.29
26273182,1882,1,210646,258816,0.16,-1.59,9.26,0.02,-0.07,-0.00,29.29
26313240,1869,1,210238,258437,-0.32,-1.35,10.48,0.02,-0.05,0.00,29.29
26353184,1887,1,209963,257894,0.43,-1.40,10.11,0.02,-0.08,-0.01,29.29
26393184,1887,1,209667,257782,-0.13,-1.82,11.54,0.00,-0.07,-0.00,29.29
26433201,1865,1,209340,258100,-0.33,-1.54,10.58,0.01,-0.06,-0.00,29.29
26473204,1856,1,209170,257973,-0.29,-1.06,11.46,-0.00,-0.07,-0.00,29.29
26513253,1871,1,208475,256740,0.18,-0.82,10.14,-0.01,-0.05,-0.01,29.29
26553200,1887,1,207880,255293,0.03,-1.12,11.20,-0.05,-0.07,-0.01,29.29
26593199,1902,1,207276,254715,0.20,-1.10,10.88,-0.03,-0.04,-0.01,29.29
26633199,1893,1,207216,253804,0.23,-1.20,10.16,-0.06,-0.07,-0.01,29.29
26673199,1873,1,206695,252336,0.28,-1.01,10.09,-0.04,-0.03,-0.01,29.29
26713199,1888,1,206340,251374,-0.03,-1.13,9.57,-0.06,-0.04,-0.00,29.29
26753213,1882,1,206575,251468,0.57,-1.53,10.16,-0.09,0.01,0.75,29.29
26793171,1906,1,207008,252016,0.26,-1.59,9.51,-0.06,-0.01,0.13,29.29
26833179,1922,1,206983,252008,0.32,-0.79,8.34,-0.03,0.01,-0.00,29.29
26873179,1886,1,207168,251994,0.37,-1.07,9.82,-0.05,0.03,-0.00,29.29
26913179,1904,1,207124,251675,1.01,-0.71,9.17,-0.06,0.02,-0.01,29.29
26953178,1906,1,207137,251107,-0.10,-1.69,9.85,-0.06,0.11,-0.01,29.29
26993199,1927,1,206366,249400,0.75,-0.54,8.06,-0.03,0.02,-0.01,29.29
27033179,1930,1,205978,249200,-0.38,-1.13,10.36,-0.05,0.10,-0.00,29.29
27073199,1911,1,205881,249234,0.65,-0.55,9.29,-0.03,0.03,-0.01,29.29
27113179,1915,1,205940,249656,0.60,-1.45,10.75,-0.07,0.05,-0.01,29.29
27153866,1943,1,206169,251060,-0.02,-1.11,9.79,-0.04,0.08,-0.00,29.19
27194200,1922,1,206688,252276,0.41,-1.16,9.88,-0.04,0.02,-0.01,29.19
27234181,1902,1,207034,254036,0.24,-1.07,11.35,-0.04,0.07,-0.00,29.19
27274181,1892,1,207532,254546,0.66,-1.30,10.40,-0.06,0.00,-0.01,29.19
27314181,1878,1,207729,255747,0.05,-1.07,11.43,-0.04,0.04,-0.01,29.19
27354181,1906,1,208182,256411,0.15,-1.13,10.89,-0.07,0.04,-0.01,29.19
27394181,1859,1,208349,257342,-0.31,-1.35,11.51,-0.06,0.02,-0.01,29.19
27434204,1899,1,208693,257586,0.20,-1.15,11.47,-0.09,0.01,-0.01,29.19
27474181,1879,1,208542,257443,-0.18,-1.45,11.23,-0.08,-0.04,-0.01,29.19
27512218,1925,1,208569,257471,-0.37,-1.38,11.09,-0.09,0.00,-0.01,29.19
27552201,1872,1,208227,256498,0.29,-1.16,9.10,-0.08,-0.10,-0.02,29.19
27592201,1893,1,207893,255978,-0.21,-1.58,9.69,-0.10,-0.00,-0.01,29.19
27632216,1919,1,207567,253763,0.02,-1.04,8.58,-0.08,-0.07,-0.02,29.19
27672201,1885,1,206879,252761,-0.10,-1.79,8.88,-0.05,0.00,-0.01,29.19
27712201,1937,1,206834,252502,-0.37,-1.68,8.03,-0.07,-0.03,-0.01,29.19
27752220,1925,1,207264,254478,-0.17,-1.60,9.13,-0.02,-0.05,-0.01,29.19
27792219,1906,1,208190,255870,-0.11,-1.36,8.92,-0.03,-0.03,-0.01,29.19
27832221,1872,1,208804,258236,-0.30,-1.53,10.24,0.00,-0.02,-0.01,29.19
27872202,1904,1,210120,260919,-0.50,-1.70,9.05,0.03,-0.02,-0.00,29.19
27912204,1888,1,211028,262040,0.54,-0.81,9.06,0.03,-0.05,-0.01,29.19
27952184,1916,1,211890,262143,-0.53,-1.74,10.41,0.01,0.05,-0.01,29.19
27992183,1899,1,211923,262143,-0.48,-1.35,9.30,0.03,-0.02,-0.01,29.19
28032203,1895,1,211566,262141,-0.24,-2.08,11.61,-0.01,-0.02,-0.01,29.19
28072221,1911,1,211480,261977,-0.98,-1.45,10.18,0.01,-0.01,-0.01,29.19
28112203,1885,1,210608,260361,0.05,-1.40,9.72,0.00,-0.09,-0.01,29.19
28152184,1915,1,209614,259170,-0.45,-1.12,9.60,-0.03,-0.01,-0.01,29.19
28192906,1910,1,208804,257218,0.46,-1.30,9.03,-0.03,-0.08,-0.02,29.37
28233202,1920,1,208443,257585,-0.52,-1.57,9.32,-0.04,-0.02,-0.02,29.37
28273218,1911,1,208738,257384,0.13,-1.15,8.31,-0.04,-0.03,-0.02,29.37
28313205,1909,1,208696,256370,-0.52,-1.00,10.02,-0.04,-0.02,-0.01,29.37
28353240,1906,1,207831,253184,0.25,-1.08,8.73,-0.04,-0.04,-0.02,29.37
28393204,1907,1,207338,253364,-0.12,-1.28,10.51,-0.05,0.00,-0.02,29.37
28433201,1905,1,208141,254607,0.02,-0.97,8.89,-0.03,0.00,-0.02,29.37
28473184,1898,1,208654,254835,-0.62,-1.22,10.44,-0.03,-0.02,-0.01,29.37
28513219,1892,1,208243,255056,-0.50,-1.72,9.56,-0.04,0.06,-0.01,29.37
28553205,1905,1,208891,256190,-0.87,-1.68,11.05,-0.04,0.04,-0.01,29.37
28592203,1872,1,208825,257047,-0.58,-1.49,9.54,-0.00,0.00,-0.01,29.37
28632205,1927,1,209844,258867,-1.10,-1.78,11.54,-0.05,0.07,-0.00,29.37
28672205,1869,1,209975,259923,-0.43,-1.02,9.53,-0.02,-0.03,-0.01,29.37
28712220,1904,1,210777,261155,-0.42,-1.30,10.95,-0.05,0.04,-0.01,29.37
28752205,1898,1,210779,261081,-0.01,-0.86,8.60,-0.05,-0.04,-0.02,29.37
28792219,1906,1,211061,262032,-1.02,-2.34,11.55,-0.07,0.04,-0.02,29.37
28832206,1892,1,211281,262134,0.21,0.04,9.19,-0.01,-0.05,-0.58,29.37
28872185,1904,1,211543,262134,-1.28,-2.41,12.05,-0.08,0.03,-0.03,29.37
28912205,1914,1,210978,261389,-0.33,-0.55,10.12,-0.04,-0.03,-0.08,29.37
28952222,1906,1,210630,261272,-0.33,-1.83,13.15,-0.07,-0.05,-0.01,29.37
28992219,1925,1,210045,259241,0.50,-0.52,9.04,-0.04,-0.06,-0.01,29.37
29032202,1881,1,209028,257767,-0.67,-2.11,12.48,-0.08,-0.06,-0.00,29.37
29072215,1939,1,208247,256467,0.08,-0.86,8.55,-0.04,-0.02,-0.01,29.37
29112202,1909,1,207707,254429,0.03,-1.61,10.93,-0.08,-0.08,-0.01,29.37
29152202,1923,1,206890,253519,0.45,-1.07,9.03,-0.05,-0.05,-0.01,29.37
29192889,1919,1,206813,252752,0.17,-1.43,10.26,-0.07,-0.06,-0.00,29.19
29231201,1921,1,206344,252286,0.55,-0.93,8.19,-0.00,-0.04,-0.00,29.19
29271201,1915,1,206476,252219,0.65,-1.38,9.42,-0.04,-0.04,-0.00,29.19
29311201,1939,1,206702,253622,0.41,-1.00,8.25,0.01,-0.01,0.00,29.19
29351172,1922,1,207792,256054,0.74,-1.44,9.88,-0.01,-0.03,-0.00,29.19
29391206,1919,1,209093,259029,0.08,-1.13,9.72,0.02,-0.00,0.00,29.19
29431172,1882,1,209864,260159,0.32,-1.54,9.10,0.02,-0.06,-0.00,29.19
29471182,1907,1,210372,260976,0.07,-0.74,11.15,0.04,-0.02,0.00,29.19
29511172,1914,1,210230,260966,1.01,-0.88,10.88,0.04,-0.08,0.00,29.19
29551171,1923,1,210333,260816,-0.01,-1.37,10.92,0.04,0.01,0.00,29.19
29592177,1895,1,209841,260383,0.30,-1.25,10.09,0.03,-0.10,0.00,29.19
29632172,1889,1,209682,259525,0.48,-0.72,11.45,0.00,-0.03,0.00,29.19
29672172,1889,1,208582,256399,0.36,-0.98,10.28,0.01,-0.06,0.01,29.19
29712171,1893,1,207968,256558,0.79,-1.10,11.60,-0.01,-0.04,0.00,29.19
29752182,1906,1,208213,257219,0.29,-0.87,10.85,-0.04,-0.06,0.01,29.19
29792206,1874,1,207941,257205,0.81,-1.04,11.19,-0.02,-0.04,0.00,29.19
29832181,1891,1,207952,255883,0.43,-0.94,10.47,-0.04,-0.04,0.01,29.19
29872181,1885,1,206887,253570,0.71,-1.03,9.33,-0.03,-0.07,0.00,29.19
29912180,1890,1,206531,252346,0.37,-1.35,9.36,-0.06,-0.01,0.00,29.19
29952180,1886,1,205996,250563,0.89,-0.51,6.98,-0.00,-0.07,0.00,29.19
29992194,1904,1,205576,249954,0.58,-1.56,10.03,-0.04,0.03,0.08,29.19
30032171,1936,1,205436,249537,0.62,-1.23,7.75,-0.01,0.04,0.06,29.19
30072172,1936,1,205978,251113,0.63,-1.04,9.33,-0.01,0.03,0.01,29.19
30112171,1942,1,207054,253041,0.65,-0.84,8.66,0.02,0.04,0.01,29.19
30152152,1907,1,208194,255598,0.62,-1.09,10.48,0.01,0.03,0.01,29.19
30192151,1901,1,208948,257759,0.41,-1.12,9.28,0.02,0.05,0.01,29.19
30232840,1898,1,209495,258571,0.92,-1.19,9.86,0.01,0.02,0.01,29.19
30271151,1872,1,209695,259693,0.06,-1.21,10.44,0.00,0.06,0.01,29.19
30311153,1873,1,209973,258879,0.64,-0.65,10.91,0.00,0.01,0.01,29.19
30351151,1884,1,209633,259541,0.22,-1.14,11.82,-0.00,0.02,0.02,29.19
30391171,1904,1,209988,260206,0.45,-1.18,10.75,-0.02,0.00,0.01,29.19
30431172,1869,1,209904,259842,0.26,-1.24,11.96,-0.04,-0.06,0.01,29.19
30471183,1886,1,209668,260072,-0.24,-1.48,12.90,-0.06,0.02,0.01,29.19
30511184,1878,1,209412,258910,0.17,-0.83,11.15,-0.06,-0.08,0.01,29.19
30551184,1859,1,208939,258725,-0.49,-1.48,12.47,-0.07,-0.03,0.01,29.19
30591202,1881,1,208505,256088,0.44,-1.11,9.18,-0.07,-0.05,0.01,29.19
30630184,1909,1,207545,253968,0.70,-1.33,10.76,-0.07,-0.07,0.01,29.19
30670181,1936,1,206840,252200,0.41,-1.44,7.56,-0.06,-0.06,0.01,29.19
30710184,1937,1,206412,251648,0.29,-1.47,8.71,-0.05,-0.05,0.01,29.19
30750180,1955,1,206521,251326,0.29,-0.96,7.41,-0.04,-0.02,0.01,29.19
30790184,1943,1,206819,252619,0.47,-1.18,9.78,-0.02,-0.00,0.01,29.19
30830182,1940,1,207832,255643,0.10,-2.07,9.67,-0.02,0.01,0.01,29.19
30870171,1914,1,208830,257917,0.02,-1.38,8.68,0.01,-0.04,0.01,29.19
30910172,1919,1,209679,259517,-0.40,-1.67,10.64,0.00,0.01,0.02,29.19
30950172,1909,1,209882,258175,0.43,-0.64,9.40,0.03,-0.02,0.01,29.19
30990171,1903,1,208662,254780,-0.02,-1.26,10.37,-0.02,-0.03,0.01,29.19
31030205,1905,1,207189,252500,0.69,-0.87,8.17,0.02,-0.02,0.00,29.19
31070172,1919,1,206959,252176,-0.42,-1.45,11.21,-0.03,-0.02,0.01,29.19
31110205,1911,1,206472,251436,0.49,-0.50,9.20,0.01,-0.02,0.01,29.19
31150171,1895,1,206341,251796,0.04,-1.35,11.76,-0.05,-0.01,0.01,29.19
31190184,1939,1,206151,252422,0.72,-0.76,9.03,-0.01,-0.03,0.01,29.19
31230195,1920,1,206693,254761,0.32,-1.56,12.02,-0.06,-0.02,0.01,29.19
31270866,1933,1,207345,255324,0.57,-1.00,10.93,-0.04,-0.00,0.01,29.05
31311177,1869,1,207389,255870,0.26,-1.51,11.10,-0.06,-0.02,0.01,29.05
31351179,1894,1,207544,255275,0.24,-0.91,9.67,-0.06,0.04,0.01,29.05
31391170,1871,1,207284,254931,0.28,-1.48,10.24,-0.07,-0.04,0.00,29.05
31431179,1905,1,207492,255186,0.01,-0.94,9.94,-0.07,0.06,0.01,29.05
31471169,1884,1,207583,255237,0.05,-1.48,9.86,-0.08,-0.02,0.00,29.05
31511179,1888,1,207509,254667,-0.27,-0.89,8.51,-0.05,0.02,0.01,29.05
31551180,1901,1,207342,253691,0.18,-1.19,9.08,-0.08,-0.01,0.01,29.05
31591180,1902,1,207131,254400,-0.16,-1.40,10.43,-0.07,0.06,0.01,29.05
31631180,1915,1,207151,252379,0.48,-1.03,8.22,-0.05,0.01,0.01,29.05
31671171,1883,1,206495,251617,-0.31,-1.69,10.98,-0.06,0.05,0.02,29.05
31711181,1907,1,206435,251157,0.12,-1.30,8.80,-0.04,0.04,0.01,29.05
31751171,1905,1,206263,251574,-0.17,-1.47,10.28,-0.04,-0.01,0.02,29.05
31791202,1943,1,206676,253324,-0.07,-1.52,9.54,-0.03,0.05,0.01,29.05
31831184,1943,1,207792,256247,-0.26,-1.17,10.75,-0.02,0.02,0.02,29.05
31871185,1903,1,209175,259541,-0.13,-2.11,12.01,-0.04,0.00,0.02,29.05
31911185,1914,1,209735,259027,-0.09,-0.81,9.19,-0.01,-0.08,0.01,29.05
31951203,1891,1,209267,259224,-0.49,-2.06,12.14,-0.04,-0.03,0.02,29.05
31991205,1954,1,209540,259299,-0.32,-1.21,10.66,-0.02,-0.06,0.01,29.05
32031206,1842,1,209262,259224,-0.64,-1.99,11.83,-0.00,-0.12,0.01,29.05
32069205,1925,1,209182,258038,-0.43,-0.92,9.78,-0.01,-0.04,0.02,29.05
32109203,1909,1,208518,256177,-0.24,-1.53,11.69,-0.01,-0.14,0.01,29.05
32149205,1919,1,207679,255048,-0.23,-1.74,8.63,0.01,-0.08,0.02,29.05
32189185,1923,1,208206,256395,-0.14,-2.14,10.19,-0.03,-0.07,0.01,29.05
32229206,1925,1,208675,257561,0.44,-1.34,8.06,0.04,-0.12,-0.00,29.05
32269183,1897,1,209607,259371,0.07,-0.42,9.48,-0.00,-0.06,0.01,29.05
32309872,1924,1,210105,259947,-0.12,-1.83,7.86,0.05,-0.07,0.00,29.05
32350183,1904,1,210284,260040,1.24,-0.42,11.00,0.02,-0.11,-0.01,29.05
32390184,1938,1,210805,259614,-1.78,-1.91,11.59,0.02,0.06,0.02,29.05
32430172,1865,1,209927,258865,-0.19,-2.26,9.34,0.04,-0.09,-0.00,29.05
32470205,1891,1,210960,259968,-0.98,-1.83,11.84,-0.03,0.02,0.01,29.05
32510184,1909,1,210723,261417,-0.07,-0.82,8.02,0.03,-0.03,-0.14,29.05
32550205,1917,1,211427,260719,-0.49,-2.53,10.61,0.01,-0.03,-0.12,29.05
32590206,1851,1,209764,260845,1.38,0.29,10.14,-0.02,-0.08,-0.05,29.05
32630184,2015,1,210537,260095,-1.68,-2.12,11.80,-0.05,0.12,-0.01,29.05
32670206,1834,1,208409,257515,1.16,-0.27,6.13,0.01,-0.20,-0.04,29.05
32710182,1957,1,208559,257379,0.29,-2.18,14.29,-0.17,0.08,-0.02,29.05
32750181,1904,1,207155,255406,-0.13,-0.84,4.04,-0.04,0.06,-0.00,29.05
32790202,1904,1,207271,252730,-0.22,-2.52,10.74,-0.13,0.02,-0.01,29.05
32830202,1872,1,205520,250765,0.67,0.81,6.35,-0.11,0.20,0.55,29.05
32870151,1942,1,205361,250137,0.97,-2.31,8.76,-0.15,0.04,0.02,29.05
32910171,1917,1,206087,250412,-0.01,-1.42,9.72,-0.10,0.24,0.67,29.05
32950182,1946,1,206142,250272,1.22,-1.44,8.26,-0.09,0.05,-0.01,29.05
32990181,1926,1,206270,250339,-2.33,-2.34,9.60,-0.08,0.25,0.09,29.05
33030184,1914,1,205897,249606,0.28,-1.45,8.00,-0.05,0.07,-0.02,29.05
33070181,1963,1,205747,250359,-1.54,-1.49,11.57,-0.10,0.19,-0.00,29.05
33110205,1969,1,205901,250392,0.11,-1.17,7.81,-0.05,0.13,-0.01,29.05
33150182,1919,1,206057,250415,-1.45,-2.14,12.46,-0.08,0.14,0.00,29.05
33190184,1930,1,205410,248661,-0.42,-1.67,8.66,-0.06,0.09,-0.01,29.05
33230206,1887,1,205075,247702,-1.44,-1.80,12.12,-0.09,0.08,-0.00,29.05
33270208,1906,1,204899,247834,-0.48,-1.72,10.76,-0.06,0.07,-0.01,29.05
33310890,1920,1,205188,248237,-1.55,-2.13,11.93,-0.09,0.06,-0.01,29.03
33349205,1911,1,205106,248269,-0.93,-2.16,9.96,-0.05,-0.00,-0.01,29.03
33389219,1876,1,205089,248386,-1.51,-2.08,11.43,-0.08,0.02,-0.01,29.03
33429205,1894,1,204772,248106,-1.00,-1.56,9.97,-0.04,-0.01,-0.02,29.03
33469219,1904,1,204741,248762,-1.31,-2.01,10.71,-0.04,0.02,-0.01,29.03
33509205,1898,1,205115,249963,-0.92,-1.69,9.58,-0.02,-0.03,-0.02,29.03
33549219,1886,1,205739,251409,-0.94,-1.88,10.99,-0.02,-0.03,-0.01,29.03
33589222,1919,1,206420,253469,-0.91,-1.89,9.34,0.01,-0.07,-0.01,29.03
33629206,1895,1,207554,256014,-1.01,-2.25,10.20,0.00,-0.07,-0.01,29.03
33669205,1904,1,208665,257823,-0.88,-1.47,9.33,0.04,-0.09,-0.01,29.03
33708206,1869,1,209021,258201,-0.49,-1.37,10.22,0.04,-0.08,-0.01,29.03
33748205,1877,1,209267,258324,-0.88,-1.69,9.93,0.04,-0.04,-0.01,29.03
33788205,1857,1,209215,257681,-0.56,-1.98,9.41,0.04,-0.10,-0.01,29.03
33828206,1879,1,209046,258051,-0.72,-1.75,9.53,0.04,-0.10,-0.01,29.03
33868206,1873,1,209501,258824,-0.43,-1.21,10.14,0.04,-0.11,-0.01,29.03
33908206,1882,1,209645,259554,-0.47,-1.38,10.22,0.05,-0.09,-0.01,29.03
33948206,1891,1,210065,260540,-0.51,-1.76,10.23,0.03,-0.08,-0.01,29.03
33988205,1910,1,210262,260219,-0.06,-1.59,9.71,0.03,-0.14,-0.02,29.03
34028205,1909,1,209752,260038,-0.49,-1.56,11.03,0.04,-0.08,-0.01,29.03
34068205,1885,1,209796,259799,-0.22,-1.45,10.34,0.04,-0.09,-0.02,29.03
34108205,1881,1,209529,259849,-0.29,-1.57,10.54,0.03,-0.10,-0.01,29.03
34148206,1918,1,209451,259235,-0.31,-1.65,10.26,0.02,-0.05,-0.02,29.03
34188205,1893,1,208840,258785,-0.16,-1.64,11.19,0.02,-0.11,-0.02,29.03
34228205,1930,1,208794,258983,-0.23,-1.48,10.99,0.01,-0.04,-0.01,29.03
34268205,1904,1,208740,259086,-0.29,-1.12,10.15,-0.00,-0.07,-0.01,29.03
34308222,1923,1,208712,258609,-0.20,-1.60,10.56,-0.01,-0.03,-0.01,29.03
34348906,1908,1,208287,257695,0.10,-1.00,10.75,-0.03,-0.08,-0.01,29.09
34389205,1904,1,207842,257674,-0.05,-1.75,11.25,-0.05,-0.03,-0.01,29.09
34429219,1919,1,207793,256975,-0.01,-1.13,9.53,-0.06,-0.06,-0.01,29.09
34469222,1925,1,207269,256176,-0.13,-1.54,9.76,-0.06,-0.03,-0.00,29.09
34509219,1920,1,206944,254856,0.10,-0.85,8.53,-0.07,-0.04,-0.00,29.09
34549205,1925,1,206448,253905,0.38,-1.40,9.41,-0.07,-0.04,-0.00,29.09
34589203,1906,1,206426,254039,0.02,-1.54,8.94,-0.08,0.00,-0.00,29.09
34629185,1936,1,206367,253972,0.31,-1.37,8.17,-0.06,-0.03,-0.00,29.09
34669205,1949,1,206654,255281,-0.07,-0.96,9.05,-0.05,0.04,0.00,29.09
34709222,1962,1,207042,255534,0.48,-1.11,9.07,-0.03,0.01,0.00,29.09
34749171,1935,1,207237,256431,0.57,-1.61,10.09,-0.03,0.01,0.00,29.09
34789172,1927,1,207522,255555,0.06,-1.88,9.59,-0.01,0.06,0.00,29.09
34829172,1936,1,206813,253946,-0.02,-1.30,9.77,-0.01,-0.00,0.01,29.09
34869205,1910,1,206891,254130,0.43,-1.20,9.92,0.00,0.06,0.00,29.09
34909189,1875,1,207234,255382,0.09,-1.16,10.54,-0.01,0.05,0.01,29.09
34949171,1914,1,207647,256290,0.59,-1.72,10.71,-0.00,0.03,-0.00,29.09
34989183,1917,1,208054,258082,-0.13,-1.30,11.20,-0.03,0.02,0.00,29.09
35029184,1904,1,208380,258700,0.28,-1.70,11.26,-0.02,-0.00,-0.00,29.09
35069203,1882,1,208367,258672,0.34,-1.03,11.55,-0.05,0.00,-0.00,29.09
35109184,1901,1,207833,257820,0.87,-1.45,11.03,-0.05,-0.00,-0.01,29.09
35149202,1908,1,207514,257594,0.32,-1.49,11.66,-0.07,0.01,-0.00,29.09
35189181,1908,1,207275,257072,0.79,-1.20,10.76,-0.07,-0.02,-0.00,29.09
35229201,1904,1,207260,256971,0.14,-1.29,11.31,-0.08,0.01,-0.00,29.09
35269179,1887,1,207258,256096,0.83,-0.85,9.70,-0.08,-0.04,-0.01,29.09
35309197,1899,1,206972,254558,0.87,-1.21,9.83,-0.09,0.00,-0.00,29.09
35349865,1908,1,206642,253909,0.64,-1.31,9.84,-0.09,0.03,-0.00,28.95
35388177,1927,1,206425,253746,0.35,-1.10,8.63,-0.06,-0.01,-0.00,28.95
35428200,1903,1,206464,253417,0.15,-1.19,9.76,-0.06,0.04,0.00,28.95
35468168,1907,1,206236,252794,0.37,-1.14,8.32,-0.05,0.02,0.00,28.95
35508171,1925,1,206191,252461,0.24,-1.59,9.79,-0.05,0.08,0.00,28.95
35548171,1909,1,205699,250674,0.32,-1.32,8.77,-0.03,0.04,0.00,28.95
35588172,1907,1,205325,250313,-0.11,-1.35,9.48,-0.03,0.05,0.01,28.95
35628185,1931,1,205431,251131,-0.12,-1.39,8.43,-0.01,0.02,0.01,28.95
35668184,1917,1,206088,252380,0.40,-1.27,9.00,-0.01,-0.00,0.00,28.95
35708182,1933,1,206861,254523,-0.02,-1.51,9.45,0.00,0.05,0.00,28.95
35748171,1915,1,207793,256437,0.23,-1.64,8.99,-0.01,-0.02,0.00,28.95
35788183,1903,1,208919,259203,-0.12,-1.56,10.03,-0.00,0.03,0.01,28.95
35828184,1887,1,209823,259975,0.17,-1.45,8.95,-0.00,-0.02,-0.00,28.95
35868204,1888,1,210004,260452,0.49,-1.38,10.32,0.00,-0.02,-0.00,28.95
35908184,1908,1,210264,261220,0.38,-1.66,10.64,-0.01,0.00,-0.01,28.95
35948185,1920,1,210362,261200,0.20,-1.99,10.16,-0.02,-0.05,-0.01,28.95
35988205,1885,1,210229,261187,0.28,-1.46,10.50,-0.02,-0.03,-0.01,28.95
36028206,1918,1,209785,260277,0.77,-1.29,10.03,-0.03,-0.08,-0.01,28.95
36068205,1918,1,209234,259997,0.60,-1.02,11.27,-0.02,-0.03,-0.01,28.95
36108206,1920,1,208966,259353,0.77,-1.40,10.62,-0.03,-0.05,-0.01,28.95
36148206,1910,1,208550,258940,0.32,-1.37,10.30,-0.04,-0.04,-0.00,28.95
36188203,1917,1,208154,257881,0.73,-1.02,9.25,-0.06,-0.09,-0.01,28.95
36228206,1905,1,207613,257331,0.61,-1.16,10.10,-0.06,-0.05,-0.00,28.95
36268206,1931,1,207706,257777,0.50,-1.32,10.29,-0.06,-0.03,-0.00,28.95
36308205,1899,1,207388,255333,0.58,-1.38,8.81,-0.05,-0.06,-0.01,28.95
36348251,1906,1,206459,252891,0.07,-1.27,8.84,-0.07,-0.04,-0.00,28.95
36388893,1900,1,205748,250965,0.86,-0.80,7.83,-0.05,-0.08,-0.01,29.09
36427203,1904,1,205599,252101,0.16,-1.59,10.52,-0.06,0.04,0.00,29.09
36467172,1936,1,205955,252744,0.72,-1.42,7.09,-0.04,-0.02,-0.01,29.09
36507206,1907,1,206870,255802,-0.42,-2.08,10.33,-0.06,0.02,0.01,29.09
36547212,1903,1,207777,256682,0.41,-1.52,8.07,-0.02,-0.01,-0.00,29.09
36587203,1869,1,208192,258195,0.31,-1.63,10.83,-0.03,-0.03,0.00,29.09
36627184,1935,1,208714,259361,0.30,-1.83,10.09,0.00,0.06,0.00,29.09
36667151,1882,1,209093,259824,0.19,-1.75,10.45,-0.01,-0.02,0.00,29.09
36707184,1913,1,209225,260236,0.05,-1.79,9.98,0.02,0.01,0.01,29.09
36747151,1885,1,209519,260334,0.09,-1.30,11.04,-0.01,-0.04,0.00,29.09
36787184,1916,1,209429,260768,0.10,-1.43,11.55,0.00,0.01,0.00,29.09
36827151,1881,1,209565,260715,-0.17,-1.61,11.06,-0.03,-0.04,0.01,29.09
36867205,1899,1,209376,260677,-0.40,-1.85,11.07,-0.04,-0.03,0.01,29.09
36907205,1908,1,209209,260109,-0.23,-1.36,10.48,-0.04,-0.05,0.00,29.09
36947205,1897,1,208772,259610,-0.04,-1.31,11.38,-0.05,-0.02,0.00,29.09
36987205,1922,1,208481,259112,-0.15,-1.50,9.78,-0.06,-0.02,-0.00,29.09
37027220,1899,1,208050,258308,-0.08,-1.67,9.69,-0.07,-0.06,-0.00,29.09
37067219,1931,1,207550,255912,0.00,-1.66,9.57,-0.07,-0.02,-0.00,29.09
37107205,1895,1,206342,252387,0.44,-1.25,9.40,-0.06,-0.02,-0.00,29.09
37147203,1917,1,205669,251809,0.77,-1.59,9.27,-0.04,-0.00,-0.00,29.09
37187205,1936,1,206017,252586,0.38,-1.89,9.69,-0.04,0.02,-0.00,29.09
37227182,1918,1,206270,253364,0.37,-1.69,9.43,-0.03,-0.02,0.00,29.09
37267184,1923,1,206613,254055,0.32,-1.32,9.10,-0.01,-0.00,0.00,29.09
37307182,1911,1,207157,255400,0.85,-0.91,9.68,-0.01,-0.01,-0.00,29.09
37347205,1918,1,207962,257975,0.05,-1.59,9.57,-0.01,0.03,0.00,29.09
37387171,1911,1,209140,260157,0.47,-1.38,9.13,-0.02,-0.03,-0.00,29.09
37427893,1920,1,210187,261864,0.04,-1.44,9.28,-0.03,0.00,-0.00,29.09
37466182,1927,1,210866,262143,0.50,-0.91,9.19,-0.02,-0.01,-0.01,29.09
37506205,1904,1,211063,262143,0.52,-1.42,10.57,-0.03,0.01,-0.01,29.09
37546184,1911,1,211222,262143,0.47,-1.38,9.86,-0.02,0.01,-0.00,29.09
37586184,1913,1,211557,262143,0.49,-1.83,10.79,-0.04,-0.01,-0.01,29.09
37626206,1918,1,211561,262143,0.72,-1.05,10.60,-0.03,-0.01,-0.01,29.09
37666206,1899,1,210956,262143,1.19,-1.02,11.18,-0.03,-0.05,-0.01,29.09
37706205,1934,1,210397,262143,0.22,-1.36,11.80,-0.04,0.02,-0.00,29.09
37746184,1922,1,209891,261044,0.69,-1.56,9.92,-0.07,-0.09,-0.01,29.09
37786205,1904,1,209099,260341,0.29,-1.19,10.71,-0.08,-0.05,-0.00,29.09
37826205,1935,1,208640,259168,0.55,-0.85,8.86,-0.08,-0.02,-0.01,29.09
37866205,1903,1,207423,255169,0.38,-1.46,9.87,-0.10,-0.03,-0.00,29.09
37906206,1941,1,206229,252868,0.28,-1.64,8.04,-0.09,-0.01,-0.00,29.09
37946203,1903,1,205888,253057,0.01,-1.73,9.15,-0.08,-0.01,-0.00,29.09
37986246,1904,1,206196,252983,0.21,-1.29,8.12,-0.06,0.01,-0.00,29.09
38026184,1902,1,206286,253602,0.29,-1.72,10.21,-0.06,0.02,-0.00,29.09
38066184,1905,1,206777,255116,0.13,-2.02,9.28,-0.03,0.04,0.00,29.09
38106172,1920,1,207446,256191,0.26,-2.09,9.19,-0.02,-0.01,-0.00,29.09
38146205,1917,1,208170,258073,-0.33,-1.36,9.83,-0.01,0.04,0.00,29.09
38186219,1929,1,208743,257990,0.12,-1.24,8.99,0.00,-0.00,-0.00,29.09
38226185,1927,1,208636,258454,-0.34,-1.95,10.55,-0.02,0.03,-0.00,29.09
38266206,1936,1,208792,259514,-0.40,-1.62,8.53,-0.03,0.00,-0.00,29.09
38306206,1933,1,209529,260652,-0.71,-1.87,9.95,-0.04,0.02,-0.00,29.09
38346203,1913,1,209858,261192,-0.35,-1.15,9.36,-0.02,0.04,-0.00,29.09
38386205,1915,1,209739,260426,-0.08,-2.00,11.38,-0.04,0.02,-0.01,29.09
38426203,1885,1,209124,260525,0.12,-1.57,11.17,-0.01,0.02,-0.01,29.09
38466871,1904,1,209234,260574,-0.09,-1.75,10.86,-0.03,0.03,-0.01,28.97
38507206,1867,1,209403,261287,-0.56,-1.41,11.99,-0.04,0.05,-0.01,28.97
38547205,1904,1,209603,260918,-0.15,-1.44,11.26,-0.06,-0.00,-0.02,28.97
38585220,1883,1,209201,260640,-0.20,-1.44,12.74,-0.06,-0.02,-0.02,28.97
38625222,1925,1,208972,259016,-0.22,-1.60,10.31,-0.07,0.01,-0.02,28.97
38665206,1871,1,208003,256716,-0.39,-1.45,10.31,-0.09,-0.04,-0.02,28.97
38705222,1918,1,207751,256067,-0.18,-1.43,8.76,-0.10,0.02,-0.02,28.97
38745206,1920,1,207556,254575,-0.11,-1.81,9.33,-0.11,-0.01,-0.02,28.97
38785222,1915,1,207057,254207,0.09,-2.04,8.25,-0.07,0.02,-0.02,28.97
38825183,1942,1,207317,254514,0.29,-1.82,7.86,-0.07,0.01,-0.02,28.97
38865184,1936,1,207978,256258,0.08,-1.53,9.20,-0.02,0.07,-0.01,28.97
38905183,1953,1,209181,257886,0.38,-1.84,8.47,-0.02,0.00,-0.02,28.97
38945184,1929,1,210563,260007,-0.09,-1.60,9.94,-0.01,0.03,-0.01,28.97
38985204,1925,1,211799,261569,0.21,-2.57,8.69,0.04,-0.04,-0.22,28.97
39025199,1923,1,211994,261455,-0.30,-0.76,8.88,0.02,-0.02,-0.19,28.97
39065203,1886,1,211712,262027,-0.49,-2.16,9.27,0.00,0.03,-0.01,28.97
39105185,1920,1,211620,261508,-0.22,-2.03,8.71,-0.01,-0.04,-0.02,28.97
39145219,1898,1,211580,262143,-0.36,-1.91,10.25,0.00,0.02,-0.01,28.97
39185185,1899,1,212640,262143,-0.57,-1.72,9.78,0.01,0.04,-0.02,28.97
39225185,1902,1,212788,260060,-0.37,-1.89,10.44,0.01,0.02,-0.01,28.97
39265184,1885,1,211201,259157,-0.77,-2.13,11.38,0.00,0.01,-0.02,28.97
39305185,1867,1,210057,259310,-0.26,-1.45,11.77,-0.00,-0.06,-0.02,28.97
39345222,1893,1,209831,259271,-1.06,-1.55,12.67,-0.01,0.02,-0.02,28.97
39425222,1891,1,209161,258975,-1.11,-2.16,13.16,-0.07,-0.02,-0.03,28.97
39465219,1893,1,208435,257850,-0.79,-1.33,11.15,-0.09,-0.10,-0.12,28.97
39505909,1892,1,207496,256913,-0.54,-1.98,11.96,-0.10,-0.05,-0.03,28.95
39546219,1898,1,206844,255623,-0.21,-1.67,9.64,-0.08,-0.05,-0.03,28.95
39586222,1907,1,205910,253991,-0.09,-2.07,9.90,-0.09,-0.06,-0.03,28.95
39626233,1917,1,204951,252263,-0.04,-1.82,7.94,-0.09,-0.07,-0.03,28.95
39666221,1941,1,204484,251944,0.33,-1.07,8.36,-0.08,-0.08,-0.03,28.95
39706204,1933,1,205060,254465,-0.33,-1.16,8.82,-0.06,0.02,-0.02,28.95
39746206,1918,1,206173,256101,0.19,-2.32,8.23,-0.08,-0.04,-0.03,28.95
39786206,1950,1,207104,257558,-0.06,-1.98,8.69,-0.04,-0.02,-0.02,28.95
39826254,1901,1,207497,257788,0.83,-1.87,7.64,-0.02,-0.07,-0.10,28.95
39866206,1920,1,207504,257792,0.79,-1.49,9.56,0.02,-0.01,-0.01,28.95
39906184,1915,1,207526,258361,0.59,-1.61,9.30,0.04,-0.01,-0.01,28.95
39946182,1923,1,207866,258735,0.25,-1.68,8.95,0.03,-0.02,-0.01,28.95
39986184,1917,1,208133,259068,-0.09,-1.45,9.30,0.04,-0.02,-0.00,28.95
40026226,1876,1,207784,258045,0.38,-0.85,8.91,0.04,-0.08,-0.01,28.95
40066184,1904,1,206990,256490,-0.26,-1.66,10.66,0.02,-0.00,-0.01,28.95
40106206,1915,1,205791,254358,0.12,-1.75,8.95,0.01,-0.06,-0.01,28.95
40146185,1919,1,205340,254232,-0.20,-1.64,9.75,0.01,-0.02,-0.01,28.95
40186206,1924,1,205055,253694,0.49,-1.55,9.48,0.01,-0.06,-0.01,28.95
40226184,1945,1,204716,254137,0.42,-1.46,10.95,0.00,-0.02,-0.02,28.95
40266185,1931,1,204755,254579,0.14,-1.58,11.20,0.00,-0.03,-0.01,28.95
40306184,1905,1,204589,254761,0.46,-1.29,10.40,0.00,-0.06,-0.01,28.95
40344185,1921,1,204860,254899,-0.13,-1.84,11.29,-0.02,-0.01,-0.01,28.95
40384222,1900,1,204696,254637,1.02,-0.80,10.22,-0.02,-0.05,-0.01,28.95
40424204,1923,1,204918,254910,-0.01,-1.63,11.80,-0.06,0.02,-0.01,28.95
40464206,1923,1,204872,254145,0.61,-1.12,8.97,-0.04,-0.06,-0.01,28.95
40504206,1922,1,204874,253606,-0.14,-1.37,10.50,-0.09,0.01,-0.01,28.95
40544893,1904,1,204432,251816,0.47,-0.71,8.07,-0.07,-0.03,-0.01,28.75
40585203,1931,1,204214,251191,0.38,-1.83,10.04,-0.09,0.01,-0.01,28.75
40625184,1915,1,203895,250414,0.76,-0.98,9.07,-0.08,0.01,-0.01,28.75
40665182,1904,1,203651,250524,0.36,-1.49,9.22,-0.05,0.06,0.00,28.75
40705171,1921,1,203453,250187,0.87,-0.87,8.43,-0.04,0.02,0.00,28.75
40745171,1917,1,203553,250600,0.66,-1.62,10.72,-0.07,0.02,0.00,28.75
40785172,1911,1,203443,249281,0.28,-1.28,9.20,-0.03,0.02,0.00,28.75
40825171,1897,1,203494,250693,0.33,-1.65,10.14,-0.04,0.01,0.01,28.75
40865171,1904,1,204061,251671,0.69,-1.04,8.84,-0.02,0.04,0.01,28.75
40905171,1894,1,204437,252535,0.57,-1.54,10.12,-0.03,0.02,0.00,28.75
40945172,1898,1,204904,253549,1.06,-1.43,10.43,-0.02,0.03,0.01,28.75
40985172,1909,1,205254,254750,0.69,-1.23,10.15,-0.01,-0.01,0.01,28.75
41025199,1893,1,205802,256141,0.59,-1.10,10.73,-0.00,0.02,0.01,28.75
41065171,1915,1,206094,255961,0.64,-1.15,10.52,-0.01,-0.01,0.01,28.75
41105184,1891,1,205484,254772,0.43,-1.48,10.47,-0.03,-0.03,0.01,28.75
41145185,1905,1,204709,253356,0.19,-1.40,9.18,-0.04,-0.05,0.01,28.75
41185184,1925,1,204524,252603,0.20,-1.31,9.93,-0.04,-0.03,0.01,28.75
41225183,1917,1,204128,251246,0.10,-1.44,8.02,-0.03,-0.02,0.01,28.75
41265186,1904,1,203651,249607,0.44,-2.22,8.28,-0.05,-0.07,0.00,28.75
41305185,1919,1,202985,248114,0.46,-1.50,7.92,-0.02,-0.03,0.01,28.75
41345184,1926,1,202585,247655,0.44,-1.56,8.87,-0.01,-0.00,0.01,28.75
41385183,1933,1,202657,248153,0.75,-1.28,7.87,0.03,0.01,0.01,28.75
41425153,1905,1,203578,249681,-0.03,-1.96,8.84,0.02,0.02,0.02,28.75
41465197,1916,1,204188,249221,0.41,-1.13,8.67,0.04,-0.02,0.02,28.75
41505171,1917,1,204092,248907,-0.28,-1.40,8.94,0.03,0.01,0.02,28.75
41545859,1909,1,204470,250129,0.01,-1.41,9.24,0.02,0.01,0.02,28.77
41584152,1904,1,205568,252220,-0.31,-1.66,10.26,0.01,0.06,0.02,28.77
41624171,1895,1,206099,253447,-0.17,-1.38,9.40,0.01,-0.01,0.02,28.77
41664185,1893,1,206432,255311,0.24,-1.35,11.01,-0.00,-0.00,0.01,28.77
41705185,1904,1,206782,256442,0.42,-0.91,12.09,0.01,-0.00,0.02,28.77
41745171,1895,1,206551,256345,0.61,-1.05,11.93,-0.02,-0.02,0.02,28.77
41785185,1899,1,206458,256647,0.32,-1.22,12.29,-0.04,-0.02,0.01,28.77
41825184,1870,1,206138,255566,0.25,-0.78,10.74,-0.06,-0.04,0.01,28.77
41865185,1878,1,205475,255338,0.24,-0.91,12.39,-0.08,-0.03,0.01,28.77
41905184,1904,1,205066,254831,0.73,-1.05,10.10,-0.10,-0.05,0.01,28.77
41945183,1893,1,205039,254961,0.09,-1.52,11.05,-0.11,-0.01,0.01,28.77
41983184,1919,1,205036,254345,0.84,-1.22,9.39,-0.11,-0.05,0.01,28.77
42023200,1922,1,204733,254059,1.12,-0.94,9.03,-0.09,-0.04,0.01,28.77
42063185,1946,1,204822,253390,1.54,-0.95,9.38,-0.07,-0.03,0.02,28.77
42103185,1930,1,204597,253111,1.09,-1.30,8.42,-0.06,-0.03,0.02,28.77
42143185,1936,1,204324,249489,1.14,-1.01,7.89,-0.05,-0.05,0.02,28.77
42183185,1946,1,202843,247146,1.12,-0.74,7.88,-0.02,-0.05,0.03,28.77
42223184,1945,1,202620,246855,0.97,-1.13,8.56,-0.01,-0.01,0.02,28.77
42263185,1920,1,202667,247199,0.90,-1.22,9.41,-0.00,-0.01,0.04,28.77
42303184,1927,1,202601,247165,1.13,-1.23,8.49,0.03,-0.03,0.04,28.77
42343171,1936,1,202512,246967,1.03,-1.19,8.94,0.04,-0.06,0.05,28.77
42383172,1936,1,202414,246953,1.58,-0.49,8.52,0.02,0.04,0.67,28.77
42423150,1936,1,202459,247234,0.76,-1.20,9.23,0.05,-0.05,0.08,28.77
42463171,1919,1,202670,248442,0.57,-1.24,9.70,0.05,0.02,0.36,28.77
42503151,1914,1,203340,249783,0.46,-0.83,9.37,0.05,-0.06,0.05,28.77
42543171,1890,1,204015,251811,0.59,-0.63,9.90,0.05,0.00,0.16,28.77
42583837,1949,1,204987,253524,0.56,-1.11,9.71,0.04,-0.01,0.05,28.85
42624171,1998,1,205440,254566,0.96,-0.91,10.86,0.04,-0.04,0.05,28.85
42664171,1911,1,205668,255230,1.32,-0.75,11.83,0.03,-0.02,0.06,28.85
42703171,1900,1,205583,255292,1.49,-0.18,10.75,0.05,-0.08,0.05,28.85
42743171,1878,1,205650,255944,1.11,-1.02,12.01,0.01,-0.06,0.05,28.85
42783171,1869,1,205816,256455,1.48,-0.14,11.09,-0.01,-0.09,0.05,28.85
42823181,1872,1,206195,256743,1.05,-0.56,12.67,-0.04,-0.06,0.05,28.85
42863182,1878,1,206039,256592,2.43,0.34,10.89,-0.06,-0.11,0.05,28.85
42903180,1883,1,205930,255570,2.39,-0.77,10.35,-0.11,-0.12,0.04,28.85
42943180,1887,1,205995,256099,2.12,-0.29,11.51,-0.11,0.01,0.05,28.85
42983171,1888,1,206070,255627,2.25,-0.46,8.52,-0.10,-0.03,0.05,28.85
43023197,1885,1,206446,256764,1.59,0.13,12.50,-0.12,0.07,0.06,28.85
43063151,1886,1,206281,255394,2.02,-0.55,7.02,-0.09,-0.05,0.05,28.85
43103215,1899,1,205666,253864,1.40,-0.51,9.28,-0.12,-0.01,0.06,28.85
43143181,1903,1,204978,250994,2.11,-1.21,6.81,-0.11,-0.05,0.05,28.85
43183184,1918,1,204182,249713,2.23,-0.50,8.14,-0.08,0.03,0.05,28.85
43223171,1907,1,203988,250142,1.27,-1.81,10.04,-0.09,0.16,0.05,28.85
43263171,1893,1,204068,252421,1.55,-1.58,7.46,-0.04,0.01,0.05,28.85
43303194,1904,1,206378,256522,0.99,-0.93,10.28,-0.05,0.09,0.06,28.85
43343171,1885,1,207127,258201,-0.14,-1.63,7.86,-0.01,-0.00,0.06,28.85
43383206,1889,1,207373,258257,0.81,-2.07,10.94,-0.02,0.03,0.05,28.85
43423172,1902,1,207223,258947,-0.08,-0.96,9.50,0.01,0.01,0.06,28.85
43463171,1895,1,207406,259364,0.97,-1.41,9.52,0.04,0.05,0.05,28.85
43503153,1886,1,207616,259360,0.81,-0.69,9.88,0.03,0.02,0.06,28.85
43543151,1887,1,207520,259400,0.30,-1.40,10.47,0.02,0.05,0.05,28.85
43583153,1896,1,207476,258610,0.91,-0.19,10.23,0.01,-0.03,0.05,28.85
43623859,1915,1,207020,259027,0.51,-0.71,10.47,-0.00,-0.05,0.05,29.05
43662184,1945,1,207193,258496,1.07,-0.50,10.12,-0.01,0.03,0.05,29.05
43702172,1920,1,207183,258923,0.35,-1.36,10.69,-0.02,-0.07,0.05,29.05
43743184,1931,1,207268,258889,1.47,-1.05,9.81,0.00,-0.01,0.04,29.05
43783172,1917,1,207267,259327,1.65,-0.14,11.15,-0.02,-0.10,0.05,29.05
43823184,1936,1,207510,259795,1.44,-0.74,10.19,0.01,0.01,0.05,29.05
43863151,1919,1,207859,259988,0.80,-0.79,10.30,-0.03,-0.06,0.05,29.05
43903184,1909,1,207858,259950,0.66,-1.03,10.07,-0.03,-0.04,0.04,29.05
43943182,1914,1,207814,259576,1.09,-0.84,8.99,-0.02,-0.10,0.04,29.05
43983184,1922,1,207666,259678,0.95,-1.38,10.75,-0.03,-0.03,0.04,29.05
44023198,1923,1,207578,259227,0.95,-1.06,8.84,-0.01,-0.09,0.04,29.05
44063185,1917,1,207289,259097,0.62,-1.21,9.13,-0.02,-0.07,0.04,29.05
44103185,1918,1,207307,258698,0.65,-0.70,8.37,-0.02,-0.04,0.05,29.05
44143185,1932,1,206715,258193,1.05,-0.92,8.66,-0.00,-0.09,0.04,29.05
44183182,1918,1,206678,258201,0.78,-0.86,10.11,-0.04,-0.01,0.05,29.05
44223184,1924,1,206158,257069,1.10,-0.76,8.24,0.01,-0.08,0.05,29.05
44263171,1907,1,205845,256694,1.54,-0.56,10.63,-0.00,0.02,0.05,29.05
44303171,1904,1,205435,255097,1.46,-0.43,8.57,0.01,-0.02,0.04,29.05
44343171,1891,1,205530,256632,1.03,-0.96,10.86,-0.04,0.03,0.04,29.05
44383171,1889,1,206063,256458,1.71,-0.05,10.02,-0.00,0.01,0.04,29.05
44423171,1888,1,206335,257982,1.18,-0.60,10.86,-0.03,0.05,0.04,29.05
44463172,1891,1,206880,258381,1.72,-0.85,9.46,-0.02,0.08,0.04,29.05
44503171,1899,1,207003,258775,1.70,-0.64,10.06,-0.03,-0.04,0.04,29.05
44543184,1889,1,207210,258995,1.59,-0.34,10.50,-0.04,0.08,0.04,29.05
44583172,1888,1,207194,258989,1.44,-0.54,9.82,-0.05,-0.01,0.04,29.05
44623872,1906,1,207598,259533,0.60,-1.05,11.89,-0.07,0.10,0.04,29.09
44662172,1885,1,207341,258788,1.30,-0.56,7.87,-0.05,-0.05,0.04,29.09
44702184,1891,1,207363,259270,0.52,-1.38,10.75,-0.08,0.08,0.05,29.09
44743171,1918,1,207381,258848,0.96,-0.90,8.20,-0.03,0.02,0.05,29.09
44783172,1920,1,207383,259359,0.11,-1.67,10.86,-0.06,0.03,0.05,29.09
44823171,1908,1,207726,259781,0.16,-1.09,8.69,-0.05,0.05,0.06,29.09
44863171,1916,1,207896,260607,0.27,-1.18,8.67,-0.03,-0.04,0.05,29.09
44903185,1906,1,208452,260727,1.13,-0.47,9.58,-0.02,0.05,0.05,29.09
44943171,1901,1,208135,260369,0.63,-1.29,8.97,-0.01,-0.03,0.05,29.09
44983184,1911,1,208254,260537,0.81,-0.54,11.30,-0.02,0.04,0.05,29.09
45023177,1905,1,208280,260535,1.02,-0.14,10.14,0.01,-0.06,-0.21,29.09
45061185,1909,1,208493,261063,0.28,-1.27,10.96,-0.01,0.04,0.03,29.09
45101171,1911,1,208385,260537,0.61,-1.41,11.11,-0.01,-0.04,-0.22,29.09
45141206,1895,1,208062,260271,0.95,-0.43,11.08,0.01,-0.10,0.01,29.09
45181171,1907,1,207885,259539,1.24,-0.86,12.12,-0.06,-0.00,0.01,29.09
45221185,1906,1,206913,258533,2.22,-0.05,8.21,-0.00,-0.16,0.03,29.09
45261184,1934,1,207106,258449,0.01,-1.38,13.63,-0.07,0.02,0.05,29.09
45301171,1915,1,206030,257278,2.19,0.03,6.51,0.01,-0.17,0.03,29.09
45341153,1911,1,206308,257341,0.61,-1.43,14.12,-0.11,-0.05,0.05,29.09
45381184,1911,1,205473,256396,2.05,-0.01,6.06,0.02,-0.09,0.04,29.09
45421171,1923,1,205820,256346,0.49,-1.67,12.39,-0.07,-0.07,0.04,29.09
45461185,1917,1,205326,255877,0.95,-0.51,6.68,0.03,-0.02,0.05,29.09
45501172,1942,1,205626,256683,0.51,-1.83,10.10,-0.03,-0.05,0.04,29.09
45541184,1931,1,205769,256786,1.45,-0.25,9.61,0.01,-0.07,0.05,29.09
45581171,1939,1,205670,256881,0.93,-1.20,8.72,0.01,-0.06,0.05,29.09
45621171,1941,1,205137,253470,1.52,-0.19,9.31,0.02,-0.05,0.04,29.09
45661859,1918,1,204348,253208,0.71,-0.98,10.50,0.01,0.00,0.04,28.95
45702151,1927,1,204410,252412,1.39,-0.42,8.26,0.01,-0.04,0.03,28.95
45742172,1905,1,204362,254019,1.72,-0.64,10.98,-0.02,-0.04,0.04,28.95
45781185,1915,1,204847,254994,1.96,-0.15,9.63,0.01,0.00,0.04,28.95
45821153,1905,1,205166,256458,1.56,-0.49,11.10,-0.02,-0.05,0.04,28.95
45861185,1929,1,205479,256767,1.51,-0.25,9.68,-0.02,-0.01,0.04,28.95
45901184,1899,1,205399,256665,1.79,-0.46,10.20,-0.05,-0.08,0.04,28.95
45941181,1919,1,205692,256910,1.23,-0.75,10.99,-0.06,0.02,0.05,28.95
45981171,1893,1,206149,256965,1.41,-0.79,8.76,-0.06,-0.13,0.05,28.95
46021190,1903,1,206578,256509,0.77,-0.79,12.49,-0.11,0.10,0.06,28.95
46061172,1907,1,206460,255304,1.15,-0.35,8.32,-0.05,0.01,0.05,28.95
46101171,1909,1,206540,255275,0.84,-1.03,11.31,-0.09,0.05,0.05,28.95
46141171,1904,1,206743,255297,0.62,-1.08,8.50,-0.07,-0.02,0.05,28.95
46181181,1905,1,206844,255728,1.22,-0.51,10.68,-0.06,0.01,0.05,28.95
46221172,1918,1,206852,255627,0.97,-0.38,9.86,-0.06,0.03,0.05,28.95
46261171,1902,1,206674,255073,1.14,-0.91,10.22,-0.07,-0.00,0.04,28.95
46301184,1909,1,205800,252131,1.55,-0.42,9.29,-0.06,0.02,0.05,28.95
46341171,1903,1,205002,251754,1.23,-0.57,9.73,-0.05,0.02,0.05,28.95
46381185,1904,1,205157,252132,1.35,-0.91,9.40,-0.06,0.04,0.04,28.95
46421171,1877,1,205160,253382,1.17,-0.67,9.85,-0.07,-0.03,0.05,28.95
46461185,1909,1,205642,254348,1.01,-0.96,10.19,-0.05,0.08,0.05,28.95
46501172,1893,1,205551,254899,0.85,-1.09,8.51,-0.04,-0.06,0.05,28.95
46541184,1905,1,206116,255648,0.53,-1.66,10.78,-0.08,0.05,0.05,28.95
46581171,1887,1,205735,254641,0.63,-0.50,7.45,-0.02,-0.08,0.05,28.95
46621185,1904,1,205930,255226,0.77,-1.51,11.58,-0.06,0.05,0.05,28.95
46661859,1887,1,205725,254731,0.71,-0.31,7.88,0.00,-0.03,0.05,28.77
46700172,1897,1,205700,254578,1.02,-0.91,10.60,-0.01,-0.00,0.04,28.77
46740182,1931,1,205435,253242,0.66,-0.24,8.22,-0.00,-0.01,0.05,28.77
46780184,1908,1,205028,253913,1.56,-0.61,9.69,-0.01,-0.02,0.04,28.77
46820184,1920,1,205463,253986,1.63,-0.44,9.33,0.00,-0.00,0.05,28.77
46860172,1905,1,205541,255310,1.15,-0.80,10.48,0.02,-0.04,0.05,28.77
46900171,1918,1,206027,255347,1.26,-0.30,9.31,0.01,0.02,0.05,28.77
46940152,1904,1,205757,254934,0.84,-0.78,9.73,0.01,-0.03,0.05,28.77
46980171,1909,1,205478,253503,0.71,-0.96,9.69,0.00,0.02,0.05,28.77
47020153,1901,1,204903,254189,1.31,-0.66,8.92,0.02,-0.10,0.05,28.77
47060172,1904,1,206114,256905,0.15,-1.20,12.83,-0.02,0.04,0.05,28.77
47100171,1906,1,205949,256841,0.95,-0.50,8.46,0.04,-0.15,0.04,28.77
47140171,1915,1,206421,257855,0.15,-1.25,12.93,-0.04,-0.04,0.05,28.77
47180184,1919,1,206189,257610,0.74,-0.47,8.58,0.01,-0.06,0.04,28.77
47220172,1894,1,206313,257680,0.45,-0.94,12.09,-0.03,-0.06,0.05,28.77
47260184,1920,1,206195,257315,0.98,-0.28,10.01,-0.04,-0.06,0.04,28.77
47300183,1925,1,206168,257547,1.41,-0.47,11.45,-0.05,-0.09,0.04,28.77
47340184,1917,1,206277,257263,1.78,-0.28,10.68,-0.05,-0.08,0.04,28.77
47380181,1911,1,206304,257243,1.44,-0.74,9.67,-0.08,-0.10,0.04,28.77
47420180,1915,1,206524,256474,1.50,-0.54,9.47,-0.08,-0.04,0.04,28.77
47460180,1919,1,206770,255909,1.72,-0.95,8.10,-0.05,-0.15,0.05,28.77
47500178,1933,1,207032,255539,1.04,-1.05,10.42,-0.10,0.03,0.05,28.77
47540170,1911,1,207104,255284,1.34,-0.57,6.72,-0.06,0.05,0.24,28.77
47580171,1911,1,207129,255011,0.78,-1.05,9.39,-0.08,0.02,0.05,28.77
47620167,1906,1,206820,253356,1.09,-0.75,8.65,-0.05,0.01,0.04,28.77
47660171,1911,1,205986,251352,1.05,-0.62,9.35,-0.03,0.02,0.04,28.77
47700856,1892,1,205473,250794,1.33,-0.53,8.52,-0.03,0.01,0.03,28.63
47741171,1913,1,205452,251141,1.16,-0.79,10.69,-0.06,0.09,0.04,28.63
47781171,1920,1,205264,250978,1.56,-0.19,8.84,-0.03,0.05,0.04,28.63
47821171,1914,1,205229,252586,1.33,-0.71,10.50,-0.05,0.10,0.04,28.63
47861171,1911,1,205740,253883,0.99,-0.79,9.25,-0.06,0.07,0.03,28.63
47901171,1883,1,206112,255824,0.67,-1.07,10.17,-0.06,0.05,0.04,28.63
47941171,1891,1,206982,257097,0.38,-1.28,11.34,-0.09,0.11,0.04,28.63
47981171,1893,1,207141,258088,0.43,-0.84,9.95,-0.04,0.01,0.04,28.63
48019185,1919,1,207725,258598,0.21,-1.20,12.55,-0.10,0.10,0.04,28.63
48059171,1886,1,207653,258410,0.36,-0.89,9.09,-0.05,0.00,0.04,28.63
48099172,1894,1,207902,258756,-0.17,-1.45,12.26,-0.10,0.10,0.04,28.63
48139183,1901,1,207865,258414,0.53,-0.24,9.60,-0.07,-0.00,0.03,28.63
48179181,1879,1,208105,258702,0.09,-1.29,12.73,-0.09,0.04,0.04,28.63
48219185,1891,1,207959,258448,0.71,-0.68,9.04,-0.08,-0.01,0.04,28.63
48259181,1878,1,208036,258564,0.24,-1.65,11.85,-0.11,0.04,0.03,28.63
48299171,1895,1,207343,255443,0.41,-0.87,8.35,-0.07,-0.01,0.03,28.63
48339182,1872,1,206527,255215,0.23,-1.80,11.01,-0.09,-0.01,0.04,28.63
48379184,1907,1,206614,256015,0.58,-0.71,9.20,-0.05,-0.00,0.04,28.63
48419182,1882,1,207244,258436,-0.36,-1.60,11.54,-0.07,-0.01,0.04,28.63
48459205,1911,1,207672,259055,0.02,-1.23,10.81,-0.04,-0.04,0.04,28.63
48499184,1914,1,207714,259102,-0.21,-1.66,12.54,-0.04,-0.06,0.04,28.63
48539205,1889,1,207472,258823,-0.05,-1.17,10.13,-0.02,-0.07,0.03,28.63
48579205,1902,1,207538,258927,-0.12,-1.86,12.41,-0.06,-0.07,0.03,28.63
48619205,1904,1,207329,259018,1.23,-0.63,8.26,-0.02,-0.14,0.03,28.63
48659184,1917,1,207519,258708,0.68,-1.18,9.69,-0.05,-0.07,0.03,28.63
48699184,1907,1,207211,258497,1.53,-0.36,9.81,-0.03,-0.13,0.02,28.63
48739872,1893,1,206995,257608,0.95,-0.78,6.31,-0.03,-0.16,0.03,28.69
48780184,1925,1,206894,257302,0.64,-1.36,10.39,-0.03,-0.02,0.04,28.69
48820184,1941,1,206661,255963,0.17,-1.88,7.31,-0.01,-0.04,0.03,28.69
48860184,1915,1,206265,255094,1.30,-0.31,9.59,0.02,-0.12,0.03,28.69
48900171,1931,1,205918,253213,0.43,-1.14,7.78,0.04,-0.02,0.04,28.69
48940172,1891,1,205425,251146,0.45,-0.50,8.89,0.08,-0.01,0.05,28.69
48980172,1929,1,204251,247807,1.99,-0.78,8.36,0.05,-0.06,0.05,28.69
49020172,1971,1,203138,245070,0.23,-0.75,8.51,0.09,0.03,0.11,28.69
49060150,2151,1,202135,242758,2.36,-0.55,8.85,0.06,-0.08,0.03,28.69
49100172,1977,1,201869,244458,1.02,0.08,11.64,0.06,-0.06,0.05,28.69
49140151,1877,1,202796,246211,1.95,-0.59,9.09,0.07,-0.03,0.04,28.69
49180172,1868,1,204119,252368,0.65,-0.38,13.20,0.03,-0.09,0.04,28.69
49220172,1857,1,205571,254461,1.57,-0.06,12.40,-0.00,-0.07,0.05,28.69
49260179,1903,1,205385,254355,1.01,-0.37,12.29,-0.01,-0.17,0.05,28.69
49300179,1950,1,205446,254193,1.02,-0.45,13.61,-0.06,-0.09,0.05,28.69
49340179,1861,1,205575,254511,1.21,-0.14,12.50,-0.08,-0.13,0.05,28.69
49380179,1817,1,206083,254887,0.84,-0.44,12.57,-0.10,-0.05,0.06,28.69
49420179,1818,1,206932,255763,1.17,-0.23,10.30,-0.11,-0.06,0.05,28.69
49460179,1840,1,207670,256389,0.94,-0.75,10.07,-0.13,-0.07,0.05,28.69
49500179,1867,1,208463,256444,2.13,-0.12,8.43,-0.09,-0.12,0.05,28.69
49540179,1895,1,208729,256273,1.92,-0.38,10.30,-0.12,-0.08,0.05,28.69
49578179,1901,1,209012,255643,1.94,-0.43,7.18,-0.06,-0.19,0.05,28.69
49618179,1904,1,209146,255108,1.54,-1.05,9.84,-0.09,0.02,0.05,28.69
49658171,1936,1,208586,252237,1.87,-0.48,6.45,-0.03,-0.11,0.06,28.69
49698179,1937,1,207408,250178,0.95,-1.20,8.83,-0.03,0.11,0.06,28.69
49738171,1929,1,206460,249287,0.82,-1.06,8.21,-0.02,0.04,0.05,28.69
49778854,1934,1,205803,249982,0.79,-0.97,9.25,0.01,0.06,0.05,28.43
49819149,1905,1,205728,251096,1.13,-0.11,9.31,0.02,0.02,0.05,28.43
49859171,1909,1,205991,253642,1.06,-0.47,9.69,0.01,0.03,0.05,28.43
49899150,1896,1,206844,256174,0.87,0.00,10.62,0.01,0.05,0.05,28.43
49939130,1908,1,207023,256963,1.85,-0.27,9.94,0.03,-0.03,0.05,28.43
49979171,1927,1,207220,256939,1.51,-0.26,12.78,-0.03,0.02,0.05,28.43
50019170,1951,1,206672,256384,1.57,-0.15,11.91,-0.02,-0.05,0.05,28.43
50059179,1927,1,206454,256075,1.12,-0.32,12.81,-0.06,0.02,0.05,28.43
50099170,1894,1,206339,255932,1.06,-0.45,10.99,-0.08,-0.04,0.06,28.43
50139179,1900,1,206427,255765,0.40,-1.06,13.71,-0.12,0.05,0.06,28.43
50179170,1867,1,206275,255635,1.24,-0.37,8.62,-0.07,-0.11,0.06,28.43
50219179,1887,1,206435,256006,0.52,-0.64,13.48,-0.12,0.02,0.06,28.43
50259170,1877,1,206405,255808,1.46,-0.36,7.23,-0.08,-0.11,0.06,28.43
50299179,1866,1,206540,256205,0.54,-1.02,12.03,-0.10,0.04,0.05,28.43
50339167,1899,1,206624,256266,1.70,-0.30,7.40,-0.07,-0.05,0.05,28.43
50379179,1886,1,206883,256769,0.92,-0.86,11.47,-0.08,0.01,0.05,28.43
50419170,1886,1,206713,256186,1.14,-0.50,7.78,-0.05,-0.02,0.05,28.43
50459179,1884,1,206690,256727,1.14,-0.60,10.16,-0.06,-0.06,0.06,28.43
50499179,1901,1,206877,256381,1.34,-0.72,9.24,-0.05,-0.00,0.05,28.43
50539179,1902,1,206737,256666,0.85,-1.34,10.11,-0.03,-0.05,0.06,28.43
50579179,1933,1,206973,256621,1.04,-0.57,8.64,-0.01,0.03,0.06,28.43
50619171,1921,1,207017,257091,0.74,-0.93,8.98,-0.00,-0.07,0.06,28.43
50659177,1935,1,207179,257369,0.73,-0.96,9.87,0.01,0.02,0.06,28.43
50699148,1936,1,207079,257561,1.18,-0.39,10.12,0.02,-0.11,0.06,28.43
50739170,1943,1,207186,257702,1.50,-0.31,11.52,0.01,0.01,0.06,28.43
50779837,1911,1,207070,257279,0.82,-0.44,9.73,0.04,-0.06,0.06,28.37
50818168,1917,1,206986,257517,0.93,-0.75,12.84,0.00,-0.01,0.06,28.37
50858171,1936,1,207004,257485,1.97,-0.15,12.66,-0.01,-0.06,0.06,28.37
50898180,1898,1,206930,257615,2.13,0.16,10.19,0.03,-0.13,0.06,28.37
50938148,1895,1,206842,257111,2.79,0.18,12.29,-0.09,-0.07,0.05,28.37
50978170,1904,1,206433,256854,2.45,0.71,7.70,-0.02,-0.17,0.05,28.37
51018171,1915,1,206642,256955,1.79,-0.19,11.94,-0.06,-0.06,0.06,28.37
51058180,1917,1,206600,255341,2.89,-0.17,7.56,-0.06,-0.25,0.06,28.37
51098180,1905,1,206045,252612,0.67,-0.08,14.08,-0.11,0.12,0.11,28.37
51138171,1911,1,205018,250233,2.45,-0.04,3.93,0.07,-0.28,0.08,28.37
51178171,1915,1,205568,253274,1.49,-1.30,16.34,-0.15,0.11,0.11,28.37
51218171,1904,1,205855,252044,1.22,0.46,4.25,0.08,0.04,0.06,28.37
51258129,1843,1,205874,253803,0.13,-0.94,11.53,-0.06,-0.09,0.08,28.37
51298220,1904,1,206067,252763,2.29,0.82,7.94,-0.04,0.09,0.06,28.37
51338148,1903,1,205845,253252,1.11,-1.14,7.70,-0.02,0.13,0.09,28.37
51378171,1920,1,205683,251362,2.42,-0.22,7.72,-0.05,0.01,0.06,28.37
51418171,1935,1,205518,252860,0.06,-1.82,8.74,-0.09,0.20,0.06,28.37
51458170,1917,1,205885,252291,2.40,0.06,8.45,-0.02,0.02,0.05,28.37
51498196,1875,1,205857,254217,0.66,-1.26,9.96,-0.04,0.06,0.07,28.37
51538172,1911,1,206233,254129,2.27,-0.45,8.43,-0.05,0.06,0.05,28.37
51578171,1885,1,206312,254335,0.69,-0.53,10.78,-0.08,0.02,0.06,28.37
51618172,1904,1,206175,254271,1.09,-0.92,9.39,-0.01,0.05,0.05,28.37
51658172,1894,1,206011,253504,1.24,-1.00,10.18,-0.07,0.04,0.06,28.37
51698172,1914,1,205667,253214,0.62,-0.63,10.11,-0.02,0.07,0.06,28.37
51738171,1907,1,205379,252771,1.53,-0.71,9.67,-0.04,0.00,0.05,28.37
51778171,1904,1,205605,253343,0.71,-0.51,11.75,-0.06,0.09,0.06,28.37
51818859,1902,1,205018,251033,1.74,-0.64,9.03,-0.04,-0.05,0.05,28.45
51857182,1904,1,205011,251463,1.03,-0.60,12.54,-0.07,0.07,0.06,28.45
51897171,1902,1,204922,251578,1.53,-0.63,9.09,-0.05,0.00,0.06,28.45
51937171,1893,1,205328,252445,0.84,-1.00,11.40,-0.07,0.05,0.06,28.45
51977171,1904,1,205274,252350,1.42,-0.60,9.61,-0.06,-0.02,0.06,28.45
52017183,1899,1,205569,253424,0.56,-1.36,11.25,-0.08,0.05,0.06,28.45
52057171,1904,1,205699,253547,0.99,-0.96,9.69,-0.07,-0.05,0.06,28.45
52097182,1900,1,206017,254907,-0.09,-1.39,11.22,-0.07,0.01,0.06,28.45
52137184,1895,1,206133,254613,0.81,-0.76,8.74,-0.04,-0.05,0.06,28.45
52177182,1898,1,206232,255230,0.58,-1.49,10.71,-0.06,-0.05,0.06,28.45
52217184,1922,1,206314,254961,0.72,-0.83,9.67,-0.02,-0.03,0.05,28.45
52257183,1920,1,206207,255539,1.02,-0.93,10.70,-0.03,-0.07,0.05,28.45
52297184,1927,1,206539,255803,1.18,-0.82,9.51,-0.02,-0.00,0.05,28.45
52337183,1898,1,206474,256122,1.13,-1.32,9.82,-0.02,-0.09,0.05,28.45
52377184,1909,1,206623,256384,1.36,-0.54,9.06,-0.01,-0.04,0.05,28.45
52417183,1916,1,206735,257077,1.14,-0.84,9.46,-0.02,-0.08,0.05,28.45
52457184,1919,1,207244,258394,0.95,-0.98,10.18,0.01,0.00,0.05,28.45
52497151,1899,1,207483,258717,1.39,-0.41,9.77,0.00,-0.10,0.06,28.45
52537171,1906,1,207709,259592,0.52,-1.17,10.11,0.02,0.03,0.06,28.45
52577151,1929,1,207632,257189,0.79,-1.02,9.72,0.01,-0.10,0.05,28.45
52617172,1899,1,206874,257923,0.36,-1.36,11.35,0.01,-0.07,0.05,28.45
52657171,1919,1,207197,257281,1.01,-0.60,10.43,-0.00,-0.07,0.05,28.45
52697184,1898,1,206598,257394,1.09,-0.34,10.72,0.00,-0.11,0.05,28.45
52738171,1900,1,206798,256812,0.82,-0.91,10.76,-0.01,-0.02,0.05,28.45
52778184,1907,1,206388,257684,1.36,-0.60,10.32,0.01,-0.09,0.05,28.45
52818859,1907,1,207224,257853,1.19,-0.46,10.61,-0.04,-0.05,0.05,28.47
52857184,1905,1,206616,257617,1.73,-0.60,10.22,-0.01,-0.14,0.05,28.47
52897184,1904,1,207068,257798,1.69,-0.46,11.93,-0.07,-0.03,0.06,28.47
52937184,1908,1,206510,256566,1.83,-0.39,7.73,-0.02,-0.19,0.06,28.47
52977184,1887,1,206634,255519,0.87,-1.30,11.35,-0.06,-0.03,0.05,28.47
53017182,1904,1,206008,254214,1.81,-0.77,8.33,-0.05,-0.03,0.06,28.47
53057181,1904,1,205796,252940,0.85,-0.98,9.77,-0.02,0.04,0.06,28.47
53097172,1908,1,205169,251928,2.07,-0.16,8.25,0.04,-0.02,0.06,28.47
53137172,1914,1,204920,250930,-0.28,-1.99,8.24,-0.06,0.02,0.06,28.47
53177184,1924,1,204243,250655,0.99,-1.20,10.15,-0.00,0.06,0.05,28.47
53217171,1927,1,204487,250789,0.22,-1.23,8.93,0.01,0.04,0.07,28.47
53257152,1915,1,204153,249730,1.12,-0.71,7.41,0.04,-0.07,0.05,28.47
53297171,1921,1,204500,249624,0.88,-1.70,12.45,-0.03,0.00,0.19,28.47
53337171,1927,1,204464,249280,2.06,1.04,7.00,0.07,-0.11,0.06,28.47
53377151,1893,1,204589,250728,1.30,-1.05,13.97,-0.01,0.13,0.07,28.47
53417171,1871,1,204898,251038,0.91,-0.79,8.55,0.00,0.03,0.06,28.47
53457151,1903,1,205733,254813,-0.10,-2.01,14.63,-0.10,0.11,0.06,28.47
53497184,1898,1,206305,257460,1.60,0.17,7.65,0.04,-0.04,0.06,28.47
53556153,1846,1,207505,257578,1.15,-1.36,10.64,-0.07,-0.01,0.06,28.47
53596183,1877,1,206982,256873,2.15,-0.03,11.52,-0.07,-0.15,0.05,28.47
53636181,1910,1,207286,256904,2.22,-0.85,12.33,-0.06,0.05,0.05,28.47
53676171,1934,1,206616,256559,3.25,1.25,8.32,-0.03,-0.14,0.05,28.47
53716172,1890,1,207370,257052,0.49,-1.13,13.16,-0.06,0.01,0.06,28.47
53756209,1863,1,206601,255442,2.34,0.10,8.32,0.01,-0.11,0.05,28.47
53796151,1917,1,206610,255540,0.57,-2.00,12.71,-0.07,-0.01,0.06,28.47
53836871,1940,1,206202,253851,0.11,-1.59,6.59,0.01,0.10,0.06,28.37
53877151,1897,1,206003,253757,-0.02,-1.44,9.79,-0.05,-0.12,0.05,28.37
53917205,1904,1,205639,252323,0.50,-0.94,8.26,0.03,0.09,0.05,28.37
53957185,1899,1,205051,250611,-1.15,-0.96,10.07,-0.06,0.10,0.07,28.37
53997184,1905,1,204200,249819,1.54,-0.75,5.82,0.04,-0.03,0.05,28.37
54037172,1901,1,205026,252654,-0.10,-1.40,10.39,-0.05,0.11,0.05,28.37
54077184,1901,1,205125,251801,1.52,-1.10,6.76,0.02,-0.09,0.03,28.37
54117171,1905,1,205390,253964,0.83,-0.45,11.69,-0.06,0.05,0.04,28.37
54157193,1927,1,205763,253361,2.10,-0.78,8.50,-0.01,0.06,0.03,28.37
54197172,1887,1,205822,255310,-0.23,-1.59,9.64,-0.05,0.02,0.04,28.37
54237184,1924,1,206072,253842,2.74,-0.11,9.84,-0.03,0.02,0.02,28.37
54277171,1897,1,205740,254803,0.33,-1.33,11.61,-0.06,-0.01,0.03,28.37
54317184,1914,1,206082,255386,1.37,-0.89,10.53,-0.05,0.08,0.03,28.37
54357171,1907,1,206229,255634,-0.04,-1.10,9.79,-0.06,-0.03,0.04,28.37
54397205,1904,1,205996,255729,0.88,-1.22,9.68,-0.04,0.01,0.03,28.37
54437171,1914,1,206089,255517,0.57,-0.96,9.61,-0.07,0.04,0.04,28.37
54477172,1916,1,205999,256146,0.86,-0.86,10.05,-0.05,-0.01,0.03,28.37
54515184,1915,1,206589,257066,0.86,-0.31,10.66,-0.06,0.03,0.04,28.37
54555172,1902,1,206701,257861,0.69,-1.03,10.19,-0.05,0.00,0.03,28.37
54595171,1875,1,207028,257469,1.12,-1.19,9.89,-0.07,0.01,0.03,28.37
54635171,1885,1,206406,254778,0.61,-1.08,10.26,-0.05,0.00,0.04,28.37
54675171,1918,1,205481,253115,0.98,-1.13,10.03,-0.06,0.01,0.03,28.37
54715171,1910,1,205458,252794,0.57,-1.07,10.72,-0.06,0.01,0.03,28.37
54755171,1892,1,205381,253759,0.38,-1.71,11.00,-0.05,-0.02,0.04,28.37
54795184,1915,1,205612,253729,0.38,-0.69,9.56,-0.04,-0.03,0.03,28.37
54835182,1911,1,205606,254769,-0.02,-1.53,10.45,-0.04,-0.06,0.03,28.37
54875893,1926,1,206220,256069,0.11,-1.62,10.05,-0.04,-0.03,0.03,28.47
54916185,1906,1,206368,256663,0.34,-0.95,10.99,-0.01,-0.08,0.03,28.47
54956184,1923,1,206685,257022,0.68,-0.90,10.61,-0.02,-0.02,0.02,28.47
54996183,1911,1,206592,257290,0.64,-1.20,11.02,-0.04,-0.08,0.02,28.47
55036184,1923,1,207020,258499,0.83,-1.33,10.16,-0.04,-0.04,0.02,28.47
55076184,1915,1,207155,258185,1.32,-0.54,9.55,-0.01,-0.12,0.03,28.47
55116184,1929,1,207019,258250,1.03,-1.10,10.99,-0.03,-0.04,0.02,28.47
55156184,1916,1,206676,256869,0.70,-1.03,9.45,-0.04,-0.09,0.02,28.47
55196184,1914,1,206408,257263,0.61,-1.36,10.99,-0.04,-0.03,0.03,28.47
55236185,1883,1,206405,256404,1.06,-0.78,8.81,-0.01,-0.08,0.03,28.47
55276184,1898,1,206242,256852,-0.04,-1.90,10.57,-0.03,-0.02,0.03,28.47
55316205,1906,1,206070,253874,0.53,-1.00,8.11,-0.01,-0.09,0.03,28.47
55356184,1902,1,204760,252231,0.62,-1.34,10.01,-0.01,-0.07,0.03,28.47
55396202,1920,1,204905,252110,0.77,-1.05,9.88,-0.01,-0.01,0.03,28.47
55436184,1920,1,204602,252163,0.63,-0.82,9.28,-0.00,-0.10,0.03,28.47
55476182,1909,1,204699,251316,1.29,-0.60,9.56,-0.02,-0.03,0.02,28.47
55516184,1910,1,204145,250607,1.53,-0.79,8.32,-0.01,-0.07,0.03,28.47
55556185,1914,1,204235,250659,1.31,-1.10,9.63,-0.02,-0.02,0.03,28.47
55596216,1902,1,204100,250230,1.53,-0.42,8.46,-0.01,-0.08,0.03,28.47
55636185,1885,1,204119,250010,1.14,-0.89,10.77,-0.04,0.09,0.17,28.47
55676171,1911,1,204080,249995,1.51,-0.37,7.35,-0.03,-0.01,0.24,28.47
55716181,1906,1,204703,251270,0.72,-2.12,11.44,-0.05,0.08,0.24,28.47
55756171,1915,1,205281,252067,1.32,-0.24,8.31,0.01,-0.17,0.04,28.47
55796196,1897,1,206181,254145,1.19,-0.66,11.48,-0.07,0.07,0.38,28.47
55836171,1933,1,207098,254647,0.58,-1.20,8.26,-0.04,-0.03,0.14,28.47
55876866,1904,1,207859,255434,1.44,-0.99,10.59,-0.07,0.08,0.32,28.31
55915171,1913,1,208249,255574,0.82,-1.21,9.44,-0.06,0.12,0.05,28.31
55955170,1883,1,208267,255189,0.94,-0.53,8.42,-0.04,-0.09,0.04,28.31
55995179,1901,1,207892,253211,0.84,-0.96,12.38,-0.08,0.12,0.04,28.31
56035170,1877,1,207452,252798,2.15,-0.09,8.95,-0.03,-0.07,0.04,28.31
56075179,1904,1,207686,253674,0.41,-1.69,12.93,-0.08,0.14,0.05,28.31
56115170,1878,1,207505,253788,1.87,-0.41,8.34,-0.04,-0.10,0.04,28.31
56155179,1903,1,207691,254341,0.65,-1.25,12.24,-0.09,0.09,0.05,28.31
56195171,1882,1,207088,253048,1.18,-0.48,7.18,-0.05,-0.03,0.04,28.31
56235180,1904,1,207121,254019,0.85,-2.05,13.18,-0.10,0.09,0.04,28.31
56315171,1875,1,206310,253878,0.63,-1.52,11.33,-0.08,-0.02,0.05,28.31
56355182,1910,1,206426,253766,0.26,-1.31,8.44,-0.04,0.04,0.05,28.31
56395171,1887,1,206204,254891,1.01,-1.29,10.06,-0.05,-0.06,0.04,28.31
56435185,1921,1,206509,254560,0.71,-1.04,9.59,-0.02,0.02,0.04,28.31
56475172,1895,1,205977,254698,0.67,-0.86,10.21,-0.03,-0.04,0.04,28.31
56515185,1926,1,205979,254200,1.07,-1.27,10.16,-0.04,0.02,0.04,28.31
56555172,1894,1,205417,254031,1.24,-0.96,9.54,-0.02,-0.05,0.04,28.31
56595185,1932,1,205623,254380,0.66,-1.01,10.02,-0.03,0.06,0.04,28.31
56635171,1898,1,205443,254408,0.61,-0.88,8.83,-0.02,-0.06,0.04,28.31
56675183,1933,1,205616,253469,0.57,-1.70,11.30,-0.05,0.04,0.04,28.31
56715171,1909,1,204971,252770,0.79,-0.79,9.45,-0.02,-0.05,0.04,28.31
56755183,1923,1,205619,254575,0.29,-1.78,11.46,-0.02,0.02,0.04,28.31
56795171,1913,1,205890,254463,0.05,-0.91,9.39,-0.02,-0.04,0.04,28.31
56834182,1913,1,206028,255805,-0.13,-1.51,11.18,-0.04,-0.04,0.04,28.31
56874205,1909,1,206435,255298,0.43,-0.92,9.92,-0.02,-0.05,0.03,28.31
56914870,1894,1,206256,256792,0.72,-1.40,11.96,-0.04,-0.08,0.03,28.39
56955184,1923,1,207048,256896,0.34,-1.02,10.67,-0.02,-0.02,0.02,28.39
56995184,1882,1,206726,257050,0.47,-1.02,10.53,-0.05,-0.11,0.01,28.39
57035184,1910,1,207167,257061,0.90,-1.65,9.56,-0.05,-0.02,-0.03,28.39
57075205,1895,1,206746,257113,1.26,-1.13,9.90,-0.04,-0.12,0.01,28.39
57115184,1925,1,207407,258078,0.78,-1.13,9.89,-0.05,0.00,0.02,28.39
57155171,1878,1,207331,257848,0.77,-0.44,8.48,-0.04,-0.07,-0.04,28.39
57195205,1901,1,207765,258385,0.37,-1.65,10.26,-0.05,0.03,0.02,28.39
57235179,1889,1,207621,258131,0.42,-1.23,8.05,-0.02,-0.07,-0.01,28.39
57275205,1915,1,208003,259515,-0.08,-1.66,10.17,-0.03,0.01,0.02,28.39
57315185,1907,1,208513,259790,0.34,-0.50,8.09,0.01,-0.06,-0.19,28.39
57355184,1920,1,208928,259992,0.08,-1.81,10.56,-0.02,0.01,0.01,28.39
57395172,1920,1,208736,257981,0.50,-0.94,8.60,0.03,-0.04,-0.13,28.39
57435189,1900,1,208493,259151,0.22,-1.28,10.62,0.00,-0.01,0.02,28.39
57475172,1926,1,209056,259795,0.73,-0.85,8.53,0.04,-0.04,-0.29,28.39
57515184,1899,1,209161,260095,0.44,-1.31,9.78,0.01,-0.04,0.01,28.39
57555171,1918,1,209250,259829,1.10,-0.63,9.07,0.02,-0.03,-0.12,28.39
57595184,1904,1,208802,259937,0.91,-0.98,10.69,0.00,-0.08,0.01,28.39
57635171,1931,1,209052,260137,0.50,-1.01,9.79,0.01,0.01,0.01,28.39
57673152,1904,1,208630,259103,0.50,-0.96,8.55,0.01,-0.11,0.01,28.39
57713171,1935,1,208508,259060,0.49,-1.09,11.04,-0.02,-0.01,0.01,28.39
57753184,1914,1,208095,257647,0.84,-0.96,9.39,0.01,-0.11,0.01,28.39
57793171,1917,1,207892,258462,0.20,-1.87,12.13,-0.01,-0.03,0.02,28.39
57833184,1907,1,207980,257937,0.35,-0.51,9.39,0.01,-0.07,0.01,28.39
57873171,1905,1,207587,258330,-0.03,-1.38,10.54,0.00,-0.07,0.02,28.39
57913184,1911,1,207551,257679,0.41,-1.28,9.72,-0.01,-0.06,0.01,28.39
57953872,1894,1,206958,258757,0.69,-1.04,10.82,-0.00,-0.11,0.01,28.45
57994184,1915,1,207394,258474,0.96,-0.34,9.86,-0.00,-0.05,0.02,28.45
58034182,1891,1,206707,257319,0.78,-1.00,10.55,-0.03,-0.09,0.01,28.45
58074184,1890,1,205926,254225,1.24,-0.74,9.28,-0.05,-0.07,0.01,28.45
58114184,1910,1,204653,253885,1.29,-0.78,9.72,-0.03,-0.11,0.01,28.45
58154184,1913,1,205077,253934,0.96,-1.07,10.18,-0.03,0.00,0.01,28.45
58194171,1889,1,204526,253918,1.31,-0.53,8.44,-0.04,-0.14,0.01,28.45
58234184,1895,1,204824,253369,0.61,-1.41,10.16,-0.04,0.01,0.02,28.45
58274171,1907,1,204324,253217,1.23,-1.24,7.46,-0.05,-0.06,0.01,28.45
58314184,1927,1,205002,254113,-0.61,-2.55,12.47,-0.10,0.13,0.01,28.45
58354184,1903,1,204484,252896,0.32,-0.37,4.07,0.03,-0.15,0.02,28.45
58394171,1891,1,204322,252281,-0.26,-2.22,8.54,-0.07,0.00,0.03,28.45
58434182,1936,1,204056,251240,0.80,0.10,4.55,-0.02,0.09,0.43,28.45
58474150,2000,1,203682,250378,0.30,-1.53,6.94,-0.02,-0.01,0.14,28.45
58514184,1957,1,203222,250233,0.49,-0.76,10.53,-0.06,0.14,0.02,28.45
58554171,1904,1,203091,249621,0.35,-1.23,5.87,-0.00,0.04,0.01,28.45
58594171,1874,1,202981,249760,1.24,-0.03,10.29,-0.04,-0.03,0.01,28.45
58634184,1904,1,203399,250259,1.38,-2.02,10.79,-0.07,0.06,0.01,28.45
58674171,1915,1,203927,251932,-0.23,-0.45,10.09,0.03,0.10,0.02,28.45
58714171,1909,1,204316,251244,1.50,-0.80,11.62,-0.09,0.01,0.01,28.45
58754171,1875,1,204173,252795,-0.37,-1.24,10.72,-0.01,0.15,0.02,28.45
58794184,1877,1,204625,252314,1.64,-1.05,8.85,-0.04,0.01,0.01,28.45
58834171,1879,1,204946,255225,-1.03,-1.45,14.03,-0.09,0.04,0.01,28.45
58874184,1903,1,205366,253672,1.44,-0.95,8.77,-0.03,0.06,0.00,28.45
58914171,1861,1,205080,254726,-1.29,-1.49,14.02,-0.14,-0.01,0.02,28.45
58954893,1870,1,205148,254203,1.60,-0.60,8.56,-0.02,0.04,0.00,28.27
58993171,1882,1,205327,255634,-0.41,-1.27,13.28,-0.11,-0.03,0.01,28.27
59033206,1916,1,205573,255359,0.70,-1.15,9.91,-0.06,0.01,0.00,28.27
59073188,1883,1,205374,254727,-0.04,-0.65,10.89,-0.09,-0.03,0.00,28.27
59113205,1901,1,205021,253933,0.86,-0.96,9.31,-0.08,-0.03,0.00,28.27
59153183,1894,1,204786,253671,0.58,-1.17,9.38,-0.08,-0.02,0.01,28.27
59193184,1911,1,204897,254232,0.17,-1.44,9.80,-0.07,0.03,0.01,28.27
59233171,1906,1,204895,254381,0.31,-0.94,8.86,-0.07,-0.03,0.01,28.27
59273184,1915,1,205210,255461,0.35,-1.36,10.99,-0.06,0.03,0.01,28.27
59313171,1922,1,205227,254684,0.55,-1.17,8.49,-0.02,-0.04,0.01,28.27
59353184,1883,1,205031,255031,-0.10,-1.94,9.98,-0.03,-0.02,0.01,28.27
59393206,1911,1,205051,253744,0.32,-1.24,9.24,-0.01,-0.03,0.01,28.27
59433184,1907,1,204556,252854,-0.57,-1.50,9.90,0.01,-0.05,0.01,28.27
59473183,1911,1,204502,252626,0.56,-1.23,9.01,0.01,-0.04,0.01,28.27
59513171,1907,1,204600,253344,-0.14,-1.46,10.45,0.01,-0.04,0.01,28.27
59553184,1915,1,204404,252079,0.54,-0.90,8.70,0.04,-0.06,-0.00,28.27
59593184,1893,1,203981,251563,-0.23,-1.23,10.54,0.01,-0.07,-0.00,28.27
59633206,1906,1,204075,252644,0.30,-0.83,9.99,0.03,-0.01,-0.00,28.27
59673185,1904,1,204303,252868,1.47,-0.64,9.47,0.00,-0.10,-0.01,28.27
59713184,1893,1,204826,255175,0.62,-1.08,11.37,0.00,0.01,0.00,28.27
59753152,1904,1,205630,255411,0.04,-0.87,9.84,-0.00,-0.04,-0.00,28.27
59793202,1879,1,205324,256406,0.60,-0.30,12.01,-0.00,-0.08,0.00,28.27
59833184,1903,1,205642,255997,0.15,-1.13,10.15,-0.04,-0.02,-0.00,28.27
59873206,1874,1,205285,257367,0.75,-1.05,11.15,-0.03,-0.10,-0.01,28.27
59913205,1936,1,206170,257687,-0.07,-1.32,11.94,-0.08,0.04,0.00,28.27
59953184,1884,1,205690,257487,0.52,-0.51,8.71,-0.03,-0.12,-0.00,28.27
59993893,1907,1,205878,256848,0.01,-1.34,10.23,-0.09,0.01,0.00,28.23
60032172,1899,1,205507,256186,0.90,-0.20,6.85,-0.07,-0.09,0.08,28.23
60072182,1907,1,205526,253386,-0.31,-1.83,9.62,-0.09,0.01,0.00,28.23
60112181,1886,1,204690,251410,0.27,-1.12,7.36,-0.08,0.15,0.14,28.23
60152172,1884,1,204299,250753,0.11,-1.65,9.22,-0.08,0.05,0.00,28.23
60192172,1861,1,203995,250370,0.06,-0.70,6.99,-0.01,0.00,0.00,28.23
60232172,1906,1,203808,250343,0.67,-1.54,10.07,-0.05,0.06,-0.01,28.23
60272184,1899,1,203675,250434,-0.11,-0.27,8.57,-0.00,0.03,-0.00,28.23
60312206,1866,1,203920,250789,1.28,-1.04,9.50,-0.02,-0.05,-0.01,28.23
60352201,1891,1,204278,250745,0.47,-0.70,9.31,-0.01,0.08,-0.00,28.23
60392181,1887,1,204033,250438,0.73,-1.01,7.87,-0.02,0.07,0.00,28.23
60432171,1909,1,203636,250581,0.01,-0.35,10.24,-0.03,0.13,0.00,28.23
60472171,1901,1,203827,251551,0.10,-1.15,10.16,-0.02,0.08,0.00,28.23
60512171,1875,1,204031,252631,1.39,-0.50,9.37,-0.06,0.02,-0.01,28.23
60552184,1906,1,205071,254376,0.33,-1.22,10.71,-0.07,0.12,0.00,28.23
60592172,1906,1,206074,254954,1.02,-0.52,6.62,0.03,-0.14,0.00,28.23
60632171,1904,1,206293,254975,0.91,-1.73,12.50,-0.14,0.06,-0.00,28.23
60672185,1904,1,205817,254741,-0.41,-0.39,9.69,-0.03,0.11,0.00,28.23
60712184,1911,1,205808,254080,0.10,-2.08,10.68,-0.08,0.04,-0.00,28.23
60752182,1902,1,205182,253512,-0.78,-0.45,12.82,-0.07,0.07,0.00,28.23
60792184,1925,1,205125,253845,0.23,-0.63,10.21,-0.02,0.03,-0.01,28.23
60832184,1911,1,205269,255001,-1.23,-1.24,13.77,-0.07,-0.00,0.00,28.23
60872205,1915,1,205827,256036,-2.22,-2.52,9.91,-0.05,0.06,0.00,28.23
60912185,1902,1,205274,254679,0.79,1.25,7.82,-0.00,-0.12,-0.41,28.23
60952184,1935,1,205812,257498,-2.97,-2.75,13.18,-0.07,0.13,0.00,28.23
60992184,1883,1,205666,255486,1.39,1.59,4.32,-0.02,-0.15,-0.48,28.23
61032871,1884,1,205961,256162,-1.21,-1.48,14.45,-0.14,0.01,-0.01,28.27
61071205,1917,1,205110,254525,2.01,0.31,6.40,-0.02,-0.06,-0.03,28.27
61111184,1931,1,205688,256127,-0.63,-2.28,14.51,-0.14,-0.03,-0.01,28.27
61151219,1923,1,205269,255535,1.32,-0.27,5.92,-0.00,-0.09,-0.02,28.27
61191205,1872,1,205690,255904,-0.09,-1.62,11.78,-0.09,-0.03,-0.01,28.27
61231219,1915,1,205283,254873,0.55,-0.46,7.60,-0.01,-0.03,-0.02,28.27
61271205,1892,1,205052,254788,0.72,-1.62,10.38,-0.04,-0.05,-0.01,28.27
61311206,1933,1,205355,256047,-0.43,-1.24,8.96,0.01,0.05,-0.01,28.27
61351184,1889,1,206079,257591,0.34,-1.21,9.28,0.01,-0.05,-0.01,28.27
61391184,1943,1,206959,257849,0.22,-0.98,9.71,0.02,0.03,-0.01,28.27
61431172,1910,1,206483,256562,0.23,-1.21,9.68,0.01,-0.08,-0.01,28.27
61471184,1933,1,206385,256849,-0.34,-1.59,11.11,0.00,0.02,-0.01,28.27
61511184,1904,1,205958,255761,-0.16,-0.94,9.36,0.01,-0.06,-0.01,28.27
61551206,1904,1,205473,255315,-0.43,-1.39,10.62,-0.00,0.02,-0.01,28.27
61591206,1891,1,205062,254880,-0.50,-1.18,10.29,-0.03,-0.06,-0.01,28.27
61631219,1890,1,204824,255169,-0.25,-1.28,10.60,-0.04,-0.04,-0.02,28.27
61671222,1880,1,205046,255558,-0.47,-0.89,11.49,-0.04,-0.01,-0.01,28.27
