timestamp_us,ecg,leads,ir,red,accX,accY,accZ,gyroX,gyroY,gyroZ,temp
1929494,1743,1,191086,203808,0.00,0.00,0.00,0.00,0.00,0.00,0.00
1959965,1745,1,191774,207213,-1.41,-1.25,9.69,-0.21,-0.40,-0.04,34.13
2000221,1733,1,193212,210672,-0.91,-1.17,9.28,-0.15,-0.36,-0.08,34.13
2040211,1745,1,193923,210507,-1.02,-1.74,10.52,0.21,0.06,-0.01,34.13
2080188,1750,1,193079,207262,-1.17,-1.65,9.64,0.16,0.07,-0.09,34.13
2120179,1747,1,191861,205125,-0.66,-1.70,9.74,-0.14,0.08,-0.17,34.13
2160199,1773,1,191675,205393,-0.66,-1.59,9.81,-0.22,0.08,-0.22,34.13
2200198,1776,1,191504,202987,-0.91,-1.51,9.74,-0.19,0.21,-0.19,34.13
2240199,1777,1,189606,196632,-1.24,-1.38,9.96,-0.12,0.23,-0.16,34.13
2280199,1821,1,187164,193006,-1.22,-1.07,9.72,-0.04,0.12,-0.02,34.13
2320198,1789,1,186140,191593,-1.37,-0.82,9.92,-0.01,0.05,0.13,34.13
2360179,1792,1,185693,193002,-1.13,-0.68,9.53,-0.03,-0.13,0.26,34.13
2400198,1817,1,186864,196208,-0.72,-0.59,9.17,-0.26,-0.18,0.23,34.13
2440198,1795,1,188590,200376,-0.80,-1.00,9.61,-0.41,-0.18,0.13,34.13
2480198,1827,1,0,0,-0.83,-1.40,9.81,-0.47,-0.06,0.05,34.13
2983988,1878,1,0,0,-4.60,-128.47,16.55,-1.30,18.59,-1.02,34.13
3488123,1828,1,0,214708,-4.60,-128.47,16.55,-1.30,18.59,-1.02,34.13
3860190,1746,1,194405,211964,-1.87,-1.80,9.08,0.29,0.31,-1.66,34.13
3900175,1744,1,193560,209915,-2.44,-2.03,9.47,0.32,0.40,-1.43,34.13
3940216,1718,1,192341,204968,-2.48,-1.69,9.67,0.39,0.44,-1.19,34.13
3980175,1776,1,191091,203619,-2.77,-1.62,9.21,0.41,0.08,-1.14,34.13
4020176,1746,1,191359,204961,-2.72,-1.60,9.71,0.23,0.10,-1.20,34.13
4060865,1743,1,191863,206076,-2.62,-1.42,9.37,0.24,-0.08,-1.23,34.13
4101199,1763,1,192287,207299,-2.43,-1.33,9.20,0.22,0.01,-1.23,34.13
4141179,1750,1,192855,209736,-2.42,-1.43,9.50,0.18,-0.01,-1.25,34.13
4181199,1770,1,193752,212831,-2.12,-1.50,9.28,0.08,-0.14,-1.36,34.13
4221199,1794,1,194659,215596,-2.13,-1.54,9.50,-0.04,-0.26,-1.49,34.13
4261214,1789,1,195157,217517,-2.02,-1.58,9.75,-0.02,-0.29,-1.40,34.13
4301216,1783,1,195491,219240,-1.60,-1.41,9.61,0.03,-0.24,-1.27,34.13
4341199,1786,1,195800,220380,-1.46,-1.23,9.68,0.04,-0.09,-1.17,34.13
4381199,1824,1,196129,221471,-1.31,-1.17,9.89,0.02,-0.11,-1.12,34.13
4421199,1795,1,196623,222732,-1.29,-1.09,9.73,-0.03,-0.09,-1.08,34.13
4461217,1841,1,196974,223456,-1.21,-1.03,9.84,-0.01,0.02,-1.00,34.13
4501200,1802,1,197005,223429,-0.94,-1.01,9.75,0.02,0.04,-0.98,34.13
4541180,1821,1,196191,219616,-1.03,-1.14,10.04,-0.02,0.17,-0.94,34.13
4581199,1810,1,194024,212915,-1.21,-1.41,10.24,-0.01,0.31,-0.82,34.13
4621200,1815,1,192455,210832,-1.17,-1.68,10.15,-0.07,0.32,-0.81,34.13
4661200,1790,1,191946,210919,-1.32,-1.70,10.16,-0.07,-0.06,-0.79,34.13
4701217,1777,1,192245,212908,-0.68,-1.47,9.59,-0.07,-0.23,-0.63,34.13
4741213,1789,1,193322,215691,-0.84,-1.38,10.09,-0.06,0.08,-0.36,34.13
4781200,1807,1,194113,217317,-1.30,-1.27,10.17,0.04,0.15,-0.18,34.13
4821180,1792,1,194705,217770,-1.48,-1.11,10.03,0.11,0.15,-0.12,34.13
4861179,1802,1,194420,217441,-1.20,-1.02,9.92,0.18,-0.05,-0.17,34.13
4901200,1787,1,194227,217651,-0.96,-0.92,9.63,0.19,-0.07,-0.18,34.13
4941200,1776,1,194090,217829,-0.60,-1.01,9.56,0.08,-0.04,-0.17,34.13
4981196,1781,1,194038,218871,-0.61,-1.22,9.60,-0.02,-0.05,-0.17,34.13
5021237,1772,1,194625,220974,-0.79,-1.43,9.91,-0.05,0.07,-0.09,34.13
5061886,1788,1,195394,222956,-0.97,-1.60,10.25,-0.03,0.16,0.04,34.21
5100179,1774,1,196056,223790,-1.21,-1.71,10.23,-0.03,0.29,0.18,34.21
5140180,1788,1,196030,222369,-1.71,-1.47,9.84,-0.13,0.17,0.30,34.21
5180180,1775,1,195481,221135,-1.90,-1.57,9.85,-0.18,0.02,0.47,34.21
5220180,1755,1,195580,221629,-1.68,-1.57,9.72,-0.15,-0.17,0.43,34.21
5260200,1755,1,195712,222100,-1.14,-1.41,9.31,-0.09,-0.35,0.36,34.21
5300200,1741,1,195793,223113,-0.77,-1.42,9.34,-0.16,-0.19,0.27,34.21
5340200,1737,1,196231,224226,-1.05,-1.59,9.87,-0.14,-0.02,0.31,34.21
5380200,1755,1,196612,225265,-0.96,-1.66,9.66,-0.09,0.03,0.38,34.21
5420179,1745,1,196704,225264,-1.35,-1.71,9.89,-0.07,0.15,0.37,34.21
5460180,1744,1,196425,224585,-1.77,-1.80,9.90,-0.00,0.15,0.47,34.21
5500179,1746,1,196228,224046,-1.63,-1.76,9.75,-0.00,0.09,0.46,34.21
5540180,1776,1,195999,223975,-1.53,-1.72,9.65,-0.04,0.01,0.46,34.21
5580205,1757,1,196280,224534,-1.48,-1.63,9.52,-0.09,-0.03,0.42,34.21
5620199,1747,1,196519,225613,-1.52,-1.65,9.67,-0.19,-0.09,0.30,34.21
5660200,1762,1,196930,227104,-1.41,-1.42,9.35,-0.20,-0.23,0.26,34.21
5700199,1760,1,197193,226408,-1.19,-1.70,8.87,-0.27,-0.14,0.25,34.21
5740200,1776,1,196284,222164,-1.28,-1.91,8.94,-0.14,0.15,0.26,34.21
5780197,1764,1,194108,214444,-1.40,-2.17,9.18,-0.09,0.38,0.16,34.21
5820179,1755,1,191207,206861,-2.24,-1.93,10.33,-0.11,0.44,0.10,34.21
5860203,1767,1,189548,204590,-2.49,-1.62,10.81,0.05,0.15,0.29,34.21
5900170,1762,1,189288,204671,-2.15,-1.25,10.27,0.04,-0.08,0.36,34.21
5940179,1782,1,189398,205318,-1.81,-1.00,10.13,-0.13,-0.13,0.36,34.21
5980200,1808,1,189825,206193,-1.77,-1.01,10.27,-0.18,-0.15,0.34,34.21
6020200,1819,1,190217,206661,-1.90,-1.27,10.25,-0.13,-0.19,0.24,34.21
6060201,1818,1,190190,205550,-2.18,-1.42,10.28,0.06,-0.37,0.20,34.21
6100866,1821,1,190481,207196,-1.35,-1.31,9.64,0.20,-0.45,0.21,34.21
6141179,1830,1,191192,208190,-0.95,-0.98,9.49,0.05,-0.42,0.08,34.21
6181176,1808,1,191506,209611,-0.92,-0.73,9.90,0.16,-0.42,0.11,34.21
6221179,1840,1,192012,211317,-0.61,-0.18,9.44,0.10,-0.19,0.10,34.21
6261176,1847,1,192453,212114,-1.02,-0.17,9.70,-0.04,0.09,0.05,34.21
6301180,1845,1,191900,207800,-1.54,-1.05,10.26,0.04,0.20,0.08,34.21
6341170,1842,1,190516,207673,-1.26,-1.55,10.11,0.17,-0.02,0.02,34.21
6381179,1817,1,191875,212222,-0.57,-1.66,9.70,0.11,-0.24,-0.11,34.21
6421199,1808,1,194648,222863,-0.20,-1.90,9.71,-0.04,-0.20,-0.21,34.21
6461214,1792,1,199156,229565,-0.41,-2.11,8.54,-0.50,-0.16,-0.13,34.21
6501213,1825,1,200225,231599,-0.33,-2.44,9.79,-0.44,0.04,-0.05,34.21
6541199,1794,1,200918,232776,-0.26,-1.79,9.44,-0.07,0.20,0.09,34.21
6581179,1792,1,200985,232438,-0.09,-1.14,9.58,-0.14,0.24,0.16,34.21
6621179,1729,1,200859,233248,-0.73,-0.65,10.37,-0.27,0.23,0.31,34.21
6661179,1757,1,202385,237992,-1.20,-0.49,10.24,-0.43,0.26,0.33,34.21
6701179,1714,1,203632,239567,-1.89,-1.04,10.95,-0.47,-0.01,0.08,34.21
6741199,1744,1,203745,240083,-2.38,-1.63,10.65,-0.08,-0.24,0.04,34.21
6781200,1683,1,204271,240482,-1.38,-1.72,9.35,0.04,-0.35,0.02,34.21
6821179,1670,1,203821,239278,-0.97,-1.90,9.09,-0.09,-0.28,-0.02,34.21
6861214,1680,1,203798,238373,-0.85,-1.99,9.20,-0.07,-0.05,0.17,34.21
6901200,1713,1,203120,235648,-0.93,-1.96,9.26,-0.12,0.02,0.22,34.21
6941179,1712,1,202007,233139,-1.53,-1.78,9.44,-0.18,0.09,0.40,34.21
6981180,1725,1,201370,231821,-1.79,-1.78,9.26,-0.29,0.15,0.52,34.21
7021185,1744,1,200708,230470,-1.87,-2.15,9.46,-0.39,0.12,0.45,34.21
7061179,1733,1,200058,229483,-2.03,-2.58,9.92,-0.27,0.12,0.45,34.21
7101865,1827,1,199794,228747,-1.63,-2.59,9.50,-0.09,-0.06,0.32,34.25
7140199,1807,1,199512,228215,-1.81,-2.19,9.31,-0.06,0.09,0.43,34.25
7180179,1906,1,199706,228613,-2.30,-2.33,9.90,-0.10,0.31,0.52,34.25
7220192,1901,1,200140,228852,-2.51,-2.14,9.75,-0.18,0.40,0.52,34.25
7260179,1945,1,200105,227747,-3.11,-2.28,9.99,-0.22,0.38,0.59,34.25
7300179,1907,1,199881,227641,-2.86,-2.26,10.07,-0.12,0.08,0.73,34.25
7340179,1951,1,199987,228401,-1.69,-2.14,9.19,-0.17,-0.31,0.64,34.25
7380199,1968,1,200509,230729,-1.90,-2.25,9.30,-0.30,-0.51,0.48,34.25
7420199,1953,1,201207,231723,-2.17,-2.37,9.59,-0.24,-0.65,0.53,34.25
7460199,1959,1,200308,228997,-1.71,-2.36,9.80,-0.03,-0.41,0.71,34.25
7500200,1914,1,198811,226277,-1.60,-2.10,9.92,0.12,-0.05,0.85,34.25
7540179,1877,1,197880,223463,-1.98,-2.18,9.93,0.17,0.37,1.08,34.25
7580170,1861,1,196509,218924,-2.51,-2.70,10.34,-0.01,0.39,0.95,34.25
7620179,1741,1,196553,223718,-2.16,-2.60,9.77,-0.22,-0.24,0.54,34.25
7660200,1893,1,198301,227536,-0.85,-2.44,9.02,-0.42,-0.91,0.17,34.25
7700199,1814,1,199427,231067,-1.80,-2.28,9.51,-0.45,-1.00,0.21,34.25
7740200,1845,1,201194,234896,-2.69,-2.26,9.35,-0.10,-0.25,0.90,34.25
7780199,1792,1,202492,236986,-2.07,-2.11,8.52,0.06,0.18,1.17,34.25
7820170,1785,1,203025,238245,-1.77,-2.32,9.05,0.00,0.13,0.75,34.25
7860168,1776,1,203107,238641,-1.76,-2.57,9.80,0.06,0.12,0.37,34.25
7900170,1723,1,202794,237756,-1.46,-2.17,9.91,0.22,0.34,0.29,34.25
7940170,1743,1,202068,235780,-1.94,-1.37,9.97,0.35,0.39,0.49,34.25
7980170,1763,1,201482,234180,-1.81,-1.03,9.63,0.23,0.42,0.65,34.25
8020170,1699,1,200939,231657,-2.39,-0.78,9.49,0.05,0.30,0.67,34.25
8060170,1677,1,200194,229436,-3.02,-0.81,9.23,0.00,0.13,0.73,34.25
8100169,1701,1,199794,228099,-2.77,-0.79,9.10,0.03,-0.01,0.68,34.25
8140866,1765,1,199238,227074,-2.33,-0.58,8.98,0.01,-0.05,0.43,34.09
8181180,1767,1,198188,225987,-2.75,-0.65,9.29,-0.10,0.08,0.45,34.09
8221179,1766,1,197628,225627,-2.77,-0.69,9.67,-0.18,0.10,0.52,34.09
8261179,1826,1,197348,224487,-3.39,-0.92,9.55,-0.27,0.18,0.66,34.09
8301179,1776,1,196806,222650,-3.73,-0.74,9.89,-0.23,0.30,0.99,34.09
8341179,1782,1,196729,220622,-3.56,-0.57,9.63,-0.17,0.28,1.15,34.09
8381179,1776,1,197055,220760,-3.41,-0.41,9.34,-0.27,-0.20,1.00,34.09
8421199,1835,1,198027,223438,-2.85,-0.30,9.04,-0.42,-0.55,0.81,34.09
8461200,1841,1,199066,225954,-2.61,-0.67,9.57,-0.40,-0.45,0.71,34.09
8501200,1826,1,199620,227395,-2.52,-0.96,9.75,-0.25,-0.30,0.65,34.09
8541200,1862,1,199860,227347,-2.41,-0.99,9.93,-0.15,0.03,0.59,34.09
8581179,1851,1,199264,223093,-2.31,-1.00,10.09,0.00,0.08,0.47,34.09
8621170,1897,1,196840,214506,-2.07,-0.90,9.88,0.07,0.00,0.37,34.09
8660167,1873,1,194833,211951,-1.91,-0.58,9.48,0.05,-0.03,0.31,34.09
8700179,1901,1,194864,212354,-2.12,-0.39,9.50,-0.05,0.11,0.27,34.09
8740179,1873,1,194894,212462,-2.65,-0.46,9.91,-0.07,0.16,0.26,34.09
8780179,1894,1,195137,213087,-2.92,-0.43,9.88,-0.11,0.01,0.23,34.09
8820179,1933,1,195489,214008,-2.81,-0.50,9.97,-0.13,-0.25,0.19,34.09
8860225,1949,1,196374,215940,-2.55,-0.47,9.77,-0.17,-0.35,0.15,34.09
8900199,1870,1,197539,219002,-2.61,-0.59,9.62,-0.22,-0.23,0.08,34.09
8940204,1748,1,198564,220473,-2.83,-0.79,9.74,-0.18,-0.09,0.06,34.09
8980200,1915,1,198784,219846,-2.73,-0.81,9.82,0.04,-0.09,0.13,34.09
9020179,1930,1,198015,216642,-1.94,-0.67,9.12,0.15,-0.19,0.11,34.09
9060223,1907,1,196171,212093,-1.63,-0.68,8.97,0.20,-0.12,0.06,34.09
9100179,1904,1,194297,209208,-1.39,-1.20,9.08,0.35,0.16,0.16,34.09
9140857,1765,1,193266,204900,-1.99,-1.15,9.76,0.22,0.69,0.07,34.01
9181170,1794,1,191380,200300,-3.02,-1.11,10.46,0.11,0.68,-0.03,34.01
9221179,1808,1,190249,197918,-3.54,-0.70,10.03,0.29,0.21,-0.07,34.01
9261179,1799,1,189813,197992,-3.37,-0.24,9.16,0.25,-0.00,-0.05,34.01
9301200,1781,1,190771,201426,-3.32,-0.01,9.22,0.08,-0.06,-0.00,34.01
9341199,1815,1,193005,206803,-3.23,-0.17,9.31,-0.08,-0.44,-0.13,34.01
9381213,1808,1,194786,210512,-3.02,-0.23,8.83,-0.26,-0.60,-0.15,34.01
9421216,1786,1,195312,212514,-2.28,-0.34,8.65,-0.43,-0.46,-0.04,34.01
9461213,1797,1,195572,215141,-1.62,-0.73,8.99,-0.43,-0.22,-0.06,34.01
9501216,1805,1,196615,219489,-1.90,-0.95,9.38,-0.47,0.00,-0.30,34.01
9541196,1797,1,197282,221512,-2.44,-1.11,9.68,-0.52,0.23,-0.36,34.01
9581200,1793,1,196914,221623,-2.83,-1.20,10.24,-0.34,0.34,-0.23,34.01
9621200,1808,1,196582,221119,-2.72,-0.92,10.01,-0.12,0.30,0.02,34.01
9661179,1825,1,196594,221719,-2.48,-0.73,9.63,-0.27,0.10,0.22,34.01
9700179,1808,1,196939,220918,-2.66,-0.87,10.20,-0.55,-0.27,0.28,34.01
9740200,1815,1,195702,217886,-2.68,-1.35,10.96,-0.91,-0.83,0.33,34.01
9780200,1807,1,195008,219388,-1.98,-1.91,11.05,-0.87,-1.60,0.31,34.01
9820200,1810,1,195460,220726,-1.24,-2.16,10.12,-0.68,-1.24,0.53,34.01
9860200,1826,1,196063,221812,-0.79,-2.42,10.15,-0.26,-0.86,0.45,34.01
9900200,1791,1,196227,222443,-0.30,-2.57,9.39,0.15,-0.59,0.24,34.01
9940179,1798,1,196650,223294,-0.03,-2.35,9.18,0.28,-0.06,0.18,34.01
9980179,1795,1,196975,223081,-0.65,-2.23,9.99,0.31,0.27,0.23,34.01
10020170,1807,1,196908,221894,-0.99,-1.75,10.25,0.48,0.37,0.25,34.01
10060170,1798,1,196552,220088,-0.74,-1.84,9.91,0.47,0.50,0.31,34.01
10100170,1823,1,196318,218383,-1.20,-1.78,10.41,0.32,0.49,0.32,34.01
10140170,1904,1,196251,218068,-1.05,-1.45,9.67,0.47,0.19,0.18,34.01
10180856,1901,1,196391,218199,-0.73,-1.29,9.34,0.34,0.11,0.01,33.99
10221170,1890,1,196734,218814,-1.09,-1.12,9.77,0.24,0.09,-0.11,33.99
10261179,1905,1,197341,219048,-1.75,-1.18,10.03,0.36,-0.45,-0.25,33.99
10301203,1872,1,197420,217826,-1.78,-1.36,9.05,0.24,-0.64,-0.32,33.99
10341199,1853,1,196414,213360,-1.41,-0.79,9.66,0.10,-0.09,-0.17,33.99
10381199,1866,1,195557,212020,-1.60,-0.90,9.37,0.20,-0.13,-0.05,33.99
10421200,1822,1,195444,210185,-1.91,-0.62,9.26,0.13,0.18,-0.04,33.99
10461179,1837,1,193261,206688,-2.16,-0.59,9.49,0.25,0.12,-0.19,33.99
10501179,1859,1,192949,208071,-2.60,-0.55,9.45,0.26,0.17,-0.20,33.99
10541179,1839,1,193726,209720,-1.70,-0.30,9.28,0.17,0.12,-0.14,33.99
10581179,1802,1,194374,212135,-1.42,-0.51,9.68,0.07,0.17,-0.30,33.99
10621179,1807,1,196177,216814,-1.61,-0.62,9.68,0.06,0.14,-0.62,33.99
10661179,1781,1,198342,220996,-1.61,-0.57,9.70,0.10,0.05,-0.87,33.99
10702179,1802,1,198672,220486,-1.56,-0.54,9.58,0.25,0.21,-0.90,33.99
10740179,1750,1,197588,217455,-1.27,-0.12,9.13,0.36,0.38,-0.91,33.99
10780180,1780,1,196828,219673,-1.22,0.09,9.19,0.50,0.45,-0.85,33.99
10820170,1769,1,199190,224406,-1.42,0.05,10.13,0.31,0.56,-1.12,33.99
10860170,1781,1,200885,226447,-3.38,-0.16,10.69,0.21,0.60,-1.45,33.99
10900195,1803,1,200601,222847,-3.85,-0.06,10.18,0.23,0.16,-1.60,33.99
10940179,1776,1,198866,218369,-3.73,-0.32,10.22,0.23,-0.24,-1.60,33.99
10980200,1776,1,197889,218419,-3.31,-0.34,9.90,0.18,-0.45,-1.50,33.99
11020200,1772,1,199047,222004,-3.13,-0.38,9.32,0.08,-0.53,-1.47,33.99
11060200,1738,1,199979,224405,-2.91,-0.04,8.99,0.16,-0.67,-1.44,33.99
11100201,1741,1,200141,226448,-2.06,0.20,8.62,0.17,-0.51,-1.38,33.99
11140179,1722,1,200950,228404,-2.30,0.14,8.98,-0.00,0.11,-1.36,33.99
11180866,1732,1,201538,229155,-2.81,0.30,9.14,0.08,0.27,-1.23,34.17
11221170,1760,1,201494,229200,-2.51,0.49,9.35,0.10,0.29,-1.05,34.17
11261170,1741,1,201677,229530,-2.54,0.22,9.98,0.05,0.26,-0.93,34.17
11301170,1718,1,201518,229718,-2.55,-0.37,10.34,-0.07,0.04,-0.82,34.17
11341200,1735,1,201315,229266,-2.51,-0.97,10.56,-0.14,-0.32,-0.82,34.17
11381214,1712,1,200763,229289,-2.19,-1.12,10.17,-0.05,-0.46,-0.74,34.17
11421216,1727,1,200991,229922,-1.39,-0.98,9.54,-0.04,-0.42,-0.76,34.17
11461213,1711,1,200484,227070,-1.22,-1.10,9.65,0.01,-0.23,-0.78,34.17
11501200,1743,1,199002,222851,-1.20,-1.20,9.53,0.14,-0.02,-0.83,34.17
11541199,1739,1,196750,214425,-1.39,-0.91,9.44,0.20,0.25,-0.77,34.17
11581179,1757,1,194202,209344,-1.42,-0.77,9.38,0.23,0.34,-0.75,34.17
11621179,1755,1,193519,209375,-1.36,-0.56,9.53,0.11,0.34,-0.79,34.17
11661179,1774,1,193689,209864,-1.87,-0.56,9.65,0.05,0.30,-0.76,34.17
11701179,1770,1,193568,210240,-2.07,-0.58,10.04,-0.01,0.16,-0.71,34.17
11740200,1762,1,193969,211775,-1.91,-0.71,9.87,-0.08,-0.04,-0.69,34.17
11780213,1748,1,194883,213533,-1.42,-0.92,9.89,-0.16,-0.02,-0.68,34.17
11820217,1759,1,195627,214196,-1.45,-1.10,9.95,-0.15,-0.05,-0.72,34.17
11860213,1808,1,195346,208624,-1.32,-0.96,9.89,-0.04,0.09,-0.64,34.17
11900199,1819,1,189746,196491,-1.94,-1.17,10.53,0.11,0.37,-0.52,34.17
11940179,1780,1,187950,197995,-1.91,-1.03,9.96,0.11,0.17,-0.59,34.17
11980180,1823,1,189620,201589,-1.73,-1.08,9.83,0.02,-0.05,-0.54,34.17
12020199,1837,1,191682,204357,-1.40,-1.05,9.74,0.07,-0.12,-0.52,34.17
12060199,1837,1,191519,200898,-1.59,-1.23,9.83,0.09,0.03,-0.59,34.17
12100180,1808,1,190189,199519,-1.70,-1.28,9.99,0.15,-0.08,-0.57,34.17
12140199,1824,1,190165,200239,-1.81,-1.04,9.84,0.11,0.18,-0.34,34.17
12180866,1822,1,190505,202865,-1.95,-0.89,9.97,0.08,0.15,-0.18,34.23
12221179,1808,1,192239,208053,-1.92,-0.74,9.77,-0.00,-0.09,-0.11,34.23
12261213,1813,1,194441,213480,-1.87,-0.84,9.66,-0.11,-0.18,-0.06,34.23
12301217,1806,1,195884,216020,-1.95,-0.79,9.74,-0.16,-0.23,-0.12,34.23
12341218,1782,1,197502,218460,-2.56,-1.10,9.98,-0.11,-0.38,0.03,34.23
12381200,1789,1,198147,217864,-2.40,-0.85,10.50,0.01,-0.43,0.27,34.23
12421179,1776,1,197274,217377,-0.67,-0.66,9.93,0.09,-0.39,0.04,34.23
12461179,1727,1,196650,214998,-0.85,-1.13,9.71,-0.01,-0.34,-0.29,34.23
12501214,1702,1,194923,213716,-0.45,-1.08,9.11,-0.01,-0.40,-0.28,34.23
12541239,1710,1,194691,214359,0.18,-0.99,9.26,-0.15,-0.18,-0.34,34.23
12581199,1763,1,194489,214879,-0.57,-0.83,9.86,0.11,0.12,-0.17,34.23
12621179,1728,1,194087,212442,-1.43,-0.84,10.16,0.18,0.19,-0.01,34.23
12661179,1744,1,192038,207326,-1.40,-0.38,10.28,0.20,-0.24,0.00,34.23
12701179,1749,1,191569,211267,-2.10,-0.66,9.58,0.10,-0.18,0.10,34.23
12741179,1691,1,193172,213472,-1.78,-0.70,9.76,-0.12,-0.37,0.28,34.23
12780199,1672,1,193365,210290,-0.81,-1.20,9.59,-0.16,-0.38,0.42,34.23
12820200,1667,1,193196,212756,-0.12,-1.40,9.70,-0.19,-0.30,0.34,34.23
12860200,1682,1,195829,217703,-0.10,-1.48,9.63,-0.21,0.15,0.42,34.23
12900179,1661,1,196398,218276,-0.60,-1.26,10.12,-0.11,0.40,0.53,34.23
12940179,1714,1,196633,220032,-0.80,-1.13,9.78,-0.03,0.39,0.47,34.23
12980180,1723,1,197245,220948,-1.16,-0.64,9.77,-0.13,0.31,0.32,34.23
13020179,1749,1,196856,219544,-1.86,-0.68,10.03,-0.16,0.38,0.45,34.23
13060181,1733,1,196282,217985,-1.55,-0.61,10.32,-0.21,0.29,0.42,34.23
13100183,1689,1,196000,217812,-1.95,-0.58,9.99,-0.19,-0.01,0.20,34.23
13140200,1761,1,196004,218436,-1.77,-0.65,10.13,-0.12,-0.15,0.15,34.23
13180890,1792,1,196133,219037,-1.00,-0.60,9.67,-0.00,-0.30,0.07,34.21
13221198,1845,1,195442,214737,-0.76,-0.65,9.72,-0.01,-0.13,-0.05,34.21
13261218,1867,1,193122,209205,-0.88,-0.78,10.04,0.07,-0.03,-0.13,34.21
13301201,1870,1,191912,207414,-0.87,-0.97,10.20,0.17,0.10,-0.17,34.21
13341180,1872,1,191633,207523,-1.16,-0.72,10.26,0.27,0.18,-0.15,34.21
13381181,1856,1,191636,207090,-0.99,-0.31,9.91,0.27,0.18,-0.07,34.21
13421180,1828,1,192400,211545,-1.22,-0.36,10.07,0.17,0.12,-0.02,34.21
13461181,1843,1,194369,215170,-1.74,-0.39,9.90,0.00,-0.11,-0.02,34.21
13501201,1813,1,195114,216391,-1.83,-0.57,9.96,-0.10,-0.34,0.09,34.21
13541200,1801,1,195998,219171,-1.19,-0.79,9.61,-0.18,-0.50,0.06,34.21
13581201,1719,1,197785,223961,-0.91,-1.19,9.35,-0.26,-0.44,0.00,34.21
13621201,1748,1,199767,227417,-0.28,-1.23,9.19,-0.21,-0.28,0.02,34.21
13661201,1681,1,200496,228612,-0.30,-0.96,9.67,-0.18,-0.05,-0.12,34.21
13701214,1715,1,200601,229445,-0.58,-1.01,9.82,-0.07,0.05,-0.03,34.21
13741201,1680,1,200923,230590,-0.46,-0.78,9.83,-0.11,0.01,0.07,34.21
13781180,1678,1,200769,229331,-0.45,-0.57,9.82,-0.19,-0.02,0.20,34.21
13821201,1655,1,200141,228598,-0.49,-0.52,10.01,-0.25,-0.02,0.27,34.21
13861201,1665,1,199736,228399,-0.28,-0.44,9.82,-0.32,-0.08,0.18,34.21
13901201,1647,1,199423,228578,-0.79,-0.83,10.57,-0.12,0.07,0.26,34.21
13941181,1696,1,199291,227956,-1.15,-0.72,10.07,0.07,0.12,0.33,34.21
13981187,1641,1,198787,226792,-1.85,-0.78,10.19,0.06,0.26,0.58,34.21
14021183,1654,1,198628,226532,-1.87,-0.83,10.11,-0.10,0.25,0.81,34.21
14061181,1643,1,198529,225785,-1.64,-0.90,9.92,-0.25,-0.11,0.74,34.21
14101201,1654,1,198093,225248,-1.30,-1.07,9.78,-0.32,-0.38,0.62,34.21
14141202,1677,1,197947,225531,-0.93,-1.16,9.76,-0.34,-0.30,0.58,34.21
14181906,1698,1,197831,224800,-0.96,-1.23,9.80,-0.27,-0.28,0.48,34.21
14220203,1713,1,197117,223661,-1.31,-1.37,9.91,-0.10,-0.23,0.49,34.21
14260200,1700,1,196795,222384,-1.42,-1.56,9.84,-0.02,0.01,0.56,34.21
14300180,1735,1,196201,219824,-1.24,-1.53,9.62,-0.01,-0.04,0.53,34.21
14340200,1762,1,195038,214451,-1.53,-1.56,9.73,-0.05,0.06,0.56,34.21
14380182,1745,1,192661,206952,-1.51,-1.35,9.72,-0.07,0.12,0.63,34.21
14420180,1757,1,190651,203726,-1.76,-1.30,9.85,-0.14,0.21,0.66,34.21
14460182,1778,1,190707,204967,-1.98,-1.29,10.05,-0.06,-0.02,0.70,34.21
14500200,1804,1,190952,206464,-1.66,-1.15,9.77,-0.08,-0.18,0.73,34.21
14540203,1764,1,192206,210484,-1.44,-1.19,9.70,-0.10,-0.25,0.70,34.21
14582200,1758,1,192905,209952,-1.63,-1.29,9.58,-0.07,-0.19,0.78,34.21
14622201,1761,1,192171,208418,-1.79,-1.37,9.91,-0.00,0.09,1.00,34.21
14662180,1744,1,192019,207189,-1.05,-1.15,9.59,0.02,0.15,1.06,34.21
14702169,1798,1,190935,204215,-1.21,-1.03,9.68,-0.05,0.18,1.04,34.21
14742180,1774,1,190295,204261,-1.32,-1.39,9.74,-0.11,0.22,1.01,34.21
14782180,1758,1,190784,207381,-1.27,-2.01,9.79,-0.26,0.05,0.83,34.21
14822180,1746,1,192831,214380,-1.25,-2.49,9.99,-0.33,-0.19,0.59,34.21
14862203,1728,1,195562,221964,-0.95,-2.36,9.72,-0.24,-0.56,0.45,34.21
14902200,1735,1,197727,224576,-0.37,-2.25,9.25,-0.28,-0.34,0.41,34.21
14942201,1739,1,197680,222871,-0.84,-2.15,10.09,-0.28,0.03,0.40,34.21
14982180,1744,1,196546,219073,-1.23,-2.07,10.55,-0.09,-0.00,0.53,34.21
15022200,1731,1,195284,216607,-1.05,-1.68,10.40,0.02,-0.12,0.72,34.21
15062180,1744,1,194949,217414,-1.02,-1.47,10.40,-0.05,-0.15,0.71,34.21
15102201,1714,1,196422,223505,-0.71,-1.38,9.96,-0.05,-0.27,0.54,34.21
15142200,1719,1,197810,224307,-0.46,-1.41,9.56,-0.05,-0.15,0.35,34.21
15182887,1712,1,197423,223082,-1.57,-1.20,9.73,-0.05,-0.14,0.27,34.09
15221200,1729,1,198166,226381,-1.09,-1.08,9.77,0.09,-0.12,0.41,34.09
15261180,1689,1,199086,228051,-0.62,-1.01,9.35,0.01,-0.00,0.25,34.09
15301180,1744,1,199541,229289,-1.06,-1.08,9.77,-0.03,0.14,0.18,34.09
15341180,1712,1,199833,229414,-1.14,-0.99,9.82,0.11,0.33,0.27,34.09
15381171,1712,1,199721,229194,-1.36,-0.71,9.73,0.20,0.36,0.29,34.09
15421170,1749,1,199465,228469,-1.75,-0.56,9.35,0.12,0.31,0.37,34.09
15461171,1749,1,198606,224577,-2.08,-0.76,9.76,0.00,0.35,0.53,34.09
15501170,1749,1,196144,215104,-1.47,-0.84,9.81,0.08,0.16,0.40,34.09
15541170,1792,1,192594,204195,-1.83,-0.66,9.27,0.05,0.12,0.41,34.09
15581170,1757,1,190058,200098,-1.65,-0.50,9.16,-0.14,0.05,0.47,34.09
15621182,1765,1,189076,198363,-1.25,-0.55,9.47,-0.28,-0.09,0.37,34.09
15661200,1825,1,188958,198794,-1.81,-0.68,10.13,-0.32,-0.07,0.36,34.09
15701200,1774,1,189452,200035,-1.79,-0.59,10.24,-0.20,-0.03,0.40,34.09
15741200,1811,1,189773,200443,-1.84,-0.52,10.36,-0.10,0.09,0.43,34.09
15781180,1791,1,189533,199312,-1.76,-0.41,10.25,0.07,0.13,0.42,34.09
15821194,1791,1,188747,197557,-1.47,-0.27,9.84,0.09,0.14,0.34,34.09
15861170,1792,1,187891,196688,-1.64,-0.40,9.85,-0.04,0.10,0.22,34.09
15901179,1775,1,187933,197912,-1.86,-0.55,10.09,-0.06,0.10,0.21,34.09
15941180,1786,1,189187,200969,-1.71,-0.60,10.08,0.03,-0.01,0.19,34.09
15981179,1764,1,190509,203560,-1.54,-0.40,9.71,0.04,-0.05,0.13,34.09
16021217,1744,1,190798,200965,-1.73,-0.50,9.78,-0.04,-0.04,0.05,34.09
16061200,1755,1,189310,197578,-1.92,-0.39,9.93,-0.01,-0.12,0.09,34.09
16101200,1790,1,188637,196722,-1.64,-0.15,9.66,-0.06,-0.03,0.08,34.09
16141200,1783,1,188746,197090,-1.92,-0.37,10.01,-0.13,0.02,0.02,34.09
16181180,1785,1,189121,198742,-1.98,-0.34,10.15,-0.05,0.00,0.02,34.09
16221866,1788,1,190362,201761,-1.79,-0.29,9.86,-0.03,0.02,0.02,34.09
16262179,1776,1,191381,203744,-1.84,-0.20,9.90,-0.05,-0.05,-0.01,34.09
16302214,1815,1,192282,206152,-1.77,-0.16,9.88,-0.03,-0.12,-0.00,34.09
16342213,1777,1,193244,208445,-1.64,-0.10,9.81,-0.08,-0.24,-0.02,34.09
16382216,1771,1,193929,209472,-1.66,-0.17,9.78,-0.11,-0.25,0.02,34.09
16422200,1778,1,194493,210523,-1.66,-0.40,9.91,-0.11,-0.16,0.07,34.09
16462200,1751,1,194789,210818,-1.69,-0.53,9.80,-0.06,-0.20,0.07,34.09
16502200,1779,1,194712,210719,-1.46,-0.63,9.66,-0.02,-0.24,0.05,34.09
16542200,1756,1,194359,208400,-1.42,-0.74,9.63,-0.02,-0.18,0.04,34.09
16582200,1734,1,192513,201977,-1.35,-0.85,9.73,-0.06,-0.16,0.00,34.09
16622200,1749,1,190377,197946,-1.22,-0.93,9.72,-0.09,-0.16,-0.03,34.09
16662213,1771,1,189434,196853,-1.09,-1.07,9.90,-0.11,-0.15,-0.05,34.09
16702216,1761,1,189119,196195,-0.93,-1.09,9.64,-0.18,-0.16,-0.10,34.09
16742213,1739,1,188798,196611,-0.97,-1.29,9.79,-0.22,-0.14,-0.13,34.09
16782216,1734,1,189267,197643,-0.93,-1.41,9.67,-0.23,-0.13,-0.13,34.09
16822214,1735,1,189514,198510,-1.05,-1.58,9.83,-0.31,-0.09,-0.12,34.09
16862216,1716,1,190092,199799,-1.15,-1.64,9.63,-0.26,-0.12,-0.05,34.09
16902213,1737,1,190872,202340,-0.87,-1.62,9.17,-0.31,-0.18,-0.11,34.09
16942216,1763,1,192015,204658,-0.90,-1.70,9.40,-0.46,-0.15,-0.26,34.09
16982213,1781,1,192820,206504,-0.90,-2.04,9.60,-0.40,-0.11,-0.33,34.09
17022216,1778,1,193283,206510,-0.90,-2.17,9.88,-0.22,-0.01,-0.31,34.09
17062213,1815,1,192987,204891,-0.71,-2.07,9.64,-0.06,0.06,-0.31,34.09
17102200,1801,1,191947,200659,-0.56,-1.98,9.72,-0.09,0.13,-0.37,34.09
17142200,1827,1,189568,194802,-0.72,-2.03,9.98,-0.22,0.25,-0.44,34.09
17182200,1881,1,187671,191199,-1.14,-2.22,10.37,-0.34,0.33,-0.42,34.09
17222886,1911,1,186186,188528,-1.38,-2.26,10.78,-0.23,0.16,-0.24,33.99
17261210,1925,1,185003,186108,-1.25,-2.04,10.23,-0.09,-0.10,0.02,33.99
17301199,1915,1,183817,185430,-0.98,-1.76,9.55,-0.13,-0.24,0.15,33.99
17341200,1909,1,183578,186304,-0.79,-1.59,9.25,-0.23,-0.35,0.09,33.99
17381200,1914,1,184168,188300,-0.66,-1.72,9.07,-0.28,-0.22,0.10,33.99
17421200,1891,1,185270,190156,-0.58,-2.00,9.18,-0.27,-0.04,0.10,33.99
17461209,1884,1,185634,190004,-0.85,-2.47,9.65,-0.27,0.04,0.05,33.99
17501179,1854,1,186119,190764,-1.01,-2.77,10.00,-0.20,-0.08,-0.09,33.99
17541213,1819,1,186751,192047,-0.67,-2.77,9.90,-0.10,-0.11,-0.22,33.99
17581216,1779,1,187510,194112,-0.33,-2.73,9.56,0.01,-0.04,-0.21,33.99
17621199,1770,1,188095,195032,-0.32,-2.65,9.43,0.01,0.18,-0.17,33.99
17661202,1733,1,188247,193433,-0.75,-2.33,9.64,0.02,0.31,-0.20,33.99
17701179,1705,1,186600,189385,-0.89,-2.45,9.83,0.07,0.47,-0.11,33.99
17741179,1692,1,185394,187730,-1.05,-2.31,10.12,0.13,0.34,-0.05,33.99
17781179,1685,1,184808,186466,-0.77,-2.22,10.03,0.10,0.08,0.01,33.99
17821170,1667,1,184453,185964,-0.81,-2.47,9.75,-0.01,-0.09,0.02,33.99
17861199,1646,1,184270,185513,-0.48,-2.25,9.61,-0.07,-0.23,0.02,33.99
17901200,1610,1,184190,186059,-0.19,-2.24,9.28,-0.13,-0.24,0.02,33.99
17941200,1607,1,184453,186526,-0.17,-2.42,9.55,-0.20,-0.08,0.01,33.99
17981199,1535,1,184508,186540,-0.19,-2.59,9.73,-0.20,0.04,-0.03,33.99
18021210,1591,1,184316,186162,-0.36,-2.65,9.90,-0.18,0.02,-0.08,33.99
18061199,1575,1,183603,184263,-0.47,-2.55,10.12,-0.17,-0.00,-0.06,33.99
18101213,1583,1,182079,181436,-0.61,-2.54,10.20,-0.09,0.07,0.02,33.99
18141179,1605,1,180964,180184,-0.90,-2.60,10.21,-0.01,0.15,0.11,33.99
18181180,1611,1,180337,179449,-1.08,-2.65,10.12,0.04,0.15,0.20,33.99
18221170,1600,1,180200,178272,-0.97,-2.70,9.92,0.06,0.07,0.25,33.99
18261856,1603,1,179301,176876,-0.92,-2.73,10.02,0.07,0.09,0.22,33.95
18302170,1658,1,179233,176765,-1.23,-2.77,9.88,0.09,-0.00,0.20,33.95
18342180,1626,1,178906,176380,-1.38,-2.59,9.67,0.14,-0.06,0.21,33.95
18382180,1679,1,178716,176102,-1.45,-2.43,9.41,0.19,-0.16,0.15,33.95
18422179,1717,1,178643,176546,-1.42,-2.27,9.28,0.22,-0.20,0.09,33.95
18462179,1737,1,178785,177045,-1.15,-2.03,8.94,0.16,-0.19,0.04,33.95
18502179,1763,1,178829,176686,-0.91,-1.90,8.74,0.11,-0.04,0.01,33.95
18542179,1776,1,177972,175277,-0.94,-2.06,8.62,0.12,0.19,0.04,33.95
18582170,1776,1,177275,175051,-1.42,-2.24,8.97,0.05,0.32,-0.01,33.95
18622179,1778,1,177691,176114,-1.86,-2.57,9.52,-0.08,0.32,-0.12,33.95
18662199,1810,1,178587,177990,-1.87,-2.71,9.82,-0.11,0.17,-0.22,33.95
18702202,1808,1,180081,181036,-1.70,-2.71,9.72,-0.18,-0.03,-0.41,33.95
18742213,1833,1,181743,184599,-1.08,-2.68,9.59,-0.20,-0.05,-0.55,33.95
18782217,1821,1,183881,188769,-0.96,-2.58,9.34,-0.17,0.11,-0.67,33.95
18822199,1840,1,185026,190303,-0.90,-2.30,9.10,-0.07,0.34,-0.71,33.95
18862199,1873,1,185835,191394,-1.36,-2.23,9.39,-0.01,0.66,-0.69,33.95
18902200,1873,1,185848,190436,-2.23,-2.52,10.23,0.02,0.90,-0.68,33.95
18942179,1900,1,185245,189290,-2.77,-2.50,10.54,0.19,0.61,-0.79,33.95
18982179,1914,1,184911,188772,-2.67,-2.49,10.15,0.20,0.23,-1.01,33.95
19022179,1872,1,184834,190301,-2.30,-2.66,10.02,0.13,0.03,-1.18,33.95
19062179,1902,1,186031,193351,-2.07,-2.60,9.63,0.17,0.00,-1.27,33.95
19102184,1921,1,186693,193264,-1.81,-2.51,9.35,0.23,0.08,-1.28,33.95
19142179,1910,1,186090,192478,-1.75,-2.32,9.11,0.28,0.19,-1.24,33.95
19182181,1920,1,186497,194778,-1.61,-2.12,8.68,0.22,0.43,-1.26,33.95
19222179,1911,1,188463,199815,-2.35,-2.90,9.09,0.00,0.72,-1.35,33.95
19262865,1914,1,190962,205226,-2.88,-2.97,9.66,0.19,0.62,-1.25,34.01
19301195,1891,1,192618,207595,-2.43,-2.29,8.66,0.43,0.53,-1.04,34.01
19341179,1914,1,192900,206859,-2.43,-2.20,8.94,0.21,0.53,-0.93,34.01
19381179,1943,1,191982,202210,-2.77,-2.70,9.62,0.09,0.30,-0.96,34.01
19421179,1897,1,189394,196214,-2.79,-2.81,9.70,0.04,0.06,-1.00,34.01
19461179,1909,1,188514,196736,-2.50,-2.77,9.73,0.13,0.10,-0.97,34.01
19501179,1903,1,189011,196986,-2.30,-2.82,9.79,0.26,0.10,-0.91,34.01
19541179,1856,1,188839,196103,-2.19,-2.71,9.65,0.32,0.10,-0.80,34.01
19581179,1861,1,188504,195542,-2.31,-2.52,9.57,0.32,0.08,-0.70,34.01
19621179,1869,1,188543,197899,-2.16,-2.31,9.48,0.28,0.03,-0.66,34.01
19661180,1872,1,190532,205190,-1.65,-2.24,9.38,0.22,0.04,-0.65,34.01
19701179,1857,1,194490,213377,-1.69,-2.34,9.33,0.15,0.00,-0.77,34.01
19741180,1840,1,195507,213554,-1.47,-2.23,9.20,0.05,-0.03,-0.87,34.01
19781200,1831,1,195435,215702,-1.61,-2.42,9.39,-0.08,0.02,-0.93,34.01
19821200,1872,1,196553,218254,-1.36,-2.52,9.90,-0.02,-0.06,-0.83,34.01
19861213,1844,1,197105,219793,-1.22,-2.41,9.95,0.05,0.02,-0.66,34.01
19901179,1839,1,197847,222061,-1.27,-2.42,9.96,0.02,-0.07,-0.63,34.01
19941199,1829,1,198861,224636,-1.08,-2.15,9.81,-0.00,-0.18,-0.59,34.01
19981216,1825,1,199737,225580,-0.99,-2.17,9.57,0.01,-0.06,-0.51,34.01
20021211,1840,1,199626,224769,-1.07,-2.30,9.61,-0.02,0.02,-0.51,34.01
20061199,1841,1,199256,224158,-1.40,-2.44,9.68,-0.05,-0.00,-0.52,34.01
20101213,1824,1,199163,224323,-1.36,-2.47,9.82,-0.01,-0.11,-0.44,34.01
20141216,1839,1,199257,224994,-1.02,-2.40,9.67,0.07,-0.07,-0.34,34.01
20181199,1841,1,199724,226676,-1.08,-2.43,9.65,0.06,-0.04,-0.28,34.01
20221200,1849,1,200383,228163,-0.88,-2.40,9.43,0.03,-0.02,-0.18,34.01
20261199,1827,1,200789,229153,-1.09,-2.44,9.17,-0.08,-0.03,-0.19,34.01
20301903,1851,1,201270,230593,-0.88,-2.61,9.69,-0.11,-0.14,-0.17,34.15
20342213,1870,1,201664,231464,-0.79,-2.60,9.20,-0.21,-0.19,-0.13,34.15
20382216,1858,1,201965,232565,-0.54,-2.68,9.56,-0.16,-0.08,-0.04,34.15
20422213,1861,1,202205,233473,-0.72,-2.89,9.80,-0.14,0.03,-0.05,34.15
20462200,1869,1,202654,234625,-1.00,-2.99,9.84,-0.06,-0.03,-0.03,34.15
20502213,1883,1,202813,235241,-0.78,-2.94,9.80,-0.02,-0.04,0.04,34.15
20542200,1914,1,202829,235750,-0.60,-2.85,9.74,0.08,-0.06,0.05,34.15
20582180,1869,1,202323,233920,-0.56,-2.86,9.68,0.04,-0.02,0.05,34.15
20622179,1895,1,200946,230724,-0.76,-2.68,9.73,0.06,0.03,0.13,34.15
20662170,1893,1,200128,229593,-0.81,-2.32,9.53,0.12,0.00,0.23,34.15
20702170,1910,1,200049,229559,-0.94,-2.09,9.29,0.11,0.01,0.33,34.15
20741170,1904,1,200110,229516,-1.01,-2.09,9.44,0.12,0.00,0.36,34.15
20781170,1885,1,200197,229560,-1.19,-2.29,9.89,0.04,0.14,0.40,34.15
20821170,1842,1,200437,230169,-1.39,-2.45,10.02,0.13,0.00,0.39,34.15
20861170,1840,1,200549,230061,-0.87,-2.32,9.60,0.11,-0.17,0.31,34.15
20901179,1840,1,200159,228662,-0.51,-2.26,9.46,-0.01,-0.20,0.20,34.15
20941224,1859,1,199241,226520,-0.76,-2.26,9.35,-0.08,-0.15,0.16,34.15
20981200,1810,1,198517,224834,-1.39,-2.40,10.03,0.02,-0.04,0.32,34.15
21021186,1839,1,198204,224245,-1.19,-2.09,9.67,0.15,-0.04,0.39,34.15
21061180,1793,1,198236,224376,-1.15,-1.98,9.68,0.07,0.04,0.38,34.15
21101170,1776,1,198538,225414,-1.12,-1.79,9.75,0.09,-0.06,0.36,34.15
21141192,1728,1,198973,225913,-0.91,-1.62,9.69,0.05,-0.09,0.35,34.15
21181179,1747,1,198776,223615,-1.14,-1.63,9.80,0.03,-0.04,0.31,34.15
21221179,1734,1,196989,215841,-1.29,-1.61,9.89,0.09,-0.07,0.35,34.15
21261180,1712,1,194645,211489,-1.05,-1.47,9.60,0.05,-0.06,0.37,34.15
21301180,1710,1,194194,211504,-1.14,-1.42,9.80,-0.03,-0.04,0.37,34.15
21341887,1685,1,194384,212601,-1.37,-1.50,9.87,-0.05,-0.04,0.43,34.17
21382199,1671,1,195221,215177,-1.25,-1.53,9.85,-0.01,-0.04,0.41,34.17
21422201,1664,1,195906,216418,-1.00,-1.40,9.54,0.03,-0.09,0.32,34.17
21462180,1680,1,196249,217196,-0.83,-1.46,9.55,-0.01,0.01,0.23,34.17
21502179,1683,1,196635,218153,-0.82,-1.51,9.85,-0.00,0.05,0.18,34.17
21542180,1697,1,197084,219927,-0.84,-1.89,9.94,-0.03,0.13,0.10,34.17
21582179,1677,1,197811,222361,-1.06,-1.73,10.15,0.05,0.01,-0.01,34.17
21622180,1740,1,198623,224644,-0.86,-1.27,9.65,0.11,-0.05,-0.04,34.17
21662212,1728,1,199321,226158,-0.88,-0.98,9.71,0.12,0.17,0.04,34.17
21702170,1756,1,199645,227227,-0.91,-0.97,9.48,0.11,0.27,0.12,34.17
21742170,1746,1,199784,226698,-1.02,-1.10,9.66,0.00,0.32,0.07,34.17
21781169,1761,1,198522,220226,-1.70,-1.13,10.16,0.06,0.23,0.12,34.17
21821170,1738,1,195082,209410,-1.51,-1.02,10.31,0.17,0.16,0.21,34.17
21861170,1680,1,192688,205346,-1.58,-0.79,10.10,0.13,0.00,0.12,34.17
21901170,1743,1,191940,204969,-1.53,-0.82,10.22,0.02,-0.23,0.02,34.17
21941180,1703,1,191918,205309,-1.66,-0.98,10.53,-0.06,-0.20,-0.02,34.17
21981216,1712,1,192196,207587,-1.56,-1.05,10.52,-0.11,-0.20,-0.05,34.17
22021221,1685,1,193423,211599,-1.09,-1.22,9.87,-0.17,-0.24,-0.13,34.17
22061216,1649,1,194907,216215,-0.76,-1.26,9.81,-0.10,-0.23,-0.18,34.17
22101213,1603,1,196991,221338,-0.34,-0.94,8.97,0.01,-0.36,-0.24,34.17
22141200,1631,1,199156,224631,-0.88,-0.72,8.79,-0.17,-0.34,-0.07,34.17
22181213,1598,1,199337,224117,-1.37,-1.07,10.29,-0.21,-0.22,0.30,34.17
22221201,1599,1,200064,228347,-0.88,-1.62,9.49,-0.21,0.35,0.51,34.17
22261179,1623,1,201457,230408,-1.59,-2.06,10.48,-0.43,0.32,0.34,34.17
22301180,1645,1,201946,231644,-1.48,-1.75,10.19,-0.07,-0.64,0.21,34.17
22341886,1633,1,202071,231124,-0.48,-1.14,8.79,0.02,-0.44,0.32,34.21
22382179,1661,1,201177,228203,-0.59,-1.11,9.52,-0.11,0.05,0.36,34.21
22422179,1620,1,199944,224802,-0.96,-1.13,9.58,-0.05,0.06,0.41,34.21
22462179,1679,1,198734,221866,-1.09,-1.30,9.50,-0.19,0.02,0.42,34.21
22502180,1692,1,198230,221731,-1.56,-1.47,9.92,-0.20,0.01,0.38,34.21
22542179,1701,1,198096,222061,-1.13,-1.58,9.79,-0.14,-0.29,0.32,34.21
22582248,1731,1,198357,223100,-0.70,-1.83,9.63,-0.19,-0.23,0.30,34.21
22622200,1766,1,198682,224115,-0.80,-2.01,10.01,-0.22,-0.01,0.30,34.21
22662199,1751,1,199118,225000,-0.59,-2.10,9.97,-0.13,-0.09,0.29,34.21
22702200,1735,1,199388,225588,-0.05,-2.04,9.84,-0.13,-0.07,0.37,34.21
22742200,1812,1,199587,226174,-0.34,-1.97,9.74,-0.18,0.14,0.43,34.21
22782209,1783,1,199649,226462,-1.36,-2.21,10.15,-0.19,0.23,0.42,34.21
22822179,1824,1,199749,226764,-1.72,-2.11,10.27,-0.08,-0.02,0.34,34.21
22862201,1820,1,199847,227508,-1.59,-1.72,9.76,0.01,-0.12,0.29,34.21
22902179,1867,1,200022,227881,-1.47,-1.37,9.56,-0.02,0.01,0.33,34.21
22942180,1904,1,199741,226240,-1.64,-1.51,9.45,-0.01,0.17,0.39,34.21
22982179,1919,1,198294,219936,-1.92,-1.87,9.82,-0.01,0.26,0.43,34.21
23022180,1898,1,195149,209921,-2.02,-2.02,9.85,0.01,0.10,0.41,34.21
23062170,1934,1,193257,208803,-1.58,-1.93,9.71,0.04,-0.07,0.46,34.21
23102179,1897,1,193992,211874,-1.24,-1.79,9.33,-0.03,-0.16,0.52,34.21
23142200,1943,1,195384,215982,-1.17,-1.70,9.50,-0.14,-0.13,0.58,34.21
23182200,1930,1,197509,223519,-1.52,-1.76,9.98,-0.10,-0.10,0.69,34.21
23222200,1925,1,199927,228179,-1.52,-1.70,9.96,-0.14,-0.17,0.83,34.21
23262201,1936,1,200879,229976,-1.60,-1.64,9.94,-0.25,-0.12,0.90,34.21
23302200,1957,1,201384,231581,-1.47,-2.50,10.27,-0.29,0.01,0.87,34.21
23342866,1951,1,201852,232477,-1.16,-2.42,10.08,-0.29,-0.07,0.76,34.09
23381199,1970,1,201833,232564,-1.04,-1.93,9.72,-0.03,-0.35,0.68,34.09
23421200,1953,1,201520,232281,-1.01,-1.42,9.37,0.04,-0.19,0.74,34.09
23461179,1955,1,201357,232490,-1.22,-1.53,9.50,-0.10,0.13,0.81,34.09
23501179,1979,1,201448,232751,-1.68,-1.94,9.76,-0.16,0.06,0.70,34.09
23541179,1968,1,201411,231164,-1.48,-1.94,9.55,-0.08,-0.13,0.50,34.09
23581200,1917,1,200802,228279,-1.62,-1.61,9.53,0.04,-0.17,0.45,34.09
23621179,1951,1,199598,224181,-1.13,-1.47,9.26,0.02,0.06,0.49,34.09
23661170,1903,1,198691,221369,-1.03,-1.40,9.14,-0.16,0.08,0.36,34.09
23701179,1922,1,198387,221598,-1.55,-1.80,9.56,-0.25,-0.02,0.36,34.09
23741200,1935,1,198998,223782,-1.69,-2.10,10.20,-0.08,0.06,0.52,34.09
23781179,1901,1,199804,225367,-1.36,-2.06,9.83,-0.01,0.03,0.43,34.09
23821179,1933,1,200159,226128,-1.60,-1.86,9.65,-0.10,0.02,0.28,34.09
23861179,1889,1,200068,226002,-1.74,-1.69,9.69,-0.00,0.05,0.30,34.09
23901179,1931,1,199517,224613,-1.51,-1.55,9.46,0.06,0.08,0.36,34.09
23941170,1935,1,198912,222496,-1.66,-1.25,9.72,0.07,0.15,0.41,34.09
23981170,1927,1,198116,220883,-1.72,-1.05,9.48,0.09,0.14,0.45,34.09
24021181,1939,1,197621,220274,-1.78,-0.78,9.54,-0.00,0.18,0.41,34.09
24061179,1930,1,197473,220328,-2.02,-0.85,9.81,-0.08,0.17,0.30,34.09
24101179,1895,1,197458,219408,-2.16,-0.77,9.92,-0.09,0.19,0.30,34.09
24141179,1889,1,196152,212478,-2.34,-1.08,9.85,-0.12,0.26,0.33,34.09
24181179,1920,1,193443,206799,-2.99,-1.42,10.39,-0.13,0.20,0.27,34.09
24221185,1888,1,192905,207398,-2.36,-1.17,10.09,-0.04,-0.21,0.20,34.09
24261200,1868,1,193838,209840,-1.61,-0.81,9.57,-0.14,-0.23,0.10,34.09
24301200,1863,1,194665,211976,-1.47,-0.82,9.87,-0.22,-0.19,0.09,34.09
24341200,1881,1,195439,214708,-1.57,-1.01,9.88,-0.23,-0.19,0.15,34.09
24381887,1897,1,196190,215484,-1.58,-1.07,9.63,-0.22,-0.11,0.16,34.13
24422237,1866,1,196014,213984,-1.76,-1.26,9.71,-0.16,-0.06,0.08,34.13
24462201,1908,1,195467,212763,-1.72,-1.16,9.64,-0.04,-0.12,0.04,34.13
24502200,1910,1,195020,211916,-1.55,-1.01,9.35,-0.08,-0.06,0.04,34.13
24542200,1851,1,195023,212524,-1.65,-1.14,9.60,-0.19,-0.01,-0.04,34.13
24582213,1863,1,195490,213681,-1.80,-1.26,9.58,-0.21,-0.01,-0.11,34.13
24622236,1840,1,195613,213702,-1.92,-1.57,9.73,-0.23,0.09,-0.08,34.13
24662200,1869,1,195356,213034,-2.23,-1.66,10.13,-0.16,0.14,0.05,34.13
24702180,1879,1,195211,210625,-2.13,-1.44,9.84,-0.04,0.02,0.20,34.13
24742180,1844,1,193489,202405,-2.06,-1.08,9.36,-0.07,-0.12,0.17,34.13
24782200,1838,1,190621,196849,-2.21,-1.40,9.33,-0.16,-0.13,0.03,34.13
24822200,1887,1,189262,195487,-2.04,-1.76,9.49,-0.21,-0.09,0.03,34.13
24861201,1849,1,189296,196990,-1.96,-1.81,9.85,-0.19,-0.03,0.04,34.13
24901200,1834,1,190340,199577,-1.98,-1.87,9.84,-0.18,-0.08,-0.04,34.13
24941217,1831,1,190835,200289,-2.01,-2.02,9.96,-0.13,-0.27,-0.09,34.13
24981217,1835,1,190303,199734,-1.80,-1.88,9.80,-0.12,-0.55,-0.09,34.13
25021225,1779,1,189885,199319,-1.57,-1.95,9.44,-0.29,-0.48,-0.01,34.13
25061218,1782,1,189205,197829,-1.54,-2.20,9.78,-0.27,-0.34,0.10,34.13
25101205,1754,1,188656,197780,-1.10,-2.35,9.60,-0.11,-0.20,0.16,34.13
25141203,1729,1,189255,201402,-1.07,-2.50,9.55,-0.11,0.03,0.08,34.13
25181181,1762,1,191533,207536,-1.04,-2.79,9.66,-0.12,-0.00,-0.04,34.13
25221218,1803,1,193135,210201,-0.83,-2.89,9.73,-0.09,-0.01,-0.01,34.13
25261218,1745,1,193837,211485,-0.95,-2.82,9.85,-0.06,0.05,-0.02,34.13
25301204,1856,1,193951,209256,-1.38,-2.61,9.91,-0.01,-0.08,-0.07,34.13
25341221,1792,1,191729,203102,-1.36,-2.62,10.11,0.11,-0.64,-0.19,34.13
25381891,1858,1,190620,204036,-0.67,-2.28,9.39,0.11,-0.68,-0.23,33.83
25422203,1906,1,191785,207790,-0.56,-2.32,9.40,-0.13,0.21,-0.11,33.83
25462205,1839,1,193728,212281,-0.96,-2.72,9.82,-0.11,0.35,0.02,33.83
25502180,1888,1,194541,213091,-1.13,-2.84,9.98,-0.02,0.31,0.07,33.83
25542180,1847,1,194754,214022,-0.96,-2.43,9.73,0.04,0.18,0.05,33.83
25582170,1890,1,195182,214603,-0.59,-2.10,9.32,0.01,0.22,0.10,33.83
25622170,1889,1,195236,214900,-0.61,-1.94,9.42,-0.05,0.15,0.14,33.83
25662180,1894,1,195636,216455,-0.77,-1.84,9.63,0.04,-0.19,0.08,33.83
25702180,1878,1,196126,217524,0.06,-1.69,8.66,0.08,-0.38,0.08,33.83
25742170,1869,1,196221,217481,-0.50,-1.71,9.46,-0.05,0.08,0.14,33.83
25782180,1837,1,196591,218747,-0.74,-1.74,9.96,0.05,0.00,0.09,33.83
25822170,1794,1,197365,221032,-0.93,-1.73,9.94,0.04,0.02,0.11,33.83
25861170,1730,1,198082,222074,-1.15,-1.72,10.41,0.11,0.07,0.25,33.83
25901170,1719,1,197595,217951,-1.12,-1.73,10.66,0.20,0.09,0.39,33.83
25941170,1731,1,195494,211712,-0.91,-1.64,10.48,0.19,0.05,0.41,33.83
25981170,1696,1,194387,209670,-1.13,-1.45,10.55,0.14,0.07,0.40,33.83
26021182,1682,1,194044,209310,-1.10,-1.50,10.42,0.03,-0.02,0.26,33.83
26061205,1663,1,193978,210466,-1.32,-1.91,10.44,-0.06,-0.07,0.04,33.83
26101200,1787,1,194285,212300,-1.18,-2.29,10.55,0.08,-0.07,0.01,33.83
26141181,1799,1,194790,213580,-1.08,-2.17,9.73,0.23,-0.05,0.06,33.83
26181180,1778,1,195385,213891,-1.25,-2.13,9.58,0.12,-0.25,-0.00,33.83
26221204,1787,1,194922,215279,-1.34,-2.30,9.50,0.07,-0.50,0.00,33.83
26261197,1793,1,197306,221538,-1.41,-1.45,7.90,-0.37,-0.56,0.09,33.83
26301204,1804,1,197990,223242,-1.51,-2.16,9.57,-0.75,-0.27,0.39,33.83
26341201,1840,1,198978,225728,-0.83,-2.52,10.29,-0.22,-0.21,0.31,33.83
26381203,1814,1,199629,226945,-0.96,-2.22,9.27,-0.05,0.14,0.22,33.83
26421866,1818,1,200198,227941,-0.74,-2.33,9.48,0.04,0.04,0.03,33.93
26462170,1877,1,201114,228503,-1.01,-2.26,9.05,0.12,0.16,-0.13,33.93
26502180,1900,1,200843,225737,-1.19,-1.90,9.29,0.05,0.18,-0.27,33.93
26542179,1920,1,199274,221303,-1.19,-1.85,9.40,0.04,-0.01,-0.51,33.93
26582200,1882,1,197867,218295,-1.19,-1.97,9.48,0.14,0.10,-0.54,33.93
26622180,1847,1,197389,218042,-1.29,-2.09,9.82,0.24,0.23,-0.47,33.93
26662179,1872,1,197841,220024,-0.93,-1.82,9.80,0.30,0.13,-0.56,33.93
26702179,1839,1,198633,222673,-0.68,-1.92,9.89,0.22,0.10,-0.69,33.93
26742180,1852,1,199789,225462,-0.79,-1.74,9.82,0.15,0.19,-0.76,33.93
26782180,1845,1,200825,227519,-1.09,-1.79,10.09,0.16,0.32,-0.84,33.93
26822180,1813,1,201519,228555,-1.38,-1.29,10.08,0.38,0.43,-0.88,33.93
26862180,1836,1,201784,228848,-1.52,-1.02,9.84,0.51,0.52,-0.78,33.93
26901179,1760,1,202085,228882,-1.70,-0.72,9.94,0.47,0.35,-0.74,33.93
26941179,1775,1,202218,229130,-1.92,-0.57,10.09,0.29,0.22,-0.79,33.93
26981180,1761,1,202529,229949,-2.07,-0.68,10.35,0.15,-0.03,-0.96,33.93
27021211,1776,1,202632,231540,-1.47,-1.18,10.45,0.10,-0.46,-1.30,33.93
27061200,1737,1,202674,232469,-1.24,-1.39,10.08,0.03,-0.43,-1.45,33.93
27101203,1739,1,201908,229568,-1.70,-1.46,10.11,0.12,-0.14,-1.40,33.93
27141200,1715,1,200604,226800,-2.13,-1.48,10.05,0.39,0.08,-1.13,33.93
27181180,1731,1,199781,223487,-1.59,-0.81,9.46,0.56,0.00,-1.12,33.93
27221179,1719,1,197944,216622,-1.40,-0.44,9.45,0.66,0.17,-1.14,33.93
27261180,1761,1,195793,210661,-1.46,-0.34,9.19,0.65,0.13,-1.03,33.93
27301179,1728,1,195348,212042,-1.18,-0.09,9.09,0.46,-0.04,-1.00,33.93
27341200,1712,1,196490,215541,-1.24,-0.11,9.38,0.26,-0.11,-1.04,33.93
27381200,1709,1,197581,217630,-1.09,-0.32,9.67,0.13,-0.14,-1.03,33.93
27421200,1720,1,198087,219246,-1.15,-0.44,9.95,0.01,-0.14,-1.01,33.93
27461886,1695,1,198934,221132,-1.13,-0.31,9.81,0.03,-0.13,-0.94,34.17
27502200,1742,1,199385,221550,-0.69,-0.01,9.72,0.05,-0.15,-0.91,34.17
27542199,1755,1,199502,221442,-0.79,-0.21,9.96,-0.01,-0.14,-0.93,34.17
27582216,1692,1,199371,221104,-0.80,-0.12,10.09,-0.01,-0.34,-0.97,34.17
27622213,1712,1,199155,220629,-0.57,0.06,9.76,-0.01,-0.40,-0.95,34.17
27662200,1735,1,198840,220156,-0.22,0.18,9.77,-0.02,-0.33,-0.87,34.17
27702248,1727,1,198248,216548,-0.07,0.19,9.92,-0.07,-0.31,-0.86,34.17
27742200,1744,1,195976,210111,-0.00,0.01,10.12,-0.06,-0.24,-0.83,34.17
27782200,1734,1,194317,207963,0.07,0.05,10.06,-0.01,-0.05,-0.81,34.17
27822179,1731,1,193546,205971,-0.03,0.23,9.76,0.09,0.13,-0.78,34.17
27862170,1697,1,192510,203595,-0.01,0.31,9.93,0.30,0.13,-0.69,34.17
27902207,1729,1,191704,202731,0.11,0.46,9.43,0.33,0.16,-0.60,34.17
27942148,1703,1,191494,202424,-0.22,0.60,10.11,0.22,0.26,-0.56,34.17
27982170,1705,1,191244,201738,-0.49,0.39,10.43,0.08,0.11,-0.55,34.17
28022170,1707,1,190723,199964,-0.83,0.48,10.47,0.06,0.10,-0.44,34.17
28062170,1690,1,189762,198615,-0.69,0.46,10.31,0.08,-0.09,-0.25,34.17
28102180,1697,1,189796,199946,-0.40,0.70,9.76,-0.01,-0.05,-0.16,34.17
28142200,1707,1,190616,203282,-0.45,0.68,10.03,-0.08,0.04,-0.04,34.17
28182177,1726,1,192186,207398,-0.47,0.48,10.18,-0.09,0.02,-0.01,34.17
28222179,1729,1,193392,210680,-0.47,0.33,10.27,-0.10,-0.05,-0.07,34.17
28262200,1729,1,194230,212205,-0.31,0.21,10.11,-0.01,-0.04,-0.15,34.17
28302200,1745,1,193489,207252,-0.25,-0.05,10.22,-0.04,0.08,-0.22,34.17
28342200,1744,1,191362,203198,-0.31,-0.09,10.24,-0.02,0.04,-0.29,34.17
28382200,1754,1,190488,202027,-0.20,-0.11,9.87,-0.09,0.13,-0.35,34.17
28422200,1779,1,191338,206156,-0.54,-0.18,9.98,-0.26,0.27,-0.37,34.17
28462887,1774,1,193451,210093,-1.13,-0.22,9.94,-0.29,0.19,-0.34,34.17
28501200,1764,1,194848,213458,-1.08,-0.32,9.64,-0.20,0.01,-0.28,34.17
28541199,1776,1,195656,213275,-1.17,-0.20,9.23,-0.02,0.09,-0.10,34.17
28581200,1783,1,195202,212124,-1.10,-0.02,9.54,0.19,0.18,0.15,34.17
28621170,1776,1,195105,213445,-1.16,0.23,9.41,0.18,0.24,0.32,34.17
28661149,1777,1,195834,215563,-1.60,0.37,9.66,-0.05,0.22,0.37,34.17
28701170,1803,1,196225,216863,-1.74,0.24,10.25,-0.17,-0.05,0.31,34.17
28741179,1794,1,197161,220798,-1.39,0.23,10.28,-0.20,-0.27,0.23,34.17
28781180,1820,1,198788,225247,-1.48,0.23,10.19,-0.25,-0.20,0.33,34.17
28821179,1822,1,200511,229115,-1.25,0.09,10.28,-0.20,-0.17,0.54,34.17
28861180,1852,1,201883,232317,-0.47,0.07,10.01,-0.11,-0.18,0.46,34.17
28901179,1840,1,202807,233762,-0.71,0.01,9.86,-0.01,0.19,0.45,34.17
28941170,1887,1,204177,237249,-1.63,-0.01,9.74,0.03,1.01,0.82,34.17
28981170,1871,1,204609,237652,-1.76,-0.19,9.97,-0.25,1.06,0.98,34.17
29021187,1894,1,203967,236941,-1.14,-0.07,10.32,-0.02,0.10,0.40,34.17
29061180,1889,1,203817,237111,-1.39,0.17,9.32,0.21,-0.25,0.10,34.17
29101170,1926,1,204279,238587,-1.70,0.19,9.60,0.08,0.06,0.14,34.17
29141148,1913,1,204748,239537,-2.13,0.18,9.73,0.02,0.06,0.15,34.17
29181148,1936,1,205079,239835,-1.81,0.45,9.59,0.02,-0.14,0.12,34.17
29221170,1920,1,204706,238595,-1.59,0.62,9.56,-0.03,-0.20,0.04,34.17
29261179,1930,1,204070,237535,-1.60,0.64,9.66,-0.07,-0.20,0.02,34.17
29301179,1897,1,203698,236745,-1.37,0.64,9.78,-0.12,-0.17,0.04,34.17
29341183,1872,1,203237,236416,-1.14,0.50,9.84,-0.07,-0.20,-0.03,34.17
29381200,1887,1,203163,236076,-1.05,0.38,9.80,-0.02,-0.18,-0.08,34.17
29421200,1839,1,202646,234977,-1.13,0.32,10.30,0.14,-0.15,-0.09,34.17
29461180,1840,1,202188,234170,-0.77,0.60,9.86,0.23,-0.07,0.00,34.17
29501856,1837,1,201486,230662,-0.91,0.75,9.94,0.11,0.22,0.09,34.17
29542198,1793,1,200244,227953,-0.98,0.64,10.11,0.02,0.16,0.05,34.17
29582148,1808,1,199462,226709,-1.03,0.47,9.98,-0.01,0.03,-0.00,34.17
29622180,1797,1,199483,226939,-0.86,0.34,9.90,-0.04,-0.03,-0.07,34.17
29662200,1767,1,199585,226857,-0.79,0.40,9.85,-0.03,-0.04,-0.11,34.17
29702200,1744,1,199264,226184,-0.96,0.26,9.94,-0.01,-0.09,-0.22,34.17
29742221,1745,1,199165,226328,-1.45,0.38,10.17,0.03,-0.26,-0.28,34.17
29782180,1735,1,199080,224421,-1.31,0.76,10.12,0.05,-0.58,-0.28,34.17
29822180,1722,1,197893,220769,-1.03,0.89,9.95,-0.02,-0.61,-0.18,34.17
29862199,1719,1,197551,219942,-0.79,0.92,9.63,-0.14,-0.38,-0.02,34.17
29902200,1697,1,197795,219390,-0.70,0.83,9.86,-0.19,-0.14,0.15,34.17
29942180,1689,1,197239,218382,-0.80,0.79,9.88,-0.10,-0.18,0.27,34.17
29982179,1691,1,196832,219004,-0.74,0.95,9.93,-0.07,-0.35,0.43,34.17
30022180,1709,1,197699,221541,-0.04,0.83,9.44,-0.12,-0.34,0.55,34.17
30062179,1692,1,198631,222978,-0.20,0.45,9.72,-0.48,0.05,0.43,34.17
30102170,1707,1,198795,222240,-1.01,0.03,10.29,-0.54,0.14,0.43,34.17
30142170,1728,1,198409,221388,-0.82,-0.24,10.12,-0.32,-0.27,0.45,34.17
30182200,1695,1,198521,221960,0.27,-0.23,9.69,-0.17,-0.46,0.44,34.17
30222180,1719,1,199159,223924,0.62,-0.57,9.60,-0.26,-0.14,0.38,34.17
30262180,1719,1,200392,226955,0.23,-0.81,10.05,-0.22,0.14,0.20,34.17
30302170,1707,1,201213,227641,-0.09,-0.66,9.84,-0.08,-0.03,0.11,34.17
30342200,1728,1,201197,226920,-0.34,-0.44,10.09,0.09,0.05,0.18,34.17
30382170,1735,1,200535,223906,-0.93,-0.26,10.31,0.18,0.01,0.37,34.17
30422170,1740,1,198864,220104,-1.46,0.07,10.07,0.11,-0.12,0.50,34.17
30462170,1763,1,197974,218991,-1.18,0.21,10.06,-0.01,-0.14,0.54,34.17
30502866,1776,1,198303,220710,-1.20,-0.13,10.01,-0.11,0.02,0.62,34.23
30543179,1751,1,198963,221996,-0.91,-0.49,10.26,-0.07,0.12,0.73,34.23
30583180,1799,1,199167,222048,-0.45,-0.46,9.97,0.07,0.02,0.84,34.23
30623170,1829,1,198747,219381,0.21,-0.45,9.35,0.01,0.02,0.84,34.23
30663148,1763,1,196515,212321,0.05,-0.62,9.46,-0.10,0.08,0.80,34.23
30703170,1823,1,194515,208827,0.22,-0.43,9.78,-0.03,0.10,0.85,34.23
30743170,1807,1,194293,208167,-0.05,-0.34,10.33,-0.02,0.07,0.83,34.23
30783179,1833,1,196108,210625,1.05,-0.23,10.27,-0.05,-0.17,0.68,34.23
30823179,1846,1,198302,216357,0.12,-0.17,10.47,-0.16,-0.10,0.54,34.23
30863179,1841,1,198711,215273,-0.56,-0.36,10.39,-0.12,-0.04,0.86,34.23
30903200,1851,1,196465,214295,-0.25,-0.69,10.53,-0.05,0.12,0.91,34.23
30943180,1841,1,197591,218448,-0.32,-0.32,9.85,-0.03,0.15,0.80,34.23
30983179,1861,1,197641,216811,-0.14,0.28,9.21,-0.12,0.32,0.94,34.23
31023177,1837,1,196827,215943,0.28,0.28,9.44,-0.20,0.28,0.74,34.23
31063149,1808,1,197588,219244,0.08,-0.12,9.52,-0.24,0.25,0.62,34.23
31103170,1851,1,198745,220870,-0.40,-0.47,9.27,-0.44,0.37,0.52,34.23
31143179,1819,1,199193,222732,-0.54,-0.82,9.87,-0.41,0.26,0.42,34.23
31183179,1820,1,200664,225611,-0.46,-0.80,9.58,-0.16,-0.02,0.25,34.23
31223199,1839,1,200838,222206,-0.62,-0.50,8.98,-0.41,-0.25,0.02,34.23
31263199,1815,1,199145,217332,-1.23,-1.04,10.24,-0.44,-0.30,0.05,34.23
31303200,1822,1,200014,221553,-0.73,-1.44,10.81,-0.03,-0.09,0.23,34.23
31343200,1899,1,202260,225532,-0.19,-1.08,10.23,-0.10,0.20,0.19,34.23
31383213,1802,1,202691,226317,-0.57,-0.98,10.39,-0.19,0.29,0.22,34.23
31423180,1823,1,202627,227890,-0.67,-0.76,10.37,-0.10,0.29,0.27,34.23
31463179,1778,1,203633,231526,-0.49,-0.39,9.34,-0.17,0.09,0.17,34.23
31503866,1857,1,204174,232352,-1.24,-0.46,9.84,-0.50,-0.10,0.17,34.17
31542200,1777,1,204271,233995,-1.69,-1.01,11.10,-0.32,-0.23,0.44,34.17
31582200,1829,1,204482,234994,-1.01,-0.70,9.88,-0.15,-0.32,0.64,34.17
31622199,1776,1,203935,234424,-0.90,-1.04,9.98,-0.18,0.01,0.64,34.17
31662179,1828,1,203303,234024,-1.15,-0.90,10.34,-0.04,0.04,0.64,34.17
31702179,1840,1,202951,233936,-1.01,-0.67,10.15,0.17,0.03,0.56,34.17
31742170,1753,1,202761,233967,-1.04,-0.70,10.33,0.20,0.14,0.48,34.17
31782170,1765,1,202624,232578,-1.03,-0.51,10.34,0.34,0.06,0.48,34.17
31822170,1775,1,201591,229484,-0.78,-0.61,10.33,0.29,-0.25,0.37,34.17
31862179,1872,1,200802,228605,-0.34,-0.51,10.17,0.25,-0.62,0.22,34.17
31902180,1843,1,200870,229765,-0.25,-0.09,9.61,0.28,-0.89,0.02,34.17
31942180,1830,1,201190,229984,0.28,0.34,8.58,0.10,-0.90,-0.18,34.17
31982170,1883,1,200847,230260,0.07,-0.06,9.49,0.03,-0.31,-0.04,34.17
32022177,1874,1,200713,230846,-0.20,-0.51,9.97,0.24,0.16,0.30,34.17
32062170,1829,1,200588,230886,-0.08,0.02,9.87,0.39,0.35,0.58,34.17
32102148,1879,1,200948,232489,-0.38,0.09,9.59,0.18,0.44,0.59,34.17
32142148,1878,1,201498,233308,-0.39,0.15,9.04,-0.25,0.08,0.35,34.17
32182170,1872,1,201270,232809,-0.29,-0.20,10.03,-0.40,-0.18,0.25,34.17
32222200,1847,1,200882,232279,-0.12,-0.58,9.94,-0.14,-0.10,0.19,34.17
32262199,1840,1,200621,232029,-0.13,-0.32,9.73,-0.14,0.23,0.29,34.17
32302180,1850,1,200658,231855,-0.32,-0.76,10.29,-0.16,0.43,0.29,34.17
32342179,1872,1,200546,229594,-0.66,-0.81,10.35,0.08,0.31,0.21,34.17
32382170,1795,1,199147,225875,-0.56,-0.75,9.97,0.17,0.28,0.12,34.17
32422170,1803,1,198198,223636,-0.56,-0.55,9.53,0.05,0.21,0.06,34.17
32462170,1791,1,197596,222594,-0.72,-0.63,10.11,0.04,0.39,0.06,34.17
32502170,1711,1,197583,222628,-0.89,-0.58,9.80,0.08,0.48,0.04,34.17
32542857,1766,1,197673,223152,-1.20,-0.21,9.73,0.05,0.77,0.14,34.09
32583170,1777,1,198202,223875,-1.80,-0.63,10.44,-0.06,0.88,0.09,34.09
32623179,1804,1,198509,223722,-2.19,-0.54,10.57,-0.05,0.39,-0.06,34.09
32663200,1833,1,198241,223403,-1.83,-0.32,9.97,0.03,-0.03,-0.15,34.09
32703200,1769,1,197904,223301,-1.59,-0.25,9.67,-0.16,-0.05,-0.10,34.09
32743214,1770,1,197708,222952,-1.64,-0.50,10.01,-0.25,-0.12,-0.02,34.09
32783217,1745,1,197650,222552,-1.55,-0.34,9.60,-0.20,-0.26,0.12,34.09
32823217,1703,1,197420,221985,-1.21,-0.24,9.20,-0.24,-0.10,0.24,34.09
32863202,1767,1,197589,221602,-1.24,-0.48,9.53,-0.34,0.19,0.25,34.09
32903182,1693,1,197819,220963,-1.43,-0.72,9.50,-0.41,-0.08,0.17,34.09
32943205,1703,1,197136,216342,-1.13,-0.75,9.38,-0.49,-0.12,0.13,34.09
32983203,1731,1,195094,209721,-1.22,-0.70,9.62,-0.41,0.14,0.18,34.09
33023221,1778,1,193291,207154,-1.60,-1.04,10.03,-0.29,0.21,0.23,34.09
33063182,1691,1,193381,208204,-1.52,-1.07,10.21,-0.12,0.12,0.30,34.09
33103181,1793,1,193910,209613,-1.42,-0.97,10.13,-0.10,0.14,0.28,34.09
33143181,1734,1,194821,212796,-1.34,-1.22,10.33,-0.11,0.12,0.19,34.09
33183183,1777,1,196111,215860,-1.52,-1.18,10.62,-0.09,0.04,0.09,34.09
33223199,1837,1,196865,217156,-1.29,-0.88,10.49,0.05,-0.07,0.06,34.09
33263180,1700,1,197122,218341,-1.28,-0.99,10.37,0.08,0.07,0.07,34.09
33303170,1818,1,197727,220621,-1.95,-1.12,10.72,0.04,0.09,0.05,34.09
33343170,1755,1,198994,223875,-2.18,-1.15,10.41,0.06,-0.16,-0.00,34.09
33383200,1783,1,199923,226181,-1.97,-0.95,9.82,0.09,-0.16,-0.05,34.09
33423200,1823,1,200727,227772,-2.05,-0.97,9.56,0.02,-0.09,-0.17,34.09
33463200,1780,1,200908,228068,-2.32,-0.62,9.31,-0.06,0.24,-0.15,34.09
33503200,1840,1,199789,224920,-2.84,-0.75,9.82,-0.02,0.25,-0.05,34.09
33543888,1799,1,198570,220614,-3.06,-0.74,9.75,0.05,0.27,0.09,34.03
33582170,1829,1,197191,215701,-3.23,-1.00,9.35,0.06,0.36,0.14,34.03
33622171,1837,1,196151,214571,-3.02,-1.55,9.52,-0.04,-0.05,0.08,34.03
33662200,1749,1,196216,215554,-2.68,-1.68,9.18,-0.02,-0.30,0.09,34.03
33702200,1860,1,196487,217215,-2.22,-1.57,8.94,-0.10,-0.30,0.13,34.03
33742200,1867,1,197145,218620,-2.12,-1.56,9.00,-0.17,-0.28,0.20,34.03
33782200,1804,1,197621,219442,-2.09,-1.70,9.22,-0.12,-0.22,0.16,34.03
33822202,1794,1,197524,218871,-1.90,-1.43,9.23,-0.10,-0.07,0.00,34.03
33862201,1746,1,198257,221223,-1.71,-1.69,9.54,-0.14,0.03,-0.31,34.03
33902204,1755,1,199527,224174,-1.85,-1.62,9.68,-0.09,0.09,-0.62,34.03
33942201,1787,1,200392,225567,-1.95,-1.31,9.94,0.08,0.15,-0.86,34.03
33982183,1699,1,200135,225213,-2.00,-1.16,9.90,0.42,0.02,-1.01,34.03
34022180,1778,1,199410,224281,-1.53,-0.93,9.77,0.62,-0.09,-1.12,34.03
34062204,1808,1,198996,222024,-1.44,-0.46,9.32,0.62,0.04,-1.24,34.03
34102181,1755,1,197133,214209,-2.20,-0.44,9.82,0.41,0.23,-1.21,34.03
34142183,1826,1,194166,208989,-2.63,-0.74,10.49,0.36,0.13,-1.15,34.03
34182183,1767,1,194064,210245,-2.75,-0.92,10.61,0.22,-0.03,-1.29,34.03
34222204,1745,1,194711,211951,-2.78,-0.92,10.42,0.20,-0.38,-1.47,34.03
34262201,1718,1,195159,213520,-2.18,-0.62,9.54,0.27,-0.34,-1.45,34.03
34302204,1669,1,195867,215090,-2.03,-0.74,9.35,0.20,-0.02,-1.39,34.03
34342202,1669,1,196529,215967,-2.13,-0.61,9.13,0.31,0.07,-1.46,34.03
34382184,1699,1,196766,215984,-1.94,-0.02,8.22,0.42,0.09,-1.37,34.03
34422182,1599,1,196580,215635,-1.57,0.40,8.38,0.34,0.23,-1.25,34.03
34462176,1708,1,196267,215091,-1.94,0.10,9.31,0.18,0.45,-1.13,34.03
34502170,1723,1,196116,214549,-2.60,-0.40,10.17,0.01,0.38,-1.08,34.03
34542183,1707,1,195927,214819,-3.00,-0.81,10.55,-0.03,0.18,-0.99,34.03
34582889,1648,1,195891,215063,-2.55,-0.91,10.31,0.13,-0.16,-0.94,34.15
34623205,1634,1,195501,212295,-1.92,-0.97,9.47,0.15,-0.12,-0.89,34.15
34663210,1664,1,192946,204074,-1.96,-0.96,9.48,0.10,-0.06,-0.88,34.15
34703206,1668,1,190197,199155,-1.96,-0.98,9.37,0.19,-0.05,-0.85,34.15
34743202,1630,1,188766,196953,-1.87,-0.89,9.45,0.13,0.00,-0.84,34.15
34783184,1625,1,188545,197613,-1.92,-0.82,9.62,0.09,0.00,-0.82,34.15
34823182,1579,1,189328,201871,-1.75,-0.63,9.76,0.01,-0.21,-0.88,34.15
34863206,1555,1,191482,207777,-1.43,-0.74,10.03,-0.11,-0.22,-0.95,34.15
34903219,1506,1,193220,211910,-1.50,-0.95,10.11,-0.15,-0.04,-1.00,34.15
34943219,1526,1,194362,214094,-1.52,-0.97,9.97,-0.15,0.03,-1.00,34.15
34983203,1527,1,194435,214721,-1.67,-0.92,10.15,-0.02,-0.01,-0.89,34.15
35023239,1569,1,194275,214942,-1.56,-0.63,9.98,0.18,-0.00,-0.77,34.15
35063202,1535,1,194297,215731,-1.37,-0.50,9.77,0.14,0.06,-0.65,34.15
35103184,1589,1,194432,217021,-1.36,-0.44,10.04,0.05,-0.03,-0.66,34.15
35143202,1559,1,194644,218098,-1.42,-0.57,10.02,-0.00,-0.01,-0.65,34.15
35183219,1590,1,194632,217579,-1.55,-0.84,10.18,-0.03,0.12,-0.60,34.15
35223202,1578,1,193431,212482,-1.99,-0.97,10.44,0.05,0.02,-0.50,34.15
35263184,1621,1,190861,204977,-1.58,-0.65,10.00,0.21,-0.08,-0.26,34.15
35303205,1612,1,188595,200353,-1.44,-0.55,9.73,0.20,0.06,-0.12,34.15
35343184,1653,1,187712,200140,-1.52,-0.57,9.99,0.13,0.14,-0.05,34.15
35383182,1680,1,188093,201906,-1.55,-0.51,9.66,0.02,0.06,-0.00,34.15
35423182,1689,1,188682,202872,-1.54,-0.58,9.63,-0.01,0.01,0.05,34.15
35463182,1708,1,189061,205313,-1.62,-0.67,9.74,-0.01,-0.03,0.04,34.15
35503205,1717,1,190516,209797,-1.58,-0.70,9.22,-0.10,0.03,0.10,34.15
35543182,1717,1,191792,212036,-1.72,-1.14,9.39,-0.33,0.03,0.06,34.15
35583871,1694,1,192458,213565,-1.79,-1.25,9.70,-0.38,-0.26,0.13,34.23
35622204,1724,1,193003,214685,-1.31,-1.53,9.73,-0.46,-0.28,0.09,34.23
35662204,1711,1,193031,214441,-1.31,-1.83,10.52,-0.36,-0.34,-0.03,34.23
35702218,1709,1,192698,213518,-1.12,-1.80,10.11,-0.09,-0.30,0.10,34.23
35742204,1730,1,192226,211053,-1.18,-1.24,9.86,0.01,-0.11,0.26,34.23
35782181,1728,1,190475,203112,-1.05,-0.81,9.50,0.14,0.07,0.39,34.23
35822170,1719,1,188224,202146,-1.47,-0.79,9.33,0.03,0.34,0.44,34.23
35862170,1732,1,189064,203521,-1.88,-1.16,9.86,-0.06,0.13,0.27,34.23
35902183,1709,1,188698,202368,-1.41,-1.06,9.75,0.11,-0.19,0.05,34.23
35942180,1704,1,187785,200084,-1.05,-1.21,9.37,0.11,0.03,-0.09,34.23
35982182,1685,1,187325,199503,-1.41,-1.11,10.04,0.10,0.28,-0.10,34.23
36022181,1678,1,187965,200483,-1.89,-1.04,10.04,0.10,0.46,0.03,34.23
36062170,1687,1,188762,201002,-2.39,-0.94,10.29,0.10,0.26,0.11,34.23
36102170,1680,1,188234,197151,-2.59,-0.45,9.96,0.17,-0.14,0.25,34.23
36142183,1671,1,187115,196862,-2.42,-0.61,9.41,0.14,-0.39,0.30,34.23
36182183,1654,1,188642,203114,-2.17,-0.98,9.32,0.04,-0.38,0.16,34.23
36222183,1660,1,191986,210388,-1.49,-1.01,9.21,0.02,-0.33,0.08,34.23
36262183,1650,1,194129,213897,-1.11,-0.78,9.22,-0.13,0.04,0.12,34.23
36302183,1653,1,195212,216645,-1.15,-0.62,9.94,-0.25,0.31,0.18,34.23
36342181,1660,1,196475,220471,-1.43,-0.67,10.23,-0.22,0.38,0.17,34.23
36382183,1677,1,196700,217326,-1.60,-0.64,10.45,-0.28,0.40,0.09,34.23
36422181,1658,1,194126,208730,-1.75,-0.59,10.53,-0.10,0.14,0.03,34.23
36462183,1686,1,190445,199497,-2.42,-0.64,10.14,0.06,0.05,0.21,34.23
36502176,1671,1,187630,193589,-1.58,-0.14,9.40,0.13,-0.32,0.35,34.23
36542183,1725,1,185307,189884,-1.37,-0.06,8.99,-0.09,-0.10,0.41,34.23
36582201,1715,1,185446,193326,-1.68,-0.39,9.98,-0.17,0.21,0.30,34.23
36622867,1709,1,188432,203153,-1.52,-0.77,9.87,0.08,0.13,0.06,34.17
36663170,1725,1,192028,210016,-1.55,-0.73,9.33,0.14,0.42,-0.14,34.17
36703181,1706,1,192756,208032,-2.08,-0.68,9.66,0.24,0.38,-0.20,34.17
36743181,1741,1,191202,203602,-1.71,-0.57,9.83,0.42,0.24,-0.27,34.17
36783180,1731,1,191027,206845,-1.41,-0.09,9.80,0.33,0.15,-0.45,34.17
36823180,1689,1,193066,210069,-2.43,0.11,9.97,-0.02,0.30,-0.43,34.17
36863180,1733,1,194336,213566,-2.98,0.04,10.49,-0.17,0.31,-0.18,34.17
36903180,1712,1,195614,216460,-3.22,0.14,10.15,-0.11,0.14,0.01,34.17
36942170,1714,1,195330,212236,-3.30,0.31,9.70,-0.14,0.20,0.22,34.17
36982170,1760,1,193251,207744,-3.67,0.40,9.59,-0.10,0.17,0.33,34.17
37022170,1728,1,192824,208964,-3.58,0.45,9.24,-0.12,0.03,0.44,34.17
37062170,1710,1,193045,208068,-3.50,0.31,9.14,-0.27,-0.03,0.51,34.17
37102180,1706,1,191996,205089,-3.45,-0.07,9.46,-0.32,-0.13,0.62,34.17
37142200,1691,1,191093,202728,-3.02,-0.52,9.45,-0.36,-0.21,0.64,34.17
37182201,1683,1,190516,201996,-2.92,-0.82,9.69,-0.43,-0.35,0.60,34.17
37222201,1697,1,190690,203593,-2.54,-0.88,9.44,-0.38,-0.53,0.64,34.17
37262201,1739,1,190907,203292,-2.15,-0.87,9.14,-0.36,-0.55,0.66,34.17
37302200,1712,1,190792,203610,-2.44,-1.08,9.48,-0.32,-0.39,0.68,34.17
37342201,1688,1,190912,204388,-2.33,-1.35,9.56,-0.25,-0.45,0.63,34.17
37382200,1667,1,191872,207585,-1.90,-1.34,9.35,-0.25,-0.39,0.50,34.17
37422201,1765,1,192953,210179,-1.71,-1.28,9.34,-0.24,-0.24,0.34,34.17
37462200,1767,1,193331,207933,-1.92,-1.29,9.81,-0.19,-0.01,0.20,34.17
37502201,1753,1,190809,198918,-2.10,-1.13,9.99,-0.03,0.08,0.32,34.17
37542180,1733,1,188225,195142,-2.27,-0.81,9.48,0.02,0.27,0.56,34.17
37582170,1701,1,187504,194639,-2.86,-0.71,9.58,-0.11,0.32,0.75,34.17
37622180,1744,1,187287,194073,-3.11,-1.07,9.66,-0.25,0.21,0.80,34.17
37662867,1697,1,187457,195404,-2.95,-1.62,9.89,-0.32,0.08,0.65,34.31
37703180,1734,1,188029,196047,-2.19,-1.72,9.66,-0.16,-0.20,0.56,34.31
37743201,1739,1,187036,191440,-1.78,-1.55,9.19,-0.03,-0.49,0.51,34.31
37783200,1763,1,184302,185954,-2.23,-1.35,9.68,0.01,-0.22,0.75,34.31
37823180,1726,1,181885,183141,-2.18,-1.10,10.01,0.02,0.20,0.99,34.31
37863170,1731,1,182087,183667,-2.59,-0.92,10.08,-0.10,0.26,1.08,34.31
37903180,1759,1,183302,187298,-2.68,-0.86,10.10,-0.29,0.06,1.09,34.31
37942221,1761,1,186041,193323,-2.22,-0.88,9.53,-0.39,0.04,1.01,34.31
37982180,1745,1,189252,198497,-2.41,-0.83,9.48,-0.38,0.10,0.86,34.31
38022180,1780,1,189027,194136,-2.59,-0.63,9.45,-0.27,-0.16,0.91,34.31
38062201,1773,1,186078,188069,-1.93,-0.51,9.23,-0.18,-0.22,0.93,34.31
38102200,1777,1,184640,186982,-1.40,-0.40,9.06,-0.16,-0.12,0.71,34.31
38142220,1761,1,184334,185669,-1.91,-0.80,9.33,-0.25,-0.01,0.53,34.31
38182200,1762,1,183894,185305,-1.82,-0.88,9.74,-0.22,-0.08,0.44,34.31
38222201,1758,1,183471,185509,-1.23,-0.55,9.28,-0.21,-0.23,0.21,34.31
38262200,1795,1,182453,183520,-1.70,-0.45,9.65,-0.33,-0.26,0.07,34.31
38302200,1774,1,180842,181823,-2.31,-0.79,10.31,-0.23,0.09,0.29,34.31
38342180,1743,1,180531,182328,-2.07,-0.79,10.11,-0.17,0.04,0.32,34.31
38382180,1774,1,182263,184198,-2.66,-0.91,10.70,-0.14,0.12,0.43,34.31
38422180,1767,1,183754,187475,-2.55,-0.51,10.22,-0.01,0.02,0.58,34.31
38462180,1773,1,186694,193318,-1.89,-0.24,9.52,-0.14,-0.02,0.53,34.31
38502200,1733,1,189751,198411,-2.50,-0.56,10.31,-0.30,0.21,0.45,34.31
38542180,1698,1,191622,200658,-2.67,-0.52,10.30,-0.17,0.09,0.49,34.31
38582180,1794,1,191761,198634,-2.18,-0.24,9.67,-0.05,-0.08,0.48,34.31
38622201,1798,1,189556,192219,-2.15,-0.11,9.62,-0.05,-0.11,0.41,34.31
38662887,1767,1,186823,188635,-2.03,-0.14,9.43,-0.01,-0.17,0.34,34.13
38703200,1785,1,186239,188266,-1.72,-0.06,9.29,-0.03,-0.12,0.31,34.13
38743200,1749,1,186392,188290,-1.94,-0.08,9.36,-0.15,-0.02,0.31,34.13
38783200,1790,1,186370,188222,-2.21,-0.25,9.68,-0.17,-0.13,0.31,34.13
38823200,1799,1,186454,189323,-2.02,-0.04,9.63,-0.09,-0.28,0.34,34.13
38863200,1811,1,187122,191016,-1.83,-0.12,9.42,-0.10,-0.06,0.38,34.13
38903200,1806,1,188049,192862,-2.15,-0.31,9.63,-0.16,0.29,0.37,34.13
38943180,1822,1,189163,195415,-2.36,-0.46,9.72,-0.12,0.31,0.35,34.13
38982180,1847,1,190364,198978,-2.53,-0.29,9.40,-0.10,0.19,0.22,34.13
39022179,1806,1,192555,205251,-2.60,-0.55,9.16,-0.18,0.43,0.20,34.13
39062180,1801,1,195253,210768,-3.27,-0.92,9.81,-0.21,0.61,0.18,34.13
39102180,1809,1,196259,211333,-3.18,-1.24,9.67,-0.10,0.05,0.20,34.13
39142179,1822,1,196053,210315,-2.29,-1.37,9.51,-0.09,-0.13,0.24,34.13
39182201,1771,1,194860,205342,-2.11,-1.45,9.64,-0.17,-0.08,0.19,34.13
39222200,1779,1,193239,202105,-2.10,-1.51,9.81,-0.16,-0.33,0.16,34.13
39262201,1745,1,192601,201432,-1.95,-1.40,9.50,-0.11,-0.52,0.14,34.13
39302200,1743,1,192661,202347,-1.88,-1.42,9.36,-0.20,-0.31,0.07,34.13
39342203,1729,1,193133,203529,-2.05,-1.54,9.63,-0.20,-0.09,-0.04,34.13
39382215,1745,1,193709,206203,-2.16,-1.69,9.77,-0.17,0.04,-0.12,34.13
39422203,1681,1,195005,209021,-2.60,-1.85,9.97,-0.14,0.22,-0.22,34.13
39462204,1723,1,195486,208946,-2.58,-1.88,10.27,0.07,0.11,-0.19,34.13
39502182,1787,1,195442,209586,-2.41,-1.56,9.76,0.18,0.01,-0.19,34.13
39542180,1765,1,196373,212801,-2.23,-1.46,9.58,0.06,-0.03,-0.25,34.13
39582214,1744,1,197137,214650,-2.25,-1.37,9.56,-0.02,0.05,-0.22,34.13
39622201,1744,1,197385,214416,-2.37,-1.36,9.43,-0.05,0.07,-0.20,34.13
39662891,1744,1,197054,214008,-2.51,-1.21,9.46,0.00,-0.09,-0.12,34.03
39703202,1723,1,196657,211961,-2.06,-0.80,9.02,0.01,-0.29,0.07,34.03
39743183,1742,1,195020,206472,-1.83,-0.53,8.65,-0.20,-0.30,0.17,34.03
39783201,1798,1,193500,204584,-2.10,-0.70,8.99,-0.48,-0.11,0.22,34.03
39823202,1746,1,193864,208311,-1.95,-0.94,9.59,-0.48,-0.05,0.30,34.03
39863202,1798,1,195971,213875,-1.87,-1.10,9.16,-0.52,0.18,0.33,34.03
39903184,1737,1,197667,217606,-2.20,-1.87,10.07,-0.69,0.32,0.23,34.03
39943181,1729,1,198566,221184,-2.36,-2.34,10.65,-0.42,-0.17,0.10,34.03
39983204,1755,1,199445,223783,-1.85,-2.48,9.97,-0.24,-0.26,0.14,34.03
40023212,1787,1,199582,224170,-1.35,-2.51,10.17,-0.31,-0.17,0.12,34.03
40063204,1750,1,199522,225184,-1.20,-2.48,10.30,-0.07,-0.16,0.01,34.03
40103202,1741,1,200214,227519,-1.33,-2.09,9.75,-0.04,0.36,0.06,34.03
40143184,1761,1,201380,229677,-2.17,-2.01,10.23,-0.05,1.10,0.14,34.03
40183181,1742,1,202351,230684,-2.94,-2.20,10.31,0.23,0.93,0.14,34.03
40223170,1711,1,202453,230890,-2.83,-2.28,10.18,0.29,0.15,0.05,34.03
40263170,1738,1,202130,230638,-2.24,-2.09,9.83,0.37,-0.23,-0.11,34.03
40303204,1724,1,201080,228383,-1.93,-1.88,9.49,0.41,-0.17,-0.17,34.03
40343202,1749,1,199878,226865,-2.53,-1.57,9.15,0.43,-0.07,-0.06,34.03
40383203,1740,1,199631,226430,-3.00,-1.58,9.47,0.52,0.32,0.19,34.03
40423170,1729,1,200090,226494,-3.83,-1.24,9.12,0.55,0.37,0.27,34.03
40463170,1685,1,200631,227040,-3.80,-0.74,8.26,0.38,0.37,0.33,34.03
40503170,1807,1,201561,227927,-3.97,-0.42,8.18,0.24,0.28,0.34,34.03
40543170,1642,1,202026,228737,-3.89,-0.53,8.28,-0.02,0.24,0.34,34.03
40583180,1700,1,202438,230113,-3.63,-0.98,8.74,-0.03,-0.13,0.15,34.03
40623200,1665,1,203107,231737,-3.52,-1.17,8.75,0.02,-0.17,0.01,34.03
40663866,1706,1,203686,232830,-3.70,-1.30,9.13,0.06,-0.19,-0.17,34.01
40702200,1685,1,203934,233306,-3.59,-1.38,9.32,0.17,-0.17,-0.37,34.01
40742199,1742,1,204008,233695,-3.39,-1.34,9.53,0.29,-0.03,-0.49,34.01
40782201,1711,1,203969,233490,-3.31,-1.15,9.47,0.40,0.13,-0.56,34.01
40822179,1750,1,203687,232458,-3.20,-0.78,9.35,0.52,0.21,-0.65,34.01
40862180,1713,1,203026,229635,-3.17,-0.46,9.44,0.55,0.29,-0.74,34.01
40902179,1716,1,201623,225528,-3.49,-0.25,9.45,0.60,0.39,-0.78,34.01
40942182,1757,1,199999,219695,-3.69,0.16,8.90,0.60,0.30,-0.88,34.01
40982171,1781,1,198447,215988,-4.34,0.34,9.10,0.55,0.17,-0.92,34.01
41022171,1807,1,198221,216579,-4.54,0.50,9.23,0.45,0.01,-0.98,34.01
41062171,1779,1,198530,218358,-4.75,0.32,9.30,0.33,-0.15,-1.11,34.01
41102182,1856,1,199019,220504,-4.78,-0.06,9.73,0.18,-0.50,-1.23,34.01
41142201,1840,1,199812,222888,-4.46,-0.28,9.63,0.14,-0.60,-1.26,34.01
41182203,1839,1,200410,224430,-4.22,-0.43,9.29,0.16,-0.51,-1.29,34.01
41222201,1856,1,200906,224902,-4.26,-0.32,8.87,0.31,-0.34,-1.22,34.01
41262203,1840,1,200759,224597,-3.88,0.02,8.51,0.48,-0.18,-1.13,34.01
41302180,1819,1,200315,223424,-3.33,0.32,8.41,0.50,-0.07,-1.17,34.01
41342182,1798,1,199827,223170,-3.18,0.40,8.29,0.37,0.00,-1.21,34.01
41382171,1769,1,199889,223699,-3.48,0.17,8.88,0.23,0.09,-1.09,34.01
41422170,1711,1,199813,222216,-3.72,0.05,9.37,0.15,0.17,-0.96,34.01
41462170,1699,1,198405,217227,-3.94,-0.49,9.97,0.05,0.03,-1.02,34.01
41502182,1659,1,196986,215111,-3.92,-0.90,10.10,-0.01,-0.26,-1.10,34.01
41542217,1641,1,196578,215146,-3.20,-1.20,9.86,0.05,-0.55,-1.04,34.01
41582203,1616,1,196673,217436,-2.62,-1.28,9.46,0.15,-0.51,-0.93,34.01
41622204,1555,1,197963,220992,-2.42,-1.00,9.06,0.26,-0.21,-0.82,34.01
41662203,1535,1,199324,223387,-2.43,-0.86,8.80,0.33,-0.20,-0.85,34.01
41702887,1472,1,199943,224645,-2.12,-0.58,8.73,0.26,-0.18,-0.92,34.29
41743204,1562,1,200037,224803,-2.35,-0.52,9.20,0.12,0.00,-0.94,34.29
41783181,1507,1,199896,224127,-2.47,-0.56,9.71,0.07,-0.04,-0.93,34.29
41823201,1587,1,200134,225443,-2.08,-0.39,9.78,-0.02,-0.10,-0.85,34.29
41863214,1559,1,201421,228160,-2.34,-0.56,10.03,-0.21,0.08,-0.91,34.29
41903201,1520,1,202314,229358,-2.58,-0.55,10.22,-0.09,0.02,-0.88,34.29
41943201,1578,1,202422,229452,-2.02,-0.36,9.73,0.05,-0.17,-0.87,34.29
41983202,1535,1,202299,228753,-1.87,-0.51,9.89,0.03,0.01,-0.86,34.29
42023197,1553,1,201412,225667,-1.90,-0.89,10.14,0.11,0.02,-0.84,34.29
42063180,1616,1,199750,222237,-1.77,-1.12,10.22,0.19,-0.03,-0.89,34.29
42103201,1622,1,198374,219733,-1.98,-1.21,10.28,0.22,0.13,-0.84,34.29
42143184,1535,1,197866,219106,-1.97,-1.01,9.95,0.33,0.19,-0.71,34.29
42183184,1621,1,197535,218852,-2.30,-0.89,10.23,0.38,0.16,-0.55,34.29
42223183,1651,1,197433,219826,-2.50,-0.72,10.14,0.43,0.12,-0.41,34.29
42263182,1650,1,198070,221604,-2.44,-0.39,9.78,0.35,0.04,-0.35,34.29
42303185,1634,1,198702,222637,-2.67,-0.36,9.56,0.24,0.00,-0.25,34.29
42343182,1674,1,198974,223356,-2.62,-0.12,9.06,0.18,-0.15,-0.16,34.29
42383205,1739,1,199357,224491,-2.32,-0.07,8.83,0.09,-0.16,-0.12,34.29
42423202,1726,1,199686,225326,-2.11,-0.12,8.92,-0.06,-0.09,-0.09,34.29
42463218,1802,1,199758,225730,-1.89,-0.19,9.34,-0.16,-0.11,-0.08,34.29
42503219,1766,1,199883,226836,-2.11,-0.65,9.79,-0.36,0.01,-0.03,34.29
42543205,1777,1,200728,227783,-2.42,-1.28,10.61,-0.38,0.04,-0.01,34.29
42583201,1824,1,200161,224289,-2.50,-1.13,10.00,-0.43,-0.38,0.02,34.29
42623200,1835,1,198450,219910,-1.86,-1.42,9.99,-0.44,-0.62,0.05,34.29
42663200,1808,1,197113,218083,-1.17,-1.04,9.50,-0.27,-0.71,0.11,34.29
42703888,1794,1,196677,217399,-0.97,-1.00,9.27,-0.20,-0.34,0.22,34.17
42744200,1813,1,196035,215723,-1.49,-1.09,9.63,-0.13,-0.09,0.26,34.17
42784201,1809,1,195135,213622,-1.68,-0.91,9.77,0.06,-0.10,0.18,34.17
42824180,1795,1,194171,212108,-1.42,-0.86,9.56,0.14,-0.08,0.08,34.17
42864180,1792,1,193474,210957,-1.31,-0.77,9.51,0.05,-0.11,-0.03,34.17
42904201,1808,1,192547,209817,-1.13,-0.28,9.48,-0.01,-0.19,0.04,34.17
42944201,1806,1,192591,211856,-1.19,-0.74,9.74,-0.21,-0.02,0.28,34.17
42984201,1757,1,194201,216407,-1.78,-0.94,10.48,-0.29,0.07,0.39,34.17
43024208,1728,1,195334,218801,-1.64,-1.13,10.00,-0.13,-0.20,0.37,34.17
43064201,1758,1,195800,220000,-1.48,-1.22,9.87,-0.18,-0.06,0.33,34.17
43104204,1749,1,196042,220280,-2.12,-1.30,10.33,-0.08,-0.02,0.27,34.17
43144200,1744,1,195632,218672,-1.66,-1.09,9.77,0.06,-0.08,0.30,34.17
43184180,1749,1,194252,212981,-1.47,-0.92,9.94,0.04,0.05,0.20,34.17
43224170,1776,1,191768,206907,-1.14,-0.76,9.75,0.10,0.04,0.17,34.17
43264182,1792,1,190250,204921,-0.86,-0.86,9.89,0.11,0.14,0.10,34.17
43304170,1801,1,189645,203945,-1.24,-0.90,10.13,0.14,0.16,0.02,34.17
43344169,1808,1,189395,204368,-0.96,-0.66,9.82,0.26,0.08,-0.00,34.17
43384180,1795,1,189673,205828,-0.83,-0.46,9.62,0.24,0.16,-0.06,34.17
43424180,1812,1,190043,206514,-1.15,-0.32,9.68,0.21,0.20,-0.12,34.17
43464196,1825,1,190228,206779,-1.41,-0.20,9.72,0.21,0.18,-0.12,34.17
43504180,1851,1,190183,207078,-1.39,-0.23,9.54,0.16,0.23,-0.14,34.17
43544180,1785,1,190356,207577,-1.70,-0.22,9.79,0.09,0.29,-0.14,34.17
43584180,1829,1,190745,208330,-1.75,-0.19,9.71,0.09,0.24,-0.07,34.17
43624180,1819,1,191062,208966,-1.56,0.05,9.63,-0.01,0.16,-0.07,34.17
43664180,1815,1,191346,210048,-1.70,0.07,9.72,-0.09,0.17,-0.05,34.17
43704866,1866,1,191814,210121,-1.80,-0.13,9.99,-0.16,0.06,-0.11,34.29
43743200,1838,1,191708,208252,-1.71,-0.31,10.01,-0.20,-0.00,-0.18,34.29
43783213,1821,1,191269,206639,-1.81,-0.34,9.96,-0.17,0.14,-0.12,34.29
43823203,1801,1,191190,207938,-2.19,-0.21,9.90,-0.11,0.15,-0.03,34.29
43863201,1794,1,192267,210406,-1.79,0.07,9.25,-0.07,-0.06,0.07,34.29
43903180,1808,1,193448,214257,-2.04,0.04,9.37,-0.23,0.06,0.11,34.29
43943170,1771,1,195035,217485,-2.46,-0.28,9.62,-0.38,0.06,0.11,34.29
43983181,1789,1,196356,219560,-2.71,-0.82,9.98,-0.48,-0.02,0.12,34.29
44023211,1782,1,196952,221020,-3.01,-1.27,10.16,-0.50,-0.05,0.16,34.29
44063202,1753,1,197920,223083,-2.94,-1.47,10.27,-0.31,-0.17,0.24,34.29
44103201,1775,1,198382,223557,-2.36,-1.50,9.84,-0.12,-0.21,0.31,34.29
44143204,1744,1,198408,224167,-2.35,-1.36,9.56,-0.04,-0.10,0.30,34.29
44183201,1761,1,198591,225088,-2.59,-1.34,9.67,-0.04,-0.08,0.26,34.29
44223201,1777,1,198917,225756,-2.76,-1.36,9.77,-0.00,-0.10,0.28,34.29
44263200,1804,1,199185,226089,-2.72,-1.21,9.59,-0.00,-0.09,0.28,34.29
44303201,1778,1,198974,224819,-2.58,-1.11,9.48,-0.01,-0.05,0.36,34.29
44343200,1786,1,197937,221446,-2.96,-1.07,9.54,-0.08,0.12,0.47,34.29
44383180,1745,1,196907,219655,-3.01,-0.96,9.33,-0.09,0.19,0.59,34.29
44423180,1774,1,196638,218970,-2.94,-0.83,9.18,-0.17,0.27,0.66,34.29
44463180,1763,1,196289,218184,-3.10,-1.15,9.27,-0.29,0.26,0.69,34.29
44503180,1771,1,195862,217381,-2.93,-1.02,8.94,-0.30,0.05,0.74,34.29
44543179,1771,1,195589,217456,-2.45,-1.01,8.75,-0.37,-0.06,0.76,34.29
44583200,1746,1,195781,218266,-2.59,-1.33,9.21,-0.41,-0.04,0.78,34.29
44623201,1808,1,195806,217928,-2.80,-1.46,9.64,-0.39,-0.09,0.86,34.29
44663200,1744,1,195673,218162,-3.03,-1.68,10.04,-0.33,-0.02,0.98,34.29
44703200,1792,1,195915,218992,-3.01,-1.68,9.88,-0.25,-0.11,1.05,34.29
44743887,1741,1,196171,219507,-3.09,-1.48,9.88,-0.23,-0.10,1.08,34.33
44784201,1739,1,196234,219791,-3.19,-1.81,9.97,-0.27,-0.03,1.07,34.33
44824200,1744,1,196465,220680,-3.23,-1.72,9.73,-0.24,-0.04,1.06,34.33
44864200,1738,1,196444,219486,-2.68,-1.32,9.21,-0.22,-0.17,1.04,34.33
44904225,1710,1,194863,213049,-2.62,-1.13,9.36,-0.23,-0.31,0.98,34.33
44944203,1757,1,192209,206945,-2.49,-0.93,9.17,-0.22,-0.31,0.94,34.33
44984200,1766,1,191607,207344,-2.31,-1.24,9.38,-0.35,-0.08,0.86,34.33
45024227,1777,1,191725,206941,-2.32,-1.43,9.58,-0.28,-0.15,0.70,34.33
45064200,1772,1,191466,206780,-2.35,-1.32,9.54,-0.14,-0.07,0.66,34.33
45104230,1808,1,191803,207738,-2.45,-1.01,9.59,-0.04,0.13,0.70,34.33
45144179,1770,1,191843,207667,-2.64,-0.85,9.67,-0.01,0.14,0.71,34.33
45184179,1782,1,192064,209486,-2.93,-0.82,9.74,-0.05,0.08,0.70,34.33
45224180,1779,1,193003,212166,-2.51,-0.65,9.43,-0.07,-0.00,0.67,34.33
45264199,1834,1,193394,211006,-2.58,-0.46,9.41,-0.09,0.02,0.61,34.33
45304180,1813,1,192237,206643,-2.76,-0.55,9.86,-0.04,0.08,0.59,34.33
45344179,1813,1,191135,204336,-2.60,-0.40,9.88,0.17,0.08,0.58,34.33
45384170,1806,1,190401,201700,-2.40,0.00,9.67,0.24,0.09,0.53,34.33
45424148,1833,1,189547,199626,-2.32,0.40,9.68,0.24,0.10,0.49,34.33
45464148,1825,1,188637,196480,-2.49,0.67,9.83,0.15,0.11,0.42,34.33
45504148,1791,1,187601,194833,-2.85,0.66,9.66,0.03,0.11,0.38,34.33
45544148,1802,1,187265,194757,-2.96,0.48,9.71,-0.06,0.02,0.36,34.33
45584170,1826,1,187585,195448,-2.99,0.38,9.50,-0.12,-0.07,0.23,34.33
45624179,1831,1,187661,195212,-3.29,0.21,9.72,-0.11,-0.00,0.30,34.33
45664179,1817,1,187461,194704,-3.27,0.24,9.50,-0.03,-0.05,0.36,34.33
45704180,1773,1,187323,195087,-3.22,0.45,9.25,-0.07,-0.09,0.33,34.33
45744866,1829,1,187641,196068,-3.03,0.67,9.00,-0.15,-0.17,0.22,34.21
45783180,1818,1,187973,196504,-2.73,0.73,9.07,-0.18,-0.24,0.12,34.21
45823180,1821,1,187980,196089,-2.60,0.74,9.31,-0.16,-0.33,0.08,34.21
45863179,1821,1,187680,195135,-2.42,0.83,9.49,-0.15,-0.33,0.11,34.21
45903180,1804,1,187397,194572,-2.34,0.80,9.65,-0.21,-0.10,0.21,34.21
45943179,1830,1,187159,193785,-2.61,0.63,9.92,-0.17,-0.01,0.30,34.21
45983179,1827,1,186580,191933,-2.77,0.55,9.89,-0.05,-0.05,0.41,34.21
46023196,1758,1,185019,187224,-2.57,0.36,9.65,-0.02,-0.07,0.45,34.21
46063179,1726,1,182803,183699,-2.49,0.34,9.60,-0.07,-0.06,0.45,34.21
46103180,1802,1,181597,182822,-2.32,0.33,9.42,-0.16,-0.16,0.49,34.21
46143180,1744,1,181271,183767,-1.96,0.23,9.33,-0.27,-0.25,0.42,34.21
46183179,1833,1,181771,185953,-1.62,-0.10,9.32,-0.36,-0.22,0.32,34.21
46223200,1806,1,182866,188338,-1.57,-0.43,9.47,-0.39,-0.10,0.19,34.21
46263200,1804,1,183652,189254,-1.61,-0.48,9.64,-0.31,-0.09,0.12,34.21
46303200,1792,1,183807,188720,-1.58,-0.45,9.58,-0.24,-0.09,0.08,34.21
46343200,1797,1,183456,187947,-1.70,-0.55,9.82,-0.23,-0.09,0.06,34.21
46383200,1763,1,183439,187719,-1.96,-0.72,10.05,-0.21,-0.01,0.11,34.21
46423200,1815,1,183256,187011,-1.79,-0.84,9.92,-0.14,-0.06,0.10,34.21
46463200,1855,1,182513,185445,-1.56,-0.95,9.91,-0.13,-0.03,-0.02,34.21
46503214,1757,1,181909,184907,-1.74,-1.25,10.16,-0.08,0.06,-0.08,34.21
46543248,1760,1,181923,184694,-1.81,-1.16,10.14,0.05,-0.02,-0.09,34.21
46583199,1795,1,181398,183188,-1.43,-0.96,9.75,0.02,-0.08,-0.13,34.21
46623200,1727,1,181059,182862,-1.47,-0.88,9.86,-0.10,-0.05,-0.22,34.21
46663213,1758,1,181279,183898,-1.48,-1.03,10.03,-0.22,-0.09,-0.20,34.21
46703216,1751,1,182113,185222,-1.70,-1.07,10.10,-0.23,-0.12,-0.18,34.21
46743263,1713,1,182441,184856,-1.86,-1.16,10.29,-0.17,-0.15,-0.18,34.21
46783902,1689,1,181882,183541,-1.54,-1.07,10.15,-0.09,-0.17,-0.13,34.09
46824214,1717,1,180535,181408,-1.15,-0.89,9.96,-0.09,-0.17,-0.05,34.09
46864216,1778,1,179927,181239,-0.79,-0.76,9.72,-0.19,-0.27,-0.05,34.09
46904213,1762,1,180508,182436,-0.42,-0.74,9.31,-0.36,-0.34,-0.07,34.09
46944216,1808,1,181767,185611,-0.30,-0.96,9.45,-0.47,-0.28,-0.01,34.09
46984213,1897,1,183682,188982,-0.25,-1.33,9.39,-0.54,-0.17,-0.03,34.09
47024237,1852,1,185371,192959,-0.66,-1.65,10.13,-0.49,-0.14,0.03,34.09
47064199,1766,1,187106,196599,-0.71,-1.57,10.05,-0.20,-0.13,0.14,34.09
47104200,1863,1,188318,197781,-0.93,-1.64,10.03,-0.07,-0.05,0.18,34.09
47144199,1871,1,187204,190854,-1.44,-1.95,10.60,-0.01,0.03,0.22,34.09
47184179,1849,1,184059,185220,-1.48,-2.07,10.69,0.13,-0.05,0.28,34.09
47224179,1820,1,182055,182905,-1.03,-1.94,10.34,0.22,-0.33,0.21,34.09
47264181,1858,1,180863,181230,-0.57,-1.62,9.94,0.16,-0.43,0.10,34.09
47304179,1821,1,179827,180356,-0.37,-1.38,9.95,0.09,-0.31,-0.00,34.09
47344199,1829,1,179716,181659,-0.55,-1.20,9.46,0.11,-0.10,-0.05,34.09
47384200,1761,1,180667,183846,-0.77,-0.85,9.48,0.09,-0.08,-0.12,34.09
47424199,1729,1,182416,187975,-0.66,-0.74,9.53,0.18,-0.05,-0.23,34.09
47464200,1677,1,184988,192572,-0.56,-0.64,9.40,0.16,-0.09,-0.26,34.09
47504200,1641,1,186335,194474,-0.79,-1.09,9.40,-0.00,0.15,-0.11,34.09
47544199,1630,1,186688,193999,-1.22,-1.35,9.74,-0.07,0.03,-0.12,34.09
47584200,1589,1,186050,192467,-1.16,-1.40,9.81,-0.09,-0.10,-0.15,34.09
47624213,1563,1,185474,191584,-0.92,-1.41,9.48,-0.04,-0.08,-0.19,34.09
47664216,1562,1,184911,189202,-0.68,-1.44,9.32,-0.01,0.03,-0.22,34.09
47704200,1564,1,182987,184335,-0.58,-1.62,9.24,0.06,0.19,-0.36,34.09
47744179,1520,1,181375,182811,-0.83,-1.81,9.57,0.10,0.42,-0.53,34.09
47784866,1460,1,181017,182610,-1.11,-1.72,9.72,0.21,0.49,-0.65,34.13
47823180,1463,1,180968,183981,-1.27,-1.50,9.83,0.23,0.53,-0.73,34.13
47863179,1571,1,182161,187149,-1.58,-1.38,10.02,0.16,0.46,-0.90,34.13
47903180,1535,1,183740,190538,-1.76,-1.24,10.07,0.10,0.41,-1.06,34.13
47943179,1584,1,184981,191570,-1.61,-1.22,9.99,0.09,0.30,-1.13,34.13
47983180,1587,1,185387,192753,-1.72,-0.91,9.60,0.12,0.22,-1.06,34.13
48023196,1601,1,186067,194247,-1.68,-0.76,9.53,0.05,0.16,-1.03,34.13
48063179,1625,1,186662,194881,-2.06,-0.79,9.52,-0.07,0.14,-1.10,34.13
48103199,1664,1,186779,195344,-2.40,-1.15,10.05,-0.20,0.13,-1.12,34.13
48143200,1637,1,187090,196418,-2.53,-1.33,10.34,-0.16,0.04,-1.25,34.13
48183207,1701,1,187262,196602,-2.06,-1.42,10.18,-0.01,-0.05,-1.33,34.13
48223216,1681,1,187081,194654,-1.73,-1.47,10.07,0.10,0.10,-1.31,34.13
48263179,1727,1,185300,189033,-1.66,-1.36,9.95,0.19,0.21,-1.22,34.13
48303182,1790,1,183604,187268,-1.64,-1.15,9.62,0.26,0.20,-1.21,34.13
48343179,1802,1,183759,188611,-1.67,-1.11,9.69,0.18,0.28,-1.21,34.13
48383205,1794,1,184686,190571,-1.90,-1.30,9.63,0.16,0.41,-1.21,34.13
48423179,1872,1,185336,191702,-2.40,-1.44,9.67,0.22,0.39,-1.14,34.13
48463182,1890,1,185432,191401,-2.41,-1.25,9.42,0.40,0.29,-0.92,34.13
48503179,1891,1,184901,190086,-2.47,-1.15,9.25,0.27,0.39,-0.83,34.13
48543182,1930,1,184317,188401,-2.58,-1.60,9.63,0.05,0.25,-0.94,34.13
48583214,1919,1,183418,185467,-2.39,-1.70,9.56,-0.02,-0.19,-1.08,34.13
48623216,1943,1,181129,181265,-1.74,-1.78,9.12,-0.03,-0.22,-1.01,34.13
48663214,1954,1,178268,178256,-1.39,-1.82,9.37,-0.05,-0.00,-0.93,34.13
48703216,2003,1,176300,177013,-1.46,-1.91,9.50,0.03,0.11,-0.85,34.13
48743179,1952,1,175238,175934,-1.61,-1.80,9.81,-0.02,0.01,-0.87,34.13
48783200,1936,1,175075,176894,-1.65,-1.74,10.05,-0.01,-0.05,-0.89,34.13
48823900,1997,1,178120,182455,-1.45,-1.73,10.02,-0.05,-0.01,-0.89,34.21
48864216,1959,1,182643,187704,-1.58,-1.90,10.13,-0.04,-0.04,-0.86,34.21
48904213,1961,1,185053,191223,-1.32,-1.68,9.67,0.01,-0.18,-0.75,34.21
48944200,1939,1,186177,192413,-1.30,-1.73,9.64,0.04,0.01,-0.64,34.21
48984179,1927,1,186575,193349,-1.47,-1.79,10.08,-0.01,-0.03,-0.71,34.21
49023237,1937,1,187040,194206,-1.31,-1.81,9.99,0.01,-0.07,-0.75,34.21
49063199,1980,1,187024,192664,-1.12,-1.73,9.82,0.05,0.03,-0.69,34.21
49103179,1913,1,186033,190289,-1.32,-1.97,10.27,0.09,0.09,-0.60,34.21
49143179,1899,1,185172,188880,-1.14,-1.83,9.94,0.20,-0.01,-0.48,34.21
49183200,1905,1,184079,186513,-0.98,-1.85,9.68,0.16,0.02,-0.38,34.21
49223179,1897,1,182979,185564,-1.00,-1.75,9.81,0.16,-0.00,-0.30,34.21
49263200,1902,1,183216,186561,-0.99,-1.54,9.46,0.18,-0.04,-0.16,34.21
49303200,1918,1,182951,185265,-0.91,-1.23,9.39,0.14,-0.01,-0.05,34.21
49343200,1898,1,181842,182280,-1.03,-1.11,9.33,0.09,0.05,0.06,34.21
49383170,1893,1,180065,179995,-1.13,-1.01,9.53,-0.01,0.10,0.09,34.21
49423179,1872,1,179809,179572,-1.16,-1.25,9.82,-0.11,0.09,0.06,34.21
49463179,1881,1,179354,178469,-1.48,-1.80,10.38,-0.20,0.14,0.07,34.21
49503179,1844,1,178441,177568,-1.38,-1.80,10.23,-0.17,-0.00,0.14,34.21
49543200,1867,1,178275,177935,-1.04,-1.65,9.52,-0.17,-0.19,0.12,34.21
49583201,1821,1,177852,177887,-0.78,-1.62,9.60,-0.27,-0.26,-0.01,34.21
49623213,1830,1,177867,179241,-0.71,-1.76,9.60,-0.20,-0.22,-0.06,34.21
49663217,1821,1,179137,180883,-0.97,-1.92,9.86,-0.02,-0.01,0.05,34.21
49703200,1863,1,179870,181649,-1.39,-1.85,9.86,0.12,0.10,0.18,34.21
49743170,1861,1,179991,181252,-1.45,-1.64,9.89,0.14,0.05,0.24,34.21
49783170,1874,1,179459,182688,-1.38,-1.63,10.27,0.10,0.03,0.27,34.21
49823170,1860,1,181672,186901,-1.42,-1.94,10.81,0.01,0.01,0.25,34.21
49863856,1866,1,183132,188118,-1.28,-1.91,10.62,0.10,-0.25,0.31,34.23
49904181,1900,1,182221,186018,-0.62,-1.12,9.42,0.27,-0.46,0.47,34.23
49944179,1870,1,182042,185915,-0.54,-0.87,8.95,0.13,-0.27,0.47,34.23
49984179,1881,1,183040,186946,-1.05,-1.18,9.58,-0.04,-0.10,0.34,34.23
50023209,1899,1,183228,187163,-1.27,-1.31,9.63,0.04,-0.11,0.24,34.23
50063180,1893,1,184232,190728,-1.10,-1.10,9.42,0.12,-0.18,0.13,34.23
50103179,1877,1,186675,196039,-0.79,-1.00,9.38,0.06,-0.08,0.08,34.23
50143179,1865,1,188682,199317,-1.07,-0.83,9.62,-0.05,0.18,0.12,34.23
50183179,1879,1,189974,201993,-1.29,-0.74,10.10,-0.10,0.25,0.12,34.23
50223179,1883,1,191608,205866,-1.45,-0.77,10.07,-0.04,0.21,0.09,34.23
50263179,1883,1,193024,207420,-1.40,-0.76,10.04,0.00,0.10,0.10,34.23
50303170,1905,1,193485,207338,-1.24,-0.78,9.85,0.03,0.08,0.13,34.23
50343170,1863,1,193636,207772,-0.97,-0.75,9.60,-0.02,0.08,0.14,34.23
50383179,1831,1,194633,209409,-0.93,-0.85,9.73,-0.13,0.11,0.11,34.23
50423179,1823,1,195602,210747,-0.97,-0.91,9.91,-0.11,0.11,0.10,34.23
50463179,1811,1,196506,212274,-1.08,-0.82,9.85,-0.04,0.24,0.14,34.23
50503179,1795,1,196702,212772,-1.18,-0.75,9.85,-0.03,0.19,0.13,34.23
50543179,1858,1,196409,209425,-1.13,-0.69,9.69,-0.12,0.20,0.10,34.23
50583179,1808,1,193990,203995,-1.45,-0.78,9.50,-0.25,0.22,0.05,34.23
50623179,1821,1,192674,203644,-1.71,-1.12,10.19,-0.16,0.16,0.06,34.23
50663179,1825,1,190617,200509,-1.28,-1.20,9.74,-0.03,-0.04,-0.01,34.23
50703217,1792,1,188616,202440,-0.92,-1.43,9.85,-0.18,0.05,-0.24,34.23
50743200,1781,1,191580,208664,-1.15,-1.30,10.18,-0.15,0.22,-0.37,34.23
50783204,1774,1,194750,213923,-1.35,-1.27,10.28,-0.10,0.29,-0.36,34.23
50823200,1746,1,198347,219942,-1.67,-1.13,10.29,-0.13,0.36,-0.31,34.23
50863890,1747,1,201338,223964,-2.08,-1.11,10.20,-0.10,0.27,-0.22,34.31
50904201,1755,1,203318,227836,-2.67,-1.41,10.19,-0.14,0.21,0.01,34.31
50944182,1729,1,203547,228406,-2.64,-1.41,9.65,-0.41,0.03,0.18,34.31
50984180,1756,1,202780,227979,-2.39,-1.39,9.37,-0.55,-0.33,0.22,34.31
51024223,1750,1,201934,227290,-2.52,-1.53,9.12,-0.53,-0.35,0.28,34.31
51064199,1770,1,201328,226742,-2.39,-1.80,8.94,-0.46,-0.22,0.32,34.31
51104201,1779,1,200611,224000,-2.61,-2.07,8.93,-0.30,-0.22,0.34,34.31
51144200,1765,1,198714,218110,-2.17,-2.33,8.76,-0.12,-0.12,0.41,34.31
51184203,1744,1,195863,210519,-2.10,-2.58,8.93,0.04,0.26,0.47,34.31
51224170,1777,1,193581,206952,-2.34,-2.53,9.41,-0.03,0.39,0.44,34.31
51264179,1788,1,192962,207837,-2.39,-2.38,9.80,-0.14,0.16,0.36,34.31
51304179,1778,1,193927,211747,-2.54,-2.30,9.72,-0.31,0.00,0.42,34.31
51344179,1777,1,194788,213676,-2.95,-2.50,9.99,-0.41,0.05,0.53,34.31
51384179,1776,1,194877,213478,-3.29,-2.43,9.89,-0.28,-0.05,0.63,34.31
51424200,1767,1,194284,211203,-3.15,-2.26,9.33,-0.18,-0.10,0.67,34.31
51464199,1793,1,193703,210551,-2.91,-2.18,9.08,-0.19,-0.10,0.64,34.31
51504200,1773,1,193591,210071,-2.63,-2.33,9.43,-0.26,-0.15,0.66,34.31
51544200,1806,1,193300,208923,-2.56,-2.54,9.71,-0.21,-0.17,0.66,34.31
51584203,1837,1,192891,208154,-2.39,-2.45,9.60,-0.10,-0.22,0.77,34.31
51624199,1817,1,192636,207328,-2.32,-2.12,9.55,-0.03,-0.17,0.88,34.31
51664212,1799,1,192220,204503,-2.19,-1.76,9.40,0.07,-0.17,0.92,34.31
51704180,1808,1,190716,202300,-2.23,-1.41,8.55,-0.07,-0.26,0.74,34.31
51744200,1819,1,191160,206409,-2.92,-2.58,9.69,-0.39,-0.17,0.56,34.31
51784199,1808,1,192086,206891,-4.13,-3.00,10.85,-0.13,0.01,0.79,34.31
51824179,1770,1,191045,201037,-3.25,-2.63,9.27,0.15,-0.35,0.90,34.31
51864903,1606,1,188909,197408,-2.53,-1.96,8.85,0.14,-0.33,0.87,34.17
51903181,1616,1,188451,196927,-2.39,-1.68,8.88,0.12,-0.15,0.89,34.17
51943179,1499,1,188320,196625,-2.57,-1.85,8.96,-0.07,-0.03,0.88,34.17
51983200,1796,1,188157,196803,-2.67,-2.13,9.49,-0.30,-0.22,0.77,34.17
52023210,1494,1,188273,197022,-2.63,-2.37,9.79,-0.20,-0.45,0.68,34.17
52063200,1563,1,188246,197059,-2.10,-1.99,9.33,-0.03,-0.44,0.67,34.17
52103199,1703,1,188017,196474,-1.72,-1.74,9.02,-0.02,-0.23,0.70,34.17
52143200,1451,1,188332,199684,-1.77,-1.48,9.45,-0.07,0.04,0.72,34.17
52183179,1840,1,190589,206940,-2.08,-1.23,9.84,-0.15,-0.05,0.68,34.17
52223200,1838,1,192617,210912,-2.25,-1.08,10.07,-0.14,-0.21,0.73,34.17
52263200,1872,1,193019,209746,-2.10,-1.16,9.88,-0.22,-0.38,0.83,34.17
52303200,1888,1,191470,203829,-1.77,-0.99,9.83,-0.20,-0.41,0.82,34.17
52343199,1844,1,189758,201262,-1.77,-0.92,9.69,-0.08,-0.34,0.75,34.17
52383200,1862,1,189642,202838,-1.62,-0.87,9.67,-0.09,-0.25,0.57,34.17
52423199,1842,1,190298,204116,-1.50,-1.03,10.11,-0.07,-0.17,0.45,34.17
52463200,1837,1,190421,203995,-1.46,-0.98,9.85,-0.05,-0.19,0.34,34.17
52503200,1843,1,190592,204241,-1.19,-0.91,9.98,-0.11,-0.15,0.32,34.17
52543200,1868,1,190310,202337,-1.32,-0.88,9.88,0.02,-0.05,0.34,34.17
52583180,1856,1,189658,201279,-1.41,-1.00,9.92,-0.07,-0.06,0.24,34.17
52623200,1840,1,189577,201298,-1.49,-1.18,10.13,-0.09,-0.05,0.16,34.17
52663199,1789,1,189653,201484,-1.33,-1.11,9.68,-0.02,-0.08,0.11,34.17
52703200,1808,1,189541,200248,-1.27,-1.00,9.64,-0.03,-0.07,0.07,34.17
52743199,1838,1,188545,197059,-1.24,-0.91,9.49,-0.06,-0.07,0.04,34.17
52783199,1804,1,187435,195584,-1.11,-0.79,9.52,-0.14,-0.08,-0.03,34.17
52823213,1842,1,187205,194335,-1.19,-0.74,9.73,-0.15,0.01,-0.02,34.17
52863200,1815,1,186334,190807,-1.29,-0.67,9.90,-0.13,0.06,0.01,34.17
52903866,1845,1,184434,186256,-1.64,-0.75,10.25,-0.19,0.08,0.01,34.15
52944179,1842,1,182812,183726,-1.80,-0.83,9.96,-0.14,-0.02,-0.04,34.15
52984213,1814,1,182061,182560,-1.56,-1.11,10.22,-0.14,-0.11,-0.04,34.15
53024241,1855,1,181768,182762,-1.51,-1.34,10.27,-0.18,-0.32,-0.02,34.15
53064214,1819,1,182215,184411,-1.11,-1.43,10.08,-0.13,-0.38,0.04,34.15
53103201,1823,1,183028,185918,-0.80,-1.32,9.63,-0.17,-0.37,0.13,34.15
53143199,1841,1,183872,187883,-0.71,-1.66,9.35,-0.17,-0.12,0.20,34.15
53183200,1773,1,184663,188352,-0.89,-1.90,9.84,-0.15,0.05,0.20,34.15
53223179,1771,1,184489,188820,-1.05,-1.83,9.69,-0.00,0.16,0.18,34.15
53263179,1802,1,185929,192898,-0.98,-1.56,9.51,0.03,0.28,0.13,34.15
53303199,1841,1,187012,193735,-1.11,-1.33,9.56,0.05,0.26,0.14,34.15
53343170,1813,1,186907,194023,-1.08,-1.49,9.63,-0.06,0.23,0.14,34.15
53383180,1859,1,188012,198744,-1.46,-1.62,9.86,-0.35,0.25,0.06,34.15
53423179,1891,1,190470,204658,-1.62,-1.54,9.82,-0.42,0.01,-0.07,34.15
53463199,1840,1,191430,203728,-1.55,-1.82,9.84,-0.53,-0.27,-0.22,34.15
53503258,1853,1,190955,204085,-1.48,-2.20,9.59,-0.62,-0.25,-0.36,34.15
53543214,1888,1,191239,205275,-0.95,-2.18,9.22,-0.74,-0.15,-0.41,34.15
53583216,1885,1,191519,204655,-1.01,-2.89,9.23,-0.67,-0.04,-0.53,34.15
53625213,1875,1,190829,205902,-0.75,-3.10,9.02,-0.59,-0.12,-0.50,34.15
53665216,1886,1,192735,212474,-0.63,-3.83,9.20,-0.65,0.06,-0.55,34.15
53705204,1914,1,193939,213261,-0.33,-3.65,9.39,-0.36,0.04,-0.36,34.15
53745201,1943,1,194095,213610,-0.32,-3.66,8.40,-0.08,0.21,-0.11,34.15
53785200,1869,1,194016,211658,-0.63,-3.98,9.09,-0.07,0.66,0.04,34.15
53825179,1867,1,193529,210723,-1.04,-3.86,9.30,-0.05,0.72,0.05,34.15
53865179,1873,1,193895,211206,-1.70,-3.81,9.84,-0.06,0.69,0.04,34.15
53905865,1872,1,193992,211251,-1.71,-3.65,9.89,0.02,0.21,0.03,33.91
53944170,1872,1,194050,211805,-1.37,-3.44,9.51,-0.07,-0.03,-0.01,33.91
53984217,1857,1,194594,213393,-1.41,-3.47,9.50,-0.14,-0.05,-0.07,33.91
54024239,1776,1,194432,210890,-1.34,-3.48,9.72,-0.07,-0.03,-0.13,33.91
54064216,1831,1,193688,210319,-1.47,-3.54,9.67,0.05,-0.02,-0.07,33.91
54104199,1812,1,193886,211717,-1.74,-3.56,9.91,0.12,0.12,-0.01,33.91
54144180,1803,1,194249,212451,-2.03,-3.65,10.19,0.27,0.15,0.09,33.91
54184170,1799,1,193940,211250,-1.84,-3.43,9.86,0.41,0.03,0.11,33.91
54224170,1803,1,193837,211956,-1.79,-3.08,9.51,0.35,0.07,-0.00,33.91
54264180,1773,1,194228,212836,-1.61,-2.80,9.48,0.40,-0.00,-0.08,33.91
54304199,1807,1,194232,212617,-1.58,-2.77,9.12,0.37,0.03,-0.16,33.91
54344179,1776,1,194136,212450,-1.64,-2.84,9.05,0.34,0.10,-0.23,33.91
54384179,1765,1,194050,212882,-1.81,-2.82,8.91,0.37,0.06,-0.32,33.91
54424179,1778,1,194004,212947,-1.91,-2.60,9.03,0.34,0.06,-0.29,33.91
54464179,1787,1,193826,212478,-2.21,-2.49,9.22,0.32,0.17,-0.20,33.91
54504179,1792,1,193533,211404,-2.60,-2.53,9.27,0.25,0.19,-0.14,33.91
54544180,1776,1,193102,209363,-2.49,-2.14,9.00,0.17,0.12,-0.17,33.91
54584179,1776,1,191751,205082,-2.60,-2.16,9.07,0.05,0.04,-0.23,33.91
54624179,1743,1,190732,204063,-2.54,-2.22,9.15,0.03,0.02,-0.27,33.91
54664179,1783,1,190669,204153,-2.66,-2.39,9.09,0.02,0.09,-0.31,33.91
54704179,1773,1,190365,203291,-2.51,-2.53,9.39,0.05,0.05,-0.36,33.91
54744179,1773,1,189808,201615,-2.43,-2.46,9.33,0.12,0.04,-0.39,33.91
54784179,1718,1,188633,197715,-2.17,-2.29,9.23,0.17,-0.03,-0.41,33.91
54824200,1744,1,186743,193419,-1.86,-2.23,8.85,0.20,-0.00,-0.45,33.91
54864200,1758,1,185190,190995,-2.12,-2.22,9.21,0.07,0.24,-0.56,33.91
54904179,1733,1,184876,191553,-2.15,-2.19,9.71,0.03,0.25,-0.74,33.91
54944866,1766,1,185378,193369,-2.41,-2.09,9.50,0.01,0.19,-0.88,34.03
54985179,1782,1,186467,197005,-2.47,-2.15,9.75,0.00,0.09,-0.99,34.03
55025185,1776,1,187736,199439,-2.58,-2.33,9.78,0.11,0.04,-1.02,34.03
55065179,1777,1,187868,197517,-2.72,-2.38,9.87,0.18,0.02,-0.99,34.03
55105179,1806,1,185578,189723,-2.92,-2.23,9.86,0.26,0.12,-0.82,34.03
55145216,1802,1,182993,186614,-2.83,-2.35,9.34,0.18,0.23,-0.75,34.03
55185180,1763,1,183274,187552,-2.36,-1.89,8.97,0.23,0.10,-0.65,34.03
55225179,1843,1,183616,189573,-1.88,-1.59,8.37,0.43,0.08,-0.41,34.03
55265179,1838,1,185699,196345,-2.26,-2.01,9.27,0.35,0.35,-0.41,34.03
55305179,1829,1,188367,201908,-2.84,-1.99,9.81,0.41,0.15,-0.60,34.03
55345181,1863,1,189792,204918,-2.71,-1.82,9.43,0.30,-0.02,-0.73,34.03
55385199,1870,1,190077,202515,-2.65,-1.88,9.73,0.13,0.08,-0.72,34.03
55425179,1885,1,187677,192359,-2.66,-1.84,10.07,0.18,0.01,-0.78,34.03
55465179,1862,1,183609,184285,-2.35,-1.57,9.62,0.35,-0.21,-0.90,34.03
55505201,1904,1,181111,181428,-1.84,-1.48,9.57,0.41,-0.16,-0.95,34.03
55545200,1881,1,180668,181198,-1.61,-1.49,9.54,0.43,-0.17,-1.01,34.03
55585203,1901,1,180766,181975,-1.20,-1.57,9.86,0.35,-0.10,-0.98,34.03
55625199,1904,1,181371,183577,-1.18,-1.72,9.91,0.24,-0.05,-1.00,34.03
55665201,1918,1,181901,183087,-1.05,-1.68,9.84,0.02,0.14,-0.98,34.03
55705179,1877,1,181176,181446,-1.34,-1.54,10.59,-0.06,0.07,-1.01,34.03
55745200,1904,1,180333,179718,-1.21,-1.16,10.17,0.16,-0.13,-0.93,34.03
55785200,1896,1,179915,179093,-1.25,-0.97,9.82,0.15,0.04,-0.82,34.03
55825179,1873,1,179680,178866,-1.17,-0.76,9.90,0.11,0.00,-0.76,34.03
55865179,1902,1,179868,180497,-1.16,-0.79,9.81,0.15,-0.08,-0.75,34.03
55905200,1871,1,180866,182590,-1.06,-0.79,9.84,0.17,0.02,-0.65,34.03
55945866,1884,1,182547,185574,-1.38,-0.96,10.02,0.13,0.11,-0.55,34.25
55984180,1852,1,183841,188783,-1.50,-1.18,10.31,0.01,-0.02,-0.62,34.25
56024223,1877,1,186045,194770,-1.43,-1.21,10.31,-0.02,-0.05,-0.61,34.25
56064216,1898,1,189011,202842,-1.53,-1.10,10.15,0.12,-0.06,-0.44,34.25
56104200,1867,1,191718,207263,-1.20,-0.80,9.59,0.16,-0.19,-0.25,34.25
56144199,1856,1,192493,208884,-1.04,-0.85,9.71,0.17,-0.15,-0.19,34.25
56184200,1885,1,193635,212624,-1.12,-0.74,9.46,0.14,-0.14,-0.15,34.25
56224200,1853,1,193779,207253,-0.93,-0.44,9.51,0.10,-0.06,-0.00,34.25
56264199,1859,1,190931,202415,-0.90,-0.51,9.69,0.12,0.07,0.11,34.25
56304170,1843,1,190720,201651,-1.15,-1.07,9.77,-0.04,0.02,0.11,34.25
56344180,1856,1,190388,203297,-1.42,-1.21,10.43,-0.07,-0.04,0.14,34.25
56384201,1829,1,192293,209607,-1.14,-1.10,9.87,0.04,-0.21,0.19,34.25
56424179,1845,1,194776,215289,-0.90,-1.00,9.70,-0.15,-0.29,0.10,34.25
56464200,1838,1,196252,218608,-0.66,-1.18,9.73,-0.12,-0.23,0.09,34.25
56504200,1844,1,196545,220288,-0.71,-1.35,10.07,-0.04,-0.25,0.11,34.25
56544200,1792,1,196755,220086,-0.66,-1.08,9.99,0.06,-0.24,0.21,34.25
56584180,1783,1,196291,219068,-0.63,-0.87,10.04,0.17,-0.15,0.36,34.25
56624180,1840,1,195928,218502,-0.46,-0.99,10.11,0.17,-0.18,0.34,34.25
56664179,1840,1,195486,217296,-0.42,-1.00,10.23,0.12,-0.32,0.24,34.25
56704180,1844,1,194644,216078,-0.39,-0.96,10.13,0.13,-0.50,0.17,34.25
56744179,1843,1,194744,217266,-0.03,-0.69,10.00,0.23,-0.43,0.34,34.25
56784219,1873,1,194646,214868,0.48,-0.51,9.42,0.21,-0.21,0.36,34.25
56824170,1818,1,193314,210346,0.19,-0.43,9.69,0.15,-0.01,0.35,34.25
56864170,1821,1,192232,208858,0.26,-0.33,9.84,0.13,0.01,0.27,34.25
56904148,1840,1,192106,208677,0.21,-0.10,9.71,0.11,-0.02,0.15,34.25
56944170,1809,1,192213,209366,0.04,-0.09,9.79,0.06,0.08,0.13,34.25
56984870,1823,1,192518,210534,-0.08,-0.06,9.90,0.03,0.09,0.12,34.15
57025170,1812,1,193098,212077,-0.21,-0.07,9.95,0.01,-0.01,0.10,34.15
57065179,1814,1,193339,211515,-0.36,0.03,9.94,0.01,-0.08,0.13,34.15
57105170,1813,1,192747,209757,-0.41,0.07,10.11,0.11,-0.02,0.26,34.15
57145170,1794,1,192263,208126,-0.13,0.21,9.96,0.16,-0.05,0.22,34.15
57185198,1757,1,191404,204792,0.09,0.42,9.77,0.12,-0.06,0.13,34.15
57225148,1808,1,190429,203952,-0.06,0.40,9.89,0.01,0.11,0.06,34.15
57265149,1767,1,190652,204445,-0.23,0.34,10.03,0.00,0.09,0.00,34.15
57305148,1806,1,190629,204382,-0.09,0.41,9.84,0.00,0.03,-0.07,34.15
57345170,1746,1,190492,203165,-0.18,0.44,9.93,0.03,0.17,-0.09,34.15
57385170,1774,1,188676,196279,-0.39,0.43,10.16,0.13,0.13,-0.10,34.15
57425170,1698,1,185959,190879,-0.21,0.71,10.01,0.22,-0.01,-0.09,34.15
57465179,1746,1,183779,187396,-0.02,0.94,9.78,0.24,0.01,-0.08,34.15
57505170,1741,1,182979,186970,-0.21,1.11,9.85,0.14,0.35,0.03,34.15
57545149,1781,1,183030,187315,-0.52,1.05,10.09,0.08,0.35,0.08,34.15
57585148,1789,1,183200,187909,-0.41,0.90,10.00,0.00,0.13,0.03,34.15
57625148,1744,1,183463,188925,-0.33,0.72,10.04,-0.06,0.12,-0.07,34.15
57665179,1773,1,183729,189518,-0.35,0.56,10.08,-0.02,0.17,-0.12,34.15
57705180,1808,1,184053,190203,-0.36,0.62,9.92,0.06,0.13,-0.19,34.15
57745170,1829,1,183954,188755,-0.45,0.75,9.89,0.04,0.13,-0.27,34.15
57785170,1809,1,182802,186951,-0.57,0.82,9.93,-0.01,0.19,-0.38,34.15
57825179,1840,1,183839,192812,-1.00,0.73,9.68,-0.15,0.25,-0.47,34.15
57865180,1869,1,186812,198533,-1.14,0.71,9.98,-0.32,0.21,-0.49,34.15
57905180,1856,1,188359,201269,-1.06,0.73,9.69,-0.30,0.07,-0.49,34.15
57945179,1886,1,188675,198918,-1.14,0.62,9.71,-0.27,0.00,-0.53,34.15
57985866,1824,1,185387,189647,-1.32,0.42,10.22,-0.31,0.06,-0.43,34.31
58024210,1840,1,183316,191252,-1.20,-0.11,10.69,-0.16,0.13,-0.36,34.31
58064200,1851,1,185993,196805,-1.23,0.11,10.11,-0.02,0.11,-0.34,34.31
58104180,1797,1,187689,199513,-0.84,0.36,10.01,0.02,0.01,-0.27,34.31
58144170,1827,1,187721,198769,-1.18,0.21,9.48,-0.15,0.17,-0.22,34.31
58184179,1764,1,188102,200601,-1.44,0.28,9.72,-0.23,0.20,0.01,34.31
58224170,1747,1,189100,203609,-1.62,0.23,9.88,-0.21,0.18,0.09,34.31
58264170,1777,1,190355,207323,-1.81,0.28,9.80,-0.17,0.13,0.02,34.31
58304170,1776,1,193069,215113,-1.80,0.07,10.05,-0.21,0.15,0.03,34.31
58344170,1654,1,196413,222579,-1.98,-0.20,10.09,-0.23,0.26,-0.04,34.31
58384199,1678,1,200401,231072,-2.09,-0.62,9.83,-0.26,0.56,-0.14,34.31
58424200,1681,1,204406,238187,-2.13,-0.33,9.72,-0.38,0.82,-0.18,34.31
58464201,1723,1,207868,242848,-2.54,-0.47,9.47,-0.37,0.79,-0.17,34.31
58504200,1685,1,209444,242924,-2.67,-0.69,9.33,-0.46,0.57,-0.14,34.31
58544201,1637,1,209436,241221,-3.39,-0.94,10.62,-0.11,0.01,-0.18,34.31
58584200,1664,1,208561,239332,-2.85,-1.06,10.00,0.61,-1.59,-0.23,34.31
58624214,1614,1,207192,237445,-2.02,-0.55,9.18,0.59,-1.58,-0.05,34.31
58664199,1589,1,206415,237959,-1.20,-0.66,9.03,0.40,-0.77,-0.01,34.31
58704199,1601,1,207235,240429,-1.22,-0.32,9.37,0.23,0.03,-0.20,34.31
58744180,1691,1,208070,241909,-1.49,0.19,9.84,0.04,-0.07,-0.01,34.31
58784179,1659,1,208543,242553,-1.60,-0.24,9.52,-0.14,-0.16,-0.07,34.31
58824213,1717,1,208654,243008,-1.44,-0.25,9.48,-0.26,-0.08,-0.10,34.31
58864216,1655,1,209182,244066,-1.85,-0.66,9.75,-0.14,0.07,0.13,34.31
58904179,1671,1,209529,244390,-1.45,-0.79,9.75,-0.13,-0.07,0.05,34.31
58944200,1616,1,209728,244661,-1.46,-0.33,9.86,-0.06,0.05,0.23,34.31
58984179,1665,1,209913,244911,-1.77,-0.97,9.91,-0.03,0.02,0.34,34.31
59024893,1664,1,209967,245208,-1.46,-0.73,9.88,-0.22,-0.05,0.08,34.33
59065199,1650,1,209872,244337,-1.27,-0.57,9.95,-0.26,0.08,0.29,34.33
59105180,1666,1,209365,242325,-1.28,-0.77,10.04,-0.35,0.20,0.28,34.33
59145179,1616,1,208688,241207,-1.47,-0.59,10.05,-0.31,0.08,0.43,34.33
59185179,1703,1,208673,241604,-1.48,-0.70,9.99,-0.22,-0.06,0.72,34.33
59225199,1791,1,208474,241801,-1.64,-0.85,9.98,-0.38,-0.29,0.65,34.33
59265200,1837,1,208370,241018,-1.76,-1.15,11.16,-0.59,-0.43,0.50,34.33
59305200,1914,1,207510,239608,-1.20,-1.24,10.04,-0.51,-0.70,0.64,34.33
59345200,1925,1,206797,238868,-0.72,-1.29,9.65,-0.40,-0.48,0.72,34.33
59385200,1931,1,206509,238900,-0.71,-1.73,9.97,-0.45,-0.41,0.73,34.33
59425200,1911,1,206595,239191,-0.27,-2.18,9.92,-0.51,-0.29,0.60,34.33
59465200,1892,1,206678,239481,-0.21,-2.22,9.54,-0.40,-0.15,0.58,34.33
59505201,1903,1,206762,239803,-0.26,-2.04,9.56,-0.17,-0.08,0.72,34.33
59545201,1934,1,206894,240500,-0.14,-2.35,9.31,-0.13,0.05,0.73,34.33
59585181,1942,1,207312,241564,-0.63,-1.99,9.38,-0.07,0.28,0.58,34.33
59625181,1751,1,207770,241275,-0.91,-1.77,9.85,-0.11,0.25,0.65,34.33
59665180,1787,1,206757,237551,-0.64,-1.47,9.27,-0.33,0.26,0.42,34.33
59705180,1971,1,206694,237729,-2.06,-1.85,10.04,-0.33,0.39,0.54,34.33
59745181,1959,1,206678,238004,-1.40,-2.29,9.80,-0.33,-0.06,0.50,34.33
59785202,1872,1,206973,239661,-1.14,-1.93,9.02,-0.30,0.22,0.41,34.33
59825185,1826,1,207959,241846,-1.41,-1.41,9.76,-0.22,0.34,0.65,34.33
59865182,1877,1,208415,242443,-1.41,-2.40,9.52,-0.16,0.06,0.75,34.33
59905185,1849,1,208453,242954,-1.81,-1.86,9.41,-0.19,0.22,0.57,34.33
59945182,1903,1,208709,243482,-2.03,-1.73,9.76,-0.26,0.28,0.71,34.33
59985184,1921,1,208759,243898,-1.96,-2.12,9.26,-0.29,0.27,0.67,34.33
60025885,1923,1,209384,244573,-2.81,-2.02,9.59,-0.19,0.44,0.66,34.07
60064183,1951,1,208914,243817,-2.04,-2.01,9.22,-0.27,0.20,0.66,34.07
60104183,1945,1,208742,244884,-2.92,-2.37,8.79,-0.23,0.61,0.42,34.07
60144183,1920,1,209753,245454,-4.01,-2.16,10.05,-0.31,0.57,0.09,34.07
60184182,1856,1,209561,244827,-2.73,-1.43,9.34,-0.45,-0.24,0.08,34.07
60224205,1891,1,209176,242907,-3.28,-1.98,9.11,-0.40,0.02,0.38,34.07
60264206,1792,1,208019,240309,-3.05,-2.08,9.40,-0.36,-0.14,0.39,34.07
60304206,1759,1,207905,241268,-3.26,-2.46,9.28,-0.51,0.05,0.30,34.07
60344182,1648,1,208548,242591,-3.30,-2.69,9.53,-0.34,-0.02,0.29,34.07
60384206,1591,1,208865,243430,-2.38,-2.66,9.00,-0.39,-0.03,0.20,34.07
60424204,1530,1,209493,244656,-3.39,-3.10,9.28,-0.31,0.17,0.25,34.07
60464224,1487,1,209603,244419,-2.82,-3.29,9.11,-0.14,-0.19,0.22,34.07
60504206,1379,1,209286,243626,-2.25,-2.95,8.50,-0.21,-0.15,0.02,34.07
60544206,1303,1,209045,243887,-3.27,-3.34,8.96,-0.29,0.25,-0.19,34.07
60584203,1430,1,209213,244019,-3.36,-3.36,9.26,-0.41,0.07,-0.42,34.07
60624203,913,1,209273,244070,-3.02,-3.00,8.95,-0.55,-0.04,-0.32,34.07
60664213,1041,1,209319,244519,-3.41,-3.51,9.03,-0.55,-0.03,-0.00,34.07
60704216,841,1,209349,244284,-3.45,-4.63,8.94,-0.31,-0.19,-0.12,34.07
60744215,1429,1,209152,244398,-2.81,-3.62,8.50,-0.19,-0.16,-0.29,34.07
60784217,1079,1,209084,242427,-2.90,-4.01,8.63,-0.14,-0.01,-0.12,34.07
60824215,874,1,207698,238826,-2.76,-4.44,8.54,0.05,-0.07,-0.21,34.07
60864204,1264,1,206973,238172,-2.65,-4.11,8.53,0.08,-0.09,-0.27,34.07
60904200,866,1,207242,239257,-2.60,-3.98,8.53,0.00,0.05,-0.24,34.07
60944180,1328,1,207801,240218,-2.64,-4.40,8.71,-0.03,0.00,-0.23,34.07
60984200,1401,1,208120,241241,-2.66,-4.43,8.71,-0.01,-0.06,-0.31,34.07
61024246,1426,1,208422,242035,-2.49,-4.20,8.65,-0.00,-0.07,-0.35,34.07
61064902,1264,1,208537,242069,-2.27,-4.13,8.57,-0.01,-0.01,-0.29,34.07
61104217,1275,1,208469,242181,-2.35,-4.34,8.62,0.01,-0.09,-0.25,34.07
61144201,1491,1,208525,242611,-2.20,-4.34,8.64,-0.05,-0.04,-0.36,34.07
61184218,1484,1,208704,243065,-2.04,-4.24,8.61,-0.07,0.08,-0.35,34.07
61224202,1558,1,208830,243300,-1.80,-4.15,8.55,-0.02,0.10,-0.21,34.07
61264205,1430,1,208986,243789,-1.98,-4.21,8.76,-0.02,0.14,-0.07,34.07
61304202,1279,1,209243,244417,-2.13,-4.45,8.72,-0.01,0.21,0.01,34.07
61344185,1510,1,209530,244566,-2.22,-4.42,8.84,0.04,0.19,0.03,34.07
61384171,1197,1,208937,240768,-2.22,-4.23,8.81,0.05,0.04,0.07,34.07
61424170,1049,1,207421,238471,-2.40,-4.00,8.92,0.07,-0.03,0.11,34.07
61464181,1069,1,207203,238509,-2.44,-4.10,8.83,-0.04,-0.04,0.06,34.07
61504204,1003,1,207299,238599,-2.48,-4.00,8.91,-0.17,-0.06,-0.01,34.07
61544217,965,1,207281,239000,-2.50,-4.13,8.87,-0.21,-0.14,-0.06,34.07
61584219,882,1,207639,240297,-2.11,-4.24,8.74,-0.24,-0.15,-0.04,34.07
61624219,912,1,208084,241284,-2.12,-4.16,8.66,-0.25,-0.13,-0.09,34.07
61664222,1205,1,208315,241877,-2.09,-4.23,8.76,-0.29,-0.13,-0.05,34.07
