timestamp_us,ecg,leads,ir,red,accX,accY,accZ,gyroX,gyroY,gyroZ,temp
1919487,1319,1,193871,234037,0.00,0.00,0.00,0.00,0.00,0.00,0.00
1949959,1565,1,193551,234268,0.60,-0.21,9.70,-0.03,-0.01,-0.01,31.95
1990198,1645,1,193654,234469,0.62,-0.22,9.96,-0.04,-0.01,-0.01,31.95
2030195,1677,1,193671,234746,0.63,-0.23,9.99,-0.03,-0.01,-0.00,31.95
2070192,1765,1,193864,234128,0.63,-0.23,9.96,-0.03,-0.01,-0.01,31.95
2110192,1827,1,192750,229791,0.61,-0.24,9.98,-0.03,-0.01,-0.00,31.95
2150192,1905,1,191708,228529,0.62,-0.22,10.01,-0.03,-0.01,-0.01,31.95
2190192,1951,1,191722,228800,0.60,-0.23,9.98,-0.03,-0.01,-0.01,31.95
2230192,2000,1,191880,229582,0.63,-0.21,9.99,-0.03,-0.01,-0.01,31.95
2270189,2083,1,192081,230665,0.63,-0.23,9.96,-0.03,-0.01,-0.01,31.95
2310192,2128,1,192482,231377,0.61,-0.25,9.97,-0.03,-0.01,-0.01,31.95
2350189,2170,1,192561,231358,0.61,-0.24,9.97,-0.04,-0.01,-0.01,31.95
2390193,2224,1,192472,231213,0.64,-0.23,10.00,-0.03,-0.01,-0.00,31.95
2430188,2265,1,192285,231174,0.62,-0.22,9.96,-0.03,-0.01,-0.01,31.95
2470192,2298,1,192391,231324,0.62,-0.23,9.94,-0.03,-0.01,-0.01,31.95
2510189,2325,1,192490,231788,0.64,-0.21,9.95,-0.03,-0.01,-0.00,31.95
2550192,2362,1,192643,232211,0.62,-0.22,9.95,-0.03,-0.01,-0.00,31.95
2590189,2363,1,192183,229133,0.64,-0.23,9.97,-0.03,-0.01,-0.01,31.95
2630192,2351,1,190898,226869,0.62,-0.23,9.97,-0.03,-0.01,-0.01,31.95
2670193,2365,1,190463,226795,0.63,-0.21,9.98,-0.03,-0.01,-0.01,31.95
2710192,2358,1,190673,227399,0.63,-0.22,9.98,-0.03,-0.01,-0.01,31.95
2750190,2325,1,191003,228449,0.62,-0.20,9.98,-0.04,-0.01,-0.01,31.95
2790193,2334,1,191443,229533,0.62,-0.22,9.97,-0.03,-0.01,-0.01,31.95
2830190,2302,1,191705,229933,0.63,-0.23,9.96,-0.03,-0.01,-0.01,31.95
2870192,2290,1,191829,229839,0.62,-0.23,9.96,-0.03,-0.01,-0.01,31.95
2910192,2251,1,191605,229787,0.63,-0.23,10.00,-0.03,-0.01,-0.01,31.95
2950192,2243,1,191599,229902,0.61,-0.22,9.97,-0.03,-0.01,-0.00,31.95
2990876,2222,1,191576,230432,0.64,-0.22,9.95,-0.03,-0.01,-0.01,31.95
3029193,2214,1,191683,230835,0.63,-0.23,9.97,-0.03,-0.01,-0.00,31.95
3069189,2186,1,191700,229877,0.64,-0.20,9.95,-0.03,-0.01,-0.01,31.95
3109192,2177,1,190573,226322,0.61,-0.23,9.98,-0.03,-0.01,-0.01,31.95
3149189,2145,1,189812,225416,0.62,-0.23,9.96,-0.03,-0.01,-0.01,31.95
3189192,2131,1,189805,225826,0.63,-0.22,9.94,-0.03,-0.01,-0.01,31.95
3229190,2115,1,189884,226772,0.63,-0.24,9.95,-0.03,-0.01,-0.01,31.95
3269192,2096,1,190395,227915,0.62,-0.23,9.98,-0.03,-0.01,-0.01,31.95
3309189,2087,1,190703,228622,0.63,-0.23,9.95,-0.03,-0.01,-0.01,31.95
3349192,2076,1,190913,228943,0.64,-0.22,9.95,-0.03,-0.01,-0.01,31.95
3389189,2043,1,190839,229173,0.64,-0.23,9.96,-0.03,-0.01,-0.01,31.95
3429192,2078,1,191038,229606,0.62,-0.23,9.96,-0.04,-0.01,-0.01,31.95
3469192,2063,1,191230,230185,0.63,-0.23,9.95,-0.03,-0.01,-0.01,31.95
3509192,2037,1,191514,230719,0.63,-0.24,9.96,-0.03,-0.01,-0.01,31.95
3549190,2021,1,191433,231040,0.62,-0.24,9.95,-0.03,-0.01,-0.01,31.95
3589192,2015,1,191113,227878,0.62,-0.23,9.96,-0.03,-0.01,-0.01,31.95
3629190,1987,1,189792,225976,0.62,-0.21,9.98,-0.03,-0.01,-0.01,31.95
3669192,1998,1,189651,226163,0.64,-0.21,9.95,-0.03,-0.01,-0.01,31.95
3709189,1998,1,189814,226988,0.63,-0.22,9.94,-0.03,-0.01,-0.01,31.95
3749192,1984,1,190277,228282,0.62,-0.22,9.96,-0.03,-0.01,-0.01,31.95
3789189,2005,1,190789,229461,0.62,-0.23,9.97,-0.03,-0.01,-0.01,31.95
3829193,2010,1,191205,229899,0.65,-0.23,9.95,-0.03,-0.01,-0.01,31.95
3869189,1998,1,191029,230069,0.64,-0.22,9.96,-0.04,-0.01,-0.01,31.95
3909193,2025,1,191150,230291,0.62,-0.23,9.96,-0.03,-0.01,-0.01,31.95
3949190,2015,1,191294,230589,0.62,-0.22,9.96,-0.03,-0.01,-0.01,31.95
3989192,2000,1,191475,231058,0.64,-0.21,9.97,-0.03,-0.01,-0.01,31.95
4029876,1936,1,191582,231570,0.62,-0.22,9.99,-0.03,-0.01,-0.01,31.83
4070193,1899,1,191765,229644,0.62,-0.22,9.97,-0.03,-0.01,-0.00,31.83
4110189,1831,1,190370,226499,0.63,-0.22,9.98,-0.03,-0.01,-0.01,31.83
4150192,1811,1,190019,226296,0.65,-0.20,9.96,-0.03,-0.01,-0.01,31.83
4190189,1795,1,189983,226817,0.65,-0.20,9.96,-0.03,-0.01,-0.01,31.83
4230192,1792,1,190346,227672,0.61,-0.23,9.96,-0.03,-0.01,-0.01,31.83
4270190,1793,1,190655,228663,0.63,-0.21,9.96,-0.03,-0.01,-0.01,31.83
4310192,1872,1,190999,229173,0.62,-0.22,9.98,-0.03,-0.01,-0.01,31.83
4350189,1855,1,190965,229437,0.63,-0.22,9.96,-0.03,-0.01,-0.01,31.83
4390192,1872,1,191287,230233,0.63,-0.25,9.97,-0.03,-0.01,-0.01,31.83
4430190,1888,1,191634,231214,0.62,-0.23,9.98,-0.03,-0.01,-0.01,31.83
4470193,1883,1,191860,231889,0.62,-0.22,9.98,-0.03,-0.01,-0.01,31.83
4510189,1921,1,191922,232308,0.62,-0.23,9.96,-0.03,-0.01,-0.01,31.83
4550193,1947,1,192030,231651,0.64,-0.21,9.96,-0.03,-0.01,-0.01,31.83
4590189,1966,1,190905,227284,0.64,-0.22,9.98,-0.04,-0.00,-0.01,31.83
4630193,1969,1,189859,226056,0.64,-0.23,9.97,-0.03,0.00,-0.01,31.83
4670169,1985,1,189922,226359,0.63,-0.26,9.95,-0.03,-0.00,-0.01,31.83
4710193,1984,1,190188,226965,0.64,-0.22,9.96,-0.03,-0.01,-0.01,31.83
4750190,1984,1,190563,228068,0.61,-0.21,9.97,-0.03,-0.01,-0.01,31.83
4790193,2018,1,191017,228833,0.63,-0.23,9.95,-0.03,-0.01,-0.01,31.83
4830190,1987,1,190871,229054,0.62,-0.22,9.96,-0.03,-0.01,-0.01,31.83
4870192,1991,1,190963,229193,0.62,-0.23,9.95,-0.04,-0.01,-0.01,31.83
4910193,1984,1,191086,229482,0.63,-0.23,9.96,-0.03,-0.01,-0.01,31.83
4950193,1943,1,191190,229823,0.63,-0.22,9.96,-0.03,-0.01,-0.00,31.83
4990190,1918,1,191446,230440,0.61,-0.23,9.94,-0.03,-0.01,-0.01,31.83
5030879,1885,1,191548,230322,0.62,-0.22,9.96,-0.04,-0.01,-0.01,32.09
5069192,2029,1,190619,226455,0.66,-0.22,9.97,-0.03,-0.01,-0.01,32.09
5109239,2054,1,189696,225103,0.63,-0.23,9.98,-0.03,-0.01,-0.00,32.09
5149188,2084,1,189369,225171,0.61,-0.23,9.96,-0.03,-0.01,-0.01,32.09
5189192,2078,1,189490,225467,0.62,-0.21,9.95,-0.03,-0.01,-0.01,32.09
5229189,2093,1,189552,226054,0.62,-0.23,9.97,-0.03,-0.01,-0.01,32.09
5269192,2071,1,189953,226748,0.62,-0.23,9.97,-0.03,-0.01,-0.01,32.09
5309238,2077,1,190019,226952,0.61,-0.22,9.96,-0.03,-0.01,-0.00,32.09
5349192,2075,1,190123,227002,0.63,-0.22,9.95,-0.03,-0.01,-0.01,32.09
5389192,2093,1,190148,227211,0.63,-0.21,9.96,-0.03,-0.01,-0.01,32.09
5429192,2096,1,190319,227579,0.64,-0.21,9.98,-0.04,-0.01,-0.00,32.09
5469188,2057,1,190261,228155,0.62,-0.23,9.98,-0.03,-0.01,-0.01,32.09
5509192,2087,1,190643,228748,0.64,-0.24,9.94,-0.03,-0.01,-0.01,32.09
5549189,2083,1,190257,225853,0.65,-0.23,9.95,-0.03,-0.01,-0.01,32.09
5589192,2109,1,189248,224152,0.64,-0.22,9.94,-0.03,-0.01,-0.01,32.09
5629192,2112,1,189000,224171,0.62,-0.23,9.97,-0.03,-0.01,-0.01,32.09
5669192,2128,1,189213,224693,0.62,-0.24,9.99,-0.03,-0.01,-0.00,32.09
5709189,2139,1,189449,225466,0.61,-0.23,9.99,-0.03,-0.01,-0.01,32.09
5750192,2090,1,190021,226239,0.61,-0.23,9.97,-0.03,-0.01,-0.01,32.09
5790189,2105,1,190046,226542,0.63,-0.22,9.93,-0.03,-0.01,-0.00,32.09
5830193,2121,1,190026,226376,0.62,-0.21,9.96,-0.04,-0.01,-0.01,32.09
5870189,2116,1,189971,226337,0.63,-0.23,9.96,-0.03,-0.01,-0.01,32.09
5910191,2129,1,190015,226589,0.62,-0.22,9.95,-0.03,-0.01,-0.00,32.09
5950189,2151,1,190090,227012,0.63,-0.22,9.99,-0.03,-0.01,-0.01,32.09
5990193,2151,1,190396,227659,0.64,-0.21,9.96,-0.03,-0.01,-0.00,32.09
6030875,2096,1,190422,226244,0.60,-0.21,9.98,-0.03,-0.01,-0.01,31.97
6069192,2167,1,189376,223696,0.60,-0.22,9.95,-0.03,-0.01,-0.01,31.97
6109189,2174,1,188621,223398,0.62,-0.23,9.99,-0.03,-0.01,-0.01,31.97
6149192,2165,1,188801,223971,0.61,-0.22,9.95,-0.03,-0.01,-0.01,31.97
6189189,2124,1,189098,224620,0.64,-0.22,9.95,-0.03,-0.01,-0.01,31.97
6229192,2128,1,189469,225549,0.63,-0.23,9.97,-0.03,-0.01,-0.01,31.97
6269189,2096,1,189574,225910,0.61,-0.23,9.98,-0.03,-0.01,-0.00,31.97
6309192,2081,1,189676,225904,0.63,-0.21,9.99,-0.03,-0.01,-0.01,31.97
6349193,2078,1,189688,225851,0.62,-0.23,9.97,-0.03,-0.01,-0.01,31.97
6389192,2075,1,189708,226029,0.63,-0.22,10.00,-0.03,-0.01,-0.01,31.97
6429189,2060,1,189744,226466,0.62,-0.22,9.98,-0.03,-0.01,-0.01,31.97
6469192,2047,1,190032,227248,0.61,-0.21,9.96,-0.04,-0.01,-0.01,31.97
6509192,2009,1,190273,226875,0.62,-0.23,9.97,-0.03,-0.01,-0.01,31.97
6549192,1985,1,189464,224022,0.62,-0.23,9.97,-0.03,-0.01,-0.00,31.97
6589189,1965,1,188721,223366,0.64,-0.25,9.97,-0.03,-0.01,-0.01,31.97
6629192,1929,1,188820,223896,0.64,-0.21,9.96,-0.03,-0.01,-0.01,31.97
6669189,1869,1,189036,224751,0.63,-0.23,9.96,-0.03,-0.01,-0.01,31.97
6709192,1840,1,189541,225884,0.62,-0.23,9.96,-0.03,-0.01,-0.00,31.97
6749198,1766,1,189645,226572,0.62,-0.22,9.97,-0.03,-0.01,-0.01,31.97
6789192,1722,1,189860,226830,0.64,-0.21,9.96,-0.03,-0.01,-0.01,31.97
6829189,1658,1,189836,226871,0.61,-0.21,9.95,-0.03,-0.01,-0.01,31.97
6869193,1599,1,189915,226993,0.62,-0.22,9.97,-0.03,-0.01,-0.01,31.97
6909189,1558,1,189966,227540,0.63,-0.22,9.98,-0.03,-0.01,-0.01,31.97
6949225,1491,1,190263,228198,0.62,-0.22,9.99,-0.03,-0.01,-0.01,31.97
6989193,1442,1,190582,228417,0.62,-0.24,9.98,-0.03,-0.01,-0.01,31.97
7029192,1392,1,189992,225305,0.61,-0.22,9.96,-0.03,-0.01,-0.01,31.97
7069876,1339,1,189138,224061,0.62,-0.24,9.98,-0.03,-0.01,-0.01,31.81
7110193,1318,1,189154,224483,0.65,-0.24,9.96,-0.03,-0.01,-0.00,31.81
7150220,1316,1,189444,225432,0.61,-0.22,9.98,-0.03,-0.01,-0.01,31.81
7190192,1317,1,189837,226665,0.64,-0.22,9.96,-0.03,-0.01,-0.01,31.81
7230190,1310,1,190202,227300,0.62,-0.21,9.99,-0.03,-0.01,-0.00,31.81
7270192,1330,1,190299,227329,0.62,-0.22,9.96,-0.03,-0.01,-0.01,31.81
7310190,1354,1,190232,227204,0.64,-0.23,9.98,-0.03,-0.01,-0.01,31.81
7350192,1399,1,190250,227405,0.62,-0.24,9.94,-0.03,-0.01,-0.01,31.81
7390189,1458,1,190218,227955,0.63,-0.23,9.96,-0.04,-0.01,-0.01,31.81
7430193,1505,1,190665,228843,0.62,-0.21,9.96,-0.03,-0.01,-0.01,31.81
7470192,1535,1,190946,229520,0.62,-0.22,9.96,-0.03,-0.01,-0.01,31.81
7510193,1627,1,190759,226736,0.62,-0.24,9.96,-0.03,-0.01,-0.00,31.81
7550189,1682,1,189544,224790,0.63,-0.23,9.97,-0.03,-0.01,-0.00,31.81
7590192,1745,1,189375,225031,0.62,-0.24,9.96,-0.03,-0.01,-0.01,31.81
7630190,1814,1,189707,226167,0.62,-0.24,10.00,-0.03,-0.01,-0.01,31.81
7670193,1891,1,190224,227511,0.62,-0.23,9.97,-0.03,-0.01,-0.01,31.81
7710190,1951,1,190715,228864,0.63,-0.24,9.94,-0.03,-0.01,-0.01,31.81
7750192,1979,1,191063,229371,0.63,-0.21,9.97,-0.03,-0.01,-0.01,31.81
7790189,2042,1,191155,229496,0.63,-0.23,9.98,-0.04,-0.01,-0.01,31.81
7830192,2105,1,191172,229448,0.63,-0.22,9.95,-0.03,-0.01,-0.01,31.81
7870189,2131,1,191162,229822,0.63,-0.20,9.96,-0.03,-0.01,-0.01,31.81
7910192,2192,1,191498,230781,0.65,-0.22,9.96,-0.03,-0.01,-0.00,31.81
7950189,2225,1,191935,231748,0.63,-0.24,9.95,-0.03,-0.01,-0.01,31.81
7990192,2253,1,192177,230279,0.63,-0.23,9.96,-0.03,-0.01,-0.01,31.81
8030189,2269,1,191049,227033,0.62,-0.21,9.96,-0.03,-0.01,-0.01,31.81
8070879,2266,1,190461,226427,0.63,-0.22,9.96,-0.03,-0.01,-0.01,31.71
8109190,2335,1,190431,226732,0.61,-0.22,9.97,-0.03,-0.01,-0.01,31.71
8149193,2352,1,190775,227695,0.62,-0.23,9.99,-0.03,-0.01,-0.01,31.71
8189192,2357,1,191295,228986,0.62,-0.24,9.96,-0.04,-0.01,-0.00,31.71
8229193,2360,1,191688,229730,0.61,-0.22,9.99,-0.03,-0.01,-0.01,31.71
8269189,2356,1,191833,229885,0.63,-0.23,9.95,-0.03,-0.01,-0.01,31.71
8309192,2351,1,191909,229818,0.62,-0.23,9.98,-0.03,-0.01,-0.01,31.71
8349190,2355,1,192083,229519,0.61,-0.21,9.96,-0.03,-0.01,-0.01,31.71
8389192,2342,1,191947,229518,0.66,-0.22,9.96,-0.03,-0.01,-0.01,31.71
8429192,2318,1,191937,229700,0.63,-0.22,9.95,-0.03,-0.01,-0.01,31.71
8469192,2317,1,192121,228187,0.63,-0.24,9.99,-0.04,-0.01,-0.01,31.71
8509192,2282,1,190964,225463,0.62,-0.22,9.95,-0.03,-0.01,-0.00,31.71
8549193,2270,1,190623,224996,0.64,-0.23,9.96,-0.03,-0.01,-0.01,31.71
8589189,2251,1,190656,225550,0.64,-0.23,9.97,-0.03,-0.01,-0.01,31.71
8629192,2258,1,190813,226095,0.62,-0.23,9.96,-0.03,-0.01,-0.01,31.71
8669190,2192,1,190994,226882,0.63,-0.22,9.96,-0.03,-0.01,-0.01,31.71
8709192,2246,1,191394,227652,0.61,-0.23,9.95,-0.03,-0.01,-0.01,31.71
8749190,2256,1,191576,227982,0.62,-0.22,9.97,-0.04,-0.01,-0.00,31.71
8789192,2169,1,191597,228201,0.62,-0.25,9.99,-0.03,-0.01,-0.00,31.71
8829189,2065,1,191666,228486,0.65,-0.22,9.94,-0.03,-0.01,-0.01,31.71
8869192,2000,1,191841,228894,0.63,-0.23,9.98,-0.03,-0.01,-0.01,31.71
8909190,1877,1,192094,229383,0.61,-0.23,9.98,-0.03,-0.01,-0.01,31.71
8949192,2111,1,192208,228443,0.62,-0.23,9.96,-0.03,-0.01,-0.01,31.71
8989192,2202,1,191071,225366,0.62,-0.23,9.97,-0.03,-0.01,-0.01,31.71
9029192,2150,1,190759,225083,0.62,-0.22,9.95,-0.03,-0.00,-0.01,31.71
9069190,2176,1,190712,225828,0.62,-0.22,9.97,-0.03,-0.01,-0.01,31.71
9109879,2224,1,191286,226809,0.63,-0.22,9.94,-0.03,-0.01,-0.01,31.91
9150190,2330,1,191614,228001,0.63,-0.25,9.95,-0.03,-0.01,-0.01,31.91
9190193,2416,1,192039,228791,0.63,-0.20,9.96,-0.03,-0.01,-0.01,31.91
9230189,2529,1,192133,229371,0.64,-0.23,9.96,-0.03,-0.01,-0.01,31.91
9270192,2655,1,192299,229700,0.63,-0.22,9.97,-0.03,-0.01,-0.01,31.91
9310192,2674,1,192343,230171,0.62,-0.23,9.97,-0.03,-0.01,-0.01,31.91
9350193,2721,1,192541,231012,0.63,-0.23,9.98,-0.03,-0.01,-0.01,31.91
9390193,2752,1,192819,231689,0.63,-0.23,9.99,-0.04,-0.01,-0.01,31.91
9430192,2736,1,192900,231158,0.63,-0.22,9.96,-0.03,-0.01,-0.00,31.91
9470193,2671,1,191991,227269,0.62,-0.23,9.98,-0.03,-0.01,-0.01,31.91
9510193,2603,1,191170,226785,0.64,-0.23,9.98,-0.03,-0.01,-0.01,31.91
9550190,2544,1,191366,227563,0.62,-0.23,9.98,-0.03,-0.01,-0.01,31.91
9590192,2559,1,191827,228665,0.63,-0.23,9.98,-0.03,-0.01,-0.01,31.91
9630192,2544,1,192218,229659,0.63,-0.23,9.96,-0.03,-0.01,-0.01,31.91
9670192,2503,1,192501,230285,0.62,-0.21,9.95,-0.03,-0.01,-0.01,31.91
9710189,2389,1,192729,230391,0.62,-0.23,9.95,-0.03,-0.01,-0.01,31.91
9750192,2343,1,192823,230442,0.64,-0.23,9.94,-0.03,-0.01,-0.01,31.91
9790192,2233,1,192831,230680,0.64,-0.23,9.94,-0.03,-0.01,-0.01,31.91
9830192,2160,1,192987,231312,0.63,-0.22,9.96,-0.03,-0.01,-0.00,31.91
9870189,2046,1,193220,231707,0.62,-0.23,9.98,-0.03,-0.01,-0.01,31.91
9910193,1937,1,193387,231245,0.64,-0.21,9.95,-0.03,-0.01,-0.00,31.91
9950189,1922,1,192320,227507,0.64,-0.23,9.96,-0.03,-0.01,-0.00,31.91
9990193,1847,1,191643,226838,0.61,-0.23,9.97,-0.03,-0.01,-0.01,31.91
10030189,1831,1,191745,227618,0.62,-0.24,9.97,-0.03,-0.01,-0.01,31.91
10070193,1735,1,192140,228846,0.62,-0.23,9.97,-0.03,-0.01,-0.01,31.91
10110879,1712,1,192538,229929,0.62,-0.24,9.98,-0.03,-0.01,-0.01,31.91
10149192,1762,1,192710,230404,0.61,-0.23,9.96,-0.03,-0.01,-0.01,31.91
10189192,1763,1,192819,230575,0.64,-0.24,9.97,-0.03,-0.01,-0.01,31.91
10229241,1755,1,192789,230527,0.65,-0.22,9.96,-0.03,-0.01,-0.01,31.91
10269192,1721,1,192743,230597,0.62,-0.24,9.98,-0.03,-0.01,-0.01,31.91
10309192,1661,1,192901,230967,0.61,-0.25,9.93,-0.03,-0.01,-0.01,31.91
10349192,1693,1,193129,231399,0.64,-0.21,9.95,-0.03,-0.01,-0.01,31.91
10389192,1680,1,193249,230793,0.64,-0.22,9.96,-0.03,-0.01,-0.01,31.91
10429241,1662,1,192150,227202,0.66,-0.22,9.96,-0.03,-0.01,-0.01,31.91
10469192,1665,1,191458,226531,0.65,-0.23,9.97,-0.03,-0.01,-0.01,31.91
10509192,1616,1,191420,227081,0.65,-0.22,9.95,-0.03,-0.01,-0.01,31.91
10549192,1584,1,191751,227990,0.62,-0.20,9.99,-0.03,-0.01,-0.01,31.91
10589189,1535,1,192029,228908,0.63,-0.23,9.98,-0.03,-0.01,-0.01,31.91
10629192,1441,1,192287,229350,0.63,-0.23,9.96,-0.03,-0.01,-0.01,31.91
10669192,1344,1,192373,229375,0.64,-0.22,9.97,-0.03,-0.01,-0.01,31.91
10709192,1213,1,192406,229340,0.64,-0.23,9.96,-0.03,-0.01,-0.01,31.91
10749192,1139,1,192387,229561,0.63,-0.24,9.94,-0.03,-0.00,-0.01,31.91
10789192,1059,1,192585,230039,0.62,-0.22,9.96,-0.03,-0.01,-0.01,31.91
10829192,991,1,192769,230562,0.63,-0.23,9.97,-0.03,-0.01,-0.00,31.91
10869192,935,1,192867,230071,0.62,-0.20,9.96,-0.03,-0.01,-0.01,31.91
10909189,874,1,191978,226480,0.63,-0.24,9.96,-0.04,-0.01,-0.01,31.91
10949192,795,1,191264,225618,0.65,-0.21,9.94,-0.04,-0.01,-0.01,31.91
10989192,956,1,191209,226141,0.63,-0.22,9.97,-0.03,-0.01,-0.00,31.91
11029192,943,1,191557,227035,0.62,-0.22,9.96,-0.03,-0.01,-0.01,31.91
11069192,927,1,191937,228250,0.64,-0.21,9.95,-0.03,-0.01,-0.01,31.91
11109192,1037,1,192400,229099,0.62,-0.25,9.94,-0.03,-0.01,-0.01,31.91
11149879,1069,1,192521,229494,0.63,-0.23,9.99,-0.03,-0.01,-0.01,31.85
11190192,1135,1,192818,229999,0.64,-0.23,9.94,-0.03,-0.00,-0.01,31.85
11230193,1194,1,192922,230566,0.62,-0.22,9.99,-0.03,-0.01,-0.01,31.85
11270208,1333,1,193213,231338,0.62,-0.23,9.97,-0.03,-0.01,-0.01,31.85
11310192,1424,1,193530,232018,0.64,-0.24,9.96,-0.03,-0.01,-0.01,31.85
11350192,1530,1,193687,232320,0.64,-0.23,9.95,-0.03,-0.01,-0.01,31.85
11390192,1649,1,193356,229299,0.62,-0.24,9.95,-0.04,-0.01,-0.01,31.85
11430192,1738,1,192201,227371,0.63,-0.23,9.95,-0.03,-0.01,-0.00,31.85
11470192,1731,1,192129,227944,0.61,-0.22,9.96,-0.03,-0.01,-0.01,31.85
11510193,1738,1,192600,229175,0.61,-0.22,9.89,-0.03,-0.01,-0.01,31.85
11550193,1821,1,192956,230481,0.63,-0.23,9.96,-0.03,-0.01,-0.01,31.85
11590192,1902,1,193436,231535,0.62,-0.21,9.94,-0.03,-0.01,-0.01,31.85
11630192,1974,1,193605,231723,0.63,-0.23,9.95,-0.04,-0.01,-0.01,31.85
11669222,2082,1,193686,231783,0.64,-0.23,9.95,-0.03,-0.01,-0.01,31.85
11709192,2160,1,193564,231638,0.64,-0.23,9.97,-0.03,-0.01,-0.01,31.85
11749192,2206,1,193579,231884,0.63,-0.23,9.97,-0.03,-0.01,-0.01,31.85
11789192,2235,1,193792,232268,0.63,-0.25,9.97,-0.03,-0.01,-0.01,31.85
11829192,2282,1,193806,232416,0.62,-0.23,9.98,-0.03,-0.01,-0.01,31.85
11869205,2391,1,193699,231095,0.62,-0.24,9.97,-0.03,-0.01,-0.00,31.85
11909192,2398,1,192508,227697,0.63,-0.23,9.98,-0.03,-0.01,-0.01,31.85
11949192,2405,1,192023,227443,0.64,-0.22,9.96,-0.03,-0.01,-0.01,31.85
11989192,2382,1,192317,228307,0.63,-0.23,9.99,-0.03,-0.01,-0.01,31.85
12029192,2352,1,192503,229113,0.63,-0.24,9.94,-0.03,-0.01,-0.01,31.85
12069223,2330,1,192950,230204,0.64,-0.22,9.96,-0.03,-0.01,-0.01,31.85
12109192,2302,1,193157,230551,0.62,-0.22,9.94,-0.04,-0.01,-0.01,31.85
12149879,2219,1,193248,230495,0.62,-0.21,9.95,-0.03,-0.01,-0.01,31.89
12190192,2221,1,193258,230612,0.63,-0.23,9.97,-0.03,-0.01,-0.00,31.89
12230193,2173,1,193356,230915,0.62,-0.23,9.96,-0.04,-0.01,-0.01,31.89
12270202,2151,1,193489,231429,0.63,-0.24,9.97,-0.03,-0.01,-0.00,31.89
12310192,2146,1,193719,232000,0.62,-0.23,9.95,-0.03,-0.01,-0.01,31.89
12350192,2101,1,193829,231664,0.64,-0.23,9.97,-0.03,-0.01,-0.01,31.89
12390192,2099,1,192946,228112,0.62,-0.23,9.99,-0.04,-0.01,-0.01,31.89
12430192,2075,1,192182,227400,0.64,-0.22,9.96,-0.04,-0.01,-0.01,31.89
12470192,2035,1,192419,228339,0.62,-0.22,9.98,-0.03,-0.01,-0.01,31.89
12510192,2032,1,192828,229834,0.63,-0.23,9.96,-0.03,-0.01,-0.01,31.89
12550192,2006,1,193455,231466,0.64,-0.23,9.97,-0.03,-0.01,-0.01,31.89
12590192,2003,1,193799,232316,0.64,-0.23,9.96,-0.04,-0.01,-0.01,31.89
12630192,2027,1,194105,232840,0.62,-0.21,9.96,-0.03,-0.01,-0.01,31.89
12670192,2030,1,194330,233178,0.64,-0.22,9.95,-0.03,-0.01,-0.01,31.89
12709192,2064,1,194352,233793,0.62,-0.23,9.97,-0.03,-0.01,-0.01,31.89
12749192,2064,1,194615,234507,0.62,-0.22,9.97,-0.03,-0.01,-0.01,31.89
12789192,2035,1,194992,235321,0.61,-0.24,9.97,-0.03,-0.01,-0.00,31.89
12829192,2051,1,195298,236009,0.62,-0.23,9.98,-0.03,-0.01,-0.01,31.89
12869192,2030,1,195223,234302,0.62,-0.23,9.95,-0.03,-0.01,-0.01,31.89
12909192,2027,1,194577,232989,0.62,-0.23,9.95,-0.03,-0.01,-0.01,31.89
12949192,2022,1,194434,232910,0.62,-0.23,9.96,-0.03,-0.01,-0.01,31.89
12989192,2000,1,194531,233454,0.61,-0.23,9.99,-0.03,-0.01,-0.01,31.89
13029192,2027,1,194784,234225,0.62,-0.25,9.97,-0.03,-0.01,-0.01,31.89
13069192,2037,1,195226,235242,0.62,-0.21,9.96,-0.04,-0.01,-0.00,31.89
13109192,2042,1,195504,235695,0.62,-0.22,9.99,-0.03,-0.01,-0.00,31.89
13149879,1955,1,195547,235789,0.64,-0.23,9.95,-0.03,-0.01,-0.01,31.83
13190192,1981,1,195654,235935,0.62,-0.21,9.97,-0.04,-0.01,-0.01,31.83
13230192,1967,1,195697,235984,0.64,-0.22,9.98,-0.03,-0.01,-0.01,31.83
13270193,1948,1,195754,236263,0.63,-0.22,9.99,-0.03,-0.01,-0.00,31.83
13310192,1948,1,195750,236366,0.65,-0.22,9.96,-0.03,-0.01,-0.01,31.83
13350192,1936,1,195663,234636,0.63,-0.22,9.96,-0.03,-0.01,-0.01,31.83
13390193,1890,1,194634,231706,0.62,-0.24,9.96,-0.03,-0.01,-0.01,31.83
13430192,1829,1,194030,231336,0.64,-0.22,9.96,-0.03,-0.01,-0.01,31.83
13470192,1811,1,194209,232359,0.62,-0.22,9.96,-0.03,-0.01,-0.01,31.83
13510192,1799,1,194705,233530,0.65,-0.23,9.99,-0.04,-0.01,-0.01,31.83
13550192,1807,1,195193,234650,0.64,-0.21,9.99,-0.03,-0.01,-0.00,31.83
13590192,1838,1,195480,235321,0.62,-0.20,9.98,-0.03,-0.01,-0.00,31.83
13630189,1853,1,195621,235403,0.60,-0.24,10.00,-0.03,-0.01,-0.00,31.83
13670192,1936,1,195569,235395,0.61,-0.21,9.97,-0.04,-0.01,-0.01,31.83
13709192,1987,1,195526,235436,0.63,-0.23,9.99,-0.04,-0.01,-0.01,31.83
13749192,1974,1,195636,235613,0.62,-0.25,9.97,-0.03,-0.01,-0.01,31.83
13789192,1967,1,195569,235887,0.63,-0.23,9.96,-0.03,-0.01,-0.01,31.83
13829192,2011,1,195683,235159,0.63,-0.22,9.94,-0.03,-0.01,-0.01,31.83
13869192,1945,1,194769,231654,0.61,-0.23,9.95,-0.04,-0.01,-0.01,31.83
13909192,1936,1,193969,230791,0.62,-0.23,9.97,-0.03,-0.01,-0.01,31.83
13949192,1936,1,194072,231781,0.62,-0.21,9.96,-0.03,-0.01,-0.01,31.83
13989192,1904,1,194550,232936,0.62,-0.22,9.96,-0.03,-0.01,-0.01,31.83
14029192,1970,1,194957,234035,0.62,-0.23,9.98,-0.03,-0.01,-0.01,31.83
14069192,1969,1,195249,234708,0.62,-0.25,9.98,-0.03,-0.01,-0.01,31.83
14109192,1987,1,195332,234900,0.62,-0.21,9.96,-0.03,-0.01,-0.00,31.83
14149879,1936,1,195448,234994,0.61,-0.23,9.96,-0.03,-0.01,-0.01,31.89
14190192,1975,1,195478,235257,0.62,-0.22,9.98,-0.03,-0.01,-0.00,31.89
14230193,1991,1,195638,235585,0.62,-0.24,9.96,-0.03,-0.01,-0.01,31.89
14270192,1998,1,195749,235998,0.60,-0.22,9.96,-0.03,-0.01,-0.01,31.89
14310192,2013,1,195904,236229,0.61,-0.23,10.01,-0.03,-0.01,-0.01,31.89
14350192,2035,1,195471,233357,0.63,-0.22,9.98,-0.03,-0.01,-0.01,31.89
14390192,2032,1,194467,231637,0.62,-0.22,9.95,-0.04,-0.01,-0.01,31.89
14430193,2032,1,194328,232405,0.62,-0.23,9.97,-0.03,-0.01,-0.01,31.89
14470192,2067,1,194862,233673,0.62,-0.23,9.94,-0.03,-0.01,-0.01,31.89
14510192,2046,1,195248,234693,0.64,-0.22,9.96,-0.03,-0.01,-0.00,31.89
14550192,2087,1,195595,235567,0.65,-0.25,9.97,-0.03,-0.01,-0.01,31.89
14590192,2099,1,195751,235848,0.62,-0.23,9.96,-0.03,-0.01,-0.01,31.89
14630192,2112,1,195805,235914,0.64,-0.22,9.96,-0.03,-0.01,-0.01,31.89
14670193,2128,1,195801,236097,0.62,-0.21,9.96,-0.03,-0.01,-0.01,31.89
14710192,2145,1,196007,236484,0.63,-0.21,9.96,-0.04,-0.01,-0.00,31.89
14750192,2153,1,196132,236964,0.64,-0.23,9.96,-0.03,-0.01,-0.01,31.89
14790192,2142,1,196282,237366,0.63,-0.23,9.96,-0.03,-0.01,-0.01,31.89
14830192,2114,1,196091,235204,0.62,-0.23,9.98,-0.03,-0.01,-0.01,31.89
14870192,2144,1,195005,233145,0.63,-0.22,10.00,-0.03,-0.01,-0.01,31.89
14910192,2128,1,194886,233513,0.62,-0.24,9.99,-0.03,-0.01,-0.01,31.89
14950192,2112,1,195210,234548,0.63,-0.21,9.98,-0.03,-0.01,-0.01,31.89
14990192,2112,1,195534,235492,0.61,-0.24,9.98,-0.03,-0.01,-0.01,31.89
15030192,2116,1,195806,236194,0.63,-0.23,9.97,-0.03,-0.01,-0.01,31.89
15070192,2096,1,195898,236229,0.63,-0.22,9.98,-0.04,-0.01,-0.01,31.89
15110192,2081,1,195902,236123,0.63,-0.23,10.00,-0.03,-0.01,-0.01,31.89
15150876,2055,1,195747,236095,0.64,-0.21,9.96,-0.03,-0.01,-0.01,31.89
15189192,2058,1,195716,236221,0.62,-0.22,9.94,-0.03,-0.01,-0.01,31.89
15229192,2014,1,195757,236505,0.63,-0.21,9.96,-0.03,-0.01,-0.01,31.89
15269193,1984,1,195881,236853,0.61,-0.23,9.96,-0.03,-0.01,-0.01,31.89
15309192,1958,1,195902,235699,0.62,-0.23,9.97,-0.04,-0.01,-0.01,31.89
15349245,1956,1,194913,233171,0.63,-0.22,9.99,-0.03,-0.01,-0.01,31.89
15389192,1907,1,194434,233000,0.61,-0.23,10.04,-0.03,-0.01,-0.01,31.89
15429192,1911,1,194605,233419,0.62,-0.23,9.99,-0.03,-0.01,-0.01,31.89
15469192,1906,1,194716,233690,0.62,-0.23,9.97,-0.03,-0.01,-0.01,31.89
15509192,1888,1,194732,233634,0.62,-0.25,9.94,-0.03,-0.01,-0.01,31.89
15549223,1879,1,194598,233256,0.64,-0.23,9.96,-0.03,-0.01,-0.01,31.89
15589192,1872,1,194399,232630,0.63,-0.22,9.97,-0.03,-0.01,-0.01,31.89
15629192,1895,1,194255,232500,0.63,-0.22,9.95,-0.04,-0.00,-0.01,31.89
15669192,1856,1,194295,232751,0.63,-0.22,9.95,-0.03,-0.01,-0.01,31.89
15709192,1839,1,194304,232911,0.63,-0.23,9.94,-0.03,-0.01,-0.01,31.89
15749192,1824,1,194249,232848,0.63,-0.22,9.96,-0.03,-0.01,-0.01,31.89
15789192,1776,1,194165,232047,0.63,-0.21,9.96,-0.03,-0.01,-0.01,31.89
15829192,1758,1,193546,230294,0.62,-0.23,9.96,-0.03,-0.01,-0.01,31.89
15869192,1729,1,193175,229902,0.60,-0.22,9.98,-0.03,-0.01,-0.01,31.89
15909192,1680,1,193218,230242,0.64,-0.23,9.98,-0.04,-0.00,-0.01,31.89
15949192,1633,1,193335,230674,0.62,-0.26,10.00,-0.03,-0.01,-0.00,31.89
15989192,1461,1,193507,231284,0.61,-0.22,9.97,-0.03,-0.01,-0.01,31.89
16029192,1360,1,193635,231538,0.61,-0.23,9.97,-0.03,-0.01,-0.01,31.89
16069192,1409,1,193635,231515,0.62,-0.23,9.96,-0.03,-0.01,-0.01,31.89
16109192,1383,1,193611,231472,0.63,-0.23,9.96,-0.03,-0.01,-0.01,31.89
16149192,1420,1,193563,231480,0.62,-0.23,9.97,-0.03,-0.01,-0.00,31.89
16189879,1465,1,193584,231579,0.61,-0.23,9.97,-0.03,-0.01,-0.01,31.91
16230193,1514,1,193686,231822,0.61,-0.22,9.99,-0.03,-0.01,-0.00,31.91
16270193,1498,1,193774,231590,0.63,-0.22,9.99,-0.03,-0.01,-0.00,31.91
16310192,1516,1,193400,230339,0.63,-0.23,9.96,-0.03,-0.01,-0.01,31.91
16350192,1559,1,193060,229958,0.62,-0.23,9.96,-0.03,-0.01,-0.00,31.91
16390192,1579,1,193002,230095,0.62,-0.23,9.95,-0.03,-0.01,-0.00,31.91
16430192,1622,1,193047,230365,0.63,-0.23,9.95,-0.03,-0.01,-0.01,31.91
16470192,1682,1,193118,230698,0.65,-0.23,9.95,-0.03,-0.01,-0.00,31.91
16510192,1781,1,193200,230983,0.62,-0.22,9.98,-0.03,-0.01,-0.00,31.91
16550192,1867,1,193225,231086,0.61,-0.24,9.97,-0.03,-0.01,-0.01,31.91
16590192,1877,1,193185,231134,0.62,-0.23,9.97,-0.03,-0.01,-0.00,31.91
16630192,1911,1,193205,231201,0.63,-0.22,9.96,-0.03,-0.01,-0.01,31.91
16670192,1927,1,193260,231420,0.63,-0.23,9.97,-0.03,-0.01,-0.01,31.91
16710192,1883,1,193297,231640,0.63,-0.24,9.99,-0.04,-0.01,-0.01,31.91
16750192,1872,1,193380,231591,0.62,-0.23,9.96,-0.03,-0.01,-0.00,31.91
16789193,1949,1,193041,230622,0.63,-0.21,9.96,-0.03,-0.01,-0.01,31.91
16829192,1953,1,192808,230455,0.62,-0.21,9.97,-0.03,-0.01,-0.01,31.91
16869192,1971,1,192834,230707,0.62,-0.22,9.94,-0.03,-0.01,-0.01,31.91
16909192,1973,1,192934,231035,0.65,-0.22,9.96,-0.03,-0.01,-0.01,31.91
16949192,2018,1,193047,231460,0.63,-0.22,9.96,-0.03,-0.01,-0.00,31.91
16989223,2006,1,193059,231645,0.62,-0.21,9.98,-0.04,-0.01,-0.00,31.91
17029192,2019,1,193051,231705,0.65,-0.24,9.96,-0.03,-0.01,-0.01,31.91
17069192,2017,1,193040,231714,0.62,-0.22,9.94,-0.04,-0.01,-0.01,31.91
17109192,1999,1,193076,231809,0.62,-0.22,9.95,-0.03,-0.01,-0.01,31.91
17149192,2011,1,193087,231962,0.65,-0.24,9.97,-0.03,-0.01,-0.01,31.91
17189911,1958,1,193223,232254,0.63,-0.22,9.96,-0.04,-0.01,-0.00,31.89
17230192,1968,1,193318,232345,0.62,-0.21,9.95,-0.03,-0.01,-0.00,31.89
17270192,1966,1,193119,231263,0.62,-0.24,9.96,-0.04,-0.01,-0.01,31.89
17310192,1973,1,192842,230987,0.62,-0.21,9.99,-0.03,-0.01,-0.01,31.89
17350192,1987,1,192802,231180,0.63,-0.23,9.96,-0.03,-0.01,-0.01,31.89
17390198,1979,1,192858,231458,0.62,-0.22,9.98,-0.03,-0.01,-0.00,31.89
17430192,1984,1,192956,231796,0.64,-0.24,9.94,-0.03,-0.01,-0.01,31.89
17470192,1984,1,193063,232064,0.64,-0.23,9.97,-0.03,-0.01,-0.01,31.89
17510192,1985,1,193095,232071,0.62,-0.23,9.97,-0.03,-0.01,-0.01,31.89
17550193,1973,1,193071,232028,0.65,-0.25,9.95,-0.03,-0.01,-0.01,31.89
17590192,1978,1,193037,232019,0.63,-0.21,9.97,-0.03,-0.01,-0.01,31.89
17630192,1959,1,192937,232127,0.62,-0.24,9.94,-0.03,-0.01,-0.01,31.89
17670192,1965,1,193050,232344,0.62,-0.20,9.95,-0.03,-0.01,-0.01,31.89
17710192,1954,1,193138,232580,0.64,-0.24,9.96,-0.03,-0.01,-0.01,31.89
17750192,1933,1,193198,232038,0.62,-0.24,9.95,-0.03,-0.01,-0.01,31.89
17790192,1954,1,192819,231305,0.64,-0.21,9.94,-0.03,-0.01,-0.01,31.89
17830192,1904,1,192705,231301,0.62,-0.23,10.00,-0.03,-0.01,-0.01,31.89
17870192,1890,1,192758,231595,0.62,-0.24,9.98,-0.03,-0.01,-0.01,31.89
17910192,1882,1,192898,231871,0.62,-0.21,9.97,-0.03,-0.01,-0.01,31.89
17950192,1883,1,192889,232102,0.60,-0.24,9.97,-0.03,-0.01,-0.01,31.89
17990192,1947,1,192946,232138,0.62,-0.23,9.96,-0.03,-0.01,-0.01,31.89
18030192,1968,1,192948,232064,0.63,-0.21,9.96,-0.03,-0.01,-0.01,31.89
18070192,1931,1,192886,232036,0.62,-0.23,9.98,-0.03,-0.01,-0.00,31.89
18110192,1936,1,192832,232110,0.64,-0.23,9.97,-0.04,-0.01,-0.01,31.89
18150192,1834,1,192865,232197,0.64,-0.22,9.96,-0.04,-0.01,-0.01,31.89
18190878,1771,1,192837,232528,0.64,-0.21,9.95,-0.03,-0.01,-0.01,31.85
18229192,1843,1,192975,232837,0.62,-0.24,9.98,-0.03,-0.01,-0.01,31.85
18269192,1631,1,192911,232242,0.63,-0.23,9.99,-0.03,-0.01,-0.01,31.85
18309192,1818,1,192508,231306,0.62,-0.22,9.96,-0.03,-0.01,-0.01,31.85
18349192,1895,1,192342,231312,0.62,-0.22,9.95,-0.04,-0.01,-0.01,31.85
18389192,1887,1,192426,231680,0.63,-0.24,9.95,-0.03,-0.01,-0.01,31.85
18429192,1915,1,192621,232255,0.62,-0.24,9.98,-0.04,-0.01,-0.01,31.85
18469192,1894,1,192839,232984,0.63,-0.23,9.98,-0.04,-0.01,-0.01,31.85
18509192,1904,1,193089,233510,0.63,-0.21,9.97,-0.04,-0.01,-0.00,31.85
18549192,1802,1,193280,233776,0.64,-0.22,9.95,-0.04,-0.00,-0.01,31.85
18589192,1852,1,193228,234010,0.62,-0.22,9.96,-0.03,-0.01,-0.01,31.85
18629192,1872,1,193409,234469,0.63,-0.22,9.98,-0.03,-0.01,-0.01,31.85
18669192,1925,1,193593,235125,0.60,-0.23,9.95,-0.03,-0.01,-0.00,31.85
18709192,1967,1,193856,235661,0.62,-0.21,9.97,-0.03,-0.01,-0.01,31.85
18749192,1889,1,193958,235991,0.61,-0.23,10.00,-0.03,-0.01,-0.01,31.85
18789192,1767,1,194085,235372,0.62,-0.24,9.93,-0.03,-0.01,-0.01,31.85
18829192,1984,1,193292,233317,0.63,-0.23,9.96,-0.04,-0.01,-0.01,31.85
18869193,1937,1,193075,233134,0.63,-0.24,9.95,-0.03,-0.01,-0.01,31.85
18909192,1973,1,192997,233230,0.62,-0.22,9.96,-0.03,-0.01,-0.01,31.85
18949192,2046,1,193047,233485,0.62,-0.23,9.97,-0.03,-0.01,-0.01,31.85
18989192,2112,1,193097,233642,0.61,-0.23,9.98,-0.03,-0.01,-0.01,31.85
19029192,2112,1,193091,233680,0.63,-0.23,9.97,-0.03,-0.01,-0.01,31.85
19069192,2165,1,193022,233553,0.61,-0.22,9.98,-0.03,-0.01,-0.01,31.85
19109192,2221,1,192962,233429,0.62,-0.21,9.97,-0.03,-0.01,-0.01,31.85
19149192,2224,1,193017,233550,0.61,-0.21,9.96,-0.03,-0.01,-0.01,31.85
19189192,2240,1,193046,233663,0.63,-0.23,9.95,-0.03,-0.01,-0.01,31.85
19229879,2192,1,193140,233821,0.63,-0.23,9.96,-0.03,-0.01,-0.01,31.91
19270192,2165,1,193311,234028,0.61,-0.23,9.98,-0.03,-0.01,-0.00,31.91
19310189,2203,1,193297,233722,0.64,-0.22,9.96,-0.03,-0.01,-0.01,31.91
19350192,2102,1,192993,232509,0.63,-0.19,9.96,-0.03,-0.01,-0.00,31.91
19390189,1943,1,192755,232516,0.64,-0.22,9.96,-0.03,-0.01,-0.01,31.91
19430192,1775,1,192872,233000,0.64,-0.22,9.93,-0.03,-0.01,-0.01,31.91
19470192,1616,1,193166,233738,0.64,-0.25,9.97,-0.03,-0.01,-0.01,31.91
19510192,1535,1,193476,234560,0.62,-0.22,9.96,-0.03,-0.01,-0.01,31.91
19550192,1557,1,193671,235015,0.62,-0.21,9.98,-0.03,-0.01,-0.01,31.91
19590192,1795,1,193814,235099,0.62,-0.24,9.99,-0.03,-0.01,-0.01,31.91
19630192,2030,1,193788,235116,0.63,-0.21,9.94,-0.04,-0.01,-0.01,31.91
19670192,2034,1,193834,235215,0.62,-0.25,9.94,-0.03,-0.01,-0.01,31.91
19710192,1986,1,193937,235458,0.64,-0.22,9.97,-0.04,-0.01,-0.01,31.91
19750192,1996,1,194023,235768,0.64,-0.23,9.97,-0.03,-0.01,-0.01,31.91
19790192,1984,1,194113,236161,0.66,-0.23,9.96,-0.03,-0.01,-0.01,31.91
19830192,1981,1,194298,236467,0.63,-0.23,9.95,-0.03,-0.01,-0.01,31.91
19870192,1962,1,194057,234641,0.63,-0.23,9.97,-0.03,-0.01,-0.00,31.91
19910192,1931,1,193552,234145,0.63,-0.22,9.97,-0.03,-0.01,-0.00,31.91
19950189,1934,1,193582,234552,0.61,-0.23,9.94,-0.03,-0.01,-0.01,31.91
19990192,1911,1,193802,235185,0.62,-0.23,9.95,-0.03,-0.01,-0.01,31.91
20030192,1875,1,194022,235937,0.63,-0.22,9.97,-0.04,-0.01,-0.00,31.91
20070192,1872,1,194310,236388,0.62,-0.23,9.96,-0.03,-0.01,-0.01,31.91
20110192,1872,1,194330,236432,0.62,-0.22,9.96,-0.03,-0.01,-0.01,31.91
20150192,1863,1,194391,236376,0.64,-0.23,9.97,-0.04,-0.01,-0.01,31.91
20190192,1871,1,194294,236394,0.63,-0.23,9.96,-0.04,-0.01,-0.01,31.91
20230879,1863,1,194324,236474,0.64,-0.22,9.97,-0.03,-0.01,-0.00,31.85
20269189,1825,1,194367,236657,0.63,-0.23,9.97,-0.03,-0.01,-0.01,31.85
20309192,1866,1,194497,237012,0.63,-0.24,9.92,-0.03,-0.01,-0.01,31.85
20349192,1817,1,194494,237242,0.63,-0.21,9.96,-0.03,-0.01,-0.01,31.85
20389192,1797,1,194463,235538,0.62,-0.23,9.98,-0.03,-0.01,-0.00,31.85
20429189,1787,1,193717,234456,0.63,-0.24,9.95,-0.03,-0.01,-0.01,31.85
20469246,1767,1,193599,234581,0.63,-0.24,9.99,-0.04,-0.01,-0.01,31.85
20509192,1744,1,193677,235081,0.64,-0.22,9.95,-0.03,-0.01,-0.01,31.85
20549192,1743,1,193902,235635,0.64,-0.22,9.97,-0.04,-0.01,-0.01,31.85
20589192,1744,1,194130,236140,0.63,-0.23,9.95,-0.03,-0.01,-0.01,31.85
20629192,1729,1,194218,236234,0.64,-0.22,9.95,-0.03,-0.01,-0.01,31.85
20669238,1723,1,194126,236069,0.63,-0.21,9.96,-0.04,-0.01,-0.01,31.85
20709192,1725,1,194069,236002,0.65,-0.23,9.96,-0.03,-0.01,-0.01,31.85
20749192,1697,1,194099,236111,0.62,-0.23,9.96,-0.03,-0.01,-0.01,31.85
20789192,1710,1,194187,236279,0.63,-0.24,9.98,-0.03,-0.01,-0.01,31.85
20829192,1693,1,194214,236554,0.64,-0.23,9.96,-0.04,-0.01,-0.01,31.85
20869192,1673,1,194340,236848,0.61,-0.23,10.00,-0.03,-0.01,-0.00,31.85
20909189,1645,1,194223,235289,0.60,-0.23,9.97,-0.03,-0.01,-0.01,31.85
20949192,1696,1,193509,234099,0.63,-0.20,9.95,-0.03,-0.01,-0.01,31.85
20989192,1689,1,193332,234171,0.64,-0.24,9.99,-0.03,-0.01,-0.00,31.85
21029192,1637,1,193426,234518,0.63,-0.23,9.94,-0.03,-0.01,-0.01,31.85
21069192,1680,1,193584,234972,0.63,-0.23,9.98,-0.03,-0.01,-0.01,31.85
21109192,1683,1,193744,235367,0.62,-0.21,9.97,-0.04,-0.01,-0.01,31.85
21149192,1648,1,193779,235402,0.63,-0.21,9.97,-0.03,-0.01,-0.01,31.85
21189192,1719,1,193770,235290,0.62,-0.22,9.95,-0.03,-0.01,-0.01,31.85
21229192,1718,1,193721,235203,0.63,-0.23,9.96,-0.03,-0.01,-0.00,31.85
21269879,1642,1,193733,235358,0.61,-0.24,9.97,-0.04,-0.01,-0.01,31.81
21310192,1676,1,193786,235534,0.63,-0.21,9.97,-0.03,-0.01,-0.01,31.81
21350192,1682,1,193856,235724,0.63,-0.22,9.96,-0.04,-0.01,-0.01,31.81
21390192,1664,1,193903,235955,0.63,-0.23,9.98,-0.03,-0.01,-0.01,31.81
21430192,1680,1,193890,234733,0.62,-0.22,9.96,-0.03,-0.01,-0.01,31.81
21470192,1680,1,193160,233255,0.61,-0.23,10.00,-0.03,-0.01,-0.01,31.81
21510192,1679,1,192902,233079,0.61,-0.21,9.97,-0.03,-0.01,-0.01,31.81
21550192,1664,1,192949,233325,0.63,-0.24,9.97,-0.03,-0.01,-0.01,31.81
21590192,1680,1,193016,233667,0.62,-0.23,9.95,-0.03,-0.01,-0.00,31.81
21630192,1680,1,193153,234032,0.62,-0.22,9.96,-0.03,-0.01,-0.01,31.81
21670192,1671,1,193204,234102,0.62,-0.22,9.97,-0.03,-0.01,-0.01,31.81
21710192,1683,1,193161,233979,0.63,-0.24,9.96,-0.03,-0.01,-0.01,31.81
21750192,1667,1,193099,233885,0.62,-0.22,9.96,-0.03,-0.01,-0.01,31.81
21790192,1730,1,193090,233854,0.62,-0.22,9.96,-0.04,-0.01,-0.01,31.81
21830192,1709,1,193044,233852,0.63,-0.22,9.95,-0.03,-0.01,-0.01,31.81
21870192,1691,1,193052,234010,0.62,-0.22,9.97,-0.03,-0.01,-0.00,31.81
21910192,1648,1,193101,234187,0.61,-0.22,9.95,-0.03,-0.01,-0.01,31.81
21950192,1646,1,193154,233566,0.65,-0.24,9.96,-0.03,-0.01,-0.01,31.81
21990192,1652,1,192627,232162,0.65,-0.22,9.99,-0.03,-0.01,-0.01,31.81
22030192,1663,1,192361,231924,0.63,-0.23,9.96,-0.03,-0.01,-0.01,31.81
22070192,1643,1,192362,232158,0.63,-0.22,9.95,-0.03,-0.01,-0.01,31.81
22110192,1601,1,192450,232477,0.62,-0.25,9.97,-0.03,-0.01,-0.01,31.81
22150192,1599,1,192552,232886,0.63,-0.23,9.96,-0.03,-0.01,-0.01,31.81
22190192,1557,1,192653,233002,0.65,-0.23,9.96,-0.03,-0.01,-0.01,31.81
22230192,1535,1,192642,232898,0.63,-0.24,9.98,-0.03,-0.01,-0.01,31.81
22270878,1503,1,192607,232921,0.61,-0.23,9.98,-0.03,-0.01,-0.01,31.95
22309228,1602,1,192559,232937,0.63,-0.24,9.95,-0.03,-0.01,-0.01,31.95
22349191,1600,1,192599,233122,0.62,-0.23,9.95,-0.03,-0.01,-0.01,31.95
22389192,1603,1,192693,233368,0.65,-0.21,9.96,-0.03,-0.01,-0.01,31.95
22429192,1596,1,192716,233585,0.65,-0.22,9.99,-0.03,-0.01,-0.01,31.95
22469192,1631,1,192834,233507,0.62,-0.21,9.96,-0.03,-0.01,-0.01,31.95
22509213,1618,1,192451,231819,0.62,-0.22,9.97,-0.04,-0.01,-0.00,31.95
22549192,1661,1,191965,231280,0.62,-0.22,9.96,-0.03,-0.01,-0.01,31.95
22589191,1707,1,191929,231465,0.64,-0.23,9.97,-0.03,-0.01,-0.01,31.95
22629192,1721,1,192027,231823,0.63,-0.22,9.96,-0.03,-0.01,-0.01,31.95
22669192,1726,1,192134,232268,0.63,-0.23,9.99,-0.03,-0.01,-0.00,31.95
22709192,1776,1,192268,232400,0.63,-0.22,10.00,-0.03,-0.01,-0.01,31.95
22749192,1776,1,192294,232365,0.63,-0.22,9.96,-0.03,-0.01,-0.01,31.95
22789192,1814,1,192270,232380,0.63,-0.23,9.98,-0.04,-0.01,-0.01,31.95
22829192,1856,1,192233,232403,0.63,-0.22,9.99,-0.03,-0.01,-0.01,31.95
22869191,1923,1,192318,232606,0.63,-0.20,9.94,-0.04,-0.01,-0.01,31.95
22909192,1959,1,192405,233005,0.62,-0.22,9.95,-0.03,-0.01,-0.01,31.95
22949192,2005,1,192556,233362,0.63,-0.22,9.95,-0.03,-0.01,-0.01,31.95
22989192,2021,1,192689,233617,0.64,-0.21,9.97,-0.03,-0.01,-0.01,31.95
23029192,2067,1,192436,232035,0.63,-0.21,9.97,-0.03,-0.01,-0.00,31.95
23069192,2117,1,191952,231267,0.63,-0.23,9.97,-0.03,-0.01,-0.01,31.95
23109192,2163,1,191909,231459,0.63,-0.23,9.97,-0.03,-0.01,-0.01,31.95
23149192,2191,1,192054,231948,0.64,-0.22,9.96,-0.03,-0.01,-0.00,31.95
23189192,2241,1,192189,232476,0.62,-0.23,9.95,-0.03,-0.01,-0.01,31.95
23229192,2246,1,192405,232977,0.61,-0.22,10.00,-0.03,-0.01,-0.01,31.95
23269192,2288,1,192550,233024,0.63,-0.22,9.99,-0.03,-0.01,-0.01,31.95
23309879,2245,1,192515,233048,0.63,-0.23,9.98,-0.03,-0.01,-0.01,32.05
23350192,2266,1,192550,233106,0.62,-0.24,9.99,-0.03,-0.01,-0.01,32.05
23390192,2299,1,192575,233306,0.63,-0.22,9.99,-0.03,-0.01,-0.01,32.05
23430192,2295,1,192666,233513,0.63,-0.22,9.97,-0.04,-0.01,-0.01,32.05
23470192,2331,1,192788,233769,0.64,-0.21,9.95,-0.03,-0.01,-0.00,32.05
23510192,2358,1,192865,233859,0.63,-0.22,9.95,-0.03,-0.01,-0.01,32.05
23550192,2353,1,192567,232196,0.62,-0.23,9.97,-0.03,-0.01,-0.00,32.05
23590192,2370,1,192014,231190,0.63,-0.23,9.98,-0.03,-0.01,-0.01,32.05
23630192,2346,1,191891,231253,0.63,-0.25,9.96,-0.03,-0.01,-0.01,32.05
23670192,2369,1,191952,231513,0.64,-0.22,9.96,-0.03,-0.01,-0.01,32.05
23710192,2365,1,192068,231910,0.61,-0.21,9.98,-0.03,-0.01,-0.01,32.05
23750192,2366,1,192187,232225,0.63,-0.24,9.98,-0.03,-0.01,-0.00,32.05
23790192,2349,1,192216,232241,0.62,-0.22,9.96,-0.03,-0.01,-0.01,32.05
23830192,2311,1,192175,232120,0.62,-0.24,9.97,-0.03,-0.01,-0.01,32.05
23870192,2271,1,192143,232124,0.62,-0.22,9.96,-0.03,-0.01,-0.01,32.05
23910192,2261,1,192121,232179,0.61,-0.22,9.97,-0.03,-0.01,-0.01,32.05
23950218,2272,1,192192,232303,0.62,-0.23,9.96,-0.03,-0.01,-0.01,32.05
23990192,2240,1,192213,232411,0.62,-0.23,9.98,-0.03,-0.01,-0.01,32.05
24030192,2223,1,192293,232447,0.65,-0.22,9.94,-0.03,-0.01,-0.01,32.05
24070192,2183,1,192043,230961,0.63,-0.21,9.97,-0.03,-0.01,-0.01,32.05
24110193,2160,1,191511,230057,0.62,-0.22,9.95,-0.03,-0.01,-0.01,32.05
24150220,2112,1,191301,229978,0.64,-0.23,9.96,-0.03,-0.01,-0.01,32.05
24190192,2097,1,191294,230149,0.64,-0.24,9.96,-0.03,-0.01,-0.01,32.05
24230192,2009,1,191306,230380,0.63,-0.21,9.97,-0.03,-0.01,-0.01,32.05
24270192,1997,1,191391,230521,0.64,-0.23,9.98,-0.03,-0.01,-0.01,32.05
24310879,1984,1,191370,230471,0.64,-0.24,9.96,-0.03,-0.01,-0.01,31.81
24349192,1984,1,191276,230384,0.62,-0.24,9.96,-0.03,-0.01,-0.01,31.81
24389192,1975,1,191228,230381,0.63,-0.20,9.99,-0.03,-0.01,-0.01,31.81
24429192,1969,1,191199,230414,0.62,-0.24,9.96,-0.03,-0.01,-0.01,31.81
24469192,1923,1,191223,230556,0.63,-0.21,9.96,-0.03,-0.01,-0.01,31.81
24509192,1893,1,191239,230693,0.63,-0.21,9.97,-0.03,-0.01,-0.00,31.81
24549192,1841,1,191263,230658,0.62,-0.23,9.98,-0.04,-0.01,-0.01,31.81
24589192,1822,1,190969,229258,0.64,-0.21,9.97,-0.03,-0.01,-0.01,31.81
24629192,1787,1,190501,228507,0.62,-0.23,9.94,-0.04,-0.01,-0.01,31.81
24669192,1744,1,190412,228630,0.64,-0.23,9.91,-0.03,-0.01,-0.01,31.81
24709192,1680,1,190455,228849,0.64,-0.24,9.96,-0.03,-0.01,-0.01,31.81
24749192,1675,1,190552,229194,0.64,-0.22,9.93,-0.03,-0.01,-0.00,31.81
24790192,1602,1,190688,229394,0.64,-0.22,9.97,-0.03,-0.01,-0.01,31.81
24830192,1559,1,190690,229448,0.63,-0.23,9.94,-0.04,-0.01,-0.01,31.81
24870192,1511,1,190688,229449,0.64,-0.24,9.96,-0.03,-0.01,-0.01,31.81
24910192,1487,1,190680,229559,0.63,-0.24,9.95,-0.03,-0.01,-0.01,31.81
24950192,1456,1,190688,229624,0.63,-0.23,9.95,-0.03,-0.01,-0.01,31.81
24990192,1445,1,190771,229922,0.64,-0.23,9.95,-0.03,-0.01,-0.00,31.81
25030192,1410,1,190867,230220,0.64,-0.24,9.96,-0.04,-0.01,-0.01,31.81
25070192,1450,1,190855,229732,0.65,-0.22,9.96,-0.03,-0.01,-0.00,31.81
25110192,1442,1,190381,228197,0.64,-0.22,9.96,-0.03,-0.01,-0.01,31.81
25150192,1456,1,190049,227925,0.62,-0.22,9.98,-0.03,-0.01,-0.01,31.81
25190192,1474,1,190039,228142,0.62,-0.23,9.97,-0.03,-0.01,-0.00,31.81
25230192,1522,1,190110,228480,0.63,-0.23,9.96,-0.03,-0.01,-0.01,31.81
25270192,1535,1,190265,228894,0.62,-0.23,9.94,-0.03,-0.01,-0.01,31.81
25310879,1535,1,190296,229049,0.64,-0.22,9.96,-0.03,-0.01,-0.01,31.83
25349192,1658,1,190257,228966,0.67,-0.21,9.98,-0.03,-0.01,-0.01,31.83
25389192,1721,1,190203,229019,0.63,-0.23,9.96,-0.04,-0.01,-0.01,31.83
25429192,1745,1,190208,229081,0.63,-0.22,9.98,-0.03,-0.01,-0.01,31.83
25469192,1809,1,190289,229276,0.65,-0.23,9.97,-0.03,-0.01,-0.01,31.83
25509192,1852,1,190305,229404,0.62,-0.23,9.96,-0.03,-0.01,-0.01,31.83
25549192,1890,1,190343,229408,0.63,-0.23,9.95,-0.03,-0.01,-0.01,31.83
25589240,1963,1,190208,228185,0.62,-0.22,9.96,-0.04,-0.01,-0.01,31.83
25629192,1986,1,189636,227138,0.62,-0.22,9.96,-0.03,-0.01,-0.01,31.83
25669192,2010,1,189473,227226,0.64,-0.22,9.99,-0.03,-0.01,-0.01,31.83
25709192,2044,1,189594,227730,0.64,-0.24,9.98,-0.04,-0.01,-0.00,31.83
25749192,2081,1,189752,228114,0.63,-0.23,9.97,-0.03,-0.01,-0.01,31.83
25789218,2122,1,189957,228686,0.64,-0.23,9.97,-0.03,-0.01,-0.01,31.83
25829192,2145,1,190095,228875,0.64,-0.21,9.98,-0.03,-0.01,-0.01,31.83
25869192,2149,1,190058,228817,0.65,-0.23,9.98,-0.03,-0.01,-0.01,31.83
25909192,2174,1,190010,228758,0.64,-0.21,9.98,-0.03,-0.01,-0.00,31.83
25949192,2174,1,190025,228970,0.63,-0.22,9.97,-0.03,-0.01,-0.01,31.83
25989192,2162,1,190083,229254,0.65,-0.23,9.96,-0.03,-0.01,-0.00,31.83
26029192,2197,1,190259,229670,0.64,-0.22,9.97,-0.04,-0.01,-0.01,31.83
26069192,2214,1,190369,229683,0.63,-0.22,9.98,-0.03,-0.01,-0.01,31.83
26109192,2277,1,190076,228006,0.64,-0.23,9.96,-0.03,-0.01,-0.01,31.83
26149192,2233,1,189624,227432,0.63,-0.22,9.95,-0.03,-0.01,-0.01,31.83
26189192,2222,1,189632,227873,0.64,-0.22,9.97,-0.04,-0.01,-0.01,31.83
26229192,2253,1,189853,228378,0.63,-0.23,9.97,-0.03,-0.01,-0.01,31.83
26269191,2233,1,190145,229106,0.65,-0.23,9.96,-0.04,-0.01,-0.01,31.83
26309192,2250,1,190401,229680,0.62,-0.22,9.98,-0.03,-0.01,-0.01,31.83
26349879,2155,1,190596,229776,0.63,-0.22,9.97,-0.04,-0.01,-0.01,31.77
26390192,2167,1,190597,229586,0.64,-0.20,9.98,-0.03,-0.01,-0.01,31.77
26430192,2178,1,190557,229518,0.62,-0.21,9.96,-0.03,-0.01,-0.01,31.77
26470192,2192,1,190564,229602,0.60,-0.23,9.96,-0.04,-0.01,-0.01,31.77
26510189,2194,1,190574,229762,0.63,-0.23,9.96,-0.03,-0.01,-0.01,31.77
26550192,2167,1,190670,229856,0.63,-0.22,9.98,-0.03,-0.01,-0.01,31.77
26590192,2212,1,190715,229076,0.62,-0.23,9.94,-0.03,-0.01,-0.01,31.77
26630192,2169,1,190123,227441,0.62,-0.22,9.95,-0.03,-0.01,-0.01,31.77
26670192,2149,1,189750,227003,0.63,-0.21,9.99,-0.03,-0.01,-0.01,31.77
26710192,2128,1,189646,227066,0.66,-0.23,9.95,-0.03,-0.01,-0.01,31.77
26750192,2134,1,189741,227382,0.63,-0.23,9.97,-0.03,-0.01,-0.01,31.77
26790192,2153,1,189828,227683,0.63,-0.23,9.99,-0.03,-0.01,-0.01,31.77
26830192,2133,1,189905,227749,0.62,-0.23,9.96,-0.04,-0.01,-0.01,31.77
26870192,2017,1,189898,227555,0.64,-0.24,9.96,-0.03,-0.01,-0.01,31.77
26910192,1981,1,189847,227488,0.63,-0.23,9.97,-0.03,-0.01,-0.01,31.77
26950192,1984,1,189797,227509,0.62,-0.22,9.98,-0.03,-0.01,-0.00,31.77
26990192,1971,1,189807,227584,0.62,-0.22,9.99,-0.04,-0.01,-0.00,31.77
27030192,1973,1,189812,227708,0.64,-0.21,9.97,-0.03,-0.01,-0.00,31.77
27070192,1984,1,189914,227885,0.63,-0.23,9.97,-0.03,-0.01,-0.01,31.77
27110192,1968,1,189780,226651,0.63,-0.22,9.98,-0.04,-0.01,-0.01,31.77
27150192,1968,1,189198,225282,0.62,-0.23,9.94,-0.03,-0.01,-0.01,31.77
27190192,1968,1,188803,224828,0.63,-0.22,9.94,-0.04,-0.01,-0.01,31.77
27230192,1966,1,188800,225049,0.64,-0.23,9.97,-0.03,-0.01,-0.00,31.77
27270192,1991,1,188917,225464,0.63,-0.22,9.98,-0.04,-0.01,-0.01,31.77
27310192,2013,1,189090,225915,0.64,-0.24,9.97,-0.03,-0.01,-0.01,31.77
27350879,1926,1,189191,226093,0.62,-0.23,9.96,-0.04,-0.01,-0.01,31.89
27389192,2089,1,189196,226114,0.62,-0.23,9.99,-0.03,-0.01,-0.01,31.89
27429223,2075,1,189224,226268,0.62,-0.22,9.99,-0.03,-0.01,-0.01,31.89
27469192,2065,1,189326,226517,0.64,-0.24,9.96,-0.03,-0.01,-0.01,31.89
27509192,2103,1,189431,226753,0.63,-0.25,9.99,-0.03,-0.01,-0.01,31.89
27549192,2102,1,189590,227098,0.63,-0.23,9.95,-0.03,-0.01,-0.01,31.89
27589191,2107,1,189711,227165,0.64,-0.21,9.95,-0.04,-0.01,-0.00,31.89
27629212,2076,1,189410,225548,0.62,-0.22,9.97,-0.03,-0.01,-0.00,31.89
27669192,2307,1,188829,224762,0.65,-0.21,9.96,-0.03,-0.01,-0.01,31.89
27709192,2263,1,188808,224933,0.63,-0.22,9.96,-0.03,-0.01,-0.01,31.89
27749191,2201,1,188987,225559,0.63,-0.22,9.96,-0.03,-0.01,-0.01,31.89
27789192,2163,1,189300,226376,0.64,-0.23,9.96,-0.03,-0.01,-0.01,31.89
27829192,2137,1,189629,226846,0.63,-0.21,9.97,-0.03,-0.01,-0.01,31.89
27870192,2014,1,189812,227122,0.64,-0.24,9.95,-0.03,-0.01,-0.01,31.89
27910192,1975,1,189890,227298,0.64,-0.23,9.95,-0.03,-0.01,-0.00,31.89
27950192,1954,1,189955,227412,0.62,-0.22,9.97,-0.03,-0.01,-0.01,31.89
27990192,1934,1,190048,227694,0.63,-0.22,9.97,-0.03,-0.01,-0.01,31.89
28030192,1900,1,190137,228065,0.64,-0.23,9.96,-0.03,-0.01,-0.00,31.89
28070192,1869,1,190302,228417,0.63,-0.23,10.00,-0.03,-0.01,-0.01,31.89
28110189,1845,1,190390,227760,0.63,-0.22,9.97,-0.03,-0.01,-0.01,31.89
28150192,1829,1,189749,225904,0.62,-0.23,9.96,-0.03,-0.01,-0.01,31.89
28190192,1795,1,189342,225471,0.63,-0.22,9.96,-0.03,-0.01,-0.00,31.89
28230192,1778,1,189331,225759,0.63,-0.22,9.95,-0.04,-0.01,-0.01,31.89
28270192,1760,1,189466,226267,0.62,-0.23,9.96,-0.03,-0.01,-0.01,31.89
28310192,1735,1,189693,226710,0.62,-0.23,9.96,-0.03,-0.01,-0.00,31.89
28350879,1722,1,189735,226886,0.66,-0.23,9.94,-0.03,-0.01,-0.01,31.97
28389192,1711,1,189737,226899,0.63,-0.24,9.96,-0.03,-0.01,-0.01,31.97
28429192,1683,1,189718,226973,0.66,-0.24,9.97,-0.03,-0.01,-0.01,31.97
28469192,1696,1,189792,227095,0.64,-0.22,9.96,-0.04,-0.01,-0.01,31.97
28509192,1709,1,189920,227445,0.63,-0.23,9.98,-0.03,-0.01,-0.01,31.97
28549192,1715,1,190075,227938,0.64,-0.23,9.98,-0.03,-0.01,-0.01,31.97
28589192,1744,1,190275,228357,0.64,-0.23,9.99,-0.04,-0.01,-0.01,31.97
28629192,1761,1,190324,227421,0.62,-0.24,9.96,-0.03,-0.01,-0.01,31.97
28669192,1783,1,189724,225942,0.63,-0.22,9.98,-0.04,-0.01,-0.01,31.97
28709192,1801,1,189456,225764,0.63,-0.21,9.97,-0.03,-0.01,-0.01,31.97
28749192,1822,1,189555,226244,0.63,-0.22,9.97,-0.03,-0.00,-0.01,31.97
28789192,1853,1,189710,226534,0.62,-0.22,9.95,-0.03,-0.01,-0.01,31.97
28829192,1865,1,189891,226962,0.65,-0.25,9.93,-0.03,-0.01,-0.01,31.97
28870192,1882,1,190000,226981,0.61,-0.23,9.96,-0.03,-0.01,-0.01,31.97
28910192,1889,1,189977,226962,0.64,-0.23,9.96,-0.03,-0.01,-0.01,31.97
28950192,1913,1,189983,226981,0.62,-0.22,9.94,-0.03,-0.01,-0.01,31.97
28990192,1865,1,190007,227206,0.65,-0.24,9.95,-0.03,-0.01,-0.00,31.97
29030192,1872,1,190100,227524,0.64,-0.23,9.96,-0.03,-0.01,-0.01,31.97
29070222,1871,1,190245,228037,0.65,-0.21,9.97,-0.03,-0.01,-0.01,31.97
29110192,1845,1,190397,228427,0.64,-0.22,9.95,-0.03,-0.01,-0.01,31.97
29150192,1840,1,190513,227763,0.64,-0.23,9.96,-0.03,-0.01,-0.01,31.97
29190192,1840,1,189860,225891,0.61,-0.25,9.97,-0.03,-0.01,-0.01,31.97
29230192,1834,1,189498,225470,0.64,-0.23,9.97,-0.03,-0.01,-0.01,31.97
29270228,1833,1,189524,225759,0.64,-0.21,9.96,-0.03,-0.01,-0.01,31.97
29310192,1798,1,189697,226292,0.62,-0.22,9.96,-0.03,-0.01,-0.01,31.97
29350878,1790,1,189926,227043,0.63,-0.23,9.99,-0.03,-0.01,-0.01,31.99
29389192,1830,1,190081,227430,0.64,-0.23,9.98,-0.03,-0.01,-0.01,31.99
29429192,1822,1,190145,227467,0.62,-0.21,9.96,-0.03,-0.01,-0.01,31.99
29469192,1810,1,190155,227465,0.62,-0.22,9.97,-0.03,-0.01,-0.01,31.99
29509192,1773,1,190202,227413,0.62,-0.24,9.96,-0.03,-0.01,-0.01,31.99
29549192,1767,1,190173,227456,0.62,-0.23,9.95,-0.03,-0.01,-0.01,31.99
29589192,1733,1,190152,227575,0.64,-0.21,9.93,-0.03,-0.01,-0.01,31.99
29629191,1713,1,190269,227989,0.64,-0.21,9.98,-0.03,-0.01,-0.01,31.99
29669192,1710,1,190453,228024,0.65,-0.24,9.96,-0.03,-0.01,-0.01,31.99
29709192,1707,1,190059,225938,0.62,-0.23,9.97,-0.03,-0.01,-0.01,31.99
29749192,1695,1,189433,224814,0.64,-0.23,9.99,-0.03,-0.01,-0.01,31.99
29789192,1666,1,189176,224607,0.64,-0.24,9.99,-0.03,-0.01,-0.00,31.99
29829192,1675,1,189238,225035,0.66,-0.25,9.94,-0.03,-0.01,-0.01,31.99
29869192,1672,1,189524,225568,0.64,-0.23,9.98,-0.03,-0.01,-0.01,31.99
29910192,1664,1,189684,225902,0.63,-0.23,9.95,-0.03,-0.01,-0.01,31.99
29950192,1646,1,189726,225945,0.64,-0.24,9.97,-0.03,-0.01,-0.01,31.99
29990192,1679,1,189782,226064,0.64,-0.22,9.96,-0.03,-0.01,-0.00,31.99
30030192,1680,1,189839,226313,0.64,-0.21,9.96,-0.03,-0.01,-0.00,31.99
30070192,1729,1,189948,226688,0.63,-0.22,9.96,-0.04,-0.01,-0.01,31.99
30110192,1744,1,190065,227146,0.64,-0.24,9.96,-0.03,-0.01,-0.01,31.99
30150192,1778,1,190290,227685,0.64,-0.21,9.93,-0.03,-0.01,-0.01,31.99
30190192,1809,1,190494,228220,0.65,-0.23,9.96,-0.03,-0.01,-0.00,31.99
30230192,1840,1,190562,227360,0.64,-0.21,9.94,-0.03,-0.01,-0.01,31.99
30270192,1863,1,189867,225272,0.64,-0.21,9.96,-0.03,-0.01,-0.01,31.99
30310192,1889,1,189488,224789,0.66,-0.23,9.97,-0.03,-0.01,-0.01,31.99
30350879,1887,1,189389,225105,0.62,-0.24,10.03,-0.03,-0.00,-0.01,32.03
30391192,1919,1,189528,225645,0.63,-0.22,9.97,-0.03,-0.01,-0.01,32.03
30431192,1933,1,189724,226413,0.62,-0.22,9.98,-0.03,-0.01,-0.00,32.03
30471192,1956,1,189963,226945,0.63,-0.23,9.96,-0.03,-0.01,-0.01,32.03
30511192,1965,1,190085,227075,0.63,-0.20,9.97,-0.04,-0.01,-0.01,32.03
30551192,1989,1,190088,227112,0.64,-0.21,9.95,-0.03,-0.01,-0.01,32.03
30591192,2011,1,190089,227118,0.63,-0.25,9.97,-0.04,-0.01,-0.00,32.03
30631192,2032,1,190102,227236,0.62,-0.22,9.96,-0.03,-0.01,-0.01,32.03
30671192,2046,1,190161,227424,0.65,-0.22,9.96,-0.03,-0.01,-0.00,32.03
30711197,2119,1,190234,227672,0.62,-0.22,9.96,-0.03,-0.01,-0.01,32.03
30751192,2148,1,190323,227870,0.62,-0.23,9.97,-0.03,-0.01,-0.01,32.03
30791192,2135,1,190178,226125,0.64,-0.22,9.97,-0.04,-0.01,-0.01,32.03
30831192,2155,1,189435,224391,0.64,-0.22,9.99,-0.03,-0.01,-0.01,32.03
30871192,2139,1,189125,224071,0.63,-0.23,9.96,-0.03,-0.01,-0.00,32.03
30911225,2128,1,189133,224187,0.63,-0.23,9.98,-0.03,-0.01,-0.01,32.03
30951192,2122,1,189155,224418,0.65,-0.24,9.96,-0.03,-0.01,-0.01,32.03
30991192,2109,1,189230,224652,0.64,-0.21,9.98,-0.03,-0.01,-0.01,32.03
31031192,2101,1,189173,224364,0.65,-0.23,9.97,-0.03,-0.01,-0.00,32.03
31071192,2096,1,188967,223868,0.62,-0.22,9.97,-0.03,-0.01,-0.01,32.03
31111215,2094,1,188756,223411,0.63,-0.22,9.99,-0.04,-0.01,-0.01,32.03
31151192,2064,1,188563,223038,0.63,-0.21,10.01,-0.03,-0.01,-0.01,32.03
31191192,2042,1,188415,222692,0.62,-0.21,9.98,-0.03,-0.01,-0.01,32.03
31231192,2031,1,188282,222438,0.63,-0.22,9.95,-0.03,-0.01,-0.00,32.03
31271192,2033,1,188158,222235,0.65,-0.22,9.96,-0.03,-0.01,-0.01,32.03
31311192,1990,1,188042,221443,0.63,-0.22,9.98,-0.03,-0.01,-0.01,32.03
31351878,1939,1,187385,218621,0.66,-0.22,9.96,-0.04,-0.01,-0.01,31.89
31390192,2067,1,186560,217543,0.62,-0.25,9.95,-0.03,-0.01,-0.01,31.89
31430192,2066,1,186590,218279,0.66,-0.23,9.97,-0.03,-0.01,-0.01,31.89
31470192,2076,1,186969,219382,0.64,-0.20,9.94,-0.03,-0.01,-0.01,31.89
31510192,2093,1,187363,220438,0.65,-0.23,9.97,-0.03,-0.01,-0.00,31.89
31550192,2065,1,187632,221037,0.64,-0.23,9.96,-0.03,-0.01,-0.01,31.89
31590192,2091,1,187848,221400,0.64,-0.21,9.96,-0.03,-0.00,-0.00,31.89
31630190,2113,1,187969,221735,0.63,-0.22,9.97,-0.04,-0.01,-0.01,31.89
31670192,2121,1,188165,222326,0.64,-0.24,9.97,-0.03,-0.01,-0.00,31.89
31710192,2128,1,188401,222757,0.61,-0.20,9.97,-0.04,-0.01,-0.01,31.89
31750192,2160,1,188566,223251,0.62,-0.24,9.98,-0.03,-0.01,-0.01,31.89
31790192,2176,1,188701,223646,0.63,-0.23,9.96,-0.03,-0.01,-0.00,31.89
31830192,2178,1,189013,224165,0.64,-0.21,9.96,-0.03,-0.00,-0.00,31.89
31870189,2170,1,188846,222398,0.62,-0.22,9.97,-0.03,-0.01,-0.01,31.89
31910192,2177,1,188162,221149,0.62,-0.22,9.94,-0.03,-0.01,-0.01,31.89
31950192,2173,1,188083,221581,0.65,-0.23,9.96,-0.03,-0.01,-0.01,31.89
31990192,2161,1,188449,222644,0.65,-0.23,9.96,-0.04,-0.01,-0.01,31.89
32030192,2163,1,188836,223758,0.64,-0.24,9.97,-0.04,-0.01,-0.01,31.89
32070192,2154,1,189305,224834,0.66,-0.23,9.95,-0.04,-0.01,-0.01,31.89
32110192,2147,1,189611,225474,0.64,-0.24,9.94,-0.04,-0.01,-0.00,31.89
32150192,2161,1,189741,225729,0.63,-0.23,9.96,-0.04,-0.01,-0.01,31.89
32190192,2171,1,189886,226009,0.62,-0.21,9.96,-0.03,-0.01,-0.00,31.89
32230192,2187,1,190043,226347,0.64,-0.23,9.97,-0.03,-0.01,-0.01,31.89
32270192,2176,1,190176,226776,0.64,-0.23,9.93,-0.03,-0.01,-0.01,31.89
32310192,2175,1,190410,227212,0.63,-0.22,9.96,-0.03,-0.01,-0.01,31.89
32350192,2160,1,190546,227708,0.62,-0.23,9.98,-0.04,-0.00,-0.01,31.89
32390879,2113,1,190495,226482,0.65,-0.24,9.98,-0.04,-0.01,-0.00,31.81
32431192,2112,1,189724,224230,0.64,-0.23,9.98,-0.03,-0.01,-0.01,31.81
32471192,2077,1,189349,224037,0.63,-0.23,9.99,-0.03,-0.01,-0.00,31.81
32511192,2058,1,189455,224634,0.64,-0.23,9.99,-0.04,-0.01,-0.01,31.81
32551206,2038,1,189762,225514,0.63,-0.22,9.96,-0.03,-0.01,-0.00,31.81
32591192,2007,1,190211,226975,0.64,-0.22,9.95,-0.04,-0.01,-0.01,31.81
32631192,1970,1,190822,228321,0.62,-0.21,9.99,-0.04,-0.01,-0.01,31.81
32671192,1937,1,191174,228805,0.63,-0.22,9.96,-0.03,-0.01,-0.01,31.81
32711192,1906,1,191272,228893,0.61,-0.23,9.96,-0.03,-0.01,-0.00,31.81
32751211,1897,1,191338,229179,0.62,-0.23,9.98,-0.03,-0.01,-0.01,31.81
32791192,1871,1,191565,229665,0.62,-0.24,9.97,-0.03,-0.01,-0.00,31.81
32831192,1860,1,191774,230210,0.65,-0.22,9.95,-0.03,-0.01,-0.01,31.81
32871192,1854,1,192144,231595,0.62,-0.24,9.94,-0.04,-0.00,-0.01,31.81
32911192,1870,1,192768,232875,0.61,-0.23,9.95,-0.03,-0.01,-0.01,31.81
32951192,1852,1,192856,231230,0.63,-0.22,9.97,-0.03,-0.01,-0.01,31.81
32991192,1831,1,191725,228890,0.62,-0.23,10.01,-0.03,-0.01,-0.01,31.81
33031192,1817,1,191429,228740,0.64,-0.24,9.99,-0.03,-0.01,-0.01,31.81
33071192,1817,1,191527,229228,0.63,-0.20,9.95,-0.03,-0.01,-0.01,31.81
33111192,1794,1,191778,230141,0.62,-0.21,9.93,-0.03,-0.01,-0.01,31.81
33151192,1783,1,192211,231360,0.61,-0.24,9.96,-0.04,-0.01,-0.01,31.81
33191192,1737,1,192540,231795,0.64,-0.24,9.94,-0.03,-0.01,-0.00,31.81
33231192,1686,1,192555,232375,0.64,-0.23,9.94,-0.03,-0.01,-0.01,31.81
33271192,1649,1,193126,234556,0.64,-0.23,9.94,-0.04,-0.00,-0.01,31.81
33311192,1559,1,193706,235741,0.64,-0.22,9.95,-0.03,-0.00,-0.01,31.81
33351192,1535,1,193954,236119,0.63,-0.23,9.97,-0.03,-0.01,-0.00,31.81
33391878,1566,1,194037,236337,0.64,-0.22,9.92,-0.03,-0.01,-0.01,31.89
33430192,1458,1,194137,236528,0.63,-0.21,9.97,-0.03,-0.01,-0.01,31.89
33470192,1431,1,194197,235830,0.62,-0.21,9.96,-0.03,-0.01,-0.01,31.89
33510193,1403,1,193349,232494,0.64,-0.24,9.97,-0.04,-0.01,-0.01,31.89
33550192,1362,1,192464,231332,0.62,-0.22,9.95,-0.03,-0.01,-0.01,31.89
33590192,1342,1,192440,232018,0.62,-0.23,9.97,-0.03,-0.01,-0.01,31.89
33630192,1334,1,192740,233126,0.66,-0.23,9.95,-0.03,-0.01,-0.01,31.89
33670192,1344,1,193020,234083,0.65,-0.21,9.95,-0.03,-0.01,-0.01,31.89
33710192,1328,1,193175,234638,0.66,-0.23,9.95,-0.03,-0.01,-0.01,31.89
33750192,1360,1,193280,234860,0.65,-0.22,9.94,-0.04,-0.01,-0.01,31.89
33790192,1402,1,193312,235156,0.65,-0.21,9.96,-0.03,-0.01,-0.01,31.89
33830192,1414,1,193311,235564,0.63,-0.22,9.98,-0.03,-0.01,-0.01,31.89
33870192,1449,1,193377,236128,0.63,-0.24,9.97,-0.03,-0.01,-0.00,31.89
33910192,1483,1,193558,236668,0.62,-0.20,9.97,-0.03,-0.01,-0.01,31.89
33950192,1534,1,193691,237175,0.64,-0.23,9.94,-0.04,-0.00,-0.01,31.89
33990192,1575,1,193927,237489,0.61,-0.24,9.97,-0.03,-0.00,-0.01,31.89
34030192,1618,1,193929,236333,0.62,-0.23,9.96,-0.03,-0.01,-0.01,31.89
34070192,1655,1,194074,236651,0.63,-0.23,9.96,-0.03,-0.01,-0.01,31.89
34110192,1713,1,194492,237690,0.63,-0.22,9.98,-0.03,-0.01,-0.01,31.89
34150192,1743,1,194939,238441,0.62,-0.24,9.96,-0.03,-0.01,-0.01,31.89
34190222,1790,1,195194,239097,0.64,-0.24,9.94,-0.03,-0.01,-0.01,31.89
34230192,1837,1,195520,239704,0.65,-0.22,9.96,-0.04,-0.01,-0.01,31.89
34270192,1861,1,195611,239786,0.63,-0.23,9.99,-0.03,-0.01,-0.01,31.89
34310192,1889,1,195789,240239,0.66,-0.22,9.97,-0.03,-0.01,-0.00,31.89
34350192,1925,1,196142,240876,0.64,-0.23,9.98,-0.03,-0.01,-0.01,31.89
34390230,1959,1,196399,241162,0.64,-0.22,9.97,-0.03,-0.01,-0.01,31.89
34430878,1947,1,196306,241087,0.65,-0.23,9.95,-0.03,-0.01,-0.01,31.95
34471192,1985,1,196063,241148,0.65,-0.22,9.96,-0.03,-0.01,-0.01,31.95
34511192,2025,1,196049,241106,0.63,-0.22,9.96,-0.03,-0.01,-0.01,31.95
34551192,2043,1,195681,239647,0.62,-0.23,9.98,-0.03,-0.01,-0.00,31.95
34591192,2063,1,194430,237542,0.66,-0.24,9.98,-0.03,-0.03,-0.01,31.95
34631192,2091,1,193559,236630,0.65,-0.24,9.96,-0.03,-0.02,-0.01,31.95
34671192,2099,1,193433,236718,0.66,-0.21,9.98,-0.03,-0.00,-0.01,31.95
34711192,2111,1,193680,237124,0.63,-0.22,9.96,-0.03,-0.01,-0.01,31.95
34751192,2121,1,193905,237409,0.63,-0.22,9.96,-0.03,-0.01,-0.01,31.95
34791192,2126,1,194058,237504,0.67,-0.23,9.95,-0.03,-0.01,-0.01,31.95
34831192,2128,1,193923,237022,0.66,-0.23,9.96,-0.03,-0.01,-0.01,31.95
34871192,2125,1,193582,236461,0.65,-0.23,9.96,-0.03,-0.02,-0.01,31.95
34911192,2127,1,193396,236294,0.67,-0.21,9.94,-0.03,-0.01,-0.01,31.95
34951192,2128,1,193226,236141,0.65,-0.22,9.95,-0.03,-0.02,-0.01,31.95
34991192,2123,1,193064,236145,0.66,-0.23,9.96,-0.03,-0.01,-0.01,31.95
35031192,2096,1,193080,236499,0.66,-0.25,9.96,-0.03,-0.00,-0.01,31.95
35071192,2096,1,193071,236071,0.67,-0.21,9.98,-0.04,-0.00,-0.01,31.95
35111192,2073,1,192949,235968,0.66,-0.23,9.95,-0.04,-0.01,-0.01,31.95
35151192,2063,1,193078,236236,0.67,-0.22,9.97,-0.03,-0.01,-0.01,31.95
35191192,2035,1,193193,236519,0.66,-0.24,9.97,-0.03,-0.01,-0.01,31.95
35231192,2023,1,193244,236637,0.65,-0.23,10.00,-0.03,-0.01,-0.01,31.95
35271192,2025,1,193250,236708,0.65,-0.23,9.95,-0.03,-0.01,-0.00,31.95
35311192,2003,1,193199,236853,0.66,-0.23,9.96,-0.03,-0.01,-0.01,31.95
35351192,2000,1,193219,236980,0.66,-0.22,9.97,-0.03,-0.00,-0.01,31.95
35391192,1981,1,193160,237108,0.66,-0.23,9.97,-0.04,-0.00,-0.00,31.95
35431879,1907,1,193188,237168,0.66,-0.22,10.00,-0.03,-0.01,-0.00,31.99
35470189,2030,1,193210,237330,0.67,-0.23,9.97,-0.04,-0.00,-0.01,31.99
35510192,2023,1,193283,237363,0.65,-0.23,9.96,-0.03,-0.01,-0.00,31.99
35550192,2031,1,193345,237300,0.65,-0.23,9.97,-0.03,-0.01,-0.01,31.99
35590192,2022,1,193254,236177,0.66,-0.23,9.95,-0.03,-0.01,-0.01,31.99
35630192,2011,1,192874,235813,0.65,-0.21,9.95,-0.03,-0.01,-0.01,31.99
35670192,2019,1,192935,236177,0.66,-0.25,9.98,-0.03,-0.00,-0.01,31.99
35710192,2019,1,193064,236419,0.66,-0.22,9.95,-0.03,-0.01,-0.01,31.99
35750192,2021,1,193114,236674,0.67,-0.23,9.97,-0.03,-0.01,-0.00,31.99
35790192,2031,1,193186,236736,0.65,-0.22,9.95,-0.03,-0.01,-0.01,31.99
35830210,2055,1,193281,236731,0.65,-0.22,10.00,-0.03,-0.00,-0.01,31.99
35870189,2042,1,193272,236680,0.66,-0.22,9.93,-0.03,-0.01,-0.01,31.99
35910192,2042,1,193154,236450,0.65,-0.23,10.00,-0.03,-0.01,-0.01,31.99
35950189,2042,1,193058,236375,0.66,-0.21,9.99,-0.03,-0.01,-0.01,31.99
35990192,2060,1,192961,236284,0.65,-0.20,9.96,-0.03,-0.01,-0.01,31.99
36030216,2064,1,192843,236195,0.66,-0.21,9.97,-0.03,-0.01,-0.00,31.99
36070192,2046,1,192791,235980,0.63,-0.23,9.99,-0.03,-0.01,-0.01,31.99
36110192,2057,1,192531,234527,0.65,-0.22,9.96,-0.03,-0.01,-0.01,31.99
36150192,2032,1,191966,233660,0.65,-0.22,9.94,-0.03,-0.01,-0.01,31.99
36190192,2023,1,191865,233782,0.65,-0.20,9.96,-0.03,-0.01,-0.01,31.99
36230210,2015,1,191976,234212,0.68,-0.21,9.92,-0.03,-0.01,-0.00,31.99
36270192,2029,1,192128,234771,0.67,-0.22,9.97,-0.03,-0.01,-0.01,31.99
36310192,2057,1,192323,235187,0.67,-0.23,9.96,-0.04,-0.00,-0.01,31.99
36350192,2042,1,192475,235459,0.64,-0.22,9.97,-0.03,-0.00,-0.01,31.99
36390192,2070,1,192641,235617,0.65,-0.23,9.96,-0.03,-0.00,-0.01,31.99
36430192,2087,1,192732,235932,0.67,-0.24,9.95,-0.03,-0.01,-0.01,31.99
36470878,2043,1,192863,236187,0.64,-0.20,9.96,-0.03,-0.01,-0.00,31.99
36511189,2089,1,193068,236562,0.63,-0.24,9.95,-0.04,-0.01,-0.01,31.99
36551192,2112,1,193207,236864,0.64,-0.23,9.98,-0.03,-0.01,-0.01,31.99
36591192,2112,1,193401,236795,0.64,-0.21,9.96,-0.03,-0.01,-0.01,31.99
36631192,2143,1,193063,235689,0.65,-0.23,9.96,-0.03,-0.01,-0.01,31.99
36671192,2139,1,193058,236117,0.65,-0.24,9.97,-0.03,-0.00,-0.01,31.99
36711192,2175,1,193492,237041,0.63,-0.22,9.96,-0.04,0.00,-0.01,31.99
36751169,2161,1,193909,237579,0.65,-0.21,9.97,-0.04,-0.00,-0.00,31.99
36791192,2177,1,194023,237576,0.64,-0.21,9.93,-0.03,-0.01,-0.01,31.99
36831192,2176,1,194083,237670,0.63,-0.21,9.94,-0.03,-0.01,-0.00,31.99
36871192,2188,1,194111,237528,0.62,-0.22,9.94,-0.03,-0.01,-0.01,31.99
36911192,2160,1,194007,237432,0.65,-0.23,9.95,-0.03,-0.01,-0.00,31.99
36951192,2175,1,194037,237478,0.64,-0.22,9.95,-0.03,-0.01,-0.01,31.99
36991192,2177,1,194073,237585,0.64,-0.23,9.96,-0.04,-0.01,-0.01,31.99
37031192,2142,1,194068,237753,0.64,-0.23,9.96,-0.03,-0.01,-0.01,31.99
37071192,2127,1,194183,237896,0.64,-0.22,9.97,-0.03,-0.01,-0.01,31.99
37111192,2113,1,194040,236257,0.64,-0.22,9.98,-0.03,-0.01,-0.01,31.99
37151192,2084,1,193156,234782,0.63,-0.21,10.00,-0.03,-0.01,-0.00,31.99
37191192,2092,1,192912,234809,0.63,-0.23,9.96,-0.04,-0.01,-0.01,31.99
37231192,2062,1,193076,235269,0.62,-0.22,9.96,-0.03,-0.01,-0.01,31.99
37271192,2035,1,193238,235723,0.64,-0.21,9.98,-0.03,-0.01,-0.01,31.99
37311192,2023,1,193425,236204,0.64,-0.23,9.98,-0.03,-0.01,-0.01,31.99
37351192,2005,1,193519,236442,0.67,-0.24,9.96,-0.03,-0.01,-0.01,31.99
37391192,1986,1,193636,237021,0.65,-0.22,9.96,-0.03,-0.01,-0.00,31.99
37431192,1962,1,193874,237446,0.62,-0.21,9.96,-0.03,-0.01,-0.01,31.99
37471891,1987,1,193965,237572,0.65,-0.21,9.97,-0.03,-0.01,-0.00,31.83
37510192,1906,1,193928,237568,0.65,-0.23,9.96,-0.03,-0.01,-0.00,31.83
37550192,1885,1,193962,237620,0.63,-0.21,9.96,-0.03,-0.01,-0.00,31.83
37590192,1872,1,193887,237148,0.64,-0.24,9.97,-0.03,-0.01,-0.01,31.83
37630192,1856,1,193269,234904,0.63,-0.23,9.96,-0.03,-0.01,-0.01,31.83
37670197,1827,1,192600,234171,0.63,-0.23,9.98,-0.03,-0.01,-0.01,31.83
37710192,1812,1,192549,234260,0.65,-0.23,9.96,-0.03,-0.01,-0.01,31.83
37750192,1797,1,192477,234131,0.64,-0.22,9.97,-0.03,-0.01,-0.01,31.83
37790192,1792,1,192435,234404,0.65,-0.21,9.98,-0.03,-0.01,-0.01,31.83
37830192,1773,1,192478,234535,0.64,-0.23,9.96,-0.04,-0.01,-0.00,31.83
37870192,1757,1,192433,234399,0.65,-0.22,9.95,-0.03,-0.01,-0.00,31.83
37910192,1767,1,192282,234343,0.65,-0.23,9.96,-0.03,-0.01,-0.01,31.83
37950192,1795,1,192256,234936,0.65,-0.22,9.96,-0.03,-0.01,-0.01,31.83
37990192,1769,1,192411,235211,0.65,-0.22,9.97,-0.04,-0.00,-0.01,31.83
38030192,1799,1,192414,235329,0.66,-0.22,9.96,-0.03,-0.01,-0.01,31.83
38070192,1813,1,192402,235344,0.65,-0.23,9.92,-0.03,-0.01,-0.01,31.83
38110192,1805,1,192308,234267,0.65,-0.22,9.96,-0.03,-0.01,-0.01,31.83
38150192,1811,1,191449,232554,0.65,-0.22,9.96,-0.03,-0.01,-0.01,31.83
38190192,1797,1,191155,232396,0.64,-0.22,9.93,-0.03,-0.01,-0.00,31.83
38230192,1819,1,191247,232710,0.66,-0.22,9.96,-0.03,-0.01,-0.01,31.83
38270192,1847,1,191333,232883,0.64,-0.22,9.97,-0.04,-0.01,-0.00,31.83
38310192,1843,1,191376,233066,0.65,-0.22,9.96,-0.03,-0.01,-0.01,31.83
38350192,1861,1,191405,233015,0.65,-0.22,9.96,-0.04,-0.00,-0.01,31.83
38390192,1875,1,191321,232788,0.64,-0.22,9.98,-0.03,-0.01,-0.01,31.83
38430192,1844,1,191187,232694,0.62,-0.22,9.94,-0.03,-0.01,-0.01,31.83
38470192,1861,1,191245,232873,0.64,-0.23,9.97,-0.04,-0.01,-0.00,31.83
38510878,1824,1,191272,233117,0.65,-0.22,9.95,-0.03,-0.01,-0.01,31.95
38551192,1831,1,191296,233253,0.64,-0.22,9.97,-0.03,-0.01,-0.00,31.95
38591192,1830,1,191377,233343,0.65,-0.23,9.94,-0.03,-0.01,-0.01,31.95
38631192,1838,1,191105,231447,0.65,-0.23,9.96,-0.03,-0.01,-0.01,31.95
38671192,1813,1,189964,229275,0.64,-0.23,9.95,-0.03,-0.00,-0.01,31.95
38711192,1808,1,189499,229272,0.65,-0.21,9.93,-0.03,-0.01,-0.01,31.95
38751192,1802,1,189842,230063,0.65,-0.21,9.96,-0.04,-0.01,-0.01,31.95
38791192,1808,1,190109,230656,0.65,-0.22,9.96,-0.03,-0.01,-0.01,31.95
38831192,1792,1,190322,231016,0.65,-0.23,9.97,-0.03,-0.01,-0.01,31.95
38871192,1803,1,190409,230938,0.66,-0.22,9.95,-0.03,-0.01,-0.01,31.95
38911192,1757,1,190371,230879,0.65,-0.22,9.97,-0.04,-0.00,-0.01,31.95
38951192,1776,1,190314,230855,0.62,-0.22,9.99,-0.03,-0.01,-0.01,31.95
38991192,1755,1,190337,231016,0.66,-0.22,9.95,-0.03,-0.00,-0.01,31.95
39031192,1729,1,190355,231058,0.65,-0.22,9.96,-0.03,-0.00,-0.01,31.95
39071192,1718,1,190370,231268,0.64,-0.22,9.97,-0.03,-0.01,-0.00,31.95
39111192,1715,1,190499,231153,0.68,-0.21,9.90,-0.04,-0.01,-0.01,31.95
39151189,1707,1,189683,228238,0.64,-0.23,9.94,-0.03,-0.00,-0.00,31.95
39191192,1711,1,188782,227292,0.63,-0.21,9.96,-0.03,-0.01,-0.01,31.95
39231192,1739,1,188723,227251,0.65,-0.23,9.94,-0.03,-0.01,-0.01,31.95
39271192,1743,1,188708,227193,0.68,-0.22,9.95,-0.03,-0.01,-0.01,31.95
39311238,1768,1,188691,227108,0.67,-0.23,9.97,-0.03,-0.01,-0.00,31.95
39351192,1758,1,188590,226930,0.62,-0.23,9.98,-0.03,-0.01,-0.01,31.95
39391192,1757,1,188554,226887,0.65,-0.23,9.96,-0.04,-0.00,-0.01,31.95
39431192,1750,1,188514,226807,0.64,-0.23,9.99,-0.03,-0.01,-0.01,31.95
39471192,1744,1,188525,226820,0.63,-0.22,9.98,-0.03,-0.01,-0.01,31.95
39511884,1712,1,188508,227100,0.64,-0.21,9.95,-0.03,-0.01,-0.01,31.97
39550192,1798,1,188684,227552,0.64,-0.23,9.98,-0.03,-0.01,-0.01,31.97
39590192,1792,1,188892,227957,0.62,-0.21,9.97,-0.03,-0.01,-0.01,31.97
39630192,1813,1,188822,226471,0.63,-0.22,9.93,-0.03,-0.01,-0.01,31.97
39670192,1835,1,187812,224276,0.64,-0.23,9.92,-0.03,-0.01,-0.01,31.97
39710192,1845,1,187363,223968,0.65,-0.22,9.98,-0.03,-0.01,-0.00,31.97
39750192,1867,1,187396,224391,0.67,-0.23,9.96,-0.03,-0.01,-0.01,31.97
39790192,1881,1,187573,225182,0.64,-0.22,9.95,-0.03,-0.01,-0.01,31.97
39830192,1890,1,187929,226056,0.66,-0.22,9.95,-0.03,-0.01,-0.01,31.97
39870192,1908,1,188235,226502,0.64,-0.21,9.98,-0.03,-0.01,-0.01,31.97
39910192,1931,1,188257,226453,0.63,-0.23,9.95,-0.03,-0.01,-0.01,31.97
39951192,1872,1,188325,226841,0.65,-0.23,9.96,-0.04,-0.01,-0.00,31.97
39991192,1900,1,188491,227389,0.63,-0.22,9.96,-0.03,-0.01,-0.00,31.97
40031192,1930,1,188847,228199,0.64,-0.22,9.96,-0.03,-0.01,-0.01,31.97
40071192,1939,1,189166,228926,0.64,-0.21,9.97,-0.03,-0.01,-0.00,31.97
40111192,1954,1,189401,229299,0.64,-0.22,9.97,-0.03,-0.01,-0.01,31.97
40151192,1968,1,188864,226096,0.65,-0.22,9.97,-0.03,-0.01,-0.01,31.97
40191192,1974,1,187598,224424,0.63,-0.24,9.98,-0.03,-0.01,-0.01,31.97
40231192,1982,1,187397,224513,0.64,-0.24,9.96,-0.03,-0.01,-0.00,31.97
40271192,2003,1,187566,225120,0.67,-0.23,9.96,-0.03,-0.01,-0.01,31.97
40311192,2021,1,187848,225873,0.66,-0.22,9.96,-0.03,-0.01,-0.01,31.97
40351191,2012,1,188185,226631,0.64,-0.22,9.96,-0.03,-0.01,-0.01,31.97
40391192,2031,1,188373,227174,0.65,-0.22,9.95,-0.03,-0.01,-0.01,31.97
40431192,2059,1,188583,227374,0.66,-0.23,9.95,-0.03,-0.01,-0.00,31.97
40471192,2064,1,188636,227430,0.66,-0.23,9.98,-0.03,-0.01,-0.01,31.97
40511879,1997,1,188601,227331,0.65,-0.24,9.98,-0.03,-0.01,-0.01,31.77
40550192,2144,1,188573,227429,0.64,-0.22,9.95,-0.03,-0.01,-0.01,31.77
40590192,2134,1,188580,227778,0.63,-0.22,9.96,-0.03,-0.01,-0.01,31.77
40630192,2149,1,188836,228109,0.67,-0.22,9.97,-0.03,-0.01,-0.01,31.77
40670192,2123,1,188323,225981,0.64,-0.23,9.99,-0.03,-0.01,-0.00,31.77
40710192,2150,1,187762,225459,0.64,-0.22,9.99,-0.03,-0.01,-0.01,31.77
40750192,2150,1,187864,225946,0.63,-0.20,10.00,-0.04,-0.01,-0.01,31.77
40790192,2127,1,188096,226453,0.64,-0.21,9.98,-0.03,-0.01,-0.01,31.77
40830192,2103,1,188359,227240,0.63,-0.22,9.98,-0.03,-0.01,-0.01,31.77
40870192,2102,1,188702,227931,0.65,-0.22,9.97,-0.03,-0.01,-0.01,31.77
40910192,2102,1,188901,228351,0.66,-0.22,9.96,-0.03,-0.01,-0.01,31.77
40951198,2064,1,189055,228789,0.65,-0.22,9.97,-0.03,-0.01,-0.01,31.77
40991192,2055,1,189211,229237,0.65,-0.22,9.94,-0.03,-0.01,-0.01,31.77
41031192,2026,1,189398,229514,0.64,-0.23,9.95,-0.04,-0.01,-0.01,31.77
41071192,2029,1,189508,229756,0.67,-0.21,9.96,-0.03,-0.01,-0.00,31.77
41111192,2011,1,189577,229858,0.65,-0.23,9.95,-0.03,-0.01,-0.01,31.77
41151215,2015,1,189678,229622,0.66,-0.22,9.95,-0.03,-0.01,-0.01,31.77
41191192,1978,1,188765,226477,0.65,-0.22,9.95,-0.04,-0.01,-0.01,31.77
41231192,1963,1,187942,225773,0.63,-0.20,9.98,-0.03,-0.01,-0.01,31.77
41271192,1958,1,187979,226357,0.65,-0.20,9.95,-0.03,-0.01,-0.01,31.77
41311192,1961,1,188483,228125,0.64,-0.23,9.97,-0.03,-0.01,-0.01,31.77
41351207,1936,1,189332,230613,0.65,-0.23,9.98,-0.04,0.00,-0.01,31.77
41391169,1934,1,190187,232195,0.63,-0.23,9.98,-0.04,-0.00,-0.01,31.77
41431192,1930,1,190556,232848,0.66,-0.23,9.97,-0.04,-0.01,-0.01,31.77
41471192,1894,1,190806,233212,0.65,-0.24,9.95,-0.03,-0.01,-0.01,31.77
41511879,1911,1,190851,233337,0.65,-0.23,9.97,-0.03,-0.01,-0.01,31.67
41550192,1873,1,190936,233428,0.64,-0.21,10.00,-0.03,-0.01,-0.01,31.67
41590192,1853,1,190943,233578,0.64,-0.22,9.95,-0.03,-0.01,-0.00,31.67
41630192,1809,1,191000,233793,0.67,-0.22,9.95,-0.03,-0.01,-0.00,31.67
41670192,1822,1,191064,233996,0.63,-0.21,9.94,-0.03,-0.01,-0.01,31.67
41710192,1808,1,190831,232544,0.63,-0.23,9.96,-0.03,-0.01,-0.00,31.67
41750192,1794,1,190282,232052,0.63,-0.21,9.96,-0.03,-0.01,-0.01,31.67
41790192,1802,1,190344,232362,0.63,-0.22,9.97,-0.03,-0.01,-0.01,31.67
41830191,1809,1,190521,232842,0.66,-0.22,9.96,-0.03,-0.01,-0.01,31.67
41870192,1814,1,190750,233442,0.65,-0.21,10.00,-0.03,-0.01,-0.01,31.67
41910192,1847,1,190960,234061,0.64,-0.21,9.98,-0.03,-0.01,-0.01,31.67
41950192,1872,1,191252,234617,0.65,-0.22,9.93,-0.04,0.00,-0.01,31.67
41991172,1908,1,191309,234600,0.64,-0.22,9.99,-0.03,-0.01,-0.01,31.67
42031192,1963,1,191157,234530,0.65,-0.22,9.97,-0.03,-0.01,-0.01,31.67
42071192,1993,1,191100,234674,0.64,-0.22,9.94,-0.03,-0.01,-0.01,31.67
42111192,2032,1,191182,234945,0.62,-0.23,9.96,-0.03,-0.00,-0.00,31.67
42151192,2053,1,191340,235359,0.64,-0.23,9.97,-0.04,-0.00,-0.01,31.67
42191192,2075,1,191657,235948,0.65,-0.21,9.96,-0.03,0.00,-0.01,31.67
42231172,2062,1,191870,235164,0.61,-0.24,9.96,-0.04,0.00,-0.00,31.67
42271169,2014,1,191532,234508,0.64,-0.21,9.99,-0.04,-0.00,-0.01,31.67
42311192,1983,1,191753,235135,0.63,-0.20,9.99,-0.03,-0.01,-0.01,31.67
42351192,1930,1,192058,235782,0.65,-0.24,9.97,-0.03,-0.01,-0.01,31.67
42391192,1904,1,192274,236084,0.63,-0.23,9.96,-0.03,-0.01,-0.01,31.67
42431192,1869,1,192357,236260,0.62,-0.23,9.95,-0.03,-0.01,-0.01,31.67
42471192,1858,1,192270,236135,0.64,-0.25,9.96,-0.03,-0.01,-0.01,31.67
42511878,1840,1,192111,235921,0.65,-0.21,9.99,-0.03,-0.01,-0.01,31.77
42550192,1821,1,192005,235957,0.63,-0.23,10.02,-0.04,-0.01,-0.01,31.77
42590192,1791,1,192109,236400,0.62,-0.22,9.96,-0.04,-0.00,-0.00,31.77
42630192,1798,1,192296,236676,0.62,-0.23,9.97,-0.03,-0.00,-0.01,31.77
42670189,1818,1,192407,237024,0.63,-0.23,9.97,-0.03,-0.01,-0.01,31.77
42710192,1825,1,192551,237193,0.63,-0.22,9.97,-0.03,-0.01,-0.01,31.77
42750192,1833,1,192332,235805,0.62,-0.22,9.95,-0.03,-0.01,-0.00,31.77
42790192,1823,1,191667,234587,0.64,-0.23,9.98,-0.03,-0.01,-0.01,31.77
42830192,1789,1,191595,234663,0.65,-0.23,9.97,-0.03,-0.01,-0.00,31.77
42870192,1777,1,191687,234879,0.64,-0.23,9.96,-0.03,-0.01,-0.01,31.77
42910192,1756,1,191919,235330,0.62,-0.21,9.97,-0.03,-0.01,-0.00,31.77
42950192,1744,1,192024,235518,0.63,-0.21,9.96,-0.03,-0.01,-0.01,31.77
42990192,1725,1,192059,235185,0.62,-0.21,9.99,-0.04,-0.01,-0.01,31.77
43030192,1730,1,191897,234773,0.63,-0.23,9.98,-0.03,-0.01,-0.01,31.77
43070192,1712,1,191711,234366,0.63,-0.23,9.98,-0.03,-0.01,-0.01,31.77
43110192,1710,1,191529,234106,0.63,-0.23,9.98,-0.03,-0.01,-0.01,31.77
43150192,1716,1,191386,233909,0.62,-0.21,9.95,-0.03,-0.01,-0.00,31.77
43190192,1733,1,191370,234264,0.63,-0.23,9.95,-0.03,-0.01,-0.00,31.77
43230192,1717,1,191566,234631,0.65,-0.22,9.97,-0.04,-0.00,-0.00,31.77
43270192,1708,1,191361,232410,0.63,-0.23,9.97,-0.03,-0.00,-0.00,31.77
43310189,1719,1,190045,229433,0.63,-0.22,9.97,-0.04,-0.00,-0.01,31.77
43350192,1742,1,189567,229035,0.63,-0.23,10.01,-0.03,-0.01,-0.01,31.77
43390192,1781,1,189565,229496,0.63,-0.22,9.98,-0.03,-0.02,-0.01,31.77
43430192,1828,1,189797,230224,0.64,-0.21,9.96,-0.03,-0.01,-0.01,31.77
43470191,1863,1,190224,231556,0.63,-0.23,9.98,-0.03,-0.01,-0.01,31.77
43510192,1878,1,190608,232515,0.64,-0.22,9.98,-0.03,-0.01,-0.01,31.77
43550878,1808,1,190851,232903,0.66,-0.21,9.97,-0.03,-0.01,-0.01,31.63
43591192,1798,1,190928,233059,0.66,-0.23,9.96,-0.03,-0.01,-0.01,31.63
43631192,1790,1,190926,233128,0.63,-0.23,9.95,-0.03,-0.01,-0.01,31.63
43671192,1767,1,190948,233288,0.65,-0.21,9.97,-0.03,-0.01,-0.01,31.63
43711192,1805,1,190925,233330,0.64,-0.22,9.98,-0.03,-0.01,-0.00,31.63
43751192,1790,1,190993,233359,0.63,-0.21,10.00,-0.03,-0.01,-0.01,31.63
43791192,1842,1,190795,230932,0.64,-0.23,9.99,-0.04,-0.00,-0.01,31.63
43831192,1849,1,189293,227641,0.64,-0.23,9.99,-0.03,-0.01,-0.00,31.63
43871192,1851,1,188673,227029,0.64,-0.22,9.94,-0.03,-0.01,-0.01,31.63
43911192,1834,1,188950,228106,0.64,-0.23,9.97,-0.03,-0.01,-0.01,31.63
43951192,1798,1,189582,230449,0.63,-0.23,9.99,-0.04,-0.01,-0.01,31.63
43991192,1789,1,190714,232297,0.64,-0.23,9.96,-0.04,-0.01,-0.01,31.63
44031192,1799,1,191106,232930,0.64,-0.21,9.97,-0.03,-0.01,-0.01,31.63
44071192,1826,1,191265,233367,0.66,-0.23,9.95,-0.03,-0.01,-0.01,31.63
44111192,1836,1,191404,233730,0.66,-0.21,9.97,-0.03,-0.01,-0.01,31.63
44151192,1833,1,191522,234176,0.63,-0.21,9.97,-0.03,-0.01,-0.01,31.63
44191192,1826,1,191698,234650,0.65,-0.22,9.96,-0.03,-0.01,-0.00,31.63
44231192,1808,1,191831,234902,0.65,-0.23,9.99,-0.03,-0.01,-0.01,31.63
44271192,1801,1,191918,235013,0.67,-0.24,9.96,-0.03,-0.01,-0.01,31.63
44311192,1787,1,191872,234155,0.64,-0.20,9.97,-0.03,-0.01,-0.00,31.63
44351189,1764,1,191143,232517,0.65,-0.22,9.95,-0.03,-0.01,-0.01,31.63
44391192,1775,1,190959,232576,0.65,-0.24,9.98,-0.04,-0.01,-0.01,31.63
44431192,1778,1,191164,233227,0.64,-0.23,9.99,-0.04,-0.01,-0.01,31.63
44471192,1796,1,191442,233936,0.65,-0.21,9.98,-0.04,-0.01,-0.01,31.63
44511192,1808,1,191662,234742,0.63,-0.21,9.97,-0.03,-0.01,-0.01,31.63
44551879,1792,1,191970,235363,0.66,-0.22,9.98,-0.04,-0.00,-0.01,31.81
44590192,2010,1,192117,235638,0.63,-0.19,9.95,-0.03,-0.01,-0.01,31.81
44630231,2113,1,192285,235599,0.63,-0.23,9.96,-0.04,-0.00,-0.01,31.81
44670192,2192,1,192243,235639,0.62,-0.21,9.95,-0.03,-0.01,-0.01,31.81
44710192,2230,1,192382,235826,0.64,-0.21,9.95,-0.03,-0.01,-0.01,31.81
44750192,2256,1,192432,236090,0.64,-0.22,9.97,-0.03,-0.01,-0.01,31.81
44790192,2240,1,192627,236480,0.64,-0.23,9.95,-0.03,-0.01,-0.00,31.81
44830192,2221,1,192750,236123,0.64,-0.23,9.96,-0.03,-0.01,-0.01,31.81
44870192,2196,1,192097,233884,0.63,-0.23,9.97,-0.03,-0.01,-0.01,31.81
44910192,2192,1,191593,233433,0.64,-0.22,9.96,-0.03,-0.01,-0.01,31.81
44950191,2208,1,191707,234095,0.63,-0.22,9.95,-0.03,-0.01,-0.01,31.81
44990192,2203,1,191918,234614,0.65,-0.24,9.97,-0.04,-0.01,-0.01,31.81
45030192,2158,1,192027,234918,0.66,-0.21,9.98,-0.03,-0.01,-0.01,31.81
45070192,2132,1,192033,235026,0.63,-0.24,9.98,-0.03,-0.01,-0.01,31.81
45110192,2079,1,192030,234961,0.65,-0.22,9.96,-0.03,-0.01,-0.01,31.81
45150192,2047,1,191900,235030,0.65,-0.23,9.99,-0.03,-0.01,-0.01,31.81
45190192,2032,1,191929,235044,0.64,-0.23,9.98,-0.03,-0.01,-0.01,31.81
45230192,2039,1,191961,235240,0.65,-0.22,9.96,-0.04,-0.01,-0.01,31.81
45270192,2064,1,192085,235638,0.64,-0.22,9.92,-0.04,-0.01,-0.01,31.81
45310192,2081,1,192334,236089,0.64,-0.21,9.97,-0.04,-0.00,-0.01,31.81
45350192,2085,1,192507,235914,0.64,-0.21,9.96,-0.03,-0.01,-0.01,31.81
45390191,2086,1,191977,234087,0.67,-0.23,9.96,-0.03,-0.01,-0.01,31.81
45430192,2071,1,191617,233927,0.65,-0.23,9.97,-0.04,-0.01,-0.01,31.81
45470192,2077,1,191769,234482,0.65,-0.21,9.98,-0.03,-0.01,-0.01,31.81
45510192,2045,1,191989,235016,0.63,-0.23,9.98,-0.04,-0.01,-0.01,31.81
45550192,2016,1,192110,235345,0.63,-0.23,9.97,-0.04,-0.01,-0.01,31.81
45590879,1974,1,192205,235472,0.64,-0.22,9.96,-0.03,-0.01,-0.01,31.91
45631192,1971,1,192215,235142,0.63,-0.23,9.95,-0.03,-0.01,-0.00,31.91
45671192,1970,1,191981,234746,0.64,-0.23,9.95,-0.03,-0.01,-0.01,31.91
45711192,1943,1,191871,234437,0.65,-0.23,9.97,-0.03,-0.01,-0.01,31.91
45751192,1925,1,191796,234604,0.65,-0.23,9.97,-0.03,-0.01,-0.01,31.91
45791192,1895,1,191862,234718,0.64,-0.23,9.96,-0.03,-0.01,-0.01,31.91
45831192,1891,1,191845,234807,0.64,-0.22,9.96,-0.03,-0.01,-0.01,31.91
45871198,1872,1,191894,234471,0.65,-0.23,9.96,-0.04,-0.01,-0.01,31.91
45911192,1853,1,191134,231328,0.65,-0.23,9.97,-0.03,-0.01,-0.01,31.91
45951192,1872,1,190090,229667,0.65,-0.22,9.96,-0.03,-0.01,-0.01,31.91
45991192,1850,1,189803,229825,0.65,-0.23,9.98,-0.03,-0.01,-0.01,31.91
46031192,1847,1,190136,231144,0.66,-0.22,9.96,-0.04,-0.00,-0.01,31.91
46071195,1872,1,190659,232589,0.64,-0.23,9.96,-0.03,-0.00,-0.01,31.91
46111192,1871,1,191100,233574,0.65,-0.22,9.97,-0.03,-0.01,-0.01,31.91
46151192,1873,1,191321,233838,0.64,-0.21,9.97,-0.03,-0.01,-0.01,31.91
46191192,1855,1,191340,233651,0.62,-0.23,9.96,-0.03,-0.01,-0.01,31.91
46231192,1824,1,191123,233148,0.64,-0.23,9.96,-0.03,-0.02,-0.01,31.91
46271212,1829,1,190911,232898,0.67,-0.22,9.95,-0.03,-0.02,-0.01,31.91
46311192,1856,1,190848,232815,0.65,-0.24,9.93,-0.03,-0.01,-0.01,31.91
46351192,1888,1,190863,232819,0.64,-0.22,9.96,-0.03,-0.01,-0.01,31.91
46391192,1968,1,190909,232621,0.64,-0.23,9.95,-0.03,-0.01,-0.01,31.91
46431192,2039,1,190115,228867,0.64,-0.19,9.95,-0.04,-0.01,-0.01,31.91
46471216,2069,1,188820,227007,0.66,-0.20,9.94,-0.03,-0.00,-0.01,31.91
46511189,2096,1,188616,227201,0.66,-0.22,9.95,-0.03,-0.01,-0.01,31.91
46551192,2123,1,188799,227823,0.65,-0.23,9.95,-0.03,-0.01,-0.01,31.91
46591878,2126,1,189049,228699,0.64,-0.22,9.95,-0.03,-0.01,-0.01,31.75
46630192,2097,1,189382,229544,0.65,-0.23,9.95,-0.03,-0.01,-0.01,31.75
46670192,2096,1,189621,230141,0.64,-0.23,9.96,-0.03,-0.01,-0.01,31.75
46710192,2057,1,189795,230488,0.65,-0.21,10.00,-0.03,-0.01,-0.01,31.75
46750189,2030,1,189964,231032,0.64,-0.23,9.97,-0.03,-0.01,-0.01,31.75
46790192,1986,1,190112,231680,0.64,-0.23,9.97,-0.03,-0.01,-0.01,31.75
46830192,1953,1,190418,232466,0.66,-0.21,9.98,-0.03,-0.01,-0.01,31.75
46870192,1902,1,190680,233081,0.65,-0.21,9.99,-0.04,-0.01,-0.00,31.75
46910192,1820,1,190785,233463,0.64,-0.22,9.97,-0.03,-0.01,-0.01,31.75
46950192,1760,1,190682,231946,0.68,-0.23,9.97,-0.03,-0.01,-0.01,31.75
46990192,1716,1,189979,230739,0.65,-0.24,9.95,-0.03,-0.01,-0.00,31.75
47030192,1711,1,189901,231209,0.66,-0.24,9.97,-0.03,-0.01,-0.01,31.75
47070192,1712,1,190191,232125,0.67,-0.23,9.93,-0.04,-0.00,-0.01,31.75
47110192,1744,1,190636,233347,0.64,-0.22,9.99,-0.04,0.00,-0.01,31.75
47150169,1812,1,191193,234186,0.64,-0.23,9.97,-0.04,-0.00,-0.01,31.75
47190192,1855,1,191374,234426,0.65,-0.24,9.96,-0.03,-0.01,-0.01,31.75
47230192,1907,1,191476,234666,0.65,-0.23,9.95,-0.03,-0.01,-0.01,31.75
47270192,1942,1,191612,235048,0.65,-0.21,9.97,-0.03,-0.01,-0.01,31.75
47310192,1956,1,191810,235487,0.64,-0.23,9.99,-0.03,-0.01,-0.00,31.75
47350192,1979,1,191971,235581,0.63,-0.22,9.95,-0.03,-0.01,-0.01,31.75
47390192,1957,1,192004,235608,0.65,-0.22,9.98,-0.03,-0.01,-0.01,31.75
47430192,1925,1,192016,235565,0.63,-0.21,9.98,-0.03,-0.01,-0.01,31.75
47470192,1906,1,191817,233525,0.64,-0.23,9.99,-0.03,-0.01,-0.01,31.75
47510192,1860,1,190719,230995,0.62,-0.23,9.98,-0.03,-0.01,-0.01,31.75
47550192,1822,1,190153,230513,0.64,-0.24,9.98,-0.03,-0.01,-0.01,31.75
47590192,1798,1,190202,230897,0.65,-0.23,9.93,-0.03,-0.01,-0.01,31.75
47630879,1711,1,190263,231179,0.63,-0.22,9.95,-0.03,-0.01,-0.01,31.89
47671192,1703,1,190259,231288,0.66,-0.22,9.97,-0.03,-0.01,-0.01,31.89
47711192,1680,1,190203,231220,0.67,-0.23,9.97,-0.03,-0.01,-0.01,31.89
47751192,1673,1,190124,231233,0.65,-0.24,9.95,-0.03,-0.01,-0.01,31.89
47791192,1675,1,190098,231266,0.65,-0.21,9.99,-0.04,-0.01,-0.01,31.89
47831192,1687,1,190149,231438,0.64,-0.22,9.96,-0.03,-0.01,-0.01,31.89
47871192,1725,1,190183,231542,0.63,-0.21,9.97,-0.04,-0.01,-0.01,31.89
47911223,1759,1,190203,231681,0.64,-0.22,9.98,-0.03,-0.01,-0.01,31.89
47951192,1767,1,190243,231889,0.67,-0.21,9.98,-0.03,-0.01,-0.01,31.89
47991192,1775,1,190250,230910,0.65,-0.22,9.97,-0.04,-0.01,-0.01,31.89
48031192,1769,1,189540,229490,0.63,-0.23,9.98,-0.03,-0.01,-0.01,31.89
48071192,1747,1,189453,230156,0.65,-0.21,9.98,-0.03,-0.01,-0.01,31.89
48111221,1728,1,189877,231158,0.66,-0.22,9.98,-0.03,-0.01,-0.01,31.89
48151192,1702,1,190171,231747,0.65,-0.23,9.97,-0.03,-0.01,-0.01,31.89
48191192,1714,1,190355,232297,0.64,-0.23,9.96,-0.03,-0.01,-0.01,31.89
48231192,1718,1,190485,232632,0.66,-0.21,9.96,-0.03,-0.01,-0.01,31.89
48271192,1722,1,190578,232869,0.65,-0.22,9.93,-0.04,-0.01,-0.01,31.89
48311192,1741,1,190659,233122,0.65,-0.23,9.96,-0.03,-0.01,-0.01,31.89
48351193,1753,1,190765,233520,0.65,-0.21,9.96,-0.03,-0.01,-0.00,31.89
48391192,1774,1,190846,233829,0.66,-0.21,9.96,-0.03,-0.01,-0.01,31.89
48431193,1794,1,190967,234110,0.65,-0.22,9.96,-0.04,-0.01,-0.01,31.89
48471192,1882,1,191131,234239,0.64,-0.25,9.96,-0.03,-0.01,-0.01,31.89
48511192,1920,1,190974,232653,0.66,-0.23,9.97,-0.03,-0.01,-0.01,31.89
48551192,1996,1,189815,229861,0.65,-0.21,9.96,-0.04,-0.01,-0.01,31.89
48591193,2064,1,189185,229341,0.66,-0.23,9.96,-0.03,-0.01,-0.00,31.89
48631879,2026,1,189249,230177,0.64,-0.23,9.97,-0.04,-0.00,-0.01,31.81
48670189,2158,1,189597,231229,0.65,-0.21,9.96,-0.04,0.01,-0.01,31.81
48710171,2106,1,189952,231534,0.64,-0.22,10.00,-0.03,-0.01,-0.01,31.81
48750192,2068,1,189770,230972,0.65,-0.23,9.97,-0.03,-0.01,-0.01,31.81
48790192,2086,1,189515,230484,0.65,-0.21,9.96,-0.03,-0.01,-0.01,31.81
48830192,2131,1,189410,230349,0.66,-0.24,9.97,-0.03,-0.01,-0.01,31.81
48870192,2163,1,189467,230740,0.63,-0.22,9.97,-0.03,-0.01,-0.01,31.81
48910192,2163,1,189673,231632,0.66,-0.21,9.97,-0.04,-0.01,-0.01,31.81
48950192,2158,1,190021,232403,0.65,-0.23,9.96,-0.03,-0.01,-0.00,31.81
48990192,2112,1,190290,233086,0.64,-0.24,9.97,-0.03,-0.01,-0.01,31.81
49030191,2097,1,190452,232341,0.63,-0.25,9.94,-0.04,-0.01,-0.01,31.81
49070192,2046,1,189689,230288,0.64,-0.24,9.95,-0.03,-0.01,-0.01,31.81
49110192,2061,1,189153,229630,0.66,-0.22,9.97,-0.03,-0.01,-0.01,31.81
49150192,2073,1,189115,229569,0.65,-0.22,9.95,-0.03,-0.01,-0.01,31.81
49190192,2128,1,189057,229429,0.63,-0.23,9.96,-0.03,-0.01,-0.01,31.81
49230192,2138,1,189116,229854,0.65,-0.22,9.96,-0.03,-0.01,-0.01,31.81
49270192,2133,1,189237,229972,0.64,-0.20,9.96,-0.03,-0.01,-0.01,31.81
49310192,2119,1,189250,230284,0.63,-0.22,9.95,-0.04,0.00,-0.00,31.81
49350172,2096,1,189500,231141,0.63,-0.23,9.95,-0.03,-0.01,-0.01,31.81
49390191,2064,1,189815,231719,0.63,-0.22,9.96,-0.03,-0.01,-0.01,31.81
49430192,1983,1,189910,231806,0.63,-0.22,9.95,-0.03,-0.01,-0.01,31.81
49470192,1998,1,189850,231574,0.62,-0.22,9.97,-0.03,-0.01,-0.00,31.81
49510192,1984,1,189848,231554,0.64,-0.21,9.98,-0.03,-0.01,-0.01,31.81
49550218,2029,1,189734,230028,0.63,-0.23,9.98,-0.03,-0.01,-0.01,31.81
49590192,2031,1,188467,226660,0.65,-0.22,9.95,-0.03,-0.01,-0.01,31.81
49630192,2053,1,187831,226012,0.64,-0.23,9.98,-0.03,-0.01,-0.01,31.81
49670878,2005,1,187919,226510,0.64,-0.22,9.97,-0.03,-0.01,-0.01,31.91
49711192,2071,1,188218,227205,0.64,-0.22,9.96,-0.03,-0.01,-0.01,31.91
49751209,2070,1,188477,227793,0.64,-0.23,9.96,-0.03,-0.01,-0.01,31.91
49791192,2064,1,188626,228150,0.62,-0.23,9.98,-0.03,-0.01,-0.01,31.91
49831192,2060,1,188645,228210,0.65,-0.23,9.96,-0.03,-0.01,-0.01,31.91
49871192,2064,1,188761,228589,0.63,-0.23,9.97,-0.03,-0.00,-0.01,31.91
49911192,2043,1,188819,228714,0.63,-0.23,9.98,-0.03,-0.01,-0.01,31.91
49951192,2059,1,188776,228882,0.64,-0.22,9.99,-0.03,-0.01,-0.01,31.91
49991192,2032,1,188948,229418,0.65,-0.21,9.96,-0.03,-0.01,-0.01,31.91
50031192,2000,1,189206,230210,0.62,-0.22,9.98,-0.03,-0.01,-0.00,31.91
50071192,1959,1,189494,229971,0.63,-0.23,9.95,-0.03,-0.01,-0.01,31.91
50111192,1938,1,188662,227215,0.64,-0.21,9.96,-0.04,-0.01,-0.01,31.91
50151192,1936,1,188111,227327,0.66,-0.23,9.96,-0.03,-0.01,-0.01,31.91
50191192,1905,1,188525,228752,0.64,-0.22,9.96,-0.03,-0.01,-0.01,31.91
50231192,1895,1,189099,230029,0.63,-0.21,9.98,-0.03,-0.01,-0.01,31.91
50271192,1866,1,189416,230791,0.64,-0.25,9.99,-0.04,-0.01,-0.01,31.91
50311192,1845,1,189655,231216,0.63,-0.22,9.98,-0.03,-0.01,-0.01,31.91
50351192,1827,1,189795,231346,0.64,-0.22,9.96,-0.03,-0.01,-0.01,31.91
50391192,1814,1,189778,231415,0.66,-0.22,9.98,-0.03,-0.01,-0.01,31.91
50431192,1794,1,189804,231610,0.62,-0.25,9.99,-0.03,-0.01,-0.01,31.91
50471192,1828,1,189978,232006,0.63,-0.21,9.97,-0.03,-0.01,-0.00,31.91
50511192,1803,1,190121,232506,0.63,-0.22,9.98,-0.03,-0.01,-0.01,31.91
50551192,1807,1,190245,232852,0.63,-0.23,9.96,-0.03,-0.01,-0.00,31.91
50591192,1793,1,190338,232597,0.65,-0.24,9.95,-0.03,-0.01,-0.00,31.91
50631192,1813,1,189711,230783,0.64,-0.22,9.95,-0.03,-0.01,-0.01,31.91
50671879,1826,1,189360,230702,0.64,-0.22,9.97,-0.03,-0.01,-0.01,31.91
50710191,1805,1,189537,231165,0.66,-0.23,9.97,-0.03,-0.01,-0.01,31.91
50750191,1820,1,189705,231656,0.64,-0.21,9.94,-0.03,-0.01,-0.01,31.91
50790192,1841,1,189884,232188,0.65,-0.21,9.98,-0.04,-0.01,-0.01,31.91
50830192,1857,1,190065,232442,0.65,-0.24,9.98,-0.03,-0.01,-0.01,31.91
50870192,1898,1,190057,232330,0.64,-0.22,9.97,-0.04,-0.01,-0.01,31.91
50910192,1916,1,190029,232353,0.65,-0.23,9.95,-0.04,-0.01,-0.01,31.91
50950192,1915,1,190069,232464,0.63,-0.23,9.96,-0.03,-0.01,-0.01,31.91
50990192,1947,1,190086,232562,0.65,-0.22,9.98,-0.04,-0.01,-0.01,31.91
51030192,1984,1,190185,232743,0.65,-0.23,9.96,-0.03,-0.01,-0.01,31.91
51070192,1998,1,190256,232968,0.65,-0.22,9.97,-0.04,-0.01,-0.01,31.91
51110192,2022,1,190284,232161,0.67,-0.21,9.95,-0.03,-0.01,-0.00,31.91
51150192,2019,1,189475,230270,0.66,-0.23,9.98,-0.03,-0.01,-0.01,31.91
51190199,2024,1,189285,230413,0.63,-0.25,9.95,-0.03,-0.01,-0.01,31.91
51230192,2015,1,189542,231174,0.64,-0.23,9.96,-0.04,-0.01,-0.01,31.91
51270192,2030,1,189837,231981,0.66,-0.21,9.96,-0.04,-0.01,-0.01,31.91
51310192,2041,1,190130,232714,0.65,-0.21,9.96,-0.03,-0.01,-0.01,31.91
51350192,2045,1,190334,233088,0.66,-0.23,9.95,-0.03,-0.01,-0.01,31.91
51390223,2062,1,190507,233356,0.65,-0.21,9.95,-0.03,-0.01,-0.00,31.91
51430192,2063,1,190653,233511,0.62,-0.22,9.93,-0.03,-0.01,-0.01,31.91
51470192,2043,1,190715,233646,0.63,-0.21,9.96,-0.04,-0.01,-0.01,31.91
51510192,2042,1,190769,233730,0.64,-0.22,9.96,-0.03,-0.01,-0.01,31.91
51550192,1999,1,190755,233784,0.64,-0.23,9.98,-0.04,-0.01,-0.01,31.91
51590215,2011,1,190805,233844,0.64,-0.23,9.97,-0.03,-0.01,-0.01,31.91
51630192,2000,1,190742,232515,0.63,-0.24,9.97,-0.03,-0.01,-0.01,31.91
51670192,1979,1,189729,230197,0.64,-0.21,9.95,-0.03,-0.01,-0.01,31.91
51710878,1895,1,189348,230008,0.66,-0.23,9.99,-0.03,-0.01,-0.00,31.75
51751192,1893,1,189570,230620,0.66,-0.23,9.96,-0.03,-0.00,-0.01,31.75
51791192,1871,1,189782,231110,0.65,-0.23,9.97,-0.03,-0.01,-0.01,31.75
51831192,1842,1,189935,231495,0.65,-0.21,9.97,-0.03,-0.01,-0.01,31.75
51871192,1829,1,190022,231559,0.65,-0.21,9.94,-0.03,-0.01,-0.01,31.75
51911192,1791,1,189958,231348,0.64,-0.22,9.96,-0.03,-0.01,-0.01,31.75
51951192,1751,1,189845,231149,0.67,-0.23,9.94,-0.03,-0.01,-0.01,31.75
51991192,1727,1,189767,230932,0.65,-0.22,9.96,-0.03,-0.01,-0.01,31.75
52030192,1776,1,189674,230852,0.66,-0.22,9.95,-0.03,-0.01,-0.01,31.75
52070192,1728,1,189625,230917,0.64,-0.21,9.97,-0.04,-0.00,-0.01,31.75
52110192,1685,1,189646,230996,0.64,-0.21,9.96,-0.03,-0.00,-0.01,31.75
52150192,1664,1,189570,229625,0.63,-0.23,9.96,-0.04,-0.00,-0.01,31.75
52190192,1646,1,188282,226314,0.64,-0.23,9.97,-0.03,-0.00,-0.01,31.75
52230192,1649,1,187763,225761,0.65,-0.24,9.95,-0.04,-0.01,-0.01,31.75
52270192,1687,1,188002,226961,0.65,-0.23,9.98,-0.03,-0.01,-0.01,31.75
52310192,1707,1,188631,228473,0.64,-0.23,9.92,-0.03,-0.01,-0.01,31.75
52350192,1755,1,189241,229892,0.65,-0.24,9.97,-0.04,-0.01,-0.01,31.75
52390192,1779,1,189632,230476,0.66,-0.22,9.95,-0.03,-0.01,-0.01,31.75
52430192,1812,1,189649,230560,0.63,-0.24,9.97,-0.03,-0.01,-0.01,31.75
52470192,1843,1,189640,230555,0.64,-0.21,9.95,-0.03,-0.01,-0.01,31.75
52510192,1840,1,189625,230563,0.65,-0.23,9.98,-0.04,-0.01,-0.01,31.75
52550193,1851,1,189657,230643,0.66,-0.21,9.94,-0.03,-0.01,-0.01,31.75
52590192,1877,1,189656,230702,0.66,-0.22,9.95,-0.03,-0.01,-0.01,31.75
52630192,1867,1,189670,230714,0.65,-0.23,9.95,-0.03,-0.01,-0.01,31.75
52670192,1872,1,189498,228589,0.63,-0.22,9.96,-0.04,-0.01,-0.01,31.75
52710879,1766,1,188063,224814,0.64,-0.23,9.98,-0.03,-0.01,-0.01,31.77
52751192,1747,1,187153,223814,0.65,-0.23,9.97,-0.03,-0.02,-0.01,31.77
52791192,1758,1,187199,224625,0.66,-0.23,9.96,-0.03,-0.02,-0.01,31.77
52831192,1765,1,187600,225983,0.64,-0.24,9.95,-0.03,-0.02,-0.01,31.77
52871193,1780,1,188228,227469,0.66,-0.22,9.96,-0.03,-0.01,-0.01,31.77
52911192,1768,1,188553,227659,0.67,-0.23,9.97,-0.04,-0.00,-0.01,31.77
52951192,1753,1,188256,226336,0.65,-0.20,10.01,-0.03,-0.01,-0.01,31.77
52991193,1743,1,187668,225170,0.66,-0.20,9.96,-0.03,-0.01,-0.01,31.77
53030192,1863,1,187326,224970,0.64,-0.22,9.96,-0.03,-0.02,-0.01,31.77
53070192,1883,1,187527,226231,0.68,-0.22,9.96,-0.04,-0.00,-0.01,31.77
53110193,1915,1,188120,227650,0.63,-0.22,9.99,-0.04,-0.00,-0.01,31.77
53150192,1936,1,188459,228524,0.66,-0.22,9.97,-0.03,-0.01,-0.01,31.77
53190193,1990,1,188448,226460,0.65,-0.23,9.94,-0.03,-0.01,-0.01,31.77
53230192,2000,1,187257,224461,0.66,-0.23,9.97,-0.03,-0.01,-0.01,31.77
53270193,2064,1,186985,224657,0.66,-0.21,9.96,-0.03,-0.01,-0.01,31.77
53310193,2098,1,187294,225800,0.64,-0.23,9.96,-0.03,-0.01,-0.01,31.77
53350193,2139,1,187744,227157,0.64,-0.21,9.97,-0.03,-0.01,-0.01,31.77
53390192,2169,1,188240,228338,0.63,-0.23,9.98,-0.04,-0.00,-0.01,31.77
53430193,2178,1,188514,229084,0.63,-0.23,9.95,-0.03,-0.01,-0.01,31.77
53470192,2162,1,188679,229407,0.64,-0.24,9.95,-0.04,-0.00,-0.01,31.77
53510193,2156,1,188761,229544,0.63,-0.23,9.99,-0.03,-0.01,-0.01,31.77
53550192,2112,1,188806,229841,0.62,-0.23,9.93,-0.03,-0.01,-0.01,31.77
53590193,2082,1,188998,230498,0.66,-0.23,9.96,-0.03,-0.01,-0.01,31.77
53630192,2075,1,189181,230785,0.66,-0.21,9.96,-0.03,-0.01,-0.01,31.77
53670193,2064,1,189301,230951,0.65,-0.23,9.94,-0.03,-0.01,-0.01,31.77
53710879,2027,1,188876,227402,0.65,-0.20,9.95,-0.03,-0.01,-0.01,31.89
53751193,2061,1,187304,224668,0.67,-0.22,9.96,-0.03,-0.01,-0.01,31.89
53791192,2096,1,186873,224116,0.66,-0.22,9.95,-0.03,-0.01,-0.01,31.89
53831192,2096,1,186804,224326,0.67,-0.23,9.94,-0.03,-0.01,-0.01,31.89
53871192,2095,1,186920,224745,0.65,-0.23,9.97,-0.03,-0.01,-0.01,31.89
53911192,2098,1,187140,225449,0.65,-0.22,9.97,-0.03,-0.00,-0.01,31.89
53951192,2096,1,187340,225875,0.64,-0.22,10.01,-0.03,-0.01,-0.01,31.89
53991192,2063,1,187347,225837,0.65,-0.23,9.95,-0.03,-0.01,-0.01,31.89
54031192,2047,1,187291,225809,0.64,-0.22,9.96,-0.03,-0.01,-0.01,31.89
54071193,2032,1,187427,226201,0.67,-0.24,9.97,-0.03,-0.01,-0.01,31.89
54111192,2010,1,187696,227262,0.63,-0.23,9.96,-0.03,-0.01,-0.00,31.89
54151192,2001,1,188209,228578,0.64,-0.22,9.94,-0.03,-0.01,-0.01,31.89
54191192,1983,1,188593,229533,0.66,-0.24,9.95,-0.03,-0.01,-0.01,31.89
54231192,1967,1,188490,226943,0.66,-0.23,9.95,-0.04,-0.00,-0.01,31.89
54271193,1935,1,187121,224878,0.65,-0.22,9.99,-0.04,-0.01,-0.00,31.89
54311193,1936,1,186974,225477,0.64,-0.22,9.97,-0.04,-0.01,-0.00,31.89
54351192,1930,1,187473,226963,0.64,-0.22,9.93,-0.03,-0.01,-0.01,31.89
54391193,1915,1,188003,228211,0.66,-0.24,9.98,-0.04,-0.01,-0.01,31.89
54431192,1906,1,188358,229355,0.66,-0.21,9.95,-0.04,-0.01,-0.01,31.89
54471193,1907,1,188658,229992,0.64,-0.22,9.99,-0.03,-0.01,-0.01,31.89
54511192,1907,1,188814,230359,0.65,-0.20,9.97,-0.03,-0.01,-0.01,31.89
54551193,1936,1,188941,230670,0.64,-0.23,9.99,-0.04,-0.00,-0.01,31.89
54591192,1952,1,189117,231072,0.63,-0.21,9.97,-0.04,-0.00,-0.01,31.89
54631193,2023,1,189242,231102,0.61,-0.23,10.00,-0.04,-0.00,-0.01,31.89
54671196,2089,1,189220,230888,0.61,-0.23,9.98,-0.03,-0.01,-0.00,31.89
54711879,2178,1,188992,230309,0.64,-0.23,9.96,-0.03,-0.01,-0.01,31.89
54750192,2128,1,188562,227740,0.64,-0.23,9.97,-0.03,-0.00,-0.01,31.89
54790193,2085,1,187102,224971,0.64,-0.23,9.96,-0.04,-0.01,-0.01,31.89
54830192,2000,1,186828,224785,0.62,-0.23,9.97,-0.03,-0.01,-0.00,31.89
54870233,1946,1,186967,225220,0.64,-0.24,9.97,-0.03,-0.01,-0.01,31.89
54910192,1888,1,187170,225981,0.63,-0.24,9.98,-0.03,-0.01,-0.01,31.89
54950193,1852,1,187710,228173,0.65,-0.22,9.94,-0.03,-0.02,-0.01,31.89
54990192,1811,1,188438,229000,0.64,-0.21,9.96,-0.04,-0.01,-0.00,31.89
55030193,1775,1,188277,228205,0.66,-0.24,9.95,-0.04,0.00,-0.01,31.89
55070172,1762,1,187908,227716,0.64,-0.23,9.99,-0.03,-0.01,-0.01,31.89
55110193,1748,1,187964,228281,0.62,-0.22,9.97,-0.03,-0.01,-0.01,31.89
55150192,1760,1,188164,228509,0.64,-0.23,9.97,-0.03,-0.01,-0.01,31.89
55190193,1792,1,188182,228787,0.64,-0.24,9.97,-0.03,-0.01,-0.01,31.89
55230192,1797,1,188396,229473,0.66,-0.22,9.98,-0.04,-0.01,-0.01,31.89
55270193,1786,1,188493,227802,0.64,-0.23,9.95,-0.03,-0.01,-0.01,31.89
55310192,1788,1,187490,225952,0.65,-0.21,9.96,-0.03,-0.01,-0.00,31.89
55350192,1778,1,187369,226154,0.64,-0.23,9.96,-0.03,-0.01,-0.01,31.89
55390192,1775,1,187643,227278,0.66,-0.23,9.95,-0.03,-0.01,-0.01,31.89
55430193,1774,1,188142,228694,0.65,-0.22,9.98,-0.03,-0.01,-0.01,31.89
55470192,1775,1,188670,229776,0.66,-0.21,9.95,-0.03,-0.01,-0.01,31.89
55510193,1779,1,188826,229762,0.65,-0.22,9.96,-0.03,-0.01,-0.01,31.89
55550192,1814,1,188670,229302,0.63,-0.23,9.97,-0.03,-0.01,-0.01,31.89
55590192,1840,1,188482,228906,0.65,-0.22,9.98,-0.03,-0.01,-0.01,31.89
55630192,1857,1,188505,229271,0.66,-0.23,9.98,-0.03,-0.01,-0.01,31.89
55670192,1872,1,188687,229964,0.66,-0.22,9.95,-0.03,-0.01,-0.01,31.89
55710192,1858,1,188948,230727,0.66,-0.22,9.96,-0.03,-0.01,-0.01,31.89
55750880,1837,1,189203,231241,0.66,-0.23,10.00,-0.03,-0.01,-0.01,31.81
55791193,1825,1,188984,228887,0.65,-0.23,9.96,-0.03,-0.01,-0.01,31.81
55831192,1840,1,187773,226569,0.65,-0.23,9.96,-0.03,-0.01,-0.01,31.81
55871193,1825,1,187559,226663,0.64,-0.19,9.96,-0.04,-0.01,-0.01,31.81
55911192,1863,1,187646,226808,0.63,-0.23,9.96,-0.03,-0.01,-0.00,31.81
55951192,1887,1,187704,226906,0.64,-0.21,9.97,-0.03,-0.01,-0.01,31.81
55991192,1931,1,187647,226646,0.65,-0.22,9.96,-0.03,-0.01,-0.01,31.81
56031192,1927,1,187429,226167,0.64,-0.22,9.92,-0.03,-0.01,-0.00,31.81
56071192,1897,1,187236,226189,0.67,-0.20,9.98,-0.03,-0.00,-0.01,31.81
56110192,1904,1,187273,226511,0.65,-0.22,9.94,-0.03,-0.00,-0.00,31.81
56150192,1867,1,187415,227131,0.64,-0.22,9.96,-0.03,-0.01,-0.01,31.81
56190192,1840,1,187669,227799,0.65,-0.23,9.96,-0.03,-0.01,-0.00,31.81
56230192,1842,1,187930,228678,0.65,-0.22,9.96,-0.03,-0.01,-0.01,31.81
56270192,1874,1,188429,229857,0.65,-0.20,9.96,-0.03,-0.01,-0.01,31.81
56310230,1900,1,188376,227746,0.64,-0.22,9.96,-0.03,-0.01,-0.00,31.81
56350192,1865,1,187518,227023,0.62,-0.24,9.96,-0.03,-0.01,-0.01,31.81
56390193,1834,1,187842,228560,0.63,-0.22,9.96,-0.03,-0.01,-0.01,31.81
56430192,1789,1,188488,230051,0.64,-0.22,9.97,-0.03,-0.01,-0.01,31.81
56470192,1762,1,188981,231344,0.65,-0.23,9.96,-0.03,-0.01,-0.01,31.81
56510229,1729,1,189441,232371,0.66,-0.23,9.96,-0.03,-0.01,-0.01,31.81
56550192,1712,1,189688,232720,0.66,-0.22,9.95,-0.03,-0.01,-0.01,31.81
56590192,1728,1,189755,232676,0.65,-0.23,9.94,-0.03,-0.01,-0.01,31.81
56630192,1785,1,189678,232246,0.64,-0.20,9.92,-0.03,-0.00,-0.01,31.81
56670192,1837,1,189470,231743,0.65,-0.22,9.94,-0.03,-0.01,-0.01,31.81
56710216,1863,1,189196,231233,0.65,-0.22,9.98,-0.03,-0.01,-0.01,31.81
56750879,1780,1,189067,230984,0.65,-0.22,9.94,-0.03,-0.01,-0.01,31.95
56791193,1776,1,188892,230207,0.66,-0.22,9.96,-0.03,-0.01,-0.01,31.95
56831193,1728,1,187967,226581,0.65,-0.21,9.94,-0.03,-0.01,-0.01,31.95
56871192,1666,1,186891,224980,0.66,-0.24,9.95,-0.03,-0.01,-0.00,31.95
56911193,1662,1,186545,224555,0.63,-0.20,9.98,-0.03,-0.01,-0.01,31.95
56951192,1691,1,186547,224632,0.64,-0.22,9.98,-0.03,-0.01,-0.01,31.95
56991192,1712,1,186631,225111,0.64,-0.23,9.98,-0.03,-0.01,-0.01,31.95
57031193,1759,1,186920,225678,0.63,-0.21,9.98,-0.03,-0.01,-0.01,31.95
57071192,1795,1,186971,225682,0.64,-0.22,9.97,-0.03,-0.01,-0.01,31.95
57111193,1809,1,186979,225498,0.64,-0.21,9.96,-0.03,-0.01,-0.01,31.95
57150192,1966,1,186809,225414,0.66,-0.20,9.98,-0.03,-0.01,-0.01,31.95
57190192,1968,1,186753,225314,0.65,-0.24,9.91,-0.03,-0.01,-0.01,31.95
57230192,1941,1,186663,225312,0.65,-0.21,9.97,-0.03,-0.01,-0.01,31.95
57270192,1951,1,186661,225291,0.64,-0.21,9.94,-0.04,-0.01,-0.01,31.95
57310192,1942,1,186712,225206,0.67,-0.23,9.93,-0.03,-0.00,-0.01,31.95
57350192,1941,1,186211,223087,0.65,-0.23,9.94,-0.04,-0.00,-0.00,31.95
57390192,1943,1,185555,222117,0.66,-0.22,9.96,-0.03,-0.01,-0.00,31.95
57430193,1946,1,185515,222380,0.66,-0.23,9.96,-0.04,-0.01,-0.01,31.95
57470192,1973,1,185664,222768,0.63,-0.23,9.98,-0.03,-0.01,-0.01,31.95
57510193,2006,1,185800,222856,0.64,-0.22,10.00,-0.03,-0.02,-0.01,31.95
57550192,2037,1,185941,222904,0.65,-0.23,9.99,-0.03,-0.02,-0.01,31.95
57590192,2068,1,186013,222943,0.66,-0.23,9.94,-0.03,-0.01,-0.01,31.95
57630192,2100,1,186053,223252,0.64,-0.21,9.97,-0.03,-0.00,-0.01,31.95
57670193,2097,1,186189,223763,0.65,-0.21,10.00,-0.03,-0.01,-0.01,31.95
57710192,2045,1,186453,224443,0.64,-0.20,9.96,-0.03,-0.01,-0.00,31.95
57750192,2032,1,186608,225051,0.66,-0.23,9.98,-0.04,-0.01,-0.01,31.95
57790879,1904,1,186978,226033,0.65,-0.23,9.96,-0.04,-0.01,-0.00,31.77
57831192,1920,1,187212,225230,0.63,-0.23,9.96,-0.03,-0.01,-0.00,31.77
57871192,1927,1,186690,223965,0.66,-0.23,9.95,-0.03,-0.01,-0.00,31.77
57911193,1936,1,186598,224177,0.64,-0.21,9.94,-0.03,-0.01,-0.01,31.77
57951192,1957,1,186862,225132,0.66,-0.21,9.96,-0.04,-0.01,-0.01,31.77
57991192,1941,1,187236,226164,0.65,-0.21,9.98,-0.03,-0.01,-0.01,31.77
58031192,1943,1,187516,226948,0.65,-0.22,9.93,-0.03,-0.01,-0.01,31.77
58071193,1943,1,187592,226912,0.66,-0.23,9.94,-0.03,-0.01,-0.01,31.77
58111192,1941,1,187381,226583,0.65,-0.22,9.96,-0.04,-0.01,-0.01,31.77
58151229,1959,1,187216,226499,0.66,-0.21,9.95,-0.03,-0.01,-0.01,31.77
58191193,1975,1,187238,226875,0.66,-0.22,9.96,-0.03,-0.01,-0.01,31.77
58231192,2001,1,187413,227413,0.64,-0.21,9.95,-0.03,-0.01,-0.01,31.77
58271193,2037,1,187601,227972,0.65,-0.21,9.97,-0.03,-0.01,-0.01,31.77
58311193,2078,1,187825,227941,0.64,-0.22,9.96,-0.03,-0.01,-0.01,31.77
58351231,2098,1,187158,224936,0.65,-0.22,9.95,-0.03,-0.01,-0.01,31.77
58391193,2097,1,186383,224004,0.65,-0.24,9.97,-0.03,-0.01,-0.01,31.77
58431193,2095,1,186344,224533,0.67,-0.24,9.97,-0.04,-0.01,-0.01,31.77
58471192,2079,1,186652,225436,0.65,-0.23,9.94,-0.04,-0.01,-0.01,31.77
58511192,2073,1,186913,226569,0.64,-0.23,9.96,-0.04,-0.01,-0.01,31.77
58551192,2047,1,187277,227275,0.66,-0.22,9.94,-0.03,-0.01,-0.01,31.77
58591192,2021,1,187399,227324,0.65,-0.22,9.96,-0.04,-0.01,-0.00,31.77
58631193,2012,1,187273,227299,0.65,-0.23,9.97,-0.03,-0.01,-0.01,31.77
58671193,2001,1,187371,227735,0.63,-0.23,9.98,-0.04,-0.01,-0.01,31.77
58711193,2032,1,187574,228264,0.64,-0.23,9.95,-0.03,-0.01,-0.01,31.77
58751192,2020,1,187697,228590,0.65,-0.22,9.93,-0.03,-0.01,-0.01,31.77
58791879,2099,1,187680,228821,0.64,-0.23,9.96,-0.03,-0.01,-0.01,31.81
58832193,2155,1,187675,227237,0.65,-0.23,9.98,-0.03,-0.01,-0.00,31.81
58872193,2152,1,186424,224544,0.65,-0.23,9.95,-0.03,-0.01,-0.01,31.81
58912193,2194,1,185900,224014,0.65,-0.23,9.97,-0.03,-0.01,-0.01,31.81
58952192,2202,1,185890,224283,0.66,-0.22,9.98,-0.03,-0.00,-0.00,31.81
58992190,2209,1,185973,224746,0.63,-0.21,9.97,-0.03,-0.00,-0.01,31.81
59032193,2211,1,186151,225254,0.65,-0.22,9.99,-0.03,-0.01,-0.01,31.81
59072193,2179,1,186295,225533,0.65,-0.22,9.96,-0.03,-0.01,-0.01,31.81
59112193,2113,1,186241,225493,0.66,-0.21,9.96,-0.03,-0.01,-0.01,31.81
59152193,2084,1,186300,226157,0.65,-0.21,9.93,-0.03,-0.01,-0.00,31.81
59192193,2033,1,186729,227345,0.66,-0.23,9.96,-0.04,-0.01,-0.01,31.81
59232193,1981,1,186922,227575,0.64,-0.23,9.95,-0.03,-0.01,-0.01,31.81
59272193,1962,1,186903,227521,0.64,-0.24,9.94,-0.03,-0.01,-0.01,31.81
59312193,1938,1,186858,227589,0.65,-0.22,9.95,-0.03,-0.01,-0.01,31.81
59352193,1934,1,186731,226230,0.67,-0.24,9.97,-0.03,-0.01,-0.01,31.81
59392193,1893,1,185983,224608,0.66,-0.22,9.96,-0.03,-0.01,-0.01,31.81
59432193,1897,1,185747,224550,0.66,-0.23,9.98,-0.04,-0.01,-0.01,31.81
59472193,1883,1,185890,225176,0.64,-0.23,9.96,-0.03,-0.00,-0.00,31.81
59512193,1870,1,186040,225611,0.62,-0.23,9.96,-0.03,-0.01,-0.01,31.81
59552193,1840,1,186288,226252,0.64,-0.22,9.98,-0.03,-0.01,-0.00,31.81
59592193,1820,1,186444,226599,0.63,-0.22,9.98,-0.03,-0.01,-0.01,31.81
59632192,1785,1,186587,226940,0.63,-0.23,9.95,-0.03,-0.01,-0.01,31.81
59672193,1751,1,186773,227497,0.65,-0.23,9.98,-0.03,-0.01,-0.01,31.81
59712192,1702,1,187103,228455,0.65,-0.22,9.97,-0.03,-0.01,-0.01,31.81
59752193,1616,1,187535,229541,0.65,-0.23,9.95,-0.03,-0.01,-0.01,31.81
59792892,1589,1,188066,230506,0.67,-0.23,9.97,-0.03,-0.01,-0.01,31.81
59831193,1522,1,188494,231391,0.66,-0.21,9.96,-0.03,-0.01,-0.01,31.81
59871192,1558,1,188663,230503,0.67,-0.22,9.97,-0.03,-0.01,-0.01,31.81
59911193,1599,1,187505,226953,0.66,-0.22,9.94,-0.04,0.00,-0.01,31.81
59951172,1614,1,186408,225540,0.65,-0.24,9.97,-0.04,0.00,-0.01,31.81
59991196,1645,1,186303,225778,0.64,-0.22,9.96,-0.04,-0.00,-0.01,31.81
60031193,1635,1,186423,225983,0.63,-0.21,9.98,-0.03,-0.01,-0.01,31.81
60071193,1679,1,186601,226569,0.63,-0.23,9.95,-0.03,-0.01,-0.01,31.81
60111193,1744,1,186714,226853,0.63,-0.23,9.96,-0.03,-0.01,-0.01,31.81
60151247,1808,1,186816,226960,0.64,-0.22,9.96,-0.03,-0.01,-0.01,31.81
60191205,1825,1,186866,227312,0.64,-0.23,9.96,-0.03,-0.01,-0.01,31.81
60231193,1853,1,187033,227929,0.64,-0.22,9.99,-0.03,-0.01,-0.01,31.81
60271192,1903,1,187294,228664,0.64,-0.23,9.96,-0.03,-0.01,-0.01,31.81
60311193,1897,1,187607,229431,0.64,-0.24,9.96,-0.03,-0.01,-0.01,31.81
60351192,1872,1,187863,229913,0.63,-0.22,9.96,-0.03,-0.01,-0.01,31.81
60391193,1853,1,187882,229661,0.63,-0.20,9.95,-0.03,-0.01,-0.01,31.81
60431192,1818,1,187206,226203,0.64,-0.22,9.96,-0.04,-0.01,-0.01,31.81
60471193,1839,1,186014,224321,0.64,-0.23,9.98,-0.03,-0.01,-0.01,31.81
60511192,1840,1,185674,223830,0.65,-0.23,9.95,-0.03,-0.01,-0.01,31.81
60551193,1853,1,185703,224021,0.64,-0.21,9.92,-0.03,-0.01,-0.01,31.81
60591192,1883,1,185868,224660,0.65,-0.23,9.96,-0.03,-0.01,-0.00,31.81
60631192,1907,1,186074,225264,0.67,-0.24,9.99,-0.03,-0.01,-0.01,31.81
60671193,1921,1,186187,225446,0.65,-0.22,9.97,-0.03,-0.01,-0.01,31.81
60711192,1920,1,186248,225495,0.63,-0.21,9.96,-0.04,-0.01,-0.01,31.81
60751192,1910,1,186397,225956,0.63,-0.23,9.97,-0.03,-0.01,-0.01,31.81
60791193,1899,1,186744,226870,0.64,-0.22,9.96,-0.03,-0.01,-0.01,31.81
60831879,1827,1,187099,228168,0.65,-0.24,9.96,-0.03,-0.01,-0.01,31.81
60872193,1825,1,187616,229348,0.64,-0.23,9.96,-0.03,-0.01,-0.00,31.81
60912193,1809,1,188022,230320,0.65,-0.23,9.95,-0.04,-0.01,-0.01,31.81
60952192,1783,1,188288,229914,0.65,-0.23,9.95,-0.03,-0.01,-0.01,31.81
60992193,1755,1,187132,226095,0.65,-0.21,9.95,-0.04,0.00,-0.01,31.81
61032172,1703,1,186288,225483,0.64,-0.23,9.98,-0.04,-0.00,-0.01,31.81
61072193,1653,1,186475,226398,0.65,-0.23,9.95,-0.03,-0.01,-0.01,31.81
61112192,1616,1,186950,227911,0.64,-0.23,9.96,-0.03,-0.00,-0.01,31.81
61152193,1597,1,187324,229140,0.65,-0.23,9.98,-0.04,-0.00,-0.01,31.81
61192193,1577,1,187767,230304,0.63,-0.23,9.96,-0.03,-0.00,-0.01,31.81
61232193,1573,1,188195,231109,0.65,-0.23,10.02,-0.03,-0.01,-0.00,31.81
61272193,1600,1,188487,231601,0.65,-0.23,9.97,-0.04,-0.01,-0.01,31.81
61312192,1611,1,188726,232194,0.65,-0.22,9.97,-0.03,-0.01,-0.01,31.81
61352193,1654,1,188976,232764,0.66,-0.22,9.98,-0.03,-0.01,-0.01,31.81
61392193,1678,1,189235,233243,0.63,-0.23,9.97,-0.03,-0.01,-0.00,31.81
61432192,1729,1,189431,233534,0.63,-0.21,9.98,-0.03,-0.01,-0.01,31.81
61472192,1790,1,189462,233575,0.65,-0.23,9.99,-0.03,-0.01,-0.01,31.81
61512193,1834,1,189392,231955,0.66,-0.22,9.95,-0.03,-0.02,-0.01,31.81
61552193,1906,1,188075,227585,0.64,-0.20,9.96,-0.03,-0.03,-0.01,31.81
61592193,1994,1,187120,226788,0.68,-0.21,9.91,-0.03,-0.00,-0.01,31.81
61632197,2036,1,187127,227613,0.65,-0.22,9.98,-0.04,0.00,-0.01,31.81
61672172,2106,1,187515,228480,0.64,-0.21,10.00,-0.03,-0.02,-0.01,31.81
