timestamp_us,ecg,leads,ir,red,accX,accY,accZ,gyroX,gyroY,gyroZ,temp
1917482,590,1,210123,243500,0.00,0.00,0.00,0.00,0.00,0.00,0.00
1947948,699,1,210301,243502,1.03,-0.17,9.67,-0.03,-0.01,-0.00,33.17
1988194,703,1,210361,244261,1.06,-0.17,9.93,-0.03,-0.01,-0.01,33.17
2028188,1111,1,210585,243696,1.06,-0.21,9.93,-0.03,-0.01,-0.00,33.17
2068182,1623,1,210197,242460,1.06,-0.18,9.94,-0.03,-0.01,-0.01,33.17
2108182,1951,1,209949,242390,1.07,-0.20,9.91,-0.03,-0.01,-0.00,33.17
2148182,2096,1,210031,242805,1.07,-0.18,9.93,-0.03,-0.01,-0.01,33.17
2188182,2213,1,210145,242965,1.09,-0.18,9.94,-0.03,-0.01,-0.00,33.17
2228191,2243,1,210235,242995,1.07,-0.19,9.94,-0.03,-0.01,-0.00,33.17
2268182,2291,1,210334,243149,1.06,-0.18,9.94,-0.03,-0.01,-0.01,33.17
2308183,2287,1,210450,243421,1.07,-0.19,9.95,-0.03,-0.01,-0.00,33.17
2348182,2251,1,210540,243556,1.07,-0.20,9.93,-0.03,-0.01,-0.01,33.17
2388182,2262,1,210532,243717,1.06,-0.20,9.93,-0.03,-0.01,-0.00,33.17
2428181,2254,1,210564,243814,1.06,-0.18,9.97,-0.03,-0.01,-0.00,33.17
2468182,2224,1,210553,243786,1.06,-0.22,9.94,-0.03,-0.01,-0.00,33.17
2508207,2215,1,210513,243520,1.07,-0.19,9.93,-0.03,-0.01,-0.00,33.17
2548182,2215,1,210358,243300,1.07,-0.20,9.94,-0.03,-0.01,-0.00,33.17
2588181,2169,1,210300,243542,1.04,-0.19,9.93,-0.03,-0.01,-0.01,33.17
2628182,2172,1,210312,243632,1.07,-0.18,9.94,-0.03,-0.01,-0.00,33.17
2668182,2099,1,210158,243440,1.03,-0.17,9.93,-0.03,-0.01,-0.00,33.17
2708183,2077,1,209922,242159,1.07,-0.20,9.96,-0.03,-0.01,-0.00,33.17
2748182,2032,1,209306,240857,1.06,-0.20,9.95,-0.03,-0.01,-0.00,33.17
2788182,2014,1,209016,240540,1.04,-0.19,9.95,-0.03,-0.01,-0.00,33.17
2828182,1968,1,208953,240570,1.08,-0.20,9.94,-0.03,-0.01,-0.00,33.17
2868182,1964,1,208877,240762,1.07,-0.19,9.94,-0.03,-0.01,-0.01,33.17
2908182,1913,1,208811,241073,1.05,-0.20,9.95,-0.03,-0.01,-0.01,33.17
2948182,1935,1,208649,241189,1.07,-0.20,9.92,-0.03,-0.01,-0.00,33.17
2988868,1869,1,208591,241222,1.07,-0.17,9.94,-0.03,-0.01,-0.00,33.27
3027242,1920,1,208579,241162,1.05,-0.19,9.94,-0.03,-0.01,-0.00,33.27
3067182,1953,1,208785,241024,1.06,-0.19,9.93,-0.03,-0.01,-0.00,33.27
3107182,1953,1,208889,240840,1.06,-0.19,9.94,-0.03,-0.01,-0.01,33.27
3147182,1936,1,208970,240605,1.08,-0.20,9.96,-0.03,-0.01,-0.00,33.27
3187182,1952,1,209043,240672,1.07,-0.19,9.93,-0.03,-0.01,-0.00,33.27
3227182,1933,1,209257,241175,1.07,-0.20,9.95,-0.03,-0.01,-0.01,33.27
3267182,1941,1,209480,241350,1.07,-0.19,9.94,-0.03,-0.01,-0.00,33.27
3307182,1945,1,209623,241306,1.06,-0.18,9.94,-0.03,-0.01,-0.00,33.27
3347182,1966,1,209560,241135,1.07,-0.20,9.94,-0.03,-0.01,-0.00,33.27
3387181,1925,1,209378,240039,1.08,-0.19,9.93,-0.03,-0.01,-0.01,33.27
3427210,1920,1,208673,237472,1.05,-0.21,9.96,-0.03,-0.01,-0.00,33.27
3467182,1895,1,207876,234582,1.05,-0.20,9.96,-0.03,-0.01,-0.00,33.27
3507182,1879,1,206457,231171,1.06,-0.18,9.95,-0.03,-0.01,-0.00,33.27
3547182,1901,1,204857,225997,1.06,-0.18,9.96,-0.03,-0.01,-0.00,33.27
3587182,1872,1,202134,220836,1.05,-0.19,9.96,-0.03,-0.00,-0.00,33.27
3627181,1817,1,200454,219314,1.05,-0.18,9.94,-0.03,-0.01,-0.01,33.27
3667183,1866,1,200532,222375,1.05,-0.20,9.95,-0.03,-0.01,-0.00,33.27
3707182,1887,1,202616,229331,1.04,-0.20,9.95,-0.03,-0.02,-0.01,33.27
3747182,1937,1,205043,234461,1.08,-0.22,9.91,-0.04,-0.02,-0.00,33.27
3787182,1945,1,206561,237462,1.06,-0.18,9.92,-0.04,-0.01,-0.00,33.27
3827182,2130,1,207201,238910,1.06,-0.19,9.96,-0.03,-0.01,-0.00,33.27
3867182,2074,1,207194,238725,1.06,-0.18,9.96,-0.03,-0.01,-0.01,33.27
3907183,2079,1,207213,238723,1.03,-0.21,9.97,-0.03,-0.01,-0.00,33.27
3947182,2005,1,207566,239375,1.07,-0.20,9.95,-0.03,-0.01,-0.01,33.27
3987182,1968,1,207801,239910,1.07,-0.19,9.95,-0.03,-0.01,-0.00,33.27
4028012,1955,1,207850,240406,1.05,-0.18,9.94,-0.03,-0.01,-0.01,33.35
4066183,2014,1,207498,240081,1.05,-0.19,9.94,-0.04,-0.02,-0.01,33.35
4106188,2116,1,206762,240323,1.07,-0.18,9.96,-0.04,-0.02,-0.01,33.35
4146196,2080,1,206429,241332,1.09,-0.20,9.96,-0.05,-0.04,-0.01,33.35
4186182,2081,1,206654,242289,1.09,-0.21,9.94,-0.04,-0.03,-0.01,33.35
4226183,2096,1,206929,242593,1.07,-0.19,9.97,-0.03,-0.02,-0.01,33.35
4266182,2073,1,207172,242775,1.13,-0.23,9.95,-0.03,-0.02,-0.01,33.35
4306183,2035,1,207484,242915,1.10,-0.20,9.94,-0.03,-0.01,-0.00,33.35
4346182,1999,1,207549,242815,1.10,-0.21,9.93,-0.03,-0.01,-0.00,33.35
4386183,1979,1,207443,242743,1.09,-0.22,9.94,-0.03,-0.01,-0.00,33.35
4426182,1920,1,207484,242697,1.09,-0.21,9.92,-0.03,-0.01,-0.00,33.35
4466183,1904,1,207605,242775,1.09,-0.20,9.94,-0.03,-0.01,-0.00,33.35
4506182,1876,1,207557,242839,1.10,-0.20,9.95,-0.03,-0.01,-0.00,33.35
4546182,1893,1,207455,242904,1.09,-0.20,9.93,-0.03,-0.01,-0.01,33.35
4586182,1856,1,207425,242910,1.11,-0.19,9.94,-0.04,-0.01,-0.00,33.35
4626183,1879,1,207520,242850,1.09,-0.20,9.94,-0.03,-0.01,-0.00,33.35
4666182,1866,1,207623,242678,1.10,-0.22,9.92,-0.03,-0.01,-0.00,33.35
4706183,1815,1,207564,241520,1.10,-0.19,9.96,-0.03,-0.01,-0.00,33.35
4746182,1872,1,207567,240776,1.10,-0.19,9.93,-0.03,-0.01,-0.00,33.35
4786182,1830,1,207506,240619,1.10,-0.18,9.94,-0.03,-0.01,-0.00,33.35
4826181,1808,1,207270,240700,1.08,-0.21,9.95,-0.03,-0.00,-0.00,33.35
4866228,1827,1,206860,240331,1.10,-0.20,9.95,-0.03,-0.00,-0.00,33.35
4906181,1849,1,206306,239654,1.08,-0.19,9.96,-0.03,-0.00,-0.01,33.35
4946182,1856,1,205800,238973,1.08,-0.19,9.95,-0.03,-0.01,-0.01,33.35
4986182,1891,1,205694,239110,1.07,-0.20,9.95,-0.03,-0.02,-0.00,33.35
5026204,1904,1,205856,239280,1.08,-0.19,9.95,-0.03,-0.01,-0.00,33.35
5066914,1907,1,205907,239513,1.06,-0.21,9.98,-0.03,-0.01,-0.00,33.55
5105183,1971,1,206095,239973,1.10,-0.20,9.93,-0.03,-0.01,-0.00,33.55
5145182,1958,1,206298,240452,1.08,-0.20,9.96,-0.03,-0.01,-0.00,33.55
5185182,1936,1,206475,240809,1.08,-0.22,9.94,-0.03,-0.01,-0.00,33.55
5225182,1931,1,206514,241369,1.08,-0.20,9.93,-0.03,-0.01,-0.01,33.55
5265183,1920,1,206622,241669,1.08,-0.19,9.96,-0.03,-0.01,-0.00,33.55
5305182,1945,1,206379,240640,1.08,-0.23,9.95,-0.03,-0.01,-0.00,33.55
5345182,1920,1,205927,239451,1.08,-0.19,9.93,-0.03,-0.01,-0.00,33.55
5385182,1937,1,205724,239279,1.09,-0.20,9.92,-0.03,-0.01,-0.00,33.55
5425182,1934,1,205708,239366,1.09,-0.19,9.95,-0.03,-0.01,-0.00,33.55
5465182,1947,1,205643,239595,1.10,-0.21,9.95,-0.03,-0.01,-0.00,33.55
5505219,1906,1,205670,239951,1.07,-0.22,9.93,-0.03,-0.01,-0.00,33.55
5545182,1942,1,205721,240332,1.09,-0.21,9.93,-0.03,-0.01,-0.00,33.55
5585183,1937,1,205756,240617,1.09,-0.21,9.93,-0.03,-0.01,-0.00,33.55
5625182,1961,1,205759,240824,1.09,-0.21,9.95,-0.03,-0.01,-0.00,33.55
5665183,1968,1,205800,241370,1.08,-0.22,9.94,-0.04,-0.02,-0.01,33.55
5706181,1938,1,205950,242547,1.08,-0.19,9.94,-0.04,-0.02,-0.01,33.55
5746183,1957,1,206413,243856,1.11,-0.20,9.96,-0.04,-0.02,-0.00,33.55
5786182,1983,1,206700,244625,1.10,-0.20,9.92,-0.03,-0.01,-0.01,33.55
5826183,1935,1,206972,245385,1.09,-0.22,9.92,-0.03,-0.01,-0.01,33.55
5866182,1979,1,207124,245803,1.11,-0.20,9.94,-0.03,-0.02,-0.00,33.55
5906183,1947,1,207263,246155,1.11,-0.21,9.96,-0.04,-0.01,-0.01,33.55
5946182,1936,1,207016,244504,1.12,-0.20,9.94,-0.04,-0.01,-0.01,33.55
5986183,1936,1,206766,244263,1.11,-0.20,9.95,-0.04,-0.02,-0.01,33.55
6026193,1970,1,206947,245052,1.11,-0.22,9.92,-0.04,-0.02,-0.01,33.55
6066183,1946,1,207368,245428,1.11,-0.21,9.93,-0.04,-0.02,-0.01,33.55
6106868,1943,1,207578,245853,1.13,-0.22,9.94,-0.04,-0.02,-0.00,33.69
6145184,2006,1,207717,245969,1.12,-0.19,9.95,-0.03,-0.01,-0.00,33.69
6185183,1975,1,207661,245810,1.13,-0.23,9.95,-0.03,-0.01,-0.00,33.69
6225184,1968,1,207554,245779,1.12,-0.21,9.95,-0.03,-0.02,-0.00,33.69
6265183,1968,1,207572,245926,1.15,-0.20,9.95,-0.03,-0.01,-0.01,33.69
6305183,1946,1,207508,245986,1.12,-0.23,9.92,-0.03,-0.01,-0.01,33.69
6345182,1943,1,207542,246397,1.12,-0.21,9.94,-0.03,-0.01,-0.00,33.69
6385184,1903,1,207654,246739,1.13,-0.19,9.93,-0.03,-0.01,-0.00,33.69
6425182,1907,1,207713,246928,1.07,-0.20,10.01,-0.03,-0.02,-0.00,33.69
6465182,1900,1,207794,246977,1.12,-0.22,9.95,-0.03,-0.01,-0.01,33.69
6505226,1907,1,207737,246931,1.12,-0.19,9.92,-0.03,-0.01,-0.00,33.69
6545183,1907,1,207616,245469,1.10,-0.21,9.94,-0.03,-0.01,-0.00,33.69
6585182,1896,1,206677,243147,1.12,-0.22,9.97,-0.03,-0.01,-0.00,33.69
6625183,1895,1,206243,242570,1.14,-0.22,9.96,-0.03,-0.01,-0.00,33.69
6665182,1899,1,206143,242455,1.13,-0.21,9.93,-0.03,-0.01,-0.00,33.69
6705201,1853,1,206150,242563,1.12,-0.21,9.96,-0.03,-0.02,-0.00,33.69
6745182,1828,1,206285,242784,1.14,-0.21,9.91,-0.03,-0.01,-0.00,33.69
6785184,1798,1,206286,242690,1.14,-0.22,9.93,-0.03,-0.01,-0.00,33.69
6825183,1747,1,206287,242559,1.13,-0.20,9.93,-0.03,-0.00,-0.00,33.69
6865184,1437,1,206278,242715,1.13,-0.23,9.94,-0.03,-0.01,-0.01,33.69
6905183,1151,1,206315,243023,1.14,-0.23,9.94,-0.03,-0.00,-0.00,33.69
6945183,1023,1,206374,243231,1.10,-0.22,9.93,-0.03,-0.01,-0.00,33.69
6985183,1057,1,206398,243470,1.11,-0.22,9.94,-0.03,-0.01,-0.00,33.69
7025208,1185,1,206453,243507,1.11,-0.22,9.93,-0.03,-0.01,-0.01,33.69
7065182,1231,1,206469,243635,1.13,-0.20,9.93,-0.03,-0.01,-0.00,33.69
7105183,1268,1,206581,243752,1.13,-0.23,9.94,-0.03,-0.01,-0.00,33.69
7145868,1159,1,206666,244042,1.12,-0.22,9.91,-0.03,-0.01,-0.00,32.31
7184183,1019,1,206499,242833,1.13,-0.21,9.94,-0.03,-0.01,-0.01,32.31
7224182,823,1,205871,241662,1.11,-0.22,9.93,-0.03,-0.01,-0.00,32.31
7264183,800,1,205651,241496,1.11,-0.22,9.94,-0.03,-0.00,-0.00,32.31
7304182,942,1,205542,241416,1.13,-0.21,9.95,-0.03,-0.01,-0.00,32.31
7344183,1253,1,205619,241563,1.12,-0.20,9.92,-0.03,-0.01,-0.00,32.31
7384182,1490,1,205624,241823,1.12,-0.23,9.93,-0.03,-0.01,-0.00,32.31
7424183,1754,1,205551,241597,1.12,-0.21,9.95,-0.03,-0.01,-0.00,32.31
7464182,1872,1,205507,241454,1.12,-0.21,9.94,-0.03,-0.01,-0.00,32.31
7504183,2005,1,205337,241163,1.11,-0.19,9.93,-0.03,-0.00,-0.00,32.31
7544182,2091,1,205292,241071,1.13,-0.20,9.96,-0.03,-0.01,-0.01,32.31
7584184,2146,1,205347,241378,1.11,-0.18,9.94,-0.03,-0.01,-0.00,32.31
7624182,2170,1,205308,241746,1.10,-0.20,9.95,-0.03,-0.01,-0.00,32.31
7664183,2195,1,205625,242262,1.13,-0.19,9.96,-0.03,-0.01,-0.00,32.31
7704182,2227,1,205608,242604,1.11,-0.21,9.92,-0.03,-0.01,-0.00,32.31
7744184,2203,1,205842,242796,1.13,-0.21,9.94,-0.03,-0.01,-0.00,32.31
7784182,2211,1,205733,241806,1.10,-0.21,9.94,-0.03,-0.01,-0.01,32.31
7824184,2231,1,204973,239926,1.12,-0.22,9.93,-0.03,-0.01,-0.01,32.31
7864183,2246,1,204488,238857,1.09,-0.21,9.93,-0.03,-0.01,-0.01,32.31
7904184,2254,1,204236,238309,1.09,-0.20,9.93,-0.03,-0.01,-0.01,32.31
7944182,2257,1,203929,237773,1.11,-0.21,9.93,-0.03,-0.01,-0.01,32.31
7984184,2225,1,203954,237995,1.10,-0.20,9.91,-0.03,-0.01,-0.00,32.31
8024196,2202,1,203991,238287,1.11,-0.21,9.95,-0.03,-0.01,-0.00,32.31
8064184,2150,1,204122,238374,1.10,-0.22,9.91,-0.03,-0.01,-0.00,32.31
8104183,2147,1,204076,238247,1.11,-0.22,9.95,-0.03,-0.01,-0.00,32.31
8144193,2133,1,204097,238051,1.12,-0.21,9.94,-0.03,-0.01,-0.00,32.31
8184869,2103,1,203998,237914,1.10,-0.19,9.96,-0.03,-0.01,-0.00,31.07
8225183,2065,1,204032,238313,1.11,-0.21,9.94,-0.03,-0.01,-0.00,31.07
8265182,2026,1,204256,238855,1.11,-0.21,9.93,-0.03,-0.01,-0.00,31.07
8305183,2011,1,204342,239345,1.11,-0.20,9.96,-0.03,-0.01,-0.00,31.07
8345211,2035,1,204409,239587,1.14,-0.22,9.93,-0.03,-0.01,-0.00,31.07
8385183,1978,1,204508,239266,1.12,-0.21,9.92,-0.03,-0.01,-0.00,31.07
8425183,1936,1,203925,237674,1.11,-0.20,9.94,-0.03,-0.01,-0.00,31.07
8465183,1927,1,203406,236589,1.10,-0.20,9.93,-0.03,-0.01,-0.00,31.07
8505182,1899,1,203291,236658,1.12,-0.21,9.93,-0.03,-0.01,-0.00,31.07
8545201,1934,1,203353,236855,1.11,-0.21,9.96,-0.03,-0.01,-0.01,31.07
8585182,1931,1,203423,237311,1.10,-0.23,9.95,-0.03,-0.01,-0.00,31.07
8625183,1941,1,203574,237772,1.11,-0.23,9.94,-0.03,-0.01,-0.00,31.07
8665182,1955,1,203530,237900,1.12,-0.22,9.92,-0.03,-0.01,-0.01,31.07
8705184,1922,1,203637,237995,1.11,-0.21,9.92,-0.03,-0.01,-0.01,31.07
8745182,1938,1,203660,238209,1.12,-0.21,9.93,-0.03,-0.01,-0.00,31.07
8785183,1933,1,203818,238424,1.12,-0.21,9.94,-0.03,-0.01,-0.01,31.07
8825182,1919,1,203884,238602,1.12,-0.21,9.96,-0.03,-0.01,-0.00,31.07
8865183,1920,1,203963,238843,1.12,-0.19,9.97,-0.03,-0.01,-0.00,31.07
8905182,1919,1,204062,239189,1.12,-0.20,9.96,-0.03,-0.01,-0.00,31.07
8945183,1888,1,204079,239371,1.12,-0.19,9.95,-0.03,-0.01,-0.00,31.07
8983183,2005,1,204190,239319,1.14,-0.20,9.94,-0.03,-0.01,-0.00,31.07
9023184,2016,1,203874,237975,1.12,-0.21,9.94,-0.03,-0.01,-0.00,31.07
9063182,2003,1,203227,236601,1.12,-0.21,9.95,-0.03,-0.01,-0.00,31.07
9103184,2015,1,202996,236275,1.10,-0.21,9.92,-0.03,-0.01,-0.00,31.07
9143182,2004,1,202987,236194,1.13,-0.20,9.94,-0.03,-0.01,-0.00,31.07
9183184,1972,1,203119,236281,1.12,-0.19,9.95,-0.03,-0.01,-0.00,31.07
9223868,1915,1,203263,236835,1.11,-0.19,9.96,-0.03,-0.01,-0.00,31.05
9264184,1934,1,203479,237281,1.11,-0.19,9.93,-0.03,-0.01,-0.01,31.05
9304182,1947,1,203551,237655,1.11,-0.21,9.94,-0.03,-0.01,-0.00,31.05
9344184,1950,1,203632,237781,1.13,-0.21,9.94,-0.03,-0.01,-0.00,31.05
9384182,1904,1,203776,238120,1.11,-0.21,9.94,-0.03,-0.01,-0.01,31.05
9424184,1968,1,203867,238324,1.12,-0.21,9.94,-0.03,-0.01,-0.00,31.05
9464182,1976,1,203923,238454,1.11,-0.21,9.95,-0.03,-0.01,-0.00,31.05
9504184,1939,1,203939,238758,1.11,-0.21,9.94,-0.03,-0.01,-0.00,31.05
9544182,1930,1,203969,238943,1.11,-0.21,9.94,-0.03,-0.01,-0.00,31.05
9583184,1979,1,204071,239007,1.14,-0.21,9.94,-0.03,-0.01,-0.01,31.05
9623182,1959,1,203996,238506,1.10,-0.23,9.95,-0.03,-0.01,-0.01,31.05
9663184,1955,1,203541,236919,1.11,-0.20,9.93,-0.03,-0.01,-0.00,31.05
9703183,1961,1,203067,236051,1.13,-0.19,9.94,-0.03,-0.01,-0.00,31.05
9743184,1934,1,202987,236199,1.10,-0.21,9.94,-0.03,-0.01,-0.01,31.05
9783182,1936,1,203079,236572,1.13,-0.22,9.93,-0.03,-0.01,-0.00,31.05
9823184,1936,1,203170,236992,1.12,-0.20,9.93,-0.03,-0.01,-0.00,31.05
9863183,1914,1,203332,237410,1.11,-0.22,9.95,-0.03,-0.01,-0.00,31.05
9903184,1931,1,203445,237507,1.11,-0.21,9.94,-0.03,-0.01,-0.00,31.05
9943183,1910,1,203436,237475,1.12,-0.20,9.94,-0.03,-0.01,-0.00,31.05
9983192,1871,1,203334,237369,1.11,-0.22,9.92,-0.03,-0.01,-0.00,31.05
10023182,1853,1,203406,237386,1.11,-0.18,9.90,-0.03,-0.01,-0.01,31.05
10063185,1844,1,203492,237475,1.11,-0.22,9.92,-0.03,-0.01,-0.00,31.05
10103183,1854,1,203484,237668,1.12,-0.21,9.94,-0.03,-0.01,-0.00,31.05
10143185,1853,1,203550,237808,1.10,-0.20,9.93,-0.03,-0.01,-0.00,31.05
10183206,1840,1,203711,238018,1.11,-0.19,9.91,-0.03,-0.01,-0.00,31.05
10223870,1813,1,203894,237876,1.10,-0.24,9.93,-0.03,-0.01,-0.00,31.05
10264183,1814,1,203451,236306,1.12,-0.21,9.93,-0.03,-0.01,-0.01,31.05
10304184,1829,1,202799,234870,1.10,-0.21,9.92,-0.03,-0.01,-0.00,31.05
10344183,1843,1,202506,234619,1.12,-0.20,9.93,-0.03,-0.01,-0.00,31.05
10384185,1851,1,202496,234731,1.11,-0.21,9.96,-0.03,-0.01,-0.01,31.05
10424183,1825,1,202563,235122,1.11,-0.22,9.94,-0.03,-0.01,-0.00,31.05
10464184,1855,1,202844,235767,1.13,-0.22,9.96,-0.03,-0.01,-0.00,31.05
10504183,1885,1,203027,236154,1.11,-0.18,9.92,-0.03,-0.01,-0.00,31.05
10544185,1893,1,203177,236341,1.11,-0.21,9.94,-0.03,-0.01,-0.00,31.05
10584183,1878,1,203195,236561,1.11,-0.21,9.95,-0.03,-0.01,-0.00,31.05
10623185,1976,1,203195,236727,1.12,-0.19,9.95,-0.03,-0.01,-0.00,31.05
10663182,1955,1,203236,236873,1.12,-0.22,9.95,-0.03,-0.01,-0.00,31.05
10703185,1998,1,203196,237022,1.12,-0.22,9.93,-0.03,-0.01,-0.00,31.05
10743183,1971,1,203338,237153,1.12,-0.20,9.94,-0.03,-0.01,-0.00,31.05
10783185,1957,1,203457,237250,1.11,-0.19,9.92,-0.03,-0.01,-0.00,31.05
10823183,1999,1,203500,237333,1.12,-0.20,9.92,-0.03,-0.01,-0.00,31.05
10863184,1990,1,203368,236231,1.12,-0.20,9.96,-0.03,-0.01,-0.00,31.05
10903183,1961,1,202740,234278,1.13,-0.21,9.96,-0.03,-0.01,-0.00,31.05
10943190,1899,1,202145,233329,1.12,-0.20,9.93,-0.03,-0.01,-0.00,31.05
10983184,1851,1,202127,232728,1.12,-0.23,9.95,-0.03,-0.01,-0.00,31.05
11023190,1794,1,201934,232467,1.12,-0.20,9.95,-0.03,-0.01,-0.00,31.05
11063190,1559,1,201661,233116,1.11,-0.21,9.94,-0.03,-0.01,-0.00,31.05
11103190,1417,1,201955,233778,1.11,-0.19,9.92,-0.03,-0.01,-0.01,31.05
11143190,1360,1,202080,234116,1.12,-0.19,9.95,-0.03,-0.01,-0.00,31.05
11183191,1392,1,202077,234242,1.10,-0.18,9.94,-0.03,-0.01,-0.00,31.05
11223191,1447,1,202144,234209,1.11,-0.21,9.94,-0.03,-0.01,-0.01,31.05
11263877,1520,1,201956,234272,1.10,-0.21,9.95,-0.03,-0.01,-0.01,30.99
11302190,1647,1,202013,234769,1.10,-0.20,9.95,-0.03,-0.01,-0.00,30.99
11342190,1761,1,202131,235176,1.11,-0.21,9.92,-0.03,-0.01,-0.01,30.99
11382190,1799,1,202326,235627,1.13,-0.21,9.93,-0.03,-0.01,-0.00,30.99
11422203,1885,1,202509,236203,1.10,-0.20,9.97,-0.03,-0.01,-0.00,30.99
11462187,1936,1,202796,236960,1.09,-0.20,9.95,-0.04,-0.02,-0.00,30.99
11502190,2015,1,203045,236683,1.12,-0.18,9.94,-0.04,-0.02,-0.00,30.99
11542190,2064,1,202635,235686,1.14,-0.20,9.92,-0.04,-0.02,-0.00,30.99
11582190,2103,1,202346,235473,1.11,-0.23,9.92,-0.04,-0.01,-0.00,30.99
11623190,2094,1,202441,235597,1.12,-0.21,9.92,-0.04,-0.01,-0.01,30.99
11663190,2097,1,202524,235847,1.13,-0.19,9.94,-0.03,-0.02,-0.00,30.99
11703190,2113,1,202603,236399,1.14,-0.20,9.93,-0.04,-0.02,-0.01,30.99
11743190,2128,1,202773,236841,1.13,-0.21,9.95,-0.03,-0.01,-0.01,30.99
11783190,2105,1,202904,237083,1.12,-0.22,9.94,-0.03,-0.01,-0.01,30.99
11823190,2108,1,203057,237313,1.13,-0.22,9.92,-0.03,-0.01,-0.00,30.99
11863190,2123,1,203155,237563,1.12,-0.20,9.91,-0.03,-0.01,-0.00,30.99
11903190,2146,1,203269,237809,1.13,-0.22,9.92,-0.03,-0.01,-0.00,30.99
11943190,2161,1,203384,238121,1.14,-0.22,9.94,-0.03,-0.01,-0.01,30.99
11983191,2109,1,203415,238553,1.12,-0.21,9.93,-0.03,-0.01,-0.00,30.99
12023190,2077,1,203519,238992,1.12,-0.22,9.94,-0.03,-0.01,-0.00,30.99
12063190,2033,1,203698,239482,1.12,-0.22,9.94,-0.03,-0.01,-0.00,30.99
12103191,1950,1,203863,239951,1.11,-0.21,9.95,-0.03,-0.01,-0.00,30.99
12143190,1903,1,204056,239705,1.12,-0.22,9.95,-0.03,-0.01,-0.00,30.99
12183190,1911,1,203448,237751,1.14,-0.20,9.94,-0.03,-0.01,-0.00,30.99
12223190,1905,1,202873,236620,1.13,-0.22,9.92,-0.03,-0.01,-0.01,30.99
12263190,1854,1,202666,236232,1.13,-0.21,9.97,-0.03,-0.01,-0.00,30.99
12303877,1819,1,202634,236275,1.13,-0.20,9.94,-0.03,-0.01,-0.00,31.05
12342190,1843,1,202624,236540,1.13,-0.20,9.95,-0.03,-0.01,-0.01,31.05
12382190,1799,1,202858,237040,1.11,-0.20,9.91,-0.03,-0.01,-0.00,31.05
12422190,1821,1,203040,237161,1.10,-0.18,9.92,-0.03,-0.01,-0.00,31.05
12462191,1840,1,203040,237113,1.13,-0.22,9.92,-0.03,-0.01,-0.00,31.05
12502191,1819,1,203013,237171,1.13,-0.21,9.96,-0.03,-0.01,-0.00,31.05
12542191,1777,1,203015,237244,1.13,-0.19,9.94,-0.03,-0.01,-0.00,31.05
12582191,1771,1,203149,237382,1.11,-0.23,9.96,-0.03,-0.01,-0.01,31.05
12622191,1755,1,203248,237466,1.12,-0.22,9.95,-0.03,-0.01,-0.00,31.05
12663190,1745,1,203272,237535,1.12,-0.20,9.93,-0.03,-0.01,-0.01,31.05
12703190,1733,1,203323,237732,1.11,-0.20,9.94,-0.03,-0.01,-0.01,31.05
12743190,1667,1,203329,237962,1.13,-0.21,9.94,-0.03,-0.01,-0.00,31.05
12783190,1715,1,203392,237836,1.12,-0.20,9.95,-0.03,-0.01,-0.01,31.05
12823191,1728,1,203047,236315,1.13,-0.22,9.91,-0.03,-0.01,-0.00,31.05
12863191,1712,1,202480,234965,1.13,-0.21,9.93,-0.03,-0.01,-0.01,31.05
12903191,1731,1,202220,234667,1.14,-0.20,9.92,-0.03,-0.01,-0.00,31.05
12943190,1732,1,202244,234742,1.12,-0.20,9.92,-0.03,-0.01,-0.00,31.05
12983191,1717,1,202257,234960,1.12,-0.20,9.96,-0.03,-0.01,-0.01,31.05
13023191,1718,1,202424,235494,1.13,-0.22,9.96,-0.03,-0.01,-0.00,31.05
13063191,1744,1,202573,235813,1.11,-0.21,9.93,-0.03,-0.01,-0.00,31.05
13103191,1776,1,202646,236071,1.12,-0.20,9.93,-0.03,-0.01,-0.01,31.05
13143190,1793,1,202584,236355,1.09,-0.22,9.92,-0.03,-0.01,-0.00,31.05
13183190,1817,1,202726,236823,1.12,-0.20,9.95,-0.03,-0.01,-0.01,31.05
13223190,1808,1,202823,237138,1.12,-0.20,9.93,-0.03,-0.01,-0.00,31.05
13263239,1841,1,203028,237423,1.13,-0.21,9.95,-0.03,-0.01,-0.01,31.05
13303877,1770,1,203259,237691,1.12,-0.20,9.91,-0.03,-0.01,-0.00,31.01
13342191,1817,1,203389,237899,1.11,-0.22,9.94,-0.03,-0.01,-0.01,31.01
13382191,1846,1,203421,238140,1.13,-0.21,9.93,-0.03,-0.01,-0.00,31.01
13422191,1841,1,203480,238316,1.13,-0.20,9.94,-0.03,-0.01,-0.00,31.01
13462214,1786,1,203427,237453,1.12,-0.20,9.95,-0.03,-0.01,-0.00,31.01
13502190,1805,1,202842,235538,1.12,-0.20,9.94,-0.03,-0.01,-0.00,31.01
13542191,1781,1,202362,234634,1.12,-0.21,9.95,-0.03,-0.01,-0.00,31.01
13582190,1801,1,202250,234608,1.12,-0.20,9.96,-0.03,-0.01,-0.00,31.01
13622190,1802,1,202347,234826,1.10,-0.19,9.91,-0.03,-0.01,-0.00,31.01
13662190,1798,1,202422,235272,1.13,-0.21,9.92,-0.03,-0.01,-0.01,31.01
13701191,1871,1,202537,235769,1.10,-0.21,9.91,-0.03,-0.01,-0.00,31.01
13741191,1893,1,202635,235986,1.12,-0.23,9.91,-0.03,-0.01,-0.00,31.01
13781191,1872,1,202648,236183,1.12,-0.19,9.92,-0.03,-0.01,-0.00,31.01
13821191,1870,1,202749,236411,1.11,-0.20,9.96,-0.03,-0.01,-0.00,31.01
13861187,1902,1,202886,236834,1.14,-0.21,9.94,-0.03,-0.01,-0.00,31.01
13901190,1863,1,203067,237234,1.14,-0.21,9.95,-0.03,-0.01,-0.01,31.01
13941190,1855,1,203173,237529,1.12,-0.19,9.95,-0.03,-0.01,-0.00,31.01
13981191,1888,1,203206,237741,1.12,-0.20,9.94,-0.03,-0.01,-0.00,31.01
14021190,1867,1,203344,238081,1.11,-0.20,9.92,-0.03,-0.01,-0.00,31.01
14061191,1847,1,203395,238347,1.12,-0.19,9.94,-0.03,-0.01,-0.00,31.01
14101191,1839,1,203449,238414,1.11,-0.22,9.93,-0.03,-0.01,-0.00,31.01
14141190,1815,1,203225,237018,1.11,-0.20,9.96,-0.03,-0.01,-0.01,31.01
14181190,1840,1,202642,235789,1.13,-0.19,9.93,-0.03,-0.01,-0.00,31.01
14221191,1840,1,202503,235679,1.12,-0.21,9.96,-0.03,-0.01,-0.00,31.01
14261191,1838,1,202520,235932,1.13,-0.20,9.94,-0.03,-0.01,-0.00,31.01
14301190,1853,1,202595,236308,1.13,-0.20,9.92,-0.03,-0.01,-0.00,31.01
14341877,1786,1,202763,236738,1.09,-0.20,9.92,-0.03,-0.01,-0.00,30.99
14382191,1783,1,202976,237100,1.12,-0.19,9.92,-0.03,-0.01,-0.00,30.99
14422190,1800,1,202951,237352,1.13,-0.21,9.94,-0.03,-0.01,-0.00,30.99
14462190,1797,1,203048,237525,1.10,-0.22,9.96,-0.03,-0.01,-0.00,30.99
14502191,1789,1,203113,237754,1.12,-0.21,9.94,-0.03,-0.01,-0.00,30.99
14542190,1804,1,203196,238092,1.10,-0.22,9.94,-0.03,-0.01,-0.00,30.99
14582191,1803,1,203283,238398,1.11,-0.19,9.94,-0.03,-0.01,-0.00,30.99
14622190,1847,1,203345,238693,1.11,-0.20,9.95,-0.03,-0.01,-0.01,30.99
14662191,1872,1,203418,239017,1.12,-0.23,9.94,-0.03,-0.01,-0.00,30.99
14701191,1931,1,203472,239587,1.12,-0.20,9.95,-0.03,-0.01,-0.01,30.99
14741190,1872,1,203512,239953,1.13,-0.20,9.96,-0.03,-0.01,-0.00,30.99
14781191,1902,1,203458,239407,1.10,-0.22,9.94,-0.03,-0.01,-0.00,30.99
14821191,1872,1,202813,237973,1.11,-0.22,9.93,-0.03,-0.01,-0.00,30.99
14861191,1808,1,202262,237337,1.14,-0.23,9.94,-0.03,-0.01,-0.00,30.99
14901221,1791,1,202437,237686,1.11,-0.20,9.96,-0.03,-0.01,-0.00,30.99
14941190,1862,1,202916,238369,1.08,-0.19,9.93,-0.03,-0.01,-0.01,30.99
14981191,1885,1,202985,239255,1.12,-0.19,9.94,-0.04,-0.01,-0.00,30.99
15021191,1883,1,203501,239998,1.10,-0.22,9.92,-0.03,-0.01,-0.01,30.99
15061190,1965,1,203508,239304,1.12,-0.23,9.95,-0.03,-0.01,-0.00,30.99
15101225,1957,1,203203,238370,1.12,-0.18,9.95,-0.03,-0.01,-0.00,30.99
15141191,2013,1,203107,237788,1.12,-0.21,9.94,-0.03,-0.01,-0.00,30.99
15181190,2025,1,203031,237511,1.13,-0.22,9.95,-0.03,-0.01,-0.00,30.99
15221191,2071,1,203020,237680,1.10,-0.22,9.94,-0.03,-0.01,-0.00,30.99
15261191,2022,1,203301,238060,1.13,-0.22,9.96,-0.03,-0.01,-0.00,30.99
15301191,2046,1,203264,238913,1.10,-0.19,9.93,-0.03,-0.00,-0.00,30.99
15341877,2101,1,203361,239412,1.11,-0.22,9.96,-0.03,-0.00,-0.00,31.01
15382191,2122,1,203564,239659,1.09,-0.21,9.94,-0.03,0.00,-0.00,31.01
15422170,2022,1,203692,239514,1.11,-0.18,9.95,-0.03,-0.01,-0.00,31.01
15462190,1969,1,203683,240038,1.24,-0.29,9.93,-0.06,-0.04,-0.01,31.01
15502191,1959,1,205988,245106,1.10,-0.23,9.94,-0.04,-0.01,-0.01,31.01
15542191,2042,1,209137,246734,1.06,-0.22,9.94,-0.03,-0.02,-0.01,31.01
15582191,2148,1,209034,245830,1.13,-0.19,9.95,-0.03,-0.03,-0.00,31.01
15622191,2105,1,208697,245692,1.13,-0.20,9.93,-0.03,-0.01,-0.00,31.01
15662191,2081,1,208567,245565,1.09,-0.24,9.94,-0.03,-0.01,-0.00,31.01
15702190,1971,1,208213,245004,1.11,-0.20,9.94,-0.03,-0.02,-0.00,31.01
15742191,1842,1,207742,244174,1.13,-0.18,9.95,-0.03,-0.02,-0.00,31.01
15782191,1712,1,207216,242945,1.12,-0.22,9.92,-0.03,-0.01,-0.01,31.01
15822191,1630,1,206544,241387,1.09,-0.25,9.95,-0.03,-0.00,-0.00,31.01
15862187,1517,1,206119,240798,1.11,-0.20,9.93,-0.03,-0.01,-0.00,31.01
15902191,1427,1,206032,240771,1.16,-0.21,9.94,-0.03,-0.00,-0.01,31.01
15942190,1379,1,205922,240887,1.11,-0.22,9.92,-0.03,-0.01,-0.00,31.01
15982190,1440,1,205925,240857,1.11,-0.22,9.96,-0.03,-0.02,-0.00,31.01
16022201,1435,1,205938,240675,1.13,-0.20,9.94,-0.03,-0.02,-0.00,31.01
16062191,1451,1,205824,239158,1.11,-0.21,9.94,-0.03,-0.01,-0.01,31.01
16102191,1462,1,205081,237680,1.12,-0.25,9.95,-0.03,-0.01,-0.01,31.01
16142191,1513,1,204678,237280,1.13,-0.22,9.95,-0.03,-0.01,-0.00,31.01
16182191,1584,1,204656,237610,1.10,-0.19,9.93,-0.03,-0.01,-0.01,31.01
16222191,1649,1,204711,237973,1.09,-0.21,9.95,-0.03,-0.01,-0.00,31.01
16262191,1724,1,204863,238110,1.12,-0.22,9.95,-0.03,-0.01,-0.00,31.01
16302191,1769,1,204954,238417,1.13,-0.20,9.91,-0.03,-0.02,-0.01,31.01
16342878,1767,1,205229,238684,1.12,-0.23,9.93,-0.03,-0.01,-0.01,30.99
16381191,1870,1,204880,239678,1.14,-0.22,9.92,-0.03,-0.01,-0.00,30.99
16421191,1900,1,205166,240128,1.13,-0.23,9.94,-0.03,-0.01,-0.00,30.99
16461191,2077,1,205616,240490,1.11,-0.23,9.95,-0.03,-0.01,-0.00,30.99
16501191,2192,1,206060,240828,1.15,-0.21,9.91,-0.03,-0.01,-0.00,30.99
16541204,2241,1,206338,240985,1.13,-0.19,9.90,-0.03,-0.01,-0.00,30.99
16581191,2229,1,206524,241217,1.13,-0.20,9.92,-0.03,-0.01,-0.00,30.99
16621191,2204,1,206759,241401,1.13,-0.22,9.94,-0.03,-0.01,-0.00,30.99
16661191,2167,1,206783,240166,1.14,-0.19,9.95,-0.03,-0.01,-0.00,30.99
16701191,2105,1,206147,238020,1.14,-0.23,9.91,-0.03,-0.01,-0.00,30.99
16741218,2030,1,205679,237032,1.11,-0.21,9.91,-0.03,-0.01,-0.00,30.99
16781191,1973,1,205811,237132,1.12,-0.21,9.94,-0.03,-0.01,-0.00,30.99
16821191,1925,1,206147,237773,1.13,-0.21,9.94,-0.03,-0.01,-0.00,30.99
16861191,1873,1,206288,238338,1.13,-0.23,9.96,-0.03,-0.01,-0.01,30.99
16901191,1809,1,206259,238555,1.13,-0.21,9.94,-0.03,-0.01,-0.00,30.99
16941207,1716,1,206176,238511,1.14,-0.22,9.94,-0.03,-0.01,-0.00,30.99
16981191,1662,1,206107,238865,1.12,-0.21,9.95,-0.03,-0.01,-0.01,30.99
17021191,1616,1,206112,239512,1.14,-0.23,9.90,-0.03,-0.01,-0.00,30.99
17061191,1569,1,206493,240197,1.13,-0.21,9.94,-0.03,-0.01,-0.00,30.99
17101191,1562,1,206358,240576,1.13,-0.23,9.94,-0.03,-0.01,-0.01,30.99
17141191,1535,1,206498,240898,1.12,-0.21,9.94,-0.03,-0.01,-0.00,30.99
17181191,1591,1,206950,241114,1.13,-0.19,9.92,-0.03,-0.01,-0.00,30.99
17221191,1623,1,206960,240977,1.12,-0.20,9.92,-0.03,-0.01,-0.00,30.99
17261190,1623,1,206677,239095,1.13,-0.22,9.91,-0.03,-0.00,-0.01,30.99
17301191,1637,1,206133,237304,1.12,-0.22,9.94,-0.03,-0.01,-0.00,30.99
17341191,1642,1,205813,236987,1.11,-0.19,9.93,-0.03,-0.01,-0.00,30.99
17381877,1664,1,206093,237677,1.12,-0.21,9.94,-0.03,-0.01,-0.00,30.71
17420191,1757,1,206323,238336,1.14,-0.21,9.94,-0.03,-0.01,-0.00,30.71
17460190,1754,1,206574,238990,1.13,-0.21,9.92,-0.03,-0.01,-0.00,30.71
17500191,1754,1,206836,239531,1.11,-0.20,9.97,-0.03,-0.01,-0.00,30.71
17540190,1751,1,207128,240058,1.13,-0.20,9.94,-0.03,-0.01,-0.00,30.71
17580191,1747,1,207421,240940,1.12,-0.22,9.94,-0.03,-0.01,-0.00,30.71
17620191,1745,1,207917,241952,1.13,-0.22,9.95,-0.03,-0.01,-0.00,30.71
17660191,1758,1,208379,242683,1.13,-0.22,9.91,-0.03,-0.01,-0.00,30.71
17700191,1744,1,208612,243030,1.13,-0.19,9.94,-0.03,-0.01,-0.00,30.71
17740191,1745,1,208666,243296,1.13,-0.21,9.93,-0.03,-0.01,-0.00,30.71
17780191,1727,1,208779,243489,1.14,-0.21,9.92,-0.03,-0.01,-0.00,30.71
17820191,1733,1,209063,242585,1.14,-0.21,9.93,-0.03,-0.01,-0.00,30.71
17860190,1761,1,208379,240422,1.12,-0.21,9.92,-0.03,-0.01,-0.00,30.71
17900191,1761,1,207798,239576,1.14,-0.23,9.93,-0.03,-0.01,-0.00,30.71
17940191,1765,1,207631,239679,1.11,-0.20,9.91,-0.03,-0.01,-0.00,30.71
17980191,1729,1,207725,239969,1.11,-0.22,9.91,-0.03,-0.01,-0.01,30.71
18020191,1743,1,208339,240485,1.14,-0.23,9.94,-0.03,-0.01,-0.00,30.71
18060191,1805,1,208315,240692,1.13,-0.21,9.92,-0.03,-0.01,-0.01,30.71
18100191,1827,1,208154,240529,1.14,-0.20,9.96,-0.03,-0.01,-0.01,30.71
18140191,1821,1,208124,240550,1.12,-0.21,9.95,-0.03,-0.01,-0.00,30.71
18180196,1830,1,208160,240970,1.13,-0.22,9.93,-0.03,-0.01,-0.00,30.71
18220191,1846,1,208333,241277,1.14,-0.20,9.95,-0.03,-0.01,-0.00,30.71
18260191,1858,1,208697,241628,1.14,-0.22,9.93,-0.03,-0.01,-0.00,30.71
18300191,1906,1,209267,242128,1.14,-0.24,9.92,-0.03,-0.01,-0.00,30.71
18340191,1959,1,209098,242550,1.12,-0.20,9.93,-0.03,-0.01,-0.01,30.71
18380238,1931,1,209112,242693,1.14,-0.20,9.94,-0.03,-0.01,-0.01,30.71
18420877,1838,1,208716,241002,1.15,-0.21,9.95,-0.03,-0.01,-0.00,31.01
18461190,1842,1,208247,239555,1.14,-0.20,9.93,-0.03,-0.01,-0.00,31.01
18501191,1857,1,208022,239193,1.10,-0.20,9.93,-0.03,-0.01,-0.00,31.01
18541191,1840,1,208075,239317,1.13,-0.20,9.95,-0.03,-0.01,-0.00,31.01
18581190,1823,1,208097,239651,1.15,-0.20,9.94,-0.03,-0.01,-0.01,31.01
18621191,1809,1,208196,239896,1.15,-0.23,9.93,-0.03,-0.01,-0.00,31.01
18661191,1808,1,208302,239917,1.13,-0.21,9.90,-0.03,-0.01,-0.01,31.01
18701191,1802,1,208300,239862,1.13,-0.20,9.96,-0.03,-0.01,-0.01,31.01
18741191,1805,1,208376,239887,1.13,-0.22,9.94,-0.03,-0.01,-0.01,31.01
18781190,1782,1,208459,240323,1.13,-0.21,9.93,-0.03,-0.01,-0.01,31.01
18821191,1781,1,208726,240738,1.13,-0.21,9.93,-0.03,-0.01,-0.00,31.01
18861191,1782,1,208876,241201,1.11,-0.21,9.93,-0.03,-0.01,-0.01,31.01
18901191,1776,1,208939,241618,1.13,-0.22,9.94,-0.03,-0.01,-0.01,31.01
18941190,1754,1,209156,241791,1.13,-0.22,9.91,-0.03,-0.01,-0.00,31.01
18981191,1744,1,209109,240834,1.13,-0.20,9.96,-0.03,-0.01,-0.00,31.01
19021191,1758,1,208533,238812,1.13,-0.22,9.95,-0.03,-0.01,-0.00,31.01
19061191,1765,1,208017,238238,1.13,-0.21,9.93,-0.03,-0.01,-0.00,31.01
19101222,1788,1,208087,238702,1.12,-0.20,9.94,-0.03,-0.01,-0.00,31.01
19141191,1772,1,208341,239536,1.13,-0.20,9.94,-0.03,-0.01,-0.00,31.01
19179191,1846,1,208658,240467,1.12,-0.20,9.96,-0.03,-0.01,-0.00,31.01
19219191,1829,1,208965,241270,1.15,-0.22,9.93,-0.03,-0.01,-0.00,31.01
19259191,1811,1,209213,241598,1.15,-0.22,9.93,-0.03,-0.01,-0.00,31.01
19299191,1815,1,209305,241903,1.13,-0.18,9.94,-0.03,-0.01,-0.00,31.01
19339190,1808,1,209448,242023,1.13,-0.21,9.96,-0.03,-0.01,-0.00,31.01
19379191,1808,1,209498,242153,1.13,-0.22,9.94,-0.03,-0.01,-0.00,31.01
19419190,1817,1,209533,242158,1.12,-0.20,9.95,-0.03,-0.01,-0.01,31.01
19459877,1743,1,209699,242193,1.16,-0.22,9.92,-0.03,0.00,-0.01,30.79
19500170,1758,1,209846,242163,1.13,-0.20,9.96,-0.03,-0.01,-0.00,30.79
19540191,1762,1,209796,241839,1.13,-0.21,9.93,-0.03,-0.01,-0.01,30.79
19580191,1765,1,209387,239608,1.12,-0.23,9.95,-0.03,-0.01,-0.00,30.79
19620190,1739,1,208744,238117,1.13,-0.20,9.94,-0.03,-0.01,-0.00,30.79
19660190,1721,1,208468,238187,1.13,-0.21,9.93,-0.03,-0.01,-0.00,30.79
19700191,1710,1,208608,238557,1.13,-0.22,9.93,-0.03,-0.01,-0.00,30.79
19740190,1713,1,208744,239160,1.12,-0.22,9.95,-0.03,-0.01,-0.00,30.79
19780190,1735,1,208857,239537,1.13,-0.19,9.91,-0.03,-0.01,-0.00,30.79
19820191,1744,1,208956,239529,1.11,-0.19,9.96,-0.03,-0.01,-0.01,30.79
19860191,1765,1,208922,239655,1.13,-0.21,9.91,-0.03,-0.01,-0.00,30.79
19900190,1792,1,208981,240000,1.13,-0.22,9.93,-0.03,-0.01,-0.00,30.79
19940190,1808,1,209120,240325,1.14,-0.20,9.95,-0.03,-0.01,-0.00,30.79
19980191,1821,1,209213,240663,1.12,-0.19,9.94,-0.03,-0.01,-0.01,30.79
20020190,1813,1,209191,241008,1.13,-0.20,9.92,-0.03,-0.01,-0.00,30.79
20060190,1837,1,209314,241232,1.12,-0.19,9.92,-0.03,-0.01,-0.00,30.79
20100190,1834,1,209343,241584,1.13,-0.20,9.93,-0.03,-0.01,-0.00,30.79
20140190,1837,1,209430,241438,1.14,-0.20,9.93,-0.03,-0.01,-0.01,30.79
20180190,1815,1,208996,239570,1.13,-0.21,9.93,-0.03,-0.01,-0.00,30.79
20220196,1805,1,208361,238511,1.13,-0.21,9.94,-0.03,-0.01,-0.00,30.79
20260190,1797,1,208259,238751,1.11,-0.22,9.93,-0.03,-0.01,-0.01,30.79
20300190,1801,1,208439,239095,1.11,-0.21,9.93,-0.03,-0.01,-0.01,30.79
20340191,1805,1,208644,239609,1.13,-0.22,9.96,-0.03,-0.01,-0.00,30.79
20380191,1810,1,208814,239948,1.12,-0.20,9.94,-0.03,-0.01,-0.00,30.79
20420190,1800,1,208803,240009,1.11,-0.21,9.94,-0.03,-0.01,-0.01,30.79
20460877,1782,1,208849,239937,1.12,-0.20,9.94,-0.03,-0.01,-0.00,30.65
20499191,1838,1,208866,240201,1.13,-0.20,9.91,-0.03,-0.01,-0.01,30.65
20539190,1840,1,209093,240502,1.13,-0.21,9.92,-0.03,-0.01,-0.00,30.65
20579190,1840,1,209209,240890,1.11,-0.21,9.92,-0.03,-0.01,-0.01,30.65
20619191,1824,1,209332,241125,1.13,-0.21,9.93,-0.03,-0.01,-0.00,30.65
20659191,1808,1,209455,241562,1.12,-0.20,9.92,-0.03,-0.01,-0.00,30.65
20699191,1809,1,209713,241883,1.15,-0.21,9.92,-0.03,-0.01,-0.00,30.65
20739191,1810,1,209804,241572,1.12,-0.22,9.92,-0.03,-0.01,-0.01,30.65
20779191,1805,1,209472,239214,1.13,-0.20,9.94,-0.03,-0.01,-0.00,30.65
20819188,1790,1,208863,237970,1.13,-0.20,9.96,-0.03,-0.01,-0.00,30.65
20859191,1774,1,208822,237975,1.12,-0.21,9.95,-0.03,-0.01,-0.00,30.65
20899191,1806,1,209031,238041,1.12,-0.22,9.94,-0.03,-0.01,-0.00,30.65
20939190,1872,1,209232,237914,1.10,-0.18,9.91,-0.03,-0.01,-0.00,30.65
20979191,1895,1,209151,237638,1.13,-0.21,9.94,-0.03,-0.00,-0.00,30.65
21019191,1900,1,209142,237813,1.12,-0.20,9.95,-0.03,-0.01,-0.01,30.65
21059191,1870,1,209094,237994,1.11,-0.21,9.95,-0.03,-0.01,-0.00,30.65
21099190,1837,1,209280,238071,1.13,-0.20,9.91,-0.03,-0.01,-0.00,30.65
21139191,1829,1,209238,238371,1.13,-0.22,9.92,-0.03,-0.01,-0.00,30.65
21179190,1819,1,209446,238720,1.12,-0.19,9.95,-0.03,-0.01,-0.00,30.65
21219190,1818,1,209461,238983,1.13,-0.21,9.93,-0.03,-0.01,-0.00,30.65
21259190,1823,1,209625,239218,1.12,-0.20,9.95,-0.03,-0.01,-0.01,30.65
21299190,1826,1,209680,239496,1.12,-0.19,9.94,-0.03,-0.01,-0.00,30.65
21339190,1834,1,209525,238187,1.12,-0.20,9.93,-0.03,-0.01,-0.00,30.65
21379191,1831,1,208773,236518,1.11,-0.22,9.95,-0.03,-0.01,-0.00,30.65
21419190,1840,1,208402,236407,1.11,-0.21,9.94,-0.03,-0.01,-0.00,30.65
21459190,1828,1,208429,237067,1.12,-0.21,9.97,-0.03,-0.01,-0.00,30.65
21499877,1779,1,208343,237874,1.10,-0.21,9.96,-0.03,-0.01,-0.00,30.91
21540191,1787,1,208504,238550,1.12,-0.20,9.92,-0.03,-0.01,-0.00,30.91
21580190,1788,1,208672,238713,1.11,-0.20,9.95,-0.03,-0.01,-0.01,30.91
21620190,1776,1,208613,238806,1.11,-0.22,9.93,-0.03,-0.01,-0.00,30.91
21660239,1763,1,208723,239057,1.10,-0.20,9.95,-0.03,-0.01,-0.00,30.91
21700187,1747,1,208711,239449,1.12,-0.21,9.91,-0.03,-0.01,-0.01,30.91
21740191,1756,1,208878,239873,1.11,-0.19,9.95,-0.03,-0.01,-0.01,30.91
21780190,1762,1,208924,240257,1.11,-0.21,9.95,-0.03,-0.01,-0.00,30.91
21820190,1759,1,208970,240674,1.11,-0.23,9.93,-0.03,-0.01,-0.00,30.91
21860208,1754,1,209131,240984,1.13,-0.21,9.94,-0.03,-0.01,-0.01,30.91
21900191,1755,1,209158,240937,1.12,-0.20,9.94,-0.03,-0.01,-0.00,30.91
21940191,1755,1,208732,238947,1.12,-0.18,9.92,-0.03,-0.01,-0.01,30.91
21980190,1767,1,208012,237431,1.13,-0.22,9.93,-0.03,-0.01,-0.00,30.91
22020190,1761,1,207810,237440,1.12,-0.22,9.93,-0.03,-0.01,-0.00,30.91
22058190,1851,1,207991,237832,1.11,-0.20,9.92,-0.03,-0.01,-0.00,30.91
22098190,1845,1,208091,238320,1.13,-0.19,9.94,-0.03,-0.01,-0.01,30.91
22138190,1840,1,208313,238776,1.11,-0.21,9.92,-0.03,-0.01,-0.00,30.91
22178190,1855,1,208411,239071,1.13,-0.21,9.92,-0.03,-0.01,-0.00,30.91
22218190,1846,1,208412,239071,1.13,-0.21,9.95,-0.03,-0.01,-0.00,30.91
22258190,1787,1,208303,239298,1.14,-0.20,9.93,-0.03,-0.01,-0.00,30.91
22298190,1840,1,208387,239456,1.13,-0.20,9.94,-0.03,-0.01,-0.00,30.91
22338190,1904,1,208404,239250,1.13,-0.22,9.92,-0.03,-0.01,-0.01,30.91
22378190,1995,1,208299,239061,1.12,-0.20,9.93,-0.04,-0.01,-0.00,30.91
22418190,2085,1,208035,239308,1.10,-0.21,9.91,-0.03,-0.01,-0.01,30.91
22458190,2107,1,207917,239650,1.11,-0.21,9.91,-0.03,-0.01,-0.01,30.91
22498190,2081,1,207893,239412,1.10,-0.19,9.93,-0.03,-0.01,-0.00,30.91
22538877,2015,1,207446,237457,1.13,-0.19,9.95,-0.03,-0.01,-0.01,30.97
22579208,2034,1,206638,235792,1.11,-0.21,9.96,-0.03,-0.01,-0.00,30.97
22619190,2086,1,206131,235563,1.12,-0.20,9.95,-0.03,-0.01,-0.01,30.97
22659190,2146,1,206077,235864,1.12,-0.19,9.94,-0.03,-0.01,-0.00,30.97
22699190,2161,1,206137,236473,1.13,-0.21,9.96,-0.03,-0.01,-0.00,30.97
22739191,2128,1,206236,236852,1.11,-0.22,9.93,-0.03,-0.01,-0.01,30.97
22779191,2194,1,206294,236853,1.09,-0.21,9.91,-0.03,-0.01,-0.00,30.97
22819190,2160,1,206307,237032,1.11,-0.22,9.95,-0.03,-0.01,-0.00,30.97
22859190,2242,1,206261,238691,1.14,-0.23,9.91,-0.04,-0.02,-0.00,30.97
22899190,2287,1,206545,241234,1.14,-0.24,9.95,-0.04,-0.02,-0.01,30.97
22939191,2303,1,206905,241700,1.09,-0.18,9.94,-0.03,-0.01,-0.01,30.97
22979190,2255,1,206948,241939,1.13,-0.21,9.93,-0.03,-0.01,-0.00,30.97
23019190,2203,1,207219,242745,1.14,-0.22,9.92,-0.03,-0.01,-0.01,30.97
23059190,2153,1,207514,243809,1.14,-0.23,9.94,-0.03,-0.01,-0.01,30.97
23099191,2075,1,207986,244950,1.13,-0.21,9.96,-0.04,-0.01,-0.01,30.97
23139190,2032,1,207823,242522,1.13,-0.21,9.92,-0.03,-0.02,-0.00,30.97
23179190,1953,1,207110,241542,1.14,-0.23,9.94,-0.03,-0.01,-0.00,30.97
23219191,1907,1,207078,241923,1.15,-0.21,9.92,-0.03,-0.01,-0.01,30.97
23259190,1822,1,207347,242781,1.13,-0.22,9.94,-0.03,-0.01,-0.00,30.97
23299244,1788,1,207709,243849,1.13,-0.21,9.95,-0.03,-0.01,-0.01,30.97
23339190,1764,1,208092,244553,1.14,-0.23,9.91,-0.03,-0.01,-0.00,30.97
23379190,1715,1,208136,244590,1.14,-0.23,9.95,-0.03,-0.01,-0.00,30.97
23419191,1713,1,208323,245240,1.14,-0.20,9.94,-0.04,-0.01,-0.00,30.97
23459190,1646,1,208617,246373,1.15,-0.21,9.92,-0.04,-0.01,-0.00,30.97
23499207,1709,1,209216,247614,1.14,-0.21,9.93,-0.03,-0.01,-0.01,30.97
23539877,1666,1,209818,248771,1.13,-0.23,9.95,-0.04,-0.01,-0.01,31.21
23578190,1714,1,210347,249795,1.14,-0.20,9.94,-0.03,-0.01,-0.00,31.21
23618190,1712,1,210702,250238,1.11,-0.22,9.92,-0.03,-0.01,-0.01,31.21
23658191,1728,1,211078,250550,1.15,-0.23,9.95,-0.03,-0.01,-0.01,31.21
23698190,1698,1,211130,249236,1.13,-0.20,9.93,-0.03,-0.01,-0.00,31.21
23738191,1700,1,210071,246010,1.12,-0.22,9.93,-0.03,-0.01,-0.00,31.21
23778191,1729,1,209558,245412,1.12,-0.22,9.91,-0.03,-0.01,-0.00,31.21
23818190,1694,1,209654,245533,1.13,-0.23,9.94,-0.03,-0.01,-0.01,31.21
23858190,1694,1,209764,246142,1.13,-0.22,9.93,-0.03,-0.01,-0.00,31.21
23898190,1698,1,210007,247223,1.15,-0.22,9.94,-0.03,-0.01,-0.00,31.21
23938191,1741,1,210486,248068,1.13,-0.22,9.94,-0.03,-0.01,-0.00,31.21
23978190,1710,1,210729,247965,1.17,-0.21,9.94,-0.03,-0.01,-0.01,31.21
24018190,1728,1,210571,247764,1.15,-0.21,9.90,-0.03,-0.01,-0.00,31.21
24058191,1744,1,210467,247824,1.14,-0.20,9.94,-0.03,-0.01,-0.01,31.21
24098190,1664,1,210674,248561,1.14,-0.21,9.95,-0.03,-0.01,-0.00,31.21
24138190,1776,1,211058,249356,1.13,-0.25,9.96,-0.03,-0.01,-0.00,31.21
24178191,1737,1,210958,248476,1.14,-0.23,9.98,-0.03,-0.01,-0.00,31.21
24218191,1701,1,210558,247408,1.13,-0.21,9.96,-0.03,-0.01,-0.00,31.21
24258191,1697,1,210298,246601,1.14,-0.22,9.92,-0.03,-0.01,-0.00,31.21
24298190,1734,1,209713,244583,1.15,-0.24,9.93,-0.04,-0.01,-0.00,31.21
24338190,1705,1,209080,243559,1.14,-0.23,9.94,-0.03,-0.01,-0.00,31.21
24378190,1707,1,208970,243406,1.13,-0.20,9.97,-0.03,-0.01,-0.00,31.21
24418191,1678,1,209018,243587,1.12,-0.21,9.92,-0.03,-0.01,-0.00,31.21
24458190,1726,1,209154,244147,1.14,-0.22,9.95,-0.03,-0.01,-0.00,31.21
24498191,1742,1,209431,244444,1.13,-0.22,9.94,-0.03,-0.01,-0.01,31.21
24538191,1789,1,209568,244538,1.14,-0.23,9.95,-0.03,-0.01,-0.00,31.21
24578877,1783,1,209346,244547,1.14,-0.21,9.92,-0.03,-0.01,-0.00,31.25
24619190,1810,1,209472,244783,1.13,-0.21,9.91,-0.03,-0.01,-0.00,31.25
24659191,1797,1,209478,245221,1.15,-0.23,9.94,-0.03,-0.01,-0.00,31.25
24699190,1808,1,209705,245736,1.13,-0.23,9.94,-0.03,-0.01,-0.00,31.25
24738190,1839,1,209898,246402,1.14,-0.22,9.93,-0.03,-0.01,-0.00,31.25
24778190,1837,1,210108,247211,1.14,-0.24,9.91,-0.03,-0.01,-0.00,31.25
24818190,1810,1,210420,247592,1.13,-0.21,9.94,-0.03,-0.01,-0.00,31.25
24858190,1776,1,209911,244679,1.13,-0.24,9.92,-0.03,-0.01,-0.00,31.25
24898190,1805,1,209021,243070,1.14,-0.24,9.94,-0.03,-0.01,-0.00,31.25
24938190,1775,1,208460,242374,1.15,-0.23,9.92,-0.03,-0.01,-0.00,31.25
24978191,1716,1,208458,242538,1.12,-0.23,9.91,-0.03,-0.01,-0.00,31.25
25018190,1699,1,208567,242726,1.15,-0.22,9.97,-0.03,-0.01,-0.01,31.25
25058190,1727,1,208610,242783,1.13,-0.23,9.94,-0.03,-0.01,-0.00,31.25
25098191,1716,1,208788,242776,1.14,-0.22,9.93,-0.03,-0.01,-0.01,31.25
25138203,1689,1,208658,242701,1.14,-0.21,9.98,-0.03,-0.01,-0.00,31.25
25178191,1719,1,208697,242725,1.15,-0.22,9.92,-0.03,-0.01,-0.01,31.25
25218190,1769,1,209001,242857,1.13,-0.21,9.91,-0.03,-0.01,-0.01,31.25
25258190,1811,1,209050,243126,1.14,-0.23,9.91,-0.03,-0.01,-0.00,31.25
25298190,1814,1,209113,243270,1.15,-0.19,9.94,-0.03,-0.01,-0.01,31.25
25338205,1862,1,209228,243271,1.16,-0.23,9.94,-0.03,-0.01,-0.01,31.25
25378190,1874,1,209219,243450,1.14,-0.22,9.93,-0.03,-0.01,-0.00,31.25
25418191,1871,1,209175,242580,1.16,-0.22,9.94,-0.03,-0.01,-0.00,31.25
25458191,1852,1,208412,241043,1.14,-0.20,9.93,-0.03,-0.01,-0.00,31.25
25498190,1875,1,208388,241024,1.14,-0.19,9.92,-0.03,-0.01,-0.00,31.25
25538190,1879,1,208452,241511,1.13,-0.22,9.95,-0.03,-0.01,-0.01,31.25
25578190,1903,1,208634,241806,1.16,-0.21,9.95,-0.03,-0.01,-0.01,31.25
25618877,1883,1,208713,242026,1.14,-0.23,9.94,-0.03,-0.01,-0.00,31.01
25657193,1931,1,208706,241870,1.14,-0.24,9.94,-0.03,-0.01,-0.00,31.01
25697191,1909,1,208597,242017,1.12,-0.21,9.93,-0.03,-0.01,-0.00,31.01
25737190,1920,1,208679,242187,1.14,-0.23,9.95,-0.03,-0.01,-0.01,31.01
25778191,1823,1,208819,242460,1.15,-0.21,9.95,-0.03,-0.01,-0.00,31.01
25818191,1808,1,208904,242840,1.14,-0.21,9.96,-0.03,-0.01,-0.00,31.01
25858191,1791,1,208921,243115,1.14,-0.23,9.93,-0.03,-0.01,-0.00,31.01
25898190,1776,1,209062,243266,1.13,-0.22,9.92,-0.03,-0.01,-0.00,31.01
25938191,1764,1,209004,243448,1.14,-0.22,9.95,-0.03,-0.01,-0.01,31.01
25978191,1753,1,209034,242836,1.14,-0.21,9.95,-0.03,-0.01,-0.00,31.01
26018191,1739,1,208441,240981,1.15,-0.21,9.90,-0.03,-0.01,-0.00,31.01
26058190,1751,1,208042,240487,1.15,-0.22,9.91,-0.03,-0.01,-0.00,31.01
26098191,1755,1,207992,241009,1.13,-0.22,9.93,-0.03,-0.01,-0.00,31.01
26138191,1770,1,208339,241685,1.15,-0.22,9.95,-0.03,-0.01,-0.01,31.01
26178191,1760,1,208499,242081,1.14,-0.24,9.93,-0.03,-0.01,-0.01,31.01
26218191,1746,1,208570,242151,1.13,-0.23,9.92,-0.03,-0.01,-0.00,31.01
26258190,1764,1,208616,242116,1.15,-0.21,9.96,-0.03,-0.01,-0.00,31.01
26298190,1775,1,208557,242041,1.15,-0.20,9.95,-0.03,-0.01,-0.00,31.01
26338191,1759,1,208565,242129,1.14,-0.22,9.95,-0.03,-0.01,-0.00,31.01
26378190,1767,1,208706,242387,1.14,-0.23,9.95,-0.03,-0.01,-0.00,31.01
26418190,1776,1,208776,242682,1.14,-0.23,9.96,-0.03,-0.01,-0.00,31.01
26458191,1738,1,208941,242981,1.14,-0.23,9.96,-0.03,-0.01,-0.00,31.01
26498190,1773,1,209058,243531,1.14,-0.21,9.94,-0.03,-0.01,-0.00,31.01
26538190,1789,1,209244,243771,1.13,-0.23,9.94,-0.03,-0.01,-0.00,31.01
26578191,1790,1,208824,242352,1.14,-0.22,9.91,-0.03,-0.01,-0.00,31.01
26618877,1776,1,208362,241872,1.13,-0.21,9.94,-0.03,-0.01,-0.00,31.07
26657190,1818,1,208324,242006,1.13,-0.22,9.92,-0.03,-0.01,-0.01,31.07
26697190,1804,1,208401,242637,1.12,-0.23,9.93,-0.03,-0.01,-0.01,31.07
26737191,1840,1,208783,243669,1.15,-0.22,9.92,-0.03,-0.01,-0.00,31.07
26778190,1783,1,208953,244213,1.15,-0.21,9.95,-0.03,-0.01,-0.01,31.07
26818191,1813,1,209123,244369,1.15,-0.23,9.94,-0.03,-0.01,-0.00,31.07
26858191,1776,1,209173,244773,1.15,-0.24,9.91,-0.03,-0.01,-0.01,31.07
26898190,1766,1,209292,245237,1.15,-0.23,9.92,-0.03,-0.01,-0.01,31.07
26938191,1810,1,209459,245675,1.13,-0.25,9.93,-0.03,-0.01,-0.00,31.07
26978191,1761,1,209537,246118,1.13,-0.23,9.92,-0.03,-0.01,-0.00,31.07
27018190,1806,1,209711,246447,1.15,-0.21,9.92,-0.03,-0.01,-0.00,31.07
27058190,1799,1,209775,246719,1.15,-0.23,9.94,-0.03,-0.01,-0.00,31.07
27098190,1797,1,209903,245711,1.15,-0.23,9.95,-0.03,-0.01,-0.00,31.07
27138191,1840,1,208844,242624,1.13,-0.23,9.95,-0.03,-0.01,-0.00,31.07
27178191,1798,1,208139,241476,1.14,-0.23,9.92,-0.03,-0.01,-0.00,31.07
27218190,1798,1,207892,241118,1.14,-0.22,9.92,-0.03,-0.01,-0.00,31.07
27258190,1790,1,207978,241061,1.13,-0.22,9.94,-0.03,-0.01,-0.01,31.07
27298191,1790,1,208119,241251,1.14,-0.23,9.92,-0.03,-0.01,-0.00,31.07
27338190,1801,1,208245,241479,1.15,-0.24,9.94,-0.03,-0.01,-0.00,31.07
27378190,1776,1,208192,241687,1.14,-0.23,9.94,-0.03,-0.01,-0.01,31.07
27418190,1803,1,208246,241961,1.13,-0.22,9.95,-0.03,-0.01,-0.00,31.07
27458191,1787,1,208297,242428,1.16,-0.22,9.94,-0.03,-0.01,-0.00,31.07
27498207,1840,1,208507,243110,1.15,-0.22,9.90,-0.03,-0.01,-0.00,31.07
27538190,1790,1,208611,243786,1.14,-0.22,9.92,-0.03,-0.01,-0.00,31.07
27578191,1827,1,208779,244639,1.13,-0.22,9.91,-0.03,-0.01,-0.00,31.07
27618877,1818,1,209218,245199,1.15,-0.23,9.93,-0.03,-0.01,-0.01,31.11
27657190,1875,1,209192,243994,1.14,-0.22,9.93,-0.03,-0.01,-0.00,31.11
27697190,1898,1,208305,241977,1.13,-0.23,9.90,-0.03,-0.01,-0.01,31.11
27737190,1907,1,207959,241512,1.15,-0.22,9.91,-0.03,-0.01,-0.00,31.11
27777190,1932,1,207939,241572,1.14,-0.19,9.95,-0.03,-0.01,-0.00,31.11
27818190,1881,1,207925,242056,1.14,-0.20,9.93,-0.03,-0.01,-0.00,31.11
27858190,1841,1,208050,242587,1.15,-0.24,9.94,-0.03,-0.01,-0.00,31.11
27898190,1838,1,208166,242327,1.14,-0.21,9.90,-0.03,-0.01,-0.00,31.11
27938190,1826,1,208142,242092,1.14,-0.21,9.92,-0.03,-0.01,-0.00,31.11
27978190,1810,1,208139,242024,1.15,-0.21,9.92,-0.03,-0.01,-0.00,31.11
28018190,1771,1,208135,242140,1.13,-0.22,9.92,-0.03,-0.01,-0.00,31.11
28058190,1767,1,208203,242491,1.13,-0.20,9.92,-0.03,-0.01,-0.00,31.11
28098190,1808,1,208272,242522,1.13,-0.23,9.88,-0.03,-0.01,-0.00,31.11
28138190,1777,1,208376,242539,1.14,-0.22,9.89,-0.03,-0.01,-0.01,31.11
28176190,1847,1,208360,242594,1.13,-0.21,9.95,-0.03,-0.01,-0.00,31.11
28216190,1840,1,208342,242175,1.14,-0.23,9.95,-0.03,-0.01,-0.01,31.11
28256190,1847,1,207922,240543,1.14,-0.23,9.91,-0.03,-0.01,-0.01,31.11
28296191,1824,1,207484,239543,1.13,-0.23,9.95,-0.03,-0.01,-0.00,31.11
28336190,1834,1,207374,239255,1.14,-0.22,9.94,-0.03,-0.01,-0.00,31.11
28376190,1834,1,207412,239329,1.13,-0.24,9.93,-0.03,-0.01,-0.00,31.11
28416191,1867,1,207542,239732,1.14,-0.21,9.95,-0.03,-0.01,-0.00,31.11
28456190,1718,1,207663,239925,1.14,-0.19,9.92,-0.03,-0.01,-0.00,31.11
28496190,1825,1,207715,239826,1.16,-0.22,9.93,-0.03,-0.01,-0.01,31.11
28536190,1809,1,207675,239668,1.15,-0.21,9.92,-0.03,-0.01,-0.00,31.11
28576190,1819,1,207721,239809,1.15,-0.21,9.93,-0.03,-0.01,-0.00,31.11
28616190,1744,1,207836,240156,1.14,-0.21,9.94,-0.03,-0.01,-0.00,31.11
28656877,1750,1,207953,240424,1.15,-0.22,9.96,-0.03,-0.01,-0.01,30.81
28697191,1768,1,208124,240545,1.13,-0.22,9.92,-0.03,-0.01,-0.00,30.81
28737191,1743,1,208190,240861,1.13,-0.23,9.94,-0.03,-0.01,-0.01,30.81
28777191,1757,1,208322,241186,1.14,-0.21,9.93,-0.03,-0.01,-0.00,30.81
28817191,1703,1,208339,240555,1.15,-0.23,9.96,-0.03,-0.01,-0.00,30.81
28856190,1850,1,207771,239187,1.14,-0.23,9.93,-0.03,-0.01,-0.00,30.81
28896190,1840,1,207443,238527,1.14,-0.20,9.93,-0.03,-0.01,-0.00,30.81
28936190,1818,1,207419,238713,1.15,-0.22,9.92,-0.03,-0.01,-0.00,30.81
28976190,1818,1,207548,239459,1.15,-0.24,9.94,-0.03,-0.01,-0.00,30.81
29016190,1774,1,207856,240117,1.13,-0.23,9.96,-0.03,-0.01,-0.00,30.81
29056190,1823,1,208020,240354,1.15,-0.19,9.95,-0.03,-0.01,-0.01,30.81
29096191,1840,1,208062,240333,1.15,-0.21,9.94,-0.03,-0.01,-0.00,30.81
29136190,1795,1,207945,240429,1.13,-0.24,9.94,-0.03,-0.01,-0.00,30.81
29176190,1834,1,207993,240785,1.15,-0.21,9.96,-0.03,-0.01,-0.00,30.81
29216190,1817,1,208074,241320,1.16,-0.22,9.95,-0.03,-0.01,-0.00,30.81
29256190,1846,1,208249,241484,1.13,-0.25,9.92,-0.03,-0.01,-0.00,30.81
29296190,1857,1,208264,241579,1.16,-0.23,9.95,-0.03,-0.01,-0.01,30.81
29336190,1826,1,208272,241651,1.14,-0.22,9.92,-0.03,-0.01,-0.00,30.81
29376190,1801,1,208218,241172,1.15,-0.22,9.96,-0.03,-0.01,-0.00,30.81
29416190,1807,1,207711,239414,1.14,-0.24,9.95,-0.03,-0.01,-0.00,30.81
29456190,1793,1,207197,238674,1.13,-0.21,9.94,-0.03,-0.01,-0.00,30.81
29496190,1809,1,207155,238797,1.14,-0.20,9.92,-0.03,-0.01,-0.00,30.81
29536190,1813,1,207336,239174,1.15,-0.21,9.92,-0.03,-0.01,-0.00,30.81
29576190,1823,1,207531,239649,1.14,-0.22,9.94,-0.03,-0.01,-0.00,30.81
29616190,1809,1,207612,239677,1.13,-0.21,9.91,-0.03,-0.01,-0.00,30.81
29656877,1756,1,207577,239581,1.13,-0.21,9.92,-0.03,-0.01,-0.00,30.67
29697190,1775,1,207589,239671,1.15,-0.22,9.93,-0.03,-0.01,-0.00,30.67
29737190,1781,1,207682,239947,1.15,-0.23,9.92,-0.03,-0.01,-0.00,30.67
29777190,1814,1,207740,240397,1.14,-0.21,9.96,-0.04,-0.01,-0.01,30.67
29817191,1823,1,207826,240585,1.15,-0.21,9.90,-0.03,-0.01,-0.01,30.67
29857190,1797,1,207952,240680,1.15,-0.20,9.95,-0.03,-0.01,-0.01,30.67
29897190,1798,1,207994,240872,1.14,-0.23,9.96,-0.03,-0.01,-0.00,30.67
29937190,1795,1,208029,240478,1.15,-0.21,9.92,-0.03,-0.01,-0.00,30.67
29977190,1730,1,207503,238514,1.12,-0.19,9.92,-0.03,-0.01,-0.00,30.67
30017190,1846,1,206939,237530,1.17,-0.25,10.01,-0.03,-0.01,-0.00,30.67
30057210,1825,1,206876,237266,1.15,-0.21,9.97,-0.03,-0.01,-0.00,30.67
30097190,1831,1,206900,237342,1.16,-0.21,9.95,-0.03,-0.01,-0.00,30.67
30137190,1805,1,206970,237568,1.15,-0.21,9.92,-0.03,-0.01,-0.00,30.67
30177190,1798,1,207073,237660,1.14,-0.21,9.96,-0.03,-0.01,-0.00,30.67
30217190,1783,1,207126,237702,1.14,-0.22,9.93,-0.03,-0.01,-0.01,30.67
30257196,1789,1,207067,237460,1.12,-0.22,9.94,-0.03,-0.01,-0.00,30.67
30297190,1817,1,207085,237392,1.14,-0.21,9.97,-0.03,-0.01,-0.00,30.67
30337190,1875,1,207141,237728,1.13,-0.20,9.96,-0.03,-0.01,-0.00,30.67
30377190,1840,1,207259,237937,1.13,-0.22,9.95,-0.03,-0.01,-0.00,30.67
30417190,1897,1,207329,238256,1.13,-0.20,9.94,-0.03,-0.01,-0.00,30.67
30457190,1902,1,207452,238546,1.14,-0.19,9.94,-0.03,-0.01,-0.00,30.67
30497190,1883,1,207470,238558,1.15,-0.21,9.93,-0.03,-0.01,-0.00,30.67
30537190,1898,1,207154,236868,1.13,-0.19,9.94,-0.03,-0.01,-0.00,30.67
30577190,1886,1,206498,235593,1.14,-0.23,9.94,-0.03,-0.01,-0.00,30.67
30617190,1943,1,206418,235627,1.12,-0.18,9.93,-0.03,-0.01,-0.00,30.67
30657877,1875,1,206552,235773,1.13,-0.23,9.87,-0.03,-0.01,-0.00,31.01
30696190,1899,1,206661,236069,1.15,-0.20,9.92,-0.03,-0.01,-0.01,31.01
30736190,1876,1,206817,236599,1.13,-0.23,9.95,-0.03,-0.01,-0.00,31.01
30776190,1876,1,206951,236813,1.12,-0.22,9.92,-0.03,-0.01,-0.00,31.01
30816190,1856,1,206987,236980,1.14,-0.22,9.92,-0.03,-0.01,-0.01,31.01
30856190,1863,1,206994,237196,1.14,-0.22,9.94,-0.03,-0.01,-0.00,31.01
30896191,1864,1,207119,237483,1.13,-0.23,9.96,-0.03,-0.01,-0.00,31.01
30936191,1840,1,207183,237655,1.13,-0.23,9.96,-0.03,-0.01,-0.00,31.01
30976191,1839,1,207206,237761,1.13,-0.20,9.93,-0.03,-0.01,-0.00,31.01
31016191,1828,1,207298,237971,1.14,-0.21,9.92,-0.03,-0.01,-0.00,31.01
31056191,1823,1,207291,238219,1.14,-0.23,9.94,-0.03,-0.01,-0.00,31.01
31096191,1843,1,207404,238197,1.13,-0.20,9.96,-0.03,-0.01,-0.00,31.01
31136190,1811,1,207131,236230,1.13,-0.22,9.92,-0.03,-0.01,-0.00,31.01
31176191,1776,1,206356,234408,1.14,-0.23,9.94,-0.03,-0.01,-0.00,31.01
31216190,1787,1,206174,234306,1.11,-0.21,9.95,-0.03,-0.01,-0.00,31.01
31256191,1792,1,206321,234919,1.13,-0.20,9.95,-0.03,-0.01,-0.00,31.01
31296190,1867,1,206547,235634,1.12,-0.19,9.99,-0.03,-0.01,-0.01,31.01
31336190,1744,1,206734,235945,1.13,-0.22,9.94,-0.03,-0.01,-0.00,31.01
31376190,1765,1,206752,235982,1.13,-0.21,9.93,-0.03,-0.01,-0.00,31.01
31416191,1790,1,206791,235975,1.13,-0.21,9.95,-0.03,-0.01,-0.00,31.01
31456190,1812,1,206833,236109,1.12,-0.19,9.95,-0.03,-0.01,-0.00,31.01
31496191,1804,1,206982,236411,1.15,-0.22,9.95,-0.03,-0.01,-0.00,31.01
31536190,1771,1,207056,236671,1.13,-0.21,9.95,-0.03,-0.01,-0.00,31.01
31576191,1805,1,207196,236874,1.13,-0.20,9.93,-0.03,-0.01,-0.00,31.01
31616190,1803,1,207225,237068,1.14,-0.23,9.94,-0.03,-0.01,-0.00,31.01
31656190,1786,1,207294,237105,1.14,-0.20,9.92,-0.03,-0.01,-0.00,31.01
31696882,1738,1,207356,237259,1.13,-0.21,9.93,-0.03,-0.01,-0.01,30.99
31735191,1872,1,207314,236300,1.13,-0.23,9.93,-0.03,-0.01,-0.00,30.99
31775191,1872,1,206579,233815,1.14,-0.22,9.95,-0.03,-0.01,-0.00,30.99
31815190,1795,1,206096,232941,1.13,-0.21,9.95,-0.03,-0.01,-0.00,30.99
31855190,1792,1,206201,233331,1.11,-0.20,9.94,-0.03,-0.01,-0.00,30.99
31895221,1791,1,206476,233979,1.12,-0.19,9.92,-0.03,-0.01,-0.00,30.99
31935190,1701,1,206834,234859,1.14,-0.22,9.97,-0.03,-0.01,-0.00,30.99
31975190,1795,1,207073,235269,1.15,-0.21,9.97,-0.03,-0.01,-0.00,30.99
32015190,1799,1,207059,235682,1.13,-0.21,9.93,-0.03,-0.01,-0.01,30.99
32055190,1807,1,207159,236265,1.15,-0.22,9.94,-0.03,-0.01,-0.00,30.99
32095190,1871,1,207272,236780,1.13,-0.22,9.93,-0.03,-0.01,-0.00,30.99
32135190,1856,1,207423,237148,1.12,-0.19,9.98,-0.03,-0.01,-0.00,30.99
32175190,1861,1,207550,237581,1.11,-0.21,9.96,-0.03,-0.01,-0.01,30.99
32215190,1863,1,207701,237859,1.13,-0.21,9.95,-0.03,-0.01,-0.00,30.99
32255190,1855,1,207716,238236,1.14,-0.22,9.93,-0.03,-0.01,-0.01,30.99
32295191,1893,1,207834,238702,1.12,-0.19,9.92,-0.03,-0.01,-0.00,30.99
32335190,1872,1,207793,238189,1.12,-0.19,9.91,-0.03,-0.01,-0.00,30.99
32375190,1856,1,207323,236236,1.12,-0.20,9.94,-0.03,-0.01,-0.01,30.99
32415190,1870,1,206850,235696,1.14,-0.21,9.93,-0.03,-0.01,-0.00,30.99
32455190,1823,1,207004,236291,1.13,-0.21,9.94,-0.03,-0.01,-0.00,30.99
32495190,1873,1,207196,237027,1.13,-0.19,9.96,-0.03,-0.01,-0.00,30.99
32535190,1842,1,207466,237865,1.14,-0.23,9.94,-0.03,-0.01,-0.01,30.99
32575190,1800,1,207672,238106,1.13,-0.21,9.92,-0.03,-0.01,-0.00,30.99
32615190,1849,1,207721,238204,1.16,-0.20,9.94,-0.03,-0.01,-0.00,30.99
32655190,1717,1,207748,238478,1.12,-0.21,9.93,-0.03,-0.01,-0.00,30.99
32695190,1808,1,207827,238829,1.14,-0.23,9.90,-0.04,-0.01,-0.00,30.99
32735877,1793,1,207952,239082,1.12,-0.21,9.92,-0.03,-0.01,-0.00,30.87
32776190,1819,1,208109,239450,1.13,-0.20,9.96,-0.03,-0.01,-0.01,30.87
32816190,1814,1,208173,239850,1.13,-0.22,9.95,-0.03,-0.01,-0.00,30.87
32856190,1767,1,208281,240312,1.13,-0.19,9.92,-0.03,-0.01,-0.00,30.87
32896190,1891,1,208422,240541,1.15,-0.23,9.94,-0.03,-0.01,-0.00,30.87
32936190,1860,1,208191,238763,1.13,-0.21,9.95,-0.03,-0.01,-0.00,30.87
32976190,1840,1,207468,237363,1.12,-0.20,9.94,-0.03,-0.01,-0.01,30.87
33016190,1856,1,207262,237366,1.13,-0.22,9.93,-0.03,-0.01,-0.00,30.87
33056190,1791,1,207442,238011,1.11,-0.22,9.94,-0.03,-0.01,-0.00,30.87
33096190,1873,1,207675,238637,1.14,-0.22,9.96,-0.03,-0.01,-0.00,30.87
33136190,1858,1,207815,239040,1.13,-0.21,9.94,-0.03,-0.01,-0.01,30.87
33176190,1838,1,207883,239077,1.13,-0.22,9.92,-0.03,-0.01,-0.00,30.87
33216190,1815,1,207867,239155,1.15,-0.20,9.95,-0.03,-0.01,-0.00,30.87
33256190,1833,1,207901,239389,1.15,-0.22,9.94,-0.03,-0.01,-0.00,30.87
33296190,1846,1,207974,239866,1.13,-0.19,9.94,-0.03,-0.01,-0.00,30.87
33336190,1805,1,208084,240258,1.11,-0.23,9.96,-0.03,-0.01,-0.01,30.87
33376190,1808,1,208152,240597,1.14,-0.22,9.94,-0.03,-0.01,-0.01,30.87
33416190,1799,1,208288,240970,1.13,-0.21,9.93,-0.03,-0.01,-0.00,30.87
33456190,1826,1,208333,241156,1.11,-0.20,9.94,-0.03,-0.01,-0.00,30.87
33496190,1818,1,208067,239468,1.15,-0.19,9.89,-0.03,-0.01,-0.00,30.87
33536205,1791,1,207383,237887,1.13,-0.21,9.94,-0.03,-0.01,-0.00,30.87
33576190,1806,1,207123,237678,1.15,-0.23,9.94,-0.03,-0.01,-0.00,30.87
33616190,1734,1,207034,238077,1.11,-0.20,9.93,-0.04,-0.01,-0.01,30.87
33656190,1793,1,207246,238502,1.13,-0.19,9.93,-0.03,-0.01,-0.00,30.87
33696190,1744,1,207425,238837,1.16,-0.21,9.91,-0.03,-0.01,-0.00,30.87
33736877,1744,1,207689,238997,1.12,-0.20,9.95,-0.03,-0.01,-0.01,30.91
33775190,1757,1,207691,239122,1.12,-0.22,9.92,-0.03,-0.01,-0.01,30.91
33815191,1745,1,207792,239445,1.14,-0.20,9.94,-0.03,-0.01,-0.01,30.91
33855190,1776,1,207886,239689,1.12,-0.21,9.92,-0.03,-0.01,-0.01,30.91
33895190,1770,1,208037,239897,1.12,-0.21,9.90,-0.03,-0.01,-0.01,30.91
33935191,1775,1,208079,240205,1.12,-0.21,9.96,-0.03,-0.01,-0.01,30.91
33975191,1759,1,208222,240554,1.13,-0.21,9.92,-0.03,-0.01,-0.00,30.91
34015190,1783,1,208337,240690,1.14,-0.21,9.97,-0.03,-0.01,-0.01,30.91
34055191,1813,1,208155,239189,1.13,-0.21,9.95,-0.03,-0.01,-0.01,30.91
34095190,1813,1,207522,237563,1.12,-0.23,9.91,-0.03,-0.01,-0.00,30.91
34135190,1788,1,207268,237428,1.13,-0.22,9.94,-0.03,-0.01,-0.00,30.91
34175190,1707,1,207394,237917,1.11,-0.21,9.96,-0.03,-0.01,-0.00,30.91
34215190,1842,1,207553,238284,1.13,-0.22,9.91,-0.03,-0.01,-0.00,30.91
34255190,1782,1,207722,238673,1.14,-0.21,9.94,-0.03,-0.01,-0.00,30.91
34295190,1792,1,207817,238853,1.12,-0.22,9.95,-0.03,-0.01,-0.00,30.91
34335190,1818,1,207818,239024,1.14,-0.20,9.94,-0.03,-0.01,-0.00,30.91
34375190,1757,1,207963,239347,1.13,-0.19,9.95,-0.03,-0.01,-0.00,30.91
34415190,1833,1,208039,239765,1.13,-0.20,9.93,-0.03,-0.01,-0.00,30.91
34455190,1807,1,208182,240080,1.13,-0.23,9.96,-0.03,-0.01,-0.00,30.91
34495190,1849,1,208304,240391,1.11,-0.20,9.95,-0.03,-0.01,-0.00,30.91
34535190,1791,1,208350,240600,1.12,-0.20,9.95,-0.03,-0.01,-0.01,30.91
34575190,1793,1,208341,240287,1.13,-0.21,9.93,-0.03,-0.01,-0.00,30.91
34615190,1845,1,207941,238601,1.13,-0.21,9.94,-0.03,-0.01,-0.00,30.91
34655190,1839,1,207437,237557,1.13,-0.23,9.97,-0.03,-0.01,-0.01,30.91
34695190,1805,1,207349,237666,1.14,-0.21,9.96,-0.03,-0.01,-0.00,30.91
34735191,1812,1,207462,238185,1.12,-0.21,9.91,-0.03,-0.01,-0.00,30.91
34775877,1803,1,207689,238858,1.12,-0.23,9.92,-0.03,-0.01,-0.00,30.85
34814190,1901,1,207825,239136,1.10,-0.20,9.96,-0.03,-0.01,-0.00,30.85
34854190,1872,1,207897,239283,1.13,-0.21,9.95,-0.03,-0.01,-0.01,30.85
34894190,1826,1,207777,239389,1.14,-0.23,9.94,-0.03,-0.01,-0.00,30.85
34934190,1895,1,207858,239637,1.12,-0.21,9.92,-0.03,-0.01,-0.01,30.85
34974191,1950,1,207910,239853,1.13,-0.20,9.94,-0.03,-0.01,-0.01,30.85
35014190,1840,1,207951,240161,1.11,-0.21,9.91,-0.03,-0.01,-0.00,30.85
35054190,1859,1,207994,240662,1.14,-0.21,9.93,-0.04,-0.02,-0.00,30.85
35094190,1808,1,208145,240895,1.13,-0.19,9.93,-0.03,-0.01,-0.00,30.85
35134190,1896,1,208084,239847,1.12,-0.23,9.96,-0.03,-0.01,-0.01,30.85
35174206,1909,1,207660,238442,1.13,-0.23,9.97,-0.03,-0.01,-0.00,30.85
35214190,1838,1,207276,238502,1.14,-0.20,9.95,-0.04,-0.02,-0.00,30.85
35254190,1894,1,207254,238844,1.15,-0.21,9.93,-0.03,-0.01,-0.00,30.85
35294190,1872,1,207347,239260,1.12,-0.22,9.94,-0.03,-0.01,-0.00,30.85
35334191,1859,1,207468,239696,1.13,-0.22,9.96,-0.03,-0.01,-0.00,30.85
35374209,1824,1,207554,239802,1.14,-0.19,9.94,-0.03,-0.01,-0.00,30.85
35414190,1842,1,207625,239776,1.13,-0.20,9.93,-0.03,-0.01,-0.00,30.85
35454191,1847,1,207697,239812,1.13,-0.22,9.94,-0.03,-0.01,-0.01,30.85
35494191,1879,1,207845,239940,1.16,-0.19,9.92,-0.03,-0.01,-0.00,30.85
35534190,1873,1,207853,240130,1.12,-0.22,9.93,-0.03,-0.01,-0.00,30.85
35574190,1829,1,207863,240446,1.14,-0.24,9.98,-0.03,-0.01,-0.00,30.85
35614191,1793,1,207935,240740,1.13,-0.20,9.94,-0.03,-0.01,-0.00,30.85
35654190,1837,1,207986,240960,1.13,-0.21,9.96,-0.03,-0.01,-0.01,30.85
35694190,1800,1,207914,240184,1.13,-0.22,9.93,-0.03,-0.01,-0.00,30.85
35734190,1795,1,207508,238840,1.14,-0.22,9.94,-0.03,-0.01,-0.00,30.85
35774190,1799,1,207261,238446,1.14,-0.20,9.93,-0.03,-0.01,-0.00,30.85
35814877,1778,1,207245,238565,1.12,-0.21,9.92,-0.03,-0.01,-0.00,30.87
35855190,1719,1,207316,238971,1.12,-0.23,9.93,-0.03,-0.01,-0.00,30.87
35895190,1791,1,207488,239353,1.15,-0.23,9.94,-0.03,-0.01,-0.01,30.87
35935190,1757,1,207629,239533,1.14,-0.20,9.91,-0.03,-0.01,-0.01,30.87
35975190,1822,1,207620,239704,1.14,-0.21,9.94,-0.03,-0.01,-0.00,30.87
36015190,1776,1,207575,239991,1.15,-0.21,9.94,-0.03,-0.01,-0.00,30.87
36055190,1776,1,207636,240265,1.13,-0.21,9.97,-0.03,-0.01,-0.00,30.87
36095190,1778,1,207667,240578,1.13,-0.21,9.92,-0.03,-0.01,-0.00,30.87
36135190,1776,1,207822,240803,1.13,-0.20,9.96,-0.03,-0.01,-0.00,30.87
36175190,1773,1,207808,241101,1.15,-0.19,9.93,-0.03,-0.01,-0.00,30.87
36215190,1763,1,207898,241294,1.13,-0.21,9.93,-0.03,-0.01,-0.01,30.87
36255190,1728,1,207959,241501,1.13,-0.22,9.95,-0.03,-0.01,-0.00,30.87
36295190,1776,1,207885,240733,1.14,-0.20,9.92,-0.03,-0.01,-0.00,30.87
36335190,1775,1,207336,239515,1.13,-0.20,9.95,-0.03,-0.01,-0.00,30.87
36375190,1755,1,207075,239156,1.13,-0.22,9.94,-0.03,-0.01,-0.00,30.87
36415190,1744,1,207053,239314,1.13,-0.21,9.93,-0.03,-0.01,-0.00,30.87
36455190,1797,1,207230,239694,1.13,-0.21,9.94,-0.03,-0.01,-0.00,30.87
36495190,1760,1,207306,240151,1.13,-0.21,9.93,-0.03,-0.01,-0.01,30.87
36535190,1791,1,207522,240274,1.14,-0.22,9.94,-0.03,-0.01,-0.01,30.87
36575190,1774,1,207541,240309,1.14,-0.20,9.92,-0.03,-0.01,-0.00,30.87
36615190,1794,1,207566,240479,1.13,-0.22,9.93,-0.03,-0.01,-0.00,30.87
36655190,1777,1,207553,240681,1.15,-0.23,9.96,-0.03,-0.01,-0.00,30.87
36695190,1799,1,207680,240811,1.15,-0.20,9.93,-0.03,-0.01,-0.00,30.87
36735190,1791,1,207715,241051,1.14,-0.21,9.93,-0.03,-0.01,-0.00,30.87
36775190,1744,1,207830,241308,1.11,-0.20,9.95,-0.03,-0.01,-0.01,30.87
36815916,1762,1,208005,241544,1.13,-0.21,9.94,-0.03,-0.01,-0.01,30.93
36854191,1779,1,208073,241585,1.13,-0.22,9.93,-0.03,-0.01,-0.00,30.93
36894190,1792,1,208002,240555,1.13,-0.23,9.93,-0.03,-0.00,-0.00,30.93
36934191,1771,1,207624,239102,1.15,-0.21,9.94,-0.03,-0.01,-0.00,30.93
36974191,1744,1,207405,238491,1.12,-0.22,9.92,-0.03,-0.01,-0.00,30.93
37014219,1793,1,207439,238350,1.13,-0.19,9.94,-0.03,-0.01,-0.00,30.93
37054190,1822,1,207589,238526,1.13,-0.22,9.92,-0.03,-0.01,-0.00,30.93
37094190,1821,1,207798,238814,1.14,-0.20,9.94,-0.03,-0.01,-0.00,30.93
37134190,1878,1,207927,238940,1.14,-0.20,9.94,-0.03,-0.01,-0.00,30.93
37174190,1849,1,207958,239098,1.13,-0.22,9.93,-0.03,-0.01,-0.00,30.93
37214190,1814,1,207962,239362,1.16,-0.23,9.98,-0.03,-0.01,-0.00,30.93
37254190,1856,1,208084,239618,1.12,-0.20,9.98,-0.03,-0.01,-0.00,30.93
37294191,1844,1,208193,239753,1.13,-0.21,9.94,-0.03,-0.01,-0.00,30.93
37334191,1833,1,208262,239845,1.15,-0.22,9.93,-0.03,-0.01,-0.00,30.93
37374191,1846,1,208379,239942,1.13,-0.20,9.93,-0.03,-0.01,-0.01,30.93
37414190,1852,1,208490,240052,1.13,-0.23,9.95,-0.03,-0.01,-0.00,30.93
37454190,1876,1,208474,240173,1.14,-0.18,9.87,-0.03,-0.01,-0.00,30.93
37494190,1817,1,208481,240240,1.12,-0.20,9.93,-0.03,-0.01,-0.00,30.93
37534191,1841,1,208522,239369,1.14,-0.22,9.90,-0.03,-0.01,-0.00,30.93
37574191,1775,1,207975,237601,1.15,-0.22,9.95,-0.03,-0.01,-0.00,30.93
37614191,1822,1,207503,236889,1.13,-0.22,9.94,-0.03,-0.01,-0.01,30.93
37654191,1839,1,207522,237007,1.14,-0.22,9.93,-0.03,-0.01,-0.01,30.93
37694191,1709,1,207592,237358,1.14,-0.23,9.92,-0.03,-0.01,-0.00,30.93
37734190,1891,1,207739,237719,1.14,-0.21,9.93,-0.03,-0.01,-0.00,30.93
37774190,1824,1,207869,237798,1.12,-0.18,9.90,-0.03,-0.01,-0.00,30.93
37814190,1864,1,207952,237883,1.15,-0.21,9.97,-0.03,-0.01,-0.00,30.93
37854877,1813,1,208027,238000,1.15,-0.21,9.95,-0.03,-0.01,-0.00,30.77
37893190,1872,1,208119,238382,1.14,-0.22,9.93,-0.03,-0.01,-0.00,30.77
37933190,1878,1,208210,238748,1.14,-0.21,9.93,-0.03,-0.01,-0.01,30.77
37973191,1874,1,208350,239103,1.13,-0.19,9.95,-0.03,-0.01,-0.00,30.77
38013190,1849,1,208469,239379,1.14,-0.22,9.95,-0.03,-0.01,-0.00,30.77
38053191,1892,1,208561,239593,1.14,-0.21,9.94,-0.03,-0.01,-0.01,30.77
38093191,1846,1,208633,239841,1.13,-0.20,9.94,-0.03,-0.01,-0.00,30.77
38133190,1869,1,208706,240081,1.13,-0.21,9.93,-0.03,-0.01,-0.00,30.77
38173190,1830,1,208790,240327,1.13,-0.22,9.92,-0.03,-0.01,-0.00,30.77
38213191,1873,1,208922,240493,1.13,-0.22,9.93,-0.03,-0.01,-0.00,30.77
38253191,1813,1,208846,239337,1.14,-0.21,9.94,-0.03,-0.01,-0.00,30.77
38293191,1817,1,208244,237509,1.13,-0.21,9.96,-0.03,-0.01,-0.01,30.77
38333191,1795,1,207962,236979,1.13,-0.21,9.94,-0.03,-0.01,-0.00,30.77
38373191,1749,1,208015,237527,1.15,-0.20,9.91,-0.03,-0.02,-0.01,30.77
38413190,1809,1,208121,238434,1.13,-0.23,9.92,-0.04,-0.02,-0.01,30.77
38453236,1817,1,208194,238861,1.14,-0.19,9.96,-0.03,-0.01,-0.00,30.77
38493190,1831,1,208191,239058,1.13,-0.19,9.95,-0.03,-0.01,-0.00,30.77
38533191,1841,1,208190,239040,1.13,-0.19,9.92,-0.03,-0.01,-0.00,30.77
38573191,1841,1,208248,239104,1.14,-0.21,9.91,-0.03,-0.01,-0.00,30.77
38613190,1882,1,208315,239130,1.13,-0.19,9.94,-0.03,-0.01,-0.00,30.77
38653243,1883,1,208417,239401,1.13,-0.21,9.97,-0.03,-0.01,-0.00,30.77
38693190,1905,1,208488,239837,1.14,-0.21,9.94,-0.04,-0.01,-0.01,30.77
38733190,1897,1,208432,240164,1.16,-0.23,9.96,-0.03,-0.01,-0.01,30.77
38773190,1900,1,208543,240277,1.12,-0.21,9.94,-0.03,-0.01,-0.00,30.77
38813191,1856,1,208695,240333,1.13,-0.20,9.95,-0.03,-0.01,-0.00,30.77
38853190,1904,1,208786,240403,1.14,-0.20,9.93,-0.03,-0.01,-0.00,30.77
38893877,1837,1,208687,240530,1.11,-0.22,9.94,-0.03,-0.01,-0.01,30.77
38934191,1903,1,208781,240840,1.14,-0.21,9.92,-0.03,-0.01,-0.00,30.77
38974191,1854,1,208709,241133,1.13,-0.21,9.97,-0.03,-0.01,-0.00,30.77
39014191,1870,1,208765,240937,1.14,-0.24,9.96,-0.03,-0.01,-0.00,30.77
39054191,1855,1,208232,239261,1.11,-0.19,9.97,-0.03,-0.01,-0.01,30.77
39094190,1851,1,207715,238297,1.14,-0.20,9.94,-0.03,-0.01,-0.00,30.77
39134191,1831,1,207703,238372,1.10,-0.22,9.96,-0.03,-0.01,-0.00,30.77
39174190,1811,1,207817,238789,1.14,-0.21,9.94,-0.03,-0.01,-0.01,30.77
39214191,1836,1,207985,239278,1.13,-0.21,9.95,-0.03,-0.01,-0.00,30.77
39254190,1821,1,208155,239725,1.12,-0.21,9.93,-0.03,-0.01,-0.00,30.77
39294191,1854,1,208227,239850,1.12,-0.23,9.93,-0.03,-0.01,-0.00,30.77
39334191,1813,1,208302,240140,1.15,-0.21,9.94,-0.03,-0.01,-0.00,30.77
39374190,1815,1,208361,240347,1.12,-0.21,9.95,-0.03,-0.01,-0.00,30.77
39414190,1783,1,208415,240659,1.14,-0.21,9.93,-0.03,-0.01,-0.00,30.77
39454191,1824,1,208444,241023,1.12,-0.21,9.91,-0.03,-0.01,-0.00,30.77
39494191,1813,1,208624,241278,1.12,-0.21,9.94,-0.03,-0.01,-0.00,30.77
39532191,1920,1,208620,241610,1.12,-0.22,9.92,-0.03,-0.01,-0.01,30.77
39572191,1863,1,208748,241791,1.12,-0.20,9.91,-0.03,-0.01,-0.01,30.77
39612190,1937,1,208755,242102,1.13,-0.22,9.93,-0.03,-0.01,-0.00,30.77
39652190,1943,1,208847,242268,1.13,-0.21,9.95,-0.03,-0.01,-0.01,30.77
39692191,1941,1,208923,242550,1.13,-0.20,9.92,-0.03,-0.01,-0.01,30.77
39732190,1936,1,209109,242460,1.15,-0.21,9.93,-0.03,-0.01,-0.01,30.77
39772191,1953,1,208792,241105,1.14,-0.21,9.93,-0.03,-0.01,-0.01,30.77
39812191,1931,1,208326,240027,1.12,-0.22,9.95,-0.03,-0.01,-0.00,30.77
39852190,1987,1,208119,239967,1.13,-0.23,9.94,-0.04,-0.01,-0.00,30.77
39893191,1920,1,208273,240261,1.13,-0.21,9.92,-0.03,-0.01,-0.00,30.77
39933877,1889,1,208302,240616,1.12,-0.21,9.92,-0.03,-0.01,-0.00,30.97
39972190,1951,1,208324,240817,1.14,-0.21,9.94,-0.03,-0.01,-0.00,30.97
40012190,1933,1,208351,240925,1.12,-0.21,9.95,-0.03,-0.01,-0.00,30.97
40052190,1899,1,208386,240850,1.15,-0.23,9.93,-0.03,-0.01,-0.00,30.97
40092221,1904,1,208428,240939,1.14,-0.21,9.96,-0.03,-0.01,-0.00,30.97
40132191,1856,1,208505,241171,1.14,-0.22,9.95,-0.03,-0.01,-0.00,30.97
40172190,1870,1,208618,241418,1.13,-0.23,9.93,-0.03,-0.01,-0.00,30.97
40212190,1837,1,208747,241586,1.14,-0.21,9.93,-0.03,-0.01,-0.01,30.97
40252191,1850,1,208860,241744,1.12,-0.22,9.95,-0.03,-0.01,-0.00,30.97
40292194,1845,1,208912,241904,1.13,-0.22,9.92,-0.03,-0.01,-0.00,30.97
40332190,1807,1,208896,242046,1.12,-0.21,9.93,-0.03,-0.01,-0.00,30.97
40372191,1872,1,208961,242217,1.15,-0.23,9.96,-0.03,-0.01,-0.00,30.97
40412191,1834,1,208996,242483,1.13,-0.21,9.92,-0.03,-0.01,-0.00,30.97
40452191,1808,1,208976,241980,1.12,-0.22,9.94,-0.03,-0.01,-0.01,30.97
40492190,1854,1,208447,240308,1.15,-0.22,9.94,-0.03,-0.01,-0.00,30.97
40532191,1791,1,208053,239465,1.13,-0.21,9.95,-0.03,-0.01,-0.00,30.97
40572191,1808,1,207988,239532,1.13,-0.21,9.92,-0.03,-0.01,-0.00,30.97
40612191,1778,1,208136,239860,1.15,-0.22,9.97,-0.04,-0.01,-0.00,30.97
40652191,1798,1,208128,240210,1.14,-0.21,9.96,-0.03,-0.01,-0.00,30.97
40692190,1781,1,208231,240556,1.13,-0.21,9.96,-0.03,-0.01,-0.01,30.97
40732190,1791,1,208307,240731,1.13,-0.20,9.92,-0.03,-0.01,-0.00,30.97
40772191,1790,1,208371,240852,1.14,-0.23,9.94,-0.03,-0.01,-0.01,30.97
40812191,1771,1,208389,240988,1.15,-0.20,9.92,-0.03,-0.01,-0.01,30.97
40852191,1762,1,208505,241111,1.11,-0.20,9.94,-0.03,-0.01,-0.00,30.97
40892190,1806,1,208588,241249,1.14,-0.21,9.96,-0.03,-0.01,-0.00,30.97
40933190,1791,1,208709,241411,1.14,-0.19,9.93,-0.03,-0.01,-0.01,30.97
40973877,1744,1,208732,241552,1.13,-0.20,9.94,-0.03,-0.01,-0.01,30.87
41012191,1783,1,208795,241705,1.13,-0.21,9.93,-0.03,-0.01,-0.00,30.87
41052191,1796,1,208885,241883,1.14,-0.23,9.94,-0.03,-0.01,-0.01,30.87
41092191,1759,1,208982,242139,1.13,-0.21,9.91,-0.03,-0.01,-0.00,30.87
41132191,1912,1,209047,242295,1.14,-0.22,9.93,-0.03,-0.01,-0.00,30.87
41172191,1853,1,208908,241077,1.13,-0.20,9.95,-0.03,-0.01,-0.01,30.87
41212191,1847,1,208312,239543,1.14,-0.21,9.96,-0.03,-0.01,-0.01,30.87
41252191,1839,1,207966,239221,1.11,-0.22,9.92,-0.04,-0.01,-0.01,30.87
41292190,1850,1,207954,239663,1.14,-0.21,9.91,-0.04,-0.01,-0.01,30.87
41332191,1822,1,208085,240058,1.13,-0.23,9.93,-0.03,-0.01,-0.00,30.87
41372191,1808,1,208197,240518,1.13,-0.21,9.93,-0.03,-0.01,-0.00,30.87
41412191,1819,1,208362,240670,1.14,-0.22,9.89,-0.03,-0.01,-0.00,30.87
41452191,1842,1,208429,240485,1.12,-0.22,9.92,-0.03,-0.00,-0.00,30.87
41492190,1823,1,208522,240304,1.13,-0.20,9.92,-0.03,-0.00,-0.00,30.87
41532191,1805,1,208631,240303,1.13,-0.21,9.94,-0.03,-0.01,-0.00,30.87
41572191,1799,1,208740,240408,1.12,-0.22,9.96,-0.03,-0.01,-0.00,30.87
41612191,1751,1,208881,240755,1.13,-0.20,9.91,-0.03,-0.01,-0.00,30.87
41652190,1718,1,209061,241301,1.13,-0.20,9.92,-0.03,-0.01,-0.01,30.87
41692191,1684,1,209190,241737,1.13,-0.24,9.96,-0.03,-0.01,-0.01,30.87
41732196,1746,1,209295,242075,1.15,-0.21,9.94,-0.03,-0.01,-0.01,30.87
41772191,1725,1,209478,242537,1.14,-0.19,9.95,-0.03,-0.01,-0.00,30.87
41812191,1733,1,209534,242825,1.13,-0.21,9.95,-0.03,-0.01,-0.00,30.87
41852190,1751,1,209453,241637,1.12,-0.23,9.97,-0.03,-0.01,-0.00,30.87
41892190,1741,1,208856,239788,1.13,-0.22,9.93,-0.03,-0.01,-0.00,30.87
41933190,1751,1,208202,239286,1.14,-0.21,9.93,-0.03,-0.01,-0.01,30.87
41973878,1718,1,208478,239364,1.12,-0.23,9.91,-0.03,-0.01,-0.00,31.11
42012191,1789,1,208640,239530,1.13,-0.21,9.95,-0.03,-0.01,-0.00,31.11
42052191,1776,1,208835,239876,1.13,-0.21,9.94,-0.03,-0.01,-0.00,31.11
42092191,1778,1,208975,240016,1.13,-0.22,9.94,-0.03,-0.01,-0.00,31.11
42132215,1735,1,209014,239990,1.12,-0.22,9.94,-0.03,-0.01,-0.00,31.11
42172191,1742,1,209023,240151,1.13,-0.20,9.93,-0.03,-0.01,-0.00,31.11
42212191,1765,1,209085,240685,1.12,-0.19,9.92,-0.03,-0.01,-0.00,31.11
42252191,1774,1,209240,241219,1.12,-0.22,9.92,-0.03,-0.01,-0.01,31.11
42292191,1807,1,209366,241559,1.13,-0.21,9.93,-0.03,-0.01,-0.01,31.11
42332190,1780,1,209394,241854,1.14,-0.19,9.93,-0.03,-0.01,-0.00,31.11
42372190,1777,1,209499,242070,1.11,-0.20,9.95,-0.03,-0.01,-0.01,31.11
42412191,1809,1,209466,242293,1.12,-0.20,9.93,-0.03,-0.01,-0.00,31.11
42452191,1842,1,209499,242373,1.12,-0.21,9.94,-0.03,-0.01,-0.00,31.11
42492191,1875,1,209464,241104,1.13,-0.21,9.96,-0.03,-0.01,-0.01,31.11
42532191,1880,1,208763,238438,1.13,-0.20,9.93,-0.03,-0.00,-0.00,31.11
42572191,1855,1,208166,237619,1.13,-0.20,9.93,-0.03,-0.01,-0.00,31.11
42612190,1818,1,208192,238054,1.10,-0.19,9.94,-0.03,-0.01,-0.00,31.11
42652191,1808,1,208313,238973,1.11,-0.19,9.96,-0.04,-0.02,-0.00,31.11
42692191,1833,1,208506,239890,1.14,-0.22,9.98,-0.04,-0.02,-0.00,31.11
42732191,1818,1,208609,240339,1.14,-0.22,9.93,-0.03,-0.01,-0.00,31.11
42772191,1867,1,208649,240626,1.13,-0.21,9.94,-0.03,-0.01,-0.00,31.11
42812191,1867,1,208595,240864,1.12,-0.21,9.92,-0.03,-0.01,-0.00,31.11
42852190,1872,1,208720,241125,1.11,-0.21,9.94,-0.03,-0.01,-0.01,31.11
42892191,1817,1,208680,241318,1.12,-0.20,9.98,-0.03,-0.01,-0.01,31.11
42932191,1897,1,208801,241487,1.13,-0.21,9.92,-0.03,-0.01,-0.00,31.11
42971190,1895,1,208839,241489,1.11,-0.22,9.88,-0.03,-0.01,-0.00,31.11
43011877,1814,1,209079,241470,1.12,-0.21,9.95,-0.03,-0.01,-0.00,31.15
43052191,1854,1,209162,241660,1.13,-0.21,9.95,-0.03,-0.01,-0.01,31.15
43092191,1804,1,209219,241249,1.12,-0.20,9.93,-0.03,-0.01,-0.00,31.15
43132191,1786,1,208734,239029,1.14,-0.19,9.93,-0.03,-0.01,-0.01,31.15
43172191,1766,1,208075,237608,1.12,-0.21,9.94,-0.03,-0.00,-0.00,31.15
43212191,1749,1,207857,237644,1.12,-0.20,9.96,-0.03,-0.00,-0.00,31.15
43252191,1681,1,207906,238024,1.11,-0.21,9.94,-0.03,-0.00,-0.00,31.15
43292190,1596,1,207820,238420,1.11,-0.19,9.96,-0.03,-0.01,-0.01,31.15
43332191,1535,1,207880,238857,1.10,-0.19,9.95,-0.03,-0.01,-0.00,31.15
43372191,1526,1,207926,239111,1.13,-0.21,9.95,-0.03,-0.02,-0.00,31.15
43412190,1557,1,208055,239300,1.13,-0.21,9.94,-0.04,-0.02,-0.00,31.15
43452191,1600,1,208057,239692,1.12,-0.19,9.93,-0.04,-0.02,-0.01,31.15
43492191,1615,1,208078,240206,1.13,-0.21,9.95,-0.04,-0.02,-0.01,31.15
43532191,1703,1,208058,240721,1.13,-0.23,9.95,-0.04,-0.01,-0.00,31.15
43572195,1735,1,208063,240983,1.12,-0.21,9.93,-0.03,-0.01,-0.00,31.15
43612190,1766,1,208041,241276,1.11,-0.20,9.95,-0.03,-0.01,-0.00,31.15
43652190,1793,1,208042,241843,1.12,-0.21,9.93,-0.03,-0.01,-0.01,31.15
43692191,1840,1,208036,242101,1.10,-0.21,9.94,-0.03,-0.01,-0.01,31.15
43732190,1851,1,207672,240389,1.11,-0.21,9.94,-0.03,-0.01,-0.00,31.15
43772212,1874,1,206978,239097,1.11,-0.22,9.96,-0.03,-0.01,-0.00,31.15
43812190,1882,1,206835,239039,1.11,-0.21,9.94,-0.03,-0.01,-0.00,31.15
43852190,1904,1,206843,239371,1.08,-0.20,9.98,-0.04,-0.03,-0.00,31.15
43892191,1907,1,206977,239376,1.15,-0.24,9.94,-0.04,-0.04,-0.00,31.15
43932191,1930,1,207056,239442,1.17,-0.23,9.95,-0.03,-0.02,-0.00,31.15
43972191,1954,1,207106,239458,1.15,-0.24,9.92,-0.03,-0.01,-0.00,31.15
44012877,1904,1,207299,239559,1.16,-0.20,9.93,-0.03,-0.01,-0.01,31.13
44051191,2032,1,207372,239807,1.14,-0.21,9.94,-0.03,-0.01,-0.00,31.13
44091191,2028,1,207397,240048,1.16,-0.22,9.96,-0.03,-0.01,-0.01,31.13
44131191,2000,1,207422,240070,1.13,-0.23,9.95,-0.03,-0.01,-0.00,31.13
44171191,2021,1,207385,240206,1.14,-0.20,9.95,-0.03,-0.01,-0.00,31.13
44211191,1977,1,207395,240308,1.11,-0.20,9.95,-0.03,-0.01,-0.00,31.13
44251191,1943,1,207441,240542,1.12,-0.21,9.95,-0.03,-0.01,-0.00,31.13
44291191,1959,1,207521,240663,1.13,-0.20,9.92,-0.03,-0.01,-0.00,31.13
44331191,1957,1,207300,239254,1.13,-0.23,9.93,-0.03,-0.01,-0.00,31.13
44371190,1898,1,206762,238195,1.13,-0.21,9.92,-0.03,-0.01,-0.00,31.13
44411190,1915,1,206620,237984,1.13,-0.21,9.96,-0.03,-0.01,-0.01,31.13
44451190,1939,1,206689,237920,1.14,-0.21,9.92,-0.03,-0.01,-0.00,31.13
44491191,1911,1,206624,237920,1.12,-0.22,9.93,-0.03,-0.01,-0.00,31.13
44531190,1877,1,206720,237982,1.12,-0.21,9.95,-0.03,-0.01,-0.00,31.13
44571191,1873,1,206716,237769,1.13,-0.20,9.93,-0.03,-0.00,-0.00,31.13
44611190,1904,1,206595,237896,1.12,-0.21,9.91,-0.04,-0.01,-0.00,31.13
44651191,1851,1,206651,237750,1.13,-0.20,9.92,-0.03,-0.01,-0.00,31.13
44691191,1817,1,206781,237848,1.11,-0.21,9.93,-0.03,-0.01,-0.00,31.13
44731191,1830,1,206875,238104,1.15,-0.22,9.94,-0.03,-0.01,-0.01,31.13
44771191,1834,1,207101,238215,1.13,-0.21,9.91,-0.03,-0.01,-0.00,31.13
44811191,1852,1,207138,238395,1.15,-0.21,9.92,-0.03,-0.01,-0.00,31.13
44851191,1858,1,207309,238795,1.15,-0.21,9.93,-0.03,-0.01,-0.01,31.13
44891191,1840,1,207423,238399,1.14,-0.21,9.94,-0.03,-0.01,-0.00,31.13
44931190,1852,1,206971,236188,1.13,-0.21,9.92,-0.03,-0.01,-0.00,31.13
44971191,1819,1,206399,234831,1.12,-0.22,9.92,-0.03,-0.01,-0.00,31.13
45011190,1882,1,206350,234762,1.15,-0.20,9.92,-0.03,-0.01,-0.00,31.13
45051877,1775,1,206375,234735,1.13,-0.22,9.96,-0.03,-0.01,-0.00,31.33
45092190,1809,1,206553,234727,1.13,-0.21,9.95,-0.03,-0.01,-0.00,31.33
45132191,1807,1,206732,235127,1.12,-0.20,9.93,-0.03,-0.01,-0.00,31.33
45172191,1773,1,207051,235766,1.13,-0.22,9.92,-0.03,-0.01,-0.00,31.33
45212217,1759,1,207335,236185,1.13,-0.20,9.92,-0.03,-0.01,-0.00,31.33
45252190,1745,1,207546,236723,1.14,-0.21,9.95,-0.03,-0.01,-0.00,31.33
45292191,1792,1,207718,237591,1.10,-0.21,9.92,-0.03,-0.01,-0.00,31.33
45332191,1760,1,207949,238303,1.14,-0.22,9.94,-0.03,-0.01,-0.01,31.33
45372191,1771,1,208070,238819,1.12,-0.20,9.95,-0.04,-0.01,-0.00,31.33
45410191,1904,1,208052,239263,1.15,-0.21,9.94,-0.03,-0.01,-0.01,31.33
45450191,1885,1,208049,239771,1.13,-0.20,9.95,-0.04,-0.01,-0.00,31.33
45490191,1899,1,207831,238275,1.15,-0.23,9.96,-0.03,-0.01,-0.00,31.33
45530191,1882,1,207240,236223,1.13,-0.21,9.96,-0.03,-0.01,-0.00,31.33
45570191,1930,1,207028,235762,1.12,-0.23,9.96,-0.03,-0.01,-0.00,31.33
45610190,1964,1,207077,235828,1.13,-0.22,9.94,-0.03,-0.01,-0.00,31.33
45650190,1923,1,207260,235837,1.14,-0.21,9.95,-0.03,-0.01,-0.00,31.33
45690190,1994,1,207420,236463,1.14,-0.22,9.97,-0.03,-0.01,-0.00,31.33
45730190,1938,1,207519,236475,1.13,-0.21,9.91,-0.03,-0.01,-0.00,31.33
45770191,1936,1,207454,236429,1.14,-0.21,9.94,-0.03,-0.01,-0.00,31.33
45810191,1922,1,207423,236267,1.13,-0.19,9.96,-0.03,-0.01,-0.00,31.33
45850191,1884,1,207347,236238,1.13,-0.18,9.93,-0.03,-0.01,-0.00,31.33
45890190,1853,1,207442,236415,1.13,-0.21,9.92,-0.03,-0.01,-0.00,31.33
45930191,1853,1,207623,236832,1.13,-0.21,9.95,-0.03,-0.01,-0.00,31.33
45970190,1872,1,207773,237288,1.13,-0.18,9.95,-0.03,-0.01,-0.00,31.33
46010190,1894,1,207863,237617,1.14,-0.20,9.91,-0.03,-0.01,-0.00,31.33
46051191,1787,1,207765,236369,1.15,-0.20,9.91,-0.03,-0.01,-0.00,31.33
46091877,1726,1,206910,233889,1.15,-0.20,9.91,-0.03,-0.01,-0.00,31.11
46130235,1855,1,206420,232957,1.12,-0.20,9.94,-0.03,-0.01,-0.01,31.11
46170191,1842,1,206329,232840,1.14,-0.20,9.93,-0.03,-0.01,-0.00,31.11
46210191,1840,1,206371,233059,1.11,-0.21,9.94,-0.03,-0.01,-0.00,31.11
46250191,1887,1,206423,233799,1.13,-0.22,9.93,-0.03,-0.01,-0.00,31.11
46290191,1874,1,206719,234732,1.13,-0.22,9.94,-0.03,-0.01,-0.00,31.11
46330190,1858,1,206811,235249,1.11,-0.22,9.92,-0.03,-0.01,-0.00,31.11
46370190,1883,1,206911,235575,1.13,-0.21,9.93,-0.03,-0.01,-0.00,31.11
46410191,1893,1,206768,235831,1.12,-0.21,9.94,-0.03,-0.01,-0.00,31.11
46450191,1865,1,206921,236094,1.12,-0.21,9.92,-0.03,-0.01,-0.00,31.11
46490191,1869,1,207030,236279,1.12,-0.21,9.95,-0.03,-0.01,-0.00,31.11
46530190,1872,1,207169,236601,1.13,-0.21,9.94,-0.03,-0.01,-0.00,31.11
46570191,1919,1,207279,237006,1.12,-0.22,9.94,-0.03,-0.01,-0.00,31.11
46610191,1904,1,207472,237027,1.12,-0.22,9.93,-0.04,-0.01,-0.01,31.11
46650191,1865,1,207033,234657,1.11,-0.21,9.92,-0.03,-0.01,-0.00,31.11
46690190,1904,1,206368,233173,1.13,-0.19,9.96,-0.03,-0.01,-0.00,31.11
46730190,1823,1,206131,233150,1.12,-0.21,9.94,-0.03,-0.01,-0.00,31.11
46770191,1823,1,206187,233466,1.14,-0.24,9.89,-0.04,-0.01,-0.00,31.11
46810191,1855,1,206410,234042,1.13,-0.21,9.93,-0.03,-0.01,-0.01,31.11
46850223,1854,1,206617,234556,1.14,-0.19,9.94,-0.03,-0.01,-0.00,31.11
46890191,1893,1,206769,234741,1.12,-0.22,9.95,-0.03,-0.01,-0.00,31.11
46930190,1960,1,206787,234939,1.12,-0.21,9.94,-0.03,-0.01,-0.00,31.11
46970191,1899,1,206862,235205,1.14,-0.19,9.94,-0.03,-0.01,-0.00,31.11
47010191,1907,1,206924,235504,1.11,-0.20,9.92,-0.03,-0.01,-0.00,31.11
47050221,1902,1,206849,235751,1.12,-0.21,9.94,-0.03,-0.01,-0.00,31.11
47090191,1869,1,206975,236154,1.11,-0.19,9.94,-0.03,-0.01,-0.00,31.11
47130877,1786,1,207096,236783,1.13,-0.21,9.92,-0.03,-0.01,-0.00,30.93
47171190,1786,1,207268,237218,1.12,-0.22,9.90,-0.03,-0.01,-0.00,30.93
47211191,1827,1,207337,237307,1.12,-0.21,9.94,-0.03,-0.01,-0.00,30.93
47251206,1843,1,207055,235529,1.13,-0.19,9.93,-0.03,-0.01,-0.00,30.93
47291190,1851,1,206363,234182,1.12,-0.21,9.96,-0.03,-0.01,-0.01,30.93
47331191,1850,1,206076,233827,1.12,-0.19,9.96,-0.03,-0.01,-0.01,30.93
47371191,1811,1,206070,234122,1.12,-0.22,9.96,-0.03,-0.01,-0.00,30.93
47411191,1837,1,206223,234739,1.13,-0.23,9.91,-0.03,-0.01,-0.00,30.93
47451191,1837,1,206331,235639,1.13,-0.21,9.96,-0.04,-0.01,-0.00,30.93
47491190,1843,1,206496,236131,1.13,-0.21,9.94,-0.03,-0.01,-0.00,30.93
47531191,1862,1,206492,236592,1.12,-0.23,9.92,-0.04,-0.01,-0.01,30.93
47571191,1840,1,206535,236970,1.15,-0.22,9.94,-0.03,-0.01,-0.00,30.93
47611191,1861,1,206701,237180,1.14,-0.23,9.96,-0.03,-0.01,-0.00,30.93
47651191,1859,1,207139,238134,1.12,-0.22,9.93,-0.03,-0.02,-0.00,30.93
47691190,1850,1,207713,239524,1.14,-0.21,9.91,-0.03,-0.02,-0.01,30.93
47731190,1837,1,208256,240609,1.14,-0.22,9.94,-0.03,-0.01,-0.00,30.93
47771191,1758,1,208402,241378,1.13,-0.19,9.96,-0.03,-0.01,-0.00,30.93
47811191,1783,1,208555,241893,1.14,-0.21,9.96,-0.03,-0.01,-0.01,30.93
47851191,1770,1,208528,242387,1.15,-0.23,9.96,-0.03,-0.01,-0.00,30.93
47891191,1734,1,208152,240454,1.13,-0.22,9.93,-0.04,-0.01,-0.00,30.93
47931191,1750,1,207216,238699,1.12,-0.22,9.94,-0.03,-0.01,-0.01,30.93
47971191,1779,1,206827,238152,1.13,-0.22,9.94,-0.03,-0.01,-0.00,30.93
48011190,1761,1,206613,238018,1.15,-0.21,9.95,-0.03,-0.01,-0.00,30.93
48051191,1776,1,206672,238040,1.13,-0.21,9.93,-0.03,-0.01,-0.00,30.93
48091190,1770,1,206807,238324,1.12,-0.21,9.92,-0.03,-0.01,-0.00,30.93
48131877,1759,1,207291,238389,1.14,-0.20,9.93,-0.03,-0.01,-0.00,30.97
48170190,1849,1,207291,238230,1.14,-0.21,9.95,-0.03,-0.01,-0.01,30.97
48210191,1835,1,207390,238082,1.13,-0.21,9.92,-0.03,-0.01,-0.00,30.97
48250191,1846,1,207467,238098,1.14,-0.20,9.95,-0.03,-0.01,-0.00,30.97
48290190,1846,1,207628,238459,1.14,-0.23,9.95,-0.03,-0.01,-0.00,30.97
48330191,1826,1,207764,238897,1.14,-0.20,9.94,-0.03,-0.01,-0.00,30.97
48370191,1806,1,208038,239219,1.14,-0.22,9.95,-0.03,-0.01,-0.00,30.97
48410191,1799,1,208201,239474,1.13,-0.20,9.92,-0.03,-0.01,-0.01,30.97
48450191,1774,1,208350,239595,1.13,-0.21,9.91,-0.03,-0.01,-0.00,30.97
48490191,1793,1,208495,239692,1.14,-0.21,9.91,-0.03,-0.01,-0.00,30.97
48530191,1795,1,208761,238980,1.13,-0.22,9.92,-0.03,-0.01,-0.00,30.97
48570191,1838,1,208427,236650,1.13,-0.22,9.93,-0.03,-0.01,-0.01,30.97
48610191,1830,1,207975,235470,1.14,-0.23,9.93,-0.03,-0.01,-0.00,30.97
48650191,1835,1,207984,235691,1.14,-0.21,9.95,-0.03,-0.01,-0.01,30.97
48690233,1845,1,208276,236811,1.15,-0.21,9.92,-0.03,-0.01,-0.00,30.97
48730191,1831,1,208836,238253,1.14,-0.20,9.93,-0.04,-0.01,-0.00,30.97
48770191,1856,1,209275,239271,1.15,-0.20,9.95,-0.03,-0.01,-0.00,30.97
48810191,1883,1,209411,239743,1.14,-0.21,9.95,-0.03,-0.01,-0.01,30.97
48850191,1863,1,209393,239966,1.13,-0.20,9.93,-0.03,-0.01,-0.00,30.97
48890210,1842,1,209213,240198,1.10,-0.22,9.96,-0.03,-0.01,-0.01,30.97
48930191,1849,1,209197,240421,1.14,-0.23,9.92,-0.03,-0.01,-0.01,30.97
48970191,1840,1,209109,240862,1.13,-0.23,9.92,-0.03,-0.01,-0.01,30.97
49010191,1851,1,209054,241181,1.14,-0.21,9.94,-0.03,-0.01,-0.01,30.97
49050191,1843,1,209194,241412,1.15,-0.21,9.96,-0.03,-0.00,-0.00,30.97
49090191,1839,1,209280,241678,1.13,-0.22,9.92,-0.03,-0.01,-0.01,30.97
49130191,1836,1,209484,241873,1.12,-0.21,9.93,-0.03,-0.01,-0.00,30.97
49170877,1795,1,209417,242009,1.13,-0.20,9.93,-0.03,-0.01,-0.00,30.81
49209191,1895,1,209054,241035,1.13,-0.20,9.96,-0.03,-0.01,-0.00,30.81
49249190,1876,1,208340,239303,1.13,-0.20,9.94,-0.03,-0.01,-0.00,30.81
49289190,1872,1,207692,238893,1.13,-0.22,9.95,-0.04,-0.01,-0.00,30.81
49329191,1859,1,207559,239136,1.15,-0.22,9.94,-0.04,-0.01,-0.00,30.81
49369191,1869,1,207455,239516,1.13,-0.21,9.93,-0.03,-0.01,-0.01,30.81
49409191,1840,1,207440,240009,1.12,-0.23,9.93,-0.03,-0.01,-0.01,30.81
49449191,1887,1,207495,240556,1.14,-0.20,9.93,-0.03,-0.01,-0.01,30.81
49489191,1879,1,207543,240814,1.13,-0.22,9.91,-0.03,-0.01,-0.01,30.81
49529191,1891,1,207579,241092,1.14,-0.22,9.96,-0.03,-0.01,-0.00,30.81
49569191,1882,1,207673,241310,1.13,-0.20,9.94,-0.03,-0.01,-0.00,30.81
49609191,1846,1,207575,241585,1.14,-0.22,9.93,-0.03,-0.01,-0.01,30.81
49649190,1839,1,207640,241770,1.13,-0.21,9.95,-0.03,-0.01,-0.00,30.81
49689191,1811,1,207704,241955,1.13,-0.22,9.92,-0.03,-0.01,-0.00,30.81
49729191,1808,1,207753,242182,1.14,-0.19,9.95,-0.03,-0.01,-0.00,30.81
49769191,1794,1,207702,242326,1.13,-0.20,9.93,-0.03,-0.01,-0.00,30.81
49809191,1788,1,207795,242490,1.13,-0.22,9.94,-0.03,-0.01,-0.00,30.81
49849191,1808,1,207736,241744,1.15,-0.22,9.96,-0.03,-0.01,-0.00,30.81
49889190,1813,1,207251,240191,1.13,-0.25,9.94,-0.03,-0.01,-0.00,30.81
49929190,1839,1,206734,239567,1.14,-0.22,9.90,-0.03,-0.01,-0.00,30.81
49969190,1843,1,206719,239797,1.13,-0.23,9.92,-0.03,-0.01,-0.00,30.81
50009190,1839,1,206856,240173,1.13,-0.23,9.96,-0.03,-0.01,-0.00,30.81
50049191,1849,1,207048,240536,1.13,-0.23,9.92,-0.03,-0.01,-0.01,30.81
50089191,1851,1,207113,240802,1.12,-0.21,9.95,-0.03,-0.01,-0.00,30.81
50129194,1838,1,207210,240887,1.15,-0.21,9.94,-0.03,-0.01,-0.00,30.81
50169191,1863,1,207164,240823,1.14,-0.23,9.95,-0.03,-0.01,-0.01,30.81
50209877,1808,1,207189,240754,1.11,-0.22,9.93,-0.03,-0.01,-0.00,30.97
50250191,1822,1,207104,240762,1.13,-0.22,9.96,-0.03,-0.01,-0.00,30.97
50290191,1834,1,207253,240852,1.12,-0.21,9.91,-0.03,-0.01,-0.00,30.97
50330191,1834,1,207320,241071,1.13,-0.21,9.91,-0.03,-0.01,-0.00,30.97
50370190,1813,1,207497,241330,1.13,-0.21,9.94,-0.03,-0.01,-0.00,30.97
50410191,1839,1,207501,241524,1.14,-0.23,9.93,-0.03,-0.01,-0.00,30.97
50450190,1855,1,207588,241660,1.14,-0.21,9.91,-0.03,-0.01,-0.00,30.97
50490191,1855,1,207539,241027,1.13,-0.22,9.92,-0.03,-0.01,-0.01,30.97
50530197,1911,1,207029,239328,1.13,-0.20,9.95,-0.03,-0.01,-0.00,30.97
50570190,1903,1,206642,238592,1.15,-0.20,9.93,-0.03,-0.01,-0.00,30.97
50610190,1868,1,206567,238708,1.09,-0.19,9.93,-0.03,-0.02,-0.01,30.97
50650191,1871,1,206770,239159,1.15,-0.21,9.91,-0.04,-0.02,-0.00,30.97
50690191,1875,1,207027,239772,1.14,-0.21,9.91,-0.03,-0.01,-0.00,30.97
50730191,1872,1,207286,240294,1.15,-0.21,9.93,-0.03,-0.01,-0.00,30.97
50770191,1901,1,207679,240412,1.14,-0.21,9.93,-0.03,-0.01,-0.00,30.97
50810191,1893,1,207950,240446,1.15,-0.22,9.95,-0.03,-0.01,-0.00,30.97
50850190,1907,1,208120,240421,1.15,-0.22,9.92,-0.03,-0.01,-0.01,30.97
50890190,1863,1,208204,240530,1.12,-0.22,9.92,-0.03,-0.00,-0.01,30.97
50930191,1865,1,208340,240539,1.14,-0.18,9.91,-0.03,-0.01,-0.00,30.97
50970190,1849,1,208310,240494,1.15,-0.20,9.94,-0.03,-0.00,-0.00,30.97
51010190,1850,1,208335,240381,1.11,-0.17,9.95,-0.03,-0.00,-0.01,30.97
51050191,1844,1,208457,240732,1.17,-0.25,9.92,-0.03,-0.01,-0.00,30.97
51090190,1847,1,208715,241059,1.13,-0.16,9.93,-0.03,-0.01,-0.00,30.97
51130191,1858,1,208756,241233,1.13,-0.20,9.92,-0.03,-0.01,-0.01,30.97
51170191,1843,1,208374,239580,1.12,-0.20,9.93,-0.03,-0.01,-0.00,30.97
51210877,1840,1,207616,237940,1.15,-0.21,9.94,-0.03,-0.01,-0.00,30.73
51249191,1872,1,207235,237500,1.17,-0.19,9.96,-0.03,-0.01,-0.00,30.73
51289190,1886,1,207144,237397,1.10,-0.21,9.96,-0.03,-0.01,-0.00,30.73
51329191,1891,1,207163,237884,1.13,-0.22,9.91,-0.04,-0.01,-0.00,30.73
51369191,1886,1,207443,238705,1.19,-0.22,9.95,-0.03,-0.01,-0.01,30.73
51409190,1899,1,207584,239264,1.13,-0.20,9.93,-0.03,-0.01,-0.01,30.73
51449190,1919,1,207687,239778,1.13,-0.22,9.96,-0.03,-0.01,-0.01,30.73
51489190,1882,1,207822,240256,1.13,-0.19,9.95,-0.03,-0.01,-0.00,30.73
51529190,1886,1,207864,240673,1.14,-0.20,9.94,-0.04,-0.01,-0.00,30.73
51569191,1872,1,207951,240964,1.11,-0.21,9.93,-0.03,-0.01,-0.01,30.73
51609190,1907,1,208150,241196,1.18,-0.27,9.93,-0.03,-0.01,-0.00,30.73
51649190,1897,1,208252,241476,1.15,-0.19,9.91,-0.03,-0.01,-0.00,30.73
51689191,1851,1,208263,241629,1.13,-0.19,9.94,-0.03,-0.01,-0.01,30.73
51729191,1854,1,208201,241895,1.12,-0.19,9.93,-0.03,-0.01,-0.01,30.73
51769191,1862,1,208109,241429,1.13,-0.18,9.95,-0.03,-0.01,-0.00,30.73
51809191,1843,1,207618,239213,1.16,-0.23,9.95,-0.03,-0.01,-0.01,30.73
51849191,1840,1,206964,237912,1.12,-0.22,9.94,-0.03,-0.01,-0.00,30.73
51889191,1835,1,206878,237822,1.12,-0.18,9.94,-0.03,-0.01,-0.00,30.73
51929190,1805,1,207045,237938,1.17,-0.22,9.92,-0.03,-0.01,-0.00,30.73
51970228,1792,1,207091,238446,1.13,-0.23,9.94,-0.03,-0.01,-0.00,30.73
52010191,1838,1,207279,238880,1.12,-0.22,9.95,-0.03,-0.01,-0.00,30.73
52050191,1785,1,207388,239091,1.16,-0.17,9.92,-0.03,-0.01,-0.00,30.73
52090191,1792,1,207267,239240,1.13,-0.20,9.94,-0.04,-0.01,-0.00,30.73
52130191,1776,1,207223,239680,1.13,-0.24,9.94,-0.03,-0.01,-0.00,30.73
52170210,1776,1,207075,240098,1.12,-0.19,9.92,-0.03,-0.01,-0.00,30.73
52210877,1741,1,207248,240525,1.12,-0.19,9.94,-0.03,-0.01,-0.01,31.05
52249191,1811,1,207290,240897,1.13,-0.21,9.94,-0.03,-0.01,-0.00,31.05
52289191,1775,1,207453,241267,1.15,-0.21,9.94,-0.03,-0.01,-0.00,31.05
52329191,1767,1,207516,241559,1.13,-0.20,9.91,-0.03,-0.01,-0.00,31.05
52369191,1760,1,207494,241133,1.11,-0.18,9.94,-0.03,-0.01,-0.01,31.05
52409191,1767,1,207028,239194,1.12,-0.21,9.92,-0.03,-0.01,-0.00,31.05
52449191,1776,1,206534,238184,1.15,-0.21,9.94,-0.03,-0.01,-0.01,31.05
52489191,1797,1,206347,238270,1.14,-0.22,9.95,-0.03,-0.01,-0.01,31.05
52529191,1766,1,206453,238274,1.10,-0.21,9.92,-0.03,-0.01,-0.00,31.05
52569191,1790,1,206470,238137,1.13,-0.22,9.97,-0.03,-0.01,-0.00,31.05
52609191,1772,1,206532,238007,1.15,-0.22,9.92,-0.03,-0.01,-0.00,31.05
52649191,1757,1,206525,237573,1.13,-0.19,9.96,-0.03,-0.01,-0.00,31.05
52689191,1715,1,206365,237296,1.14,-0.18,9.94,-0.03,-0.01,-0.00,31.05
52729191,1712,1,206236,237646,1.13,-0.20,9.92,-0.03,-0.01,-0.00,31.05
52769191,1694,1,206389,238527,1.12,-0.20,9.91,-0.04,-0.01,-0.01,31.05
52809191,1697,1,206824,240834,1.14,-0.22,9.92,-0.04,-0.00,-0.01,31.05
52849191,1745,1,208053,243746,1.14,-0.21,9.94,-0.04,-0.01,-0.01,31.05
52889191,1835,1,209120,244798,1.11,-0.20,9.93,-0.04,-0.02,-0.02,31.05
52929191,1973,1,208946,244408,1.13,-0.20,9.95,-0.04,-0.03,-0.00,31.05
52969191,2043,1,208549,243430,1.17,-0.21,9.93,-0.03,-0.02,-0.00,31.05
53009191,2083,1,207733,240775,1.15,-0.23,9.95,-0.03,-0.01,-0.00,31.05
53049191,2007,1,206871,238941,1.14,-0.23,9.93,-0.03,-0.01,-0.00,31.05
53089191,2019,1,206452,238238,1.15,-0.19,9.91,-0.03,-0.01,-0.00,31.05
53129191,1963,1,206329,238089,1.15,-0.21,9.94,-0.03,-0.01,-0.00,31.05
53169191,1878,1,206508,238203,1.15,-0.22,9.95,-0.03,-0.01,-0.00,31.05
53209191,1840,1,206696,238628,1.15,-0.22,9.94,-0.03,-0.01,-0.01,31.05
53249877,1771,1,206906,238793,1.13,-0.20,9.93,-0.03,-0.01,-0.01,31.07
53288191,1831,1,206828,238842,1.15,-0.22,9.94,-0.03,-0.01,-0.00,31.07
53328191,1840,1,206858,239180,1.15,-0.19,9.95,-0.03,-0.01,-0.00,31.07
53368191,1825,1,207076,239412,1.14,-0.22,9.93,-0.03,-0.01,-0.00,31.07
53408191,1803,1,207316,239609,1.14,-0.21,9.94,-0.03,-0.01,-0.00,31.07
53448190,1815,1,207386,239964,1.13,-0.22,9.95,-0.03,-0.01,-0.00,31.07
53488191,1815,1,207674,240309,1.16,-0.21,9.91,-0.03,-0.01,-0.00,31.07
53528191,1765,1,207864,240666,1.15,-0.20,9.92,-0.03,-0.01,-0.00,31.07
53568191,1747,1,207974,240315,1.14,-0.20,9.94,-0.03,-0.01,-0.01,31.07
53608228,1776,1,207452,238020,1.15,-0.21,9.93,-0.03,-0.01,-0.00,31.07
53648191,1778,1,206785,236793,1.14,-0.21,9.95,-0.03,-0.01,-0.00,31.07
53688191,1782,1,206731,237050,1.13,-0.21,9.96,-0.03,-0.01,-0.00,31.07
53728191,1831,1,206885,237526,1.13,-0.20,9.94,-0.03,-0.01,-0.01,31.07
53768191,1806,1,206751,237992,1.13,-0.21,9.93,-0.03,-0.01,-0.01,31.07
53808224,1818,1,206737,238321,1.14,-0.21,9.95,-0.03,-0.00,-0.00,31.07
53848191,1823,1,206726,238493,1.13,-0.22,9.94,-0.03,-0.01,-0.00,31.07
53888191,1835,1,206606,238524,1.14,-0.20,9.93,-0.03,-0.01,-0.00,31.07
53928191,1845,1,206484,238653,1.14,-0.20,9.93,-0.03,-0.01,-0.00,31.07
53968191,1847,1,206457,238901,1.12,-0.21,9.93,-0.03,-0.01,-0.00,31.07
54008191,1840,1,206397,239277,1.13,-0.20,9.92,-0.03,-0.01,-0.00,31.07
54048191,1855,1,206597,239562,1.12,-0.20,9.96,-0.03,-0.01,-0.00,31.07
54088191,1824,1,206678,239879,1.11,-0.22,9.95,-0.03,-0.01,-0.00,31.07
54128191,1871,1,206798,240117,1.13,-0.20,9.95,-0.03,-0.01,-0.00,31.07
54168191,1923,1,206632,238627,1.15,-0.20,9.94,-0.03,-0.01,-0.00,31.07
54208191,1950,1,205934,237025,1.12,-0.21,9.93,-0.03,-0.01,-0.00,31.07
54248191,1971,1,205732,236840,1.13,-0.23,9.94,-0.03,-0.01,-0.00,31.07
54288877,1901,1,205992,236992,1.15,-0.19,9.93,-0.03,-0.01,-0.00,31.01
54329191,1971,1,206375,237354,1.15,-0.22,9.92,-0.03,-0.01,-0.00,31.01
54369191,1981,1,206723,237929,1.14,-0.17,9.92,-0.03,-0.01,-0.00,31.01
54409191,1935,1,206730,238317,1.13,-0.21,9.92,-0.03,-0.01,-0.00,31.01
54449191,1895,1,206807,238740,1.14,-0.20,9.94,-0.03,-0.01,-0.01,31.01
54489191,1855,1,206729,239185,1.14,-0.21,9.94,-0.03,-0.01,-0.00,31.01
54529191,1840,1,206760,239602,1.14,-0.20,9.94,-0.04,-0.01,-0.00,31.01
54569191,1838,1,206747,240359,1.14,-0.21,9.94,-0.04,-0.02,-0.00,31.01
54609191,1837,1,206899,240950,1.14,-0.20,9.95,-0.03,-0.01,-0.00,31.01
54649191,1849,1,207037,241803,1.15,-0.20,9.95,-0.03,-0.01,-0.00,31.01
54689191,1789,1,207348,242577,1.16,-0.20,9.91,-0.03,-0.01,-0.01,31.01
54729191,1835,1,207223,241213,1.16,-0.22,9.95,-0.03,-0.01,-0.01,31.01
54769191,1837,1,206539,239810,1.16,-0.20,9.93,-0.03,-0.01,-0.00,31.01
54809191,1843,1,206372,239902,1.13,-0.20,9.93,-0.03,-0.01,-0.00,31.01
54849191,1801,1,206654,240646,1.14,-0.22,9.95,-0.03,-0.01,-0.00,31.01
54889191,1806,1,206916,241330,1.13,-0.23,9.95,-0.03,-0.01,-0.01,31.01
54929191,1834,1,207291,242186,1.15,-0.21,9.90,-0.03,-0.01,-0.01,31.01
54969191,1859,1,207599,242650,1.13,-0.20,9.93,-0.03,-0.01,-0.00,31.01
55009191,1835,1,207830,243063,1.13,-0.22,9.94,-0.03,-0.01,-0.00,31.01
55048191,1917,1,208163,243672,1.13,-0.22,9.91,-0.03,-0.01,-0.01,31.01
55088191,1907,1,208367,244045,1.14,-0.22,9.92,-0.03,-0.01,-0.00,31.01
55128191,1920,1,208516,244445,1.15,-0.21,9.95,-0.03,-0.01,-0.00,31.01
55168191,1901,1,208619,244907,1.12,-0.22,9.94,-0.04,-0.01,-0.00,31.01
55208191,1943,1,208683,245255,1.15,-0.22,9.92,-0.03,-0.01,-0.00,31.01
55248210,1968,1,208796,245646,1.14,-0.21,9.93,-0.03,-0.01,-0.00,31.01
55288877,1895,1,208432,243419,1.13,-0.21,9.93,-0.03,-0.01,-0.00,31.05
55329191,1925,1,207413,241458,1.16,-0.21,9.91,-0.03,-0.01,-0.01,31.05
55369191,1870,1,206725,240824,1.12,-0.21,9.94,-0.03,0.00,-0.00,31.05
55409170,1840,1,206233,240532,1.11,-0.21,9.94,-0.03,0.01,-0.00,31.05
55449184,1775,1,206054,240274,1.12,-0.20,9.93,-0.03,-0.01,-0.00,31.05
55489191,1744,1,205949,240217,1.12,-0.21,9.95,-0.03,-0.01,-0.00,31.05
55529191,1765,1,205757,240055,1.14,-0.21,9.95,-0.03,-0.01,-0.01,31.05
55569191,1770,1,205686,239931,1.14,-0.19,9.95,-0.03,-0.01,-0.00,31.05
55609191,1783,1,205617,239848,1.16,-0.21,9.95,-0.03,-0.01,-0.00,31.05
55649195,1787,1,205597,239916,1.13,-0.21,9.93,-0.03,-0.01,-0.00,31.05
55689190,1807,1,205571,240033,1.14,-0.21,9.95,-0.03,-0.01,-0.00,31.05
55729191,1837,1,205662,240126,1.14,-0.19,9.94,-0.03,-0.01,-0.00,31.05
55769191,1841,1,205694,240210,1.14,-0.22,9.95,-0.03,-0.01,-0.00,31.05
55809191,1813,1,205850,240296,1.12,-0.20,9.96,-0.03,-0.01,-0.00,31.05
55849191,1840,1,205830,239207,1.15,-0.22,9.96,-0.03,-0.01,-0.00,31.05
55889191,1840,1,205183,236325,1.15,-0.19,9.92,-0.03,-0.01,-0.00,31.05
55929190,1831,1,204497,234827,1.12,-0.22,9.94,-0.03,-0.01,-0.00,31.05
55969191,1830,1,204597,234887,1.13,-0.20,9.94,-0.03,-0.01,-0.00,31.05
56009191,1839,1,204772,234984,1.15,-0.22,9.94,-0.03,-0.01,-0.00,31.05
56049191,1836,1,205162,235281,1.12,-0.19,9.94,-0.03,-0.01,-0.00,31.05
56088191,1856,1,205392,235933,1.15,-0.20,9.93,-0.03,-0.01,-0.00,31.05
56128191,1905,1,205624,236422,1.15,-0.23,9.94,-0.03,-0.01,-0.00,31.05
56168191,1905,1,205717,236650,1.13,-0.20,9.95,-0.03,-0.01,-0.00,31.05
56208190,1890,1,205669,237049,1.14,-0.21,9.96,-0.03,-0.01,-0.00,31.05
56248191,1894,1,205522,237413,1.13,-0.21,9.94,-0.03,-0.01,-0.00,31.05
56288190,1841,1,205174,237809,1.13,-0.21,9.89,-0.03,-0.01,-0.00,31.05
56328877,1776,1,205319,238259,1.14,-0.19,9.95,-0.03,-0.01,-0.00,31.15
56367190,1904,1,205273,238476,1.13,-0.20,9.93,-0.03,-0.01,-0.00,31.15
56407190,1936,1,204322,237840,1.13,-0.20,9.93,-0.03,-0.01,-0.00,31.15
56447191,1855,1,204044,235320,1.14,-0.20,9.91,-0.03,-0.01,-0.00,31.15
56487191,1883,1,203581,234183,1.13,-0.22,9.95,-0.03,-0.01,-0.01,31.15
56527191,1947,1,203470,234452,1.12,-0.20,9.92,-0.03,-0.01,-0.01,31.15
56567191,1972,1,203665,234958,1.13,-0.21,9.92,-0.03,-0.01,-0.00,31.15
56607191,2000,1,203817,235451,1.11,-0.21,9.91,-0.03,-0.01,-0.00,31.15
56647191,2000,1,203905,235977,1.13,-0.20,9.94,-0.03,-0.01,-0.01,31.15
56687191,1994,1,204126,236044,1.12,-0.17,9.92,-0.03,-0.01,-0.00,31.15
56727191,1999,1,204182,236070,1.11,-0.21,9.93,-0.03,-0.01,-0.00,31.15
56767190,1984,1,204304,236411,1.14,-0.23,9.94,-0.03,-0.01,-0.00,31.15
56807190,1987,1,204455,236824,1.13,-0.21,9.90,-0.03,-0.01,-0.00,31.15
56847190,2009,1,204612,237211,1.11,-0.22,9.94,-0.03,-0.01,-0.00,31.15
56887191,1977,1,204673,237595,1.12,-0.21,9.93,-0.03,-0.01,-0.01,31.15
56927191,1979,1,204834,238062,1.14,-0.22,9.97,-0.03,-0.01,-0.00,31.15
56967190,1977,1,204924,237756,1.12,-0.20,9.96,-0.03,-0.01,-0.00,31.15
57007191,1957,1,204435,235410,1.14,-0.20,9.94,-0.03,-0.01,-0.00,31.15
57047191,1968,1,203666,234214,1.15,-0.22,9.93,-0.03,-0.01,-0.00,31.15
57088191,1894,1,203799,234402,1.13,-0.20,9.92,-0.03,-0.01,-0.00,31.15
57128191,1884,1,203920,234868,1.14,-0.20,9.94,-0.03,-0.01,-0.01,31.15
57168191,1883,1,204063,235363,1.13,-0.21,9.96,-0.03,-0.00,-0.01,31.15
57208191,1845,1,203965,235477,1.12,-0.21,9.95,-0.03,-0.01,-0.00,31.15
57248190,1814,1,203979,235363,1.13,-0.21,9.93,-0.03,-0.01,-0.00,31.15
57288191,1791,1,203802,235371,1.11,-0.20,9.91,-0.03,-0.01,-0.00,31.15
57328877,1738,1,203686,235483,1.14,-0.21,9.94,-0.03,-0.01,-0.01,31.29
57367190,1776,1,203715,235782,1.14,-0.20,9.94,-0.03,-0.01,-0.00,31.29
57407191,1828,1,203848,236101,1.12,-0.21,9.98,-0.03,-0.01,-0.00,31.29
57447191,1835,1,204050,236376,1.13,-0.21,9.92,-0.03,-0.01,-0.01,31.29
57487190,1841,1,204168,236679,1.13,-0.22,9.93,-0.03,-0.01,-0.00,31.29
57527191,1870,1,204328,236137,1.14,-0.19,9.96,-0.03,-0.01,-0.00,31.29
57567190,1874,1,203659,233863,1.13,-0.20,9.90,-0.03,-0.01,-0.00,31.29
57607188,1872,1,202951,233228,1.12,-0.22,9.93,-0.03,-0.01,-0.00,31.29
57647190,1845,1,202958,234057,1.15,-0.22,9.94,-0.03,-0.01,-0.00,31.29
57687190,1843,1,203292,234774,1.14,-0.20,9.97,-0.03,-0.01,-0.00,31.29
57727191,1845,1,203612,235421,1.14,-0.24,9.95,-0.03,-0.01,-0.00,31.29
57767190,1840,1,203679,235639,1.12,-0.22,9.92,-0.03,-0.01,-0.00,31.29
57807191,1855,1,203723,235584,1.12,-0.19,9.93,-0.03,-0.01,-0.00,31.29
57847191,1845,1,203671,235398,1.11,-0.20,9.95,-0.03,-0.01,-0.00,31.29
57887191,1861,1,203740,235346,1.13,-0.23,9.95,-0.03,-0.01,-0.00,31.29
57927191,1856,1,203655,235386,1.13,-0.18,9.93,-0.03,-0.01,-0.00,31.29
57967191,1838,1,203745,235378,1.11,-0.19,9.93,-0.03,-0.01,-0.00,31.29
58007191,1808,1,203694,235369,1.11,-0.22,9.92,-0.03,-0.01,-0.00,31.29
58047191,1831,1,203684,235421,1.14,-0.22,9.94,-0.03,-0.01,-0.00,31.29
58087191,1813,1,203561,235244,1.13,-0.22,9.94,-0.03,-0.01,-0.00,31.29
58128191,1770,1,202940,232589,1.12,-0.21,9.94,-0.03,-0.01,-0.00,31.29
58168191,1801,1,201482,230378,1.13,-0.20,9.96,-0.03,-0.01,-0.00,31.29
58208191,1717,1,200553,230232,1.14,-0.20,9.96,-0.03,-0.01,-0.00,31.29
58248190,1677,1,200626,230970,1.11,-0.19,9.93,-0.03,-0.01,-0.01,31.29
58288190,1662,1,200839,232014,1.12,-0.20,9.92,-0.03,-0.01,-0.00,31.29
58328191,1677,1,201191,232792,1.13,-0.21,9.93,-0.03,-0.01,-0.00,31.29
58368877,1679,1,201563,233115,1.13,-0.22,9.94,-0.03,-0.01,-0.00,31.15
58407191,1747,1,201284,233399,1.14,-0.22,9.95,-0.03,-0.01,-0.00,31.15
58447191,1834,1,201766,233794,1.13,-0.18,9.93,-0.03,-0.01,-0.00,31.15
58487190,1869,1,201748,234089,1.14,-0.20,9.93,-0.03,-0.01,-0.00,31.15
58527191,1936,1,202144,234243,1.13,-0.24,9.93,-0.03,-0.01,-0.00,31.15
58567191,2020,1,202205,234568,1.12,-0.20,9.91,-0.03,-0.01,-0.01,31.15
58607191,2041,1,202358,234859,1.13,-0.17,9.95,-0.03,-0.01,-0.00,31.15
58647191,2064,1,202525,235020,1.13,-0.22,9.94,-0.03,-0.01,-0.00,31.15
58687191,2064,1,202643,234317,1.13,-0.21,9.94,-0.03,-0.01,-0.01,31.15
58727191,2045,1,201991,230597,1.13,-0.18,9.92,-0.03,-0.01,-0.01,31.15
58767191,2081,1,200908,226649,1.12,-0.22,9.93,-0.03,-0.00,-0.00,31.15
58807191,2060,1,199540,223072,1.11,-0.22,9.95,-0.03,0.00,-0.00,31.15
58847170,2066,1,198388,220522,1.12,-0.20,9.94,-0.03,-0.00,-0.01,31.15
58887190,2019,1,196744,220795,1.11,-0.17,9.96,-0.03,-0.01,-0.00,31.15
58927213,1885,1,197478,223407,1.10,-0.21,9.95,-0.03,-0.01,-0.00,31.15
58967191,1843,1,199561,226796,1.13,-0.23,9.94,-0.03,-0.01,-0.00,31.15
59007191,1930,1,201059,230109,1.13,-0.20,9.91,-0.04,-0.01,-0.00,31.15
59047191,2003,1,201825,231666,1.11,-0.20,9.93,-0.03,-0.01,-0.00,31.15
59087191,2067,1,202299,232282,1.10,-0.20,9.94,-0.03,-0.01,-0.00,31.15
59127188,2086,1,202485,232581,1.13,-0.19,9.92,-0.03,-0.01,-0.00,31.15
59167191,2093,1,202747,232794,1.13,-0.21,9.91,-0.03,-0.01,-0.01,31.15
59207191,2033,1,202753,233070,1.10,-0.20,9.95,-0.03,-0.01,-0.00,31.15
59247191,2044,1,202691,233528,1.10,-0.18,9.93,-0.03,-0.01,-0.00,31.15
59287191,1955,1,202319,232388,1.13,-0.21,9.91,-0.03,-0.01,-0.01,31.15
59327191,1928,1,201687,231575,1.12,-0.23,9.93,-0.04,-0.01,-0.01,31.15
59367191,1863,1,201873,232682,1.09,-0.21,9.95,-0.03,-0.01,-0.01,31.15
59407877,1808,1,201970,234093,1.10,-0.21,9.95,-0.03,-0.02,-0.00,31.13
59448191,1865,1,202541,235282,1.12,-0.21,9.94,-0.03,-0.02,-0.00,31.13
59488191,1855,1,202953,236129,1.12,-0.22,9.95,-0.03,-0.01,-0.00,31.13
59528191,1881,1,202914,236556,1.10,-0.20,9.96,-0.03,-0.02,-0.00,31.13
59568191,1867,1,203345,236979,1.13,-0.18,9.94,-0.04,-0.02,-0.00,31.13
59608191,1911,1,203526,237355,1.15,-0.22,9.95,-0.04,-0.01,-0.00,31.13
59648191,1927,1,203608,237606,1.14,-0.22,9.93,-0.03,-0.01,-0.00,31.13
59688191,1904,1,203640,237749,1.13,-0.21,9.92,-0.03,-0.01,-0.01,31.13
59728190,1888,1,203821,237774,1.12,-0.21,9.93,-0.03,-0.01,-0.00,31.13
59768190,1874,1,203822,237857,1.13,-0.22,9.92,-0.03,-0.01,-0.00,31.13
59808190,1876,1,203943,237955,1.14,-0.23,9.95,-0.03,-0.01,-0.01,31.13
59848191,1841,1,203777,237551,1.14,-0.20,9.95,-0.03,-0.01,-0.01,31.13
59888190,1811,1,202698,234794,1.14,-0.19,9.95,-0.03,-0.01,-0.00,31.13
59928191,1728,1,201504,232580,1.14,-0.21,9.95,-0.03,-0.01,-0.00,31.13
59968191,1686,1,201353,232761,1.14,-0.21,9.91,-0.03,-0.01,-0.00,31.13
60008191,1643,1,201492,233435,1.10,-0.20,9.93,-0.03,-0.01,-0.00,31.13
60048191,1622,1,201736,234545,1.12,-0.20,9.94,-0.03,-0.01,-0.00,31.13
60088191,1648,1,202137,235843,1.16,-0.19,9.93,-0.03,-0.01,-0.01,31.13
60128191,1669,1,202579,236747,1.13,-0.23,9.93,-0.03,-0.01,-0.01,31.13
60168191,1680,1,202973,237760,1.14,-0.21,9.94,-0.04,-0.01,-0.00,31.13
60208191,1712,1,203456,239153,1.14,-0.21,9.94,-0.03,-0.01,-0.01,31.13
60248191,1743,1,204104,240940,1.13,-0.21,9.92,-0.04,-0.01,-0.01,31.13
60288191,1797,1,204932,242577,1.15,-0.24,9.94,-0.04,-0.02,-0.01,31.13
60326191,1938,1,205556,245212,1.15,-0.24,9.92,-0.03,-0.01,-0.00,31.13
60366217,1953,1,206426,246388,1.15,-0.21,9.95,-0.03,-0.01,-0.00,31.13
60406191,1973,1,206684,246889,1.14,-0.21,9.94,-0.03,-0.01,-0.00,31.13
60446877,1921,1,206964,246856,1.15,-0.22,9.93,-0.03,-0.01,-0.01,31.25
60487191,1905,1,206558,242527,1.15,-0.22,9.94,-0.03,-0.01,-0.00,31.25
60527197,1903,1,204545,239023,1.15,-0.21,9.92,-0.03,-0.01,-0.00,31.25
60567197,1901,1,204115,238756,1.13,-0.21,9.91,-0.03,-0.01,-0.00,31.25
60607191,1888,1,204271,238993,1.14,-0.22,9.95,-0.03,-0.01,-0.00,31.25
60647191,1887,1,204287,239193,1.13,-0.23,9.92,-0.03,-0.01,-0.00,31.25
60687191,1869,1,204404,239535,1.14,-0.20,9.92,-0.03,-0.01,-0.00,31.25
60727191,1858,1,204460,239178,1.12,-0.21,9.96,-0.03,-0.01,-0.00,31.25
60767191,1837,1,204197,238498,1.15,-0.23,9.93,-0.03,-0.01,-0.00,31.25
60807191,1846,1,203999,238385,1.14,-0.21,9.96,-0.03,-0.01,-0.00,31.25
60847191,1846,1,204131,238655,1.14,-0.21,9.93,-0.03,-0.01,-0.01,31.25
60887190,1825,1,204200,239152,1.13,-0.20,9.90,-0.03,-0.01,-0.00,31.25
60927191,1858,1,204477,239646,1.16,-0.21,9.93,-0.03,-0.01,-0.00,31.25
60967191,1840,1,204487,240089,1.14,-0.22,9.96,-0.03,-0.01,-0.00,31.25
61007191,1857,1,204661,240248,1.13,-0.20,9.96,-0.03,-0.01,-0.00,31.25
61047191,1897,1,204668,240353,1.13,-0.21,9.94,-0.03,-0.01,-0.00,31.25
61087191,1901,1,204757,239271,1.15,-0.22,9.94,-0.03,-0.01,-0.00,31.25
61127191,1899,1,203913,236578,1.14,-0.23,9.96,-0.03,-0.01,-0.00,31.25
61167191,1914,1,203410,235309,1.17,-0.20,9.93,-0.03,-0.01,-0.01,31.25
61207191,1936,1,203588,235513,1.15,-0.19,9.94,-0.03,-0.01,-0.00,31.25
61247191,1929,1,203873,235704,1.13,-0.22,9.96,-0.03,-0.01,-0.00,31.25
61287191,1970,1,203889,236036,1.16,-0.21,9.93,-0.03,-0.01,-0.00,31.25
61327191,1967,1,204321,236236,1.13,-0.19,9.94,-0.03,-0.01,-0.00,31.25
61367191,2000,1,204555,236170,1.12,-0.19,9.93,-0.03,-0.01,-0.00,31.25
61407191,1979,1,204735,236112,1.14,-0.20,9.92,-0.03,-0.01,-0.00,31.25
61447877,1951,1,204644,236058,1.15,-0.20,9.93,-0.03,-0.01,-0.00,31.25
61486191,1978,1,204910,235595,1.14,-0.21,9.95,-0.03,-0.01,-0.00,31.25
61526194,2030,1,204963,234494,1.14,-0.20,9.93,-0.03,-0.01,-0.00,31.25
61566190,1955,1,204720,232701,1.12,-0.19,9.94,-0.03,-0.01,-0.00,31.25
61606191,1983,1,204221,232121,1.12,-0.20,9.94,-0.03,-0.00,-0.00,31.25
61646191,1925,1,204573,233100,1.14,-0.19,9.93,-0.03,-0.01,-0.00,31.25
