timestamp_us,ecg,leads,ir,red,accX,accY,accZ,gyroX,gyroY,gyroZ,temp
2419491,1906,1,216345,247781,0.00,0.00,0.00,0.00,0.00,0.00,0.00
2449957,1967,1,215754,247678,-1.42,-0.42,10.01,0.05,-0.42,-0.16,34.25
2490203,1969,1,215467,247837,-1.01,-0.33,10.36,-0.16,-0.26,-0.27,34.25
2530210,1925,1,215383,248045,-0.77,-0.44,10.23,-0.27,-0.13,-0.28,34.25
2570209,1894,1,215179,247680,-0.47,-0.94,9.90,-0.17,-0.10,-0.17,34.25
2610209,1910,1,214869,247210,-0.39,-1.04,9.62,0.03,-0.06,-0.05,34.25
2650195,1892,1,214483,246323,-0.39,-1.09,9.46,0.26,0.01,0.02,34.25
2690167,1842,1,213859,245426,-0.62,-0.50,9.40,0.45,0.05,0.17,34.25
2730170,1873,1,213370,244881,-0.73,-0.03,9.94,0.49,0.04,0.35,34.25
2770166,1857,1,213024,244691,-0.97,0.13,10.04,0.35,-0.20,0.40,34.25
2810164,1856,1,212927,243662,-0.94,-0.03,10.05,0.12,0.06,0.17,34.25
2850176,1868,1,211989,241093,-1.07,0.24,10.70,-0.18,0.08,-0.03,34.25
2890176,1856,1,210935,238910,-0.87,0.12,10.08,-0.33,-0.12,0.01,34.25
2930176,1835,1,210218,237638,-0.65,-0.30,9.63,-0.17,-0.05,0.07,34.25
2970193,1798,1,209839,237094,-0.74,-0.48,9.55,-0.04,-0.02,0.14,34.25
3010192,1799,1,209579,236683,-0.67,-0.23,9.72,-0.02,-0.06,0.17,34.25
3050213,1761,1,209443,236606,-0.81,-0.42,9.61,-0.12,0.02,0.05,34.25
3090177,1793,1,209015,235247,-1.07,-0.13,10.07,-0.21,0.09,-0.03,34.25
3130195,1789,1,207938,233108,-1.16,-0.26,10.01,-0.14,0.03,0.08,34.25
3170177,1803,1,206806,230535,-1.00,-0.31,9.97,-0.01,-0.02,0.18,34.25
3210200,1744,1,205860,229051,-1.04,-0.23,10.05,0.01,-0.04,0.23,34.25
3250196,1770,1,205156,227126,-0.88,-0.10,9.94,-0.03,-0.02,0.24,34.25
3290199,1835,1,204183,223956,-0.83,-0.26,9.93,-0.09,-0.01,0.21,34.25
3330199,1856,1,202778,221405,-0.98,-0.21,10.04,-0.12,-0.09,0.15,34.25
3370199,1871,1,202224,219452,-0.88,-0.23,9.78,-0.14,-0.01,0.22,34.25
3410199,1898,1,200927,214980,-1.05,-0.31,10.06,-0.07,-0.01,0.30,34.25
3450199,1910,1,199282,211729,-0.99,-0.33,10.13,-0.06,-0.08,0.29,34.25
3490886,1953,1,198658,209940,-0.92,-0.23,10.31,-0.02,-0.12,0.29,34.09
3529199,2018,1,197870,208293,-0.75,-0.40,10.14,0.03,-0.19,0.28,34.09
3569179,2013,1,197549,208760,-0.65,-0.21,10.19,0.01,-0.09,0.27,34.09
3609179,2038,1,198296,211128,-0.55,-0.22,10.15,-0.02,0.06,0.28,34.09
3649179,2002,1,198980,212251,-0.41,-0.24,10.01,-0.04,-0.01,0.22,34.09
3689200,2009,1,198985,212027,-0.22,-0.26,9.83,-0.11,-0.11,0.13,34.09
3729199,2062,1,198795,212606,0.03,-0.68,9.66,-0.19,-0.03,-0.03,34.09
3769199,2080,1,198840,212595,0.00,-0.40,9.81,-0.09,0.04,-0.07,34.09
3809177,2026,1,198678,212636,-0.02,-0.19,9.78,0.07,0.16,-0.01,34.09
3849179,1998,1,198665,212486,-0.40,-0.35,10.06,0.06,0.27,0.03,34.09
3889166,1973,1,198346,212141,-0.61,-0.36,10.05,0.08,0.20,0.04,34.09
3929170,1975,1,198189,211722,-0.69,-0.54,9.93,0.17,0.13,0.04,34.09
3969170,1953,1,197833,210169,-0.76,-0.36,10.04,0.19,0.02,-0.01,34.09
4009178,1978,1,197521,210110,-0.67,-0.21,10.02,0.16,-0.06,-0.04,34.09
4049199,1965,1,197572,209679,-0.60,-0.14,9.80,0.08,0.00,-0.21,34.09
4089179,1952,1,197180,209131,-0.71,0.03,9.92,0.03,-0.08,-0.24,34.09
4129177,1919,1,196858,209171,-0.91,0.23,9.88,0.05,-0.12,-0.16,34.09
4169178,1915,1,197062,209940,-1.06,0.41,10.15,0.03,-0.09,0.01,34.09
4209166,1903,1,197301,211142,-0.81,0.38,9.84,-0.09,-0.07,0.08,34.09
4249179,1931,1,197747,211476,-0.69,0.50,9.95,-0.15,0.00,0.17,34.09
4289166,1879,1,197633,210953,-0.62,0.44,9.98,-0.20,-0.04,0.20,34.09
4329179,1910,1,197404,211706,-0.17,0.28,9.66,-0.26,-0.08,0.20,34.09
4369179,1875,1,198293,215668,-0.19,0.07,9.77,-0.41,0.06,0.08,34.09
4409170,1898,1,200289,221441,-0.60,-0.27,10.16,-0.46,0.06,-0.01,34.09
4449199,1901,1,201847,223393,-0.52,-0.77,10.35,-0.39,-0.16,-0.07,34.09
4489229,1904,1,201931,224187,-0.69,-0.76,9.94,-0.26,-0.29,0.03,34.09
4529886,1856,1,202494,225378,-0.82,-0.93,9.96,-0.23,-0.14,0.17,34.17
4570200,1879,1,202091,222120,-0.50,-1.03,9.75,-0.09,-0.32,0.25,34.17
4610199,1890,1,200289,218227,-0.76,-0.83,9.88,-0.07,-0.16,0.22,34.17
4650199,1879,1,199418,217443,-0.65,-0.77,9.84,-0.10,-0.05,0.22,34.17
4690206,1887,1,199894,219028,-0.56,-0.87,9.61,-0.15,0.01,0.14,34.17
4730179,1862,1,200465,220347,-0.58,-0.91,9.69,-0.22,0.08,0.01,34.17
4770177,1861,1,200849,221285,-0.66,-1.00,9.80,-0.11,0.07,0.01,34.17
4810179,1865,1,201014,221730,-0.55,-1.03,9.66,0.00,0.13,0.12,34.17
4850166,1871,1,201171,221969,-0.91,-1.26,9.87,0.01,0.23,0.18,34.17
4890171,1869,1,201279,221656,-1.45,-1.13,10.15,-0.05,0.24,0.18,34.17
4930179,1913,1,201208,221840,-1.54,-0.94,10.08,-0.02,0.10,0.25,34.17
4970179,1928,1,201627,222262,-1.69,-0.57,10.18,-0.00,0.08,0.36,34.17
5010179,1908,1,201485,221768,-1.66,-0.58,10.15,-0.07,-0.07,0.42,34.17
5050200,1885,1,201518,222286,-1.23,-0.72,10.05,-0.11,-0.03,0.53,34.17
5090199,1914,1,201943,223116,-1.29,-0.97,10.17,-0.16,0.04,0.60,34.17
5130179,1911,1,202016,221358,-1.18,-1.02,10.05,-0.08,0.00,0.71,34.17
5170177,1895,1,200223,215407,-1.10,-0.92,9.95,-0.04,-0.09,0.78,34.17
5210199,1915,1,198398,211559,-0.95,-0.92,9.86,-0.01,-0.12,0.84,34.17
5250199,1902,1,197537,210287,-0.94,-0.86,9.86,0.09,-0.01,0.95,34.17
5290179,1910,1,197829,211528,-1.32,-0.73,10.18,0.15,0.18,1.10,34.17
5330170,1893,1,198739,212961,-1.58,-0.73,10.13,-0.01,0.14,1.17,34.17
5370180,1913,1,199216,213222,-1.44,-0.96,9.87,-0.15,-0.12,1.22,34.17
5410199,1904,1,199112,212206,-1.62,-1.03,9.89,-0.19,-0.30,1.26,34.17
5450200,1923,1,198909,213277,-1.22,-0.93,9.57,-0.25,-0.26,1.29,34.17
5490199,1937,1,199788,215435,-0.95,-1.26,9.50,-0.26,-0.06,1.36,34.17
5530886,1918,1,200417,216367,-1.12,-0.99,9.69,-0.28,-0.04,1.33,34.17
5569199,1923,1,200336,215715,-0.95,-0.65,9.59,-0.32,-0.11,1.34,34.17
5609199,1941,1,199925,214344,-1.02,-0.96,9.79,-0.29,-0.19,1.26,34.17
5649199,1949,1,198862,211876,-0.81,-0.81,9.98,-0.25,-0.32,1.11,34.17
5689199,1927,1,197682,208365,-0.65,-1.08,9.84,-0.08,-0.16,1.03,34.17
5729199,1920,1,195714,202425,-0.79,-1.16,10.36,0.12,-0.13,1.00,34.17
5769178,1923,1,194328,200917,-0.45,-0.91,9.91,0.12,-0.14,0.89,34.17
5809178,1931,1,194059,200256,-0.35,-0.76,9.86,0.04,-0.05,0.78,34.17
5849177,1921,1,194233,201114,-0.70,-0.73,10.18,0.01,-0.10,0.68,34.17
5889177,1953,1,194399,200856,-0.24,-0.91,9.81,-0.04,-0.12,0.56,34.17
5929237,1886,1,194355,201921,-0.67,-0.75,9.98,0.09,-0.08,0.50,34.17
5969177,1955,1,195463,204776,-0.48,-0.44,9.78,0.17,0.10,0.53,34.17
6009166,1926,1,196213,205266,-0.64,-0.45,9.81,0.09,0.05,0.52,34.17
6049165,1961,1,195747,203920,-0.93,-0.29,10.13,0.10,-0.20,0.53,34.17
6089178,1919,1,194870,202633,-0.40,-0.20,9.79,0.09,-0.33,0.49,34.17
6130177,1929,1,194396,202193,-0.28,-0.06,9.83,-0.03,-0.15,0.37,34.17
6170199,1957,1,194658,203559,-0.25,0.00,9.97,0.02,0.05,0.35,34.17
6210143,1920,1,195477,205085,-0.37,0.13,10.01,0.05,0.25,0.40,34.17
6250147,1897,1,195965,205124,-0.74,0.41,10.40,0.10,0.22,0.51,34.17
6290144,1948,1,195085,201724,-0.71,0.30,10.34,0.12,0.07,0.56,34.17
6330146,1920,1,194020,200118,-0.62,0.45,10.08,0.09,0.05,0.49,34.17
6370143,1921,1,193562,199327,-0.53,0.42,9.74,-0.02,0.08,0.34,34.17
6410164,1934,1,193653,199979,-0.87,0.40,9.95,-0.05,0.18,0.27,34.17
6450164,2000,1,193745,200243,-0.55,0.28,9.74,0.08,-0.05,0.31,34.17
6490164,1940,1,194000,201191,-0.33,0.37,9.52,0.03,0.07,0.23,34.17
6530177,2032,1,194531,202578,-0.52,0.35,9.73,-0.07,0.19,0.19,34.17
6570850,2015,1,195051,203217,-0.69,0.12,10.04,-0.04,0.16,0.24,34.13
6609161,2039,1,194931,203085,-0.87,0.23,10.18,-0.06,0.06,0.23,34.13
6649165,2059,1,194720,202535,-0.73,0.33,9.89,-0.05,-0.05,0.20,34.13
6689171,2030,1,194518,202273,-0.94,0.44,10.28,-0.13,-0.02,0.11,34.13
6729176,2084,1,194514,202531,-0.70,0.25,9.99,-0.21,-0.15,0.00,34.13
6769176,2061,1,194566,202391,-0.42,0.24,10.00,-0.23,-0.07,-0.09,34.13
6809193,2093,1,194309,201683,-0.74,0.06,10.23,-0.21,-0.09,-0.11,34.13
6849197,2064,1,193474,198836,-0.68,0.24,10.15,-0.13,-0.19,-0.09,34.13
6889198,1991,1,192050,196606,-0.70,0.26,10.11,-0.17,-0.03,-0.11,34.13
6929199,2045,1,191605,196165,-0.73,0.30,10.00,-0.08,-0.04,-0.05,34.13
6969199,2063,1,191473,196406,-0.22,0.38,9.69,-0.05,-0.04,-0.08,34.13
7009196,2023,1,191779,197024,-0.33,0.14,9.96,-0.12,0.06,-0.09,34.13
7049178,2029,1,192000,198254,-0.33,-0.18,9.87,-0.11,-0.03,-0.11,34.13
7089211,2086,1,193059,200331,-0.60,-0.30,10.15,-0.12,0.20,-0.08,34.13
7129194,1973,1,193513,200338,-0.69,-0.46,10.10,-0.06,0.02,-0.04,34.13
7169192,2029,1,193215,199795,-0.77,-0.44,10.01,-0.04,-0.09,-0.04,34.13
7209210,1945,1,193001,199125,-0.83,-0.54,10.00,0.01,-0.10,-0.01,34.13
7249192,1951,1,192563,198418,-0.73,-0.30,10.01,0.05,-0.18,-0.01,34.13
7289194,1951,1,192316,198517,-0.76,-0.29,9.90,-0.06,-0.09,-0.15,34.13
7329211,1986,1,192503,198768,-0.65,-0.45,9.79,-0.11,-0.02,-0.21,34.13
7369210,2035,1,192406,198859,-0.65,-0.39,9.86,-0.05,-0.15,-0.18,34.13
7409210,2000,1,192397,198584,-0.45,-0.35,9.67,0.06,-0.13,-0.08,34.13
7449194,2006,1,191702,196432,-0.50,-0.23,9.94,0.04,-0.14,-0.07,34.13
7489192,2032,1,191027,195387,-0.36,-0.32,9.92,-0.03,-0.00,-0.09,34.13
7529210,2032,1,191180,196318,-0.32,-0.14,10.11,-0.10,0.12,-0.12,34.13
7569191,1975,1,192184,198305,-0.43,-0.62,10.02,-0.16,0.42,-0.09,34.13
7609878,1903,1,193178,199443,-0.47,-0.46,9.79,-0.10,0.41,-0.04,34.13
7650191,1904,1,193960,201327,-0.67,-0.29,9.68,-0.18,0.29,0.00,34.13
7690176,1959,1,195249,204096,-0.85,-0.20,9.63,-0.26,0.11,0.10,34.13
7730176,1909,1,196354,206456,-0.69,-0.30,9.56,-0.37,0.04,0.15,34.13
7770176,1925,1,197068,207871,-0.61,-0.51,9.72,-0.42,-0.15,0.20,34.13
7810192,1902,1,197515,207898,-0.32,-0.27,9.62,-0.43,-0.19,0.16,34.13
7850193,1888,1,196864,206885,-0.49,-0.41,9.65,-0.48,0.18,0.17,34.13
7890171,1904,1,197556,208785,-0.97,-1.48,10.44,-0.41,-0.06,0.25,34.13
7930193,1920,1,197410,208614,-0.67,-1.04,10.44,-0.27,-0.48,0.23,34.13
7970192,1946,1,197650,209715,-0.31,-1.47,10.27,-0.33,-0.17,0.13,34.13
8010197,1953,1,197657,208671,-0.23,-1.78,10.40,-0.29,-0.12,0.02,34.13
8050193,1984,1,196862,206946,-0.19,-2.09,10.32,-0.12,-0.04,-0.02,34.13
8090212,1927,1,196519,207723,-0.37,-2.38,10.47,-0.14,-0.00,-0.18,34.13
8130213,1970,1,197330,210498,-0.63,-1.81,10.60,-0.25,0.01,-0.32,34.13
8170218,1984,1,198210,212666,-0.23,-1.85,10.12,-0.07,-0.18,-0.25,34.13
8210213,2018,1,198579,214962,0.44,-1.41,9.62,0.10,-0.21,-0.29,34.13
8250179,2063,1,200379,221284,0.20,-1.26,9.79,0.16,0.10,-0.32,34.13
8290170,2099,1,203284,229901,0.13,-1.37,9.81,0.26,0.08,-0.29,34.13
8330171,2107,1,205883,233632,-0.03,-1.41,9.52,0.26,0.23,-0.33,34.13
8370203,2127,1,206700,234964,-0.62,-1.00,9.85,0.33,0.33,-0.26,34.13
8410178,2079,1,206920,235607,-0.86,-0.68,9.95,0.35,0.19,-0.10,34.13
8450176,2103,1,207189,236508,-0.88,-0.78,9.74,0.23,-0.03,-0.05,34.13
8490193,2128,1,207520,237607,-1.12,-1.05,9.87,0.05,0.01,-0.13,34.13
8530176,2125,1,207723,238335,-0.96,-1.42,9.63,-0.09,0.03,-0.20,34.13
8570193,2122,1,207850,238976,-0.90,-1.44,9.73,-0.15,0.01,-0.22,34.13
8610877,1991,1,207858,238099,-0.79,-1.62,9.79,-0.16,0.01,-0.23,34.13
8649197,2105,1,207172,236832,-0.68,-1.65,9.81,-0.12,-0.06,-0.23,34.13
8689212,2085,1,206672,235814,-0.66,-1.67,9.96,-0.10,-0.11,-0.26,34.13
8729215,2061,1,206301,235495,-0.71,-1.53,9.92,-0.04,-0.13,-0.28,34.13
8769213,2061,1,206278,235842,-0.91,-1.47,9.96,-0.04,0.09,-0.32,34.13
8809199,2015,1,206480,236512,-1.14,-1.52,10.04,0.02,0.09,-0.34,34.13
8849179,1959,1,206682,237180,-1.18,-1.62,9.99,0.04,0.07,-0.36,34.13
8889179,1978,1,206774,237244,-1.14,-1.49,9.98,0.04,-0.05,-0.36,34.13
8929199,1931,1,206755,237252,-0.93,-1.51,9.81,0.00,-0.08,-0.39,34.13
8969199,1915,1,206809,237774,-0.58,-1.46,9.50,-0.04,-0.04,-0.45,34.13
9009212,1871,1,207032,238240,-0.39,-1.44,9.54,-0.05,0.10,-0.56,34.13
9049199,1922,1,207199,238716,-0.46,-1.38,9.74,0.02,0.14,-0.61,34.13
9089179,1902,1,207346,239007,-0.47,-1.22,9.86,0.10,0.10,-0.67,34.13
9129179,1894,1,207337,239008,-0.34,-0.94,9.72,0.19,0.04,-0.69,34.13
9169179,1851,1,207156,238605,-0.45,-0.48,9.78,0.24,-0.04,-0.68,34.13
9209199,1889,1,206944,238046,-0.79,-0.58,10.12,0.24,0.02,-0.66,34.13
9249179,1840,1,206575,236309,-0.96,-0.90,10.21,0.21,0.18,-0.82,34.13
9289179,1845,1,205935,234530,-1.05,-1.12,10.38,0.25,0.15,-0.99,34.13
9329179,1843,1,205557,233787,-0.89,-0.84,9.98,0.22,0.15,-1.12,34.13
9369179,1819,1,205467,233562,-1.22,-0.44,10.04,0.19,0.31,-1.14,34.13
9409178,1833,1,205529,233433,-1.50,-0.21,10.14,0.30,0.29,-0.99,34.13
9449179,1829,1,205532,233556,-1.39,-0.26,9.81,0.25,0.16,-0.93,34.13
9489179,1845,1,205489,233571,-1.30,-0.51,9.65,0.18,0.08,-0.90,34.13
9529179,1865,1,205432,233516,-1.11,-0.37,9.37,0.29,0.02,-0.79,34.13
9569179,1869,1,205464,233632,-1.01,0.11,9.43,0.30,0.08,-0.70,34.13
9609177,1904,1,205709,234047,-1.35,0.23,9.72,0.23,0.27,-0.60,34.13
9649851,1844,1,206059,234474,-1.58,-0.14,10.11,0.14,0.27,-0.53,34.37
9690178,1887,1,206244,234696,-1.46,-0.80,10.13,0.06,0.04,-0.58,34.37
9730176,1879,1,206415,235017,-1.18,-0.72,9.92,0.01,-0.05,-0.65,34.37
9770192,1841,1,206590,235409,-1.11,-0.49,9.94,-0.01,-0.03,-0.71,34.37
9810223,1886,1,206616,235297,-1.19,-0.32,9.89,0.03,-0.08,-0.67,34.37
9850194,1859,1,206253,233563,-1.24,-0.40,9.83,0.10,-0.10,-0.63,34.37
9890192,1906,1,205369,230232,-1.25,-0.25,9.77,0.14,-0.05,-0.64,34.37
9930193,1949,1,203942,225033,-1.12,-0.02,9.48,0.21,0.06,-0.58,34.37
9970176,1966,1,202585,222104,-1.31,-0.06,9.60,0.22,0.07,-0.49,34.37
10010176,1922,1,202018,221388,-1.31,-0.04,9.66,0.13,-0.05,-0.52,34.37
10050192,1999,1,202334,223172,-1.04,-0.06,9.73,-0.04,-0.02,-0.62,34.37
10090210,1983,1,203098,225055,-1.16,-0.23,10.16,-0.21,-0.00,-0.72,34.37
10130210,1963,1,203575,225791,-1.04,-0.17,10.11,-0.19,-0.00,-0.73,34.37
10170210,1997,1,203703,225542,-0.95,-0.40,9.87,-0.08,0.12,-0.65,34.37
10210191,1988,1,203503,224851,-1.22,-0.45,10.04,0.01,0.06,-0.62,34.37
10250176,2039,1,203161,223442,-1.21,-0.10,10.15,0.03,-0.06,-0.61,34.37
10290192,2041,1,202336,221489,-1.08,-0.16,10.17,-0.03,-0.20,-0.58,34.37
10330216,1948,1,201668,220520,-0.96,-0.43,10.36,-0.11,-0.35,-0.60,34.37
10370213,1932,1,201263,220137,-0.89,-0.52,10.40,-0.18,-0.40,-0.63,34.37
10410216,1942,1,201420,222254,-0.80,-0.54,10.25,-0.13,-0.27,-0.61,34.37
10450213,1968,1,202357,223899,-0.74,-0.56,10.33,-0.09,-0.10,-0.61,34.37
10490216,1997,1,202147,221825,-0.44,-0.72,10.09,-0.02,-0.07,-0.62,34.37
10530212,2067,1,201732,221951,-0.81,-0.41,10.19,0.07,0.01,-0.64,34.37
10570179,2075,1,202143,222698,-0.81,-0.56,10.16,0.19,0.08,-0.62,34.37
10610179,2065,1,202520,223682,-0.68,-0.49,10.01,0.29,0.18,-0.56,34.37
10650862,2030,1,203011,224296,-0.68,-0.36,9.84,0.36,0.18,-0.40,34.15
10689171,2033,1,203258,224546,-0.79,0.01,9.59,0.36,0.04,-0.24,34.15
10729165,2015,1,203317,224546,-0.98,0.42,9.67,0.32,-0.16,-0.08,34.15
10769171,2016,1,203143,224554,-0.91,0.42,9.61,0.24,-0.24,0.08,34.15
10809165,1981,1,203002,224019,-0.79,0.54,9.69,0.07,-0.19,0.13,34.15
10849161,1968,1,202666,223380,-0.61,0.37,9.83,-0.09,-0.18,0.09,34.15
10889176,1955,1,202594,224357,-0.51,-0.02,9.85,-0.25,-0.01,0.00,34.15
10929196,1999,1,203333,226760,-0.61,-0.09,10.20,-0.31,0.04,-0.07,34.15
10969199,1968,1,204215,229019,-0.43,-0.38,10.14,-0.29,0.08,-0.12,34.15
11009199,1958,1,204917,230439,-0.61,-0.23,10.08,-0.31,0.13,-0.14,34.15
11049199,1917,1,205165,231127,-0.91,-0.12,9.74,-0.14,0.08,0.04,34.15
11089177,1968,1,205052,229955,-0.99,0.01,9.54,0.05,-0.00,0.24,34.15
11129170,1927,1,203725,223967,-1.05,0.44,9.54,0.10,0.05,0.30,34.15
11169146,1907,1,201376,219523,-1.16,0.37,9.64,0.03,0.14,0.30,34.15
11209147,1879,1,200781,218983,-0.88,0.50,9.56,-0.07,0.19,0.26,34.15
11249170,1899,1,200798,220108,-1.13,-0.03,10.17,-0.17,0.31,0.25,34.15
11289176,1851,1,202107,224031,-1.00,-0.43,10.33,-0.23,0.25,0.21,34.15
11349176,1847,1,203175,226570,-0.94,-0.51,10.24,-0.16,0.11,0.19,34.15
11389176,1857,1,204366,229468,-0.85,-0.45,9.97,-0.15,0.14,0.15,34.15
11429176,1841,1,205342,230839,-1.21,-0.42,10.17,-0.12,0.14,0.13,34.15
11469176,1861,1,205500,230981,-1.60,-0.53,10.39,-0.05,-0.09,0.13,34.15
11509191,1888,1,205347,230863,-1.58,-0.29,10.11,0.05,-0.30,0.15,34.15
11549176,1868,1,205140,230687,-1.23,-0.09,9.65,0.06,-0.37,0.14,34.15
11589176,1895,1,204977,230635,-1.15,0.09,9.48,0.06,-0.27,0.19,34.15
11629165,1849,1,205050,231387,-0.86,0.41,9.34,0.07,-0.13,0.24,34.15
11669851,1819,1,205819,233295,-0.95,0.20,9.45,0.02,0.21,0.27,34.25
11710144,1850,1,206796,234779,-1.66,-0.07,10.23,-0.13,0.40,0.18,34.25
11750176,1860,1,207377,235315,-1.91,-0.05,10.21,-0.14,0.19,0.18,34.25
11790176,1894,1,207153,234054,-1.63,0.10,9.85,-0.16,0.10,0.21,34.25
11830165,1869,1,206486,232206,-1.63,0.03,9.94,-0.27,-0.03,0.16,34.25
11870176,1442,1,205620,230082,-1.41,-0.04,10.07,-0.28,-0.12,0.07,34.25
11910191,1264,1,204824,229298,-1.29,-0.38,10.11,-0.23,-0.09,0.00,34.25
11950192,1313,1,205002,230582,-1.41,-0.24,10.32,-0.10,-0.08,0.02,34.25
11990192,1318,1,205474,232139,-1.12,-0.21,10.03,0.07,-0.22,0.08,34.25
12030179,1347,1,205771,233337,-0.93,0.12,9.64,0.12,-0.21,0.13,34.25
12069170,1850,1,206052,234483,-0.93,0.57,9.25,0.14,-0.08,0.08,34.25
12109170,1873,1,206299,235496,-1.01,0.30,9.56,-0.07,0.13,-0.08,34.25
12149179,1437,1,206653,236453,-1.17,-0.23,9.98,-0.18,0.30,-0.11,34.25
12189200,1375,1,206730,237003,-0.94,-0.49,9.98,-0.13,0.17,-0.01,34.25
12229199,1357,1,206735,237416,-1.39,-0.34,10.33,-0.11,0.12,0.14,34.25
12269215,1360,1,206797,237572,-1.60,-0.34,10.66,-0.02,-0.03,0.31,34.25
12309199,1355,1,206692,237702,-1.01,-0.44,10.18,-0.01,-0.13,0.36,34.25
12349200,1329,1,206860,237936,-0.85,-0.23,9.90,-0.11,-0.05,0.32,34.25
12389199,1338,1,206822,236915,-0.71,-0.48,9.84,-0.14,-0.03,0.32,34.25
12429199,1333,1,206259,235168,-0.35,-0.52,9.66,-0.07,-0.12,0.28,34.25
12469228,1333,1,205791,234045,-0.34,-0.22,9.69,-0.07,-0.08,0.23,34.25
12509198,1347,1,205463,233397,-0.54,-0.28,9.90,-0.09,-0.08,0.20,34.25
12549195,1325,1,205368,233338,-0.66,-0.16,9.77,-0.22,-0.05,0.14,34.25
12589198,1343,1,205389,233625,-1.19,-0.38,10.15,-0.26,0.05,0.22,34.25
12629178,1333,1,205471,233673,-1.42,-0.47,10.24,-0.18,-0.04,0.40,34.25
12669884,1258,1,205341,233090,-1.12,-0.32,10.16,-0.18,-0.29,0.53,34.29
12710199,1305,1,204888,232344,-1.05,-0.65,10.02,-0.30,-0.27,0.45,34.29
12750199,1301,1,204720,232703,-1.40,-0.93,10.28,-0.38,-0.13,0.33,34.29
12790199,1342,1,204946,233518,-1.13,-0.86,9.86,-0.24,-0.20,0.30,34.29
12830199,1504,1,205167,234365,-0.95,-0.55,9.46,-0.13,-0.16,0.31,34.29
12870199,1601,1,205574,235574,-1.38,-0.78,9.61,-0.07,0.02,0.35,34.29
12910179,1681,1,206166,236982,-1.17,-1.22,9.31,-0.12,0.03,0.29,34.29
12950179,1700,1,206610,237838,-1.11,-1.26,9.26,-0.20,0.08,0.21,34.29
12990179,1669,1,206798,237968,-1.05,-1.17,9.26,-0.19,0.06,0.23,34.29
13030179,1662,1,206310,236130,-1.15,-0.99,9.42,-0.22,0.05,0.25,34.29
13070179,1715,1,205634,234405,-1.53,-0.58,9.96,-0.23,0.12,0.34,34.29
13109179,1834,1,205065,232686,-2.05,-0.89,10.54,-0.17,0.13,0.53,34.29
13149176,1843,1,204491,231075,-2.22,-0.96,10.51,-0.14,-0.11,0.62,34.29
13189199,1893,1,203990,230286,-1.65,-1.10,9.95,-0.21,-0.20,0.54,34.29
13229200,1938,1,204024,231422,-1.48,-1.40,10.00,-0.25,-0.07,0.41,34.29
13269199,1981,1,204631,233054,-1.13,-1.59,9.90,-0.17,0.07,0.34,34.29
13309179,1958,1,205103,234111,-1.19,-1.73,10.01,-0.01,0.24,0.38,34.29
13349171,1939,1,205503,234943,-1.30,-1.58,10.00,0.09,0.20,0.47,34.29
13389165,1933,1,205825,235900,-0.94,-1.37,9.60,0.03,0.10,0.50,34.29
13429165,1947,1,205997,236649,-0.91,-1.19,9.35,-0.14,-0.11,0.46,34.29
13469197,1887,1,206033,237367,-0.55,-1.22,9.08,-0.35,-0.19,0.40,34.29
13509192,1980,1,206084,237768,-0.96,-1.57,9.69,-0.33,0.05,0.53,34.29
13549178,1947,1,206066,237736,-1.25,-1.40,10.30,-0.18,-0.04,0.69,34.29
13589198,1941,1,206001,237672,-1.54,-1.45,10.37,-0.11,-0.04,0.76,34.29
13629193,1714,1,205978,236917,-1.88,-1.82,10.64,0.02,-0.10,0.84,34.29
13669864,1964,1,205328,234593,-1.73,-1.77,10.33,0.14,-0.31,0.85,34.33
13710181,1985,1,204529,232743,-1.87,-1.63,9.51,-0.05,-0.20,0.69,34.33
13750199,1984,1,204017,230946,-1.97,-1.10,9.08,-0.25,-0.21,0.58,34.33
13790198,2004,1,203560,229955,-1.51,-1.56,8.62,-0.46,-0.02,0.53,34.33
13830194,1987,1,203402,229070,-2.13,-1.50,9.77,-0.36,0.04,0.73,34.33
13870178,2077,1,203036,228242,-2.02,-1.34,9.98,-0.06,-0.34,1.05,34.33
13910202,2035,1,202945,228152,-0.98,-1.24,9.39,-0.06,-0.27,1.07,34.33
13950198,2047,1,202946,228282,-0.85,-1.19,9.50,-0.07,-0.09,0.89,34.33
13990193,2032,1,203024,228104,-0.52,-1.06,10.06,-0.05,0.07,0.84,34.33
14030178,2021,1,202699,227524,-0.78,-0.93,9.82,-0.26,-0.22,0.71,34.33
14070195,1975,1,202737,228143,-0.87,-1.49,9.96,-0.40,0.16,0.63,34.33
14111178,1994,1,202720,227456,-1.31,-1.83,10.73,-0.19,-0.08,0.64,34.33
14149199,1995,1,202189,226755,-0.86,-1.76,10.08,-0.00,-0.32,0.56,34.33
14189199,2019,1,202493,228059,-0.84,-1.55,9.97,0.09,0.04,0.57,34.33
14229165,2028,1,202741,227360,-0.71,-1.23,9.95,0.20,0.02,0.56,34.33
14269170,2011,1,201559,220909,-0.84,-0.73,9.74,0.19,0.13,0.55,34.33
14309178,2032,1,199212,215157,-1.31,-0.71,10.35,0.07,0.31,0.57,34.33
14349169,2014,1,197933,213305,-1.74,-1.24,10.15,0.05,0.04,0.55,34.33
14389169,2057,1,197681,212860,-1.64,-1.03,10.07,0.06,-0.18,0.56,34.33
14429176,2025,1,197169,211226,-1.37,-0.77,10.01,0.08,-0.35,0.53,34.33
14469177,2057,1,195902,207823,-1.08,-0.52,9.78,0.00,-0.38,0.43,34.33
14509176,2039,1,194806,206359,-1.52,-0.75,10.25,0.03,-0.26,0.41,34.33
14549176,2057,1,194287,205655,-1.10,-0.74,10.15,0.16,-0.23,0.37,34.33
14589176,2112,1,194402,206901,-1.21,-0.54,10.18,0.18,-0.03,0.28,34.33
14629176,2064,1,195368,209345,-1.20,-0.26,10.05,0.21,0.13,0.25,34.33
14669165,2069,1,196522,212669,-1.04,-0.36,9.79,0.19,0.07,0.18,34.33
14709847,2010,1,197931,215700,-1.02,-0.13,9.77,0.14,0.08,0.16,34.45
14750165,2033,1,198678,217554,-0.71,-0.28,9.51,0.07,0.02,0.16,34.45
14790161,2047,1,199442,219790,-0.88,-0.27,9.38,-0.03,0.12,0.03,34.45
14830176,2032,1,200302,221434,-0.98,-0.19,9.49,-0.00,0.18,-0.09,34.45
14870190,2002,1,200121,217173,-1.02,-0.19,9.28,0.08,0.26,-0.10,34.45
14910176,2012,1,197822,211530,-1.32,0.11,9.59,0.11,0.23,-0.11,34.45
14950165,1997,1,196761,210630,-1.67,0.45,9.88,0.04,0.13,-0.09,34.45
14990165,2038,1,196546,209364,-1.56,0.68,9.95,-0.02,-0.01,-0.05,34.45
15030192,1983,1,195968,208913,-1.58,0.26,9.98,-0.14,-0.02,-0.02,34.45
15070199,1975,1,196161,210061,-1.29,0.43,9.82,-0.21,-0.20,-0.07,34.45
15110200,2013,1,196699,212239,-1.41,0.22,10.01,-0.34,0.03,-0.05,34.45
15149179,2065,1,197798,216132,-1.75,-0.24,10.43,-0.40,-0.00,-0.05,34.45
15189213,2019,1,199034,218742,-1.55,-0.29,10.41,-0.33,-0.14,-0.04,34.45
15229217,2005,1,199632,220229,-1.09,-0.45,10.06,-0.25,-0.25,-0.08,34.45
15269213,1968,1,200114,222231,-0.92,-0.40,10.03,-0.25,-0.24,-0.16,34.45
15309216,2015,1,200896,224021,-0.96,-0.79,10.09,-0.21,-0.19,-0.19,34.45
15349213,1994,1,201287,225319,-1.21,-0.91,10.25,-0.09,-0.30,-0.20,34.45
15389216,1994,1,201877,227177,-1.13,-0.90,9.98,0.00,-0.18,-0.17,34.45
15429200,1958,1,202382,227778,-1.00,-0.74,9.73,0.06,-0.09,-0.11,34.45
15469200,1972,1,202013,224324,-1.08,-0.72,9.63,0.11,-0.04,0.03,34.45
15509179,1979,1,199533,215052,-1.06,-0.95,9.61,0.18,-0.17,0.11,34.45
15549179,1998,1,196485,209463,-0.80,-0.63,9.39,0.17,-0.22,0.07,34.45
15589180,2013,1,195581,209253,-0.85,-0.51,9.49,0.03,0.05,0.00,34.45
15629171,1994,1,195890,209402,-0.81,-0.70,9.58,-0.04,0.10,-0.05,34.45
15669197,2074,1,196050,210523,-0.97,-0.79,9.79,-0.04,0.01,-0.08,34.45
15709886,2066,1,196878,212898,-1.07,-0.85,9.91,-0.04,0.11,-0.09,34.23
15750205,2079,1,197658,214060,-1.11,-0.74,10.22,0.02,0.11,-0.09,34.23
15790180,2062,1,197923,214805,-1.13,-0.83,10.23,0.06,0.01,-0.09,34.23
15830180,2141,1,198430,216666,-0.98,-0.71,10.16,0.11,0.01,-0.08,34.23
15870179,2123,1,199358,219272,-0.74,-0.44,10.10,0.10,0.07,-0.10,34.23
15910180,2144,1,200352,221914,-0.71,-0.35,9.98,0.01,0.05,-0.08,34.23
15950205,2133,1,201069,223569,-0.78,-0.41,10.07,-0.11,0.03,-0.07,34.23
15990195,2122,1,201772,225295,-0.79,-0.80,9.81,-0.23,0.00,-0.07,34.23
16030196,2074,1,202235,226028,-0.66,-0.60,9.67,-0.27,-0.10,-0.07,34.23
16070212,2047,1,202025,223027,-0.85,-0.82,9.69,-0.31,-0.08,-0.02,34.23
16110212,2023,1,199904,216960,-0.86,-0.93,9.63,-0.31,-0.10,-0.01,34.23
16150212,1969,1,198909,217139,-0.78,-0.91,9.58,-0.29,-0.09,-0.02,34.23
16189216,2034,1,199490,218976,-0.69,-0.96,9.52,-0.29,0.01,0.00,34.23
16229179,2073,1,200306,221178,-0.77,-1.00,9.74,-0.32,-0.02,0.02,34.23
16269199,2038,1,200811,221698,-0.71,-1.54,9.83,-0.42,0.07,-0.01,34.23
16309199,2112,1,201085,222365,-0.92,-2.11,10.38,-0.60,0.13,-0.12,34.23
16349200,2040,1,201184,222784,-0.88,-1.73,10.28,-0.54,-0.12,-0.13,34.23
16389214,2074,1,201169,222856,-0.62,-1.63,10.18,-0.26,-0.35,0.05,34.23
16429200,2096,1,201108,223146,-0.09,-1.49,9.95,-0.04,-0.45,0.19,34.23
16469200,2047,1,201220,223939,-0.06,-1.36,9.92,0.05,-0.21,0.16,34.23
16509179,2029,1,201520,225556,-0.30,-1.79,10.49,0.06,-0.10,0.03,34.23
16549179,2062,1,202414,228502,-0.29,-1.97,10.62,-0.03,-0.09,-0.18,34.23
16589216,2043,1,203315,230328,0.01,-1.81,10.50,-0.02,-0.10,-0.31,34.23
16629200,2133,1,203777,231084,0.21,-1.92,10.13,0.01,0.23,-0.30,34.23
16669171,1999,1,203674,229157,-0.20,-2.18,10.19,0.17,0.29,-0.27,34.23
16709179,2133,1,202551,225361,0.15,-1.65,9.71,0.42,-0.15,-0.30,34.23
16749866,2150,1,201399,222951,0.25,-0.94,9.36,0.54,-0.02,-0.21,34.01
16790179,2239,1,201101,223041,0.17,-0.41,9.35,0.55,0.03,-0.15,34.01
16830171,2222,1,201375,223600,0.66,0.30,8.45,0.63,0.33,0.01,34.01
16870125,2161,1,201843,223872,-0.12,-0.34,9.14,0.42,0.78,0.07,34.01
16910165,2109,1,202342,224819,-1.59,-1.31,10.28,-0.00,0.43,-0.16,34.01
16950195,1999,1,202519,225617,-1.35,-1.22,9.79,-0.08,-0.01,-0.41,34.01
16990212,1920,1,202770,226642,-1.28,-0.73,9.71,-0.03,0.12,-0.41,34.01
17030194,1943,1,202975,227346,-1.08,-0.67,9.66,0.01,0.18,-0.31,34.01
17070178,1943,1,203224,227987,-1.24,-0.94,9.74,-0.03,0.28,-0.34,34.01
17110194,1967,1,203370,228258,-1.49,-1.07,9.76,-0.07,0.22,-0.35,34.01
17150199,1945,1,203403,228471,-1.81,-1.04,9.97,-0.09,0.07,-0.34,34.01
17189199,1948,1,203364,228484,-1.61,-0.92,9.63,-0.07,0.01,-0.31,34.01
17229200,1937,1,203025,226298,-1.77,-0.81,9.81,-0.10,-0.01,-0.31,34.01
17269213,1968,1,201469,220832,-1.74,-1.04,9.76,-0.18,0.04,-0.37,34.01
17309200,1936,1,200064,218906,-1.66,-1.24,9.87,-0.18,0.09,-0.39,34.01
17349200,1973,1,199824,219188,-1.78,-1.41,10.02,-0.14,0.12,-0.37,34.01
17389239,1973,1,199981,219532,-1.93,-1.20,10.01,-0.08,0.06,-0.32,34.01
17429200,2002,1,200070,219813,-2.04,-1.17,9.93,-0.02,0.11,-0.26,34.01
17469200,1952,1,200060,219637,-2.35,-1.29,10.39,0.15,0.01,-0.16,34.01
17509179,1973,1,199793,219005,-2.21,-1.40,10.46,0.25,-0.23,-0.17,34.01
17549202,1894,1,199887,220469,-2.07,-1.23,10.27,0.21,-0.18,-0.25,34.01
17589238,1909,1,200591,222304,-1.68,-0.82,9.75,0.21,-0.08,-0.30,34.01
17629200,1923,1,200968,223386,-1.23,-0.60,9.16,0.19,-0.17,-0.25,34.01
17669199,1978,1,201529,225345,-1.03,-0.37,9.11,0.04,-0.02,-0.33,34.01
17709199,1905,1,202272,226975,-1.22,-0.72,9.66,-0.09,0.14,-0.40,34.01
17749887,1808,1,202687,227339,-1.10,-0.78,9.91,-0.04,-0.07,-0.47,34.15
17790216,1915,1,202772,227169,-0.95,-0.54,9.91,0.09,-0.18,-0.47,34.15
17830199,1917,1,202308,223298,-0.82,-0.77,9.78,0.17,-0.17,-0.50,34.15
17870199,1857,1,200350,217556,-0.91,-0.46,9.79,0.13,0.05,-0.62,34.15
17910180,1868,1,199276,216327,-1.31,-0.56,10.20,0.15,0.10,-0.74,34.15
17950178,1854,1,199444,216832,-1.35,-0.90,10.13,0.16,0.07,-0.87,34.15
17990179,1858,1,199455,216547,-1.69,-0.63,10.09,0.14,-0.01,-1.02,34.15
18030200,1823,1,199577,217432,-1.73,-0.46,10.09,0.23,-0.06,-1.05,34.15
18070199,1794,1,199812,217763,-1.17,0.07,9.89,0.19,-0.16,-1.06,34.15
18110179,1779,1,199500,217542,-1.41,-0.00,9.91,-0.03,0.06,-1.11,34.15
18150199,1796,1,199642,217455,-1.29,-0.79,9.39,0.01,0.35,-1.04,34.15
18190179,1826,1,199499,216977,-1.24,-0.60,9.50,0.25,0.09,-0.79,34.15
18230179,1813,1,199477,217690,-1.24,0.25,9.39,0.28,-0.01,-0.60,34.15
18270178,1814,1,199985,218440,-1.34,0.02,9.81,-0.03,0.18,-0.59,34.15
18310177,1744,1,200039,218058,-1.86,-1.02,10.31,-0.26,0.04,-0.64,34.15
18350198,1767,1,200032,218409,-1.51,-1.51,10.04,-0.19,-0.18,-0.63,34.15
18390211,1787,1,199810,215826,-1.00,-1.38,9.71,-0.11,-0.28,-0.66,34.15
18430212,1795,1,198283,212676,-1.01,-1.12,9.73,-0.07,-0.16,-0.71,34.15
18470211,1799,1,197732,212341,-0.95,-1.29,9.60,-0.02,0.09,-0.72,34.15
18510199,1776,1,197928,212923,-1.13,-1.31,9.95,0.06,0.17,-0.68,34.15
18550177,1751,1,198408,215000,-1.34,-1.07,10.09,0.09,0.13,-0.65,34.15
18590179,1795,1,199450,217264,-1.38,-0.72,10.02,0.09,0.15,-0.63,34.15
18630177,1844,1,200064,218035,-1.58,-0.54,10.18,0.15,0.11,-0.49,34.15
18670179,1812,1,199973,217357,-1.53,-0.26,10.08,0.20,-0.05,-0.33,34.15
18710194,1861,1,199635,216847,-1.36,-0.12,9.73,0.20,-0.09,-0.24,34.15
18750884,1899,1,199485,216824,-1.46,-0.13,9.83,0.16,-0.05,-0.20,34.17
18789199,1970,1,199510,217389,-1.64,-0.00,10.13,0.11,-0.09,-0.17,34.17
18829200,1974,1,199645,218285,-1.28,-0.24,9.82,0.02,-0.09,-0.16,34.17
18869199,1958,1,200018,219889,-1.20,-0.32,9.66,-0.08,0.01,-0.17,34.17
18909199,1991,1,200657,220964,-1.25,-0.65,9.68,-0.02,0.06,-0.07,34.17
18949199,2031,1,200653,219413,-1.10,-0.58,9.65,0.05,-0.07,-0.01,34.17
18989199,2029,1,199325,214849,-0.96,-0.69,9.55,0.00,0.03,-0.06,34.17
19029177,1996,1,198235,213552,-1.08,-0.76,9.76,-0.08,0.14,-0.16,34.17
19069198,1989,1,198406,214167,-0.78,-0.46,9.66,-0.04,0.14,-0.14,34.17
19109194,1979,1,198787,215179,-0.85,-0.63,9.81,-0.07,0.12,-0.12,34.17
19149197,1968,1,199505,217488,-0.99,-0.51,10.13,-0.03,-0.03,-0.10,34.17
19189211,1916,1,200568,219834,-0.63,-0.85,9.79,-0.08,0.01,-0.20,34.17
19229216,1886,1,201209,221131,-0.91,-0.59,10.06,-0.08,0.08,-0.31,34.17
19269198,1885,1,201839,222427,-1.18,-0.68,10.36,-0.02,0.01,-0.37,34.17
19309199,1901,1,202403,223365,-0.91,-0.74,9.90,0.05,-0.05,-0.41,34.17
19349194,1872,1,202759,223872,-0.92,-0.51,9.97,0.06,-0.11,-0.47,34.17
19389199,1905,1,203220,225415,-1.15,-0.56,10.11,0.00,0.00,-0.52,34.17
19429195,1871,1,203952,226952,-1.21,-0.51,10.28,-0.03,-0.07,-0.52,34.17
19469216,1910,1,204519,228429,-1.13,-0.44,10.12,-0.03,-0.09,-0.46,34.17
19509212,1915,1,205067,229327,-1.02,-0.63,10.02,0.01,-0.04,-0.35,34.17
19549198,1959,1,205081,227737,-0.91,-0.65,9.82,0.01,-0.02,-0.29,34.17
19589198,1965,1,204041,223295,-1.06,-0.69,9.94,-0.08,0.07,-0.32,34.17
19629198,1991,1,202915,221216,-1.30,-0.84,9.96,-0.05,0.04,-0.33,34.17
19669198,1991,1,202949,221932,-1.20,-0.63,9.89,-0.00,0.02,-0.31,34.17
19709199,1968,1,203563,223724,-0.96,-0.60,9.56,0.07,0.07,-0.25,34.17
19749178,2009,1,204327,225727,-0.74,-0.45,9.29,0.16,0.15,-0.14,34.17
19789863,1996,1,205129,227418,-1.15,-0.52,9.65,0.12,0.25,-0.08,34.15
19830177,1959,1,205676,228397,-1.63,-0.37,10.16,0.05,0.19,-0.01,34.15
19870179,1979,1,205955,229038,-1.61,-0.42,10.07,0.01,0.11,0.07,34.15
19910166,1934,1,206194,229757,-1.59,-0.41,10.23,-0.07,0.06,0.08,34.15
19950179,1903,1,206546,230764,-1.78,-0.53,10.15,-0.16,0.14,0.05,34.15
19990177,1945,1,207009,231732,-1.89,-0.71,9.98,-0.12,0.18,0.08,34.15
20030179,1901,1,207244,232481,-1.80,-0.61,9.68,0.00,0.04,0.12,34.15
20070166,1939,1,207514,233270,-1.54,-0.40,9.36,0.15,0.12,0.17,34.15
20110170,1943,1,207819,233509,-1.90,-0.04,9.65,0.25,0.24,0.17,34.15
20150165,1942,1,207692,232150,-2.31,0.30,9.88,0.28,0.31,0.23,34.15
20190146,1941,1,207219,229969,-2.26,0.02,9.82,0.21,0.31,0.29,34.15
20230147,1950,1,206851,229237,-2.33,0.18,9.93,0.06,0.08,0.26,34.15
20270146,1967,1,207188,230313,-1.88,0.24,9.67,-0.13,-0.07,0.23,34.15
20310177,1979,1,207654,231374,-1.65,0.21,9.50,-0.22,-0.12,0.21,34.15
20350178,1951,1,207999,232989,-1.92,0.05,9.84,-0.29,-0.28,0.27,34.15
20390177,1959,1,208709,234765,-1.79,-0.14,9.64,-0.21,-0.31,0.33,34.15
20430198,1966,1,209179,236199,-1.73,0.02,9.73,-0.14,-0.28,0.37,34.15
20470176,1945,1,209633,237482,-1.84,-0.18,9.93,-0.15,-0.18,0.39,34.15
20510198,1977,1,210200,238926,-1.49,-0.33,9.66,-0.10,-0.20,0.34,34.15
20550193,1983,1,210612,240020,-1.41,-0.21,9.72,-0.11,-0.17,0.29,34.15
20590198,1975,1,210884,240708,-1.38,-0.40,9.87,-0.19,-0.15,0.20,34.15
20630194,1760,1,210933,241011,-1.26,-0.26,9.76,-0.22,-0.16,0.10,34.15
20670198,1589,1,210883,241128,-1.35,-0.36,9.98,-0.25,-0.11,0.04,34.15
20710195,1941,1,210874,240336,-1.41,-0.52,9.96,-0.27,-0.09,-0.04,34.15
20750211,1472,1,209713,236743,-1.46,-0.28,9.98,-0.17,-0.25,0.01,34.15
20790880,1960,1,208501,234787,-1.35,-0.32,9.92,-0.09,-0.33,0.11,34.25
20829197,2078,1,207931,233898,-1.12,-0.30,9.95,-0.02,-0.35,0.14,34.25
20869196,2079,1,207503,233258,-0.74,-0.38,9.89,-0.04,-0.20,0.10,34.25
20909194,2115,1,207126,232786,-0.91,-0.43,10.17,-0.05,-0.02,0.05,34.25
20949190,1491,1,206911,232970,-0.98,-0.43,10.27,-0.05,0.05,0.01,34.25
21049176,1968,1,206776,232737,-0.85,-0.08,10.13,-0.00,-0.01,0.00,34.25
21089192,2113,1,206597,232549,-0.76,-0.04,9.91,0.01,0.04,0.01,34.25
21129165,2119,1,206450,232447,-0.67,-0.26,9.78,0.03,0.08,-0.05,34.25
21169177,2128,1,206424,232511,-0.73,-0.08,9.92,0.10,0.15,-0.09,34.25
21209177,2100,1,206474,232414,-0.92,-0.17,10.08,0.17,0.11,-0.09,34.25
21249177,2087,1,206155,231821,-0.84,-0.02,9.97,0.24,-0.10,-0.10,34.25
21289194,2059,1,205854,231425,-1.05,0.23,10.10,0.22,-0.04,-0.13,34.25
21329179,2018,1,205139,228611,-0.68,0.05,9.97,0.20,-0.01,-0.20,34.25
21369179,1994,1,203816,225563,-0.62,0.00,9.92,0.11,0.15,-0.30,34.25
21409167,1392,1,203146,223897,-0.72,0.17,9.89,0.08,0.35,-0.28,34.25
21449165,1300,1,203245,223979,-0.88,-0.06,9.96,0.01,0.41,-0.24,34.25
21489177,1278,1,203283,223685,-1.19,-0.32,10.13,-0.02,0.10,-0.27,34.25
21529198,1792,1,203368,224906,-1.18,-0.03,10.08,0.06,-0.13,-0.32,34.25
21569193,1362,1,204117,226787,-1.18,0.07,9.96,-0.00,0.10,-0.32,34.25
21609177,1330,1,204698,227944,-1.57,0.41,10.08,0.07,0.13,-0.20,34.25
21649165,1498,1,205195,228707,-1.75,0.57,9.86,0.09,0.12,-0.08,34.25
21689169,1477,1,205473,229097,-1.87,1.01,9.84,0.05,-0.05,0.04,34.25
21729165,1323,1,205478,229122,-1.66,1.34,9.67,0.04,-0.22,0.19,34.25
21769165,1305,1,205511,229400,-1.76,1.07,10.03,-0.04,-0.25,0.31,34.25
21809857,1431,1,205602,229874,-1.68,0.44,9.88,-0.33,-0.20,0.20,34.29
21850176,1623,1,205897,230854,-1.67,0.15,9.71,-0.42,-0.18,0.17,34.29
21890216,1599,1,206123,230919,-1.14,-0.27,9.31,-0.29,-0.20,0.25,34.29
21930195,1447,1,205735,229201,-1.14,-0.44,9.51,-0.29,-0.10,0.24,34.29
21970192,1422,1,204927,224949,-0.88,-0.75,9.60,-0.33,-0.08,0.16,34.29
22049193,1262,1,203287,223814,-0.86,-1.03,10.03,-0.25,-0.03,-0.03,34.29
22089210,1212,1,203481,225155,-1.07,-0.91,10.28,-0.08,0.14,0.02,34.29
22129176,1250,1,204011,226617,-1.06,-0.64,10.00,0.06,-0.00,-0.01,34.29
22169191,1252,1,204501,227680,-1.40,-0.18,10.01,0.13,0.11,0.04,34.29
22209165,1238,1,204723,228350,-1.32,0.07,9.89,0.14,-0.04,0.10,34.29
22249162,1247,1,204860,228830,-1.20,-0.10,9.69,0.06,-0.06,0.07,34.29
22289176,1232,1,204850,229412,-1.16,-0.20,9.59,-0.05,-0.07,-0.02,34.29
22329210,1498,1,205147,230535,-1.26,-0.23,9.58,-0.13,0.18,-0.08,34.29
22369193,1338,1,205689,231857,-1.50,-0.32,9.84,-0.16,0.33,-0.10,34.29
22409191,1274,1,206162,233020,-1.65,-0.29,9.93,-0.16,0.20,-0.05,34.29
22449193,1242,1,206402,233652,-1.62,-0.41,9.87,-0.14,0.03,0.01,34.29
22489176,1243,1,206244,232218,-1.61,-0.64,9.75,-0.14,0.03,0.04,34.29
22529176,1283,1,205344,229978,-1.69,-0.80,9.86,-0.12,0.05,0.05,34.29
22569176,1274,1,204528,228077,-1.63,-0.81,9.76,-0.06,0.03,0.09,34.29
22609176,1296,1,203777,226371,-1.79,-0.57,9.77,-0.08,0.05,0.10,34.29
22649176,1339,1,203440,225808,-1.68,-0.40,9.60,-0.06,0.10,0.17,34.29
22689176,1646,1,203524,226754,-1.85,-0.36,9.83,-0.14,0.13,0.18,34.29
22729171,1712,1,203991,228143,-2.00,-0.43,10.00,-0.23,0.18,0.18,34.29
22769176,1357,1,204437,229145,-1.91,-0.60,10.06,-0.26,0.21,0.23,34.29
22809862,1206,1,204750,229740,-1.85,-0.68,10.09,-0.25,0.04,0.27,34.39
22850176,1209,1,204852,230400,-1.64,-0.84,9.94,-0.23,-0.07,0.31,34.39
22890192,1307,1,205053,231204,-1.56,-1.02,9.79,-0.21,-0.04,0.35,34.39
22930195,1300,1,205414,232050,-1.82,-1.23,9.99,-0.19,0.06,0.43,34.39
22970176,1257,1,205797,233011,-2.07,-1.38,9.99,-0.18,0.08,0.52,34.39
23010176,1205,1,206168,233755,-1.89,-1.27,9.66,-0.18,-0.10,0.61,34.39
23050192,1227,1,206162,232701,-1.82,-1.25,9.43,-0.20,-0.24,0.70,34.39
23090193,1535,1,205233,230109,-1.68,-1.42,9.37,-0.25,-0.30,0.74,34.39
23130194,1230,1,204281,228053,-1.61,-1.34,9.46,-0.24,-0.31,0.75,34.39
23170199,1224,1,203733,227203,-1.75,-1.74,9.81,-0.28,-0.05,0.76,34.39
23210200,1223,1,203756,227787,-2.03,-1.87,10.18,-0.30,-0.13,0.72,34.39
23250200,1216,1,204042,229291,-1.54,-1.59,9.70,-0.26,-0.19,0.73,34.39
23290200,1232,1,204682,231048,-1.45,-1.47,9.84,-0.30,0.01,0.74,34.39
23330185,1215,1,205193,232002,-1.47,-1.55,9.97,-0.31,0.09,0.77,34.39
23370177,1158,1,205375,232244,-1.53,-1.42,9.93,-0.24,0.04,0.82,34.39
23410179,1157,1,205358,232036,-1.75,-1.06,10.10,-0.15,-0.19,0.85,34.39
23450195,1152,1,205148,0,-1.60,-0.87,9.93,-0.13,-0.30,0.83,34.39
23718970,1237,1,203193,226757,-4.60,-128.47,16.55,-1.30,18.59,-1.02,34.39
23890198,1166,1,203412,227531,-1.72,-1.20,9.93,-0.00,-0.01,0.42,34.39
23930886,1123,1,203478,227803,-1.48,-0.96,9.53,0.02,-0.07,0.43,34.25
23969179,1255,1,203461,227904,-1.64,-0.97,9.63,-0.10,0.05,0.40,34.25
24009179,1290,1,203571,227650,-1.94,-1.31,9.86,-0.13,0.20,0.41,34.25
24049179,1215,1,203215,226110,-1.78,-1.30,9.90,-0.08,-0.07,0.50,34.25
24089200,1238,1,202471,223787,-1.92,-0.96,9.90,-0.06,-0.17,0.54,34.25
24129200,1264,1,201897,222563,-1.54,-1.00,9.89,-0.01,-0.24,0.51,34.25
24170200,1173,1,201686,222012,-1.19,-0.68,9.62,0.02,-0.15,0.44,34.25
24210179,1199,1,201037,218998,-1.14,-0.77,9.75,-0.01,0.03,0.35,34.25
24250179,1159,1,200079,216884,-1.43,-0.52,9.82,0.03,0.17,0.37,34.25
24290165,1152,1,199695,215919,-1.88,-0.53,10.00,0.19,0.08,0.49,34.25
24330170,1130,1,199439,214864,-1.79,-0.46,10.00,0.27,0.04,0.51,34.25
24370166,1075,1,198285,212452,-1.79,-0.43,9.89,0.31,-0.20,0.59,34.25
24429176,1408,1,198148,212722,-1.90,-0.05,10.07,0.16,-0.05,0.49,34.25
24469177,1341,1,197970,211715,-1.54,0.15,9.89,0.11,-0.11,0.40,34.25
24509169,1342,1,197201,210119,-1.49,0.36,9.89,0.02,-0.13,0.33,34.25
24549191,1331,1,196798,209910,-1.31,0.34,9.78,-0.09,-0.11,0.24,34.25
24589180,1364,1,196779,210241,-1.26,0.35,9.80,-0.13,-0.07,0.13,34.25
24629179,1334,1,197070,211842,-1.31,0.10,9.83,-0.08,0.04,0.07,34.25
24669170,1389,1,198147,214769,-1.64,0.13,10.00,0.01,0.23,0.07,34.25
24709148,1347,1,198852,215756,-1.64,-0.12,9.86,0.08,0.10,0.09,34.25
24749170,1388,1,198818,215058,-1.80,0.12,9.81,0.10,0.12,0.12,34.25
24789148,1346,1,197857,210995,-1.66,0.28,9.51,-0.01,0.08,0.08,34.25
24829171,1327,1,196263,207487,-1.87,0.37,9.88,-0.14,-0.06,-0.02,34.25
24869200,1412,1,195372,206801,-1.72,0.23,9.83,-0.06,-0.23,-0.00,34.25
24909200,1378,1,195607,208575,-1.79,0.23,9.95,-0.05,-0.06,0.02,34.25
24949866,1345,1,196778,211832,-1.96,0.38,10.23,0.03,-0.03,0.12,34.25
24990171,1459,1,197767,214507,-1.75,0.43,9.95,0.10,-0.08,0.13,34.25
25030171,2000,1,198521,216171,-1.57,0.47,9.82,0.03,-0.05,0.08,34.25
25070171,1995,1,199164,217528,-1.43,0.47,9.81,-0.05,-0.12,0.04,34.25
25110180,2017,1,199567,218530,-1.24,0.29,9.56,-0.12,-0.09,-0.03,34.25
25150200,1983,1,200107,220353,-1.14,0.23,9.76,-0.18,-0.03,-0.10,34.25
25190200,2010,1,201019,222905,-0.96,-0.07,9.76,-0.18,-0.01,-0.23,34.25
25230216,2067,1,201941,225111,-1.18,-0.45,9.90,-0.26,0.22,-0.34,34.25
25270200,2003,1,202727,226611,-1.35,-0.61,9.96,-0.20,0.29,-0.39,34.25
25310200,1990,1,203230,226574,-1.26,-0.35,9.63,-0.04,0.13,-0.36,34.25
25350199,2014,1,202516,222222,-1.57,0.16,9.83,-0.00,-0.01,-0.31,34.25
25390200,2055,1,200732,217648,-1.83,0.34,9.89,0.03,-0.09,-0.19,34.25
25430179,1999,1,199906,216383,-2.00,0.22,9.87,-0.06,-0.00,-0.15,34.25
25470198,2007,1,199714,216418,-2.07,0.06,10.01,-0.12,-0.10,-0.13,34.25
25510199,2039,1,199906,218041,-1.88,-0.08,9.88,-0.21,-0.27,-0.19,34.25
25550215,2029,1,200476,220189,-1.52,-0.09,9.70,-0.30,-0.32,-0.28,34.25
25590213,2061,1,201130,222555,-1.39,-0.43,9.69,-0.35,-0.17,-0.30,34.25
25630216,2029,1,201831,224347,-1.37,-0.67,9.80,-0.32,-0.09,-0.27,34.25
25670213,2045,1,202234,225638,-1.35,-0.63,9.89,-0.22,-0.09,-0.23,34.25
25710216,1936,1,202696,226678,-1.25,-0.89,9.85,-0.14,-0.03,-0.17,34.25
25750214,2116,1,203003,227696,-1.22,-0.89,9.91,-0.07,-0.04,-0.14,34.25
25790216,2047,1,203369,228508,-1.31,-0.97,9.92,-0.03,-0.01,-0.09,34.25
25830212,1999,1,203675,229184,-1.28,-1.17,9.92,0.02,-0.06,-0.05,34.25
25870200,2039,1,203883,228803,-1.20,-1.05,9.76,0.03,-0.16,-0.04,34.25
25910199,1983,1,203098,225190,-1.22,-1.05,9.86,0.04,-0.13,-0.07,34.25
25950886,2065,1,201393,220012,-1.02,-1.12,9.64,0.00,-0.09,-0.17,34.23
25989199,2159,1,200634,219550,-0.90,-1.09,9.67,-0.08,0.06,-0.28,34.23
26029200,2132,1,200884,220232,-1.04,-1.18,9.89,-0.09,0.09,-0.24,34.23
26069199,2112,1,201193,221002,-1.08,-1.35,9.86,-0.07,0.12,-0.16,34.23
26109201,2106,1,201610,222233,-1.20,-1.16,10.15,-0.04,0.01,-0.09,34.23
26149198,2176,1,201970,223398,-1.05,-0.93,10.13,-0.06,-0.17,-0.04,34.23
26189209,2178,1,202278,224352,-0.74,-0.78,9.93,-0.14,-0.14,-0.08,34.23
26229210,2163,1,202684,225351,-0.76,-0.85,10.04,-0.22,-0.00,-0.09,34.23
26269212,2119,1,203030,226257,-0.77,-0.96,10.04,-0.20,-0.00,-0.02,34.23
26309211,2142,1,203561,227303,-0.77,-1.25,9.80,-0.23,0.04,0.01,34.23
26349177,2103,1,204071,228516,-0.68,-1.31,9.61,-0.23,-0.05,0.03,34.23
26389192,2097,1,204576,229616,-0.50,-1.31,9.32,-0.25,-0.10,-0.00,34.23
26429210,2102,1,204876,230420,-0.48,-1.53,9.48,-0.28,-0.14,-0.05,34.23
26469210,2106,1,204871,229526,-0.71,-1.46,9.70,-0.23,-0.06,-0.04,34.23
26509210,2099,1,204088,226296,-0.74,-1.39,9.78,-0.13,0.05,0.04,34.23
26549177,2076,1,202850,222971,-0.94,-1.70,9.92,-0.06,0.08,0.10,34.23
26589177,2082,1,202755,223965,-1.03,-1.43,10.12,-0.05,0.18,0.10,34.23
26629177,2013,1,203454,226031,-1.02,-1.33,10.18,-0.05,0.13,0.10,34.23
26669178,2039,1,204218,228338,-0.90,-1.81,10.23,-0.04,0.05,0.10,34.23
26709179,2002,1,205040,230443,-0.99,-1.65,10.27,0.13,-0.01,0.05,34.23
26749179,1946,1,205748,231819,-0.97,-0.95,10.51,0.14,0.01,0.04,34.23
26789170,2061,1,206043,232380,-0.69,-0.85,10.16,0.15,-0.18,0.05,34.23
26829177,2016,1,206067,232823,-0.44,-0.61,9.90,0.10,-0.20,0.11,34.23
26869177,2006,1,206201,233522,-0.60,-0.51,10.15,0.01,-0.20,0.16,34.23
26909178,2031,1,206330,234060,-0.31,-1.07,9.96,-0.06,-0.29,0.07,34.23
26949199,1984,1,206455,234928,-0.17,-1.75,9.88,-0.14,-0.17,-0.18,34.23
26989901,1870,1,206675,236047,-0.14,-1.68,9.89,-0.08,-0.05,-0.28,34.17
27030213,1969,1,207146,236661,0.06,-1.74,9.27,0.07,0.29,-0.25,34.17
27070171,1929,1,206998,234539,-0.87,-1.98,9.69,0.21,0.44,-0.20,34.17
27110179,1889,1,206083,232255,-1.27,-1.46,9.99,0.30,0.31,-0.14,34.17
27150179,1876,1,205599,231171,-1.34,-0.79,9.75,0.25,0.16,-0.14,34.17
27190178,1776,1,205524,231039,-1.39,-1.01,9.60,0.06,0.15,-0.24,34.17
27230179,1814,1,205535,231059,-1.43,-1.23,9.71,-0.08,-0.01,-0.32,34.17
27270213,1777,1,205542,231655,-1.28,-1.52,9.66,-0.15,-0.11,-0.36,34.17
27310213,1861,1,205821,232620,-1.19,-1.74,9.57,-0.20,-0.06,-0.45,34.17
27350211,1882,1,206118,233393,-1.19,-1.71,9.66,-0.16,0.06,-0.47,34.17
27390200,1847,1,206289,233641,-1.29,-1.53,9.79,-0.06,0.05,-0.39,34.17
27430198,1796,1,206381,234024,-1.37,-1.70,9.61,0.12,0.03,-0.26,34.17
27470179,1775,1,206741,234699,-1.53,-1.83,9.64,0.14,0.24,-0.35,34.17
27510179,1787,1,207234,235612,-1.50,-1.69,9.76,0.15,0.16,-0.38,34.17
27550179,1750,1,207610,236270,-1.19,-1.41,9.47,0.08,0.09,-0.38,34.17
27590179,1787,1,207999,237069,-1.32,-1.33,9.74,-0.01,0.15,-0.36,34.17
27630210,1758,1,208280,237018,-1.07,-1.35,9.76,-0.08,0.01,-0.45,34.17
27670198,1797,1,207844,234664,-1.29,-1.62,9.88,-0.20,0.13,-0.61,34.17
27710200,1776,1,207255,233367,-1.48,-1.68,9.86,-0.10,0.12,-0.73,34.17
27750199,1779,1,207150,233018,-1.49,-1.30,9.80,0.07,0.11,-0.75,34.17
27790179,1792,1,207228,233008,-1.96,-1.20,10.20,0.14,0.10,-0.75,34.17
27830181,1862,1,207274,233213,-2.26,-1.55,10.18,0.17,0.00,-0.82,34.17
27870179,1814,1,207551,234097,-1.75,-1.80,9.81,0.20,0.10,-0.96,34.17
27910177,1841,1,208005,234791,-1.81,-1.73,10.10,0.19,0.21,-1.04,34.17
27950179,1747,1,208147,234991,-2.06,-1.32,10.01,0.24,0.09,-0.94,34.17
27990865,1754,1,208158,235118,-1.59,-0.70,9.30,0.22,0.03,-0.89,34.31
28029178,1831,1,208454,235963,-1.53,-1.04,9.36,0.05,0.20,-0.96,34.31
28069179,1903,1,208947,237158,-1.27,-1.49,9.29,0.01,0.08,-0.93,34.31
28109178,1907,1,209462,238381,-1.13,-1.42,9.23,0.05,0.08,-0.77,34.31
28149179,1921,1,210037,239594,-1.59,-1.28,9.79,0.06,0.17,-0.65,34.31
28189178,1938,1,210674,240810,-1.74,-1.07,10.13,0.03,0.14,-0.55,34.31
28229177,1893,1,211181,240109,-1.53,-1.45,9.83,-0.01,0.17,-0.56,34.31
28270199,1904,1,210617,238034,-1.27,-1.51,9.79,0.02,0.16,-0.58,34.31
28310177,1875,1,210542,237676,-1.26,-1.46,9.75,0.13,0.13,-0.46,34.31
28350179,1955,1,210742,237878,-1.32,-1.30,9.56,0.23,0.01,-0.35,34.31
28390177,1925,1,211096,238114,-1.92,-1.36,10.44,0.40,0.13,-0.31,34.31
28430179,1914,1,211301,238718,-2.02,-1.09,10.08,0.24,-0.11,-0.31,34.31
28470195,1906,1,211817,239840,-1.53,-1.00,9.54,0.21,0.03,-0.38,34.31
28510179,1902,1,212429,241065,-1.53,-0.53,9.53,0.21,0.05,-0.36,34.31
28550177,1923,1,212980,241829,-1.26,-0.31,9.19,0.22,0.12,-0.22,34.31
28590179,1965,1,213263,242306,-1.24,-0.06,9.18,0.22,0.12,-0.07,34.31
28630180,1991,1,213744,243335,-1.66,-0.22,9.44,0.16,0.18,-0.00,34.31
28670179,1872,1,214396,244436,-1.69,-0.47,9.92,0.04,0.12,-0.09,34.31
28710180,1879,1,215139,245601,-1.77,-0.23,10.01,-0.02,-0.01,-0.13,34.31
28750217,2000,1,215443,246010,-1.97,-0.43,10.39,-0.16,-0.07,-0.16,34.31
28790213,2037,1,215686,246731,-1.80,-0.92,10.16,-0.13,-0.06,-0.27,34.31
28830217,2044,1,215756,245628,-1.36,-0.70,10.14,-0.12,-0.04,-0.29,34.31
28870214,2073,1,214635,242185,-1.51,-0.74,10.40,-0.08,-0.09,-0.32,34.31
28910217,2032,1,213846,241410,-1.40,-0.82,10.23,-0.16,-0.21,-0.42,34.31
28950214,2087,1,214108,242161,-1.16,-0.57,9.86,-0.22,0.15,-0.52,34.31
28990887,2103,1,214561,243067,-1.53,-0.87,10.43,-0.26,0.07,-0.49,34.21
29029200,2251,1,215267,244928,-1.55,-1.45,9.95,-0.31,0.01,-0.54,34.21
29069200,2270,1,216294,247524,-1.36,-1.54,9.83,-0.24,0.10,-0.50,34.21
29109200,2245,1,217030,248559,-1.28,-1.37,9.57,-0.04,-0.09,-0.25,34.21
29149217,2180,1,217112,248837,-1.49,-1.84,9.27,0.09,-0.19,-0.20,34.21
29189200,2226,1,217315,249567,-1.16,-1.30,9.28,0.05,-0.07,-0.29,34.21
29229200,2189,1,217433,249840,-1.37,-1.44,9.47,-0.06,-0.13,-0.19,34.21
29269230,2270,1,217472,250454,-1.26,-1.68,9.22,-0.18,-0.18,-0.35,34.21
29309216,2247,1,217751,251046,-0.86,-1.27,9.44,-0.42,-0.10,-0.48,34.21
29349214,2237,1,217664,251552,-0.86,-1.21,9.97,-0.77,-0.31,-0.53,34.21
29389216,2230,1,217835,252348,-1.37,-2.38,10.73,-0.65,-0.25,-0.16,34.21
29429216,2239,1,218031,252829,-1.00,-3.04,10.08,-0.22,-0.31,0.10,34.21
29469219,2177,1,217886,250295,-0.74,-2.52,9.89,0.05,-0.19,0.18,34.21
29509180,2176,1,216570,247280,-0.43,-2.07,9.63,-0.01,-0.24,0.09,34.21
29549200,2163,1,215972,246740,-0.45,-2.06,9.59,-0.04,0.05,0.06,34.21
29589180,2106,1,216119,247550,-1.25,-1.99,9.94,0.16,0.29,0.23,34.21
29629170,2070,1,216495,248433,-1.44,-1.89,10.05,0.33,0.08,0.33,34.21
29669188,2029,1,216955,249929,-1.05,-1.52,9.40,0.18,0.05,0.20,34.21
29709169,1995,1,217444,250806,-0.80,-1.32,9.31,0.02,0.06,0.16,34.21
29749170,1989,1,217597,251124,-1.06,-1.69,9.43,-0.01,0.10,0.25,34.21
29789178,1881,1,217731,251781,-1.37,-2.28,9.79,-0.13,0.09,0.16,34.21
29829179,1855,1,218098,252462,-1.05,-2.23,9.69,-0.18,0.13,0.02,34.21
29869179,1874,1,218239,252919,-1.02,-1.89,9.46,-0.09,0.05,0.06,34.21
29909179,1854,1,218721,254038,-1.34,-2.04,9.55,0.17,0.12,0.16,34.21
29949170,1830,1,219335,255254,-1.51,-1.53,9.76,0.22,0.18,0.08,34.21
29989170,1773,1,219943,256198,-1.84,-1.22,10.29,0.14,0.10,0.18,34.21
30029857,1701,1,220355,256574,-1.82,-1.62,10.12,0.08,-0.10,0.27,34.29
30070179,1705,1,220209,254245,-1.89,-1.88,10.08,-0.02,-0.19,0.18,34.29
30110200,1718,1,218792,250282,-1.62,-1.55,9.84,-0.02,-0.34,0.14,34.29
30150199,1725,1,217882,249434,-1.46,-1.31,9.69,0.04,-0.42,0.14,34.29
30190179,1714,1,217923,250141,-1.37,-1.17,9.57,0.06,-0.24,0.10,34.29
30230177,1728,1,218237,251142,-1.07,-0.81,9.67,0.19,-0.08,0.19,34.29
30270179,1743,1,218600,252069,-1.06,-0.86,9.93,0.25,-0.03,0.34,34.29
30310179,1845,1,218895,252858,-1.33,-1.12,9.98,0.19,0.04,0.30,34.29
30350171,1791,1,219061,253024,-1.54,-1.15,10.51,0.04,0.04,0.13,34.29
30390165,1837,1,218937,253059,-1.24,-0.96,10.05,-0.12,-0.04,-0.06,34.29
30430216,1847,1,218941,253345,-0.98,-0.74,9.67,-0.10,0.15,-0.08,34.29
30470199,1831,1,219036,253681,-1.28,-0.64,9.87,0.03,0.24,-0.02,34.29
30510179,1869,1,219025,253841,-0.97,-0.24,9.53,0.12,0.25,0.06,34.29
30550170,1843,1,218971,253804,-1.19,-0.24,9.52,0.18,0.33,0.19,34.29
30590170,1885,1,218986,254093,-1.67,0.25,10.13,0.07,0.34,0.32,34.29
30630147,1901,1,219123,254414,-1.86,-0.27,9.81,0.16,0.40,0.59,34.29
30670169,1933,1,219070,252602,-1.73,-0.60,9.54,0.29,0.32,0.50,34.29
30710170,1937,1,218142,250032,-1.43,-0.30,9.67,0.38,0.26,0.54,34.29
30750171,1942,1,217685,249730,-1.78,-0.96,9.56,0.30,0.19,0.33,34.29
30790170,1952,1,217803,250218,-1.55,-0.79,9.61,0.15,0.26,0.03,34.29
30830171,1947,1,217871,250810,-1.81,-0.54,9.52,0.17,0.34,-0.01,34.29
30870180,1969,1,218402,252324,-2.43,-0.21,10.11,0.25,0.42,0.11,34.29
30910170,1995,1,218924,253285,-2.89,-0.33,10.13,0.13,0.20,0.13,34.29
30950170,1994,1,219188,253735,-2.45,0.20,9.83,-0.10,0.08,-0.09,34.29
30990179,2029,1,219179,253794,-2.31,0.20,9.88,-0.35,-0.16,-0.15,34.29
31030886,1997,1,219064,254136,-2.08,0.43,10.05,-0.33,-0.24,-0.09,34.31
31071200,2009,1,219202,254521,-1.85,-0.07,10.19,-0.32,-0.29,-0.07,34.31
31111263,2038,1,219280,255272,-1.40,-0.11,9.83,-0.39,-0.15,-0.16,34.31
31151213,2032,1,219826,256251,-1.63,-0.77,10.10,-0.29,0.04,-0.09,34.31
31191195,2064,1,220157,256980,-2.29,-1.37,10.00,-0.19,0.02,-0.17,34.31
31231198,2071,1,220327,256400,-2.79,-0.80,9.66,-0.02,-0.04,-0.07,34.31
31271212,2097,1,218873,250938,-2.10,0.19,8.68,0.18,-0.34,0.11,34.31
31311210,2097,1,216208,245557,-2.08,0.50,8.38,0.23,-0.17,0.32,34.31
31351165,2091,1,215032,244885,-2.69,-0.57,8.16,0.07,0.19,0.21,34.31
31391170,2052,1,215108,245208,-2.95,-0.71,10.24,-0.05,0.25,0.04,34.31
31431177,2095,1,215236,246694,-2.59,0.49,9.51,-0.32,0.03,0.05,34.31
31471170,2110,1,216236,249296,-2.20,-0.05,9.31,-0.33,0.33,0.19,34.31
31511177,2064,1,217217,251104,-2.29,-0.80,9.25,-0.44,0.31,0.22,34.31
31551179,2090,1,217633,251587,-2.26,-0.81,9.00,-0.51,0.25,0.18,34.31
31591177,2096,1,217618,250947,-2.89,-0.43,9.44,-0.50,0.19,0.19,34.31
31631179,2076,1,217138,249706,-3.17,-0.64,9.89,-0.42,-0.01,0.33,34.31
31671196,2075,1,216868,249420,-3.26,-1.31,9.91,-0.42,0.07,0.31,34.31
31711179,2071,1,216894,249416,-3.46,-1.40,10.34,-0.25,-0.01,0.28,34.31
31751194,2109,1,216803,249574,-3.25,-0.98,9.96,-0.08,-0.14,0.24,34.31
31791194,2155,1,216801,249670,-3.22,-0.70,9.71,0.07,-0.23,0.31,34.31
31831176,2128,1,216405,247047,-3.36,-0.65,9.53,0.03,-0.21,0.38,34.31
31871176,2063,1,215039,244359,-3.42,-0.78,9.38,0.01,-0.11,0.43,34.31
31911176,2112,1,214556,243945,-3.33,-0.66,9.15,0.02,-0.02,0.55,34.31
31951176,2064,1,214725,244264,-3.57,-0.75,9.17,-0.05,0.09,0.68,34.31
31991176,2120,1,214999,245047,-3.46,-0.69,9.14,-0.12,0.04,0.81,34.31
32031862,2054,1,215455,246196,-3.25,-0.54,9.00,-0.26,0.06,0.91,34.33
32070177,2090,1,215771,246976,-3.53,-0.93,9.33,-0.38,-0.03,1.06,34.33
32110197,2075,1,216033,247283,-3.11,-0.87,9.53,-0.48,-0.10,1.13,34.33
32150193,2035,1,215818,247136,-2.89,-0.77,9.44,-0.63,-0.16,1.11,34.33
32190198,2086,1,215714,247078,-2.61,-1.15,9.66,-0.67,-0.11,1.14,34.33
32230193,2128,1,215529,246976,-2.42,-1.60,9.73,-0.63,-0.20,1.07,34.33
32270193,2105,1,215603,247667,-2.14,-1.87,9.38,-0.56,-0.20,0.93,34.33
32310191,2038,1,215827,247950,-1.45,-2.47,9.11,-0.55,-0.24,0.71,34.33
32350194,2078,1,215448,246990,-2.14,-2.08,10.00,-0.34,-0.45,0.84,34.33
32390191,2022,1,214873,244520,-2.52,-2.32,10.68,-0.13,-0.65,1.07,34.33
32430194,2031,1,213399,240693,-2.53,-1.84,10.52,0.21,-0.70,1.33,34.33
32470176,1997,1,212386,238894,-2.66,-1.38,10.34,0.26,-0.73,1.31,34.33
32510176,1957,1,212355,239101,-1.75,-1.58,9.43,-0.04,-0.39,0.97,34.33
32550191,1934,1,212731,239672,-1.68,-0.80,9.58,-0.20,-0.15,0.67,34.33
32590193,1952,1,212940,240243,-1.22,-0.19,9.08,-0.20,-0.26,0.54,34.33
32630191,1938,1,213127,240671,-1.29,-0.13,9.23,-0.20,-0.24,0.51,34.33
32670193,1942,1,213201,240872,-1.10,-0.28,9.09,-0.12,-0.33,0.47,34.33
32710192,1957,1,213323,241559,-1.38,-0.53,9.50,-0.06,-0.04,0.40,34.33
32750202,2032,1,213572,241789,-1.35,-0.47,9.75,0.09,-0.07,0.38,34.33
32790176,1971,1,213601,242300,-1.57,-0.67,10.00,0.08,0.19,0.32,34.33
32830165,2039,1,213969,243084,-2.37,-0.76,10.50,0.08,0.23,0.38,34.33
32870165,2007,1,214214,243517,-1.93,-0.96,10.33,0.18,-0.01,0.47,34.33
32910176,1994,1,214305,243758,-1.46,-0.64,9.74,0.21,-0.16,0.46,34.33
32950181,2096,1,213973,241708,-1.27,-0.18,9.57,0.08,-0.05,0.42,34.33
32990176,2014,1,212958,239303,-1.33,-0.19,9.78,-0.03,0.04,0.37,34.33
33030176,2067,1,212012,237317,-1.53,-0.15,9.73,-0.08,-0.03,0.38,34.33
33070878,2058,1,211239,235788,-1.58,-0.29,9.95,-0.14,-0.11,0.38,34.13
33111191,2013,1,210503,234447,-1.40,-0.15,9.57,-0.16,-0.20,0.33,34.13
33151213,2096,1,209867,233779,-1.32,-0.05,9.71,-0.20,-0.15,0.21,34.13
33191191,2116,1,209686,233781,-1.29,0.00,9.93,-0.18,-0.08,0.21,34.13
33231176,2106,1,209609,234043,-1.14,-0.14,10.11,-0.15,-0.02,0.20,34.13
33271191,2134,1,209626,234295,-1.09,-0.07,10.34,-0.07,0.00,0.18,34.13
33311176,2128,1,209701,234749,-0.93,-0.12,10.12,-0.03,0.06,0.09,34.13
33351176,2115,1,209800,235057,-1.09,0.17,10.29,0.03,0.09,0.00,34.13
33391142,2179,1,209821,235416,-1.27,0.08,10.17,0.11,0.10,-0.04,34.13
33431162,2183,1,209939,235847,-1.27,0.10,9.90,0.10,0.15,-0.10,34.13
33471165,2192,1,210132,235973,-1.50,0.06,9.62,0.12,0.17,-0.15,34.13
33511165,2120,1,209839,234398,-1.45,0.12,9.44,0.03,0.16,-0.29,34.13
33551165,2166,1,209140,231995,-1.30,0.07,9.44,-0.13,0.17,-0.37,34.13
33591171,2086,1,208063,228866,-1.62,-0.07,9.88,-0.21,0.09,-0.33,34.13
33631193,2143,1,207024,227100,-1.75,-0.39,10.06,-0.11,-0.10,-0.25,34.13
33671210,2162,1,206525,226494,-1.66,0.07,10.07,-0.02,-0.18,-0.25,34.13
33711193,2167,1,206413,226930,-1.51,-0.07,9.90,-0.04,-0.08,-0.29,34.13
33751210,2099,1,206541,227670,-1.58,-0.25,10.03,-0.05,-0.01,-0.37,34.13
33791210,2165,1,207125,229741,-1.58,-0.40,10.15,-0.01,0.21,-0.42,34.13
33831191,2071,1,207998,231761,-1.60,-0.66,10.30,0.05,0.23,-0.50,34.13
33871176,2057,1,208821,233596,-1.41,-0.75,10.06,0.10,0.13,-0.59,34.13
33911176,2103,1,209653,235417,-1.58,-0.75,9.89,0.02,0.12,-0.64,34.13
33951176,2101,1,210246,236510,-1.92,-0.61,9.81,-0.01,-0.00,-0.56,34.13
33991209,2035,1,210331,236471,-2.02,-0.71,9.68,-0.02,-0.26,-0.39,34.13
34031210,2043,1,209840,234665,-1.97,-0.86,9.47,-0.07,-0.34,-0.27,34.13
34071896,2041,1,208640,230885,-1.73,-0.92,9.39,-0.09,-0.26,-0.27,34.29
34110210,2069,1,206638,224639,-1.38,-0.78,9.42,-0.05,-0.22,-0.29,34.29
34150211,2067,1,205116,223313,-1.58,-0.89,9.62,-0.04,-0.09,-0.29,34.29
34190210,2079,1,205011,223563,-1.35,-0.85,9.74,0.04,-0.10,-0.28,34.29
34230192,2089,1,204862,223710,-1.27,-0.52,9.83,0.10,-0.14,-0.32,34.29
34270194,2105,1,204856,224551,-1.05,-0.56,9.74,0.07,-0.02,-0.38,34.29
34310192,2093,1,205236,225721,-1.25,-0.85,9.74,0.02,0.27,-0.36,34.29
34350176,2096,1,205568,225481,-1.49,-0.58,10.03,0.14,0.25,-0.17,34.29
34390176,2035,1,205019,223493,-1.46,-0.72,9.73,0.15,0.06,-0.04,34.29
34430176,1971,1,204593,222745,-1.72,-0.55,9.73,0.05,0.11,0.03,34.29
34470164,2027,1,204363,222311,-1.61,-0.38,9.57,-0.04,0.06,0.07,34.29
34510177,1984,1,204363,222326,-1.47,-0.42,9.82,-0.19,0.02,0.08,34.29
34550177,2019,1,204355,221552,-1.54,-0.51,9.98,-0.39,0.11,0.06,34.29
34590191,1999,1,203565,218279,-1.74,-0.75,10.22,-0.44,0.04,0.11,34.29
34630177,2021,1,202419,215803,-1.33,-0.95,9.76,-0.43,-0.13,0.14,34.29
34670197,1856,1,201811,215225,-0.86,-0.71,9.12,-0.41,-0.21,0.17,34.29
34710192,1978,1,201803,214911,-0.90,-0.80,8.89,-0.27,-0.00,0.39,34.29
34750194,1947,1,201075,212965,-1.26,-0.80,9.40,-0.20,-0.11,0.45,34.29
34790210,1989,1,200721,213737,-1.60,-0.65,9.86,-0.32,0.06,0.32,34.29
34830177,1917,1,201130,215566,-1.82,-0.72,10.62,-0.34,0.14,0.24,34.29
34870177,1959,1,201927,219120,-1.99,-1.53,11.31,-0.23,0.15,0.18,34.29
34910177,1889,1,203661,223254,-1.82,-1.64,11.14,0.04,0.11,0.14,34.29
34950164,1854,1,204680,225250,-1.42,-1.21,10.89,0.20,-0.04,0.13,34.29
34990178,1814,1,205222,226295,-1.16,-1.20,10.57,0.28,-0.10,0.22,34.29
35030177,1838,1,205425,226883,-0.96,-1.48,10.23,0.32,-0.24,0.22,34.29
35070178,1811,1,205617,227513,-0.85,-1.24,10.23,0.30,-0.40,0.08,34.29
35110863,1629,1,204967,223372,-0.50,-1.04,9.75,0.20,-0.51,-0.03,34.31
35151200,1777,1,202302,216195,-0.79,-0.78,9.70,0.22,-0.42,-0.10,34.31
35191200,1744,1,200235,213332,-0.77,-0.44,9.49,0.31,-0.28,-0.16,34.31
35231201,1799,1,199273,211873,-0.69,-0.21,9.39,0.29,-0.17,-0.25,34.31
35271200,1773,1,200022,217932,-1.46,-0.02,10.04,0.27,0.05,-0.19,34.31
35311179,1782,1,202823,223498,-1.16,-0.59,9.67,0.32,0.02,-0.09,34.31
35351179,1783,1,204126,225553,-1.13,-0.11,9.55,0.26,-0.01,-0.08,34.31
35391199,1794,1,204644,226110,-0.92,-0.25,9.36,0.16,0.07,-0.04,34.31
35431176,1765,1,204887,226505,-1.20,-0.57,9.56,-0.00,0.19,-0.05,34.31
35471194,1727,1,205192,226590,-1.46,-0.74,9.67,-0.01,0.12,-0.06,34.31
35511193,1718,1,205159,226609,-1.43,-0.51,9.50,0.00,0.05,-0.09,34.31
35551176,1712,1,205249,227045,-1.54,-0.25,9.48,-0.05,0.12,-0.13,34.31
35591193,1807,1,205518,228121,-1.57,-0.26,9.62,-0.10,0.17,-0.21,34.31
35631198,1762,1,206036,229336,-1.54,-0.36,9.83,-0.17,0.17,-0.36,34.31
35671194,1757,1,206367,228862,-1.58,-0.62,9.93,-0.24,0.32,-0.50,34.31
35711198,1865,1,205996,227463,-1.64,-0.50,10.05,-0.34,0.08,-0.47,34.31
35751193,1902,1,205639,226674,-1.17,-0.82,9.60,-0.12,0.08,-0.51,34.31
35791195,1904,1,205635,226899,-1.44,-0.63,10.03,-0.11,0.13,-0.59,34.31
35831193,1905,1,205847,227591,-1.82,-0.67,10.19,-0.04,0.14,-0.56,34.31
35871194,1990,1,206114,228325,-1.74,-0.53,9.72,0.07,0.02,-0.61,34.31
35911176,1956,1,206365,229164,-1.68,-0.29,9.48,0.15,0.14,-0.71,34.31
35951176,1983,1,206749,229653,-1.81,-0.16,9.65,0.24,0.16,-0.65,34.31
35991176,1986,1,207027,230264,-1.86,-0.37,9.68,0.16,0.11,-0.70,34.31
36031178,1987,1,207258,230600,-2.14,-0.35,10.03,0.04,0.09,-0.85,34.31
36071176,2097,1,207411,230902,-2.25,-0.51,10.17,0.07,-0.05,-0.93,34.31
36111884,2043,1,207544,231352,-2.31,-0.74,10.12,0.15,-0.12,-1.02,34.39
36150194,2036,1,207708,231921,-2.22,-0.45,10.06,0.29,-0.13,-1.04,34.39
36190198,2113,1,207891,231996,-1.61,0.02,9.78,0.36,-0.17,-1.01,34.39
36230208,2188,1,207678,230741,-1.96,0.20,9.68,0.32,0.10,-0.98,34.39
36270169,2161,1,206957,227432,-1.99,0.05,9.80,0.27,0.14,-0.95,34.39
36310164,2206,1,205777,224297,-1.33,-0.28,9.00,0.27,0.14,-0.88,34.39
36350178,2159,1,205682,224482,-1.44,-0.36,9.26,0.45,0.16,-0.82,34.39
36390177,2171,1,205834,224571,-1.80,0.14,9.66,0.41,0.08,-0.79,34.39
36430192,2178,1,206094,225639,-2.30,-0.01,10.03,0.37,0.09,-0.61,34.39
36470177,2154,1,206543,225918,-2.09,0.11,9.97,0.47,-0.12,-0.44,34.39
36510178,2185,1,206213,225134,-1.64,0.16,9.70,0.28,-0.24,-0.57,34.39
36550177,2207,1,206142,225979,-1.58,0.25,9.71,-0.02,-0.09,-0.79,34.39
36590198,2164,1,206685,227574,-1.58,0.20,10.08,-0.08,-0.00,-0.78,34.39
36630192,2189,1,207134,228775,-1.19,-0.25,9.83,-0.02,-0.14,-0.70,34.39
36670212,2128,1,207560,230018,-1.15,-0.58,9.62,-0.11,-0.04,-0.80,34.39
36710212,2145,1,208122,231190,-1.32,-0.28,9.97,-0.13,0.04,-0.85,34.39
36750198,2073,1,208428,231894,-1.58,-0.09,10.05,-0.07,-0.09,-0.73,34.39
36790211,2087,1,208455,231133,-1.33,0.33,10.04,-0.02,-0.26,-0.58,34.39
36830198,1979,1,207349,226863,-1.38,0.33,10.38,-0.09,-0.44,-0.50,34.39
36870195,1940,1,205500,223471,-1.36,0.13,10.11,-0.26,-0.35,-0.59,34.39
36910198,2000,1,205888,225887,-1.05,-0.14,9.77,-0.23,0.08,-0.64,34.39
36950194,1975,1,206839,227477,-1.17,-0.32,9.93,-0.11,0.18,-0.55,34.39
36990199,1987,1,207394,228840,-1.33,-0.37,9.79,0.04,0.02,-0.44,34.39
37030177,2053,1,208288,231004,-1.15,-0.51,9.54,-0.01,0.01,-0.44,34.39
37070198,2071,1,209156,232852,-1.10,-0.25,9.44,-0.10,0.04,-0.43,34.39
37110198,2023,1,210097,234309,-1.53,-0.17,9.92,-0.14,0.02,-0.38,34.39
37150903,2064,1,210594,235549,-1.84,0.04,10.09,-0.43,-0.36,-0.44,34.21
37191195,2032,1,211195,236921,-1.61,-0.42,10.29,-0.59,-0.30,-0.27,34.21
37231214,2023,1,211751,238272,-1.33,-1.43,9.99,-0.54,-0.10,-0.22,34.21
37271213,1988,1,212303,239370,-1.16,-1.53,10.20,-0.38,-0.01,-0.19,34.21
37311212,1981,1,212635,240091,-0.90,-1.62,10.02,-0.18,-0.02,-0.12,34.21
37351212,1984,1,212956,241164,-0.74,-1.84,9.58,-0.05,0.05,-0.10,34.21
37391199,1874,1,213575,242688,-0.92,-1.79,9.95,0.03,0.15,-0.16,34.21
37431177,1870,1,214166,242866,-0.69,-1.54,9.80,0.06,0.11,-0.11,34.21
37471179,1820,1,213578,240541,-0.92,-1.79,9.78,0.02,0.15,-0.11,34.21
37511177,1766,1,213078,239624,-1.13,-1.47,10.10,-0.12,0.19,-0.17,34.21
37551203,1737,1,213006,239534,-1.12,-1.59,9.68,-0.25,0.12,-0.13,34.21
37591196,1645,1,212903,239495,-1.31,-1.68,9.92,-0.22,0.00,-0.07,34.21
37631199,1671,1,212825,239604,-1.23,-1.76,9.78,-0.31,-0.18,-0.10,34.21
37671212,1568,1,212908,240082,-1.11,-1.64,9.62,-0.37,-0.14,-0.09,34.21
37711213,1535,1,212972,240951,-1.23,-1.79,9.56,-0.35,-0.03,-0.09,34.21
37751212,1526,1,213285,241514,-1.08,-1.70,9.59,-0.13,0.08,0.05,34.21
37791179,1519,1,213340,241557,-1.15,-1.88,9.48,0.09,0.08,0.21,34.21
37831166,1525,1,213328,241682,-1.43,-1.61,9.79,0.22,0.14,0.28,34.21
37871171,1487,1,213305,241542,-1.37,-1.45,9.81,0.18,-0.00,0.35,34.21
37911177,1535,1,212986,241132,-0.82,-0.91,9.49,0.20,-0.02,0.52,34.21
37951179,1475,1,212843,241141,-1.62,-2.11,10.08,0.19,-0.04,0.38,34.21
37991180,1521,1,212653,240994,-1.53,-1.71,9.50,-0.05,-0.05,0.23,34.21
38031200,1591,1,212541,240614,-1.36,-1.47,9.89,-0.06,-0.05,0.14,34.21
38071217,1626,1,212271,240414,-1.41,-1.41,9.60,-0.11,-0.13,0.16,34.21
38111200,1735,1,212174,240394,-1.28,-1.35,9.48,-0.08,-0.10,0.16,34.21
38151881,1791,1,211844,238672,-1.54,-1.37,9.81,0.05,-0.13,0.26,34.29
38190178,1883,1,210849,236371,-1.50,-1.24,9.83,0.01,-0.09,0.23,34.29
38230177,1913,1,210288,235138,-1.50,-1.08,9.67,0.08,0.04,0.24,34.29
38270169,1903,1,210072,234850,-1.65,-0.87,9.82,0.20,-0.06,0.25,34.29
38311177,1970,1,210210,235247,-1.44,-0.63,9.71,0.15,0.03,0.21,34.29
38351170,1977,1,210693,236372,-1.34,-0.72,9.92,0.08,0.08,0.23,34.29
38391166,2030,1,211118,237690,-1.51,-0.92,10.02,-0.06,0.20,0.19,34.29
38431176,2026,1,211357,238495,-1.75,-1.15,10.23,-0.09,0.21,0.13,34.29
38470176,2046,1,0,239915,-1.50,-0.89,9.76,-0.09,0.16,0.06,34.29
38878176,2131,1,210896,239340,-1.51,-0.44,9.65,0.21,0.05,0.14,34.29
38910164,2201,1,210662,238737,-1.48,-0.21,9.59,0.13,0.05,0.10,34.29
38950170,2157,1,210921,239545,-1.44,-0.22,9.59,-0.04,0.10,0.12,34.29
38990177,2225,1,211596,240902,-1.72,-0.48,9.93,-0.15,0.09,0.11,34.29
39030178,2219,1,212548,243172,-1.69,-0.64,10.04,-0.17,-0.03,0.07,34.29
39070199,2234,1,213639,246123,-1.70,-0.66,9.96,-0.20,-0.08,0.01,34.29
39110200,2219,1,214702,248458,-1.70,-0.59,9.92,-0.23,-0.15,-0.01,34.29
39150213,2256,1,215386,249646,-1.89,-0.35,9.95,-0.15,-0.19,0.18,34.29
39190886,2215,1,215638,249925,-1.72,-0.19,9.45,-0.06,-0.28,0.37,34.37
39231200,2206,1,215475,249678,-1.51,-0.15,9.52,-0.05,-0.30,0.47,34.37
39271199,2207,1,215577,250806,-1.54,-0.48,9.57,-0.21,-0.06,0.49,34.37
39311200,2160,1,215965,252371,-1.56,-0.65,9.94,-0.29,-0.14,0.51,34.37
39351198,2157,1,216475,254316,-1.28,-1.09,9.77,-0.34,0.11,0.40,34.37
39391179,2117,1,217034,255763,-1.41,-1.03,10.11,-0.36,0.32,0.37,34.37
39431180,2112,1,217355,256760,-1.57,-1.31,10.49,-0.21,0.12,0.39,34.37
39471179,2096,1,217466,256693,-1.17,-1.69,10.16,-0.04,-0.11,0.41,34.37
39511201,2081,1,216555,253610,-0.99,-1.26,9.83,0.06,-0.25,0.32,34.37
39551179,2017,1,215319,251695,-0.98,-0.73,9.68,0.02,-0.19,0.28,34.37
39591176,1987,1,214914,251329,-1.26,-0.93,9.50,-0.02,-0.12,0.26,34.37
39631192,1952,1,214975,251833,-1.79,-0.60,9.65,-0.05,0.06,0.25,34.37
39671177,1875,1,215225,252131,-1.78,-0.83,9.53,-0.06,0.13,0.24,34.37
39711177,1877,1,215486,252892,-1.84,-0.74,9.65,-0.01,0.06,0.22,34.37
39751178,1866,1,215802,253381,-1.82,-0.67,9.83,0.02,0.05,0.17,34.37
39791165,1826,1,216001,253442,-1.99,-0.70,10.00,0.04,0.13,0.14,34.37
39831166,1781,1,216059,253500,-2.36,-0.77,10.24,0.15,0.16,0.21,34.37
39871164,1743,1,216131,253448,-2.38,-0.48,9.91,0.22,0.08,0.35,34.37
39911171,1721,1,216229,253424,-2.38,-0.24,9.71,0.17,0.12,0.46,34.37
39951165,1609,1,216382,253830,-2.53,-0.34,9.94,0.04,0.22,0.52,34.37
39991165,1711,1,216615,254488,-2.30,-0.37,9.71,-0.11,0.13,0.52,34.37
40031177,1721,1,216939,254990,-1.91,-0.31,9.57,-0.27,0.00,0.54,34.37
40071179,1746,1,217025,255133,-1.72,-0.47,9.49,-0.41,0.02,0.56,34.37
40111177,1758,1,216755,253566,-2.04,-0.43,9.67,-0.39,-0.05,0.68,34.37
40151199,1805,1,215346,248820,-2.20,-0.59,9.63,-0.28,-0.17,0.87,34.37
40191881,1570,1,213864,246020,-2.06,-0.47,9.11,-0.42,-0.31,0.86,34.47
40230199,1503,1,213066,244899,-2.04,-0.50,9.23,-0.62,-0.35,0.77,34.47
40270198,1874,1,212770,244826,-2.27,-1.56,9.62,-0.73,-0.16,0.77,34.47
40310200,1810,1,212908,245109,-2.66,-1.51,10.29,-0.54,0.07,0.98,34.47
40351177,1826,1,213300,246032,-2.01,-1.56,9.85,-0.37,-0.11,1.02,34.47
40391200,1878,1,213622,246505,-1.52,-1.26,9.58,-0.34,-0.24,0.97,34.47
40431199,1826,1,213902,246869,-1.55,-1.50,9.85,-0.21,-0.11,0.93,34.47
40471199,1919,1,214086,246886,-1.55,-1.38,10.08,-0.12,-0.21,0.86,34.47
40511192,1979,1,214249,247002,-1.27,-1.39,9.65,-0.15,-0.08,0.75,34.47
40571198,1906,1,214425,247372,-1.51,-1.34,10.07,-0.16,-0.10,0.61,34.47
40611193,1939,1,214461,247938,-1.00,-1.38,9.55,-0.18,-0.21,0.58,34.47
40651199,1974,1,214714,248559,-1.57,-1.94,10.31,-0.20,0.06,0.50,34.47
40691177,1991,1,215020,249370,-1.36,-1.61,10.41,-0.21,-0.09,0.36,34.47
40731236,2041,1,214969,249533,-1.11,-1.30,10.02,-0.16,-0.23,0.37,34.47
40771195,2065,1,214639,246670,-1.32,-1.25,10.21,0.07,-0.22,0.50,34.47
40811178,2064,1,213267,243700,-1.01,-0.93,9.59,0.19,-0.38,0.55,34.47
40851177,2055,1,212693,242772,-1.21,-0.75,9.72,0.13,-0.16,0.52,34.47
40891178,2119,1,212780,242919,-1.13,-0.56,9.82,0.09,-0.32,0.46,34.47
40931177,2192,1,212834,243365,-0.91,-0.69,9.59,-0.08,-0.34,0.26,34.47
40971195,2147,1,213012,244200,-1.30,-0.84,10.41,-0.13,-0.19,0.15,34.47
41011194,2161,1,213444,245468,-1.11,-1.07,10.45,-0.08,-0.13,0.03,34.47
41051196,2178,1,213855,246389,-1.03,-1.15,10.21,0.03,0.03,0.01,34.47
41091165,2134,1,214177,246949,-0.82,-0.85,9.82,0.16,0.08,0.03,34.47
41131165,2161,1,214398,247094,-0.62,-0.68,9.50,0.12,0.01,0.05,34.47
41171165,2154,1,214564,247525,-0.59,-0.51,9.51,0.06,-0.17,0.01,34.47
41211863,2150,1,214615,247941,-0.30,-0.34,9.19,0.02,-0.20,-0.02,34.23
41250193,2193,1,214834,249001,-0.71,-0.25,9.52,-0.05,-0.06,-0.07,34.23
41290211,2158,1,215129,249842,-0.82,-0.34,9.76,-0.05,-0.06,-0.15,34.23
41330211,2151,1,215563,250798,-0.74,-0.37,9.87,-0.07,0.15,-0.22,34.23
41371195,2112,1,215910,251517,-0.75,-0.35,10.01,0.03,0.17,-0.23,34.23
41411176,2095,1,215904,249503,-0.75,-0.40,10.01,0.07,0.12,-0.20,34.23
41451176,2070,1,214959,247042,-0.97,-0.57,10.36,0.05,0.16,-0.25,34.23
41491177,2092,1,214730,246778,-1.02,-0.48,10.14,0.00,0.16,-0.29,34.23
41531179,2110,1,214977,247532,-1.30,-0.39,10.12,0.03,0.09,-0.29,34.23
41571177,2111,1,215496,248996,-1.24,-0.39,10.08,0.13,0.09,-0.30,34.23
41611178,2130,1,216240,250926,-1.09,-0.26,9.85,0.12,0.12,-0.29,34.23
41651177,2085,1,217148,252884,-1.12,-0.38,10.03,0.04,0.03,-0.27,34.23
41691176,2106,1,217944,254687,-1.18,-0.88,9.88,-0.06,0.01,-0.35,34.23
41731194,2130,1,218714,255959,-1.10,-0.94,9.81,-0.08,0.00,-0.37,34.23
41771195,2025,1,219289,256977,-1.32,-1.10,9.80,-0.07,-0.02,-0.35,34.23
41811211,2045,1,219870,258059,-1.40,-1.17,9.70,-0.02,0.02,-0.32,34.23
41851195,1994,1,220361,258687,-1.43,-1.01,9.67,0.10,0.08,-0.21,34.23
41891176,2007,1,221031,259541,-1.65,-0.92,9.84,0.24,0.07,-0.07,34.23
41950177,2033,1,221503,260116,-1.41,-0.72,9.56,0.16,-0.00,-0.14,34.23
41990194,1951,1,222110,260796,-1.54,-0.77,9.79,0.06,0.12,-0.23,34.23
42030177,2034,1,222192,259049,-1.47,-0.71,9.75,0.08,0.06,-0.23,34.23
42070179,1984,1,221787,257858,-1.16,-0.60,9.90,0.00,0.04,-0.22,34.23
42110178,2016,1,221928,258259,-1.28,-0.62,10.00,-0.04,0.02,-0.14,34.23
42150198,2065,1,222381,259319,-1.31,-0.72,10.11,-0.13,0.02,-0.13,34.23
42190199,2000,1,222755,259989,-1.38,-0.84,10.23,-0.30,-0.02,-0.15,34.23
42230897,1945,1,222951,260578,-1.23,-0.78,9.81,-0.34,-0.13,-0.09,34.17
42271216,2034,1,223064,260815,-1.33,-0.85,9.90,-0.28,-0.11,0.05,34.17
42311200,2019,1,223095,260962,-1.37,-0.98,9.78,-0.27,-0.21,0.08,34.17
42351200,1968,1,223170,261103,-1.07,-1.03,9.75,-0.38,-0.13,-0.02,34.17
42391213,2000,1,223164,261094,-0.74,-1.09,9.55,-0.45,-0.12,-0.01,34.17
42431213,1931,1,223111,261031,-0.80,-1.27,9.87,-0.36,-0.16,0.12,34.17
42471199,1914,1,222972,260932,-0.68,-1.34,9.98,-0.34,-0.26,0.13,34.17
42511200,1918,1,222865,261029,-0.67,-1.44,10.00,-0.46,-0.12,0.04,34.17
42551199,1834,1,222821,261235,-0.55,-1.60,9.94,-0.46,-0.07,0.02,34.17
42591199,1924,1,222824,261405,-0.66,-1.84,10.04,-0.32,-0.06,0.06,34.17
42631199,1854,1,222689,260227,-0.57,-1.90,10.00,-0.14,-0.05,0.09,34.17
42671199,1891,1,221692,256861,-0.47,-1.68,10.20,-0.08,-0.05,0.06,34.17
42711199,1798,1,220861,255860,-0.43,-1.58,10.27,-0.05,-0.01,0.06,34.17
42751200,1767,1,220876,256483,-0.24,-1.66,10.15,0.01,0.06,0.07,34.17
42791170,1787,1,221151,257280,-0.38,-1.92,10.32,0.15,0.12,0.09,34.17
42831170,1778,1,221420,258133,-0.46,-2.21,10.31,0.22,0.04,-0.04,34.17
42871177,1767,1,221767,259225,-0.45,-1.99,10.35,0.21,0.04,-0.29,34.17
42911179,1719,1,222104,260001,-0.30,-1.67,10.18,0.22,0.09,-0.40,34.17
42951177,1687,1,222248,260314,-0.54,-1.72,10.05,0.30,0.02,-0.39,34.17
42991184,1769,1,222365,260730,-0.67,-1.67,9.71,0.33,0.01,-0.40,34.17
43031177,1770,1,222433,260730,-0.53,-1.32,9.45,0.32,0.03,-0.35,34.17
43071178,1795,1,222412,260740,-1.35,-1.59,9.68,0.41,0.05,-0.25,34.17
43111176,1822,1,222393,260820,-1.30,-1.22,9.41,0.35,0.02,-0.19,34.17
43151176,1843,1,222421,260786,-1.22,-1.06,9.24,0.29,0.01,-0.19,34.17
43211176,1892,1,222443,260865,-1.27,-0.77,9.41,0.10,-0.01,-0.15,34.17
43251879,1891,1,222378,260422,-1.18,-0.90,9.39,-0.09,0.01,-0.20,34.13
43290191,1917,1,221684,257140,-1.13,-1.09,9.51,-0.17,0.00,-0.23,34.13
43330193,1947,1,220605,255186,-1.10,-1.27,9.61,-0.13,0.01,-0.22,34.13
43370191,1934,1,220408,255408,-1.35,-1.47,9.88,-0.13,0.07,-0.26,34.13
43410193,1975,1,220565,255855,-1.28,-1.44,9.94,-0.10,0.03,-0.27,34.13
43450191,1950,1,220759,256320,-1.01,-1.46,9.79,-0.12,0.08,-0.31,34.13
43490193,2006,1,220941,257163,-1.06,-1.55,9.86,-0.15,0.12,-0.43,34.13
43530191,2073,1,221316,257876,-1.30,-1.73,10.30,-0.19,0.16,-0.59,34.13
43570193,2047,1,221400,258357,-1.24,-1.66,10.13,-0.10,0.10,-0.74,34.13
43610191,2109,1,221553,258715,-1.13,-1.21,10.07,0.08,0.18,-0.76,34.13
43650176,2111,1,221703,259140,-1.14,-1.12,9.97,0.22,0.19,-0.78,34.13
43690171,2121,1,221964,259771,-1.32,-1.22,10.08,0.26,0.23,-0.82,34.13
43730176,2127,1,222222,260314,-1.53,-1.41,10.01,0.25,0.17,-0.88,34.13
43770176,2155,1,222498,260761,-1.80,-1.26,10.04,0.25,0.10,-0.90,34.13
43810182,2119,1,222640,261086,-1.97,-1.25,9.97,0.23,0.00,-0.93,34.13
43850176,2189,1,222761,261390,-1.79,-1.19,9.53,0.19,-0.07,-1.03,34.13
43890194,2128,1,222921,258728,-1.49,-0.84,9.37,0.10,0.04,-1.12,34.13
43990185,2128,1,221843,258141,-1.68,-0.82,9.58,-0.05,0.33,-0.90,34.13
44030199,2176,1,222079,258958,-2.36,-1.39,10.10,0.18,0.12,-0.68,34.13
44070177,2165,1,222826,260763,-1.65,-1.12,9.48,0.23,-0.11,-0.74,34.13
44110197,2141,1,223751,262115,-1.27,-0.72,9.46,0.07,0.01,-0.72,34.13
44150176,2133,1,224351,262143,-1.34,-0.47,9.69,0.07,-0.05,-0.58,34.13
44190193,2117,1,224613,262143,-1.09,-0.76,9.55,-0.10,-0.07,-0.57,34.13
44230209,2089,1,225017,262143,-1.30,-1.45,9.64,-0.22,0.02,-0.72,34.13
44270879,2032,1,225426,262143,-1.06,-1.20,9.78,-0.10,0.08,-0.74,34.21
44311193,1843,1,225770,262143,-1.26,-1.29,9.68,0.14,0.16,-0.54,34.21
44351176,1935,1,226198,262143,-1.27,-0.87,9.30,0.33,0.18,-0.50,34.21
44391171,2075,1,226639,262143,-1.36,-0.85,9.87,0.28,0.19,-0.50,34.21
44431176,2013,1,226863,262143,-1.41,-0.91,9.59,0.11,0.26,-0.58,34.21
44471176,1987,1,227055,262143,-1.71,-1.05,10.24,-0.11,0.12,-0.76,34.21
44511194,1927,1,227062,262143,-1.08,-1.11,9.81,-0.42,0.01,-0.93,34.21
44551191,1898,1,226634,262143,-1.49,-1.41,10.09,-0.41,-0.09,-0.86,34.21
44591209,1895,1,225842,262143,-1.11,-1.55,10.17,-0.43,-0.20,-0.88,34.21
44631209,1841,1,225427,262143,-0.72,-1.65,9.97,-0.54,-0.10,-0.87,34.21
44671209,1793,1,225177,262143,-0.97,-1.82,10.23,-0.45,-0.09,-0.70,34.21
44711211,1791,1,224929,262143,-1.19,-2.30,10.32,-0.38,-0.20,-0.60,34.21
44751211,1738,1,224742,262143,-0.58,-2.26,9.73,-0.43,-0.07,-0.69,34.21
44791211,1728,1,224466,262143,-0.43,-2.08,9.57,-0.35,0.13,-0.59,34.21
44831198,1740,1,224153,262143,-0.77,-2.49,9.74,-0.03,0.12,-0.31,34.21
44871192,1379,1,223788,262066,-0.98,-2.65,9.86,0.12,0.04,-0.20,34.21
44911176,1348,1,223457,261555,-1.12,-2.30,9.79,0.23,0.09,-0.10,34.21
44951176,1462,1,223144,260946,-0.99,-1.99,9.87,0.25,-0.01,-0.00,34.21
44991192,1611,1,222914,260823,-1.06,-1.92,9.59,0.19,0.03,0.04,34.21
45031169,1578,1,222769,260786,-0.74,-1.66,9.43,0.19,0.01,0.12,34.21
45071165,1296,1,222779,260941,-0.98,-1.77,9.97,0.13,0.05,0.25,34.21
45111165,1189,1,222689,260845,-0.79,-1.76,9.76,-0.04,-0.00,0.25,34.21
45151195,1136,1,222458,258823,-1.12,-2.18,9.87,-0.07,0.07,0.36,34.21
45191176,1154,1,221258,255705,-0.97,-2.13,9.27,-0.29,-0.02,0.27,34.21
45231193,1247,1,220360,254889,-0.41,-1.91,8.51,-0.50,0.02,0.14,34.21
45271862,1534,1,220055,254684,-0.88,-2.31,9.29,-0.69,0.37,0.04,34.23
45310176,1841,1,219743,253909,-1.54,-2.99,9.93,-0.54,0.37,0.08,34.23
45350176,1903,1,219020,252334,-2.01,-3.24,10.18,-0.26,0.02,0.14,34.23
45390176,1926,1,218177,251259,-2.22,-2.87,9.78,0.11,-0.01,0.30,34.23
45430176,1955,1,217815,251089,-1.64,-2.48,9.57,0.23,-0.26,0.34,34.23
45470176,2019,1,218185,252929,-1.87,-2.76,9.37,0.09,-0.23,0.23,34.23
45510176,2073,1,218915,254645,-1.75,-2.38,9.92,0.13,-0.39,0.17,34.23
45550176,2064,1,219460,255902,-1.03,-2.26,9.42,0.17,-0.46,0.17,34.23
45590176,2127,1,219728,256562,-0.88,-1.94,9.68,0.10,-0.19,0.18,34.23
45630176,2127,1,219918,257418,-1.03,-2.02,9.72,0.04,-0.07,0.25,34.23
45670176,1808,1,220108,257858,-1.52,-2.26,10.17,0.15,-0.12,0.33,34.23
45710176,1643,1,220144,258041,-1.20,-1.86,9.83,0.17,-0.26,0.32,34.23
45750176,1584,1,220045,256299,-1.24,-1.47,9.75,0.06,-0.10,0.33,34.23
45790176,2234,1,218567,251851,-1.18,-1.58,9.84,-0.00,-0.09,0.38,34.23
45830191,1985,1,217365,249583,-0.99,-1.25,9.72,-0.03,-0.03,0.43,34.23
45870193,1730,1,216605,248104,-1.05,-1.56,9.86,-0.00,0.09,0.41,34.23
45910176,1641,1,216200,247305,-1.36,-1.45,10.15,0.04,0.16,0.33,34.23
45950165,1490,1,215860,246825,-0.98,-1.36,9.76,0.20,0.13,0.29,34.23
45990165,1534,1,215556,246099,-0.90,-1.26,9.59,0.26,0.24,0.25,34.23
46030167,2256,1,215181,245484,-1.28,-1.12,9.90,0.30,0.36,0.29,34.23
46070165,1823,1,214815,244818,-0.95,-1.28,9.55,0.27,0.19,0.24,34.23
46110165,1638,1,214554,244634,-1.15,-1.35,9.58,-0.02,0.28,0.01,34.23
46150176,1509,1,214503,244994,-1.21,-1.37,9.74,-0.08,0.23,-0.07,34.23
46190193,1434,1,214568,245514,-1.19,-1.30,9.69,-0.10,0.23,-0.12,34.23
46230191,1406,1,214655,245955,-1.99,-1.22,10.27,-0.09,0.26,-0.09,34.23
46270193,1337,1,214637,246549,-2.03,-1.32,10.19,0.03,-0.01,-0.03,34.23
46310877,1245,1,214894,247450,-1.92,-1.03,9.83,-0.03,-0.12,-0.09,34.53
46351209,1266,1,214921,246594,-1.97,-1.19,9.77,-0.04,-0.04,-0.07,34.53
46391210,1230,1,214115,244491,-1.80,-1.03,9.16,-0.14,0.18,-0.06,34.53
46431193,1200,1,213751,244438,-2.05,-1.09,9.34,-0.20,0.25,0.04,34.53
46471241,1446,1,213851,245158,-2.33,-0.98,9.61,-0.22,-0.17,0.12,34.53
46511198,2064,1,213912,245452,-2.41,-0.89,9.34,-0.25,-0.02,0.28,34.53
46551194,2046,1,213698,245414,-2.49,-0.95,10.15,-0.22,-0.07,0.46,34.53
46591199,2019,1,213756,246141,-2.35,-1.33,9.18,-0.27,-0.20,0.55,34.53
46631196,1995,1,213896,246406,-2.46,-1.70,9.51,-0.34,-0.15,0.50,34.53
46671207,1967,1,213744,246954,-2.12,-2.03,9.65,-0.32,-0.33,0.38,34.53
46711199,1750,1,213828,248051,-1.75,-1.91,10.05,-0.18,-0.36,0.28,34.53
46751203,1826,1,214221,249404,-1.32,-2.10,9.50,-0.06,-0.53,0.17,34.53
46791199,1856,1,214419,249915,-1.35,-2.25,9.76,-0.16,-0.06,0.25,34.53
46831202,1783,1,214215,249737,-2.00,-2.21,10.16,-0.17,0.30,0.39,34.53
46871177,1787,1,214121,249536,-2.52,-1.76,10.08,-0.07,0.08,0.44,34.53
46911179,1853,1,213934,249298,-2.61,-1.69,9.65,-0.00,-0.09,0.43,34.53
46951195,1808,1,213431,246957,-2.77,-1.83,9.57,0.01,-0.01,0.49,34.53
46991179,1826,1,212478,244606,-2.60,-1.76,9.27,-0.01,0.00,0.54,34.53
47031179,1839,1,211818,243297,-2.78,-2.12,9.36,-0.03,0.05,0.69,34.53
47071179,1853,1,211529,242942,-2.63,-1.90,9.18,-0.12,0.02,0.77,34.53
47111180,1831,1,211411,242677,-2.22,-1.64,9.08,-0.20,-0.11,0.82,34.53
47151200,1808,1,211170,242600,-1.86,-1.72,9.28,-0.28,-0.14,0.87,34.53
47191200,1827,1,211280,242864,-2.05,-2.00,9.79,-0.35,-0.06,0.86,34.53
47231200,1892,1,211144,242541,-2.31,-2.27,10.18,-0.23,-0.07,0.92,34.53
47271199,1881,1,210929,241782,-2.30,-1.98,9.81,-0.09,-0.25,1.04,34.53
47311887,1833,1,210543,241187,-2.09,-1.93,9.68,-0.18,-0.28,1.01,34.39
47350200,1952,1,210244,240653,-1.75,-2.11,9.32,-0.07,-0.43,1.10,34.39
47390200,1779,1,209671,239120,-1.65,-1.96,9.34,0.09,-0.34,1.23,34.39
47430179,2066,1,209322,238363,-2.33,-2.25,10.08,0.13,0.06,1.37,34.39
47470170,2089,1,209412,238732,-1.97,-1.96,9.83,0.14,-0.20,1.22,34.39
47510179,2109,1,209623,238900,-1.79,-1.25,9.33,-0.01,-0.23,0.93,34.39
47550200,2123,1,209148,236104,-1.59,-0.94,9.46,-0.18,-0.18,0.70,34.39
47590199,2123,1,207636,231205,-1.34,-1.14,9.75,-0.16,-0.08,0.49,34.39
47630200,2145,1,206632,229601,-1.21,-0.94,10.14,-0.03,0.17,0.49,34.39
47670179,2135,1,206803,230357,-1.52,-0.65,10.41,0.19,0.20,0.61,34.39
47710170,2154,1,206951,230398,-1.49,-0.13,10.16,0.40,0.01,0.75,34.39
47750170,2126,1,206914,230265,-1.76,-0.35,9.97,0.42,-0.01,0.82,34.39
47790188,1968,1,207130,230957,-1.90,-0.27,10.00,0.33,0.02,0.78,34.39
47830169,1977,1,207148,231129,-1.66,0.14,9.49,0.22,-0.27,0.62,34.39
47870169,2016,1,207258,231658,-2.19,0.93,9.45,0.15,-0.12,0.61,34.39
47910170,2093,1,207378,231194,-2.04,1.02,9.38,0.06,-0.20,0.62,34.39
47950170,1951,1,207062,230862,-2.13,0.92,9.44,-0.14,-0.22,0.52,34.39
47990178,2173,1,207259,231872,-2.69,1.42,9.79,-0.28,-0.00,0.39,34.39
48030180,2135,1,207639,232176,-2.10,0.71,9.91,-0.09,0.00,0.44,34.39
48070167,2033,1,207415,231395,-1.73,0.45,9.98,0.05,-0.06,0.37,34.39
48110171,2077,1,207352,230801,-1.57,0.46,9.89,0.15,0.14,0.36,34.39
48150148,2160,1,206994,229208,-1.29,0.28,9.69,0.24,0.12,0.43,34.39
48190147,2231,1,206447,227554,-1.01,0.37,9.24,0.13,0.22,0.32,34.39
48230148,2203,1,206278,228027,-1.29,0.68,9.17,-0.09,0.31,0.13,34.39
48270171,2259,1,206747,228930,-1.60,0.81,9.34,-0.35,0.43,0.01,34.39
48310180,2256,1,206860,228843,-2.17,0.73,9.88,-0.41,0.31,-0.05,34.39
48350865,2178,1,206891,229501,-2.31,0.67,10.25,-0.33,0.01,-0.05,34.43
48391179,2160,1,207209,230307,-2.10,0.50,10.13,-0.29,-0.17,-0.00,34.43
48431199,2149,1,207263,230011,-2.04,0.61,10.16,-0.27,-0.17,-0.07,34.43
48471199,2129,1,207088,229876,-2.30,0.70,10.42,-0.06,-0.21,0.02,34.43
48511202,2151,1,207378,230902,-2.20,1.14,10.52,0.13,-0.26,0.20,34.43
48551170,2181,1,207934,232557,-1.88,0.91,9.79,0.23,-0.25,0.11,34.43
48591166,2143,1,208520,233959,-1.87,0.91,9.78,0.39,0.18,0.01,34.43
48631143,2128,1,209033,235372,-2.26,0.44,10.03,0.22,0.04,-0.09,34.43
48671166,2038,1,209698,237236,-1.82,0.66,9.37,0.09,-0.06,-0.14,34.43
48711176,2134,1,210153,236988,-1.41,0.41,9.10,-0.13,-0.06,-0.16,34.43
48751192,2165,1,209523,234950,-1.15,-0.05,9.11,-0.40,-0.04,-0.19,34.43
48811211,2167,1,209160,235155,-1.69,-0.64,9.59,-0.63,-0.17,-0.21,34.43
48851212,2126,1,209292,236484,-1.75,-0.50,9.85,-0.56,-0.31,-0.19,34.43
48891211,2127,1,209680,238230,-1.80,-0.55,9.93,-0.48,-0.32,-0.18,34.43
48931216,2160,1,210040,239431,-1.57,-0.66,9.91,-0.36,-0.28,-0.19,34.43
48971213,2275,1,210268,240730,-1.48,-0.83,10.03,-0.24,-0.15,-0.23,34.43
49011217,2237,1,210740,242370,-1.20,-0.96,9.96,-0.13,-0.04,-0.29,34.43
49051213,2188,1,211118,243403,-1.11,-0.98,10.04,-0.04,0.06,-0.37,34.43
49091199,2186,1,211330,244433,-1.22,-1.07,10.04,-0.04,0.19,-0.39,34.43
49131199,2134,1,211729,245658,-1.43,-1.22,10.36,-0.03,0.17,-0.36,34.43
49171199,2057,1,212091,246353,-1.31,-1.09,10.08,0.07,-0.04,-0.34,34.43
49211195,1991,1,212162,246581,-1.30,-1.05,10.12,0.07,-0.00,-0.31,34.43
49251199,1969,1,212133,246161,-1.27,-0.94,9.89,0.06,-0.07,-0.28,34.43
49291195,1995,1,211181,242227,-1.03,-0.91,9.65,0.08,-0.23,-0.25,34.43
49331199,2032,1,209711,239713,-0.89,-0.92,9.43,-0.03,-0.16,-0.16,34.43
49371899,1974,1,209131,238666,-1.06,-0.82,9.58,-0.12,-0.15,-0.01,34.23
49410215,2133,1,208834,238441,-0.74,-0.85,9.36,-0.21,-0.33,0.01,34.23
49450199,2146,1,209009,239848,-0.67,-0.97,9.34,-0.39,-0.27,0.00,34.23
49490199,2164,1,209821,242569,-0.84,-0.82,9.58,-0.46,-0.11,0.04,34.23
49530199,2151,1,210702,245116,-0.73,-1.00,9.82,-0.41,-0.17,0.01,34.23
49570200,2197,1,211287,246417,-0.42,-0.96,9.81,-0.35,-0.06,-0.07,34.23
49610213,2163,1,211546,247598,-0.54,-1.21,10.22,-0.35,0.18,-0.09,34.23
49650200,2196,1,211929,248853,-0.63,-1.17,10.66,-0.22,0.21,-0.02,34.23
49690199,2279,1,212105,249510,-0.49,-1.36,10.58,-0.03,0.13,-0.00,34.23
49730198,2245,1,212420,250598,-0.38,-1.78,10.54,0.15,0.11,-0.05,34.23
49770179,2202,1,212689,251228,-0.30,-1.55,10.35,0.36,0.06,-0.12,34.23
49810179,2217,1,212685,250630,-0.20,-1.13,9.79,0.66,0.16,-0.00,34.23
49850179,2079,1,212144,247750,-0.74,-0.61,10.07,0.82,0.25,0.17,34.23
49890170,2193,1,209962,242490,-1.40,-0.97,9.69,0.76,0.39,0.18,34.23
49930165,2095,1,208730,240497,-1.83,-0.35,9.74,0.66,0.29,0.04,34.23
49970169,1938,1,208262,239602,-1.60,-0.09,9.41,0.51,0.11,-0.22,34.23
50010176,1924,1,208081,239277,-1.65,0.11,9.50,0.30,0.29,-0.40,34.23
50050167,1909,1,208057,239408,-2.15,0.09,9.86,0.24,0.38,-0.36,34.23
50090165,1855,1,208227,239769,-2.50,-0.20,10.06,0.22,0.39,-0.29,34.23
50130178,1840,1,208429,239993,-2.76,-0.31,9.98,0.19,0.12,-0.24,34.23
50170177,1881,1,208432,239880,-2.44,-0.12,9.38,0.08,0.02,-0.19,34.23
50210176,1526,1,208379,239941,-2.48,-0.03,9.26,-0.05,-0.06,-0.16,34.23
50250211,1469,1,208474,240390,-2.59,-0.09,9.42,-0.15,-0.04,-0.17,34.23
50290215,1466,1,208713,241116,-2.51,-0.40,9.57,-0.22,-0.02,-0.25,34.23
50330212,1343,1,209007,241873,-2.27,-0.63,9.68,-0.21,-0.04,-0.37,34.23
50370216,1456,1,209234,242541,-2.29,-0.86,9.78,-0.16,-0.04,-0.52,34.23
50410900,1379,1,209387,242742,-2.09,-0.87,9.82,-0.03,-0.04,-0.63,34.39
50451216,1251,1,209213,241129,-2.09,-0.93,9.74,0.14,0.14,-0.69,34.39
50491177,1456,1,208201,238367,-3.28,-0.41,10.54,0.55,0.64,-0.41,34.39
50531179,1828,1,207274,234762,-3.29,0.54,10.01,1.03,0.07,-0.18,34.39
50571164,1813,1,205796,230627,-1.92,0.80,8.32,1.10,-0.38,-0.38,34.39
50611178,1822,1,205072,229668,-2.00,1.31,8.27,0.66,0.13,-0.74,34.39
50651170,1920,1,205002,229969,-2.58,1.66,9.31,0.35,0.46,-0.95,34.39
50691170,1853,1,205327,231333,-2.91,1.36,9.86,0.18,0.09,-1.11,34.39
50731165,1936,1,205711,232273,-3.19,1.27,10.26,0.00,-0.21,-1.24,34.39
50771219,1909,1,205717,231784,-3.70,1.19,10.84,0.08,-0.30,-1.08,34.39
50811177,1573,1,205435,231400,-3.32,0.84,10.33,0.22,-0.44,-0.90,34.39
50851179,1610,1,205460,232018,-2.94,0.84,9.40,0.22,-0.48,-0.90,34.39
50891177,1952,1,205743,232994,-2.35,0.70,8.78,0.20,-0.47,-0.99,34.39
50931178,1677,1,205964,233923,-1.88,0.73,8.26,0.08,-0.44,-1.16,34.39
50971230,1654,1,206524,236018,-2.24,0.81,8.59,-0.13,-0.12,-1.28,34.39
51011199,1969,1,207224,236982,-2.86,0.44,9.67,-0.16,0.16,-1.13,34.39
51051177,1994,1,206696,233250,-2.74,0.41,10.07,-0.03,0.02,-0.83,34.39
51091178,1713,1,204386,225811,-2.26,0.04,9.83,0.01,-0.20,-0.63,34.39
51131177,1772,1,202867,224260,-2.02,0.18,9.67,-0.12,-0.37,-0.60,34.39
51171199,1977,1,202773,225094,-1.92,0.14,9.66,-0.23,-0.37,-0.62,34.39
51211195,1983,1,203165,226048,-1.77,-0.09,9.64,-0.24,-0.30,-0.61,34.39
51251212,1968,1,203425,227453,-1.57,-0.30,9.65,-0.19,-0.28,-0.65,34.39
51291213,1910,1,204047,229323,-1.35,-0.41,9.63,-0.18,-0.23,-0.73,34.39
51331216,1965,1,204573,230697,-1.58,-0.78,9.97,-0.24,-0.06,-0.78,34.39
51371213,1574,1,204960,231503,-1.66,-1.21,10.16,-0.17,-0.09,-0.80,34.39
51410902,1465,1,205203,232419,-1.52,-0.89,9.98,-0.13,-0.28,-0.81,34.25
51451213,1463,1,205556,233286,-1.31,-0.34,9.83,-0.07,-0.30,-0.80,34.25
51491216,1555,1,205769,233967,-0.87,-0.32,9.62,0.00,-0.21,-0.81,34.25
51531199,1827,1,206028,235060,-0.87,-0.25,9.90,-0.05,-0.03,-0.80,34.25
51571216,1941,1,206608,236589,-1.02,-0.28,10.16,-0.09,0.04,-0.76,34.25
51611199,1886,1,206825,235747,-0.83,-0.37,10.10,-0.07,-0.05,-0.73,34.25
51651216,1808,1,206016,232860,-0.80,-0.23,10.10,-0.01,0.07,-0.61,34.25
51691199,1909,1,204857,228957,-1.15,-0.80,10.52,0.13,0.10,-0.36,34.25
51731178,1885,1,204074,227890,-1.35,-0.77,10.13,0.16,0.06,-0.29,34.25
51771177,1872,1,204022,227833,-1.36,-0.59,9.72,0.16,0.06,-0.23,34.25
51811178,1872,1,204075,228600,-1.28,-0.42,9.51,0.22,-0.01,-0.16,34.25
51851192,1873,1,204584,230462,-1.26,-0.42,9.56,0.22,-0.04,-0.09,34.25
51891199,1879,1,205503,233036,-1.31,-0.49,9.63,0.04,-0.00,-0.15,34.25
51931191,1888,1,206561,235590,-1.18,-0.37,9.71,-0.06,0.06,-0.15,34.25
51971193,1857,1,207830,238627,-1.36,-0.60,9.94,-0.21,0.10,-0.19,34.25
52011191,1881,1,209458,242329,-1.19,-0.61,9.97,-0.43,0.12,-0.23,34.25
52051199,1843,1,211512,245960,-1.69,-1.18,10.61,-0.61,0.25,-0.34,34.25
52091195,1795,1,213015,249053,-1.56,-1.30,10.28,-0.87,-0.19,-0.59,34.25
52131216,1882,1,214167,251601,-0.99,-1.28,10.04,-0.83,-0.25,-0.71,34.25
52171214,1787,1,214678,252962,-0.60,-1.51,9.65,-0.62,-0.26,-0.56,34.25
52211215,2033,1,215146,252538,-1.28,-2.03,9.87,-0.30,0.10,-0.24,34.25
52251199,1712,1,214149,248271,-1.12,-2.03,10.14,-0.01,-0.18,0.00,34.25
52291200,1906,1,212917,246636,-0.55,-1.73,8.83,0.14,-0.22,0.22,34.25
52331179,1936,1,212939,246788,-0.87,-1.97,9.52,0.24,-0.02,0.33,34.25
52371179,1886,1,213120,247293,-1.02,-1.90,9.83,0.09,-0.09,0.17,34.25
52410218,1978,1,213257,249147,-1.15,-1.77,9.63,-0.09,-0.09,0.08,34.25
52450886,1877,1,214056,251225,-1.19,-1.92,9.78,-0.18,-0.09,-0.04,34.21
52491213,1890,1,214413,252055,-0.92,-1.77,9.49,-0.20,-0.12,-0.09,34.21
52531217,1861,1,214488,252303,-1.25,-1.78,9.41,-0.04,-0.08,0.06,34.21
52571200,2000,1,214495,252249,-1.23,-1.83,9.53,0.16,-0.15,0.17,34.21
52611220,2023,1,214422,252294,-1.00,-1.61,9.63,0.16,-0.10,0.21,34.21
52651179,2013,1,214493,252381,-1.15,-1.44,9.78,0.14,-0.01,0.29,34.21
52691180,1943,1,214450,252316,-1.25,-1.35,10.01,0.10,-0.07,0.30,34.21
52731179,1945,1,214301,252457,-0.86,-1.37,9.72,-0.18,-0.09,0.09,34.21
52771200,2183,1,214324,252771,-0.66,-1.25,9.67,-0.25,0.11,-0.03,34.21
52811219,2165,1,214166,252005,-0.32,-1.17,9.60,-0.16,0.06,-0.03,34.21
52851199,2065,1,213062,247471,-0.93,-1.11,10.53,-0.13,0.21,-0.04,34.21
52891200,2029,1,211419,245088,-0.70,-1.35,9.59,-0.33,0.29,-0.24,34.21
52931201,2018,1,210826,244486,-1.25,-1.36,9.80,-0.21,0.66,-0.37,34.21
52971199,1975,1,210656,244172,-1.55,-1.38,10.58,0.07,0.34,-0.10,34.21
53011179,1968,1,210433,244200,-0.96,-1.60,9.39,0.26,0.16,0.03,34.21
53051170,1925,1,210433,244551,-1.13,-1.91,9.55,0.29,0.28,0.09,34.21
53091171,1854,1,210586,245269,-1.51,-2.06,9.81,0.19,0.16,0.03,34.21
53131170,1759,1,210871,245744,-1.38,-1.65,9.66,0.08,0.10,-0.06,34.21
53171179,1767,1,210693,245040,-1.47,-1.48,10.07,-0.03,0.03,0.01,34.21
53211179,1776,1,210426,244339,-1.69,-1.26,9.84,-0.27,-0.15,-0.08,34.21
53251216,1775,1,210049,243613,-1.75,-1.33,9.95,-0.37,-0.16,-0.11,34.21
53291215,1762,1,210008,243843,-1.46,-1.36,9.52,-0.38,-0.02,-0.13,34.21
53331212,1731,1,210106,243955,-1.75,-1.49,10.05,-0.27,0.12,-0.01,34.21
53371198,1723,1,210018,243725,-1.88,-1.77,10.00,-0.10,0.11,0.25,34.21
53411178,1722,1,209899,243158,-1.66,-1.58,9.48,-0.10,-0.06,0.37,34.21
53451880,1686,1,209026,240166,-1.81,-1.72,9.22,-0.27,-0.09,0.31,34.43
53492201,1745,1,208087,238367,-2.18,-2.28,9.25,-0.35,-0.05,0.22,34.43
53532188,1712,1,207865,237945,-1.94,-2.19,9.19,-0.31,-0.05,0.04,34.43
53632209,1716,1,208128,239142,-2.21,-2.67,9.09,-0.14,-0.09,0.62,34.43
53672203,1739,1,208761,240350,-2.42,-2.49,9.68,-0.29,-0.11,0.56,34.43
53712202,1771,1,208949,240354,-2.19,-2.74,9.51,-0.36,-0.20,0.61,34.43
53752201,1642,1,208786,240226,-2.32,-3.01,9.77,-0.32,-0.09,0.66,34.43
53792201,1586,1,208856,240580,-2.50,-3.04,9.98,-0.36,-0.01,0.53,34.43
53832201,1668,1,208958,240598,-2.65,-2.61,9.94,-0.18,-0.07,0.62,34.43
53872201,1755,1,208795,240162,-2.79,-2.20,9.79,0.03,-0.22,0.80,34.43
53912180,1734,1,208662,240017,-2.62,-2.09,9.48,0.06,-0.26,0.90,34.43
53952180,1713,1,208658,240250,-2.58,-2.38,9.60,-0.07,-0.10,0.93,34.43
53992201,1706,1,208852,240566,-2.50,-2.94,9.61,-0.23,-0.11,0.86,34.43
54032201,1746,1,208650,239003,-2.19,-2.97,9.49,-0.25,-0.21,0.83,34.43
54072198,1744,1,207676,236512,-1.74,-2.89,9.21,-0.22,-0.30,0.84,34.43
54112202,1724,1,206815,234294,-1.49,-2.64,9.16,-0.16,-0.24,0.90,34.43
54152197,1783,1,206123,232088,-1.75,-2.84,9.40,-0.10,-0.16,1.00,34.43
54192200,1829,1,205581,230685,-2.05,-2.67,9.59,0.03,-0.23,1.07,34.43
54232177,1827,1,205062,229460,-2.21,-2.54,9.66,0.13,-0.36,1.16,34.43
54272183,1805,1,204914,229960,-2.56,-2.64,9.64,0.10,-0.32,1.21,34.43
54312181,1887,1,205089,230238,-2.34,-2.38,9.38,-0.03,-0.37,1.18,34.43
54352201,1908,1,205079,230334,-2.49,-1.90,9.36,-0.20,-0.18,1.32,34.43
54392197,2030,1,205272,231460,-2.25,-2.32,9.38,-0.36,-0.25,1.28,34.43
54432204,1850,1,205956,233611,-1.35,-1.98,8.86,-0.42,-0.29,1.20,34.43
54472888,1854,1,206550,234973,-1.23,-1.88,9.47,-0.36,-0.43,1.11,34.29
54511204,1862,1,206844,235777,-0.87,-2.34,9.49,-0.29,-0.26,1.02,34.29
54551200,1817,1,207035,236024,-1.20,-2.84,9.74,-0.10,0.10,0.94,34.29
54591180,1802,1,207136,236260,-1.77,-2.52,9.79,0.15,0.03,0.93,34.29
54631171,2062,1,207150,234630,-1.88,-2.05,9.13,0.36,-0.05,0.98,34.29
54671176,1990,1,262143,235452,-2.10,-1.62,9.03,0.29,-0.01,0.94,34.29
54823251,1534,1,203692,225571,-0.91,-1.05,9.91,-0.58,-0.04,0.87,34.29
54851203,1411,1,204606,227783,-1.08,-1.13,10.31,-0.65,-0.10,0.78,34.29
54891191,1293,1,204940,228503,-1.47,-1.47,11.01,-0.57,-0.12,0.76,34.29
54931193,1273,1,205764,229969,-1.95,-2.08,10.65,-0.21,0.11,0.92,34.29
54991179,990,1,205926,229996,-2.17,-1.18,10.18,0.36,0.13,0.93,34.29
55031170,1364,1,206602,231020,-2.06,-1.02,9.79,0.59,-0.03,0.91,34.29
55151184,1904,1,206953,231877,-2.33,-0.05,10.60,0.60,0.01,0.45,34.29
55191172,1907,1,207574,233984,-2.10,-0.04,9.84,0.36,0.04,0.21,34.29
55231171,1910,1,208652,234657,-2.30,0.18,9.95,0.21,0.16,0.12,34.29
55271171,1921,1,208176,232125,-2.16,0.38,9.58,0.08,-0.13,0.06,34.29
55311171,1939,1,207328,230019,-2.24,0.44,9.16,-0.15,-0.12,-0.03,34.29
55351202,1930,1,206864,229404,-2.42,0.63,9.30,-0.10,-0.13,-0.03,34.29
55391201,1982,1,207188,231345,-2.37,0.75,9.17,-0.04,-0.04,-0.08,34.29
55431201,1967,1,208149,234005,-2.20,1.13,9.42,-0.09,0.18,-0.07,34.29
55471181,1950,1,209045,235898,-2.12,0.65,9.43,-0.06,0.09,-0.02,34.29
55512867,1877,1,209531,236761,-2.14,0.12,9.60,-0.05,-0.01,-0.09,34.31
55551201,1918,1,209712,237193,-1.80,0.04,9.41,-0.13,0.05,-0.23,34.31
55591180,1936,1,209673,236663,-2.26,-0.11,10.01,-0.15,0.09,-0.26,34.31
55631200,1886,1,209413,235970,-2.66,-0.04,10.14,-0.26,0.04,-0.36,34.31
55671201,1894,1,209208,235184,-2.43,-0.04,9.68,-0.30,-0.06,-0.50,34.31
55711212,1945,1,209101,235028,-2.17,0.41,9.69,-0.11,-0.18,-0.46,34.31
55751200,1903,1,209289,236021,-2.26,-0.34,9.78,0.01,-0.17,-0.26,34.31
55791200,1925,1,209791,237370,-2.31,-0.54,9.75,-0.05,-0.08,-0.29,34.31
55831213,1918,1,210220,237736,-2.32,-0.65,9.52,-0.10,-0.03,-0.27,34.31
55871212,1920,1,209816,236008,-2.43,-0.84,9.64,-0.14,-0.03,-0.29,34.31
55911213,1920,1,209075,235104,-2.24,-0.85,9.47,-0.16,-0.12,-0.35,34.31
55951212,1936,1,208981,235950,-2.13,-0.95,9.31,-0.13,0.03,-0.33,34.31
55991195,1984,1,209149,237388,-2.23,-0.89,9.67,0.02,0.04,-0.20,34.31
56031176,1984,1,209290,238485,-2.26,-0.81,9.86,0.08,0.02,-0.13,34.31
56071176,1867,1,209374,239162,-2.43,-0.66,9.79,0.09,0.11,-0.08,34.31
56111176,1901,1,209277,239148,-2.29,-0.44,9.76,0.15,-0.11,-0.05,34.31
56151193,1984,1,209006,239990,-2.01,-0.35,9.74,0.04,-0.21,-0.06,34.31
56252208,1937,1,209343,241229,-1.64,-0.48,9.78,-0.17,0.06,-0.14,34.31
56292204,1947,1,209829,242418,-1.92,-0.82,10.30,-0.22,0.08,-0.12,34.31
56332200,1879,1,210116,243283,-2.04,-1.04,10.14,-0.17,0.07,-0.02,34.31
56372199,1889,1,210479,244475,-2.10,-0.87,9.87,-0.08,-0.02,0.08,34.31
56412200,1868,1,210799,244627,-1.83,-0.61,9.37,-0.07,-0.19,0.10,34.31
56452200,1892,1,209865,241356,-1.69,-0.67,9.16,-0.13,-0.18,0.08,34.31
56492199,1942,1,209083,240619,-2.08,-1.10,9.74,-0.17,-0.17,0.09,34.31
56532886,1904,1,209094,241117,-2.58,-1.21,10.44,-0.22,-0.29,0.04,34.21
56571199,1968,1,209350,242628,-2.24,-1.13,10.47,-0.34,-0.46,-0.05,34.21
56611216,2027,1,209993,244833,-1.45,-0.82,10.05,-0.52,-0.35,-0.18,34.21
56651213,2054,1,210867,247135,-1.18,-0.54,10.24,-0.56,-0.28,-0.10,34.21
56691216,2119,1,211555,248350,-1.01,-0.85,10.25,-0.43,-0.48,0.10,34.21
56731199,2081,1,211543,247543,-0.61,-1.07,9.89,-0.23,-0.42,0.19,34.21
56771200,2033,1,210864,245528,-0.36,-0.92,9.78,0.18,-0.35,0.44,34.21
56811190,2017,1,210214,244276,0.11,-1.09,9.36,0.86,-0.26,0.66,34.21
56851171,1920,1,210305,244055,-0.08,-0.63,9.97,1.19,0.01,0.73,34.21
56891170,1950,1,210532,244776,-0.85,-0.49,11.25,0.67,0.14,0.36,34.21
56931171,1959,1,211045,246383,-0.71,-0.51,10.80,0.09,0.07,-0.08,34.21
56971179,1903,1,211751,248546,-0.64,-0.74,10.35,-0.11,0.01,-0.25,34.21
57011200,1892,1,212282,247851,-0.79,-1.25,10.06,-0.03,0.00,-0.18,34.21
57051199,1897,1,210664,243016,-0.88,-1.36,9.84,0.14,-0.17,-0.06,34.21
57091200,1867,1,209598,241807,-0.85,-1.17,9.35,0.19,-0.23,-0.06,34.21
57131200,1806,1,209500,242000,-0.71,-1.20,9.21,0.01,-0.17,-0.19,34.21
57171200,1766,1,209586,242463,-0.73,-1.14,9.15,-0.11,-0.20,-0.39,34.21
57211214,1751,1,209711,243258,-0.57,-1.02,8.96,-0.05,-0.08,-0.45,34.21
57251217,1725,1,210115,244402,-0.86,-0.97,9.21,0.11,0.10,-0.44,34.21
57291179,1755,1,210518,245434,-0.98,-0.85,9.13,0.23,0.19,-0.46,34.21
57331179,1731,1,210915,245983,-1.10,-0.46,9.58,0.29,0.25,-0.51,34.21
57371179,1735,1,211109,246264,-1.41,-0.42,9.86,0.33,0.23,-0.53,34.21
57411179,1728,1,211283,246215,-1.23,-0.22,10.00,0.31,0.17,-0.62,34.21
57451179,1677,1,211120,245449,-1.04,0.22,10.09,0.17,0.20,-0.69,34.21
57491171,1703,1,210775,244658,-1.45,-0.06,10.32,0.04,0.25,-0.71,34.21
57531179,1633,1,210582,244368,-1.56,0.00,10.18,-0.01,0.11,-0.76,34.21
57571866,1681,1,210546,244257,-1.66,0.01,9.92,0.16,0.05,-0.66,34.25
57612170,1682,1,210292,242000,-1.61,0.22,10.06,0.21,0.00,-0.76,34.25
57652171,1676,1,209060,239217,-1.27,0.57,9.98,-0.00,-0.08,-0.93,34.25
57692182,1684,1,208355,237741,-1.21,0.40,9.93,-0.10,-0.01,-1.06,34.25
57732212,1701,1,208076,237286,-1.51,0.13,10.25,-0.12,0.04,-1.17,34.25
57772176,1743,1,207997,237280,-1.52,-0.45,10.04,-0.02,-0.12,-1.24,34.25
57812210,1749,1,207949,237674,-1.67,-0.43,9.93,0.04,-0.17,-1.30,34.25
57852191,1741,1,207847,237942,-1.82,-0.33,9.82,0.12,-0.19,-1.26,34.25
57892194,1727,1,207721,237899,-1.98,-0.41,9.84,0.24,-0.07,-1.24,34.25
57932208,1735,1,207701,238365,-1.95,-0.59,9.65,0.22,0.08,-1.38,34.25
57972176,1712,1,208021,239107,-1.81,-0.52,9.50,0.20,0.24,-1.51,34.25
58012171,1772,1,208348,239913,-1.65,-0.18,9.39,0.36,0.16,-1.36,34.25
58052170,1745,1,209115,241174,-1.77,0.12,9.47,0.35,0.12,-1.20,34.25
58212172,1773,1,206492,233121,-1.12,-0.17,9.61,-0.09,-0.04,-0.77,34.25
58332219,1809,1,206763,234543,-1.45,-0.24,10.22,0.10,0.27,-0.74,34.25
58372180,1777,1,207908,236851,-1.63,-0.56,10.30,0.03,0.17,-0.52,34.25
58412181,1829,1,208678,239274,-1.85,-1.06,9.62,0.11,-0.02,-0.77,34.25
58452201,1850,1,209743,242097,-1.75,0.02,9.64,0.06,0.21,-0.96,34.25
58492823,1813,1,210727,243528,-1.82,0.45,9.76,0.12,0.27,-0.97,34.25
58531171,1804,1,211179,244470,-2.05,0.17,9.78,0.17,0.18,-0.90,34.25
58571165,1766,1,212099,246703,-2.71,0.22,10.36,0.19,0.11,-0.69,34.25
58611858,1535,1,213513,248958,-2.23,0.63,10.12,0.15,-0.10,-0.61,34.29
58652181,1535,1,214451,250702,-2.41,0.42,10.12,-0.08,-0.21,-0.40,34.29
58692201,1581,1,215891,254149,-2.05,0.04,10.17,-0.16,-0.36,-0.27,34.29
58732202,1664,1,217588,256513,-1.16,-0.63,9.97,-0.09,-0.56,-0.11,34.29
58772214,1728,1,217806,254411,-1.55,-1.00,9.69,0.26,-0.43,-0.00,34.29
58812196,1729,1,216721,250960,-1.00,-0.54,9.79,0.08,-0.14,-0.27,34.29
58852201,1680,1,216006,251102,-1.20,0.01,9.84,0.00,-0.16,-0.26,34.29
58932187,1906,1,216388,251297,-1.05,-0.78,9.28,0.03,0.18,-0.36,34.29
58972180,1881,1,215947,250393,-1.74,-0.75,9.81,0.29,0.15,-0.33,34.29
59012180,1867,1,215569,250021,-1.46,-0.17,9.76,0.22,-0.03,-0.29,34.29
59052200,1920,1,215205,249402,-1.36,1.78,10.12,0.20,-0.15,0.31,34.29
59092171,1891,1,215063,249473,-1.69,0.86,9.68,-0.30,0.16,0.36,34.29
59132170,1914,1,215280,249549,-2.01,0.07,10.05,-0.47,0.25,0.35,34.29
59172171,1860,1,215348,249399,-1.77,-0.36,9.85,-0.33,0.02,0.46,34.29
59212179,1903,1,215191,249246,-1.65,-0.06,9.62,-0.21,-0.06,0.50,34.29
59252200,1898,1,214843,248675,-1.62,0.16,9.73,-0.17,-0.05,0.53,34.29
59292180,1873,1,214369,248214,-1.71,-0.15,9.62,-0.23,-0.08,0.48,34.29
59332201,1729,1,214133,246632,-1.83,-0.12,9.77,-0.36,-0.07,0.42,34.29
59372225,1898,1,212551,242509,-1.70,-0.04,9.70,-0.34,-0.22,0.41,34.29
59412193,1903,1,211408,240782,-1.77,0.13,10.25,-0.35,-0.11,0.36,34.29
59452179,1901,1,211008,240522,-1.75,-0.23,10.34,-0.38,0.09,0.34,34.29
59492179,1885,1,210981,240764,-1.76,-0.63,10.31,-0.37,0.07,0.33,34.29
59532179,1910,1,211038,241458,-1.51,-0.68,10.13,-0.39,-0.01,0.31,34.29
59572241,1874,1,211191,242447,-1.12,-1.16,9.86,-0.41,-0.04,0.26,34.29
59612886,1883,1,211177,242576,-1.20,-1.26,9.90,-0.40,-0.06,0.20,34.33
59651200,1881,1,210817,242315,-1.51,-1.02,9.96,-0.31,-0.06,0.23,34.33
59691199,1857,1,210644,242590,-1.26,-0.83,9.77,-0.18,-0.05,0.26,34.33
59731200,1876,1,210725,243023,-0.97,-1.02,9.55,-0.00,-0.13,0.21,34.33
59771200,1891,1,210862,243868,-1.09,-0.93,9.82,0.07,0.10,0.10,34.33
59811171,1905,1,211075,244935,-0.97,-1.01,9.75,0.13,0.18,0.01,34.33
59851170,1926,1,211370,245603,-1.15,-1.00,9.82,0.15,0.24,-0.04,34.33
59891179,1933,1,211496,246234,-1.45,-0.85,10.01,0.20,0.17,0.01,34.33
59931170,1959,1,211326,244078,-1.31,-0.90,9.81,0.27,0.12,0.09,34.33
59971171,1915,1,210017,241356,-1.89,-0.47,10.11,0.24,0.19,0.12,34.33
60011171,1916,1,209527,240437,-1.95,-0.49,10.09,0.19,0.20,0.23,34.33
60051171,1860,1,209388,240373,-1.96,-0.43,9.80,0.14,0.00,0.31,34.33
60091170,1875,1,209570,241345,-1.84,-0.28,9.61,-0.03,-0.11,0.25,34.33
60131200,1858,1,210112,243173,-1.49,-0.32,9.36,-0.26,-0.11,0.09,34.33
60171200,1892,1,210558,244319,-1.67,-0.67,9.42,-0.42,0.12,0.05,34.33
60211179,1886,1,211026,245631,-2.71,-0.91,10.48,-0.36,0.36,0.17,34.33
60251179,1907,1,211316,245976,-2.28,-0.72,9.82,-0.15,-0.12,0.30,34.33
60291200,1870,1,211291,246410,-2.26,-0.51,9.45,-0.21,-0.37,0.32,34.33
60331200,1866,1,211483,247313,-1.70,-0.76,9.42,-0.30,-0.34,0.29,34.33
60371200,1840,1,211803,248495,-1.41,-0.99,9.38,-0.45,-0.23,0.21,34.33
60411199,1825,1,212249,249887,-1.62,-1.35,9.89,-0.47,-0.05,0.22,34.33
60451201,1831,1,212464,250395,-1.91,-1.49,10.01,-0.42,-0.17,0.24,34.33
60491200,1812,1,212398,248487,-2.02,-1.67,9.86,-0.34,-0.35,0.29,34.33
60531201,1823,1,210721,244219,-2.10,-1.48,9.58,-0.26,-0.30,0.33,34.33
60571200,1808,1,209677,242393,-2.85,-1.21,10.07,-0.15,-0.15,0.50,34.33
60611203,1855,1,209264,241479,-2.69,-0.98,9.93,0.01,-0.18,0.67,34.33
60651867,1838,1,209049,241246,-2.36,-1.02,9.52,-0.01,-0.15,0.74,34.43
60692200,1866,1,209215,242258,-2.43,-1.49,9.86,-0.07,0.12,0.84,34.43
60732179,1887,1,209608,243029,-2.02,-1.41,9.63,0.01,-0.06,0.95,34.43
60772179,1882,1,209762,243249,-1.43,-1.51,9.25,-0.07,-0.08,0.96,34.43
60812200,1872,1,209794,243364,-1.33,-1.71,9.42,-0.16,0.09,0.92,34.43
60852180,1883,1,209809,243060,-1.61,-1.70,9.73,-0.06,0.07,0.99,34.43
60892180,1895,1,209677,243022,-1.98,-1.43,9.91,0.06,-0.03,1.12,34.43
60932180,1889,1,209841,243139,-1.85,-1.14,9.89,0.09,-0.21,1.24,34.43
60972179,1857,1,209791,243434,-1.53,-1.25,9.80,-0.00,-0.48,1.23,34.43
61012205,1911,1,210016,244543,-0.73,-1.34,9.04,-0.25,-0.36,1.09,34.43
61052200,1893,1,210724,245903,-1.94,-2.10,10.29,-0.44,0.32,0.98,34.43
61092182,1875,1,210306,242920,-1.96,-1.43,9.63,-0.28,-0.01,1.06,34.43
61132200,1907,1,209392,241605,-1.94,-0.59,9.36,-0.13,-0.07,1.34,34.43
61172200,1902,1,209298,241350,-2.29,-0.72,9.65,-0.22,0.14,1.44,34.43
61212203,1863,1,209262,241132,-1.68,-1.14,9.39,-0.16,-0.13,1.33,34.43
61252203,1930,1,209246,241053,-0.99,-1.10,8.57,0.11,0.36,1.20,34.43
61292170,1875,1,209280,240856,-2.18,-1.02,10.76,0.15,-0.01,1.17,34.43
61332182,1873,1,209086,240656,-1.56,-0.87,10.02,0.12,-0.06,1.07,34.43
61372180,1899,1,209220,240529,-1.89,-0.37,10.38,-0.02,0.30,0.91,34.43
61412180,1823,1,209352,240365,-2.37,-0.39,10.72,-0.09,0.14,0.88,34.43
61452179,1899,1,209275,239889,-1.65,-0.08,9.57,-0.03,-0.11,0.86,34.43
61492200,1877,1,208907,239116,-1.64,0.09,9.37,-0.18,0.01,0.76,34.43
61532170,1888,1,208795,238376,-2.02,-0.32,10.12,-0.12,-0.09,0.85,34.43
61572201,1885,1,208410,237444,-1.41,-0.26,9.89,-0.18,-0.13,0.75,34.43
61612199,1854,1,207446,233383,-1.66,-0.32,10.11,-0.12,-0.01,0.61,34.43
61703542,1935,1,205622,227317,-1.44,0.10,10.17,0.20,-0.01,0.42,34.47
