timestamp_us,ecg,leads,ir,red,accX,accY,accZ,gyroX,gyroY,gyroZ,temp
1917488,1923,1,183034,217227,0.00,0.00,0.00,0.00,0.00,0.00,0.00
1947954,1919,1,183071,217287,0.21,-0.63,9.69,-0.03,-0.01,-0.01,31.43
1988200,1920,1,182911,216039,0.22,-0.67,9.94,-0.03,-0.01,-0.00,31.43
2028200,1929,1,182314,214551,0.22,-0.64,9.95,-0.03,-0.01,-0.00,31.43
2068188,1933,1,181989,213952,0.22,-0.64,9.98,-0.03,-0.01,-0.01,31.43
2108188,1947,1,181926,213798,0.22,-0.64,9.96,-0.03,-0.01,-0.00,31.43
2148188,1946,1,181848,213632,0.22,-0.69,9.96,-0.03,-0.01,-0.01,31.43
2188188,1948,1,181822,213786,0.23,-0.64,9.95,-0.03,-0.01,-0.01,31.43
2228200,1954,1,181983,214428,0.23,-0.64,9.97,-0.03,-0.01,-0.01,31.43
2268188,1955,1,182131,214818,0.21,-0.66,9.95,-0.03,-0.01,-0.00,31.43
2308188,1957,1,182224,215021,0.23,-0.68,9.98,-0.03,-0.01,-0.01,31.43
2348188,1946,1,182264,215383,0.21,-0.65,9.96,-0.03,-0.01,-0.01,31.43
2388189,1959,1,182368,215683,0.24,-0.65,9.98,-0.03,-0.01,-0.00,31.43
2428188,1954,1,182437,216034,0.20,-0.66,9.97,-0.03,-0.01,-0.01,31.43
2468188,1957,1,182545,216291,0.21,-0.65,9.95,-0.03,-0.01,-0.01,31.43
2508188,1960,1,182571,216544,0.23,-0.66,9.97,-0.03,-0.01,-0.01,31.43
2548189,1968,1,182631,216755,0.21,-0.64,9.97,-0.03,-0.01,-0.01,31.43
2588188,1958,1,182680,217073,0.22,-0.65,9.98,-0.04,-0.01,-0.01,31.43
2628189,1962,1,182751,217151,0.20,-0.68,9.97,-0.03,-0.01,-0.01,31.43
2668188,1965,1,182541,215833,0.22,-0.64,9.99,-0.03,-0.01,-0.01,31.43
2708189,1958,1,181930,214504,0.23,-0.65,9.95,-0.03,-0.01,-0.00,31.43
2748188,1966,1,181699,213987,0.23,-0.65,9.97,-0.03,-0.01,-0.01,31.43
2788189,1958,1,181571,213512,0.21,-0.67,9.98,-0.03,-0.01,-0.00,31.43
2828188,1957,1,181404,213032,0.20,-0.67,9.99,-0.03,-0.00,-0.00,31.43
2868188,1953,1,181225,213029,0.24,-0.65,9.94,-0.03,-0.01,-0.00,31.43
2908188,1943,1,181363,213488,0.21,-0.63,9.95,-0.03,-0.01,-0.00,31.43
2948189,1945,1,181508,213793,0.21,-0.66,9.97,-0.03,-0.01,-0.00,31.43
2988873,1931,1,181538,213736,0.23,-0.67,9.95,-0.03,-0.01,-0.01,31.71
3027227,1953,1,181523,213787,0.23,-0.66,9.97,-0.03,-0.01,-0.01,31.71
3067187,1951,1,181593,214124,0.20,-0.65,9.97,-0.03,-0.01,-0.01,31.71
3107189,1963,1,181803,214610,0.22,-0.64,9.97,-0.03,-0.01,-0.01,31.71
3147188,1951,1,181924,214860,0.22,-0.67,9.96,-0.03,-0.01,-0.00,31.71
3187188,1968,1,182021,215189,0.22,-0.64,9.95,-0.03,-0.01,-0.00,31.71
3227188,1951,1,182168,215752,0.21,-0.65,9.94,-0.04,-0.01,-0.01,31.71
3267189,1953,1,182441,216342,0.24,-0.64,9.96,-0.03,-0.01,-0.01,31.71
3307188,1948,1,182475,216385,0.21,-0.67,9.97,-0.03,-0.01,-0.01,31.71
3347189,1946,1,182471,215551,0.22,-0.66,9.96,-0.03,-0.01,-0.01,31.71
3387188,1951,1,182013,214216,0.23,-0.67,9.97,-0.03,-0.01,-0.01,31.71
3427189,1953,1,181685,213629,0.23,-0.65,9.97,-0.04,-0.01,-0.01,31.71
3467188,1951,1,181610,213507,0.23,-0.66,9.97,-0.03,-0.01,-0.00,31.71
3507188,1953,1,181616,213350,0.20,-0.65,9.96,-0.03,-0.01,-0.01,31.71
3547189,1949,1,181737,213901,0.23,-0.66,9.93,-0.03,-0.01,-0.01,31.71
3587189,1936,1,182029,214854,0.22,-0.66,9.96,-0.04,-0.01,-0.00,31.71
3627188,1946,1,182293,215485,0.22,-0.63,9.98,-0.03,-0.01,-0.01,31.71
3667192,1943,1,182437,215908,0.21,-0.66,9.96,-0.03,-0.01,-0.00,31.71
3707188,1941,1,182554,216355,0.23,-0.68,9.93,-0.03,-0.01,-0.00,31.71
3747189,1944,1,182691,216890,0.22,-0.68,9.96,-0.03,-0.01,-0.00,31.71
3787188,1943,1,182893,217446,0.21,-0.67,9.94,-0.03,-0.01,-0.01,31.71
3827189,1937,1,182971,217812,0.20,-0.64,10.02,-0.03,-0.01,-0.00,31.71
3867199,1942,1,183064,218044,0.22,-0.67,9.95,-0.03,-0.01,-0.01,31.71
3907189,1951,1,183074,218095,0.24,-0.65,9.95,-0.03,-0.01,-0.01,31.71
3947188,1947,1,183138,218489,0.23,-0.65,9.98,-0.03,-0.01,-0.01,31.71
3987189,1950,1,183212,218612,0.22,-0.64,9.96,-0.03,-0.01,-0.01,31.71
4027918,1938,1,183075,217330,0.20,-0.67,9.94,-0.03,-0.01,-0.00,31.49
4068199,1949,1,182435,215840,0.22,-0.65,9.97,-0.03,-0.01,-0.01,31.49
4108188,1941,1,182099,215327,0.24,-0.67,9.95,-0.03,-0.01,-0.00,31.49
4148188,1947,1,182039,215262,0.23,-0.67,9.96,-0.03,-0.01,-0.01,31.49
4188188,1949,1,182086,215293,0.20,-0.64,9.95,-0.03,-0.01,-0.01,31.49
4228189,1952,1,182068,215568,0.22,-0.65,9.98,-0.03,-0.01,-0.00,31.49
4268187,1943,1,182241,215912,0.22,-0.68,9.95,-0.03,-0.01,-0.01,31.49
4308189,1949,1,182387,216098,0.23,-0.66,9.96,-0.03,-0.01,-0.00,31.49
4348188,1951,1,182364,216000,0.23,-0.64,9.95,-0.03,-0.01,-0.01,31.49
4388189,1950,1,182256,215886,0.21,-0.64,9.93,-0.03,-0.01,-0.01,31.49
4428188,1957,1,182263,215966,0.22,-0.67,9.98,-0.03,-0.01,-0.00,31.49
4468189,1954,1,182253,216223,0.23,-0.66,9.97,-0.03,-0.01,-0.01,31.49
4508188,1936,1,182362,216661,0.22,-0.67,9.97,-0.03,-0.01,-0.01,31.49
4548189,1949,1,182539,217083,0.21,-0.66,9.97,-0.03,-0.01,-0.01,31.49
4588188,1942,1,182601,217471,0.23,-0.64,9.94,-0.03,-0.01,-0.01,31.49
4628189,1947,1,182922,218654,0.20,-0.64,9.98,-0.03,-0.01,-0.01,31.49
4668188,1947,1,183279,219336,0.22,-0.66,9.96,-0.03,-0.01,-0.01,31.49
4708189,1945,1,183210,218065,0.22,-0.66,9.97,-0.03,-0.01,-0.00,31.49
4748188,1943,1,182740,217052,0.20,-0.65,9.96,-0.04,-0.01,-0.01,31.49
4788188,1947,1,182584,216863,0.22,-0.63,9.97,-0.03,-0.01,-0.00,31.49
4828188,1951,1,182573,217108,0.24,-0.67,9.98,-0.03,-0.01,-0.01,31.49
4868189,1953,1,182832,217562,0.24,-0.66,9.99,-0.03,-0.01,-0.01,31.49
4908188,1956,1,182979,218127,0.23,-0.64,9.95,-0.03,-0.01,-0.01,31.49
4948189,1950,1,183190,218715,0.21,-0.65,9.96,-0.03,-0.01,-0.01,31.49
4988188,1945,1,183349,218950,0.21,-0.66,9.96,-0.03,-0.01,-0.00,31.49
5028874,1953,1,183436,219076,0.23,-0.66,9.96,-0.03,-0.01,-0.01,31.39
5067188,1947,1,183500,219201,0.24,-0.66,9.96,-0.03,-0.01,-0.00,31.39
5107189,1947,1,183513,219594,0.21,-0.66,9.96,-0.03,-0.01,-0.01,31.39
5147188,1950,1,183639,219808,0.21,-0.64,9.94,-0.03,-0.01,-0.00,31.39
5187188,1957,1,183704,219949,0.24,-0.67,9.96,-0.03,-0.01,-0.00,31.39
5227188,1953,1,183743,219899,0.25,-0.67,9.96,-0.03,-0.01,-0.01,31.39
5267189,1954,1,183749,220102,0.22,-0.65,9.96,-0.03,-0.01,-0.01,31.39
5307246,1948,1,183906,220670,0.21,-0.64,9.95,-0.03,-0.01,-0.01,31.39
5347189,1937,1,183985,220685,0.21,-0.64,9.96,-0.03,-0.01,-0.01,31.39
5387188,1939,1,183914,219816,0.22,-0.66,9.96,-0.03,-0.01,-0.00,31.39
5427189,1951,1,183365,218213,0.24,-0.67,9.94,-0.03,-0.01,-0.00,31.39
5467188,1948,1,182930,217628,0.22,-0.65,9.99,-0.03,-0.01,-0.01,31.39
5507189,1936,1,182921,217598,0.23,-0.62,9.99,-0.03,-0.01,-0.00,31.39
5547188,1949,1,182922,217511,0.21,-0.69,9.93,-0.03,-0.01,-0.00,31.39
5587189,1941,1,182890,217500,0.23,-0.66,9.95,-0.03,-0.01,-0.00,31.39
5627188,1948,1,182899,217299,0.21,-0.66,9.96,-0.03,-0.01,-0.00,31.39
5667189,1950,1,182759,216829,0.22,-0.65,9.98,-0.03,-0.02,-0.00,31.39
5707189,1938,1,182745,216666,0.23,-0.65,9.96,-0.03,-0.01,-0.01,31.39
5747189,1950,1,182702,216616,0.22,-0.65,9.96,-0.03,-0.02,-0.00,31.39
5787188,1946,1,182934,217621,0.24,-0.65,9.93,-0.04,-0.00,-0.01,31.39
5827189,1958,1,183301,218710,0.23,-0.66,9.96,-0.03,-0.01,-0.01,31.39
5867188,1950,1,183665,219580,0.23,-0.65,9.94,-0.04,-0.01,-0.01,31.39
5907189,1936,1,183856,220353,0.22,-0.65,9.95,-0.03,-0.01,-0.01,31.39
5947188,1970,1,184173,221540,0.22,-0.65,9.96,-0.04,0.00,-0.01,31.39
5987173,1950,1,184457,222025,0.21,-0.68,10.00,-0.03,-0.02,-0.00,31.39
6027194,1948,1,184642,222901,0.25,-0.67,9.94,-0.03,-0.02,-0.00,31.39
6067874,1953,1,184957,223094,0.23,-0.66,9.96,-0.03,-0.02,-0.00,31.33
6106188,2000,1,184569,220662,0.24,-0.64,9.96,-0.03,-0.02,-0.01,31.33
6146189,1997,1,183919,219594,0.25,-0.68,9.97,-0.03,-0.02,-0.00,31.33
6186188,2005,1,183879,219843,0.24,-0.64,9.93,-0.03,-0.01,-0.00,31.33
6226188,2018,1,184068,220516,0.23,-0.64,9.98,-0.04,-0.00,-0.01,31.33
6266188,2029,1,184280,221202,0.21,-0.64,9.96,-0.04,-0.01,-0.01,31.33
6306189,2037,1,184497,222283,0.24,-0.65,10.00,-0.04,-0.01,-0.01,31.33
6346188,2055,1,184863,223387,0.24,-0.66,9.94,-0.03,-0.01,-0.01,31.33
6386189,2073,1,185014,223260,0.23,-0.68,9.97,-0.04,-0.01,-0.01,31.33
6426188,2070,1,184873,222844,0.24,-0.65,9.99,-0.03,-0.02,-0.00,31.33
6466189,2089,1,184773,222547,0.22,-0.65,9.99,-0.03,-0.01,-0.01,31.33
6506188,2091,1,184765,222727,0.23,-0.66,9.95,-0.03,-0.02,-0.00,31.33
6546189,2101,1,184811,222452,0.23,-0.68,9.98,-0.03,-0.01,-0.01,31.33
6586188,2099,1,184667,221573,0.24,-0.68,10.00,-0.03,-0.03,-0.00,31.33
6626189,2096,1,184522,221614,0.24,-0.64,9.94,-0.03,-0.01,-0.00,31.33
6666188,2085,1,184625,221915,0.23,-0.64,9.97,-0.03,-0.01,-0.01,31.33
6706189,2091,1,184807,222918,0.26,-0.66,9.94,-0.03,-0.01,-0.01,31.33
6746188,2084,1,185269,223933,0.23,-0.67,9.95,-0.04,0.01,-0.01,31.33
6786173,2063,1,184860,221927,0.25,-0.67,9.99,-0.04,-0.01,-0.01,31.33
6826188,2038,1,184302,221390,0.27,-0.66,9.94,-0.03,-0.01,-0.01,31.33
6866189,2030,1,184246,221703,0.24,-0.65,9.96,-0.04,-0.00,-0.01,31.33
6906188,2015,1,184257,221906,0.21,-0.66,10.01,-0.04,-0.01,-0.01,31.33
6946189,2007,1,184222,221883,0.23,-0.66,9.97,-0.03,-0.02,-0.01,31.33
6986188,1991,1,184313,222466,0.24,-0.71,9.99,-0.03,-0.01,-0.01,31.33
7026200,1971,1,184388,222049,0.23,-0.65,10.00,-0.03,-0.01,-0.00,31.33
7066188,1968,1,184096,220906,0.22,-0.64,9.98,-0.03,-0.02,-0.00,31.33
7106874,1926,1,183838,220572,0.23,-0.64,9.92,-0.03,-0.01,-0.00,31.35
7147188,1915,1,183819,220919,0.25,-0.67,9.97,-0.03,-0.01,-0.00,31.35
7187189,1910,1,184077,221964,0.25,-0.67,9.96,-0.03,-0.00,-0.01,31.35
7227188,1904,1,184337,222545,0.21,-0.66,9.96,-0.03,-0.01,-0.00,31.35
7267189,1893,1,184537,222930,0.23,-0.65,9.95,-0.04,-0.00,-0.01,31.35
7307188,1888,1,184323,221567,0.22,-0.69,10.00,-0.03,-0.02,-0.00,31.35
7347240,1874,1,183908,220282,0.26,-0.67,9.94,-0.03,-0.02,-0.00,31.35
7387188,1872,1,183642,219840,0.24,-0.65,9.92,-0.03,-0.01,-0.00,31.35
7427189,1873,1,183435,218669,0.24,-0.64,9.97,-0.04,-0.01,-0.01,31.35
7467188,1871,1,182941,217488,0.22,-0.66,9.97,-0.04,-0.01,-0.01,31.35
7507189,1868,1,182748,217535,0.26,-0.67,9.92,-0.03,-0.01,-0.01,31.35
7547188,1876,1,182810,217977,0.26,-0.67,9.97,-0.04,0.00,-0.01,31.35
7587173,1873,1,182802,218119,0.23,-0.65,9.98,-0.04,-0.00,-0.01,31.35
7627188,1875,1,182883,218520,0.19,-0.68,9.97,-0.03,-0.02,-0.00,31.35
7667189,1882,1,183144,219228,0.23,-0.66,9.94,-0.03,-0.02,-0.00,31.35
7707188,1875,1,183415,219770,0.26,-0.67,9.94,-0.03,-0.01,-0.01,31.35
7747189,1893,1,183545,220284,0.25,-0.66,10.00,-0.04,-0.00,-0.01,31.35
7786188,1904,1,183599,220604,0.23,-0.65,9.97,-0.04,-0.01,-0.01,31.35
7826189,1916,1,183643,220745,0.24,-0.62,9.96,-0.03,-0.00,-0.01,31.35
7866188,1920,1,183434,220715,0.23,-0.66,9.93,-0.03,0.00,-0.01,31.35
7906173,1909,1,183334,220617,0.23,-0.68,9.96,-0.03,-0.01,-0.01,31.35
7946188,1918,1,183288,220647,0.22,-0.66,9.95,-0.03,-0.01,-0.00,31.35
7986189,1927,1,183258,220613,0.23,-0.65,9.95,-0.03,-0.01,-0.01,31.35
8026198,1922,1,183119,220192,0.21,-0.67,9.98,-0.03,-0.01,-0.00,31.35
8066188,1936,1,182990,219710,0.23,-0.66,9.95,-0.03,-0.01,-0.00,31.35
8106874,1920,1,182828,218322,0.25,-0.65,9.96,-0.03,-0.01,-0.01,31.21
8147189,1926,1,182201,216872,0.21,-0.64,9.97,-0.03,-0.01,-0.01,31.21
8187188,1927,1,181797,216167,0.21,-0.65,9.98,-0.03,-0.01,-0.00,31.21
8227189,1935,1,181755,216103,0.22,-0.66,9.95,-0.03,-0.01,-0.00,31.21
8267188,1937,1,181805,216337,0.23,-0.65,9.96,-0.03,-0.01,-0.00,31.21
8307189,1941,1,181837,216735,0.22,-0.68,9.96,-0.03,-0.01,-0.01,31.21
8347188,1940,1,182117,217478,0.22,-0.66,9.95,-0.03,-0.01,-0.01,31.21
8387189,1942,1,182257,217723,0.22,-0.65,9.98,-0.04,-0.01,-0.00,31.21
8427188,1954,1,182358,218053,0.21,-0.64,9.97,-0.03,-0.01,-0.01,31.21
8467189,1949,1,182597,218979,0.23,-0.66,9.94,-0.03,-0.01,-0.01,31.21
8507188,1954,1,182835,219458,0.23,-0.67,9.99,-0.03,-0.01,-0.01,31.21
8547189,1955,1,182942,219528,0.22,-0.66,9.97,-0.03,-0.01,-0.01,31.21
8587188,1937,1,182908,219254,0.21,-0.65,9.94,-0.03,-0.01,-0.00,31.21
8627189,1942,1,182717,218869,0.21,-0.64,9.96,-0.03,-0.02,-0.00,31.21
8667189,1939,1,182756,219384,0.24,-0.65,9.96,-0.03,-0.01,-0.00,31.21
8707189,1947,1,183126,220079,0.23,-0.66,9.93,-0.03,-0.01,-0.01,31.21
8747188,1946,1,183140,219819,0.22,-0.65,9.94,-0.03,-0.01,-0.01,31.21
8786210,1962,1,182850,218459,0.22,-0.63,9.94,-0.03,-0.01,-0.00,31.21
8826188,1962,1,182472,217973,0.22,-0.65,9.96,-0.04,-0.01,-0.01,31.21
8866189,1956,1,182281,217683,0.23,-0.65,9.99,-0.03,-0.01,-0.00,31.21
8906189,1957,1,182280,218031,0.23,-0.68,9.95,-0.03,-0.01,-0.01,31.21
8946189,1953,1,182397,218666,0.22,-0.65,9.96,-0.04,-0.01,-0.01,31.21
8986197,1946,1,182699,219637,0.22,-0.63,9.95,-0.03,-0.01,-0.01,31.21
9026211,1949,1,182920,220087,0.22,-0.67,10.00,-0.03,-0.01,-0.00,31.21
9066189,1945,1,182969,219601,0.23,-0.68,9.97,-0.03,-0.01,-0.00,31.21
9106874,1933,1,182699,218884,0.23,-0.66,9.96,-0.03,-0.01,-0.01,31.13
9147188,1936,1,182389,218197,0.21,-0.63,9.96,-0.04,-0.01,-0.00,31.13
9187210,1936,1,182170,217219,0.21,-0.64,9.96,-0.03,-0.02,-0.00,31.13
9227188,1933,1,181751,216214,0.23,-0.65,9.99,-0.03,-0.01,-0.00,31.13
9267188,1943,1,181779,216925,0.24,-0.67,9.93,-0.04,0.00,-0.01,31.13
9307173,1936,1,182083,217614,0.20,-0.67,10.02,-0.04,-0.00,-0.01,31.13
9347188,1935,1,182378,218114,0.20,-0.66,9.94,-0.03,-0.02,-0.01,31.13
9387188,1943,1,182536,217802,0.23,-0.65,9.96,-0.03,-0.02,-0.00,31.13
9427188,1943,1,182160,215412,0.23,-0.66,9.96,-0.03,-0.02,-0.00,31.13
9467188,1937,1,181066,211884,0.25,-0.67,9.95,-0.03,-0.02,-0.00,31.13
9507189,1939,1,180125,210248,0.26,-0.66,9.93,-0.03,-0.01,-0.00,31.13
9547188,1942,1,180160,211059,0.23,-0.64,9.96,-0.04,0.00,-0.01,31.13
9587173,1938,1,180650,212569,0.21,-0.66,10.01,-0.04,0.00,-0.01,31.13
9627173,1945,1,181217,214239,0.22,-0.67,9.97,-0.03,-0.01,-0.00,31.13
9667188,1940,1,181693,215627,0.24,-0.66,9.91,-0.03,-0.01,-0.01,31.13
9707188,1943,1,181903,216489,0.21,-0.66,9.96,-0.04,0.00,-0.01,31.13
9747173,1949,1,181995,216530,0.23,-0.64,9.98,-0.03,-0.01,-0.01,31.13
9787188,1941,1,182050,216829,0.24,-0.64,9.98,-0.03,-0.02,-0.00,31.13
9826189,1949,1,182335,217927,0.19,-0.65,10.00,-0.03,-0.02,-0.00,31.13
9866187,1943,1,182756,219401,0.23,-0.68,9.93,-0.04,-0.02,-0.01,31.13
9906189,1955,1,183459,222054,0.23,-0.67,9.95,-0.04,-0.02,-0.01,31.13
9946188,1943,1,184561,225014,0.24,-0.64,9.95,-0.04,-0.01,-0.01,31.13
9986189,1951,1,185169,226364,0.19,-0.65,9.98,-0.04,-0.01,-0.00,31.13
10026198,1951,1,185362,225946,0.22,-0.69,10.00,-0.03,-0.01,-0.01,31.13
10066189,1947,1,184470,221297,0.24,-0.66,9.91,-0.03,-0.01,-0.00,31.13
10106874,1936,1,183308,219740,0.25,-0.67,9.92,-0.03,-0.01,-0.01,31.25
10147190,1939,1,183125,219499,0.17,-0.66,9.99,-0.03,-0.00,-0.01,31.25
10187188,1938,1,182919,219106,0.26,-0.68,9.96,-0.03,-0.01,-0.00,31.25
10227189,1951,1,182661,218682,0.23,-0.68,9.98,-0.03,-0.02,-0.00,31.25
10267188,1941,1,182644,218873,0.24,-0.67,9.98,-0.03,-0.01,-0.01,31.25
10307190,1946,1,182785,219309,0.23,-0.68,9.96,-0.03,-0.01,-0.01,31.25
10347188,1947,1,182745,219620,0.23,-0.65,9.96,-0.03,-0.01,-0.00,31.25
10387189,1947,1,182842,219743,0.22,-0.67,9.99,-0.04,-0.01,-0.00,31.25
10427188,1952,1,182798,219840,0.21,-0.66,9.96,-0.03,-0.01,-0.00,31.25
10467189,1937,1,182825,219778,0.23,-0.65,9.96,-0.03,-0.01,-0.00,31.25
10507188,1941,1,182827,219512,0.22,-0.66,9.96,-0.03,-0.01,-0.00,31.25
10547189,1957,1,182541,218618,0.22,-0.65,9.98,-0.03,-0.01,-0.00,31.25
10587189,1943,1,182125,217246,0.22,-0.68,9.97,-0.02,-0.02,-0.00,31.25
10627192,1949,1,181818,216634,0.26,-0.67,9.92,-0.03,-0.02,-0.00,31.25
10667189,1947,1,181995,216511,0.20,-0.66,9.95,-0.04,-0.01,-0.01,31.25
10707189,1943,1,181657,215694,0.22,-0.63,9.95,-0.04,-0.00,-0.01,31.25
10747188,1939,1,181504,215379,0.22,-0.67,9.97,-0.04,-0.01,-0.01,31.25
10787190,1945,1,181483,215775,0.22,-0.65,9.96,-0.04,-0.01,-0.01,31.25
10827188,1952,1,181657,216175,0.24,-0.67,9.95,-0.04,-0.02,-0.00,31.25
10867189,1949,1,181955,217159,0.24,-0.66,9.99,-0.04,-0.01,-0.00,31.25
10907188,1943,1,182501,218519,0.24,-0.64,9.96,-0.04,-0.02,-0.00,31.25
10947189,1941,1,182986,219157,0.24,-0.66,9.97,-0.03,-0.02,-0.00,31.25
10987188,1945,1,183059,219420,0.24,-0.66,9.95,-0.03,-0.01,-0.00,31.25
11027197,1947,1,183125,219729,0.23,-0.68,9.96,-0.03,-0.01,-0.01,31.25
11067189,1955,1,183245,220090,0.24,-0.65,9.97,-0.04,-0.01,-0.01,31.25
11107875,1951,1,183280,220328,0.23,-0.62,9.99,-0.03,-0.01,-0.00,31.49
11146188,1954,1,183416,220414,0.23,-0.67,9.99,-0.03,-0.01,-0.00,31.49
11186189,1952,1,183370,220396,0.24,-0.68,9.95,-0.03,-0.01,-0.01,31.49
11226188,1947,1,183385,220682,0.24,-0.67,9.97,-0.03,-0.01,-0.01,31.49
11266189,1941,1,183404,220687,0.23,-0.66,9.96,-0.03,-0.01,-0.01,31.49
11306189,1936,1,183318,219788,0.23,-0.65,9.97,-0.03,-0.01,-0.00,31.49
11346189,1939,1,182766,218416,0.26,-0.67,9.96,-0.03,-0.02,-0.00,31.49
11386188,1943,1,182705,218389,0.24,-0.66,10.01,-0.03,-0.01,-0.01,31.49
11426190,1942,1,182790,218566,0.17,-0.62,9.91,-0.03,-0.00,-0.00,31.49
11466188,1949,1,182737,218489,0.33,-0.72,9.98,-0.03,-0.02,-0.00,31.49
11506189,1941,1,182737,218597,0.24,-0.62,9.90,-0.03,-0.01,-0.01,31.49
11546188,1946,1,182939,219111,0.21,-0.65,9.95,-0.04,-0.01,-0.01,31.49
11586189,1938,1,183042,219552,0.19,-0.64,9.99,-0.04,-0.00,-0.01,31.49
11626188,1946,1,183094,219522,0.28,-0.66,10.01,-0.03,-0.02,-0.00,31.49
11666189,1947,1,183089,219759,0.24,-0.66,9.92,-0.03,-0.01,-0.01,31.49
11706189,1959,1,183180,220189,0.23,-0.65,9.95,-0.04,-0.00,-0.01,31.49
11746189,1957,1,183311,220714,0.22,-0.66,9.98,-0.04,-0.00,-0.01,31.49
11786188,1942,1,183481,220836,0.25,-0.67,9.97,-0.03,-0.01,-0.01,31.49
11826190,1953,1,183414,221072,0.24,-0.68,9.94,-0.03,-0.01,-0.01,31.49
11866188,1952,1,183586,221331,0.24,-0.64,9.94,-0.04,-0.01,-0.00,31.49
11906189,1954,1,183674,221763,0.27,-0.67,10.00,-0.04,-0.01,-0.01,31.49
11946188,1946,1,183808,222170,0.13,-0.62,9.96,-0.03,-0.00,-0.01,31.49
11986189,1942,1,183617,221286,0.29,-0.71,9.96,-0.03,-0.01,-0.00,31.49
12026199,1950,1,183399,220714,0.28,-0.67,9.95,-0.03,-0.01,-0.00,31.49
12066189,1940,1,183240,220813,0.23,-0.63,9.88,-0.04,-0.01,-0.01,31.49
12106189,1947,1,183271,221110,0.25,-0.67,10.02,-0.03,-0.01,-0.01,31.49
12146875,1936,1,183435,221536,0.12,-0.60,10.08,-0.03,-0.01,-0.01,31.29
12187188,1938,1,183494,221507,0.23,-0.70,9.97,-0.03,-0.01,-0.00,31.29
12227188,1938,1,183423,221276,0.32,-0.72,9.84,-0.03,-0.02,-0.00,31.29
12267233,1944,1,183309,221191,0.26,-0.64,9.96,-0.03,-0.02,-0.01,31.29
12307189,1945,1,183358,221711,0.18,-0.61,9.96,-0.03,-0.01,-0.01,31.29
12347188,1946,1,183560,221691,0.22,-0.68,10.01,-0.03,-0.01,-0.00,31.29
12387189,1941,1,183468,221536,0.26,-0.68,9.98,-0.03,-0.01,-0.00,31.29
12427189,1942,1,183435,221537,0.25,-0.66,9.91,-0.03,-0.01,-0.01,31.29
12467242,1936,1,183416,221973,0.24,-0.64,9.96,-0.03,-0.01,-0.01,31.29
12507188,1943,1,183632,222144,0.20,-0.64,9.96,-0.03,-0.01,-0.01,31.29
12547189,1937,1,183655,222086,0.24,-0.69,9.97,-0.03,-0.01,-0.01,31.29
12587188,1943,1,183529,222046,0.28,-0.67,9.91,-0.03,-0.01,-0.01,31.29
12627189,1951,1,183606,222271,0.25,-0.65,10.01,-0.03,-0.01,-0.01,31.29
12667188,1953,1,183604,222033,0.20,-0.62,9.97,-0.03,-0.01,-0.01,31.29
12707189,1951,1,183454,221621,0.25,-0.68,9.99,-0.03,-0.01,-0.00,31.29
12747188,1951,1,183275,221693,0.24,-0.67,9.93,-0.03,-0.01,-0.00,31.29
12787189,1947,1,183420,221708,0.24,-0.67,9.95,-0.04,-0.01,-0.01,31.29
12827189,1955,1,183363,221662,0.23,-0.66,9.98,-0.03,-0.01,-0.01,31.29
12867190,1952,1,183393,221761,0.21,-0.66,9.97,-0.03,-0.01,-0.01,31.29
12907188,1957,1,183480,221878,0.24,-0.66,10.00,-0.03,-0.02,-0.00,31.29
12947189,1954,1,183541,221790,0.25,-0.68,9.96,-0.03,-0.01,-0.00,31.29
12987188,1956,1,183429,221746,0.29,-0.68,9.97,-0.03,-0.01,-0.01,31.29
13027197,1955,1,183485,221746,0.23,-0.66,9.95,-0.03,-0.01,-0.01,31.29
13067188,1950,1,183360,221731,0.23,-0.64,9.98,-0.03,-0.01,-0.00,31.29
13107189,1952,1,183357,221773,0.26,-0.67,9.95,-0.03,-0.01,-0.01,31.29
13147874,1946,1,183481,221920,0.25,-0.65,9.95,-0.03,-0.01,-0.01,31.13
13186189,1936,1,183558,222090,0.25,-0.68,9.97,-0.04,-0.01,-0.01,31.13
13226188,1951,1,183626,222362,0.23,-0.66,9.96,-0.03,-0.01,-0.01,31.13
13266190,1946,1,183661,222612,0.24,-0.65,9.96,-0.03,-0.01,-0.01,31.13
13306189,1950,1,183756,222839,0.18,-0.64,9.94,-0.04,-0.01,-0.00,31.13
13346189,1949,1,183882,222780,0.28,-0.72,9.96,-0.03,-0.01,-0.00,31.13
13386188,1943,1,183690,222251,0.28,-0.64,9.97,-0.03,-0.01,-0.01,31.13
13426189,1951,1,183567,222166,0.21,-0.63,9.93,-0.03,-0.00,-0.01,31.13
13466188,1947,1,183560,222315,0.23,-0.67,9.98,-0.03,-0.00,-0.00,31.13
13506189,1947,1,183486,222249,0.24,-0.67,9.96,-0.03,-0.01,-0.01,31.13
13546188,1949,1,183562,222182,0.28,-0.68,9.91,-0.03,-0.02,-0.00,31.13
13586189,1941,1,183441,222213,0.30,-0.64,10.00,-0.03,-0.02,-0.01,31.13
13626188,1939,1,183561,222539,0.17,-0.61,9.98,-0.03,0.00,-0.01,31.13
13666173,1946,1,183644,222419,0.22,-0.68,9.98,-0.03,-0.01,-0.00,31.13
13706188,1937,1,183410,222219,0.25,-0.65,9.95,-0.03,-0.02,-0.01,31.13
13746189,1947,1,183565,222291,0.26,-0.67,9.97,-0.03,-0.01,-0.00,31.13
13786188,1946,1,183680,222630,0.23,-0.66,9.95,-0.04,-0.01,-0.01,31.13
13826189,1938,1,183631,222611,0.22,-0.66,9.99,-0.03,-0.01,-0.01,31.13
13866188,1936,1,183687,222776,0.24,-0.66,10.01,-0.03,-0.01,-0.01,31.13
13906224,1936,1,183666,222850,0.23,-0.68,9.94,-0.03,-0.00,-0.01,31.13
13946188,1953,1,183763,223082,0.24,-0.67,9.98,-0.03,-0.01,-0.00,31.13
13986189,1946,1,183729,223081,0.24,-0.65,9.93,-0.03,-0.01,-0.00,31.13
14026198,1947,1,183774,223177,0.22,-0.64,9.99,-0.03,-0.01,-0.00,31.13
14066189,1952,1,183835,223156,0.23,-0.67,9.97,-0.03,-0.01,-0.00,31.13
14106194,1948,1,183807,222961,0.24,-0.66,9.95,-0.03,-0.01,-0.01,31.13
14146190,1940,1,183660,222827,0.26,-0.67,9.94,-0.03,-0.01,-0.00,31.13
14186874,1947,1,183843,222992,0.28,-0.68,9.93,-0.03,-0.01,-0.00,30.91
14225189,1983,1,183876,223256,0.21,-0.62,10.02,-0.03,-0.01,-0.01,30.91
14265188,1986,1,183866,223172,0.22,-0.67,9.98,-0.03,-0.01,-0.00,30.91
14305189,1982,1,183820,223006,0.28,-0.68,9.94,-0.03,-0.02,-0.00,30.91
14345188,1982,1,183813,222807,0.27,-0.68,9.95,-0.03,-0.02,-0.00,30.91
14385189,1979,1,183671,222497,0.28,-0.62,9.96,-0.03,-0.01,-0.00,30.91
14425188,1981,1,183523,222180,0.23,-0.68,10.03,-0.03,0.01,-0.01,30.91
14465173,1969,1,183193,221641,0.18,-0.69,9.96,-0.03,-0.02,-0.00,30.91
14505188,1979,1,183359,221886,0.28,-0.67,9.89,-0.03,-0.02,-0.00,30.91
14545189,1981,1,183601,222430,0.27,-0.67,9.96,-0.04,-0.01,-0.00,30.91
14585188,1970,1,183672,222651,0.29,-0.64,9.94,-0.04,-0.01,-0.01,30.91
14625190,1965,1,183750,222764,0.22,-0.65,10.01,-0.03,-0.00,-0.01,30.91
14665188,1969,1,183599,222814,0.20,-0.69,10.00,-0.03,-0.01,-0.01,30.91
14705188,1968,1,183818,223183,0.25,-0.67,9.91,-0.03,-0.01,-0.01,30.91
14745188,1967,1,183848,223086,0.29,-0.64,9.93,-0.03,-0.03,-0.00,30.91
14785189,1957,1,184005,223111,0.29,-0.65,9.96,-0.03,-0.04,-0.00,30.91
14825188,1968,1,184037,223615,0.26,-0.66,9.98,-0.04,-0.00,-0.01,30.91
14865189,1957,1,184385,224635,0.16,-0.64,9.95,-0.04,0.01,-0.01,30.91
14905168,1965,1,184635,225202,0.26,-0.69,9.90,-0.04,-0.03,-0.00,30.91
14945189,1962,1,184667,224945,0.37,-0.70,10.00,-0.04,-0.01,-0.01,30.91
14985188,1968,1,184541,225018,0.23,-0.60,10.01,-0.03,0.00,-0.01,30.91
15025198,1967,1,184497,225191,0.21,-0.68,9.97,-0.04,0.01,-0.01,30.91
15065173,1968,1,184378,225022,0.24,-0.69,9.87,-0.03,-0.02,-0.00,30.91
15105189,1968,1,184524,225662,0.30,-0.68,9.88,-0.04,-0.01,-0.01,30.91
15145188,1956,1,184545,226392,0.23,-0.66,10.02,-0.05,0.03,-0.01,30.91
15185173,1955,1,184787,226481,0.15,-0.68,10.06,-0.04,-0.00,-0.01,30.91
15225874,1935,1,184471,225922,0.23,-0.65,10.00,-0.02,-0.03,-0.00,31.05
15266188,1942,1,184317,225541,0.27,-0.70,9.91,-0.03,-0.01,-0.00,31.05
15306188,1941,1,184070,224886,0.25,-0.71,9.99,-0.03,-0.03,-0.00,31.05
15346189,1943,1,183987,224246,0.17,-0.60,9.95,-0.02,-0.06,0.01,31.05
15386168,1948,1,184222,223729,0.20,-0.60,10.01,-0.01,-0.09,0.04,31.05
15426173,1949,1,184936,223505,0.25,-0.60,9.95,-0.03,-0.03,0.10,31.05
15466168,1936,1,185460,223148,0.44,-0.72,9.96,-0.03,-0.00,0.04,31.05
15506173,1926,1,185838,223204,0.33,-0.67,9.91,-0.03,0.00,-0.01,31.05
15546214,1937,1,186574,224705,0.30,-0.64,9.88,-0.03,-0.01,-0.01,31.05
15586189,1941,1,187326,225975,0.29,-0.63,9.99,-0.04,-0.01,-0.01,31.05
15626188,1940,1,187456,226405,0.26,-0.65,9.94,-0.04,0.02,-0.01,31.05
15666173,1943,1,187069,226366,0.28,-0.66,9.97,-0.04,0.03,-0.01,31.05
15706168,1941,1,186598,226080,0.24,-0.64,9.98,-0.04,-0.00,-0.01,31.05
15746217,1942,1,186281,225994,0.24,-0.62,9.94,-0.04,-0.01,-0.01,31.05
15786188,1947,1,186145,226104,0.23,-0.66,9.97,-0.04,-0.01,-0.01,31.05
15826189,1942,1,185967,226172,0.23,-0.65,9.98,-0.03,-0.02,-0.00,31.05
15866188,1942,1,186002,226347,0.25,-0.67,9.99,-0.03,-0.02,-0.01,31.05
15906189,1935,1,186004,226592,0.30,-0.67,9.96,-0.04,-0.01,-0.01,31.05
15946215,1925,1,186023,226851,0.28,-0.64,9.95,-0.04,-0.00,-0.01,31.05
15986189,1937,1,185984,226837,0.23,-0.63,9.99,-0.04,-0.00,-0.01,31.05
16026199,1938,1,185723,226494,0.20,-0.65,9.97,-0.04,-0.02,-0.01,31.05
16066188,1939,1,185397,226430,0.26,-0.69,9.93,-0.04,-0.01,-0.01,31.05
16106188,1939,1,185220,226643,0.28,-0.67,9.94,-0.04,0.01,-0.01,31.05
16146173,1938,1,185149,227084,0.26,-0.68,9.95,-0.04,0.00,-0.01,31.05
16186173,1937,1,185309,228479,0.21,-0.66,9.97,-0.03,-0.01,-0.01,31.05
16226874,1932,1,185730,229476,0.26,-0.68,9.96,-0.03,-0.01,-0.01,31.29
16265188,1945,1,185625,228846,0.21,-0.67,9.96,-0.03,-0.01,-0.01,31.29
16305190,1945,1,185346,228141,0.25,-0.68,9.94,-0.03,-0.00,-0.01,31.29
16345188,1941,1,185051,227839,0.24,-0.66,9.95,-0.04,0.00,-0.01,31.29
16385173,1940,1,184890,227741,0.24,-0.70,9.99,-0.03,0.01,-0.02,31.29
16425173,1943,1,184741,227220,0.17,-0.68,10.00,-0.03,0.01,-0.02,31.29
16465173,1953,1,184452,226308,0.21,-0.67,9.99,-0.03,-0.02,-0.01,31.29
16505188,1949,1,184247,226231,0.25,-0.67,9.92,-0.03,-0.02,-0.00,31.29
16545189,1950,1,184306,226228,0.21,-0.67,9.95,-0.04,-0.01,-0.01,31.29
16585188,1947,1,184005,225957,0.21,-0.64,9.95,-0.04,-0.02,-0.00,31.29
16625189,1939,1,183984,226067,0.23,-0.66,9.99,-0.04,-0.01,-0.01,31.29
16665188,1936,1,183952,226007,0.24,-0.68,9.97,-0.03,-0.02,-0.01,31.29
16705189,1948,1,183829,225678,0.24,-0.68,9.94,-0.03,-0.02,-0.00,31.29
16745188,1953,1,183689,225365,0.21,-0.67,9.94,-0.03,-0.02,-0.00,31.29
16785189,1943,1,183666,225172,0.23,-0.67,9.99,-0.03,-0.02,-0.00,31.29
16825188,1953,1,183660,225010,0.22,-0.65,9.98,-0.03,-0.02,-0.00,31.29
16865189,1939,1,183768,225144,0.27,-0.66,9.93,-0.03,-0.03,-0.00,31.29
16905188,1945,1,183853,225096,0.26,-0.67,9.97,-0.03,-0.02,-0.00,31.29
16945189,1953,1,183863,224954,0.26,-0.64,9.98,-0.03,-0.02,-0.00,31.29
16985188,1937,1,183932,224802,0.27,-0.65,9.94,-0.03,-0.04,0.00,31.29
17025198,1947,1,183948,224709,0.27,-0.65,9.92,-0.03,-0.02,-0.00,31.29
17065189,1952,1,184064,224873,0.28,-0.65,9.99,-0.03,-0.00,-0.01,31.29
17105189,1942,1,184115,225112,0.25,-0.67,9.97,-0.04,-0.00,-0.01,31.29
17145188,1946,1,184264,225395,0.26,-0.67,9.96,-0.04,-0.00,-0.00,31.29
17185189,1943,1,184312,225299,0.26,-0.66,9.94,-0.04,-0.01,-0.01,31.29
17225188,1947,1,184180,224952,0.27,-0.66,9.98,-0.04,-0.00,-0.01,31.29
17265875,1936,1,184038,224787,0.24,-0.65,10.01,-0.03,-0.01,-0.01,31.15
17306188,1942,1,183968,224795,0.24,-0.66,9.97,-0.03,-0.01,-0.01,31.15
17346189,1943,1,183948,224733,0.28,-0.68,9.96,-0.03,-0.01,-0.01,31.15
17386192,1936,1,183965,224891,0.24,-0.65,9.95,-0.03,-0.01,-0.00,31.15
17426189,1946,1,183980,225107,0.24,-0.66,9.94,-0.04,-0.01,-0.01,31.15
17466188,1936,1,184119,225428,0.22,-0.66,9.97,-0.04,-0.01,-0.01,31.15
17506189,1949,1,184420,226160,0.26,-0.70,9.94,-0.04,-0.03,-0.00,31.15
17546188,1947,1,184794,226902,0.23,-0.66,9.97,-0.04,-0.01,-0.01,31.15
17586202,1934,1,185001,226979,0.25,-0.66,9.99,-0.03,-0.02,-0.00,31.15
17626188,1941,1,185067,226947,0.26,-0.68,9.95,-0.03,-0.02,-0.00,31.15
17666189,1942,1,184953,226684,0.25,-0.67,9.95,-0.03,-0.02,-0.00,31.15
17706188,1933,1,184920,226510,0.26,-0.69,9.94,-0.03,-0.01,-0.00,31.15
17746189,1936,1,184794,226333,0.26,-0.66,9.97,-0.03,-0.01,-0.01,31.15
17786188,1939,1,184649,226238,0.27,-0.68,9.96,-0.03,-0.01,-0.00,31.15
17825189,1949,1,184514,226081,0.26,-0.65,9.97,-0.04,-0.00,-0.01,31.15
17865188,1931,1,184441,226095,0.24,-0.69,9.96,-0.04,-0.00,-0.00,31.15
17905189,1931,1,184404,225960,0.27,-0.67,9.97,-0.03,-0.01,-0.01,31.15
17945188,1938,1,184312,225619,0.25,-0.67,9.96,-0.03,-0.01,-0.00,31.15
17985189,1946,1,184105,224910,0.25,-0.67,9.99,-0.03,-0.01,-0.00,31.15
18025213,1950,1,183917,224744,0.27,-0.69,9.96,-0.03,-0.01,-0.01,31.15
18065189,1941,1,183926,225061,0.27,-0.67,9.95,-0.04,0.00,-0.01,31.15
18105173,1936,1,184028,225378,0.22,-0.67,9.98,-0.03,-0.00,-0.01,31.15
18145189,1936,1,184006,225495,0.22,-0.67,9.93,-0.03,-0.01,-0.01,31.15
18185188,1948,1,184064,225807,0.25,-0.67,9.96,-0.03,-0.01,-0.01,31.15
18225189,1945,1,184134,225982,0.27,-0.66,9.94,-0.03,-0.01,-0.01,31.15
18265874,1935,1,184230,226326,0.23,-0.68,9.98,-0.04,-0.01,-0.01,30.97
18306189,1936,1,184446,226807,0.24,-0.65,9.96,-0.04,-0.01,-0.01,30.97
18346188,1933,1,184532,226727,0.24,-0.66,9.97,-0.03,-0.02,-0.01,30.97
18386190,1938,1,184405,226328,0.27,-0.66,9.94,-0.03,-0.02,-0.00,30.97
18426188,1938,1,184340,226246,0.25,-0.67,9.94,-0.03,-0.01,-0.01,30.97
18466189,1930,1,184358,226367,0.25,-0.66,9.95,-0.03,-0.00,-0.01,30.97
18506188,1937,1,184368,226304,0.22,-0.67,9.96,-0.03,-0.01,-0.00,30.97
18546189,1936,1,184361,226367,0.26,-0.68,9.96,-0.03,-0.01,-0.00,30.97
18586188,1931,1,184338,226761,0.27,-0.66,9.96,-0.04,-0.00,-0.01,30.97
18626190,1938,1,184379,227051,0.23,-0.67,9.96,-0.03,0.01,-0.01,30.97
18666173,1938,1,184350,226445,0.23,-0.68,9.96,-0.03,-0.02,-0.00,30.97
18706189,1936,1,184061,225634,0.25,-0.67,9.95,-0.03,-0.01,-0.01,30.97
18746188,1934,1,183837,225397,0.25,-0.68,9.96,-0.03,-0.01,-0.00,30.97
18786189,1941,1,183735,225233,0.24,-0.67,9.95,-0.03,-0.01,-0.00,30.97
18825188,1943,1,183644,224992,0.24,-0.67,9.96,-0.03,-0.01,-0.01,30.97
18865189,1947,1,183528,224863,0.26,-0.67,9.97,-0.03,-0.01,-0.00,30.97
18905188,1942,1,183443,224992,0.22,-0.68,9.98,-0.03,-0.01,-0.00,30.97
18945189,1936,1,183487,225071,0.26,-0.67,9.94,-0.03,-0.01,-0.00,30.97
18985188,1948,1,183521,225098,0.25,-0.64,9.97,-0.03,-0.01,-0.01,30.97
19025246,1943,1,183562,225213,0.23,-0.67,9.96,-0.03,-0.01,-0.00,30.97
19065188,1938,1,183614,225320,0.24,-0.69,9.96,-0.03,-0.01,-0.01,30.97
19105189,1944,1,183718,225486,0.25,-0.67,9.94,-0.03,-0.02,-0.00,30.97
19145188,1938,1,183741,225551,0.24,-0.69,9.96,-0.03,-0.01,-0.00,30.97
19185189,1939,1,183673,225679,0.24,-0.67,10.00,-0.03,-0.01,-0.01,30.97
19225226,1931,1,183684,225747,0.24,-0.67,9.93,-0.03,-0.01,-0.01,30.97
19265875,1939,1,183648,225682,0.26,-0.68,9.96,-0.03,-0.01,-0.00,30.93
19306188,1937,1,183600,225716,0.23,-0.66,9.96,-0.03,-0.01,-0.00,30.93
19346189,1943,1,183606,225659,0.23,-0.68,9.98,-0.03,-0.01,-0.01,30.93
19386188,1936,1,183589,225260,0.24,-0.67,9.97,-0.03,-0.01,-0.01,30.93
19426189,1941,1,183360,224781,0.24,-0.67,9.93,-0.03,-0.01,-0.01,30.93
19466188,1947,1,183325,224730,0.23,-0.68,9.94,-0.03,-0.01,-0.01,30.93
19506189,1939,1,183369,224931,0.25,-0.67,9.97,-0.03,-0.01,-0.01,30.93
19546188,1938,1,183437,224941,0.23,-0.70,9.94,-0.03,-0.01,-0.00,30.93
19586189,1941,1,183376,224701,0.25,-0.68,9.94,-0.03,-0.01,-0.00,30.93
19626188,1941,1,183301,224734,0.25,-0.68,9.92,-0.03,-0.01,-0.01,30.93
19666190,1937,1,183345,224897,0.24,-0.66,9.96,-0.03,-0.01,-0.00,30.93
19706188,1939,1,183340,224943,0.22,-0.68,9.94,-0.03,-0.01,-0.00,30.93
19746189,1947,1,183361,225094,0.24,-0.67,9.96,-0.03,-0.01,-0.00,30.93
19786188,1939,1,183361,225113,0.24,-0.68,9.96,-0.03,-0.01,-0.01,30.93
19826189,1941,1,183413,225317,0.23,-0.66,9.97,-0.03,-0.01,-0.01,30.93
19865188,1941,1,183464,225459,0.24,-0.66,9.97,-0.03,-0.01,-0.00,30.93
19905189,1931,1,183447,225489,0.22,-0.66,9.96,-0.03,-0.01,-0.00,30.93
19945188,1935,1,183496,225563,0.25,-0.67,9.95,-0.03,-0.01,-0.01,30.93
19985190,1942,1,183543,225698,0.26,-0.66,9.96,-0.03,-0.01,-0.00,30.93
20025213,1938,1,183563,225805,0.25,-0.65,9.96,-0.03,-0.01,-0.01,30.93
20065189,1945,1,183553,225699,0.24,-0.67,9.99,-0.03,-0.01,-0.01,30.93
20105188,1936,1,183480,225342,0.23,-0.68,9.95,-0.03,-0.01,-0.00,30.93
20145189,1933,1,183253,224663,0.23,-0.67,9.96,-0.03,-0.01,-0.01,30.93
20185188,1930,1,183064,224401,0.23,-0.66,9.96,-0.03,-0.01,-0.00,30.93
20225189,1943,1,183000,224318,0.25,-0.65,9.94,-0.03,-0.01,-0.00,30.93
20265188,1936,1,182960,224323,0.23,-0.67,9.95,-0.03,-0.01,-0.00,30.93
20305875,1941,1,182940,224327,0.22,-0.66,9.96,-0.03,-0.01,-0.00,30.99
20344188,1975,1,182995,224466,0.23,-0.68,9.94,-0.03,-0.01,-0.01,30.99
20384190,1968,1,182996,224567,0.25,-0.69,9.96,-0.04,-0.01,-0.00,30.99
20424188,1970,1,183032,224616,0.26,-0.66,9.95,-0.04,-0.01,-0.00,30.99
20464189,1967,1,183042,224663,0.25,-0.68,9.96,-0.03,-0.01,-0.00,30.99
20504188,1965,1,183060,224702,0.26,-0.66,9.97,-0.04,-0.01,-0.00,30.99
20544189,1974,1,183108,224853,0.24,-0.66,9.96,-0.03,-0.01,-0.01,30.99
20584188,1968,1,183116,224874,0.24,-0.67,9.98,-0.03,-0.01,-0.00,30.99
20624189,1969,1,183138,224857,0.24,-0.68,9.99,-0.03,-0.01,-0.00,30.99
20664234,1968,1,183106,224902,0.25,-0.66,9.95,-0.03,-0.01,-0.00,30.99
20704189,1973,1,183129,225076,0.26,-0.68,9.96,-0.03,-0.01,-0.01,30.99
20744188,1969,1,183216,225206,0.22,-0.68,9.96,-0.03,-0.01,-0.00,30.99
20784189,1969,1,183227,225085,0.23,-0.65,9.96,-0.03,-0.01,-0.00,30.99
20824188,1968,1,183190,224560,0.25,-0.68,9.95,-0.03,-0.01,-0.00,30.99
20864229,1957,1,182913,223816,0.25,-0.68,9.96,-0.03,-0.01,-0.01,30.99
20904188,1968,1,182692,223620,0.26,-0.68,9.97,-0.03,-0.01,-0.00,30.99
20944189,1950,1,182611,223428,0.23,-0.68,9.97,-0.03,-0.01,-0.00,30.99
20984188,1952,1,182590,223421,0.24,-0.67,9.96,-0.03,-0.01,-0.00,30.99
21024202,1965,1,182559,223424,0.24,-0.66,9.96,-0.03,-0.01,-0.01,30.99
21064188,1968,1,182556,223495,0.26,-0.66,9.95,-0.03,-0.01,-0.01,30.99
21104190,1959,1,182545,223474,0.24,-0.69,9.95,-0.03,-0.01,-0.01,30.99
21144188,1952,1,182559,223477,0.24,-0.67,9.98,-0.03,-0.01,-0.01,30.99
21184189,1954,1,182574,223521,0.23,-0.66,9.95,-0.03,-0.01,-0.00,30.99
21224188,1957,1,182561,223561,0.23,-0.66,9.99,-0.03,-0.01,-0.01,30.99
21264189,1963,1,182551,223498,0.23,-0.67,9.96,-0.03,-0.01,-0.01,30.99
21304188,1954,1,182581,223496,0.25,-0.67,9.98,-0.03,-0.01,-0.01,30.99
21344875,1949,1,182526,223415,0.22,-0.66,9.97,-0.03,-0.02,-0.00,30.45
21385188,1938,1,182481,223477,0.25,-0.68,9.94,-0.03,-0.01,-0.01,30.45
21425190,1942,1,182639,223802,0.23,-0.67,9.96,-0.03,-0.01,-0.01,30.45
21465188,1934,1,182716,224077,0.24,-0.67,9.96,-0.03,-0.01,-0.01,30.45
21505190,1941,1,182773,223944,0.25,-0.68,9.98,-0.03,-0.01,-0.01,30.45
21545188,1936,1,182656,223491,0.25,-0.66,9.97,-0.03,-0.01,-0.01,30.45
21585190,1930,1,182477,223385,0.26,-0.66,9.99,-0.03,-0.01,-0.01,30.45
21625188,1947,1,182465,223670,0.23,-0.67,9.96,-0.03,-0.00,-0.01,30.45
21665189,1945,1,182606,224103,0.23,-0.67,9.97,-0.03,-0.01,-0.00,30.45
21705188,1940,1,182703,224570,0.25,-0.68,9.94,-0.03,-0.01,-0.00,30.45
21745189,1943,1,182897,225214,0.23,-0.68,9.93,-0.03,-0.01,-0.00,30.45
21785189,1939,1,183084,226284,0.23,-0.67,9.95,-0.04,-0.01,-0.01,30.45
21825190,1935,1,183483,226778,0.23,-0.68,9.97,-0.04,-0.00,-0.01,30.45
21865188,1938,1,183359,226439,0.25,-0.67,9.94,-0.03,-0.01,-0.01,30.45
21905190,1936,1,183104,225712,0.24,-0.66,9.95,-0.03,-0.01,-0.00,30.45
21945188,1951,1,182852,225461,0.26,-0.68,9.93,-0.03,-0.02,-0.01,30.45
21985189,1943,1,182770,225296,0.25,-0.67,9.96,-0.03,-0.01,-0.00,30.45
22025213,1950,1,182719,225293,0.23,-0.65,9.96,-0.03,-0.01,-0.00,30.45
22065189,1938,1,182807,225656,0.23,-0.67,9.96,-0.04,-0.01,-0.00,30.45
22105189,1937,1,182919,225878,0.25,-0.67,9.95,-0.03,-0.01,-0.00,30.45
22145189,1948,1,183014,226075,0.26,-0.68,9.93,-0.04,-0.01,-0.00,30.45
22185188,1947,1,182999,225845,0.24,-0.67,9.96,-0.03,-0.01,-0.00,30.45
22225189,1939,1,182777,225184,0.22,-0.67,9.94,-0.03,-0.01,-0.00,30.45
22265188,1941,1,182596,225007,0.25,-0.68,9.98,-0.03,-0.01,-0.01,30.45
22305190,1940,1,182603,225025,0.24,-0.67,9.96,-0.03,-0.01,-0.01,30.45
22345874,1938,1,182595,225087,0.25,-0.67,9.96,-0.03,-0.01,-0.00,30.71
22384189,1951,1,182565,225185,0.22,-0.66,9.96,-0.03,-0.01,-0.00,30.71
22424188,1950,1,182639,225338,0.25,-0.69,9.96,-0.03,-0.01,-0.01,30.71
22464190,1957,1,182695,225462,0.21,-0.67,9.96,-0.03,-0.01,-0.01,30.71
22504230,1957,1,182691,225552,0.25,-0.67,9.95,-0.03,-0.01,-0.00,30.71
22544189,1957,1,182675,225635,0.24,-0.68,9.97,-0.03,-0.01,-0.01,30.71
22584188,1951,1,182672,225634,0.22,-0.67,9.97,-0.03,-0.01,-0.01,30.71
22624190,1947,1,182770,225913,0.24,-0.69,9.98,-0.03,-0.01,-0.00,30.71
22664188,1943,1,182883,226457,0.24,-0.68,9.93,-0.03,-0.01,-0.01,30.71
22704208,1930,1,183065,227016,0.23,-0.67,9.96,-0.03,-0.01,-0.00,30.71
22744188,1950,1,183297,227518,0.25,-0.67,9.98,-0.03,-0.01,-0.00,30.71
22784190,1949,1,183353,227633,0.23,-0.67,9.95,-0.03,-0.01,-0.01,30.71
22824188,1947,1,183311,227545,0.24,-0.67,9.97,-0.03,-0.01,-0.01,30.71
22864189,1951,1,183239,227230,0.23,-0.68,9.96,-0.03,-0.01,-0.00,30.71
22904188,1950,1,182971,225912,0.25,-0.67,9.96,-0.03,-0.01,-0.01,30.71
22945190,1941,1,182675,225388,0.24,-0.66,9.97,-0.03,-0.01,-0.00,30.71
22985188,1953,1,182575,225358,0.24,-0.69,9.97,-0.03,-0.01,-0.01,30.71
23025213,1949,1,182620,225497,0.24,-0.65,9.97,-0.03,-0.01,-0.01,30.71
23065188,1941,1,182671,225649,0.23,-0.66,9.94,-0.03,-0.01,-0.01,30.71
23105190,1937,1,182740,225958,0.24,-0.67,9.99,-0.03,-0.01,-0.00,30.71
23145188,1937,1,182838,226122,0.23,-0.66,9.96,-0.03,-0.01,-0.01,30.71
23185190,1939,1,182829,226190,0.23,-0.67,9.95,-0.03,-0.01,-0.00,30.71
23225188,1936,1,182900,226372,0.28,-0.67,9.99,-0.03,-0.01,-0.01,30.71
23265189,1946,1,182933,226518,0.24,-0.66,9.97,-0.03,-0.01,-0.01,30.71
23305188,1942,1,182952,226734,0.25,-0.64,9.96,-0.03,-0.01,-0.00,30.71
23345189,1950,1,183047,226970,0.23,-0.69,9.93,-0.03,-0.01,-0.01,30.71
23385873,1936,1,183175,227314,0.27,-0.67,9.93,-0.03,-0.01,-0.01,31.15
23424189,1951,1,183279,227760,0.23,-0.66,9.92,-0.03,-0.01,-0.01,31.15
23464188,1945,1,183374,227988,0.23,-0.67,9.97,-0.03,-0.01,-0.01,31.15
23504189,1950,1,183428,228035,0.25,-0.67,9.99,-0.03,-0.01,-0.00,31.15
23544188,1950,1,183389,227955,0.23,-0.66,9.98,-0.03,-0.01,-0.00,31.15
23584189,1943,1,183269,226911,0.22,-0.65,9.96,-0.03,-0.01,-0.01,31.15
23624188,1941,1,182862,226105,0.24,-0.67,9.98,-0.03,-0.01,-0.00,31.15
23664189,1938,1,182794,226297,0.27,-0.66,9.94,-0.03,-0.01,-0.01,31.15
23704188,1934,1,182951,226998,0.22,-0.66,9.97,-0.03,-0.02,-0.00,31.15
23744189,1943,1,183164,227994,0.27,-0.66,9.96,-0.03,-0.01,-0.00,31.15
23784188,1934,1,183665,229443,0.24,-0.67,9.96,-0.03,-0.01,-0.01,31.15
23824189,1927,1,184007,230256,0.26,-0.68,9.97,-0.03,-0.01,-0.01,31.15
23864188,1933,1,184218,230785,0.27,-0.67,9.96,-0.03,-0.01,-0.00,31.15
23904189,1946,1,184376,231150,0.24,-0.65,9.99,-0.03,-0.01,-0.01,31.15
23944188,1939,1,184506,231632,0.24,-0.67,9.99,-0.03,-0.01,-0.01,31.15
23984190,1947,1,184635,232076,0.23,-0.66,9.97,-0.04,-0.02,-0.01,31.15
24024202,1947,1,184833,232417,0.26,-0.68,9.96,-0.03,-0.01,-0.00,31.15
24064189,1951,1,184881,232529,0.27,-0.67,9.96,-0.03,-0.01,-0.01,31.15
24104188,1951,1,184917,232633,0.28,-0.66,9.96,-0.04,-0.02,-0.00,31.15
24144189,1946,1,184946,232718,0.27,-0.70,9.94,-0.04,-0.02,-0.00,31.15
24184188,1936,1,184933,232753,0.27,-0.67,9.97,-0.03,-0.02,-0.01,31.15
24224189,1941,1,184948,232875,0.28,-0.65,9.94,-0.03,-0.01,-0.01,31.15
24264188,1931,1,184971,232756,0.27,-0.67,9.97,-0.04,-0.01,-0.01,31.15
24304189,1941,1,184635,230674,0.27,-0.67,9.96,-0.03,-0.00,-0.01,31.15
24344188,1936,1,183769,229328,0.28,-0.68,9.95,-0.04,0.00,-0.01,31.15
24384173,1935,1,183731,229840,0.24,-0.67,9.99,-0.04,0.00,-0.01,31.15
24424859,1942,1,183897,229858,0.25,-0.66,9.95,-0.03,-0.01,-0.00,31.89
24465189,1937,1,183900,230064,0.25,-0.67,9.95,-0.03,-0.01,-0.01,31.89
24505188,1937,1,184023,230621,0.24,-0.67,9.98,-0.03,-0.01,-0.00,31.89
24545189,1938,1,184212,231008,0.28,-0.67,9.95,-0.03,-0.01,-0.00,31.89
24585188,1944,1,184264,231056,0.27,-0.67,9.92,-0.03,-0.01,-0.01,31.89
24625190,1937,1,184316,231214,0.25,-0.68,9.96,-0.03,-0.01,-0.01,31.89
24665188,1938,1,184299,231633,0.24,-0.68,9.97,-0.03,-0.01,-0.00,31.89
24705189,1936,1,184423,231819,0.27,-0.68,9.97,-0.03,-0.01,-0.00,31.89
24745188,1936,1,184442,232035,0.24,-0.66,9.97,-0.03,-0.01,-0.00,31.89
24785189,1937,1,184433,231952,0.27,-0.70,9.97,-0.04,-0.02,-0.00,31.89
24825188,1945,1,184349,231872,0.28,-0.68,9.97,-0.03,-0.01,-0.00,31.89
24865189,1942,1,184310,231911,0.26,-0.67,9.94,-0.04,-0.01,-0.00,31.89
24905188,1937,1,184356,231940,0.25,-0.66,9.97,-0.04,-0.01,-0.01,31.89
24945189,1943,1,184326,232003,0.28,-0.68,9.96,-0.03,-0.01,-0.01,31.89
24985188,1934,1,184327,231312,0.27,-0.68,9.96,-0.03,-0.01,-0.00,31.89
25025214,1945,1,183594,228570,0.27,-0.69,9.98,-0.03,-0.01,-0.01,31.89
25065188,1943,1,183055,227920,0.26,-0.68,9.95,-0.03,-0.00,-0.00,31.89
25105189,1957,1,182996,228017,0.28,-0.67,9.99,-0.03,-0.00,-0.01,31.89
25145189,1939,1,183037,228012,0.26,-0.67,9.97,-0.03,-0.01,-0.01,31.89
25185190,1947,1,183019,228080,0.26,-0.66,9.95,-0.03,-0.01,-0.01,31.89
25225188,1941,1,183123,228628,0.23,-0.68,9.98,-0.03,-0.01,-0.01,31.89
25265190,1947,1,183317,228867,0.25,-0.67,9.96,-0.03,-0.01,-0.00,31.89
25305188,1937,1,183147,228121,0.26,-0.67,10.00,-0.03,-0.01,-0.00,31.89
25345189,1934,1,182750,227231,0.24,-0.66,9.98,-0.04,-0.02,-0.01,31.89
25385188,1935,1,182387,226470,0.28,-0.69,9.97,-0.04,-0.03,-0.01,31.89
25425875,1936,1,182315,226467,0.28,-0.68,9.92,-0.04,-0.02,-0.01,31.85
25464188,1941,1,182314,226471,0.26,-0.65,9.98,-0.03,-0.01,-0.01,31.85
25504189,1938,1,182315,226685,0.24,-0.68,9.96,-0.03,-0.00,-0.01,31.85
25544188,1938,1,182490,227169,0.24,-0.67,9.98,-0.03,-0.00,-0.00,31.85
25584200,1938,1,182668,227548,0.28,-0.68,9.97,-0.03,-0.01,-0.00,31.85
25624188,1936,1,182803,228149,0.26,-0.68,9.95,-0.03,-0.01,-0.01,31.85
25664190,1943,1,183056,228888,0.24,-0.68,9.97,-0.03,0.00,-0.01,31.85
25704168,1941,1,183314,229087,0.25,-0.66,9.99,-0.03,-0.01,-0.00,31.85
25744189,1937,1,183029,227638,0.26,-0.67,9.96,-0.04,-0.01,-0.01,31.85
25784242,1947,1,182775,227311,0.26,-0.66,9.96,-0.03,-0.01,-0.00,31.85
25824189,1941,1,182811,227590,0.23,-0.67,9.92,-0.04,-0.01,-0.01,31.85
25864188,1942,1,182904,227788,0.26,-0.68,9.95,-0.03,-0.01,-0.01,31.85
25904189,1942,1,182989,228126,0.24,-0.68,9.97,-0.03,-0.01,-0.01,31.85
25944188,1934,1,183035,228171,0.25,-0.68,9.97,-0.04,-0.01,-0.01,31.85
25984225,1938,1,183045,228378,0.26,-0.68,9.99,-0.03,-0.01,-0.01,31.85
26024201,1936,1,183052,228467,0.21,-0.67,9.93,-0.03,-0.02,-0.00,31.85
26064189,1936,1,183023,228525,0.26,-0.68,9.96,-0.03,-0.01,-0.01,31.85
26104188,1940,1,183061,228419,0.30,-0.68,9.98,-0.03,-0.01,-0.01,31.85
26144189,1942,1,183040,228602,0.23,-0.66,9.96,-0.03,-0.01,-0.00,31.85
26184188,1936,1,183050,228270,0.22,-0.67,9.96,-0.03,-0.01,-0.01,31.85
26224190,1935,1,182794,227451,0.30,-0.69,10.01,-0.03,-0.01,-0.00,31.85
26264188,1936,1,182541,226985,0.26,-0.67,9.92,-0.03,-0.01,-0.01,31.85
26304190,1942,1,182437,226974,0.26,-0.69,9.92,-0.03,-0.00,-0.01,31.85
26344189,1941,1,182508,227182,0.24,-0.68,10.01,-0.03,-0.00,-0.00,31.85
26384189,1942,1,182493,227004,0.27,-0.68,9.97,-0.03,-0.01,-0.01,31.85
26424188,1937,1,182448,226650,0.25,-0.66,9.95,-0.03,-0.01,-0.00,31.85
26464875,1936,1,182168,225272,0.27,-0.65,9.98,-0.03,-0.01,-0.00,32.03
26503188,1968,1,181854,224832,0.26,-0.66,9.98,-0.03,-0.01,-0.00,32.03
26543188,1974,1,181753,224681,0.23,-0.66,9.95,-0.03,-0.01,-0.00,32.03
26583188,1967,1,181699,224453,0.26,-0.68,9.97,-0.04,-0.01,-0.01,32.03
26623189,1967,1,181633,224547,0.24,-0.67,9.96,-0.03,-0.01,-0.01,32.03
26663188,1963,1,181748,224986,0.27,-0.66,9.97,-0.03,-0.01,-0.00,32.03
26703188,1968,1,181890,225185,0.26,-0.67,9.96,-0.03,-0.01,-0.01,32.03
26743188,1961,1,181882,225259,0.28,-0.68,9.99,-0.03,-0.01,-0.01,32.03
26783189,1959,1,182049,225682,0.18,-0.63,9.92,-0.04,-0.01,-0.00,32.03
26823188,1952,1,182129,225720,0.31,-0.69,9.99,-0.03,-0.02,-0.00,32.03
26863188,1953,1,182106,225898,0.27,-0.67,9.97,-0.03,-0.01,-0.01,32.03
26903188,1967,1,182354,226552,0.25,-0.68,9.94,-0.03,-0.01,-0.01,32.03
26943189,1968,1,182530,226915,0.27,-0.70,9.98,-0.03,-0.01,-0.01,32.03
26983188,1946,1,182564,227048,0.26,-0.68,9.97,-0.03,-0.01,-0.01,32.03
27023189,1960,1,182700,227469,0.25,-0.67,9.94,-0.03,-0.01,-0.01,32.03
27063188,1962,1,182819,227807,0.25,-0.68,9.96,-0.03,-0.01,-0.01,32.03
27103189,1949,1,182924,227995,0.28,-0.67,9.97,-0.03,-0.01,-0.01,32.03
27143188,1953,1,182960,227902,0.25,-0.66,9.96,-0.03,-0.01,-0.01,32.03
27183189,1959,1,182678,226041,0.27,-0.68,9.93,-0.03,-0.01,-0.01,32.03
27223188,1953,1,182221,225535,0.26,-0.67,9.95,-0.04,0.00,-0.01,32.03
27263173,1968,1,182181,225520,0.26,-0.67,9.96,-0.03,-0.01,-0.01,32.03
27303188,1957,1,182091,225079,0.26,-0.69,9.96,-0.03,-0.01,-0.00,32.03
27343188,1959,1,181903,224540,0.26,-0.67,9.97,-0.03,-0.02,-0.00,32.03
27383188,1963,1,181820,224736,0.28,-0.68,9.91,-0.03,-0.01,-0.01,32.03
27423199,1966,1,182051,225451,0.25,-0.68,9.94,-0.04,0.01,-0.01,32.03
27463168,1968,1,182241,225618,0.26,-0.67,9.94,-0.03,-0.01,-0.01,32.03
27503875,1939,1,182188,225691,0.28,-0.66,9.96,-0.03,-0.01,-0.01,31.97
27544188,1950,1,182259,225722,0.23,-0.66,10.01,-0.03,-0.00,-0.01,31.97
27584189,1960,1,182137,225720,0.26,-0.68,9.94,-0.03,-0.01,-0.01,31.97
27624207,1943,1,182161,226231,0.26,-0.70,9.92,-0.03,0.00,-0.01,31.97
27664173,1939,1,182240,225695,0.24,-0.67,9.98,-0.03,-0.01,-0.01,31.97
27704188,1946,1,181763,224417,0.27,-0.67,10.01,-0.03,-0.03,-0.00,31.97
27744189,1937,1,181464,223971,0.25,-0.68,10.01,-0.02,-0.03,-0.00,31.97
27784188,1936,1,181550,224457,0.24,-0.67,9.96,-0.03,-0.00,-0.00,31.97
27824207,1930,1,181989,226243,0.25,-0.66,9.90,-0.04,0.02,-0.01,31.97
27864173,1934,1,182497,226197,0.26,-0.67,9.96,-0.04,-0.00,-0.01,31.97
27904189,1938,1,181976,224712,0.25,-0.67,9.99,-0.04,-0.01,-0.01,31.97
27944188,1945,1,181525,223808,0.27,-0.66,9.99,-0.03,-0.02,-0.01,31.97
27984189,1941,1,181311,223832,0.26,-0.66,9.93,-0.04,-0.03,-0.00,31.97
28024202,1942,1,181493,224718,0.23,-0.68,9.96,-0.04,-0.01,-0.01,31.97
28064189,1942,1,181851,225485,0.26,-0.68,9.99,-0.04,-0.02,-0.01,31.97
28104188,1942,1,181936,225529,0.24,-0.68,9.96,-0.04,-0.02,-0.00,31.97
28144189,1936,1,181804,224944,0.28,-0.66,9.98,-0.03,-0.01,-0.01,31.97
28184189,1936,1,181558,224424,0.26,-0.66,9.96,-0.03,-0.01,-0.00,31.97
28224190,1940,1,181400,224309,0.28,-0.68,9.92,-0.03,-0.01,-0.00,31.97
28264188,1939,1,181448,224299,0.25,-0.68,9.94,-0.03,-0.00,-0.01,31.97
28304189,1936,1,181379,224434,0.25,-0.68,9.94,-0.03,-0.01,-0.01,31.97
28344188,1941,1,181541,224910,0.25,-0.68,9.98,-0.03,-0.01,-0.01,31.97
28384189,1936,1,181628,225243,0.26,-0.67,9.96,-0.04,-0.01,-0.01,31.97
28424188,1936,1,181731,225437,0.26,-0.66,9.94,-0.03,-0.01,-0.01,31.97
28464190,1939,1,181780,225925,0.25,-0.67,9.92,-0.03,-0.01,-0.01,31.97
28504874,1937,1,182060,227512,0.27,-0.68,9.95,-0.04,-0.01,-0.01,32.05
28543190,1956,1,182836,228909,0.26,-0.69,10.00,-0.03,0.00,-0.01,32.05
28583168,1949,1,182609,226257,0.25,-0.67,9.98,-0.03,-0.01,-0.00,32.05
28623189,1959,1,181725,224929,0.25,-0.67,9.97,-0.03,-0.01,-0.01,32.05
28663188,1960,1,181526,224730,0.24,-0.68,9.96,-0.03,-0.01,-0.01,32.05
28703189,1949,1,181555,224901,0.27,-0.67,9.94,-0.03,-0.01,-0.01,32.05
28743188,1951,1,181554,225012,0.22,-0.65,9.96,-0.03,-0.01,-0.01,32.05
28783189,1946,1,181636,224982,0.24,-0.69,9.96,-0.03,-0.01,-0.00,32.05
28823188,1941,1,181570,224910,0.29,-0.69,9.94,-0.03,-0.02,-0.00,32.05
28863188,1950,1,181536,225062,0.26,-0.66,9.94,-0.04,-0.01,-0.00,32.05
28903188,1945,1,181656,225404,0.22,-0.66,9.98,-0.04,-0.01,-0.00,32.05
28943189,1943,1,181727,225535,0.25,-0.68,9.97,-0.03,-0.01,-0.00,32.05
28983188,1951,1,181750,225851,0.28,-0.69,9.93,-0.03,-0.01,-0.01,32.05
29023189,1953,1,181918,226323,0.24,-0.68,9.94,-0.03,-0.01,-0.01,32.05
29063194,1958,1,182017,226552,0.24,-0.68,9.98,-0.03,-0.01,-0.00,32.05
29103189,1957,1,182009,226674,0.28,-0.68,9.97,-0.03,-0.01,-0.01,32.05
29143188,1968,1,182034,226908,0.24,-0.68,9.95,-0.04,-0.01,-0.00,32.05
29183189,1952,1,182109,227138,0.26,-0.65,9.97,-0.03,-0.01,-0.00,32.05
29223188,1943,1,182133,227191,0.26,-0.70,9.94,-0.03,-0.01,-0.00,32.05
29263207,1952,1,182148,227024,0.25,-0.69,9.93,-0.03,-0.01,-0.01,32.05
29303188,1949,1,182012,226082,0.25,-0.65,9.96,-0.03,-0.01,-0.01,32.05
29343189,1945,1,181600,224952,0.22,-0.65,9.97,-0.03,-0.01,-0.00,32.05
29383188,1951,1,181361,224851,0.28,-0.69,9.96,-0.03,-0.01,-0.00,32.05
29423188,1953,1,181540,225662,0.27,-0.67,9.95,-0.04,0.00,-0.01,32.05
29463184,1945,1,181846,226222,0.22,-0.66,10.00,-0.04,-0.00,-0.01,32.05
29503188,1939,1,181949,226432,0.23,-0.70,9.99,-0.03,-0.01,-0.01,32.05
29543874,1931,1,182006,226622,0.23,-0.65,10.00,-0.03,-0.01,-0.01,31.91
29584189,1939,1,182020,226680,0.28,-0.66,9.93,-0.03,-0.01,-0.00,31.91
29624188,1941,1,182114,227040,0.24,-0.69,9.95,-0.04,-0.01,-0.00,31.91
29664189,1949,1,182339,228017,0.23,-0.69,9.97,-0.04,-0.01,-0.01,31.91
29704188,1937,1,182675,228850,0.25,-0.68,9.96,-0.04,-0.01,-0.01,31.91
29744190,1940,1,182986,229852,0.32,-0.66,9.95,-0.04,-0.01,-0.01,31.91
29784189,1936,1,183383,230547,0.25,-0.65,10.03,-0.03,-0.01,-0.01,31.91
29824190,1941,1,183372,230046,0.24,-0.68,9.97,-0.03,-0.02,-0.00,31.91
29864188,1948,1,183047,229239,0.25,-0.70,9.92,-0.03,-0.02,-0.00,31.91
29904189,1939,1,182796,228720,0.24,-0.66,9.96,-0.03,-0.02,-0.00,31.91
29944188,1948,1,182726,228921,0.28,-0.69,9.94,-0.03,-0.01,-0.00,31.91
29984189,1940,1,182813,229162,0.26,-0.69,9.93,-0.03,-0.01,-0.01,31.91
30024201,1939,1,182785,227904,0.28,-0.67,9.98,-0.03,-0.01,-0.01,31.91
30064189,1936,1,182250,226817,0.26,-0.67,9.96,-0.04,-0.01,-0.01,31.91
30104188,1943,1,182233,227365,0.29,-0.67,9.91,-0.04,-0.00,-0.00,31.91
30144189,1943,1,182529,228188,0.26,-0.68,9.95,-0.04,-0.00,-0.01,31.91
30184188,1938,1,182771,228381,0.27,-0.68,9.98,-0.03,-0.01,-0.01,31.91
30224189,1951,1,182797,228674,0.23,-0.68,9.94,-0.03,-0.01,-0.01,31.91
30264188,1936,1,182924,228825,0.24,-0.69,9.98,-0.03,-0.01,-0.00,31.91
30304189,1947,1,182867,228441,0.27,-0.69,9.94,-0.03,-0.01,-0.00,31.91
30344188,1937,1,182672,228003,0.25,-0.67,9.99,-0.03,-0.01,-0.01,31.91
30384189,1936,1,182566,227851,0.26,-0.66,9.95,-0.03,-0.01,-0.01,31.91
30424188,1926,1,182549,227753,0.24,-0.68,9.94,-0.03,-0.01,-0.00,31.91
30464189,1936,1,182637,228089,0.25,-0.69,9.95,-0.03,-0.01,-0.01,31.91
30504189,1941,1,182736,228122,0.25,-0.69,9.98,-0.03,-0.01,-0.01,31.91
30544875,1935,1,182533,227830,0.27,-0.70,9.97,-0.03,-0.01,-0.00,31.69
30583188,1947,1,182383,227499,0.24,-0.67,9.96,-0.03,-0.01,-0.01,31.69
30623190,1943,1,182323,227358,0.25,-0.68,9.98,-0.03,-0.01,-0.00,31.69
30663188,1945,1,182221,227315,0.24,-0.67,9.96,-0.03,-0.01,-0.00,31.69
30703189,1942,1,182137,226841,0.24,-0.68,9.96,-0.03,-0.01,-0.01,31.69
30743188,1939,1,181858,225685,0.23,-0.67,9.99,-0.03,-0.01,-0.00,31.69
30783189,1950,1,181402,224733,0.26,-0.68,9.98,-0.03,-0.01,-0.00,31.69
30823188,1957,1,181192,224282,0.25,-0.69,9.96,-0.03,-0.01,-0.01,31.69
30863189,1955,1,181031,223941,0.24,-0.66,9.97,-0.03,-0.01,-0.01,31.69
30904240,1945,1,180991,223897,0.25,-0.67,9.95,-0.03,-0.01,-0.00,31.69
30944189,1941,1,181135,224392,0.25,-0.68,9.93,-0.03,-0.01,-0.01,31.69
30984188,1934,1,181254,224383,0.27,-0.69,9.97,-0.03,-0.02,-0.00,31.69
31024201,1943,1,181186,224405,0.27,-0.67,9.94,-0.03,-0.01,-0.01,31.69
31064188,1934,1,181250,224536,0.25,-0.68,9.94,-0.04,-0.01,-0.01,31.69
31104213,1933,1,181287,224770,0.25,-0.65,9.97,-0.03,-0.01,-0.00,31.69
31144188,1943,1,181372,224980,0.26,-0.67,9.96,-0.03,-0.01,-0.01,31.69
31184189,1937,1,181405,225057,0.27,-0.68,9.96,-0.03,-0.01,-0.01,31.69
31224188,1935,1,181398,225192,0.25,-0.69,9.96,-0.03,-0.01,-0.01,31.69
31264189,1942,1,181445,225374,0.26,-0.68,9.96,-0.03,-0.01,-0.01,31.69
31304188,1946,1,181513,225603,0.24,-0.69,9.96,-0.03,-0.01,-0.01,31.69
31344189,1948,1,181601,225795,0.26,-0.70,9.96,-0.04,-0.01,-0.01,31.69
31384188,1942,1,181695,225886,0.25,-0.67,9.93,-0.03,-0.01,-0.01,31.69
31424190,1950,1,181588,225148,0.29,-0.63,10.04,-0.03,-0.00,-0.01,31.69
31464188,1941,1,181294,224439,0.22,-0.66,9.97,-0.03,0.00,-0.01,31.69
31504173,1956,1,181066,223739,0.17,-0.71,9.91,-0.03,-0.01,-0.01,31.69
31544188,1945,1,180868,223686,0.24,-0.69,9.93,-0.03,-0.01,-0.00,31.69
31584875,1955,1,180925,223952,0.25,-0.65,10.03,-0.03,-0.01,-0.00,31.19
31623188,1939,1,180944,223966,0.22,-0.69,9.96,-0.03,-0.02,-0.01,31.19
31663190,1946,1,180892,223697,0.26,-0.66,9.97,-0.03,-0.01,-0.00,31.19
31703188,1939,1,180705,223164,0.23,-0.67,9.99,-0.03,-0.01,-0.00,31.19
31743189,1936,1,180530,223037,0.23,-0.67,9.93,-0.03,-0.02,-0.00,31.19
31783188,1941,1,180574,223327,0.25,-0.69,9.95,-0.04,-0.01,-0.00,31.19
31823189,1945,1,180832,224029,0.28,-0.69,9.93,-0.04,-0.01,-0.00,31.19
31863188,1942,1,181098,224422,0.25,-0.67,9.97,-0.03,-0.01,-0.01,31.19
31903190,1945,1,181082,224263,0.24,-0.68,9.95,-0.03,-0.02,-0.00,31.19
31943188,1942,1,181086,224593,0.25,-0.66,9.96,-0.03,-0.01,-0.00,31.19
31983189,1943,1,181354,225433,0.24,-0.70,9.93,-0.04,-0.01,-0.01,31.19
32023188,1936,1,181683,225923,0.29,-0.69,9.97,-0.04,-0.01,-0.01,31.19
32063190,1946,1,181697,225572,0.23,-0.69,10.02,-0.04,-0.01,-0.01,31.19
32103188,1943,1,181389,224288,0.23,-0.67,9.95,-0.03,-0.01,-0.00,31.19
32143189,1942,1,181163,224166,0.26,-0.67,9.96,-0.03,-0.01,-0.00,31.19
32183188,1939,1,181175,224263,0.24,-0.69,9.97,-0.03,-0.01,-0.00,31.19
32223189,1951,1,181166,224058,0.23,-0.66,9.95,-0.03,-0.02,-0.01,31.19
32263188,1936,1,181051,223823,0.27,-0.66,9.93,-0.03,-0.01,-0.00,31.19
32303189,1949,1,180955,223769,0.26,-0.69,9.95,-0.03,-0.01,-0.00,31.19
32343188,1936,1,180989,223924,0.27,-0.67,9.98,-0.03,-0.01,-0.00,31.19
32383189,1935,1,181110,223998,0.25,-0.65,9.96,-0.03,-0.01,-0.00,31.19
32423188,1942,1,181088,224082,0.24,-0.67,9.92,-0.03,-0.01,-0.01,31.19
32463189,1946,1,181171,224471,0.26,-0.68,9.95,-0.03,-0.01,-0.01,31.19
32503188,1943,1,181406,225015,0.26,-0.68,9.97,-0.03,-0.01,-0.01,31.19
32543190,1931,1,181520,225200,0.27,-0.67,9.97,-0.03,-0.01,-0.01,31.19
32583188,1939,1,181530,225283,0.26,-0.67,9.98,-0.03,-0.01,-0.01,31.19
32623876,1938,1,181557,225412,0.26,-0.68,9.94,-0.03,-0.01,-0.00,31.13
32664188,1951,1,181544,225572,0.26,-0.66,9.97,-0.03,-0.01,-0.00,31.13
32704189,1951,1,181593,225645,0.26,-0.68,9.96,-0.03,-0.01,-0.01,31.13
32744215,1936,1,181486,224828,0.24,-0.68,9.97,-0.03,-0.01,-0.01,31.13
32784190,1937,1,181176,224102,0.26,-0.67,9.95,-0.03,-0.01,-0.01,31.13
32824188,1936,1,181026,223912,0.26,-0.68,9.95,-0.03,-0.01,-0.01,31.13
32864189,1945,1,180967,223832,0.24,-0.67,9.97,-0.03,-0.01,-0.00,31.13
32904188,1935,1,180895,223650,0.26,-0.68,9.96,-0.03,-0.01,-0.01,31.13
32944216,1938,1,180871,223769,0.25,-0.67,9.95,-0.03,-0.01,-0.01,31.13
32984188,1935,1,180882,223873,0.24,-0.69,9.96,-0.03,-0.01,-0.01,31.13
33024202,1943,1,180862,223854,0.24,-0.67,9.97,-0.03,-0.01,-0.00,31.13
33064188,1939,1,180899,223928,0.25,-0.68,9.96,-0.03,-0.01,-0.01,31.13
33104190,1954,1,180931,224005,0.26,-0.68,9.98,-0.03,-0.01,-0.00,31.13
33144189,1943,1,180910,224047,0.26,-0.68,9.97,-0.03,-0.02,-0.01,31.13
33184190,1943,1,180944,224145,0.24,-0.69,9.96,-0.03,-0.01,-0.01,31.13
33224188,1939,1,180990,224233,0.25,-0.68,9.99,-0.03,-0.01,-0.00,31.13
33264189,1954,1,181024,224349,0.22,-0.68,9.93,-0.03,-0.01,-0.00,31.13
33304189,1959,1,181053,224505,0.26,-0.68,9.92,-0.03,-0.01,-0.01,31.13
33344189,1946,1,181163,224719,0.23,-0.67,9.94,-0.03,-0.01,-0.01,31.13
33384188,1947,1,181180,224655,0.26,-0.68,9.96,-0.03,-0.01,-0.00,31.13
33424189,1935,1,180998,223630,0.24,-0.67,9.98,-0.03,-0.01,-0.01,31.13
33464188,1936,1,180683,223095,0.25,-0.68,9.98,-0.03,-0.01,-0.00,31.13
33504189,1947,1,180680,223130,0.25,-0.68,9.98,-0.03,-0.01,-0.01,31.13
33544188,1959,1,180680,223055,0.26,-0.68,9.98,-0.03,-0.01,-0.00,31.13
33584189,1950,1,180642,223135,0.26,-0.69,9.96,-0.03,-0.01,-0.00,31.13
33624874,1942,1,180723,223397,0.25,-0.68,10.00,-0.03,-0.01,-0.01,31.05
33663189,1948,1,180805,223660,0.26,-0.67,9.96,-0.03,-0.01,-0.01,31.05
33703188,1939,1,180890,223820,0.25,-0.65,9.96,-0.03,-0.01,-0.01,31.05
33743190,1941,1,180984,224035,0.26,-0.66,9.96,-0.03,-0.01,-0.01,31.05
33783188,1951,1,181032,224282,0.24,-0.66,9.96,-0.03,-0.01,-0.01,31.05
33823190,1941,1,181145,224604,0.26,-0.69,9.95,-0.03,-0.01,-0.01,31.05
33863188,1936,1,181236,224836,0.24,-0.67,9.99,-0.03,-0.01,-0.00,31.05
33903188,1949,1,181259,224896,0.25,-0.67,9.96,-0.03,-0.01,-0.01,31.05
33943188,1936,1,181259,224907,0.24,-0.68,9.95,-0.03,-0.01,-0.01,31.05
33984189,1935,1,181277,224924,0.26,-0.68,9.97,-0.03,-0.01,-0.01,31.05
34024202,1947,1,181238,224948,0.26,-0.69,9.96,-0.03,-0.01,-0.01,31.05
34064189,1940,1,181222,224412,0.25,-0.67,9.97,-0.03,-0.01,-0.00,31.05
34104188,1936,1,180844,223243,0.26,-0.67,9.95,-0.03,-0.01,-0.00,31.05
34144188,1938,1,180635,222824,0.26,-0.68,9.93,-0.03,-0.01,-0.00,31.05
34184188,1936,1,180602,222764,0.24,-0.69,9.97,-0.03,-0.01,-0.00,31.05
34224189,1935,1,180584,222783,0.24,-0.66,9.95,-0.03,-0.01,-0.01,31.05
34264188,1936,1,180565,222880,0.25,-0.66,9.97,-0.03,-0.01,-0.01,31.05
34302189,1979,1,180640,223134,0.23,-0.68,9.93,-0.03,-0.01,-0.00,31.05
34342188,1987,1,180748,223201,0.25,-0.67,9.96,-0.03,-0.01,-0.01,31.05
34382223,1983,1,180777,223333,0.26,-0.68,9.98,-0.03,-0.01,-0.01,31.05
34422188,1982,1,180776,223351,0.25,-0.70,9.92,-0.03,-0.01,-0.01,31.05
34462189,1983,1,180815,223520,0.24,-0.67,9.98,-0.03,-0.01,-0.01,31.05
34502188,1974,1,180869,223729,0.25,-0.68,9.95,-0.03,-0.01,-0.01,31.05
34542190,1983,1,180950,223741,0.24,-0.68,9.97,-0.03,-0.01,-0.00,31.05
34582215,1979,1,180979,223816,0.25,-0.68,9.97,-0.03,-0.01,-0.01,31.05
34622190,1991,1,181057,224046,0.25,-0.69,9.94,-0.03,-0.01,-0.01,31.05
34662874,1946,1,181113,224243,0.21,-0.67,9.97,-0.03,-0.01,-0.00,30.99
34703189,1946,1,181134,224232,0.25,-0.68,9.97,-0.03,-0.01,-0.01,30.99
34743188,1945,1,181087,223753,0.27,-0.69,9.96,-0.03,-0.01,-0.01,30.99
34783190,1939,1,180787,222689,0.26,-0.67,9.96,-0.03,-0.01,-0.01,30.99
34823188,1938,1,180545,222411,0.25,-0.68,9.95,-0.03,-0.01,-0.01,30.99
34863190,1939,1,180564,222314,0.22,-0.66,9.95,-0.03,-0.01,-0.01,30.99
34903189,1943,1,180550,222348,0.23,-0.68,9.97,-0.03,-0.01,-0.01,30.99
34943190,1942,1,180633,222501,0.25,-0.67,9.94,-0.03,-0.01,-0.01,30.99
34983188,1943,1,180767,222893,0.24,-0.67,9.94,-0.03,-0.01,-0.00,30.99
35022198,1974,1,180906,223119,0.23,-0.66,9.97,-0.03,-0.01,-0.00,30.99
35062188,1973,1,181036,223241,0.25,-0.68,9.96,-0.03,-0.01,-0.01,30.99
35102190,1980,1,181072,223299,0.25,-0.65,9.95,-0.03,-0.01,-0.00,30.99
35142188,1968,1,181084,223434,0.24,-0.68,9.96,-0.03,-0.01,-0.01,30.99
35182189,1970,1,181152,223377,0.25,-0.69,9.98,-0.03,-0.01,-0.00,30.99
35222188,1973,1,181122,223534,0.26,-0.67,9.98,-0.03,-0.01,-0.01,30.99
35262190,1968,1,181173,223662,0.24,-0.67,9.96,-0.03,-0.01,-0.00,30.99
35302188,1965,1,181232,223710,0.22,-0.68,9.95,-0.03,-0.01,-0.00,30.99
35342189,1964,1,181219,223778,0.26,-0.68,9.98,-0.03,-0.01,-0.00,30.99
35382188,1962,1,181261,223767,0.23,-0.68,9.96,-0.03,-0.01,-0.01,30.99
35422190,1965,1,181255,223526,0.25,-0.67,9.96,-0.03,-0.01,-0.00,30.99
35462188,1966,1,181010,222413,0.25,-0.67,9.95,-0.03,-0.01,-0.00,30.99
35502189,1956,1,180656,221679,0.25,-0.68,9.97,-0.03,-0.01,-0.01,30.99
35542188,1957,1,180562,221525,0.25,-0.66,9.97,-0.03,-0.01,-0.01,30.99
35582190,1954,1,180522,221470,0.24,-0.68,9.98,-0.03,-0.01,-0.01,30.99
35622196,1963,1,180477,221471,0.23,-0.66,9.96,-0.03,-0.01,-0.00,30.99
35662875,1949,1,180472,221667,0.25,-0.69,9.95,-0.03,-0.01,-0.00,30.97
35703189,1950,1,180523,221755,0.26,-0.68,9.97,-0.03,-0.01,-0.00,30.97
35743189,1942,1,180540,221838,0.24,-0.67,9.97,-0.03,-0.01,-0.01,30.97
35783188,1947,1,180589,221838,0.27,-0.66,9.98,-0.03,-0.01,-0.01,30.97
35823190,1939,1,180583,221897,0.26,-0.67,9.97,-0.03,-0.01,-0.01,30.97
35863188,1934,1,180600,222079,0.24,-0.66,9.97,-0.03,-0.01,-0.00,30.97
35903189,1955,1,180705,222257,0.26,-0.68,9.93,-0.03,-0.01,-0.00,30.97
35943188,1953,1,180729,222498,0.26,-0.68,9.97,-0.03,-0.01,-0.01,30.97
35983190,1953,1,180808,222658,0.24,-0.70,9.94,-0.03,-0.01,-0.00,30.97
36023188,1936,1,180843,222836,0.25,-0.67,9.97,-0.03,-0.01,-0.00,30.97
36063190,1938,1,180941,223015,0.23,-0.68,9.93,-0.03,-0.01,-0.01,30.97
36103188,1938,1,180959,222722,0.24,-0.67,9.96,-0.03,-0.01,-0.01,30.97
36143190,1948,1,180731,221656,0.26,-0.68,9.95,-0.03,-0.01,-0.01,30.97
36183188,1936,1,180430,221304,0.24,-0.69,9.95,-0.03,-0.01,-0.01,30.97
36223225,1936,1,180458,221380,0.26,-0.69,9.94,-0.04,-0.01,-0.01,30.97
36263188,1939,1,180501,221452,0.25,-0.69,9.96,-0.03,-0.01,-0.00,30.97
36303189,1943,1,180489,221561,0.25,-0.68,9.97,-0.03,-0.01,-0.01,30.97
36343188,1946,1,180596,221980,0.24,-0.70,9.97,-0.03,-0.01,-0.01,30.97
36383189,1943,1,180687,222177,0.28,-0.67,9.95,-0.03,-0.01,-0.01,30.97
36423188,1934,1,180773,222383,0.27,-0.67,9.97,-0.03,-0.01,-0.01,30.97
36463190,1938,1,180874,222728,0.26,-0.69,9.94,-0.03,-0.01,-0.01,30.97
36503188,1937,1,180979,223105,0.26,-0.67,9.97,-0.03,-0.01,-0.00,30.97
36543189,1933,1,181104,223441,0.25,-0.67,9.95,-0.03,-0.01,-0.00,30.97
36583188,1954,1,181195,223750,0.25,-0.66,9.97,-0.03,-0.01,-0.00,30.97
36623189,1935,1,181304,223835,0.26,-0.69,9.94,-0.03,-0.01,-0.00,30.97
36663874,1936,1,181293,223972,0.27,-0.66,9.97,-0.03,-0.01,-0.00,30.81
36702189,1963,1,181380,224508,0.23,-0.66,9.97,-0.03,-0.01,-0.01,30.81
36742188,1947,1,181544,224660,0.23,-0.70,9.97,-0.03,-0.01,-0.01,30.81
36782189,1949,1,181490,224229,0.22,-0.69,9.92,-0.03,-0.01,-0.00,30.81
36822188,1941,1,181086,222793,0.25,-0.67,9.96,-0.03,-0.01,-0.01,30.81
36862190,1950,1,180761,222259,0.26,-0.65,9.98,-0.03,-0.01,-0.00,30.81
36902188,1959,1,180613,222092,0.28,-0.70,9.97,-0.03,-0.01,-0.01,30.81
36942189,1959,1,180592,222022,0.24,-0.66,9.98,-0.03,-0.01,-0.00,30.81
36982188,1947,1,180554,222115,0.23,-0.68,9.93,-0.03,-0.01,-0.01,30.81
37022198,1950,1,180688,222599,0.23,-0.70,9.96,-0.03,-0.01,-0.01,30.81
37062188,1951,1,180824,222958,0.23,-0.66,9.99,-0.03,-0.01,-0.01,30.81
37102189,1952,1,180841,223001,0.25,-0.67,9.96,-0.03,-0.01,-0.01,30.81
37142188,1941,1,180858,223107,0.25,-0.68,9.91,-0.03,-0.01,-0.01,30.81
37182190,1942,1,180891,223167,0.26,-0.69,9.94,-0.03,-0.01,-0.00,30.81
37222189,1950,1,180925,223459,0.24,-0.67,9.96,-0.04,-0.01,-0.01,30.81
37262189,1947,1,181072,223796,0.22,-0.68,10.00,-0.03,-0.01,-0.01,30.81
37302188,1951,1,181161,223867,0.25,-0.67,9.98,-0.03,-0.01,-0.00,30.81
37342190,1959,1,181108,223743,0.28,-0.67,9.96,-0.03,-0.01,-0.00,30.81
37382188,1952,1,181033,223611,0.26,-0.69,9.95,-0.04,-0.01,-0.01,30.81
37422189,1948,1,180975,223688,0.27,-0.68,9.98,-0.03,-0.01,-0.01,30.81
37462188,1957,1,180988,223735,0.22,-0.64,9.99,-0.04,-0.01,-0.00,30.81
37502189,1951,1,180927,222982,0.25,-0.68,9.95,-0.03,-0.01,-0.01,30.81
37542188,1949,1,180544,221780,0.25,-0.68,9.96,-0.03,-0.01,-0.01,30.81
37582189,1945,1,180296,221428,0.27,-0.67,9.94,-0.03,-0.01,-0.00,30.81
37622188,1951,1,180256,221329,0.25,-0.68,9.91,-0.03,-0.01,-0.01,30.81
37662248,1961,1,180230,221170,0.24,-0.69,9.97,-0.03,-0.01,-0.01,30.81
37702874,1942,1,180199,221163,0.24,-0.66,9.95,-0.03,-0.01,-0.00,31.11
37743189,1943,1,180259,221456,0.27,-0.66,9.97,-0.03,-0.01,-0.01,31.11
37783188,1936,1,180305,221518,0.26,-0.67,9.96,-0.03,-0.01,-0.01,31.11
37823189,1937,1,180308,221685,0.26,-0.67,9.96,-0.03,-0.01,-0.01,31.11
37863215,1936,1,180438,222000,0.24,-0.67,9.97,-0.04,-0.01,-0.01,31.11
37903190,1939,1,180549,222433,0.24,-0.68,9.95,-0.03,-0.01,-0.00,31.11
37943188,1943,1,180744,222816,0.26,-0.68,9.94,-0.03,-0.01,-0.01,31.11
37983189,1943,1,180884,223042,0.26,-0.67,9.99,-0.03,-0.01,-0.01,31.11
38023188,1931,1,180996,223345,0.23,-0.68,9.96,-0.03,-0.01,-0.01,31.11
38063206,1936,1,181073,223591,0.23,-0.68,9.95,-0.03,-0.01,-0.01,31.11
38103188,1922,1,181027,223531,0.25,-0.69,9.96,-0.03,-0.01,-0.01,31.11
38143190,1938,1,181080,223742,0.24,-0.67,9.97,-0.04,-0.01,-0.01,31.11
38183188,1946,1,181185,223908,0.25,-0.67,9.97,-0.03,-0.01,-0.01,31.11
38223190,1938,1,181044,222848,0.25,-0.68,9.95,-0.03,-0.01,-0.00,31.11
38263188,1937,1,180697,222173,0.27,-0.66,9.98,-0.03,-0.01,-0.01,31.11
38303190,1943,1,180651,222132,0.24,-0.68,9.97,-0.03,-0.01,-0.01,31.11
38343188,1947,1,180635,222114,0.23,-0.69,9.98,-0.03,-0.01,-0.00,31.11
38383189,1942,1,180577,222009,0.27,-0.69,9.97,-0.03,-0.01,-0.00,31.11
38423189,1937,1,180598,222163,0.26,-0.69,9.97,-0.03,-0.01,-0.00,31.11
38463189,1945,1,180714,222579,0.25,-0.67,9.96,-0.03,-0.01,-0.00,31.11
38503188,1939,1,180816,222784,0.24,-0.66,9.96,-0.03,-0.01,-0.01,31.11
38543189,1943,1,180866,222893,0.24,-0.67,9.99,-0.03,-0.01,-0.00,31.11
38583188,1949,1,180903,222938,0.25,-0.69,9.96,-0.03,-0.01,-0.00,31.11
38623189,1942,1,180941,223272,0.25,-0.67,9.95,-0.03,-0.01,-0.01,31.11
38663189,1942,1,181084,223575,0.23,-0.67,9.96,-0.03,-0.01,-0.01,31.11
38703876,1936,1,181146,223818,0.24,-0.67,9.97,-0.03,-0.01,-0.00,30.99
38742188,1940,1,181157,224005,0.25,-0.67,9.98,-0.03,-0.01,-0.00,30.99
38782189,1951,1,181269,224130,0.23,-0.67,9.94,-0.03,-0.01,-0.01,30.99
38822188,1947,1,181236,224300,0.24,-0.69,9.95,-0.03,-0.01,-0.00,30.99
38862189,1949,1,181338,224576,0.25,-0.68,9.96,-0.03,-0.01,-0.00,30.99
38902188,1945,1,181352,224268,0.24,-0.67,9.97,-0.03,-0.01,-0.01,30.99
38942190,1946,1,181041,222804,0.25,-0.67,9.97,-0.03,-0.01,-0.01,30.99
38982188,1951,1,180613,222111,0.25,-0.68,9.96,-0.03,-0.01,-0.01,30.99
39022199,1947,1,180558,222198,0.25,-0.67,9.94,-0.03,-0.01,-0.01,30.99
39062188,1947,1,180633,222368,0.23,-0.66,9.95,-0.03,-0.01,-0.01,30.99
39102190,1941,1,180702,222477,0.24,-0.67,9.94,-0.03,-0.01,-0.00,30.99
39142188,1945,1,180718,222776,0.23,-0.68,9.94,-0.03,-0.01,-0.01,30.99
39182190,1943,1,180901,223216,0.24,-0.68,9.95,-0.03,-0.01,-0.01,30.99
39222188,1952,1,181031,223327,0.25,-0.67,9.96,-0.03,-0.01,-0.00,30.99
39262189,1942,1,181035,223329,0.24,-0.69,9.92,-0.03,-0.01,-0.01,30.99
39302207,1938,1,181021,223401,0.24,-0.68,9.98,-0.03,-0.01,-0.00,30.99
39342189,1950,1,181079,223641,0.23,-0.67,9.99,-0.03,-0.01,-0.00,30.99
39382188,1943,1,181155,223726,0.26,-0.66,9.93,-0.03,-0.01,-0.01,30.99
39422190,1942,1,181200,223902,0.26,-0.67,9.98,-0.03,-0.01,-0.01,30.99
39462188,1939,1,181277,224184,0.25,-0.68,9.96,-0.03,-0.01,-0.01,30.99
39502236,1942,1,181352,224298,0.26,-0.67,9.96,-0.03,-0.01,-0.01,30.99
39542188,1946,1,181350,224481,0.25,-0.66,9.97,-0.03,-0.01,-0.01,30.99
39582189,1946,1,181484,224655,0.26,-0.68,9.94,-0.03,-0.01,-0.01,30.99
39622188,1951,1,181457,224016,0.26,-0.67,9.99,-0.03,-0.01,-0.01,30.99
39662190,1945,1,180923,222387,0.24,-0.68,9.96,-0.03,-0.01,-0.01,30.99
39702209,1934,1,180580,221903,0.25,-0.66,9.97,-0.03,-0.01,-0.00,30.99
39742875,1943,1,180530,221848,0.24,-0.68,9.96,-0.03,-0.01,-0.01,31.13
39783188,1949,1,180476,221825,0.27,-0.67,9.96,-0.03,-0.01,-0.00,31.13
39823189,1945,1,180534,221937,0.24,-0.68,9.96,-0.03,-0.01,-0.01,31.13
39863188,1953,1,180590,222393,0.26,-0.65,9.96,-0.03,-0.01,-0.01,31.13
39903190,1949,1,180720,222527,0.23,-0.69,9.97,-0.03,-0.01,-0.01,31.13
39943188,1950,1,180720,222611,0.25,-0.68,9.96,-0.03,-0.01,-0.01,31.13
39983190,1950,1,180755,222667,0.24,-0.70,9.98,-0.03,-0.01,-0.00,31.13
40023188,1941,1,180844,222870,0.25,-0.69,9.98,-0.03,-0.01,-0.01,31.13
40063190,1943,1,180933,223174,0.24,-0.67,9.96,-0.03,-0.01,-0.00,31.13
40103188,1943,1,181051,223426,0.24,-0.69,9.96,-0.03,-0.01,-0.01,31.13
40143190,1929,1,181069,223511,0.25,-0.67,9.96,-0.03,-0.01,-0.00,31.13
40183188,1932,1,181084,223677,0.24,-0.68,9.96,-0.03,-0.01,-0.00,31.13
40223189,1937,1,181172,223908,0.25,-0.68,9.96,-0.03,-0.01,-0.00,31.13
40263188,1947,1,181273,224219,0.25,-0.67,9.96,-0.03,-0.01,-0.00,31.13
40303190,1943,1,181295,224008,0.24,-0.68,9.97,-0.03,-0.01,-0.01,31.13
40343188,1938,1,181071,222726,0.24,-0.68,9.99,-0.03,-0.01,-0.01,31.13
40383190,1936,1,180573,221864,0.25,-0.66,9.97,-0.03,-0.01,-0.01,31.13
40423188,1941,1,180515,221886,0.25,-0.66,9.95,-0.03,-0.01,-0.01,31.13
40463189,1950,1,180538,221975,0.26,-0.66,9.95,-0.03,-0.01,-0.00,31.13
40503188,1947,1,180570,222036,0.23,-0.67,9.96,-0.03,-0.01,-0.01,31.13
40543189,1943,1,180628,222318,0.23,-0.68,9.94,-0.03,-0.01,-0.01,31.13
40583188,1946,1,180747,222597,0.24,-0.66,9.98,-0.03,-0.01,-0.01,31.13
40623189,1942,1,180750,222590,0.25,-0.68,9.96,-0.03,-0.01,-0.01,31.13
40663188,1938,1,180808,222707,0.23,-0.67,9.97,-0.03,-0.01,-0.00,31.13
40703189,1936,1,180894,222847,0.23,-0.67,9.98,-0.03,-0.01,-0.01,31.13
40743874,1933,1,180881,223071,0.25,-0.68,9.97,-0.03,-0.01,-0.01,30.97
40782190,1952,1,180986,223251,0.24,-0.68,9.95,-0.03,-0.01,-0.01,30.97
40822188,1941,1,181004,223453,0.24,-0.67,9.96,-0.03,-0.01,-0.00,30.97
40862190,1949,1,181103,223898,0.25,-0.67,9.96,-0.03,-0.01,-0.01,30.97
40902188,1949,1,181353,224435,0.23,-0.68,9.97,-0.03,-0.01,-0.00,30.97
40942189,1942,1,181517,224961,0.24,-0.66,9.98,-0.03,-0.01,-0.01,30.97
40982188,1942,1,181715,225125,0.25,-0.68,9.95,-0.03,-0.01,-0.00,30.97
41022198,1949,1,181432,223266,0.24,-0.66,9.98,-0.03,-0.01,-0.00,30.97
41062188,1936,1,180823,222250,0.25,-0.66,9.94,-0.03,-0.01,-0.01,30.97
41102189,1949,1,180724,222219,0.24,-0.68,9.96,-0.03,-0.01,-0.00,30.97
41142188,1945,1,180743,222347,0.25,-0.67,9.95,-0.03,-0.01,-0.01,30.97
41182190,1936,1,180768,222365,0.26,-0.69,9.97,-0.03,-0.01,-0.00,30.97
41222188,1942,1,180735,222585,0.23,-0.67,9.96,-0.03,-0.01,-0.01,30.97
41262190,1940,1,180863,222955,0.25,-0.70,9.95,-0.03,-0.01,-0.01,30.97
41302188,1947,1,180987,223053,0.25,-0.67,9.97,-0.03,-0.01,-0.01,30.97
41342189,1936,1,181038,223224,0.25,-0.66,9.98,-0.03,-0.01,-0.00,30.97
41382189,1936,1,181063,223249,0.27,-0.67,9.94,-0.03,-0.01,-0.00,30.97
41422189,1941,1,181066,223397,0.25,-0.67,9.95,-0.03,-0.01,-0.01,30.97
41462188,1937,1,181235,223754,0.25,-0.66,9.97,-0.03,-0.01,-0.01,30.97
41502190,1936,1,181305,223927,0.25,-0.67,9.95,-0.03,-0.01,-0.01,30.97
41542188,1958,1,181291,224020,0.25,-0.69,9.94,-0.03,-0.01,-0.01,30.97
41582189,1946,1,181291,224130,0.25,-0.66,9.94,-0.03,-0.01,-0.00,30.97
41622188,1947,1,181382,224350,0.25,-0.67,9.99,-0.03,-0.01,-0.01,30.97
41662190,1945,1,181420,224278,0.26,-0.68,9.98,-0.03,-0.01,-0.01,30.97
41702188,1939,1,181158,222833,0.24,-0.68,9.96,-0.03,-0.01,-0.00,30.97
41742189,1937,1,180725,222017,0.26,-0.67,9.97,-0.03,-0.01,-0.00,30.97
41782874,1941,1,180606,221967,0.26,-0.69,9.96,-0.03,-0.01,-0.01,30.81
41823190,1939,1,180624,222062,0.24,-0.68,9.96,-0.03,-0.01,-0.01,30.81
41863188,1936,1,180627,222155,0.25,-0.66,9.97,-0.03,-0.01,-0.01,30.81
41903190,1944,1,180636,222381,0.22,-0.66,9.97,-0.03,-0.01,-0.00,30.81
41943188,1936,1,180837,222697,0.24,-0.69,9.97,-0.03,-0.01,-0.01,30.81
41983189,1936,1,180847,222828,0.25,-0.67,9.95,-0.03,-0.01,-0.00,30.81
42023189,1939,1,180860,222933,0.27,-0.66,9.95,-0.03,-0.01,-0.01,30.81
42063190,1939,1,180883,223025,0.25,-0.67,9.94,-0.03,-0.01,-0.01,30.81
42103188,1939,1,180909,223141,0.25,-0.68,9.94,-0.03,-0.01,-0.01,30.81
42143189,1939,1,180928,223223,0.24,-0.67,9.96,-0.04,-0.01,-0.01,30.81
42183188,1941,1,180979,223483,0.23,-0.70,9.99,-0.03,-0.01,-0.01,30.81
42223189,1939,1,181125,223888,0.26,-0.68,9.92,-0.03,-0.01,-0.01,30.81
42263188,1933,1,181223,224147,0.24,-0.68,9.93,-0.03,-0.01,-0.01,30.81
42303190,1936,1,181277,224146,0.25,-0.66,9.96,-0.03,-0.01,-0.01,30.81
42343189,1937,1,181238,223640,0.24,-0.67,9.96,-0.03,-0.01,-0.00,30.81
42383189,1934,1,180795,222104,0.25,-0.66,9.95,-0.03,-0.01,-0.00,30.81
42423188,1937,1,180358,221438,0.25,-0.67,9.96,-0.03,-0.01,-0.00,30.81
42463190,1942,1,180307,221480,0.24,-0.66,9.98,-0.03,-0.01,-0.01,30.81
42503188,1941,1,180366,221594,0.25,-0.68,9.94,-0.03,-0.01,-0.00,30.81
42543189,1950,1,180397,221631,0.27,-0.68,9.97,-0.03,-0.01,-0.01,30.81
42583188,1937,1,180349,222023,0.24,-0.69,9.97,-0.03,-0.01,-0.01,30.81
42623190,1936,1,180540,222280,0.24,-0.67,9.96,-0.03,-0.01,-0.01,30.81
42663188,1939,1,180507,222215,0.26,-0.69,9.99,-0.03,-0.01,-0.01,30.81
42703189,1941,1,180544,222172,0.24,-0.68,9.95,-0.03,-0.01,-0.00,30.81
42743188,1940,1,180508,222267,0.25,-0.69,9.97,-0.03,-0.01,-0.01,30.81
42783886,1940,1,180558,222490,0.25,-0.67,9.96,-0.03,-0.01,-0.01,30.87
42822188,1936,1,180595,222634,0.25,-0.68,9.93,-0.03,-0.01,-0.00,30.87
42862190,1951,1,180670,222984,0.26,-0.69,9.98,-0.03,-0.01,-0.00,30.87
42902188,1947,1,180793,223301,0.24,-0.68,9.97,-0.03,-0.01,-0.00,30.87
42942189,1946,1,180944,223548,0.25,-0.67,9.94,-0.03,-0.01,-0.01,30.87
42982220,1935,1,180927,223448,0.24,-0.68,9.95,-0.03,-0.01,-0.01,30.87
43022199,1950,1,180624,221976,0.26,-0.67,9.96,-0.03,-0.01,-0.01,30.87
43062188,1946,1,180125,221039,0.25,-0.68,9.96,-0.03,-0.01,-0.01,30.87
43102190,1952,1,179928,220832,0.27,-0.67,9.98,-0.03,-0.01,-0.00,30.87
43142188,1949,1,179872,220833,0.26,-0.67,9.96,-0.03,-0.01,-0.00,30.87
43182189,1941,1,179876,220775,0.23,-0.68,9.94,-0.03,-0.01,-0.01,30.87
43222188,1939,1,179904,221035,0.25,-0.68,9.96,-0.03,-0.01,-0.01,30.87
43262190,1943,1,179997,221212,0.26,-0.69,9.96,-0.03,-0.01,-0.01,30.87
43302188,1936,1,179940,221205,0.23,-0.68,9.96,-0.03,-0.01,-0.01,30.87
43342190,1936,1,179985,221278,0.27,-0.67,9.97,-0.03,-0.01,-0.01,30.87
43382188,1938,1,179983,221438,0.22,-0.69,9.96,-0.03,-0.01,-0.01,30.87
43422190,1936,1,180063,221618,0.23,-0.67,9.95,-0.03,-0.01,-0.01,30.87
43462188,1936,1,180137,221792,0.27,-0.67,9.98,-0.03,-0.01,-0.01,30.87
43502190,1929,1,180255,222123,0.26,-0.68,9.95,-0.03,-0.01,-0.01,30.87
43542188,1934,1,180340,222369,0.26,-0.68,9.96,-0.03,-0.01,-0.00,30.87
43582189,1938,1,180465,222632,0.24,-0.66,9.95,-0.03,-0.01,-0.01,30.87
43622188,1942,1,180535,222532,0.26,-0.68,9.95,-0.03,-0.01,-0.01,30.87
43662190,1957,1,180289,221404,0.24,-0.68,9.95,-0.03,-0.01,-0.01,30.87
43702188,1943,1,179938,220870,0.25,-0.68,9.96,-0.03,-0.01,-0.01,30.87
43742190,1959,1,179902,220968,0.25,-0.68,9.95,-0.03,-0.01,-0.01,30.87
43782188,1967,1,179918,220911,0.27,-0.68,9.98,-0.03,-0.01,-0.00,30.87
43822875,1945,1,179933,221229,0.22,-0.67,9.93,-0.03,-0.01,-0.01,30.87
43863188,1954,1,180013,221642,0.28,-0.67,9.99,-0.03,-0.01,-0.01,30.87
43903190,1966,1,180147,221807,0.23,-0.66,9.99,-0.03,-0.01,-0.01,30.87
43943188,1954,1,180158,221796,0.25,-0.66,9.92,-0.03,-0.01,-0.01,30.87
43983190,1957,1,180169,221916,0.28,-0.67,9.96,-0.03,-0.01,-0.00,30.87
44023188,1958,1,180235,222077,0.24,-0.65,9.96,-0.03,-0.01,-0.01,30.87
44063190,1947,1,180239,222173,0.25,-0.68,9.96,-0.03,-0.01,-0.00,30.87
44103188,1952,1,180301,222356,0.26,-0.67,9.97,-0.03,-0.01,-0.00,30.87
44143190,1968,1,180390,222586,0.25,-0.66,9.97,-0.03,-0.01,-0.00,30.87
44183188,1964,1,180445,222860,0.25,-0.66,9.96,-0.03,-0.01,-0.01,30.87
44223190,1963,1,180540,222896,0.26,-0.67,9.94,-0.03,-0.01,-0.01,30.87
44263188,1962,1,180417,222018,0.24,-0.68,9.97,-0.03,-0.01,-0.01,30.87
44303189,1965,1,179937,220908,0.26,-0.66,9.96,-0.03,-0.01,-0.01,30.87
44343188,1948,1,179757,220615,0.24,-0.67,9.98,-0.03,-0.01,-0.01,30.87
44383190,1955,1,179681,220631,0.24,-0.70,9.97,-0.03,-0.01,-0.01,30.87
44423220,1955,1,179696,220683,0.24,-0.67,9.97,-0.03,-0.01,-0.00,30.87
44463189,1951,1,179693,220841,0.26,-0.68,9.96,-0.03,-0.01,-0.00,30.87
44503188,1949,1,179780,221125,0.26,-0.68,9.96,-0.03,-0.01,-0.00,30.87
44543189,1951,1,179880,221367,0.24,-0.66,9.97,-0.03,-0.01,-0.01,30.87
44583188,1950,1,179958,221508,0.26,-0.65,9.96,-0.03,-0.01,-0.01,30.87
44623202,1955,1,179980,221590,0.25,-0.66,9.94,-0.03,-0.01,-0.01,30.87
44663188,1949,1,180013,221740,0.24,-0.68,9.95,-0.03,-0.01,-0.00,30.87
44703189,1945,1,180107,221916,0.23,-0.68,9.96,-0.03,-0.01,-0.00,30.87
44743188,1959,1,180133,222042,0.24,-0.68,9.94,-0.03,-0.01,-0.01,30.87
44783189,1945,1,180185,222171,0.26,-0.66,9.96,-0.03,-0.01,-0.01,30.87
44823874,1942,1,180216,222212,0.26,-0.67,9.93,-0.03,-0.01,-0.00,30.79
44862189,1951,1,180287,222159,0.25,-0.68,9.96,-0.03,-0.01,-0.00,30.79
44902188,1937,1,180083,221148,0.25,-0.68,9.99,-0.03,-0.01,-0.00,30.79
44942189,1937,1,179608,220087,0.25,-0.67,9.96,-0.03,-0.01,-0.00,30.79
44982188,1936,1,179430,219743,0.23,-0.67,9.97,-0.03,-0.01,-0.00,30.79
45022198,1939,1,179319,219631,0.24,-0.67,9.97,-0.03,-0.01,-0.00,30.79
45061188,1977,1,179310,219556,0.27,-0.67,9.96,-0.03,-0.01,-0.01,30.79
45101189,1982,1,179319,219770,0.25,-0.67,9.96,-0.03,-0.01,-0.00,30.79
45141188,1978,1,179386,219919,0.26,-0.68,9.95,-0.03,-0.01,-0.00,30.79
45181189,1968,1,179423,220005,0.25,-0.67,9.96,-0.03,-0.01,-0.00,30.79
45221188,1974,1,179449,220142,0.26,-0.68,9.97,-0.03,-0.01,-0.00,30.79
45261189,1978,1,179514,220300,0.25,-0.66,9.95,-0.03,-0.01,-0.01,30.79
45301188,1969,1,179645,220539,0.24,-0.66,9.96,-0.03,-0.01,-0.01,30.79
45341190,1968,1,179659,220682,0.25,-0.67,9.98,-0.03,-0.01,-0.00,30.79
45381188,1989,1,179728,220902,0.24,-0.69,9.97,-0.03,-0.01,-0.01,30.79
45421190,1980,1,179871,221092,0.25,-0.69,9.96,-0.03,-0.01,-0.01,30.79
45461188,1975,1,180014,221455,0.27,-0.68,9.94,-0.03,-0.01,-0.01,30.79
45501190,1968,1,180152,221890,0.25,-0.68,9.96,-0.03,-0.01,-0.01,30.79
45541188,1967,1,180141,221247,0.22,-0.67,9.96,-0.03,-0.01,-0.00,30.79
45581189,1968,1,179684,219916,0.25,-0.67,9.97,-0.03,-0.01,-0.01,30.79
45621188,1955,1,179402,219590,0.25,-0.67,9.93,-0.03,-0.01,-0.01,30.79
45661190,1965,1,179377,219628,0.23,-0.67,9.98,-0.03,-0.01,-0.01,30.79
45701188,1967,1,179447,219815,0.22,-0.68,9.98,-0.03,-0.01,-0.00,30.79
45741189,1974,1,179430,219788,0.25,-0.69,9.97,-0.03,-0.01,-0.01,30.79
45781188,1967,1,179548,220193,0.25,-0.67,9.97,-0.03,-0.01,-0.01,30.79
45821190,1966,1,179654,220347,0.23,-0.68,9.97,-0.03,-0.01,-0.01,30.79
45861873,1927,1,179665,220413,0.25,-0.67,9.96,-0.03,-0.01,-0.01,30.73
45902190,1937,1,179757,220502,0.24,-0.67,9.95,-0.03,-0.01,-0.01,30.73
45942188,1948,1,179787,220636,0.24,-0.68,9.94,-0.03,-0.01,-0.01,30.73
45982189,1936,1,179865,220902,0.25,-0.68,9.98,-0.03,-0.01,-0.01,30.73
46022196,1948,1,179887,221051,0.26,-0.67,9.98,-0.03,-0.01,-0.01,30.73
46061189,1966,1,179929,221152,0.25,-0.65,9.94,-0.03,-0.01,-0.01,30.73
46101188,1965,1,180084,221498,0.25,-0.66,9.94,-0.03,-0.01,-0.00,30.73
46141189,1963,1,180143,221595,0.26,-0.68,9.96,-0.03,-0.01,-0.01,30.73
46181188,1965,1,180011,220625,0.26,-0.66,9.96,-0.03,-0.01,-0.00,30.73
46221189,1968,1,179530,219520,0.25,-0.68,9.97,-0.03,-0.01,-0.01,30.73
46261209,1966,1,179370,219430,0.23,-0.68,9.95,-0.03,-0.01,-0.01,30.73
46301189,1964,1,179379,219600,0.24,-0.67,9.94,-0.03,-0.01,-0.00,30.73
46341188,1954,1,179369,219556,0.26,-0.67,9.96,-0.03,-0.01,-0.00,30.73
46381189,1965,1,179364,219676,0.27,-0.68,9.94,-0.03,-0.01,-0.01,30.73
46421188,1957,1,179498,219992,0.26,-0.69,9.95,-0.03,-0.01,-0.01,30.73
46461203,1943,1,179559,220191,0.24,-0.67,9.93,-0.03,-0.01,-0.01,30.73
46501188,1953,1,179612,220357,0.26,-0.66,9.97,-0.03,-0.01,-0.01,30.73
46541190,1968,1,179620,220465,0.23,-0.66,9.93,-0.03,-0.01,-0.00,30.73
46581188,1955,1,179756,220803,0.26,-0.68,9.97,-0.03,-0.01,-0.00,30.73
46621189,1957,1,179826,221118,0.25,-0.68,9.97,-0.03,-0.01,-0.01,30.73
46661188,1953,1,179934,221153,0.27,-0.68,9.96,-0.03,-0.01,-0.01,30.73
46701190,1949,1,179816,220951,0.26,-0.67,9.96,-0.03,-0.01,-0.01,30.73
46741188,1960,1,179766,220897,0.25,-0.67,9.95,-0.03,-0.01,-0.01,30.73
46781189,1962,1,179763,220770,0.25,-0.67,9.97,-0.03,-0.01,-0.01,30.73
46821188,1958,1,179665,220215,0.27,-0.67,9.98,-0.03,-0.01,-0.00,30.73
46861189,1951,1,179250,218920,0.24,-0.67,9.97,-0.03,-0.01,-0.00,30.73
46901874,1938,1,178913,218309,0.28,-0.68,9.96,-0.03,-0.01,-0.00,30.73
46942189,1943,1,178795,218340,0.27,-0.67,9.94,-0.03,-0.01,-0.01,30.73
46982188,1937,1,178816,218501,0.24,-0.67,9.95,-0.03,-0.01,-0.01,30.73
47022198,1950,1,178984,218889,0.23,-0.68,9.96,-0.03,-0.01,-0.01,30.73
47062188,1943,1,179152,219279,0.23,-0.67,9.95,-0.03,-0.01,-0.01,30.73
47101189,1968,1,179242,219339,0.26,-0.67,9.98,-0.03,-0.01,-0.01,30.73
47141188,1959,1,179213,219232,0.25,-0.67,9.94,-0.03,-0.01,-0.00,30.73
47181189,1964,1,179235,219423,0.25,-0.68,9.95,-0.03,-0.01,-0.00,30.73
47221188,1953,1,179292,219586,0.25,-0.68,9.94,-0.03,-0.01,-0.01,30.73
47261189,1955,1,179324,219592,0.25,-0.68,9.96,-0.03,-0.01,-0.00,30.73
47301188,1951,1,179298,219766,0.26,-0.66,9.95,-0.03,-0.01,-0.00,30.73
47341189,1955,1,179455,220109,0.26,-0.68,9.95,-0.03,-0.01,-0.01,30.73
47381188,1962,1,179535,220408,0.25,-0.66,9.96,-0.03,-0.01,-0.00,30.73
47421189,1943,1,179729,221024,0.25,-0.66,9.97,-0.04,-0.01,-0.01,30.73
47461188,1953,1,179911,221430,0.26,-0.68,9.97,-0.04,-0.01,-0.01,30.73
47501190,1949,1,179927,220681,0.24,-0.68,9.98,-0.03,-0.01,-0.01,30.73
47541188,1957,1,179488,219520,0.25,-0.66,9.95,-0.03,-0.01,-0.01,30.73
47581190,1959,1,179194,219324,0.25,-0.67,9.95,-0.03,-0.01,-0.01,30.73
47621188,1955,1,179170,219293,0.24,-0.68,9.97,-0.03,-0.01,-0.01,30.73
47661189,1954,1,179176,219423,0.25,-0.67,9.97,-0.03,-0.01,-0.01,30.73
47701188,1951,1,179160,219739,0.23,-0.68,9.96,-0.03,-0.01,-0.01,30.73
47741190,1952,1,179337,220137,0.26,-0.69,9.95,-0.03,-0.01,-0.01,30.73
47781188,1957,1,179400,220164,0.26,-0.67,9.96,-0.03,-0.01,-0.01,30.73
47821189,1942,1,179388,220135,0.24,-0.68,9.99,-0.03,-0.01,-0.00,30.73
47861188,1946,1,179323,220053,0.25,-0.66,9.96,-0.03,-0.02,-0.01,30.73
47901210,1958,1,179460,220446,0.28,-0.66,9.95,-0.03,-0.01,-0.01,30.73
47941874,1938,1,179618,220519,0.25,-0.67,10.00,-0.03,-0.01,-0.01,30.45
47982189,1941,1,179447,220071,0.26,-0.66,9.99,-0.03,-0.02,-0.00,30.45
48022197,1955,1,179392,219828,0.27,-0.66,9.94,-0.03,-0.02,-0.00,30.45
48062189,1946,1,179369,219823,0.28,-0.66,9.95,-0.03,-0.01,-0.00,30.45
48102224,1939,1,179395,219960,0.26,-0.67,9.97,-0.03,-0.01,-0.01,30.45
48142190,1942,1,179411,220065,0.25,-0.70,9.97,-0.04,-0.01,-0.01,30.45
48182188,1943,1,179411,219495,0.25,-0.68,9.99,-0.03,-0.01,-0.00,30.45
48222189,1945,1,179033,218697,0.25,-0.66,9.95,-0.03,-0.01,-0.01,30.45
48262188,1935,1,179036,218959,0.27,-0.68,9.93,-0.03,-0.01,-0.01,30.45
48302190,1942,1,179276,219950,0.25,-0.68,9.93,-0.03,-0.00,-0.01,30.45
48342188,1941,1,179675,221214,0.24,-0.68,9.97,-0.04,0.01,-0.01,30.45
48382173,1937,1,180116,222517,0.24,-0.66,9.97,-0.03,-0.01,-0.00,30.45
48422188,1943,1,180489,222921,0.24,-0.68,9.97,-0.03,-0.00,-0.01,30.45
48462189,1937,1,180347,222670,0.24,-0.67,9.91,-0.03,-0.01,-0.00,30.45
48502188,1939,1,180133,222050,0.26,-0.66,9.97,-0.03,-0.02,-0.00,30.45
48542189,1955,1,180049,221916,0.26,-0.68,9.99,-0.03,-0.01,-0.01,30.45
48582188,1946,1,180019,221985,0.25,-0.64,9.94,-0.03,-0.01,-0.01,30.45
48622189,1943,1,180051,222067,0.25,-0.66,9.92,-0.03,-0.01,-0.00,30.45
48662188,1950,1,180104,222001,0.26,-0.69,9.98,-0.03,-0.01,-0.00,30.45
48702189,1938,1,180066,222013,0.26,-0.65,9.95,-0.03,-0.01,-0.01,30.45
48742188,1946,1,180081,222186,0.23,-0.66,9.95,-0.03,-0.01,-0.01,30.45
48782190,1947,1,180195,222466,0.26,-0.69,9.98,-0.03,-0.01,-0.00,30.45
48822188,1949,1,180164,221744,0.23,-0.66,9.99,-0.03,-0.01,-0.01,30.45
48862190,1936,1,179803,220593,0.23,-0.69,9.94,-0.03,-0.01,-0.01,30.45
48902188,1937,1,179499,220191,0.25,-0.70,9.97,-0.03,-0.01,-0.00,30.45
48942875,1934,1,179446,220258,0.26,-0.67,9.95,-0.03,-0.01,-0.01,30.81
48981188,1946,1,179440,220329,0.23,-0.66,9.97,-0.03,-0.01,-0.01,30.81
49021190,1943,1,179483,220534,0.22,-0.68,9.97,-0.03,-0.01,-0.01,30.81
49061188,1949,1,179593,220921,0.26,-0.67,9.98,-0.03,-0.01,-0.01,30.81
49101190,1947,1,179724,220845,0.23,-0.68,9.97,-0.03,-0.01,-0.00,30.81
49141188,1939,1,179570,220587,0.25,-0.67,9.93,-0.03,-0.02,-0.00,30.81
49181189,1944,1,179599,220657,0.24,-0.68,9.96,-0.03,-0.01,-0.00,30.81
49221188,1953,1,179621,220769,0.24,-0.67,9.96,-0.03,-0.01,-0.00,30.81
49261189,1949,1,179752,220924,0.25,-0.68,9.96,-0.04,-0.01,-0.01,30.81
49301188,1945,1,179703,220871,0.27,-0.67,10.00,-0.03,-0.01,-0.00,30.81
49341189,1951,1,179753,220865,0.25,-0.68,9.96,-0.03,-0.01,-0.01,30.81
49381188,1948,1,179791,220943,0.25,-0.68,9.96,-0.03,-0.01,-0.00,30.81
49421189,1937,1,179829,221038,0.24,-0.68,9.97,-0.03,-0.01,-0.00,30.81
49461188,1946,1,179750,220593,0.25,-0.66,9.98,-0.03,-0.01,-0.01,30.81
49501190,1945,1,179376,219185,0.26,-0.66,9.94,-0.03,-0.01,-0.01,30.81
49541197,1955,1,179035,218775,0.28,-0.66,9.96,-0.04,-0.01,-0.00,30.81
49581189,1938,1,178948,218887,0.25,-0.68,9.97,-0.03,-0.01,-0.01,30.81
49621188,1953,1,179020,218967,0.24,-0.69,9.98,-0.03,-0.01,-0.01,30.81
49661189,1941,1,179066,219251,0.25,-0.67,9.95,-0.03,-0.01,-0.01,30.81
49701188,1942,1,179304,219919,0.25,-0.66,9.94,-0.03,-0.01,-0.01,30.81
49741201,1943,1,179429,220123,0.26,-0.66,9.95,-0.03,-0.01,-0.01,30.81
49781188,1946,1,179476,219893,0.27,-0.65,10.01,-0.03,-0.01,-0.01,30.81
49821190,1943,1,179381,219564,0.26,-0.67,9.97,-0.03,-0.02,-0.00,30.81
49861188,1941,1,179266,219400,0.26,-0.66,9.93,-0.03,-0.01,-0.00,30.81
49901189,1950,1,179240,219525,0.26,-0.66,9.97,-0.03,-0.01,-0.01,30.81
49941188,1943,1,179309,219636,0.25,-0.67,9.97,-0.03,-0.01,-0.01,30.81
49981875,1939,1,179351,219863,0.25,-0.68,9.98,-0.03,-0.01,-0.01,30.93
50022196,1951,1,179440,220508,0.24,-0.68,9.95,-0.04,-0.01,-0.01,30.93
50062190,1942,1,179744,221147,0.27,-0.67,9.97,-0.03,-0.01,-0.01,30.93
50102188,1941,1,179877,220820,0.25,-0.67,9.94,-0.03,-0.01,-0.01,30.93
50142190,1938,1,179455,219439,0.25,-0.67,10.00,-0.03,-0.01,-0.01,30.93
50182188,1947,1,179122,218948,0.25,-0.66,9.96,-0.03,-0.01,-0.00,30.93
50222189,1954,1,179039,218858,0.25,-0.66,9.97,-0.03,-0.01,-0.00,30.93
50262188,1940,1,179164,218822,0.24,-0.67,9.96,-0.03,-0.01,-0.01,30.93
50302189,1939,1,179017,218592,0.25,-0.67,9.98,-0.03,-0.01,-0.01,30.93
50342188,1936,1,179028,218662,0.25,-0.66,9.97,-0.03,-0.01,-0.00,30.93
50382189,1945,1,179026,218635,0.28,-0.67,9.96,-0.03,-0.02,-0.00,30.93
50422188,1942,1,179078,218855,0.26,-0.67,9.96,-0.03,-0.01,-0.01,30.93
50462190,1949,1,179140,218874,0.24,-0.68,9.99,-0.03,-0.01,-0.01,30.93
50502189,1939,1,179097,218863,0.26,-0.65,9.96,-0.03,-0.02,-0.00,30.93
50542189,1950,1,179181,218933,0.28,-0.67,9.94,-0.03,-0.01,-0.01,30.93
50582188,1943,1,179450,220213,0.28,-0.68,9.96,-0.04,-0.01,-0.01,30.93
50622189,1937,1,180174,222234,0.23,-0.68,9.96,-0.04,0.02,-0.01,30.93
50662168,1934,1,180685,222950,0.23,-0.67,9.99,-0.03,-0.01,-0.00,30.93
50702189,1933,1,180721,222865,0.25,-0.66,9.97,-0.03,-0.01,-0.00,30.93
50742188,1940,1,180651,221869,0.28,-0.68,9.96,-0.03,-0.02,-0.00,30.93
50782189,1949,1,179972,219984,0.28,-0.65,9.96,-0.03,-0.01,-0.01,30.93
50822188,1936,1,179440,219097,0.27,-0.67,9.97,-0.03,-0.01,-0.00,30.93
50862189,1946,1,179321,218911,0.25,-0.65,9.95,-0.03,-0.02,-0.01,30.93
50902188,1936,1,179449,219362,0.24,-0.65,9.99,-0.03,-0.01,-0.01,30.93
50942189,1939,1,179565,219498,0.23,-0.67,9.99,-0.03,-0.01,-0.01,30.93
50982874,1951,1,179540,219449,0.27,-0.68,9.94,-0.03,-0.02,-0.00,30.87
51021189,1943,1,179512,219566,0.28,-0.67,9.94,-0.03,-0.01,-0.01,30.87
51061188,1946,1,179642,219919,0.26,-0.67,9.96,-0.04,-0.00,-0.01,30.87
51101189,1953,1,179813,220325,0.25,-0.68,9.95,-0.04,-0.01,-0.00,30.87
51141188,1943,1,179917,220503,0.26,-0.67,9.94,-0.03,-0.01,-0.01,30.87
51181190,1925,1,179863,220293,0.23,-0.68,9.95,-0.03,-0.01,-0.01,30.87
51221188,1938,1,179768,220248,0.25,-0.67,9.97,-0.03,-0.01,-0.00,30.87
51261189,1936,1,179729,220469,0.26,-0.67,9.95,-0.03,-0.01,-0.00,30.87
51301188,1946,1,179918,220580,0.23,-0.68,9.96,-0.03,-0.01,-0.00,30.87
51341189,1936,1,179879,220596,0.26,-0.68,9.96,-0.04,-0.01,-0.01,30.87
51381188,1943,1,179823,219753,0.28,-0.66,9.99,-0.03,-0.01,-0.01,30.87
51421190,1957,1,179381,218861,0.23,-0.65,9.93,-0.03,-0.01,-0.00,30.87
51461188,1945,1,179153,218566,0.27,-0.68,9.94,-0.03,-0.01,-0.00,30.87
51501189,1955,1,179134,218274,0.27,-0.68,10.00,-0.03,-0.01,-0.00,30.87
51541188,1950,1,179057,218318,0.24,-0.68,9.97,-0.03,-0.01,-0.01,30.87
51581206,1946,1,179093,218714,0.23,-0.67,9.93,-0.03,-0.01,-0.01,30.87
51621188,1942,1,179215,219348,0.24,-0.69,9.95,-0.04,-0.01,-0.01,30.87
51661190,1951,1,179395,219745,0.27,-0.66,9.96,-0.04,-0.01,-0.01,30.87
51701188,1938,1,179614,220187,0.24,-0.68,9.94,-0.04,-0.00,-0.01,30.87
51741189,1937,1,179721,220265,0.24,-0.68,9.98,-0.03,-0.01,-0.00,30.87
51781188,1934,1,179566,219986,0.25,-0.66,9.94,-0.03,-0.02,-0.00,30.87
51821189,1950,1,179489,219830,0.23,-0.67,10.00,-0.03,-0.01,-0.01,30.87
51861188,1947,1,179555,220021,0.27,-0.68,9.95,-0.03,-0.01,-0.00,30.87
51901189,1947,1,179568,220349,0.25,-0.67,9.96,-0.03,-0.01,-0.00,30.87
51941188,1937,1,179736,220524,0.25,-0.67,9.96,-0.03,-0.01,-0.01,30.87
51981190,1942,1,179715,220081,0.24,-0.67,9.98,-0.03,-0.01,-0.01,30.87
52021877,1937,1,179372,218987,0.24,-0.68,9.95,-0.03,-0.01,-0.00,30.63
52062189,1951,1,179097,218558,0.26,-0.68,9.96,-0.03,-0.01,-0.00,30.63
52102188,1952,1,178988,218344,0.26,-0.69,9.94,-0.03,-0.01,-0.01,30.63
52142189,1943,1,178903,218289,0.23,-0.67,9.95,-0.03,-0.01,-0.00,30.63
52182188,1943,1,179027,218750,0.25,-0.67,9.96,-0.03,-0.01,-0.01,30.63
52222189,1949,1,179258,219457,0.24,-0.68,9.94,-0.03,-0.01,-0.01,30.63
52262188,1940,1,179462,219927,0.25,-0.68,9.97,-0.03,-0.01,-0.01,30.63
52302190,1947,1,179536,219639,0.23,-0.68,9.96,-0.03,-0.01,-0.00,30.63
52342188,1941,1,179293,218929,0.27,-0.66,9.94,-0.03,-0.02,-0.00,30.63
52382189,1945,1,179015,218780,0.27,-0.65,9.93,-0.03,-0.01,-0.00,30.63
52422188,1943,1,179176,219595,0.25,-0.67,9.98,-0.04,0.00,-0.01,30.63
52462173,1954,1,179547,220474,0.25,-0.68,9.96,-0.03,-0.01,-0.01,30.63
52502188,1938,1,179870,221387,0.27,-0.70,9.96,-0.03,-0.01,-0.01,30.63
52542189,1945,1,180387,223122,0.26,-0.69,9.95,-0.04,-0.01,-0.01,30.63
52582188,1945,1,181030,224309,0.21,-0.67,10.00,-0.03,0.00,-0.01,30.63
52622173,1948,1,180902,222307,0.26,-0.66,9.96,-0.03,-0.02,-0.00,30.63
52662188,1951,1,180016,220666,0.26,-0.67,9.94,-0.03,-0.01,-0.01,30.63
52702190,1945,1,179680,220122,0.23,-0.68,9.96,-0.03,-0.01,-0.00,30.63
52742188,1936,1,179527,219843,0.22,-0.68,9.95,-0.03,-0.01,-0.01,30.63
52782190,1950,1,179366,219431,0.25,-0.67,9.98,-0.03,-0.02,-0.00,30.63
52822188,1935,1,179274,219333,0.27,-0.68,9.97,-0.03,-0.02,-0.00,30.63
52862189,1936,1,179224,219261,0.28,-0.67,9.96,-0.03,-0.01,-0.00,30.63
52902188,1939,1,179263,219276,0.24,-0.65,9.96,-0.03,-0.01,-0.01,30.63
52942189,1946,1,179279,219537,0.25,-0.69,9.96,-0.03,-0.01,-0.01,30.63
52982188,1945,1,179499,220065,0.26,-0.68,9.95,-0.03,-0.01,-0.01,30.63
53022938,1938,1,179658,220636,0.25,-0.66,9.98,-0.04,-0.01,-0.01,30.85
53061188,1934,1,179764,220647,0.23,-0.67,9.97,-0.03,-0.01,-0.00,30.85
53101189,1937,1,179720,220490,0.25,-0.68,9.98,-0.03,-0.01,-0.00,30.85
53141188,1933,1,179721,220384,0.24,-0.67,9.97,-0.03,-0.01,-0.00,30.85
53181189,1939,1,179615,220247,0.24,-0.66,9.96,-0.03,-0.01,-0.01,30.85
53221221,1936,1,179597,220222,0.26,-0.68,9.93,-0.03,-0.01,-0.01,30.85
53261189,1936,1,179579,219627,0.25,-0.67,9.97,-0.03,-0.01,-0.01,30.85
53301188,1942,1,179303,219023,0.22,-0.66,9.96,-0.04,-0.01,-0.00,30.85
53341190,1938,1,179149,219048,0.23,-0.68,9.96,-0.03,-0.01,-0.01,30.85
53381188,1943,1,179161,218915,0.25,-0.69,9.97,-0.03,-0.01,-0.01,30.85
53421189,1949,1,179100,218639,0.24,-0.67,9.97,-0.03,-0.01,-0.00,30.85
53461188,1943,1,179016,218603,0.27,-0.67,9.97,-0.03,-0.01,-0.00,30.85
53501190,1945,1,179041,218766,0.24,-0.67,9.97,-0.03,-0.01,-0.01,30.85
53541188,1941,1,179029,218724,0.25,-0.67,9.99,-0.03,-0.01,-0.01,30.85
53581190,1941,1,179031,218863,0.26,-0.68,9.95,-0.03,-0.01,-0.00,30.85
53621188,1936,1,179257,219487,0.24,-0.68,9.95,-0.03,-0.00,-0.01,30.85
53661189,1936,1,179462,219887,0.25,-0.65,10.00,-0.03,-0.01,-0.00,30.85
53701188,1935,1,179521,219965,0.26,-0.69,9.95,-0.03,-0.01,-0.01,30.85
53741189,1939,1,179596,219938,0.26,-0.70,9.98,-0.03,-0.01,-0.00,30.85
53781188,1941,1,179632,220196,0.25,-0.67,9.94,-0.03,-0.01,-0.01,30.85
53821189,1950,1,179750,220534,0.24,-0.67,9.97,-0.04,-0.01,-0.01,30.85
53861188,1942,1,179861,220817,0.26,-0.68,9.98,-0.04,-0.01,-0.00,30.85
53901189,1939,1,179909,220242,0.26,-0.66,9.94,-0.03,-0.01,-0.01,30.85
53941188,1940,1,179466,219239,0.26,-0.65,9.93,-0.03,-0.01,-0.01,30.85
53981189,1939,1,179266,218934,0.25,-0.68,9.96,-0.03,-0.01,-0.01,30.85
54021188,1937,1,179234,218906,0.26,-0.67,9.96,-0.03,-0.01,-0.01,30.85
54061875,1937,1,179221,219066,0.26,-0.66,9.98,-0.03,-0.01,-0.01,30.81
54102188,1942,1,179236,219379,0.23,-0.67,9.96,-0.03,-0.01,-0.00,30.81
54142190,1936,1,179284,219406,0.26,-0.67,9.95,-0.03,-0.01,-0.00,30.81
54182188,1936,1,179279,219847,0.26,-0.68,9.94,-0.04,-0.01,-0.01,30.81
54222190,1943,1,179595,220652,0.24,-0.67,9.95,-0.04,-0.01,-0.01,30.81
54262188,1944,1,179817,220782,0.25,-0.68,9.99,-0.03,-0.01,-0.01,30.81
54302189,1951,1,179801,220727,0.25,-0.66,9.95,-0.03,-0.01,-0.00,30.81
54342188,1925,1,179728,220894,0.25,-0.68,9.96,-0.03,-0.01,-0.00,30.81
54382189,1953,1,179850,221177,0.27,-0.66,9.94,-0.03,-0.01,-0.01,30.81
54422188,1943,1,179916,221216,0.26,-0.67,9.96,-0.03,-0.01,-0.01,30.81
54462190,1945,1,179910,221170,0.26,-0.66,9.97,-0.03,-0.01,-0.01,30.81
54502188,1961,1,179846,220654,0.23,-0.66,9.97,-0.03,-0.01,-0.00,30.81
54542189,1951,1,179446,219109,0.26,-0.67,9.95,-0.03,-0.02,-0.00,30.81
54582188,1940,1,178978,218395,0.25,-0.68,9.95,-0.03,-0.01,-0.01,30.81
54622189,1958,1,178899,218435,0.24,-0.68,9.93,-0.03,-0.01,-0.00,30.81
54662197,1963,1,178948,218583,0.25,-0.66,9.96,-0.03,-0.01,-0.01,30.81
54702190,1962,1,178968,218327,0.26,-0.68,9.99,-0.03,-0.01,-0.00,30.81
54742188,1948,1,178867,218461,0.24,-0.66,9.96,-0.03,-0.01,-0.00,30.81
54782189,1957,1,178893,218163,0.25,-0.66,9.94,-0.03,-0.01,-0.00,30.81
54822188,1955,1,178748,217925,0.25,-0.67,9.93,-0.03,-0.02,-0.00,30.81
54862221,1950,1,178794,218082,0.26,-0.66,9.97,-0.03,-0.01,-0.01,30.81
54902188,1942,1,178829,218624,0.25,-0.69,9.98,-0.04,-0.01,-0.00,30.81
54942190,1955,1,179126,219055,0.25,-0.67,9.96,-0.04,-0.01,-0.00,30.81
54982188,1953,1,179195,219052,0.25,-0.68,9.96,-0.03,-0.01,-0.00,30.81
55022198,1962,1,179222,218961,0.26,-0.65,9.97,-0.03,-0.01,-0.00,30.81
55062896,1941,1,179231,218879,0.26,-0.68,9.93,-0.03,-0.01,-0.01,30.77
55101190,1941,1,179083,218838,0.24,-0.66,9.97,-0.03,-0.01,-0.01,30.77
55141188,1945,1,179115,218555,0.27,-0.66,9.96,-0.03,-0.01,-0.00,30.77
55181190,1949,1,178946,218000,0.27,-0.68,9.96,-0.04,-0.00,-0.01,30.77
55221188,1951,1,178735,217747,0.25,-0.67,9.94,-0.03,-0.01,-0.00,30.77
55261189,1952,1,178645,217424,0.26,-0.68,9.95,-0.03,-0.01,-0.00,30.77
55301188,1955,1,178536,217569,0.24,-0.67,10.00,-0.03,-0.01,-0.01,30.77
55341189,1957,1,178721,218091,0.28,-0.69,9.94,-0.03,-0.01,-0.01,30.77
55381188,1947,1,178936,218558,0.26,-0.69,9.96,-0.03,-0.01,-0.01,30.77
55421189,1948,1,179048,218507,0.28,-0.69,9.98,-0.03,-0.01,-0.01,30.77
55461188,1944,1,178892,218283,0.24,-0.65,9.97,-0.03,-0.01,-0.01,30.77
55501190,1958,1,178873,218286,0.25,-0.67,9.94,-0.03,-0.01,-0.01,30.77
55541188,1950,1,178959,218633,0.25,-0.67,9.97,-0.03,-0.01,-0.01,30.77
55581189,1946,1,179182,219420,0.28,-0.68,9.96,-0.04,-0.01,-0.01,30.77
55621188,1946,1,179661,220988,0.25,-0.67,9.95,-0.04,0.00,-0.01,30.77
55661173,1936,1,180296,222750,0.25,-0.66,9.98,-0.04,0.01,-0.01,30.77
55701173,1940,1,180370,221677,0.23,-0.66,9.98,-0.03,-0.02,-0.00,30.77
55741189,1936,1,179682,219966,0.28,-0.67,9.94,-0.03,-0.02,-0.00,30.77
55781188,1936,1,179217,218636,0.24,-0.66,9.95,-0.03,-0.01,-0.01,30.77
55821190,1935,1,178876,218156,0.25,-0.66,9.92,-0.03,-0.01,-0.01,30.77
55861188,1936,1,178960,218350,0.25,-0.68,9.93,-0.03,-0.01,-0.01,30.77
55901189,1942,1,178998,218210,0.25,-0.69,10.01,-0.03,-0.01,-0.01,30.77
55941188,1947,1,178870,217820,0.25,-0.66,9.97,-0.03,-0.02,-0.00,30.77
55981190,1936,1,178848,217888,0.26,-0.67,9.92,-0.03,-0.01,-0.00,30.77
56021188,1936,1,178987,218319,0.26,-0.67,9.97,-0.03,-0.01,-0.00,30.77
56061189,1940,1,179109,218294,0.25,-0.69,9.97,-0.03,-0.01,-0.01,30.77
56100873,1936,1,179045,218136,0.25,-0.68,9.97,-0.03,-0.01,-0.00,30.67
56141189,1939,1,178966,218212,0.26,-0.66,9.98,-0.03,-0.01,-0.00,30.67
56181189,1931,1,178975,218423,0.25,-0.68,9.96,-0.03,-0.01,-0.00,30.67
56221189,1930,1,179140,218909,0.27,-0.67,9.96,-0.03,-0.01,-0.01,30.67
56261188,1932,1,179346,219431,0.26,-0.68,9.95,-0.04,-0.01,-0.00,30.67
56301189,1925,1,179588,219871,0.25,-0.66,9.97,-0.03,-0.01,-0.01,30.67
56341188,1927,1,179770,220315,0.26,-0.66,9.98,-0.03,-0.01,-0.01,30.67
56381190,1935,1,179849,220496,0.24,-0.68,9.96,-0.04,-0.01,-0.01,30.67
56421188,1925,1,179835,219653,0.24,-0.67,9.95,-0.03,-0.01,-0.00,30.67
56461189,1936,1,179226,218238,0.27,-0.67,9.97,-0.03,-0.01,-0.00,30.67
56501204,1936,1,178893,217951,0.29,-0.66,9.95,-0.03,-0.01,-0.01,30.67
56541190,1936,1,178844,217956,0.22,-0.68,9.98,-0.03,-0.01,-0.00,30.67
56581188,1937,1,178813,217776,0.23,-0.69,9.97,-0.03,-0.02,-0.01,30.67
56621189,1934,1,178700,217424,0.25,-0.66,9.97,-0.03,-0.01,-0.01,30.67
56661188,1940,1,178664,217547,0.27,-0.64,9.92,-0.03,-0.02,-0.00,30.67
56701193,1934,1,178738,217709,0.27,-0.66,9.97,-0.03,-0.01,-0.01,30.67
56741188,1953,1,178752,217507,0.25,-0.66,9.98,-0.03,-0.01,-0.00,30.67
56781189,1951,1,178609,217217,0.24,-0.66,9.97,-0.03,-0.02,-0.00,30.67
56821188,1943,1,178561,217207,0.27,-0.67,9.95,-0.03,-0.01,-0.00,30.67
56861189,1943,1,178650,217561,0.27,-0.68,9.97,-0.04,-0.01,-0.01,30.67
56901188,1936,1,178820,217896,0.26,-0.68,9.95,-0.04,-0.01,-0.01,30.67
56941189,1939,1,178988,218568,0.25,-0.67,9.98,-0.04,-0.00,-0.01,30.67
56981188,1946,1,179201,219261,0.25,-0.69,9.99,-0.04,-0.00,-0.01,30.67
57021189,1939,1,179395,219689,0.25,-0.67,9.92,-0.03,-0.01,-0.00,30.67
57061188,1933,1,179588,220157,0.28,-0.67,9.95,-0.04,-0.01,-0.01,30.67
57101189,1942,1,179582,219225,0.27,-0.70,10.03,-0.04,-0.01,-0.01,30.67
57140874,1940,1,179139,218321,0.23,-0.64,9.95,-0.03,-0.01,-0.01,30.81
57181189,1941,1,178954,218171,0.23,-0.67,9.95,-0.03,-0.01,-0.00,30.81
57221188,1936,1,178981,218127,0.27,-0.69,9.95,-0.04,-0.01,-0.01,30.81
57261189,1943,1,178947,218199,0.29,-0.67,9.99,-0.03,-0.01,-0.00,30.81
57301188,1936,1,178941,218704,0.26,-0.66,9.96,-0.03,-0.01,-0.00,30.81
57341190,1936,1,179140,219037,0.23,-0.67,9.99,-0.03,-0.01,-0.01,30.81
57381188,1946,1,179213,219017,0.27,-0.69,9.94,-0.03,-0.01,-0.00,30.81
57421190,1948,1,179295,219310,0.28,-0.66,9.95,-0.03,-0.01,-0.00,30.81
57461188,1943,1,179311,219696,0.25,-0.69,9.96,-0.03,-0.01,-0.00,30.81
57501189,1937,1,179488,219822,0.25,-0.68,9.99,-0.03,-0.01,-0.00,30.81
57541188,1936,1,179497,219854,0.25,-0.69,9.97,-0.03,-0.01,-0.01,30.81
57581190,1945,1,179509,220087,0.27,-0.67,9.97,-0.03,-0.01,-0.01,30.81
57621188,1937,1,179622,220357,0.27,-0.68,9.96,-0.03,-0.01,-0.01,30.81
57661189,1946,1,179636,220830,0.24,-0.67,9.97,-0.03,-0.01,-0.01,30.81
57701188,1929,1,179828,220901,0.23,-0.67,9.95,-0.03,-0.01,-0.00,30.81
57741189,1946,1,179729,219747,0.24,-0.67,9.96,-0.03,-0.01,-0.00,30.81
57781188,1951,1,179124,218630,0.24,-0.66,9.98,-0.03,-0.01,-0.01,30.81
57821190,1943,1,178984,218417,0.26,-0.67,9.94,-0.03,-0.01,-0.01,30.81
57861188,1954,1,178996,218354,0.25,-0.67,9.94,-0.03,-0.01,-0.01,30.81
57901190,1948,1,178954,218283,0.23,-0.67,9.96,-0.03,-0.01,-0.00,30.81
57941197,1939,1,178852,218495,0.25,-0.66,9.98,-0.03,-0.01,-0.01,30.81
57981190,1939,1,178965,218634,0.24,-0.68,9.95,-0.03,-0.01,-0.01,30.81
58021188,1937,1,178889,218548,0.23,-0.66,9.97,-0.03,-0.02,-0.00,30.81
58061189,1946,1,179030,219305,0.26,-0.64,9.95,-0.03,-0.01,-0.00,30.81
58101188,1947,1,179585,221395,0.26,-0.69,9.94,-0.04,0.00,-0.01,30.81
58140173,1945,1,180203,222929,0.22,-0.69,10.00,-0.04,0.00,-0.01,30.81
58180853,1941,1,180462,222349,0.23,-0.68,9.97,-0.03,-0.02,-0.00,30.85
58221189,1949,1,180007,221286,0.27,-0.68,9.93,-0.03,-0.02,-0.00,30.85
58261188,1948,1,179750,220523,0.26,-0.67,9.96,-0.03,-0.01,-0.01,30.85
58301189,1945,1,179632,220572,0.24,-0.67,9.98,-0.03,-0.01,-0.01,30.85
58341228,1941,1,179668,221254,0.27,-0.65,9.93,-0.03,-0.01,-0.00,30.85
58381189,1943,1,179971,220889,0.24,-0.69,9.98,-0.03,-0.00,-0.01,30.85
58421188,1950,1,179500,219806,0.24,-0.66,9.95,-0.04,-0.02,-0.01,30.85
58461189,1945,1,179305,219749,0.25,-0.68,9.99,-0.04,-0.01,-0.01,30.85
58501188,1951,1,179370,219827,0.24,-0.66,9.96,-0.03,-0.01,-0.01,30.85
58541189,1950,1,179301,219585,0.21,-0.69,9.95,-0.03,-0.01,-0.00,30.85
58581188,1948,1,179265,219430,0.27,-0.65,9.93,-0.03,-0.02,-0.01,30.85
58621189,1947,1,179310,219843,0.26,-0.68,10.00,-0.04,-0.01,-0.01,30.85
58661188,1947,1,179344,219190,0.25,-0.67,9.98,-0.03,-0.02,-0.00,30.85
58701189,1943,1,179050,218541,0.28,-0.68,9.98,-0.03,-0.02,-0.00,30.85
58741188,1939,1,178885,218510,0.26,-0.64,9.92,-0.03,-0.00,-0.00,30.85
58781189,1937,1,178913,218813,0.25,-0.67,9.92,-0.04,-0.01,-0.01,30.85
58821188,1934,1,179017,218794,0.26,-0.69,9.97,-0.03,-0.02,-0.00,30.85
58861189,1947,1,179049,218608,0.26,-0.68,10.01,-0.03,-0.02,-0.00,30.85
58901189,1943,1,178996,218791,0.25,-0.67,9.96,-0.03,-0.01,-0.00,30.85
58941189,1946,1,179187,219278,0.24,-0.69,9.93,-0.03,-0.01,-0.00,30.85
58981188,1949,1,179357,219976,0.26,-0.68,9.94,-0.03,-0.01,-0.01,30.85
59021190,1943,1,179622,219531,0.26,-0.68,9.96,-0.04,-0.01,-0.01,30.85
59061188,1936,1,179052,218123,0.25,-0.65,9.98,-0.03,-0.01,-0.01,30.85
59101190,1936,1,178719,217341,0.27,-0.67,9.94,-0.03,-0.01,-0.01,30.85
59141188,1941,1,178492,217195,0.24,-0.66,9.98,-0.03,-0.01,-0.01,30.85
59181875,1947,1,178452,217383,0.26,-0.67,9.94,-0.04,-0.01,-0.01,30.79
59220188,1943,1,178513,217677,0.24,-0.68,9.95,-0.03,-0.01,-0.00,30.79
59260189,1947,1,178662,218081,0.26,-0.67,9.93,-0.04,-0.01,-0.01,30.79
59300188,1952,1,178780,218364,0.28,-0.67,9.98,-0.03,-0.01,-0.01,30.79
59340190,1948,1,178907,218534,0.25,-0.67,9.94,-0.03,-0.01,-0.01,30.79
59380188,1941,1,178971,218910,0.23,-0.66,9.97,-0.03,-0.01,-0.00,30.79
59420189,1942,1,179111,219097,0.27,-0.69,9.96,-0.03,-0.01,-0.01,30.79
59460188,1946,1,179174,219040,0.26,-0.68,9.95,-0.03,-0.01,-0.01,30.79
59500189,1952,1,179138,219260,0.23,-0.67,9.95,-0.03,-0.01,-0.01,30.79
59540188,1953,1,179220,219799,0.27,-0.67,9.96,-0.03,-0.01,-0.00,30.79
59580197,1948,1,179415,220157,0.26,-0.67,9.99,-0.04,-0.01,-0.00,30.79
59620188,1948,1,179531,220049,0.27,-0.67,9.96,-0.03,-0.01,-0.01,30.79
59660189,1949,1,179351,219137,0.24,-0.68,9.98,-0.03,-0.01,-0.01,30.79
59700188,1947,1,178795,217702,0.24,-0.66,9.96,-0.03,-0.01,-0.01,30.79
59740190,1939,1,178574,217423,0.24,-0.68,9.94,-0.03,-0.01,-0.01,30.79
59780234,1947,1,178493,217327,0.25,-0.68,9.94,-0.03,-0.01,-0.00,30.79
59820189,1936,1,178360,217104,0.26,-0.67,9.99,-0.03,-0.01,-0.01,30.79
59860188,1941,1,178427,217445,0.26,-0.66,9.98,-0.03,-0.01,-0.01,30.79
59900189,1939,1,178762,218431,0.24,-0.66,9.95,-0.04,-0.01,-0.01,30.79
59940188,1940,1,179125,219210,0.28,-0.68,9.96,-0.04,-0.00,-0.01,30.79
59980224,1941,1,179260,219540,0.24,-0.69,9.97,-0.04,-0.00,-0.01,30.79
60020188,1943,1,179287,219572,0.23,-0.66,10.01,-0.03,-0.01,-0.01,30.79
60060189,1943,1,179330,219858,0.23,-0.68,9.99,-0.03,-0.01,-0.00,30.79
60100213,1936,1,179471,219915,0.23,-0.67,9.98,-0.03,-0.01,-0.00,30.79
60140189,1936,1,179373,220024,0.26,-0.69,9.96,-0.03,-0.01,-0.01,30.79
60180188,1949,1,179488,219941,0.25,-0.66,9.95,-0.03,-0.01,-0.01,30.79
60220875,1945,1,179442,220139,0.24,-0.67,9.96,-0.03,-0.01,-0.01,30.77
60261188,1940,1,179561,219907,0.24,-0.65,9.97,-0.03,-0.01,-0.01,30.77
60301190,1941,1,179323,218839,0.23,-0.69,9.96,-0.03,-0.02,-0.00,30.77
60341188,1937,1,178668,216781,0.27,-0.67,9.92,-0.03,-0.02,-0.00,30.77
60381189,1942,1,178086,216426,0.25,-0.64,9.95,-0.03,-0.00,-0.01,30.77
60421188,1938,1,178301,216870,0.24,-0.68,9.98,-0.04,0.00,-0.01,30.77
60461173,1949,1,178354,216791,0.26,-0.68,9.97,-0.03,-0.02,-0.00,30.77
60501188,1936,1,178366,216974,0.25,-0.68,9.93,-0.03,-0.01,-0.00,30.77
60541189,1943,1,178497,217458,0.26,-0.66,9.99,-0.03,-0.01,-0.01,30.77
60581188,1942,1,178672,217562,0.25,-0.67,9.96,-0.03,-0.01,-0.00,30.77
60621224,1945,1,178639,217803,0.25,-0.68,9.97,-0.03,-0.01,-0.00,30.77
60661188,1939,1,178827,218349,0.27,-0.69,9.97,-0.03,-0.02,-0.01,30.77
60701190,1936,1,179098,218785,0.27,-0.65,9.99,-0.03,-0.02,-0.00,30.77
60741188,1945,1,179542,221547,0.26,-0.66,9.91,-0.04,-0.02,-0.00,30.77
60781189,1937,1,181321,226827,0.25,-0.67,9.96,-0.04,-0.02,-0.01,30.77
60821188,1937,1,183306,230221,0.28,-0.67,9.97,-0.05,-0.03,-0.01,30.77
60861190,1942,1,183986,231162,0.29,-0.68,9.96,-0.04,-0.02,-0.01,30.77
60901188,1937,1,184084,231059,0.28,-0.69,9.99,-0.03,-0.01,-0.00,30.77
60941189,1936,1,184028,230179,0.31,-0.69,9.98,-0.03,-0.03,-0.00,30.77
60981188,1941,1,183266,225243,0.30,-0.68,9.97,-0.03,-0.00,-0.00,30.77
61021188,1938,1,181293,221712,0.26,-0.66,9.97,-0.03,-0.01,-0.01,30.77
61061188,1941,1,180918,221585,0.28,-0.67,9.97,-0.03,-0.00,-0.00,30.77
61101189,1946,1,180955,222267,0.29,-0.69,9.98,-0.03,-0.00,-0.01,30.77
61141188,1951,1,181273,223456,0.29,-0.68,9.94,-0.03,-0.00,-0.01,30.77
61181189,1936,1,181529,224004,0.28,-0.69,9.96,-0.04,-0.00,-0.01,30.77
61221874,1938,1,181206,221975,0.27,-0.66,9.99,-0.03,-0.02,-0.00,30.91
61260189,1937,1,180568,220296,0.31,-0.68,9.97,-0.03,-0.02,-0.00,30.91
61300188,1932,1,180126,219584,0.28,-0.68,9.96,-0.03,-0.00,-0.01,30.91
61340189,1938,1,180027,219719,0.26,-0.67,9.91,-0.03,-0.01,-0.00,30.91
61380188,1941,1,180203,220267,0.28,-0.67,9.94,-0.03,-0.01,-0.01,30.91
61420212,1947,1,180576,221362,0.28,-0.68,9.93,-0.04,-0.01,-0.01,30.91
61460188,1947,1,180974,222397,0.28,-0.68,9.96,-0.04,0.00,-0.01,30.91
61500173,1945,1,181062,222606,0.26,-0.65,9.95,-0.03,-0.01,-0.01,30.91
61540188,1936,1,181060,222857,0.27,-0.68,9.93,-0.03,-0.01,-0.01,30.91
61580189,1936,1,181088,222039,0.28,-0.67,9.95,-0.03,-0.01,-0.01,30.91
61620233,1947,1,180365,220018,0.27,-0.68,9.96,-0.03,-0.01,-0.01,30.91
61660190,1945,1,180088,219537,0.25,-0.66,10.00,-0.03,-0.01,-0.01,30.91
