timestamp_us,ecg,leads,ir,red,accX,accY,accZ,gyroX,gyroY,gyroZ,temp
1919484,1841,1,203924,235576,0.00,0.00,0.00,0.00,0.00,0.00,0.00
1949949,1779,1,203686,235236,1.26,-0.25,9.66,-0.03,-0.01,-0.00,35.09
1990195,1755,1,203741,235523,1.27,-0.27,9.91,-0.03,-0.01,-0.00,35.09
2030183,1746,1,203922,236028,1.27,-0.28,9.91,-0.03,-0.01,-0.00,35.09
2070185,1747,1,204113,236604,1.30,-0.25,9.92,-0.03,-0.01,-0.00,35.09
2110184,1745,1,204275,236958,1.30,-0.27,9.89,-0.03,-0.01,-0.00,35.09
2150186,1744,1,204331,237189,1.28,-0.28,9.92,-0.03,-0.01,-0.00,35.09
2190185,1761,1,204402,237334,1.30,-0.26,9.93,-0.03,-0.01,-0.00,35.09
2230186,1782,1,204406,237434,1.27,-0.25,9.91,-0.03,-0.01,-0.00,35.09
2270184,1797,1,204412,237608,1.29,-0.26,9.94,-0.03,-0.01,-0.00,35.09
2310187,1822,1,204407,237789,1.28,-0.27,9.91,-0.03,-0.01,-0.00,35.09
2350184,1862,1,204348,237894,1.29,-0.25,9.91,-0.03,-0.01,-0.00,35.09
2390187,1894,1,204318,237896,1.30,-0.25,9.94,-0.03,-0.01,-0.01,35.09
2430184,1930,1,204201,237503,1.27,-0.25,9.91,-0.03,-0.01,-0.01,35.09
2470185,1966,1,203878,236521,1.27,-0.23,9.90,-0.03,-0.01,-0.00,35.09
2510183,1986,1,203624,235901,1.29,-0.25,9.92,-0.03,-0.01,-0.00,35.09
2550201,2007,1,203508,235832,1.27,-0.27,9.92,-0.03,-0.01,-0.00,35.09
2590183,2026,1,203527,236032,1.28,-0.27,9.92,-0.03,-0.01,-0.00,35.09
2630185,2018,1,203547,236278,1.30,-0.25,9.91,-0.03,-0.01,-0.00,35.09
2669183,2043,1,203627,236543,1.29,-0.28,9.91,-0.03,-0.01,-0.00,35.09
2709185,2035,1,203723,236713,1.27,-0.26,9.93,-0.03,-0.01,-0.00,35.09
2749183,2031,1,203695,236872,1.27,-0.26,9.93,-0.03,-0.01,-0.00,35.09
2789185,2016,1,203703,237102,1.27,-0.26,9.91,-0.03,-0.01,-0.00,35.09
2829183,2006,1,203777,237236,1.28,-0.23,9.90,-0.03,-0.01,-0.00,35.09
2869184,1995,1,203719,237266,1.30,-0.25,9.93,-0.03,-0.01,-0.01,35.09
2909187,1968,1,203565,237328,1.25,-0.29,9.94,-0.03,-0.00,-0.00,35.09
2949190,1911,1,203597,237351,1.25,-0.27,9.94,-0.03,-0.01,-0.00,35.09
2989873,1870,1,203621,237273,1.28,-0.23,9.93,-0.03,-0.02,-0.00,35.19
3030186,1873,1,203425,236508,1.30,-0.27,9.92,-0.03,-0.01,-0.00,35.19
3070185,1857,1,203157,236028,1.25,-0.27,9.92,-0.03,-0.01,-0.01,35.19
3110191,1871,1,203025,236011,1.28,-0.25,9.92,-0.03,-0.01,-0.00,35.19
3150186,1873,1,203054,236472,1.28,-0.26,9.89,-0.03,-0.01,-0.00,35.19
3190187,1875,1,203175,236978,1.28,-0.27,9.94,-0.03,-0.01,-0.00,35.19
3230186,1887,1,203333,237217,1.28,-0.27,9.91,-0.03,-0.01,-0.00,35.19
3270188,1886,1,203358,237275,1.28,-0.26,9.94,-0.03,-0.01,-0.00,35.19
3310186,1900,1,203306,237325,1.28,-0.25,9.92,-0.03,-0.01,-0.00,35.19
3350187,1899,1,203265,237298,1.29,-0.26,9.92,-0.03,-0.01,-0.00,35.19
3388187,1968,1,203143,237172,1.29,-0.23,9.83,-0.03,-0.01,-0.00,35.19
3428189,1973,1,202892,237144,1.28,-0.22,9.93,-0.04,-0.01,-0.01,35.19
3468189,1953,1,202864,237204,1.24,-0.32,9.90,-0.03,-0.00,-0.00,35.19
3508189,1964,1,202839,237096,1.27,-0.28,9.92,-0.03,-0.00,-0.00,35.19
3548186,1964,1,202884,236848,1.31,-0.22,9.94,-0.03,-0.01,-0.00,35.19
3588189,1987,1,202778,236136,1.26,-0.24,9.93,-0.03,-0.01,-0.01,35.19
3628190,1985,1,202572,235815,1.22,-0.32,9.91,-0.03,-0.01,-0.00,35.19
3668190,1968,1,202623,235787,1.31,-0.24,9.92,-0.03,-0.02,-0.00,35.19
3708186,1968,1,202742,235981,1.35,-0.22,9.93,-0.03,-0.01,-0.01,35.19
3748189,1969,1,202649,236064,1.24,-0.28,9.93,-0.03,-0.00,-0.00,35.19
3788186,1968,1,202611,236187,1.26,-0.28,9.94,-0.03,-0.01,-0.00,35.19
3828189,1970,1,202586,236269,1.32,-0.22,9.92,-0.03,-0.01,-0.00,35.19
3868187,1974,1,202521,236330,1.28,-0.24,9.90,-0.03,-0.01,-0.00,35.19
3908190,1968,1,202498,236394,1.24,-0.29,9.94,-0.03,-0.01,-0.00,35.19
3948187,1951,1,202475,236491,1.27,-0.26,9.93,-0.03,-0.01,-0.00,35.19
3988189,1946,1,202562,236540,1.29,-0.22,9.93,-0.03,-0.01,-0.00,35.19
4028879,1903,1,202507,236600,1.25,-0.27,9.92,-0.03,-0.01,-0.01,34.77
4069190,1904,1,202465,236681,1.29,-0.26,9.90,-0.03,-0.01,-0.00,34.77
4109187,1917,1,202443,236566,1.30,-0.22,9.91,-0.03,-0.01,-0.00,34.77
4149190,1905,1,202163,235842,1.28,-0.24,9.94,-0.03,-0.01,-0.01,34.77
4189190,1904,1,201783,235305,1.25,-0.27,9.92,-0.03,-0.01,-0.00,34.77
4229190,1901,1,201638,235164,1.27,-0.24,9.93,-0.03,-0.01,-0.00,34.77
4269187,1903,1,201605,235143,1.29,-0.23,9.93,-0.03,-0.01,-0.00,34.77
4309222,1903,1,201614,235408,1.26,-0.26,9.94,-0.03,-0.01,-0.01,34.77
4349190,1902,1,201672,235776,1.27,-0.26,9.90,-0.03,-0.02,-0.00,34.77
4389190,1901,1,201751,235931,1.29,-0.26,9.90,-0.03,-0.02,-0.00,34.77
4429186,1901,1,201750,235891,1.26,-0.27,9.92,-0.03,-0.01,-0.00,34.77
4469190,1890,1,201712,235886,1.28,-0.27,9.96,-0.03,-0.01,-0.00,34.77
4509185,1890,1,201737,235901,1.31,-0.25,9.91,-0.03,-0.01,-0.00,34.77
4549187,1886,1,201692,235854,1.28,-0.25,9.93,-0.03,-0.01,-0.01,34.77
4589185,1885,1,201601,235910,1.26,-0.28,9.95,-0.03,-0.01,-0.01,34.77
4629190,1903,1,201628,236004,1.29,-0.26,9.92,-0.03,-0.01,-0.00,34.77
4669185,1903,1,201615,236027,1.26,-0.27,9.92,-0.03,-0.01,-0.00,34.77
4709186,1899,1,201516,235889,1.27,-0.28,9.92,-0.03,-0.01,-0.01,34.77
4749190,1917,1,201245,235083,1.28,-0.24,9.93,-0.03,-0.01,-0.01,34.77
4789191,1920,1,200916,234441,1.30,-0.26,9.94,-0.03,-0.01,-0.00,34.77
4829185,1917,1,200807,234151,1.27,-0.28,9.91,-0.03,-0.01,-0.00,34.77
4869190,1920,1,200682,233922,1.28,-0.25,9.95,-0.03,-0.01,-0.00,34.77
4909185,1917,1,200698,233901,1.31,-0.26,9.92,-0.03,-0.01,-0.00,34.77
4949188,1921,1,200686,233836,1.26,-0.26,9.93,-0.03,-0.01,-0.00,34.77
4989185,1926,1,200670,233847,1.25,-0.27,9.92,-0.03,-0.01,-0.00,34.77
5029874,1913,1,200611,233846,1.29,-0.25,9.91,-0.03,-0.01,-0.00,33.95
5068190,1941,1,200564,233870,1.27,-0.28,9.93,-0.04,-0.02,-0.00,33.95
5108190,1930,1,200635,233953,1.27,-0.27,9.93,-0.04,-0.02,-0.00,33.95
5148187,1927,1,200760,234078,1.31,-0.26,9.92,-0.04,-0.02,-0.00,33.95
5188190,1915,1,200780,234201,1.30,-0.26,9.91,-0.04,-0.01,-0.00,33.95
5228187,1921,1,200732,234327,1.29,-0.25,9.93,-0.03,-0.01,-0.00,33.95
5268190,1925,1,200786,234442,1.29,-0.26,9.92,-0.03,-0.01,-0.00,33.95
5308235,1905,1,200780,234600,1.29,-0.25,9.90,-0.03,-0.01,-0.00,33.95
5348190,1920,1,200666,233944,1.29,-0.28,9.87,-0.03,-0.01,-0.00,33.95
5388187,1905,1,200370,233175,1.29,-0.28,9.95,-0.03,-0.01,-0.00,33.95
5428190,1914,1,200290,232902,1.31,-0.25,9.91,-0.03,-0.01,-0.00,33.95
5468187,1923,1,200239,232911,1.27,-0.26,9.93,-0.03,-0.01,-0.00,33.95
5508190,1922,1,200265,233204,1.29,-0.28,9.92,-0.03,-0.01,-0.00,33.95
5548190,1921,1,200346,233522,1.31,-0.28,9.90,-0.03,-0.01,-0.00,33.95
5588190,1923,1,200429,233756,1.30,-0.25,9.94,-0.03,-0.01,-0.00,33.95
5628186,1926,1,200447,234201,1.29,-0.28,9.94,-0.03,-0.01,-0.00,33.95
5668190,1911,1,200486,234505,1.29,-0.29,9.93,-0.03,-0.01,-0.00,33.95
5708187,1917,1,200659,234984,1.30,-0.27,9.90,-0.03,-0.01,-0.00,33.95
5749224,1930,1,200861,235578,1.27,-0.26,9.94,-0.03,-0.01,-0.00,33.95
5789185,1936,1,201083,235891,1.29,-0.25,9.90,-0.03,-0.01,-0.00,33.95
5829186,1949,1,201172,236095,1.29,-0.25,9.95,-0.03,-0.01,-0.00,33.95
5869185,1933,1,201267,236287,1.28,-0.27,9.92,-0.03,-0.01,-0.00,33.95
5909187,1931,1,201373,236162,1.30,-0.27,9.93,-0.03,-0.01,-0.00,33.95
5949185,1935,1,201108,235228,1.30,-0.24,9.90,-0.03,-0.00,-0.00,33.95
5989186,1930,1,200799,234498,1.29,-0.27,9.93,-0.03,-0.01,-0.00,33.95
6029871,1915,1,200708,234289,1.30,-0.26,9.91,-0.03,-0.01,-0.00,33.51
6068190,1937,1,200764,234441,1.30,-0.27,9.91,-0.03,-0.01,-0.00,33.51
6108186,1935,1,200753,234782,1.29,-0.23,9.92,-0.03,-0.01,-0.00,33.51
6148190,1935,1,200876,235040,1.29,-0.25,9.94,-0.03,-0.01,-0.00,33.51
6188187,1930,1,200854,235237,1.28,-0.27,9.91,-0.03,-0.01,-0.00,33.51
6228190,1926,1,200896,235499,1.30,-0.26,9.92,-0.03,-0.01,-0.00,33.51
6268187,1927,1,201089,235998,1.31,-0.27,9.92,-0.03,-0.02,-0.00,33.51
6308190,1921,1,201306,236359,1.31,-0.27,9.90,-0.04,-0.01,-0.00,33.51
6348187,1918,1,201571,236700,1.32,-0.26,9.91,-0.04,-0.02,-0.00,33.51
6388190,1915,1,201711,236922,1.30,-0.27,9.92,-0.04,-0.01,-0.00,33.51
6428187,1911,1,201802,237186,1.30,-0.26,9.90,-0.03,-0.01,-0.00,33.51
6468190,1913,1,201881,237303,1.31,-0.23,9.93,-0.03,-0.01,-0.00,33.51
6508186,1911,1,201720,236726,1.30,-0.26,9.91,-0.03,-0.01,-0.00,33.51
6548187,1898,1,201344,236008,1.28,-0.28,9.94,-0.03,-0.01,-0.00,33.51
6588185,1893,1,201159,235635,1.30,-0.25,9.92,-0.03,-0.01,-0.00,33.51
6628187,1893,1,201115,235662,1.32,-0.25,9.90,-0.03,-0.01,-0.00,33.51
6668190,1895,1,201171,235793,1.30,-0.28,9.90,-0.03,-0.01,-0.00,33.51
6708186,1925,1,201217,236003,1.28,-0.27,9.95,-0.03,-0.01,-0.00,33.51
6748203,1895,1,201383,236184,1.32,-0.26,9.92,-0.03,-0.01,-0.00,33.51
6788187,1890,1,201459,236224,1.32,-0.26,9.92,-0.03,-0.01,-0.00,33.51
6828187,1905,1,201474,236405,1.32,-0.27,9.88,-0.03,-0.01,-0.00,33.51
6868187,1904,1,201576,236611,1.31,-0.26,9.91,-0.03,-0.01,-0.00,33.51
6908186,1903,1,201607,236826,1.32,-0.27,9.91,-0.03,-0.01,-0.00,33.51
6948222,1904,1,201616,236968,1.31,-0.28,9.93,-0.03,-0.01,-0.00,33.51
6988185,1888,1,201697,237080,1.30,-0.25,9.90,-0.03,-0.01,-0.00,33.51
7028186,1886,1,201717,237404,1.31,-0.27,9.93,-0.04,-0.01,-0.00,33.51
7068871,1870,1,201826,237551,1.30,-0.25,9.93,-0.03,-0.01,-0.00,33.25
7107189,1913,1,201827,237121,1.30,-0.26,9.94,-0.03,-0.01,-0.00,33.25
7147186,1905,1,201489,235949,1.31,-0.26,9.91,-0.03,-0.01,-0.00,33.25
7187189,1919,1,201096,235207,1.33,-0.27,9.92,-0.03,-0.01,-0.00,33.25
7227187,1903,1,200954,234695,1.30,-0.26,9.91,-0.03,-0.01,-0.01,33.25
7267189,1919,1,200790,234457,1.30,-0.26,9.93,-0.03,0.00,-0.00,33.25
7307168,1930,1,200739,234572,1.30,-0.27,9.94,-0.03,-0.01,-0.01,33.25
7347189,1952,1,200780,234785,1.30,-0.26,9.93,-0.03,-0.01,-0.00,33.25
7387186,1971,1,200861,234918,1.29,-0.25,9.91,-0.03,-0.01,-0.00,33.25
7427185,1982,1,200903,234975,1.31,-0.26,9.94,-0.03,-0.01,-0.00,33.25
7467183,1984,1,200874,235126,1.30,-0.25,9.92,-0.03,-0.01,-0.00,33.25
7507189,1984,1,200903,235212,1.29,-0.28,9.91,-0.03,-0.01,-0.00,33.25
7547185,1979,1,200968,235428,1.30,-0.26,9.92,-0.03,-0.01,-0.00,33.25
7587185,1985,1,200975,235640,1.29,-0.25,9.90,-0.03,-0.01,-0.00,33.25
7627183,1969,1,201086,235725,1.31,-0.27,9.91,-0.03,-0.01,-0.00,33.25
7667185,1965,1,201193,235798,1.30,-0.28,9.92,-0.03,-0.01,-0.00,33.25
7707184,1947,1,201286,235750,1.28,-0.25,9.92,-0.03,-0.01,-0.00,33.25
7747185,1962,1,201043,234707,1.29,-0.25,9.91,-0.03,-0.01,-0.01,33.25
7787184,1947,1,200674,233642,1.32,-0.26,9.92,-0.03,-0.01,-0.00,33.25
7827186,1942,1,200461,233196,1.31,-0.26,9.92,-0.03,-0.01,-0.00,33.25
7867183,1936,1,200432,233396,1.31,-0.28,9.91,-0.03,-0.01,-0.00,33.25
7907189,1930,1,200590,233911,1.29,-0.26,9.92,-0.03,-0.01,-0.00,33.25
7947184,1936,1,200751,234279,1.30,-0.26,9.92,-0.03,-0.01,-0.00,33.25
7987185,1936,1,200805,234606,1.30,-0.27,9.92,-0.03,-0.01,-0.00,33.25
8027189,1927,1,200920,234747,1.31,-0.27,9.94,-0.03,-0.01,-0.00,33.25
8067186,1938,1,200975,234812,1.30,-0.27,9.91,-0.03,-0.01,-0.00,33.25
8107870,1909,1,201074,235064,1.31,-0.28,9.93,-0.03,-0.01,-0.00,33.03
8148185,1922,1,201122,235309,1.29,-0.27,9.94,-0.03,-0.01,-0.00,33.03
8188184,1925,1,201180,235588,1.30,-0.28,9.91,-0.03,-0.01,-0.00,33.03
8228185,1936,1,201211,235832,1.30,-0.27,9.90,-0.03,-0.01,-0.00,33.03
8268184,1939,1,201225,236065,1.30,-0.26,9.90,-0.03,-0.01,-0.00,33.03
8308185,1925,1,201293,236108,1.30,-0.27,9.88,-0.03,-0.01,-0.00,33.03
8348184,1921,1,201012,234876,1.30,-0.26,9.94,-0.03,-0.01,-0.00,33.03
8388185,1920,1,200575,233770,1.32,-0.25,9.92,-0.03,-0.01,-0.00,33.03
8428183,1923,1,200418,233384,1.30,-0.28,9.93,-0.03,-0.01,-0.00,33.03
8468185,1936,1,200390,233605,1.30,-0.27,9.93,-0.03,-0.01,-0.01,33.03
8508183,1926,1,200549,234009,1.30,-0.25,9.94,-0.03,-0.01,-0.00,33.03
8548185,1927,1,200732,234441,1.30,-0.27,9.93,-0.03,-0.01,-0.00,33.03
8588183,1922,1,200835,234650,1.31,-0.26,9.87,-0.03,-0.01,-0.00,33.03
8628185,1922,1,200873,234828,1.29,-0.26,9.90,-0.03,-0.01,-0.00,33.03
8668183,1921,1,200925,234950,1.30,-0.26,9.92,-0.03,-0.01,-0.01,33.03
8708185,1918,1,201038,235149,1.30,-0.24,9.92,-0.03,-0.01,-0.00,33.03
8748183,1913,1,201110,235358,1.29,-0.26,9.93,-0.03,-0.01,-0.01,33.03
8788185,1920,1,201154,235528,1.30,-0.24,9.92,-0.03,-0.01,-0.01,33.03
8828183,1922,1,201192,235722,1.28,-0.26,9.92,-0.03,-0.01,-0.00,33.03
8868185,1936,1,201267,235894,1.30,-0.26,9.91,-0.03,-0.01,-0.00,33.03
8908184,1922,1,201295,235504,1.31,-0.25,9.90,-0.03,-0.01,-0.00,33.03
8946185,1983,1,200843,233830,1.30,-0.26,9.94,-0.03,-0.01,-0.00,33.03
8986183,1998,1,200349,232700,1.30,-0.28,9.94,-0.03,-0.01,-0.00,33.03
9026205,1987,1,200218,232499,1.29,-0.28,9.93,-0.03,-0.01,-0.00,33.03
9066182,1984,1,200292,232857,1.31,-0.27,9.90,-0.03,-0.01,-0.00,33.03
9106184,1994,1,200444,233267,1.31,-0.27,9.90,-0.03,-0.01,-0.00,33.03
9146869,1930,1,200576,233562,1.31,-0.26,9.93,-0.03,-0.01,-0.00,32.81
9187184,1925,1,200665,233623,1.30,-0.26,9.89,-0.03,-0.01,-0.00,32.81
9227183,1931,1,200728,233624,1.30,-0.26,9.92,-0.03,-0.01,-0.00,32.81
9267184,1935,1,200769,233735,1.30,-0.27,9.90,-0.03,-0.01,-0.00,32.81
9307183,1934,1,200810,233903,1.32,-0.28,9.90,-0.03,-0.01,-0.00,32.81
9347184,1921,1,200908,234183,1.29,-0.28,9.90,-0.03,-0.01,-0.00,32.81
9387182,1931,1,201001,234454,1.31,-0.26,9.89,-0.03,-0.01,-0.00,32.81
9427184,1936,1,201034,234719,1.30,-0.25,9.90,-0.03,-0.01,-0.00,32.81
9467183,1936,1,201156,234951,1.29,-0.25,9.90,-0.03,-0.01,-0.00,32.81
9507183,1936,1,201176,234966,1.30,-0.26,9.95,-0.03,-0.01,-0.00,32.81
9547183,1937,1,200927,233499,1.31,-0.25,9.90,-0.03,-0.01,-0.00,32.81
9587184,1936,1,200330,231838,1.27,-0.27,9.93,-0.03,-0.01,-0.00,32.81
9627182,1937,1,200011,231457,1.27,-0.25,9.92,-0.03,-0.01,-0.00,32.81
9667184,1962,1,200049,231776,1.31,-0.26,9.90,-0.03,-0.01,-0.00,32.81
9707183,1952,1,200154,232188,1.30,-0.26,9.91,-0.03,-0.01,-0.00,32.81
9747184,1951,1,200365,232700,1.30,-0.28,9.90,-0.03,-0.01,-0.00,32.81
9787182,1930,1,200464,232880,1.30,-0.25,9.91,-0.03,-0.01,-0.00,32.81
9827183,1936,1,200483,232939,1.29,-0.24,9.92,-0.03,-0.01,-0.00,32.81
9867183,1926,1,200511,233049,1.30,-0.27,9.93,-0.03,-0.01,-0.00,32.81
9907183,1936,1,200617,233234,1.30,-0.27,9.90,-0.03,-0.01,-0.00,32.81
9947183,1936,1,200674,233500,1.32,-0.25,9.90,-0.03,-0.01,-0.00,32.81
9987183,1931,1,200801,233771,1.30,-0.24,9.92,-0.03,-0.01,-0.00,32.81
10027188,1922,1,200949,233885,1.31,-0.27,9.91,-0.03,-0.01,-0.00,32.81
10067184,1921,1,200989,234009,1.31,-0.28,9.95,-0.03,-0.01,-0.00,32.81
10107183,1904,1,201061,234070,1.30,-0.28,9.94,-0.03,-0.01,-0.00,32.81
10147870,1899,1,201033,233605,1.31,-0.27,9.92,-0.03,-0.01,-0.00,32.89
10186182,1942,1,200550,231402,1.29,-0.24,9.94,-0.03,-0.01,-0.00,32.89
10226185,1932,1,199879,229846,1.32,-0.28,9.91,-0.03,-0.01,-0.00,32.89
10266235,1942,1,199718,229763,1.31,-0.25,9.92,-0.03,-0.01,-0.00,32.89
10306185,1939,1,199789,230171,1.30,-0.27,9.92,-0.03,-0.01,-0.00,32.89
10346183,1943,1,199883,230739,1.31,-0.24,9.91,-0.03,-0.01,-0.00,32.89
10386184,1950,1,200119,231117,1.31,-0.26,9.92,-0.03,-0.01,-0.00,32.89
10426183,1959,1,200165,231220,1.29,-0.27,9.93,-0.03,-0.01,-0.00,32.89
10466184,1966,1,200215,231327,1.31,-0.25,9.91,-0.03,-0.01,-0.00,32.89
10506183,1951,1,200262,231484,1.29,-0.25,9.92,-0.03,-0.01,-0.00,32.89
10546184,1968,1,200359,231787,1.29,-0.26,9.90,-0.03,-0.01,-0.00,32.89
10586183,1962,1,200481,232162,1.31,-0.26,9.94,-0.03,-0.01,-0.00,32.89
10626185,1962,1,200568,232510,1.30,-0.27,9.91,-0.03,-0.01,-0.00,32.89
10666183,1947,1,200703,232764,1.29,-0.26,9.94,-0.03,-0.01,-0.00,32.89
10706185,1942,1,200761,233024,1.30,-0.26,9.92,-0.03,-0.01,-0.00,32.89
10746183,1948,1,200831,233329,1.30,-0.25,9.91,-0.03,-0.01,-0.00,32.89
10786184,1955,1,200740,232286,1.30,-0.27,9.91,-0.03,-0.01,-0.00,32.89
10826183,1947,1,200162,230353,1.30,-0.25,9.92,-0.03,-0.01,-0.00,32.89
10866184,1953,1,199734,229651,1.29,-0.29,9.92,-0.03,-0.01,-0.00,32.89
10906183,1951,1,199812,229882,1.31,-0.25,9.91,-0.03,-0.01,-0.00,32.89
10946195,1955,1,199888,230045,1.31,-0.26,9.91,-0.03,-0.01,-0.00,32.89
10986183,1951,1,199950,230464,1.28,-0.28,9.91,-0.03,-0.01,-0.00,32.89
11026194,1956,1,200098,230735,1.27,-0.26,9.92,-0.03,-0.01,-0.00,32.89
11066183,1943,1,200123,230738,1.30,-0.25,9.93,-0.03,-0.01,-0.00,32.89
11106184,1953,1,200123,230911,1.29,-0.25,9.94,-0.03,-0.01,-0.00,32.89
11146183,1952,1,200176,231264,1.31,-0.26,9.91,-0.03,-0.01,-0.00,32.89
11186871,1936,1,200333,231537,1.31,-0.27,9.91,-0.03,-0.01,-0.00,32.85
11227183,1938,1,200483,231972,1.30,-0.26,9.93,-0.03,-0.01,-0.00,32.85
11267184,1936,1,200624,232307,1.31,-0.26,9.91,-0.03,-0.01,-0.00,32.85
11307183,1936,1,200697,232587,1.30,-0.26,9.93,-0.03,-0.01,-0.00,32.85
11347184,1936,1,200849,232864,1.30,-0.26,9.92,-0.03,-0.01,-0.00,32.85
11387183,1932,1,200792,231955,1.30,-0.27,9.93,-0.03,-0.01,-0.00,32.85
11427184,1935,1,200104,229956,1.29,-0.26,9.93,-0.03,-0.01,-0.00,32.85
11467184,1928,1,199624,229372,1.30,-0.25,9.91,-0.03,-0.01,-0.00,32.85
11507184,1923,1,199670,229863,1.28,-0.24,9.91,-0.03,-0.01,-0.00,32.85
11547183,1920,1,199810,230429,1.30,-0.25,9.92,-0.03,-0.01,-0.00,32.85
11587184,1920,1,199997,231071,1.32,-0.27,9.92,-0.03,-0.01,-0.01,32.85
11627183,1926,1,200150,231264,1.30,-0.27,9.93,-0.03,-0.01,-0.00,32.85
11667183,1920,1,200178,231383,1.30,-0.28,9.93,-0.03,-0.01,-0.00,32.85
11707182,1922,1,200104,231585,1.31,-0.26,9.91,-0.03,-0.01,-0.00,32.85
11747184,1930,1,200152,231884,1.31,-0.28,9.93,-0.03,-0.01,-0.00,32.85
11787183,1931,1,200291,232190,1.31,-0.28,9.91,-0.03,-0.01,-0.01,32.85
11827184,1936,1,200430,232469,1.30,-0.28,9.92,-0.03,-0.01,-0.00,32.85
11867220,1932,1,200520,232615,1.29,-0.28,9.92,-0.03,-0.01,-0.00,32.85
11907184,1922,1,200611,232837,1.31,-0.27,9.94,-0.03,-0.01,-0.01,32.85
11947183,1934,1,200681,232894,1.30,-0.26,9.91,-0.03,-0.01,-0.00,32.85
11987184,1923,1,200404,231235,1.31,-0.26,9.92,-0.03,-0.01,-0.00,32.85
12027189,1936,1,199758,229588,1.31,-0.26,9.91,-0.03,-0.01,-0.00,32.85
12065185,2007,1,199582,229731,1.29,-0.26,9.92,-0.03,-0.01,-0.00,32.85
12105182,1997,1,199952,230683,1.31,-0.27,9.95,-0.03,-0.02,-0.00,32.85
12145184,2000,1,200271,231528,1.30,-0.27,9.93,-0.03,-0.01,-0.00,32.85
12185183,2000,1,200544,232156,1.31,-0.28,9.95,-0.03,-0.01,-0.00,32.85
12225871,1935,1,200740,232354,1.31,-0.25,9.91,-0.03,-0.01,-0.01,32.77
12266183,1939,1,200772,232475,1.31,-0.26,9.93,-0.03,-0.01,-0.01,32.77
12306185,1922,1,200794,232585,1.32,-0.25,9.94,-0.03,-0.01,-0.00,32.77
12346183,1914,1,200907,232885,1.30,-0.24,9.90,-0.03,-0.01,-0.00,32.77
12386184,1926,1,201072,233169,1.32,-0.27,9.92,-0.03,-0.01,-0.01,32.77
12426183,1922,1,201200,233505,1.31,-0.27,9.91,-0.03,-0.01,-0.00,32.77
12466184,1927,1,201285,233811,1.31,-0.26,9.92,-0.03,-0.01,-0.01,32.77
12506183,1919,1,201419,234037,1.32,-0.27,9.95,-0.03,-0.01,-0.01,32.77
12546185,1926,1,201447,233767,1.30,-0.25,9.94,-0.03,-0.01,-0.01,32.77
12586183,1934,1,200945,231675,1.30,-0.24,9.90,-0.03,-0.01,-0.01,32.77
12626185,1925,1,200383,230059,1.30,-0.28,9.91,-0.03,-0.01,-0.00,32.77
12666183,1929,1,200129,229943,1.29,-0.25,9.90,-0.03,-0.01,-0.00,32.77
12706185,1922,1,200185,230240,1.30,-0.26,9.91,-0.03,-0.01,-0.00,32.77
12746182,1922,1,200287,230635,1.31,-0.27,9.93,-0.03,-0.01,-0.01,32.77
12786185,1926,1,200346,231035,1.30,-0.29,9.94,-0.03,-0.01,-0.01,32.77
12826183,1921,1,200409,231097,1.30,-0.26,9.91,-0.03,-0.01,-0.01,32.77
12866185,1921,1,200449,230996,1.29,-0.24,9.93,-0.03,-0.01,-0.01,32.77
12906183,1917,1,200413,231072,1.30,-0.25,9.90,-0.03,-0.01,-0.00,32.77
12946184,1932,1,200480,231306,1.31,-0.27,9.93,-0.03,-0.01,-0.00,32.77
12986183,1931,1,200571,231505,1.31,-0.26,9.93,-0.03,-0.01,-0.00,32.77
13026195,1939,1,200586,231798,1.31,-0.26,9.93,-0.03,-0.01,-0.00,32.77
13066183,1943,1,200683,232036,1.31,-0.25,9.91,-0.04,-0.01,-0.00,32.77
13106185,1943,1,200634,232401,1.31,-0.27,9.92,-0.03,-0.01,-0.00,32.77
13146183,1925,1,200603,232177,1.29,-0.27,9.89,-0.03,-0.01,-0.00,32.77
13186185,1926,1,200268,230026,1.31,-0.28,9.94,-0.03,-0.01,-0.00,32.77
13226869,1922,1,199464,228265,1.30,-0.25,9.90,-0.03,-0.01,-0.00,32.63
13265185,1943,1,199261,228249,1.32,-0.27,9.91,-0.03,-0.01,-0.00,32.63
13305192,1947,1,199332,228718,1.31,-0.27,9.91,-0.03,-0.01,-0.00,32.63
13345185,1959,1,199470,229475,1.30,-0.28,9.91,-0.03,-0.01,-0.01,32.63
13385183,1962,1,199685,229975,1.31,-0.27,9.95,-0.03,-0.01,-0.00,32.63
13425184,1945,1,199725,229981,1.30,-0.26,9.90,-0.03,-0.01,-0.01,32.63
13465183,1945,1,199755,229741,1.29,-0.28,9.91,-0.03,-0.01,-0.00,32.63
13505185,1951,1,199691,229689,1.31,-0.25,9.91,-0.03,-0.01,-0.00,32.63
13545183,1945,1,199615,229873,1.32,-0.28,9.93,-0.03,-0.01,-0.00,32.63
13585185,1958,1,199562,230280,1.31,-0.28,9.88,-0.03,-0.01,-0.01,32.63
13625183,1949,1,199638,230493,1.30,-0.28,9.91,-0.04,-0.02,-0.00,32.63
13665184,1939,1,199666,230655,1.33,-0.28,9.94,-0.04,-0.02,-0.00,32.63
13705213,1903,1,199693,230922,1.31,-0.27,9.92,-0.04,-0.01,-0.01,32.63
13745189,1904,1,199778,231104,1.33,-0.28,9.91,-0.04,-0.02,-0.00,32.63
13785189,1885,1,199656,229934,1.34,-0.28,9.93,-0.03,-0.01,-0.00,32.63
13825189,1884,1,199017,227659,1.31,-0.28,9.92,-0.03,-0.01,-0.00,32.63
13865189,1878,1,198517,226991,1.33,-0.27,9.91,-0.03,-0.01,-0.00,32.63
13905189,1876,1,198480,227359,1.31,-0.27,9.92,-0.03,-0.01,-0.00,32.63
13945189,1901,1,198589,227949,1.33,-0.27,9.90,-0.03,-0.01,-0.01,32.63
13985189,1919,1,198739,228547,1.33,-0.27,9.93,-0.03,-0.01,-0.00,32.63
14025212,1921,1,198829,228689,1.32,-0.28,9.91,-0.03,-0.01,-0.00,32.63
14065190,1934,1,198879,228684,1.30,-0.27,9.92,-0.03,-0.01,-0.00,32.63
14105189,1931,1,198896,228843,1.30,-0.27,9.90,-0.03,-0.01,-0.00,32.63
14145189,1936,1,198964,228992,1.32,-0.27,9.90,-0.03,-0.01,-0.00,32.63
14185190,1946,1,199151,229439,1.31,-0.28,9.95,-0.03,-0.00,-0.00,32.63
14225190,1962,1,199306,229681,1.31,-0.27,9.92,-0.03,0.00,-0.00,32.63
14265855,1945,1,199381,229928,1.29,-0.27,9.92,-0.03,-0.01,-0.00,32.19
14306190,1963,1,199470,230164,1.29,-0.26,9.91,-0.03,-0.01,-0.01,32.19
14346186,1968,1,199567,230291,1.30,-0.26,9.94,-0.03,-0.01,-0.00,32.19
14386187,1985,1,199535,229293,1.31,-0.26,9.93,-0.03,-0.01,-0.00,32.19
14426185,1975,1,198945,227023,1.31,-0.28,9.88,-0.03,-0.00,-0.00,32.19
14466187,1984,1,198543,227076,1.31,-0.27,9.93,-0.03,-0.00,-0.00,32.19
14506185,1989,1,198794,228235,1.30,-0.26,9.93,-0.03,-0.01,-0.00,32.19
14546187,1998,1,199046,229072,1.27,-0.26,9.95,-0.03,-0.01,-0.00,32.19
14586184,1991,1,199240,229532,1.30,-0.25,9.92,-0.03,-0.01,-0.00,32.19
14626187,2002,1,199426,229702,1.30,-0.26,9.94,-0.03,-0.01,-0.00,32.19
14666185,2000,1,199400,229580,1.29,-0.26,9.92,-0.03,-0.01,-0.00,32.19
14706189,1985,1,199355,229448,1.29,-0.25,9.92,-0.03,-0.01,-0.00,32.19
14746185,1991,1,199320,229502,1.30,-0.26,9.94,-0.03,-0.01,-0.01,32.19
14786189,1984,1,199338,229591,1.30,-0.26,9.94,-0.03,-0.01,-0.00,32.19
14826184,1970,1,199342,229682,1.30,-0.23,9.93,-0.04,-0.01,-0.00,32.19
14866187,1973,1,199312,229898,1.31,-0.24,9.91,-0.03,-0.02,-0.00,32.19
14906185,1975,1,199447,230109,1.30,-0.27,9.91,-0.03,-0.00,-0.01,32.19
14946186,1968,1,199551,230369,1.30,-0.27,9.96,-0.03,-0.01,-0.00,32.19
14986184,1969,1,199641,230099,1.31,-0.26,9.90,-0.03,-0.01,-0.00,32.19
15026196,1957,1,199237,227712,1.31,-0.24,9.91,-0.02,0.02,-0.00,32.19
15066167,1950,1,198523,225979,1.26,-0.25,9.93,-0.03,-0.01,-0.00,32.19
15106189,1947,1,198281,226033,1.27,-0.23,9.91,-0.04,-0.02,-0.00,32.19
15146184,1932,1,198284,226235,1.29,-0.27,9.91,-0.04,-0.02,-0.00,32.19
15186187,1919,1,198326,226558,1.30,-0.27,9.94,-0.04,-0.02,-0.00,32.19
15226184,1917,1,198443,226989,1.28,-0.25,9.92,-0.03,-0.01,-0.00,32.19
15266876,1904,1,198514,227154,1.32,-0.26,9.89,-0.03,-0.01,-0.00,32.03
15305184,1919,1,198520,227036,1.27,-0.26,9.91,-0.03,-0.01,-0.00,32.03
15345202,1921,1,198550,227075,1.29,-0.25,9.94,-0.04,-0.01,-0.00,32.03
15385185,1915,1,198574,227320,1.30,-0.26,9.93,-0.04,-0.02,-0.00,32.03
15425186,1910,1,198698,227573,1.33,-0.27,9.90,-0.04,-0.02,-0.00,32.03
15465184,1913,1,198765,227637,1.32,-0.26,9.91,-0.04,-0.02,-0.00,32.03
15505186,1920,1,198835,227567,1.32,-0.25,9.92,-0.04,-0.02,-0.00,32.03
15545188,1917,1,198903,227651,1.32,-0.24,9.92,-0.04,-0.02,-0.00,32.03
15585186,1933,1,199006,227843,1.30,-0.26,9.96,-0.03,-0.01,-0.00,32.03
15625183,1935,1,199126,227908,1.31,-0.27,9.93,-0.03,-0.01,-0.00,32.03
15665186,1937,1,198936,225904,1.32,-0.27,9.91,-0.03,-0.01,-0.00,32.03
15705185,1947,1,198107,223391,1.30,-0.26,9.93,-0.03,-0.00,-0.00,32.03
15745185,1943,1,197637,222926,1.30,-0.28,9.93,-0.03,-0.00,-0.00,32.03
15784183,2005,1,197785,223609,1.30,-0.25,9.93,-0.03,-0.01,-0.00,32.03
15824189,2006,1,198022,224414,1.31,-0.26,9.89,-0.03,-0.01,-0.00,32.03
15864184,2013,1,198370,225387,1.29,-0.27,9.93,-0.03,-0.01,-0.00,32.03
15904189,2013,1,198633,226004,1.28,-0.24,9.91,-0.03,-0.01,-0.00,32.03
15944189,2005,1,198786,226505,1.30,-0.26,9.95,-0.03,-0.01,-0.00,32.03
15984186,2000,1,198929,227084,1.30,-0.24,9.94,-0.03,-0.01,-0.00,32.03
16024195,1999,1,199123,227881,1.29,-0.26,9.92,-0.03,-0.01,-0.00,32.03
16064189,2001,1,199310,228354,1.30,-0.26,9.92,-0.04,-0.01,-0.00,32.03
16104189,1999,1,199370,228675,1.31,-0.25,9.95,-0.03,-0.01,-0.00,32.03
16144189,1991,1,199433,229076,1.31,-0.26,9.92,-0.03,-0.01,-0.00,32.03
16184184,1982,1,199511,229309,1.30,-0.26,9.95,-0.03,-0.01,-0.00,32.03
16224186,1977,1,199426,229319,1.31,-0.25,9.92,-0.03,-0.01,-0.00,32.03
16264184,1970,1,199413,229579,1.29,-0.26,9.90,-0.03,-0.01,-0.01,32.03
16304875,1926,1,199523,229939,1.29,-0.25,9.94,-0.03,-0.01,-0.00,31.99
16345185,1933,1,199335,228899,1.28,-0.24,9.95,-0.04,-0.02,-0.00,31.99
16385186,1936,1,198815,227711,1.31,-0.26,9.93,-0.04,-0.02,-0.00,31.99
16425185,1936,1,198716,227922,1.29,-0.28,9.93,-0.04,-0.02,-0.00,31.99
16465189,1937,1,198947,228742,1.30,-0.25,9.89,-0.04,-0.02,-0.00,31.99
16505184,1945,1,199094,229622,1.32,-0.26,9.92,-0.03,-0.01,-0.00,31.99
16545190,1933,1,199410,230503,1.30,-0.27,9.91,-0.03,-0.01,-0.01,31.99
16585185,1943,1,199660,230971,1.31,-0.26,9.94,-0.03,-0.01,-0.00,31.99
16625190,1931,1,199723,231380,1.31,-0.27,9.93,-0.04,-0.01,-0.00,31.99
16665185,1950,1,199810,231865,1.33,-0.27,9.93,-0.03,-0.01,-0.00,31.99
16705190,1938,1,199895,232424,1.30,-0.25,9.92,-0.03,-0.01,-0.00,31.99
16745184,1941,1,200133,232936,1.33,-0.25,9.92,-0.03,-0.01,-0.00,31.99
16784218,1970,1,200203,233594,1.32,-0.27,9.93,-0.03,-0.01,-0.00,31.99
16824189,1967,1,200440,233974,1.32,-0.27,9.91,-0.03,-0.01,-0.00,31.99
16864189,1953,1,200517,234290,1.32,-0.28,9.92,-0.03,-0.01,-0.00,31.99
16904189,1968,1,200587,234687,1.30,-0.26,9.91,-0.03,-0.01,-0.00,31.99
16944189,1968,1,200611,235054,1.30,-0.28,9.92,-0.03,-0.01,-0.00,31.99
16984215,1967,1,200553,233314,1.33,-0.27,9.92,-0.03,-0.01,-0.00,31.99
17024199,1978,1,199685,231673,1.30,-0.27,9.95,-0.03,-0.01,-0.00,31.99
17064186,1968,1,199434,231525,1.30,-0.28,9.92,-0.03,-0.01,-0.01,31.99
17104189,1961,1,199551,231568,1.30,-0.28,9.93,-0.03,-0.01,-0.00,31.99
17144186,1968,1,199594,231887,1.30,-0.26,9.92,-0.03,-0.01,-0.00,31.99
17184205,1955,1,199778,232213,1.31,-0.28,9.93,-0.03,-0.01,-0.00,31.99
17224189,1970,1,199888,232448,1.33,-0.27,9.92,-0.03,-0.01,-0.00,31.99
17264189,1962,1,200010,232372,1.29,-0.25,9.91,-0.03,-0.01,-0.00,31.99
17304875,1936,1,200068,232636,1.31,-0.26,9.92,-0.03,-0.01,-0.00,32.21
17345190,1951,1,200206,233129,1.33,-0.25,9.91,-0.03,-0.01,-0.00,32.21
17385185,1936,1,200313,233810,1.30,-0.26,9.90,-0.03,-0.01,-0.00,32.21
17425186,1940,1,200588,234513,1.31,-0.26,9.93,-0.03,-0.01,-0.00,32.21
17465185,1937,1,200800,235061,1.32,-0.26,9.92,-0.03,-0.01,-0.00,32.21
17505190,1949,1,200908,235557,1.32,-0.26,9.94,-0.04,-0.01,-0.00,32.21
17545185,1958,1,201137,235989,1.31,-0.26,9.92,-0.04,-0.02,-0.01,32.21
17585187,1936,1,201176,235200,1.32,-0.26,9.92,-0.03,-0.01,-0.00,32.21
17625184,1936,1,200389,233135,1.33,-0.27,9.92,-0.03,-0.01,-0.00,32.21
17665186,1936,1,200116,232800,1.30,-0.28,9.93,-0.04,-0.01,-0.01,32.21
17705184,1935,1,200179,233233,1.32,-0.26,9.91,-0.03,-0.01,-0.00,32.21
17745187,1936,1,200350,233631,1.32,-0.26,9.94,-0.04,-0.01,-0.00,32.21
17785184,1931,1,200529,234541,1.33,-0.28,9.93,-0.04,-0.02,-0.00,32.21
17824189,1943,1,200743,234985,1.34,-0.28,9.91,-0.04,-0.02,-0.00,32.21
17864190,1947,1,200869,234891,1.33,-0.26,9.91,-0.03,-0.01,-0.00,32.21
17904189,1943,1,200849,234923,1.33,-0.27,9.93,-0.03,-0.01,-0.00,32.21
17944189,1950,1,200852,235090,1.34,-0.26,9.92,-0.03,-0.01,-0.01,32.21
17984189,1953,1,201024,235520,1.35,-0.27,9.90,-0.03,-0.01,-0.00,32.21
18024198,1948,1,201164,235717,1.34,-0.27,9.92,-0.03,-0.01,-0.00,32.21
18064189,1965,1,201122,236058,1.34,-0.28,9.91,-0.03,-0.01,-0.00,32.21
18104184,1956,1,201237,236610,1.32,-0.27,9.91,-0.03,-0.01,-0.00,32.21
18144189,1955,1,201426,237471,1.33,-0.27,9.92,-0.04,-0.01,-0.00,32.21
18184185,1948,1,201677,238482,1.34,-0.28,9.91,-0.04,-0.02,-0.00,32.21
18224189,1936,1,201546,237083,1.34,-0.26,9.90,-0.04,-0.03,-0.00,32.21
18264185,1931,1,200788,235683,1.35,-0.27,9.91,-0.03,-0.01,-0.00,32.21
18304189,1929,1,200669,235691,1.35,-0.28,9.89,-0.03,-0.02,-0.01,32.21
18344871,1920,1,200808,236282,1.36,-0.27,9.90,-0.03,-0.01,-0.00,32.41
18383189,2002,1,200901,236702,1.35,-0.30,9.89,-0.03,-0.01,-0.00,32.41
18423189,1999,1,201135,237306,1.35,-0.28,9.91,-0.03,-0.01,-0.00,32.41
18463188,2000,1,201247,237912,1.33,-0.25,9.92,-0.03,-0.01,-0.00,32.41
18503188,1997,1,201424,238315,1.36,-0.28,9.90,-0.04,-0.02,-0.00,32.41
18543185,2001,1,201449,238558,1.34,-0.29,9.92,-0.04,-0.02,-0.00,32.41
18583184,2002,1,201597,238732,1.36,-0.28,9.91,-0.03,-0.01,-0.00,32.41
18623188,2000,1,201651,238773,1.35,-0.28,9.92,-0.03,-0.01,-0.00,32.41
18663184,1989,1,201710,238870,1.37,-0.29,9.92,-0.03,-0.01,-0.00,32.41
18703189,2001,1,201732,238999,1.35,-0.27,9.93,-0.03,-0.01,-0.00,32.41
18743184,2007,1,201677,238983,1.36,-0.28,9.92,-0.03,-0.01,-0.00,32.41
18783188,2004,1,201636,239169,1.36,-0.29,9.90,-0.03,-0.01,-0.00,32.41
18823184,2004,1,201588,239130,1.34,-0.27,9.93,-0.03,-0.01,-0.01,32.41
18863189,2017,1,201018,236447,1.36,-0.28,9.89,-0.03,-0.01,-0.00,32.41
18903184,2013,1,200326,235473,1.36,-0.27,9.93,-0.03,-0.01,-0.00,32.41
18943188,2018,1,200322,235758,1.35,-0.28,9.92,-0.03,-0.01,-0.00,32.41
18983184,2023,1,200432,236192,1.33,-0.27,9.93,-0.03,-0.01,-0.00,32.41
19023189,2014,1,200466,236455,1.36,-0.28,9.89,-0.03,-0.01,-0.00,32.41
19063183,2020,1,200681,236711,1.36,-0.27,9.92,-0.03,-0.01,-0.01,32.41
19103185,2020,1,200681,236665,1.34,-0.28,9.92,-0.03,-0.01,-0.00,32.41
19143183,2021,1,200525,236426,1.35,-0.28,9.90,-0.03,-0.01,-0.00,32.41
19183185,2031,1,200392,236247,1.36,-0.28,9.92,-0.03,-0.01,-0.00,32.41
19223184,2026,1,200347,236439,1.35,-0.28,9.91,-0.03,-0.01,-0.01,32.41
19263189,2020,1,200439,236607,1.34,-0.28,9.94,-0.03,-0.01,-0.01,32.41
19303184,2015,1,200528,236734,1.33,-0.28,9.91,-0.03,-0.01,-0.00,32.41
19343185,2017,1,200537,236883,1.35,-0.28,9.94,-0.03,-0.01,-0.00,32.41
19383869,1952,1,200630,237200,1.34,-0.27,9.91,-0.03,-0.01,-0.00,32.03
19424185,1954,1,200753,237320,1.34,-0.28,9.89,-0.03,-0.01,-0.00,32.03
19464184,1958,1,200719,236443,1.33,-0.27,9.90,-0.03,-0.01,-0.00,32.03
19504185,1949,1,199962,234159,1.35,-0.28,9.91,-0.03,-0.01,-0.00,32.03
19544183,1966,1,199568,233433,1.33,-0.28,9.91,-0.03,-0.01,-0.00,32.03
19584185,1958,1,199558,233704,1.33,-0.30,9.91,-0.03,-0.01,-0.00,32.03
19624183,1938,1,199616,234045,1.34,-0.28,9.92,-0.03,-0.01,-0.00,32.03
19664185,1952,1,199764,234640,1.35,-0.27,9.93,-0.03,-0.01,-0.00,32.03
19704184,1955,1,199996,234941,1.34,-0.28,9.93,-0.03,-0.01,-0.00,32.03
19744185,1955,1,200047,234943,1.32,-0.26,9.92,-0.03,-0.01,-0.00,32.03
19784184,1952,1,200046,234907,1.34,-0.28,9.90,-0.03,-0.01,-0.00,32.03
19824185,1961,1,200028,235183,1.34,-0.28,9.90,-0.03,-0.01,-0.00,32.03
19864183,1958,1,200086,235526,1.34,-0.28,9.91,-0.03,-0.01,-0.00,32.03
19904186,1950,1,200141,235883,1.33,-0.28,9.91,-0.03,-0.01,-0.00,32.03
19944183,1952,1,200295,236219,1.34,-0.30,9.93,-0.03,-0.01,-0.00,32.03
19984185,1952,1,200398,236432,1.34,-0.27,9.93,-0.03,-0.01,-0.00,32.03
20024196,1955,1,200535,236710,1.35,-0.28,9.92,-0.03,-0.01,-0.00,32.03
20064185,1951,1,200537,235698,1.36,-0.28,9.90,-0.03,-0.01,-0.00,32.03
20104183,1958,1,199794,233626,1.32,-0.28,9.90,-0.03,-0.01,-0.00,32.03
20144185,1953,1,199385,233149,1.35,-0.26,9.92,-0.03,-0.01,-0.00,32.03
20184183,1959,1,199420,233460,1.35,-0.27,9.91,-0.03,-0.01,-0.00,32.03
20224185,1962,1,199476,233847,1.32,-0.27,9.89,-0.03,-0.01,-0.00,32.03
20264193,1967,1,199628,234366,1.36,-0.27,9.90,-0.03,-0.01,-0.00,32.03
20304186,1966,1,199824,234433,1.34,-0.29,9.91,-0.03,-0.01,-0.00,32.03
20344184,1945,1,199819,234501,1.33,-0.27,9.92,-0.03,-0.01,-0.00,32.03
20384872,1949,1,199658,234429,1.35,-0.28,9.91,-0.03,-0.01,-0.00,31.99
20423184,1981,1,199650,234696,1.32,-0.27,9.91,-0.03,-0.01,-0.00,31.99
20463237,1975,1,199783,234949,1.36,-0.26,9.91,-0.03,-0.01,-0.00,31.99
20503184,1984,1,199887,235318,1.35,-0.28,9.92,-0.03,-0.01,-0.00,31.99
20543185,1990,1,199986,235725,1.34,-0.27,9.90,-0.03,-0.01,-0.01,31.99
20583183,1983,1,200119,236337,1.34,-0.26,9.95,-0.03,-0.01,-0.00,31.99
20623186,1983,1,200383,236874,1.34,-0.25,9.91,-0.04,-0.02,-0.00,31.99
20663184,1977,1,200241,235106,1.34,-0.28,9.90,-0.03,-0.01,-0.00,31.99
20703185,1967,1,199471,233602,1.35,-0.28,9.95,-0.03,-0.01,-0.00,31.99
20743184,1972,1,199227,233515,1.33,-0.28,9.91,-0.03,-0.01,-0.00,31.99
20783185,1973,1,199265,233787,1.36,-0.27,9.90,-0.03,-0.01,-0.00,31.99
20823183,1958,1,199378,234103,1.35,-0.28,9.92,-0.03,-0.01,-0.01,31.99
20863186,1967,1,199516,234559,1.36,-0.27,9.91,-0.03,-0.01,-0.00,31.99
20903183,1967,1,199594,234736,1.35,-0.27,9.90,-0.03,-0.01,-0.00,31.99
20943185,1965,1,199548,234763,1.35,-0.28,9.92,-0.03,-0.01,-0.00,31.99
20983185,1966,1,199664,234811,1.34,-0.27,9.90,-0.03,-0.01,-0.00,31.99
21023186,1968,1,199585,235025,1.36,-0.25,9.90,-0.03,-0.01,-0.00,31.99
21063184,1972,1,199673,235294,1.35,-0.28,9.90,-0.03,-0.01,-0.00,31.99
21103186,1968,1,199821,235569,1.33,-0.27,9.90,-0.03,-0.01,-0.00,31.99
21143184,1971,1,199852,235709,1.33,-0.26,9.92,-0.03,-0.01,-0.00,31.99
21183186,1969,1,199846,235875,1.36,-0.28,9.92,-0.03,-0.01,-0.00,31.99
21223184,1970,1,199805,235788,1.37,-0.28,9.94,-0.03,-0.01,-0.01,31.99
21263189,1968,1,199521,233834,1.34,-0.28,9.92,-0.03,-0.01,-0.00,31.99
21303183,1965,1,198853,232499,1.35,-0.27,9.92,-0.03,-0.01,-0.00,31.99
21343185,1961,1,198665,232317,1.32,-0.26,9.93,-0.03,-0.01,-0.00,31.99
21383183,1968,1,198650,232490,1.35,-0.25,9.91,-0.03,-0.01,-0.00,31.99
21423871,1941,1,198740,232732,1.33,-0.26,9.90,-0.03,-0.01,-0.00,31.81
21462184,2019,1,198893,233153,1.34,-0.27,9.91,-0.03,-0.01,-0.00,31.81
21502188,2015,1,199064,233304,1.35,-0.27,9.93,-0.04,-0.01,-0.00,31.81
21542184,2004,1,199109,233418,1.35,-0.26,9.92,-0.03,-0.01,-0.00,31.81
21582189,2019,1,199086,233525,1.36,-0.29,9.90,-0.03,-0.01,-0.00,31.81
21622184,2007,1,199211,233838,1.33,-0.29,9.91,-0.03,-0.01,-0.00,31.81
21662189,2015,1,199305,234235,1.34,-0.28,9.88,-0.03,-0.01,-0.00,31.81
21702184,2007,1,199379,234462,1.34,-0.28,9.93,-0.03,-0.01,-0.00,31.81
21742189,2033,1,199498,234721,1.34,-0.28,9.91,-0.03,-0.01,-0.00,31.81
21782184,2026,1,199540,235033,1.34,-0.29,9.91,-0.03,-0.01,-0.00,31.81
21822189,2029,1,199629,235330,1.36,-0.28,9.90,-0.03,-0.01,-0.00,31.81
21862184,2026,1,199365,233578,1.35,-0.29,9.91,-0.03,-0.01,-0.00,31.81
21902188,2019,1,198660,232444,1.34,-0.27,9.91,-0.03,-0.01,-0.01,31.81
21942185,2028,1,198489,232412,1.33,-0.29,9.90,-0.03,-0.01,-0.00,31.81
21982189,2020,1,198524,232668,1.34,-0.27,9.92,-0.03,-0.01,-0.00,31.81
22022194,2031,1,198513,233010,1.34,-0.29,9.92,-0.03,-0.01,-0.00,31.81
22062189,2018,1,198741,233522,1.36,-0.27,9.91,-0.04,-0.01,-0.00,31.81
22102192,2009,1,198860,233626,1.33,-0.27,9.89,-0.03,-0.01,-0.00,31.81
22142189,2015,1,198826,233661,1.34,-0.29,9.90,-0.03,-0.01,-0.00,31.81
22182184,2022,1,198666,233775,1.35,-0.30,9.91,-0.03,-0.01,-0.00,31.81
22222186,2009,1,198732,234061,1.36,-0.26,9.93,-0.03,-0.01,-0.00,31.81
22262184,2006,1,198884,234421,1.35,-0.27,9.93,-0.03,-0.01,-0.00,31.81
22302188,2019,1,198991,234889,1.35,-0.28,9.92,-0.03,-0.01,-0.00,31.81
22342184,1998,1,199021,235133,1.35,-0.29,9.93,-0.03,-0.01,-0.00,31.81
22382186,2000,1,199174,235479,1.35,-0.27,9.91,-0.03,-0.01,-0.00,31.81
22422184,2000,1,199185,235473,1.33,-0.27,9.94,-0.03,-0.01,-0.00,31.81
22462875,1957,1,198968,233417,1.37,-0.26,9.93,-0.03,-0.01,-0.00,31.75
22503184,1954,1,198331,232428,1.35,-0.28,9.91,-0.03,-0.01,-0.00,31.75
22543203,1970,1,198217,232515,1.35,-0.26,9.92,-0.03,-0.01,-0.00,31.75
22583184,1961,1,198262,232891,1.34,-0.28,9.90,-0.03,-0.01,-0.00,31.75
22623186,1963,1,198398,233322,1.33,-0.27,9.91,-0.03,-0.01,-0.00,31.75
22663185,1951,1,198500,233652,1.34,-0.30,9.91,-0.03,-0.01,-0.00,31.75
22703186,1951,1,198569,233616,1.35,-0.28,9.92,-0.03,-0.01,-0.00,31.75
22743184,1939,1,198532,233512,1.33,-0.26,9.93,-0.03,-0.01,-0.01,31.75
22783189,1947,1,198508,233456,1.34,-0.28,9.93,-0.03,-0.01,-0.00,31.75
22823184,1941,1,198533,233604,1.33,-0.29,9.90,-0.03,-0.01,-0.01,31.75
22863187,1937,1,198697,233720,1.35,-0.27,9.95,-0.03,-0.01,-0.00,31.75
22903184,1933,1,198735,233878,1.35,-0.28,9.90,-0.03,-0.01,-0.00,31.75
22943186,1936,1,198783,234068,1.32,-0.28,9.91,-0.03,-0.01,-0.00,31.75
22983185,1967,1,198822,234275,1.34,-0.28,9.91,-0.03,-0.01,-0.01,31.75
23023189,1961,1,198814,233632,1.35,-0.28,9.91,-0.03,-0.01,-0.00,31.75
23063185,1957,1,198263,231899,1.34,-0.27,9.92,-0.03,-0.01,-0.01,31.75
23103190,1969,1,197928,231590,1.34,-0.26,9.92,-0.03,-0.01,-0.00,31.75
23143185,1966,1,197865,231670,1.35,-0.28,9.90,-0.03,-0.01,-0.00,31.75
23183187,1962,1,198020,231945,1.33,-0.28,9.91,-0.03,-0.01,-0.00,31.75
23223185,1967,1,198062,232409,1.33,-0.28,9.94,-0.03,-0.01,-0.00,31.75
23263187,1966,1,198197,232664,1.33,-0.28,9.89,-0.03,-0.01,-0.00,31.75
23303185,1965,1,198203,232668,1.33,-0.28,9.89,-0.03,-0.01,-0.00,31.75
23343186,1961,1,198189,232621,1.34,-0.27,9.91,-0.03,-0.01,-0.01,31.75
23383184,1954,1,198190,232783,1.35,-0.28,9.91,-0.03,-0.01,-0.00,31.75
23423186,1963,1,198230,233001,1.35,-0.26,9.94,-0.03,-0.01,-0.01,31.75
23463872,1946,1,198343,233332,1.34,-0.27,9.89,-0.03,-0.01,-0.00,31.75
23502189,1971,1,198361,233554,1.34,-0.29,9.91,-0.03,-0.01,-0.00,31.75
23542189,1965,1,198567,234002,1.33,-0.28,9.93,-0.03,-0.01,-0.00,31.75
23582189,1973,1,198652,234359,1.32,-0.26,9.90,-0.03,-0.01,-0.00,31.75
23622183,1963,1,198644,233285,1.36,-0.28,9.93,-0.03,-0.01,-0.00,31.75
23662189,1966,1,198004,231802,1.35,-0.28,9.91,-0.03,-0.01,-0.00,31.75
23702185,1971,1,197740,231495,1.34,-0.28,9.92,-0.03,-0.01,-0.00,31.75
23742216,1981,1,197737,231673,1.33,-0.26,9.93,-0.03,-0.01,-0.00,31.75
23782185,1973,1,197793,231925,1.35,-0.26,9.90,-0.03,-0.01,-0.01,31.75
23822189,1983,1,197935,232324,1.36,-0.28,9.90,-0.03,-0.01,-0.00,31.75
23862189,1973,1,198130,232641,1.35,-0.28,9.90,-0.03,-0.01,-0.00,31.75
23902189,1978,1,198020,232546,1.35,-0.29,9.92,-0.03,-0.01,-0.00,31.75
23942210,1979,1,198101,232669,1.35,-0.28,9.92,-0.03,-0.01,-0.01,31.75
23982186,1968,1,198084,232717,1.35,-0.29,9.92,-0.03,-0.01,-0.00,31.75
24022193,1979,1,198110,232961,1.34,-0.29,9.93,-0.03,-0.01,-0.01,31.75
24062189,1981,1,198101,233150,1.33,-0.28,9.90,-0.03,-0.01,-0.00,31.75
24102184,1972,1,198168,233301,1.35,-0.28,9.90,-0.03,-0.01,-0.00,31.75
24142186,1981,1,198304,233592,1.34,-0.28,9.92,-0.03,-0.01,-0.00,31.75
24182185,1972,1,198396,233828,1.33,-0.29,9.90,-0.03,-0.01,-0.00,31.75
24222186,1973,1,198361,233887,1.35,-0.28,9.91,-0.03,-0.01,-0.00,31.75
24262185,1979,1,198266,232216,1.35,-0.28,9.89,-0.03,-0.01,-0.00,31.75
24302190,1975,1,197659,231008,1.35,-0.26,9.94,-0.03,-0.01,-0.00,31.75
24342184,1969,1,197498,230694,1.34,-0.26,9.93,-0.03,-0.01,-0.00,31.75
24382189,1975,1,197487,230878,1.34,-0.27,9.94,-0.03,-0.01,-0.00,31.75
24422184,1968,1,197363,230966,1.34,-0.26,9.92,-0.03,-0.01,-0.00,31.75
24462186,1968,1,197577,231383,1.35,-0.27,9.92,-0.03,-0.01,-0.00,31.75
24502871,1947,1,197556,231455,1.35,-0.28,9.89,-0.03,-0.01,-0.00,32.03
24541189,2018,1,197656,231466,1.35,-0.27,9.91,-0.03,-0.01,-0.00,32.03
24581188,2023,1,197679,231587,1.35,-0.27,9.91,-0.03,-0.01,-0.00,32.03
24621189,2027,1,197594,231809,1.35,-0.27,9.93,-0.03,-0.01,-0.00,32.03
24661189,2021,1,197839,232077,1.34,-0.28,9.93,-0.03,-0.01,-0.00,32.03
24701189,2011,1,197952,232426,1.35,-0.28,9.93,-0.03,-0.01,-0.00,32.03
24741184,2012,1,197943,232704,1.32,-0.27,9.92,-0.03,-0.01,-0.00,32.03
24781189,2008,1,198015,233136,1.33,-0.27,9.91,-0.03,-0.01,-0.00,32.03
24821184,2002,1,198104,233492,1.33,-0.28,9.92,-0.03,-0.01,-0.00,32.03
24861189,2011,1,198191,233492,1.35,-0.30,9.94,-0.03,-0.01,-0.00,32.03
24901186,2004,1,197730,231632,1.34,-0.27,9.91,-0.03,-0.01,-0.00,32.03
24941189,2002,1,197305,230883,1.35,-0.27,9.94,-0.03,-0.01,-0.00,32.03
24981192,2002,1,197185,230895,1.34,-0.26,9.93,-0.03,-0.01,-0.01,32.03
25021189,2000,1,197288,231178,1.34,-0.27,9.90,-0.03,-0.01,-0.00,32.03
25061183,1994,1,197263,231382,1.32,-0.26,9.91,-0.03,-0.01,-0.00,32.03
25101189,2000,1,197506,231851,1.34,-0.29,9.90,-0.03,-0.01,-0.01,32.03
25141184,1999,1,197500,231880,1.34,-0.26,9.92,-0.03,-0.01,-0.00,32.03
25181185,2001,1,197560,231917,1.35,-0.27,9.93,-0.03,-0.01,-0.00,32.03
25221183,1995,1,197586,231967,1.34,-0.26,9.94,-0.03,-0.01,-0.01,32.03
25261185,1984,1,197604,232143,1.34,-0.28,9.92,-0.03,-0.01,-0.00,32.03
25301184,1998,1,197662,232379,1.34,-0.28,9.91,-0.03,-0.01,-0.00,32.03
25341189,1997,1,197705,232566,1.34,-0.28,9.91,-0.03,-0.01,-0.00,32.03
25381202,1991,1,197818,232798,1.34,-0.27,9.94,-0.03,-0.01,-0.00,32.03
25421188,1990,1,197948,233171,1.35,-0.27,9.93,-0.03,-0.01,-0.00,32.03
25461184,1988,1,197961,233494,1.35,-0.28,9.92,-0.03,-0.01,-0.00,32.03
25501189,1986,1,198029,232882,1.36,-0.30,9.93,-0.03,-0.01,-0.00,32.03
25541869,1959,1,197435,231104,1.34,-0.29,9.92,-0.03,-0.01,-0.00,32.11
25582201,1966,1,197145,230823,1.36,-0.28,9.91,-0.03,-0.01,-0.00,32.11
25622184,1969,1,197128,230895,1.34,-0.27,9.90,-0.03,-0.01,-0.00,32.11
25662185,1973,1,197270,231132,1.35,-0.26,9.92,-0.03,-0.01,-0.00,32.11
25702184,1968,1,197425,231370,1.36,-0.26,9.89,-0.03,-0.01,-0.00,32.11
25742186,1966,1,197517,231667,1.34,-0.27,9.92,-0.03,-0.01,-0.00,32.11
25782184,1958,1,197592,231673,1.34,-0.27,9.91,-0.03,-0.01,-0.00,32.11
25822186,1961,1,197493,231577,1.35,-0.25,9.93,-0.03,-0.01,-0.00,32.11
25862184,1965,1,197585,231739,1.35,-0.26,9.90,-0.03,-0.01,-0.01,32.11
25902186,1962,1,197648,232002,1.33,-0.28,9.91,-0.03,-0.01,-0.00,32.11
25942185,1955,1,197776,232210,1.36,-0.27,9.92,-0.03,-0.01,-0.00,32.11
25982190,1955,1,197873,232479,1.34,-0.28,9.92,-0.03,-0.01,-0.00,32.11
26022194,1967,1,197951,232771,1.35,-0.27,9.91,-0.03,-0.01,-0.00,32.11
26062187,1954,1,198038,233072,1.34,-0.28,9.92,-0.03,-0.01,-0.00,32.11
26102185,1961,1,197986,232276,1.35,-0.28,9.93,-0.03,-0.01,-0.00,32.11
26142187,1958,1,197423,230936,1.34,-0.25,9.92,-0.03,-0.01,-0.00,32.11
26182185,1965,1,197239,230492,1.33,-0.28,9.92,-0.03,-0.01,-0.01,32.11
26222189,1967,1,197238,230633,1.33,-0.27,9.91,-0.03,-0.01,-0.00,32.11
26262185,1963,1,197221,230722,1.35,-0.28,9.94,-0.03,-0.01,-0.00,32.11
26302186,1959,1,197412,231135,1.34,-0.27,9.93,-0.03,-0.01,-0.00,32.11
26342184,1960,1,197398,231200,1.34,-0.28,9.92,-0.03,-0.01,-0.00,32.11
26382187,1959,1,197398,231224,1.35,-0.28,9.93,-0.03,-0.01,-0.00,32.11
26422184,1959,1,197423,231401,1.33,-0.26,9.92,-0.03,-0.01,-0.00,32.11
26462186,1965,1,197506,231561,1.35,-0.29,9.90,-0.03,-0.01,-0.00,32.11
26502184,1947,1,197466,231821,1.34,-0.27,9.93,-0.03,-0.01,-0.00,32.11
26542872,1946,1,197629,232090,1.33,-0.27,9.91,-0.03,-0.01,-0.00,31.83
26581189,1983,1,197702,232408,1.34,-0.26,9.92,-0.03,-0.01,-0.00,31.83
26621189,1985,1,197799,232688,1.33,-0.28,9.94,-0.03,-0.01,-0.00,31.83
26661188,1979,1,197930,233013,1.35,-0.27,9.93,-0.03,-0.01,-0.00,31.83
26701189,1968,1,197923,232342,1.34,-0.28,9.92,-0.03,-0.01,-0.00,31.83
26741185,1968,1,197420,230957,1.31,-0.27,9.90,-0.03,-0.01,-0.00,31.83
26781186,1973,1,197072,230554,1.35,-0.28,9.92,-0.03,-0.01,-0.00,31.83
26821184,1968,1,197065,230634,1.33,-0.29,9.91,-0.03,-0.01,-0.00,31.83
26861186,1971,1,197021,230796,1.35,-0.27,9.90,-0.03,-0.01,-0.00,31.83
26901184,1958,1,197086,231087,1.33,-0.28,9.91,-0.03,-0.01,-0.01,31.83
26941189,1968,1,197267,231337,1.33,-0.28,9.88,-0.03,-0.01,-0.00,31.83
26981184,1962,1,197280,231334,1.33,-0.28,9.92,-0.03,-0.01,-0.00,31.83
27021217,1971,1,197250,231458,1.33,-0.28,9.92,-0.03,-0.01,-0.00,31.83
27061185,1968,1,197363,231426,1.35,-0.25,9.94,-0.03,-0.01,-0.00,31.83
27101189,1979,1,197351,231670,1.33,-0.27,9.91,-0.03,-0.01,-0.00,31.83
27141184,1974,1,197403,231915,1.34,-0.27,9.91,-0.03,-0.01,-0.00,31.83
27181189,1978,1,197562,232051,1.34,-0.27,9.91,-0.03,-0.01,-0.00,31.83
27221225,1971,1,197633,232379,1.34,-0.26,9.92,-0.03,-0.01,-0.00,31.83
27261189,1981,1,197684,232487,1.35,-0.28,9.92,-0.03,-0.01,-0.00,31.83
27301185,1979,1,197782,232647,1.35,-0.28,9.92,-0.03,-0.01,-0.00,31.83
27341189,1966,1,197798,232085,1.33,-0.26,9.92,-0.03,-0.01,-0.00,31.83
27381184,1961,1,197419,230837,1.33,-0.28,9.91,-0.03,-0.01,-0.00,31.83
27421189,1967,1,197089,230329,1.34,-0.28,9.92,-0.03,-0.01,-0.00,31.83
27461185,1970,1,197053,230366,1.32,-0.26,9.90,-0.03,-0.01,-0.00,31.83
27501186,1972,1,197036,230556,1.35,-0.27,9.91,-0.03,-0.01,-0.00,31.83
27541185,1968,1,197170,230777,1.32,-0.28,9.90,-0.03,-0.01,-0.00,31.83
27581872,1957,1,197254,230827,1.34,-0.27,9.90,-0.03,-0.01,-0.00,31.97
27620184,2031,1,197216,230767,1.33,-0.26,9.92,-0.03,-0.01,-0.00,31.97
27660189,2026,1,197192,230824,1.34,-0.27,9.94,-0.04,-0.01,-0.00,31.97
27700188,2022,1,197202,230847,1.33,-0.28,9.92,-0.03,-0.01,-0.00,31.97
27740188,2014,1,197144,231012,1.34,-0.28,9.93,-0.03,-0.01,-0.01,31.97
27780188,2026,1,197298,230978,1.32,-0.28,9.90,-0.03,-0.01,-0.00,31.97
27820189,2035,1,197287,231204,1.34,-0.28,9.90,-0.03,-0.01,-0.00,31.97
27861184,1977,1,197312,231317,1.34,-0.26,9.93,-0.03,-0.01,-0.00,31.97
27901186,1972,1,197352,231432,1.33,-0.29,9.91,-0.03,-0.01,-0.00,31.97
27941185,1969,1,197302,231590,1.33,-0.26,9.91,-0.03,-0.01,-0.00,31.97
27981189,1958,1,197221,230955,1.33,-0.27,9.93,-0.03,-0.01,-0.00,31.97
28021184,1964,1,196973,229846,1.34,-0.28,9.89,-0.03,-0.01,-0.00,31.97
28061186,1951,1,196673,229444,1.34,-0.28,9.93,-0.03,-0.01,-0.00,31.97
28101185,1963,1,196683,229555,1.34,-0.27,9.93,-0.03,-0.01,-0.00,31.97
28141187,1963,1,196735,229809,1.34,-0.28,9.94,-0.03,-0.01,-0.00,31.97
28181184,1961,1,196853,230176,1.33,-0.27,9.94,-0.03,-0.01,-0.00,31.97
28221187,1951,1,196941,230392,1.34,-0.29,9.93,-0.03,-0.01,-0.00,31.97
28261185,1958,1,196904,230636,1.34,-0.26,9.91,-0.03,-0.01,-0.00,31.97
28301187,1952,1,196964,230819,1.33,-0.27,9.91,-0.03,-0.01,-0.00,31.97
28341185,1958,1,197074,231118,1.34,-0.28,9.90,-0.03,-0.01,-0.00,31.97
28381186,1948,1,197222,231365,1.35,-0.29,9.92,-0.03,-0.01,-0.00,31.97
28421185,1968,1,197278,231580,1.34,-0.28,9.93,-0.03,-0.01,-0.00,31.97
28461185,1950,1,197334,231863,1.32,-0.27,9.95,-0.03,-0.01,-0.00,31.97
28501185,1952,1,197459,232104,1.32,-0.28,9.92,-0.03,-0.01,-0.00,31.97
28541189,1949,1,197490,232325,1.34,-0.27,9.94,-0.03,-0.01,-0.00,31.97
28581871,1937,1,197512,232210,1.35,-0.28,9.92,-0.03,-0.01,-0.00,31.99
28620189,1977,1,197253,231075,1.36,-0.28,9.91,-0.03,-0.01,-0.00,31.99
28660235,1989,1,196963,230747,1.34,-0.27,9.92,-0.03,-0.01,-0.00,31.99
28700189,1991,1,196987,230811,1.34,-0.28,9.91,-0.03,-0.01,-0.00,31.99
28740189,1990,1,197027,231143,1.35,-0.27,9.92,-0.03,-0.01,-0.01,31.99
28780189,2000,1,197158,231508,1.34,-0.26,9.91,-0.03,-0.01,-0.00,31.99
28820189,1988,1,197353,231688,1.34,-0.29,9.90,-0.03,-0.01,-0.00,31.99
28860215,1986,1,197369,231914,1.34,-0.28,9.88,-0.03,-0.01,-0.00,31.99
28900188,1998,1,197479,231975,1.36,-0.27,9.91,-0.04,-0.01,-0.00,31.99
28940189,1989,1,197526,232261,1.36,-0.29,9.93,-0.03,-0.01,-0.00,31.99
28980184,1989,1,197611,232638,1.34,-0.27,9.93,-0.03,-0.01,-0.00,31.99
29020189,1994,1,197750,232983,1.33,-0.29,9.93,-0.04,-0.01,-0.00,31.99
29060184,1994,1,197872,233318,1.39,-0.27,9.92,-0.04,-0.01,-0.00,31.99
29100189,1987,1,197967,233631,1.34,-0.28,9.93,-0.03,-0.01,-0.00,31.99
29140184,1984,1,198042,234063,1.34,-0.26,9.93,-0.03,-0.01,-0.00,31.99
29180189,1991,1,198132,233698,1.34,-0.28,9.93,-0.03,-0.01,-0.00,31.99
29220185,1981,1,197776,232411,1.36,-0.28,9.91,-0.03,-0.01,-0.00,31.99
29260188,1984,1,197524,232204,1.35,-0.27,9.90,-0.03,-0.01,-0.00,31.99
29300189,1989,1,197484,232405,1.34,-0.29,9.91,-0.03,-0.01,-0.00,31.99
29340189,1981,1,197655,232585,1.35,-0.27,9.92,-0.03,-0.01,-0.00,31.99
29380184,1985,1,197671,232976,1.36,-0.28,9.91,-0.03,-0.01,-0.00,31.99
29420189,1985,1,197783,233154,1.35,-0.27,9.93,-0.03,-0.01,-0.00,31.99
29460184,1980,1,197842,233194,1.36,-0.27,9.91,-0.03,-0.01,-0.00,31.99
29500185,1975,1,197820,233314,1.33,-0.26,9.91,-0.03,-0.01,-0.00,31.99
29540183,1969,1,197910,233511,1.34,-0.27,9.90,-0.03,-0.01,-0.00,31.99
29580185,1975,1,197996,233672,1.36,-0.28,9.92,-0.03,-0.01,-0.00,31.99
29620871,1939,1,197967,233923,1.36,-0.30,9.92,-0.03,-0.01,-0.00,31.85
29661185,1966,1,198056,234107,1.35,-0.28,9.93,-0.03,-0.01,-0.00,31.85
29701184,1953,1,198013,234450,1.36,-0.30,9.90,-0.03,-0.01,-0.00,31.85
29741185,1953,1,198243,234681,1.35,-0.28,9.92,-0.03,-0.01,-0.00,31.85
29781184,1953,1,198051,233614,1.34,-0.28,9.93,-0.03,-0.01,-0.00,31.85
29821185,1962,1,197537,232804,1.35,-0.26,9.93,-0.03,-0.01,-0.00,31.85
29861184,1963,1,197528,232838,1.34,-0.27,9.91,-0.03,-0.01,-0.00,31.85
29901186,1959,1,197543,233080,1.36,-0.28,9.91,-0.03,-0.01,-0.00,31.85
29941184,1973,1,197725,233256,1.35,-0.27,9.93,-0.03,-0.01,-0.00,31.85
29981186,1967,1,197741,233622,1.35,-0.28,9.91,-0.03,-0.01,-0.00,31.85
30021184,1971,1,197917,233639,1.35,-0.27,9.91,-0.03,-0.01,-0.00,31.85
30061185,1971,1,197849,233719,1.34,-0.28,9.92,-0.03,-0.01,-0.00,31.85
30101184,1967,1,197840,233772,1.34,-0.26,9.92,-0.03,-0.01,-0.00,31.85
30141186,1968,1,197778,233979,1.34,-0.28,9.91,-0.03,-0.01,-0.00,31.85
30181184,1970,1,197935,234126,1.34,-0.30,9.93,-0.03,-0.01,-0.00,31.85
30221185,1962,1,197947,234339,1.36,-0.28,9.90,-0.03,-0.01,-0.00,31.85
30259189,2056,1,198082,234536,1.34,-0.30,9.92,-0.03,-0.01,-0.00,31.85
30299188,2043,1,198145,234743,1.34,-0.26,9.90,-0.03,-0.01,-0.00,31.85
30339184,2044,1,198277,234720,1.33,-0.27,9.90,-0.03,-0.01,-0.00,31.85
30379189,2047,1,198081,233511,1.34,-0.28,9.88,-0.03,-0.01,-0.00,31.85
30419189,2060,1,197576,232614,1.36,-0.27,9.92,-0.03,-0.01,-0.00,31.85
30459188,2041,1,197534,232279,1.34,-0.28,9.90,-0.03,-0.01,-0.00,31.85
30499192,2032,1,197458,232311,1.34,-0.29,9.90,-0.03,-0.01,-0.00,31.85
30539186,2030,1,197499,232418,1.35,-0.27,9.94,-0.03,-0.01,-0.00,31.85
30579184,2032,1,197682,232583,1.34,-0.28,9.91,-0.03,-0.01,-0.00,31.85
30619188,2025,1,197691,232646,1.35,-0.28,9.93,-0.03,-0.01,-0.00,31.85
30659870,1961,1,197639,232594,1.33,-0.28,9.93,-0.03,-0.01,-0.00,31.95
30700204,1952,1,197707,232620,1.34,-0.28,9.92,-0.03,-0.01,-0.00,31.95
30740183,1974,1,197770,232841,1.35,-0.27,9.93,-0.03,-0.01,-0.01,31.95
30780185,1966,1,197804,233043,1.34,-0.28,9.90,-0.03,-0.01,-0.00,31.95
30820183,1971,1,197910,233188,1.34,-0.26,9.93,-0.03,-0.01,-0.00,31.95
30860186,1989,1,197824,233447,1.34,-0.28,9.88,-0.03,-0.01,-0.00,31.95
30900184,1968,1,197991,233526,1.36,-0.29,9.92,-0.03,-0.01,-0.00,31.95
30939189,2021,1,197933,233619,1.35,-0.27,9.90,-0.03,-0.01,-0.00,31.95
30979184,2022,1,197882,232514,1.35,-0.27,9.93,-0.03,-0.01,-0.00,31.95
31019189,2023,1,197421,231362,1.35,-0.28,9.94,-0.03,-0.01,-0.00,31.95
31059184,2011,1,197114,230935,1.35,-0.28,9.91,-0.03,-0.01,-0.00,31.95
31099189,2009,1,197099,230765,1.36,-0.28,9.89,-0.03,-0.01,-0.00,31.95
31139183,2010,1,197019,230914,1.33,-0.27,9.93,-0.03,-0.01,-0.00,31.95
31179185,2018,1,197049,231163,1.35,-0.28,9.92,-0.03,-0.01,-0.00,31.95
31219183,2023,1,197168,231296,1.34,-0.27,9.90,-0.03,-0.01,-0.00,31.95
31259185,2000,1,197201,231311,1.36,-0.26,9.90,-0.03,-0.01,-0.00,31.95
31299183,2003,1,197169,231443,1.33,-0.28,9.91,-0.03,-0.01,-0.00,31.95
31339188,2006,1,197238,231675,1.35,-0.28,9.91,-0.03,-0.01,-0.00,31.95
31379184,2000,1,197383,231857,1.33,-0.28,9.93,-0.03,-0.01,-0.00,31.95
31419189,1997,1,197401,232104,1.34,-0.27,9.93,-0.03,-0.01,-0.00,31.95
31459184,2000,1,197499,232435,1.34,-0.28,9.92,-0.03,-0.01,-0.00,31.95
31499185,2010,1,197592,232659,1.34,-0.27,9.93,-0.03,-0.01,-0.00,31.95
31539183,2003,1,197679,232927,1.36,-0.27,9.91,-0.03,-0.01,-0.00,31.95
31579185,2011,1,197693,233088,1.33,-0.28,9.90,-0.03,-0.01,-0.00,31.95
31619183,1996,1,197598,232017,1.35,-0.28,9.90,-0.03,-0.01,-0.00,31.95
31659185,2001,1,197105,230866,1.33,-0.25,9.91,-0.03,-0.01,-0.00,31.95
31699870,1969,1,196949,230479,1.32,-0.27,9.92,-0.03,-0.01,-0.00,31.97
31740185,1970,1,196953,230529,1.34,-0.28,9.92,-0.03,-0.01,-0.00,31.97
31780184,1965,1,196976,230795,1.35,-0.28,9.93,-0.03,-0.01,-0.00,31.97
31820185,1954,1,197124,231218,1.34,-0.26,9.93,-0.03,-0.01,-0.00,31.97
31860184,1959,1,197295,231510,1.34,-0.27,9.92,-0.03,-0.01,-0.00,31.97
31900186,1971,1,197318,231585,1.34,-0.26,9.92,-0.03,-0.01,-0.00,31.97
31939192,2000,1,197379,231816,1.34,-0.28,9.95,-0.03,-0.01,-0.00,31.97
31979186,1993,1,197428,232088,1.34,-0.26,9.90,-0.03,-0.01,-0.00,31.97
32019183,1985,1,197615,232400,1.35,-0.28,9.92,-0.03,-0.01,-0.00,31.97
32059186,1990,1,197671,232716,1.35,-0.27,9.90,-0.03,-0.01,-0.00,31.97
32099184,1986,1,197785,233015,1.34,-0.28,9.91,-0.03,-0.01,-0.00,31.97
32139185,1984,1,197916,233387,1.33,-0.29,9.92,-0.03,-0.01,-0.00,31.97
32179183,1983,1,198081,233775,1.36,-0.28,9.93,-0.04,-0.01,-0.00,31.97
32219185,1993,1,198185,233886,1.35,-0.28,9.92,-0.04,-0.01,-0.00,31.97
32259183,1985,1,197805,232395,1.34,-0.27,9.90,-0.03,-0.01,-0.00,31.97
32299185,1984,1,197491,231754,1.34,-0.26,9.91,-0.03,-0.01,-0.00,31.97
32339183,1989,1,197410,231847,1.34,-0.27,9.91,-0.03,-0.01,-0.00,31.97
32379186,1987,1,197482,232177,1.35,-0.28,9.92,-0.03,-0.01,-0.00,31.97
32419184,1991,1,197606,232527,1.34,-0.29,9.91,-0.03,-0.01,-0.00,31.97
32459186,1986,1,197777,232742,1.35,-0.26,9.92,-0.03,-0.01,-0.00,31.97
32499183,1990,1,197796,232734,1.33,-0.29,9.92,-0.03,-0.01,-0.01,31.97
32539189,1984,1,197766,232790,1.35,-0.28,9.90,-0.03,-0.01,-0.00,31.97
32579183,1973,1,197821,232948,1.34,-0.26,9.92,-0.03,-0.01,-0.00,31.97
32619185,1977,1,197852,233243,1.36,-0.28,9.91,-0.03,-0.01,-0.00,31.97
32659184,1983,1,197871,233468,1.33,-0.26,9.92,-0.03,-0.01,-0.00,31.97
32699185,1985,1,197948,233718,1.34,-0.27,9.90,-0.03,-0.01,-0.00,31.97
32739870,1947,1,198065,233929,1.35,-0.28,9.93,-0.03,-0.01,-0.00,31.81
32780186,1959,1,198180,234144,1.35,-0.29,9.90,-0.03,-0.01,-0.00,31.81
32820183,1957,1,198246,234219,1.33,-0.27,9.90,-0.03,-0.01,-0.00,31.81
32860185,1959,1,197989,232748,1.36,-0.27,9.90,-0.03,-0.01,-0.00,31.81
32900184,1967,1,197525,231775,1.33,-0.27,9.88,-0.03,-0.01,-0.00,31.81
32940185,1968,1,197400,231725,1.33,-0.29,9.91,-0.03,-0.01,-0.00,31.81
32980184,1965,1,197494,231861,1.35,-0.27,9.90,-0.03,-0.01,-0.00,31.81
33020185,1969,1,197525,232045,1.36,-0.28,9.92,-0.03,-0.01,-0.00,31.81
33060184,1962,1,197600,232450,1.36,-0.26,9.91,-0.03,-0.01,-0.00,31.81
33100186,1966,1,197681,232436,1.34,-0.28,9.93,-0.03,-0.01,-0.00,31.81
33140184,1959,1,197632,232507,1.35,-0.28,9.92,-0.03,-0.01,-0.00,31.81
33180185,1953,1,197753,232542,1.35,-0.28,9.91,-0.03,-0.01,-0.00,31.81
33218189,2047,1,197795,232645,1.35,-0.28,9.94,-0.03,-0.01,-0.00,31.81
33258188,2047,1,197867,232902,1.34,-0.27,9.90,-0.03,-0.01,-0.00,31.81
33298184,2043,1,198053,233040,1.33,-0.27,9.91,-0.03,-0.01,-0.00,31.81
33338188,2039,1,198141,233294,1.34,-0.30,9.91,-0.03,-0.01,-0.00,31.81
33378188,2038,1,198174,233537,1.35,-0.28,9.92,-0.03,-0.01,-0.00,31.81
33418188,2035,1,198319,233707,1.33,-0.30,9.92,-0.03,-0.01,-0.00,31.81
33458183,2034,1,198368,233839,1.34,-0.27,9.90,-0.03,-0.01,-0.00,31.81
33498186,2044,1,198194,232313,1.36,-0.27,9.92,-0.03,-0.01,-0.00,31.81
33538184,2033,1,197673,231145,1.35,-0.30,9.95,-0.03,-0.01,-0.00,31.81
33578185,2036,1,197490,230861,1.35,-0.28,9.92,-0.03,-0.01,-0.00,31.81
33618184,2032,1,197599,230991,1.35,-0.29,9.93,-0.03,-0.01,-0.00,31.81
33658188,2032,1,197570,231297,1.34,-0.28,9.91,-0.03,-0.01,-0.00,31.81
33698184,2030,1,197667,231706,1.36,-0.29,9.92,-0.03,-0.01,-0.00,31.81
33738189,2023,1,197810,231843,1.35,-0.28,9.92,-0.03,-0.01,-0.00,31.81
33778884,1961,1,197734,231963,1.35,-0.27,9.94,-0.03,-0.01,-0.00,31.69
33819185,1968,1,197842,232047,1.33,-0.29,9.91,-0.03,-0.01,-0.00,31.69
33859184,1959,1,197916,232236,1.36,-0.27,9.91,-0.03,-0.01,-0.00,31.69
33899185,1968,1,198027,232458,1.35,-0.27,9.92,-0.03,-0.01,-0.00,31.69
33939184,1968,1,198078,232849,1.36,-0.28,9.92,-0.03,-0.01,-0.00,31.69
33979204,1968,1,198208,232990,1.34,-0.28,9.90,-0.03,-0.01,-0.00,31.69
34019184,1968,1,198239,233249,1.36,-0.26,9.91,-0.03,-0.01,-0.01,31.69
34059186,1969,1,198295,233297,1.35,-0.28,9.94,-0.03,-0.01,-0.00,31.69
34099183,1959,1,198386,233494,1.33,-0.28,9.90,-0.03,-0.01,-0.00,31.69
34139185,1968,1,198376,233391,1.35,-0.29,9.90,-0.03,-0.01,-0.00,31.69
34179184,1969,1,198081,231670,1.34,-0.28,9.90,-0.03,-0.01,-0.00,31.69
34219185,1977,1,197479,230581,1.34,-0.27,9.90,-0.03,-0.01,-0.00,31.69
34259183,1959,1,197385,230541,1.35,-0.28,9.95,-0.03,-0.01,-0.00,31.69
34299186,1968,1,197420,230629,1.36,-0.26,9.92,-0.03,-0.01,-0.00,31.69
34339184,1972,1,197502,230947,1.35,-0.28,9.88,-0.03,-0.01,-0.00,31.69
34379186,1975,1,197571,231402,1.33,-0.27,9.91,-0.03,-0.01,-0.00,31.69
34419183,1968,1,197736,231457,1.34,-0.27,9.90,-0.03,-0.01,-0.00,31.69
34459185,1975,1,197720,231606,1.35,-0.28,9.91,-0.03,-0.01,-0.00,31.69
34499184,1975,1,197738,231776,1.36,-0.30,9.90,-0.03,-0.01,-0.01,31.69
34539185,1974,1,197886,232039,1.35,-0.28,9.90,-0.03,-0.01,-0.00,31.69
34579183,1973,1,197912,232338,1.34,-0.27,9.90,-0.03,-0.01,-0.00,31.69
34619185,1971,1,198113,232544,1.35,-0.28,9.90,-0.03,-0.01,-0.00,31.69
34659183,1977,1,198119,232889,1.34,-0.29,9.91,-0.03,-0.01,-0.00,31.69
34699211,1975,1,198299,233169,1.35,-0.26,9.90,-0.03,-0.01,-0.00,31.69
34739184,1981,1,198367,233445,1.32,-0.28,9.92,-0.03,-0.01,-0.00,31.69
34779871,1978,1,198346,233781,1.34,-0.26,9.92,-0.03,-0.01,-0.00,31.71
34818184,2003,1,198445,233604,1.35,-0.27,9.90,-0.03,-0.01,-0.00,31.71
34858186,2012,1,198106,231839,1.27,-0.23,9.94,-0.03,0.00,-0.00,31.71
34898168,2005,1,197714,230757,1.34,-0.27,9.90,-0.04,-0.01,-0.01,31.71
34938186,1986,1,197572,230745,1.36,-0.27,9.94,-0.03,-0.01,-0.00,31.71
34978183,1984,1,197687,230856,1.36,-0.28,9.92,-0.03,-0.01,-0.00,31.71
35018185,1988,1,197715,231077,1.34,-0.27,9.88,-0.03,-0.01,-0.00,31.71
35058183,1983,1,197856,231342,1.35,-0.26,9.93,-0.03,-0.01,-0.00,31.71
35098185,1990,1,197853,231315,1.35,-0.28,9.92,-0.03,-0.01,-0.00,31.71
35138183,1990,1,197907,231075,1.35,-0.28,9.92,-0.03,-0.01,-0.00,31.71
35178185,1984,1,197763,231150,1.33,-0.27,9.92,-0.03,-0.01,-0.00,31.71
35218203,1984,1,197777,231261,1.33,-0.27,9.92,-0.03,-0.01,-0.00,31.71
35258186,1984,1,197872,231262,1.35,-0.28,9.93,-0.03,-0.01,-0.00,31.71
35298183,1978,1,197798,231450,1.34,-0.28,9.92,-0.03,-0.01,-0.00,31.71
35338189,1977,1,197925,231404,1.36,-0.28,9.94,-0.03,-0.01,-0.01,31.71
35378183,1957,1,197878,231487,1.34,-0.29,9.93,-0.03,-0.01,-0.00,31.71
35418185,1969,1,197885,231590,1.35,-0.28,9.89,-0.03,-0.01,-0.00,31.71
35458184,1991,1,197884,231669,1.35,-0.28,9.92,-0.03,-0.01,-0.00,31.71
35498185,1990,1,197781,230338,1.34,-0.27,9.89,-0.03,-0.01,-0.00,31.71
35538184,1991,1,197085,228807,1.35,-0.27,9.93,-0.03,-0.01,-0.00,31.71
35578185,1983,1,196856,228278,1.35,-0.28,9.92,-0.03,-0.01,-0.00,31.71
35618233,1984,1,196828,228511,1.36,-0.29,9.87,-0.03,-0.01,-0.00,31.71
35658185,1988,1,196930,229005,1.36,-0.28,9.92,-0.03,-0.01,-0.00,31.71
35698183,1981,1,197022,229505,1.34,-0.28,9.93,-0.03,-0.01,-0.00,31.71
35738186,1982,1,197120,229640,1.36,-0.27,9.92,-0.03,-0.01,-0.00,31.71
35778183,1984,1,197164,229509,1.33,-0.28,9.93,-0.03,-0.01,-0.00,31.71
35818871,1943,1,197193,229568,1.35,-0.28,9.90,-0.03,-0.01,-0.00,31.85
35859183,1951,1,197205,229690,1.35,-0.26,9.90,-0.03,-0.01,-0.01,31.85
35899186,1953,1,197293,229890,1.33,-0.28,9.91,-0.03,-0.01,-0.00,31.85
35939184,1950,1,197300,230204,1.35,-0.28,9.92,-0.03,-0.01,-0.00,31.85
35979186,1974,1,197370,230522,1.35,-0.26,9.89,-0.03,-0.01,-0.01,31.85
36019183,1961,1,197388,230845,1.35,-0.29,9.93,-0.03,-0.01,-0.00,31.85
36059185,1968,1,197621,231133,1.34,-0.28,9.91,-0.03,-0.01,-0.00,31.85
36099184,1974,1,197570,230180,1.36,-0.26,9.92,-0.03,-0.01,-0.01,31.85
36137188,2046,1,196958,228500,1.34,-0.29,9.93,-0.03,-0.01,-0.01,31.85
36177188,2044,1,196656,227792,1.33,-0.28,9.90,-0.03,-0.01,-0.00,31.85
36217189,2047,1,196609,227975,1.35,-0.29,9.90,-0.03,-0.01,-0.00,31.85
36257184,2054,1,196764,228367,1.36,-0.27,9.93,-0.03,-0.01,-0.00,31.85
36297189,2037,1,196940,228979,1.33,-0.30,9.92,-0.03,-0.01,-0.00,31.85
36337184,2036,1,197130,229222,1.36,-0.27,9.92,-0.03,-0.01,-0.00,31.85
36377188,2042,1,197185,229278,1.33,-0.27,9.92,-0.03,-0.01,-0.00,31.85
36417184,2047,1,197215,229283,1.33,-0.29,9.92,-0.03,-0.01,-0.00,31.85
36457188,2029,1,197172,229497,1.35,-0.27,9.92,-0.03,-0.01,-0.00,31.85
36497184,2032,1,197378,229830,1.35,-0.26,9.93,-0.03,-0.01,-0.00,31.85
36537188,2027,1,197516,230070,1.35,-0.28,9.90,-0.03,-0.01,-0.00,31.85
36577184,2034,1,197651,230479,1.35,-0.27,9.93,-0.03,-0.01,-0.00,31.85
36617188,2030,1,197703,230704,1.35,-0.28,9.92,-0.03,-0.01,-0.00,31.85
36657184,2032,1,197773,230976,1.36,-0.27,9.94,-0.03,-0.01,-0.00,31.85
36697188,2030,1,197917,231049,1.35,-0.28,9.91,-0.03,-0.01,-0.00,31.85
36737184,2029,1,197719,229528,1.36,-0.27,9.93,-0.03,-0.01,-0.00,31.85
36777188,2029,1,197055,227755,1.35,-0.26,9.92,-0.03,-0.01,-0.00,31.85
36817184,2025,1,196720,227256,1.35,-0.26,9.90,-0.03,-0.01,-0.00,31.85
36857872,1951,1,196701,227410,1.35,-0.28,9.93,-0.03,-0.01,-0.00,31.89
36898183,1978,1,196813,227850,1.35,-0.28,9.91,-0.03,-0.01,-0.00,31.89
36938185,1968,1,196985,228356,1.35,-0.27,9.89,-0.03,-0.01,-0.00,31.89
36978184,1958,1,197176,228574,1.31,-0.28,9.92,-0.03,-0.01,-0.01,31.89
37018186,1962,1,197174,228602,1.36,-0.27,9.94,-0.03,-0.01,-0.01,31.89
37058195,1967,1,197189,228664,1.35,-0.30,9.90,-0.03,-0.01,-0.00,31.89
37098185,1968,1,197259,228848,1.34,-0.27,9.92,-0.03,-0.01,-0.00,31.89
37138183,1968,1,197269,229123,1.34,-0.26,9.93,-0.03,-0.01,-0.00,31.89
37178185,1969,1,197310,229366,1.36,-0.26,9.92,-0.03,-0.01,-0.00,31.89
37218184,1968,1,197413,229529,1.36,-0.28,9.90,-0.03,-0.01,-0.00,31.89
37258202,1966,1,197518,229790,1.34,-0.26,9.90,-0.03,-0.01,-0.00,31.89
37298183,1967,1,197610,230100,1.35,-0.27,9.91,-0.03,-0.01,-0.00,31.89
37338185,1969,1,197695,229795,1.34,-0.27,9.91,-0.03,-0.01,-0.00,31.89
37378183,1965,1,197237,228209,1.35,-0.29,9.89,-0.03,-0.01,-0.00,31.89
37418186,1965,1,196794,227237,1.35,-0.27,9.91,-0.03,-0.01,-0.00,31.89
37458218,1951,1,196661,227317,1.34,-0.28,9.92,-0.03,-0.01,-0.00,31.89
37498185,1956,1,196727,227576,1.36,-0.27,9.90,-0.03,-0.01,-0.00,31.89
37538183,1954,1,196771,227990,1.33,-0.29,9.90,-0.03,-0.01,-0.01,31.89
37578185,1951,1,196962,228370,1.35,-0.26,9.90,-0.03,-0.01,-0.00,31.89
37618184,1962,1,197027,228552,1.32,-0.28,9.93,-0.03,-0.01,-0.00,31.89
37658186,1962,1,197041,228708,1.34,-0.27,9.92,-0.03,-0.01,-0.01,31.89
37698184,1960,1,197112,228948,1.33,-0.29,9.93,-0.04,-0.01,-0.00,31.89
37738185,1969,1,197239,229257,1.35,-0.28,9.90,-0.03,-0.01,-0.00,31.89
37778184,1967,1,197333,229614,1.34,-0.26,9.90,-0.03,-0.01,-0.00,31.89
37818185,1968,1,197445,229914,1.35,-0.27,9.90,-0.03,-0.01,-0.00,31.89
37858870,1968,1,197589,230264,1.34,-0.27,9.94,-0.03,-0.01,-0.00,31.85
37897188,1994,1,197729,230516,1.35,-0.28,9.92,-0.03,-0.01,-0.00,31.85
37937184,1986,1,197796,230847,1.36,-0.28,9.92,-0.03,-0.01,-0.00,31.85
37977186,1990,1,197804,230351,1.33,-0.28,9.92,-0.03,-0.01,-0.00,31.85
38017183,1987,1,197374,229368,1.34,-0.27,9.91,-0.03,-0.01,-0.00,31.85
38057185,1999,1,197152,229025,1.35,-0.26,9.91,-0.03,-0.01,-0.00,31.85
38097183,1984,1,197132,229098,1.33,-0.28,9.91,-0.03,-0.01,-0.00,31.85
38137186,1991,1,197277,229359,1.35,-0.30,9.90,-0.03,-0.01,-0.00,31.85
38177183,1995,1,197347,229761,1.35,-0.28,9.95,-0.03,-0.01,-0.01,31.85
38217188,1990,1,197452,230013,1.36,-0.29,9.90,-0.03,-0.01,-0.00,31.85
38257184,1984,1,197505,230206,1.35,-0.29,9.91,-0.03,-0.01,-0.00,31.85
38297185,1990,1,197551,230319,1.38,-0.28,9.92,-0.03,-0.01,-0.00,31.85
38337183,1984,1,197596,230551,1.33,-0.27,9.92,-0.03,-0.01,-0.01,31.85
38377186,1973,1,197661,230865,1.34,-0.28,9.92,-0.03,-0.01,-0.00,31.85
38417184,1981,1,197792,231080,1.35,-0.28,9.92,-0.03,-0.01,-0.00,31.85
38457186,1981,1,197818,231339,1.35,-0.28,9.92,-0.03,-0.01,-0.00,31.85
38497183,1971,1,197914,231610,1.35,-0.28,9.94,-0.03,-0.01,-0.00,31.85
38537185,1987,1,197958,231914,1.35,-0.28,9.92,-0.03,-0.01,-0.00,31.85
38577183,1974,1,198016,231640,1.33,-0.28,9.91,-0.03,-0.01,-0.00,31.85
38617185,1990,1,197749,230810,1.35,-0.28,9.92,-0.03,-0.01,-0.00,31.85
38657183,1984,1,197462,230702,1.35,-0.27,9.92,-0.03,-0.01,-0.00,31.85
38697196,1975,1,197525,230904,1.35,-0.27,9.93,-0.03,-0.01,-0.00,31.85
38737184,1984,1,197609,230990,1.35,-0.27,9.89,-0.03,-0.01,-0.00,31.85
38777185,1985,1,197669,231247,1.34,-0.25,9.90,-0.03,-0.01,-0.00,31.85
38817183,1978,1,197689,231345,1.34,-0.27,9.93,-0.03,-0.01,-0.01,31.85
38857185,1978,1,197733,231298,1.33,-0.29,9.90,-0.03,-0.01,-0.00,31.85
38897878,1957,1,197623,231299,1.35,-0.28,9.90,-0.03,-0.01,-0.00,31.69
38938185,1968,1,197686,231390,1.35,-0.28,9.93,-0.03,-0.01,-0.01,31.69
38978184,1962,1,197730,231460,1.34,-0.26,9.91,-0.03,-0.01,-0.00,31.69
39016188,2061,1,197766,231523,1.33,-0.28,9.92,-0.03,-0.01,-0.00,31.69
39056188,2047,1,197779,231609,1.36,-0.28,9.90,-0.03,-0.01,-0.00,31.69
39096203,2033,1,197762,231704,1.36,-0.28,9.93,-0.03,-0.01,-0.00,31.69
39136188,2046,1,197868,231764,1.35,-0.29,9.92,-0.03,-0.01,-0.00,31.69
39176188,2043,1,197785,231050,1.33,-0.28,9.91,-0.03,-0.01,-0.00,31.69
39216184,2054,1,197492,230292,1.35,-0.27,9.91,-0.03,-0.01,-0.00,31.69
39256188,2045,1,197317,229927,1.35,-0.25,9.91,-0.03,-0.01,-0.01,31.69
39296188,2043,1,197305,229825,1.34,-0.27,9.92,-0.03,-0.01,-0.01,31.69
39336188,2037,1,197255,229865,1.35,-0.29,9.90,-0.03,-0.01,-0.00,31.69
39376184,2032,1,197351,230108,1.35,-0.29,9.91,-0.03,-0.01,-0.01,31.69
39416221,2033,1,197387,230185,1.33,-0.28,9.93,-0.03,-0.01,-0.00,31.69
39456184,2032,1,197341,230207,1.36,-0.26,9.93,-0.03,-0.01,-0.00,31.69
39496188,2031,1,197333,230245,1.35,-0.27,9.93,-0.03,-0.01,-0.00,31.69
39536184,2027,1,197330,230390,1.36,-0.28,9.92,-0.03,-0.01,-0.01,31.69
39576188,2023,1,197321,230562,1.34,-0.28,9.91,-0.03,-0.01,-0.00,31.69
39616184,2026,1,197405,230780,1.34,-0.28,9.88,-0.03,-0.01,-0.00,31.69
39656188,2032,1,197398,231031,1.36,-0.28,9.90,-0.03,-0.01,-0.00,31.69
39696184,2026,1,197411,231234,1.33,-0.27,9.94,-0.03,-0.01,-0.00,31.69
39736188,2024,1,197490,231417,1.33,-0.27,9.91,-0.03,-0.01,-0.00,31.69
39776184,2014,1,197503,231115,1.34,-0.27,9.92,-0.03,-0.01,-0.01,31.69
39816188,2025,1,197239,230529,1.34,-0.27,9.96,-0.03,-0.01,-0.00,31.69
39856184,2026,1,197104,230275,1.34,-0.28,9.93,-0.03,-0.01,-0.00,31.69
39896188,2019,1,197052,230276,1.34,-0.27,9.94,-0.03,-0.01,-0.00,31.69
39936888,1975,1,197023,230401,1.35,-0.27,9.91,-0.03,-0.01,-0.00,31.75
39977185,1981,1,197037,230791,1.35,-0.28,9.91,-0.03,-0.01,-0.00,31.75
40017183,1975,1,197094,230986,1.35,-0.28,9.91,-0.03,-0.01,-0.00,31.75
40057185,1982,1,197093,231095,1.36,-0.27,9.94,-0.03,-0.01,-0.00,31.75
40097183,1979,1,197090,231259,1.36,-0.29,9.91,-0.03,-0.01,-0.00,31.75
40137186,1986,1,197088,231573,1.34,-0.29,9.92,-0.03,-0.01,-0.00,31.75
40177183,1972,1,197224,231873,1.34,-0.27,9.90,-0.04,-0.01,-0.00,31.75
40217185,1978,1,197285,232182,1.33,-0.27,9.94,-0.03,-0.01,-0.00,31.75
40257184,1978,1,197389,232524,1.34,-0.27,9.92,-0.03,-0.01,-0.00,31.75
40297185,1974,1,197511,232767,1.37,-0.30,9.91,-0.03,-0.01,-0.00,31.75
40337183,1968,1,197559,232996,1.34,-0.28,9.90,-0.03,-0.01,-0.00,31.75
40377185,1968,1,197631,233249,1.36,-0.26,9.91,-0.03,-0.01,-0.00,31.75
40417183,1968,1,197696,233514,1.34,-0.28,9.94,-0.03,-0.01,-0.00,31.75
40457185,1968,1,197765,233251,1.35,-0.29,9.93,-0.03,-0.01,-0.00,31.75
40497184,1970,1,197488,232474,1.36,-0.28,9.91,-0.03,-0.01,-0.00,31.75
40537189,1971,1,197373,232311,1.36,-0.26,9.93,-0.03,-0.01,-0.00,31.75
40577184,1962,1,197339,232385,1.36,-0.28,9.93,-0.03,-0.01,-0.01,31.75
40617186,1969,1,197366,232504,1.34,-0.28,9.90,-0.03,-0.01,-0.00,31.75
40657183,1967,1,197411,232788,1.36,-0.26,9.94,-0.03,-0.01,-0.00,31.75
40697185,1971,1,197483,232955,1.35,-0.27,9.92,-0.03,-0.01,-0.00,31.75
40737198,1962,1,197540,232992,1.36,-0.26,9.91,-0.03,-0.01,-0.00,31.75
40777186,1964,1,197566,233076,1.35,-0.27,9.91,-0.03,-0.01,-0.00,31.75
40817184,1964,1,197609,233270,1.35,-0.28,9.92,-0.03,-0.01,-0.00,31.75
40857185,1948,1,197687,233379,1.36,-0.29,9.91,-0.03,-0.01,-0.00,31.75
40897184,1968,1,197811,233536,1.34,-0.27,9.92,-0.03,-0.01,-0.00,31.75
40937871,1958,1,197793,233752,1.35,-0.27,9.92,-0.03,-0.01,-0.00,31.75
40976203,1995,1,197918,233954,1.36,-0.27,9.91,-0.03,-0.01,-0.00,31.75
41016186,1983,1,197917,234061,1.35,-0.27,9.92,-0.03,-0.01,-0.00,31.75
41056183,1982,1,197942,234269,1.34,-0.27,9.93,-0.03,-0.01,-0.00,31.75
41096186,1982,1,197984,234534,1.34,-0.27,9.90,-0.03,-0.01,-0.00,31.75
41136183,1995,1,198054,234945,1.34,-0.28,9.93,-0.03,-0.01,-0.00,31.75
41176185,1980,1,198117,235105,1.35,-0.27,9.91,-0.03,-0.01,-0.00,31.75
41216183,1971,1,197925,234031,1.35,-0.28,9.93,-0.03,-0.01,-0.00,31.75
41256209,1989,1,197593,233609,1.35,-0.28,9.91,-0.03,-0.01,-0.00,31.75
41296184,1971,1,197577,233713,1.34,-0.29,9.94,-0.03,-0.01,-0.00,31.75
41336186,1982,1,197619,233818,1.33,-0.30,9.94,-0.03,-0.01,-0.01,31.75
41376183,1975,1,197672,233990,1.34,-0.27,9.93,-0.03,-0.01,-0.00,31.75
41416185,1973,1,197749,234236,1.36,-0.28,9.91,-0.03,-0.01,-0.01,31.75
41456193,1970,1,197796,234291,1.35,-0.28,9.92,-0.03,-0.01,-0.01,31.75
41496189,1974,1,197745,234391,1.34,-0.27,9.94,-0.03,-0.01,-0.00,31.75
41536184,1983,1,197774,234682,1.34,-0.28,9.90,-0.03,-0.01,-0.00,31.75
41576185,1974,1,197814,235028,1.34,-0.27,9.91,-0.03,-0.01,-0.00,31.75
41616183,1984,1,197900,235362,1.33,-0.26,9.93,-0.03,-0.01,-0.00,31.75
41656185,1981,1,198035,235665,1.35,-0.27,9.91,-0.03,-0.01,-0.00,31.75
41696184,1966,1,198111,235937,1.34,-0.27,9.93,-0.03,-0.01,-0.00,31.75
41736185,1971,1,198226,236166,1.34,-0.29,9.92,-0.03,-0.01,-0.00,31.75
41776183,1976,1,198271,236323,1.34,-0.27,9.90,-0.03,-0.01,-0.00,31.75
41816185,1969,1,198329,236612,1.36,-0.27,9.90,-0.03,-0.01,-0.00,31.75
41856184,1984,1,198393,237118,1.34,-0.27,9.91,-0.03,-0.01,-0.00,31.75
41896185,1987,1,198464,236455,1.34,-0.28,9.93,-0.03,-0.01,-0.00,31.75
41936183,1983,1,197932,235011,1.36,-0.29,9.93,-0.03,-0.01,-0.00,31.75
41976871,1954,1,197721,234861,1.36,-0.27,9.91,-0.03,-0.01,-0.00,31.91
42017184,1961,1,197780,235105,1.33,-0.28,9.91,-0.03,-0.01,-0.00,31.91
42057185,1955,1,197829,235267,1.37,-0.29,9.90,-0.03,-0.01,-0.00,31.91
42097184,1968,1,197914,235595,1.33,-0.26,9.91,-0.03,-0.01,-0.00,31.91
42137185,1968,1,198031,235732,1.35,-0.26,9.93,-0.03,-0.01,-0.00,31.91
42177210,1965,1,198059,235673,1.34,-0.27,9.92,-0.03,-0.01,-0.00,31.91
42217186,1968,1,198074,235648,1.36,-0.28,9.91,-0.03,-0.01,-0.00,31.91
42257184,1968,1,198102,235856,1.34,-0.27,9.92,-0.03,-0.01,-0.00,31.91
42295189,2052,1,198160,235984,1.33,-0.26,9.92,-0.03,-0.01,-0.00,31.91
42335189,2042,1,198249,236175,1.35,-0.28,9.91,-0.03,-0.01,-0.00,31.91
42375188,2064,1,198299,236367,1.36,-0.28,9.88,-0.03,-0.01,-0.00,31.91
42415184,2039,1,198330,236409,1.35,-0.26,9.90,-0.03,-0.01,-0.00,31.91
42455189,2045,1,198312,236444,1.34,-0.27,9.94,-0.03,-0.01,-0.00,31.91
42495184,2035,1,198392,236559,1.34,-0.27,9.91,-0.03,-0.01,-0.00,31.91
42535188,2033,1,198387,236278,1.33,-0.29,9.95,-0.03,-0.01,-0.00,31.91
42575184,2034,1,198161,234870,1.34,-0.28,9.92,-0.03,-0.01,-0.00,31.91
42615188,2031,1,197866,234357,1.36,-0.28,9.92,-0.03,-0.01,-0.00,31.91
42655184,2022,1,197825,234448,1.34,-0.28,9.92,-0.03,-0.01,-0.00,31.91
42695189,2027,1,197851,234494,1.35,-0.29,9.90,-0.03,-0.01,-0.00,31.91
42735184,2025,1,197846,234606,1.35,-0.26,9.92,-0.03,-0.01,-0.00,31.91
42775188,2029,1,197936,234765,1.34,-0.27,9.93,-0.03,-0.01,-0.00,31.91
42815184,2015,1,197935,234706,1.35,-0.28,9.93,-0.03,-0.01,-0.00,31.91
42855188,2026,1,197890,234674,1.35,-0.28,9.91,-0.03,-0.01,-0.00,31.91
42895184,2032,1,197896,234706,1.36,-0.28,9.90,-0.03,-0.01,-0.01,31.91
42935188,2027,1,197901,234803,1.36,-0.27,9.91,-0.03,-0.01,-0.00,31.91
42975184,2021,1,197932,234941,1.33,-0.28,9.92,-0.03,-0.01,-0.00,31.91
43016871,1963,1,198002,235047,1.36,-0.27,9.92,-0.03,-0.01,-0.00,31.69
43055183,2018,1,198022,235164,1.36,-0.28,9.92,-0.03,-0.01,-0.00,31.69
43095185,2012,1,198047,235258,1.37,-0.28,9.89,-0.03,-0.01,-0.00,31.69
43135184,2015,1,198034,235367,1.34,-0.26,9.92,-0.03,-0.01,-0.01,31.69
43175188,2022,1,198078,235464,1.36,-0.28,9.93,-0.03,-0.01,-0.00,31.69
43215183,2017,1,198046,235541,1.34,-0.28,9.91,-0.03,-0.01,-0.00,31.69
43255186,2005,1,197970,234555,1.35,-0.29,9.92,-0.03,-0.01,-0.01,31.69
43295184,2000,1,197610,233568,1.36,-0.29,9.93,-0.03,-0.01,-0.00,31.69
43335184,2002,1,197385,233279,1.34,-0.27,9.92,-0.03,-0.01,-0.00,31.69
43375183,2009,1,197357,233177,1.34,-0.28,9.94,-0.03,-0.01,-0.00,31.69
43415188,2013,1,197374,233111,1.35,-0.29,9.89,-0.03,-0.01,-0.00,31.69
43455184,2006,1,197408,233130,1.33,-0.30,9.92,-0.03,-0.01,-0.00,31.69
43495185,2003,1,197388,233167,1.36,-0.27,9.92,-0.03,-0.01,-0.00,31.69
43535183,2015,1,197361,233046,1.35,-0.27,9.92,-0.03,-0.01,-0.00,31.69
43575186,2013,1,197329,232989,1.33,-0.27,9.93,-0.03,-0.01,-0.00,31.69
43615184,1995,1,197375,233046,1.34,-0.29,9.91,-0.03,-0.01,-0.00,31.69
43655186,2009,1,197407,233175,1.35,-0.27,9.88,-0.03,-0.01,-0.00,31.69
43695183,2002,1,197385,233268,1.33,-0.28,9.93,-0.03,-0.01,-0.00,31.69
43735185,2000,1,197451,233375,1.37,-0.27,9.91,-0.03,-0.01,-0.01,31.69
43775183,1995,1,197542,233520,1.37,-0.27,9.96,-0.03,-0.01,-0.01,31.69
43815185,1986,1,197547,233656,1.35,-0.28,9.92,-0.03,-0.01,-0.00,31.69
43855184,1987,1,197541,233816,1.34,-0.27,9.92,-0.03,-0.01,-0.00,31.69
43895189,1979,1,197654,233938,1.35,-0.28,9.94,-0.03,-0.01,-0.00,31.69
43935184,1981,1,197703,234033,1.35,-0.26,9.91,-0.03,-0.01,-0.01,31.69
43975188,1983,1,197581,233022,1.36,-0.28,9.90,-0.03,-0.01,-0.00,31.69
44015903,1943,1,197232,231888,1.33,-0.28,9.91,-0.03,-0.01,-0.01,31.33
44056186,1968,1,197002,231477,1.35,-0.27,9.89,-0.03,-0.01,-0.00,31.33
44096184,1967,1,196946,231408,1.34,-0.28,9.92,-0.03,-0.01,-0.00,31.33
44136185,1964,1,196932,231454,1.35,-0.28,9.93,-0.03,-0.01,-0.00,31.33
44176184,1951,1,196994,231798,1.35,-0.25,9.94,-0.03,-0.01,-0.00,31.33
44216200,1948,1,197067,231976,1.34,-0.28,9.91,-0.03,-0.01,-0.00,31.33
44256184,1959,1,197053,232125,1.35,-0.27,9.93,-0.03,-0.01,-0.00,31.33
44296186,1966,1,197059,232266,1.34,-0.27,9.93,-0.03,-0.01,-0.00,31.33
44336184,1966,1,197118,232480,1.35,-0.29,9.91,-0.03,-0.01,-0.00,31.33
44376185,1946,1,197176,232781,1.36,-0.28,9.94,-0.03,-0.01,-0.00,31.33
44416184,1839,1,197253,233114,1.35,-0.28,9.91,-0.03,-0.01,-0.00,31.33
44456185,1923,1,197272,233692,1.35,-0.28,9.89,-0.04,-0.01,-0.01,31.33
44496184,1825,1,197377,234452,1.34,-0.28,9.91,-0.04,-0.01,-0.00,31.33
44536185,2162,1,197564,234920,1.34,-0.26,9.92,-0.03,-0.00,-0.01,31.33
44576183,2122,1,197575,235509,1.32,-0.28,9.88,-0.03,0.00,-0.00,31.33
44616167,2128,1,197647,236040,1.31,-0.24,9.94,-0.03,-0.01,-0.00,31.33
44656185,2064,1,198531,234613,1.44,-0.34,9.79,-0.07,-0.06,-0.01,31.33
44696186,1980,1,198061,233421,1.38,-0.34,9.81,-0.04,-0.03,-0.00,31.33
44736184,1964,1,197685,233195,1.37,-0.27,9.93,-0.03,-0.00,-0.00,31.33
44776186,1951,1,197747,233274,1.34,-0.28,9.90,-0.03,-0.01,-0.00,31.33
44816184,1974,1,197790,233082,1.34,-0.26,9.93,-0.03,-0.02,-0.00,31.33
44856187,1957,1,198035,233048,1.32,-0.29,9.90,-0.04,-0.03,-0.00,31.33
44896184,1980,1,198426,233171,1.37,-0.27,9.92,-0.03,-0.03,-0.00,31.33
44936186,2016,1,198958,233456,1.39,-0.29,9.88,-0.04,-0.03,-0.00,31.33
44976184,1966,1,199384,233728,1.32,-0.28,9.93,-0.03,-0.01,-0.00,31.33
45016872,2030,1,199646,234045,1.33,-0.28,9.96,-0.04,-0.01,-0.01,31.69
45056184,2015,1,199831,234561,1.41,-0.30,9.90,-0.03,-0.01,-0.00,31.69
45096186,2030,1,199896,235037,1.36,-0.31,9.89,-0.03,0.00,-0.01,31.69
45136167,2112,1,199754,235453,1.35,-0.29,9.93,-0.03,0.00,-0.00,31.69
45176167,2020,1,199749,235719,1.33,-0.27,9.94,-0.03,-0.01,-0.00,31.69
45216184,2054,1,199790,235927,1.36,-0.28,9.94,-0.03,-0.01,-0.00,31.69
45256186,2073,1,199879,236130,1.37,-0.30,9.90,-0.03,-0.01,-0.00,31.69
45296184,2019,1,199821,235173,1.38,-0.28,9.93,-0.03,-0.01,-0.00,31.69
45336186,1936,1,199430,233978,1.33,-0.27,9.94,-0.03,-0.01,-0.01,31.69
45376185,1865,1,199264,233568,1.34,-0.31,9.91,-0.04,-0.02,-0.00,31.69
45416186,1805,1,199253,233641,1.40,-0.30,9.92,-0.03,-0.01,-0.00,31.69
45454186,1856,1,199310,233813,1.36,-0.30,9.91,-0.03,-0.01,-0.00,31.69
45494189,1914,1,199379,234090,1.32,-0.23,9.93,-0.03,-0.01,-0.00,31.69
45534188,1851,1,199532,234290,1.32,-0.29,9.90,-0.03,-0.01,-0.00,31.69
45574188,1799,1,199625,234317,1.37,-0.27,9.88,-0.03,-0.01,-0.00,31.69
45614184,1952,1,199668,234386,1.36,-0.31,9.91,-0.03,-0.01,-0.00,31.69
45654188,1866,1,199739,234540,1.33,-0.28,9.91,-0.03,-0.01,-0.00,31.69
45694205,2067,1,199900,234675,1.36,-0.27,9.92,-0.03,-0.01,-0.00,31.69
45734188,1957,1,200023,234888,1.36,-0.28,9.90,-0.03,-0.01,-0.00,31.69
45774184,1968,1,200081,235160,1.36,-0.30,9.91,-0.03,-0.01,-0.00,31.69
45814189,1977,1,200207,235375,1.35,-0.27,9.92,-0.03,-0.01,-0.00,31.69
45854184,2031,1,200315,235644,1.36,-0.28,9.93,-0.03,-0.01,-0.00,31.69
45894189,1927,1,200337,235123,1.35,-0.28,9.91,-0.03,-0.01,-0.00,31.69
45934184,2035,1,199888,233723,1.40,-0.29,9.89,-0.03,-0.01,-0.00,31.69
45974189,2037,1,199506,233069,1.37,-0.29,9.92,-0.03,-0.01,-0.00,31.69
46014184,2093,1,199459,233046,1.31,-0.27,9.90,-0.03,-0.01,-0.00,31.69
46054876,2010,1,199464,233093,1.37,-0.27,9.90,-0.03,-0.01,-0.00,31.33
46094184,2079,1,199575,233442,1.38,-0.29,9.89,-0.03,-0.01,-0.00,31.33
46134189,2039,1,199646,233604,1.35,-0.27,9.91,-0.03,-0.01,-0.00,31.33
46174189,2079,1,199665,233674,1.36,-0.29,9.91,-0.03,-0.01,-0.00,31.33
46214188,2082,1,199607,233673,1.36,-0.27,9.92,-0.03,-0.00,-0.00,31.33
46254184,2026,1,199527,233894,1.36,-0.27,9.92,-0.03,-0.01,-0.00,31.33
46294189,2068,1,199445,234067,1.34,-0.26,9.96,-0.03,0.00,-0.00,31.33
46334168,2042,1,199499,234147,1.33,-0.26,9.92,-0.03,-0.01,-0.00,31.33
46374210,2289,1,199528,234105,1.36,-0.28,9.90,-0.03,-0.01,-0.01,31.33
46414189,2064,1,199480,234160,1.36,-0.29,9.95,-0.03,-0.01,-0.00,31.33
46454189,2114,1,199508,234165,1.34,-0.28,9.90,-0.03,-0.01,-0.00,31.33
46494189,1999,1,199440,233635,1.34,-0.28,9.94,-0.03,-0.01,-0.00,31.33
46534189,2031,1,199020,231944,1.34,-0.27,9.93,-0.03,-0.01,-0.00,31.33
46574189,1990,1,198562,230857,1.35,-0.30,9.93,-0.03,-0.01,-0.00,31.33
46614189,2002,1,198389,230702,1.36,-0.30,9.92,-0.03,-0.01,-0.00,31.33
46654189,1951,1,198369,231020,1.32,-0.25,9.93,-0.03,-0.01,-0.00,31.33
46694189,1981,1,198542,231548,1.33,-0.27,9.91,-0.03,-0.01,-0.00,31.33
46734189,1981,1,198763,231769,1.36,-0.29,9.93,-0.03,-0.02,-0.00,31.33
46774189,2006,1,199036,232148,1.38,-0.28,9.93,-0.04,-0.02,-0.00,31.33
46814189,1950,1,199335,232649,1.36,-0.28,9.92,-0.04,-0.02,-0.00,31.33
46854189,1887,1,199436,233133,1.35,-0.28,9.89,-0.03,-0.00,-0.00,31.33
46894189,1950,1,199639,233323,1.34,-0.28,9.91,-0.03,-0.01,-0.00,31.33
46934189,2019,1,199879,233282,1.36,-0.26,9.95,-0.04,-0.02,-0.00,31.33
46974189,1970,1,200013,233063,1.34,-0.25,9.95,-0.04,-0.02,-0.00,31.33
47014189,2019,1,200420,234013,1.36,-0.31,9.90,-0.04,-0.02,-0.00,31.33
47054875,2020,1,200838,235492,1.37,-0.28,9.93,-0.03,-0.01,-0.00,31.41
47095209,2095,1,200971,235843,1.36,-0.28,9.86,-0.03,-0.01,-0.00,31.41
47135185,2127,1,200080,235162,1.36,-0.32,9.91,-0.04,-0.01,-0.01,31.41
47175190,2157,1,199463,234896,1.32,-0.24,9.95,-0.03,0.00,-0.01,31.41
47215167,2002,1,199484,234925,1.32,-0.28,9.94,-0.03,-0.02,-0.00,31.41
47255190,1910,1,199938,234985,1.35,-0.29,9.90,-0.03,-0.02,-0.00,31.41
47295186,1926,1,200306,234991,1.38,-0.28,9.92,-0.03,-0.02,-0.00,31.41
47335187,1932,1,200528,234904,1.37,-0.29,9.89,-0.03,-0.02,-0.00,31.41
47375185,1954,1,200694,234969,1.38,-0.28,9.90,-0.04,-0.01,-0.01,31.41
47415187,1981,1,200575,235142,1.37,-0.28,9.92,-0.04,-0.01,-0.00,31.41
47455185,1981,1,200521,235390,1.36,-0.28,9.94,-0.04,-0.01,-0.00,31.41
47495191,1985,1,200553,235518,1.36,-0.27,9.91,-0.03,-0.01,-0.01,31.41
47535185,1995,1,200652,235665,1.37,-0.29,9.92,-0.04,-0.01,-0.00,31.41
47575190,1987,1,200721,235776,1.40,-0.29,9.91,-0.04,-0.02,-0.00,31.41
47615185,1979,1,200762,235854,1.37,-0.30,9.88,-0.03,-0.01,-0.00,31.41
47655187,1994,1,200736,235461,1.38,-0.28,9.90,-0.03,-0.01,-0.00,31.41
47695184,1974,1,200426,234416,1.36,-0.28,9.90,-0.03,-0.01,-0.00,31.41
47735190,1978,1,200139,233875,1.40,-0.29,9.92,-0.03,-0.01,-0.00,31.41
47775185,1981,1,200069,233737,1.37,-0.27,9.92,-0.03,-0.01,-0.00,31.41
47815189,1965,1,200032,233801,1.37,-0.26,9.92,-0.03,-0.01,-0.00,31.41
47855185,1981,1,200101,234128,1.38,-0.28,9.88,-0.03,-0.01,-0.00,31.41
47895190,1974,1,200192,234384,1.37,-0.30,9.91,-0.03,-0.01,-0.01,31.41
47935185,1962,1,200197,234650,1.39,-0.29,9.90,-0.03,-0.01,-0.00,31.41
47975187,1959,1,200358,235048,1.38,-0.29,9.90,-0.04,-0.02,-0.00,31.41
48015185,1959,1,200536,235646,1.38,-0.31,9.95,-0.04,-0.02,-0.01,31.41
48055876,1941,1,200730,235981,1.38,-0.30,9.91,-0.03,-0.01,-0.00,31.55
48094189,1973,1,200812,236056,1.38,-0.30,9.91,-0.03,-0.01,-0.00,31.55
48134189,1968,1,200780,236101,1.39,-0.28,9.90,-0.03,-0.01,-0.00,31.55
48174186,1962,1,200841,236148,1.40,-0.27,9.92,-0.03,-0.01,-0.00,31.55
48214189,1955,1,200860,235999,1.41,-0.29,9.91,-0.03,-0.01,-0.00,31.55
48254185,1971,1,200594,235098,1.39,-0.29,9.90,-0.03,-0.01,-0.00,31.55
48294189,1968,1,200348,234618,1.37,-0.30,9.89,-0.03,-0.01,-0.00,31.55
48334190,1968,1,200208,234500,1.38,-0.27,9.91,-0.03,-0.01,-0.00,31.55
48374189,1959,1,200247,234560,1.36,-0.28,9.89,-0.03,-0.01,-0.01,31.55
48414189,1962,1,200250,234773,1.38,-0.28,9.90,-0.03,-0.01,-0.00,31.55
48454189,1967,1,200363,235067,1.38,-0.30,9.92,-0.03,-0.01,-0.00,31.55
48494189,1964,1,200457,235223,1.39,-0.29,9.91,-0.03,-0.01,-0.00,31.55
48534189,1951,1,200511,235327,1.40,-0.31,9.89,-0.03,-0.01,-0.00,31.55
48574184,1950,1,200576,235423,1.38,-0.29,9.87,-0.03,-0.01,-0.00,31.55
48614189,1963,1,200658,235523,1.37,-0.28,9.90,-0.03,-0.00,-0.00,31.55
48654186,1973,1,200611,235412,1.38,-0.30,9.90,-0.03,-0.00,-0.01,31.55
48694189,1968,1,200542,235347,1.37,-0.31,9.90,-0.03,-0.01,-0.00,31.55
48734185,1969,1,200451,235322,1.39,-0.30,9.91,-0.03,-0.01,-0.01,31.55
48774189,1971,1,200417,235242,1.38,-0.29,9.91,-0.03,-0.01,-0.00,31.55
48814185,1984,1,200335,234526,1.37,-0.28,9.90,-0.03,-0.01,-0.00,31.55
48854190,1984,1,199998,233598,1.37,-0.29,9.91,-0.03,-0.01,-0.00,31.55
48894185,1964,1,199732,233086,1.38,-0.31,9.92,-0.03,-0.01,-0.00,31.55
48934217,1969,1,199526,232976,1.38,-0.30,9.92,-0.03,-0.01,-0.00,31.55
48974184,1961,1,199562,233100,1.38,-0.29,9.90,-0.03,-0.01,-0.00,31.55
49014189,1961,1,199613,233326,1.39,-0.29,9.91,-0.03,-0.01,-0.00,31.55
49054185,1957,1,199666,233511,1.37,-0.27,9.90,-0.03,-0.01,-0.00,31.55
49094875,1941,1,199624,233474,1.37,-0.28,9.95,-0.03,-0.01,-0.00,31.75
49133189,2018,1,199596,233505,1.37,-0.30,9.91,-0.03,-0.01,-0.00,31.75
49173188,2027,1,199619,233596,1.36,-0.28,9.90,-0.03,-0.01,-0.00,31.75
49213188,2021,1,199676,233801,1.37,-0.30,9.91,-0.03,-0.01,-0.00,31.75
49253189,2022,1,199749,233954,1.34,-0.29,9.93,-0.03,-0.01,-0.00,31.75
49293188,2019,1,199839,234265,1.36,-0.28,9.92,-0.03,-0.01,-0.00,31.75
49333189,2021,1,199892,234526,1.39,-0.29,9.94,-0.03,-0.01,-0.00,31.75
49373188,2025,1,199986,234838,1.36,-0.29,9.92,-0.03,-0.01,-0.00,31.75
49413188,2030,1,200037,235079,1.37,-0.30,9.93,-0.03,-0.01,-0.01,31.75
49453188,2017,1,200067,234886,1.38,-0.28,9.91,-0.03,-0.01,-0.00,31.75
49493189,2030,1,199838,234173,1.39,-0.28,9.91,-0.03,-0.01,-0.00,31.75
49533189,2027,1,199741,233908,1.38,-0.29,9.94,-0.03,-0.01,-0.00,31.75
49573189,2017,1,199706,233999,1.37,-0.30,9.91,-0.03,-0.01,-0.00,31.75
49613189,2012,1,199814,234269,1.37,-0.28,9.91,-0.03,-0.01,-0.00,31.75
49653189,2014,1,199873,234654,1.39,-0.30,9.92,-0.03,-0.01,-0.01,31.75
49693188,2015,1,199977,234959,1.38,-0.29,9.92,-0.03,-0.01,-0.00,31.75
49733188,2013,1,200121,235191,1.37,-0.29,9.92,-0.04,-0.01,-0.00,31.75
49773189,2004,1,200210,235394,1.38,-0.28,9.90,-0.03,-0.01,-0.00,31.75
49813189,2004,1,200249,235667,1.38,-0.28,9.90,-0.03,-0.01,-0.00,31.75
49853184,2003,1,200335,235891,1.40,-0.29,9.91,-0.03,-0.01,-0.00,31.75
49893189,2006,1,200455,236166,1.39,-0.29,9.93,-0.03,-0.01,-0.00,31.75
49933189,2000,1,200439,236340,1.37,-0.30,9.92,-0.03,-0.01,-0.00,31.75
49973189,2005,1,200481,236491,1.38,-0.30,9.90,-0.03,-0.01,-0.00,31.75
50013183,2003,1,200457,236719,1.38,-0.27,9.91,-0.03,-0.01,-0.00,31.75
50053189,2000,1,200540,236872,1.36,-0.29,9.90,-0.03,-0.01,-0.00,31.75
50093189,1995,1,200619,236878,1.40,-0.29,9.90,-0.03,-0.01,-0.00,31.75
50133872,1937,1,200509,236135,1.36,-0.29,9.92,-0.03,-0.01,-0.00,31.67
50174184,1951,1,200297,235788,1.39,-0.28,9.91,-0.03,-0.01,-0.00,31.67
50214189,1957,1,200285,235858,1.38,-0.29,9.92,-0.03,-0.01,-0.00,31.67
50254185,1954,1,200345,235929,1.40,-0.29,9.91,-0.03,-0.01,-0.00,31.67
50294187,1962,1,200272,236143,1.38,-0.29,9.90,-0.03,-0.01,-0.01,31.67
50334185,1962,1,200316,236237,1.37,-0.30,9.94,-0.03,-0.01,-0.00,31.67
50374185,1957,1,200367,236235,1.37,-0.29,9.91,-0.03,-0.01,-0.00,31.67
50414184,1959,1,200369,236220,1.41,-0.27,9.90,-0.03,-0.01,-0.00,31.67
50454186,1965,1,200404,236309,1.37,-0.29,9.92,-0.03,-0.01,-0.00,31.67
50494185,1975,1,200436,236368,1.36,-0.28,9.92,-0.03,-0.01,-0.00,31.67
50534189,1951,1,200403,236400,1.38,-0.28,9.90,-0.03,-0.01,-0.00,31.67
50574193,1945,1,200470,236461,1.37,-0.29,9.90,-0.03,-0.01,-0.00,31.67
50614186,1946,1,200483,236478,1.38,-0.28,9.91,-0.03,-0.01,-0.00,31.67
50654185,1951,1,200502,236620,1.36,-0.29,9.89,-0.03,-0.01,-0.00,31.67
50694190,1961,1,200519,236660,1.34,-0.29,9.91,-0.03,-0.01,-0.00,31.67
50734185,1961,1,200448,236007,1.37,-0.29,9.90,-0.03,-0.01,-0.00,31.67
50774207,1954,1,200280,235450,1.39,-0.30,9.91,-0.03,-0.01,-0.00,31.67
50814184,1953,1,200193,235255,1.38,-0.27,9.93,-0.03,-0.01,-0.00,31.67
50854187,1962,1,200166,235194,1.35,-0.29,9.90,-0.03,-0.01,-0.01,31.67
50894185,1957,1,200265,235400,1.39,-0.30,9.90,-0.03,-0.01,-0.00,31.67
50934187,1952,1,200345,235621,1.38,-0.28,9.92,-0.03,-0.01,-0.00,31.67
50974185,1947,1,200402,235813,1.37,-0.29,9.93,-0.03,-0.01,-0.00,31.67
51014190,1953,1,200473,235856,1.37,-0.27,9.91,-0.03,-0.01,-0.00,31.67
51054185,1954,1,200430,235933,1.39,-0.27,9.90,-0.03,-0.01,-0.00,31.67
51094187,1951,1,200405,235968,1.39,-0.28,9.91,-0.03,-0.01,-0.00,31.67
51134871,1937,1,200449,236180,1.36,-0.30,9.92,-0.03,-0.01,-0.00,31.69
51173189,1969,1,200482,236340,1.36,-0.27,9.90,-0.03,-0.01,-0.00,31.69
51213186,1977,1,200495,236532,1.37,-0.28,9.91,-0.03,-0.01,-0.00,31.69
51253189,1984,1,200552,236753,1.37,-0.29,9.91,-0.03,-0.01,-0.00,31.69
51293189,1982,1,200630,236874,1.36,-0.27,9.90,-0.03,-0.01,-0.00,31.69
51333189,1971,1,200721,237070,1.36,-0.30,9.92,-0.03,-0.01,-0.00,31.69
51373186,1978,1,200741,237039,1.38,-0.29,9.91,-0.03,-0.01,-0.01,31.69
51413189,1967,1,200574,236129,1.39,-0.29,9.91,-0.03,-0.01,-0.00,31.69
51453189,1961,1,200290,235575,1.38,-0.29,9.91,-0.03,-0.01,-0.00,31.69
51493189,1968,1,200183,235372,1.36,-0.28,9.93,-0.03,-0.01,-0.00,31.69
51533189,1969,1,200075,235408,1.37,-0.29,9.92,-0.03,-0.01,-0.00,31.69
51573189,1968,1,200141,235570,1.37,-0.30,9.92,-0.03,-0.01,-0.00,31.69
51613186,1959,1,200175,235797,1.36,-0.28,9.92,-0.03,-0.01,-0.00,31.69
51653189,1973,1,200294,235930,1.36,-0.26,9.93,-0.03,-0.01,-0.00,31.69
51693190,1969,1,200307,235974,1.39,-0.30,9.90,-0.03,-0.01,-0.01,31.69
51733190,1968,1,200300,236037,1.36,-0.29,9.92,-0.03,-0.01,-0.00,31.69
51773189,1970,1,200316,236187,1.39,-0.28,9.90,-0.03,-0.01,-0.00,31.69
51813189,1954,1,200333,236307,1.39,-0.29,9.94,-0.03,-0.01,-0.00,31.69
51853185,1951,1,200387,236500,1.37,-0.28,9.91,-0.03,-0.01,-0.00,31.69
51893189,1947,1,200504,236665,1.38,-0.30,9.92,-0.03,-0.01,-0.00,31.69
51933189,1967,1,200565,236849,1.40,-0.30,9.91,-0.03,-0.01,-0.00,31.69
51973186,1965,1,200621,236942,1.37,-0.29,9.90,-0.03,-0.01,-0.00,31.69
52013185,1968,1,200624,237034,1.36,-0.27,9.92,-0.03,-0.01,-0.00,31.69
52053189,1967,1,200680,237066,1.37,-0.29,9.93,-0.03,-0.01,-0.00,31.69
52093185,1974,1,200533,236141,1.37,-0.28,9.92,-0.03,-0.01,-0.00,31.69
52133189,1983,1,200196,234935,1.37,-0.29,9.92,-0.03,-0.01,-0.00,31.69
52173871,1948,1,199931,234274,1.38,-0.27,9.92,-0.03,-0.01,-0.00,31.61
52212222,2039,1,199749,234237,1.36,-0.28,9.90,-0.03,-0.01,-0.00,31.61
52252189,2047,1,199829,234415,1.35,-0.29,9.91,-0.03,-0.01,-0.00,31.61
52292188,2039,1,199908,234564,1.36,-0.30,9.91,-0.03,-0.01,-0.00,31.61
52332186,2039,1,199967,234569,1.38,-0.28,9.93,-0.03,-0.01,-0.00,31.61
52372188,2045,1,199984,234508,1.37,-0.28,9.91,-0.03,-0.01,-0.00,31.61
52412185,2038,1,199934,234491,1.37,-0.29,9.92,-0.03,-0.01,-0.00,31.61
52452188,2032,1,199892,234472,1.38,-0.28,9.91,-0.03,-0.01,-0.00,31.61
52492185,2031,1,199957,234621,1.36,-0.27,9.91,-0.03,-0.01,-0.01,31.61
52532188,2019,1,199990,234813,1.35,-0.29,9.92,-0.03,-0.01,-0.00,31.61
52572185,2009,1,200108,235049,1.36,-0.28,9.90,-0.03,-0.01,-0.00,31.61
52612186,2010,1,200173,235224,1.35,-0.26,9.92,-0.03,-0.01,-0.00,31.61
52652190,2017,1,200228,235364,1.35,-0.27,9.90,-0.03,-0.01,-0.00,31.61
52692189,2023,1,200267,235447,1.39,-0.27,9.91,-0.03,-0.01,-0.00,31.61
52732188,2027,1,200302,235566,1.37,-0.28,9.91,-0.03,-0.01,-0.00,31.61
52772189,2022,1,200296,235667,1.33,-0.27,9.91,-0.03,-0.01,-0.00,31.61
52812189,2014,1,200270,235151,1.36,-0.27,9.91,-0.03,-0.01,-0.00,31.61
52852189,2013,1,199871,233841,1.37,-0.28,9.92,-0.03,-0.01,-0.00,31.61
52892188,2003,1,199575,233042,1.35,-0.28,9.89,-0.03,-0.01,-0.00,31.61
52932189,2006,1,199476,233052,1.37,-0.29,9.90,-0.03,-0.01,-0.00,31.61
52972190,2007,1,199503,233169,1.38,-0.26,9.91,-0.03,-0.01,-0.00,31.61
53012188,2003,1,199609,233418,1.37,-0.28,9.91,-0.04,-0.01,-0.00,31.61
53053185,1968,1,199762,233769,1.35,-0.31,9.91,-0.03,-0.01,-0.00,31.61
53093189,1963,1,199794,233955,1.36,-0.30,9.90,-0.03,-0.01,-0.00,31.61
53133184,1970,1,199806,234129,1.36,-0.28,9.92,-0.03,-0.01,-0.00,31.61
53173190,1964,1,199846,234390,1.35,-0.28,9.90,-0.03,-0.01,-0.00,31.61
53213871,1945,1,199898,234759,1.35,-0.28,9.90,-0.03,-0.01,-0.00,31.43
53252188,1993,1,200054,235040,1.35,-0.28,9.90,-0.03,-0.01,-0.01,31.43
53292188,1985,1,200105,235237,1.36,-0.29,9.93,-0.03,-0.01,-0.00,31.43
53332189,1982,1,200241,235393,1.37,-0.32,9.93,-0.03,-0.01,-0.00,31.43
53372189,1987,1,200330,235493,1.36,-0.28,9.92,-0.03,-0.01,-0.00,31.43
53412188,1997,1,200368,235711,1.38,-0.28,9.90,-0.03,-0.01,-0.00,31.43
53452189,2000,1,200387,235895,1.38,-0.29,9.92,-0.03,-0.01,-0.00,31.43
53492188,1989,1,200396,235198,1.34,-0.27,9.91,-0.03,-0.01,-0.00,31.43
53532189,1994,1,199983,233986,1.34,-0.28,9.90,-0.03,-0.01,-0.00,31.43
53572189,1993,1,199732,233283,1.36,-0.28,9.91,-0.03,-0.01,-0.00,31.43
53612189,1991,1,199669,233487,1.38,-0.30,9.92,-0.03,-0.01,-0.00,31.43
53652189,1985,1,199740,233942,1.37,-0.29,9.90,-0.03,-0.01,-0.00,31.43
53692189,1974,1,199965,234459,1.37,-0.28,9.93,-0.03,-0.01,-0.00,31.43
53732189,1979,1,200097,234733,1.36,-0.29,9.90,-0.03,-0.01,-0.00,31.43
53772186,1982,1,200226,234882,1.36,-0.27,9.91,-0.03,-0.01,-0.00,31.43
53812189,1982,1,200268,235030,1.38,-0.28,9.90,-0.03,-0.01,-0.00,31.43
53852215,1980,1,200356,235282,1.35,-0.28,9.91,-0.03,-0.01,-0.00,31.43
53892189,1984,1,200463,235477,1.35,-0.28,9.90,-0.03,-0.01,-0.01,31.43
53932189,1980,1,200613,235742,1.37,-0.28,9.89,-0.03,-0.01,-0.00,31.43
53972189,1983,1,200721,236014,1.37,-0.28,9.91,-0.03,-0.01,-0.00,31.43
54012189,1981,1,200776,236224,1.37,-0.27,9.90,-0.03,-0.01,-0.00,31.43
54053186,1955,1,200945,236439,1.37,-0.27,9.91,-0.03,-0.01,-0.00,31.43
54093184,1942,1,201075,236458,1.36,-0.29,9.92,-0.03,-0.01,-0.00,31.43
54133187,1936,1,200892,235273,1.37,-0.29,9.90,-0.03,-0.01,-0.00,31.43
54173184,1953,1,200567,234502,1.36,-0.28,9.93,-0.03,-0.01,-0.00,31.43
54213190,1943,1,200457,234282,1.35,-0.29,9.92,-0.03,-0.01,-0.00,31.43
54253871,1950,1,200418,234627,1.37,-0.29,9.89,-0.03,-0.01,-0.00,31.43
54292189,1979,1,200511,235014,1.38,-0.28,9.91,-0.03,-0.01,-0.00,31.43
54332189,1985,1,200715,235364,1.36,-0.29,9.92,-0.03,-0.01,-0.00,31.43
54372189,1984,1,200760,235580,1.37,-0.30,9.88,-0.03,-0.01,-0.00,31.43
54412186,1981,1,200813,235718,1.37,-0.28,9.92,-0.03,-0.01,-0.00,31.43
54452189,1980,1,200837,235851,1.38,-0.28,9.92,-0.03,-0.01,-0.00,31.43
54492227,1981,1,200953,236091,1.38,-0.29,9.90,-0.03,-0.01,-0.00,31.43
54532189,1978,1,201025,236386,1.38,-0.29,9.93,-0.03,-0.01,-0.00,31.43
54572189,1974,1,201167,236580,1.39,-0.28,9.90,-0.03,-0.01,-0.01,31.43
54612189,1975,1,201219,236727,1.40,-0.30,9.91,-0.03,-0.01,-0.00,31.43
54652184,1969,1,201273,236885,1.37,-0.29,9.91,-0.03,-0.01,-0.00,31.43
54692189,1965,1,201336,237072,1.37,-0.28,9.91,-0.03,-0.01,-0.00,31.43
54732189,1966,1,201334,236714,1.39,-0.28,9.93,-0.03,-0.01,-0.00,31.43
54772189,1953,1,200934,235330,1.37,-0.27,9.92,-0.03,-0.01,-0.00,31.43
54812189,1951,1,200630,234399,1.36,-0.28,9.91,-0.03,-0.01,-0.00,31.43
54852189,1955,1,200447,234286,1.39,-0.28,9.92,-0.03,-0.01,-0.00,31.43
54892189,1948,1,200450,234473,1.38,-0.28,9.93,-0.03,-0.01,-0.00,31.43
54932189,1955,1,200520,234819,1.39,-0.29,9.90,-0.03,-0.01,-0.00,31.43
54972189,1961,1,200640,235076,1.36,-0.28,9.92,-0.03,-0.01,-0.00,31.43
55012189,1965,1,200739,235162,1.36,-0.27,9.92,-0.03,-0.01,-0.00,31.43
55052189,1968,1,200721,235194,1.37,-0.28,9.91,-0.03,-0.01,-0.00,31.43
55093189,1957,1,200737,235361,1.38,-0.31,9.90,-0.03,-0.01,-0.01,31.43
55133185,1954,1,200785,235570,1.36,-0.29,9.90,-0.03,-0.01,-0.00,31.43
55173190,1954,1,200884,235810,1.38,-0.26,9.92,-0.03,-0.01,-0.00,31.43
55213185,1957,1,200985,236038,1.37,-0.30,9.91,-0.03,-0.01,-0.00,31.43
55253190,1954,1,201061,236251,1.38,-0.28,9.90,-0.03,-0.01,-0.00,31.43
55293871,1943,1,201125,236495,1.37,-0.28,9.91,-0.03,-0.01,-0.00,31.61
55332189,1961,1,201207,236697,1.37,-0.27,9.89,-0.03,-0.01,-0.00,31.61
55372190,1958,1,201168,236131,1.38,-0.29,9.91,-0.03,-0.01,-0.00,31.61
55412189,1961,1,200805,234659,1.37,-0.28,9.94,-0.03,-0.01,-0.00,31.61
55452185,1959,1,200406,233851,1.35,-0.29,9.93,-0.03,-0.01,-0.00,31.61
55492189,1961,1,200300,233922,1.37,-0.29,9.90,-0.03,-0.01,-0.00,31.61
55532185,1949,1,200337,234154,1.36,-0.28,9.91,-0.03,-0.01,-0.00,31.61
55572189,1958,1,200448,234585,1.38,-0.26,9.92,-0.03,-0.01,-0.00,31.61
55612185,1957,1,200595,234908,1.39,-0.29,9.91,-0.03,-0.01,-0.00,31.61
55652189,1968,1,200707,235028,1.37,-0.27,9.90,-0.03,-0.01,-0.00,31.61
55692185,1959,1,200730,235173,1.38,-0.28,9.89,-0.03,-0.01,-0.00,31.61
55732189,1962,1,200794,235444,1.36,-0.28,9.91,-0.03,-0.01,-0.00,31.61
55772185,1955,1,200948,235797,1.38,-0.29,9.93,-0.03,-0.01,-0.01,31.61
55812189,1961,1,201065,236140,1.38,-0.29,9.91,-0.03,-0.01,-0.00,31.61
55852185,1954,1,201174,236455,1.36,-0.28,9.91,-0.03,-0.01,-0.00,31.61
55892213,1955,1,201351,236758,1.36,-0.28,9.91,-0.03,-0.01,-0.00,31.61
55932185,1962,1,201466,237089,1.35,-0.26,9.93,-0.03,-0.01,-0.01,31.61
55972189,1965,1,201591,237173,1.37,-0.28,9.93,-0.03,-0.01,-0.00,31.61
56012185,1961,1,201521,236271,1.37,-0.28,9.90,-0.03,-0.01,-0.00,31.61
56052187,1962,1,201029,235270,1.37,-0.28,9.90,-0.03,-0.01,-0.00,31.61
56092185,1958,1,200936,234979,1.38,-0.27,9.90,-0.03,-0.01,-0.00,31.61
56131211,2019,1,200871,235065,1.36,-0.28,9.92,-0.03,-0.01,-0.00,31.61
56171189,2005,1,200908,235438,1.37,-0.30,9.91,-0.03,-0.01,-0.00,31.61
56211189,2014,1,201052,235839,1.38,-0.30,9.92,-0.03,-0.01,-0.00,31.61
56251189,2013,1,201153,236101,1.37,-0.28,9.90,-0.03,-0.01,-0.00,31.61
56291189,2018,1,201186,236260,1.36,-0.28,9.92,-0.03,-0.01,-0.00,31.61
56331888,1955,1,201197,236473,1.38,-0.29,9.93,-0.03,-0.01,-0.00,31.77
56372190,1958,1,201272,236721,1.36,-0.27,9.89,-0.03,-0.01,-0.00,31.77
56412185,1947,1,201398,237003,1.38,-0.28,9.91,-0.03,-0.01,-0.00,31.77
56452189,1952,1,201510,237188,1.37,-0.27,9.92,-0.03,-0.01,-0.00,31.77
56492185,1951,1,201549,237443,1.38,-0.29,9.90,-0.03,-0.01,-0.00,31.77
56532187,1954,1,201653,237666,1.38,-0.29,9.94,-0.03,-0.01,-0.00,31.77
56572185,1953,1,201687,237828,1.39,-0.30,9.88,-0.03,-0.01,-0.00,31.77
56612186,1963,1,201605,237022,1.37,-0.29,9.91,-0.03,-0.01,-0.00,31.77
56652185,1943,1,201162,235967,1.37,-0.28,9.90,-0.03,-0.01,-0.00,31.77
56692189,1951,1,200953,235624,1.37,-0.28,9.92,-0.03,-0.01,-0.00,31.77
56732185,1943,1,200916,235575,1.37,-0.27,9.91,-0.03,-0.01,-0.00,31.77
56772189,1936,1,200929,235606,1.37,-0.28,9.92,-0.03,-0.01,-0.00,31.77
56812185,1955,1,200969,235908,1.38,-0.29,9.92,-0.03,-0.01,-0.00,31.77
56852189,1954,1,201059,235997,1.37,-0.31,9.91,-0.03,-0.01,-0.00,31.77
56892185,1958,1,201067,236007,1.40,-0.28,9.88,-0.03,-0.01,-0.01,31.77
56932186,1958,1,201051,236059,1.39,-0.28,9.92,-0.03,-0.01,-0.00,31.77
56972185,1959,1,201083,236231,1.36,-0.28,9.92,-0.03,-0.01,-0.00,31.77
57012189,1951,1,201153,236408,1.37,-0.29,9.92,-0.03,-0.01,-0.00,31.77
57052185,1943,1,201214,236610,1.39,-0.31,9.91,-0.03,-0.01,-0.00,31.77
57092189,1955,1,201271,236796,1.37,-0.30,9.90,-0.03,-0.01,-0.00,31.77
57131183,1984,1,201313,236968,1.36,-0.29,9.91,-0.03,-0.01,-0.00,31.77
57171189,1978,1,201413,237121,1.38,-0.27,9.90,-0.03,-0.01,-0.00,31.77
57211186,1958,1,201365,236354,1.38,-0.27,9.92,-0.03,-0.01,-0.00,31.77
57251189,1975,1,200955,235172,1.35,-0.28,9.93,-0.03,-0.01,-0.00,31.77
57291189,1968,1,200729,234558,1.36,-0.28,9.94,-0.03,-0.01,-0.00,31.77
57331912,1920,1,200599,234390,1.38,-0.28,9.91,-0.03,-0.01,-0.00,31.75
57372185,1938,1,200570,234450,1.38,-0.27,9.91,-0.03,-0.01,-0.00,31.75
57412190,1947,1,200627,234639,1.39,-0.28,9.89,-0.03,-0.01,-0.00,31.75
57452185,1942,1,200736,234768,1.38,-0.30,9.90,-0.03,-0.01,-0.00,31.75
57492187,1943,1,200802,234745,1.36,-0.29,9.92,-0.03,-0.01,-0.00,31.75
57532193,1945,1,200800,234703,1.36,-0.29,9.92,-0.03,-0.01,-0.00,31.75
57572190,1952,1,200836,234749,1.36,-0.28,9.92,-0.03,-0.01,-0.00,31.75
57612185,1959,1,200927,234964,1.40,-0.28,9.91,-0.03,-0.01,-0.00,31.75
57652186,1945,1,200952,235035,1.39,-0.29,9.91,-0.03,-0.01,-0.00,31.75
57692185,1951,1,200975,235014,1.38,-0.28,9.91,-0.03,-0.01,-0.00,31.75
57732190,1949,1,200934,235007,1.38,-0.28,9.90,-0.03,-0.01,-0.00,31.75
57772184,1953,1,200886,235063,1.39,-0.29,9.89,-0.03,-0.01,-0.00,31.75
57812190,1953,1,200870,235018,1.39,-0.29,9.90,-0.03,-0.01,-0.00,31.75
57852185,1955,1,200602,233796,1.39,-0.27,9.91,-0.03,-0.01,-0.00,31.75
57892190,1957,1,200152,232651,1.37,-0.27,9.88,-0.03,-0.01,-0.00,31.75
57932185,1949,1,199942,232400,1.38,-0.29,9.90,-0.03,-0.01,-0.00,31.75
57972187,1952,1,199940,232542,1.37,-0.28,9.91,-0.03,-0.01,-0.00,31.75
58012185,1954,1,199971,232877,1.37,-0.28,9.90,-0.03,-0.01,-0.00,31.75
58052187,1949,1,200109,233302,1.40,-0.27,9.91,-0.03,-0.01,-0.00,31.75
58092185,1947,1,200145,233403,1.36,-0.30,9.89,-0.04,-0.01,-0.00,31.75
58132187,1949,1,200175,233392,1.39,-0.30,9.93,-0.04,-0.02,-0.00,31.75
58171189,1985,1,200200,233681,1.39,-0.28,9.88,-0.04,-0.01,-0.01,31.75
58211189,1990,1,200223,234274,1.38,-0.31,9.92,-0.04,-0.00,-0.00,31.75
58251189,1943,1,200224,234740,1.36,-0.30,9.92,-0.03,-0.00,-0.00,31.75
58291189,1936,1,200190,235178,1.40,-0.28,9.91,-0.03,-0.01,-0.00,31.75
58331876,1968,1,200136,235326,1.39,-0.27,9.92,-0.03,-0.00,-0.01,31.71
58372187,2025,1,200188,235354,1.38,-0.28,9.92,-0.03,-0.00,-0.00,31.71
58412185,2103,1,200275,235451,1.36,-0.27,9.91,-0.03,-0.01,-0.00,31.71
58452190,2046,1,200314,235246,1.38,-0.28,9.95,-0.03,-0.01,-0.00,31.71
58492185,1933,1,200047,233847,1.36,-0.30,9.90,-0.03,-0.01,-0.00,31.71
58532186,1872,1,199579,232487,1.36,-0.31,9.91,-0.04,-0.02,-0.00,31.71
58572185,1776,1,199242,231385,1.39,-0.28,9.96,-0.03,-0.01,-0.01,31.71
58612189,1824,1,199148,231499,1.35,-0.27,9.86,-0.03,-0.01,-0.00,31.71
58652185,1878,1,199233,232084,1.37,-0.31,9.89,-0.04,-0.01,-0.01,31.71
58690189,1959,1,199288,232596,1.35,-0.27,9.92,-0.04,-0.01,-0.00,31.71
58730189,1988,1,199243,232842,1.36,-0.28,9.89,-0.03,-0.01,-0.00,31.71
58770229,2026,1,199288,232579,1.35,-0.27,9.94,-0.04,-0.02,-0.00,31.71
58810189,1991,1,199301,232259,1.38,-0.29,9.92,-0.04,-0.03,-0.00,31.71
58850189,1931,1,199416,232138,1.40,-0.29,9.84,-0.03,-0.02,-0.00,31.71
58890185,1957,1,199431,231479,1.38,-0.30,9.90,-0.03,-0.00,-0.00,31.71
58930189,2000,1,198945,230852,1.36,-0.29,9.92,-0.03,-0.00,-0.00,31.71
58970237,2030,1,198830,231991,1.37,-0.27,9.92,-0.03,-0.01,-0.00,31.71
59010189,2092,1,198745,233114,1.40,-0.27,9.90,-0.03,-0.00,-0.00,31.71
59050186,2016,1,198553,233961,1.35,-0.26,9.94,-0.03,-0.00,-0.00,31.71
59090189,1920,1,198415,234377,1.35,-0.27,9.92,-0.04,-0.01,-0.01,31.71
59130189,1987,1,198089,233414,1.38,-0.29,9.88,-0.04,-0.01,-0.01,31.71
59170229,1942,1,197589,233156,1.38,-0.30,9.89,-0.03,-0.00,-0.01,31.71
59210189,1881,1,197381,233234,1.36,-0.28,9.93,-0.03,0.00,-0.01,31.71
59250169,1895,1,197253,233237,1.35,-0.28,9.92,-0.03,-0.01,-0.00,31.71
59290189,1927,1,197158,232869,1.36,-0.27,9.93,-0.03,-0.01,-0.00,31.71
59330189,1952,1,196838,231853,1.39,-0.31,9.90,-0.03,-0.01,-0.00,31.71
59370876,1940,1,196529,231482,1.38,-0.27,9.92,-0.03,-0.02,-0.00,31.77
59411190,1929,1,196360,231230,1.38,-0.27,9.90,-0.03,0.00,-0.00,31.77
59451168,1920,1,196104,231027,1.38,-0.30,9.91,-0.03,0.02,-0.00,31.77
59491170,1929,1,195929,230914,1.36,-0.26,9.92,-0.02,0.02,-0.01,31.77
59531170,1945,1,195658,230276,1.32,-0.27,9.92,-0.03,0.00,-0.01,31.77
59571169,1949,1,195369,228786,1.32,-0.28,9.92,-0.04,-0.01,-0.01,31.77
59611190,1936,1,194497,225999,1.31,-0.27,9.95,-0.04,-0.03,-0.00,31.77
59651190,1963,1,192889,221939,1.32,-0.27,9.91,-0.04,-0.05,-0.00,31.77
59691190,1916,1,191880,220104,1.36,-0.28,9.91,-0.05,-0.07,-0.00,31.77
59731190,1961,1,192133,220429,1.41,-0.29,9.87,-0.04,-0.04,-0.00,31.77
59771185,1936,1,192379,221207,1.40,-0.27,9.88,-0.03,0.02,-0.00,31.77
59811170,1903,1,192390,221588,1.36,-0.26,9.90,-0.03,0.03,-0.01,31.77
59851170,1947,1,192630,222653,1.34,-0.30,9.94,-0.03,-0.00,-0.00,31.77
59891191,1963,1,192826,222012,1.38,-0.31,9.88,-0.04,-0.02,-0.00,31.77
59931190,1977,1,192461,219614,1.39,-0.29,9.86,-0.04,-0.03,-0.00,31.77
59971190,1979,1,191921,218906,1.39,-0.29,9.88,-0.03,-0.02,-0.00,31.77
60011191,1975,1,192218,219711,1.38,-0.28,9.88,-0.03,-0.01,-0.01,31.77
60051190,1973,1,192658,221499,1.37,-0.28,9.92,-0.03,-0.00,-0.01,31.77
60091190,1942,1,193256,223023,1.35,-0.28,9.92,-0.03,-0.00,-0.01,31.77
60131228,1941,1,193612,223426,1.36,-0.28,9.92,-0.04,-0.01,-0.00,31.77
60171186,1963,1,193625,223055,1.36,-0.28,9.91,-0.03,-0.02,-0.00,31.77
60211207,1966,1,193618,223431,1.38,-0.28,9.91,-0.03,-0.02,-0.00,31.77
60251190,1965,1,193696,223669,1.38,-0.28,9.88,-0.03,-0.01,-0.00,31.77
60291190,1968,1,193751,223601,1.38,-0.29,9.91,-0.03,-0.01,-0.00,31.77
60331186,1956,1,193739,223669,1.39,-0.30,9.90,-0.03,-0.01,-0.00,31.77
60371873,1923,1,193883,223595,1.38,-0.29,9.89,-0.03,-0.01,-0.00,31.75
60410190,1965,1,193765,223429,1.38,-0.28,9.89,-0.03,-0.01,-0.00,31.75
60450189,1978,1,193812,223492,1.39,-0.28,9.89,-0.04,-0.02,-0.00,31.75
60490190,1963,1,193824,223022,1.38,-0.28,9.90,-0.03,-0.01,-0.01,31.75
60530189,1968,1,193653,223008,1.35,-0.28,9.91,-0.03,-0.01,-0.00,31.75
60570190,1968,1,193747,223247,1.38,-0.30,9.94,-0.03,-0.01,-0.00,31.75
60610190,1971,1,193875,223642,1.37,-0.28,9.89,-0.03,-0.01,-0.00,31.75
60650190,1967,1,194135,224902,1.38,-0.30,9.92,-0.03,0.00,-0.01,31.75
60690169,1946,1,194766,226077,1.38,-0.27,9.93,-0.04,-0.01,-0.01,31.75
60730190,1942,1,194978,226338,1.35,-0.28,9.93,-0.03,-0.00,-0.01,31.75
60770190,1958,1,194921,226082,1.37,-0.29,9.92,-0.03,-0.01,-0.00,31.75
60810239,1936,1,194731,225720,1.36,-0.28,9.91,-0.03,-0.01,-0.01,31.75
60850190,1936,1,194666,225675,1.36,-0.27,9.92,-0.03,-0.01,-0.00,31.75
60890190,1931,1,194577,225411,1.35,-0.30,9.90,-0.03,-0.01,-0.00,31.75
60930190,1936,1,194513,225237,1.37,-0.27,9.90,-0.03,-0.01,-0.00,31.75
60970190,1910,1,194464,225004,1.38,-0.29,9.93,-0.03,-0.01,-0.00,31.75
61010210,1956,1,194394,225128,1.37,-0.29,9.89,-0.03,-0.01,-0.01,31.75
61050190,1954,1,194448,225358,1.36,-0.28,9.90,-0.03,-0.01,-0.00,31.75
61090190,1955,1,194480,225690,1.37,-0.27,9.90,-0.04,-0.01,-0.00,31.75
61130187,1951,1,194529,225769,1.35,-0.29,9.90,-0.03,-0.01,-0.00,31.75
61170190,1939,1,194623,226258,1.36,-0.28,9.92,-0.03,-0.01,-0.00,31.75
61210190,1941,1,194799,226275,1.37,-0.28,9.89,-0.03,-0.01,-0.00,31.75
61250190,1937,1,194774,226208,1.38,-0.28,9.90,-0.03,-0.01,-0.01,31.75
61290190,1938,1,194670,225913,1.36,-0.29,9.91,-0.03,-0.01,-0.00,31.75
61330197,1958,1,194541,225676,1.37,-0.28,9.94,-0.03,-0.01,-0.00,31.75
61370190,1968,1,194447,225183,1.37,-0.28,9.92,-0.03,-0.01,-0.00,31.75
61410877,1934,1,194125,224669,1.36,-0.27,9.90,-0.03,-0.01,-0.01,31.75
61449193,1990,1,193992,224384,1.36,-0.28,9.91,-0.03,-0.01,-0.00,31.75
61489189,2032,1,194057,224857,1.37,-0.28,9.90,-0.03,-0.01,-0.00,31.75
61529189,2019,1,194258,225266,1.36,-0.29,9.92,-0.03,-0.01,-0.00,31.75
61569189,1997,1,194344,225487,1.35,-0.28,9.91,-0.03,-0.01,-0.00,31.75
61609189,2029,1,194466,225535,1.37,-0.30,9.91,-0.03,-0.01,-0.00,31.75
61649190,2003,1,194440,225507,1.37,-0.29,9.90,-0.03,-0.01,-0.00,31.75
61689189,1989,1,194496,225477,1.38,-0.29,9.90,-0.03,-0.01,-0.00,31.75
