timestamp_us,ecg,leads,ir,red,accX,accY,accZ,gyroX,gyroY,gyroZ,temp
2419486,1872,1,183893,230404,0.00,0.00,0.00,0.00,0.00,0.00,0.00
2449951,1858,1,183874,229588,0.55,-0.83,9.79,-0.03,-0.03,-0.00,31.15
2490197,1866,1,183426,228565,0.63,-0.85,9.94,-0.03,-0.04,-0.00,31.15
2530184,1865,1,183199,228668,0.60,-0.81,9.89,-0.03,0.01,-0.01,31.15
2570169,1872,1,183393,229020,0.58,-0.85,9.92,-0.04,0.03,-0.01,31.15
2610195,1861,1,183105,228281,0.56,-0.85,9.98,-0.03,-0.00,-0.01,31.15
2650185,1890,1,183034,228260,0.60,-0.85,9.96,-0.03,-0.03,-0.00,31.15
2690184,1885,1,183194,228583,0.65,-0.85,9.98,-0.04,-0.02,-0.01,31.15
2730185,1895,1,183237,228447,0.58,-0.83,9.94,-0.03,-0.01,-0.01,31.15
2770185,1898,1,183203,228922,0.58,-0.85,9.85,-0.04,0.00,-0.01,31.15
2810173,1901,1,183491,230022,0.62,-0.85,9.91,-0.04,0.01,-0.01,31.15
2850169,1904,1,183780,230841,0.60,-0.87,10.01,-0.04,0.00,-0.01,31.15
2890169,1914,1,184121,231490,0.60,-0.86,9.95,-0.04,0.01,-0.01,31.15
2930169,1910,1,184143,231228,0.52,-0.85,9.98,-0.03,-0.01,-0.01,31.15
2970185,1911,1,183846,230453,0.58,-0.85,9.96,-0.03,-0.04,-0.00,31.15
3010184,1915,1,183547,230059,0.62,-0.82,9.86,-0.03,-0.02,-0.01,31.15
3050185,1917,1,183691,230517,0.59,-0.84,9.94,-0.04,0.01,-0.01,31.15
3090169,1936,1,183822,230806,0.57,-0.87,10.00,-0.04,-0.01,-0.01,31.15
3130185,1913,1,184006,231003,0.59,-0.86,9.93,-0.03,-0.02,-0.00,31.15
3170185,1904,1,184064,231467,0.63,-0.84,9.88,-0.03,0.01,-0.01,31.15
3210169,1914,1,184144,231376,0.55,-0.85,9.96,-0.04,0.01,-0.01,31.15
3250169,1916,1,183722,230440,0.57,-0.84,9.93,-0.03,-0.02,-0.00,31.15
3290185,1902,1,183594,230493,0.56,-0.85,9.97,-0.04,-0.01,-0.01,31.15
3330185,1894,1,183708,230988,0.58,-0.87,9.95,-0.03,-0.00,-0.01,31.15
3370185,1894,1,183756,230920,0.57,-0.85,9.97,-0.03,-0.00,-0.01,31.15
3410184,1872,1,183621,230736,0.56,-0.84,9.92,-0.03,-0.02,-0.00,31.15
3450185,1856,1,183670,230656,0.57,-0.86,9.92,-0.03,-0.02,-0.01,31.15
3490870,1836,1,183476,229864,0.57,-0.85,9.99,-0.03,-0.04,-0.00,30.99
3529186,1837,1,183125,228712,0.61,-0.82,9.95,-0.03,-0.05,-0.00,30.99
3569185,1811,1,182823,228643,0.61,-0.83,9.90,-0.03,-0.00,-0.01,30.99
3609185,1796,1,183002,229079,0.58,-0.86,9.93,-0.04,-0.00,-0.01,30.99
3649185,1791,1,183100,228897,0.61,-0.88,9.96,-0.03,-0.03,-0.00,30.99
3689186,1761,1,183110,228683,0.63,-0.84,9.97,-0.03,-0.02,-0.00,30.99
3729185,1758,1,183085,228892,0.61,-0.83,9.91,-0.04,0.00,-0.01,30.99
3769170,1758,1,183164,229850,0.59,-0.85,9.92,-0.04,0.01,-0.01,30.99
3809170,1745,1,183650,230952,0.62,-0.85,9.92,-0.04,0.02,-0.01,30.99
3849170,1747,1,183932,231481,0.53,-0.86,10.00,-0.04,0.03,-0.01,30.99
3889170,1737,1,183845,231311,0.56,-0.87,10.02,-0.03,0.01,-0.01,30.99
3929170,1737,1,183833,231620,0.60,-0.83,9.90,-0.03,-0.00,-0.00,30.99
3969184,1739,1,183849,231451,0.54,-0.85,9.94,-0.03,-0.00,-0.00,30.99
4009186,1744,1,183484,229992,0.55,-0.86,9.96,-0.03,-0.05,-0.00,30.99
4049185,1746,1,182883,228727,0.59,-0.85,9.94,-0.03,-0.06,-0.00,30.99
4089186,1764,1,182670,227870,0.60,-0.86,9.95,-0.03,-0.06,-0.00,30.99
4129185,1760,1,182603,227838,0.61,-0.84,9.93,-0.03,-0.04,-0.00,30.99
4169186,1744,1,182797,228445,0.63,-0.83,9.91,-0.03,-0.00,-0.01,30.99
4209185,1745,1,183087,229536,0.63,-0.84,9.89,-0.04,0.01,-0.01,30.99
4250173,1739,1,183462,230428,0.61,-0.84,9.94,-0.04,0.02,-0.01,30.99
4290169,1721,1,183704,231034,0.56,-0.83,9.97,-0.04,0.01,-0.01,30.99
4330169,1715,1,183811,231105,0.58,-0.85,9.96,-0.03,-0.01,-0.01,30.99
4370185,1690,1,183661,230582,0.57,-0.84,9.97,-0.03,-0.02,-0.00,30.99
4410185,1689,1,183355,229586,0.60,-0.85,9.97,-0.03,-0.04,-0.00,30.99
4450217,1687,1,183120,228820,0.64,-0.84,9.95,-0.03,-0.05,-0.00,30.99
4490871,1658,1,183057,228303,0.63,-0.85,9.89,-0.03,-0.01,-0.01,31.13
4529185,1646,1,182689,227899,0.64,-0.84,9.93,-0.04,0.02,-0.01,31.13
4569170,1637,1,182877,229205,0.60,-0.83,9.93,-0.04,0.03,-0.01,31.13
4609170,1641,1,183242,230240,0.58,-0.85,9.99,-0.04,0.02,-0.01,31.13
4649190,1623,1,183494,230540,0.57,-0.83,9.98,-0.04,-0.00,-0.01,31.13
4689185,1617,1,183536,230506,0.56,-0.84,9.95,-0.03,-0.01,-0.00,31.13
4729186,1618,1,183442,229901,0.56,-0.84,9.94,-0.03,-0.02,-0.01,31.13
4769185,1635,1,183132,229154,0.60,-0.84,9.95,-0.03,-0.03,-0.00,31.13
4809186,1660,1,182965,228970,0.60,-0.85,9.93,-0.03,-0.02,-0.00,31.13
4849185,1667,1,182967,229591,0.59,-0.84,9.93,-0.03,-0.00,-0.01,31.13
4889186,1691,1,183297,230549,0.60,-0.84,9.95,-0.04,0.01,-0.01,31.13
4929170,1712,1,183615,230885,0.55,-0.87,9.98,-0.04,-0.00,-0.01,31.13
4969186,1751,1,183628,230617,0.62,-0.82,9.94,-0.03,-0.02,-0.00,31.13
5009185,1776,1,183282,228978,0.53,-0.83,10.11,-0.03,-0.03,-0.00,31.13
5049186,1808,1,182381,226267,0.61,-0.85,9.88,-0.02,-0.07,-0.00,31.13
5089185,1847,1,181796,225113,0.64,-0.84,9.78,-0.03,-0.01,-0.01,31.13
5129186,1888,1,181478,224846,0.62,-0.84,9.97,-0.04,0.03,-0.01,31.13
5169170,1904,1,181624,225644,0.60,-0.84,9.99,-0.03,-0.03,-0.00,31.13
5209185,1920,1,182284,227384,0.65,-0.83,9.96,-0.03,-0.04,-0.00,31.13
5249185,1952,1,182665,228617,0.62,-0.84,9.94,-0.04,0.00,-0.01,31.13
5290169,1975,1,183096,230320,0.68,-0.82,9.83,-0.04,0.05,-0.01,31.13
5330164,1994,1,183620,231473,0.55,-0.84,10.05,-0.05,0.06,-0.01,31.13
5370169,2007,1,183785,230905,0.49,-0.89,10.04,-0.03,-0.02,-0.01,31.13
5410185,2067,1,183342,229337,0.55,-0.84,10.00,-0.02,-0.12,0.00,31.13
5450169,2043,1,182923,227054,0.66,-0.83,9.98,-0.02,-0.16,0.01,31.13
5490169,2047,1,182265,225618,0.77,-0.80,9.70,-0.02,0.00,-0.00,31.13
5530855,2039,1,182509,228279,0.67,-0.85,9.80,-0.05,0.13,-0.01,31.05
5569170,2044,1,183238,229903,0.52,-0.89,10.07,-0.05,0.05,-0.01,31.05
5609170,2034,1,183569,230561,0.53,-0.87,10.07,-0.03,-0.04,-0.00,31.05
5649185,2085,1,183746,231138,0.65,-0.82,9.91,-0.03,-0.02,-0.00,31.05
5689185,2032,1,183936,231538,0.59,-0.83,9.98,-0.03,0.02,-0.00,31.05
5729170,2044,1,184104,232099,0.69,-0.85,9.85,-0.04,0.02,-0.01,31.05
5769170,2026,1,184252,232608,0.57,-0.84,9.94,-0.05,0.05,-0.01,31.05
5809170,2055,1,184449,233128,0.51,-0.88,10.01,-0.04,0.01,-0.01,31.05
5849170,2055,1,184530,232635,0.54,-0.87,9.99,-0.03,-0.02,-0.01,31.05
5889193,2023,1,184216,232166,0.56,-0.87,9.96,-0.03,-0.06,-0.00,31.05
5929185,2020,1,184074,232049,0.59,-0.84,9.89,-0.03,-0.01,-0.01,31.05
5969185,2031,1,184054,231835,0.59,-0.86,9.89,-0.03,-0.01,-0.01,31.05
6009186,2019,1,183989,231989,0.60,-0.84,9.92,-0.03,-0.00,-0.01,31.05
6049185,2012,1,184144,232940,0.56,-0.83,9.96,-0.04,0.01,-0.01,31.05
6089183,2011,1,184952,234587,0.59,-0.86,9.93,-0.04,0.04,-0.01,31.05
6129170,1979,1,185696,235599,0.53,-0.86,9.96,-0.04,0.05,-0.04,31.05
6169170,2007,1,185928,235502,0.48,-0.85,9.98,-0.03,0.00,-0.04,31.05
6209170,2002,1,185571,234935,0.51,-0.86,9.92,-0.03,-0.03,-0.01,31.05
6249185,1984,1,185406,234738,0.54,-0.86,9.90,-0.04,-0.02,-0.01,31.05
6289185,2009,1,185167,234265,0.52,-0.86,9.96,-0.03,-0.03,-0.00,31.05
6329185,2000,1,184695,233243,0.54,-0.86,9.98,-0.03,-0.04,-0.00,31.05
6369185,1995,1,184064,232384,0.57,-0.87,9.92,-0.03,-0.05,-0.00,31.05
6409185,1982,1,183838,232075,0.58,-0.83,9.90,-0.03,-0.03,-0.00,31.05
6449185,1975,1,183674,231695,0.56,-0.84,9.97,-0.03,-0.02,-0.00,31.05
6489185,1971,1,183434,231421,0.58,-0.84,9.91,-0.03,-0.03,-0.01,31.05
6529185,1967,1,183468,231240,0.59,-0.86,9.95,-0.03,-0.01,-0.00,31.05
6569872,1968,1,183492,231207,0.58,-0.86,9.93,-0.03,-0.01,-0.00,31.05
6610185,1962,1,183579,231630,0.60,-0.85,9.93,-0.04,0.01,-0.01,31.05
6650169,1959,1,183714,231832,0.58,-0.85,9.93,-0.04,0.03,-0.00,31.05
6690164,1954,1,183661,231813,0.52,-0.87,9.96,-0.03,0.00,-0.01,31.05
6730169,1950,1,183673,231887,0.55,-0.85,9.95,-0.03,0.00,-0.01,31.05
6770169,1930,1,183692,232178,0.53,-0.85,9.96,-0.03,0.01,-0.01,31.05
6810169,1943,1,183849,232456,0.53,-0.85,9.98,-0.03,-0.00,-0.01,31.05
6850184,1955,1,183902,232617,0.52,-0.86,9.96,-0.03,-0.01,-0.01,31.05
6890184,1939,1,183849,232578,0.53,-0.85,9.98,-0.03,-0.01,-0.01,31.05
6930185,1953,1,183808,232348,0.57,-0.87,9.94,-0.04,-0.00,-0.01,31.05
6970185,1936,1,183641,232321,0.56,-0.89,9.96,-0.04,-0.01,-0.02,31.05
7010208,1943,1,183680,232498,0.53,-0.83,9.93,-0.03,-0.01,-0.03,31.05
7050185,1951,1,183774,232785,0.54,-0.85,9.97,-0.03,-0.00,-0.05,31.05
7090184,1939,1,183907,232885,0.45,-0.79,9.96,-0.03,-0.01,-0.04,31.05
7130185,1953,1,183895,232532,0.51,-0.85,9.94,-0.03,-0.02,-0.01,31.05
7170185,1951,1,183691,231874,0.55,-0.85,9.96,-0.03,-0.04,-0.00,31.05
7210184,1955,1,183447,231099,0.53,-0.85,9.98,-0.03,-0.03,-0.00,31.05
7250185,1951,1,183365,231132,0.61,-0.85,9.84,-0.03,-0.02,-0.00,31.05
7290184,1954,1,183533,231366,0.56,-0.85,9.93,-0.04,-0.01,-0.01,31.05
7330185,1936,1,183424,230994,0.58,-0.84,9.96,-0.04,-0.03,-0.00,31.05
7370185,1926,1,183380,230787,0.57,-0.85,9.93,-0.03,-0.05,-0.00,31.05
7410185,1906,1,183254,230710,0.61,-0.83,9.96,-0.03,-0.02,-0.00,31.05
7450185,1904,1,183418,230649,0.60,-0.85,9.93,-0.03,-0.00,-0.01,31.05
7490183,1905,1,183291,230395,0.60,-0.84,9.94,-0.03,-0.01,-0.01,31.05
7530185,1902,1,183001,229981,0.62,-0.82,9.85,-0.04,0.00,-0.01,31.05
7570855,1901,1,182945,229881,0.55,-0.85,10.02,-0.04,0.01,-0.01,31.05
7609170,1909,1,182858,229699,0.57,-0.85,9.94,-0.03,-0.02,-0.00,31.05
7649185,1904,1,182688,229161,0.61,-0.83,9.91,-0.03,-0.02,-0.00,31.05
7689185,1905,1,182543,229098,0.58,-0.85,9.90,-0.04,0.02,-0.01,31.05
7729211,1911,1,182568,229239,0.53,-0.85,9.98,-0.03,0.02,-0.01,31.05
7769170,1899,1,182604,229378,0.54,-0.86,9.93,-0.03,0.02,-0.01,31.05
7809170,1882,1,182745,229467,0.49,-0.82,9.99,-0.03,0.01,-0.00,31.05
7849170,1872,1,183032,229515,0.55,-0.82,9.93,-0.03,-0.01,-0.00,31.05
7889185,1875,1,183282,229870,0.54,-0.86,9.90,-0.03,-0.01,-0.01,31.05
7929228,1840,1,183542,230274,0.50,-0.85,9.97,-0.03,-0.01,-0.00,31.05
7969185,2029,1,183852,231029,0.53,-0.85,9.94,-0.03,-0.01,-0.01,31.05
8009185,1927,1,184151,230790,0.51,-0.85,9.95,-0.03,-0.00,-0.01,31.05
8049184,1850,1,183293,228065,0.53,-0.84,9.99,-0.03,-0.05,-0.00,31.05
8089185,1723,1,181921,223682,0.60,-0.85,9.86,-0.02,-0.05,-0.00,31.05
8129183,1647,1,180464,220892,0.55,-0.83,9.93,-0.03,0.01,-0.00,31.05
8169170,1583,1,179993,219987,0.52,-0.84,9.97,-0.03,-0.01,-0.00,31.05
8209185,1652,1,179617,218755,0.56,-0.83,9.99,-0.03,-0.03,-0.00,31.05
8249184,1741,1,179168,217488,0.55,-0.81,9.99,-0.02,-0.04,-0.00,31.05
8289185,1753,1,178782,216449,0.57,-0.83,9.99,-0.01,-0.06,0.00,31.05
8329170,1889,1,178562,215456,0.64,-0.81,9.87,-0.01,-0.05,-0.00,31.05
8369185,1982,1,178309,215472,0.63,-0.74,9.90,-0.03,0.02,-0.00,31.05
8409170,2021,1,178587,215754,0.54,-0.84,9.99,-0.03,0.01,0.00,31.05
8449154,2052,1,178526,215563,0.60,-0.81,9.96,-0.04,-0.01,-0.01,31.05
8489185,2057,1,178445,215643,0.60,-0.80,9.94,-0.04,0.00,-0.01,31.05
8529164,1967,1,178546,216224,0.60,-0.82,9.92,-0.03,0.02,-0.01,31.05
8569170,2042,1,178743,216953,0.58,-0.81,9.96,-0.03,0.05,-0.01,31.05
8609850,1987,1,178849,217391,0.54,-0.81,9.93,-0.03,0.04,-0.01,31.01
8650169,1990,1,178973,217794,0.50,-0.80,9.95,-0.03,0.02,-0.00,31.01
8690164,2004,1,179074,217179,0.52,-0.79,9.99,-0.03,0.04,-0.00,31.01
8730169,1944,1,178604,216036,0.50,-0.79,9.97,-0.03,0.00,-0.00,31.01
8770164,1924,1,178631,217250,0.49,-0.79,9.89,-0.03,0.00,-0.01,31.01
8810169,1874,1,179800,220432,0.48,-0.83,9.96,-0.04,0.02,-0.01,31.01
8850169,1915,1,181468,224665,0.47,-0.81,9.96,-0.05,0.02,-0.01,31.01
8890169,1840,1,183617,230864,0.43,-0.83,9.97,-0.05,0.01,-0.02,31.01
8930169,1830,1,186041,236017,0.46,-0.81,9.88,-0.06,-0.04,-0.01,31.01
8970185,1813,1,188107,239156,0.51,-0.82,9.95,-0.05,-0.02,-0.01,31.01
9010184,1771,1,189501,241060,0.46,-0.83,9.96,-0.05,-0.01,-0.01,31.01
9050185,1817,1,190366,241888,0.47,-0.84,9.97,-0.04,-0.01,-0.01,31.01
9090185,1840,1,190273,241003,0.47,-0.85,9.99,-0.03,-0.02,-0.00,31.01
9130185,1859,1,189377,239682,0.50,-0.82,9.95,-0.03,-0.03,-0.00,31.01
9170183,1873,1,188672,238965,0.51,-0.82,9.92,-0.03,-0.02,-0.00,31.01
9210185,1918,1,188198,238395,0.49,-0.84,9.95,-0.03,-0.00,-0.00,31.01
9250184,1923,1,187771,238150,0.52,-0.84,9.88,-0.04,-0.01,-0.01,31.01
9290185,1938,1,187459,236864,0.46,-0.83,9.96,-0.04,-0.01,-0.01,31.01
9330185,1934,1,186203,233945,0.46,-0.85,9.98,-0.04,-0.03,-0.00,31.01
9370191,1950,1,184831,231486,0.50,-0.82,9.96,-0.03,-0.04,-0.00,31.01
9410184,1968,1,183849,230004,0.53,-0.82,9.92,-0.03,-0.04,-0.00,31.01
9450185,1968,1,183466,230214,0.52,-0.82,9.93,-0.04,-0.01,-0.00,31.01
9490184,1950,1,183833,231873,0.52,-0.83,9.94,-0.04,-0.00,-0.01,31.01
9530185,1931,1,184447,233594,0.54,-0.85,9.92,-0.05,-0.00,-0.01,31.01
9568190,1999,1,185081,234567,0.53,-0.87,9.99,-0.05,0.01,-0.01,31.01
9608169,2000,1,185419,235139,0.53,-0.85,9.92,-0.04,-0.00,-0.02,31.01
9648870,1915,1,185526,234963,0.49,-0.83,9.95,-0.03,-0.01,-0.02,30.97
9689185,1916,1,185160,234048,0.51,-0.85,10.00,-0.03,-0.02,-0.01,30.97
9729185,1897,1,184613,233198,0.53,-0.84,9.95,-0.03,-0.03,-0.00,30.97
9769185,1902,1,184331,233139,0.55,-0.84,9.91,-0.03,-0.02,-0.00,30.97
9809185,1885,1,184488,233618,0.52,-0.84,9.92,-0.04,-0.00,-0.01,30.97
9849185,1904,1,184632,233699,0.52,-0.84,9.92,-0.04,-0.00,-0.01,30.97
9889184,1894,1,184545,233360,0.53,-0.85,9.95,-0.03,-0.01,-0.00,30.97
9929185,1889,1,184281,232863,0.53,-0.84,9.96,-0.03,-0.02,-0.00,30.97
9969185,1879,1,184105,232461,0.51,-0.84,9.97,-0.03,-0.01,-0.00,30.97
10009185,1879,1,183736,231548,0.51,-0.82,9.92,-0.03,-0.01,-0.01,30.97
10049185,1875,1,183403,231351,0.51,-0.83,9.94,-0.03,-0.02,-0.00,30.97
10089186,1866,1,183460,231511,0.55,-0.85,9.92,-0.03,-0.01,-0.01,30.97
10129184,1862,1,183545,231600,0.54,-0.85,9.95,-0.03,-0.00,-0.01,30.97
10169185,1858,1,183410,231133,0.52,-0.84,9.97,-0.03,-0.01,-0.01,30.97
10209184,1863,1,183220,230592,0.51,-0.85,9.94,-0.03,-0.03,-0.00,30.97
10249186,1867,1,182934,229854,0.54,-0.84,9.90,-0.03,-0.04,-0.00,30.97
10289184,1869,1,182725,229568,0.56,-0.84,9.93,-0.03,-0.01,-0.00,30.97
10329186,1883,1,182654,229394,0.54,-0.85,9.96,-0.03,-0.00,-0.01,30.97
10369185,1884,1,182544,229126,0.54,-0.85,9.96,-0.03,-0.01,-0.01,30.97
10409186,1901,1,182478,228809,0.55,-0.83,9.90,-0.03,-0.01,-0.00,30.97
10449185,1904,1,182437,228726,0.54,-0.84,9.97,-0.03,-0.01,-0.01,30.97
10489186,1923,1,182459,228788,0.52,-0.83,9.90,-0.03,-0.01,-0.01,30.97
10529185,1927,1,182498,228751,0.53,-0.85,9.96,-0.03,-0.01,-0.01,30.97
10569186,1925,1,182499,228641,0.53,-0.85,9.93,-0.03,-0.01,-0.01,30.97
10609185,1935,1,182431,228456,0.55,-0.83,9.94,-0.03,-0.01,-0.00,30.97
10649872,1928,1,182276,227100,0.56,-0.84,9.93,-0.03,-0.01,-0.00,30.93
10688185,2002,1,181374,224001,0.55,-0.84,9.97,-0.04,-0.01,-0.01,30.93
10728187,2012,1,180477,222303,0.54,-0.85,9.95,-0.03,-0.01,-0.00,30.93
10768185,2010,1,180124,220876,0.56,-0.84,9.95,-0.03,-0.02,-0.00,30.93
10808186,2032,1,179765,219972,0.55,-0.84,9.92,-0.03,-0.02,-0.00,30.93
10848185,2032,1,179693,219969,0.55,-0.83,9.96,-0.03,-0.02,-0.00,30.93
10888186,2027,1,179884,219970,0.57,-0.85,9.95,-0.03,-0.02,-0.00,30.93
10928185,2000,1,179782,219188,0.57,-0.82,9.95,-0.03,-0.02,-0.00,30.93
10968187,2000,1,179577,218269,0.55,-0.83,9.98,-0.03,-0.04,-0.00,30.93
11008203,1984,1,179524,218423,0.57,-0.82,9.93,-0.03,-0.03,-0.00,30.93
11048186,1984,1,180186,221989,0.63,-0.84,9.86,-0.04,0.01,-0.01,30.93
11088170,1983,1,181675,227208,0.58,-0.85,9.89,-0.05,0.09,-0.01,30.93
11128170,1999,1,182778,229709,0.61,-0.96,10.11,-0.04,0.03,-0.09,30.93
11168170,2045,1,183436,231117,0.44,-0.80,9.95,-0.03,-0.02,-0.08,30.93
11208210,2066,1,183649,231085,0.46,-0.77,9.95,-0.03,-0.02,-0.02,30.93
11248185,2071,1,183233,229694,0.50,-0.85,9.95,-0.03,-0.03,-0.00,30.93
11288186,2089,1,182271,226527,0.54,-0.83,9.95,-0.03,-0.04,-0.00,30.93
11328185,2096,1,180654,221933,0.55,-0.85,9.90,-0.03,-0.02,-0.00,30.93
11368186,2115,1,179964,222100,0.55,-0.85,9.94,-0.04,-0.01,-0.01,30.93
11408207,2118,1,180510,224198,0.55,-0.84,9.96,-0.03,0.00,-0.01,30.93
11448170,2117,1,181142,225527,0.52,-0.83,9.96,-0.04,-0.01,-0.00,30.93
11488185,2127,1,181430,226228,0.54,-0.84,9.96,-0.03,-0.01,-0.00,30.93
11528187,2142,1,181609,226571,0.53,-0.83,9.95,-0.03,-0.01,-0.00,30.93
11568185,2138,1,181666,226598,0.54,-0.85,9.93,-0.03,-0.01,-0.01,30.93
11608187,2142,1,181668,226489,0.53,-0.82,9.94,-0.03,-0.01,-0.00,30.93
11648184,2147,1,181546,225984,0.54,-0.83,9.92,-0.03,-0.02,-0.00,30.93
11688873,2085,1,181388,225467,0.57,-0.82,9.93,-0.03,-0.03,-0.00,30.67
11729185,2083,1,181317,225755,0.57,-0.83,9.90,-0.03,-0.01,-0.00,30.67
11769185,2090,1,181545,226498,0.55,-0.83,9.91,-0.04,0.00,-0.01,30.67
11809169,2087,1,181808,227105,0.53,-0.83,9.96,-0.04,-0.00,-0.01,30.67
11849186,2082,1,181985,227479,0.57,-0.84,9.95,-0.03,-0.01,-0.01,30.67
11889185,2078,1,182047,227082,0.54,-0.83,9.93,-0.03,-0.02,-0.00,30.67
11929186,2065,1,181695,225189,0.54,-0.82,9.98,-0.03,-0.03,-0.00,30.67
11969185,2013,1,180192,218169,0.55,-0.83,9.96,-0.02,-0.06,0.00,30.67
12009170,2033,1,178510,215017,0.63,-0.81,9.89,-0.03,-0.04,-0.00,30.67
12049185,2030,1,178128,214051,0.61,-0.84,9.90,-0.03,-0.03,-0.00,30.67
12089185,2001,1,178268,215110,0.61,-0.79,9.88,-0.04,0.02,-0.01,30.67
12129170,1998,1,178713,216954,0.59,-0.80,9.96,-0.04,0.05,-0.01,30.67
12169170,1984,1,179128,218194,0.53,-0.83,10.04,-0.04,0.01,-0.01,30.67
12209170,1987,1,179300,218189,0.54,-0.81,9.98,-0.03,-0.03,-0.00,30.67
12249186,1983,1,179088,217081,0.59,-0.82,9.91,-0.03,-0.03,-0.00,30.67
12289185,1983,1,178737,216577,0.57,-0.83,9.90,-0.03,-0.01,-0.01,30.67
12329186,1997,1,178840,217386,0.57,-0.85,9.91,-0.04,0.01,-0.01,30.67
12369170,1977,1,179153,218637,0.56,-0.83,9.94,-0.04,-0.00,-0.01,30.67
12409186,1972,1,179679,220419,0.55,-0.83,9.95,-0.04,-0.00,-0.01,30.67
12449185,1968,1,180184,221531,0.56,-0.83,9.99,-0.04,-0.01,-0.01,30.67
12489186,1986,1,180305,221797,0.56,-0.80,9.95,-0.03,-0.01,-0.00,30.67
12529185,1969,1,180363,221914,0.55,-0.84,9.95,-0.03,-0.01,-0.00,30.67
12569186,1981,1,180499,223020,0.55,-0.83,9.95,-0.03,-0.00,-0.00,30.67
12609185,1975,1,180880,224193,0.56,-0.85,9.93,-0.04,-0.00,-0.01,30.67
12649186,1969,1,180745,221548,0.57,-0.83,9.97,-0.04,-0.01,-0.00,30.67
12689871,1961,1,179654,219648,0.54,-0.83,9.93,-0.03,-0.00,-0.01,30.63
12728186,2013,1,179355,218798,0.53,-0.84,9.96,-0.03,-0.02,-0.00,30.63
12768185,2023,1,179034,217484,0.54,-0.81,9.94,-0.03,-0.04,-0.00,30.63
12808187,2030,1,178617,216115,0.59,-0.82,9.95,-0.03,-0.03,-0.00,30.63
12848191,2036,1,178321,215451,0.58,-0.82,9.94,-0.03,-0.04,-0.00,30.63
12888186,2021,1,178389,216035,0.59,-0.82,9.92,-0.03,-0.01,-0.00,30.63
12928185,2030,1,178749,217277,0.57,-0.82,9.91,-0.04,0.01,-0.01,30.63
12968170,2031,1,179067,218075,0.56,-0.83,9.95,-0.04,0.01,-0.01,30.63
13008170,2033,1,179062,218372,0.56,-0.82,9.90,-0.03,0.01,-0.01,30.63
13048173,2054,1,179027,218370,0.54,-0.80,9.91,-0.03,0.01,-0.01,30.63
13088170,2061,1,178937,218133,0.56,-0.84,9.96,-0.03,0.00,-0.01,30.63
13128170,2065,1,178804,217697,0.55,-0.83,9.95,-0.03,-0.01,-0.00,30.63
13168185,2055,1,178676,217772,0.54,-0.79,9.95,-0.03,-0.01,-0.00,30.63
13208186,2054,1,178871,218634,0.54,-0.82,9.94,-0.03,-0.01,-0.00,30.63
13248185,2064,1,179378,220692,0.54,-0.83,9.94,-0.04,-0.01,-0.01,30.63
13288187,2065,1,180198,223186,0.54,-0.82,9.94,-0.04,0.01,-0.01,30.63
13328170,2063,1,180839,224401,0.53,-0.81,9.96,-0.04,-0.01,-0.00,30.63
13368186,2059,1,180539,221176,0.59,-0.82,9.98,-0.04,-0.01,-0.01,30.63
13408185,2071,1,179479,219578,0.52,-0.78,9.97,-0.04,0.00,-0.01,30.63
13448170,2064,1,179265,218972,0.52,-0.86,9.96,-0.03,-0.01,-0.00,30.63
13488184,2063,1,178954,218192,0.59,-0.83,9.95,-0.03,-0.02,-0.00,30.63
13528186,2071,1,178782,217966,0.53,-0.81,9.94,-0.03,-0.01,-0.00,30.63
13568204,2078,1,178844,218489,0.57,-0.85,9.91,-0.03,-0.01,-0.01,30.63
13608186,2073,1,179178,219280,0.54,-0.80,9.96,-0.03,-0.01,-0.01,30.63
13648185,2074,1,179265,219346,0.53,-0.84,9.96,-0.03,-0.01,-0.00,30.63
13688186,2092,1,179275,219633,0.55,-0.81,9.94,-0.03,-0.01,-0.00,30.63
13728871,2031,1,179524,220582,0.55,-0.81,9.95,-0.04,-0.01,-0.00,30.53
13769186,2021,1,179947,221886,0.55,-0.82,9.94,-0.03,-0.01,-0.00,30.53
13809185,2026,1,180377,223166,0.54,-0.80,9.95,-0.04,-0.01,-0.01,30.53
13849185,2027,1,180774,224658,0.52,-0.81,9.96,-0.04,-0.00,-0.01,30.53
13889185,2030,1,181247,225849,0.55,-0.84,9.94,-0.04,-0.01,-0.01,30.53
13929186,2035,1,181605,226799,0.52,-0.81,9.95,-0.04,-0.00,-0.01,30.53
13969185,2029,1,181831,227405,0.54,-0.84,9.94,-0.03,-0.00,-0.01,30.53
14009186,2030,1,182017,227606,0.54,-0.82,9.91,-0.03,-0.01,-0.01,30.53
14049185,2029,1,181976,227445,0.55,-0.84,9.93,-0.03,-0.01,-0.00,30.53
14089186,2021,1,181726,225433,0.53,-0.84,9.94,-0.03,-0.01,-0.01,30.53
14129185,2016,1,180259,220655,0.53,-0.84,9.94,-0.03,-0.01,-0.01,30.53
14169186,2027,1,179534,220125,0.53,-0.83,9.96,-0.03,-0.01,-0.00,30.53
14209184,2032,1,179548,220062,0.52,-0.83,9.91,-0.03,-0.01,-0.00,30.53
14249186,2019,1,179485,219821,0.54,-0.83,9.96,-0.03,-0.02,-0.01,30.53
14289184,2011,1,179386,219949,0.54,-0.82,9.93,-0.03,-0.02,-0.00,30.53
14329186,2019,1,179695,221186,0.54,-0.82,9.95,-0.03,-0.01,-0.00,30.53
14369185,2007,1,180175,223028,0.56,-0.84,9.93,-0.04,-0.00,-0.01,30.53
14409186,2006,1,180804,224806,0.53,-0.84,9.93,-0.04,-0.00,-0.01,30.53
14449185,2014,1,181249,225600,0.55,-0.83,9.96,-0.03,-0.01,-0.00,30.53
14489197,2003,1,181345,225817,0.54,-0.83,9.96,-0.03,-0.02,-0.01,30.53
14529185,2003,1,181432,226086,0.55,-0.81,9.95,-0.03,-0.01,-0.00,30.53
14569185,2015,1,181615,226645,0.54,-0.84,9.95,-0.03,-0.01,-0.01,30.53
14609184,1997,1,181794,227083,0.54,-0.80,9.93,-0.04,-0.01,-0.01,30.53
14649185,2007,1,181947,227682,0.56,-0.82,9.92,-0.04,-0.00,-0.01,30.53
14689213,2012,1,182145,228138,0.55,-0.82,9.95,-0.04,-0.00,-0.01,30.53
14729871,1999,1,182293,228508,0.53,-0.84,9.96,-0.04,-0.00,-0.01,30.59
14768185,2054,1,182325,228271,0.52,-0.82,9.97,-0.03,-0.01,-0.00,30.59
14808186,2062,1,181902,225909,0.53,-0.81,9.93,-0.03,-0.01,-0.00,30.59
14848185,2043,1,180831,223311,0.53,-0.83,9.94,-0.03,-0.01,-0.00,30.59
14888186,2054,1,180485,223068,0.53,-0.83,9.97,-0.03,-0.01,-0.01,30.59
14928184,2047,1,180544,223295,0.54,-0.83,9.95,-0.03,-0.01,-0.00,30.59
14968186,2047,1,180640,223743,0.54,-0.83,9.96,-0.03,-0.01,-0.01,30.59
15008185,2045,1,180906,224805,0.54,-0.82,9.92,-0.03,-0.01,-0.01,30.59
15048187,2057,1,181178,225373,0.55,-0.83,9.95,-0.03,-0.01,-0.00,30.59
15088185,2037,1,181261,225574,0.54,-0.83,9.97,-0.03,-0.01,-0.01,30.59
15128186,2031,1,181278,225287,0.55,-0.84,9.96,-0.03,-0.02,-0.00,30.59
15168185,2032,1,181139,224966,0.56,-0.83,9.92,-0.03,-0.03,-0.00,30.59
15208186,2029,1,181270,225936,0.56,-0.81,9.93,-0.03,-0.01,-0.01,30.59
15248185,2021,1,181616,226630,0.55,-0.83,9.96,-0.03,-0.00,-0.01,30.59
15288186,2016,1,181724,226580,0.52,-0.82,9.97,-0.03,-0.02,-0.01,30.59
15329185,1972,1,181690,226507,0.56,-0.83,9.92,-0.03,-0.01,-0.00,30.59
15369185,1968,1,181641,226493,0.54,-0.81,9.92,-0.03,-0.01,-0.00,30.59
15409185,1954,1,181669,226577,0.52,-0.81,9.93,-0.03,-0.01,-0.01,30.59
15449186,1938,1,181615,225277,0.54,-0.81,9.96,-0.03,-0.01,-0.00,30.59
15489185,1930,1,180417,220881,0.55,-0.85,9.90,-0.04,-0.01,-0.01,30.59
15529185,1919,1,179636,220458,0.56,-0.82,9.96,-0.03,-0.01,-0.01,30.59
15569185,1904,1,179987,221832,0.47,-0.79,9.98,-0.03,0.00,-0.01,30.59
15609169,1901,1,180153,221457,0.55,-0.87,9.94,-0.03,-0.02,-0.00,30.59
15649185,1882,1,179905,221460,0.63,-0.86,9.90,-0.03,-0.02,-0.00,30.59
15689185,1881,1,180399,223962,0.54,-0.81,9.95,-0.04,0.00,-0.01,30.59
15729169,1877,1,181134,225475,0.49,-0.80,9.99,-0.04,-0.00,-0.01,30.59
15769871,1869,1,181315,225504,0.50,-0.80,9.97,-0.03,-0.02,-0.00,30.57
15808185,1933,1,181263,225282,0.59,-0.83,9.94,-0.03,-0.02,-0.00,30.57
15848186,1931,1,181244,225788,0.57,-0.83,9.94,-0.03,-0.01,-0.01,30.57
15888185,1936,1,181495,226504,0.54,-0.83,9.93,-0.03,-0.01,-0.01,30.57
15928187,1935,1,181634,226678,0.50,-0.85,9.95,-0.03,-0.01,-0.01,30.57
15968185,1947,1,181718,227132,0.54,-0.83,9.95,-0.03,-0.01,-0.01,30.57
16008186,1951,1,181952,227639,0.53,-0.83,9.95,-0.03,-0.01,-0.01,30.57
16048185,1961,1,182071,227850,0.55,-0.83,9.95,-0.03,-0.01,-0.01,30.57
16088187,1967,1,182122,227790,0.55,-0.84,9.93,-0.03,-0.01,-0.00,30.57
16128185,1970,1,181864,225893,0.54,-0.84,9.94,-0.03,-0.02,-0.00,30.57
16168186,1971,1,180486,221125,0.51,-0.83,9.93,-0.03,-0.01,-0.00,30.57
16208185,1983,1,179622,219921,0.54,-0.84,9.94,-0.03,-0.02,-0.00,30.57
16248186,1971,1,179473,219771,0.55,-0.81,9.96,-0.03,-0.01,-0.00,30.57
16288185,1975,1,179508,219943,0.53,-0.80,9.94,-0.04,-0.01,-0.01,30.57
16329208,1968,1,179554,220162,0.54,-0.83,9.92,-0.03,-0.01,-0.01,30.57
16369185,1959,1,179737,220808,0.55,-0.82,9.95,-0.03,-0.01,-0.00,30.57
16409186,1946,1,179968,221716,0.55,-0.80,9.93,-0.03,-0.01,-0.01,30.57
16449185,1930,1,180348,223119,0.55,-0.82,9.94,-0.03,-0.00,-0.01,30.57
16489186,1922,1,180754,223964,0.53,-0.82,9.96,-0.04,-0.01,-0.01,30.57
16529184,1904,1,180912,224132,0.52,-0.82,9.93,-0.03,-0.01,-0.00,30.57
16569186,1908,1,180895,224248,0.51,-0.82,9.95,-0.03,-0.01,-0.01,30.57
16609184,1875,1,180917,224251,0.55,-0.83,9.98,-0.03,-0.01,-0.01,30.57
16649186,1876,1,180870,224262,0.53,-0.84,9.95,-0.03,-0.02,-0.01,30.57
16689184,1872,1,181019,224862,0.55,-0.82,9.95,-0.03,-0.01,-0.00,30.57
16729185,1873,1,181224,225598,0.57,-0.81,9.94,-0.04,-0.01,-0.01,30.57
16769871,1859,1,181450,226106,0.53,-0.83,9.92,-0.03,-0.00,-0.01,30.59
16808186,1904,1,181116,222468,0.53,-0.81,9.94,-0.03,-0.01,-0.01,30.59
16848185,1904,1,179660,219390,0.55,-0.83,9.96,-0.03,-0.01,-0.00,30.59
16888186,1921,1,179278,219248,0.54,-0.85,9.94,-0.03,-0.01,-0.01,30.59
16928184,1933,1,179329,219104,0.53,-0.82,9.96,-0.03,-0.01,-0.00,30.59
16968186,1939,1,179130,218385,0.54,-0.83,9.93,-0.03,-0.02,-0.00,30.59
17008185,1970,1,178975,218001,0.56,-0.82,9.93,-0.03,-0.02,-0.00,30.59
17048186,1984,1,178819,217118,0.54,-0.82,9.93,-0.03,-0.02,-0.00,30.59
17088185,2001,1,178482,216073,0.56,-0.82,9.95,-0.03,-0.03,-0.00,30.59
17128186,2021,1,178365,215843,0.59,-0.83,9.87,-0.03,-0.02,-0.00,30.59
17168185,2015,1,178496,216456,0.58,-0.80,9.92,-0.04,0.00,-0.01,30.59
17208170,2035,1,178812,217539,0.56,-0.80,9.93,-0.04,0.00,-0.01,30.59
17248170,2032,1,179210,218240,0.57,-0.81,9.97,-0.03,-0.00,-0.01,30.59
17288186,2018,1,179282,217733,0.55,-0.81,9.94,-0.03,-0.02,-0.01,30.59
17328185,2031,1,179134,217125,0.57,-0.81,9.94,-0.03,-0.03,-0.00,30.59
17369186,2002,1,179111,217011,0.56,-0.83,9.93,-0.03,-0.01,-0.01,30.59
17409185,2000,1,179159,217163,0.57,-0.84,9.91,-0.03,-0.01,-0.01,30.59
17449186,2013,1,178952,215820,0.56,-0.82,9.94,-0.04,-0.00,-0.01,30.59
17489185,2018,1,178529,215199,0.56,-0.80,9.93,-0.04,0.00,-0.00,30.59
17529169,2008,1,178391,215192,0.55,-0.81,9.95,-0.04,0.01,-0.01,30.59
17569169,2017,1,178275,214663,0.53,-0.82,9.96,-0.03,-0.01,-0.01,30.59
17609186,2009,1,178038,213939,0.54,-0.83,9.94,-0.03,-0.03,-0.00,30.59
17649185,1997,1,177915,213843,0.59,-0.79,9.90,-0.03,-0.01,-0.00,30.59
17689185,1991,1,178002,214342,0.56,-0.83,9.94,-0.03,-0.00,-0.01,30.59
17729185,1980,1,178195,214942,0.54,-0.81,9.94,-0.03,-0.00,-0.01,30.59
17769872,1965,1,178304,215400,0.53,-0.81,9.97,-0.04,-0.01,-0.01,30.23
17808185,1985,1,178425,215733,0.55,-0.80,9.96,-0.03,-0.01,-0.00,30.23
17848186,1986,1,178500,216030,0.55,-0.81,9.96,-0.03,-0.01,-0.00,30.23
17888184,1975,1,178500,216202,0.57,-0.83,9.94,-0.03,-0.00,-0.01,30.23
17928187,1981,1,178551,216635,0.55,-0.83,9.95,-0.03,-0.00,-0.01,30.23
17968190,1985,1,178698,217040,0.53,-0.83,9.97,-0.03,0.00,-0.01,30.23
18008170,1983,1,178639,216361,0.56,-0.81,9.98,-0.03,-0.01,-0.00,30.23
18048185,1981,1,178259,215462,0.57,-0.83,9.97,-0.03,-0.01,-0.00,30.23
18088187,1982,1,177644,213947,0.55,-0.80,9.97,-0.03,0.00,-0.00,30.23
18128170,1988,1,177367,214022,0.52,-0.83,9.93,-0.03,0.00,-0.00,30.23
18168189,1984,1,177433,214473,0.54,-0.82,9.95,-0.03,0.00,-0.01,30.23
18208170,1984,1,177486,214359,0.51,-0.80,9.97,-0.03,-0.02,-0.00,30.23
18248186,1985,1,177389,214137,0.55,-0.80,9.93,-0.03,-0.02,-0.00,30.23
18288184,2013,1,177410,214419,0.53,-0.80,9.96,-0.03,-0.01,-0.00,30.23
18328186,2015,1,177514,214320,0.56,-0.83,9.96,-0.03,-0.02,-0.00,30.23
18368185,2017,1,177348,214029,0.52,-0.81,9.95,-0.03,-0.01,-0.00,30.23
18408186,2032,1,177293,214309,0.54,-0.82,9.95,-0.03,-0.01,-0.01,30.23
18448185,2023,1,177493,214944,0.53,-0.84,9.93,-0.04,-0.00,-0.00,30.23
18488186,2029,1,177773,215795,0.55,-0.81,9.92,-0.04,-0.01,-0.00,30.23
18528185,2015,1,177981,216003,0.56,-0.80,9.96,-0.04,-0.01,-0.00,30.23
18568186,2030,1,177934,215520,0.56,-0.80,9.96,-0.03,-0.02,-0.00,30.23
18608185,2046,1,177741,214777,0.53,-0.81,9.97,-0.03,-0.03,-0.00,30.23
18648187,2037,1,177581,214344,0.57,-0.81,9.89,-0.03,-0.02,-0.00,30.23
18688185,2061,1,177433,213683,0.55,-0.82,9.93,-0.03,-0.01,-0.00,30.23
18728186,2054,1,177039,212061,0.55,-0.84,9.96,-0.03,-0.01,-0.01,30.23
18768185,2054,1,176465,210977,0.56,-0.80,9.91,-0.03,-0.01,-0.00,30.23
18808872,2019,1,176142,210453,0.56,-0.81,9.91,-0.03,-0.00,-0.00,30.19
18849185,2038,1,176006,210380,0.54,-0.81,9.94,-0.04,0.01,-0.01,30.19
18889169,2030,1,175895,209852,0.51,-0.83,10.00,-0.03,-0.01,-0.00,30.19
18929185,2032,1,175703,209868,0.54,-0.80,9.93,-0.03,-0.01,-0.01,30.19
18969185,2025,1,176040,211048,0.54,-0.80,9.92,-0.04,0.01,-0.01,30.19
19009169,2007,1,176469,212117,0.51,-0.84,9.95,-0.04,0.01,-0.01,30.19
19049169,2015,1,176736,212339,0.50,-0.81,9.96,-0.03,-0.01,-0.01,30.19
19089185,2007,1,176742,212447,0.54,-0.81,9.94,-0.03,-0.01,-0.00,30.19
19129185,2027,1,176900,213267,0.52,-0.83,9.92,-0.04,-0.01,-0.00,30.19
19169185,2033,1,177314,214449,0.54,-0.81,9.92,-0.04,0.00,-0.01,30.19
19209169,2011,1,177610,215034,0.49,-0.82,9.96,-0.04,-0.01,-0.01,30.19
19249185,2042,1,177672,214854,0.53,-0.81,9.95,-0.03,-0.02,-0.00,30.19
19289185,2033,1,177563,214585,0.51,-0.81,9.94,-0.03,-0.02,-0.00,30.19
19329185,2019,1,177527,214686,0.54,-0.80,9.94,-0.03,-0.01,-0.00,30.19
19369185,2019,1,177662,214744,0.52,-0.83,9.93,-0.03,-0.01,-0.01,30.19
19409184,2011,1,177247,212683,0.51,-0.83,9.96,-0.03,-0.02,-0.00,30.19
19449185,2009,1,176499,211025,0.51,-0.81,9.94,-0.03,-0.02,-0.00,30.19
19489185,2011,1,176196,210529,0.54,-0.82,9.91,-0.03,-0.01,-0.00,30.19
19529185,2003,1,176136,210246,0.51,-0.82,9.93,-0.04,-0.01,-0.01,30.19
19569185,2005,1,175930,209697,0.52,-0.83,9.96,-0.03,-0.02,-0.00,30.19
19609204,2000,1,175847,209838,0.54,-0.81,9.92,-0.03,-0.01,-0.00,30.19
19649185,2010,1,176131,210543,0.54,-0.84,9.95,-0.03,-0.01,-0.01,30.19
19689186,2007,1,176287,210933,0.53,-0.79,9.95,-0.03,-0.01,-0.00,30.19
19729185,2014,1,176415,211190,0.53,-0.81,9.93,-0.03,-0.01,-0.00,30.19
19769185,2021,1,176531,211602,0.51,-0.81,9.97,-0.03,-0.01,-0.01,30.19
19809906,2000,1,176696,212185,0.52,-0.82,9.93,-0.03,-0.01,-0.00,30.51
19848186,2028,1,176918,212691,0.53,-0.81,9.95,-0.04,-0.01,-0.01,30.51
19888185,2031,1,177015,213136,0.52,-0.83,9.96,-0.03,-0.01,-0.00,30.51
19928186,2039,1,177198,213727,0.53,-0.81,9.92,-0.03,-0.01,-0.01,30.51
19968185,2033,1,177397,214424,0.54,-0.83,9.93,-0.03,-0.01,-0.01,30.51
20008186,2032,1,177616,215031,0.53,-0.80,9.92,-0.03,-0.01,-0.00,30.51
20048185,2013,1,177791,215722,0.53,-0.82,9.94,-0.03,-0.01,-0.01,30.51
20088186,2015,1,177982,216271,0.54,-0.81,9.94,-0.04,-0.01,-0.01,30.51
20128184,1999,1,177921,214494,0.50,-0.84,9.94,-0.03,-0.01,-0.01,30.51
20168186,2007,1,177023,212702,0.53,-0.83,9.96,-0.03,-0.01,-0.00,30.51
20208185,2011,1,176684,212202,0.53,-0.81,9.91,-0.03,-0.01,-0.00,30.51
20248186,2010,1,176634,212045,0.53,-0.83,9.96,-0.03,-0.01,-0.00,30.51
20288185,2015,1,176527,211784,0.53,-0.83,9.93,-0.03,-0.01,-0.00,30.51
20328186,2014,1,176440,211651,0.52,-0.81,9.95,-0.03,-0.02,-0.00,30.51
20368185,2018,1,176496,211924,0.53,-0.82,9.95,-0.03,-0.01,-0.01,30.51
20408186,2017,1,176535,211793,0.51,-0.81,9.95,-0.03,-0.02,-0.00,30.51
20448185,2010,1,176502,211662,0.54,-0.81,9.95,-0.03,-0.01,-0.00,30.51
20488186,2008,1,176483,211659,0.56,-0.81,9.95,-0.03,-0.01,-0.00,30.51
20528185,1999,1,176460,211789,0.53,-0.82,9.93,-0.03,-0.01,-0.00,30.51
20568186,2005,1,176640,212547,0.52,-0.83,9.94,-0.03,-0.01,-0.01,30.51
20608185,2009,1,176928,213371,0.53,-0.81,9.94,-0.04,-0.00,-0.01,30.51
20648186,2010,1,177133,213846,0.53,-0.83,9.96,-0.03,-0.01,-0.00,30.51
20688185,1993,1,177218,213872,0.54,-0.82,9.93,-0.03,-0.01,-0.01,30.51
20728187,2000,1,177186,213789,0.52,-0.80,9.96,-0.03,-0.01,-0.00,30.51
20768185,2000,1,177161,213919,0.55,-0.83,9.95,-0.03,-0.01,-0.00,30.51
20808186,2013,1,177285,214400,0.52,-0.81,9.96,-0.03,-0.01,-0.01,30.51
20848871,1974,1,177286,213459,0.55,-0.79,9.95,-0.03,-0.01,-0.01,30.45
20889186,1989,1,176673,211989,0.54,-0.81,9.94,-0.04,-0.00,-0.01,30.45
20929185,1995,1,176366,211683,0.53,-0.82,9.91,-0.03,-0.01,-0.00,30.45
20969185,1990,1,176413,211761,0.52,-0.82,9.96,-0.03,-0.01,-0.00,30.45
21009185,1989,1,176382,211850,0.55,-0.82,9.95,-0.03,-0.01,-0.01,30.45
21049186,1982,1,176476,212397,0.53,-0.81,9.95,-0.03,-0.01,-0.01,30.45
21089184,1985,1,176856,213583,0.55,-0.81,9.92,-0.03,-0.01,-0.01,30.45
21129186,1984,1,177267,214907,0.52,-0.79,9.95,-0.04,0.00,-0.01,30.45
21169169,1979,1,177584,215549,0.51,-0.82,9.98,-0.04,0.00,-0.01,30.45
21209169,1987,1,177649,215608,0.52,-0.82,9.96,-0.03,-0.01,-0.01,30.45
21249185,1975,1,177686,215712,0.50,-0.82,9.96,-0.03,-0.01,-0.01,30.45
21289186,1975,1,177665,215660,0.51,-0.82,9.94,-0.03,-0.01,-0.00,30.45
21329185,1971,1,177603,215776,0.55,-0.83,9.93,-0.03,-0.01,-0.00,30.45
21369186,1981,1,177692,215895,0.52,-0.81,9.95,-0.03,-0.01,-0.01,30.45
21409185,1972,1,177772,216421,0.53,-0.80,9.93,-0.03,-0.01,-0.01,30.45
21449185,1974,1,178115,217723,0.52,-0.81,9.94,-0.04,-0.01,-0.00,30.45
21489184,1977,1,178457,217876,0.47,-0.80,9.95,-0.03,-0.01,-0.00,30.45
21529185,1961,1,178113,214988,0.51,-0.80,9.94,-0.03,-0.02,-0.00,30.45
21569185,1969,1,177100,213009,0.56,-0.80,9.95,-0.03,-0.02,-0.00,30.45
21609185,1968,1,176709,212299,0.54,-0.79,9.96,-0.03,-0.02,-0.00,30.45
21649184,1975,1,176546,211551,0.54,-0.82,9.95,-0.03,-0.02,-0.00,30.45
21689185,1983,1,176278,210717,0.55,-0.83,9.95,-0.03,-0.02,-0.00,30.45
21729185,1951,1,176053,210121,0.53,-0.80,9.91,-0.03,-0.03,-0.00,30.45
21769185,1983,1,176075,210471,0.55,-0.82,9.93,-0.03,-0.02,-0.01,30.45
21809184,1966,1,176396,211165,0.55,-0.82,9.97,-0.04,-0.01,-0.01,30.45
21849871,1950,1,176640,211431,0.54,-0.84,9.96,-0.03,-0.01,-0.01,30.37
21888185,1968,1,176684,211453,0.55,-0.83,9.96,-0.03,-0.01,-0.00,30.37
21928186,1975,1,176681,211648,0.56,-0.81,9.91,-0.03,-0.01,-0.00,30.37
21968185,1975,1,176725,211905,0.54,-0.80,9.92,-0.04,-0.00,-0.01,30.37
22008185,1950,1,176721,211616,0.57,-0.81,9.98,-0.03,-0.02,-0.00,30.37
22048185,1975,1,176777,211728,0.58,-0.80,9.97,-0.03,-0.03,-0.00,30.37
22088186,1965,1,176895,212352,0.57,-0.79,9.91,-0.04,0.00,-0.00,30.37
22128170,1968,1,177087,212985,0.55,-0.81,9.95,-0.04,0.00,-0.01,30.37
22168170,1978,1,177294,213294,0.53,-0.83,9.96,-0.03,-0.01,-0.01,30.37
22208185,1979,1,176969,211708,0.56,-0.80,9.95,-0.04,-0.01,-0.01,30.37
22248186,1989,1,176574,211144,0.52,-0.80,9.96,-0.04,-0.00,-0.01,30.37
22288184,2001,1,176392,210816,0.54,-0.82,9.96,-0.03,-0.01,-0.00,30.37
22328186,2004,1,176294,210364,0.55,-0.81,9.94,-0.03,-0.02,-0.00,30.37
22368185,2001,1,176224,210683,0.56,-0.82,9.92,-0.03,-0.01,-0.00,30.37
22408186,1995,1,176498,212013,0.51,-0.82,9.94,-0.04,0.00,-0.01,30.37
22448170,2000,1,177039,213801,0.52,-0.82,9.96,-0.04,-0.01,-0.01,30.37
22488186,1991,1,177621,215397,0.52,-0.82,9.97,-0.04,0.01,-0.01,30.37
22528170,1985,1,177867,215723,0.52,-0.82,9.98,-0.04,-0.01,-0.01,30.37
22568186,2001,1,177860,215794,0.52,-0.82,9.95,-0.03,-0.01,-0.00,30.37
22608185,2006,1,177837,215029,0.54,-0.81,9.96,-0.03,-0.02,-0.00,30.37
22648186,2003,1,177451,213742,0.54,-0.83,9.93,-0.03,-0.04,-0.00,30.37
22688185,1991,1,177266,213449,0.57,-0.82,9.91,-0.03,-0.02,-0.00,30.37
22728186,1998,1,177283,213593,0.55,-0.83,9.95,-0.03,-0.01,-0.01,30.37
22768185,1986,1,177459,214067,0.55,-0.81,9.95,-0.03,-0.01,-0.01,30.37
22808186,1993,1,177662,214622,0.55,-0.83,9.96,-0.03,-0.01,-0.00,30.37
22848185,1995,1,177812,214613,0.56,-0.82,9.97,-0.03,-0.01,-0.01,30.37
22888872,1959,1,177350,212397,0.54,-0.81,9.96,-0.04,-0.00,-0.01,30.31
22929184,1973,1,176716,211469,0.54,-0.82,9.96,-0.03,-0.01,-0.01,30.31
22967186,2083,1,176563,211302,0.54,-0.82,9.95,-0.03,-0.01,-0.00,30.31
23007185,2081,1,176551,211082,0.54,-0.82,9.96,-0.04,-0.01,-0.00,30.31
23047186,2091,1,176479,210885,0.55,-0.82,9.94,-0.03,-0.01,-0.01,30.31
23087188,2087,1,176547,211321,0.56,-0.83,9.94,-0.03,-0.01,-0.00,30.31
23127186,2086,1,176783,211953,0.55,-0.81,9.94,-0.03,-0.01,-0.01,30.31
23167184,2080,1,176910,211872,0.56,-0.81,9.97,-0.03,-0.01,-0.01,30.31
23207186,2080,1,176768,211257,0.54,-0.81,9.94,-0.03,-0.02,-0.00,30.31
23247184,2045,1,176436,210404,0.53,-0.82,9.96,-0.03,-0.03,-0.00,30.31
23287186,2064,1,176363,210334,0.57,-0.81,9.91,-0.03,-0.03,-0.00,30.31
23327184,2061,1,176682,211512,0.58,-0.81,9.93,-0.04,-0.01,-0.01,30.31
23367186,2064,1,177268,213566,0.56,-0.81,9.95,-0.04,0.01,-0.01,30.31
23407169,2066,1,178004,214727,0.53,-0.83,10.00,-0.03,-0.00,-0.00,30.31
23447186,2064,1,178066,214319,0.53,-0.81,9.97,-0.03,-0.02,-0.00,30.31
23487185,2069,1,177861,213746,0.56,-0.78,9.93,-0.03,-0.01,-0.01,30.31
23527186,2067,1,177705,213384,0.55,-0.82,9.93,-0.03,-0.01,-0.01,30.31
23567185,2046,1,177678,212385,0.57,-0.81,9.92,-0.03,-0.01,-0.01,30.31
23607186,2047,1,177068,210388,0.56,-0.82,9.96,-0.03,-0.02,-0.00,30.31
23647185,2059,1,176621,210033,0.58,-0.80,9.93,-0.03,-0.01,-0.01,30.31
23687186,2054,1,176613,210477,0.57,-0.82,9.97,-0.04,0.01,-0.01,30.31
23727169,2067,1,176668,210534,0.52,-0.83,9.96,-0.04,-0.00,-0.01,30.31
23767186,2083,1,176543,209940,0.55,-0.82,9.92,-0.03,-0.02,-0.00,30.31
23807184,2075,1,176413,209822,0.58,-0.79,9.94,-0.03,-0.02,-0.00,30.31
23847185,2079,1,176506,210289,0.58,-0.83,9.89,-0.04,-0.00,-0.01,30.31
23887184,2063,1,176864,211109,0.55,-0.83,9.95,-0.04,0.00,-0.01,30.31
23927856,1984,1,177065,211808,0.54,-0.84,9.95,-0.03,-0.01,-0.01,30.09
23968185,2005,1,177249,212262,0.57,-0.80,9.95,-0.03,-0.01,-0.01,30.09
24008185,1997,1,177312,212253,0.57,-0.83,9.94,-0.03,-0.01,-0.00,30.09
24048185,2003,1,177248,212104,0.54,-0.79,9.93,-0.03,-0.01,-0.01,30.09
24088186,2000,1,177233,211795,0.55,-0.81,9.95,-0.03,-0.02,-0.00,30.09
24128185,2002,1,177134,211300,0.56,-0.83,9.95,-0.03,-0.03,-0.00,30.09
24168186,2011,1,177126,211077,0.58,-0.83,9.98,-0.03,-0.03,-0.00,30.09
24208185,1986,1,177239,211211,0.57,-0.81,9.95,-0.03,-0.02,-0.00,30.09
24248185,1979,1,177315,210545,0.56,-0.80,9.96,-0.03,-0.02,-0.00,30.09
24288185,1978,1,176969,209174,0.59,-0.81,9.95,-0.03,-0.01,-0.00,30.09
24328185,1986,1,176698,208965,0.60,-0.81,9.95,-0.04,-0.00,-0.01,30.09
24368185,1996,1,176800,209165,0.59,-0.80,9.95,-0.04,-0.00,-0.01,30.09
24408185,2000,1,176835,209058,0.56,-0.81,9.94,-0.03,-0.01,-0.01,30.09
24448184,1995,1,176841,209166,0.59,-0.81,9.93,-0.03,-0.01,-0.01,30.09
24488186,1984,1,176976,209705,0.55,-0.81,9.95,-0.03,-0.01,-0.01,30.09
24528185,1975,1,177192,209996,0.60,-0.80,9.94,-0.04,-0.01,-0.01,30.09
24568184,1984,1,177270,210221,0.57,-0.81,9.97,-0.03,-0.00,-0.01,30.09
24608185,1994,1,177260,210444,0.56,-0.82,9.95,-0.03,0.00,-0.01,30.09
24648169,1984,1,177324,210577,0.57,-0.82,9.95,-0.03,-0.01,-0.01,30.09
24688185,1981,1,177325,210650,0.59,-0.81,9.94,-0.03,-0.01,-0.01,30.09
24728193,1967,1,177347,210818,0.59,-0.79,9.95,-0.03,-0.01,-0.01,30.09
24768185,1975,1,177465,211397,0.57,-0.81,9.94,-0.03,-0.00,-0.01,30.09
24808186,1986,1,177678,211775,0.56,-0.82,9.96,-0.03,-0.01,-0.01,30.09
24848185,1983,1,177727,211962,0.57,-0.80,9.96,-0.03,-0.01,-0.01,30.09
24888185,1994,1,177772,211848,0.57,-0.79,9.96,-0.03,-0.01,-0.01,30.09
24928882,1967,1,177481,210074,0.58,-0.81,9.96,-0.03,-0.01,-0.00,30.37
24967186,2054,1,176850,208916,0.57,-0.79,9.95,-0.03,-0.01,-0.00,30.37
25007184,2054,1,176705,208664,0.59,-0.81,9.93,-0.03,-0.01,-0.00,30.37
25047186,2039,1,176654,208500,0.60,-0.80,9.96,-0.03,-0.01,-0.00,30.37
25087185,2041,1,176583,208504,0.57,-0.81,9.95,-0.03,-0.01,-0.01,30.37
25127186,2032,1,176581,208738,0.58,-0.81,9.96,-0.03,-0.01,-0.01,30.37
25167184,2041,1,176844,209310,0.58,-0.83,9.92,-0.03,-0.01,-0.01,30.37
25207186,2031,1,176940,209668,0.56,-0.80,9.92,-0.03,-0.01,-0.01,30.37
25247184,2039,1,177063,209997,0.56,-0.80,9.95,-0.03,-0.01,-0.01,30.37
25287186,2045,1,177131,210221,0.57,-0.82,9.93,-0.03,-0.01,-0.01,30.37
25327185,2043,1,177198,210544,0.57,-0.82,9.97,-0.03,-0.01,-0.00,30.37
25367186,2039,1,177262,210806,0.55,-0.81,9.93,-0.03,-0.01,-0.01,30.37
25407185,2053,1,177361,211058,0.59,-0.80,9.93,-0.03,-0.01,-0.00,30.37
25447186,2047,1,177468,211415,0.56,-0.83,9.94,-0.03,-0.01,-0.00,30.37
25487185,2035,1,177591,211740,0.55,-0.82,9.94,-0.03,-0.01,-0.00,30.37
25527186,2038,1,177658,212075,0.56,-0.81,9.94,-0.03,-0.01,-0.00,30.37
25567184,2046,1,177819,212349,0.55,-0.81,9.93,-0.04,-0.01,-0.01,30.37
25607186,2038,1,177666,210683,0.57,-0.83,9.94,-0.03,-0.01,-0.00,30.37
25647184,2054,1,176963,209175,0.59,-0.79,9.93,-0.03,-0.01,-0.01,30.37
25687186,2045,1,176679,208960,0.59,-0.81,9.94,-0.03,-0.00,-0.00,30.37
25727185,2045,1,176673,209090,0.57,-0.83,9.92,-0.03,-0.00,-0.01,30.37
25767186,2064,1,176682,209056,0.56,-0.80,9.96,-0.03,-0.01,-0.01,30.37
25807185,2047,1,176736,209372,0.57,-0.81,9.95,-0.03,-0.01,-0.01,30.37
25847186,2054,1,176873,210114,0.55,-0.80,9.96,-0.03,-0.00,-0.01,30.37
25887185,2045,1,177070,210433,0.57,-0.81,9.95,-0.03,-0.01,-0.00,30.37
25927186,2039,1,177140,210609,0.56,-0.82,9.94,-0.03,-0.01,-0.00,30.37
25967871,1973,1,177174,210677,0.55,-0.79,9.93,-0.03,-0.01,-0.01,30.47
26008186,1983,1,177220,210864,0.57,-0.80,9.93,-0.03,-0.01,-0.00,30.47
26048185,1979,1,177321,211290,0.57,-0.82,9.96,-0.03,-0.01,-0.00,30.47
26088186,1983,1,177374,211704,0.55,-0.83,9.95,-0.03,-0.01,-0.01,30.47
26128185,1979,1,177586,212341,0.56,-0.80,9.92,-0.03,-0.01,-0.01,30.47
26168185,1981,1,177841,212974,0.56,-0.82,9.96,-0.03,-0.01,-0.01,30.47
26208185,1979,1,177930,213148,0.57,-0.81,9.94,-0.03,-0.01,-0.01,30.47
26248186,1971,1,177984,213553,0.58,-0.84,9.93,-0.03,-0.01,-0.00,30.47
26288185,1971,1,178126,213732,0.56,-0.81,9.94,-0.03,-0.00,-0.01,30.47
26328186,1968,1,177738,211318,0.57,-0.80,9.97,-0.03,-0.01,-0.00,30.47
26368196,1963,1,176945,210042,0.57,-0.82,9.95,-0.03,-0.01,-0.00,30.47
26408186,1967,1,176727,209746,0.54,-0.80,9.94,-0.03,-0.01,-0.01,30.47
26448185,1955,1,176690,209693,0.54,-0.81,9.96,-0.03,-0.01,-0.01,30.47
26488186,1949,1,176691,209768,0.55,-0.82,9.95,-0.03,-0.01,-0.00,30.47
26528185,1941,1,176772,210292,0.57,-0.81,9.95,-0.03,-0.01,-0.01,30.47
26568191,1936,1,177045,211037,0.56,-0.82,9.95,-0.03,-0.01,-0.01,30.47
26608185,1926,1,177130,211158,0.55,-0.82,9.98,-0.03,-0.01,-0.01,30.47
26648186,1922,1,177183,211204,0.57,-0.80,9.97,-0.03,-0.01,-0.01,30.47
26688185,1910,1,177195,211267,0.55,-0.80,9.95,-0.03,-0.01,-0.01,30.47
26728186,1915,1,177246,211541,0.58,-0.81,9.93,-0.03,-0.01,-0.01,30.47
26768203,1894,1,177378,211880,0.55,-0.82,9.95,-0.03,-0.01,-0.01,30.47
26808186,1901,1,177465,212076,0.57,-0.81,9.95,-0.03,-0.01,-0.00,30.47
26848185,1899,1,177594,212351,0.56,-0.82,9.95,-0.03,-0.01,-0.00,30.47
26888186,1885,1,177688,212573,0.55,-0.81,9.94,-0.03,-0.01,-0.00,30.47
26928185,1877,1,177760,212868,0.56,-0.81,9.93,-0.03,-0.01,-0.01,30.47
26968872,1858,1,177913,213133,0.56,-0.81,9.94,-0.03,-0.01,-0.01,30.43
27007185,1933,1,177676,211340,0.55,-0.81,9.96,-0.03,-0.01,-0.01,30.43
27047186,1920,1,177013,210124,0.57,-0.80,9.93,-0.03,-0.01,-0.01,30.43
27087185,1933,1,176863,209830,0.56,-0.81,9.95,-0.03,-0.01,-0.00,30.43
27127187,1933,1,176849,209793,0.56,-0.81,9.96,-0.03,-0.01,-0.01,30.43
27167185,1942,1,176818,209866,0.55,-0.79,9.91,-0.03,-0.01,-0.01,30.43
27207187,1938,1,176887,210345,0.57,-0.81,9.94,-0.03,-0.01,-0.01,30.43
27247185,1936,1,177121,210913,0.54,-0.81,9.94,-0.03,-0.01,-0.00,30.43
27287187,1942,1,177283,211144,0.57,-0.82,9.95,-0.03,-0.01,-0.00,30.43
27327185,1943,1,177309,211283,0.56,-0.80,9.96,-0.04,-0.01,-0.01,30.43
27367186,1957,1,177349,211399,0.58,-0.80,9.95,-0.03,-0.01,-0.01,30.43
27408185,1909,1,177418,211463,0.55,-0.82,9.94,-0.03,-0.01,-0.00,30.43
27448186,1907,1,177477,211413,0.55,-0.80,9.96,-0.03,-0.02,-0.00,30.43
27488185,1891,1,177536,211616,0.54,-0.79,9.93,-0.03,-0.02,-0.00,30.43
27528186,1906,1,177666,212013,0.57,-0.81,9.95,-0.03,-0.01,-0.00,30.43
27568185,1909,1,177836,212423,0.58,-0.80,9.95,-0.03,-0.01,-0.01,30.43
27608186,1919,1,177986,213011,0.58,-0.80,9.95,-0.03,-0.01,-0.01,30.43
27648185,1919,1,178169,213027,0.58,-0.81,9.94,-0.04,-0.00,-0.01,30.43
27688186,1929,1,177648,210691,0.55,-0.79,9.98,-0.03,-0.01,-0.01,30.43
27728185,1927,1,177025,209598,0.57,-0.81,9.92,-0.03,-0.01,-0.01,30.43
27768186,1937,1,176856,209711,0.55,-0.82,9.92,-0.04,-0.00,-0.00,30.43
27808185,1951,1,176910,209999,0.54,-0.81,9.94,-0.04,-0.00,-0.01,30.43
27848185,1951,1,177015,210396,0.54,-0.80,9.97,-0.03,-0.01,-0.00,30.43
27888185,1956,1,177190,211414,0.55,-0.80,9.95,-0.04,-0.00,-0.01,30.43
27928185,1958,1,177590,212429,0.54,-0.83,9.94,-0.04,0.00,-0.01,30.43
27968855,1943,1,177689,212509,0.53,-0.82,9.97,-0.03,-0.01,-0.01,30.47
28007186,2004,1,177625,212270,0.56,-0.82,9.95,-0.03,-0.01,-0.01,30.47
28047184,2016,1,177605,212364,0.55,-0.80,9.97,-0.03,-0.01,-0.01,30.47
28087186,2015,1,177689,212784,0.55,-0.82,9.93,-0.03,-0.01,-0.01,30.47
28127184,2031,1,177873,213722,0.55,-0.81,9.96,-0.04,-0.01,-0.01,30.47
28167186,2022,1,178298,214838,0.56,-0.80,9.96,-0.04,-0.01,-0.01,30.47
28207193,2029,1,178476,215131,0.56,-0.82,9.95,-0.03,-0.01,-0.01,30.47
28247187,2030,1,178402,214512,0.54,-0.81,9.95,-0.03,-0.02,-0.00,30.47
28287185,2022,1,178244,214193,0.53,-0.84,9.92,-0.03,-0.02,-0.00,30.47
28327186,2028,1,178303,214651,0.57,-0.81,9.93,-0.04,-0.01,-0.01,30.47
28367185,2016,1,178413,213710,0.57,-0.83,9.95,-0.04,-0.01,-0.01,30.47
28407186,2020,1,177619,211817,0.55,-0.82,9.96,-0.03,-0.00,-0.01,30.47
28447185,2029,1,177233,211304,0.55,-0.84,9.94,-0.03,-0.01,-0.01,30.47
28487187,2033,1,177147,210960,0.55,-0.82,9.93,-0.03,-0.01,-0.00,30.47
28527185,2047,1,177003,210474,0.55,-0.81,9.96,-0.03,-0.01,-0.00,30.47
28567187,2047,1,176905,210480,0.54,-0.82,9.93,-0.03,-0.01,-0.01,30.47
28607185,2062,1,177150,211433,0.57,-0.80,9.94,-0.04,-0.01,-0.01,30.47
28647186,2055,1,177608,212713,0.54,-0.80,9.98,-0.04,-0.00,-0.01,30.47
28687185,2045,1,177825,212919,0.54,-0.80,9.98,-0.03,-0.01,-0.01,30.47
28727186,2059,1,177725,212555,0.55,-0.80,9.96,-0.03,-0.01,-0.00,30.47
28767185,2057,1,177589,212331,0.56,-0.82,9.91,-0.03,-0.01,-0.00,30.47
28807187,2060,1,177658,212732,0.56,-0.82,9.94,-0.03,-0.01,-0.00,30.47
28847185,2045,1,177917,213772,0.56,-0.83,9.96,-0.04,-0.01,-0.00,30.47
28887186,2054,1,178279,214875,0.56,-0.80,9.95,-0.03,-0.01,-0.01,30.47
28927185,2066,1,178577,215742,0.55,-0.81,9.97,-0.03,-0.00,-0.01,30.47
28967186,2064,1,178781,216194,0.54,-0.79,9.95,-0.03,-0.01,-0.00,30.47
29007871,1999,1,178890,216383,0.53,-0.81,9.96,-0.03,-0.01,-0.00,30.51
29048186,2009,1,178965,216652,0.55,-0.81,9.94,-0.03,-0.01,-0.01,30.51
29088185,1995,1,178799,214118,0.57,-0.83,9.96,-0.03,-0.01,-0.01,30.51
29128186,1996,1,177765,212546,0.56,-0.82,9.93,-0.04,-0.00,-0.01,30.51
29168185,2000,1,177601,212668,0.55,-0.81,9.95,-0.04,0.00,-0.01,30.51
29208169,1996,1,177677,213063,0.53,-0.79,9.95,-0.04,-0.00,-0.01,30.51
29248184,1983,1,177767,213216,0.53,-0.81,9.96,-0.03,-0.01,-0.01,30.51
29288186,1994,1,177767,213432,0.55,-0.81,9.95,-0.03,-0.01,-0.00,30.51
29328185,1991,1,177937,213715,0.55,-0.81,9.94,-0.03,-0.01,-0.00,30.51
29368185,1981,1,177842,213386,0.54,-0.79,9.95,-0.03,-0.02,-0.00,30.51
29408185,1984,1,177763,213171,0.53,-0.81,9.96,-0.03,-0.01,-0.00,30.51
29448186,1999,1,177863,213957,0.56,-0.82,9.91,-0.03,-0.01,-0.01,30.51
29488185,2000,1,178254,215148,0.56,-0.80,9.96,-0.04,-0.00,-0.01,30.51
29528185,2001,1,178603,216225,0.55,-0.80,9.96,-0.03,-0.01,-0.00,30.51
29568185,1997,1,178973,217563,0.53,-0.82,9.96,-0.04,-0.00,-0.01,30.51
29608185,2009,1,179324,218674,0.53,-0.81,9.97,-0.03,-0.01,-0.01,30.51
29648185,1995,1,179555,219490,0.57,-0.84,9.95,-0.03,-0.01,-0.00,30.51
29688186,1997,1,179830,220335,0.54,-0.80,9.91,-0.03,-0.01,-0.00,30.51
29728185,2000,1,180143,221108,0.55,-0.80,9.93,-0.03,-0.01,-0.01,30.51
29768185,2001,1,180028,218148,0.51,-0.83,9.94,-0.04,-0.01,-0.00,30.51
29808185,2000,1,178373,214406,0.57,-0.82,9.94,-0.03,-0.01,-0.00,30.51
29848186,1993,1,177877,214156,0.54,-0.81,9.94,-0.03,-0.01,-0.00,30.51
29888184,1987,1,177991,214621,0.53,-0.82,9.93,-0.03,-0.01,-0.01,30.51
29928186,1991,1,178099,214997,0.54,-0.82,9.96,-0.03,-0.01,-0.01,30.51
29968185,1978,1,178241,215751,0.53,-0.80,9.94,-0.03,-0.01,-0.00,30.51
30008871,1969,1,178646,217107,0.54,-0.81,9.95,-0.03,-0.01,-0.00,30.57
30047210,2003,1,178912,217405,0.55,-0.82,9.96,-0.03,-0.01,-0.00,30.57
30087187,2003,1,178901,217436,0.56,-0.82,9.92,-0.03,-0.01,-0.00,30.57
30127185,2007,1,179008,218037,0.56,-0.81,9.93,-0.03,-0.01,-0.00,30.57
30167187,2014,1,179279,218657,0.53,-0.83,9.96,-0.03,-0.01,-0.01,30.57
30207185,2003,1,179360,218740,0.56,-0.80,9.96,-0.03,-0.01,-0.00,30.57
30247186,1998,1,179477,219551,0.54,-0.81,9.95,-0.04,-0.01,-0.01,30.57
30287185,1986,1,179752,220321,0.52,-0.84,9.94,-0.03,-0.01,-0.01,30.57
30327187,1997,1,179975,221149,0.54,-0.82,9.96,-0.03,-0.01,-0.00,30.57
30367185,1999,1,180300,222273,0.55,-0.82,9.93,-0.03,-0.00,-0.00,30.57
30407187,2000,1,180586,222557,0.56,-0.82,9.92,-0.03,-0.01,-0.00,30.57
30447185,2002,1,179891,218063,0.55,-0.82,9.94,-0.03,-0.01,-0.01,30.57
30487186,2000,1,178473,215727,0.55,-0.81,9.94,-0.03,-0.01,-0.00,30.57
30527185,2006,1,178245,215994,0.55,-0.81,9.95,-0.03,-0.01,-0.01,30.57
30567186,2000,1,178390,216624,0.53,-0.82,9.93,-0.04,-0.01,-0.01,30.57
30607185,2005,1,178622,217383,0.54,-0.83,9.96,-0.03,-0.01,-0.01,30.57
30647187,2003,1,178958,219134,0.56,-0.82,9.92,-0.03,-0.00,-0.01,30.57
30687185,1990,1,179639,220693,0.51,-0.80,9.95,-0.04,-0.01,-0.01,30.57
30727186,1985,1,179795,220458,0.53,-0.82,9.94,-0.03,-0.02,-0.01,30.57
30767184,1986,1,179580,219619,0.54,-0.80,9.95,-0.03,-0.02,-0.00,30.57
30807186,1995,1,179305,218619,0.53,-0.81,9.95,-0.03,-0.02,-0.00,30.57
30847185,1989,1,179150,218393,0.57,-0.81,9.95,-0.03,-0.02,-0.00,30.57
30887187,1998,1,179297,219068,0.54,-0.82,9.92,-0.03,-0.01,-0.01,30.57
30927185,1974,1,179535,219605,0.54,-0.81,9.96,-0.03,-0.01,-0.00,30.57
30967186,1985,1,179614,219521,0.56,-0.81,9.97,-0.03,-0.02,-0.00,30.57
31007185,1983,1,179544,219306,0.55,-0.81,9.94,-0.03,-0.02,-0.00,30.57
31047873,1946,1,179678,219793,0.57,-0.82,9.91,-0.03,-0.01,-0.00,30.53
31088185,1946,1,179752,218725,0.54,-0.83,9.96,-0.03,-0.01,-0.01,30.53
31128186,1953,1,178619,214546,0.56,-0.83,9.91,-0.03,-0.01,-0.01,30.53
31168185,1945,1,177830,213714,0.54,-0.81,9.92,-0.03,-0.01,-0.01,30.53
31208186,1942,1,177715,213713,0.56,-0.81,9.96,-0.03,-0.01,-0.00,30.53
31248185,1951,1,177774,213803,0.56,-0.82,9.96,-0.03,-0.01,-0.00,30.53
31288186,1937,1,177794,213983,0.57,-0.82,9.94,-0.03,-0.01,-0.01,30.53
31328185,1939,1,177980,215130,0.56,-0.82,9.94,-0.03,-0.01,-0.01,30.53
31368186,1943,1,178404,216055,0.56,-0.82,9.95,-0.03,-0.01,-0.01,30.53
31408185,1936,1,178569,216437,0.54,-0.82,9.95,-0.03,-0.01,-0.00,30.53
31448186,1941,1,178729,216984,0.55,-0.81,9.97,-0.03,-0.01,-0.00,30.53
31488194,1945,1,178945,217910,0.55,-0.81,9.92,-0.04,-0.01,-0.00,30.53
31528186,1938,1,179248,218636,0.55,-0.82,9.94,-0.03,-0.01,-0.01,30.53
31568185,1934,1,179389,218965,0.55,-0.82,9.94,-0.03,-0.01,-0.00,30.53
31608186,1937,1,179483,219235,0.55,-0.82,9.96,-0.03,-0.01,-0.00,30.53
31648185,1942,1,179630,219658,0.54,-0.82,9.97,-0.03,-0.01,-0.00,30.53
31688209,1936,1,179755,220122,0.57,-0.82,9.93,-0.03,-0.01,-0.00,30.53
31728185,1931,1,179963,220315,0.55,-0.82,9.94,-0.03,-0.01,-0.01,30.53
31768186,1929,1,179711,217150,0.55,-0.81,9.94,-0.03,-0.02,-0.01,30.53
31808185,1925,1,178147,213957,0.55,-0.79,9.96,-0.03,-0.01,-0.00,30.53
31848186,1926,1,177693,213287,0.56,-0.82,9.95,-0.03,-0.01,-0.00,30.53
31888198,1914,1,177657,213163,0.56,-0.81,9.96,-0.03,-0.01,-0.00,30.53
31928186,1910,1,177644,213138,0.54,-0.83,9.94,-0.03,-0.01,-0.01,30.53
31968185,1903,1,177662,213376,0.56,-0.80,9.95,-0.03,-0.01,-0.01,30.53
32008185,1897,1,177891,214166,0.57,-0.83,9.94,-0.03,-0.01,-0.00,30.53
32048871,1874,1,178135,214629,0.56,-0.81,9.95,-0.03,-0.01,-0.00,30.63
32087186,1899,1,178207,214992,0.56,-0.80,9.96,-0.03,-0.01,-0.01,30.63
32127185,1894,1,178403,215711,0.59,-0.81,9.97,-0.04,-0.00,-0.01,30.63
32167186,1883,1,178562,216125,0.54,-0.80,9.96,-0.03,-0.01,-0.00,30.63
32207184,1867,1,178726,216448,0.55,-0.82,9.95,-0.03,-0.01,-0.01,30.63
32247187,1845,1,178765,216301,0.57,-0.79,9.92,-0.03,-0.01,-0.01,30.63
32287184,1840,1,178683,216179,0.57,-0.84,9.95,-0.03,-0.01,-0.00,30.63
32327186,1828,1,178713,216720,0.56,-0.81,9.95,-0.03,-0.01,-0.00,30.63
32367185,1816,1,179189,218043,0.56,-0.82,9.93,-0.04,-0.00,-0.01,30.63
32407187,1809,1,179525,218347,0.55,-0.83,9.96,-0.03,-0.01,-0.00,30.63
32447185,1811,1,178775,214454,0.57,-0.81,9.93,-0.03,-0.01,-0.01,30.63
32487186,1810,1,177762,213034,0.54,-0.81,9.92,-0.03,-0.01,-0.00,30.63
32527185,1809,1,177582,212803,0.53,-0.82,9.93,-0.03,-0.01,-0.00,30.63
32567187,1822,1,177600,212779,0.54,-0.80,9.96,-0.03,-0.02,-0.00,30.63
32607185,1820,1,177593,212915,0.58,-0.82,9.96,-0.03,-0.01,-0.00,30.63
32647186,1836,1,177676,213395,0.54,-0.85,9.92,-0.03,-0.01,-0.00,30.63
32687185,1842,1,177819,213426,0.56,-0.82,9.95,-0.03,-0.01,-0.00,30.63
32727186,1858,1,177732,212956,0.55,-0.80,9.89,-0.03,-0.02,-0.00,30.63
32767185,1870,1,177631,212760,0.56,-0.79,9.96,-0.03,-0.02,-0.00,30.63
32807186,1889,1,177723,213023,0.57,-0.84,9.97,-0.03,-0.02,-0.00,30.63
32847185,1901,1,178043,214043,0.57,-0.81,9.95,-0.03,-0.01,-0.01,30.63
32887187,1902,1,178292,214701,0.58,-0.82,9.94,-0.03,-0.01,-0.01,30.63
32927185,1915,1,178476,214981,0.57,-0.82,9.93,-0.03,-0.01,-0.01,30.63
32967187,1925,1,178405,214737,0.54,-0.80,9.94,-0.03,-0.01,-0.01,30.63
33007185,1936,1,178338,214504,0.55,-0.82,9.95,-0.03,-0.02,-0.00,30.63
33047187,1952,1,178364,214489,0.59,-0.82,9.96,-0.03,-0.01,-0.01,30.63
33087871,1941,1,178160,212743,0.57,-0.83,9.93,-0.03,-0.00,-0.00,30.31
33128185,1943,1,177527,211714,0.56,-0.84,9.93,-0.03,-0.00,-0.01,30.31
33168185,1946,1,177343,211639,0.57,-0.82,9.95,-0.03,-0.00,-0.01,30.31
33208186,1954,1,177340,211627,0.55,-0.79,9.93,-0.04,-0.01,-0.01,30.31
33248185,1936,1,177337,211577,0.56,-0.81,9.96,-0.03,-0.02,-0.00,30.31
33288185,1951,1,177439,212187,0.57,-0.82,9.95,-0.03,-0.01,-0.00,30.31
33328208,1958,1,177812,213302,0.57,-0.82,9.94,-0.03,-0.00,-0.01,30.31
33368185,1954,1,177971,213578,0.57,-0.80,9.93,-0.03,-0.01,-0.01,30.31
33408185,1955,1,177920,213433,0.57,-0.80,9.93,-0.03,-0.01,-0.01,30.31
33448185,1962,1,177856,213286,0.54,-0.80,9.96,-0.03,-0.01,-0.00,30.31
33488185,1949,1,177996,213801,0.57,-0.82,9.95,-0.03,-0.01,-0.00,30.31
33528207,1951,1,178322,215397,0.56,-0.83,9.94,-0.04,-0.00,-0.01,30.31
33568185,1958,1,178978,217499,0.55,-0.80,9.92,-0.04,0.01,-0.01,30.31
33608169,1953,1,179548,219269,0.54,-0.80,9.96,-0.04,0.00,-0.01,30.31
33648169,1968,1,179926,219955,0.54,-0.81,9.98,-0.03,-0.01,-0.01,30.31
33688186,1966,1,179867,219315,0.54,-0.81,9.94,-0.03,-0.02,-0.00,30.31
33728185,1971,1,179453,216166,0.52,-0.83,9.95,-0.03,-0.02,-0.00,30.31
33768185,1968,1,177850,212338,0.53,-0.82,9.95,-0.03,-0.02,-0.00,30.31
33808185,1959,1,177238,211732,0.56,-0.81,9.94,-0.03,-0.01,-0.00,30.31
33848186,1958,1,177254,212021,0.54,-0.82,9.95,-0.03,-0.00,-0.01,30.31
33888184,1961,1,177320,212056,0.54,-0.82,9.94,-0.03,-0.01,-0.00,30.31
33928186,1950,1,177289,211909,0.55,-0.81,9.93,-0.03,-0.01,-0.00,30.31
33968185,1956,1,177337,212208,0.56,-0.81,9.92,-0.03,-0.01,-0.01,30.31
34008186,1957,1,177464,212316,0.55,-0.83,9.92,-0.03,-0.01,-0.01,30.31
34048185,1959,1,177450,212426,0.53,-0.80,9.95,-0.03,-0.01,-0.01,30.31
34088871,1951,1,177490,212687,0.56,-0.79,9.93,-0.03,-0.01,-0.01,30.65
34127185,1968,1,177625,213230,0.54,-0.83,9.97,-0.03,-0.01,-0.01,30.65
34167187,1982,1,177866,213937,0.56,-0.82,9.96,-0.03,-0.00,-0.01,30.65
34207185,1971,1,178003,214183,0.53,-0.82,9.95,-0.03,-0.01,-0.00,30.65
34247187,1985,1,178001,214161,0.56,-0.81,9.96,-0.03,-0.01,-0.00,30.65
34287185,1984,1,178019,214178,0.55,-0.81,9.95,-0.03,-0.01,-0.00,30.65
34327187,1983,1,178090,214468,0.59,-0.82,9.92,-0.03,-0.01,-0.01,30.65
34367185,2000,1,178097,214362,0.56,-0.82,9.94,-0.03,-0.01,-0.01,30.65
34407187,2013,1,177730,211950,0.54,-0.80,9.96,-0.03,-0.01,-0.01,30.65
34447185,1999,1,176901,210680,0.55,-0.83,9.92,-0.03,-0.01,-0.01,30.65
34487186,2013,1,176780,210675,0.56,-0.82,9.94,-0.03,-0.01,-0.01,30.65
34527185,2005,1,176844,211103,0.55,-0.82,9.97,-0.04,-0.01,-0.01,30.65
34567187,1991,1,176921,211311,0.54,-0.82,9.99,-0.03,-0.01,-0.00,30.65
34607184,2003,1,177062,211916,0.56,-0.80,9.95,-0.03,-0.01,-0.00,30.65
34647186,2002,1,177249,212207,0.53,-0.81,9.97,-0.03,-0.01,-0.01,30.65
34687185,2000,1,177200,212112,0.56,-0.81,9.95,-0.03,-0.02,-0.00,30.65
34727186,1991,1,177339,212620,0.55,-0.82,9.96,-0.03,-0.01,-0.00,30.65
34767185,1994,1,177559,213444,0.55,-0.80,9.95,-0.04,-0.01,-0.01,30.65
34807186,1997,1,177717,213651,0.54,-0.82,9.97,-0.03,-0.01,-0.01,30.65
34847185,1993,1,177731,213370,0.55,-0.81,9.96,-0.03,-0.01,-0.00,30.65
34887187,1991,1,177544,212805,0.53,-0.82,9.95,-0.03,-0.02,-0.01,30.65
34927185,1990,1,177374,212278,0.53,-0.80,9.94,-0.03,-0.01,-0.01,30.65
34967236,1997,1,177214,211621,0.56,-0.83,9.92,-0.03,-0.02,-0.00,30.65
35007185,1997,1,177096,211373,0.56,-0.79,9.95,-0.03,-0.02,-0.00,30.65
35047186,1986,1,177176,210713,0.57,-0.82,9.92,-0.03,-0.02,-0.01,30.65
35087185,1983,1,176642,209425,0.58,-0.82,9.95,-0.04,-0.00,-0.01,30.65
35127872,1966,1,176370,208939,0.54,-0.80,9.95,-0.03,-0.01,-0.01,30.51
35168196,1968,1,176250,208604,0.57,-0.79,9.90,-0.03,-0.01,-0.00,30.51
35208185,1970,1,176213,208311,0.54,-0.79,9.93,-0.03,-0.01,-0.00,30.51
35248185,1979,1,176161,208380,0.56,-0.82,9.92,-0.03,-0.02,-0.00,30.51
35288185,1974,1,176348,209125,0.55,-0.80,9.94,-0.04,-0.01,-0.01,30.51
35328185,1973,1,176691,209862,0.55,-0.81,9.98,-0.04,-0.01,-0.01,30.51
35368186,1968,1,176824,210341,0.56,-0.80,9.95,-0.03,-0.00,-0.01,30.51
35408185,1955,1,176936,210773,0.56,-0.82,9.92,-0.03,-0.00,-0.01,30.51
35448186,1967,1,177068,211135,0.54,-0.79,9.94,-0.03,-0.00,-0.01,30.51
35488185,1958,1,177138,211154,0.53,-0.81,9.94,-0.03,-0.01,-0.00,30.51
35528186,1968,1,177134,211362,0.57,-0.82,9.97,-0.04,-0.01,-0.00,30.51
35568185,1965,1,177290,211912,0.55,-0.80,9.99,-0.03,-0.01,-0.00,30.51
35608185,1965,1,177555,212752,0.57,-0.80,9.98,-0.03,-0.00,-0.01,30.51
35648185,1962,1,177773,212883,0.57,-0.82,9.96,-0.03,-0.00,-0.00,30.51
35688185,1967,1,177287,210603,0.55,-0.81,9.95,-0.03,-0.01,-0.01,30.51
35728185,1964,1,176503,209121,0.55,-0.82,9.92,-0.03,-0.01,-0.01,30.51
35768186,1957,1,176173,208508,0.56,-0.80,9.94,-0.04,-0.01,-0.01,30.51
35808185,1968,1,176056,208333,0.54,-0.82,9.93,-0.03,-0.02,-0.01,30.51
35848186,1952,1,176139,208519,0.57,-0.82,9.93,-0.03,-0.01,-0.00,30.51
35888184,1965,1,176276,209197,0.56,-0.81,9.93,-0.03,-0.00,-0.00,30.51
35928185,1949,1,176489,209660,0.54,-0.81,9.95,-0.03,-0.00,-0.00,30.51
35968185,1953,1,176531,209748,0.54,-0.83,9.94,-0.03,-0.01,-0.00,30.51
36008186,1939,1,176569,210086,0.56,-0.80,9.95,-0.03,-0.01,-0.01,30.51
36048185,1941,1,176715,210753,0.55,-0.80,9.97,-0.03,-0.01,-0.00,30.51
36088185,1951,1,176968,211196,0.54,-0.83,9.98,-0.03,-0.01,-0.01,30.51
36128871,1951,1,177012,211283,0.52,-0.83,9.95,-0.03,-0.01,-0.01,30.57
36167186,1959,1,177084,211575,0.57,-0.81,9.93,-0.03,-0.01,-0.00,30.57
36207185,1967,1,177211,211897,0.55,-0.83,9.94,-0.03,-0.01,-0.00,30.57
36247186,1963,1,177325,212196,0.53,-0.79,9.96,-0.03,-0.01,-0.00,30.57
36287185,1968,1,177319,210963,0.55,-0.82,9.95,-0.03,-0.02,-0.00,30.57
36327186,1967,1,176648,209479,0.57,-0.84,9.95,-0.03,-0.01,-0.01,30.57
36367185,1959,1,176314,209059,0.53,-0.81,9.93,-0.03,-0.01,-0.01,30.57
36407186,1968,1,176281,209100,0.54,-0.80,9.94,-0.03,-0.01,-0.01,30.57
36447185,1954,1,176252,208878,0.53,-0.81,9.93,-0.03,-0.01,-0.00,30.57
36487186,1968,1,176158,208931,0.55,-0.82,9.94,-0.03,-0.01,-0.00,30.57
36527185,1964,1,176302,209468,0.54,-0.84,9.95,-0.03,-0.01,-0.00,30.57
36567186,1971,1,176469,209847,0.55,-0.81,9.95,-0.03,-0.01,-0.00,30.57
36607204,1966,1,176598,210209,0.55,-0.83,9.97,-0.03,-0.01,-0.00,30.57
36647186,1965,1,176823,211945,0.53,-0.81,9.94,-0.04,-0.01,-0.01,30.57
36687185,1975,1,177886,215614,0.56,-0.80,9.91,-0.04,-0.02,-0.01,30.57
36727186,1961,1,179127,218561,0.54,-0.80,9.92,-0.04,-0.00,-0.01,30.57
36767185,1965,1,179653,219060,0.54,-0.82,9.98,-0.03,-0.01,-0.00,30.57
36807197,1961,1,179535,218387,0.56,-0.81,9.98,-0.03,-0.02,-0.01,30.57
36847185,1955,1,179422,218335,0.56,-0.80,9.90,-0.03,-0.00,-0.01,30.57
36887185,1958,1,179377,217530,0.54,-0.80,9.96,-0.03,-0.00,-0.01,30.57
36927185,1954,1,178300,212555,0.54,-0.84,9.95,-0.03,-0.02,-0.00,30.57
36967186,1955,1,177054,211006,0.58,-0.83,9.94,-0.03,-0.01,-0.00,30.57
37007191,1959,1,176894,211059,0.54,-0.83,9.95,-0.04,-0.00,-0.01,30.57
37047186,1949,1,176982,211131,0.54,-0.81,9.97,-0.03,-0.01,-0.01,30.57
37087185,1958,1,176906,211073,0.54,-0.81,9.92,-0.03,-0.01,-0.00,30.57
37127186,1939,1,176860,211281,0.57,-0.81,9.90,-0.03,-0.01,-0.01,30.57
37167871,1923,1,176969,211781,0.53,-0.82,9.95,-0.03,-0.01,-0.00,30.47
37206187,2001,1,177154,212277,0.55,-0.82,9.94,-0.03,-0.01,-0.01,30.47
37246185,2005,1,177367,212598,0.54,-0.81,9.95,-0.04,-0.01,-0.01,30.47
37286187,2000,1,177282,212396,0.55,-0.81,9.98,-0.03,-0.01,-0.01,30.47
37326185,1998,1,177215,212481,0.56,-0.82,9.93,-0.03,-0.01,-0.00,30.47
37366186,1991,1,177347,213214,0.55,-0.81,9.97,-0.03,-0.00,-0.00,30.47
37406185,2007,1,177648,213939,0.55,-0.83,9.93,-0.04,-0.01,-0.01,30.47
37446187,1995,1,177788,214052,0.54,-0.84,9.94,-0.03,-0.01,-0.01,30.47
37486185,1993,1,177850,214066,0.57,-0.81,9.92,-0.03,-0.01,-0.01,30.47
37526195,2001,1,177823,213503,0.54,-0.82,9.95,-0.03,-0.01,-0.00,30.47
37566185,2000,1,177191,211009,0.56,-0.83,9.92,-0.03,-0.01,-0.01,30.47
37606186,2014,1,176472,209906,0.52,-0.83,9.93,-0.03,-0.01,-0.01,30.47
37646185,2011,1,176283,209639,0.54,-0.81,9.93,-0.03,-0.01,-0.01,30.47
37686186,2013,1,176276,209489,0.53,-0.81,9.93,-0.03,-0.01,-0.00,30.47
37726185,2011,1,176228,209466,0.55,-0.83,9.95,-0.03,-0.01,-0.00,30.47
37766186,2010,1,176304,210155,0.56,-0.83,9.96,-0.03,-0.01,-0.00,30.47
37806185,2022,1,176643,210648,0.53,-0.83,9.95,-0.03,-0.01,-0.00,30.47
37846186,2028,1,176595,210460,0.55,-0.82,9.93,-0.03,-0.01,-0.00,30.47
37886185,2025,1,176524,210389,0.55,-0.82,9.94,-0.03,-0.01,-0.01,30.47
37926186,2023,1,176576,210507,0.56,-0.81,9.96,-0.03,-0.01,-0.00,30.47
37966185,2019,1,176770,210867,0.56,-0.80,9.95,-0.03,-0.01,-0.01,30.47
38006186,2022,1,176866,211295,0.55,-0.82,9.98,-0.03,-0.01,-0.00,30.47
38046185,2019,1,176988,211843,0.55,-0.84,9.95,-0.03,-0.01,-0.00,30.47
38086186,2013,1,177196,212477,0.53,-0.80,9.97,-0.03,-0.01,-0.01,30.47
38126185,2016,1,177342,212816,0.54,-0.79,9.96,-0.03,-0.01,-0.01,30.47
38166187,2021,1,177433,211688,0.54,-0.82,9.97,-0.03,-0.01,-0.00,30.47
38206871,1936,1,176626,209791,0.55,-0.81,9.95,-0.03,-0.01,-0.00,30.51
38247186,1947,1,176261,209276,0.54,-0.82,9.94,-0.03,-0.01,-0.01,30.51
38287185,1952,1,176200,209412,0.52,-0.81,9.97,-0.03,-0.01,-0.01,30.51
38327186,1958,1,176276,209385,0.53,-0.81,9.96,-0.03,-0.01,-0.00,30.51
38367185,1961,1,176294,209606,0.54,-0.82,9.93,-0.03,-0.01,-0.01,30.51
38407186,1963,1,176476,210344,0.55,-0.79,9.94,-0.03,-0.01,-0.01,30.51
38447185,1965,1,176615,210602,0.55,-0.81,9.95,-0.03,-0.01,-0.01,30.51
38487186,1962,1,176685,210776,0.55,-0.81,9.93,-0.03,-0.01,-0.01,30.51
38527184,1955,1,176834,211219,0.56,-0.79,9.96,-0.03,-0.01,-0.01,30.51
38567187,1954,1,176887,211395,0.53,-0.83,9.95,-0.03,-0.01,-0.01,30.51
38607185,1939,1,176997,211714,0.53,-0.81,9.92,-0.03,-0.01,-0.00,30.51
38647186,1951,1,177120,212281,0.53,-0.83,9.94,-0.03,-0.01,-0.01,30.51
38687185,1957,1,177356,213078,0.55,-0.81,9.96,-0.03,-0.01,-0.01,30.51
38727186,1949,1,177604,213855,0.54,-0.83,9.94,-0.03,-0.00,-0.00,30.51
38767184,1948,1,177790,214211,0.56,-0.79,9.95,-0.03,-0.00,-0.01,30.51
38807186,1939,1,177440,211760,0.54,-0.82,9.95,-0.03,-0.01,-0.01,30.51
38847185,1942,1,176621,210655,0.55,-0.81,9.96,-0.03,-0.01,-0.01,30.51
38887187,1947,1,176419,210584,0.54,-0.82,9.94,-0.04,-0.00,-0.00,30.51
38927185,1926,1,176486,210769,0.51,-0.82,9.95,-0.04,-0.00,-0.01,30.51
38967186,1940,1,176441,210949,0.52,-0.81,9.96,-0.03,-0.01,-0.01,30.51
39007185,1934,1,176524,211319,0.52,-0.81,9.95,-0.03,-0.01,-0.01,30.51
39047186,1930,1,176678,211713,0.54,-0.82,9.95,-0.03,-0.02,-0.00,30.51
39087184,1935,1,176835,211796,0.52,-0.81,9.94,-0.03,-0.01,-0.00,30.51
39127186,1923,1,176861,211911,0.52,-0.81,9.98,-0.03,-0.01,-0.00,30.51
39167185,1925,1,176903,212021,0.55,-0.82,9.96,-0.03,-0.01,-0.00,30.51
39207871,1917,1,176974,212422,0.54,-0.82,9.94,-0.03,-0.01,-0.00,30.25
39246185,1966,1,177217,212821,0.52,-0.81,9.93,-0.03,-0.01,-0.00,30.25
39286187,1963,1,177281,213147,0.54,-0.82,9.94,-0.03,-0.01,-0.00,30.25
39326185,1963,1,177328,213540,0.53,-0.84,9.93,-0.03,-0.01,-0.00,30.25
39366186,1958,1,177507,214244,0.54,-0.82,9.93,-0.03,-0.01,-0.00,30.25
39406185,1953,1,177797,214453,0.53,-0.82,9.96,-0.03,-0.01,-0.01,30.25
39446187,1958,1,177364,211972,0.52,-0.81,9.93,-0.03,-0.01,-0.00,30.25
39486185,1965,1,176383,210366,0.52,-0.83,9.93,-0.03,-0.01,-0.00,30.25
39526196,1963,1,176122,210032,0.53,-0.82,9.94,-0.03,-0.01,-0.00,30.25
39566185,1965,1,176140,209886,0.54,-0.82,9.96,-0.03,-0.01,-0.00,30.25
39606187,1979,1,176110,209828,0.52,-0.82,9.95,-0.03,-0.01,-0.01,30.25
39646185,1973,1,176061,210138,0.52,-0.82,9.94,-0.03,-0.01,-0.01,30.25
39686187,1973,1,176284,210749,0.54,-0.82,9.96,-0.03,-0.01,-0.00,30.25
39726185,1975,1,176401,210905,0.53,-0.82,9.96,-0.03,-0.01,-0.00,30.25
39766186,1969,1,176389,210896,0.53,-0.82,9.93,-0.03,-0.01,-0.00,30.25
39806185,1971,1,176398,211061,0.55,-0.81,9.93,-0.03,-0.01,-0.01,30.25
39846187,1966,1,176445,211325,0.54,-0.82,9.91,-0.03,-0.01,-0.00,30.25
39886185,1967,1,176670,211567,0.54,-0.83,9.94,-0.03,-0.01,-0.00,30.25
39926186,1969,1,176773,211826,0.55,-0.81,9.94,-0.03,-0.01,-0.01,30.25
39966185,1971,1,176886,212207,0.52,-0.82,9.95,-0.03,-0.01,-0.00,30.25
40006186,1978,1,177024,212416,0.55,-0.80,9.96,-0.03,-0.01,-0.01,30.25
40046185,1969,1,176989,212666,0.54,-0.83,9.95,-0.03,-0.01,-0.00,30.25
40086190,1968,1,177158,212845,0.54,-0.83,9.94,-0.03,-0.01,-0.00,30.25
40126185,1977,1,176737,210613,0.52,-0.81,9.94,-0.03,-0.01,-0.01,30.25
40166187,1974,1,175969,209253,0.54,-0.82,9.98,-0.03,-0.01,-0.01,30.25
40206185,1981,1,175630,208843,0.55,-0.82,9.92,-0.03,-0.01,-0.01,30.25
40246873,1935,1,175559,208651,0.55,-0.83,9.92,-0.03,-0.01,-0.01,30.09
40287231,1946,1,175583,208474,0.53,-0.82,9.94,-0.03,-0.01,-0.01,30.09
40327185,1956,1,175647,208831,0.53,-0.81,9.96,-0.03,-0.01,-0.01,30.09
40367185,1955,1,175772,209361,0.53,-0.81,9.94,-0.03,-0.01,-0.01,30.09
40407185,1947,1,175949,209670,0.54,-0.81,9.94,-0.03,-0.01,-0.01,30.09
40447185,1943,1,176040,209891,0.53,-0.82,9.94,-0.03,-0.01,-0.01,30.09
40487186,1939,1,176091,210025,0.53,-0.81,9.97,-0.03,-0.01,-0.00,30.09
40527185,1936,1,176120,209985,0.53,-0.83,9.95,-0.03,-0.01,-0.01,30.09
40567185,1936,1,176096,210279,0.54,-0.82,9.92,-0.03,-0.01,-0.00,30.09
40607185,1934,1,176135,210790,0.55,-0.83,9.96,-0.04,-0.01,-0.01,30.09
40647185,1936,1,176374,211369,0.53,-0.81,9.92,-0.03,-0.01,-0.00,30.09
40687185,1932,1,176577,211964,0.52,-0.82,9.97,-0.03,-0.01,-0.01,30.09
40727185,1939,1,176857,212322,0.53,-0.82,9.93,-0.03,-0.01,-0.01,30.09
40767185,1935,1,176843,211391,0.52,-0.82,9.98,-0.03,-0.01,-0.01,30.09
40807185,1935,1,176026,209432,0.55,-0.82,9.93,-0.03,-0.01,-0.01,30.09
40847185,1940,1,175575,208857,0.53,-0.82,9.93,-0.03,-0.01,-0.00,30.09
40887185,1935,1,175481,208419,0.54,-0.82,9.96,-0.03,-0.01,-0.00,30.09
40927184,1951,1,175282,207954,0.53,-0.82,9.95,-0.03,-0.02,-0.00,30.09
40967185,1955,1,175233,207938,0.56,-0.82,9.95,-0.03,-0.01,-0.00,30.09
41007184,1941,1,175440,208345,0.54,-0.83,9.97,-0.03,-0.01,-0.00,30.09
41047185,1947,1,175567,208539,0.55,-0.83,9.96,-0.03,-0.01,-0.00,30.09
41087185,1934,1,175635,208704,0.55,-0.83,9.93,-0.03,-0.01,-0.00,30.09
41127185,1947,1,175635,209061,0.53,-0.82,9.94,-0.03,-0.01,-0.00,30.09
41167185,1933,1,175788,209659,0.55,-0.80,9.94,-0.03,-0.01,-0.01,30.09
41207186,1936,1,176065,209968,0.55,-0.82,9.97,-0.03,-0.01,-0.01,30.09
41247871,1921,1,176132,210073,0.53,-0.82,9.94,-0.03,-0.01,-0.00,30.39
41286186,1963,1,176132,210445,0.53,-0.80,9.94,-0.03,-0.01,-0.01,30.39
41326184,1960,1,176263,210426,0.53,-0.82,9.95,-0.03,-0.01,-0.00,30.39
41366186,1955,1,176267,210945,0.56,-0.81,9.96,-0.03,-0.01,-0.01,30.39
41406185,1953,1,176530,210245,0.55,-0.81,9.96,-0.04,-0.01,-0.01,30.39
41446187,1959,1,175735,208310,0.54,-0.82,9.94,-0.03,-0.01,-0.01,30.39
41486185,1955,1,175325,207505,0.55,-0.79,9.93,-0.03,-0.01,-0.00,30.39
41527186,1936,1,175364,207542,0.55,-0.81,9.94,-0.04,-0.00,-0.01,30.39
41567185,1934,1,175254,207304,0.55,-0.83,9.96,-0.03,-0.01,-0.00,30.39
41607186,1935,1,175282,207134,0.55,-0.81,9.93,-0.03,-0.02,-0.00,30.39
41647185,1933,1,175401,207790,0.55,-0.80,9.96,-0.03,-0.01,-0.00,30.39
41687186,1935,1,175621,208276,0.53,-0.82,9.95,-0.03,-0.01,-0.01,30.39
41727229,1935,1,175711,208439,0.53,-0.81,9.93,-0.03,-0.01,-0.01,30.39
41767186,1939,1,175743,208537,0.53,-0.81,9.93,-0.03,-0.01,-0.01,30.39
41807184,1945,1,175798,208658,0.53,-0.81,9.93,-0.03,-0.01,-0.00,30.39
41847186,1923,1,175852,208803,0.54,-0.81,9.96,-0.03,-0.01,-0.00,30.39
41887185,1922,1,175924,208539,0.54,-0.84,9.95,-0.03,-0.02,-0.00,30.39
41927219,1942,1,175774,208609,0.55,-0.82,9.95,-0.03,-0.02,-0.00,30.39
41967185,1933,1,175940,208558,0.56,-0.80,9.91,-0.03,-0.01,-0.00,30.39
42007186,1936,1,175960,208792,0.54,-0.81,9.96,-0.03,-0.01,-0.00,30.39
42047185,1933,1,176009,208794,0.55,-0.82,9.97,-0.03,-0.01,-0.00,30.39
42087186,1929,1,175746,207242,0.55,-0.82,9.94,-0.03,-0.01,-0.00,30.39
42127207,1917,1,175194,206064,0.55,-0.79,9.91,-0.03,-0.01,-0.01,30.39
42167186,1933,1,174990,205832,0.53,-0.78,9.93,-0.03,-0.01,-0.01,30.39
42207185,1939,1,174984,205713,0.54,-0.81,9.94,-0.03,-0.01,-0.00,30.39
42247186,1935,1,175016,205556,0.56,-0.83,9.96,-0.03,-0.01,-0.00,30.39
42287871,1919,1,175068,206022,0.56,-0.83,9.94,-0.03,-0.01,-0.01,30.45
42326187,1943,1,175322,206759,0.56,-0.81,9.94,-0.03,-0.01,-0.01,30.45
42366185,1946,1,175446,207050,0.55,-0.81,9.96,-0.03,-0.01,-0.01,30.45
42406187,1945,1,175506,207496,0.53,-0.82,9.93,-0.03,-0.01,-0.01,30.45
42446185,1952,1,175705,207934,0.54,-0.82,9.95,-0.03,-0.01,-0.01,30.45
42486186,1953,1,175877,208170,0.54,-0.81,9.96,-0.03,-0.01,-0.00,30.45
42526194,1947,1,176025,208489,0.54,-0.80,9.94,-0.03,-0.01,-0.00,30.45
42567185,1936,1,176127,208910,0.56,-0.81,9.93,-0.03,-0.01,-0.01,30.45
42607185,1924,1,176347,209468,0.55,-0.81,9.94,-0.03,-0.01,-0.01,30.45
42647186,1925,1,176559,209906,0.56,-0.81,9.96,-0.03,-0.01,-0.01,30.45
42687185,1921,1,176658,209930,0.53,-0.82,9.91,-0.03,-0.01,-0.01,30.45
42727186,1925,1,176366,208548,0.53,-0.83,9.90,-0.03,-0.01,-0.01,30.45
42767185,1928,1,175726,207141,0.55,-0.80,9.95,-0.03,-0.01,-0.00,30.45
42807185,1933,1,175501,206526,0.55,-0.82,9.97,-0.03,-0.01,-0.01,30.45
42847185,1936,1,175397,206283,0.56,-0.82,9.95,-0.03,-0.01,-0.01,30.45
42887186,1930,1,175342,206232,0.56,-0.80,9.97,-0.03,-0.01,-0.00,30.45
42927185,1934,1,175309,206640,0.55,-0.80,9.91,-0.03,-0.01,-0.00,30.45
42967185,1932,1,175643,207191,0.55,-0.83,9.96,-0.03,-0.01,-0.00,30.45
43007185,1939,1,175804,207515,0.54,-0.83,9.96,-0.03,-0.01,-0.01,30.45
43047186,1936,1,175838,207811,0.55,-0.81,9.93,-0.03,-0.01,-0.00,30.45
43087185,1932,1,175891,208060,0.55,-0.84,9.96,-0.03,-0.01,-0.00,30.45
43127186,1937,1,176010,208374,0.56,-0.80,9.96,-0.03,-0.01,-0.00,30.45
43167185,1936,1,176173,208599,0.55,-0.80,9.94,-0.03,-0.01,-0.01,30.45
43207186,1948,1,176221,209155,0.52,-0.82,9.97,-0.03,-0.01,-0.01,30.45
43247185,1949,1,176439,209705,0.56,-0.81,9.95,-0.03,-0.01,-0.01,30.45
43287186,1936,1,176639,210392,0.56,-0.80,9.94,-0.03,-0.01,-0.00,30.45
43327871,1931,1,176865,210511,0.56,-0.81,9.94,-0.03,-0.01,-0.00,30.43
43366195,1958,1,176721,209223,0.54,-0.82,9.94,-0.03,-0.01,-0.00,30.43
43406185,1963,1,175970,207531,0.55,-0.81,9.94,-0.03,-0.01,-0.00,30.43
43446187,1958,1,175638,207081,0.56,-0.81,9.94,-0.03,-0.01,-0.01,30.43
43486185,1965,1,175651,207062,0.54,-0.81,9.98,-0.03,-0.01,-0.01,30.43
43526196,1959,1,175687,207012,0.55,-0.82,9.93,-0.03,-0.01,-0.00,30.43
43567185,1934,1,175731,207524,0.55,-0.81,9.94,-0.04,-0.01,-0.00,30.43
43607186,1923,1,176058,208229,0.57,-0.83,9.96,-0.03,-0.01,-0.00,30.43
43647185,1936,1,176150,208775,0.55,-0.81,9.96,-0.03,-0.01,-0.01,30.43
43687186,1931,1,176387,209058,0.57,-0.80,9.95,-0.03,-0.01,-0.00,30.43
43727185,1933,1,176407,209306,0.55,-0.83,9.96,-0.03,-0.01,-0.00,30.43
43767186,1930,1,176478,209668,0.56,-0.83,9.95,-0.03,-0.01,-0.00,30.43
43807185,1924,1,176630,209966,0.53,-0.80,9.97,-0.03,-0.01,-0.00,30.43
43847185,1941,1,176810,210022,0.54,-0.81,9.94,-0.03,-0.01,-0.00,30.43
43887185,1936,1,176813,210051,0.53,-0.80,9.95,-0.03,-0.01,-0.00,30.43
43927185,1939,1,176781,210001,0.54,-0.82,9.94,-0.03,-0.02,-0.00,30.43
43967185,1929,1,176922,210009,0.55,-0.82,9.97,-0.03,-0.01,-0.01,30.43
44007186,1939,1,176780,208612,0.56,-0.82,9.95,-0.03,-0.02,-0.00,30.43
44047185,1934,1,176055,206859,0.55,-0.80,9.95,-0.03,-0.01,-0.01,30.43
44087186,1933,1,175688,206312,0.55,-0.83,9.95,-0.03,-0.01,-0.00,30.43
44127185,1935,1,175729,206215,0.56,-0.83,9.91,-0.04,-0.01,-0.01,30.43
44167186,1933,1,175667,206343,0.53,-0.79,9.94,-0.03,-0.01,-0.01,30.43
44207185,1936,1,175791,206986,0.55,-0.82,9.95,-0.03,-0.01,-0.01,30.43
44247186,1935,1,176155,208178,0.55,-0.81,9.91,-0.04,-0.00,-0.01,30.43
44287185,1933,1,176543,208816,0.56,-0.81,9.91,-0.03,-0.01,-0.00,30.43
44327186,1936,1,176599,209554,0.54,-0.83,9.95,-0.04,-0.01,-0.00,30.43
44367871,1919,1,176875,210084,0.54,-0.80,9.98,-0.03,-0.01,-0.01,30.29
44406187,1955,1,176986,210914,0.52,-0.83,9.97,-0.03,-0.01,-0.00,30.29
44446185,1954,1,177267,211478,0.53,-0.82,9.94,-0.03,-0.01,-0.01,30.29
44486186,1952,1,177511,212287,0.54,-0.81,9.94,-0.04,-0.01,-0.01,30.29
44526194,1953,1,177741,213520,0.53,-0.82,9.95,-0.04,-0.01,-0.01,30.29
44566187,1952,1,178146,214271,0.54,-0.80,9.96,-0.03,-0.01,-0.00,30.29
44607185,1939,1,178326,215169,0.53,-0.82,9.94,-0.03,-0.01,-0.01,30.29
44647186,1936,1,178448,213231,0.53,-0.81,9.95,-0.03,-0.01,-0.01,30.29
44687185,1937,1,177210,210651,0.55,-0.80,9.94,-0.03,-0.01,-0.00,30.29
44727185,1938,1,176730,210381,0.54,-0.80,9.92,-0.03,-0.01,-0.01,30.29
44767185,1933,1,176836,210415,0.53,-0.82,9.95,-0.03,-0.01,-0.01,30.29
44807186,1933,1,176787,210636,0.52,-0.82,9.95,-0.03,-0.01,-0.00,30.29
44847185,1926,1,176935,210975,0.53,-0.83,9.95,-0.03,-0.01,-0.01,30.29
44887186,1926,1,177127,212104,0.53,-0.81,9.93,-0.03,-0.01,-0.00,30.29
44927185,1932,1,177472,212378,0.53,-0.82,9.92,-0.03,-0.01,-0.01,30.29
44967186,1927,1,177487,212284,0.54,-0.83,9.94,-0.03,-0.01,-0.00,30.29
45007185,1926,1,177510,212432,0.55,-0.84,9.96,-0.03,-0.01,-0.00,30.29
45047186,1945,1,177573,213210,0.54,-0.84,9.97,-0.03,-0.01,-0.01,30.29
45087185,1945,1,177937,214210,0.54,-0.81,9.95,-0.03,-0.01,-0.00,30.29
45127186,1945,1,178198,215418,0.53,-0.81,9.94,-0.03,-0.01,-0.00,30.29
45167185,1938,1,178690,216416,0.54,-0.81,9.93,-0.03,-0.01,-0.01,30.29
45207237,1946,1,178936,217515,0.56,-0.83,9.94,-0.03,-0.00,-0.01,30.29
45247185,1952,1,179262,218035,0.52,-0.82,9.95,-0.03,-0.01,-0.01,30.29
45287186,1936,1,179081,215470,0.54,-0.81,9.95,-0.03,-0.01,-0.00,30.29
45327185,1942,1,177730,212467,0.55,-0.81,9.96,-0.03,-0.01,-0.00,30.29
45367186,1939,1,177296,212306,0.54,-0.82,9.95,-0.03,-0.01,-0.00,30.29
45407908,1929,1,177285,212894,0.52,-0.84,9.94,-0.03,-0.01,-0.01,30.47
45446186,1949,1,177522,212942,0.53,-0.80,9.97,-0.03,-0.01,-0.01,30.47
45486185,1955,1,177467,213533,0.53,-0.82,9.95,-0.03,-0.01,-0.00,30.47
45526195,1942,1,177899,214564,0.56,-0.81,9.94,-0.03,-0.01,-0.00,30.47
45566185,1950,1,178038,215010,0.54,-0.82,9.98,-0.03,-0.01,-0.00,30.47
45606187,1947,1,178014,214852,0.54,-0.82,9.97,-0.03,-0.01,-0.01,30.47
45646185,1951,1,178173,214853,0.55,-0.84,9.95,-0.03,-0.01,-0.00,30.47
45686187,1937,1,178143,215152,0.52,-0.83,9.95,-0.03,-0.01,-0.01,30.47
45726185,1926,1,178325,215259,0.53,-0.82,9.92,-0.03,-0.01,-0.00,30.47
45766187,1937,1,178315,215440,0.54,-0.85,9.96,-0.03,-0.01,-0.00,30.47
45806185,1936,1,178324,215656,0.56,-0.83,9.94,-0.03,-0.02,-0.00,30.47
45846187,1940,1,178547,216112,0.55,-0.81,9.95,-0.03,-0.01,-0.00,30.47
45886185,1936,1,178695,215794,0.53,-0.83,9.97,-0.03,-0.01,-0.00,30.47
45926187,1934,1,177987,212371,0.53,-0.82,9.94,-0.03,-0.02,-0.01,30.47
45966185,1923,1,176930,210809,0.53,-0.82,9.93,-0.03,-0.01,-0.01,30.47
46006187,1933,1,176800,210491,0.53,-0.81,9.93,-0.03,-0.01,-0.00,30.47
46046185,1932,1,176703,210666,0.54,-0.83,9.96,-0.03,-0.01,-0.01,30.47
46086187,1922,1,176856,210612,0.52,-0.84,9.93,-0.03,-0.01,-0.00,30.47
46126185,1922,1,176875,210893,0.52,-0.82,9.95,-0.03,-0.01,-0.00,30.47
46166187,1920,1,177002,211490,0.56,-0.82,9.95,-0.03,-0.01,-0.01,30.47
46206185,1910,1,177224,212002,0.55,-0.81,9.94,-0.03,-0.01,-0.01,30.47
46246187,1915,1,177428,212242,0.54,-0.82,9.96,-0.03,-0.01,-0.01,30.47
46286185,1913,1,177460,212315,0.53,-0.84,9.96,-0.03,-0.01,-0.00,30.47
46326186,1923,1,177457,212200,0.53,-0.79,9.94,-0.03,-0.01,-0.00,30.47
46366185,1933,1,177432,212498,0.55,-0.82,9.95,-0.03,-0.01,-0.01,30.47
46406186,1925,1,177581,212739,0.53,-0.82,9.95,-0.03,-0.01,-0.01,30.47
46446871,1919,1,177834,212999,0.55,-0.84,9.94,-0.03,-0.01,-0.00,30.19
46487186,1931,1,177799,213223,0.55,-0.82,9.96,-0.03,-0.01,-0.00,30.19
46527185,1925,1,177622,211225,0.53,-0.84,9.97,-0.03,-0.02,-0.00,30.19
46567186,1933,1,176854,209519,0.55,-0.81,9.95,-0.03,-0.01,-0.00,30.19
46607185,1927,1,176629,209049,0.56,-0.81,9.93,-0.03,-0.01,-0.01,30.19
46647186,1935,1,176565,209151,0.54,-0.81,9.95,-0.03,-0.01,-0.01,30.19
46687185,1936,1,176559,209275,0.56,-0.82,9.94,-0.03,-0.01,-0.01,30.19
46727186,1937,1,176635,209428,0.56,-0.82,9.94,-0.03,-0.01,-0.00,30.19
46767185,1942,1,176830,209876,0.56,-0.79,9.95,-0.03,-0.02,-0.00,30.19
46807186,1942,1,176964,209797,0.55,-0.80,9.96,-0.03,-0.02,-0.00,30.19
46847184,1935,1,176977,209704,0.56,-0.83,9.96,-0.03,-0.02,-0.00,30.19
46887186,1951,1,177059,209698,0.57,-0.82,9.94,-0.03,-0.02,-0.00,30.19
46927185,1942,1,177196,209851,0.56,-0.81,9.95,-0.03,-0.02,-0.00,30.19
46967186,1957,1,177344,210225,0.58,-0.82,9.95,-0.03,-0.02,-0.01,30.19
47007185,1968,1,177518,210568,0.59,-0.83,9.94,-0.03,-0.01,-0.01,30.19
47047220,1977,1,177764,210993,0.57,-0.81,9.93,-0.03,-0.01,-0.00,30.19
47087185,1970,1,177918,211408,0.56,-0.80,9.95,-0.04,-0.01,-0.01,30.19
47127185,1968,1,177986,210543,0.58,-0.83,9.95,-0.03,-0.01,-0.00,30.19
47167185,1974,1,177431,208985,0.60,-0.82,9.94,-0.03,-0.01,-0.01,30.19
47207186,1968,1,177080,208556,0.57,-0.79,9.95,-0.04,-0.01,-0.01,30.19
47247204,1968,1,177146,208655,0.55,-0.80,9.94,-0.03,-0.01,-0.01,30.19
47287186,1979,1,177190,208836,0.55,-0.82,9.96,-0.03,-0.01,-0.00,30.19
47327184,1979,1,177269,209458,0.59,-0.81,9.89,-0.04,0.00,-0.01,30.19
47367169,1982,1,177537,210669,0.55,-0.82,9.95,-0.04,0.00,-0.01,30.19
47407169,1971,1,177885,211833,0.56,-0.81,9.94,-0.03,-0.01,-0.01,30.19
47447872,1958,1,178200,212896,0.56,-0.83,9.93,-0.03,-0.01,-0.01,30.37
47486185,1997,1,178585,213954,0.56,-0.81,9.95,-0.03,-0.01,-0.01,30.37
47526196,1985,1,178869,215176,0.55,-0.82,9.92,-0.03,-0.01,-0.00,30.37
47566185,1978,1,179408,217005,0.56,-0.82,9.95,-0.03,-0.01,-0.01,30.37
47606186,1989,1,180131,218935,0.54,-0.81,9.92,-0.04,-0.00,-0.01,30.37
47646185,1975,1,180528,220237,0.55,-0.82,9.97,-0.03,-0.00,-0.01,30.37
47686187,1984,1,180845,221105,0.56,-0.82,9.94,-0.04,-0.00,-0.01,30.37
47726185,1978,1,181059,220697,0.56,-0.81,9.96,-0.03,-0.01,-0.01,30.37
47766186,1971,1,179926,214969,0.54,-0.81,9.96,-0.03,-0.01,-0.01,30.37
47806185,1983,1,178368,212938,0.55,-0.81,9.95,-0.03,-0.01,-0.00,30.37
47846187,1990,1,178096,212705,0.56,-0.83,9.94,-0.03,-0.01,-0.00,30.37
47886185,1979,1,178056,212779,0.56,-0.81,9.96,-0.03,-0.01,-0.00,30.37
47926187,1981,1,177992,213214,0.54,-0.82,9.94,-0.03,-0.00,-0.01,30.37
47966185,1970,1,178360,215119,0.54,-0.81,9.95,-0.04,-0.01,-0.01,30.37
48006186,1968,1,178993,216577,0.52,-0.82,9.94,-0.04,-0.00,-0.01,30.37
48046185,1968,1,179181,216957,0.54,-0.82,9.95,-0.03,-0.01,-0.00,30.37
48086186,1982,1,179274,217465,0.54,-0.81,9.94,-0.03,-0.01,-0.01,30.37
48126185,1965,1,179533,217937,0.53,-0.83,9.95,-0.03,-0.01,-0.01,30.37
48166187,1963,1,179562,218262,0.56,-0.80,9.93,-0.03,-0.01,-0.00,30.37
48206185,1970,1,179702,218555,0.53,-0.81,9.96,-0.03,-0.01,-0.01,30.37
48246187,1972,1,179739,218573,0.52,-0.83,9.92,-0.03,-0.01,-0.01,30.37
48286185,1966,1,179739,218618,0.53,-0.82,9.93,-0.03,-0.01,-0.00,30.37
48326186,1968,1,179827,218688,0.55,-0.82,9.94,-0.03,-0.01,-0.00,30.37
48366184,1957,1,179271,214474,0.53,-0.82,9.96,-0.03,-0.01,-0.00,30.37
48406187,1964,1,177829,212152,0.53,-0.80,9.94,-0.03,-0.01,-0.01,30.37
48446185,1952,1,177543,211905,0.54,-0.80,9.94,-0.03,-0.01,-0.01,30.37
48486923,1917,1,177480,211786,0.55,-0.81,9.94,-0.03,-0.01,-0.01,30.19
48527185,1919,1,177508,211725,0.54,-0.83,9.93,-0.03,-0.01,-0.01,30.19
48567186,1904,1,177563,212166,0.54,-0.81,9.93,-0.03,-0.01,-0.01,30.19
48607185,1898,1,177769,212884,0.55,-0.81,9.96,-0.03,-0.01,-0.01,30.19
48647186,1893,1,178024,213143,0.54,-0.80,9.95,-0.03,-0.01,-0.01,30.19
48687185,1890,1,178045,213175,0.55,-0.84,9.95,-0.03,-0.01,-0.00,30.19
48727186,1875,1,178053,213402,0.55,-0.82,9.92,-0.03,-0.01,-0.01,30.19
48767185,1875,1,178191,213768,0.55,-0.83,9.94,-0.03,-0.01,-0.01,30.19
48807186,1888,1,178387,214051,0.55,-0.81,9.94,-0.03,-0.01,-0.00,30.19
48847185,1885,1,178356,214036,0.54,-0.82,9.96,-0.03,-0.01,-0.01,30.19
48887186,1898,1,178315,214253,0.56,-0.82,9.95,-0.03,-0.01,-0.00,30.19
48927185,1907,1,178453,214772,0.53,-0.80,9.96,-0.03,-0.00,-0.00,30.19
48967185,1905,1,178327,212847,0.52,-0.83,9.91,-0.03,-0.01,-0.00,30.19
49007185,1923,1,177471,211221,0.54,-0.83,9.96,-0.04,-0.00,-0.01,30.19
49047186,1936,1,177071,210540,0.56,-0.81,9.95,-0.03,-0.01,-0.01,30.19
49087185,1945,1,176931,210105,0.53,-0.83,9.94,-0.03,-0.02,-0.00,30.19
49127186,1950,1,176785,209849,0.55,-0.79,9.95,-0.03,-0.01,-0.01,30.19
49167185,1947,1,176842,210301,0.53,-0.83,9.95,-0.03,-0.01,-0.00,30.19
49207186,1952,1,176941,210858,0.54,-0.82,9.94,-0.03,-0.01,-0.00,30.19
49247185,1952,1,177119,211446,0.55,-0.81,9.90,-0.03,-0.00,-0.00,30.19
49287185,1952,1,177306,211780,0.54,-0.81,9.97,-0.04,-0.00,-0.01,30.19
49327185,1946,1,177245,211452,0.52,-0.80,9.93,-0.03,-0.01,-0.01,30.19
49367186,1935,1,177157,211496,0.54,-0.80,9.98,-0.03,-0.01,-0.00,30.19
49407196,1948,1,177224,211665,0.55,-0.81,9.94,-0.03,-0.01,-0.00,30.19
49447186,1921,1,177323,211928,0.53,-0.83,9.95,-0.03,-0.01,-0.00,30.19
49487871,1901,1,177412,211952,0.54,-0.83,9.95,-0.03,-0.01,-0.01,30.29
49526196,1926,1,177356,211396,0.55,-0.80,9.95,-0.03,-0.02,-0.00,30.29
49566185,1918,1,176847,209249,0.57,-0.82,9.93,-0.03,-0.01,-0.00,30.29
49606187,1919,1,176267,207875,0.54,-0.82,9.97,-0.03,-0.01,-0.01,30.29
49646185,1904,1,175940,207256,0.53,-0.80,9.94,-0.03,-0.01,-0.01,30.29
49686186,1904,1,175787,206903,0.53,-0.80,9.97,-0.03,-0.01,-0.00,30.29
49726185,1918,1,175741,206539,0.52,-0.81,9.95,-0.03,-0.01,-0.01,30.29
49766187,1904,1,175774,206912,0.57,-0.82,9.92,-0.03,-0.02,-0.00,30.29
49806185,1903,1,176062,207982,0.54,-0.82,9.94,-0.04,-0.01,-0.01,30.29
49846186,1889,1,176460,209398,0.55,-0.82,9.93,-0.04,0.00,-0.01,30.29
49886170,1881,1,176986,210763,0.53,-0.81,9.93,-0.04,0.00,-0.01,30.29
49926170,1891,1,177299,211674,0.55,-0.83,9.97,-0.04,-0.01,-0.01,30.29
49966185,1892,1,177591,212911,0.55,-0.80,9.96,-0.04,-0.00,-0.01,30.29
50006186,1873,1,178053,214413,0.52,-0.82,9.95,-0.04,0.01,-0.01,30.29
50046170,1903,1,178251,215049,0.51,-0.80,9.96,-0.03,-0.01,-0.01,30.29
50086186,1902,1,178484,215908,0.52,-0.81,9.94,-0.03,-0.01,-0.01,30.29
50126185,1907,1,178579,215225,0.51,-0.81,9.97,-0.03,-0.01,-0.00,30.29
50166187,1920,1,177640,211140,0.51,-0.82,9.95,-0.03,-0.02,-0.00,30.29
50206185,1920,1,176570,209677,0.52,-0.83,9.94,-0.03,-0.01,-0.01,30.29
50246187,1917,1,176230,209018,0.51,-0.81,9.96,-0.03,-0.01,-0.00,30.29
50286185,1929,1,176078,208560,0.53,-0.83,9.95,-0.03,-0.02,-0.00,30.29
50326204,1930,1,176045,208136,0.52,-0.82,9.96,-0.03,-0.01,-0.00,30.29
50366185,1927,1,176028,208340,0.53,-0.81,9.94,-0.03,-0.01,-0.01,30.29
50406187,1939,1,176207,208491,0.53,-0.82,9.97,-0.03,-0.01,-0.00,30.29
50446185,1930,1,176109,208469,0.54,-0.81,9.95,-0.03,-0.02,-0.00,30.29
50486187,1936,1,176124,208792,0.54,-0.82,9.94,-0.03,-0.01,-0.01,30.29
50526910,1926,1,176292,209102,0.51,-0.83,9.95,-0.03,-0.01,-0.01,30.39
50567186,1915,1,176418,209360,0.54,-0.81,9.92,-0.03,-0.01,-0.01,30.39
50607185,1929,1,176485,209986,0.55,-0.81,9.94,-0.03,-0.01,-0.01,30.39
50647186,1920,1,176879,210506,0.53,-0.80,9.96,-0.03,-0.01,-0.01,30.39
50687185,1917,1,176996,210923,0.54,-0.82,9.93,-0.03,-0.01,-0.00,30.39
50727186,1911,1,177115,210974,0.54,-0.82,9.92,-0.04,-0.01,-0.00,30.39
50767185,1913,1,176667,209116,0.54,-0.81,9.95,-0.03,-0.00,-0.01,30.39
50807185,1906,1,176046,208122,0.51,-0.81,9.97,-0.03,-0.01,-0.01,30.39
50847185,1909,1,175951,207810,0.53,-0.81,9.94,-0.03,-0.01,-0.01,30.39
50887186,1929,1,175795,207742,0.53,-0.82,9.95,-0.03,-0.01,-0.01,30.39
50927185,1925,1,175775,207951,0.54,-0.81,9.96,-0.03,-0.01,-0.01,30.39
50967186,1921,1,175956,208605,0.51,-0.84,9.96,-0.03,-0.01,-0.00,30.39
51007185,1931,1,176128,209060,0.52,-0.81,9.95,-0.03,-0.01,-0.00,30.39
51047186,1936,1,176217,209243,0.53,-0.80,9.93,-0.03,-0.01,-0.01,30.39
51087185,1937,1,176266,209108,0.51,-0.81,9.96,-0.03,-0.01,-0.00,30.39
51127186,1933,1,176147,208775,0.53,-0.80,9.98,-0.03,-0.02,-0.00,30.39
51167185,1934,1,176233,208754,0.51,-0.81,9.93,-0.03,-0.01,-0.00,30.39
51207186,1933,1,176304,209308,0.54,-0.81,9.95,-0.03,-0.01,-0.00,30.39
51247185,1940,1,176607,210683,0.56,-0.81,9.93,-0.04,-0.00,-0.01,30.39
51287185,1940,1,177018,211550,0.53,-0.81,9.94,-0.03,-0.01,-0.00,30.39
51327185,1936,1,177117,211004,0.52,-0.81,9.92,-0.03,-0.01,-0.01,30.39
51367186,1936,1,176789,209128,0.53,-0.81,9.94,-0.03,-0.02,-0.00,30.39
51407185,1933,1,175853,207171,0.53,-0.83,9.94,-0.03,-0.01,-0.01,30.39
51447186,1931,1,175329,206373,0.51,-0.82,9.92,-0.03,-0.01,-0.00,30.39
51487184,1937,1,175394,206664,0.53,-0.83,9.95,-0.04,-0.01,-0.01,30.39
51527872,1924,1,175652,207520,0.52,-0.83,9.96,-0.04,-0.00,-0.00,30.43
51566185,1938,1,175920,208549,0.51,-0.82,9.98,-0.03,-0.00,-0.01,30.43
51606186,1937,1,176276,209316,0.52,-0.81,9.96,-0.03,-0.01,-0.00,30.43
51646185,1938,1,176419,209416,0.51,-0.81,9.94,-0.03,-0.01,-0.00,30.43
51686187,1939,1,176344,209490,0.52,-0.82,9.91,-0.03,-0.01,-0.01,30.43
51726185,1949,1,176461,209905,0.53,-0.82,9.96,-0.03,-0.01,-0.01,30.43
51766187,1943,1,176677,210787,0.51,-0.81,9.96,-0.04,-0.01,-0.01,30.43
51806185,1953,1,176984,211948,0.53,-0.81,9.96,-0.03,-0.01,-0.01,30.43
51846187,1950,1,177285,212616,0.51,-0.82,9.98,-0.03,-0.01,-0.01,30.43
51886185,1943,1,177470,212546,0.54,-0.79,9.95,-0.03,-0.01,-0.00,30.43
51926186,1951,1,177321,211986,0.50,-0.82,9.96,-0.03,-0.02,-0.00,30.43
51966194,1951,1,177063,211097,0.52,-0.82,9.96,-0.03,-0.03,-0.00,30.43
52006186,1951,1,176607,209031,0.55,-0.82,9.94,-0.03,-0.03,-0.00,30.43
52046185,1941,1,175913,207677,0.53,-0.82,9.91,-0.04,-0.01,-0.00,30.43
52086187,1939,1,175752,207636,0.56,-0.82,9.92,-0.04,-0.01,-0.00,30.43
52126185,1942,1,175849,208025,0.54,-0.82,9.95,-0.03,-0.01,-0.01,30.43
52166195,1931,1,175952,208126,0.52,-0.82,9.98,-0.03,-0.01,-0.00,30.43
52206185,1939,1,176032,208406,0.52,-0.80,9.96,-0.03,-0.01,-0.00,30.43
52246186,1938,1,176214,208793,0.53,-0.80,9.97,-0.03,-0.01,-0.00,30.43
52286185,1936,1,176304,208938,0.53,-0.81,9.96,-0.03,-0.01,-0.01,30.43
52326187,1937,1,176451,209501,0.55,-0.80,9.92,-0.03,-0.01,-0.01,30.43
52366185,1933,1,176656,210269,0.53,-0.81,9.95,-0.04,-0.00,-0.01,30.43
52406187,1929,1,176940,211171,0.50,-0.82,9.95,-0.03,-0.01,-0.00,30.43
52446185,1939,1,177123,211871,0.56,-0.82,9.95,-0.04,-0.01,-0.00,30.43
52486186,1954,1,177356,212351,0.53,-0.81,9.98,-0.03,-0.01,-0.00,30.43
52526194,1946,1,177450,212307,0.53,-0.81,9.97,-0.03,-0.01,-0.00,30.43
52566872,1927,1,177386,212077,0.51,-0.80,9.94,-0.03,-0.01,-0.00,30.45
52606185,1939,1,177398,211841,0.52,-0.81,9.93,-0.03,-0.01,-0.00,30.45
52646186,1935,1,177079,209898,0.54,-0.81,9.95,-0.03,-0.01,-0.00,30.45
52686185,1936,1,176354,208555,0.53,-0.80,9.97,-0.03,-0.01,-0.01,30.45
52726186,1936,1,176084,208446,0.53,-0.83,9.93,-0.03,-0.01,-0.00,30.45
52766185,1938,1,176212,208704,0.51,-0.80,9.94,-0.03,-0.01,-0.00,30.45
52806186,1951,1,176255,209096,0.54,-0.81,9.96,-0.03,-0.01,-0.00,30.45
52846185,1935,1,176524,210241,0.53,-0.81,9.95,-0.03,-0.00,-0.00,30.45
52886186,1938,1,176996,211159,0.54,-0.83,9.96,-0.04,-0.01,-0.00,30.45
52926185,1946,1,177161,211303,0.50,-0.83,9.96,-0.03,-0.01,-0.01,30.45
52966186,1945,1,177137,211371,0.54,-0.81,9.95,-0.03,-0.01,-0.00,30.45
53006186,1954,1,177276,212137,0.51,-0.82,9.93,-0.03,-0.01,-0.00,30.45
53046186,1947,1,177724,213553,0.52,-0.80,9.91,-0.04,-0.00,-0.01,30.45
53086185,1941,1,177956,214263,0.53,-0.83,9.98,-0.04,-0.01,-0.01,30.45
53126187,1946,1,178286,215355,0.54,-0.81,9.93,-0.03,-0.01,-0.01,30.45
53166185,1937,1,178724,216787,0.51,-0.83,9.98,-0.03,-0.00,-0.01,30.45
53206186,1930,1,179227,218295,0.50,-0.80,9.94,-0.03,-0.01,-0.01,30.45
53246185,1937,1,179572,219283,0.52,-0.81,9.96,-0.04,-0.00,-0.01,30.45
53286186,1936,1,179248,215285,0.51,-0.83,9.95,-0.03,-0.01,-0.01,30.45
53326185,1925,1,177617,212752,0.51,-0.81,9.95,-0.03,-0.01,-0.01,30.45
53366187,1937,1,177403,213125,0.51,-0.82,9.94,-0.03,-0.01,-0.01,30.45
53406185,1929,1,177752,214115,0.52,-0.83,9.95,-0.04,-0.01,-0.01,30.45
53446187,1952,1,178045,215372,0.51,-0.82,9.93,-0.04,-0.00,-0.01,30.45
53486185,1936,1,178600,217486,0.51,-0.82,9.95,-0.04,-0.00,-0.01,30.45
53526195,1936,1,179311,218689,0.51,-0.81,9.94,-0.03,-0.01,-0.01,30.45
53566872,1936,1,179422,218964,0.49,-0.81,9.94,-0.03,-0.02,-0.01,30.43
53606194,1967,1,179601,219964,0.51,-0.81,9.93,-0.03,-0.01,-0.01,30.43
53646185,1969,1,179933,220882,0.51,-0.81,9.96,-0.03,-0.01,-0.01,30.43
53686187,1984,1,180127,221481,0.54,-0.80,9.99,-0.03,-0.02,-0.00,30.43
53726185,1972,1,180343,221829,0.51,-0.82,9.93,-0.03,-0.01,-0.00,30.43
53766187,1994,1,180408,221594,0.51,-0.82,9.96,-0.03,-0.02,-0.00,30.43
53806205,2000,1,180342,221354,0.52,-0.81,9.94,-0.03,-0.03,-0.00,30.43
53846187,2000,1,180420,221803,0.54,-0.81,9.96,-0.03,-0.01,-0.00,30.43
53886185,1988,1,180597,222547,0.53,-0.82,9.94,-0.03,-0.01,-0.01,30.43
53926187,1998,1,180464,219293,0.52,-0.80,9.96,-0.03,-0.01,-0.00,30.43
53966185,1986,1,178651,215184,0.54,-0.80,9.96,-0.03,-0.01,-0.01,30.43
54006205,1993,1,178133,214858,0.51,-0.83,9.95,-0.03,-0.01,-0.01,30.43
54046185,2000,1,178164,215298,0.55,-0.82,9.94,-0.03,-0.01,-0.00,30.43
54086187,1993,1,178322,215794,0.53,-0.82,9.96,-0.03,-0.01,-0.01,30.43
54126185,1986,1,178646,216739,0.51,-0.80,9.93,-0.03,-0.01,-0.00,30.43
54166187,1991,1,178853,216812,0.53,-0.83,9.93,-0.03,-0.01,-0.00,30.43
54206185,1998,1,178791,216442,0.50,-0.82,9.94,-0.03,-0.02,-0.00,30.43
54246186,2001,1,178675,215901,0.55,-0.81,9.96,-0.03,-0.02,-0.00,30.43
54286185,2000,1,178515,215527,0.55,-0.82,9.94,-0.03,-0.02,-0.00,30.43
54326187,2006,1,178489,215565,0.54,-0.81,9.94,-0.03,-0.02,-0.00,30.43
54366185,2000,1,178605,216444,0.55,-0.83,9.96,-0.03,-0.00,-0.00,30.43
54406187,2002,1,178973,217749,0.52,-0.82,9.93,-0.04,-0.01,-0.01,30.43
54446186,1999,1,179506,219428,0.54,-0.81,9.93,-0.04,-0.00,-0.01,30.43
54486187,1995,1,180054,220223,0.51,-0.84,9.96,-0.03,-0.00,-0.01,30.43
54526194,1987,1,179922,217690,0.54,-0.82,9.91,-0.03,-0.02,-0.01,30.43
54566187,1982,1,178221,213510,0.55,-0.79,9.95,-0.03,-0.01,-0.00,30.43
54606871,1968,1,177541,212975,0.52,-0.82,9.95,-0.03,-0.01,-0.01,30.25
54646187,1978,1,177609,213723,0.54,-0.81,9.93,-0.03,-0.01,-0.00,30.25
54686185,1985,1,177954,214632,0.53,-0.82,9.95,-0.04,0.00,-0.00,30.25
54726170,1982,1,178120,215266,0.51,-0.83,9.96,-0.03,-0.01,-0.00,30.25
54766185,1977,1,178383,216177,0.53,-0.82,9.92,-0.03,-0.01,-0.00,30.25
54806187,1973,1,178665,216676,0.51,-0.81,9.96,-0.03,-0.01,-0.01,30.25
54846185,1981,1,178775,216963,0.52,-0.82,9.93,-0.03,-0.01,-0.00,30.25
54886187,1983,1,178801,217320,0.51,-0.82,9.96,-0.03,-0.01,-0.01,30.25
54926186,1974,1,179096,218399,0.52,-0.82,9.93,-0.03,-0.01,-0.01,30.25
54966187,1970,1,179457,219134,0.52,-0.82,9.97,-0.03,-0.01,-0.00,30.25
55006185,1971,1,179631,219321,0.54,-0.81,9.96,-0.03,-0.01,-0.00,30.25
55046187,1975,1,179606,219309,0.52,-0.82,9.94,-0.03,-0.01,-0.00,30.25
55086185,1971,1,179538,219144,0.51,-0.82,9.97,-0.03,-0.01,-0.00,30.25
55126187,1968,1,179415,218210,0.52,-0.82,9.95,-0.03,-0.01,-0.00,30.25
55166185,1963,1,178396,213890,0.52,-0.82,9.94,-0.03,-0.01,-0.00,30.25
55206187,1968,1,177414,212721,0.54,-0.79,9.96,-0.03,-0.01,-0.01,30.25
55246185,1962,1,177319,212731,0.54,-0.81,9.96,-0.03,-0.01,-0.00,30.25
55286187,1967,1,177302,212472,0.52,-0.82,9.98,-0.03,-0.01,-0.01,30.25
55326186,1968,1,177107,212382,0.52,-0.80,9.95,-0.03,-0.02,-0.00,30.25
55366187,1974,1,177371,213724,0.53,-0.79,9.94,-0.04,-0.01,-0.01,30.25
55406185,1968,1,177789,214502,0.52,-0.82,9.96,-0.04,-0.01,-0.01,30.25
55446210,1969,1,177851,214254,0.53,-0.81,9.93,-0.03,-0.01,-0.00,30.25
55486185,1970,1,177771,214509,0.52,-0.80,9.95,-0.04,-0.01,-0.01,30.25
55526196,1971,1,177934,214904,0.52,-0.83,9.95,-0.04,-0.01,-0.01,30.25
55566186,1963,1,177878,214260,0.51,-0.82,9.96,-0.03,-0.02,-0.00,30.25
55606187,1967,1,177777,214529,0.53,-0.80,9.90,-0.03,-0.02,-0.01,30.25
55646897,1943,1,178091,216037,0.55,-0.81,9.95,-0.04,0.00,-0.01,30.43
55685170,2012,1,178500,216904,0.53,-0.83,9.93,-0.04,-0.01,-0.00,30.43
55725185,2014,1,178778,217206,0.53,-0.81,9.95,-0.03,-0.01,-0.00,30.43
55765187,2023,1,178332,213587,0.52,-0.82,9.95,-0.03,-0.02,-0.00,30.43
55805185,2011,1,176962,211206,0.54,-0.81,9.93,-0.03,-0.02,-0.01,30.43
55845187,2012,1,176540,210703,0.54,-0.82,9.93,-0.03,-0.01,-0.01,30.43
55885185,2009,1,176375,210389,0.53,-0.83,9.96,-0.03,-0.01,-0.00,30.43
55925187,2003,1,176420,210551,0.53,-0.82,9.93,-0.03,-0.01,-0.01,30.43
55965185,2003,1,176665,211597,0.54,-0.81,9.96,-0.04,-0.01,-0.00,30.43
56005187,2007,1,177099,212587,0.52,-0.82,9.98,-0.04,-0.01,-0.00,30.43
56045185,1997,1,177237,213076,0.53,-0.82,9.95,-0.03,-0.01,-0.00,30.43
56085187,2006,1,177310,213008,0.54,-0.81,9.96,-0.03,-0.01,-0.00,30.43
56125185,2009,1,177351,212962,0.55,-0.81,9.93,-0.03,-0.01,-0.00,30.43
56165186,2006,1,177426,213424,0.52,-0.81,9.95,-0.04,-0.01,-0.01,30.43
56205185,1999,1,177514,213706,0.54,-0.81,9.94,-0.03,-0.01,-0.01,30.43
56245187,2007,1,177557,213931,0.52,-0.81,9.94,-0.03,-0.01,-0.00,30.43
56285185,2016,1,177627,214315,0.54,-0.83,9.95,-0.03,-0.01,-0.00,30.43
56325186,2014,1,177979,215086,0.53,-0.82,9.92,-0.04,-0.00,-0.01,30.43
56365185,2018,1,178111,213942,0.52,-0.82,9.96,-0.03,-0.01,-0.00,30.43
56405187,2011,1,177046,211057,0.52,-0.83,9.95,-0.03,-0.01,-0.00,30.43
56445185,2013,1,176498,210388,0.54,-0.81,9.93,-0.03,-0.01,-0.01,30.43
56485187,2009,1,176476,210567,0.53,-0.81,9.92,-0.03,-0.01,-0.01,30.43
56525190,2001,1,176385,210267,0.53,-0.84,9.96,-0.03,-0.01,-0.00,30.43
56565186,2013,1,176413,210429,0.53,-0.82,9.92,-0.03,-0.01,-0.00,30.43
56605185,2006,1,176689,211411,0.52,-0.83,9.94,-0.04,-0.01,-0.00,30.43
56645187,2016,1,176893,211769,0.52,-0.82,9.94,-0.03,-0.01,-0.01,30.43
56686871,1951,1,176875,211836,0.51,-0.81,9.97,-0.03,-0.01,-0.00,30.17
56725186,2011,1,177010,212498,0.53,-0.80,9.92,-0.03,-0.01,-0.01,30.17
56765185,2006,1,177240,212904,0.52,-0.83,9.95,-0.03,-0.01,-0.01,30.17
56805187,2011,1,177365,212988,0.53,-0.80,9.96,-0.03,-0.01,-0.00,30.17
56845185,2004,1,177360,213187,0.53,-0.80,9.96,-0.03,-0.01,-0.01,30.17
56885187,2000,1,177451,213451,0.51,-0.83,9.94,-0.03,-0.01,-0.00,30.17
56925185,2000,1,177562,213631,0.55,-0.82,9.94,-0.03,-0.01,-0.01,30.17
56965187,2007,1,177696,214245,0.53,-0.80,9.93,-0.03,-0.01,-0.01,30.17
57005185,2017,1,177846,213574,0.52,-0.83,9.95,-0.03,-0.01,-0.00,30.17
57045187,2010,1,177055,211519,0.51,-0.82,9.97,-0.03,-0.01,-0.00,30.17
57085236,2005,1,176737,211154,0.53,-0.82,9.93,-0.03,-0.01,-0.00,30.17
57125187,2002,1,176737,211403,0.53,-0.81,9.96,-0.03,-0.01,-0.00,30.17
57165185,2003,1,176797,211487,0.52,-0.83,9.94,-0.03,-0.01,-0.00,30.17
57205186,2003,1,176857,211884,0.52,-0.82,9.94,-0.03,-0.01,-0.00,30.17
57245185,2000,1,177160,212678,0.51,-0.84,9.93,-0.03,-0.01,-0.01,30.17
57285227,1995,1,177195,212956,0.52,-0.81,9.94,-0.03,-0.01,-0.01,30.17
57325185,2000,1,177264,213061,0.52,-0.83,9.95,-0.03,-0.01,-0.00,30.17
57365186,1997,1,177376,213595,0.52,-0.81,9.95,-0.03,-0.01,-0.01,30.17
57405184,2000,1,177608,213953,0.54,-0.81,9.93,-0.03,-0.01,-0.01,30.17
57445187,2002,1,177622,214153,0.50,-0.83,9.96,-0.03,-0.01,-0.00,30.17
57485185,2002,1,177737,214642,0.51,-0.82,9.95,-0.03,-0.01,-0.01,30.17
57525194,2000,1,177926,215187,0.52,-0.82,9.96,-0.03,-0.01,-0.01,30.17
57565185,1995,1,178046,215362,0.51,-0.84,9.96,-0.03,-0.01,-0.00,30.17
57605186,2000,1,178249,215785,0.53,-0.81,9.96,-0.03,-0.01,-0.01,30.17
57645185,1998,1,178185,213955,0.51,-0.83,9.95,-0.03,-0.01,-0.00,30.17
57685187,2000,1,177104,211452,0.56,-0.80,9.93,-0.03,-0.01,-0.00,30.17
57725871,1959,1,176554,210571,0.52,-0.80,9.96,-0.03,-0.01,-0.01,30.43
57766187,1968,1,176363,210231,0.51,-0.81,9.98,-0.03,-0.02,-0.00,30.43
57806185,1965,1,176327,210206,0.54,-0.82,9.93,-0.03,-0.01,-0.00,30.43
57846186,1956,1,176493,211089,0.53,-0.82,9.93,-0.03,-0.01,-0.00,30.43
57886186,1953,1,176923,211839,0.51,-0.81,9.96,-0.04,-0.01,-0.01,30.43
57926187,1952,1,177053,211944,0.52,-0.80,9.96,-0.03,-0.01,-0.01,30.43
57966186,1941,1,177044,212235,0.52,-0.81,9.96,-0.03,-0.01,-0.01,30.43
58006186,1935,1,177206,213206,0.54,-0.81,9.95,-0.04,-0.00,-0.01,30.43
58046185,1945,1,177551,213518,0.51,-0.81,9.95,-0.03,-0.01,-0.01,30.43
58086187,1933,1,177538,213443,0.53,-0.80,9.98,-0.03,-0.01,-0.01,30.43
58126185,1935,1,177499,213438,0.51,-0.83,9.96,-0.03,-0.01,-0.00,30.43
58166187,1936,1,177542,213575,0.53,-0.82,9.95,-0.03,-0.01,-0.00,30.43
58206185,1933,1,177652,213798,0.52,-0.79,9.95,-0.03,-0.01,-0.00,30.43
58246187,1939,1,177612,213195,0.53,-0.83,9.94,-0.03,-0.01,-0.00,30.43
58286185,1935,1,176979,210724,0.54,-0.80,9.96,-0.03,-0.01,-0.01,30.43
58326186,1939,1,176305,209660,0.53,-0.82,9.92,-0.03,-0.02,-0.00,30.43
58366185,1951,1,176249,209663,0.53,-0.82,9.95,-0.03,-0.01,-0.00,30.43
58406186,1953,1,176268,209643,0.54,-0.81,9.95,-0.03,-0.01,-0.00,30.43
58446186,1947,1,176308,209731,0.53,-0.82,9.97,-0.03,-0.01,-0.00,30.43
58486186,1958,1,176297,210135,0.54,-0.80,9.96,-0.03,-0.01,-0.00,30.43
58526194,1969,1,176452,210213,0.53,-0.80,9.92,-0.03,-0.01,-0.00,30.43
58566186,1971,1,176493,210383,0.54,-0.83,9.94,-0.03,-0.01,-0.01,30.43
58606185,1980,1,176628,210880,0.51,-0.82,9.96,-0.04,-0.01,-0.01,30.43
58646187,1986,1,176851,211293,0.52,-0.82,9.94,-0.03,-0.01,-0.01,30.43
58686185,1989,1,176884,211269,0.53,-0.83,9.98,-0.03,-0.02,-0.00,30.43
58726899,1985,1,176848,211516,0.52,-0.80,9.94,-0.03,-0.01,-0.01,30.25
58765185,2015,1,176881,211541,0.52,-0.80,9.95,-0.03,-0.01,-0.00,30.25
58805187,2006,1,176884,211556,0.53,-0.82,9.95,-0.03,-0.01,-0.00,30.25
58845185,2007,1,176861,211473,0.52,-0.83,9.94,-0.03,-0.01,-0.00,30.25
58885187,2023,1,176648,209666,0.53,-0.82,9.95,-0.03,-0.02,-0.00,30.25
58925196,2014,1,175912,208143,0.55,-0.83,9.95,-0.03,-0.01,-0.00,30.25
58965187,2000,1,175641,207607,0.55,-0.82,9.90,-0.03,-0.01,-0.01,30.25
59005185,2009,1,175429,207475,0.53,-0.82,9.94,-0.03,-0.01,-0.01,30.25
59045187,2000,1,175435,207706,0.54,-0.82,9.96,-0.04,-0.01,-0.00,30.25
59085185,1999,1,175597,208270,0.53,-0.83,9.94,-0.03,-0.01,-0.00,30.25
59125212,1994,1,175950,208900,0.53,-0.83,9.95,-0.03,-0.01,-0.01,30.25
59165185,1996,1,176003,209044,0.53,-0.83,9.95,-0.03,-0.01,-0.00,30.25
59205187,1982,1,176040,209049,0.52,-0.81,9.94,-0.03,-0.01,-0.00,30.25
59245185,1982,1,175970,209346,0.54,-0.79,9.96,-0.03,-0.01,-0.01,30.25
59285186,1981,1,176177,209579,0.52,-0.83,9.96,-0.03,-0.01,-0.01,30.25
59325185,1979,1,176210,209823,0.53,-0.80,9.94,-0.03,-0.01,-0.00,30.25
59365186,1975,1,176305,210356,0.53,-0.81,9.96,-0.03,-0.01,-0.01,30.25
59405186,1981,1,176512,210888,0.53,-0.82,9.93,-0.03,-0.01,-0.00,30.25
59445187,1979,1,176722,211016,0.53,-0.82,9.96,-0.03,-0.01,-0.00,30.25
59485185,1981,1,176664,211056,0.52,-0.81,9.95,-0.03,-0.01,-0.00,30.25
59525194,1969,1,176618,209676,0.54,-0.80,9.93,-0.03,-0.01,-0.01,30.25
59565185,1975,1,175778,207798,0.53,-0.81,9.95,-0.03,-0.01,-0.00,30.25
59605187,1979,1,175407,206876,0.55,-0.82,9.96,-0.03,-0.01,-0.00,30.25
59645185,1968,1,175205,206803,0.54,-0.81,9.96,-0.03,-0.01,-0.01,30.25
59685187,1970,1,175232,206828,0.52,-0.79,9.96,-0.03,-0.01,-0.00,30.25
59725185,1974,1,175254,207150,0.54,-0.82,9.92,-0.03,-0.01,-0.00,30.25
59765873,1936,1,175535,207879,0.53,-0.82,9.93,-0.03,-0.01,-0.00,30.25
59806185,1936,1,175644,208204,0.54,-0.81,9.95,-0.03,-0.01,-0.00,30.25
59846186,1943,1,175855,208465,0.54,-0.79,9.92,-0.03,-0.01,-0.01,30.25
59886186,1936,1,175819,208946,0.52,-0.80,9.95,-0.03,-0.01,-0.01,30.25
59926187,1943,1,176107,209192,0.53,-0.81,9.94,-0.03,-0.01,-0.00,30.25
59966185,1941,1,176181,209539,0.54,-0.83,9.92,-0.03,-0.01,-0.01,30.25
60006187,1943,1,176251,209996,0.54,-0.80,9.93,-0.03,-0.01,-0.00,30.25
60046186,1937,1,176431,210455,0.55,-0.83,9.94,-0.03,-0.01,-0.00,30.25
60086186,1940,1,176604,210922,0.53,-0.80,9.96,-0.03,-0.01,-0.01,30.25
60126185,1931,1,176715,211302,0.53,-0.81,9.92,-0.03,-0.01,-0.00,30.25
60166186,1938,1,176810,211815,0.56,-0.81,9.96,-0.03,-0.01,-0.01,30.25
60206185,1947,1,176915,210799,0.52,-0.81,9.95,-0.03,-0.01,-0.01,30.25
60246187,1943,1,176011,208668,0.53,-0.81,9.96,-0.03,-0.01,-0.01,30.25
60286185,1951,1,175593,208174,0.54,-0.80,9.94,-0.03,-0.01,-0.00,30.25
60326186,1965,1,175680,208203,0.52,-0.82,9.93,-0.04,-0.01,-0.00,30.25
60366191,1953,1,175524,208209,0.54,-0.81,9.98,-0.03,-0.01,-0.00,30.25
60406187,1959,1,175637,208675,0.55,-0.81,9.96,-0.03,-0.01,-0.00,30.25
60446186,1953,1,175935,209542,0.53,-0.81,9.94,-0.03,-0.01,-0.01,30.25
60486187,1968,1,176084,209781,0.53,-0.80,9.95,-0.03,-0.01,-0.01,30.25
60526191,1968,1,176185,209978,0.52,-0.84,9.93,-0.03,-0.01,-0.01,30.25
60566216,1970,1,176328,210116,0.53,-0.82,9.97,-0.03,-0.01,-0.01,30.25
60606185,1966,1,176339,210475,0.54,-0.79,9.96,-0.03,-0.01,-0.01,30.25
60646187,1968,1,176541,210666,0.53,-0.83,9.95,-0.03,-0.01,-0.01,30.25
60686186,1970,1,176518,210911,0.56,-0.81,9.94,-0.03,-0.01,-0.00,30.25
60726187,1968,1,176580,211134,0.52,-0.82,9.94,-0.03,-0.01,-0.00,30.25
60766900,1961,1,176776,211361,0.55,-0.81,9.94,-0.03,-0.01,-0.00,30.33
60805186,1984,1,176860,212057,0.53,-0.82,9.94,-0.03,-0.01,-0.01,30.33
60845185,1987,1,177091,212468,0.53,-0.81,9.96,-0.03,-0.01,-0.00,30.33
60885187,1985,1,177091,211605,0.53,-0.84,9.94,-0.03,-0.01,-0.00,30.33
60925185,1980,1,176409,209256,0.53,-0.82,9.94,-0.03,-0.01,-0.01,30.33
60965187,1989,1,175874,208504,0.51,-0.81,9.94,-0.03,-0.01,-0.01,30.33
61005185,1977,1,175796,208310,0.53,-0.80,9.93,-0.03,-0.01,-0.01,30.33
61045187,1971,1,175815,208241,0.54,-0.83,9.96,-0.03,-0.01,-0.01,30.33
61085186,1979,1,175772,208566,0.55,-0.80,9.94,-0.03,-0.01,-0.00,30.33
61125187,1985,1,176026,209096,0.53,-0.81,9.92,-0.03,-0.01,-0.00,30.33
61165185,1989,1,176159,209008,0.53,-0.82,9.93,-0.03,-0.01,-0.01,30.33
61205187,1989,1,176103,208877,0.53,-0.81,9.93,-0.03,-0.02,-0.00,30.33
61245185,1984,1,176056,209157,0.54,-0.81,9.94,-0.03,-0.01,-0.01,30.33
61285187,1983,1,176174,209668,0.54,-0.80,9.96,-0.03,-0.01,-0.00,30.33
61325185,1983,1,176415,210433,0.51,-0.80,9.93,-0.03,-0.00,-0.01,30.33
61365186,1984,1,176710,211068,0.54,-0.82,9.95,-0.03,-0.01,-0.01,30.33
61405185,1985,1,176844,211361,0.53,-0.81,9.94,-0.03,-0.01,-0.01,30.33
61445187,1984,1,176922,211656,0.51,-0.83,9.92,-0.03,-0.01,-0.00,30.33
61485185,1973,1,177036,211727,0.54,-0.81,9.95,-0.03,-0.01,-0.01,30.33
61525194,1979,1,176990,210738,0.53,-0.81,9.94,-0.03,-0.01,-0.00,30.33
61565185,1974,1,176361,208684,0.54,-0.81,9.93,-0.03,-0.01,-0.00,30.33
61605187,1970,1,175786,208236,0.54,-0.81,9.96,-0.04,-0.01,-0.01,30.33
61645186,1975,1,175765,208223,0.53,-0.81,9.96,-0.03,-0.01,-0.01,30.33
61685187,1971,1,175896,208073,0.54,-0.81,9.96,-0.03,-0.01,-0.01,30.33
