timestamp_us,ecg,leads,ir,red,accX,accY,accZ,gyroX,gyroY,gyroZ,temp
1918482,1746,1,204813,238119,0.00,0.00,0.00,0.00,0.00,0.00,0.00
1948949,1665,1,204843,237896,1.20,-0.22,9.69,-0.03,-0.01,-0.00,33.47
1989195,1617,1,204444,236110,1.24,-0.23,9.91,-0.03,-0.01,-0.00,33.47
2029201,1616,1,203813,234802,1.24,-0.25,9.91,-0.03,-0.01,-0.01,33.47
2069184,1582,1,203545,234459,1.22,-0.24,9.90,-0.03,-0.01,-0.00,33.47
2109183,1665,1,203598,234805,1.27,-0.23,9.90,-0.03,-0.02,-0.00,33.47
2149183,1687,1,203757,235390,1.26,-0.24,9.91,-0.03,-0.01,-0.00,33.47
2189182,1759,1,203997,235826,1.26,-0.24,9.92,-0.03,-0.01,-0.00,33.47
2229184,1783,1,204090,236037,1.25,-0.22,9.90,-0.03,-0.01,-0.00,33.47
2269183,1805,1,204140,236206,1.25,-0.22,9.93,-0.03,-0.01,-0.00,33.47
2309184,1840,1,204143,236321,1.26,-0.24,9.90,-0.03,-0.01,-0.00,33.47
2349183,1841,1,204133,236436,1.26,-0.23,9.92,-0.03,-0.01,-0.01,33.47
2389184,1893,1,204177,236575,1.23,-0.22,9.91,-0.03,-0.01,-0.00,33.47
2429183,1881,1,204263,236839,1.24,-0.23,9.95,-0.03,-0.01,-0.00,33.47
2469184,1920,1,204347,237169,1.25,-0.23,9.93,-0.03,-0.01,-0.00,33.47
2509183,1955,1,204483,237532,1.26,-0.24,9.92,-0.03,-0.01,-0.00,33.47
2549184,1942,1,204563,237558,1.26,-0.25,9.93,-0.03,-0.01,-0.00,33.47
2589186,1925,1,204399,236137,1.26,-0.25,9.90,-0.03,-0.01,-0.00,33.47
2629183,1939,1,203653,233997,1.23,-0.24,9.91,-0.03,-0.01,-0.00,33.47
2669183,1929,1,203103,232683,1.26,-0.23,9.90,-0.03,-0.01,-0.00,33.47
2709183,1999,1,202899,231982,1.23,-0.23,9.92,-0.03,-0.01,-0.00,33.47
2749183,1947,1,202725,231830,1.26,-0.23,9.93,-0.03,-0.01,-0.00,33.47
2789184,1975,1,202837,232511,1.24,-0.24,9.92,-0.04,-0.01,-0.00,33.47
2829183,1936,1,203100,233241,1.26,-0.25,9.94,-0.03,-0.02,-0.00,33.47
2869184,1987,1,203245,233772,1.24,-0.23,9.93,-0.03,-0.01,-0.00,33.47
2909183,1968,1,203278,234279,1.24,-0.24,9.89,-0.03,-0.01,-0.00,33.47
2949184,2005,1,203454,235375,1.24,-0.23,9.93,-0.03,-0.01,-0.00,33.47
2989869,1927,1,203944,236553,1.24,-0.24,9.93,-0.04,-0.01,-0.01,33.43
3029184,1931,1,204195,237359,1.25,-0.24,9.95,-0.03,-0.01,-0.00,33.43
3069182,1935,1,204273,237931,1.24,-0.23,9.94,-0.03,-0.01,-0.00,33.43
3109201,1950,1,204483,238734,1.23,-0.23,9.96,-0.04,-0.01,-0.01,33.43
3149183,1904,1,204692,239244,1.26,-0.25,9.93,-0.04,-0.02,-0.00,33.43
3189184,1934,1,204632,238307,1.25,-0.24,9.93,-0.03,-0.01,-0.00,33.43
3229183,1919,1,204069,237083,1.26,-0.22,9.93,-0.03,-0.01,-0.01,33.43
3269184,1889,1,203794,236471,1.24,-0.24,9.92,-0.03,-0.01,-0.01,33.43
3309183,1901,1,203767,236258,1.27,-0.24,9.92,-0.03,-0.01,-0.00,33.43
3349184,1910,1,203743,236111,1.26,-0.24,9.90,-0.03,0.00,-0.00,33.43
3387167,1971,1,203825,236050,1.24,-0.24,9.93,-0.03,-0.00,-0.00,33.43
3427184,1964,1,203835,235738,1.25,-0.25,9.95,-0.03,-0.01,-0.00,33.43
3467182,1936,1,203705,235220,1.25,-0.23,9.90,-0.03,-0.01,-0.00,33.43
3507184,1923,1,203489,234727,1.25,-0.26,9.92,-0.03,-0.01,-0.00,33.43
3547182,1936,1,203505,234709,1.24,-0.23,9.94,-0.03,-0.01,-0.00,33.43
3587184,1942,1,203539,234909,1.23,-0.23,9.93,-0.03,-0.01,-0.00,33.43
3627182,1923,1,203585,235151,1.25,-0.24,9.94,-0.03,-0.01,-0.00,33.43
3667184,1929,1,203633,235424,1.23,-0.23,9.94,-0.03,-0.01,-0.00,33.43
3707182,1931,1,203648,235816,1.23,-0.24,9.95,-0.03,-0.01,-0.00,33.43
3747184,1925,1,203737,236275,1.25,-0.23,9.92,-0.03,-0.01,-0.00,33.43
3787182,1927,1,203637,235512,1.25,-0.25,9.95,-0.03,-0.01,-0.00,33.43
3827184,1909,1,203016,234174,1.24,-0.23,9.94,-0.04,-0.01,-0.00,33.43
3867182,1920,1,202663,233598,1.23,-0.24,9.93,-0.03,-0.01,-0.00,33.43
3907185,1899,1,202562,233526,1.24,-0.24,9.94,-0.03,-0.01,-0.00,33.43
3947183,1936,1,202547,233752,1.23,-0.25,9.94,-0.03,-0.01,-0.01,33.43
3987184,1911,1,202625,234068,1.23,-0.22,9.94,-0.03,-0.01,-0.00,33.43
4028898,1887,1,202640,234144,1.24,-0.23,9.93,-0.03,-0.01,-0.00,33.77
4067184,1906,1,202677,234033,1.23,-0.23,9.94,-0.03,-0.01,-0.00,33.77
4107183,1955,1,202702,233903,1.23,-0.24,9.94,-0.03,-0.01,-0.00,33.77
4147184,1934,1,202892,233929,1.24,-0.22,9.94,-0.03,-0.01,-0.00,33.77
4187183,1917,1,202862,234003,1.26,-0.25,9.92,-0.03,-0.01,-0.00,33.77
4227184,1936,1,203097,234408,1.24,-0.23,9.92,-0.03,-0.01,-0.00,33.77
4267183,1919,1,203281,235019,1.24,-0.23,9.94,-0.04,-0.01,-0.00,33.77
4307184,1954,1,203369,235641,1.24,-0.23,9.91,-0.03,-0.01,-0.00,33.77
4347182,1937,1,203517,235700,1.22,-0.24,9.94,-0.03,-0.01,-0.00,33.77
4387184,1935,1,203162,234274,1.24,-0.25,9.94,-0.03,-0.01,-0.00,33.77
4427182,1926,1,202609,232887,1.23,-0.22,9.95,-0.03,-0.01,-0.00,33.77
4467185,1936,1,202302,232345,1.22,-0.23,9.94,-0.03,-0.01,-0.00,33.77
4507183,1929,1,202171,232543,1.24,-0.23,9.92,-0.03,-0.01,-0.00,33.77
4547184,1923,1,202290,232905,1.24,-0.25,9.94,-0.03,-0.01,-0.00,33.77
4587183,1933,1,202394,233633,1.24,-0.23,9.94,-0.03,-0.01,-0.00,33.77
4627184,1904,1,202551,233981,1.24,-0.25,9.91,-0.03,-0.01,-0.00,33.77
4667183,1919,1,202623,234166,1.21,-0.24,9.94,-0.03,-0.01,-0.00,33.77
4707184,1904,1,202676,234299,1.24,-0.25,9.92,-0.03,-0.01,-0.00,33.77
4747182,1906,1,202726,234458,1.23,-0.23,9.94,-0.03,-0.01,-0.00,33.77
4787184,1875,1,202787,234420,1.24,-0.24,9.92,-0.03,-0.01,-0.00,33.77
4827183,1882,1,202889,234485,1.25,-0.22,9.93,-0.03,-0.01,-0.00,33.77
4867184,1883,1,203022,234480,1.24,-0.21,9.93,-0.03,-0.01,-0.00,33.77
4907182,1897,1,203153,234579,1.22,-0.22,9.92,-0.03,-0.01,-0.00,33.77
4947203,1909,1,203169,234651,1.24,-0.23,9.91,-0.03,-0.01,-0.00,33.77
4987183,1903,1,202971,233174,1.24,-0.23,9.93,-0.03,-0.01,-0.01,33.77
5027193,1919,1,202300,231626,1.22,-0.23,9.95,-0.03,-0.01,-0.00,33.77
5067869,1887,1,202070,231279,1.22,-0.23,9.93,-0.03,-0.01,-0.00,33.73
5108184,1882,1,202087,231591,1.23,-0.23,9.93,-0.03,-0.01,-0.00,33.73
5148182,1877,1,202176,231899,1.25,-0.25,9.93,-0.03,-0.01,-0.01,33.73
5188184,1875,1,202301,232411,1.24,-0.22,9.91,-0.03,-0.01,-0.01,33.73
5228183,1904,1,202487,232776,1.23,-0.23,9.94,-0.03,-0.01,-0.00,33.73
5268184,1886,1,202659,233257,1.24,-0.23,9.93,-0.03,-0.01,-0.00,33.73
5308182,1887,1,202742,233695,1.24,-0.23,9.91,-0.03,-0.01,-0.00,33.73
5348184,1893,1,202890,234202,1.23,-0.22,9.94,-0.03,-0.01,-0.00,33.73
5388182,1891,1,203058,234767,1.23,-0.22,9.94,-0.03,-0.01,-0.00,33.73
5428183,1908,1,203233,235421,1.26,-0.23,9.92,-0.04,-0.01,-0.01,33.73
5468228,1878,1,203381,235931,1.22,-0.22,9.92,-0.03,-0.01,-0.01,33.73
5508183,1900,1,203502,236455,1.23,-0.24,9.95,-0.03,-0.01,-0.00,33.73
5548182,1927,1,203471,236839,1.24,-0.22,9.90,-0.03,-0.01,-0.00,33.73
5588183,1885,1,203552,236843,1.25,-0.22,9.92,-0.03,-0.01,-0.01,33.73
5628182,1870,1,203267,235620,1.24,-0.25,9.94,-0.03,-0.01,-0.00,33.73
5666189,1962,1,202753,234618,1.23,-0.23,9.93,-0.03,-0.01,-0.00,33.73
5706182,1940,1,202572,234351,1.25,-0.21,9.93,-0.03,-0.01,-0.00,33.73
5746184,1936,1,202553,234524,1.22,-0.22,9.95,-0.03,-0.01,-0.01,33.73
5786182,1937,1,202682,235183,1.23,-0.24,9.95,-0.03,-0.01,-0.00,33.73
5826184,1942,1,202915,235681,1.16,-0.20,10.02,-0.04,-0.03,-0.00,33.73
5866206,1934,1,203137,236103,1.25,-0.22,9.91,-0.04,-0.03,-0.00,33.73
5906184,1936,1,203440,236551,1.26,-0.23,9.92,-0.03,-0.02,-0.00,33.73
5946182,1942,1,203737,236677,1.25,-0.23,9.94,-0.04,-0.02,-0.00,33.73
5986184,1954,1,203856,236894,1.27,-0.23,9.92,-0.04,-0.02,-0.00,33.73
6026193,1936,1,203960,236956,1.26,-0.23,9.90,-0.03,-0.02,-0.00,33.73
6066184,1957,1,204085,236968,1.26,-0.22,9.92,-0.03,-0.01,-0.00,33.73
6106869,1889,1,204058,236843,1.28,-0.24,9.89,-0.03,0.00,-0.01,32.95
6147167,1898,1,204050,236851,1.25,-0.23,9.93,-0.03,0.01,-0.01,32.95
6187167,1935,1,204069,236913,1.22,-0.24,9.92,-0.03,-0.01,-0.00,32.95
6227184,1941,1,203972,235648,1.24,-0.22,9.94,-0.03,-0.01,-0.00,32.95
6267182,1919,1,203463,234292,1.25,-0.25,9.91,-0.03,0.01,-0.00,32.95
6307167,1929,1,203100,233599,1.23,-0.22,9.94,-0.03,0.00,-0.01,32.95
6347167,1935,1,203180,233581,1.21,-0.23,9.94,-0.03,0.00,-0.01,32.95
6387167,1918,1,203102,233755,1.22,-0.22,9.94,-0.03,-0.01,-0.00,32.95
6427182,1936,1,203302,234130,1.24,-0.24,9.96,-0.03,-0.00,-0.01,32.95
6467183,1936,1,203491,234633,1.23,-0.24,9.94,-0.03,-0.01,-0.00,32.95
6507182,1904,1,203746,235185,1.23,-0.21,9.96,-0.03,-0.02,-0.00,32.95
6547184,1902,1,203898,235543,1.22,-0.23,9.93,-0.04,-0.02,-0.00,32.95
6587183,1871,1,204011,235757,1.24,-0.24,9.93,-0.03,-0.01,-0.00,32.95
6627184,1898,1,204090,235993,1.24,-0.23,9.93,-0.03,-0.01,-0.01,32.95
6667182,1883,1,204122,236162,1.23,-0.23,9.93,-0.03,-0.01,-0.01,32.95
6707184,1898,1,204284,236601,1.25,-0.22,9.95,-0.03,-0.01,-0.00,32.95
6747182,1896,1,204356,236834,1.23,-0.24,9.92,-0.03,-0.01,-0.00,32.95
6787184,1897,1,204489,236951,1.23,-0.22,9.94,-0.03,-0.01,-0.01,32.95
6827182,1889,1,204421,236212,1.22,-0.22,9.95,-0.03,-0.01,-0.00,32.95
6867183,1906,1,203828,234167,1.24,-0.23,9.90,-0.03,-0.01,-0.01,32.95
6907182,1904,1,203232,232820,1.23,-0.22,9.95,-0.03,-0.01,-0.00,32.95
6947183,1879,1,202998,232348,1.25,-0.22,9.92,-0.03,-0.01,-0.00,32.95
6987182,1884,1,202988,232538,1.24,-0.22,9.92,-0.03,-0.01,-0.00,32.95
7027191,1904,1,203108,232837,1.23,-0.21,9.91,-0.03,-0.01,-0.00,32.95
7067182,1915,1,203138,233097,1.23,-0.23,9.94,-0.04,-0.01,-0.00,32.95
7107869,1888,1,203263,233206,1.22,-0.24,9.92,-0.03,-0.01,-0.00,31.71
7146182,1910,1,203289,233133,1.23,-0.24,9.92,-0.03,-0.01,-0.00,31.71
7186184,1936,1,203307,233650,1.23,-0.26,9.92,-0.03,-0.01,-0.00,31.71
7226182,1927,1,203518,234646,1.24,-0.23,9.91,-0.03,-0.01,-0.00,31.71
7266184,1920,1,203841,235639,1.24,-0.23,9.90,-0.03,-0.01,-0.01,31.71
7306211,1915,1,204009,236457,1.24,-0.23,9.93,-0.03,-0.01,-0.00,31.71
7346184,1919,1,204257,236885,1.24,-0.23,9.92,-0.03,-0.01,-0.00,31.71
7386182,1923,1,204407,237262,1.24,-0.23,9.91,-0.03,-0.01,-0.00,31.71
7426184,1913,1,204540,237278,1.25,-0.23,9.91,-0.03,-0.01,-0.01,31.71
7466182,1899,1,204310,236000,1.22,-0.24,9.93,-0.03,-0.01,-0.00,31.71
7506195,1901,1,203731,234783,1.23,-0.21,9.92,-0.03,-0.01,-0.00,31.71
7546182,1899,1,203498,234551,1.23,-0.22,9.93,-0.03,-0.01,-0.00,31.71
7586184,1904,1,203397,234811,1.24,-0.23,9.94,-0.04,-0.01,-0.00,31.71
7626182,1923,1,203398,234986,1.24,-0.23,9.93,-0.03,-0.01,-0.00,31.71
7666184,1891,1,203514,235570,1.22,-0.24,9.95,-0.03,-0.01,-0.00,31.71
7706182,1907,1,203690,235993,1.25,-0.23,9.92,-0.03,-0.01,-0.01,31.71
7746184,1906,1,203907,236301,1.24,-0.24,9.94,-0.03,-0.01,-0.00,31.71
7786182,1889,1,204079,237195,1.24,-0.25,9.93,-0.03,-0.01,-0.00,31.71
7826184,1889,1,204355,237960,1.24,-0.20,9.92,-0.03,-0.01,-0.00,31.71
7866182,1904,1,204534,238356,1.23,-0.24,9.94,-0.03,-0.01,-0.00,31.71
7906184,1901,1,204669,238681,1.23,-0.23,9.95,-0.03,-0.01,-0.00,31.71
7946182,1904,1,204842,239017,1.25,-0.22,9.91,-0.03,-0.01,-0.00,31.71
7986184,1911,1,205037,239253,1.23,-0.24,9.91,-0.03,-0.01,-0.00,31.71
8026193,1849,1,205172,239083,1.23,-0.22,9.94,-0.03,-0.01,-0.00,31.71
8066184,1877,1,204894,237633,1.24,-0.23,9.95,-0.03,-0.01,-0.00,31.71
8106182,1872,1,204334,236507,1.26,-0.23,9.92,-0.03,-0.01,-0.00,31.71
8146869,1886,1,203989,236189,1.22,-0.23,9.91,-0.03,-0.01,-0.01,31.55
8187182,1856,1,204073,236184,1.26,-0.24,9.91,-0.03,-0.01,-0.00,31.55
8227183,1856,1,204135,236185,1.25,-0.22,9.93,-0.03,-0.01,-0.01,31.55
8267182,1864,1,204198,236324,1.24,-0.26,9.93,-0.03,-0.01,-0.00,31.55
8307183,1917,1,204323,236345,1.25,-0.24,9.94,-0.03,-0.01,-0.01,31.55
8347182,1898,1,204376,236335,1.24,-0.23,9.93,-0.03,-0.01,-0.00,31.55
8387184,1874,1,204397,236502,1.24,-0.23,9.94,-0.03,-0.01,-0.00,31.55
8427182,1856,1,204484,236793,1.24,-0.24,9.90,-0.03,-0.01,-0.00,31.55
8467183,1909,1,204756,237306,1.24,-0.22,9.96,-0.03,-0.01,-0.00,31.55
8505182,1982,1,204868,237655,1.23,-0.23,9.93,-0.03,-0.01,-0.01,31.55
8545184,1967,1,204964,238007,1.22,-0.23,9.93,-0.03,-0.01,-0.00,31.55
8585182,1903,1,205142,238367,1.23,-0.24,9.94,-0.03,-0.01,-0.00,31.55
8625183,1952,1,205224,238122,1.24,-0.22,9.94,-0.03,-0.01,-0.01,31.55
8665182,1959,1,204804,236767,1.24,-0.22,9.93,-0.03,-0.01,-0.01,31.55
8705184,1930,1,204455,236140,1.24,-0.22,9.93,-0.03,-0.01,-0.01,31.55
8745182,1918,1,204460,236420,1.24,-0.23,9.95,-0.04,-0.01,-0.00,31.55
8785184,1939,1,204668,237230,1.25,-0.23,9.94,-0.03,-0.01,-0.00,31.55
8825182,1917,1,205041,238380,1.25,-0.22,9.94,-0.03,-0.01,-0.00,31.55
8865183,1942,1,205317,239290,1.24,-0.22,9.93,-0.03,-0.01,-0.00,31.55
8905182,1938,1,205636,239879,1.25,-0.23,9.92,-0.03,-0.01,-0.00,31.55
8945201,1945,1,205694,240446,1.24,-0.21,9.92,-0.03,-0.01,-0.00,31.55
8985182,1919,1,205864,240763,1.24,-0.24,9.92,-0.04,-0.01,-0.00,31.55
9025251,1935,1,205962,241082,1.24,-0.23,9.92,-0.04,-0.01,-0.00,31.55
9065182,1983,1,206087,241261,1.25,-0.24,9.92,-0.03,-0.01,-0.01,31.55
9105184,1937,1,206123,241415,1.25,-0.23,9.95,-0.03,-0.01,-0.00,31.55
9145205,1909,1,206160,241470,1.24,-0.24,9.92,-0.03,-0.01,-0.00,31.55
9185870,1898,1,206190,241075,1.24,-0.23,9.93,-0.03,-0.01,-0.00,31.49
9226183,1874,1,205819,239368,1.26,-0.23,9.93,-0.03,-0.01,-0.01,31.49
9266184,1950,1,205124,237861,1.24,-0.24,9.93,-0.03,-0.01,-0.00,31.49
9306182,1878,1,204911,237356,1.24,-0.24,9.95,-0.03,-0.01,-0.00,31.49
9346203,1872,1,204909,237228,1.25,-0.22,9.91,-0.03,-0.01,-0.00,31.49
9386182,1887,1,204962,237619,1.23,-0.24,9.93,-0.03,-0.01,-0.00,31.49
9426184,1865,1,205175,237996,1.24,-0.22,9.93,-0.03,-0.01,-0.00,31.49
9466182,1936,1,205293,238280,1.26,-0.24,9.93,-0.03,-0.01,-0.00,31.49
9506183,1881,1,205346,238530,1.25,-0.23,9.92,-0.03,-0.01,-0.01,31.49
9546182,1872,1,205426,238675,1.26,-0.21,9.95,-0.03,-0.01,-0.00,31.49
9586184,1851,1,205548,238965,1.25,-0.23,9.92,-0.03,-0.01,-0.00,31.49
9626182,1897,1,205581,239336,1.23,-0.25,9.93,-0.03,-0.01,-0.00,31.49
9666183,1839,1,205693,239607,1.24,-0.22,9.95,-0.03,-0.01,-0.00,31.49
9706182,1882,1,205780,239744,1.24,-0.23,9.91,-0.03,-0.01,-0.00,31.49
9746184,1872,1,205785,239657,1.25,-0.23,9.91,-0.03,-0.01,-0.00,31.49
9786182,1872,1,205483,238165,1.23,-0.23,9.96,-0.03,-0.01,-0.00,31.49
9826183,1878,1,204907,236752,1.23,-0.24,9.92,-0.03,-0.01,-0.00,31.49
9866191,1831,1,204689,236346,1.24,-0.23,9.93,-0.03,-0.01,-0.00,31.49
9906183,1922,1,204687,236411,1.24,-0.22,9.93,-0.03,-0.01,-0.00,31.49
9946183,1905,1,204749,236773,1.24,-0.24,9.95,-0.03,-0.01,-0.01,31.49
9986184,1885,1,204878,237238,1.24,-0.22,9.90,-0.03,-0.01,-0.00,31.49
10026194,1885,1,204976,237501,1.23,-0.23,9.93,-0.03,-0.01,-0.01,31.49
10066184,1930,1,205079,237605,1.25,-0.24,9.95,-0.03,-0.01,-0.00,31.49
10106182,1913,1,205181,237851,1.24,-0.25,9.92,-0.03,-0.01,-0.01,31.49
10146184,1885,1,205264,238225,1.25,-0.25,9.94,-0.03,-0.01,-0.00,31.49
10186868,1895,1,205389,238743,1.25,-0.23,9.91,-0.04,-0.01,-0.00,31.43
10225184,1920,1,205563,239208,1.22,-0.23,9.92,-0.03,-0.01,-0.00,31.43
10265183,1897,1,205746,239637,1.24,-0.23,9.92,-0.03,-0.01,-0.00,31.43
10305184,1897,1,205784,239506,1.25,-0.25,9.93,-0.03,-0.01,-0.00,31.43
10345182,1919,1,205421,237991,1.24,-0.24,9.94,-0.03,-0.01,-0.00,31.43
10385184,1903,1,204881,237037,1.26,-0.23,9.94,-0.03,-0.01,-0.01,31.43
10425182,1929,1,204822,237066,1.24,-0.23,9.93,-0.03,-0.01,-0.00,31.43
10465184,1902,1,204849,237442,1.25,-0.24,9.95,-0.03,-0.01,-0.00,31.43
10505182,1907,1,205067,237999,1.24,-0.23,9.91,-0.03,-0.01,-0.00,31.43
10545184,1905,1,205274,238366,1.24,-0.25,9.92,-0.03,-0.01,-0.00,31.43
10585182,1904,1,205267,238588,1.24,-0.26,9.93,-0.03,-0.01,-0.01,31.43
10625184,1883,1,205360,238709,1.23,-0.23,9.94,-0.03,-0.01,-0.00,31.43
10665182,1845,1,205401,238837,1.25,-0.22,9.92,-0.03,-0.01,-0.01,31.43
10705184,1891,1,205471,238924,1.24,-0.23,9.95,-0.03,-0.01,-0.00,31.43
10745183,1882,1,205530,239148,1.22,-0.23,9.95,-0.03,-0.01,-0.00,31.43
10785189,1889,1,205634,239271,1.26,-0.24,9.93,-0.03,-0.01,-0.00,31.43
10825182,1895,1,205707,239388,1.26,-0.24,9.92,-0.03,-0.01,-0.00,31.43
10865184,1922,1,205617,238547,1.24,-0.23,9.92,-0.03,-0.01,-0.00,31.43
10905182,1847,1,205010,236566,1.26,-0.22,9.93,-0.04,-0.01,-0.00,31.43
10945184,1910,1,204538,235619,1.25,-0.23,9.90,-0.03,-0.01,-0.00,31.43
10985182,1894,1,204451,235624,1.26,-0.24,9.92,-0.03,-0.01,-0.00,31.43
11025207,1877,1,204572,236206,1.24,-0.23,9.92,-0.03,-0.01,-0.01,31.43
11065182,1893,1,204769,237064,1.24,-0.23,9.95,-0.03,-0.01,-0.00,31.43
11105184,1917,1,205012,237577,1.24,-0.24,9.90,-0.03,-0.01,-0.00,31.43
11145182,1887,1,205105,237792,1.24,-0.23,9.92,-0.03,-0.01,-0.00,31.43
11185184,1904,1,205115,238056,1.24,-0.23,9.94,-0.03,-0.01,-0.00,31.43
11225868,1877,1,205178,238281,1.26,-0.22,9.96,-0.03,-0.01,-0.00,31.49
11266184,1872,1,205212,238599,1.26,-0.23,9.95,-0.03,-0.01,-0.00,31.49
11304182,1968,1,205382,238980,1.22,-0.23,9.94,-0.03,-0.01,-0.00,31.49
11344184,1936,1,205464,239317,1.23,-0.22,9.94,-0.03,-0.01,-0.00,31.49
11384182,1929,1,205545,239236,1.24,-0.23,9.94,-0.03,-0.01,-0.00,31.49
11424184,1957,1,205226,237590,1.25,-0.25,9.92,-0.03,-0.01,-0.01,31.49
11464182,1917,1,204588,235900,1.24,-0.23,9.94,-0.03,-0.01,-0.00,31.49
11504234,1968,1,204265,235174,1.25,-0.24,9.92,-0.03,-0.01,-0.00,31.49
11544182,1984,1,204318,235137,1.25,-0.22,9.90,-0.03,-0.01,-0.00,31.49
11584183,1936,1,204444,235425,1.25,-0.23,9.93,-0.03,-0.01,-0.00,31.49
11624182,1922,1,204579,235722,1.25,-0.23,9.94,-0.03,-0.01,-0.00,31.49
11664184,1961,1,204696,235869,1.25,-0.21,9.95,-0.03,-0.01,-0.00,31.49
11704182,1918,1,204795,236073,1.25,-0.25,9.95,-0.03,-0.01,-0.00,31.49
11744184,1934,1,204908,236479,1.23,-0.24,9.92,-0.03,-0.01,-0.00,31.49
11784182,1941,1,205063,236860,1.25,-0.23,9.94,-0.03,-0.01,-0.00,31.49
11824184,1925,1,205176,237398,1.23,-0.24,9.95,-0.03,-0.01,-0.00,31.49
11864182,1946,1,205303,237972,1.24,-0.24,9.94,-0.03,-0.01,-0.00,31.49
11904184,1934,1,205458,238370,1.23,-0.22,9.93,-0.03,-0.01,-0.00,31.49
11944182,1925,1,205494,238087,1.24,-0.25,9.96,-0.04,-0.01,-0.00,31.49
11984184,1937,1,205032,236153,1.24,-0.26,9.91,-0.03,-0.01,-0.01,31.49
12024196,1906,1,204344,234794,1.25,-0.23,9.93,-0.03,-0.01,-0.00,31.49
12064184,1963,1,204081,234731,1.24,-0.23,9.93,-0.03,-0.01,-0.00,31.49
12104182,1920,1,204113,235028,1.24,-0.22,9.91,-0.03,-0.01,-0.00,31.49
12144184,1886,1,204282,235578,1.24,-0.23,9.94,-0.03,-0.01,-0.00,31.49
12184182,1947,1,204442,235932,1.23,-0.23,9.91,-0.03,-0.01,-0.00,31.49
12224184,1929,1,204543,236083,1.26,-0.24,9.95,-0.03,-0.01,-0.00,31.49
12264868,1885,1,204622,236219,1.24,-0.23,9.92,-0.03,-0.01,-0.00,31.49
12305184,1919,1,204691,236300,1.23,-0.21,9.95,-0.03,-0.01,-0.00,31.49
12345182,1840,1,204759,236331,1.25,-0.23,9.92,-0.03,-0.01,-0.00,31.49
12385184,1904,1,204793,236328,1.24,-0.23,9.91,-0.03,-0.01,-0.00,31.49
12425220,1893,1,204825,236183,1.24,-0.24,9.94,-0.03,-0.01,-0.00,31.49
12465184,1887,1,204783,236051,1.23,-0.22,9.94,-0.03,-0.01,-0.01,31.49
12505182,1931,1,204771,235786,1.24,-0.25,9.95,-0.03,-0.01,-0.00,31.49
12545184,1891,1,204390,233799,1.26,-0.22,9.94,-0.03,-0.01,-0.00,31.49
12585182,1884,1,203541,231428,1.25,-0.22,9.95,-0.03,-0.01,-0.01,31.49
12625225,1910,1,203140,231152,1.23,-0.23,9.94,-0.03,-0.01,-0.00,31.49
12665182,1873,1,203250,231737,1.23,-0.24,9.94,-0.03,-0.01,-0.00,31.49
12705184,1882,1,203518,232717,1.24,-0.21,9.94,-0.03,-0.01,-0.00,31.49
12745182,1884,1,203887,233723,1.26,-0.26,9.92,-0.03,-0.01,-0.00,31.49
12785184,1894,1,204163,234053,1.23,-0.24,9.95,-0.03,-0.01,-0.00,31.49
12825182,1913,1,204267,234269,1.23,-0.24,9.94,-0.03,-0.01,-0.01,31.49
12865184,1891,1,204372,234786,1.27,-0.22,9.96,-0.03,-0.01,-0.00,31.49
12905182,1918,1,204541,235332,1.26,-0.24,9.93,-0.03,-0.01,-0.01,31.49
12945184,1877,1,204693,235758,1.24,-0.23,9.92,-0.03,-0.01,-0.00,31.49
12985182,1883,1,204804,236131,1.25,-0.23,9.93,-0.03,-0.01,-0.00,31.49
13025209,1914,1,204930,236543,1.24,-0.24,9.92,-0.03,-0.01,-0.01,31.49
13064182,1887,1,205046,236899,1.24,-0.24,9.94,-0.03,-0.01,-0.01,31.49
13104184,1914,1,205150,237045,1.25,-0.22,9.95,-0.03,-0.01,-0.00,31.49
13144182,1888,1,204952,235475,1.24,-0.23,9.93,-0.03,-0.01,-0.00,31.49
13184183,1885,1,204219,233412,1.23,-0.24,9.92,-0.03,-0.01,-0.00,31.49
13224182,1879,1,203767,232708,1.24,-0.24,9.93,-0.03,-0.01,-0.00,31.49
13264184,1900,1,203729,232879,1.24,-0.24,9.93,-0.04,-0.01,-0.00,31.49
13304868,1883,1,203806,233440,1.25,-0.24,9.92,-0.03,-0.01,-0.00,31.57
13345183,1901,1,204129,234413,1.23,-0.21,9.91,-0.04,-0.01,-0.00,31.57
13385182,1903,1,204433,235047,1.24,-0.24,9.92,-0.03,-0.01,-0.00,31.57
13425184,1899,1,204547,235334,1.24,-0.22,9.92,-0.03,-0.01,-0.00,31.57
13465182,1917,1,204655,235508,1.24,-0.24,9.96,-0.03,-0.01,-0.00,31.57
13505184,1898,1,204678,235613,1.23,-0.23,9.93,-0.03,-0.01,-0.01,31.57
13545182,1885,1,204768,235626,1.25,-0.24,9.94,-0.03,-0.01,-0.00,31.57
13585183,1903,1,204755,235640,1.25,-0.23,9.92,-0.03,-0.01,-0.00,31.57
13625182,1875,1,204741,235667,1.26,-0.23,9.93,-0.03,-0.01,-0.01,31.57
13665184,1890,1,204798,235695,1.26,-0.25,9.93,-0.03,-0.01,-0.00,31.57
13705182,1912,1,204762,235594,1.23,-0.21,9.93,-0.03,-0.01,-0.00,31.57
13743184,1954,1,204631,234438,1.23,-0.23,9.96,-0.03,-0.01,-0.00,31.57
13783182,1958,1,203906,231800,1.25,-0.23,9.93,-0.03,-0.01,-0.00,31.57
13823184,1954,1,203136,230060,1.23,-0.23,9.93,-0.03,-0.01,-0.00,31.57
13863182,1928,1,202909,230097,1.23,-0.23,9.96,-0.03,-0.01,-0.01,31.57
13903184,1939,1,203047,230408,1.24,-0.24,9.94,-0.03,-0.01,-0.00,31.57
13943182,1974,1,203311,231493,1.24,-0.22,9.90,-0.03,-0.01,-0.00,31.57
13983183,1942,1,203716,232376,1.25,-0.21,9.93,-0.03,-0.01,-0.01,31.57
14023182,1943,1,203955,232709,1.23,-0.22,9.94,-0.03,-0.01,-0.00,31.57
14064228,1914,1,204118,233016,1.22,-0.23,9.92,-0.03,-0.01,-0.01,31.57
14104182,1905,1,204218,233474,1.25,-0.23,9.94,-0.03,-0.01,-0.01,31.57
14144184,1874,1,204341,233920,1.24,-0.23,9.89,-0.03,-0.01,-0.00,31.57
14184182,1893,1,204432,234338,1.25,-0.25,9.93,-0.03,-0.01,-0.00,31.57
14224184,1904,1,204533,234659,1.24,-0.21,9.92,-0.03,-0.01,-0.00,31.57
14264201,1872,1,204689,235227,1.25,-0.23,9.93,-0.03,-0.01,-0.00,31.57
14304869,1906,1,204889,235712,1.23,-0.22,9.95,-0.03,-0.01,-0.00,31.61
14343182,1909,1,204938,235023,1.25,-0.24,9.91,-0.04,-0.01,-0.00,31.61
14383184,1959,1,204282,232659,1.25,-0.23,9.92,-0.03,-0.01,-0.00,31.61
14423183,1937,1,203529,231132,1.26,-0.22,9.91,-0.03,-0.01,-0.00,31.61
14463184,1926,1,203184,230749,1.24,-0.23,9.94,-0.03,-0.01,-0.00,31.61
14503182,1925,1,203175,231030,1.24,-0.24,9.94,-0.03,-0.01,-0.01,31.61
14543184,1899,1,203315,231701,1.23,-0.24,9.95,-0.03,-0.01,-0.00,31.61
14583182,1957,1,203536,232265,1.23,-0.24,9.93,-0.03,-0.01,-0.01,31.61
14623184,1918,1,203670,232489,1.24,-0.24,9.94,-0.03,-0.01,-0.00,31.61
14663182,1927,1,203746,232632,1.23,-0.25,9.92,-0.03,-0.01,-0.01,31.61
14703184,1922,1,203821,233001,1.24,-0.22,9.91,-0.03,-0.01,-0.00,31.61
14743182,1909,1,203952,233391,1.24,-0.20,9.94,-0.03,-0.01,-0.00,31.61
14783184,1916,1,204093,233804,1.24,-0.23,9.95,-0.03,-0.01,-0.00,31.61
14823182,1919,1,204228,234274,1.25,-0.24,9.93,-0.03,-0.01,-0.00,31.61
14863184,1927,1,204410,234694,1.24,-0.23,9.91,-0.03,-0.01,-0.00,31.61
14903182,1872,1,204504,235078,1.23,-0.23,9.91,-0.03,-0.01,-0.00,31.61
14943184,1920,1,204615,235548,1.23,-0.22,9.93,-0.03,-0.01,-0.00,31.61
14983182,1922,1,204756,235673,1.25,-0.22,9.91,-0.03,-0.01,-0.00,31.61
15023184,1957,1,204502,233835,1.25,-0.22,9.92,-0.03,-0.01,-0.01,31.61
15063183,1919,1,203657,231584,1.24,-0.24,9.96,-0.03,-0.01,-0.00,31.61
15103184,1925,1,203139,230772,1.24,-0.25,9.91,-0.03,-0.01,-0.00,31.61
15143182,1927,1,203127,231041,1.24,-0.24,9.95,-0.03,-0.01,-0.00,31.61
15183184,1873,1,203283,231782,1.22,-0.23,9.93,-0.03,-0.01,-0.00,31.61
15223182,1917,1,203594,232806,1.24,-0.24,9.93,-0.03,-0.01,-0.00,31.61
15263184,1873,1,203914,233324,1.24,-0.23,9.94,-0.03,-0.01,-0.00,31.61
15303183,1910,1,204098,233686,1.23,-0.22,9.92,-0.03,-0.01,-0.00,31.61
15343870,1903,1,204189,233962,1.24,-0.25,9.94,-0.03,-0.01,-0.00,31.75
15384183,1919,1,204325,234228,1.23,-0.23,9.95,-0.03,-0.01,-0.00,31.75
15424184,1907,1,204437,234552,1.26,-0.23,9.92,-0.03,-0.01,-0.00,31.75
15464182,1883,1,204580,234695,1.24,-0.22,9.93,-0.03,-0.01,-0.01,31.75
15504184,1914,1,204621,234848,1.24,-0.23,9.91,-0.03,-0.01,-0.01,31.75
15544182,1915,1,204710,235046,1.23,-0.24,9.91,-0.03,-0.01,-0.00,31.75
15584184,1875,1,204835,235388,1.24,-0.22,9.91,-0.04,-0.01,-0.00,31.75
15624182,1917,1,204969,235951,1.24,-0.24,9.92,-0.03,-0.01,-0.01,31.75
15664184,1905,1,205121,235995,1.25,-0.23,9.94,-0.03,-0.01,-0.00,31.75
15704278,1893,1,204751,233875,1.25,-0.21,9.92,-0.03,-0.01,-0.00,31.75
15744184,1904,1,203924,231601,1.23,-0.24,9.93,-0.03,-0.01,-0.00,31.75
15784182,1855,1,203373,230434,1.23,-0.23,9.93,-0.03,-0.01,-0.00,31.75
15824184,1870,1,203238,230410,1.24,-0.24,9.89,-0.03,-0.01,-0.00,31.75
15864182,1893,1,203436,231303,1.23,-0.24,9.94,-0.04,-0.01,-0.01,31.75
15904221,1887,1,203784,232305,1.24,-0.22,9.96,-0.03,-0.01,-0.00,31.75
15944182,1899,1,204034,232785,1.21,-0.22,9.94,-0.03,-0.01,-0.01,31.75
15984184,1895,1,204142,233095,1.23,-0.26,9.91,-0.03,-0.01,-0.00,31.75
16024195,1936,1,204238,233605,1.24,-0.24,9.91,-0.04,-0.01,-0.00,31.75
16064183,1959,1,204430,234169,1.24,-0.24,9.94,-0.03,-0.01,-0.00,31.75
16104215,1884,1,204562,234756,1.26,-0.22,9.92,-0.04,-0.01,-0.00,31.75
16144184,1914,1,204772,235635,1.25,-0.22,9.90,-0.03,-0.01,-0.00,31.75
16184182,1922,1,204987,236189,1.25,-0.23,9.94,-0.03,-0.01,-0.00,31.75
16224183,1920,1,205054,236396,1.20,-0.23,9.96,-0.03,-0.01,-0.00,31.75
16264182,1846,1,205124,236474,1.22,-0.22,9.92,-0.03,-0.01,-0.00,31.75
16304183,1878,1,205147,236187,1.26,-0.21,9.90,-0.03,-0.01,-0.01,31.75
16344868,1877,1,204752,233974,1.26,-0.26,9.93,-0.03,-0.01,-0.01,31.61
16383184,1924,1,203935,231867,1.23,-0.23,9.91,-0.03,-0.01,-0.00,31.61
16423182,1879,1,203449,231521,1.25,-0.22,9.93,-0.03,-0.01,-0.00,31.61
16463184,1917,1,203527,231957,1.24,-0.23,9.95,-0.03,-0.01,-0.01,31.61
16503183,1902,1,203670,232225,1.23,-0.25,9.96,-0.03,-0.01,-0.01,31.61
16543184,1849,1,203903,233091,1.24,-0.22,9.94,-0.04,-0.01,-0.00,31.61
16583182,1902,1,204216,233798,1.26,-0.24,9.90,-0.03,-0.02,-0.00,31.61
16623202,1877,1,204354,234220,1.26,-0.23,9.92,-0.03,-0.01,-0.01,31.61
16663182,1918,1,204499,234517,1.24,-0.23,9.91,-0.03,-0.01,-0.00,31.61
16703184,1907,1,204555,234646,1.26,-0.23,9.94,-0.03,-0.01,-0.00,31.61
16743183,1925,1,204592,234698,1.24,-0.21,9.91,-0.03,-0.01,-0.00,31.61
16783184,1902,1,204593,234687,1.24,-0.23,9.90,-0.03,-0.01,-0.00,31.61
16823183,1890,1,204698,234760,1.25,-0.23,9.95,-0.03,-0.01,-0.00,31.61
16863184,1902,1,204808,235119,1.23,-0.23,9.90,-0.03,-0.01,-0.00,31.61
16903182,1915,1,204923,235418,1.24,-0.24,9.96,-0.04,-0.01,-0.00,31.61
16943184,1881,1,205008,235528,1.26,-0.23,9.95,-0.03,-0.01,-0.00,31.61
16983182,1877,1,204956,234587,1.24,-0.23,9.91,-0.03,-0.01,-0.01,31.61
17023184,1875,1,204201,232462,1.24,-0.23,9.92,-0.03,-0.01,-0.00,31.61
17063183,1872,1,203596,231417,1.22,-0.22,9.95,-0.03,-0.01,-0.00,31.61
17103183,1855,1,203443,231555,1.26,-0.23,9.89,-0.03,-0.01,-0.00,31.61
17143182,1873,1,203558,231806,1.23,-0.24,9.92,-0.03,-0.01,-0.01,31.61
17183184,1883,1,203658,232273,1.25,-0.23,9.91,-0.03,-0.01,-0.00,31.61
17223182,1891,1,203828,232508,1.25,-0.22,9.95,-0.03,-0.01,-0.00,31.61
17263184,1910,1,203905,232671,1.23,-0.24,9.92,-0.03,-0.01,-0.01,31.61
17303182,1904,1,203976,233068,1.24,-0.23,9.90,-0.03,-0.01,-0.00,31.61
17343183,1893,1,204119,233587,1.23,-0.23,9.93,-0.03,-0.01,-0.00,31.61
17383867,1882,1,204236,233892,1.21,-0.22,9.97,-0.03,-0.01,-0.01,31.47
17422185,1877,1,204392,234382,1.25,-0.24,9.93,-0.03,-0.01,-0.00,31.47
17462182,1879,1,204505,235288,1.24,-0.24,9.92,-0.04,-0.01,-0.00,31.47
17502184,1885,1,204819,235873,1.23,-0.23,9.90,-0.03,-0.01,-0.00,31.47
17542216,1933,1,205003,236226,1.23,-0.24,9.93,-0.03,-0.01,-0.00,31.47
17582184,1877,1,205085,236534,1.23,-0.22,9.94,-0.03,-0.01,-0.00,31.47
17622182,1905,1,205126,236589,1.23,-0.22,9.93,-0.03,-0.01,-0.00,31.47
17662184,1918,1,204968,235361,1.24,-0.23,9.91,-0.03,-0.01,-0.00,31.47
17702183,1904,1,204278,233473,1.22,-0.23,9.94,-0.03,-0.01,-0.00,31.47
17742209,1915,1,203812,232452,1.27,-0.24,9.93,-0.03,-0.01,-0.00,31.47
17782183,1927,1,203628,232244,1.21,-0.24,9.92,-0.03,-0.01,-0.00,31.47
17822184,1834,1,203637,232762,1.24,-0.23,9.92,-0.03,-0.01,-0.00,31.47
17862182,1924,1,203980,233938,1.25,-0.21,9.93,-0.04,-0.02,-0.00,31.47
17902184,1904,1,204297,234709,1.24,-0.23,9.94,-0.03,-0.01,-0.00,31.47
17942182,1922,1,204447,235123,1.23,-0.25,9.92,-0.03,-0.01,-0.00,31.47
17982184,1895,1,204561,235325,1.24,-0.22,9.93,-0.03,-0.01,-0.00,31.47
18022191,1918,1,204645,235561,1.25,-0.23,9.95,-0.03,-0.01,-0.00,31.47
18062185,1900,1,204690,235865,1.25,-0.25,9.95,-0.03,-0.01,-0.00,31.47
18102182,1912,1,204873,236220,1.24,-0.23,9.93,-0.03,-0.01,-0.00,31.47
18142184,1942,1,204972,236409,1.25,-0.23,9.93,-0.03,-0.01,-0.00,31.47
18182182,1915,1,205039,236567,1.23,-0.26,9.92,-0.03,-0.00,-0.00,31.47
18222184,1874,1,205134,236910,1.21,-0.23,9.95,-0.03,-0.01,-0.01,31.47
18262229,1910,1,205373,237369,1.25,-0.23,9.95,-0.04,-0.01,-0.00,31.47
18302184,1897,1,205237,236257,1.25,-0.24,9.92,-0.03,-0.01,-0.00,31.47
18342183,1941,1,204562,234270,1.21,-0.24,9.91,-0.03,-0.01,-0.01,31.47
18382184,1899,1,203984,233109,1.26,-0.22,9.93,-0.03,-0.01,-0.00,31.47
18422868,1915,1,203786,232582,1.24,-0.22,9.94,-0.03,-0.01,-0.01,31.47
18463184,1920,1,203709,232511,1.22,-0.24,9.93,-0.03,-0.01,-0.00,31.47
18503182,1942,1,203786,232869,1.24,-0.22,9.94,-0.03,-0.01,-0.00,31.47
18543184,1922,1,203940,233082,1.24,-0.23,9.92,-0.03,-0.01,-0.01,31.47
18583182,1910,1,204023,233081,1.22,-0.23,9.93,-0.03,-0.01,-0.00,31.47
18623184,1814,1,204031,233456,1.24,-0.23,9.91,-0.04,-0.01,-0.00,31.47
18663183,1946,1,204245,234315,1.24,-0.24,9.90,-0.04,-0.02,-0.00,31.47
18703184,1885,1,204425,235006,1.24,-0.24,9.92,-0.03,-0.01,-0.00,31.47
18743182,1968,1,204584,235542,1.22,-0.24,9.93,-0.03,-0.01,-0.00,31.47
18783184,1900,1,204697,235921,1.25,-0.23,9.94,-0.03,-0.01,-0.00,31.47
18823182,1920,1,204833,236088,1.26,-0.23,9.94,-0.03,-0.01,-0.01,31.47
18863184,1905,1,204923,236294,1.23,-0.24,9.94,-0.03,-0.01,-0.01,31.47
18903182,1904,1,204736,234684,1.24,-0.22,9.94,-0.03,-0.01,-0.00,31.47
18943183,1936,1,203873,231946,1.22,-0.20,9.93,-0.03,-0.01,-0.00,31.47
18983182,1882,1,203053,229993,1.22,-0.24,9.96,-0.03,-0.01,-0.00,31.47
19023184,1904,1,202850,230302,1.25,-0.23,9.92,-0.04,-0.01,-0.00,31.47
19063182,1919,1,203140,231714,1.24,-0.24,9.94,-0.03,-0.01,-0.00,31.47
19103184,1904,1,203620,233178,1.26,-0.24,9.93,-0.04,-0.01,-0.01,31.47
19143182,1872,1,204038,234003,1.22,-0.23,9.94,-0.03,-0.01,-0.00,31.47
19182184,1856,1,204158,234131,1.23,-0.19,9.94,-0.03,-0.01,-0.00,31.47
19222182,1869,1,204157,233869,1.22,-0.24,9.91,-0.03,-0.01,-0.00,31.47
19262184,1873,1,204145,233840,1.25,-0.24,9.93,-0.03,-0.01,-0.00,31.47
19302183,1894,1,204255,234073,1.23,-0.21,9.90,-0.04,-0.01,-0.00,31.47
19342184,1887,1,204373,234287,1.24,-0.21,9.92,-0.03,-0.01,-0.01,31.47
19382182,1920,1,204467,234378,1.24,-0.24,9.94,-0.03,-0.01,-0.00,31.47
19422184,1892,1,204621,234957,1.24,-0.23,9.96,-0.03,-0.01,-0.00,31.47
19462868,1891,1,204815,235641,1.22,-0.22,9.94,-0.03,-0.01,-0.00,31.41
19501185,1864,1,204910,235160,1.23,-0.25,9.94,-0.03,-0.01,-0.01,31.41
19541182,1942,1,204311,233135,1.23,-0.22,9.92,-0.03,-0.01,-0.01,31.41
19581185,1899,1,203661,231638,1.24,-0.23,9.95,-0.03,-0.01,-0.00,31.41
19621183,1927,1,203306,231011,1.23,-0.23,9.94,-0.03,-0.01,-0.00,31.41
19661184,1910,1,203212,230992,1.23,-0.25,9.95,-0.03,-0.01,-0.00,31.41
19701182,1923,1,203276,231441,1.24,-0.23,9.92,-0.03,-0.01,-0.01,31.41
19741184,1937,1,203532,231636,1.25,-0.25,9.96,-0.03,-0.01,-0.01,31.41
19781182,1887,1,203461,231076,1.23,-0.26,9.95,-0.03,-0.00,-0.00,31.41
19821183,1904,1,203434,231283,1.24,-0.22,9.93,-0.03,-0.01,-0.00,31.41
19861182,1951,1,203590,232585,1.25,-0.23,9.94,-0.04,-0.02,-0.01,31.41
19901184,1875,1,203996,233677,1.23,-0.24,9.92,-0.03,-0.01,-0.01,31.41
19941183,1903,1,204283,234441,1.23,-0.23,9.91,-0.03,-0.01,-0.00,31.41
19981184,1878,1,204462,234779,1.25,-0.22,9.94,-0.03,-0.01,-0.00,31.41
20021183,1940,1,204503,234855,1.24,-0.24,9.94,-0.03,-0.01,-0.01,31.41
20061184,1901,1,204618,235205,1.23,-0.25,9.95,-0.03,-0.01,-0.00,31.41
20101182,1926,1,204759,235364,1.23,-0.20,9.94,-0.04,-0.01,-0.00,31.41
20141184,1927,1,204694,234222,1.24,-0.24,9.90,-0.03,-0.01,-0.01,31.41
20181182,1911,1,203807,231345,1.22,-0.23,9.95,-0.03,-0.01,-0.00,31.41
20221184,1904,1,203066,230556,1.23,-0.24,9.92,-0.04,-0.01,-0.01,31.41
20261182,1899,1,203194,231529,1.23,-0.23,9.91,-0.03,-0.01,-0.01,31.41
20301184,1843,1,203548,232541,1.23,-0.24,9.93,-0.03,-0.01,-0.00,31.41
20341182,1940,1,203851,233458,1.22,-0.24,9.94,-0.03,-0.01,-0.00,31.41
20381184,1884,1,204087,233858,1.23,-0.23,9.93,-0.03,-0.01,-0.00,31.41
20421183,1918,1,204166,234022,1.24,-0.24,9.92,-0.03,-0.01,-0.00,31.41
20461184,1897,1,204284,234327,1.24,-0.23,9.92,-0.03,-0.01,-0.00,31.41
20501868,1863,1,204448,234582,1.24,-0.19,9.92,-0.03,-0.01,-0.00,31.21
20542184,1907,1,204500,234756,1.24,-0.23,9.94,-0.03,-0.01,-0.00,31.21
20582183,1923,1,204624,235328,1.23,-0.24,9.92,-0.04,-0.01,-0.00,31.21
20622184,1953,1,204835,236051,1.24,-0.23,9.93,-0.03,-0.01,-0.00,31.21
20662182,1878,1,205057,236511,1.24,-0.24,9.95,-0.03,-0.01,-0.00,31.21
20702184,1904,1,205134,236709,1.22,-0.23,9.91,-0.03,-0.01,-0.01,31.21
20742183,1902,1,205199,236566,1.22,-0.23,9.92,-0.03,-0.01,-0.00,31.21
20782184,1886,1,204811,234240,1.25,-0.23,9.95,-0.03,-0.01,-0.00,31.21
20822182,1899,1,203831,231252,1.25,-0.26,9.90,-0.03,-0.01,-0.00,31.21
20862183,1904,1,203137,230097,1.24,-0.23,9.93,-0.03,-0.01,-0.01,31.21
20902183,1885,1,203042,230268,1.23,-0.22,9.91,-0.03,-0.01,-0.00,31.21
20942184,1894,1,203105,230232,1.23,-0.23,9.92,-0.03,-0.01,-0.00,31.21
20982182,1936,1,203228,231104,1.23,-0.23,9.94,-0.03,-0.01,-0.01,31.21
21022249,1842,1,203611,232328,1.25,-0.23,9.93,-0.04,-0.01,-0.00,31.21
21062183,1907,1,203862,232944,1.26,-0.23,9.92,-0.03,-0.01,-0.00,31.21
21102184,1915,1,203934,233024,1.23,-0.25,9.93,-0.03,-0.01,-0.00,31.21
21142182,1905,1,203996,233169,1.24,-0.21,9.95,-0.03,-0.01,-0.00,31.21
21182184,1901,1,204044,233002,1.24,-0.24,9.92,-0.03,-0.01,-0.00,31.21
21222182,1890,1,204020,233191,1.23,-0.23,9.92,-0.03,-0.01,-0.00,31.21
21262184,1889,1,204184,233762,1.23,-0.23,9.93,-0.04,-0.01,-0.00,31.21
21302183,1886,1,204346,234132,1.25,-0.21,9.93,-0.04,-0.01,-0.00,31.21
21342184,1858,1,204424,234387,1.23,-0.23,9.89,-0.03,-0.01,-0.01,31.21
21382183,1919,1,204405,233410,1.25,-0.20,9.94,-0.04,-0.01,-0.00,31.21
21422183,1922,1,203623,231141,1.25,-0.23,9.93,-0.03,-0.01,-0.01,31.21
21462182,1852,1,202962,230163,1.22,-0.23,9.97,-0.03,-0.01,-0.01,31.21
21502870,1829,1,202894,230163,1.23,-0.24,9.92,-0.03,-0.01,-0.00,31.25
21541182,1881,1,202996,230375,1.25,-0.23,9.90,-0.03,-0.01,-0.00,31.25
21581184,1893,1,203103,230790,1.26,-0.24,9.90,-0.03,-0.01,-0.00,31.25
21621182,1873,1,203263,231218,1.22,-0.23,9.91,-0.03,-0.01,-0.00,31.25
21661184,1897,1,203392,231526,1.22,-0.23,9.93,-0.03,-0.01,-0.00,31.25
21701182,1847,1,203500,231986,1.24,-0.22,9.92,-0.03,-0.01,-0.00,31.25
21741184,1889,1,203679,232740,1.22,-0.23,9.93,-0.03,-0.01,-0.00,31.25
21781182,1893,1,203994,233496,1.24,-0.23,9.93,-0.03,-0.01,-0.00,31.25
21821184,1931,1,204271,234190,1.24,-0.23,9.91,-0.03,-0.01,-0.01,31.25
21861182,1902,1,204457,234760,1.23,-0.24,9.91,-0.03,-0.01,-0.00,31.25
21901184,1891,1,204678,235235,1.23,-0.23,9.94,-0.03,-0.01,-0.01,31.25
21941183,1887,1,204914,235710,1.22,-0.21,9.92,-0.03,-0.01,-0.00,31.25
21981184,1895,1,205023,235986,1.24,-0.23,9.94,-0.03,-0.01,-0.00,31.25
22021182,1878,1,205005,234702,1.21,-0.25,9.92,-0.03,-0.01,-0.00,31.25
22061184,1920,1,204006,231423,1.23,-0.21,9.95,-0.03,-0.01,-0.00,31.25
22101183,1893,1,203103,229963,1.23,-0.22,9.93,-0.03,-0.01,-0.01,31.25
22141184,1883,1,203000,230147,1.24,-0.23,9.93,-0.03,-0.01,-0.00,31.25
22181182,1869,1,203177,230889,1.22,-0.24,9.94,-0.03,-0.01,-0.00,31.25
22221184,1858,1,203483,232141,1.25,-0.20,9.90,-0.03,-0.01,-0.00,31.25
22261182,1881,1,203943,233240,1.25,-0.24,9.91,-0.03,-0.01,-0.00,31.25
22301184,1893,1,204226,233832,1.25,-0.26,9.94,-0.03,-0.01,-0.00,31.25
22341183,1914,1,204396,234432,1.23,-0.23,9.92,-0.03,-0.01,-0.00,31.25
22381184,1925,1,204628,235079,1.24,-0.25,9.94,-0.03,-0.01,-0.00,31.25
22421182,1888,1,204762,235507,1.23,-0.24,9.91,-0.03,-0.01,-0.01,31.25
22461191,1926,1,204930,236013,1.25,-0.21,9.94,-0.03,-0.01,-0.00,31.25
22501182,1931,1,205099,236448,1.21,-0.20,9.95,-0.03,-0.01,-0.00,31.25
22541870,1906,1,205231,236827,1.22,-0.23,9.94,-0.03,-0.01,-0.01,31.13
22580183,1926,1,205346,237124,1.23,-0.24,9.94,-0.03,-0.01,-0.00,31.13
22620184,1884,1,205472,237395,1.25,-0.22,9.94,-0.03,-0.01,-0.00,31.13
22660218,1911,1,205437,236614,1.24,-0.21,9.92,-0.03,-0.01,-0.00,31.13
22700184,1997,1,204792,234227,1.22,-0.22,9.91,-0.03,-0.01,-0.00,31.13
22740183,1923,1,203970,232590,1.24,-0.24,9.93,-0.03,-0.01,-0.00,31.13
22780184,1872,1,203731,232432,1.24,-0.21,9.91,-0.03,-0.01,-0.00,31.13
22820182,1920,1,203809,232653,1.24,-0.23,9.93,-0.03,-0.01,-0.00,31.13
22860184,1913,1,203942,233263,1.24,-0.24,9.95,-0.03,-0.01,-0.00,31.13
22900183,1921,1,204231,234332,1.23,-0.24,9.94,-0.03,-0.01,-0.00,31.13
22940184,1939,1,204657,235238,1.23,-0.23,9.93,-0.04,-0.02,-0.00,31.13
22980183,1927,1,204862,235606,1.24,-0.25,9.98,-0.03,-0.00,-0.01,31.13
23020184,1882,1,205019,235845,1.22,-0.25,9.97,-0.03,-0.01,-0.00,31.13
23060182,1947,1,205220,236722,1.22,-0.23,9.91,-0.04,-0.02,-0.00,31.13
23100184,1915,1,205490,237369,1.26,-0.23,9.92,-0.03,-0.01,-0.01,31.13
23140182,1905,1,205621,237753,1.23,-0.23,9.94,-0.03,-0.01,-0.00,31.13
23180184,1941,1,205731,237938,1.23,-0.23,9.93,-0.03,-0.01,-0.00,31.13
23220183,1919,1,205774,237910,1.24,-0.23,9.94,-0.03,-0.01,-0.00,31.13
23260184,1920,1,205744,237663,1.22,-0.23,9.91,-0.03,-0.01,-0.00,31.13
23300182,1909,1,205399,235503,1.24,-0.21,9.88,-0.04,-0.01,-0.00,31.13
23340184,1869,1,204388,232644,1.26,-0.24,9.93,-0.03,-0.01,-0.00,31.13
23380183,1847,1,203823,232317,1.22,-0.22,9.95,-0.03,-0.02,-0.01,31.13
23420184,1927,1,204088,233587,1.25,-0.26,9.91,-0.04,-0.02,-0.00,31.13
23460183,1879,1,204352,234405,1.24,-0.24,9.92,-0.03,-0.01,-0.01,31.13
23500184,1856,1,204593,234871,1.24,-0.25,9.92,-0.03,-0.01,-0.01,31.13
23540182,1858,1,204682,234915,1.23,-0.22,9.91,-0.03,-0.01,-0.00,31.13
23580870,1879,1,204595,234629,1.22,-0.23,9.95,-0.03,-0.01,-0.00,31.25
23621183,1854,1,204559,234382,1.22,-0.24,9.94,-0.03,-0.01,-0.00,31.25
23661184,1921,1,204590,234599,1.24,-0.23,9.94,-0.03,-0.01,-0.00,31.25
23701182,1877,1,204670,235052,1.24,-0.21,9.93,-0.03,-0.01,-0.00,31.25
23741184,1904,1,204847,235606,1.23,-0.24,9.91,-0.03,-0.01,-0.00,31.25
23781183,1873,1,205063,236208,1.25,-0.22,9.91,-0.03,-0.01,-0.00,31.25
23821184,1899,1,205228,236788,1.25,-0.23,9.95,-0.03,-0.01,-0.00,31.25
23861182,1892,1,205407,237198,1.23,-0.22,9.94,-0.03,-0.01,-0.00,31.25
23901184,1900,1,205489,236695,1.23,-0.21,9.90,-0.03,-0.01,-0.00,31.25
23941183,1902,1,204841,233750,1.23,-0.23,9.92,-0.03,-0.01,-0.00,31.25
23981184,1855,1,203650,231151,1.26,-0.23,9.93,-0.03,-0.01,-0.00,31.25
24021182,1907,1,203249,230678,1.21,-0.21,9.96,-0.03,-0.01,-0.00,31.25
24061184,1859,1,203238,230866,1.24,-0.23,9.92,-0.03,-0.01,-0.01,31.25
24099233,1923,1,203415,231393,1.24,-0.23,9.93,-0.03,-0.01,-0.00,31.25
24139185,1932,1,203610,231867,1.23,-0.23,9.93,-0.03,-0.01,-0.00,31.25
24179183,1965,1,203733,231914,1.22,-0.23,9.92,-0.03,-0.01,-0.00,31.25
24219184,1905,1,203716,231738,1.22,-0.23,9.92,-0.03,-0.01,-0.01,31.25
24259183,1984,1,203741,231761,1.23,-0.23,9.93,-0.03,-0.01,-0.01,31.25
24299207,1959,1,203761,231802,1.24,-0.24,9.91,-0.03,-0.01,-0.01,31.25
24339183,1961,1,203936,232184,1.22,-0.22,9.94,-0.03,-0.01,-0.00,31.25
24379184,1926,1,204132,232852,1.23,-0.21,9.94,-0.03,-0.01,-0.00,31.25
24419183,1936,1,204400,233695,1.26,-0.25,9.93,-0.03,-0.01,-0.01,31.25
24459185,1936,1,204677,234749,1.23,-0.22,9.93,-0.03,-0.01,-0.00,31.25
24499182,1906,1,204976,235573,1.24,-0.22,9.93,-0.03,-0.01,-0.00,31.25
24539185,1901,1,205195,235347,1.23,-0.22,9.93,-0.04,-0.01,-0.00,31.25
24579182,1935,1,204575,231926,1.24,-0.27,9.92,-0.03,-0.01,-0.00,31.25
24619870,1844,1,203083,228248,1.25,-0.22,9.92,-0.03,-0.01,-0.00,31.19
24660182,1893,1,202455,227812,1.21,-0.23,9.92,-0.03,-0.01,-0.01,31.19
24700184,1897,1,202642,228723,1.24,-0.23,9.92,-0.03,-0.01,-0.00,31.19
24740182,1901,1,203020,229828,1.25,-0.23,9.92,-0.04,-0.01,-0.01,31.19
24780184,1904,1,203354,230792,1.25,-0.24,9.92,-0.03,-0.01,-0.01,31.19
24820182,1882,1,203614,231311,1.23,-0.22,9.94,-0.03,-0.01,-0.00,31.19
24860184,1904,1,203782,231862,1.23,-0.23,9.92,-0.03,-0.01,-0.00,31.19
24900182,1878,1,203939,232670,1.23,-0.23,9.92,-0.03,-0.01,-0.00,31.19
24940184,1893,1,204257,233579,1.24,-0.24,9.94,-0.03,-0.01,-0.00,31.19
24980182,1879,1,204525,234376,1.22,-0.23,9.93,-0.03,-0.01,-0.00,31.19
25020184,1906,1,204783,234944,1.23,-0.22,9.95,-0.03,-0.01,-0.00,31.19
25060183,1879,1,204982,235585,1.23,-0.23,9.94,-0.03,-0.01,-0.00,31.19
25100184,1902,1,205197,236193,1.23,-0.24,9.92,-0.03,-0.01,-0.00,31.19
25140182,1866,1,205371,236612,1.22,-0.23,9.94,-0.03,-0.01,-0.00,31.19
25180184,1899,1,205545,236680,1.24,-0.22,9.92,-0.03,-0.01,-0.00,31.19
25220182,1882,1,205060,234274,1.23,-0.23,9.93,-0.03,-0.01,-0.01,31.19
25260184,1874,1,204005,231780,1.23,-0.23,9.95,-0.03,-0.01,-0.00,31.19
25300182,1918,1,203682,231842,1.25,-0.23,9.91,-0.03,-0.01,-0.00,31.19
25340184,1906,1,203823,232378,1.21,-0.24,9.95,-0.03,-0.01,-0.01,31.19
25380183,1879,1,204036,233165,1.24,-0.21,9.94,-0.03,-0.01,-0.00,31.19
25420184,1904,1,204350,234070,1.21,-0.25,9.93,-0.03,-0.01,-0.00,31.19
25460183,1890,1,204561,234214,1.24,-0.23,9.94,-0.03,-0.01,-0.00,31.19
25500184,1877,1,204584,234475,1.25,-0.23,9.94,-0.03,-0.01,-0.00,31.19
25540183,1891,1,204680,234911,1.22,-0.23,9.92,-0.03,-0.01,-0.00,31.19
25580184,1889,1,204900,235243,1.24,-0.22,9.94,-0.03,-0.01,-0.01,31.19
25620868,1907,1,205025,235617,1.24,-0.24,9.91,-0.03,-0.01,-0.00,31.21
25659184,1883,1,205165,236070,1.23,-0.23,9.93,-0.03,-0.01,-0.01,31.21
25699182,1923,1,205313,236458,1.27,-0.24,9.91,-0.03,-0.01,-0.00,31.21
25739205,1904,1,205456,236616,1.25,-0.23,9.92,-0.03,-0.01,-0.00,31.21
25779182,1923,1,205532,236495,1.22,-0.23,9.90,-0.03,-0.01,-0.00,31.21
25819184,1889,1,205026,233938,1.27,-0.20,9.92,-0.03,-0.01,-0.00,31.21
25859183,1922,1,203821,231191,1.24,-0.24,9.92,-0.03,-0.01,-0.00,31.21
25899184,1899,1,203394,230963,1.23,-0.23,9.93,-0.04,-0.01,-0.01,31.21
25939201,1888,1,203444,231123,1.24,-0.24,9.91,-0.03,-0.01,-0.00,31.21
25979184,1879,1,203577,231517,1.26,-0.23,9.92,-0.03,-0.01,-0.00,31.21
26019183,1880,1,203817,232167,1.23,-0.23,9.94,-0.03,-0.01,-0.00,31.21
26059184,1899,1,203981,232318,1.23,-0.23,9.91,-0.03,-0.01,-0.00,31.21
26099182,1917,1,203969,232443,1.23,-0.22,9.92,-0.03,-0.01,-0.00,31.21
26139202,1902,1,204014,232578,1.23,-0.23,9.96,-0.03,-0.01,-0.00,31.21
26179182,1906,1,204136,232880,1.23,-0.23,9.94,-0.03,-0.01,-0.00,31.21
26219184,1918,1,204214,232897,1.23,-0.24,9.93,-0.03,-0.01,-0.00,31.21
26259182,1872,1,204259,233099,1.24,-0.23,9.93,-0.03,-0.01,-0.00,31.21
26299184,1893,1,204402,233861,1.25,-0.24,9.95,-0.03,-0.01,-0.01,31.21
26339183,1905,1,204731,234691,1.24,-0.23,9.93,-0.04,-0.01,-0.00,31.21
26379184,1904,1,204942,234914,1.22,-0.22,9.94,-0.03,-0.01,-0.01,31.21
26419182,1872,1,204609,232427,1.21,-0.23,9.92,-0.03,-0.01,-0.01,31.21
26459184,1866,1,203273,228780,1.25,-0.25,9.94,-0.03,-0.01,-0.00,31.21
26499182,1902,1,202562,228003,1.23,-0.22,9.94,-0.03,-0.01,-0.00,31.21
26539184,1904,1,202598,228396,1.24,-0.23,9.94,-0.03,-0.01,-0.00,31.21
26579182,1903,1,202758,229028,1.24,-0.23,9.95,-0.03,-0.01,-0.00,31.21
26619184,1889,1,203045,229919,1.24,-0.24,9.94,-0.03,-0.01,-0.00,31.21
26659919,1874,1,203315,230536,1.24,-0.24,9.92,-0.03,-0.01,-0.00,31.21
26698185,1940,1,203450,230787,1.24,-0.24,9.95,-0.03,-0.01,-0.00,31.21
26738183,1950,1,203558,231112,1.23,-0.24,9.91,-0.03,-0.01,-0.01,31.21
26778188,1961,1,203717,231530,1.23,-0.22,9.93,-0.03,-0.01,-0.00,31.21
26818183,1930,1,203852,231628,1.24,-0.23,9.92,-0.03,-0.01,-0.00,31.21
26858184,1942,1,203927,231726,1.23,-0.23,9.92,-0.03,-0.01,-0.00,31.21
26898183,1946,1,204193,232838,1.24,-0.21,9.92,-0.03,-0.01,-0.01,31.21
26938187,1937,1,204646,233951,1.24,-0.22,9.94,-0.03,-0.01,-0.00,31.21
26978183,1962,1,205050,234961,1.22,-0.24,9.93,-0.03,-0.01,-0.00,31.21
27018185,1968,1,205369,235592,1.22,-0.22,9.97,-0.04,-0.01,-0.00,31.21
27058183,1963,1,205209,233899,1.25,-0.24,9.93,-0.04,-0.01,-0.00,31.21
27098185,1962,1,204119,230465,1.24,-0.26,9.93,-0.03,-0.01,-0.00,31.21
27138182,1968,1,203146,228739,1.24,-0.23,9.96,-0.03,-0.01,-0.00,31.21
27179184,1955,1,202896,228599,1.21,-0.23,9.90,-0.04,-0.01,-0.01,31.21
27219183,1930,1,203031,229265,1.22,-0.24,9.91,-0.03,-0.01,-0.00,31.21
27259184,1936,1,203372,230542,1.24,-0.22,9.96,-0.03,-0.01,-0.00,31.21
27299183,1923,1,203829,231550,1.24,-0.24,9.91,-0.03,-0.01,-0.00,31.21
27339184,1907,1,204101,232244,1.24,-0.23,9.90,-0.03,-0.01,-0.00,31.21
27379183,1931,1,204284,232838,1.23,-0.24,9.94,-0.04,-0.01,-0.00,31.21
27419184,1924,1,204481,233491,1.26,-0.23,9.91,-0.03,-0.01,-0.00,31.21
27459182,1914,1,204687,234294,1.24,-0.24,9.91,-0.03,-0.01,-0.00,31.21
27499184,1904,1,204963,234956,1.23,-0.23,9.91,-0.03,-0.01,-0.00,31.21
27539182,1870,1,205187,235599,1.26,-0.22,9.93,-0.03,-0.01,-0.00,31.21
27579184,1923,1,205411,236330,1.23,-0.23,9.92,-0.04,-0.02,-0.00,31.21
27619183,1919,1,205576,236753,1.23,-0.25,9.91,-0.03,-0.01,-0.01,31.21
27659184,1905,1,205729,236888,1.26,-0.23,9.90,-0.03,-0.01,-0.01,31.21
27699868,1889,1,205592,235629,1.26,-0.23,9.93,-0.03,-0.01,-0.00,31.27
27738184,1907,1,204674,232328,1.24,-0.24,9.96,-0.03,-0.01,-0.00,31.27
27778186,1906,1,203624,230186,1.27,-0.24,9.92,-0.03,-0.01,-0.01,31.27
27818184,1918,1,203393,230343,1.24,-0.24,9.91,-0.03,-0.01,-0.00,31.27
27858182,1904,1,203601,231229,1.23,-0.24,9.96,-0.03,-0.01,-0.01,31.27
27898184,1890,1,203952,232347,1.25,-0.23,9.93,-0.03,-0.01,-0.00,31.27
27938183,1871,1,204312,233209,1.25,-0.24,9.94,-0.03,-0.01,-0.01,31.27
27978184,1871,1,204527,233614,1.26,-0.24,9.91,-0.03,-0.01,-0.00,31.27
28018182,1937,1,204705,234053,1.25,-0.24,9.92,-0.03,-0.02,-0.01,31.27
28058184,1882,1,204822,233979,1.24,-0.24,9.92,-0.03,-0.01,-0.00,31.27
28098182,1903,1,204795,233905,1.24,-0.22,9.94,-0.03,-0.01,-0.01,31.27
28138185,1872,1,204837,233969,1.24,-0.23,9.93,-0.03,-0.01,-0.00,31.27
28178183,1891,1,204929,234283,1.24,-0.24,9.92,-0.03,-0.01,-0.01,31.27
28219184,1891,1,205076,234624,1.24,-0.24,9.94,-0.03,-0.01,-0.00,31.27
28259183,1905,1,205174,234928,1.23,-0.25,9.92,-0.03,-0.01,-0.01,31.27
28299184,1888,1,205277,235038,1.23,-0.23,9.91,-0.03,-0.01,-0.00,31.27
28339183,1903,1,204998,232888,1.23,-0.22,9.95,-0.03,-0.01,-0.01,31.27
28379184,1925,1,203656,228623,1.23,-0.23,9.94,-0.03,-0.01,-0.00,31.27
28419183,1886,1,202662,226958,1.24,-0.23,9.95,-0.03,-0.01,-0.01,31.27
28459184,1914,1,202460,226896,1.24,-0.23,9.93,-0.03,-0.01,-0.00,31.27
28499183,1907,1,202518,227355,1.22,-0.24,9.92,-0.03,-0.01,-0.00,31.27
28539184,1904,1,202743,228331,1.23,-0.23,9.95,-0.03,-0.01,-0.00,31.27
28579183,1893,1,203040,229095,1.24,-0.23,9.91,-0.03,-0.01,-0.00,31.27
28619184,1869,1,203216,229197,1.24,-0.23,9.92,-0.03,-0.01,-0.01,31.27
28659183,1906,1,203174,229282,1.24,-0.23,9.95,-0.03,-0.01,-0.00,31.27
28699184,1903,1,203165,229372,1.23,-0.22,9.92,-0.03,-0.01,-0.00,31.27
28739868,1857,1,203308,229651,1.25,-0.23,9.93,-0.03,-0.01,-0.00,31.35
28778184,1917,1,203508,230252,1.23,-0.25,9.93,-0.03,-0.01,-0.00,31.35
28818182,1903,1,203691,230515,1.23,-0.24,9.94,-0.03,-0.01,-0.00,31.35
28858184,1893,1,203743,230763,1.24,-0.21,9.92,-0.03,-0.01,-0.00,31.35
28898182,1885,1,203924,231335,1.22,-0.22,9.89,-0.03,-0.01,-0.01,31.35
28938184,1888,1,204086,231052,1.24,-0.23,9.93,-0.03,-0.01,-0.00,31.35
28978183,1921,1,203253,227036,1.22,-0.23,9.94,-0.03,-0.01,-0.01,31.35
29018184,1911,1,201880,224629,1.24,-0.24,9.93,-0.03,-0.01,-0.00,31.35
29058183,1904,1,201596,224467,1.24,-0.24,9.93,-0.03,-0.01,-0.01,31.35
29098184,1891,1,201694,224694,1.23,-0.23,9.92,-0.03,-0.01,-0.01,31.35
29138183,1892,1,201784,225101,1.23,-0.23,9.95,-0.03,-0.01,-0.00,31.35
29178184,1893,1,202024,225712,1.23,-0.23,9.95,-0.03,-0.01,-0.00,31.35
29217183,1954,1,202192,226183,1.23,-0.23,9.93,-0.03,-0.01,-0.00,31.35
29257185,1963,1,202358,226430,1.25,-0.23,9.92,-0.03,-0.01,-0.00,31.35
29297182,1902,1,202490,226788,1.23,-0.24,9.92,-0.03,-0.01,-0.00,31.35
29337185,1971,1,202731,227429,1.24,-0.22,9.90,-0.03,-0.01,-0.00,31.35
29377182,1938,1,202982,228123,1.23,-0.23,9.94,-0.03,-0.01,-0.00,31.35
29417184,1925,1,203178,228687,1.25,-0.23,9.92,-0.03,-0.01,-0.00,31.35
29457182,1923,1,203381,229241,1.24,-0.23,9.92,-0.03,-0.01,-0.00,31.35
29497184,1940,1,203578,229965,1.23,-0.23,9.93,-0.03,-0.01,-0.00,31.35
29537183,1897,1,203790,230466,1.25,-0.23,9.92,-0.03,-0.01,-0.00,31.35
29577185,1936,1,203746,228965,1.25,-0.23,9.94,-0.03,-0.01,-0.00,31.35
29617182,1923,1,202493,224608,1.22,-0.22,9.92,-0.03,-0.01,-0.00,31.35
29657184,1938,1,201378,223039,1.21,-0.23,9.92,-0.03,-0.01,-0.01,31.35
29697182,1934,1,201256,223236,1.22,-0.23,9.92,-0.03,-0.01,-0.00,31.35
29737184,1947,1,201372,223818,1.23,-0.23,9.95,-0.03,-0.01,-0.00,31.35
29777869,1904,1,201574,224603,1.22,-0.23,9.93,-0.03,-0.01,-0.00,31.41
29818184,1919,1,201873,225091,1.23,-0.22,9.95,-0.03,-0.01,-0.00,31.41
29858182,1882,1,201906,224792,1.25,-0.23,9.91,-0.03,-0.01,-0.00,31.41
29898184,1877,1,201837,224897,1.23,-0.23,9.94,-0.03,-0.01,-0.00,31.41
29938194,1902,1,201979,225320,1.24,-0.24,9.93,-0.03,-0.01,-0.01,31.41
29978184,1856,1,202194,226116,1.24,-0.25,9.95,-0.03,-0.01,-0.01,31.41
30018183,1872,1,202460,227038,1.22,-0.24,9.93,-0.03,-0.01,-0.00,31.41
30058184,1892,1,202791,227873,1.24,-0.21,9.93,-0.03,-0.01,-0.00,31.41
30098183,1881,1,203015,228474,1.22,-0.23,9.91,-0.03,-0.01,-0.00,31.41
30138184,1866,1,203193,229090,1.23,-0.23,9.92,-0.03,-0.01,-0.00,31.41
30178183,1886,1,203443,229631,1.24,-0.24,9.90,-0.03,-0.01,-0.00,31.41
30218184,1901,1,203468,228050,1.23,-0.20,9.91,-0.03,-0.01,-0.00,31.41
30258183,1895,1,202203,224091,1.23,-0.23,9.93,-0.03,-0.01,-0.00,31.41
30298185,1913,1,201244,222907,1.24,-0.23,9.93,-0.03,-0.01,-0.00,31.41
30338183,1917,1,201220,223323,1.23,-0.23,9.89,-0.03,-0.01,-0.00,31.41
30378184,1911,1,201515,224117,1.22,-0.22,9.96,-0.03,-0.01,-0.00,31.41
30418183,1893,1,201865,225273,1.24,-0.23,9.94,-0.03,-0.01,-0.01,31.41
30458184,1911,1,202294,226304,1.25,-0.24,9.94,-0.03,-0.01,-0.00,31.41
30498183,1921,1,202557,226914,1.23,-0.22,9.92,-0.03,-0.01,-0.00,31.41
30538184,1904,1,202794,227553,1.23,-0.23,9.92,-0.03,-0.01,-0.00,31.41
30578183,1899,1,203059,228280,1.24,-0.23,9.92,-0.03,-0.01,-0.00,31.41
30618184,1920,1,203358,229070,1.23,-0.23,9.92,-0.03,-0.01,-0.00,31.41
30658183,1873,1,203682,229976,1.23,-0.23,9.93,-0.03,-0.01,-0.00,31.41
30698184,1937,1,203912,230649,1.24,-0.23,9.90,-0.03,-0.01,-0.00,31.41
30738183,1900,1,204167,231373,1.22,-0.23,9.94,-0.03,-0.01,-0.01,31.41
30778870,1882,1,204312,232069,1.23,-0.25,9.94,-0.03,-0.01,-0.00,31.49
30817183,1907,1,204566,232749,1.24,-0.24,9.94,-0.03,-0.01,-0.00,31.49
30857184,1908,1,204579,231330,1.25,-0.23,9.93,-0.03,-0.01,-0.00,31.49
30897182,1898,1,203354,227241,1.24,-0.23,9.93,-0.03,-0.01,-0.00,31.49
30937184,1919,1,202409,226318,1.24,-0.23,9.92,-0.03,-0.01,-0.00,31.49
30977182,1904,1,202400,226716,1.24,-0.23,9.93,-0.03,-0.01,-0.00,31.49
31017184,1882,1,202631,227322,1.24,-0.23,9.93,-0.03,-0.01,-0.00,31.49
31057220,1903,1,202908,228242,1.22,-0.23,9.92,-0.03,-0.01,-0.00,31.49
31097184,1899,1,203145,228656,1.23,-0.23,9.92,-0.03,-0.01,-0.00,31.49
31137183,1926,1,203230,228972,1.23,-0.23,9.91,-0.03,-0.01,-0.01,31.49
31177184,1895,1,203303,229062,1.23,-0.23,9.92,-0.03,-0.01,-0.01,31.49
31217183,1882,1,203329,229356,1.22,-0.25,9.92,-0.03,-0.01,-0.00,31.49
31257184,1919,1,203481,229727,1.24,-0.23,9.94,-0.03,-0.01,-0.00,31.49
31297183,1909,1,203675,230495,1.25,-0.24,9.92,-0.03,-0.01,-0.01,31.49
31337184,1905,1,203908,231196,1.22,-0.23,9.94,-0.03,-0.01,-0.00,31.49
31377182,1892,1,204125,231667,1.24,-0.21,9.94,-0.03,-0.01,-0.00,31.49
31417184,1906,1,204253,231917,1.22,-0.24,9.93,-0.03,-0.01,-0.01,31.49
31457182,1899,1,204263,231205,1.23,-0.25,9.92,-0.03,-0.01,-0.01,31.49
31497184,1934,1,203376,227026,1.24,-0.24,9.94,-0.03,-0.01,-0.00,31.49
31537183,1889,1,201937,224035,1.24,-0.24,9.94,-0.03,-0.01,-0.00,31.49
31577184,1919,1,201455,223626,1.24,-0.23,9.94,-0.03,-0.01,-0.00,31.49
31617182,1904,1,201529,223835,1.25,-0.23,9.93,-0.03,-0.01,-0.00,31.49
31657184,1893,1,201584,224356,1.22,-0.23,9.90,-0.03,-0.01,-0.00,31.49
31697182,1910,1,201901,225484,1.25,-0.26,9.93,-0.03,-0.01,-0.01,31.49
31737184,1906,1,202160,225588,1.24,-0.23,9.93,-0.03,-0.01,-0.00,31.49
31777183,1890,1,202102,225197,1.23,-0.27,9.94,-0.03,-0.01,-0.00,31.49
31817870,1875,1,201970,225051,1.24,-0.23,9.92,-0.03,-0.01,-0.00,31.49
31858183,1874,1,202034,225233,1.22,-0.22,9.93,-0.03,-0.01,-0.00,31.49
31896184,1973,1,202143,225631,1.22,-0.24,9.91,-0.03,-0.01,-0.00,31.49
31936182,1925,1,202293,226172,1.25,-0.22,9.94,-0.03,-0.01,-0.00,31.49
31976185,1957,1,202542,226736,1.25,-0.23,9.92,-0.03,-0.01,-0.00,31.49
32016183,1954,1,202815,227374,1.24,-0.22,9.93,-0.03,-0.01,-0.00,31.49
32056185,1936,1,202943,227650,1.23,-0.23,9.94,-0.03,-0.01,-0.00,31.49
32096183,1970,1,202931,226340,1.24,-0.23,9.94,-0.03,-0.01,-0.01,31.49
32136188,1968,1,201703,221490,1.23,-0.24,9.94,-0.03,-0.01,-0.01,31.49
32176183,1936,1,200295,219052,1.25,-0.20,9.92,-0.03,-0.01,-0.00,31.49
32216184,1936,1,200117,219793,1.23,-0.23,9.90,-0.03,-0.01,-0.00,31.49
32256182,1967,1,200492,220809,1.25,-0.23,9.93,-0.03,-0.01,-0.00,31.49
32296184,1953,1,200816,221968,1.24,-0.22,9.92,-0.03,-0.01,-0.00,31.49
32336183,1925,1,201408,223427,1.23,-0.23,9.92,-0.03,-0.01,-0.01,31.49
32376188,1935,1,201737,224207,1.22,-0.21,9.93,-0.03,-0.01,-0.00,31.49
32416183,1947,1,201964,224895,1.21,-0.24,9.93,-0.03,-0.01,-0.01,31.49
32456184,1926,1,202195,225570,1.22,-0.23,9.94,-0.03,-0.01,-0.01,31.49
32496182,1957,1,202418,226119,1.23,-0.21,9.92,-0.03,-0.01,-0.00,31.49
32536184,1936,1,202604,226612,1.23,-0.21,9.90,-0.03,-0.01,-0.00,31.49
32576183,1926,1,202842,227332,1.24,-0.24,9.92,-0.03,-0.01,-0.00,31.49
32616185,1913,1,203109,228030,1.25,-0.22,9.93,-0.03,-0.01,-0.01,31.49
32656183,1938,1,203295,228766,1.22,-0.23,9.92,-0.03,-0.01,-0.01,31.49
32696195,1939,1,203579,229397,1.23,-0.22,9.92,-0.03,-0.01,-0.00,31.49
32736183,1901,1,203611,228378,1.25,-0.22,9.93,-0.03,-0.01,-0.01,31.49
32776185,1888,1,202468,224294,1.25,-0.23,9.92,-0.03,-0.01,-0.00,31.49
32816183,1921,1,201419,223089,1.24,-0.23,9.95,-0.03,-0.01,-0.00,31.49
32856870,1904,1,201513,223844,1.24,-0.25,9.95,-0.03,-0.01,-0.00,31.43
32897205,1900,1,201884,224818,1.23,-0.23,9.93,-0.03,-0.01,-0.00,31.43
32937184,1875,1,202251,226384,1.23,-0.24,9.92,-0.03,-0.01,-0.00,31.43
32977182,1890,1,202765,227755,1.23,-0.24,9.90,-0.03,-0.01,-0.00,31.43
33017184,1878,1,203085,228369,1.24,-0.23,9.92,-0.03,-0.01,-0.00,31.43
33057183,1875,1,203257,228818,1.22,-0.23,9.93,-0.03,-0.01,-0.00,31.43
33097184,1869,1,203427,229460,1.23,-0.24,9.95,-0.03,-0.01,-0.00,31.43
33137183,1886,1,203706,230203,1.23,-0.23,9.94,-0.03,-0.01,-0.00,31.43
33177185,1882,1,203909,230969,1.23,-0.23,9.93,-0.03,-0.01,-0.01,31.43
33217183,1863,1,204244,231692,1.22,-0.22,9.91,-0.03,-0.01,-0.00,31.43
33257184,1861,1,204478,232551,1.23,-0.23,9.91,-0.03,-0.01,-0.01,31.43
33297183,1914,1,204817,233267,1.23,-0.22,9.91,-0.03,-0.01,-0.00,31.43
33337184,1893,1,204954,233516,1.23,-0.23,9.94,-0.03,-0.01,-0.00,31.43
33377183,1879,1,204899,231889,1.24,-0.21,9.93,-0.03,-0.01,-0.01,31.43
33417184,1934,1,203583,227692,1.23,-0.25,9.92,-0.03,-0.01,-0.00,31.43
33457183,1890,1,202662,226579,1.24,-0.24,9.91,-0.03,-0.01,-0.00,31.43
33497184,1906,1,202603,226381,1.24,-0.24,9.91,-0.03,-0.01,-0.00,31.43
33537183,1925,1,202622,226280,1.24,-0.23,9.90,-0.03,-0.01,-0.00,31.43
33577183,1881,1,202695,226427,1.25,-0.25,9.90,-0.03,-0.01,-0.00,31.43
33617183,1903,1,202802,226315,1.22,-0.23,9.92,-0.03,-0.01,-0.00,31.43
33657184,1902,1,202721,225882,1.24,-0.22,9.93,-0.03,-0.01,-0.01,31.43
33697182,1901,1,202574,225693,1.24,-0.25,9.91,-0.03,-0.01,-0.00,31.43
33737184,1926,1,202579,225744,1.24,-0.23,9.93,-0.03,-0.01,-0.00,31.43
33777182,1921,1,202638,226100,1.23,-0.24,9.92,-0.03,-0.01,-0.00,31.43
33817184,1903,1,202809,226842,1.24,-0.23,9.93,-0.03,-0.01,-0.00,31.43
33857868,1877,1,203052,227721,1.22,-0.22,9.94,-0.03,-0.01,-0.01,31.29
33896184,1920,1,203383,228649,1.24,-0.23,9.92,-0.03,-0.01,-0.01,31.29
33936182,1911,1,203666,229526,1.24,-0.23,9.95,-0.03,-0.01,-0.00,31.29
33976184,1915,1,203771,228371,1.23,-0.23,9.94,-0.03,-0.01,-0.00,31.29
34016183,1917,1,202595,224397,1.24,-0.21,9.93,-0.03,-0.01,-0.00,31.29
34056184,1933,1,201617,223192,1.24,-0.23,9.93,-0.03,-0.01,-0.01,31.29
34096183,1897,1,201560,223638,1.24,-0.23,9.93,-0.03,-0.01,-0.00,31.29
34136184,1925,1,201772,224129,1.24,-0.23,9.96,-0.03,-0.01,-0.00,31.29
34176182,1890,1,201992,225059,1.22,-0.21,9.92,-0.03,-0.01,-0.00,31.29
34216184,1897,1,202344,225807,1.25,-0.22,9.93,-0.03,-0.01,-0.00,31.29
34256183,1914,1,202409,225825,1.24,-0.23,9.91,-0.03,-0.01,-0.01,31.29
34296184,1905,1,202398,225697,1.24,-0.25,9.94,-0.03,-0.01,-0.00,31.29
34336188,1907,1,202402,225614,1.24,-0.23,9.95,-0.03,-0.01,-0.01,31.29
34376184,1937,1,202395,225658,1.24,-0.23,9.94,-0.03,-0.01,-0.00,31.29
34416183,1898,1,202443,225886,1.24,-0.22,9.92,-0.03,-0.01,-0.00,31.29
34456184,1910,1,202614,226598,1.23,-0.22,9.93,-0.03,-0.01,-0.00,31.29
34496183,1906,1,202949,227642,1.24,-0.23,9.93,-0.03,-0.01,-0.00,31.29
34536203,1873,1,203254,228323,1.24,-0.23,9.92,-0.03,-0.01,-0.00,31.29
34576183,1941,1,203310,226986,1.25,-0.22,9.93,-0.03,-0.01,-0.00,31.29
34616184,1917,1,202045,222561,1.23,-0.23,9.92,-0.03,-0.01,-0.00,31.29
34656183,1872,1,200837,220351,1.22,-0.22,9.92,-0.03,-0.01,-0.01,31.29
34696184,1931,1,200454,219756,1.24,-0.23,9.92,-0.03,-0.01,-0.00,31.29
34736183,1922,1,200380,220077,1.25,-0.22,9.93,-0.03,-0.01,-0.00,31.29
34776184,1877,1,200616,221108,1.25,-0.24,9.93,-0.03,-0.01,-0.00,31.29
34816182,1891,1,201060,222041,1.24,-0.25,9.91,-0.03,-0.01,-0.01,31.29
34856184,1882,1,201211,222144,1.24,-0.25,9.93,-0.03,-0.01,-0.00,31.29
34896868,1872,1,201280,222491,1.24,-0.23,9.93,-0.03,-0.01,-0.01,31.33
34935188,1949,1,201524,223429,1.21,-0.22,9.92,-0.03,-0.01,-0.00,31.33
34975183,1943,1,201928,224714,1.23,-0.22,9.96,-0.03,-0.01,-0.00,31.33
35015185,1940,1,202390,225797,1.24,-0.22,9.94,-0.03,-0.01,-0.00,31.33
35055183,1933,1,202759,226878,1.23,-0.23,9.92,-0.04,-0.01,-0.00,31.33
35095185,1961,1,203166,228029,1.23,-0.24,9.93,-0.04,-0.01,-0.00,31.33
35135183,1936,1,203528,229032,1.23,-0.24,9.93,-0.03,-0.01,-0.00,31.33
35175185,1936,1,203829,229719,1.23,-0.23,9.91,-0.03,-0.01,-0.00,31.33
35215183,1943,1,203604,226819,1.23,-0.24,9.95,-0.03,-0.01,-0.00,31.33
35255184,1922,1,201950,222460,1.24,-0.23,9.96,-0.03,-0.01,-0.00,31.33
35295183,1927,1,201051,221017,1.24,-0.21,9.92,-0.03,-0.01,-0.00,31.33
35335185,1955,1,200782,220636,1.23,-0.24,9.92,-0.03,-0.01,-0.01,31.33
35375183,1937,1,200730,220727,1.22,-0.22,9.96,-0.03,-0.01,-0.00,31.33
35415185,1946,1,200905,221625,1.24,-0.25,9.90,-0.03,-0.01,-0.00,31.33
35455183,1924,1,201232,222073,1.23,-0.24,9.91,-0.03,-0.01,-0.00,31.33
35495185,1946,1,201299,222059,1.23,-0.23,9.94,-0.03,-0.01,-0.00,31.33
35535183,1967,1,201318,222201,1.24,-0.23,9.93,-0.03,-0.01,-0.01,31.33
35575188,1929,1,201357,222407,1.23,-0.22,9.93,-0.03,-0.01,-0.00,31.33
35615182,1931,1,201471,223031,1.22,-0.22,9.94,-0.03,-0.01,-0.00,31.33
35655185,1930,1,201730,223782,1.23,-0.23,9.92,-0.03,-0.01,-0.00,31.33
35695183,1895,1,201926,224146,1.23,-0.22,9.93,-0.03,-0.01,-0.00,31.33
35735184,1919,1,201960,224138,1.24,-0.24,9.95,-0.03,-0.01,-0.00,31.33
35775192,1937,1,201948,224285,1.23,-0.24,9.92,-0.03,-0.01,-0.01,31.33
35815185,1925,1,201999,224118,1.24,-0.23,9.94,-0.03,-0.01,-0.00,31.33
35855183,1911,1,201484,220730,1.23,-0.24,9.93,-0.03,-0.01,-0.00,31.33
35895185,1914,1,200100,218138,1.24,-0.23,9.93,-0.03,-0.01,-0.01,31.33
35935870,1908,1,199885,218696,1.23,-0.22,9.95,-0.04,-0.01,-0.00,31.35
35976184,1882,1,200234,219827,1.25,-0.23,9.92,-0.03,-0.01,-0.00,31.35
36016183,1871,1,200643,221187,1.23,-0.23,9.93,-0.03,-0.01,-0.00,31.35
36056184,1909,1,201290,223054,1.24,-0.23,9.94,-0.04,-0.01,-0.00,31.35
36096183,1904,1,201820,223701,1.24,-0.23,9.94,-0.03,-0.01,-0.00,31.35
36136184,1883,1,201851,223568,1.21,-0.22,9.92,-0.03,-0.01,-0.00,31.35
36176204,1891,1,201767,223237,1.25,-0.24,9.95,-0.03,-0.01,-0.00,31.35
36216184,1893,1,201670,223216,1.23,-0.23,9.94,-0.03,-0.01,-0.00,31.35
36256183,1911,1,201893,224134,1.23,-0.23,9.92,-0.03,-0.01,-0.00,31.35
36296184,1887,1,202274,225395,1.22,-0.24,9.94,-0.03,-0.01,-0.00,31.35
36336183,1892,1,202692,226660,1.23,-0.22,9.95,-0.03,-0.01,-0.00,31.35
36376184,1911,1,203181,228274,1.23,-0.22,9.93,-0.03,-0.01,-0.00,31.35
36416182,1907,1,203759,229875,1.23,-0.24,9.93,-0.03,-0.01,-0.01,31.35
36456185,1934,1,204166,230011,1.23,-0.22,9.93,-0.03,-0.01,-0.00,31.35
36496183,1906,1,203359,225741,1.23,-0.22,9.95,-0.03,-0.01,-0.00,31.35
36536184,1919,1,201928,223142,1.22,-0.23,9.91,-0.03,-0.01,-0.00,31.35
36576183,1873,1,201695,223584,1.24,-0.25,9.94,-0.03,-0.01,-0.01,31.35
36616184,1889,1,202055,224765,1.24,-0.23,9.92,-0.03,-0.01,-0.00,31.35
36656183,1940,1,202501,226273,1.24,-0.23,9.93,-0.03,-0.01,-0.00,31.35
36696194,1889,1,202876,226732,1.23,-0.23,9.93,-0.03,-0.01,-0.01,31.35
36736183,1906,1,202853,226239,1.25,-0.23,9.93,-0.03,-0.01,-0.00,31.35
36776184,1907,1,202745,226362,1.24,-0.24,9.93,-0.03,-0.01,-0.00,31.35
36816183,1872,1,202952,226973,1.22,-0.24,9.91,-0.03,-0.01,-0.00,31.35
36856184,1861,1,203157,227286,1.24,-0.22,9.93,-0.04,-0.01,-0.00,31.35
36896182,1921,1,203109,226753,1.25,-0.24,9.94,-0.03,-0.01,-0.01,31.35
36936870,1890,1,202841,225455,1.23,-0.24,9.93,-0.03,-0.01,-0.01,31.19
36975183,1931,1,201949,221515,1.21,-0.23,9.93,-0.03,-0.00,-0.00,31.19
37015184,1871,1,200447,217233,1.23,-0.26,9.94,-0.03,-0.01,-0.00,31.19
37055182,1935,1,199033,213684,1.23,-0.24,9.89,-0.03,-0.01,-0.00,31.19
37095184,1970,1,197555,208938,1.27,-0.25,9.91,-0.03,-0.01,-0.00,31.19
37135183,2971,1,195953,204932,1.20,-0.21,9.94,-0.03,-0.01,-0.00,31.19
37175184,2352,1,194586,202348,1.21,-0.22,9.93,-0.03,-0.01,-0.00,31.19
37215182,2006,1,193635,201868,1.23,-0.23,9.94,-0.03,-0.01,-0.01,31.19
37255184,1903,1,194610,203637,1.24,-0.22,9.94,-0.04,-0.01,-0.01,31.19
37295182,1862,1,195077,205003,1.20,-0.22,9.92,-0.03,-0.01,-0.00,31.19
37335184,1871,1,195279,205092,1.19,-0.21,9.93,-0.03,-0.01,-0.00,31.19
37375182,1900,1,195108,204846,1.21,-0.20,9.95,-0.04,-0.01,-0.00,31.19
37415184,1953,1,195069,205561,1.22,-0.23,9.94,-0.03,-0.01,-0.00,31.19
37455182,2001,1,195596,207325,1.22,-0.19,9.92,-0.03,-0.01,-0.00,31.19
37495184,2090,1,196460,209455,1.22,-0.21,9.94,-0.03,-0.01,-0.00,31.19
37535183,2133,1,197026,211287,1.23,-0.20,9.93,-0.03,-0.01,-0.00,31.19
37575184,2102,1,198036,213802,1.20,-0.24,9.96,-0.04,-0.02,-0.00,31.19
37615223,2101,1,199089,216151,1.25,-0.21,9.95,-0.04,-0.03,-0.00,31.19
37655184,2167,1,200354,219558,1.23,-0.21,9.91,-0.03,-0.01,-0.00,31.19
37695182,2113,1,200852,217514,1.22,-0.23,9.93,-0.04,-0.01,-0.00,31.19
37735184,2149,1,199020,212540,1.20,-0.22,9.93,-0.03,-0.01,-0.00,31.19
37775182,2167,1,197932,211983,1.23,-0.23,9.96,-0.03,-0.01,-0.00,31.19
37815225,2192,1,198404,213898,1.25,-0.21,9.92,-0.03,-0.01,-0.00,31.19
37855182,2133,1,199051,215822,1.21,-0.23,9.94,-0.04,-0.01,-0.00,31.19
37895184,2209,1,200233,220375,1.21,-0.22,9.90,-0.03,-0.01,-0.01,31.19
37935183,2227,1,201566,222254,1.28,-0.17,9.97,-0.04,-0.01,-0.01,31.19
37975870,2254,1,201914,223789,1.16,-0.25,9.93,-0.04,-0.01,-0.01,31.43
38016182,2247,1,202334,225106,1.26,-0.24,9.93,-0.03,-0.01,-0.00,31.43
38054185,2365,1,202753,225352,1.24,-0.21,9.95,-0.03,-0.01,-0.00,31.43
38094183,2329,1,202679,224464,1.19,-0.23,9.94,-0.03,-0.02,-0.00,31.43
38134185,2265,1,202524,223865,1.22,-0.23,9.95,-0.03,-0.02,-0.00,31.43
38174182,2215,1,203069,225822,1.27,-0.21,9.93,-0.04,-0.01,-0.00,31.43
38214185,2173,1,203524,226287,1.23,-0.25,9.94,-0.03,-0.01,-0.01,31.43
38254183,2101,1,203544,225427,1.21,-0.24,9.94,-0.03,-0.01,-0.00,31.43
38294184,2062,1,202643,220567,1.18,-0.18,9.95,-0.03,-0.01,-0.01,31.43
38334183,1989,1,200551,215881,1.25,-0.24,9.90,-0.03,-0.01,-0.01,31.43
38374185,2002,1,199757,215235,1.23,-0.27,9.95,-0.03,-0.01,-0.01,31.43
38414183,1962,1,199738,214954,1.19,-0.23,9.94,-0.03,-0.01,-0.00,31.43
38454185,1914,1,199382,212796,1.23,-0.20,9.95,-0.03,-0.01,-0.01,31.43
38494182,1904,1,198415,211547,1.22,-0.22,9.90,-0.03,-0.01,-0.00,31.43
38534184,1926,1,198777,213257,1.25,-0.25,9.90,-0.04,-0.02,-0.01,31.43
38574183,1925,1,199549,215162,1.26,-0.23,9.89,-0.03,-0.01,-0.01,31.43
38614188,1899,1,200078,215612,1.20,-0.22,9.95,-0.03,-0.00,-0.01,31.43
38654182,1855,1,199766,214408,1.19,-0.23,9.95,-0.03,-0.01,-0.01,31.43
38694188,1839,1,199341,213811,1.24,-0.22,9.95,-0.04,-0.01,-0.01,31.43
38734183,1866,1,199407,214638,1.25,-0.25,9.92,-0.03,-0.01,-0.01,31.43
38774188,1811,1,199838,215553,1.22,-0.23,9.93,-0.03,-0.01,-0.00,31.43
38814183,1810,1,200020,215669,1.21,-0.23,9.92,-0.03,-0.01,-0.01,31.43
38854187,1776,1,200194,215904,1.23,-0.22,9.91,-0.03,-0.01,-0.00,31.43
38894183,1786,1,199556,212876,1.25,-0.25,9.89,-0.03,-0.01,-0.01,31.43
38934188,1779,1,198282,210405,1.22,-0.23,9.92,-0.03,-0.01,-0.00,31.43
38974183,1781,1,197519,209883,1.19,-0.21,9.91,-0.03,-0.01,-0.01,31.43
39014874,1770,1,197664,210515,1.21,-0.22,9.92,-0.03,-0.00,-0.01,31.47
39055191,1748,1,197912,211233,1.23,-0.26,9.95,-0.03,-0.01,-0.01,31.47
39095184,1741,1,197994,211148,1.21,-0.23,9.91,-0.03,-0.01,-0.00,31.47
39135183,1739,1,197798,210452,1.18,-0.21,9.95,-0.03,-0.01,-0.00,31.47
39175184,1757,1,197745,211074,1.23,-0.22,9.91,-0.03,-0.01,-0.00,31.47
39215183,1731,1,197811,210730,1.24,-0.25,9.94,-0.03,-0.01,-0.00,31.47
39255195,1782,1,197505,210978,1.22,-0.21,9.94,-0.03,-0.02,-0.00,31.47
39295183,1778,1,197894,212084,1.22,-0.22,9.91,-0.03,-0.01,-0.01,31.47
39335184,1782,1,198216,212775,1.21,-0.22,9.92,-0.03,-0.01,-0.00,31.47
39375182,1812,1,198416,213245,1.25,-0.27,9.90,-0.03,-0.01,-0.00,31.47
39415184,1754,1,198504,213371,1.22,-0.23,9.93,-0.03,-0.01,-0.00,31.47
39455217,1814,1,198260,210926,1.21,-0.23,9.93,-0.03,-0.01,-0.00,31.47
39495184,1755,1,196624,207143,1.20,-0.22,9.95,-0.03,-0.01,-0.00,31.47
39535183,1835,1,195635,205596,1.22,-0.23,9.93,-0.03,-0.01,-0.00,31.47
39575184,1856,1,195315,204912,1.25,-0.23,9.93,-0.03,-0.01,-0.00,31.47
39615183,1814,1,195110,204822,1.20,-0.22,9.92,-0.03,-0.01,-0.00,31.47
39655205,1856,1,195275,205395,1.19,-0.22,9.93,-0.03,-0.01,-0.00,31.47
39695183,1921,1,195615,206222,1.24,-0.23,9.93,-0.03,-0.01,-0.00,31.47
39735184,1925,1,195793,206803,1.24,-0.25,9.93,-0.04,-0.02,-0.00,31.47
39775183,1985,1,196021,206974,1.24,-0.22,9.95,-0.04,-0.01,-0.00,31.47
39815184,1873,1,195909,206119,1.21,-0.20,9.94,-0.03,-0.01,-0.00,31.47
39855183,1904,1,195496,204785,1.23,-0.23,9.91,-0.03,-0.01,-0.00,31.47
39895184,1907,1,194784,203680,1.25,-0.24,9.88,-0.03,-0.00,-0.00,31.47
39935182,1925,1,194864,203971,1.21,-0.24,9.93,-0.03,-0.01,-0.00,31.47
39975184,1936,1,195116,204380,1.20,-0.20,9.92,-0.03,-0.01,-0.00,31.47
40015869,1931,1,195345,204414,1.26,-0.20,9.93,-0.03,-0.01,-0.00,31.49
40054184,1933,1,194909,203035,1.24,-0.25,9.90,-0.03,-0.01,-0.00,31.49
40094183,1984,1,194526,202954,1.22,-0.24,9.96,-0.03,-0.01,-0.01,31.49
40134185,1930,1,194701,203596,1.23,-0.25,9.94,-0.03,-0.01,-0.00,31.49
40174183,1882,1,194961,204183,1.21,-0.21,9.95,-0.03,-0.01,-0.00,31.49
40214185,1911,1,195287,205575,1.25,-0.24,9.91,-0.03,-0.01,-0.01,31.49
40254182,1914,1,196142,207517,1.27,-0.25,9.96,-0.03,-0.01,-0.00,31.49
40294184,1873,1,196650,208242,1.21,-0.25,9.94,-0.03,-0.01,-0.00,31.49
40334182,1871,1,196823,208501,1.21,-0.21,9.91,-0.03,-0.01,-0.01,31.49
40374184,1843,1,196919,208574,1.22,-0.21,9.92,-0.03,-0.01,-0.00,31.49
40414182,1786,1,196899,208204,1.23,-0.22,9.93,-0.03,-0.01,-0.00,31.49
40454184,1774,1,196747,207890,1.25,-0.23,9.93,-0.03,-0.01,-0.01,31.49
40494182,1781,1,196678,208031,1.21,-0.20,9.94,-0.03,-0.01,-0.00,31.49
40534184,1777,1,196805,208334,1.20,-0.23,9.93,-0.03,-0.01,-0.00,31.49
40574182,1833,1,196875,208669,1.25,-0.23,9.91,-0.03,-0.01,-0.00,31.49
40614184,1743,1,196987,208081,1.25,-0.24,9.94,-0.03,-0.01,-0.01,31.49
40654183,1712,1,196137,205667,1.21,-0.22,9.92,-0.03,-0.01,-0.01,31.49
40694184,1804,1,195428,204666,1.21,-0.23,9.92,-0.03,-0.01,-0.01,31.49
40734183,1810,1,195298,204583,1.23,-0.25,9.90,-0.03,-0.01,-0.00,31.49
40774184,1808,1,195267,204336,1.26,-0.24,9.95,-0.03,-0.01,-0.00,31.49
40814183,1810,1,195187,204383,1.23,-0.24,9.91,-0.03,-0.01,-0.00,31.49
40854184,1814,1,195381,204935,1.22,-0.23,9.92,-0.03,-0.01,-0.00,31.49
40894182,1799,1,195663,206246,1.24,-0.23,9.94,-0.03,-0.01,-0.00,31.49
40934184,1795,1,196386,207668,1.27,-0.24,9.94,-0.03,-0.01,-0.00,31.49
40974183,1744,1,196731,208784,1.21,-0.22,9.93,-0.03,-0.00,-0.00,31.49
41014184,1726,1,197432,210892,1.23,-0.22,9.92,-0.03,-0.01,-0.00,31.49
41054868,1718,1,198376,213309,1.22,-0.24,9.90,-0.03,-0.01,-0.00,31.75
41095189,1745,1,199341,215423,1.22,-0.25,9.90,-0.03,-0.01,-0.00,31.75
41135183,1775,1,199951,216925,1.21,-0.22,9.90,-0.03,-0.01,-0.00,31.75
41175184,1776,1,200502,217592,1.20,-0.23,9.96,-0.03,-0.01,-0.00,31.75
41213182,1851,1,200563,217071,1.23,-0.23,9.93,-0.03,-0.01,-0.00,31.75
41253184,1875,1,199454,211967,1.27,-0.26,9.91,-0.03,-0.01,-0.00,31.75
41293183,1823,1,197404,207935,1.22,-0.22,9.94,-0.03,-0.01,-0.01,31.75
41334184,1801,1,196616,207174,1.20,-0.24,9.93,-0.03,-0.01,-0.00,31.75
41374183,1851,1,196659,207579,1.23,-0.23,9.94,-0.03,-0.01,-0.00,31.75
41414184,1843,1,197040,208857,1.24,-0.24,9.95,-0.03,-0.01,-0.00,31.75
41454183,1856,1,197931,211597,1.21,-0.21,9.92,-0.03,-0.01,-0.00,31.75
41494184,1841,1,198978,213977,1.21,-0.22,9.94,-0.04,-0.01,-0.00,31.75
41534183,1840,1,199812,215021,1.27,-0.23,9.92,-0.03,-0.01,-0.00,31.75
41574184,1860,1,199938,215383,1.24,-0.24,9.94,-0.03,-0.01,-0.01,31.75
41614183,1846,1,199981,215257,1.23,-0.23,9.94,-0.03,-0.01,-0.01,31.75
41654185,1872,1,200128,216042,1.21,-0.22,9.90,-0.03,-0.01,-0.00,31.75
41694182,1826,1,200528,216920,1.23,-0.23,9.94,-0.03,-0.01,-0.00,31.75
41734184,1828,1,200880,217901,1.23,-0.24,9.95,-0.03,-0.01,-0.00,31.75
41774183,1822,1,201251,218756,1.22,-0.23,9.94,-0.03,-0.01,-0.00,31.75
41814184,1813,1,201542,219378,1.22,-0.21,9.95,-0.03,-0.01,-0.00,31.75
41854183,1803,1,201674,218241,1.24,-0.23,9.93,-0.03,-0.01,-0.00,31.75
41894184,1780,1,200366,214196,1.24,-0.25,9.93,-0.03,-0.01,-0.00,31.75
41934182,1759,1,199189,212575,1.24,-0.24,9.92,-0.03,-0.01,-0.01,31.75
41974185,1745,1,198953,212031,1.23,-0.23,9.95,-0.03,-0.01,-0.00,31.75
42014182,1744,1,198796,211683,1.23,-0.23,9.93,-0.03,-0.01,-0.00,31.75
42054184,1771,1,198785,211862,1.23,-0.24,9.94,-0.03,-0.01,-0.00,31.75
42094869,1781,1,198797,212105,1.24,-0.25,9.92,-0.03,-0.01,-0.00,31.83
42133185,1792,1,198822,211983,1.22,-0.22,9.94,-0.03,-0.01,-0.00,31.83
42173183,1786,1,198833,212205,1.23,-0.23,9.93,-0.03,-0.01,-0.01,31.83
42213185,1779,1,198913,212747,1.25,-0.22,9.93,-0.03,-0.01,-0.00,31.83
42253183,1791,1,199176,213561,1.23,-0.24,9.94,-0.03,-0.01,-0.00,31.83
42293185,1856,1,199440,214025,1.20,-0.23,9.96,-0.03,-0.01,-0.00,31.83
42334183,1779,1,199720,214635,1.21,-0.22,9.92,-0.03,-0.01,-0.00,31.83
42374184,1809,1,199961,215203,1.23,-0.21,9.92,-0.03,-0.01,-0.00,31.83
42414183,1808,1,200455,216545,1.23,-0.24,9.94,-0.03,-0.01,-0.01,31.83
42454185,1813,1,200495,214589,1.24,-0.23,9.93,-0.03,-0.01,-0.00,31.83
42494183,1812,1,199253,212168,1.21,-0.22,9.90,-0.03,-0.01,-0.00,31.83
42534184,1808,1,198921,212716,1.23,-0.23,9.94,-0.03,-0.01,-0.00,31.83
42574183,1831,1,199377,213712,1.25,-0.26,9.94,-0.03,-0.01,-0.00,31.83
42614184,1845,1,199686,214573,1.21,-0.23,9.93,-0.03,-0.02,-0.00,31.83
42654183,1855,1,199858,214682,1.23,-0.22,9.93,-0.03,-0.01,-0.00,31.83
42694184,1856,1,199814,214369,1.21,-0.23,9.95,-0.03,-0.01,-0.00,31.83
42734182,1851,1,199982,214972,1.26,-0.25,9.91,-0.03,-0.01,-0.00,31.83
42774184,1866,1,200255,215873,1.25,-0.22,9.93,-0.03,-0.01,-0.00,31.83
42814183,1893,1,200687,216605,1.22,-0.23,9.93,-0.03,-0.01,-0.01,31.83
42854184,1901,1,201009,217227,1.23,-0.24,9.93,-0.03,-0.01,-0.00,31.83
42894183,1922,1,201235,217997,1.25,-0.23,9.92,-0.03,-0.01,-0.00,31.83
42934188,1901,1,201486,218911,1.25,-0.22,9.92,-0.03,-0.01,-0.01,31.83
42974183,1904,1,201955,220151,1.24,-0.23,9.93,-0.03,-0.01,-0.01,31.83
43014184,1902,1,202433,221569,1.23,-0.21,9.94,-0.03,-0.01,-0.01,31.83
43054183,1920,1,202823,221157,1.23,-0.23,9.92,-0.03,-0.01,-0.01,31.83
43094184,1919,1,201811,217640,1.24,-0.23,9.94,-0.03,-0.01,-0.00,31.83
43134868,1885,1,200795,217109,1.22,-0.23,9.92,-0.03,-0.01,-0.00,31.57
43173184,1915,1,200884,217495,1.23,-0.20,9.92,-0.03,-0.01,-0.00,31.57
43213182,1922,1,200962,217525,1.21,-0.23,9.93,-0.03,-0.01,-0.01,31.57
43253185,1920,1,201082,218261,1.24,-0.24,9.92,-0.03,-0.01,-0.01,31.57
43293182,1914,1,201352,219074,1.24,-0.24,9.95,-0.03,-0.01,-0.01,31.57
43333185,1906,1,201409,219017,1.21,-0.24,9.93,-0.03,-0.01,-0.01,31.57
43374183,1884,1,201572,219550,1.25,-0.24,9.95,-0.03,-0.01,-0.00,31.57
43414184,1897,1,201774,220491,1.24,-0.24,9.93,-0.03,-0.01,-0.01,31.57
43454183,1892,1,202167,221878,1.23,-0.21,9.92,-0.03,-0.01,-0.00,31.57
43494184,1895,1,202759,223604,1.23,-0.22,9.94,-0.03,-0.01,-0.00,31.57
43534183,1913,1,203404,225104,1.24,-0.24,9.91,-0.03,-0.01,-0.00,31.57
43574185,1899,1,203768,225900,1.23,-0.23,9.94,-0.03,-0.01,-0.00,31.57
43614182,1898,1,203998,226614,1.21,-0.22,9.92,-0.03,-0.01,-0.00,31.57
43654184,1883,1,204141,226561,1.24,-0.23,9.93,-0.03,-0.01,-0.00,31.57
43694183,1909,1,203257,222461,1.24,-0.23,9.94,-0.03,-0.01,-0.01,31.57
43734184,1899,1,201611,219482,1.22,-0.25,9.95,-0.03,-0.01,-0.01,31.57
43774183,1907,1,201209,219032,1.23,-0.23,9.93,-0.03,-0.01,-0.00,31.57
43814184,1904,1,201201,219017,1.24,-0.24,9.94,-0.03,-0.01,-0.00,31.57
43854183,1922,1,201045,219082,1.24,-0.23,9.93,-0.03,-0.01,-0.00,31.57
43894184,1906,1,201303,219753,1.23,-0.23,9.92,-0.03,-0.01,-0.01,31.57
43934183,1887,1,201560,219943,1.23,-0.24,9.92,-0.03,-0.01,-0.00,31.57
43974184,1971,1,201545,219771,1.22,-0.25,9.93,-0.03,-0.01,-0.00,31.57
44014183,1948,1,201478,219774,1.23,-0.22,9.91,-0.03,-0.01,-0.00,31.57
44054184,1967,1,201600,220317,1.23,-0.22,9.92,-0.03,-0.01,-0.00,31.57
44094183,1937,1,201832,220886,1.25,-0.23,9.92,-0.03,-0.01,-0.00,31.57
44134184,1889,1,202047,221858,1.23,-0.23,9.93,-0.03,-0.01,-0.00,31.57
44174869,1951,1,202507,223009,1.24,-0.23,9.94,-0.03,-0.01,-0.00,31.55
44213184,1898,1,202772,223360,1.25,-0.22,9.95,-0.03,-0.01,-0.01,31.55
44253182,1883,1,202646,222285,1.23,-0.21,9.93,-0.03,-0.01,-0.01,31.55
44293184,1872,1,201466,217308,1.23,-0.24,9.92,-0.03,-0.01,-0.00,31.55
44333182,1808,1,199354,212629,1.24,-0.21,9.93,-0.03,-0.00,-0.00,31.55
44372183,1951,1,198278,211986,1.21,-0.23,9.92,-0.03,0.00,-0.01,31.55
44412167,1907,1,198410,213265,1.19,-0.23,9.94,-0.03,-0.01,-0.01,31.55
44452187,1875,1,198997,214857,1.23,-0.23,9.94,-0.03,-0.01,-0.01,31.55
44492183,1886,1,199499,215861,1.23,-0.24,9.93,-0.03,-0.01,-0.00,31.55
44532184,1907,1,199714,216281,1.20,-0.22,9.93,-0.03,-0.01,-0.01,31.55
44572183,1893,1,199718,216494,1.19,-0.22,9.94,-0.03,-0.01,-0.00,31.55
44612184,1904,1,199950,217177,1.22,-0.23,9.93,-0.03,-0.01,-0.00,31.55
44652183,1889,1,200159,217744,1.22,-0.24,9.96,-0.03,-0.01,-0.00,31.55
44692185,1887,1,200325,218198,1.22,-0.24,9.93,-0.03,-0.01,-0.00,31.55
44732183,1889,1,200768,220181,1.21,-0.22,9.93,-0.04,-0.01,-0.01,31.55
44772188,1901,1,201460,222479,1.22,-0.24,9.93,-0.04,-0.01,-0.00,31.55
44812183,1905,1,202186,223963,1.22,-0.24,9.93,-0.03,-0.01,-0.01,31.55
44852188,1919,1,202253,222431,1.23,-0.24,9.94,-0.03,-0.01,-0.00,31.55
44892183,1881,1,200793,217781,1.22,-0.24,9.92,-0.03,-0.01,-0.00,31.55
44932185,1893,1,199411,215133,1.21,-0.24,9.93,-0.03,-0.01,-0.00,31.55
44972183,1954,1,198786,214236,1.22,-0.24,9.96,-0.03,-0.01,-0.00,31.55
45012185,1855,1,198679,214602,1.23,-0.21,9.92,-0.04,-0.01,-0.00,31.55
45052183,1920,1,198910,215858,1.22,-0.23,9.92,-0.03,-0.01,-0.00,31.55
45092184,1949,1,199398,217325,1.22,-0.25,9.95,-0.03,-0.01,-0.00,31.55
45132183,1936,1,199973,218354,1.23,-0.22,9.93,-0.03,-0.01,-0.00,31.55
45172184,1936,1,200375,219309,1.23,-0.23,9.93,-0.03,-0.01,-0.00,31.55
45212869,1890,1,200557,219411,1.21,-0.25,9.93,-0.03,-0.01,-0.00,31.35
45253184,1889,1,200504,219152,1.24,-0.22,9.96,-0.03,-0.01,-0.00,31.35
45293183,1899,1,200283,218405,1.23,-0.24,9.93,-0.03,-0.01,-0.00,31.35
45333184,1899,1,200091,217708,1.23,-0.26,9.92,-0.03,-0.01,-0.01,31.35
45373183,1910,1,199942,217707,1.23,-0.23,9.91,-0.03,-0.01,-0.00,31.35
45413184,1907,1,200244,218562,1.23,-0.22,9.91,-0.03,-0.01,-0.00,31.35
45453182,1899,1,199955,216149,1.22,-0.22,9.91,-0.03,-0.01,-0.00,31.35
45493184,1904,1,198806,214070,1.21,-0.23,9.94,-0.03,-0.01,-0.00,31.35
45533182,1893,1,198408,213747,1.22,-0.24,9.95,-0.03,-0.01,-0.00,31.35
45573184,1879,1,198451,213711,1.21,-0.22,9.92,-0.03,-0.01,-0.01,31.35
45613183,1894,1,198450,213894,1.21,-0.27,9.93,-0.03,-0.01,-0.00,31.35
45653184,1904,1,198542,214178,1.23,-0.26,9.95,-0.03,-0.01,-0.00,31.35
45693183,1905,1,198568,213920,1.23,-0.23,9.92,-0.03,-0.01,-0.00,31.35
45733184,1911,1,198458,213866,1.21,-0.25,9.91,-0.03,-0.01,-0.01,31.35
45773183,1908,1,198523,213877,1.23,-0.24,9.91,-0.03,-0.01,-0.01,31.35
45813184,1891,1,198790,214580,1.22,-0.23,9.92,-0.03,-0.01,-0.01,31.35
45853183,1889,1,199113,215480,1.21,-0.23,9.95,-0.03,-0.01,-0.00,31.35
45893184,1843,1,199337,216111,1.21,-0.25,9.93,-0.03,-0.01,-0.00,31.35
45933182,1883,1,200040,219709,1.23,-0.23,9.94,-0.03,-0.01,-0.00,31.35
45973185,1889,1,201615,222623,1.24,-0.24,9.91,-0.03,-0.01,-0.00,31.35
46013183,1888,1,202062,221811,1.21,-0.25,9.94,-0.03,-0.01,-0.00,31.35
46053184,1887,1,200633,216505,1.24,-0.24,9.93,-0.03,-0.01,-0.00,31.35
46093183,1884,1,199235,215085,1.24,-0.21,9.93,-0.03,-0.01,-0.00,31.35
46133184,1888,1,199605,216671,1.22,-0.23,9.92,-0.03,-0.01,-0.01,31.35
46173183,1889,1,200124,217446,1.23,-0.23,9.94,-0.04,-0.02,-0.00,31.35
46213901,1877,1,200397,218685,1.26,-0.22,9.93,-0.03,-0.02,-0.00,31.35
46252182,1904,1,201175,220128,1.23,-0.22,9.92,-0.03,-0.01,-0.01,31.35
46292185,1901,1,201677,221432,1.22,-0.24,9.92,-0.03,-0.01,-0.00,31.35
46332182,1896,1,202348,223321,1.23,-0.24,9.92,-0.03,-0.01,-0.00,31.35
46372185,1898,1,202948,224948,1.25,-0.23,9.93,-0.03,-0.01,-0.00,31.35
46412182,1886,1,203562,226234,1.23,-0.24,9.93,-0.03,-0.01,-0.00,31.35
46452184,1904,1,204164,228051,1.24,-0.22,9.96,-0.03,-0.01,-0.00,31.35
46492182,1904,1,204756,229561,1.26,-0.20,9.95,-0.03,-0.01,-0.00,31.35
46532184,1894,1,205349,231052,1.24,-0.22,9.95,-0.03,-0.01,-0.00,31.35
46572183,1899,1,205904,232040,1.24,-0.26,9.92,-0.03,-0.01,-0.01,31.35
46612185,1901,1,205881,230350,1.22,-0.23,9.93,-0.03,-0.01,-0.01,31.35
46652183,1889,1,204412,225045,1.24,-0.24,9.91,-0.03,-0.01,-0.01,31.35
46692185,1897,1,202923,223279,1.24,-0.24,9.93,-0.04,-0.01,-0.01,31.35
46732182,1900,1,202987,223917,1.24,-0.25,9.93,-0.03,-0.01,-0.00,31.35
46772184,1887,1,203277,224923,1.24,-0.24,9.92,-0.03,-0.01,-0.00,31.35
46812182,1884,1,203628,226124,1.22,-0.24,9.95,-0.03,-0.01,-0.00,31.35
46852184,1891,1,204229,227492,1.22,-0.23,9.93,-0.03,-0.01,-0.00,31.35
46892183,1894,1,204474,227600,1.24,-0.24,9.92,-0.03,-0.01,-0.00,31.35
46932184,1900,1,204429,227045,1.23,-0.23,9.92,-0.03,-0.01,-0.00,31.35
46972182,1893,1,204216,226120,1.23,-0.25,9.92,-0.03,-0.01,-0.00,31.35
47012184,1900,1,203795,224590,1.25,-0.22,9.92,-0.03,-0.01,-0.00,31.35
47052182,1901,1,203261,223649,1.24,-0.22,9.94,-0.03,-0.01,-0.00,31.35
47092184,1887,1,203144,223721,1.24,-0.22,9.91,-0.03,-0.01,-0.00,31.35
47132183,1889,1,203263,224057,1.22,-0.23,9.93,-0.03,-0.01,-0.00,31.35
47172185,1878,1,203502,224803,1.21,-0.22,9.91,-0.03,-0.01,-0.00,31.35
47212183,1878,1,203536,223256,1.22,-0.26,9.93,-0.03,-0.01,-0.01,31.35
47252870,1856,1,202082,218031,1.21,-0.25,9.90,-0.03,-0.01,-0.00,31.33
47293183,1870,1,200473,215750,1.23,-0.23,9.93,-0.03,-0.01,-0.00,31.33
47333184,1871,1,200309,215920,1.23,-0.22,9.91,-0.03,-0.01,-0.01,31.33
47373183,1872,1,200349,216044,1.22,-0.23,9.93,-0.03,-0.01,-0.01,31.33
47413185,1871,1,200489,216492,1.25,-0.23,9.92,-0.03,-0.01,-0.01,31.33
47453183,1868,1,200720,216558,1.25,-0.25,9.93,-0.03,-0.01,-0.01,31.33
47493184,1867,1,200585,216412,1.24,-0.22,9.90,-0.03,-0.01,-0.00,31.33
47533183,1858,1,200588,216510,1.23,-0.23,9.92,-0.03,-0.01,-0.00,31.33
47573184,1871,1,200580,216248,1.25,-0.23,9.96,-0.03,-0.01,-0.00,31.33
47613183,1867,1,200518,216091,1.22,-0.23,9.92,-0.03,-0.01,-0.00,31.33
47653195,1883,1,200448,215953,1.23,-0.23,9.92,-0.03,-0.01,-0.00,31.33
47691183,1938,1,200647,216583,1.22,-0.23,9.95,-0.03,-0.01,-0.00,31.33
47731188,1933,1,201132,218142,1.26,-0.22,9.95,-0.03,-0.01,-0.00,31.33
47771183,1923,1,201660,219452,1.25,-0.24,9.93,-0.03,-0.01,-0.00,31.33
47811184,1927,1,201470,217147,1.23,-0.24,9.93,-0.03,-0.01,-0.01,31.33
47851193,1914,1,200366,215500,1.26,-0.25,9.93,-0.03,-0.01,-0.00,31.33
47891188,1917,1,200424,216366,1.23,-0.24,9.93,-0.03,-0.01,-0.01,31.33
47931183,1939,1,200707,217143,1.22,-0.23,9.95,-0.03,-0.01,-0.01,31.33
47971188,1936,1,200962,218131,1.25,-0.24,9.90,-0.03,-0.01,-0.00,31.33
48011182,1939,1,201681,219961,1.24,-0.24,9.91,-0.03,-0.01,-0.00,31.33
48051184,1941,1,202274,221178,1.22,-0.24,9.94,-0.03,-0.01,-0.00,31.33
48091182,1943,1,202820,223047,1.22,-0.23,9.95,-0.03,-0.01,-0.00,31.33
48131185,1943,1,203437,224748,1.22,-0.22,9.94,-0.03,-0.01,-0.00,31.33
48171183,1942,1,203995,226000,1.24,-0.23,9.93,-0.04,-0.01,-0.00,31.33
48211185,1940,1,204241,227119,1.24,-0.25,9.94,-0.03,-0.01,-0.01,31.33
48251183,1945,1,204742,228008,1.26,-0.22,9.94,-0.03,-0.01,-0.01,31.33
48291871,1858,1,204930,228244,1.23,-0.25,9.94,-0.03,-0.01,-0.01,31.13
48332183,1903,1,205057,228179,1.24,-0.22,9.95,-0.03,-0.01,-0.00,31.13
48372184,1904,1,205011,227239,1.25,-0.25,9.92,-0.03,-0.01,-0.01,31.13
48412183,1906,1,204073,222201,1.25,-0.24,9.94,-0.03,-0.01,-0.00,31.13
48452184,1911,1,201875,216807,1.24,-0.23,9.92,-0.03,-0.01,-0.00,31.13
48492183,1901,1,200682,215830,1.21,-0.22,9.93,-0.03,-0.01,-0.00,31.13
48532184,1904,1,200879,216439,1.25,-0.23,9.93,-0.03,-0.01,-0.00,31.13
48572182,1899,1,201006,216464,1.24,-0.23,9.95,-0.03,-0.01,-0.00,31.13
48612184,1901,1,201039,216287,1.22,-0.23,9.94,-0.03,-0.01,-0.00,31.13
48652183,1901,1,200946,216166,1.26,-0.22,9.93,-0.03,-0.01,-0.00,31.13
48692184,1903,1,200973,216112,1.24,-0.21,9.92,-0.03,-0.01,-0.00,31.13
48732182,1898,1,200908,216106,1.22,-0.24,9.92,-0.03,-0.01,-0.00,31.13
48772184,1899,1,200899,216376,1.24,-0.23,9.90,-0.03,-0.01,-0.00,31.13
48812183,1891,1,201095,216885,1.26,-0.21,9.96,-0.03,-0.01,-0.00,31.13
48852184,1904,1,201234,217149,1.23,-0.24,9.95,-0.03,-0.01,-0.01,31.13
48892183,1903,1,201520,218150,1.22,-0.23,9.96,-0.03,-0.01,-0.00,31.13
48932184,1899,1,201979,219576,1.23,-0.22,9.95,-0.04,-0.01,-0.00,31.13
48972183,1875,1,202436,220764,1.25,-0.23,9.92,-0.03,-0.01,-0.00,31.13
49012184,1879,1,202716,219777,1.24,-0.25,9.96,-0.03,-0.01,-0.00,31.13
49052183,1891,1,201659,216936,1.24,-0.22,9.93,-0.03,-0.01,-0.00,31.13
49092184,1895,1,201085,216604,1.24,-0.22,9.95,-0.03,-0.01,-0.00,31.13
49132183,1872,1,201096,216915,1.21,-0.24,9.93,-0.03,-0.01,-0.00,31.13
49172184,1872,1,201197,217015,1.23,-0.25,9.91,-0.03,-0.01,-0.00,31.13
49212183,1873,1,201349,217671,1.23,-0.23,9.94,-0.03,-0.01,-0.00,31.13
49252184,1873,1,201822,219091,1.23,-0.23,9.96,-0.03,-0.01,-0.01,31.13
49292869,1872,1,202182,220201,1.23,-0.24,9.91,-0.04,-0.01,-0.01,31.15
49331188,1893,1,202446,221073,1.24,-0.23,9.92,-0.04,-0.01,-0.00,31.15
49371183,1902,1,202751,221983,1.25,-0.23,9.96,-0.03,-0.01,-0.00,31.15
49411184,1904,1,203013,222554,1.23,-0.24,9.91,-0.03,-0.01,-0.01,31.15
49451182,1905,1,203301,223520,1.22,-0.22,9.93,-0.03,-0.01,-0.01,31.15
49491219,1903,1,203777,224736,1.25,-0.23,9.92,-0.03,-0.01,-0.00,31.15
49531182,1900,1,204085,225547,1.24,-0.24,9.93,-0.03,-0.01,-0.00,31.15
49571185,1906,1,204370,225854,1.25,-0.26,9.94,-0.03,-0.01,-0.00,31.15
49611182,1906,1,204507,225595,1.24,-0.22,9.93,-0.03,-0.01,-0.00,31.15
49651184,1904,1,203756,221815,1.23,-0.25,9.94,-0.03,-0.01,-0.00,31.15
49691198,1904,1,202417,219037,1.25,-0.23,9.93,-0.03,-0.01,-0.00,31.15
49731184,1904,1,202155,218902,1.25,-0.22,9.93,-0.03,-0.01,-0.00,31.15
49771182,1903,1,202220,218968,1.22,-0.24,9.93,-0.03,-0.01,-0.00,31.15
49811184,1909,1,202403,219765,1.24,-0.25,9.92,-0.03,-0.01,-0.00,31.15
49851182,1904,1,202940,220916,1.25,-0.23,9.93,-0.03,-0.01,-0.00,31.15
49891185,1904,1,203132,220876,1.24,-0.24,9.92,-0.03,-0.01,-0.00,31.15
49931183,1899,1,203066,220472,1.24,-0.24,9.93,-0.03,-0.01,-0.00,31.15
49971184,1893,1,202882,219867,1.23,-0.24,9.93,-0.03,-0.01,-0.00,31.15
50011183,1901,1,202818,219959,1.23,-0.23,9.95,-0.03,-0.01,-0.00,31.15
50051184,1903,1,203000,220862,1.23,-0.23,9.96,-0.03,-0.01,-0.00,31.15
50091183,1901,1,203313,221863,1.24,-0.24,9.93,-0.03,-0.01,-0.00,31.15
50131184,1907,1,203676,222777,1.24,-0.23,9.93,-0.03,-0.01,-0.00,31.15
50171182,1908,1,204104,223815,1.24,-0.23,9.91,-0.03,-0.01,-0.00,31.15
50211185,1904,1,204370,224787,1.22,-0.22,9.94,-0.03,-0.01,-0.00,31.15
50251183,1898,1,204213,222391,1.24,-0.23,9.94,-0.03,-0.01,-0.01,31.15
50291185,1901,1,202865,219474,1.24,-0.23,9.94,-0.03,-0.01,-0.00,31.15
50331868,1888,1,202490,219678,1.24,-0.24,9.91,-0.03,-0.01,-0.00,31.13
50372184,1891,1,202893,221078,1.22,-0.22,9.91,-0.03,-0.01,-0.00,31.13
50412182,1885,1,203339,222757,1.24,-0.23,9.95,-0.03,-0.01,-0.01,31.13
50452185,1885,1,204064,224946,1.24,-0.24,9.93,-0.03,-0.01,-0.00,31.13
50492183,1887,1,204700,226106,1.25,-0.23,9.96,-0.03,-0.01,-0.00,31.13
50532184,1893,1,205003,226710,1.24,-0.24,9.90,-0.03,-0.01,-0.00,31.13
50572183,1884,1,205167,227145,1.25,-0.22,9.93,-0.03,-0.01,-0.00,31.13
50612184,1882,1,205223,227297,1.24,-0.24,9.93,-0.03,-0.01,-0.00,31.13
50652182,1877,1,205142,226941,1.23,-0.25,9.93,-0.03,-0.01,-0.00,31.13
50692184,1887,1,204931,225975,1.24,-0.24,9.94,-0.03,-0.01,-0.00,31.13
50732183,1886,1,204580,224940,1.24,-0.23,9.92,-0.03,-0.01,-0.01,31.13
50772184,1873,1,204301,224305,1.21,-0.23,9.92,-0.03,-0.01,-0.01,31.13
50810183,1926,1,204101,222909,1.24,-0.23,9.95,-0.03,-0.01,-0.01,31.13
50850187,1954,1,202715,217861,1.24,-0.26,9.92,-0.03,-0.01,-0.01,31.13
50890183,1950,1,201035,215089,1.22,-0.23,9.94,-0.03,-0.01,-0.01,31.13
50930194,1957,1,200719,214885,1.22,-0.22,9.93,-0.03,-0.01,-0.00,31.13
50970183,1969,1,200787,214777,1.23,-0.24,9.91,-0.03,-0.01,-0.00,31.13
51010185,1961,1,200816,215350,1.24,-0.23,9.94,-0.03,-0.01,-0.00,31.13
51050183,1961,1,201220,216202,1.25,-0.25,9.93,-0.03,-0.01,-0.01,31.13
51090188,1955,1,201428,216786,1.24,-0.25,9.93,-0.03,-0.01,-0.00,31.13
51130183,1939,1,201738,217451,1.23,-0.25,9.93,-0.03,-0.01,-0.00,31.13
51170188,1953,1,201827,217347,1.25,-0.22,9.93,-0.03,-0.01,-0.00,31.13
51210183,1931,1,201730,216915,1.23,-0.22,9.93,-0.03,-0.01,-0.00,31.13
51250185,1930,1,201425,215932,1.23,-0.25,9.94,-0.03,-0.01,-0.00,31.13
51290183,1936,1,201076,214895,1.23,-0.22,9.91,-0.03,-0.00,-0.00,31.13
51330184,1931,1,200991,214451,1.23,-0.23,9.94,-0.03,-0.01,-0.00,31.13
51370869,1903,1,200881,213907,1.24,-0.25,9.94,-0.03,-0.01,-0.00,31.19
51411184,1899,1,200343,211003,1.24,-0.21,9.93,-0.03,-0.01,-0.00,31.19
51451183,1901,1,198801,207726,1.21,-0.24,9.93,-0.03,-0.01,-0.00,31.19
51491184,1903,1,198033,206788,1.24,-0.24,9.92,-0.03,-0.01,-0.00,31.19
51531183,1898,1,197942,206766,1.23,-0.23,9.92,-0.03,-0.01,-0.00,31.19
51571184,1906,1,198038,207529,1.23,-0.21,9.96,-0.03,-0.01,-0.00,31.19
51611183,1904,1,198529,209106,1.22,-0.22,9.92,-0.03,-0.01,-0.01,31.19
51651184,1898,1,199191,210915,1.23,-0.24,9.93,-0.03,-0.01,-0.00,31.19
51691182,1887,1,199942,213281,1.22,-0.24,9.93,-0.03,-0.01,-0.00,31.19
51731184,1890,1,201631,220317,1.23,-0.21,9.92,-0.03,-0.02,-0.01,31.19
51771183,1901,1,204208,225807,1.21,-0.24,9.96,-0.04,-0.02,-0.00,31.19
51811184,1906,1,205429,228296,1.26,-0.24,9.95,-0.04,-0.01,-0.01,31.19
51851183,1904,1,206248,230256,1.22,-0.23,9.91,-0.03,-0.02,-0.00,31.19
51891184,1919,1,206944,232519,1.24,-0.25,9.93,-0.03,-0.01,-0.00,31.19
51931183,1914,1,207533,234122,1.24,-0.24,9.93,-0.03,-0.01,-0.00,31.19
51971184,1908,1,208068,235271,1.24,-0.23,9.92,-0.03,-0.01,-0.00,31.19
52011183,1920,1,208101,233713,1.25,-0.23,9.94,-0.03,-0.01,-0.00,31.19
52051184,1907,1,207348,231891,1.25,-0.23,9.93,-0.03,-0.01,-0.01,31.19
52091183,1904,1,207170,231660,1.23,-0.23,9.92,-0.03,-0.01,-0.00,31.19
52131184,1899,1,207108,231956,1.23,-0.24,9.95,-0.03,-0.01,-0.00,31.19
52171183,1893,1,207479,233201,1.25,-0.24,9.93,-0.03,-0.01,-0.00,31.19
52211184,1883,1,208040,234860,1.25,-0.21,9.94,-0.03,-0.01,-0.00,31.19
52251183,1895,1,208461,235986,1.24,-0.23,9.94,-0.03,-0.01,-0.01,31.19
52291184,1888,1,208924,236684,1.24,-0.22,9.92,-0.03,-0.01,-0.00,31.19
52331183,1883,1,209100,236959,1.25,-0.26,9.91,-0.03,-0.01,-0.00,31.19
52371870,1867,1,209093,236928,1.26,-0.22,9.94,-0.03,-0.01,-0.01,31.33
52410183,1903,1,209047,236800,1.24,-0.24,9.92,-0.03,-0.01,-0.00,31.33
52450184,1903,1,209102,236605,1.24,-0.23,9.92,-0.03,-0.01,-0.01,31.33
52490183,1907,1,209064,236666,1.25,-0.23,9.92,-0.03,-0.01,-0.00,31.33
52530185,1911,1,209035,236835,1.25,-0.22,9.93,-0.03,-0.01,-0.00,31.33
52570183,1910,1,209140,237308,1.23,-0.24,9.93,-0.03,-0.01,-0.00,31.33
52610184,1904,1,209019,236205,1.24,-0.24,9.93,-0.03,-0.01,-0.00,31.33
52650182,1910,1,208276,233408,1.25,-0.24,9.94,-0.03,-0.01,-0.00,31.33
52690185,1910,1,207534,231920,1.24,-0.26,9.91,-0.03,-0.01,-0.00,31.33
52730183,1914,1,207259,231473,1.24,-0.24,9.89,-0.03,-0.01,-0.00,31.33
52770184,1913,1,207159,231243,1.23,-0.22,9.95,-0.03,-0.01,-0.00,31.33
52810182,1908,1,207164,231554,1.25,-0.25,9.92,-0.03,-0.01,-0.00,31.33
52850184,1917,1,207458,231721,1.24,-0.25,9.91,-0.03,-0.01,-0.00,31.33
52890182,1911,1,207343,231741,1.25,-0.22,9.94,-0.03,-0.01,-0.00,31.33
52930184,1922,1,207604,232300,1.26,-0.24,9.91,-0.03,-0.01,-0.00,31.33
52970233,1926,1,207804,232950,1.25,-0.24,9.93,-0.03,-0.01,-0.01,31.33
53010185,1903,1,207941,233237,1.25,-0.23,9.95,-0.03,-0.01,-0.00,31.33
53050182,1907,1,208161,233503,1.24,-0.22,9.91,-0.03,-0.01,-0.00,31.33
53090184,1915,1,208189,233919,1.26,-0.25,9.92,-0.03,-0.01,-0.00,31.33
53130183,1925,1,208375,234217,1.24,-0.25,9.91,-0.03,-0.01,-0.00,31.33
53170184,1929,1,208332,234195,1.24,-0.26,9.92,-0.03,-0.00,-0.00,31.33
53210182,1922,1,208369,233935,1.24,-0.23,9.94,-0.03,-0.00,-0.01,31.33
53250185,1913,1,207857,231577,1.22,-0.24,9.91,-0.03,-0.01,-0.00,31.33
53290183,1916,1,206698,228165,1.23,-0.22,9.93,-0.03,-0.01,-0.00,31.33
53330184,1920,1,205903,227624,1.24,-0.22,9.94,-0.03,-0.01,-0.00,31.33
53370182,1915,1,206047,229316,1.22,-0.24,9.91,-0.03,-0.01,-0.00,31.33
53411870,1885,1,206720,231233,1.22,-0.24,9.93,-0.03,-0.01,-0.00,31.33
53450183,1914,1,207162,232910,1.24,-0.22,9.94,-0.03,-0.01,-0.00,31.33
53490184,1913,1,207621,233997,1.24,-0.24,9.94,-0.03,-0.01,-0.00,31.33
53530183,1911,1,207829,234963,1.24,-0.25,9.93,-0.04,-0.02,-0.00,31.33
53570184,1917,1,207887,235609,1.24,-0.23,9.93,-0.03,-0.01,-0.01,31.33
53610183,1907,1,208004,236008,1.24,-0.23,9.91,-0.03,-0.01,-0.00,31.33
53650185,1904,1,208178,236305,1.27,-0.24,9.89,-0.03,-0.01,-0.01,31.33
53690183,1903,1,208185,236610,1.25,-0.25,9.92,-0.03,-0.01,-0.00,31.33
53730184,1915,1,208304,236750,1.22,-0.23,9.92,-0.03,-0.01,-0.00,31.33
53770183,1903,1,208291,236782,1.24,-0.24,9.93,-0.03,-0.01,-0.00,31.33
53810184,1898,1,208269,236638,1.24,-0.22,9.96,-0.03,-0.01,-0.00,31.33
53850183,1895,1,208168,235249,1.24,-0.23,9.92,-0.03,-0.01,-0.00,31.33
53890184,1891,1,207254,231835,1.23,-0.24,9.95,-0.03,-0.01,-0.00,31.33
53930182,1901,1,206122,228691,1.25,-0.25,9.93,-0.03,-0.01,-0.01,31.33
53970184,1904,1,205339,227183,1.24,-0.23,9.94,-0.03,-0.01,-0.01,31.33
54010182,1904,1,205200,226144,1.24,-0.21,9.91,-0.03,-0.01,-0.00,31.33
54050184,1898,1,204883,225333,1.25,-0.23,9.92,-0.03,-0.01,-0.01,31.33
54090182,1887,1,204596,224001,1.22,-0.24,9.95,-0.03,-0.01,-0.01,31.33
54130185,1898,1,203874,221033,1.24,-0.23,9.91,-0.03,-0.01,-0.00,31.33
54170183,1892,1,202731,218166,1.24,-0.24,9.95,-0.03,-0.02,-0.00,31.33
54210184,1892,1,202262,217377,1.24,-0.25,9.94,-0.03,-0.01,-0.01,31.33
54250182,1883,1,202331,217966,1.25,-0.23,9.93,-0.03,-0.01,-0.01,31.33
54290184,1886,1,202526,218456,1.23,-0.22,9.92,-0.03,-0.01,-0.00,31.33
54330183,1887,1,202737,218020,1.23,-0.25,9.95,-0.03,-0.01,-0.01,31.33
54370184,1898,1,202334,217236,1.25,-0.23,9.93,-0.03,-0.01,-0.00,31.33
54409900,1903,1,202311,217425,1.23,-0.23,9.92,-0.03,-0.01,-0.00,31.29
54450184,1899,1,202570,218069,1.24,-0.24,9.93,-0.03,-0.01,-0.01,31.29
54490182,1899,1,202970,217940,1.24,-0.23,9.92,-0.03,-0.02,-0.00,31.29
54530184,1901,1,202699,217481,1.26,-0.24,9.91,-0.03,-0.01,-0.00,31.29
54570183,1897,1,202780,218830,1.25,-0.22,9.96,-0.03,-0.01,-0.00,31.29
54610222,1906,1,203855,222582,1.24,-0.25,9.95,-0.03,-0.01,-0.00,31.29
54650183,1889,1,205391,226077,1.27,-0.22,9.93,-0.03,-0.01,-0.00,31.29
54690184,1904,1,206627,230116,1.25,-0.24,9.98,-0.03,-0.01,-0.00,31.29
54730183,1907,1,208028,233902,1.26,-0.25,9.90,-0.03,-0.01,-0.00,31.29
54770184,1893,1,208909,235652,1.27,-0.23,9.93,-0.03,-0.01,-0.00,31.29
54810206,1889,1,209524,237232,1.29,-0.23,9.93,-0.03,-0.01,-0.00,31.29
54850184,1904,1,209904,238813,1.25,-0.24,9.93,-0.03,-0.01,-0.00,31.29
54890183,1886,1,210439,240136,1.24,-0.22,9.94,-0.03,-0.01,-0.00,31.29
54930184,1901,1,210667,241416,1.25,-0.25,9.92,-0.03,-0.01,-0.01,31.29
54970183,1904,1,210957,242431,1.27,-0.24,9.92,-0.03,-0.01,-0.00,31.29
55010184,1899,1,211273,243034,1.26,-0.25,9.93,-0.03,-0.01,-0.00,31.29
55050183,1898,1,211234,243204,1.27,-0.23,9.94,-0.03,-0.01,-0.00,31.29
55090184,1895,1,211207,243051,1.25,-0.24,9.96,-0.03,-0.01,-0.00,31.29
55130183,1891,1,211182,242519,1.27,-0.25,9.92,-0.03,-0.01,-0.00,31.29
55170184,1905,1,210434,239904,1.27,-0.24,9.91,-0.03,-0.01,-0.00,31.29
55210182,1911,1,209432,237416,1.25,-0.24,9.92,-0.03,-0.01,-0.01,31.29
55250185,1904,1,208994,236466,1.24,-0.25,9.93,-0.03,-0.01,-0.00,31.29
55290183,1891,1,208847,236260,1.24,-0.25,9.94,-0.03,-0.01,-0.00,31.29
55330184,1904,1,208806,236221,1.24,-0.23,9.93,-0.03,-0.01,-0.00,31.29
55370183,1904,1,208897,236655,1.24,-0.24,9.93,-0.03,-0.01,-0.00,31.29
55410185,1898,1,208922,236686,1.25,-0.25,9.92,-0.03,-0.01,-0.00,31.29
55449869,1879,1,208974,236528,1.25,-0.24,9.92,-0.03,-0.01,-0.00,31.19
55490184,1899,1,208925,236168,1.25,-0.23,9.93,-0.03,-0.01,-0.01,31.19
55530183,1888,1,208712,235750,1.26,-0.23,9.95,-0.03,-0.01,-0.00,31.19
55570184,1890,1,208657,235609,1.23,-0.24,9.92,-0.03,-0.01,-0.01,31.19
55610183,1903,1,208692,235702,1.25,-0.25,9.91,-0.03,-0.01,-0.00,31.19
55650184,1895,1,208657,235838,1.25,-0.27,9.91,-0.03,-0.01,-0.00,31.19
55690183,1894,1,208819,236015,1.24,-0.22,9.93,-0.03,-0.01,-0.00,31.19
55730184,1897,1,208822,236147,1.24,-0.23,9.95,-0.03,-0.01,-0.00,31.19
55770183,1902,1,208976,236360,1.24,-0.23,9.93,-0.03,-0.01,-0.00,31.19
55810184,1903,1,208895,235624,1.25,-0.21,9.89,-0.03,-0.01,-0.00,31.19
55850244,1893,1,208012,232108,1.24,-0.22,9.94,-0.03,-0.01,-0.00,31.19
55890184,1892,1,206846,229604,1.24,-0.23,9.93,-0.03,-0.01,-0.00,31.19
55930183,1891,1,206568,229850,1.24,-0.23,9.93,-0.03,-0.01,-0.00,31.19
55970184,1905,1,206748,231345,1.24,-0.23,9.93,-0.03,-0.01,-0.01,31.19
56010183,1894,1,207289,232781,1.24,-0.23,9.91,-0.03,-0.01,-0.00,31.19
56050184,1891,1,207673,233846,1.25,-0.24,9.93,-0.03,-0.01,-0.00,31.19
56090183,1891,1,207867,234000,1.24,-0.23,9.92,-0.03,-0.01,-0.01,31.19
56130185,1890,1,207905,233995,1.25,-0.24,9.93,-0.03,-0.01,-0.00,31.19
56170183,1897,1,207964,233979,1.24,-0.24,9.91,-0.03,-0.01,-0.00,31.19
56210184,1890,1,207988,233844,1.25,-0.23,9.92,-0.03,-0.01,-0.00,31.19
56250183,1902,1,207971,233800,1.24,-0.24,9.95,-0.03,-0.01,-0.00,31.19
56290184,1904,1,208053,233974,1.24,-0.22,9.93,-0.03,-0.01,-0.00,31.19
56330183,1904,1,208086,233997,1.26,-0.24,9.94,-0.03,-0.01,-0.00,31.19
56370185,1904,1,208122,234145,1.24,-0.22,9.91,-0.03,-0.01,-0.00,31.19
56410183,1899,1,208285,234312,1.24,-0.22,9.92,-0.03,-0.01,-0.00,31.19
56450184,1893,1,208304,233933,1.23,-0.23,9.94,-0.03,-0.01,-0.01,31.19
56490868,1878,1,207681,230257,1.22,-0.23,9.93,-0.03,-0.01,-0.00,31.25
56529184,1903,1,206089,225885,1.25,-0.23,9.92,-0.03,-0.01,-0.01,31.25
56569183,1906,1,205212,224987,1.25,-0.23,9.94,-0.03,-0.01,-0.00,31.25
56609185,1904,1,205175,225500,1.24,-0.26,9.93,-0.03,-0.01,-0.01,31.25
56649183,1904,1,205470,226255,1.25,-0.24,9.92,-0.03,-0.01,-0.00,31.25
56689184,1899,1,205797,227696,1.24,-0.22,9.94,-0.03,-0.01,-0.00,31.25
56729183,1898,1,206291,228558,1.24,-0.23,9.93,-0.03,-0.01,-0.00,31.25
56769185,1906,1,206510,229153,1.23,-0.22,9.94,-0.03,-0.01,-0.00,31.25
56809182,1905,1,206694,229669,1.25,-0.23,9.94,-0.03,-0.01,-0.00,31.25
56849184,1903,1,206873,230551,1.24,-0.26,9.94,-0.03,-0.01,-0.01,31.25
56889182,1903,1,207153,231436,1.26,-0.22,9.95,-0.03,-0.01,-0.00,31.25
56929184,1904,1,207499,232197,1.25,-0.24,9.93,-0.03,-0.01,-0.00,31.25
56969182,1898,1,207606,232604,1.24,-0.25,9.93,-0.03,-0.01,-0.00,31.25
57009184,1914,1,207868,233268,1.25,-0.23,9.93,-0.03,-0.01,-0.00,31.25
57049182,1918,1,208071,233777,1.24,-0.21,9.95,-0.03,-0.01,-0.00,31.25
57089184,1913,1,208009,232252,1.25,-0.24,9.90,-0.03,-0.01,-0.00,31.25
57129182,1907,1,206884,227928,1.24,-0.23,9.93,-0.03,-0.01,-0.00,31.25
57169184,1910,1,205750,225926,1.25,-0.24,9.92,-0.03,-0.01,-0.00,31.25
57209183,1914,1,205406,225881,1.22,-0.25,9.91,-0.03,-0.01,-0.00,31.25
57249184,1917,1,205563,225784,1.25,-0.25,9.92,-0.03,-0.01,-0.00,31.25
57289183,1914,1,205501,226235,1.26,-0.24,9.92,-0.03,-0.01,-0.00,31.25
57329184,1904,1,205770,226876,1.27,-0.23,9.94,-0.03,-0.01,-0.00,31.25
57369183,1899,1,206073,228006,1.24,-0.21,9.95,-0.03,-0.01,-0.00,31.25
57409185,1904,1,206533,229098,1.24,-0.22,9.93,-0.03,-0.01,-0.00,31.25
57449182,1901,1,206676,229686,1.26,-0.24,9.91,-0.03,-0.01,-0.00,31.25
57489184,1890,1,206877,229930,1.26,-0.24,9.92,-0.03,-0.01,-0.01,31.25
57529868,1879,1,206977,230126,1.23,-0.24,9.95,-0.03,-0.01,-0.01,31.21
57568185,1919,1,207066,230277,1.24,-0.24,9.93,-0.03,-0.01,-0.00,31.21
57608183,1936,1,207049,230558,1.24,-0.25,9.93,-0.03,-0.01,-0.00,31.21
57648185,1932,1,207061,230483,1.25,-0.23,9.96,-0.03,-0.01,-0.00,31.21
57688191,1939,1,206980,229691,1.25,-0.25,9.92,-0.03,-0.01,-0.01,31.21
57728187,1932,1,206171,225490,1.24,-0.24,9.90,-0.03,-0.01,-0.00,31.21
57768183,1921,1,204183,220832,1.25,-0.24,9.92,-0.03,-0.01,-0.00,31.21
57808185,1930,1,203336,220262,1.25,-0.23,9.93,-0.03,-0.01,-0.01,31.21
57848183,1931,1,203331,220534,1.25,-0.24,9.93,-0.03,-0.01,-0.01,31.21
57888185,1918,1,203563,221349,1.25,-0.25,9.90,-0.03,-0.01,-0.00,31.21
57928182,1919,1,203914,222282,1.24,-0.22,9.94,-0.03,-0.01,-0.00,31.21
57968184,1920,1,204175,223199,1.25,-0.22,9.94,-0.03,-0.01,-0.00,31.21
58008182,1914,1,204474,223696,1.24,-0.25,9.92,-0.03,-0.01,-0.00,31.21
58048185,1906,1,204487,223696,1.23,-0.26,9.93,-0.03,-0.01,-0.00,31.21
58088188,1899,1,204567,224110,1.25,-0.24,9.93,-0.03,-0.01,-0.01,31.21
58128185,1903,1,204745,224576,1.24,-0.23,9.94,-0.03,-0.01,-0.00,31.21
58168183,1914,1,204888,225124,1.24,-0.23,9.90,-0.03,-0.01,-0.00,31.21
58208184,1904,1,205084,225688,1.24,-0.25,9.95,-0.03,-0.01,-0.00,31.21
58248182,1915,1,205271,226126,1.24,-0.24,9.94,-0.03,-0.01,-0.00,31.21
58288184,1904,1,205394,226401,1.24,-0.21,9.93,-0.03,-0.01,-0.00,31.21
58328183,1915,1,205544,226382,1.23,-0.24,9.90,-0.03,-0.01,-0.00,31.21
58368184,1917,1,204964,222615,1.25,-0.23,9.93,-0.03,-0.01,-0.01,31.21
58408184,1918,1,203464,219813,1.25,-0.23,9.92,-0.03,-0.01,-0.00,31.21
58448185,1918,1,203052,219509,1.24,-0.25,9.93,-0.03,-0.01,-0.00,31.21
58488183,1916,1,203047,219600,1.24,-0.24,9.94,-0.03,-0.01,-0.00,31.21
58529184,1904,1,203143,220265,1.24,-0.22,9.92,-0.03,-0.01,-0.01,31.21
58569869,1886,1,203654,221549,1.24,-0.24,9.93,-0.03,-0.01,-0.00,31.33
58608185,1914,1,203948,221808,1.25,-0.22,9.93,-0.03,-0.01,-0.00,31.33
58648182,1912,1,203989,221777,1.25,-0.24,9.92,-0.03,-0.01,-0.00,31.33
58688185,1917,1,203884,221867,1.24,-0.23,9.95,-0.03,-0.01,-0.00,31.33
58728183,1919,1,204098,222749,1.25,-0.23,9.92,-0.03,-0.01,-0.01,31.33
58768185,1914,1,204523,223884,1.24,-0.23,9.93,-0.03,-0.01,-0.00,31.33
58808182,1911,1,204821,224616,1.24,-0.24,9.94,-0.03,-0.01,-0.01,31.33
58848185,1920,1,205027,225156,1.23,-0.25,9.91,-0.03,-0.01,-0.00,31.33
58888183,1911,1,205269,225887,1.24,-0.24,9.92,-0.03,-0.01,-0.00,31.33
58928184,1915,1,205560,226766,1.23,-0.22,9.92,-0.03,-0.01,-0.00,31.33
58968183,1911,1,205752,226270,1.25,-0.24,9.95,-0.03,-0.01,-0.00,31.33
59008185,1909,1,204726,222072,1.25,-0.23,9.93,-0.03,-0.01,-0.00,31.33
59048182,1905,1,203411,220445,1.23,-0.24,9.92,-0.03,-0.01,-0.01,31.33
59088185,1911,1,203392,221204,1.24,-0.23,9.92,-0.03,-0.01,-0.01,31.33
59128182,1904,1,203830,222389,1.24,-0.23,9.94,-0.03,-0.01,-0.00,31.33
59168184,1915,1,204412,223739,1.24,-0.24,9.92,-0.03,-0.01,-0.00,31.33
59208182,1911,1,204809,224522,1.24,-0.26,9.93,-0.03,-0.01,-0.01,31.33
59248185,1904,1,204923,224772,1.25,-0.25,9.91,-0.03,-0.01,-0.01,31.33
59288183,1890,1,204951,224833,1.25,-0.24,9.95,-0.03,-0.01,-0.00,31.33
59328184,1887,1,205020,225236,1.24,-0.24,9.93,-0.03,-0.01,-0.01,31.33
59368183,1891,1,205286,225990,1.25,-0.23,9.94,-0.03,-0.01,-0.00,31.33
59408184,1900,1,205557,226649,1.25,-0.23,9.92,-0.03,-0.01,-0.00,31.33
59448183,1890,1,205721,227075,1.26,-0.23,9.92,-0.03,-0.01,-0.00,31.33
59488184,1895,1,205891,227269,1.24,-0.23,9.94,-0.03,-0.01,-0.00,31.33
59528210,1901,1,205872,227116,1.24,-0.23,9.94,-0.03,-0.01,-0.00,31.33
59568184,1898,1,205736,226640,1.24,-0.22,9.93,-0.03,-0.01,-0.00,31.33
59608868,1874,1,205243,223613,1.26,-0.24,9.93,-0.03,-0.01,-0.00,31.15
59649185,1877,1,203730,219559,1.25,-0.23,9.92,-0.03,-0.01,-0.00,31.15
59689183,1881,1,202725,218326,1.25,-0.23,9.92,-0.03,-0.01,-0.00,31.15
59729191,1880,1,202511,218053,1.27,-0.23,9.91,-0.03,-0.01,-0.00,31.15
59769183,1897,1,202543,218003,1.24,-0.25,9.94,-0.03,-0.01,-0.00,31.15
59809184,1889,1,202574,217705,1.24,-0.24,9.92,-0.03,-0.01,-0.00,31.15
59849183,1887,1,202345,217082,1.24,-0.25,9.93,-0.03,-0.01,-0.00,31.15
59889185,1886,1,202232,216881,1.24,-0.24,9.92,-0.03,-0.01,-0.00,31.15
59929183,1891,1,202178,217073,1.23,-0.24,9.92,-0.03,-0.01,-0.01,31.15
59969185,1886,1,202398,218126,1.24,-0.23,9.92,-0.03,-0.01,-0.01,31.15
60009183,1891,1,202950,219807,1.24,-0.22,9.93,-0.03,-0.01,-0.01,31.15
60049184,1893,1,203591,221471,1.23,-0.23,9.92,-0.03,-0.01,-0.01,31.15
60089183,1897,1,204085,222534,1.24,-0.25,9.93,-0.03,-0.01,-0.00,31.15
60129184,1891,1,204395,223103,1.26,-0.22,9.93,-0.03,-0.01,-0.01,31.15
60169183,1890,1,204514,223190,1.26,-0.22,9.91,-0.03,-0.01,-0.01,31.15
60209184,1902,1,204260,220927,1.24,-0.25,9.94,-0.03,-0.01,-0.00,31.15
60247183,1958,1,202758,217464,1.22,-0.24,9.94,-0.03,-0.01,-0.00,31.15
60287188,1963,1,202049,216654,1.26,-0.22,9.90,-0.03,-0.01,-0.00,31.15
60327183,1954,1,202018,216741,1.24,-0.22,9.93,-0.03,-0.01,-0.00,31.15
60367185,1939,1,202023,216880,1.23,-0.25,9.90,-0.03,-0.01,-0.00,31.15
60407182,1948,1,202305,217580,1.25,-0.23,9.94,-0.03,-0.01,-0.00,31.15
60447185,1951,1,202411,217615,1.24,-0.23,9.93,-0.03,-0.01,-0.00,31.15
60487183,1940,1,202390,217191,1.24,-0.25,9.92,-0.03,-0.01,-0.00,31.15
60527192,1936,1,202156,216596,1.25,-0.23,9.91,-0.03,-0.01,-0.01,31.15
60567183,1941,1,201981,216057,1.27,-0.25,9.92,-0.03,-0.01,-0.00,31.15
60607187,1941,1,201880,215751,1.24,-0.25,9.92,-0.03,-0.01,-0.01,31.15
60647869,1893,1,201658,215085,1.24,-0.24,9.91,-0.03,-0.01,-0.00,31.35
60688184,1891,1,201394,214803,1.24,-0.23,9.93,-0.03,-0.01,-0.01,31.35
60728183,1893,1,201544,215454,1.24,-0.23,9.94,-0.03,-0.01,-0.00,31.35
60768184,1898,1,201822,216552,1.24,-0.23,9.93,-0.03,-0.01,-0.01,31.35
60808183,1893,1,202471,217689,1.25,-0.23,9.93,-0.03,-0.01,-0.00,31.35
60848184,1898,1,202411,216788,1.24,-0.23,9.94,-0.03,-0.01,-0.01,31.35
60888182,1894,1,202210,216642,1.23,-0.24,9.92,-0.03,-0.01,-0.00,31.35
60928185,1887,1,202299,216623,1.24,-0.22,9.93,-0.03,-0.01,-0.00,31.35
60968183,1885,1,202356,216749,1.24,-0.23,9.91,-0.03,-0.01,-0.00,31.35
61008184,1887,1,202648,218509,1.24,-0.27,9.92,-0.03,-0.01,-0.01,31.35
61048183,1882,1,203627,220872,1.26,-0.25,9.90,-0.03,-0.01,-0.01,31.35
61088184,1878,1,204303,222206,1.24,-0.22,9.93,-0.03,-0.01,-0.00,31.35
61128182,1885,1,204822,224280,1.26,-0.25,9.92,-0.03,-0.01,-0.00,31.35
61168184,1885,1,206035,228036,1.24,-0.22,9.94,-0.03,-0.01,-0.01,31.35
61208182,1886,1,207211,231040,1.25,-0.24,9.93,-0.03,-0.01,-0.00,31.35
61248184,1892,1,208078,232393,1.26,-0.24,9.94,-0.03,-0.01,-0.01,31.35
61288183,1891,1,208231,233117,1.24,-0.23,9.95,-0.03,-0.01,-0.00,31.35
61328184,1890,1,208664,234143,1.25,-0.26,9.93,-0.03,-0.01,-0.00,31.35
61368208,1888,1,209012,234843,1.25,-0.23,9.90,-0.03,-0.01,-0.00,31.35
61408184,1893,1,209140,234942,1.24,-0.26,9.91,-0.03,-0.01,-0.00,31.35
61448182,1895,1,208936,232893,1.25,-0.23,9.93,-0.03,-0.01,-0.00,31.35
61488184,1904,1,207616,228282,1.25,-0.23,9.93,-0.03,-0.01,-0.00,31.35
61528183,1899,1,206457,226638,1.24,-0.22,9.94,-0.03,-0.01,-0.00,31.35
61568198,1899,1,206256,226798,1.25,-0.25,9.92,-0.03,-0.01,-0.00,31.35
61608183,1901,1,206299,227019,1.27,-0.24,9.92,-0.03,-0.01,-0.00,31.35
61648870,1901,1,206201,226564,1.26,-0.22,9.91,-0.03,-0.01,-0.00,31.11
61687183,1934,1,205988,226107,1.24,-0.23,9.93,-0.03,-0.01,-0.01,31.11
