timestamp_us,ecg,leads,ir,red,accX,accY,accZ,gyroX,gyroY,gyroZ,temp
1936491,1810,1,193153,241592,0.00,0.00,0.00,0.00,0.00,0.00,0.00
1966963,1778,1,193416,242513,0.54,-1.86,7.96,-0.03,-0.02,0.01,28.77
2007181,1791,1,193755,241810,0.36,-1.67,8.34,-0.03,-0.02,0.00,28.77
2047173,1808,1,193496,241688,0.36,-1.60,11.56,0.01,0.07,0.00,28.77
2087145,1822,1,192883,240491,0.09,-1.89,9.91,-0.02,0.01,0.00,28.77
2127163,1911,1,192226,239788,0.14,-2.11,8.82,-0.04,-0.05,0.00,28.77
2167176,1850,1,191975,239421,0.63,-1.86,8.73,-0.05,-0.10,0.00,28.77
2207173,1858,1,192578,241184,0.34,-1.43,10.46,-0.01,0.06,0.01,28.77
2247167,1910,1,193242,241904,0.50,-1.70,9.87,-0.01,0.02,0.00,28.77
2287163,1935,1,193626,242300,-0.01,-1.81,10.60,-0.04,-0.04,-0.00,28.77
2327211,1963,1,193597,241893,0.37,-1.56,10.80,-0.04,-0.11,-0.00,28.77
2367193,2016,1,193006,240779,0.20,-1.55,10.19,0.01,-0.04,0.00,28.77
2407168,1971,1,192321,240713,0.48,-1.74,8.89,0.02,-0.00,0.00,28.77
2447162,1937,1,192762,241413,0.29,-1.71,10.03,-0.02,-0.02,-0.01,28.77
2487197,1920,1,193531,242597,-0.02,-1.15,11.53,-0.02,-0.01,-0.01,28.77
2527209,1959,1,193898,243325,0.29,-1.34,9.83,-0.01,-0.03,-0.00,28.77
2567196,1950,1,194194,243960,0.30,-1.62,9.38,-0.00,0.00,-0.00,28.77
2607178,1915,1,194238,244035,0.36,-1.36,9.56,-0.02,-0.03,-0.00,28.77
2647197,1983,1,194512,244223,0.25,-1.14,10.50,-0.04,-0.05,-0.00,28.77
2687193,1946,1,194452,244275,0.30,-1.50,9.67,-0.02,-0.01,-0.00,28.77
2727196,1985,1,194406,244282,0.50,-1.61,9.60,-0.02,-0.01,-0.00,28.77
2767193,1918,1,194225,243863,0.42,-1.53,9.82,-0.04,-0.04,-0.00,28.77
2807197,1890,1,193892,243528,0.32,-1.02,8.85,-0.05,-0.08,-0.01,28.77
2847193,1903,1,193947,243921,0.64,-1.27,9.96,-0.03,-0.01,-0.00,28.77
2885196,1948,1,194132,244554,0.71,-1.37,9.16,-0.02,-0.01,-0.01,28.77
2925194,1915,1,194619,245045,0.13,-1.17,9.28,-0.05,-0.02,-0.01,28.77
2965196,1870,1,194830,245152,0.22,-1.04,9.40,-0.05,-0.05,-0.01,28.77
3005879,1901,1,194788,244912,0.30,-0.85,9.45,-0.04,-0.02,-0.00,28.77
3046197,1854,1,195028,245852,0.01,-0.90,9.14,-0.02,0.03,0.00,28.77
3086163,1861,1,195910,247442,-0.19,-0.51,8.46,-0.01,0.03,0.00,28.77
3126181,1898,1,197341,249847,-0.32,-0.29,10.01,-0.01,0.05,0.00,28.77
3166174,1883,1,199014,251914,-0.29,-0.35,9.25,-0.01,0.06,0.01,28.77
3206176,1889,1,199652,250723,0.96,-0.54,9.28,-0.02,-0.01,0.10,28.77
3246174,1907,1,198322,249207,-0.27,-0.59,10.89,-0.06,-0.01,0.46,28.77
3286196,1909,1,197243,248356,-0.43,-0.72,10.43,-0.03,0.02,0.28,28.77
3326173,1931,1,196361,247032,-0.07,-1.25,10.05,-0.03,0.01,0.06,28.77
3366173,1922,1,195036,244698,0.11,-1.22,10.14,-0.07,-0.02,0.00,28.77
3406173,1937,1,193097,241192,0.06,-1.11,10.49,-0.08,-0.07,-0.00,28.77
3446192,1909,1,191066,238413,0.19,-0.89,11.03,-0.06,0.01,0.00,28.77
3486163,1886,1,190114,237913,0.22,-1.35,9.86,-0.07,0.07,0.00,28.77
3526162,1815,1,190506,238588,-0.23,-1.02,9.52,-0.08,0.04,0.00,28.77
3566173,1903,1,191292,239697,-0.21,-1.02,11.34,-0.08,0.06,0.00,28.77
3606173,1907,1,192006,241061,-0.30,-0.91,10.09,-0.06,0.04,0.00,28.77
3646173,1911,1,192701,241768,-0.73,-1.13,8.85,-0.06,0.03,0.00,28.77
3686173,1906,1,193319,242628,-0.68,-0.95,9.65,-0.05,0.01,0.00,28.77
3726173,1952,1,193801,243617,-0.32,-1.05,9.34,-0.05,-0.00,0.00,28.77
3766192,1950,1,194386,244463,-0.32,-0.94,9.45,-0.04,-0.01,-0.01,28.77
3806209,1937,1,194539,244459,-0.86,-1.06,9.41,-0.03,0.01,-0.00,28.77
3846192,1911,1,194135,243441,-0.40,-0.98,9.27,-0.03,-0.03,-0.04,28.77
3886209,1968,1,193915,243230,-0.67,-0.99,10.60,-0.01,-0.01,-0.02,28.77
3926209,1974,1,193827,243425,-0.60,-0.79,9.06,0.00,-0.01,-0.00,28.77
3966190,1935,1,193970,243628,-0.68,-1.22,10.22,-0.01,-0.03,-0.01,28.77
4006899,1934,1,193858,243474,-0.84,-0.51,9.91,0.01,-0.00,-0.01,28.69
4045190,1967,1,193585,243374,-0.78,-0.69,10.22,0.01,0.03,-0.01,28.69
4085173,1907,1,193517,243612,-0.44,-0.74,10.82,-0.01,0.00,-0.01,28.69
4125190,1930,1,193717,243933,-0.42,-0.68,10.68,-0.03,-0.04,-0.01,28.69
4165211,1953,1,193783,244117,-0.75,-0.60,10.34,-0.03,-0.03,-0.01,28.69
4205209,1919,1,193734,243874,-1.13,-0.59,9.78,-0.02,-0.02,-0.01,28.69
4245213,1903,1,193615,243907,-0.91,-0.51,10.00,-0.01,0.01,-0.01,28.69
4285193,1873,1,193685,244061,-0.19,-0.31,10.54,-0.02,0.00,-0.02,28.69
4325196,1897,1,193820,244039,-0.13,-0.51,10.54,-0.06,-0.04,-0.02,28.69
4365209,1898,1,193847,244095,-0.29,-0.37,9.62,-0.06,-0.06,-0.01,28.69
4405211,1895,1,194177,244710,-1.02,-0.43,9.21,-0.03,-0.00,-0.00,28.69
4445209,1902,1,194578,245089,-0.66,-0.62,9.55,-0.02,0.02,-0.01,28.69
4485196,1903,1,194546,244713,-0.17,-0.72,10.53,-0.04,-0.03,-0.02,28.69
4525217,1903,1,194270,243678,-0.14,-0.53,9.86,-0.06,-0.07,-0.01,28.69
4565211,1872,1,193785,242579,-0.75,-0.61,9.36,-0.03,-0.01,-0.00,28.69
4605209,1902,1,193042,241327,-0.57,-0.92,9.78,-0.01,0.00,-0.01,28.69
4645196,1871,1,192144,239854,-0.14,-1.25,10.52,-0.04,-0.03,-0.01,28.69
4685210,1872,1,191215,238180,0.10,-1.13,10.38,-0.05,-0.08,-0.01,28.69
4725196,1853,1,190168,236249,-0.09,-0.99,9.64,-0.03,-0.07,-0.01,28.69
4765209,1877,1,189112,234283,-0.12,-0.99,9.94,-0.03,-0.04,-0.01,28.69
4805211,1871,1,188372,232925,0.27,-1.34,10.77,-0.03,-0.02,-0.02,28.69
4845191,1792,1,188158,232484,0.27,-1.49,10.06,-0.04,-0.03,-0.01,28.69
4885196,1846,1,188311,233025,-0.06,-1.26,9.22,-0.02,-0.03,-0.00,28.69
4925209,1897,1,188573,233835,-0.13,-1.07,9.35,-0.02,0.02,-0.01,28.69
4965196,1936,1,189011,235147,0.19,-1.43,10.39,-0.05,-0.01,-0.01,28.69
5005196,1872,1,189448,236146,0.35,-1.32,9.33,-0.04,-0.05,-0.01,28.69
5045882,1841,1,190017,236971,-0.06,-1.05,9.40,-0.02,-0.01,0.00,28.53
5084190,1974,1,190398,237977,-0.16,-1.00,9.44,-0.01,0.04,-0.00,28.53
5124195,1963,1,191097,239245,-0.04,-1.51,10.12,-0.04,0.03,-0.01,28.53
5164193,1953,1,191901,240867,0.21,-1.26,9.55,-0.03,-0.05,-0.00,28.53
5204196,1954,1,192771,242127,-0.11,-0.66,8.93,-0.01,-0.01,0.00,28.53
5244193,1944,1,193471,243050,-0.25,-1.23,10.39,-0.02,0.00,-0.01,28.53
5284196,2000,1,193804,243201,-0.09,-0.73,10.00,-0.03,-0.03,-0.01,28.53
5324209,1965,1,193941,243335,-0.17,-1.07,10.08,-0.02,0.01,-0.00,28.53
5364196,1936,1,193641,242812,-0.10,-1.22,10.44,-0.04,-0.03,-0.01,28.53
5404209,1945,1,193148,241729,-0.21,-0.94,10.16,-0.02,0.00,-0.00,28.53
5444196,1934,1,192201,240567,0.24,-1.67,9.92,-0.05,-0.07,-0.01,28.53
5484196,1915,1,191650,239887,0.47,-1.51,10.65,-0.04,-0.04,-0.01,28.53
5524203,1919,1,191225,238952,0.21,-1.46,10.64,-0.04,-0.02,-0.01,28.53
5564196,1918,1,190477,237698,0.45,-1.79,9.74,-0.06,-0.03,-0.01,28.53
5604196,1922,1,189939,236786,0.18,-1.45,10.25,-0.06,-0.01,-0.01,28.53
5644196,1963,1,189911,237013,0.07,-1.42,10.32,-0.04,0.08,0.00,28.53
5684179,1922,1,189958,237036,0.47,-1.65,8.42,-0.05,-0.02,0.00,28.53
5724173,1928,1,190222,237392,0.39,-1.64,10.21,-0.05,-0.01,-0.00,28.53
5764195,1934,1,190105,237621,0.77,-1.62,9.47,-0.03,-0.04,-0.01,28.53
5804193,1932,1,190405,238038,0.17,-1.77,9.41,-0.04,-0.00,-0.00,28.53
5844196,1935,1,190839,239080,0.27,-2.07,9.42,-0.04,0.01,0.00,28.53
5884179,1937,1,191359,239610,0.68,-2.12,9.54,-0.04,-0.04,-0.01,28.53
5924196,1941,1,191745,240132,0.23,-1.44,10.29,-0.01,0.03,-0.01,28.53
5964176,1949,1,192017,240780,-0.10,-2.00,8.55,-0.01,0.02,0.01,28.53
6004176,1949,1,192188,240308,0.56,-1.80,9.56,-0.04,-0.07,-0.01,28.53
6044193,1942,1,192294,240781,0.12,-1.32,10.76,-0.00,0.03,-0.01,28.53
6084862,1911,1,192906,241968,-0.27,-1.65,9.02,0.00,0.04,0.01,28.45
6123162,1915,1,193471,242735,0.62,-1.88,9.63,-0.04,-0.07,-0.01,28.45
6163196,1890,1,193558,242623,0.44,-1.36,11.04,-0.01,0.00,-0.02,28.45
6203173,1905,1,193277,242117,-0.09,-1.48,10.15,0.00,0.03,-0.00,28.45
6243176,1900,1,192739,241487,0.28,-1.51,8.83,-0.02,-0.02,-0.00,28.45
6283193,1844,1,192554,240880,0.24,-1.72,10.33,-0.03,-0.03,-0.00,28.45
6323195,1840,1,192207,240719,0.70,-1.72,10.14,-0.03,-0.05,-0.01,28.45
6363191,1846,1,192012,240181,0.65,-1.77,10.54,-0.04,-0.05,-0.02,28.45
6403196,1938,1,191745,240024,0.24,-1.61,11.42,-0.03,0.02,-0.01,28.45
6443176,1922,1,191556,239844,0.08,-1.24,9.84,-0.02,0.03,-0.00,28.45
6483176,1927,1,191565,239752,0.02,-1.66,9.84,-0.04,0.01,0.00,28.45
6523173,1926,1,191461,240009,0.51,-1.82,9.35,-0.05,-0.04,0.00,28.45
6563173,1909,1,191701,240496,0.80,-1.73,9.67,-0.06,-0.07,-0.00,28.45
6603193,1923,1,192213,241462,0.47,-1.62,10.81,-0.05,-0.01,-0.00,28.45
6643195,1904,1,192435,241481,0.51,-1.60,9.88,-0.03,-0.01,-0.01,28.45
6683190,1920,1,192351,240277,0.14,-1.24,10.27,-0.02,0.02,-0.00,28.45
6723176,1918,1,191718,238923,0.21,-1.23,10.23,-0.00,0.06,0.00,28.45
6763164,1904,1,191320,238290,0.19,-1.55,8.72,-0.01,0.05,0.00,28.45
6803167,1936,1,191167,238002,0.14,-1.54,9.00,-0.01,0.02,0.00,28.45
6843162,1905,1,191039,238361,0.22,-1.66,8.60,0.00,0.04,0.01,28.45
6883145,1904,1,191268,238567,0.22,-1.80,8.15,-0.02,-0.00,0.01,28.45
6924173,1794,1,191460,239214,0.23,-1.61,9.31,-0.01,0.02,0.01,28.45
6964163,1910,1,191645,240177,0.37,-1.96,8.19,-0.02,-0.02,0.01,28.45
7004173,1959,1,192273,241051,0.44,-1.98,8.45,-0.04,-0.09,-0.07,28.45
7044192,2000,1,192916,241938,0.34,-1.81,10.13,-0.05,-0.06,-0.02,28.45
7084191,1959,1,192886,242209,0.90,-1.77,9.16,-0.04,-0.08,-0.01,28.45
7124882,1936,1,192825,241415,0.60,-2.07,9.50,-0.07,-0.13,-0.01,28.11
7163192,1938,1,192610,241394,0.46,-1.90,10.92,-0.06,-0.09,-0.00,28.11
7203196,1930,1,192119,240733,0.75,-1.90,9.09,-0.06,-0.13,-0.01,28.11
7243193,1904,1,191907,239906,0.38,-2.14,10.14,-0.09,-0.13,-0.00,28.11
7283196,1899,1,191328,239293,0.63,-1.65,9.70,-0.05,-0.10,0.00,28.11
7323215,1830,1,191014,239111,0.66,-2.06,8.41,-0.04,-0.09,0.00,28.11
7363175,1883,1,191004,239138,0.81,-1.89,8.06,-0.05,-0.06,-0.00,28.11
7403192,1863,1,191226,238928,0.76,-1.44,10.02,-0.02,0.04,-0.00,28.11
7443175,1888,1,190970,238018,0.56,-1.44,9.43,-0.01,0.05,0.00,28.11
7483163,1873,1,190765,237562,0.46,-1.50,10.00,-0.02,0.04,-0.01,28.11
7523240,1929,1,191014,238368,0.39,-1.70,11.07,-0.05,0.01,-0.01,28.11
7563173,1866,1,191716,239921,0.31,-1.47,10.35,-0.03,0.00,0.00,28.11
7603163,1909,1,192260,241100,0.53,-2.04,8.63,-0.06,-0.07,0.00,28.11
7643173,1936,1,192968,241475,0.60,-2.08,8.65,-0.05,-0.06,0.00,28.11
7683173,1910,1,192617,240566,0.95,-1.47,9.82,-0.01,0.00,0.00,28.11
7723163,1889,1,191972,239424,0.58,-1.99,10.43,-0.03,0.02,0.00,28.11
7763167,1877,1,191267,239073,0.64,-2.00,9.77,-0.04,-0.02,-0.01,28.11
7803193,1872,1,191789,240534,0.37,-1.77,9.62,-0.04,-0.00,0.01,28.11
7843176,1877,1,192711,242581,0.94,-1.69,9.20,0.01,0.06,-0.00,28.11
7883163,1904,1,194310,244588,0.53,-2.37,11.09,0.00,0.07,-0.29,28.11
7923167,1890,1,194417,244323,1.08,-1.18,8.82,-0.02,-0.07,-0.06,28.11
7962196,1913,1,194563,244432,0.10,-1.94,10.49,-0.08,-0.07,0.01,28.11
8002175,1920,1,194733,244704,0.66,-1.75,10.48,-0.01,0.02,0.00,28.11
8042162,1915,1,193967,242905,0.79,-1.93,9.84,-0.04,-0.03,0.00,28.11
8082175,1895,1,192879,241491,0.45,-1.68,9.87,-0.07,-0.08,0.00,28.11
8122173,1907,1,192286,240242,0.78,-1.91,9.52,-0.04,-0.02,0.00,28.11
8162862,1927,1,191496,237181,0.57,-1.39,10.61,-0.04,0.05,0.00,28.31
8203162,1937,1,190690,236576,0.39,-2.00,10.07,-0.04,0.00,0.01,28.31
8243162,1948,1,190538,236580,1.12,-2.13,9.22,-0.02,-0.00,0.00,28.31
8283173,1949,1,190534,236554,0.49,-2.09,9.00,-0.06,-0.06,0.00,28.31
8323173,1974,1,190865,238160,1.18,-1.52,9.31,-0.03,0.00,-0.00,28.31
8363173,1968,1,192278,241054,0.34,-1.79,10.40,-0.06,0.07,0.00,28.31
8403164,1959,1,193881,243384,0.49,-1.97,9.62,-0.04,0.03,0.01,28.31
8443166,1990,1,194149,243427,0.87,-2.07,9.58,-0.04,-0.00,0.00,28.31
8483176,1973,1,194278,243622,0.64,-2.30,8.75,-0.03,-0.05,0.00,28.31
8523182,1968,1,194307,243994,0.97,-1.63,9.56,-0.03,-0.02,0.00,28.31
8563173,1965,1,194708,244719,0.42,-1.94,10.00,-0.05,-0.03,0.00,28.31
8603173,1910,1,195051,244818,0.70,-1.84,10.30,-0.03,0.02,0.01,28.31
8643162,1940,1,194801,244405,0.25,-2.09,9.47,-0.01,-0.01,0.01,28.31
8683173,1914,1,194401,243824,0.33,-2.13,10.07,-0.02,0.02,0.01,28.31
8723167,1924,1,194060,243856,0.76,-2.04,9.37,-0.02,-0.02,0.00,28.31
8763173,1897,1,194178,243909,0.09,-1.92,9.76,-0.06,-0.02,0.01,28.31
8803173,1841,1,194054,244026,0.75,-1.43,10.23,-0.02,-0.00,-0.00,28.31
8843192,1888,1,194133,243450,-0.13,-1.82,11.27,-0.04,0.02,0.00,28.31
8883173,1898,1,193283,241885,0.62,-1.75,9.82,-0.02,0.01,-0.00,28.31
8923173,1853,1,192860,240478,0.08,-2.59,9.99,-0.03,-0.02,-0.00,28.31
8962236,1843,1,191921,239783,0.55,-2.17,9.53,-0.03,-0.02,-0.00,28.31
9002192,1845,1,191768,239239,0.40,-2.16,9.50,-0.06,-0.03,-0.01,28.31
9042196,1840,1,191496,239044,0.56,-1.83,9.60,-0.06,-0.05,-0.01,28.31
9082192,1856,1,191763,239553,0.37,-1.92,10.20,-0.07,0.00,-0.01,28.31
9122173,1847,1,191208,239073,0.81,-1.30,9.30,-0.04,-0.07,-0.01,28.31
9162901,1829,1,191495,239845,0.61,-1.65,10.09,-0.03,-0.01,-0.01,28.27
9201195,1854,1,192470,243249,0.86,-1.68,9.66,-0.03,0.04,-0.01,28.27
9241175,1894,1,194986,246162,0.37,-2.32,9.76,-0.05,0.04,-0.01,28.27
9281175,1895,1,195708,246332,0.59,-1.97,9.21,-0.02,-0.03,-0.01,28.27
9321195,1893,1,195472,244816,0.40,-2.48,10.27,-0.04,-0.03,-0.01,28.27
9361195,1883,1,194547,244846,0.13,-2.24,9.51,-0.03,-0.02,-0.01,28.27
9401190,1882,1,194740,244655,0.32,-2.35,9.59,-0.05,0.01,-0.00,28.27
9441173,1875,1,194673,244901,0.08,-1.98,9.71,-0.03,0.00,0.00,28.27
9481162,1893,1,194570,244864,0.78,-1.68,9.50,-0.02,-0.03,-0.00,28.27
9521195,1904,1,195009,245911,0.70,-1.81,9.92,-0.00,0.01,-0.00,28.27
9561173,1873,1,195039,245833,0.84,-1.87,9.24,-0.03,-0.06,-0.01,28.27
9601195,1917,1,195226,246028,0.65,-1.82,10.56,-0.05,-0.03,-0.01,28.27
9641196,1923,1,195034,246206,0.75,-2.15,9.65,-0.03,-0.02,-0.01,28.27
9681195,1931,1,195119,245913,0.33,-2.23,9.57,-0.06,-0.04,-0.01,28.27
9721195,1915,1,194881,245464,0.07,-2.10,9.71,-0.06,-0.03,-0.01,28.27
9761195,1931,1,194618,245241,0.38,-1.61,10.60,-0.05,-0.02,-0.01,28.27
9801191,1888,1,194544,245360,0.31,-1.88,10.10,-0.05,-0.01,-0.01,28.27
9841196,1936,1,194539,245493,0.60,-1.52,9.31,-0.04,-0.03,-0.01,28.27
9881192,1931,1,194731,245580,0.45,-1.64,9.98,-0.05,-0.02,-0.01,28.27
9921192,1929,1,194689,245664,0.61,-1.45,9.92,-0.03,-0.02,-0.01,28.27
9961195,1897,1,194782,245639,0.53,-1.77,9.44,-0.04,-0.04,-0.01,28.27
10001196,1891,1,194804,245798,0.56,-1.65,9.08,-0.04,-0.04,-0.01,28.27
10041196,1915,1,195097,245865,0.38,-1.59,9.60,-0.05,-0.04,-0.01,28.27
10081196,1879,1,195283,246459,0.46,-0.97,9.67,-0.02,-0.01,-0.01,28.27
10121196,1919,1,195869,247634,0.48,-1.53,9.39,-0.03,-0.01,-0.01,28.27
10161195,1938,1,196754,248747,0.17,-1.25,9.19,-0.02,-0.00,-0.01,28.27
10201882,1897,1,197335,249309,0.50,-1.07,9.25,-0.04,-0.04,-0.01,28.31
10242196,1900,1,198018,250324,0.31,-1.13,10.32,-0.03,0.02,-0.01,28.31
10282176,1901,1,197987,250609,0.64,-1.55,9.04,-0.03,-0.03,-0.01,28.31
10322196,1904,1,198241,249963,0.22,-1.67,9.18,-0.05,-0.00,-0.01,28.31
10362196,1913,1,197820,250185,0.55,-1.42,9.90,-0.04,-0.04,-0.01,28.31
10402196,1895,1,198172,250142,0.09,-1.06,9.63,-0.05,0.00,-0.01,28.31
10442174,1898,1,198234,250942,0.11,-1.10,9.71,-0.03,-0.01,-0.01,28.31
10482196,1893,1,198874,251675,0.38,-0.90,10.22,-0.03,0.02,-0.01,28.31
10522176,1904,1,199618,252207,0.15,-1.22,10.81,-0.04,-0.01,-0.01,28.31
10562196,1913,1,199480,251443,-0.00,-1.26,10.50,-0.03,0.00,-0.01,28.31
10602201,1899,1,198741,250343,0.06,-1.58,9.93,-0.03,-0.01,-0.01,28.31
10640195,1910,1,197771,249065,0.01,-1.51,10.47,-0.04,-0.01,-0.01,28.31
10680195,1915,1,196977,248270,-0.00,-1.25,9.37,-0.04,-0.02,-0.01,28.31
10720210,1921,1,196578,247906,0.23,-1.29,9.46,-0.03,0.00,-0.01,28.31
10760175,1915,1,196588,247273,0.01,-1.13,10.69,-0.05,-0.01,-0.01,28.31
10800233,1887,1,196196,247294,0.06,-1.15,10.14,-0.04,-0.02,-0.00,28.31
10840195,1886,1,195904,246929,0.31,-1.41,8.81,-0.03,-0.02,-0.01,28.31
10880195,1901,1,196018,247155,-0.08,-1.26,9.00,-0.03,0.01,-0.00,28.31
10920192,1903,1,196040,246813,0.21,-0.91,10.63,-0.03,0.01,-0.01,28.31
10960175,1901,1,195913,246779,-0.25,-1.31,10.16,-0.02,0.05,0.00,28.31
11000175,1911,1,195299,245305,0.00,-1.36,8.72,-0.02,-0.04,-0.01,28.31
11040195,1901,1,195247,245618,-0.12,-1.41,10.51,-0.03,-0.00,0.00,28.31
11080195,1903,1,195041,245682,0.06,-1.45,9.05,-0.03,-0.03,-0.01,28.31
11120196,1906,1,195305,245827,0.13,-1.23,10.38,-0.03,0.00,-0.01,28.31
11160175,1905,1,195188,245805,-0.05,-1.15,9.51,-0.02,-0.01,-0.00,28.31
11200212,1907,1,195205,246121,0.00,-1.62,10.44,-0.04,-0.03,-0.01,28.31
11240877,1907,1,195227,246207,0.08,-1.20,10.33,-0.02,-0.03,-0.01,28.33
11281195,1906,1,195089,245905,-0.17,-1.41,9.36,-0.02,-0.00,-0.01,28.33
11321209,1925,1,195078,245724,-0.02,-1.36,10.47,-0.04,-0.05,-0.01,28.33
11361209,1921,1,194855,245664,0.38,-0.62,10.07,-0.01,-0.02,-0.01,28.33
11401191,1905,1,195097,245732,0.03,-1.60,10.01,-0.05,-0.02,-0.01,28.33
11441193,1889,1,195094,246025,0.52,-0.93,9.82,-0.04,-0.11,-0.01,28.33
11481191,1921,1,195586,246024,-0.25,-1.09,9.80,-0.04,0.00,0.00,28.33
11521175,1918,1,195387,246043,0.23,-1.03,10.04,-0.02,-0.02,-0.01,28.33
11561191,1939,1,195323,245391,0.17,-1.72,11.09,-0.06,-0.01,-0.01,28.33
11601196,1927,1,194857,245031,0.21,-0.70,9.58,-0.02,-0.06,0.00,28.33
11641173,1957,1,194481,243142,0.51,-1.06,9.20,-0.04,-0.01,-0.00,28.33
11681193,1923,1,194071,243120,-0.30,-1.81,10.13,-0.05,0.01,0.01,28.33
11721176,1937,1,193977,242731,0.55,-0.88,8.66,-0.04,-0.06,-0.00,28.33
11761193,1922,1,193949,243532,0.10,-1.35,9.78,-0.03,0.01,0.01,28.33
11801162,1920,1,194106,243922,0.33,-1.41,8.27,-0.04,-0.05,0.00,28.33
11841173,1920,1,194493,244998,0.02,-0.98,9.91,-0.02,0.02,0.00,28.33
11881163,1917,1,194427,244381,-0.08,-1.39,8.31,-0.03,-0.03,0.01,28.33
11921196,1905,1,194083,243869,0.31,-1.82,10.20,-0.04,-0.05,0.00,28.33
11961173,1907,1,193388,243065,0.64,-1.33,9.46,-0.01,-0.05,-0.01,28.33
12001195,1904,1,193046,242065,0.37,-1.64,10.18,-0.04,-0.01,-0.01,28.33
12040195,1909,1,192405,241710,0.42,-1.25,10.55,-0.02,-0.01,-0.00,28.33
12080196,1909,1,192183,240859,0.28,-2.09,9.47,-0.03,0.00,0.00,28.33
12120162,1920,1,191868,240684,0.43,-1.57,10.05,-0.02,-0.04,0.00,28.33
12160175,1907,1,191864,240334,0.48,-2.07,10.51,-0.05,-0.04,-0.01,28.33
12200191,1907,1,191790,240367,0.21,-1.12,10.03,-0.01,-0.01,-0.01,28.33
12240215,1910,1,191869,240028,0.18,-1.57,9.93,-0.03,-0.06,0.01,28.33
12280860,1904,1,191933,240337,0.41,-1.84,11.30,-0.02,0.05,-0.00,28.11
12319175,1914,1,192601,240950,0.00,-0.84,9.18,-0.00,0.03,-0.00,28.11
12359173,1908,1,192932,242061,0.01,-1.52,9.45,-0.03,-0.03,0.01,28.11
12399175,1918,1,193095,242022,0.43,-1.85,9.86,-0.04,-0.05,-0.00,28.11
12439201,1911,1,193155,242172,0.60,-1.28,10.20,-0.02,0.00,-0.01,28.11
12479175,1910,1,193255,242202,0.25,-1.30,9.22,-0.03,0.01,-0.00,28.11
12519173,1911,1,193181,242297,-0.12,-1.62,10.44,-0.05,-0.02,0.00,28.11
12559195,1920,1,193049,242349,0.79,-1.88,10.72,-0.03,0.01,-0.01,28.11
12599175,1901,1,193509,243494,0.31,-0.78,9.68,-0.01,0.04,-0.00,28.11
12639175,1885,1,194025,244414,-0.30,-1.68,8.68,-0.04,-0.05,0.00,28.11
12679195,1889,1,194464,244584,0.53,-1.82,11.25,-0.04,-0.02,-0.00,28.11
12719196,1897,1,194346,244663,0.57,-1.35,9.86,-0.01,0.02,-0.01,28.11
12759175,1913,1,193984,243395,0.02,-1.12,8.93,-0.04,-0.05,-0.01,28.11
12799195,1921,1,193562,243261,0.10,-1.74,10.54,-0.04,-0.02,0.00,28.11
12839173,1922,1,193406,242641,0.62,-1.83,10.44,-0.04,-0.02,-0.01,28.11
12879195,1925,1,193231,241877,0.61,-1.30,10.81,-0.02,0.05,-0.01,28.11
12919175,1925,1,192840,241097,-0.41,-0.95,7.69,-0.03,-0.02,0.01,28.11
12959195,1904,1,193161,241924,0.02,-1.98,10.74,-0.07,-0.06,0.00,28.11
12999175,1905,1,193602,243002,1.06,-1.51,11.24,-0.02,-0.01,-0.00,28.11
13039195,1904,1,193486,242034,0.53,-1.03,8.81,-0.04,-0.06,-0.01,28.11
13079193,1911,1,193227,242405,-0.16,-1.58,10.21,-0.07,-0.05,0.00,28.11
13119196,1927,1,193480,241988,0.21,-1.94,9.97,-0.06,-0.00,0.00,28.11
13159176,1914,1,193034,241188,0.65,-1.98,10.56,-0.05,0.00,-0.00,28.11
13199175,1929,1,192581,240381,0.49,-1.31,9.28,-0.04,0.03,-0.01,28.11
13239175,1927,1,192507,240044,-0.23,-1.19,9.41,-0.06,-0.02,-0.00,28.11
13279212,1927,1,191879,239613,0.31,-1.61,9.76,-0.05,-0.04,0.00,28.11
13319860,1904,1,191781,239338,0.37,-1.79,9.40,-0.03,-0.02,-0.00,27.79
13360193,1905,1,191643,239570,1.01,-1.12,10.17,-0.01,-0.03,-0.01,27.79
13400195,1901,1,191528,239500,0.64,-1.43,9.09,-0.01,-0.03,-0.01,27.79
13440196,1909,1,191536,239574,0.20,-1.83,9.17,-0.03,-0.04,-0.00,27.79
13480191,1902,1,191580,239212,0.26,-2.41,10.51,-0.03,0.01,0.00,27.79
13520166,1903,1,191117,238750,0.67,-1.68,9.72,-0.01,-0.01,-0.00,27.79
13560191,1889,1,190994,237073,0.49,-1.13,9.32,-0.00,-0.01,-0.01,27.79
13600195,1902,1,190415,236633,0.10,-1.48,10.13,-0.01,-0.02,-0.00,27.79
13638193,1915,1,190847,237261,0.27,-1.83,10.09,-0.01,0.01,0.00,27.79
13678166,1905,1,191099,238517,0.43,-1.80,9.78,-0.01,-0.01,0.00,27.79
13718173,1913,1,191573,239069,0.78,-1.39,9.78,-0.01,-0.02,-0.01,27.79
13758195,1914,1,192044,239565,0.03,-1.37,11.01,-0.03,0.01,-0.00,27.79
13798173,1908,1,192159,239881,0.27,-1.81,9.71,-0.01,-0.01,0.00,27.79
13838175,1904,1,192297,239635,0.27,-1.85,10.42,-0.03,-0.01,0.00,27.79
13878179,1909,1,192141,240148,0.43,-1.46,9.90,-0.01,0.00,-0.01,27.79
13918175,1910,1,192230,239686,0.91,-1.04,9.95,-0.03,-0.05,-0.02,27.79
13958195,1908,1,192184,240405,0.42,-1.40,10.33,-0.02,-0.03,-0.00,27.79
13998196,1903,1,192330,240029,0.17,-1.57,8.62,-0.02,-0.03,-0.01,27.79
14038196,1910,1,192557,240357,0.09,-1.69,11.12,-0.02,0.02,0.00,27.79
14078181,1900,1,192110,240003,0.75,-1.75,9.05,-0.01,-0.02,-0.01,27.79
14118195,1906,1,192012,239766,0.79,-1.28,9.25,-0.02,-0.04,-0.01,27.79
14158195,1906,1,192022,240509,0.59,-1.71,9.79,-0.03,-0.03,-0.01,27.79
14198195,1917,1,192370,240705,0.01,-1.20,9.29,-0.04,-0.01,-0.01,27.79
14238196,1910,1,192606,240972,-0.21,-1.92,10.25,-0.03,0.02,0.00,27.79
14278195,1905,1,192434,240521,0.85,-1.55,9.25,-0.01,-0.01,-0.00,27.79
14318195,1905,1,192582,240152,0.81,-1.72,9.88,-0.04,-0.03,-0.01,27.79
14358881,1904,1,192504,240899,0.64,-1.59,10.03,-0.03,-0.06,-0.01,27.55
14399196,1911,1,192546,239894,0.86,-1.19,9.96,-0.04,-0.06,-0.02,27.55
14439196,1893,1,192204,240427,0.33,-1.57,11.82,-0.04,-0.01,-0.01,27.55
14479196,1903,1,192404,240299,0.31,-1.18,10.09,-0.03,0.03,-0.01,27.55
14519173,1889,1,192406,240312,0.04,-1.48,10.19,-0.03,0.02,-0.00,27.55
14559173,1907,1,192323,240014,0.48,-1.60,9.25,-0.03,-0.01,0.00,27.55
14599173,1905,1,192312,239889,0.93,-1.52,9.63,-0.04,-0.03,-0.00,27.55
14639196,1904,1,192074,239411,0.81,-1.84,9.02,-0.06,-0.08,-0.01,27.55
14679191,1904,1,191867,239080,0.91,-1.61,10.58,-0.07,-0.09,-0.01,27.55
14719196,1918,1,191665,239321,0.13,-1.69,9.48,-0.05,-0.00,-0.01,27.55
14759191,1891,1,191912,239257,0.21,-1.64,10.77,-0.06,-0.00,-0.02,27.55
14799196,1904,1,191679,239514,0.09,-1.45,10.67,-0.03,0.04,-0.00,27.55
14839173,1909,1,191827,239575,0.11,-1.96,8.01,-0.02,0.02,0.00,27.55
14879163,1913,1,191858,239281,0.52,-1.30,9.63,-0.02,-0.02,0.00,27.55
14919173,1904,1,191914,239951,0.26,-2.13,9.20,-0.02,0.02,0.01,27.55
14959167,1907,1,191545,237942,1.15,-1.59,7.90,-0.02,-0.15,-0.01,27.55
14999192,1903,1,191165,237643,0.55,-1.84,10.23,-0.05,-0.05,-0.01,27.55
15039196,1918,1,190834,237104,0.99,-1.38,9.03,-0.03,-0.12,-0.02,27.55
15079196,1920,1,191115,237370,0.67,-1.30,11.04,-0.04,-0.02,-0.02,27.55
15119193,1904,1,191054,238528,0.41,-1.32,11.40,0.00,0.05,-0.01,27.55
15159163,1911,1,191448,238525,0.54,-1.27,9.46,0.00,0.03,-0.01,27.55
15199163,1893,1,191790,239591,0.17,-1.41,10.96,-0.00,0.09,-0.00,27.55
15239173,1903,1,191967,239699,0.51,-1.27,9.49,0.01,0.06,-0.00,27.55
15279168,1897,1,192252,240550,0.34,-1.61,8.81,-0.01,0.05,0.00,27.55
15317162,1907,1,192500,240146,0.75,-1.65,8.88,-0.03,-0.05,-0.00,27.55
15357195,1915,1,192066,240205,0.88,-1.71,9.13,-0.03,-0.08,-0.01,27.55
15397881,1914,1,192367,239922,0.82,-1.78,9.18,-0.05,-0.07,-0.01,27.47
15438196,1905,1,192264,240361,0.77,-1.82,10.32,-0.04,-0.08,-0.01,27.47
15478192,1910,1,192183,240035,0.96,-1.47,8.65,-0.04,-0.07,-0.02,27.47
15518195,1903,1,192483,239995,0.50,-1.81,10.68,-0.05,-0.05,-0.02,27.47
15558191,1915,1,191970,239584,0.86,-1.45,10.41,-0.02,-0.06,-0.02,27.47
15598196,1915,1,191944,239598,0.41,-1.75,10.07,-0.03,-0.01,-0.02,27.47
15638191,1910,1,192011,239938,0.36,-1.83,10.68,-0.01,0.01,-0.02,27.47
15678175,1903,1,192124,239402,0.35,-1.61,10.86,-0.01,0.03,-0.02,27.47
15718174,1901,1,191624,238651,0.19,-1.53,9.87,0.01,0.06,-0.01,27.47
15758167,1895,1,191942,238646,0.43,-1.60,11.36,-0.01,0.05,-0.01,27.47
15798175,1885,1,191780,239432,0.36,-1.66,10.88,0.01,0.09,-0.00,27.47
15838166,1905,1,191955,238918,0.41,-1.69,9.24,0.00,0.06,-0.01,27.47
15878163,1915,1,192003,239676,0.17,-1.71,12.05,-0.00,0.10,-0.01,27.47
15918173,1901,1,192063,239778,0.36,-1.55,10.54,0.02,0.08,-0.00,27.47
15958162,1903,1,192229,240190,0.00,-1.96,9.63,-0.00,0.08,-0.00,27.47
15998173,1915,1,192293,240147,0.37,-1.55,10.03,0.01,0.06,-0.01,27.47
16038162,1891,1,192370,240518,0.17,-1.70,10.32,-0.00,0.08,-0.01,27.47
16078176,1904,1,192174,240146,0.68,-1.66,8.88,0.01,0.04,-0.01,27.47
16118162,1903,1,192402,240342,0.30,-1.43,10.32,-0.01,0.08,-0.01,27.47
16158175,1904,1,192345,240798,0.31,-1.43,10.04,0.01,0.07,-0.01,27.47
16198162,1911,1,192475,240486,0.27,-1.58,9.67,0.00,0.05,-0.01,27.47
16238163,1905,1,192337,240888,0.45,-1.86,11.04,-0.01,0.05,-0.01,27.47
16278176,1909,1,192928,242155,0.13,-1.75,10.59,-0.01,0.07,-0.01,27.47
16318176,1907,1,193246,241971,0.32,-1.61,10.81,-0.01,0.02,-0.02,27.47
16358173,1904,1,193387,242398,0.39,-1.70,12.22,-0.02,0.03,-0.01,27.47
16398862,1902,1,193517,242558,0.19,-1.82,11.00,-0.03,0.02,-0.01,27.53
16437176,1909,1,193065,241673,0.70,-1.61,10.13,-0.03,-0.06,-0.02,27.53
16477196,1902,1,192936,241096,0.63,-1.70,11.38,-0.06,-0.04,-0.02,27.53
16517195,1893,1,192852,240983,0.69,-1.44,10.95,-0.05,-0.08,-0.01,27.53
16557216,1887,1,192426,239812,0.82,-1.71,9.47,-0.05,-0.12,-0.01,27.53
16597195,1889,1,192363,240476,0.36,-1.74,9.90,-0.05,-0.10,-0.00,27.53
16637195,1906,1,192563,240475,0.93,-0.97,9.62,-0.02,-0.09,-0.00,27.53
16677192,1904,1,192558,241368,0.57,-1.48,9.15,-0.02,-0.04,0.00,27.53
16717175,1893,1,193030,241635,0.62,-1.36,8.27,-0.03,-0.02,-0.00,27.53
16757193,1884,1,193180,241616,0.70,-1.22,11.18,-0.03,0.03,-0.00,27.53
16797175,1877,1,192901,241841,1.02,-1.42,9.75,-0.02,0.07,-0.00,27.53
16837173,1895,1,192900,240913,0.47,-1.43,9.96,-0.05,0.02,-0.01,27.53
16877175,1887,1,192448,240756,0.51,-1.66,11.93,-0.07,-0.05,-0.01,27.53
16917192,1904,1,192425,240528,0.68,-1.27,10.86,-0.07,-0.05,-0.00,27.53
16957196,1894,1,192193,240546,0.61,-1.91,8.88,-0.06,-0.10,0.00,27.53
16997173,1887,1,192322,240301,0.65,-1.71,8.36,-0.06,-0.08,-0.00,27.53
17037196,1891,1,192393,240546,0.87,-1.38,9.84,-0.03,-0.00,0.00,27.53
17077173,1885,1,192219,240661,1.01,-1.88,8.99,-0.03,-0.02,-0.00,27.53
17117196,1895,1,192188,240533,0.78,-1.80,9.11,-0.04,-0.02,-0.01,27.53
17157196,1904,1,192462,240397,0.24,-1.77,10.74,-0.07,-0.02,-0.01,27.53
17197196,1902,1,192319,239497,0.56,-1.20,10.11,-0.05,-0.08,0.00,27.53
17237173,1898,1,192015,239711,0.39,-1.97,8.96,-0.04,-0.07,0.01,27.53
17277176,1904,1,192295,239503,0.99,-1.90,8.74,-0.02,-0.02,0.00,27.53
17317173,1890,1,191783,239182,1.12,-1.50,9.58,-0.00,0.03,0.00,27.53
17357162,1898,1,191732,239230,0.66,-1.71,9.73,-0.03,0.06,-0.00,27.53
17397173,1909,1,191890,239853,0.23,-1.89,10.03,-0.03,-0.01,-0.01,27.53
17437882,1913,1,192124,239781,0.62,-1.36,9.70,-0.05,-0.10,-0.01,27.47
17476195,1919,1,192052,240345,1.06,-1.44,9.82,-0.01,-0.07,0.00,27.47
17516175,1915,1,192042,240281,1.19,-1.84,8.41,0.01,0.00,-0.01,27.47
17556191,1917,1,192331,240593,0.77,-1.59,10.09,0.01,0.08,-0.00,27.47
17596166,1910,1,192393,240947,0.44,-1.41,10.46,-0.02,-0.01,-0.01,27.47
17636195,1912,1,192555,240998,0.54,-1.34,10.48,-0.05,-0.05,-0.00,27.47
17676195,1927,1,192386,241196,0.81,-1.62,8.33,-0.03,-0.08,-0.00,27.47
17716192,1926,1,192687,241483,1.13,-1.22,8.53,-0.02,-0.00,-0.00,27.47
17756196,1920,1,193048,242208,0.66,-1.58,10.44,0.01,0.13,0.00,27.47
17796144,1911,1,193264,242649,0.56,-1.20,11.00,-0.02,0.01,-0.00,27.47
17836176,1907,1,193630,243044,0.22,-1.53,10.71,-0.04,0.01,0.00,27.47
17876166,1903,1,193215,242164,0.91,-1.43,7.91,-0.01,-0.10,-0.00,27.47
17916195,1905,1,193231,241697,1.10,-1.69,10.61,-0.02,0.05,-0.00,27.47
17956176,1895,1,193240,241684,0.45,-1.55,10.53,-0.01,0.02,-0.00,27.47
17997175,1912,1,193148,241635,0.69,-1.46,9.84,-0.05,-0.07,-0.01,27.47
18037192,1915,1,193247,241588,0.78,-1.32,8.61,-0.02,-0.01,-0.00,27.47
18077193,1906,1,193303,241492,0.93,-1.36,10.83,-0.01,0.07,-0.00,27.47
18117173,1910,1,193019,241149,0.21,-1.40,10.82,-0.04,0.02,0.00,27.47
18157163,1906,1,192934,241609,0.39,-1.61,10.15,-0.06,-0.05,0.00,27.47
18197173,1909,1,193210,241533,0.81,-1.64,8.63,-0.03,-0.01,-0.00,27.47
18237193,1907,1,193131,241855,1.07,-1.28,10.85,-0.02,0.03,0.00,27.47
18277163,1918,1,193131,241998,0.27,-1.45,9.94,-0.06,-0.00,0.00,27.47
18317175,1908,1,192943,241658,0.66,-1.66,8.31,-0.04,-0.08,0.00,27.47
18357173,1904,1,192831,241523,1.18,-1.53,9.46,-0.02,0.01,-0.01,27.47
18397176,1904,1,192852,241478,0.57,-1.39,11.34,-0.04,0.01,-0.00,27.47
18437862,1904,1,192687,241519,0.67,-1.19,9.36,-0.03,-0.06,-0.00,27.47
18476193,1919,1,193041,242060,0.56,-2.24,9.04,-0.04,0.01,-0.00,27.47
18516173,1920,1,192963,241722,0.87,-1.32,9.17,0.01,-0.02,-0.00,27.47
18556175,1917,1,193037,241780,0.28,-1.29,11.24,-0.05,-0.02,-0.00,27.47
18596192,1909,1,193039,242647,0.65,-1.24,9.37,-0.01,-0.02,0.00,27.47
18636173,1920,1,193635,242663,0.86,-1.82,10.48,-0.02,0.05,0.00,27.47
18676167,1903,1,193225,242230,0.60,-1.10,8.91,-0.03,-0.07,0.00,27.47
18716173,1915,1,193490,242462,1.02,-1.52,9.68,-0.06,-0.03,-0.01,27.47
18756192,1904,1,193540,242361,0.90,-1.42,10.71,-0.03,0.03,0.00,27.47
18796163,1904,1,193304,242020,0.47,-1.72,10.10,-0.07,-0.06,0.00,27.47
18836173,1901,1,193013,241331,1.00,-1.50,8.95,-0.02,-0.01,-0.00,27.47
18876192,1902,1,192529,240469,0.76,-1.55,9.38,-0.04,-0.03,-0.00,27.47
18916191,1897,1,192185,239929,0.50,-1.11,10.11,-0.05,-0.03,-0.00,27.47
18956196,1888,1,192028,239756,1.29,-1.85,9.81,-0.03,0.01,0.00,27.47
18995166,1898,1,191836,239277,0.60,-1.36,9.49,-0.04,-0.02,0.00,27.47
19035175,1901,1,191664,239462,0.55,-1.64,9.49,-0.04,-0.04,-0.00,27.47
19075195,1895,1,191900,239572,0.67,-1.57,9.69,-0.03,0.03,0.00,27.47
19115166,1898,1,191780,239733,0.58,-1.31,10.67,-0.05,-0.04,-0.01,27.47
19155196,1905,1,192146,240293,0.91,-1.68,10.79,-0.04,0.04,0.00,27.47
19195166,1894,1,192068,240351,0.53,-1.80,10.21,-0.05,-0.02,0.00,27.47
19235173,1911,1,192100,240402,0.58,-1.89,8.95,-0.03,-0.01,-0.00,27.47
19275195,1905,1,192054,240292,0.62,-1.72,9.63,-0.04,-0.00,-0.00,27.47
19315195,1904,1,192147,240267,0.28,-1.40,10.57,-0.06,-0.01,-0.00,27.47
19355196,1910,1,192117,239732,0.96,-1.74,10.12,-0.03,0.01,-0.00,27.47
19395175,1909,1,191502,238192,0.50,-1.54,9.65,-0.04,-0.02,-0.00,27.47
19435192,1899,1,191113,237949,0.74,-1.76,9.04,-0.02,-0.01,-0.00,27.47
19475876,1904,1,191266,238358,0.63,-1.60,9.07,-0.04,-0.02,0.00,27.37
19516173,1917,1,191617,238534,0.85,-1.21,9.19,-0.05,-0.03,-0.01,27.37
19556192,1920,1,191775,238742,0.62,-1.43,11.01,-0.05,0.02,0.00,27.37
19596163,1918,1,191613,239094,0.65,-1.51,8.81,-0.03,0.00,0.00,27.37
19636163,1919,1,191893,238989,0.38,-2.02,10.16,-0.04,0.08,0.00,27.37
19676163,1887,1,191405,238383,0.62,-1.36,9.27,-0.02,-0.03,-0.00,27.37
19716192,1910,1,191415,238845,1.13,-1.80,9.97,-0.05,0.04,-0.00,27.37
19756176,1918,1,191743,239143,-0.11,-1.13,9.18,-0.04,-0.02,-0.00,27.37
19796209,1905,1,191890,239845,0.88,-1.77,10.52,-0.02,0.01,-0.01,27.37
19836176,1907,1,192102,240121,0.28,-1.45,10.74,-0.06,-0.02,-0.00,27.37
19876192,1902,1,191964,240417,0.58,-2.53,9.74,-0.03,0.01,-0.00,27.37
19916176,1914,1,192080,240033,-0.06,-1.93,8.53,-0.06,-0.04,-0.01,27.37
19956208,1903,1,192177,240695,0.47,-1.43,10.81,-0.03,0.04,-0.01,27.37
19996176,1915,1,192462,240597,0.06,-1.41,10.47,-0.06,-0.01,-0.01,27.37
20036191,1904,1,192046,240254,0.50,-1.54,10.74,-0.03,0.02,-0.00,27.37
20076175,1918,1,192092,239776,0.29,-1.48,10.15,-0.05,-0.02,-0.00,27.37
20116191,1899,1,191891,239764,0.62,-1.95,9.45,-0.01,0.04,0.00,27.37
20156163,1905,1,192128,240058,0.30,-1.76,9.23,-0.06,-0.04,-0.01,27.37
20196191,1899,1,192227,240295,0.58,-1.70,10.86,-0.04,-0.02,-0.00,27.37
20234195,1905,1,192254,240057,0.17,-1.35,9.99,-0.05,-0.05,-0.01,27.37
20274196,1904,1,192241,240549,0.52,-1.54,10.98,-0.02,0.02,-0.01,27.37
20314175,1917,1,192594,240588,-0.35,-2.21,10.07,-0.04,0.01,-0.00,27.37
20354195,1893,1,192216,240479,0.77,-1.62,9.99,-0.03,-0.06,-0.00,27.37
20394195,1918,1,192721,240565,0.49,-1.82,9.07,-0.05,-0.02,-0.01,27.37
20434195,1911,1,192013,239909,0.86,-1.23,8.78,-0.04,-0.10,-0.01,27.37
20474195,1935,1,192363,240248,0.87,-2.01,10.46,-0.07,0.01,-0.01,27.37
20514862,1903,1,191903,239460,0.47,-1.02,9.66,-0.04,-0.09,-0.01,27.23
20555193,1915,1,192122,239973,0.19,-2.05,11.24,-0.04,0.06,-0.00,27.23
20595173,1908,1,191879,239716,0.43,-1.94,8.84,-0.02,-0.08,-0.01,27.23
20635233,1917,1,191987,239844,0.25,-2.02,10.30,-0.07,-0.04,-0.01,27.23
20675196,1911,1,191837,239809,0.75,-1.58,8.31,-0.02,-0.08,-0.01,27.23
20715196,1902,1,191927,239652,0.51,-1.65,10.13,-0.06,-0.03,-0.01,27.23
20755192,1919,1,191575,238669,0.77,-1.09,9.32,-0.02,0.00,-0.01,27.23
20795173,1914,1,191115,237187,0.68,-1.27,10.07,-0.02,0.02,-0.01,27.23
20835210,1899,1,190839,236822,0.17,-1.26,10.83,-0.02,0.05,-0.00,27.23
20875176,1892,1,190709,237239,0.90,-1.91,9.92,-0.01,-0.02,-0.00,27.23
20915190,1894,1,190653,236372,0.81,-1.79,8.14,-0.03,-0.07,-0.01,27.23
20955196,1893,1,190516,237031,0.59,-2.15,9.14,-0.04,-0.01,-0.00,27.23
20995191,1909,1,190899,237061,0.96,-1.48,9.00,-0.03,-0.02,-0.01,27.23
21035193,1902,1,190753,237351,0.31,-1.85,9.75,-0.04,0.00,-0.00,27.23
21075173,1907,1,190639,236738,1.23,-1.43,9.68,-0.02,-0.04,-0.01,27.23
21115196,1909,1,190711,236877,0.06,-1.79,10.27,-0.03,0.04,-0.00,27.23
21155173,1901,1,190428,236637,0.55,-1.44,9.02,-0.02,-0.03,-0.01,27.23
21195196,1921,1,190630,236789,0.80,-1.92,9.96,-0.03,0.04,-0.00,27.23
21235173,1905,1,190501,237258,0.48,-1.81,8.92,-0.01,0.01,-0.01,27.23
21275175,1915,1,190997,237049,0.20,-1.76,9.24,-0.04,0.01,-0.01,27.23
21315173,1904,1,190811,238104,0.53,-1.86,9.96,-0.01,-0.01,-0.00,27.23
21355196,1920,1,191436,238520,0.42,-1.91,9.46,-0.02,-0.00,-0.01,27.23
21395191,1899,1,191325,238853,0.46,-0.97,10.04,-0.00,-0.01,-0.00,27.23
21435193,1936,1,191770,239472,0.85,-1.48,9.79,-0.01,0.05,-0.01,27.23
21475173,1907,1,191766,239427,0.56,-0.97,10.42,-0.00,-0.00,-0.01,27.23
21515879,1904,1,191993,239474,-0.03,-1.95,10.40,-0.03,0.09,-0.00,27.21
21554191,1882,1,191503,237783,0.93,-1.34,10.09,-0.01,-0.03,-0.01,27.21
21594195,1899,1,191178,238153,0.21,-2.57,10.62,-0.05,0.03,-0.01,27.21
21634175,1901,1,191247,238069,-0.10,-1.74,9.19,-0.05,-0.02,-0.01,27.21
21674213,1895,1,191292,238388,0.26,-1.87,9.91,-0.05,0.00,-0.01,27.21
21714176,1905,1,191664,239130,0.66,-1.70,10.14,-0.03,0.01,-0.01,27.21
21754176,1904,1,191582,238836,0.23,-1.33,9.33,-0.05,-0.02,-0.02,27.21
21794196,1908,1,191612,239122,0.04,-1.36,9.73,-0.05,0.03,-0.01,27.21
21834175,1920,1,191625,239157,0.88,-1.43,9.62,-0.02,-0.02,-0.01,27.21
21874192,1931,1,191586,238981,0.35,-1.58,9.42,-0.04,0.01,-0.01,27.21
21914176,1922,1,191356,238918,0.19,-1.90,9.94,-0.06,0.01,-0.01,27.21
21954176,1923,1,191509,238824,0.32,-1.80,10.07,-0.06,-0.01,-0.01,27.21
21994195,1905,1,191167,238838,0.61,-2.03,9.36,-0.03,-0.03,-0.01,27.21
22034191,1921,1,191648,239418,-0.04,-2.40,10.00,-0.04,-0.01,-0.01,27.21
22073209,1915,1,191376,238639,0.31,-1.33,10.10,-0.05,-0.07,-0.01,27.21
22113196,1923,1,191550,239435,0.22,-2.23,10.65,-0.02,0.06,-0.01,27.21
22153175,1923,1,191552,238839,0.91,-1.70,8.92,-0.00,-0.09,-0.02,27.21
22193195,1919,1,191413,238510,0.55,-1.76,10.74,-0.05,-0.07,-0.02,27.21
22233195,1920,1,191042,237877,0.06,-1.65,9.39,-0.02,-0.01,-0.01,27.21
22273233,1894,1,190655,236580,0.47,-1.92,9.20,-0.04,-0.03,-0.01,27.21
22313196,1904,1,190462,236694,0.51,-1.64,10.66,-0.01,0.02,-0.01,27.21
22353175,1901,1,190290,236547,0.73,-1.80,9.60,-0.01,-0.07,-0.02,27.21
22393195,1903,1,190694,237024,0.23,-1.61,10.53,-0.01,-0.01,-0.02,27.21
22433191,1914,1,190543,237248,-0.14,-1.85,9.35,-0.01,-0.02,-0.01,27.21
22473249,1894,1,190964,238261,0.22,-1.42,10.27,-0.02,-0.02,-0.01,27.21
22513195,1904,1,191275,238510,0.40,-1.59,10.57,0.01,0.02,-0.00,27.21
22553853,1919,1,191120,238738,0.81,-1.89,9.73,0.00,-0.12,-0.01,27.11
22594173,1917,1,191512,238716,0.87,-1.38,10.53,-0.00,-0.05,-0.01,27.11
22634195,1916,1,191297,239294,0.58,-2.23,11.03,-0.01,-0.04,-0.01,27.11
22674191,1926,1,191672,239238,0.46,-1.73,9.47,-0.04,-0.04,-0.02,27.11
22714196,1920,1,191772,239709,0.03,-1.58,10.18,-0.03,-0.03,-0.00,27.11
22754191,1919,1,191882,239864,0.58,-1.03,9.63,-0.02,-0.05,-0.01,27.11
22794196,1915,1,192099,240289,1.11,-1.21,10.56,-0.01,-0.02,-0.01,27.11
22834192,1925,1,192056,240137,1.47,-1.63,9.11,0.00,-0.07,-0.01,27.11
22874176,1909,1,192092,240028,0.98,-1.16,9.35,-0.02,-0.04,-0.01,27.11
22914191,1901,1,191814,239013,1.01,-1.62,9.90,-0.03,-0.05,-0.01,27.11
22954196,1922,1,191405,237620,0.75,-1.65,8.85,-0.04,-0.02,-0.01,27.11
22994191,1903,1,191088,237090,0.62,-1.55,8.51,-0.06,-0.05,-0.01,27.11
23034195,1921,1,190962,236655,0.59,-1.45,9.87,-0.07,-0.05,-0.01,27.11
23074191,1910,1,190588,236773,0.79,-1.49,9.18,-0.03,-0.00,-0.00,27.11
23113195,1907,1,190881,236801,0.93,-1.33,8.68,-0.04,-0.06,-0.01,27.11
23153195,1913,1,191097,237982,1.16,-1.36,10.72,-0.01,-0.01,-0.01,27.11
23193196,1908,1,191470,238775,1.32,-1.18,9.76,-0.02,-0.03,-0.01,27.11
23233195,1917,1,191837,239135,1.16,-1.29,9.78,-0.01,0.02,-0.01,27.11
23273175,1903,1,191923,239493,0.72,-2.04,9.85,-0.03,-0.01,-0.01,27.11
23313196,1906,1,192043,239615,0.85,-1.21,9.58,-0.03,-0.01,-0.01,27.11
23353196,1907,1,192303,239998,0.38,-1.64,10.54,-0.04,0.06,-0.01,27.11
23393175,1910,1,192119,239706,0.60,-1.51,9.32,-0.03,-0.01,-0.01,27.11
23433195,1902,1,191942,239744,0.23,-1.80,9.92,-0.05,0.01,-0.00,27.11
23473173,1919,1,192179,239987,0.13,-1.19,10.21,-0.05,0.01,-0.00,27.11
23513175,1895,1,192174,240378,0.42,-1.63,10.78,-0.03,0.02,0.00,27.11
23553162,1898,1,192341,240722,0.33,-1.62,9.21,-0.04,0.01,0.00,27.11
23593853,1878,1,192447,240697,0.47,-1.75,10.58,-0.05,0.00,-0.00,27.17
23634173,1883,1,192394,240049,0.08,-1.48,9.51,-0.04,0.00,0.00,27.17
23674162,1904,1,191888,238254,0.47,-1.59,10.28,-0.05,0.02,-0.00,27.17
23714173,1897,1,191441,237973,-0.15,-1.79,10.14,-0.06,0.01,0.00,27.17
23754175,1889,1,190986,237149,0.55,-1.48,9.56,-0.04,-0.03,-0.00,27.17
23792195,1917,1,191061,237837,0.52,-1.78,11.20,-0.04,0.02,0.00,27.17
23832166,1921,1,191289,238180,0.60,-1.71,10.15,-0.01,0.00,0.00,27.17
23872162,1915,1,191534,239050,0.58,-2.03,9.90,-0.04,-0.03,-0.00,27.17
23912195,1911,1,191837,238877,0.59,-1.54,9.73,-0.01,-0.03,-0.00,27.17
23952190,1905,1,191934,239376,0.34,-2.00,11.09,-0.03,-0.02,0.00,27.17
23992175,1922,1,191842,238973,0.63,-1.51,9.08,-0.01,-0.03,-0.00,27.17
24032195,1933,1,191748,238599,0.21,-2.10,10.65,-0.04,-0.01,-0.00,27.17
24072195,1913,1,191220,237979,0.39,-1.68,9.99,-0.02,-0.03,-0.00,27.17
24112229,1913,1,190871,237651,0.33,-2.03,10.30,-0.04,-0.02,0.00,27.17
24152175,1905,1,190913,237613,0.12,-1.54,10.02,-0.02,0.01,-0.00,27.17
24192176,1904,1,190867,237925,0.12,-2.17,10.55,-0.03,-0.01,0.00,27.17
24232175,1911,1,191069,238120,0.17,-1.41,8.99,-0.02,-0.00,-0.00,27.17
24272192,1900,1,191073,238186,0.09,-1.78,10.43,-0.06,-0.04,-0.00,27.17
24312195,1911,1,190953,238349,0.16,-1.84,10.39,-0.02,0.05,-0.00,27.17
24352175,1914,1,190778,238072,0.43,-1.84,8.89,-0.06,-0.07,-0.01,27.17
24392195,1920,1,190957,237651,0.12,-1.95,10.26,-0.05,0.04,-0.01,27.17
24432175,1897,1,190275,235666,0.51,-1.60,9.41,-0.04,-0.06,-0.01,27.17
24472195,1900,1,190208,235943,0.68,-1.45,10.42,-0.04,0.04,-0.01,27.17
24512175,1904,1,190263,235938,0.93,-1.31,9.47,-0.02,-0.01,-0.01,27.17
24552195,1895,1,190512,237075,0.77,-1.69,10.42,-0.03,0.02,-0.01,27.17
24592173,1905,1,190732,236728,0.98,-1.15,9.19,-0.03,-0.03,-0.01,27.17
24632882,1917,1,190670,236917,0.85,-1.44,10.53,-0.05,-0.02,-0.01,27.09
24673191,1903,1,190781,237088,0.48,-1.58,10.09,-0.04,0.05,-0.01,27.09
24713175,1907,1,190632,236951,0.70,-1.64,9.42,-0.06,-0.02,-0.01,27.09
24753190,1916,1,190554,236336,0.81,-1.27,9.31,-0.05,0.00,-0.02,27.09
24793176,1920,1,190280,236627,1.09,-1.64,10.01,-0.05,-0.02,-0.02,27.09
24833191,1918,1,190475,236536,1.32,-1.41,9.86,-0.03,0.01,-0.02,27.09
24873175,1910,1,190418,237254,1.19,-1.07,9.57,-0.03,0.01,-0.01,27.09
24913173,1917,1,190885,237783,0.91,-1.59,9.59,-0.02,0.02,-0.01,27.09
24953176,1914,1,190867,237830,0.73,-1.38,8.96,-0.04,-0.03,-0.00,27.09
24993192,1910,1,191025,238164,0.73,-1.47,9.45,-0.05,0.02,-0.01,27.09
25033176,1909,1,191128,238345,0.36,-1.67,10.04,-0.04,0.06,-0.00,27.09
25073173,1909,1,190984,238174,0.49,-1.83,9.38,-0.05,-0.02,-0.01,27.09
25113196,1909,1,190824,238186,0.88,-1.77,10.05,-0.02,0.05,-0.00,27.09
25153173,1917,1,190999,237348,0.62,-1.53,9.46,-0.02,0.04,-0.00,27.09
25193175,1914,1,190780,237306,0.53,-1.86,10.98,-0.03,-0.01,-0.00,27.09
25233191,1913,1,191063,237746,0.26,-1.54,9.56,-0.02,0.03,0.00,27.09
25273166,1915,1,191050,237728,-0.33,-1.98,10.13,-0.04,0.02,0.00,27.09
25313173,1904,1,190999,237809,-0.07,-2.07,9.98,-0.03,0.06,-0.00,27.09
25353192,1915,1,190876,237682,0.46,-1.97,10.23,-0.04,-0.02,-0.01,27.09
25393191,1914,1,190781,237330,0.53,-1.36,10.53,-0.01,0.02,-0.01,27.09
25431175,1921,1,190594,237706,0.72,-1.33,10.74,-0.00,0.02,-0.00,27.09
25471175,1923,1,190872,237951,0.39,-1.56,10.28,-0.03,0.02,-0.00,27.09
25511174,1918,1,190959,238516,0.21,-1.46,9.34,-0.04,-0.00,-0.01,27.09
25551199,1929,1,191477,238863,0.47,-1.73,10.42,-0.06,-0.01,-0.02,27.09
25591195,1915,1,191324,238500,0.96,-1.43,10.95,-0.03,-0.03,-0.01,27.09
25631195,1919,1,191365,238498,0.69,-1.49,9.92,-0.03,-0.01,-0.00,27.09
25671882,1909,1,191094,237986,0.51,-1.72,10.10,-0.04,-0.04,-0.01,27.15
25712191,1931,1,190896,237860,0.29,-2.37,9.76,-0.03,-0.01,-0.01,27.15
25752249,1959,1,190739,237961,0.67,-1.57,10.03,-0.01,-0.05,-0.00,27.15
25792191,1950,1,190936,238012,0.21,-1.81,9.77,-0.02,-0.03,0.00,27.15
25832173,1937,1,190817,236773,-0.06,-1.45,10.06,-0.02,-0.05,-0.00,27.15
25872209,1921,1,190664,236982,0.13,-2.15,10.65,-0.02,-0.02,-0.00,27.15
25912196,1930,1,190826,237250,0.60,-1.76,9.58,-0.00,-0.03,-0.00,27.15
25952209,1914,1,190788,237315,0.48,-1.51,9.49,-0.03,-0.06,-0.01,27.15
25992196,1905,1,190832,237594,0.50,-1.88,10.48,-0.05,-0.03,-0.01,27.15
26032192,1911,1,190847,237586,1.08,-1.45,10.44,-0.03,-0.06,-0.02,27.15
26072196,1897,1,190874,238252,1.13,-0.82,10.63,-0.01,-0.03,-0.01,27.15
26112191,1888,1,191249,238654,0.65,-1.55,10.01,-0.02,-0.04,-0.01,27.15
26152196,1903,1,191369,239049,0.87,-1.73,9.78,-0.02,-0.04,-0.01,27.15
26191196,1904,1,191524,239102,0.65,-1.81,9.51,-0.03,-0.07,-0.01,27.15
26231195,1890,1,191410,238796,0.65,-1.38,9.68,-0.02,-0.08,-0.00,27.15
26271196,1897,1,191389,238583,0.44,-2.01,10.08,-0.04,-0.03,-0.01,27.15
26311195,1885,1,191121,238287,0.80,-1.57,9.65,-0.00,-0.05,-0.01,27.15
26351191,1889,1,190836,237953,0.71,-1.52,8.96,-0.01,-0.04,0.00,27.15
26391173,1898,1,191040,238717,0.40,-1.45,9.13,-0.03,0.00,-0.01,27.15
26431174,1893,1,191597,239864,1.00,-1.21,9.03,-0.02,-0.03,-0.01,27.15
26471192,1895,1,192388,241278,1.07,-0.87,9.69,-0.02,-0.01,-0.00,27.15
26511191,1893,1,192901,241308,0.89,-0.83,9.20,-0.03,-0.03,-0.01,27.15
26551193,1901,1,193018,240797,0.50,-1.48,10.09,-0.03,0.04,-0.01,27.15
26591176,1892,1,192762,240324,0.65,-1.41,9.40,-0.01,-0.03,0.00,27.15
26631175,1888,1,192683,240521,0.29,-1.46,10.07,-0.02,-0.01,0.00,27.15
26671175,1887,1,192506,240544,0.64,-1.16,8.67,-0.00,-0.01,-0.00,27.15
26711882,1891,1,192889,241330,0.60,-1.02,10.16,-0.02,0.01,-0.00,27.15
26752173,1889,1,193251,242488,0.43,-0.62,10.17,-0.02,0.02,-0.00,27.15
26792176,1883,1,194054,243690,0.31,-1.01,10.13,-0.04,0.04,-0.00,27.15
26832174,1883,1,194685,244471,0.82,-0.75,10.16,-0.02,0.02,-0.00,27.15
26872176,1886,1,195117,244942,0.46,-0.90,9.83,-0.05,-0.00,0.00,27.15
26912174,1894,1,195138,244724,0.55,-0.78,9.38,-0.05,0.00,-0.00,27.15
26952176,1903,1,194700,243568,0.70,-0.62,9.28,-0.05,-0.02,-0.01,27.15
26992193,1891,1,194093,242963,0.48,-0.91,10.48,-0.06,0.03,-0.00,27.15
27032176,1899,1,193839,242863,0.48,-0.99,8.92,-0.05,0.00,0.00,27.15
27070164,1919,1,194005,243526,0.70,-0.81,8.95,-0.05,0.01,0.00,27.15
27110167,1903,1,194500,243860,0.40,-0.94,9.00,-0.05,0.01,-0.00,27.15
27150174,1904,1,194623,244211,0.39,-0.66,9.85,-0.05,-0.03,-0.00,27.15
27190203,1906,1,194906,244398,0.52,-1.10,9.91,-0.06,0.03,0.00,27.15
27230163,1929,1,194798,243483,0.56,-0.68,9.79,-0.04,-0.01,0.00,27.15
27270176,1931,1,194251,241943,0.27,-1.22,10.31,-0.05,0.03,0.01,27.15
27310167,1935,1,193917,242112,-0.05,-1.24,10.29,-0.03,0.04,0.00,27.15
27350176,1930,1,193800,241594,0.34,-1.26,9.03,-0.01,0.01,0.00,27.15
27390190,1919,1,193591,242021,0.21,-0.89,10.08,-0.03,0.00,0.00,27.15
27430167,1923,1,193691,241383,0.35,-1.18,10.22,-0.03,-0.02,-0.00,27.15
27470196,1920,1,193562,242043,0.21,-1.03,10.47,-0.02,0.00,0.01,27.15
27510167,1923,1,193422,241798,0.40,-0.99,8.58,-0.02,-0.01,0.01,27.15
27550174,1913,1,193378,241400,0.02,-1.13,9.67,-0.03,-0.02,0.00,27.15
27590202,1916,1,192961,241140,0.14,-1.03,10.23,-0.03,-0.01,0.01,27.15
27630173,1911,1,193042,241329,0.14,-1.16,9.26,-0.03,-0.00,0.01,27.15
27670175,1913,1,192949,241229,0.37,-1.04,9.16,-0.03,-0.05,0.00,27.15
27710176,1910,1,193214,241518,0.08,-1.46,11.11,-0.05,-0.00,0.00,27.15
27750862,1907,1,192968,241304,0.24,-0.85,9.54,-0.01,-0.05,-0.00,27.23
27791191,1918,1,193103,241623,0.12,-1.27,10.05,-0.05,-0.03,0.00,27.23
27831173,1891,1,193163,241975,0.48,-0.95,9.80,-0.04,-0.04,-0.00,27.23
27871190,1910,1,193347,241437,0.40,-0.82,9.30,-0.03,-0.02,-0.00,27.23
27911192,1899,1,193137,241509,0.23,-1.03,10.09,-0.03,-0.00,0.00,27.23
27951173,1901,1,193068,240056,0.70,-0.91,9.31,-0.04,-0.05,-0.00,27.23
27991196,1904,1,192816,240009,0.43,-0.66,9.51,-0.03,0.01,0.00,27.23
28031164,1918,1,193165,240229,0.28,-1.64,9.90,-0.07,-0.02,-0.00,27.23
28071196,1925,1,192942,240377,0.28,-0.83,9.78,-0.03,-0.07,0.00,27.23
28111178,1917,1,193159,240303,0.25,-0.86,9.47,-0.03,0.03,0.01,27.23
28151166,1919,1,192819,240311,0.62,-0.87,10.04,-0.01,-0.02,-0.01,27.23
28191196,1907,1,192939,240617,0.46,-1.59,10.67,-0.06,0.01,-0.01,27.23
28231176,1906,1,193159,241491,0.56,-0.79,9.93,-0.03,-0.05,0.00,27.23
28271173,1903,1,193526,241646,0.36,-0.57,9.01,-0.02,-0.01,0.00,27.23
28311176,1906,1,193618,242278,0.21,-1.11,10.63,-0.03,0.03,-0.00,27.23
28351177,1907,1,193732,242139,0.27,-1.68,10.47,-0.04,-0.03,-0.00,27.23
28391195,1900,1,193612,242638,0.47,-0.07,9.29,-0.02,-0.03,0.00,27.23
28431174,1886,1,194238,243361,0.49,-1.48,10.82,-0.05,0.06,-0.00,27.23
28471176,1889,1,194193,242885,0.30,-0.91,10.05,-0.02,-0.04,-0.00,27.23
28511190,1899,1,193721,243357,0.65,-1.03,10.09,-0.05,-0.02,-0.00,27.23
28551196,1906,1,194527,244009,0.08,-1.01,10.42,-0.07,0.03,0.00,27.23
28591163,1904,1,194414,243735,0.70,-0.76,8.58,-0.03,-0.06,-0.00,27.23
28631197,1924,1,194646,243427,0.13,-1.30,10.83,-0.08,0.04,0.00,27.23
28669164,1939,1,194269,242605,0.53,-1.08,9.47,-0.06,-0.06,-0.00,27.23
28709197,1931,1,194284,242486,0.05,-0.95,10.22,-0.05,0.02,0.01,27.23
28749164,1934,1,194110,242307,0.18,-1.44,8.80,-0.08,-0.05,0.00,27.23
28789863,1936,1,194386,242261,0.12,-0.83,10.75,-0.05,-0.00,-0.00,27.25
28830193,1919,1,193857,241976,0.16,-0.61,9.90,-0.04,0.01,0.00,27.25
28870167,1927,1,194195,242554,0.12,-1.14,9.87,-0.05,0.03,0.00,27.25
28910164,1915,1,194401,243101,0.14,-1.08,11.25,-0.04,-0.00,0.00,27.25
28950176,1936,1,194340,243070,0.25,-1.42,10.11,-0.06,0.00,0.00,27.25
28990164,1924,1,193931,241496,0.77,-1.03,9.61,-0.06,-0.08,-0.00,27.25
29030192,1931,1,193192,240564,0.25,-1.70,9.64,-0.06,0.02,0.00,27.25
29070162,1925,1,192514,239351,0.24,-1.49,9.95,-0.04,-0.01,-0.00,27.25
29110193,1930,1,191884,238499,0.10,-1.49,10.23,-0.06,-0.03,-0.00,27.25
29150191,1938,1,191388,238407,0.41,-1.15,9.05,-0.04,-0.03,0.00,27.25
29190173,1954,1,191518,238391,0.40,-1.48,10.23,-0.03,0.03,0.00,27.25
29230162,1937,1,191451,239065,0.30,-1.26,10.08,-0.01,0.02,0.01,27.25
29270163,1947,1,191763,239708,0.15,-1.48,10.03,-0.04,0.02,-0.00,27.25
29310173,1941,1,192388,240833,-0.15,-1.23,11.59,-0.04,-0.00,-0.00,27.25
29350209,1959,1,192713,241224,0.31,-1.48,10.48,-0.05,-0.04,0.00,27.25
29390173,1950,1,192522,240313,0.32,-1.45,8.72,-0.04,-0.07,-0.00,27.25
29430193,1968,1,192015,238821,0.45,-1.59,8.85,-0.04,-0.05,-0.01,27.25
29470192,1968,1,191944,239486,0.35,-1.16,10.83,-0.03,0.03,0.00,27.25
29510163,1967,1,192099,239971,0.28,-1.35,10.03,-0.02,0.03,-0.00,27.25
29550173,1943,1,192508,240329,0.05,-1.43,10.30,-0.03,0.01,-0.01,27.25
29590176,1929,1,192509,239933,0.17,-1.39,10.33,-0.04,-0.06,-0.01,27.25
29630192,1923,1,192513,240432,0.06,-1.46,9.28,-0.05,-0.06,0.00,27.25
29670173,1915,1,192490,240061,0.73,-1.41,9.05,-0.02,-0.04,-0.00,27.25
29710190,1901,1,192251,239583,0.46,-1.43,8.75,-0.02,-0.02,-0.00,27.25
29750193,1908,1,192165,239930,0.49,-1.13,10.77,-0.01,0.04,-0.01,27.25
29790859,1903,1,192359,239947,0.04,-1.48,11.20,-0.02,0.01,-0.01,27.09
29829175,1904,1,192133,240162,0.24,-1.36,9.37,-0.01,-0.02,-0.01,27.09
29869191,1881,1,192684,240562,0.19,-1.60,10.10,-0.05,-0.07,-0.01,27.09
29909195,1879,1,192589,240622,0.47,-1.36,9.87,-0.02,-0.09,-0.00,27.09
29949190,1907,1,192538,240775,0.61,-1.63,8.53,-0.00,0.01,-0.00,27.09
29989175,1918,1,192648,240638,0.32,-1.46,9.09,0.00,0.02,-0.00,27.09
30029162,1891,1,192398,240180,0.34,-1.31,11.39,-0.01,-0.02,-0.01,27.09
30070196,1895,1,192280,240984,0.28,-1.46,11.28,-0.02,-0.03,-0.00,27.09
30110192,1894,1,192733,241101,0.43,-1.37,8.50,-0.02,-0.05,-0.01,27.09
30150196,1887,1,192667,240212,0.41,-1.35,8.95,-0.03,-0.09,-0.01,27.09
30190191,1886,1,192381,239274,0.51,-1.21,10.25,-0.01,0.00,-0.00,27.09
30230176,1889,1,192079,239239,0.55,-1.19,9.61,0.01,0.04,-0.00,27.09
30270164,1890,1,192222,239251,0.36,-1.29,9.98,-0.02,0.02,-0.01,27.09
30308175,1904,1,192203,239159,0.38,-1.16,12.05,-0.02,0.02,-0.01,27.09
30348175,1905,1,192182,239385,0.23,-1.36,11.37,-0.03,-0.01,-0.01,27.09
30388196,1904,1,192164,239787,0.47,-1.20,8.64,-0.03,-0.07,-0.00,27.09
30428196,1898,1,192726,239848,0.66,-1.29,8.72,-0.04,-0.06,-0.01,27.09
30468196,1883,1,192650,240160,0.91,-0.89,10.13,-0.01,-0.01,0.00,27.09
30508176,1901,1,192930,240312,0.54,-1.59,10.23,-0.03,0.06,-0.00,27.09
30548176,1899,1,192572,239971,0.33,-1.01,9.65,-0.03,-0.01,-0.00,27.09
30588196,1911,1,192618,239647,0.32,-1.61,10.81,-0.08,-0.04,-0.01,27.09
30628196,1909,1,192200,239147,0.56,-1.00,9.69,-0.04,-0.06,0.00,27.09
30668184,1915,1,191751,238367,0.74,-1.73,7.80,-0.03,-0.02,0.00,27.09
30708175,1919,1,191709,238698,0.76,-1.22,9.29,-0.02,0.04,-0.00,27.09
30748175,1907,1,191717,238602,0.53,-1.23,11.10,-0.02,0.03,-0.01,27.09
30788175,1904,1,191647,239368,0.27,-1.11,11.04,-0.05,-0.01,-0.00,27.09
30828882,1898,1,192018,239277,0.42,-1.46,8.66,-0.05,-0.03,-0.00,27.03
30869215,1885,1,191881,238131,0.58,-1.17,8.84,-0.04,-0.02,-0.00,27.03
30909191,1901,1,191920,238040,0.68,-1.45,11.05,-0.03,0.08,0.00,27.03
30949163,1904,1,191579,237815,0.41,-1.21,10.56,-0.02,0.00,0.00,27.03
30989163,1904,1,191381,237541,0.19,-1.54,9.12,-0.06,-0.03,-0.00,27.03
31029193,1915,1,191689,238201,0.28,-1.10,9.26,-0.07,-0.07,-0.01,27.03
31069191,1911,1,191761,238041,0.69,-1.03,9.39,-0.03,-0.01,0.00,27.03
31108173,1902,1,191545,238801,0.96,-1.65,8.54,-0.02,0.03,0.00,27.03
31148162,1897,1,191983,238583,0.74,-1.34,9.28,-0.04,0.05,-0.01,27.03
31188176,1907,1,191672,238041,0.19,-1.36,11.77,-0.05,0.01,-0.00,27.03
31228175,1909,1,191511,237908,0.17,-1.47,10.42,-0.07,-0.00,-0.00,27.03
31268195,1904,1,191235,237661,0.37,-1.48,7.77,-0.03,-0.03,0.00,27.03
31308173,1897,1,191182,237668,0.92,-1.41,8.52,-0.04,-0.00,-0.00,27.03
31348196,1907,1,191526,238545,0.53,-1.50,11.25,-0.02,0.09,-0.00,27.03
31388175,1901,1,191418,238688,0.38,-1.24,10.19,-0.03,-0.01,-0.00,27.03
31428195,1903,1,191867,239619,0.05,-1.61,8.76,-0.06,-0.03,0.00,27.03
31468173,1917,1,192163,239943,0.50,-1.24,9.29,-0.02,-0.05,-0.00,27.03
31508196,1905,1,192461,240292,0.50,-1.35,11.23,-0.01,0.07,0.00,27.03
31548162,1895,1,192255,240879,0.36,-1.49,9.99,-0.00,0.06,0.00,27.03
31588166,1911,1,192633,240688,0.10,-1.50,9.63,-0.05,-0.02,-0.01,27.03
31628190,1903,1,192450,240968,0.21,-1.35,10.90,-0.05,-0.08,-0.00,27.03
31668196,1905,1,192609,240217,0.58,-1.30,10.12,-0.02,0.02,0.00,27.03
31708163,1902,1,192332,240118,0.45,-1.57,10.12,-0.01,0.03,0.00,27.03
31748167,1905,1,192237,239652,0.14,-1.51,10.17,-0.05,0.01,-0.01,27.03
31788175,1906,1,192381,240068,-0.36,-1.46,11.84,-0.06,-0.03,-0.00,27.03
31828896,1904,1,192338,239502,0.17,-1.31,9.52,-0.05,-0.02,0.00,27.05
31869173,1907,1,191897,239587,0.44,-1.56,9.58,-0.03,-0.02,0.00,27.05
31907175,1919,1,192123,239836,0.57,-1.43,9.35,-0.04,0.01,-0.01,27.05
31947175,1908,1,192369,239946,0.14,-1.24,11.22,-0.06,-0.02,-0.01,27.05
31987196,1920,1,192111,239788,0.20,-1.38,9.91,-0.07,-0.06,-0.01,27.05
32027196,1904,1,192190,239656,0.36,-1.60,8.22,-0.05,-0.05,-0.00,27.05
32067196,1906,1,191945,238874,0.61,-1.55,8.73,-0.04,-0.02,-0.01,27.05
32108191,1907,1,191731,238658,0.21,-1.41,10.90,-0.05,-0.01,-0.00,27.05
32148195,1899,1,191391,237905,0.42,-1.36,9.76,-0.05,-0.07,-0.00,27.05
32188191,1919,1,190977,237698,0.40,-1.89,7.94,-0.02,-0.05,0.00,27.05
32228173,1913,1,190795,237607,0.92,-1.66,8.93,-0.01,-0.02,-0.01,27.05
32268191,1915,1,190910,238027,0.22,-1.59,11.39,-0.00,0.02,-0.00,27.05
32308209,1911,1,190911,238199,0.55,-1.44,10.20,-0.01,-0.07,-0.01,27.05
32348191,1909,1,191149,238714,0.09,-1.93,8.46,-0.01,-0.02,0.00,27.05
32388173,1920,1,191090,238532,0.78,-1.71,9.03,0.03,-0.01,-0.01,27.05
32428173,1916,1,191310,238215,-0.05,-1.27,12.03,0.01,0.06,-0.00,27.05
32468173,1920,1,190523,236685,0.23,-1.16,10.45,0.00,-0.07,-0.00,27.05
32508218,1919,1,190683,237249,0.43,-1.57,8.86,-0.00,-0.02,-0.00,27.05
32548193,1918,1,191028,238121,0.80,-1.21,9.33,0.02,-0.01,-0.00,27.05
32588173,1895,1,191456,238917,0.38,-1.39,11.80,-0.02,0.03,-0.00,27.05
32628175,1913,1,191914,239642,-0.04,-1.18,10.60,-0.04,-0.04,-0.00,27.05
32668208,1904,1,192220,240403,0.21,-1.45,9.39,-0.05,-0.06,-0.00,27.05
32708196,1895,1,192692,241180,0.86,-1.34,10.38,-0.03,0.01,-0.01,27.05
32748176,1906,1,193195,241301,0.37,-1.44,11.19,-0.05,0.01,-0.00,27.05
32788176,1913,1,192912,240849,0.10,-1.16,9.86,-0.08,-0.09,-0.00,27.05
32828879,1904,1,192977,240716,0.39,-1.65,9.32,-0.07,-0.04,-0.00,26.97
32867196,1904,1,192795,240595,0.92,-1.39,8.52,-0.04,-0.03,-0.01,26.97
32907196,1913,1,192870,240398,0.50,-1.50,10.56,-0.05,0.01,-0.00,26.97
32947176,1914,1,192519,240177,0.43,-1.13,9.58,-0.08,-0.09,-0.00,26.97
32987197,1909,1,192407,239983,0.38,-1.75,8.01,-0.07,-0.02,-0.00,26.97
33027196,1913,1,192209,239831,0.89,-1.51,9.37,-0.04,-0.00,-0.01,26.97
33067196,1904,1,192106,239201,0.18,-1.50,10.89,-0.05,-0.00,-0.00,26.97
33107193,1911,1,191768,239194,0.29,-1.04,9.26,-0.03,-0.05,0.00,26.97
33148173,1909,1,191798,239104,0.78,-1.97,9.28,-0.00,0.03,0.00,26.97
33188163,1895,1,191244,237884,1.03,-1.13,9.91,-0.01,-0.05,-0.00,26.97
33228191,1922,1,191498,238099,-0.03,-2.03,9.82,-0.06,0.02,0.00,26.97
33268173,1904,1,191364,238411,0.65,-1.39,8.54,0.00,-0.05,-0.00,26.97
33308173,1915,1,191958,238682,0.51,-2.05,11.26,-0.03,0.07,-0.00,26.97
33348173,1892,1,191241,238512,-0.00,-0.90,9.27,-0.00,-0.04,0.00,26.97
33388189,1901,1,191706,239034,0.39,-1.48,9.61,-0.04,-0.00,-0.01,26.97
33428196,1893,1,191831,240049,0.58,-1.29,10.08,0.00,0.02,0.00,26.97
33466143,1894,1,192336,240262,0.56,-1.64,10.32,-0.01,0.05,0.00,26.97
33506167,1894,1,192410,240622,0.00,-1.01,10.13,-0.04,-0.07,0.00,26.97
33546173,1904,1,192651,240853,0.53,-1.53,10.09,-0.04,-0.02,-0.00,26.97
33586195,1900,1,192750,240942,0.82,-1.21,10.82,0.00,0.03,0.00,26.97
33626143,1888,1,192663,240805,0.47,-1.66,11.29,-0.07,-0.06,-0.00,26.97
33666195,1895,1,192730,241141,0.24,-1.58,8.80,-0.05,-0.06,-0.00,26.97
33706192,1904,1,192629,240620,0.93,-1.58,8.73,-0.03,-0.03,-0.01,26.97
33746196,1900,1,192799,240899,0.08,-1.94,11.42,-0.04,0.03,-0.00,26.97
33786173,1903,1,192248,239898,0.51,-0.67,10.18,-0.05,-0.09,-0.01,26.97
33826195,1904,1,192121,240202,0.34,-1.79,9.07,-0.03,-0.00,0.00,26.97
33866860,1907,1,191633,237804,1.36,-0.83,8.52,-0.02,-0.05,-0.01,26.99
33907195,1904,1,191063,236432,-0.13,-1.90,10.64,-0.06,0.01,0.01,26.99
33947218,1909,1,190392,235807,0.95,-0.80,8.09,0.01,-0.07,-0.00,26.99
33987173,1910,1,190888,236466,0.59,-2.01,11.11,-0.01,0.08,0.01,26.99
34027162,1923,1,190579,236399,0.49,-1.03,8.03,0.01,-0.08,0.00,26.99
34067162,1910,1,190816,236427,0.77,-1.29,9.33,-0.02,-0.05,0.00,26.99
34107173,1904,1,191123,238544,0.80,-1.68,9.65,0.01,0.01,0.01,26.99
34147168,1877,1,191898,238720,0.77,-1.07,10.03,-0.02,-0.04,0.01,26.99
34187173,1903,1,191912,239770,0.46,-1.50,8.12,0.01,-0.05,0.01,26.99
34227164,1911,1,192158,239277,1.12,-1.23,9.17,0.01,-0.04,-0.00,26.99
34267173,1915,1,192229,240480,0.29,-1.24,12.07,-0.00,0.04,0.01,26.99
34307163,1925,1,192742,240907,1.19,-0.63,9.88,0.00,-0.07,0.01,26.99
34347162,1922,1,193111,241848,1.02,-1.43,10.82,0.01,0.02,0.01,26.99
34387144,1921,1,193537,242500,0.26,-1.18,10.50,-0.02,0.00,0.01,26.99
34427163,1918,1,193905,242651,0.47,-0.81,10.64,-0.00,-0.03,0.01,26.99
34467173,1904,1,193837,243224,1.25,-1.50,11.46,-0.01,-0.02,0.01,26.99
34507176,1914,1,194167,242939,0.42,-0.95,11.16,-0.03,0.02,0.02,26.99
34547167,1919,1,193681,242720,0.80,-1.24,9.27,-0.02,-0.07,0.01,26.99
34587174,1920,1,193604,241744,1.22,-1.15,9.22,-0.03,0.00,0.01,26.99
34627167,1923,1,193086,240301,0.03,-1.17,9.94,-0.03,-0.02,0.02,26.99
34667174,1915,1,192408,238440,1.10,-0.79,9.18,-0.03,-0.06,0.01,26.99
34707176,1911,1,192058,238906,1.05,-1.33,9.82,-0.03,-0.02,0.03,26.99
34747176,1918,1,191906,238372,0.68,-1.15,8.14,-0.05,-0.04,0.02,26.99
34787176,1893,1,191890,238131,1.05,-1.16,9.36,-0.05,-0.04,0.02,26.99
34827173,1903,1,191552,238351,0.99,-1.08,9.75,-0.03,-0.00,0.02,26.99
34867860,1920,1,191792,238583,0.82,-1.06,9.57,-0.04,-0.05,0.02,27.05
34906173,1909,1,191763,238979,1.12,-1.29,9.50,-0.02,0.01,0.02,27.05
34946166,1909,1,191965,239028,0.87,-1.06,9.04,-0.03,-0.01,0.02,27.05
34986173,1907,1,191943,239232,0.65,-0.95,9.80,-0.04,-0.02,0.02,27.05
35026177,1914,1,191893,239184,1.30,-1.47,10.48,-0.02,0.02,0.02,27.05
35066162,1919,1,191877,239130,0.70,-1.03,10.49,-0.03,-0.00,0.02,27.05
35106173,1911,1,191743,239370,0.98,-1.30,9.59,-0.01,0.01,0.02,27.05
35146162,1904,1,192173,240688,0.97,-1.19,9.96,-0.02,0.02,0.02,27.05
35186163,1909,1,192936,241751,0.53,-1.03,11.06,-0.04,-0.01,0.02,27.05
35226173,1902,1,193463,243105,0.82,-1.21,10.07,-0.03,-0.03,0.02,27.05
35266175,1908,1,194092,243779,0.87,-1.08,10.73,-0.05,-0.01,0.02,27.05
35306176,1906,1,194450,244320,0.47,-1.38,9.96,-0.05,0.03,0.02,27.05
35346167,1906,1,194201,242934,1.20,-1.07,9.53,-0.04,-0.03,0.01,27.05
35386176,1917,1,193576,241551,0.27,-1.15,11.34,-0.07,0.01,0.02,27.05
35426167,1915,1,192712,239878,1.26,-0.87,9.28,-0.05,-0.04,0.02,27.05
35466173,1917,1,192462,239821,0.84,-1.29,10.43,-0.07,0.01,0.02,27.05
35506167,1925,1,192413,240087,0.27,-1.31,8.51,-0.07,-0.02,0.02,27.05
35546176,1920,1,192568,240014,1.11,-1.15,9.73,-0.05,-0.03,0.02,27.05
35586180,1906,1,192479,240151,0.31,-1.31,10.21,-0.06,0.00,0.03,27.05
35626162,1905,1,192341,239716,1.24,-1.27,9.98,-0.05,-0.05,0.02,27.05
35666176,1909,1,192008,239631,0.72,-1.38,10.50,-0.06,-0.02,0.03,27.05
35706173,1904,1,191915,239292,0.75,-1.53,8.69,-0.05,-0.04,0.02,27.05
35746175,1929,1,191830,238859,0.77,-1.65,9.66,-0.03,-0.01,0.02,27.05
35786177,1905,1,191546,238643,0.34,-1.19,10.30,-0.04,-0.02,0.02,27.05
35826175,1906,1,191692,238694,0.94,-1.40,9.64,-0.01,0.03,0.02,27.05
35866162,1916,1,191521,238404,0.54,-1.29,9.58,-0.02,-0.02,0.02,27.05
35906861,1905,1,191242,238171,0.95,-1.35,9.14,0.01,-0.02,0.02,26.99
35945162,1905,1,191120,238363,0.73,-1.24,9.22,0.00,-0.01,0.02,26.99
35985166,1915,1,191387,238968,0.51,-1.07,9.84,-0.02,-0.05,0.02,26.99
36025179,1920,1,191696,239356,1.31,-1.05,10.05,0.01,-0.02,0.02,26.99
36065166,1919,1,191880,239887,0.56,-1.19,10.25,-0.02,-0.02,0.02,26.99
36105173,1904,1,191956,238288,0.97,-1.35,9.29,0.01,-0.01,0.02,26.99
36145166,1904,1,191242,237450,0.44,-1.29,9.50,-0.01,-0.02,0.03,26.99
36185175,1898,1,191385,237631,0.71,-1.01,10.37,0.00,-0.03,0.02,26.99
36226163,1904,1,191319,238466,1.10,-0.96,11.12,0.01,-0.04,0.03,26.99
36266163,1913,1,192002,239898,0.59,-1.17,10.11,-0.03,-0.03,0.02,26.99
36306176,1902,1,192587,240811,1.12,-0.98,10.70,0.01,-0.03,0.03,26.99
36346162,1904,1,193028,241703,0.26,-1.38,10.10,-0.03,-0.02,0.03,26.99
36386176,1904,1,193250,242016,1.08,-1.24,10.37,-0.01,-0.06,0.02,26.99
36424175,1919,1,193349,241829,0.75,-1.21,10.96,-0.02,-0.03,0.03,26.99
36464175,1917,1,193175,241610,0.92,-1.12,10.33,-0.02,-0.07,0.03,26.99
36504175,1919,1,193099,241678,1.17,-1.11,10.54,-0.02,-0.03,0.03,26.99
36544175,1911,1,193304,242031,0.74,-1.15,8.68,-0.02,-0.03,0.03,26.99
36584176,1916,1,193393,241973,1.40,-0.91,9.58,-0.03,-0.08,0.02,26.99
36624176,1914,1,193731,242505,0.67,-0.75,9.94,-0.04,-0.03,0.03,26.99
36664174,1915,1,193651,242840,1.60,-0.92,9.41,-0.03,-0.07,0.03,26.99
36704176,1917,1,194766,244799,0.92,-1.07,9.93,-0.05,0.01,0.03,26.99
36744164,1922,1,194812,244023,1.07,-1.12,8.81,-0.02,-0.04,0.03,26.99
36784176,1932,1,194390,243248,0.75,-0.94,9.60,-0.05,-0.03,0.03,26.99
36824174,1919,1,193877,242459,1.38,-0.83,9.33,-0.02,-0.00,0.03,26.99
36864176,1899,1,193886,242639,0.95,-0.84,10.26,-0.04,-0.03,0.03,26.99
36904173,1903,1,193952,242843,1.36,-1.09,10.34,-0.04,-0.01,0.03,26.99
36944861,1885,1,194032,243251,1.04,-0.86,9.62,-0.05,-0.03,0.04,27.09
36985173,1909,1,194174,243266,1.25,-1.34,9.45,-0.03,0.05,0.03,27.09
37025168,1898,1,194009,243677,1.09,-0.97,9.06,-0.03,-0.05,0.03,27.09
37065173,1914,1,194305,243725,1.59,-0.84,9.70,-0.04,0.02,0.02,27.09
37105162,1895,1,194300,244213,1.05,-0.75,9.93,-0.05,-0.02,0.03,27.09
37145173,1905,1,194533,244462,1.50,-0.93,9.59,-0.04,-0.00,0.03,27.09
37185173,1904,1,194702,244501,0.80,-1.04,9.95,-0.06,0.04,0.04,27.09
37225168,1909,1,194538,244176,0.91,-1.57,8.94,-0.04,0.02,0.03,27.09
37265166,1904,1,194280,243159,0.57,-0.55,9.39,-0.06,0.02,0.03,27.09
37305162,1902,1,193738,242789,1.13,-0.88,9.65,-0.04,0.02,0.03,27.09
37345163,1899,1,193654,242169,1.08,-0.70,10.12,-0.05,0.02,0.03,27.09
37385162,1908,1,193455,242582,1.18,-1.04,10.47,-0.05,0.03,0.04,27.09
37425196,1918,1,193614,242349,0.66,-1.28,9.49,-0.07,0.04,0.04,27.09
37465162,1895,1,193578,242227,0.87,-1.36,10.15,-0.05,0.03,0.04,27.09
37505166,1904,1,193261,241528,0.51,-1.28,9.44,-0.06,0.03,0.03,27.09
37545162,1907,1,192595,238914,1.13,-0.86,10.66,-0.04,0.03,0.03,27.09
37585166,1914,1,191536,236326,1.07,-0.84,11.43,-0.07,-0.01,0.04,27.09
37625192,1929,1,190003,235049,1.45,-1.00,8.35,-0.04,-0.09,0.04,27.09
37665173,1902,1,190662,236578,0.78,-1.48,10.54,-0.09,0.17,0.04,27.09
37705162,1909,1,190306,235115,1.39,-0.92,7.82,-0.03,-0.04,0.03,27.09
37745173,1908,1,190154,236207,0.76,-1.55,9.17,-0.09,0.04,0.03,27.09
37785162,1906,1,190481,235962,1.35,-0.69,9.45,-0.05,-0.01,0.02,27.09
37825175,1915,1,190292,236818,1.11,-0.80,10.84,-0.05,-0.06,0.03,27.09
37865173,1905,1,190794,237636,1.35,-1.19,9.88,-0.06,0.09,0.03,27.09
37905166,1917,1,191395,238732,0.22,-1.25,10.17,-0.03,-0.01,0.04,27.09
37943861,1898,1,191718,239376,0.67,-1.64,9.45,0.00,0.05,0.03,26.97
37984144,1885,1,192356,241312,0.31,-1.21,10.01,-0.03,0.04,0.03,26.97
38024179,1901,1,193349,242101,0.40,-1.49,10.45,-0.03,0.04,0.03,26.97
38064163,1904,1,193058,241361,1.10,-0.94,10.69,-0.02,-0.08,0.02,26.97
38104176,1920,1,192580,240371,0.76,-0.87,10.45,-0.03,0.03,0.03,26.97
38144163,1934,1,192226,240296,0.05,-2.11,9.95,-0.03,0.00,0.02,26.97
38184162,1921,1,192277,239752,0.34,-1.18,11.40,-0.04,-0.01,0.03,26.97
38224176,1894,1,192023,239890,0.28,-1.89,10.47,-0.03,-0.06,0.03,26.97
38264173,1904,1,191746,238814,0.64,-0.74,8.88,-0.02,-0.05,0.03,26.97
38304173,1905,1,192042,239207,0.45,-1.91,12.05,-0.06,0.00,0.03,26.97
38344162,1900,1,191714,238880,1.08,-0.46,10.09,-0.02,-0.06,0.02,26.97
38384176,1911,1,192028,239324,0.52,-1.76,10.84,-0.05,0.02,0.03,26.97
38424162,1902,1,191559,238617,0.73,-1.23,8.91,-0.04,-0.10,0.02,26.97
38464175,1902,1,191591,238051,0.02,-1.72,10.37,-0.07,-0.03,0.03,26.97
38504173,1915,1,190992,237944,0.71,-1.42,8.41,-0.01,-0.05,0.02,26.97
38544175,1908,1,191233,237553,0.28,-1.36,9.51,-0.06,-0.04,0.03,26.97
38584173,1914,1,190546,236802,1.16,-0.88,9.62,-0.02,-0.07,0.02,26.97
38624175,1904,1,190386,236247,0.94,-0.91,9.30,-0.05,-0.04,0.02,26.97
38664173,1918,1,190375,236871,0.68,-1.32,10.26,-0.02,-0.01,0.03,26.97
38704175,1907,1,190888,237448,0.98,-1.49,10.60,-0.02,-0.01,0.02,26.97
38744173,1909,1,190920,237900,0.37,-1.44,9.40,-0.00,-0.04,0.03,26.97
38784175,1902,1,191482,238964,0.72,-1.71,9.91,-0.01,0.02,0.03,26.97
38824163,1899,1,191877,239138,0.32,-1.02,9.62,-0.01,-0.01,0.03,26.97
38864192,1907,1,191754,239435,1.21,-1.13,10.54,-0.01,-0.04,0.02,26.97
38904173,1904,1,192108,239920,0.82,-0.96,10.30,-0.03,-0.00,0.03,26.97
38944173,1903,1,192220,239830,0.74,-1.26,9.84,-0.01,-0.01,0.03,26.97
38984860,1900,1,191926,237903,0.84,-1.45,10.14,-0.03,-0.02,0.02,26.77
39023192,1871,1,191325,238114,0.39,-1.13,10.11,-0.03,-0.04,0.03,26.77
39063199,1895,1,191564,238206,0.73,-1.58,9.42,-0.03,0.01,0.02,26.77
39103166,1897,1,191609,238081,0.59,-1.14,9.85,-0.03,-0.02,0.02,26.77
39143176,1909,1,191310,237799,1.27,-0.69,9.88,-0.05,-0.03,0.02,26.77
39183175,1895,1,191372,237979,0.52,-1.22,10.41,-0.05,0.04,0.02,26.77
39223162,1904,1,191273,237535,0.91,-1.04,9.74,-0.06,-0.03,0.02,26.77
39263190,1881,1,191148,237310,0.85,-1.37,10.09,-0.08,-0.00,0.03,26.77
39303173,1914,1,190780,236657,0.59,-1.36,8.74,-0.07,-0.01,0.01,26.77
39343175,1913,1,190501,235927,0.29,-1.87,9.53,-0.07,0.03,0.02,26.77
39383166,1904,1,190236,236465,0.96,-1.49,9.41,-0.05,0.03,0.02,26.77
39423166,1901,1,190544,236998,0.44,-1.22,8.94,-0.07,0.00,0.01,26.77
39463162,1889,1,190874,238007,0.98,-1.06,9.84,-0.05,0.00,0.01,26.77
39503162,1917,1,191199,238292,0.85,-1.58,10.14,-0.06,0.02,0.01,26.77
39543162,1906,1,191380,238841,0.59,-1.25,9.90,-0.05,0.03,0.01,26.77
39583163,1919,1,191669,238664,0.55,-2.03,9.83,-0.05,0.07,0.01,26.77
39623162,1902,1,191336,238341,0.36,-1.39,9.76,-0.03,0.01,0.01,26.77
39663166,1905,1,191279,237278,-0.02,-2.07,10.03,-0.05,0.05,0.01,26.77
39703173,1917,1,191151,237933,0.38,-1.44,9.59,-0.01,0.01,0.01,26.77
39743163,1918,1,191521,238527,0.35,-1.31,10.44,-0.05,-0.01,0.01,26.77
39783173,1907,1,191742,239054,0.29,-1.06,10.07,-0.04,0.02,0.01,26.77
39823163,1925,1,191834,239039,0.82,-1.48,10.41,-0.05,-0.01,0.00,26.77
39863173,1920,1,192002,239248,0.04,-0.92,10.84,-0.06,0.04,0.01,26.77
39903163,1907,1,191760,239294,0.55,-1.73,9.96,-0.06,-0.01,0.01,26.77
39943173,1905,1,191965,239216,0.22,-1.56,10.13,-0.07,-0.01,0.01,26.77
39983175,1918,1,191680,238756,0.05,-1.57,10.18,-0.06,-0.03,0.01,26.77
40023875,1915,1,191455,238458,0.05,-2.17,9.21,-0.06,0.03,0.02,26.85
40062166,1915,1,191156,237924,0.27,-1.46,9.78,-0.06,-0.04,0.01,26.85
40102175,1911,1,191021,237780,-0.11,-1.56,9.89,-0.07,0.01,0.02,26.85
40142175,1903,1,190644,237314,0.88,-1.34,9.53,-0.04,-0.03,0.01,26.85
40182175,1889,1,190769,238021,0.34,-1.73,10.19,-0.05,0.00,0.01,26.85
40222167,1899,1,190786,237906,0.31,-1.32,9.52,-0.03,-0.02,0.01,26.85
40262175,1904,1,191048,238233,0.52,-2.01,10.27,-0.03,-0.01,0.01,26.85
40302176,1908,1,191045,238575,0.50,-1.51,9.00,-0.02,-0.08,0.01,26.85
40342174,1910,1,191554,238392,-0.20,-1.97,10.35,-0.01,0.04,0.02,26.85
40382175,1915,1,190671,236013,1.13,-1.23,8.39,0.04,-0.09,0.02,26.85
40422162,1920,1,190767,236300,0.15,-1.55,10.42,-0.02,0.01,0.02,26.85
40462167,1905,1,190460,235904,0.52,-0.76,9.18,0.03,-0.08,0.02,26.85
40502168,1915,1,190436,236012,0.92,-1.65,10.41,0.02,-0.03,0.02,26.85
40542167,1929,1,190304,235797,1.05,-0.76,9.20,0.04,-0.08,0.02,26.85
40582163,1911,1,190575,236878,0.32,-1.57,10.65,-0.01,-0.02,0.03,26.85
40622175,1919,1,190866,237243,0.62,-1.13,9.72,0.02,-0.03,0.03,26.85
40662163,1893,1,191142,237796,0.57,-1.35,11.04,-0.01,-0.08,0.03,26.85
40702216,1900,1,191519,238736,0.15,-1.05,10.66,0.01,-0.00,0.03,26.85
40742167,1895,1,191956,239780,0.90,-1.36,11.09,-0.00,-0.09,0.03,26.85
40782175,1879,1,192423,240466,0.69,-1.19,10.09,-0.00,-0.05,0.03,26.85
40822176,1903,1,192746,240893,0.74,-0.91,10.39,-0.02,-0.06,0.03,26.85
40862176,1909,1,192888,240654,0.63,-1.21,10.35,-0.04,-0.04,0.03,26.85
40902201,1894,1,192379,239859,1.13,-0.92,9.66,-0.02,-0.10,0.03,26.85
40942176,1914,1,192072,239256,0.95,-1.14,9.90,-0.05,-0.06,0.03,26.85
40982176,1899,1,191571,238553,0.70,-1.02,8.76,-0.04,-0.09,0.03,26.85
41022176,1904,1,191397,238110,0.57,-1.67,9.01,-0.05,-0.05,0.03,26.85
41062860,1904,1,191277,237077,0.86,-1.21,10.04,-0.01,-0.02,0.03,26.97
41101175,1919,1,190624,234899,0.73,-1.58,9.56,-0.03,-0.04,0.03,26.97
41141175,1903,1,190012,233893,1.15,-1.10,8.37,-0.00,-0.07,0.04,26.97
41181175,1905,1,189931,234098,1.42,-1.48,9.99,-0.03,-0.02,0.03,26.97
41221175,1916,1,189946,234994,1.06,-0.56,8.73,-0.00,-0.03,0.03,26.97
41261175,1914,1,190446,235191,0.65,-1.37,8.94,-0.02,-0.01,0.03,26.97
41301175,1910,1,190620,236623,1.32,-0.69,10.67,-0.02,-0.01,0.04,26.97
41341175,1904,1,190966,236977,1.39,-1.09,9.38,-0.01,-0.01,0.03,26.97
41381175,1907,1,191010,237238,0.44,-0.87,9.43,-0.01,0.03,0.04,26.97
41421162,1922,1,191481,238331,1.00,-1.49,11.34,-0.04,0.02,0.04,26.97
41461166,1915,1,191631,238639,0.67,-1.11,9.43,-0.01,-0.02,0.04,26.97
41501175,1906,1,191708,238809,0.59,-1.55,10.73,-0.03,0.01,0.03,26.97
41541166,1885,1,191680,238664,0.68,-1.19,9.81,-0.04,-0.05,0.04,26.97
41581175,1892,1,191726,239467,0.71,-1.30,10.53,-0.03,0.02,0.05,26.97
41621163,1887,1,191920,239452,1.30,-1.04,9.16,-0.02,-0.00,0.04,26.97
41661175,1890,1,191875,239677,1.09,-0.82,10.27,-0.03,-0.05,0.04,26.97
41701176,1893,1,192136,239995,0.82,-0.60,9.81,-0.05,-0.00,0.04,26.97
41741175,1905,1,192106,239711,1.16,-1.06,10.70,-0.03,-0.03,0.04,26.97
41781176,1907,1,191680,237889,1.41,-1.00,9.46,-0.04,-0.03,0.04,26.97
41821175,1898,1,191373,237782,0.96,-1.02,10.72,-0.05,-0.03,0.03,26.97
41861176,1906,1,191309,237138,0.74,-0.91,10.35,-0.03,-0.02,0.04,26.97
41901175,1893,1,191160,237553,0.44,-1.56,10.49,-0.04,-0.02,0.04,26.97
41941176,1895,1,191356,236739,1.07,-1.17,11.01,-0.02,-0.05,0.03,26.97
41981175,1904,1,190900,237179,0.90,-1.21,10.84,-0.01,-0.07,0.04,26.97
42021179,1907,1,191002,236897,0.86,-1.12,9.18,-0.03,-0.03,0.04,26.97
42061175,1909,1,190712,236595,0.70,-1.24,10.00,-0.03,-0.07,0.04,26.97
42101860,1904,1,190695,236196,0.83,-1.19,9.25,-0.03,-0.03,0.04,26.87
42141220,1907,1,190514,236300,1.23,-1.01,10.11,-0.02,-0.06,0.04,26.87
42181176,1905,1,190537,236502,1.30,-0.90,9.38,-0.03,-0.05,0.03,26.87
42221173,1904,1,190648,237048,0.87,-0.78,9.04,-0.04,-0.07,0.04,26.87
42261173,1902,1,190956,237593,1.31,-0.87,10.15,-0.05,-0.03,0.03,26.87
42301175,1904,1,190816,237162,1.44,-0.90,9.41,-0.03,-0.11,0.04,26.87
42341199,1917,1,190711,237417,1.47,-1.02,10.67,-0.04,0.00,0.03,26.87
42381166,1925,1,190823,237207,0.91,-1.16,9.34,-0.04,-0.01,0.04,26.87
42421173,1932,1,190718,237299,0.27,-1.43,9.67,-0.05,0.02,0.04,26.87
42461166,1904,1,191120,236935,1.02,-1.40,11.11,-0.04,0.01,0.04,26.87
42501162,1899,1,189665,233248,1.72,-0.94,8.66,0.00,-0.11,0.04,26.87
42541176,1904,1,189539,233532,0.77,-1.77,9.20,-0.04,0.10,0.04,26.87
42581162,1903,1,188930,231451,1.19,-0.50,7.13,-0.00,-0.09,0.03,26.87
42621173,1919,1,188786,232221,0.96,-1.26,11.22,-0.05,0.07,0.04,26.87
42661163,1920,1,188152,230165,1.45,0.03,6.40,0.01,0.01,0.03,26.87
42701125,1907,1,188043,230701,1.01,-1.36,10.46,-0.02,0.07,0.03,26.87
42741162,1906,1,188236,230674,0.98,-0.57,9.20,-0.01,0.09,0.03,26.87
42781162,1914,1,188656,233312,0.65,-1.52,9.36,-0.02,-0.01,0.04,26.87
42821173,1909,1,189579,234098,1.34,-0.98,9.57,-0.03,0.06,0.04,26.87
42861163,1898,1,189860,236187,1.12,-0.80,9.54,-0.00,-0.03,0.04,26.87
42901176,1898,1,191179,237775,1.22,-1.30,10.91,-0.04,0.08,0.03,26.87
42941167,1887,1,191393,238099,0.29,-0.70,11.08,-0.02,0.00,0.04,26.87
42981168,1887,1,191175,237790,0.30,-1.68,10.99,-0.04,-0.01,0.03,26.87
43021183,1888,1,191003,237593,0.81,-0.60,11.78,-0.05,0.02,0.04,26.87
43061168,1911,1,191137,238076,0.68,-1.74,12.27,-0.03,0.04,0.04,26.87
43101166,1918,1,191093,238012,0.90,-0.55,10.49,-0.02,-0.08,0.03,26.87
43141860,1904,1,191507,239037,0.28,-1.51,12.81,-0.09,0.02,0.04,26.73
43181166,1894,1,191548,238854,0.20,-0.96,8.94,-0.04,-0.06,0.04,26.73
43221173,1904,1,191707,238068,0.33,-1.92,10.73,-0.10,-0.04,0.04,26.73
43261175,1904,1,190808,235855,0.81,-0.85,9.28,-0.06,-0.05,0.04,26.73
43301176,1906,1,190597,234772,1.05,-1.23,9.84,-0.07,-0.04,0.04,26.73
43341176,1920,1,190034,235355,1.43,-1.17,9.66,-0.05,-0.05,0.04,26.73
43381176,1913,1,190450,234594,0.98,-1.21,8.29,-0.07,-0.05,0.03,26.73
43421176,1910,1,189940,234646,0.69,-1.03,9.88,-0.07,-0.09,0.04,26.73
43461173,1891,1,189854,234365,1.01,-1.24,8.71,-0.07,-0.08,0.03,26.73
43501176,1899,1,189957,235050,0.96,-1.48,10.15,-0.05,-0.04,0.04,26.73
43541173,1907,1,189612,233807,1.36,-0.98,8.82,-0.02,-0.08,0.03,26.73
43581175,1904,1,189825,235048,1.16,-1.37,10.80,-0.02,0.00,0.04,26.73
43621162,1902,1,190256,236085,1.53,-0.94,9.50,0.02,-0.01,0.03,26.73
43661163,1904,1,191037,237124,0.65,-1.64,9.94,-0.01,-0.01,0.03,26.73
43701176,1907,1,191149,237712,0.95,-0.98,9.32,0.00,-0.05,0.03,26.73
43741167,1899,1,191183,237139,0.46,-1.21,9.99,-0.03,-0.03,0.04,26.73
43781173,1933,1,190789,236964,0.55,-1.13,8.57,0.01,-0.01,0.04,26.73
43821167,1926,1,190750,236292,1.02,-1.21,10.48,0.01,-0.05,0.03,26.73
43861162,1916,1,190244,236581,1.04,-1.06,10.56,0.04,0.00,0.04,26.73
43901145,1911,1,190448,235536,0.72,-1.32,8.89,0.01,-0.01,0.03,26.73
43941162,1910,1,189797,234305,0.60,-1.63,9.96,0.01,0.04,0.03,26.73
43981166,1892,1,189442,232335,0.53,-1.62,9.05,-0.01,-0.04,0.03,26.73
44021179,1914,1,188833,233232,1.03,-0.96,10.09,-0.01,0.12,0.05,26.73
44061167,1925,1,189502,232743,0.62,-1.43,7.81,-0.00,0.03,0.04,26.73
44101163,1933,1,189290,233632,1.30,-0.91,9.53,0.01,-0.01,0.04,26.73
44141168,1918,1,190437,235244,1.17,-1.06,8.92,-0.00,0.05,0.04,26.73
44179868,1893,1,190818,236450,1.50,-1.01,7.98,0.00,-0.05,0.03,26.87
44220167,1915,1,191369,236878,1.10,-1.34,9.37,-0.06,0.05,0.03,26.87
44260167,1913,1,191145,237450,1.11,-0.11,8.25,-0.02,-0.01,0.03,26.87
44300176,1905,1,192255,238796,0.68,-1.11,10.27,-0.05,0.09,0.03,26.87
44340167,1903,1,192192,239400,1.39,-0.03,8.89,-0.03,-0.04,0.03,26.87
44380176,1904,1,193010,240636,1.48,-1.05,11.27,-0.05,0.02,0.03,26.87
44420167,1904,1,192993,240957,1.76,0.05,9.25,-0.00,-0.02,0.03,26.87
44460168,1861,1,193636,241752,1.23,-1.49,12.93,-0.05,0.04,0.03,26.87
44500167,1878,1,193462,242101,1.66,0.02,9.89,-0.03,-0.02,0.03,26.87
44540168,1887,1,193940,242255,0.24,-1.43,12.13,-0.07,0.04,0.03,26.87
44580167,1872,1,193676,241899,0.86,-0.30,10.19,-0.08,-0.05,0.03,26.87
44620175,1898,1,193807,241689,0.04,-1.43,12.02,-0.11,0.00,0.04,26.87
44660164,1903,1,192956,240102,0.58,-0.69,9.30,-0.07,-0.03,0.04,26.87
44700176,1901,1,192623,237949,0.40,-1.53,11.44,-0.11,-0.00,0.05,26.87
44740176,1904,1,191875,238005,0.60,-0.90,10.76,-0.05,-0.01,0.05,26.87
44780176,1904,1,192362,238275,0.71,-1.49,10.81,-0.06,-0.01,0.04,26.87
44820176,1902,1,192204,238531,0.84,-1.29,9.90,-0.04,-0.07,0.04,26.87
44860176,1909,1,192277,238848,1.11,-1.61,10.99,-0.05,-0.08,0.04,26.87
44900176,1919,1,192749,240165,0.90,-1.56,10.69,-0.02,-0.01,0.04,26.87
44940176,1908,1,192971,240891,0.96,-1.75,9.74,-0.02,-0.06,0.04,26.87
44980176,1915,1,193523,241179,0.46,-1.78,10.79,-0.01,-0.01,0.04,26.87
45020176,1930,1,193148,240091,0.84,-1.36,8.99,0.00,-0.11,0.03,26.87
45060167,1934,1,192707,239495,0.35,-1.63,10.46,-0.03,-0.03,0.04,26.87
45100176,1921,1,192252,238658,0.71,-1.32,8.54,-0.00,-0.07,0.04,26.87
45140174,1921,1,192202,238591,0.40,-1.89,10.37,-0.01,0.01,0.04,26.87
45180166,1921,1,192148,239229,0.64,-1.05,9.73,-0.01,-0.06,0.04,26.87
45219863,1913,1,192490,239740,0.22,-1.75,9.92,-0.01,-0.00,0.05,26.83
45260176,1910,1,192674,240266,0.48,-1.28,9.29,0.00,-0.04,0.05,26.83
45300163,1899,1,192776,240474,0.84,-1.38,10.35,-0.01,-0.05,0.04,26.83
45340175,1919,1,192996,240776,0.82,-1.10,10.23,-0.01,-0.03,0.04,26.83
45380176,1915,1,192703,241092,1.32,-0.96,9.52,0.00,-0.07,0.04,26.83
45420167,1913,1,193053,240581,1.31,-1.10,10.25,-0.01,-0.01,0.03,26.83
45460176,1920,1,191741,236754,1.83,-0.25,7.88,-0.00,-0.16,0.03,26.83
45500176,1936,1,191396,236289,1.56,-0.85,10.69,-0.07,0.05,0.03,26.83
45540167,1915,1,190263,233954,2.35,-0.20,6.78,-0.04,-0.18,0.02,26.83
45580176,1909,1,189951,234404,1.79,-1.11,11.16,-0.09,0.03,0.02,26.83
45620197,1895,1,189563,232218,1.24,-0.23,7.14,-0.03,0.01,0.02,26.83
45660167,1895,1,189086,233252,1.38,-0.64,11.65,-0.05,0.04,0.04,26.83
45700167,1898,1,189557,233411,1.58,-0.45,7.50,-0.07,0.05,0.03,26.83
45738167,1904,1,189841,234552,0.48,-0.94,9.05,-0.07,-0.03,0.03,26.83
45778174,1903,1,190812,235679,0.94,-0.06,10.60,-0.04,0.17,0.04,26.83
45818168,1887,1,190268,234553,0.87,-0.66,7.74,-0.02,-0.01,0.04,26.83
45858177,1894,1,190701,236245,0.56,-1.11,10.47,-0.05,0.16,0.04,26.83
45898168,1904,1,191269,236057,0.94,-0.39,8.97,-0.01,0.08,0.04,26.83
45938164,1903,1,192162,239570,0.58,-0.80,11.16,-0.02,0.12,0.05,26.83
45978167,1884,1,192890,239296,1.12,-0.43,8.63,-0.04,0.01,0.03,26.83
46018167,1893,1,193631,242139,-0.39,-1.23,11.23,-0.01,0.04,0.04,26.83
46058176,1858,1,193650,240879,0.85,0.53,9.39,-0.00,0.03,0.03,26.83
46098144,1896,1,193787,242706,0.35,-1.23,12.00,-0.04,0.05,0.04,26.83
46138167,1902,1,193916,240804,0.16,-1.09,8.37,-0.01,0.09,0.03,26.83
46178164,1920,1,192413,237369,0.62,-1.02,11.43,-0.03,-0.03,0.03,26.83
46218176,1918,1,191747,236303,-0.03,-2.09,10.03,-0.09,0.04,0.04,26.83
46259860,1918,1,190684,235174,0.68,-0.87,8.06,-0.04,-0.15,0.03,27.03
46298176,1914,1,191035,236738,0.20,-1.45,10.66,-0.06,0.05,0.03,27.03
46338167,1911,1,191706,237875,0.63,-0.42,8.19,0.01,-0.06,0.03,27.03
46378167,1904,1,192708,239383,0.14,-1.40,12.35,-0.02,0.06,0.04,27.03
46418167,1904,1,192247,239272,0.07,-1.03,7.68,0.00,-0.05,0.04,27.03
46458167,1911,1,192547,238493,0.34,-0.89,10.23,-0.00,0.01,0.03,27.03
46498163,1915,1,191717,237101,0.41,-0.87,9.52,0.02,-0.01,0.04,27.03
46538166,1920,1,190929,236667,0.83,-1.33,8.99,0.02,0.02,0.04,27.03
46578144,1904,1,191023,236141,-0.26,-1.36,8.95,0.01,0.08,0.04,27.03
46618167,1921,1,190353,235650,0.76,-0.91,9.06,0.03,-0.10,0.03,27.03
46658162,1911,1,190895,236789,0.16,-1.18,9.74,-0.00,0.09,0.04,27.03
46698163,1890,1,191111,237924,0.28,-1.26,8.49,0.02,-0.11,0.03,27.03
46738161,1905,1,192164,239426,0.29,-1.13,11.69,-0.01,0.02,0.03,27.03
46778167,1917,1,192517,241078,0.10,-0.87,9.54,0.03,-0.00,0.04,27.03
46818162,1920,1,193156,241157,0.28,-1.20,10.43,0.01,0.01,0.03,27.03
46858143,1910,1,193212,240919,0.25,-0.98,9.73,0.01,-0.06,0.03,27.03
46898163,1899,1,192724,239328,0.53,-0.93,9.79,-0.04,-0.08,0.02,27.03
46938175,1908,1,192711,239829,0.02,-0.91,11.74,-0.02,-0.05,0.02,27.03
46978175,1917,1,192098,238992,0.72,-0.57,9.27,-0.02,-0.10,0.02,27.03
47018175,1918,1,192570,239700,0.10,-1.10,11.96,-0.05,0.01,0.02,27.03
47058163,1934,1,192294,239772,0.59,-0.53,11.01,-0.03,-0.13,0.03,27.03
47098175,1924,1,192708,240895,0.48,-1.16,10.72,-0.03,-0.03,0.03,27.03
47138173,1923,1,193135,242186,0.34,-0.42,11.02,-0.04,-0.05,0.02,27.03
47178175,1927,1,193652,242645,0.73,-0.84,11.73,-0.04,-0.08,0.02,27.03
47218175,1931,1,193416,243336,0.97,-0.03,10.68,-0.03,-0.08,0.02,27.03
47258208,1934,1,194182,243585,0.49,-1.39,13.63,-0.11,-0.03,0.03,27.03
47298860,1951,1,193673,243178,0.81,-0.60,11.14,-0.04,-0.16,0.03,26.77
47337175,1933,1,193846,243033,0.51,-1.15,11.30,-0.08,-0.06,0.03,26.77
47377176,1930,1,193788,242976,0.46,-0.91,10.09,-0.08,-0.09,0.03,26.77
47417175,1914,1,193868,242959,0.96,-1.13,10.23,-0.06,-0.10,0.03,26.77
47457175,1889,1,193762,242892,1.08,-0.36,10.18,-0.09,-0.10,0.03,26.77
47497175,1867,1,193836,242981,0.73,-1.37,9.14,-0.05,-0.06,0.04,26.77
47537175,1873,1,193388,242030,1.13,-0.70,8.10,-0.05,-0.12,0.03,26.77
47577175,1886,1,193209,241665,1.14,-1.39,9.02,-0.05,-0.05,0.03,26.77
47617175,1910,1,192173,237768,1.13,-0.79,7.27,-0.04,-0.10,0.03,26.77
47657175,1873,1,191240,236838,1.19,-0.80,9.51,-0.02,-0.09,0.03,26.77
47697173,1898,1,191230,236910,1.29,-0.97,9.94,0.01,-0.02,0.04,26.77
47737166,1881,1,190878,236482,1.40,-0.77,9.50,0.02,-0.11,0.04,26.77
47777163,1888,1,190740,236500,1.36,-1.77,9.45,0.02,0.15,0.28,26.77
47817144,1910,1,190805,237122,1.62,-0.40,8.57,0.04,-0.17,0.06,26.77
47857166,1911,1,191610,238991,1.38,-0.87,9.10,0.04,0.03,0.05,26.77
47897143,1907,1,191993,240085,1.22,-0.13,9.11,0.06,-0.00,0.03,26.77
47937163,1916,1,193115,241238,0.91,-0.53,10.84,0.06,0.13,0.04,26.77
47977144,1903,1,193254,241900,1.08,-0.24,8.80,0.05,-0.06,0.04,26.77
48017162,1904,1,193815,242632,1.08,-0.45,9.68,0.01,-0.01,0.04,26.77
48057163,1898,1,193714,242956,1.35,-0.09,8.97,0.02,-0.08,0.04,26.77
48097162,1900,1,194259,243836,1.19,-0.50,11.05,-0.01,0.01,0.03,26.77
48137167,1923,1,194588,244584,1.35,0.02,11.13,-0.01,0.01,0.04,26.77
48177144,1936,1,195073,245120,0.79,-0.73,11.07,-0.04,0.02,0.04,26.77
48217167,1933,1,195198,245525,1.13,-0.36,11.19,-0.03,-0.03,0.04,26.77
48257173,1930,1,195330,245599,1.12,-0.92,10.76,-0.08,-0.06,0.04,26.77
48297175,1920,1,195178,245719,1.49,-0.16,10.10,-0.06,-0.09,0.04,26.77
48337860,1931,1,195040,244136,1.06,-0.34,10.81,-0.09,-0.02,0.03,26.77
48378176,1912,1,194479,243221,1.36,-0.18,10.96,-0.06,-0.01,0.04,26.77
48418173,1904,1,194246,242179,1.42,-0.73,9.59,-0.09,-0.03,0.04,26.77
48458176,1911,1,193627,241211,1.23,-1.02,9.12,-0.10,-0.05,0.04,26.77
48498173,1872,1,192910,239131,1.28,-0.89,7.58,-0.10,-0.09,0.03,26.77
48538173,1902,1,192288,238310,1.21,-0.69,8.71,-0.09,0.04,0.04,26.77
48576166,1927,1,192054,237959,1.04,-0.48,8.66,-0.08,0.04,0.04,26.77
48616166,1906,1,192308,238353,1.14,-1.26,9.96,-0.06,0.06,0.04,26.77
48656166,1894,1,192048,238218,1.04,-1.29,9.22,-0.07,-0.03,0.04,26.77
48696175,1862,1,192043,238252,1.07,-1.02,8.37,-0.04,-0.02,0.04,26.77
48736175,1851,1,191987,239061,0.91,-1.20,9.07,-0.04,-0.02,0.04,26.77
48776175,1872,1,192511,239375,1.18,-0.95,9.14,-0.03,0.09,0.04,26.77
48816166,1893,1,192767,240291,0.69,-1.12,9.99,-0.03,0.06,0.04,26.77
48856167,1903,1,193058,240733,0.88,-1.23,10.73,-0.04,0.06,0.04,26.77
48896168,1904,1,193420,241763,0.20,-1.26,9.66,-0.02,0.08,0.05,26.77
48936167,1888,1,193933,242479,1.06,-1.27,9.29,-0.05,-0.01,0.04,26.77
48976176,1907,1,194191,242659,0.20,-1.30,10.78,-0.04,0.04,0.04,26.77
49016167,1904,1,193872,241674,0.56,-0.93,9.24,-0.02,-0.00,0.04,26.77
49056174,1927,1,193941,241722,0.50,-1.05,12.23,-0.03,0.03,0.05,26.77
49096181,1920,1,194018,242391,0.47,-1.12,10.27,-0.01,0.02,0.04,26.77
49136167,1911,1,194192,242177,0.42,-1.65,11.35,-0.04,-0.04,0.04,26.77
49176176,1904,1,194073,242650,0.62,-1.16,10.60,-0.04,-0.06,0.04,26.77
49216176,1899,1,194049,241833,0.65,-1.48,10.13,-0.04,-0.05,0.04,26.77
49256175,1914,1,193459,241211,0.72,-0.75,11.20,-0.03,-0.10,0.04,26.77
49296173,1917,1,193314,240443,0.62,-1.64,11.29,-0.07,-0.02,0.05,26.77
49336175,1941,1,192893,239672,0.54,-0.98,10.06,-0.02,-0.11,0.04,26.77
49376862,1930,1,192459,238210,0.40,-1.87,9.74,-0.04,-0.04,0.05,26.91
49417173,1934,1,191802,237030,0.59,-1.31,8.80,-0.00,-0.07,0.04,26.91
49457173,1927,1,191255,235803,0.82,-1.58,8.88,-0.03,-0.11,0.04,26.91
49497176,1923,1,191079,236629,1.01,-0.84,10.56,-0.01,-0.05,0.04,26.91
49537173,1911,1,191362,236791,0.76,-1.27,8.61,0.01,-0.07,0.04,26.91
49577163,1918,1,191794,238099,1.21,-1.24,10.87,0.01,-0.09,0.04,26.91
49617168,1904,1,192069,238705,1.02,-1.43,9.57,-0.01,-0.09,0.04,26.91
49657176,1898,1,192616,239950,0.82,-1.79,9.74,0.01,-0.09,0.04,26.91
49697167,1920,1,192328,237156,1.35,-0.59,9.25,0.02,-0.08,0.03,26.91
49737163,1905,1,191698,237081,0.74,-1.73,10.41,0.02,-0.01,0.04,26.91
49777166,1911,1,191609,236089,1.53,-0.70,9.77,0.01,-0.08,0.03,26.91
49817163,1903,1,191586,236905,0.74,-1.21,10.29,0.02,-0.02,0.04,26.91
49857163,1915,1,191511,236553,1.34,-1.02,8.65,-0.01,-0.05,0.03,26.91
49897176,1904,1,191749,237059,0.96,-1.51,10.78,0.01,-0.02,0.04,26.91
49937167,1905,1,191529,237530,1.41,-0.48,9.36,-0.03,-0.08,0.03,26.91
49977175,1919,1,191948,237699,1.20,-0.85,9.82,-0.04,-0.04,0.03,26.91
50017176,1907,1,192112,238506,0.93,-0.44,11.35,-0.03,0.01,0.03,26.91
50055167,1914,1,192189,238009,1.49,-1.06,10.73,-0.04,-0.03,0.04,26.91
50095175,1906,1,191888,238068,1.22,-1.22,10.13,-0.07,-0.02,0.04,26.91
50135176,1923,1,191741,237149,1.53,-1.08,9.08,-0.09,-0.06,0.04,26.91
50175176,1937,1,191627,237601,1.00,-0.85,9.39,-0.07,0.03,0.04,26.91
50215167,1936,1,191554,236393,1.82,-0.78,9.74,-0.07,0.00,0.03,26.91
50255164,1925,1,191261,236559,0.80,-0.68,10.42,-0.08,0.01,0.04,26.91
50295167,1903,1,191111,236212,1.39,-0.79,9.24,-0.05,0.03,0.04,26.91
50335166,1909,1,191260,236653,0.78,-1.28,10.42,-0.08,-0.00,0.05,26.91
50375176,1897,1,190971,236640,1.48,-1.35,9.57,-0.08,0.01,0.04,26.91
50415854,1905,1,191302,235938,0.66,-1.62,9.50,-0.09,0.01,0.04,26.97
50456167,1890,1,190628,234329,1.07,-0.88,9.94,-0.06,-0.02,0.04,26.97
50496176,1904,1,190355,233417,1.17,-1.21,10.10,-0.08,0.00,0.04,26.97
50536168,1903,1,189739,232524,0.93,-1.29,9.90,-0.06,0.02,0.05,26.97
50576166,1892,1,189116,230549,1.07,-1.20,8.21,-0.06,0.01,0.05,26.97
50616167,1907,1,188386,229572,0.51,-1.50,9.20,-0.05,0.09,0.05,26.97
50656163,1903,1,187975,228054,0.78,-1.64,8.70,-0.04,0.03,0.04,26.97
50696167,1904,1,187181,226184,0.18,-1.33,8.72,-0.07,0.01,0.04,26.97
50736168,1893,1,186513,224412,0.87,-1.36,8.57,-0.04,0.01,0.03,26.97
50776167,1889,1,186127,223616,0.07,-1.23,9.43,-0.03,0.05,0.04,26.97
50816163,1886,1,185834,223913,1.17,-1.39,9.51,-0.01,0.04,0.04,26.97
50856168,1899,1,186600,226206,-0.09,-1.70,9.30,-0.03,0.06,0.04,26.97
50896174,1902,1,187423,228919,0.54,-1.43,9.45,0.01,0.03,0.03,26.97
50936145,1900,1,188641,232300,0.34,-1.64,9.35,-0.03,0.03,0.02,26.97
50976167,1898,1,190134,235395,0.43,-1.43,10.34,-0.00,0.03,0.03,26.97
51016167,1904,1,191108,237097,0.40,-1.13,10.77,-0.04,-0.02,0.02,26.97
51056173,1936,1,191990,239214,-0.02,-0.93,11.92,-0.03,0.03,0.03,26.97
51096176,1941,1,192554,239791,0.46,-1.57,11.46,-0.05,0.01,0.03,26.97
51136163,1936,1,192678,239349,-0.28,-1.25,11.87,-0.07,-0.03,0.03,26.97
51176196,1914,1,192361,238151,0.38,-1.62,10.82,-0.08,-0.01,0.03,26.97
51216173,1904,1,191579,236242,0.03,-1.20,10.14,-0.08,-0.07,0.03,26.97
51256176,1937,1,190612,234273,1.04,-1.07,10.06,-0.10,-0.07,0.02,26.97
51296173,1931,1,189824,232765,0.25,-1.15,9.99,-0.10,-0.03,0.02,26.97
51336176,1920,1,189076,231795,0.42,-1.02,9.26,-0.08,-0.05,0.03,26.97
51376173,1906,1,188817,231117,0.74,-1.29,9.07,-0.08,-0.03,0.03,26.97
51416859,1887,1,188608,231661,0.60,-1.51,8.24,-0.07,-0.06,0.02,26.83
51455173,1893,1,188803,231638,0.77,-1.19,7.84,-0.05,-0.04,0.02,26.83
51495176,1881,1,189325,234506,0.49,-1.30,9.00,-0.03,-0.01,0.03,26.83
51535174,1872,1,190354,235768,1.19,-1.21,8.66,-0.01,-0.04,0.02,26.83
51575176,1866,1,190968,236707,0.23,-1.20,10.22,-0.00,-0.04,0.03,26.83
51615176,1892,1,191070,237457,1.39,-0.89,9.05,0.03,-0.03,0.02,26.83
51655167,1900,1,191490,237465,0.41,-1.64,10.42,0.04,0.02,0.03,26.83
51695144,1899,1,191617,238809,1.09,-0.91,9.10,0.04,-0.07,0.02,26.83
51735167,1907,1,192426,239643,0.33,-1.50,11.61,0.03,0.02,0.03,26.83
51775145,1904,1,192589,240460,0.85,-0.65,7.93,0.08,-0.08,0.02,26.83
51815167,1904,1,192800,239279,0.74,-1.22,11.27,-0.00,-0.02,0.02,26.83
51855176,1905,1,192066,237984,0.68,-0.56,9.84,0.04,-0.05,0.01,26.83
51895167,1919,1,191589,236285,1.13,-0.69,9.94,0.03,-0.07,0.02,26.83
51935163,1921,1,191471,237310,1.01,-0.93,10.59,0.00,-0.02,0.02,26.83
51975167,1921,1,191431,236253,0.87,-0.83,9.09,-0.02,-0.12,0.01,26.83
52015174,1909,1,191369,236919,0.84,-1.00,11.15,0.00,-0.02,0.02,26.83
52055167,1918,1,191258,236649,1.10,-0.99,8.92,-0.04,-0.08,0.01,26.83
52095173,1915,1,191340,236624,0.84,-0.81,11.33,-0.00,-0.06,0.02,26.83
52135176,1920,1,191298,237240,1.16,-0.92,11.13,-0.03,-0.05,0.01,26.83
52175190,1957,1,191370,237211,0.75,-0.63,10.74,-0.03,-0.01,0.02,26.83
52215176,1936,1,191294,237106,1.01,-1.64,10.80,-0.03,-0.04,0.02,26.83
52255176,1921,1,191211,237184,0.88,-1.42,10.09,-0.05,-0.08,0.02,26.83
52295175,1934,1,191319,236866,0.51,-1.85,9.50,-0.07,-0.02,0.03,26.83
52335176,1975,1,190638,236379,1.64,-0.95,8.65,-0.02,-0.10,0.02,26.83
52375193,1936,1,191260,236940,0.37,-1.49,10.12,-0.07,0.07,0.03,26.83
52415167,1901,1,190872,236648,1.39,-0.55,8.52,-0.01,-0.09,0.02,26.83
52455862,1888,1,191275,236767,0.90,-1.22,11.03,-0.07,0.02,0.02,26.77
52494164,1899,1,190774,236357,1.23,-0.90,8.32,-0.04,-0.09,0.02,26.77
52534176,1898,1,190765,235566,0.85,-1.45,9.12,-0.07,-0.02,0.02,26.77
52574176,1901,1,190000,233455,0.75,-1.01,9.15,-0.05,-0.01,0.02,26.77
52614176,1897,1,189616,232363,0.90,-1.65,9.90,-0.04,0.05,0.03,26.77
52654164,1886,1,189261,232474,0.73,-0.89,8.56,-0.04,-0.04,0.02,26.77
52694175,1840,1,189399,232005,1.07,-0.99,9.33,-0.04,-0.00,0.02,26.77
52734174,1871,1,189101,231407,0.69,-1.27,9.71,-0.04,0.04,0.02,26.77
52774167,1897,1,188679,232541,1.30,-0.51,9.61,-0.03,0.00,0.02,26.77
52814164,1872,1,189715,234374,0.89,-0.64,9.17,-0.01,0.05,0.02,26.77
52854167,1870,1,190550,236539,0.52,-1.41,10.23,-0.03,0.04,0.02,26.77
52894167,1882,1,191101,236863,0.19,-1.26,10.33,-0.05,0.08,0.02,26.77
52934168,1880,1,191275,238098,1.10,-0.88,10.75,0.01,-0.03,0.01,26.77
52974167,1892,1,191440,238132,1.06,-0.30,10.07,-0.04,0.02,0.01,26.77
53014167,1908,1,192054,239485,0.69,-1.17,13.19,-0.07,0.05,0.02,26.77
53054167,1949,1,191630,238045,1.27,-0.43,9.64,-0.03,-0.08,0.00,26.77
53094176,1895,1,191326,237531,0.38,-1.30,13.37,-0.11,0.04,0.02,26.77
53134167,1911,1,190300,234217,1.09,-0.68,8.35,-0.06,-0.02,0.01,26.77
53174175,1904,1,189290,233227,0.28,-1.26,11.33,-0.09,-0.04,0.01,26.77
53214173,1918,1,188937,232026,0.38,-1.50,9.23,-0.09,0.05,0.02,26.77
53254163,1938,1,188614,232746,0.92,-1.52,9.87,-0.03,-0.03,0.01,26.77
53294173,1875,1,189132,232852,0.29,-1.44,8.21,-0.07,-0.01,0.01,26.77
53334176,1860,1,189219,233130,0.31,-1.54,10.27,-0.06,-0.05,0.01,26.77
53374176,1890,1,189283,232072,0.97,-1.73,8.93,-0.04,-0.02,0.01,26.77
53414176,1895,1,189303,233174,0.27,-1.51,9.62,-0.01,-0.05,0.01,26.77
53454176,1915,1,189484,232882,0.81,-1.20,8.87,-0.03,0.00,0.01,26.77
53494854,1904,1,189437,232680,0.04,-1.87,9.23,0.00,0.01,0.01,26.55
53533144,1905,1,188973,232408,0.82,-1.06,8.13,-0.03,-0.04,0.00,26.55
53573176,1904,1,189217,233067,0.32,-1.65,9.62,-0.01,0.02,0.01,26.55
53613166,1906,1,189142,234480,1.45,-0.65,7.31,0.03,-0.03,-0.01,26.55
53653176,1904,1,190269,236203,0.22,-1.04,11.86,-0.04,0.06,0.01,26.55
53693167,1904,1,190892,237698,1.13,-0.57,8.86,0.04,-0.00,0.00,26.55
53733168,1894,1,191224,237533,0.37,-1.00,11.56,-0.05,-0.00,0.00,26.55
53773174,1901,1,191083,237468,0.76,-0.81,10.23,-0.01,0.03,0.01,26.55
53813168,1904,1,190833,236181,0.98,-1.07,10.78,-0.02,-0.03,0.00,26.55
53853176,1914,1,190469,236501,0.19,-1.15,10.43,-0.02,0.07,0.01,26.55
53893168,1901,1,190804,236711,0.01,-1.52,11.27,-0.06,0.00,0.01,26.55
53933167,1881,1,190834,237217,0.73,-1.12,10.53,0.00,-0.04,0.01,26.55
53973167,1888,1,191002,237158,0.43,-1.55,11.27,-0.09,-0.04,0.00,26.55
54013197,1898,1,190812,235964,0.44,-0.96,10.98,-0.05,-0.04,0.01,26.55
54053175,1920,1,190110,234554,0.75,-1.61,10.90,-0.05,-0.05,0.00,26.55
54093176,1923,1,190214,234637,0.08,-0.96,10.97,-0.07,-0.02,0.00,26.55
54133176,1915,1,190146,234571,0.09,-1.83,10.40,-0.07,-0.08,0.01,26.55
54173176,1916,1,189951,233884,0.90,-1.28,10.45,-0.07,-0.07,0.00,26.55
54213176,1911,1,189391,232746,0.06,-1.60,9.10,-0.06,-0.05,0.01,26.55
54254173,1922,1,188831,232560,0.65,-0.90,8.74,-0.08,-0.09,0.00,26.55
54294176,1929,1,188907,232469,0.36,-1.70,9.38,-0.08,0.05,0.01,26.55
54334163,1917,1,188751,232659,1.22,-0.84,8.09,-0.03,-0.09,0.00,26.55
54374173,1921,1,188877,232476,0.85,-0.86,9.76,-0.08,0.01,0.01,26.55
54414167,1922,1,188828,232890,0.78,-1.14,9.26,-0.05,0.01,0.00,26.55
54454167,1920,1,188777,232836,1.49,-1.01,9.34,-0.02,-0.00,0.00,26.55
54492174,1929,1,189805,236214,0.10,-1.53,10.41,-0.05,0.07,0.01,26.55
54532854,1908,1,190942,238129,1.10,-1.53,10.08,-0.00,0.00,0.01,26.67
54573163,1919,1,191836,239263,0.26,-2.07,10.87,-0.00,0.01,0.01,26.67
54613168,1904,1,192019,239541,0.45,-1.83,9.22,0.00,-0.02,0.00,26.67
54653163,1900,1,192064,239207,-0.00,-1.69,10.49,-0.00,-0.01,0.01,26.67
54693196,1908,1,191977,239921,0.92,-1.53,9.08,0.03,-0.01,0.01,26.67
54733164,1917,1,192317,239356,0.06,-1.34,10.14,-0.02,-0.03,0.00,26.67
54773176,1909,1,191792,238191,0.24,-1.07,9.65,0.01,-0.02,0.01,26.67
54813164,1920,1,191573,237661,0.81,-1.16,10.49,-0.02,-0.02,0.00,26.67
54853176,1921,1,191213,236875,0.64,-0.64,9.84,-0.00,-0.03,0.01,26.67
54893176,1909,1,190956,236853,0.25,-1.07,11.30,-0.04,0.01,0.01,26.67
54933167,1906,1,191000,236875,0.94,-1.02,10.57,-0.01,0.01,0.01,26.67
54973167,1904,1,190942,237014,0.44,-1.31,9.75,-0.04,-0.04,0.01,26.67
55013175,1904,1,191062,237224,0.46,-1.12,10.81,-0.06,-0.02,0.00,26.67
55053176,1895,1,190940,236784,0.67,-1.52,10.93,-0.04,0.01,0.01,26.67
55093167,1915,1,190362,235904,1.39,-0.92,8.63,-0.05,-0.12,-0.00,26.67
55133196,1922,1,190467,235707,0.16,-1.30,10.78,-0.08,0.01,0.00,26.67
55173163,1921,1,189885,234964,0.74,-0.99,8.32,-0.05,-0.10,0.01,26.67
55213176,1904,1,189873,234249,0.70,-1.78,10.48,-0.08,0.01,-0.00,26.67
55252176,1909,1,189299,233619,0.49,-1.08,8.13,-0.04,-0.06,0.00,26.67
55292174,1904,1,189165,233238,0.54,-1.16,9.21,-0.06,-0.03,0.01,26.67
55332176,1917,1,189471,235055,0.25,-1.81,8.33,-0.02,0.02,0.01,26.67
55372167,1905,1,190413,236447,0.55,-1.44,9.10,-0.02,-0.03,-0.00,26.67
55412196,1892,1,191103,238208,0.48,-1.05,9.61,-0.01,0.01,0.01,26.67
55452176,1891,1,191749,238965,0.60,-1.50,8.65,-0.01,0.01,0.01,26.67
55492168,1881,1,191465,237141,1.46,-0.96,9.73,0.03,-0.02,0.00,26.67
55532164,1907,1,190892,236172,0.76,-1.19,10.40,-0.01,0.05,0.00,26.67
55572854,1902,1,190682,235825,0.23,-0.89,9.18,0.02,0.01,0.01,26.65
55613144,1911,1,190523,235653,1.07,-1.38,10.88,-0.02,-0.03,0.00,26.65
55653194,1903,1,190677,236334,0.29,-1.35,11.31,0.00,0.04,0.01,26.65
55693145,1904,1,190659,235996,0.12,-1.19,10.43,-0.00,-0.03,0.01,26.65
55733175,1904,1,190902,237587,0.01,-1.52,11.52,-0.02,-0.01,0.01,26.65
55773176,1907,1,191479,238398,0.34,-1.57,11.20,-0.01,-0.04,0.01,26.65
55813176,1915,1,191590,238776,0.28,-1.22,10.87,-0.01,-0.07,0.01,26.65
55851176,1917,1,191579,238375,0.29,-1.54,10.92,-0.07,-0.05,0.01,26.65
55891175,1904,1,191029,237177,0.81,-0.99,10.51,-0.05,-0.10,0.00,26.65
55931175,1909,1,190540,236048,1.42,-0.75,10.07,-0.05,-0.08,-0.01,26.65
55971195,1936,1,190170,235089,0.79,-0.67,9.38,-0.08,-0.06,0.00,26.65
56011176,1910,1,189924,234515,1.09,-0.67,9.59,-0.08,-0.03,0.00,26.65
56051175,1906,1,189586,233876,1.51,-0.71,8.85,-0.06,-0.07,0.00,26.65
56091175,1910,1,189142,233495,1.14,-1.08,8.93,-0.06,-0.04,0.01,26.65
56131175,1926,1,189142,233683,0.51,-1.41,9.84,-0.07,0.00,0.02,26.65
56171166,1959,1,189415,235018,0.87,-1.41,10.38,-0.05,0.07,0.02,26.65
56211167,1843,1,189889,235393,0.72,-1.70,8.09,-0.03,-0.06,0.02,26.65
56251173,1866,1,189551,233516,0.94,-1.48,9.68,-0.04,-0.06,0.01,26.65
56292176,1889,1,189054,231828,0.34,-1.15,8.42,-0.02,0.03,0.03,26.65
56332166,1920,1,188101,231541,1.30,-0.69,8.51,-0.01,-0.02,0.05,26.65
56372175,1917,1,188525,231635,1.20,-1.01,9.13,-0.01,0.10,0.01,26.65
56412163,1904,1,188397,231947,1.02,-0.91,7.81,0.02,0.02,0.01,26.65
56452144,1874,1,188826,233166,1.04,-1.01,10.93,-0.05,0.07,0.01,26.65
56492167,1869,1,189365,234179,0.82,-0.80,9.16,0.01,0.04,0.01,26.65
56532145,1893,1,189731,235497,0.99,-1.30,10.59,-0.03,-0.00,0.01,26.65
56572176,1901,1,190475,236647,0.23,-1.06,10.96,-0.02,0.09,0.01,26.65
56612854,1904,1,190817,237650,0.25,-1.50,10.86,-0.02,-0.05,0.01,26.55
56651176,1903,1,191239,238419,0.30,-1.61,11.64,-0.05,0.04,0.01,26.55
56691167,1899,1,191339,238157,0.22,-1.48,10.80,-0.03,-0.03,0.01,26.55
56731176,1903,1,191152,237886,0.46,-1.18,11.60,-0.05,-0.05,0.01,26.55
56771175,1907,1,191036,237556,0.07,-1.24,10.31,-0.09,0.01,0.01,26.55
56811166,1933,1,190684,236234,0.74,-1.11,11.11,-0.07,-0.02,0.01,26.55
56851175,1913,1,189694,234215,0.97,-0.84,9.88,-0.06,0.01,0.01,26.55
56891166,1906,1,188616,231720,0.42,-1.29,8.89,-0.11,-0.02,0.00,26.55
56931175,1937,1,187454,229112,0.56,-0.91,9.49,-0.10,0.02,0.01,26.55
56971163,1941,1,186538,226711,0.23,-1.81,9.42,-0.09,0.06,0.01,26.55
57011167,1936,1,186072,227491,0.59,-1.63,9.73,-0.07,-0.03,0.01,26.55
57051176,1826,1,187745,231463,0.10,-1.69,10.56,-0.06,0.04,0.01,26.55
57091168,1841,1,189368,234420,-0.03,-1.72,9.56,-0.04,-0.01,0.01,26.55
57131196,1883,1,189922,235076,0.37,-1.53,9.28,-0.05,-0.06,0.01,26.55
57171176,1899,1,190082,234022,-0.21,-2.19,10.13,-0.01,0.03,0.01,26.55
57211176,1920,1,189091,232931,0.31,-1.48,9.55,-0.00,-0.04,0.00,26.55
57251175,1918,1,189276,233880,-0.22,-1.51,10.54,-0.02,0.03,0.01,26.55
57292173,1904,1,189896,235369,0.25,-1.40,9.88,-0.00,-0.04,0.01,26.55
57330175,1921,1,190294,236103,0.87,-1.28,12.05,-0.01,-0.03,-0.00,26.55
57370196,1920,1,190673,237144,0.41,-1.56,10.22,0.01,-0.00,0.01,26.55
57410168,1930,1,191088,237412,0.06,-1.54,10.50,-0.03,-0.06,-0.10,26.55
57450196,1915,1,191318,237939,0.11,-1.35,11.76,-0.03,-0.07,-0.00,26.55
57490210,1911,1,191137,236971,0.52,-1.79,10.24,-0.02,-0.06,-0.00,26.55
57530196,1911,1,190657,236022,0.47,-1.40,10.04,-0.02,-0.11,-0.00,26.55
57570196,1936,1,190191,235423,0.33,-1.24,10.17,-0.06,-0.06,-0.01,26.55
57610196,1936,1,190130,235342,0.14,-1.20,9.77,-0.02,-0.05,0.01,26.55
57650862,1922,1,190041,234961,0.83,-1.08,8.64,-0.03,-0.07,0.00,26.65
57691174,1897,1,189767,232309,0.60,-1.66,10.08,-0.02,-0.03,-0.00,26.65
57731196,1903,1,188691,230728,1.24,-1.29,9.04,-0.00,-0.06,-0.01,26.65
57771196,1919,1,188325,229801,0.22,-1.92,9.71,-0.04,0.00,0.00,26.65
57811167,1910,1,188035,229489,0.59,-1.57,8.39,-0.01,-0.04,0.00,26.65
57851174,1917,1,188385,230880,0.32,-1.73,9.79,-0.02,-0.04,0.01,26.65
57891176,1905,1,189298,233103,0.85,-1.43,8.82,0.01,-0.01,-0.00,26.65
57931176,1902,1,189693,233404,0.74,-1.22,7.99,0.00,-0.05,-0.01,26.65
57971176,1900,1,190130,234853,0.45,-0.91,9.04,-0.01,0.02,-0.01,26.65
58011174,1902,1,190510,235968,0.68,-0.67,9.68,-0.00,-0.00,-0.01,26.65
58051196,1909,1,191099,237608,1.07,-0.99,9.71,0.00,0.01,-0.00,26.65
58091163,1895,1,191791,238345,0.97,-1.44,10.36,-0.00,-0.00,-0.01,26.65
58131196,1905,1,191817,238262,0.48,-0.86,11.14,-0.01,-0.02,-0.00,26.65
58171191,1902,1,191866,238682,-0.16,-1.60,10.33,-0.03,0.03,0.00,26.65
58211173,1903,1,191959,238526,0.33,-1.53,10.89,-0.04,-0.06,-0.01,26.65
58251192,1911,1,191808,238689,0.47,-1.59,11.94,-0.04,-0.02,-0.00,26.65
58291195,1901,1,191679,238042,0.23,-1.38,10.48,-0.04,-0.03,-0.01,26.65
58331196,1930,1,190983,237274,0.25,-1.26,10.28,-0.06,-0.06,-0.00,26.65
58371196,1919,1,190818,236746,0.45,-1.03,10.68,-0.07,-0.01,-0.00,26.65
58411191,1930,1,190437,235437,1.14,-0.72,10.75,-0.05,-0.02,-0.00,26.65
58451196,1906,1,189441,232536,1.23,-1.24,9.32,-0.07,-0.07,-0.01,26.65
58491196,1899,1,188948,231916,0.79,-1.19,11.14,-0.09,-0.03,-0.01,26.65
58531195,1909,1,188719,231637,0.35,-1.00,9.84,-0.09,-0.04,-0.01,26.65
58571196,1905,1,188619,232042,0.24,-1.73,10.47,-0.09,0.01,-0.00,26.65
58611176,1895,1,188426,231615,0.80,-1.22,8.77,-0.06,-0.07,-0.01,26.65
58651882,1895,1,188605,232373,0.45,-1.46,9.38,-0.06,-0.02,-0.01,26.49
58690196,1899,1,188643,232867,0.52,-1.37,8.06,-0.05,-0.03,-0.01,26.49
58730195,1893,1,189296,233891,-0.04,-1.60,8.71,-0.04,0.02,-0.01,26.49
58770196,1886,1,189844,236024,0.74,-1.30,9.02,-0.02,-0.04,-0.01,26.49
58810193,1891,1,190727,237469,0.70,-1.45,10.37,0.01,0.01,-0.01,26.49
58850167,1904,1,191411,238873,0.11,-1.85,9.21,0.03,0.02,-0.00,26.49
58890167,1899,1,191948,239857,0.63,-1.64,10.30,-0.01,-0.04,-0.01,26.49
58930209,1904,1,192585,240704,-0.41,-1.84,10.92,0.02,0.02,0.00,26.49
58970166,1907,1,192712,241789,0.80,-1.54,10.06,0.04,-0.08,-0.00,26.49
59010176,1920,1,193437,242635,0.35,-1.29,10.63,0.02,-0.02,-0.01,26.49
59050176,1921,1,193517,243040,0.46,-1.13,9.78,0.01,-0.08,-0.01,26.49
59090176,1915,1,193780,243158,0.22,-1.04,11.00,-0.01,-0.02,-0.01,26.49
59130196,1903,1,193336,241261,0.46,-0.77,10.42,0.01,-0.07,-0.01,26.49
59170176,1909,1,192661,240616,1.12,-0.79,11.60,-0.02,-0.07,-0.01,26.49
59210196,1920,1,192595,240382,0.88,-0.89,11.64,-0.03,-0.04,-0.02,26.49
59250196,1923,1,192395,239801,0.29,-1.41,10.30,-0.03,-0.08,-0.02,26.49
59290196,1906,1,192043,238852,0.19,-1.35,10.57,-0.07,-0.09,-0.01,26.49
59330196,1915,1,191478,237274,0.25,-1.55,10.37,-0.05,-0.07,-0.01,26.49
59370196,1914,1,190720,236465,0.91,-1.39,9.49,-0.03,-0.09,-0.02,26.49
59410196,1915,1,190486,235564,0.69,-1.09,8.92,-0.04,-0.06,-0.02,26.49
59450196,1909,1,190259,235321,0.49,-1.22,9.13,-0.02,-0.04,-0.02,26.49
59490196,1895,1,190379,235646,0.68,-1.25,8.58,-0.04,-0.05,-0.02,26.49
59530196,1893,1,190538,235964,0.95,-1.08,8.53,-0.01,-0.03,-0.02,26.49
59570196,1874,1,190840,236932,1.62,-0.96,9.76,-0.00,-0.01,-0.02,26.49
59610196,1904,1,191023,237251,1.26,-1.06,8.76,-0.01,-0.03,-0.02,26.49
59650196,1911,1,190986,237080,0.55,-1.37,8.07,-0.02,0.01,-0.02,26.49
59690860,1901,1,190997,237307,0.60,-1.47,8.91,-0.04,-0.01,-0.02,26.59
59729196,1905,1,190905,236953,0.89,-0.64,9.50,-0.00,0.00,-0.01,26.59
59769174,1901,1,190643,236796,1.27,-0.72,9.73,0.00,0.02,-0.02,26.59
59809167,1904,1,190498,234922,0.74,-0.82,9.04,-0.00,0.05,-0.02,26.59
59849174,1897,1,190238,234568,0.36,-0.76,10.29,-0.02,0.04,-0.01,26.59
59889176,1879,1,190197,235198,0.57,-1.19,11.11,-0.03,0.07,-0.01,26.59
59929176,1904,1,190243,234390,0.78,-1.15,9.88,-0.01,0.03,-0.01,26.59
59969176,1904,1,189748,234737,0.89,-1.29,11.32,-0.02,0.01,-0.01,26.59
60009176,1921,1,190116,235080,0.28,-1.26,11.47,-0.05,0.08,-0.01,26.59
60049175,1920,1,190258,236150,-0.09,-1.71,9.74,-0.03,0.01,-0.01,26.59
60089196,1900,1,190602,236470,0.52,-1.52,10.48,-0.07,-0.01,-0.01,26.59
60129213,1897,1,190429,235948,0.68,-0.93,10.43,-0.06,-0.04,-0.02,26.59
60169215,1902,1,190146,235501,0.88,-0.67,9.35,-0.05,0.02,-0.02,26.59
60209175,1925,1,190063,234803,0.50,-0.96,9.87,-0.08,0.02,-0.02,26.59
60249173,1913,1,189500,233471,0.63,-0.66,9.57,-0.07,0.01,-0.01,26.59
60289175,1914,1,189022,232181,0.69,-1.33,10.36,-0.08,0.05,-0.01,26.59
60329176,1919,1,188054,230310,0.97,-1.46,8.79,-0.04,-0.03,-0.02,26.59
60368198,1904,1,187535,229268,0.26,-1.54,10.00,-0.06,0.04,-0.02,26.59
60408176,1914,1,187565,231293,-0.15,-1.70,9.17,-0.05,0.03,-0.01,26.59
60448196,1905,1,188614,232541,0.06,-1.69,8.14,-0.03,-0.03,-0.01,26.59
60488196,1890,1,189486,235234,0.32,-1.86,10.27,-0.01,-0.00,-0.00,26.59
60528196,1877,1,190103,234159,0.20,-1.61,8.73,0.02,-0.01,-0.01,26.59
60568195,1871,1,189873,235087,0.41,-0.98,10.26,0.03,-0.01,-0.01,26.59
60608176,1897,1,190564,236592,0.26,-1.51,8.93,-0.01,0.05,-0.01,26.59
60648176,1894,1,191368,238009,0.03,-1.51,10.39,0.03,0.01,-0.01,26.59
60688168,1901,1,191554,238892,1.03,-1.59,11.06,0.01,-0.03,-0.04,26.59
60728863,1907,1,192165,239674,0.10,-1.65,10.98,0.03,-0.02,-0.11,26.59
60769176,1905,1,192173,240252,0.76,-1.40,10.00,0.01,-0.09,-0.04,26.59
60809174,1925,1,192496,239951,-0.50,-1.21,11.63,-0.03,-0.01,-0.02,26.59
60849213,1936,1,192084,239846,0.36,-0.96,9.27,-0.00,-0.09,-0.02,26.59
60889193,1907,1,192253,239502,0.54,-1.36,11.85,-0.04,-0.04,-0.02,26.59
60929196,1935,1,191873,238789,0.82,-0.59,10.33,0.01,-0.07,-0.03,26.59
60969176,1917,1,191400,237956,0.66,-0.88,11.59,-0.04,-0.06,-0.03,26.59
61009196,1920,1,191292,237658,0.16,-1.20,9.95,-0.04,-0.02,-0.02,26.59
61049196,1937,1,191074,236918,0.13,-1.54,10.40,-0.06,-0.08,-0.02,26.59
61089196,1918,1,190700,236638,0.43,-1.77,11.22,-0.04,-0.06,-0.02,26.59
61129196,1910,1,190487,236029,0.55,-1.57,8.98,-0.01,-0.08,-0.02,26.59
61169196,1904,1,190052,235549,0.71,-1.24,9.19,-0.03,-0.08,-0.02,26.59
61209192,1904,1,189913,234912,0.65,-1.30,9.07,-0.04,-0.02,-0.02,26.59
61249196,1923,1,189604,233527,0.45,-1.19,8.07,-0.02,-0.01,-0.01,26.59
61289196,1898,1,189032,232257,1.03,-1.19,9.28,-0.03,-0.03,-0.02,26.59
61329196,1902,1,188799,231471,1.07,-1.00,9.97,0.01,0.01,-0.02,26.59
61369164,1899,1,187881,230361,1.84,-1.03,9.13,0.00,-0.05,-0.03,26.59
61409176,1900,1,187674,229480,0.64,-1.48,8.80,-0.02,0.05,-0.02,26.59
61449176,1918,1,187156,228673,0.32,-1.29,8.23,-0.03,-0.03,-0.02,26.59
61489196,1904,1,186851,227993,0.57,-1.34,10.14,-0.04,-0.00,-0.02,26.59
61529192,1898,1,186558,227822,0.88,-0.72,9.07,0.03,0.04,-0.02,26.59
61569163,1901,1,186288,227656,1.49,-0.56,8.99,0.01,-0.03,-0.02,26.59
61609173,1900,1,186868,229352,0.88,-0.68,10.61,-0.01,0.08,-0.02,26.59
61647175,1936,1,187263,229071,0.61,-0.80,9.22,-0.01,-0.00,-0.01,26.59
