timestamp_us,ecg,leads,ir,red,accX,accY,accZ,gyroX,gyroY,gyroZ,temp
1918490,1765,1,197823,244398,0.00,0.00,0.00,0.00,0.00,0.00,0.00
1948961,1495,1,197592,244021,0.16,-0.84,9.56,-0.07,0.04,-0.11,25.67
1989180,1314,1,197696,243878,0.08,-1.03,11.02,0.01,-0.06,-0.01,25.67
2029175,1221,1,197827,243915,0.82,-1.00,9.53,-0.11,-0.07,-0.02,25.67
2069200,1163,1,198854,244312,0.57,-1.82,10.04,-0.05,-0.07,-0.01,25.67
2109192,1182,1,198831,243993,1.04,-0.58,8.73,-0.12,0.09,-0.02,25.67
2149174,1256,1,199216,244434,-0.18,-1.80,9.71,0.00,0.03,-0.01,25.67
2189172,1273,1,199103,243807,0.54,-1.64,10.34,-0.03,0.02,-0.01,25.67
2229174,1325,1,199124,243529,-0.29,-2.19,10.65,0.01,-0.00,0.00,25.67
2269172,1422,1,199001,243640,0.52,-1.27,10.16,-0.04,-0.04,-0.01,25.67
2309195,1492,1,198840,243452,0.06,-1.91,9.84,-0.06,-0.03,-0.01,25.67
2349192,1622,1,198551,242952,0.70,-1.09,10.42,-0.01,-0.06,-0.00,25.67
2389195,1680,1,198283,243424,0.50,-1.49,10.16,-0.04,-0.03,-0.00,25.67
2429191,1777,1,198486,244851,0.23,-1.37,9.93,-0.05,-0.06,-0.01,25.67
2469195,1830,1,198437,244407,-0.29,-1.02,9.41,-0.05,0.09,-0.00,25.67
2509191,1887,1,198041,244129,-0.06,-1.20,10.45,0.00,-0.07,0.02,25.67
2549175,1904,1,197969,244161,-0.17,-1.16,9.89,-0.02,-0.04,0.06,25.67
2587195,1955,1,198023,245247,0.13,-2.28,10.07,-0.04,-0.02,-0.01,25.67
2627195,1971,1,198526,246089,-0.13,-1.78,9.83,-0.04,0.04,-0.00,25.67
2667192,1997,1,198469,246752,0.05,-1.90,9.03,-0.07,0.00,-0.00,25.67
2707175,2022,1,198884,246816,0.16,-1.71,10.37,-0.01,0.01,0.01,25.67
2747166,2064,1,198091,245806,0.74,-1.63,9.51,-0.06,-0.00,0.02,25.67
2787195,2070,1,197998,245466,-0.02,-1.54,9.67,0.00,0.02,-0.00,25.67
2827172,2080,1,197511,243785,0.53,-1.17,9.82,-0.04,0.07,-0.01,25.67
2867175,2117,1,196946,242528,0.42,-1.34,10.78,0.01,0.02,-0.01,25.67
2907165,2150,1,196632,242875,0.60,-1.03,10.38,-0.04,-0.05,-0.01,25.67
2947195,2155,1,196887,243305,0.19,-1.48,9.91,-0.02,-0.03,-0.01,25.67
2988879,2123,1,196847,243037,0.35,-1.08,10.10,-0.04,-0.02,-0.01,25.97
3027236,2094,1,196419,241969,0.24,-0.96,9.54,-0.06,-0.01,-0.04,25.97
3067192,2038,1,196094,241986,0.11,-1.28,9.94,-0.03,-0.00,-0.01,25.97
3107195,2047,1,195971,241608,0.71,-1.40,9.16,-0.07,-0.00,-0.02,25.97
3147191,2021,1,195907,241936,0.56,-1.36,9.86,-0.02,-0.07,-0.01,25.97
3187218,2000,1,196212,242442,0.72,-1.18,9.59,-0.04,-0.01,-0.05,25.97
3227192,2032,1,196237,242213,0.75,-0.96,9.69,-0.06,-0.05,-0.03,25.97
3267195,2019,1,196132,242028,0.56,-1.29,9.81,-0.00,-0.09,-0.01,25.97
3307192,2031,1,196013,241668,0.81,-1.53,9.21,-0.07,-0.02,-0.01,25.97
3347195,1987,1,195976,241546,0.13,-1.20,9.52,-0.01,-0.04,-0.01,25.97
3387192,1940,1,196080,241913,0.35,-1.18,9.86,-0.04,-0.02,-0.01,25.97
3427195,1939,1,196282,242248,0.25,-1.40,10.34,-0.04,-0.01,-0.03,25.97
3467192,1947,1,196362,241925,0.22,-1.94,9.50,-0.02,-0.08,-0.01,25.97
3507195,1951,1,196084,240504,0.64,-1.55,10.50,0.00,-0.02,-0.01,25.97
3547172,1934,1,195776,240091,0.26,-1.53,9.74,-0.03,0.04,-0.01,25.97
3587175,1936,1,195798,240347,0.60,-1.41,10.89,-0.00,-0.03,-0.01,25.97
3627192,1917,1,195653,239642,0.21,-1.08,10.23,-0.01,-0.02,-0.01,25.97
3667195,1929,1,195302,239132,0.18,-2.04,9.40,-0.04,-0.03,-0.01,25.97
3707192,1893,1,195545,239919,-0.01,-1.08,10.00,-0.03,0.02,-0.01,25.97
3747195,1882,1,195573,239890,0.11,-1.75,9.42,-0.08,0.03,-0.04,25.97
3787172,1882,1,195567,240213,0.24,-1.93,10.08,-0.02,0.00,-0.00,25.97
3827175,1872,1,195666,240264,0.72,-1.42,9.11,-0.04,-0.04,-0.01,25.97
3867192,1878,1,195729,241118,0.61,-1.04,9.58,-0.06,0.05,-0.01,25.97
3907175,1839,1,196224,241755,0.29,-1.81,9.40,-0.03,0.09,0.00,25.97
3947161,1812,1,196197,242149,0.63,0.15,10.87,0.00,0.00,-0.02,25.97
3987144,1797,1,196523,242788,0.07,-0.95,10.35,-0.02,-0.01,-0.01,25.97
4026958,1851,1,196685,243321,0.43,-1.04,9.21,-0.08,-0.03,-0.03,26.03
4067195,1792,1,197030,243369,0.46,-2.06,10.19,-0.03,0.07,-0.01,26.03
4107175,1876,1,195993,240054,1.34,-1.43,8.33,-0.11,-0.09,-0.02,26.03
4147195,1859,1,195584,239688,0.90,-1.24,10.26,-0.01,-0.02,-0.00,26.03
4187191,1904,1,195162,239173,0.81,-0.19,9.23,-0.08,-0.06,-0.02,26.03
4227195,1872,1,195438,240049,1.00,-0.84,10.65,-0.02,-0.04,-0.03,26.03
4267192,1885,1,195790,241436,0.21,-1.22,9.73,-0.04,0.00,0.00,26.03
4307166,1904,1,196088,240859,0.35,-1.54,9.38,-0.06,-0.02,0.00,26.03
4347172,1902,1,195669,240169,0.37,-1.24,9.75,-0.01,-0.05,0.08,26.03
4387174,1895,1,195622,240118,0.67,-1.55,9.57,-0.04,0.00,0.01,26.03
4427162,1889,1,195747,241214,0.64,-1.69,9.89,-0.02,0.09,-0.11,26.03
4467174,1872,1,195966,241017,0.57,-1.93,10.42,0.04,0.01,-0.05,26.03
4507163,1863,1,196072,242645,0.32,-0.97,10.40,0.02,-0.08,0.00,26.03
4547165,1855,1,196771,243116,0.06,-1.82,10.90,0.01,-0.03,-0.07,26.03
4587172,1932,1,196717,244139,0.20,-1.94,9.96,-0.01,-0.06,-0.01,26.03
4627200,1898,1,196997,243208,0.11,-2.05,10.49,0.03,0.01,-0.10,26.03
4667162,1913,1,196266,242778,0.57,-1.42,10.81,0.03,-0.14,-0.01,26.03
4707175,1899,1,196457,241416,-0.39,-1.64,10.36,-0.04,0.06,0.00,26.03
4747175,1919,1,195414,238895,0.35,-0.40,10.19,0.04,-0.07,-0.10,26.03
4787175,1893,1,195546,240054,0.08,-1.43,10.60,-0.03,0.04,0.01,26.03
4827172,1905,1,195607,240485,0.81,-0.62,9.37,-0.07,-0.07,-0.01,26.03
4867195,1856,1,196127,241077,1.01,-1.21,10.29,-0.03,-0.05,0.00,26.03
4907172,1867,1,196018,240378,0.17,-1.19,7.95,-0.10,-0.07,0.04,26.03
4947174,1859,1,196253,241096,1.19,-0.27,10.48,-0.02,-0.05,0.02,26.03
4987175,1875,1,196277,241080,0.54,-1.09,8.98,-0.06,0.03,-0.08,26.03
5027864,1850,1,196515,240648,0.52,-1.44,9.77,0.01,-0.02,-0.00,25.61
5066172,1851,1,196613,242049,0.64,-1.58,9.86,0.02,-0.07,0.00,25.61
5106166,1865,1,197080,243161,1.02,-1.42,9.63,-0.09,-0.02,-0.04,25.61
5146192,1899,1,197606,244601,0.57,-1.53,10.66,0.03,-0.03,-0.00,25.61
5186174,1919,1,197399,243897,1.34,-0.73,9.33,-0.07,-0.09,-0.01,25.61
5226192,1916,1,197537,244711,0.21,-1.61,9.75,0.00,-0.02,0.03,25.61
5266166,1899,1,197378,243367,0.86,-0.08,9.00,-0.05,-0.00,-0.01,25.61
5306191,1873,1,197064,243105,0.14,-1.13,10.03,-0.01,0.03,0.01,25.61
5346166,1927,1,196782,241689,1.06,-0.88,9.54,-0.06,0.02,-0.14,25.61
5386172,1917,1,196604,242357,0.32,-1.48,9.99,0.02,0.05,0.01,25.61
5426144,1936,1,196605,242093,0.66,-0.60,9.93,-0.02,-0.04,0.02,25.61
5466172,1875,1,196733,242813,0.16,-1.06,9.35,-0.05,0.07,0.00,25.61
5506170,1890,1,196625,241901,0.43,-1.35,9.49,-0.06,0.03,-0.00,25.61
5546172,1909,1,196064,242242,0.88,-1.40,8.99,-0.06,-0.00,0.02,25.61
5586175,1899,1,196592,243231,0.57,-1.36,11.19,-0.03,0.07,0.01,25.61
5626166,1887,1,196644,243549,0.11,-1.28,10.35,-0.12,0.02,0.04,25.61
5666166,1863,1,196814,243820,0.37,-1.34,10.77,-0.05,-0.10,0.01,25.61
5706175,1904,1,196528,242715,1.00,-0.69,8.86,-0.14,-0.10,0.02,25.61
5746175,1900,1,196344,242723,0.33,-2.15,10.01,-0.10,0.02,0.14,25.61
5786166,1897,1,196649,242386,0.78,-1.38,10.31,-0.06,0.03,-0.01,25.61
5826175,1849,1,196873,243946,-0.17,-1.51,10.17,-0.05,0.01,-0.04,25.61
5866195,1857,1,197406,243353,-0.26,-1.01,10.45,-0.04,0.05,-0.02,25.61
5906195,1871,1,196772,242280,-0.11,-1.65,9.83,-0.05,-0.09,-0.01,25.61
5946208,1885,1,196522,239160,0.21,-1.91,8.91,-0.08,0.05,-0.01,25.61
5986175,1883,1,195366,238439,0.14,-1.06,9.37,-0.04,0.02,-0.01,25.61
6026179,1898,1,195865,239056,-0.21,-1.97,9.76,-0.04,0.12,-0.00,25.61
6066881,1888,1,195337,238986,0.60,-1.27,9.93,-0.04,-0.01,-0.02,25.73
6105192,1845,1,195825,241210,0.11,-2.30,10.56,-0.02,0.03,-0.00,25.73
6145175,1851,1,196098,242274,0.55,-0.84,8.58,-0.05,-0.02,-0.05,25.73
6185191,1814,1,196541,243187,0.52,-1.64,11.55,0.02,0.01,-0.07,25.73
6225167,1867,1,196279,242627,-0.02,-0.87,9.12,-0.04,-0.05,-0.01,25.73
6265208,1832,1,196183,242417,0.10,-1.74,10.79,-0.01,-0.00,-0.01,25.73
6305195,1860,1,195817,241485,0.28,-1.42,9.29,-0.02,-0.08,-0.00,25.73
6345192,1853,1,195926,242900,0.46,-1.44,10.86,-0.02,-0.05,0.00,25.73
6385175,1861,1,196600,243537,-0.59,-1.49,10.69,0.01,0.00,-0.00,25.73
6425172,1894,1,196498,243874,0.55,-1.20,10.92,0.01,-0.12,-0.01,25.73
6465175,1879,1,196779,243591,-0.48,-1.56,9.93,-0.01,-0.01,-0.01,25.73
6505208,1879,1,196489,243698,0.65,-2.16,9.92,-0.03,-0.05,-0.02,25.73
6545195,1885,1,196681,242325,-0.01,-1.95,9.87,-0.00,0.05,-0.04,25.73
6585192,1893,1,195637,240334,0.45,-0.61,9.76,0.02,-0.09,-0.02,25.73
6625175,1873,1,195958,241897,0.08,-1.54,10.69,0.00,0.01,-0.04,25.73
6665162,1920,1,195955,242810,1.05,-1.17,9.08,-0.03,-0.09,-0.03,25.73
6705195,1877,1,196596,243326,0.97,-0.77,9.86,0.02,-0.02,-0.19,25.73
6745172,1934,1,196438,242858,0.57,-0.73,9.25,-0.01,-0.06,-0.05,25.73
6785195,1892,1,196231,241867,0.52,-0.64,10.77,0.02,-0.02,-0.03,25.73
6825172,1871,1,195719,241313,0.76,-1.43,9.29,0.01,-0.09,-0.01,25.73
6865175,1863,1,195771,242114,0.83,-0.96,9.89,-0.02,-0.03,-0.02,25.73
6905192,1871,1,196069,242586,0.16,-2.21,9.54,-0.01,-0.00,-0.01,25.73
6945195,1907,1,195950,242421,0.71,-0.87,9.86,-0.00,-0.10,-0.01,25.73
6985191,1887,1,195762,241684,0.07,-1.42,9.45,0.02,-0.08,0.01,25.73
7025179,1946,1,195620,241821,0.63,-1.25,9.84,0.01,-0.02,-0.02,25.73
7065172,1899,1,195849,241852,0.04,-1.81,10.39,-0.01,0.06,0.00,25.73
7104852,1910,1,195778,242890,0.63,-1.38,9.39,-0.01,-0.07,-0.03,25.63
7145195,1905,1,196360,243388,0.29,-1.19,9.96,-0.05,-0.00,-0.01,25.63
7185195,1955,1,196207,243439,1.27,-1.14,9.03,-0.05,-0.04,-0.02,25.63
7225192,1926,1,196568,243055,0.60,-0.16,11.00,-0.01,0.03,-0.01,25.63
7265175,1936,1,196219,242507,0.81,-0.46,10.17,-0.02,-0.03,-0.01,25.63
7305195,1913,1,196007,241520,0.85,-0.74,10.43,-0.08,-0.00,-0.01,25.63
7345195,1952,1,195471,240449,0.91,-1.66,10.05,-0.02,-0.04,0.00,25.63
7385172,1938,1,195510,240344,0.62,-0.40,9.97,-0.04,-0.04,-0.01,25.63
7425195,1910,1,195479,240980,0.56,-0.62,10.94,-0.01,0.03,-0.03,25.63
7465175,1930,1,195843,241118,0.49,-0.92,9.90,-0.04,0.01,0.01,25.63
7505166,1898,1,195551,240510,0.88,-1.71,9.69,-0.02,-0.09,0.11,25.63
7545175,1892,1,195603,240447,0.86,-1.17,9.73,-0.04,0.03,0.09,25.63
7585166,1894,1,195639,239916,0.73,-0.91,8.94,-0.07,-0.03,0.09,25.63
7625172,1909,1,195529,239632,0.83,-0.72,8.68,-0.06,0.03,0.04,25.63
7665166,1920,1,195662,239970,1.61,-1.06,9.93,-0.03,-0.02,0.02,25.63
7705172,1931,1,195709,240327,0.57,-0.74,8.92,-0.07,0.03,-0.00,25.63
7745175,1931,1,195946,241857,0.67,-1.30,9.60,-0.00,-0.02,0.01,25.63
7785172,1912,1,196389,243151,1.16,-1.21,10.71,-0.04,0.01,0.01,25.63
7825166,1919,1,196617,243701,0.36,-1.31,10.06,-0.06,-0.02,0.04,25.63
7865175,1920,1,196771,243507,0.97,-1.47,10.23,-0.03,-0.09,0.07,25.63
7905226,1913,1,196693,243471,0.49,-1.12,10.74,-0.01,0.05,-0.01,25.63
7945175,1923,1,196700,243212,1.01,-0.91,10.38,-0.05,0.02,0.01,25.63
7985166,1918,1,196530,242198,0.17,-1.07,10.54,-0.04,0.01,0.01,25.63
8025179,1938,1,196244,241538,0.34,-0.91,9.32,-0.05,-0.05,0.11,25.63
8063175,1929,1,196049,240390,0.48,-0.57,9.61,-0.08,0.06,-0.00,25.63
8103172,1921,1,195898,242027,0.98,-1.11,10.03,-0.03,0.02,-0.02,25.63
8143861,1907,1,196229,240874,0.40,-0.80,9.56,-0.09,0.08,-0.00,25.43
8184172,1911,1,195718,240143,0.46,-1.06,9.59,0.00,-0.13,0.02,25.43
8224166,1904,1,195630,239234,1.18,-0.90,8.98,-0.04,-0.01,0.04,25.43
8264172,1866,1,195661,241695,0.76,-1.63,10.53,0.04,0.08,-0.07,25.43
8304166,1867,1,196209,242431,1.24,-1.00,10.35,-0.02,0.02,-0.18,25.43
8344175,1842,1,196267,243631,-0.02,-1.64,10.13,-0.02,-0.07,0.03,25.43
8384195,1850,1,196811,244117,0.76,-1.00,9.96,-0.03,-0.06,0.00,25.43
8424172,1871,1,196882,244805,0.38,-1.26,10.55,-0.02,-0.03,0.01,25.43
8464175,1919,1,196920,244382,0.54,-1.00,10.09,-0.08,0.01,-0.01,25.43
8504172,1905,1,196517,242620,0.67,-0.98,9.45,-0.06,-0.01,-0.00,25.43
8544195,1925,1,195699,239308,0.87,-1.04,10.41,-0.03,-0.06,-0.01,25.43
8584195,1924,1,194862,238316,0.82,-0.04,10.07,-0.05,-0.08,-0.02,25.43
8624195,1920,1,195033,240068,0.55,-1.96,9.90,-0.06,0.02,-0.00,25.43
8664172,1933,1,195353,239447,0.71,-0.81,9.82,-0.07,-0.02,-0.01,25.43
8704195,1909,1,195372,239292,0.01,-1.68,9.58,0.01,-0.10,0.04,25.43
8744163,1913,1,195200,238561,0.57,-1.32,8.63,-0.07,-0.04,0.01,25.43
8784174,1890,1,194812,238157,1.20,-1.12,9.97,0.04,0.05,-0.02,25.43
8824163,1907,1,194108,236407,0.67,0.23,7.90,-0.05,0.00,-0.01,25.43
8864166,1860,1,193654,236775,0.68,-1.56,9.61,0.06,0.13,-0.00,25.43
8904163,1876,1,193327,236270,1.19,-0.97,7.52,-0.08,-0.02,-0.02,25.43
8944195,1807,1,193460,237367,0.65,-0.81,9.63,0.06,0.09,-0.03,25.43
8984162,1857,1,193331,237346,0.68,-1.10,8.03,-0.05,-0.07,-0.00,25.43
9024210,1839,1,193470,237544,0.69,-1.63,9.81,0.03,0.05,0.01,25.43
9064143,1859,1,193160,236367,0.46,-0.47,9.63,0.06,-0.09,0.05,25.43
9104166,1839,1,192839,236356,0.16,-1.71,9.74,0.01,-0.03,0.08,25.43
9143850,1842,1,193243,236031,0.17,-1.64,10.06,-0.05,-0.00,0.07,25.91
9184175,1907,1,193384,235636,0.16,-1.30,9.93,-0.03,0.03,0.18,25.91
9224163,1836,1,194041,235377,0.44,-1.31,10.59,-0.00,-0.01,0.15,25.91
9264175,1881,1,194646,236731,0.05,-0.91,9.77,-0.07,0.04,0.03,25.91
9304162,1863,1,196074,239181,0.68,-0.86,11.37,-0.03,0.06,0.02,25.91
9344166,1869,1,197116,242931,0.83,-0.50,11.74,-0.03,-0.01,-0.03,25.91
9384192,1840,1,198086,244417,0.49,-1.08,11.79,-0.09,0.01,-0.01,25.91
9422175,1878,1,198021,244193,0.95,-1.05,10.04,-0.18,-0.04,-0.01,25.91
9462192,1887,1,198162,244091,0.68,-1.59,12.19,-0.01,-0.02,0.03,25.91
9502175,1901,1,197769,242364,0.57,-0.23,8.33,-0.20,-0.09,0.00,25.91
9542174,1878,1,198092,243242,0.99,-1.53,11.01,0.06,-0.07,-0.04,25.91
9582175,1958,1,198291,241593,0.97,-0.47,7.30,-0.19,-0.06,0.02,25.91
9622172,1838,1,198197,243133,1.13,-0.87,11.77,0.37,-0.44,-0.07,25.91
9662175,1895,1,198422,242224,0.85,-0.60,8.03,-0.20,0.06,0.10,25.91
9702162,1869,1,198200,242508,0.41,-1.30,9.81,-0.01,-0.01,0.03,25.91
9742178,1901,1,198280,242515,0.19,-0.74,7.18,-0.05,-0.07,0.23,25.91
9782172,1872,1,198499,243891,2.05,-1.02,10.99,0.17,-0.05,0.10,25.91
9822166,1877,1,198491,244094,1.30,-0.70,8.82,-0.14,0.06,0.01,25.91
9862163,1904,1,198276,245051,-0.37,-1.62,10.62,0.14,0.09,-0.03,25.91
9902175,1904,1,198200,244605,0.93,-0.90,9.88,-0.03,-0.01,0.02,25.91
9942172,1883,1,197745,244475,0.00,-1.51,10.96,0.05,0.04,-0.01,25.91
9982166,1893,1,197411,243482,0.78,-0.39,9.28,-0.02,-0.04,0.03,25.91
10022179,1889,1,196993,244128,0.54,-1.18,10.46,-0.01,0.05,-0.00,25.91
10062175,1904,1,197144,244443,0.82,-0.54,10.10,0.00,0.03,0.03,25.91
10102144,1856,1,197251,245250,0.53,-0.89,11.53,-0.03,0.04,-0.07,25.91
10142174,1856,1,197614,246028,0.67,-1.75,11.18,-0.07,0.01,0.03,25.91
10182852,1850,1,198214,246258,-0.18,-1.49,10.87,-0.05,-0.01,0.04,25.67
10223195,1847,1,198586,246192,0.82,-1.78,10.84,-0.02,-0.12,0.06,25.67
10263175,1839,1,198986,245605,0.73,-0.79,9.86,-0.11,0.00,0.02,25.67
10303166,1815,1,198997,245427,-0.10,-1.13,9.95,-0.02,0.00,0.02,25.67
10343172,1829,1,199158,245378,0.95,-0.66,10.32,-0.05,0.02,-0.06,25.67
10383175,1850,1,199375,246540,0.29,-1.74,11.54,0.00,0.01,-0.05,25.67
10423166,1856,1,199829,246592,0.60,-0.77,8.55,-0.12,-0.04,-0.04,25.67
10463195,1861,1,200245,247893,0.54,-2.72,10.93,-0.02,-0.10,-0.11,25.67
10503195,1877,1,200424,246808,0.34,-0.94,7.74,-0.14,0.01,0.03,25.67
10543166,1861,1,200372,247139,-0.04,-1.99,10.84,0.09,-0.08,-0.07,25.67
10583195,1872,1,199825,244601,0.34,-0.56,9.18,-0.06,0.04,0.01,25.67
10623167,1863,1,198916,244521,-0.17,-1.61,10.77,0.01,0.10,-0.09,25.67
10663175,1872,1,198546,244865,0.72,-0.64,9.94,-0.06,-0.02,0.06,25.67
10703175,1872,1,198816,247073,-0.01,-1.65,11.49,-0.00,-0.04,-0.05,25.67
10743208,1942,1,198924,247304,0.79,-1.24,8.58,-0.14,-0.05,-0.01,25.67
10783195,1979,1,198487,247762,0.07,-1.84,10.87,-0.00,-0.07,-0.11,25.67
10823194,1958,1,198442,245920,0.76,-1.03,8.97,-0.10,0.07,0.10,25.67
10863166,1940,1,197829,244298,0.16,-1.18,9.72,0.05,-0.10,0.01,25.67
10903166,1957,1,197495,242394,0.72,-1.65,8.30,-0.03,-0.03,0.05,25.67
10941174,2062,1,196357,240636,-0.19,-0.45,7.36,-0.09,0.11,-0.17,25.67
10981195,1921,1,195653,240652,1.40,-0.39,8.90,-0.02,-0.03,-0.00,25.67
11021194,1979,1,195344,241532,0.92,-0.90,7.17,-0.06,0.09,0.00,25.67
11061163,1856,1,196127,243225,1.38,-0.23,10.72,0.12,-0.04,0.06,25.67
11101167,1871,1,196402,243476,-0.02,-0.43,9.26,0.02,-0.02,0.09,25.67
11141172,1917,1,196229,244071,0.49,-1.30,11.99,0.06,-0.05,0.02,25.67
11181201,1973,1,195975,243468,0.10,-1.07,9.23,-0.02,0.06,-0.00,25.67
11221859,1930,1,195576,243830,0.89,-2.62,10.91,0.06,-0.09,0.02,25.49
11262167,1909,1,195407,242480,0.57,0.31,9.56,-0.04,-0.01,-0.06,25.49
11302175,1882,1,195537,243830,0.53,-1.54,11.15,-0.00,-0.04,-0.09,25.49
11342195,1905,1,196060,244085,0.04,1.14,10.51,-0.04,-0.01,-0.14,25.49
11382177,1680,1,196312,246065,0.16,-0.73,13.63,0.03,-0.10,0.02,25.49
11422166,1593,1,196192,243934,0.93,0.34,9.53,-0.19,-0.03,-0.01,25.49
11462174,1490,1,196071,245852,0.40,-2.01,14.00,0.02,-0.04,0.02,25.49
11502166,1531,1,196184,243177,1.15,-0.12,8.36,-0.19,-0.03,-0.01,25.49
11542195,1566,1,195490,243791,0.68,-1.24,11.33,0.03,-0.04,-0.09,25.49
11582174,1648,1,195822,242508,0.86,0.43,8.23,-0.13,0.03,0.01,25.49
11622143,1761,1,195327,242786,0.68,-1.02,9.91,0.01,-0.00,-0.13,25.49
11662174,1861,1,195131,240656,1.23,-0.41,7.62,-0.13,-0.01,-0.01,25.49
11702195,1984,1,194703,241346,1.33,-0.97,10.80,0.11,0.05,-0.02,25.49
11742166,2039,1,194894,241108,1.47,-0.87,8.17,-0.07,-0.03,0.01,25.49
11782175,2130,1,195311,242874,0.17,-1.91,9.58,0.01,0.03,0.03,25.49
11822143,2176,1,195623,243694,1.14,-0.85,7.90,-0.06,-0.05,0.03,25.49
11862172,2223,1,196605,246320,0.37,-0.63,9.35,0.03,-0.07,0.26,25.49
11902166,2221,1,196982,246665,1.17,-1.41,8.29,-0.03,0.00,0.15,25.49
11942166,2198,1,196663,245933,0.71,-0.13,9.60,-0.01,0.05,-0.01,25.49
11982175,2163,1,196337,245172,0.96,-1.14,9.33,-0.02,0.03,0.01,25.49
12022169,2145,1,196452,245974,0.64,-0.83,10.78,0.01,0.01,0.02,25.49
12062143,2129,1,196844,246918,0.57,-1.17,10.82,-0.00,-0.01,0.02,25.49
12102175,2121,1,197024,247531,0.65,-1.13,10.85,-0.04,-0.02,0.01,25.49
12142174,2096,1,197043,247109,0.35,-1.10,11.39,-0.02,-0.00,0.02,25.49
12182172,2046,1,196575,246177,0.67,-0.36,10.53,-0.05,-0.05,0.01,25.49
12222860,1978,1,196875,246226,0.46,-0.93,11.37,-0.03,0.04,0.01,25.53
12261163,1968,1,196946,246094,0.79,0.02,10.33,-0.07,-0.04,-0.00,25.53
12301175,1925,1,197384,246456,0.76,-1.64,11.27,-0.06,0.00,0.00,25.53
12341162,1898,1,197477,246105,0.91,-0.85,8.46,-0.09,-0.11,0.01,25.53
12381175,1847,1,198093,247738,0.41,-1.81,10.81,-0.02,0.01,0.02,25.53
12421165,1881,1,198518,247889,0.91,-0.60,8.74,-0.10,-0.04,0.01,25.53
12461175,1840,1,198646,248244,0.17,-1.23,10.46,-0.02,-0.00,-0.02,25.53
12501195,1885,1,198486,247619,1.11,-0.46,8.63,-0.07,-0.02,-0.00,25.53
12541195,1838,1,198425,247538,0.40,-1.21,10.80,0.02,-0.00,0.02,25.53
12581162,1856,1,197900,246356,1.69,-0.80,8.23,-0.08,-0.10,-0.01,25.53
12621195,1827,1,197594,245920,0.76,-1.43,10.29,-0.03,0.02,-0.02,25.53
12661175,1861,1,196997,244255,0.91,-0.80,7.89,-0.10,0.03,-0.08,25.53
12701175,1835,1,196707,244951,0.99,-0.92,9.54,-0.00,-0.03,-0.02,25.53
12741192,1856,1,196776,245054,0.97,0.47,8.37,-0.05,-0.05,-0.02,25.53
12781175,1854,1,196929,246183,0.75,-0.76,11.12,0.01,-0.00,0.02,25.53
12821167,1855,1,196703,244900,1.34,0.26,8.88,-0.04,-0.02,0.00,25.53
12861166,1837,1,196458,245707,0.93,-0.93,11.45,0.04,0.03,0.02,25.53
12901143,1857,1,196177,244478,0.99,-0.79,9.12,-0.05,-0.02,0.02,25.53
12941175,1840,1,196147,246210,0.20,-1.19,10.65,0.01,0.01,0.03,25.53
12981143,1840,1,196756,245816,0.74,-0.59,9.52,-0.03,0.04,0.01,25.53
13021177,1841,1,196551,246671,0.00,-1.15,11.37,0.06,-0.04,0.03,25.53
13061163,1855,1,196476,245483,1.09,0.55,9.16,-0.03,-0.01,0.02,25.53
13101166,1872,1,196293,246451,0.51,-1.32,10.86,0.04,-0.02,-0.01,25.53
13141175,1877,1,196507,245673,1.16,-0.49,9.70,-0.05,0.02,-0.06,25.53
13181174,1878,1,196155,245720,0.70,-0.77,10.83,0.03,-0.06,0.02,25.53
13221174,1894,1,196074,244919,0.97,-0.76,8.95,-0.06,-0.07,0.01,25.53
13261861,1904,1,195843,243987,0.44,-1.13,9.63,-0.01,0.01,-0.04,25.59
13300175,1909,1,195482,241743,0.64,-0.29,9.21,-0.05,0.02,0.01,25.59
13340166,1877,1,195186,241673,0.81,-0.40,9.86,0.01,-0.01,0.02,25.59
13380162,1898,1,195491,242814,0.64,-0.52,9.32,-0.04,0.03,0.02,25.59
13420166,1901,1,196188,244505,0.74,-0.99,11.31,0.03,-0.00,0.02,25.59
13460162,1883,1,196470,245048,1.37,-0.78,10.31,-0.03,-0.06,0.02,25.59
13500175,1892,1,196323,244679,0.53,-1.44,9.83,-0.06,-0.05,0.02,25.59
13540175,1904,1,196100,243526,0.80,-1.19,9.52,-0.02,-0.06,0.02,25.59
13580174,1890,1,195588,242952,0.53,-0.50,9.86,-0.02,-0.04,-0.02,25.59
13620192,1872,1,195807,243619,1.12,-0.61,9.99,-0.04,0.02,0.02,25.59
13660166,1872,1,195859,243751,0.50,-0.66,9.17,-0.08,-0.04,0.01,25.59
13700172,1892,1,196217,244498,1.66,-0.46,10.93,0.03,-0.08,0.02,25.59
13740167,1927,1,196015,244295,1.16,-0.36,9.60,-0.08,-0.11,0.01,25.59
13780175,1884,1,196086,244143,0.72,-1.58,10.01,-0.06,0.05,-0.00,25.59
13820174,1895,1,195755,243043,1.14,0.11,8.79,-0.01,-0.06,0.02,25.59
13860166,1888,1,195608,243511,0.53,-1.14,10.05,0.01,-0.01,0.05,25.59
13900167,1904,1,195837,244361,1.12,-0.70,9.31,-0.06,0.02,0.01,25.59
13940163,1910,1,196375,244693,0.57,-0.52,10.87,-0.01,0.04,0.01,25.59
13980166,1937,1,196080,244127,0.88,-0.46,10.09,-0.04,-0.05,0.02,25.59
14020172,1920,1,196228,243834,0.59,-1.21,10.53,0.00,-0.01,0.02,25.59
14060167,1932,1,195810,242874,0.87,-0.74,9.57,-0.06,-0.03,0.01,25.59
14100175,1877,1,195813,243384,0.53,-1.15,10.30,-0.03,0.06,0.01,25.59
14140167,1867,1,195971,244228,0.57,-0.10,9.15,-0.07,0.01,0.00,25.59
14180162,1866,1,196198,243900,0.77,-0.34,9.83,-0.03,-0.05,0.04,25.59
14220174,1911,1,195864,243740,1.09,-0.66,9.50,-0.04,-0.05,0.03,25.59
14260172,1841,1,196077,242968,0.48,-1.07,10.30,-0.03,0.09,0.03,25.59
14300852,1865,1,195458,241936,0.92,-0.94,9.94,-0.04,-0.06,0.02,25.61
14339172,1840,1,195672,243055,0.41,-1.70,10.17,-0.04,0.04,0.04,25.61
14379167,1875,1,195678,243446,0.63,-0.14,8.85,-0.05,-0.06,0.04,25.61
14419175,1852,1,195913,244277,0.71,-0.99,10.06,-0.03,-0.02,0.02,25.61
14459177,1893,1,196036,245156,0.96,-0.60,9.33,-0.05,-0.01,0.01,25.61
14499172,1867,1,196458,245477,1.13,-0.34,10.02,-0.02,0.00,-0.08,25.61
14539175,1876,1,196358,245989,0.85,-0.26,10.50,-0.02,-0.03,0.00,25.61
14579172,1839,1,196654,246239,0.63,-1.06,11.37,-0.03,0.01,-0.06,25.61
14619174,1871,1,196248,243856,0.37,-1.44,9.86,-0.06,0.02,0.03,25.61
14659167,1861,1,195316,241859,0.99,-0.72,10.41,-0.00,-0.11,0.03,25.61
14699175,1883,1,195068,242552,0.81,-0.78,9.87,-0.06,0.02,0.01,25.61
14739162,1872,1,195254,242439,0.62,-1.18,8.84,-0.11,0.02,0.01,25.61
14779167,1861,1,195502,242961,0.82,-0.72,10.18,-0.03,-0.02,0.01,25.61
14819175,1861,1,195735,243564,0.52,-1.18,9.84,-0.02,-0.05,0.03,25.61
14859174,1894,1,195517,242813,1.14,-0.06,9.33,-0.06,-0.06,0.01,25.61
14899175,1871,1,195553,243137,-0.02,-1.99,9.77,-0.03,0.06,0.02,25.61
14939175,1863,1,195328,242251,0.60,-1.28,9.20,-0.05,0.05,-0.04,25.61
14979172,1858,1,195196,242583,0.46,-1.47,10.16,0.02,-0.04,0.03,25.61
15019167,1888,1,194902,242649,1.32,-0.34,8.85,-0.09,-0.07,-0.00,25.61
15059195,1876,1,195387,243801,0.36,-1.86,10.39,-0.06,0.03,0.01,25.61
15099166,1904,1,195299,243440,0.40,-0.67,8.46,-0.08,-0.01,-0.01,25.61
15139192,1885,1,195391,243862,0.63,-2.04,10.42,-0.01,0.01,0.02,25.61
15179166,1869,1,195009,243300,0.47,0.10,8.68,-0.06,-0.03,0.04,25.61
15219162,1872,1,195321,243647,0.14,-1.04,10.99,-0.02,0.06,0.02,25.61
15259166,1936,1,194996,242157,0.37,-0.51,9.77,-0.03,-0.01,0.01,25.61
15299175,1893,1,194977,241966,0.26,-1.67,11.76,0.01,0.04,0.02,25.61
15339832,1937,1,194504,242405,0.96,-1.03,9.29,-0.07,-0.14,0.04,25.59
15380175,1926,1,195499,244684,0.26,-1.82,11.17,-0.04,-0.03,0.02,25.59
15420174,1937,1,195900,245434,0.24,-0.78,9.87,-0.11,-0.01,0.01,25.59
15458175,1914,1,196331,245788,0.39,-1.12,11.70,-0.03,-0.06,-0.01,25.59
15498195,1935,1,196107,245580,0.60,0.10,10.36,-0.05,-0.05,-0.00,25.59
15538172,1899,1,196429,244618,0.12,-1.04,11.46,-0.07,0.02,0.01,25.59
15578167,1923,1,195761,242964,1.03,-0.59,10.18,-0.02,-0.11,-0.00,25.59
15618195,1860,1,195516,243201,0.87,-1.08,10.70,-0.04,-0.07,0.01,25.59
15658174,1857,1,195540,243145,0.28,-1.19,8.10,-0.09,-0.03,0.01,25.59
15698175,1839,1,195548,244217,0.29,-1.52,9.30,-0.06,-0.06,0.02,25.59
15738174,1818,1,196241,245291,0.52,-1.19,10.06,-0.03,0.02,0.01,25.59
15778166,1815,1,195908,243988,1.24,-0.33,9.09,-0.04,-0.10,-0.01,25.59
15818195,1840,1,195629,243491,0.65,-1.24,10.38,-0.01,0.02,0.01,25.59
15858166,1840,1,194526,241314,0.66,-1.15,7.62,-0.06,-0.04,-0.04,25.59
15898195,1790,1,194189,241143,0.38,-1.54,10.07,0.01,0.14,-0.02,25.59
15938166,1809,1,193602,239203,0.36,0.13,7.96,-0.03,0.02,-0.08,25.59
15978166,1870,1,193560,240396,0.35,-0.66,9.22,0.00,-0.01,0.02,25.59
16018162,1923,1,193981,241218,0.37,-1.44,8.70,0.02,0.02,0.02,25.59
16058144,1921,1,193918,240047,0.77,-0.27,9.42,0.02,0.02,0.01,25.59
16099155,1945,1,193533,240639,0.29,-2.24,9.92,0.04,0.02,0.05,25.59
16139144,1934,1,193776,240345,0.40,-0.75,9.77,0.01,0.01,0.02,25.59
16179143,1943,1,193532,241958,0.66,-1.00,10.15,0.03,-0.06,0.06,25.59
16219166,1937,1,194824,244074,-0.11,-2.13,10.32,-0.02,0.05,-0.07,25.59
16259195,1941,1,194931,244061,0.40,-0.66,10.88,-0.01,-0.01,-0.01,25.59
16299220,1966,1,195029,243578,0.42,-0.51,10.36,-0.00,-0.01,0.03,25.59
16339862,1986,1,194899,244115,0.52,-1.02,10.98,-0.03,-0.05,0.01,25.59
16378175,1950,1,195345,244321,0.26,-1.17,11.33,-0.04,0.02,0.01,25.59
16418166,1895,1,195448,245301,0.45,-1.03,11.03,-0.04,-0.03,0.01,25.59
16458175,1906,1,195822,245046,0.62,-0.56,11.38,-0.06,-0.04,0.01,25.59
16498198,1917,1,195507,244265,0.24,-0.91,10.34,-0.06,-0.08,0.01,25.59
16538174,1886,1,195084,242457,0.84,-0.49,10.16,-0.10,-0.02,0.00,25.59
16578175,1885,1,194315,239007,0.56,-1.21,10.39,-0.04,-0.00,0.03,25.59
16618174,1879,1,192889,235643,0.87,-0.83,8.05,-0.09,-0.06,0.03,25.59
16658172,1870,1,192046,236031,1.19,-1.31,10.14,-0.00,-0.07,0.05,25.59
16698174,1856,1,192368,235559,1.09,-0.99,7.54,-0.10,-0.07,0.01,25.59
16738172,1843,1,192344,236129,0.47,-0.64,8.39,-0.06,-0.00,0.02,25.59
16778175,1854,1,192672,235989,0.80,-0.43,8.48,-0.02,0.04,0.03,25.59
16818162,1866,1,192588,236932,0.98,-0.94,10.20,0.02,-0.02,0.10,25.59
16858166,1870,1,192992,238194,0.76,-0.86,9.63,-0.02,0.05,0.01,25.59
16898163,1873,1,193668,241231,0.58,-0.95,10.41,0.03,0.03,0.02,25.59
16938143,1895,1,194728,243483,0.40,-1.53,10.39,0.01,0.05,-0.03,25.59
16978163,1888,1,195242,244483,0.32,-1.48,10.37,-0.00,-0.04,0.02,25.59
17018174,1917,1,195363,244410,-0.02,-1.49,10.39,-0.03,0.04,0.02,25.59
17058175,1890,1,195241,243629,0.46,-0.82,11.46,-0.00,0.00,0.03,25.59
17098166,1890,1,194972,243427,0.57,-0.59,10.47,-0.05,-0.03,0.02,25.59
17137175,1904,1,195366,244086,-0.04,-1.31,11.75,-0.03,-0.02,0.02,25.59
17177195,1911,1,195441,243687,0.43,-0.72,10.23,-0.04,-0.03,0.01,25.59
17217175,1909,1,195341,243575,0.18,-1.11,11.08,-0.02,-0.03,0.05,25.59
17257175,1920,1,195186,242539,0.35,-0.95,9.23,-0.05,-0.01,0.04,25.59
17297172,1920,1,194765,241597,0.62,-1.17,11.43,-0.01,-0.04,0.01,25.59
17337174,1898,1,193781,239528,1.12,-0.77,8.03,-0.10,-0.07,-0.00,25.59
17377878,1863,1,194830,243733,1.10,-1.54,10.78,-0.00,-0.01,-0.19,25.69
17418195,1943,1,195414,244094,0.06,0.01,6.70,-0.12,-0.05,-0.16,25.69
17458172,1904,1,195869,244849,0.04,-0.59,12.29,0.02,0.02,0.02,25.69
17498145,1920,1,195205,242958,0.93,-0.05,9.50,-0.01,-0.07,0.01,25.69
17538172,1880,1,194993,243004,0.37,-1.28,11.36,-0.02,0.03,0.01,25.69
17578167,1886,1,194213,241307,0.98,-0.96,8.36,-0.07,-0.03,-0.00,25.69
17618192,1856,1,194469,242944,0.50,-1.51,10.67,-0.01,-0.03,-0.01,25.69
17658195,1874,1,194853,243892,0.12,-0.79,8.40,-0.09,0.02,-0.03,25.69
17698172,1872,1,195087,242920,0.24,-0.30,9.60,-0.02,-0.04,0.03,25.69
17738175,1878,1,194517,242332,0.64,-0.72,8.60,-0.02,-0.00,0.01,25.69
17778172,1846,1,194361,241706,1.09,0.02,10.96,0.01,0.02,-0.01,25.69
17818143,1839,1,194048,241982,0.58,-1.40,10.07,-0.03,0.02,-0.02,25.69
17858172,1840,1,194285,242166,0.46,-0.93,10.00,-0.02,0.05,-0.08,25.69
17898175,1872,1,194113,242374,0.73,-1.20,8.27,-0.02,-0.09,0.02,25.69
17938197,1905,1,194355,243435,0.28,-1.70,10.21,-0.01,-0.02,0.00,25.69
17978175,1911,1,194383,242907,0.72,-0.39,8.81,-0.05,-0.03,-0.01,25.69
18018195,1951,1,193773,240949,0.36,-0.67,10.10,-0.03,0.03,0.00,25.69
18058167,1934,1,193591,241799,1.10,-0.30,10.30,0.02,-0.01,-0.00,25.69
18098172,1919,1,194414,243307,0.59,-0.61,11.27,0.01,-0.03,-0.09,25.69
18138175,1941,1,194480,242621,0.21,-0.36,10.77,0.01,-0.03,-0.02,25.69
18178175,1941,1,193788,241604,-0.09,-1.24,10.32,0.01,0.00,0.01,25.69
18218167,1935,1,193746,241509,0.35,-1.21,10.64,0.01,0.06,0.01,25.69
18258144,1953,1,193568,242443,0.43,-1.12,10.36,-0.01,-0.08,-0.00,25.69
18298195,1893,1,194540,244255,0.13,-1.97,11.47,-0.04,0.02,-0.01,25.69
18338175,1927,1,194640,243861,0.04,-0.82,9.05,-0.07,-0.10,0.04,25.69
18378861,1891,1,194581,243165,0.51,-1.53,10.34,-0.03,-0.05,-0.00,25.81
18417195,1895,1,194184,243244,0.58,-0.95,10.14,0.00,-0.10,0.00,25.81
18457166,1776,1,194046,241338,0.03,-1.13,9.19,-0.06,0.06,-0.06,25.81
18497175,1821,1,193213,241610,0.49,-0.95,9.24,0.03,-0.07,-0.04,25.81
18537175,1790,1,193962,242537,0.90,-1.27,10.15,-0.00,0.03,-0.05,25.81
18577172,1805,1,194036,243736,0.28,-0.67,9.05,-0.02,-0.10,-0.00,25.81
18617195,1841,1,194199,242779,0.67,-1.72,8.52,-0.04,-0.04,0.00,25.81
18657175,1879,1,193705,242252,0.16,-1.30,8.21,-0.03,0.02,0.01,25.81
18697166,1835,1,193210,237828,0.67,-1.14,9.62,0.03,0.03,0.02,25.81
18737143,1835,1,191749,237422,0.67,-0.96,10.30,0.04,-0.04,0.00,25.81
18777166,1815,1,192712,238912,0.33,-1.34,10.56,0.00,0.06,-0.14,25.81
18817166,1842,1,192564,239748,0.89,-1.27,8.47,-0.01,-0.16,-0.02,25.81
18857195,1828,1,193840,241529,0.30,-1.75,11.33,0.01,0.08,0.01,25.81
18897143,1904,1,193377,240920,0.87,0.13,9.15,-0.01,-0.13,0.00,25.81
18937166,1813,1,193780,242703,0.64,-1.13,11.63,-0.00,0.03,0.00,25.81
18977162,1840,1,193655,242362,0.80,0.14,8.85,-0.10,-0.07,-0.03,25.81
19017175,1783,1,194192,243230,0.66,0.19,11.99,0.02,0.04,0.01,25.81
19057124,1839,1,193844,243155,2.20,1.03,9.55,-0.10,-0.14,-0.01,25.81
19097175,1807,1,194283,242385,0.86,0.21,10.86,-0.05,0.05,0.03,25.81
19137144,1856,1,193694,241704,1.17,-0.16,10.12,0.00,0.03,-0.02,25.81
19177167,1843,1,193914,241168,0.32,-1.07,10.17,-0.02,0.02,0.11,25.81
19217166,1904,1,193680,241742,0.50,-1.15,9.20,-0.04,-0.02,0.08,25.81
19257175,1856,1,194287,242045,0.92,-0.98,9.34,-0.10,0.07,0.09,25.81
19297162,1907,1,194297,242510,-0.06,-1.85,8.02,-0.14,-0.04,0.10,25.81
19337195,1920,1,194520,241369,0.55,-1.20,8.33,-0.09,0.01,0.16,25.81
19377167,1907,1,194288,241139,2.04,-0.26,10.93,0.09,0.02,0.05,25.81
19417832,1914,1,194286,240139,0.51,-0.47,9.68,-0.03,0.07,0.01,25.75
19456165,1945,1,194067,241528,0.34,-1.00,9.66,-0.02,0.07,-0.03,25.75
19496175,1958,1,194423,241356,0.68,-1.30,10.18,-0.00,-0.04,0.07,25.75
19536175,1953,1,193897,240342,0.62,-0.97,9.86,-0.03,-0.05,0.02,25.75
19576188,1952,1,193899,241303,0.36,-1.35,10.14,-0.04,0.02,0.00,25.75
19616166,1949,1,193979,241447,0.89,-1.02,9.97,-0.06,0.04,-0.03,25.75
19656175,1936,1,193782,241297,0.17,-0.95,8.72,-0.08,0.01,0.01,25.75
19696163,1952,1,194183,242922,0.79,-0.65,10.83,0.00,-0.02,0.01,25.75
19736166,1937,1,194484,242580,0.38,-0.26,10.41,-0.08,0.04,0.00,25.75
19776166,1937,1,193989,241559,1.35,-1.00,10.40,-0.02,-0.06,-0.01,25.75
19816195,1909,1,193924,240861,0.10,-1.42,9.75,-0.05,0.06,0.10,25.75
19856163,1909,1,193659,241321,0.72,-0.95,10.54,-0.02,0.01,0.02,25.75
19896167,1869,1,194256,242965,0.83,-1.09,10.60,-0.03,-0.00,-0.10,25.75
19936192,1923,1,194799,244566,0.38,-1.22,9.67,-0.10,0.02,-0.15,25.75
19976175,1920,1,195281,244867,0.14,-0.94,9.61,-0.06,-0.03,-0.05,25.75
20016195,1951,1,195028,244133,0.94,-1.06,9.58,-0.07,-0.05,-0.01,25.75
20056195,1957,1,194671,243079,0.36,-0.96,9.28,-0.07,0.01,-0.00,25.75
20096172,1941,1,193991,241718,0.92,-0.76,9.08,-0.07,0.03,-0.05,25.75
20136175,1895,1,193367,238803,0.68,-0.97,9.78,-0.03,0.02,-0.07,25.75
20176172,1876,1,192723,239279,0.52,-0.61,10.15,-0.03,-0.02,-0.03,25.75
20215195,1872,1,193302,239641,0.37,-0.69,9.67,-0.05,0.01,-0.03,25.75
20255175,1938,1,192811,239155,1.26,-0.98,9.04,-0.08,-0.08,-0.02,25.75
20295195,1920,1,192822,238389,0.30,-1.78,9.23,-0.05,0.05,0.01,25.75
20335163,1936,1,192266,238959,0.90,-0.39,9.14,-0.04,-0.05,0.01,25.75
20375175,1920,1,193091,240986,0.33,-1.28,9.71,-0.06,0.12,-0.06,25.75
20415175,1871,1,193575,242362,0.59,-0.56,9.43,-0.06,0.02,-0.14,25.75
20455861,1872,1,194306,243026,0.17,-0.73,11.56,-0.04,0.04,-0.08,25.91
20496175,1933,1,194229,244024,0.88,-1.20,11.10,0.00,-0.14,-0.00,25.91
20536175,1936,1,194625,243119,0.06,-1.79,10.29,-0.08,0.05,-0.01,25.91
20576175,1962,1,193812,242576,0.54,-1.08,10.04,-0.02,-0.07,-0.01,25.91
20616195,1917,1,194066,242396,0.06,-1.33,10.72,-0.04,0.05,-0.00,25.91
20656175,1927,1,193627,242619,0.43,-0.97,9.90,-0.07,-0.06,-0.02,25.91
20696195,1915,1,193903,242037,0.39,-1.91,9.20,-0.09,-0.01,-0.01,25.91
20736195,1901,1,193643,241916,0.51,-0.34,9.74,-0.02,-0.04,-0.01,25.91
20776195,1887,1,193657,240142,0.47,-1.32,10.10,-0.04,0.00,0.01,25.91
20816163,1903,1,192529,237729,-0.06,-1.00,9.80,-0.03,-0.03,0.05,25.91
20856195,1883,1,192739,238426,-0.41,-1.36,10.11,-0.03,0.08,-0.01,25.91
20896195,1885,1,192897,239955,0.34,-1.05,9.69,-0.04,0.00,-0.04,25.91
20936175,1862,1,193406,239186,0.31,-1.38,9.23,-0.03,-0.01,0.01,25.91
20976175,1936,1,192865,239858,0.97,-0.39,10.72,0.00,-0.07,-0.02,25.91
21016175,1874,1,193372,240273,-0.28,-2.16,9.47,-0.06,0.05,-0.01,25.91
21056195,1883,1,192837,240944,0.78,-0.53,9.90,-0.01,-0.06,-0.09,25.91
21096195,1838,1,193753,241760,0.41,-1.57,10.05,-0.02,0.02,-0.10,25.91
21136175,1907,1,193309,242116,0.83,-0.38,9.77,0.00,-0.16,-0.01,25.91
21176174,1885,1,193491,242008,0.49,-1.47,9.91,-0.04,0.03,-0.01,25.91
21215175,1933,1,192953,241513,0.85,-0.63,9.23,-0.04,-0.07,-0.01,25.91
21255195,1904,1,193187,241019,0.14,-1.37,10.14,-0.02,0.05,0.00,25.91
21295166,1929,1,192773,242084,0.30,-0.90,10.13,-0.01,-0.07,0.05,25.91
21335175,1889,1,193599,242344,-0.01,-1.19,10.57,-0.04,0.05,0.00,25.91
21375172,1936,1,193225,243007,0.01,-1.05,9.27,-0.02,-0.00,-0.04,25.91
21415195,1911,1,193857,242535,0.62,-1.95,10.32,-0.04,0.08,0.02,25.91
21455852,1919,1,193145,241447,0.05,-0.77,9.81,-0.02,-0.12,0.11,25.75
21494175,1893,1,193179,240082,0.10,-1.82,10.22,-0.05,0.08,0.01,25.75
21534166,1911,1,193138,242080,0.46,-0.53,10.62,0.03,-0.05,-0.04,25.75
21574174,1845,1,193981,241654,0.28,-0.97,10.28,-0.03,0.02,0.00,25.75
21614163,1905,1,193766,242854,0.66,-0.94,10.16,0.01,-0.12,-0.01,25.75
21654175,1905,1,193986,241713,0.51,-1.11,9.91,-0.05,-0.02,-0.01,25.75
21694195,1902,1,193451,241891,0.72,-0.92,8.88,0.03,-0.11,-0.10,25.75
21734174,1870,1,193676,241272,0.46,-2.09,9.63,-0.02,0.04,0.01,25.75
21774163,1853,1,193136,240503,0.15,-0.57,10.00,0.01,-0.04,0.00,25.75
21814166,1874,1,193055,240474,0.25,-1.47,9.15,-0.03,-0.00,0.00,25.75
21854172,1851,1,193255,241670,0.53,-0.58,9.76,-0.02,0.03,-0.00,25.75
21894175,1831,1,193562,242639,0.63,-1.82,10.91,0.01,-0.01,0.01,25.75
21934166,1830,1,193950,244017,0.62,-0.32,10.30,0.00,-0.06,-0.00,25.75
21974175,1872,1,194466,244157,0.36,-1.43,10.31,-0.05,0.01,-0.01,25.75
22014175,1894,1,194137,244076,0.63,-0.70,9.97,-0.01,-0.05,-0.04,25.75
22054195,1853,1,194006,243068,0.42,-0.57,9.86,-0.03,0.04,-0.00,25.75
22094172,1866,1,193408,242703,0.87,-0.52,9.54,-0.03,-0.08,-0.04,25.75
22134195,1866,1,193440,240743,0.47,-0.95,10.65,-0.05,0.04,-0.01,25.75
22174175,1877,1,192267,239183,0.63,-0.75,9.34,-0.02,-0.05,-0.02,25.75
22214195,1871,1,192600,238530,0.50,-1.31,9.85,-0.03,0.02,0.02,25.75
22254163,1904,1,192120,238800,0.53,-0.85,9.90,-0.02,-0.07,0.05,25.75
22294175,1885,1,192263,238163,0.56,-0.72,10.01,-0.06,0.03,-0.00,25.75
22334172,1901,1,192278,239983,0.74,-1.08,10.46,-0.00,0.03,-0.04,25.75
22374175,1814,1,193107,240573,0.42,-0.83,9.71,-0.05,0.03,-0.00,25.75
22414172,1903,1,193605,243261,0.63,-1.17,10.94,0.02,-0.06,0.01,25.75
22454167,1871,1,194007,242692,0.56,-0.63,9.52,-0.07,-0.03,-0.01,25.75
22494882,1901,1,193616,242841,0.88,-1.66,10.01,-0.04,-0.03,-0.00,25.75
22535195,1898,1,193232,240021,0.42,-0.51,8.19,-0.07,0.02,0.02,25.75
22575163,1902,1,192868,241209,0.49,-1.02,11.63,0.02,0.00,0.01,25.75
22615143,1840,1,192714,240191,1.15,-1.03,7.97,-0.15,-0.01,-0.04,25.75
22655195,1840,1,193273,242606,-0.21,-0.84,10.85,0.00,0.05,0.00,25.75
22695167,1884,1,193336,241995,0.55,-0.45,8.00,-0.08,-0.03,0.02,25.75
22735172,1922,1,193707,243693,0.11,-0.92,11.14,-0.01,0.03,0.01,25.75
22775167,1906,1,193324,240447,0.66,-1.12,7.68,-0.11,0.02,-0.02,25.75
22815175,1917,1,192463,240407,0.81,-2.04,11.77,0.04,0.05,-0.02,25.75
22855222,1867,1,192177,238336,0.37,-1.36,8.50,-0.02,0.02,-0.07,25.75
22895175,1845,1,192714,242069,0.34,-1.75,12.75,0.04,-0.02,-0.12,25.75
22935175,1904,1,193903,242247,-0.40,-1.35,9.27,-0.09,0.03,-0.13,25.75
22975195,1954,1,193604,243180,0.15,-1.18,11.91,0.05,-0.12,-0.01,25.75
23013174,1904,1,193478,240101,-0.02,-1.61,10.51,-0.08,0.10,0.08,25.75
23053175,1939,1,192493,240749,-0.34,-2.05,10.99,-0.01,-0.08,0.18,25.75
23093196,1875,1,192843,239400,0.23,-1.92,9.19,-0.12,0.06,-0.01,25.75
23133175,1903,1,192729,241014,-0.28,-1.94,11.33,0.02,-0.05,0.00,25.75
23173175,1888,1,192739,238904,0.36,-0.88,8.68,-0.11,-0.08,0.02,25.75
23213175,1922,1,192478,240189,0.13,-1.62,10.58,-0.02,-0.01,0.10,25.75
23253175,1942,1,192487,238225,0.57,-1.27,7.93,-0.07,-0.06,-0.02,25.75
23293195,1894,1,192069,240122,1.03,-0.71,10.68,-0.00,-0.04,-0.04,25.75
23333196,1841,1,192804,240782,-0.23,-1.30,8.37,-0.07,0.10,-0.01,25.75
23373195,1850,1,193205,242367,0.62,-0.94,11.22,-0.02,-0.03,-0.01,25.75
23413195,1885,1,193170,241490,0.07,-1.38,8.95,-0.03,-0.04,-0.01,25.75
23453195,1937,1,192841,241259,0.31,-0.69,10.34,0.00,-0.00,-0.01,25.75
23493174,1877,1,192464,237971,0.40,-1.53,9.80,-0.03,0.03,-0.01,25.75
23533859,1854,1,191800,240234,0.36,-1.52,11.05,0.01,0.01,-0.08,25.81
23574166,1851,1,193484,242005,0.64,-0.45,9.71,-0.04,-0.00,-0.21,25.81
23614195,1887,1,193784,244398,0.46,-1.01,11.96,0.06,-0.16,-0.01,25.81
23654175,1909,1,193837,242148,1.16,-0.47,9.43,-0.07,-0.07,-0.02,25.81
23694195,1911,1,192947,241657,0.21,-1.20,10.14,0.01,-0.03,-0.00,25.81
23734175,1904,1,192832,239097,0.68,-0.88,8.85,-0.05,0.06,-0.01,25.81
23774175,1834,1,192182,241015,1.20,-1.28,10.82,0.07,-0.05,-0.10,25.81
23814175,1799,1,193219,241344,0.93,-0.25,8.82,-0.05,0.00,-0.09,25.81
23854172,1831,1,193549,243684,0.57,-1.31,10.60,0.03,-0.09,-0.01,25.81
23894175,1885,1,194167,243696,0.43,-1.00,9.83,-0.04,0.00,-0.01,25.81
23934172,1905,1,193867,243823,0.33,-1.47,9.85,0.03,-0.06,0.00,25.81
23974167,1899,1,193510,242343,0.73,-0.29,8.64,-0.04,-0.01,0.00,25.81
24014172,1877,1,193451,243632,-0.00,-1.95,9.20,-0.02,0.04,0.00,25.81
24054175,1870,1,193431,242132,0.72,0.36,8.38,-0.06,0.03,-0.12,25.81
24094166,1849,1,193336,243487,0.21,-1.29,10.03,0.01,0.03,0.00,25.81
24134144,1873,1,193147,241357,0.83,-0.01,9.32,-0.04,-0.02,-0.00,25.81
24174192,1904,1,192436,240071,0.18,-1.74,9.68,0.01,-0.04,0.06,25.81
24214167,1903,1,192373,239507,0.59,-0.66,9.47,-0.05,0.04,-0.01,25.81
24254172,1889,1,192623,241296,0.03,-1.55,10.32,0.01,0.08,0.01,25.81
24294144,1877,1,192590,241120,1.07,-0.09,9.67,-0.03,-0.05,0.00,25.81
24334172,1922,1,193422,243290,0.32,-1.95,11.07,-0.04,0.02,0.00,25.81
24374165,1966,1,193094,241922,0.73,-0.65,8.49,-0.09,-0.11,-0.03,25.81
24414195,1940,1,193470,243445,0.15,-1.07,11.55,0.02,0.10,0.02,25.81
24452143,1902,1,193338,241750,0.72,0.01,9.28,-0.04,-0.01,-0.00,25.81
24492172,1926,1,193426,243103,0.11,-1.58,11.59,0.03,0.03,0.03,25.81
24532144,1938,1,193492,243250,0.67,-1.13,9.63,-0.05,-0.02,-0.01,25.81
24572882,1842,1,194314,244381,0.04,-1.39,11.96,0.03,-0.03,0.03,25.81
24613166,1968,1,193798,243871,0.77,-0.76,8.43,-0.08,-0.13,-0.01,25.81
24653195,1931,1,194526,244687,-0.28,-2.24,11.33,-0.04,0.06,0.01,25.81
24693214,1910,1,193501,242430,1.12,-0.52,7.63,-0.09,-0.13,-0.02,25.81
24733195,1855,1,193930,243984,0.49,-1.51,11.28,-0.05,0.07,0.00,25.81
24773166,1876,1,193485,243539,0.92,0.08,8.03,-0.12,-0.09,-0.04,25.81
24813172,1842,1,194466,244726,0.39,-1.60,11.93,-0.02,0.05,0.01,25.81
24853166,1919,1,193644,243805,0.75,-0.27,7.81,-0.13,-0.10,-0.03,25.81
24893195,1857,1,194480,244117,0.39,-1.04,11.22,-0.06,0.09,0.03,25.81
24933166,1911,1,193234,241737,1.60,0.09,8.74,-0.06,-0.17,-0.01,25.81
24973175,1841,1,193588,243130,0.88,-0.72,12.18,-0.04,0.10,-0.01,25.81
25013175,1873,1,192923,241360,0.84,0.28,8.43,-0.09,-0.08,-0.16,25.81
25053175,1826,1,193511,242154,-0.01,-1.35,10.47,-0.01,0.10,0.02,25.81
25093174,1867,1,192423,240545,1.36,-0.74,8.01,-0.07,-0.13,-0.00,25.81
25133195,1834,1,192899,240879,0.89,-1.05,10.37,-0.04,0.09,0.01,25.81
25173166,1884,1,191961,239687,-0.10,-1.77,6.57,-0.10,-0.02,-0.10,25.81
25213208,1810,1,192830,240234,0.90,-0.99,10.68,-0.00,0.13,0.02,25.81
25253166,1807,1,192408,241768,0.45,-1.11,9.11,0.00,-0.04,0.02,25.81
25293165,1856,1,193718,242640,0.91,-1.42,11.04,0.04,-0.01,0.00,25.81
25333166,1869,1,193423,243900,0.11,-1.13,8.65,-0.01,-0.12,-0.01,25.81
25373195,1889,1,194660,243976,0.90,-1.36,11.04,0.05,0.09,-0.12,25.81
25413167,1872,1,193611,244445,1.13,-1.06,8.97,-0.02,-0.17,-0.04,25.81
25453195,1887,1,194950,245658,0.06,-2.13,11.50,-0.01,0.10,-0.12,25.81
25493174,1914,1,194782,244434,0.03,-0.23,8.34,-0.07,-0.01,-0.07,25.81
25533195,1904,1,194612,242403,-0.31,-1.72,11.03,0.01,0.04,0.02,25.81
25573853,1933,1,193019,242164,0.45,-0.88,10.17,-0.00,-0.10,0.06,25.93
25612172,1891,1,193738,241841,0.35,-1.53,11.69,-0.05,0.02,-0.01,25.93
25652175,1902,1,192643,242523,0.39,-1.22,9.26,-0.04,-0.12,-0.01,25.93
25692195,1897,1,194106,243129,0.04,-1.86,11.97,-0.03,0.07,0.02,25.93
25732166,1958,1,193171,242300,0.29,-1.08,8.96,-0.01,-0.20,0.01,25.93
25772175,1897,1,192802,241086,0.49,-1.41,10.08,-0.07,-0.02,0.05,25.93
25812175,1931,1,192285,240907,0.34,-1.13,9.07,-0.07,0.02,-0.02,25.93
25852175,1879,1,192609,240007,0.34,-0.85,9.78,-0.05,0.04,-0.01,25.93
25892175,1868,1,192455,241924,0.29,-1.05,9.49,-0.03,-0.04,-0.02,25.93
25932195,1870,1,193223,241849,0.05,-1.41,9.32,-0.05,0.01,-0.01,25.93
25972175,1898,1,192705,241346,0.71,-0.67,9.69,-0.03,-0.06,-0.02,25.93
26012195,1936,1,192451,239818,0.44,-1.73,8.28,-0.04,0.00,-0.00,25.93
26052175,1903,1,192035,239827,0.74,-0.32,9.96,-0.02,0.01,-0.01,25.93
26092175,1858,1,192390,240576,0.47,-1.52,9.85,-0.04,0.03,-0.05,25.93
26132240,1857,1,192635,239999,0.75,-1.11,9.65,-0.00,-0.04,-0.02,25.93
26172195,1897,1,192061,237885,0.12,-1.60,9.90,-0.01,-0.02,0.00,25.93
26212175,1926,1,191428,237269,-0.13,-1.39,9.71,-0.00,-0.02,0.07,25.93
26252195,1880,1,191398,237514,0.99,-0.80,10.34,-0.03,0.00,-0.01,25.93
26292174,1885,1,191658,239896,0.70,-1.24,9.62,-0.04,-0.01,-0.09,25.93
26332226,1863,1,192730,240920,0.34,-1.01,10.15,-0.03,0.04,0.02,25.93
26372167,1919,1,193316,243618,-0.11,-0.12,10.98,0.01,-0.00,-0.01,25.93
26412195,1942,1,194109,243215,0.35,-0.93,11.57,-0.02,0.02,-0.00,25.93
26452174,1936,1,193221,241825,0.37,-1.41,10.91,0.03,-0.05,-0.05,25.93
26492175,1920,1,193185,240819,0.54,-2.05,11.78,-0.01,0.08,0.01,25.93
26532167,1897,1,192636,241478,0.11,-1.47,11.61,0.03,-0.14,0.00,25.93
26572166,1874,1,193128,242138,-0.05,-1.48,10.10,-0.07,-0.07,-0.00,25.93
26612898,1903,1,193034,242862,0.00,-1.87,9.44,-0.04,-0.12,-0.01,25.85
26651195,1891,1,192973,240910,0.54,-0.80,9.17,-0.09,-0.02,-0.00,25.85
26691195,1890,1,192441,240549,1.26,-1.05,10.62,0.04,-0.04,0.13,25.85
26731166,1872,1,192126,238747,0.78,-0.60,8.86,-0.13,-0.00,-0.02,25.85
26771195,1873,1,192049,240000,1.37,-1.25,11.49,0.08,0.01,-0.03,25.85
26811166,1777,1,192559,239185,0.63,0.18,10.12,-0.01,-0.02,-0.01,25.85
26851174,1840,1,192810,242000,0.42,-1.41,11.40,0.04,-0.06,0.01,25.85
26891166,1915,1,192985,239175,0.68,-0.40,7.31,-0.10,-0.13,0.04,25.85
26931174,1877,1,192495,240712,0.76,-1.45,11.51,0.04,0.08,0.07,25.85
26971143,1874,1,192219,237475,1.11,-0.13,7.88,-0.07,-0.02,0.00,25.85
27011174,1857,1,192217,241606,0.79,-0.47,11.60,0.06,0.01,-0.09,25.85
27051163,1874,1,193040,240867,0.85,-0.65,8.16,-0.12,0.05,-0.13,25.85
27091175,1843,1,193076,242169,0.26,-0.72,11.43,0.11,-0.01,0.02,25.85
27131166,1873,1,192643,239011,0.54,0.01,8.52,-0.06,-0.02,0.05,25.85
27171166,1865,1,191966,239474,1.67,-0.72,12.28,0.13,0.01,0.07,25.85
27211144,1887,1,191442,237420,0.74,-0.23,7.57,-0.11,0.01,-0.03,25.85
27251174,1786,1,191824,240723,1.12,-0.85,12.66,0.15,0.09,-0.02,25.85
27291166,1856,1,192497,240651,0.02,-0.08,8.77,-0.06,-0.00,-0.01,25.85
27331195,1908,1,192963,242660,0.31,-1.11,11.78,0.10,-0.06,0.02,25.85
27371165,1954,1,193012,241417,0.83,-1.09,9.29,-0.07,-0.05,0.01,25.85
27411174,1936,1,192847,242337,0.36,-1.57,11.64,0.05,0.07,0.02,25.85
27451143,1921,1,192424,239020,1.08,-0.31,8.60,-0.08,-0.08,-0.01,25.85
27491195,1915,1,192616,241808,0.16,-0.88,11.59,0.01,0.09,-0.00,25.85
27531165,1954,1,192935,240595,0.97,-0.40,8.91,-0.11,-0.08,-0.02,25.85
27571195,1927,1,193251,241846,0.48,-0.80,11.13,0.06,0.02,0.03,25.85
27611143,1949,1,192753,239183,1.21,-0.18,9.14,-0.06,-0.11,0.02,25.85
27651861,1917,1,192379,239208,0.25,-1.28,10.60,0.01,0.00,0.03,25.91
27690143,1980,1,191859,237643,0.32,-0.97,7.12,-0.13,-0.05,-0.09,25.91
27730195,1885,1,192214,240365,0.65,-1.11,10.50,-0.02,0.11,0.04,25.91
27770198,1803,1,193160,242648,0.89,0.05,9.68,-0.06,-0.03,0.06,25.91
27810166,1867,1,194007,244436,0.43,-1.38,11.22,-0.07,-0.04,0.02,25.91
27850175,1917,1,194149,244333,0.84,-1.06,8.88,-0.10,-0.11,0.00,25.91
27890174,1903,1,194112,243312,0.06,-0.90,10.57,-0.03,0.09,0.01,25.91
27930162,1886,1,193324,242952,1.37,-0.82,10.53,-0.04,-0.02,-0.06,25.91
27970238,1837,1,193907,243790,0.18,-1.76,11.30,0.00,0.06,-0.13,25.91
28010166,1905,1,193430,243236,0.79,-1.21,9.50,-0.05,-0.12,-0.03,25.91
28050195,1888,1,193835,243374,0.08,-1.86,10.69,-0.01,0.00,0.08,25.91
28090166,1892,1,193211,241951,0.49,-0.74,8.39,-0.04,-0.08,0.01,25.91
28130174,1839,1,193203,242648,0.26,-2.44,10.80,-0.02,-0.02,0.01,25.91
28170175,1900,1,192198,237820,0.44,-0.45,7.46,-0.10,-0.01,-0.02,25.91
28210195,1788,1,191836,239111,-0.03,-1.38,10.40,-0.02,0.09,0.00,25.91
28250172,1872,1,191892,239037,0.54,-0.57,8.31,-0.03,-0.08,-0.03,25.91
28290195,1805,1,192523,241381,0.22,-1.41,10.94,-0.02,0.04,-0.00,25.91
28330175,1919,1,192471,240162,0.73,-1.42,9.56,-0.02,-0.04,-0.02,25.91
28370195,1818,1,193025,242189,-0.20,-1.28,10.76,-0.00,0.07,-0.00,25.91
28410192,1940,1,193309,243156,0.50,-0.96,10.11,-0.00,-0.05,-0.03,25.91
28450195,1850,1,193953,243670,0.29,-1.37,11.63,0.01,-0.03,-0.08,25.91
28490175,1962,1,193466,243115,0.51,-1.47,9.66,-0.01,-0.13,-0.02,25.91
28530195,1877,1,193760,242831,-0.42,-0.91,10.54,0.01,0.03,0.01,25.91
28570165,1872,1,193367,244021,0.60,-1.50,10.34,-0.04,-0.07,-0.01,25.91
28610195,1842,1,194194,244079,0.19,-1.62,10.82,-0.04,-0.01,-0.10,25.91
28650195,1935,1,193513,243634,0.64,-0.96,9.45,-0.03,-0.11,-0.02,25.91
28690882,1886,1,193489,242478,0.30,-0.76,9.72,-0.03,-0.02,-0.00,25.93
28731192,1905,1,192919,243726,0.45,-0.86,10.87,0.01,-0.04,-0.01,25.93
28771174,1850,1,193692,243401,0.61,-1.05,9.89,-0.04,-0.01,-0.12,25.93
28811195,1893,1,193414,243646,-0.03,-0.92,10.43,0.03,-0.04,0.00,25.93
28851175,1867,1,193394,241935,0.54,-1.34,10.25,-0.02,-0.01,0.04,25.93
28891175,1876,1,193048,243194,0.00,-0.85,10.33,-0.00,-0.04,-0.01,25.93
28931195,1874,1,193046,240846,0.77,-1.20,9.22,-0.06,-0.02,-0.02,25.93
28971195,1922,1,192286,241300,0.24,-0.85,9.80,0.01,-0.01,-0.06,25.93
29011175,1889,1,192654,240595,0.48,-0.76,8.54,-0.05,0.07,-0.02,25.93
29049172,1854,1,192801,242788,0.57,-0.65,10.19,0.02,-0.01,-0.01,25.93
29089175,1840,1,193525,243038,0.29,-1.76,10.24,-0.00,-0.00,-0.04,25.93
29129195,1856,1,193315,243451,0.37,-0.94,9.72,0.03,-0.07,-0.01,25.93
29169175,1855,1,193355,242333,0.57,-1.19,9.53,0.02,-0.02,0.01,25.93
29210165,1851,1,193266,244000,0.35,-0.92,9.85,0.02,-0.03,-0.01,25.93
29250175,1839,1,194051,244118,0.64,-1.24,9.84,-0.01,0.02,-0.13,25.93
29290175,1846,1,193566,244376,0.81,-1.14,9.48,0.01,-0.09,-0.02,25.93
29330175,1856,1,194101,245396,0.46,-0.99,10.17,0.00,-0.02,-0.00,25.93
29370172,1873,1,194503,245348,0.11,-0.81,10.23,-0.01,-0.03,0.00,25.93
29410198,1919,1,193855,244068,0.50,-0.70,10.37,0.01,-0.10,-0.02,25.93
29450172,1956,1,193415,243825,0.33,-0.84,10.46,0.02,-0.02,-0.04,25.93
29490174,1929,1,192898,240182,0.49,-0.43,9.84,-0.03,-0.01,-0.02,25.93
29530195,1906,1,191992,241098,0.87,-0.89,10.16,0.01,-0.10,-0.03,25.93
29570175,1935,1,193021,241218,0.15,-0.97,9.95,-0.04,0.00,-0.02,25.93
29610208,1975,1,192074,239675,0.28,-1.27,8.94,0.04,-0.13,0.03,25.93
29650167,1984,1,191594,238264,0.50,-0.37,8.66,-0.02,-0.03,0.12,25.93
29690175,1933,1,191474,240195,1.05,-0.88,9.99,0.02,-0.03,0.01,25.93
29730852,1900,1,192468,241671,0.89,-0.90,9.57,-0.06,0.01,-0.07,25.91
29769172,1877,1,193201,244572,0.66,-1.38,10.80,-0.01,-0.02,-0.03,25.91
29809195,1935,1,193960,243550,0.48,-0.03,9.94,-0.04,-0.02,0.06,25.91
29849172,1926,1,193719,244528,0.58,-1.58,12.35,0.06,-0.08,-0.03,25.91
29889174,1911,1,193559,241763,0.29,-0.06,10.17,-0.08,-0.01,-0.02,25.91
29929195,1855,1,192727,241605,0.85,-0.82,11.12,0.08,-0.06,-0.12,25.91
29969175,1859,1,192709,240545,0.57,-1.05,8.44,-0.14,0.03,-0.01,25.91
30009175,1870,1,192828,242300,0.73,-0.23,10.22,0.05,-0.08,-0.03,25.91
30049174,1791,1,193621,243944,0.90,-1.47,9.92,-0.06,-0.05,-0.00,25.91
30089196,1826,1,193979,244410,0.05,-0.74,9.59,-0.03,-0.03,0.00,25.91
30129175,1866,1,193269,242025,1.03,-0.49,8.29,-0.07,-0.11,0.13,25.91
30169175,1847,1,192398,240207,1.64,-0.10,10.62,0.13,0.02,0.07,25.91
30209144,1790,1,191190,237207,1.53,0.24,8.42,-0.13,-0.01,-0.08,25.91
30250175,1792,1,191684,240228,0.83,-0.93,10.64,0.07,0.10,-0.11,25.91
30290166,1840,1,192722,241805,0.47,0.02,8.91,-0.04,-0.02,-0.09,25.91
30330172,1842,1,193019,242124,-0.01,-0.52,10.87,0.07,-0.02,0.01,25.91
30370175,1917,1,192492,240220,1.24,-0.67,8.84,-0.02,-0.07,-0.01,25.91
30410195,1877,1,192377,241605,0.77,-0.35,11.04,0.12,0.06,-0.07,25.91
30450167,1850,1,192007,240251,1.68,-0.01,9.27,-0.09,-0.09,-0.05,25.91
30488195,1858,1,192671,243318,0.22,-1.11,9.78,-0.01,0.04,-0.01,25.91
30528174,1914,1,193291,242562,1.05,0.34,8.47,-0.06,-0.02,-0.06,25.91
30568175,1901,1,193278,243687,0.68,-0.33,11.48,0.17,-0.05,0.01,25.91
30608167,1906,1,193220,241718,0.42,-0.67,10.07,-0.03,-0.00,0.02,25.91
30648172,1918,1,192548,241894,0.19,-1.24,9.63,-0.03,-0.02,-0.03,25.91
30688195,1885,1,193017,242220,0.81,-1.60,10.55,-0.01,0.07,-0.02,25.91
30728175,1889,1,193382,244406,0.28,-1.48,11.07,-0.01,-0.01,-0.01,25.91
30768881,1927,1,194265,245514,0.35,-1.41,10.64,-0.09,0.00,-0.05,25.97
30809175,1952,1,194431,245731,-0.15,-1.09,10.78,-0.00,-0.06,0.00,25.97
30849195,1909,1,194186,244095,0.71,-0.74,10.69,-0.07,-0.01,-0.03,25.97
30889195,1910,1,193629,243440,0.75,-1.04,10.67,-0.05,-0.01,-0.08,25.97
30929195,1890,1,193426,242703,0.51,-0.30,9.52,-0.10,-0.01,-0.13,25.97
30969195,1857,1,193738,244308,0.15,-1.48,11.19,-0.01,0.01,-0.06,25.97
31009174,1867,1,193534,241536,-0.07,-0.76,8.32,-0.12,-0.01,-0.08,25.97
31049216,1929,1,192321,240524,0.76,-1.56,10.35,0.01,-0.12,-0.03,25.97
31089175,1915,1,191516,237742,0.77,-0.15,7.40,-0.09,-0.05,0.05,25.97
31129172,1810,1,191204,238954,0.80,-1.47,10.43,-0.02,0.01,0.11,25.97
31169166,1813,1,191298,238675,0.86,-1.05,7.76,-0.12,-0.01,-0.03,25.97
31209195,1783,1,192698,242665,0.20,-2.10,10.30,-0.00,0.06,-0.01,25.97
31250175,1905,1,192732,240928,0.75,0.03,8.29,-0.06,-0.11,0.02,25.97
31288163,1957,1,192617,241541,0.49,-1.14,11.13,0.09,-0.02,0.18,25.97
31328166,1953,1,192298,240668,0.14,-1.39,8.87,-0.05,0.01,-0.02,25.97
31368175,1892,1,193007,243117,0.58,-1.05,12.68,0.08,0.10,-0.02,25.97
31408167,1934,1,192910,243517,0.45,-0.40,7.94,-0.12,-0.04,-0.05,25.97
31448210,1745,1,194117,245222,0.56,-1.96,13.02,0.07,0.02,-0.03,25.97
31488167,1909,1,193157,243292,0.35,-0.52,7.81,-0.11,-0.12,-0.05,25.97
31528195,1836,1,193347,243006,0.77,-1.17,11.71,0.04,0.04,-0.02,25.97
31568166,1878,1,191966,238793,0.84,0.39,8.17,-0.11,-0.07,-0.06,25.97
31608175,1840,1,192315,241640,1.20,0.12,13.96,0.12,0.04,-0.03,25.97
31648143,1951,1,192234,241285,0.78,0.35,9.18,-0.05,-0.12,-0.03,25.97
31688175,1843,1,193039,243722,0.33,-1.14,11.20,0.04,0.03,-0.01,25.97
31728166,1926,1,193064,242509,0.31,0.08,9.45,-0.04,-0.03,-0.03,25.97
31768172,1902,1,192778,242189,0.13,-1.06,10.53,0.03,-0.03,0.00,25.97
31808852,1948,1,192312,240668,0.78,-0.74,9.40,-0.05,0.00,-0.04,25.91
31849172,1867,1,192343,241171,0.33,-0.65,10.50,0.03,0.00,-0.04,25.91
31889167,1843,1,192188,241178,0.93,-0.02,9.53,-0.00,-0.12,-0.03,25.91
31927192,1936,1,192947,243090,0.35,-0.94,10.15,0.02,-0.05,-0.06,25.91
31967174,1979,1,192706,241343,0.84,-0.45,8.41,-0.01,-0.16,-0.06,25.91
32007195,1959,1,192426,241217,1.05,-0.08,10.83,0.12,-0.01,0.11,25.91
32047167,1881,1,191909,238287,0.34,0.39,8.21,-0.00,0.02,0.05,25.91
32087143,1897,1,191054,238510,0.56,-1.48,9.52,0.04,-0.04,-0.01,25.91
32127175,1883,1,191402,238684,0.79,-0.88,9.06,-0.03,0.01,-0.11,25.91
32167175,1850,1,191680,239459,0.50,-1.29,8.98,0.01,-0.04,-0.14,25.91
32207175,1831,1,191996,239943,0.84,-0.33,9.33,-0.03,-0.02,-0.08,25.91
32247195,1841,1,192942,242299,-0.28,-0.76,10.13,0.03,0.01,0.02,25.91
32288167,1845,1,192634,239445,0.61,0.55,9.38,-0.01,-0.03,0.05,25.91
32328163,1851,1,191753,240307,0.63,-0.80,11.19,0.09,0.01,0.04,25.91
32368144,1775,1,192148,240045,0.79,0.41,9.88,-0.06,0.04,-0.12,25.91
32408166,1778,1,192654,242276,0.05,-1.19,10.74,0.01,-0.01,-0.03,25.91
32448175,1814,1,192582,241225,0.77,-0.36,9.56,-0.06,-0.06,-0.01,25.91
32488195,1817,1,192350,241923,0.27,-0.60,10.58,-0.02,-0.02,0.02,25.91
32528175,1808,1,192341,240387,0.17,-0.06,8.93,-0.09,0.04,-0.02,25.91
32568172,1829,1,192026,240603,0.71,-0.39,10.52,-0.04,-0.01,-0.04,25.91
32608195,1879,1,191786,239344,0.77,-0.38,9.38,-0.09,-0.00,-0.05,25.91
32648192,1933,1,191326,238246,0.80,-0.83,10.23,-0.01,-0.02,-0.03,25.91
32688195,1919,1,191145,238037,-0.14,-0.82,9.49,-0.04,0.02,0.03,25.91
32728175,1840,1,191945,240619,0.22,-1.54,10.87,-0.03,0.07,-0.02,25.91
32768175,1851,1,192224,240614,0.38,-0.75,9.13,-0.10,-0.03,-0.04,25.91
32808882,1863,1,192436,241685,0.44,-1.30,11.20,-0.03,-0.00,-0.03,25.87
32847195,1919,1,191825,237742,0.71,0.41,8.69,-0.12,-0.03,-0.05,25.87
32887218,1942,1,191400,239147,0.58,-0.64,10.79,-0.03,0.04,-0.03,25.87
32927175,1927,1,191281,236597,0.59,0.34,8.59,-0.12,0.05,-0.06,25.87
32967166,1915,1,190919,237176,0.12,-1.27,10.30,-0.02,0.07,-0.01,25.87
33007174,1927,1,190708,235704,0.33,-0.28,8.86,-0.08,0.05,0.00,25.87
33047162,1904,1,191004,239077,0.37,-0.64,11.28,0.01,0.00,-0.01,25.87
33087182,1871,1,191283,237968,0.91,-0.41,8.44,-0.14,0.02,-0.07,25.87
33127175,1947,1,191340,238441,-0.03,-1.02,8.99,-0.05,0.10,-0.03,25.87
33167195,1904,1,191064,236923,0.43,-0.78,9.06,-0.05,0.08,-0.02,25.87
33207172,1871,1,191476,239439,0.02,-0.80,11.32,0.01,0.10,-0.02,25.87
33247166,1840,1,191870,240222,0.14,-0.86,9.97,-0.06,0.02,-0.10,25.87
33287175,1810,1,192644,242297,0.37,-0.87,12.03,0.04,0.04,-0.04,25.87
33327166,1805,1,192875,242835,0.10,-1.39,9.80,-0.07,-0.00,-0.04,25.87
33367192,1783,1,193218,242780,-0.02,-0.36,10.51,-0.01,-0.01,-0.01,25.87
33407212,1856,1,192734,242612,0.60,-0.73,10.73,-0.05,-0.02,-0.04,25.87
33447192,1852,1,192638,240979,0.41,-0.63,10.04,-0.05,-0.04,-0.04,25.87
33487195,1895,1,191830,239812,0.14,-0.77,9.33,-0.07,-0.01,-0.04,25.87
33527195,1918,1,192583,240991,0.61,-0.31,11.29,0.00,-0.02,-0.12,25.87
33567175,1951,1,192314,240423,0.09,-0.17,10.13,-0.04,-0.05,-0.04,25.87
33607195,2001,1,191917,239116,0.19,-0.23,9.32,-0.06,-0.02,-0.04,25.87
33647195,1982,1,191446,238522,0.87,-0.47,10.34,-0.04,-0.00,-0.05,25.87
33687195,1933,1,191298,239971,0.81,0.32,9.71,-0.05,-0.07,-0.07,25.87
33727175,1871,1,192567,242103,0.42,-1.06,9.52,-0.04,0.05,-0.14,25.87
33767175,1899,1,192773,242649,0.36,-0.45,9.39,-0.04,-0.05,-0.06,25.87
33807195,1907,1,193382,242525,0.16,-1.25,11.51,0.03,0.03,0.03,25.87
33847832,1968,1,192456,242371,0.82,0.14,9.77,0.01,-0.17,-0.04,25.97
33886167,1922,1,193021,242567,0.44,-1.27,10.19,-0.04,0.06,-0.07,25.97
33926175,1995,1,192131,242056,0.54,-0.46,8.21,-0.06,-0.12,-0.07,25.97
33966195,1833,1,192722,241563,0.60,-0.46,10.18,-0.00,0.04,-0.04,25.97
34006172,1931,1,192215,242664,0.89,-0.08,9.34,0.00,-0.14,-0.04,25.97
34046175,1872,1,193223,242496,0.07,-1.06,10.79,0.01,0.04,-0.03,25.97
34086163,1948,1,192332,241270,0.03,-0.32,8.65,0.02,-0.13,-0.12,25.97
34126175,1863,1,191492,237639,1.34,-1.07,9.72,-0.01,-0.01,-0.00,25.97
34166196,1895,1,191747,241098,0.23,-0.63,10.19,0.00,0.11,-0.04,25.97
34206167,1808,1,192980,241137,0.75,0.16,10.33,0.04,-0.02,-0.26,25.97
34246166,1723,1,193434,244049,0.28,-1.21,11.78,0.06,-0.04,-0.09,25.97
34286175,1702,1,193040,239963,0.67,-1.21,11.31,0.02,-0.07,0.02,25.97
34326166,1743,1,191418,238084,0.34,-0.42,9.18,0.05,-0.12,0.12,25.97
34366166,1754,1,191058,235650,0.88,-2.24,8.33,-0.08,-0.05,0.14,25.97
34406175,1829,1,189931,234515,0.32,-0.68,5.42,0.10,-0.11,0.38,25.97
34446166,1809,1,190279,234671,0.49,-0.86,9.37,-0.07,0.26,-0.07,25.97
34486175,1766,1,190702,239610,0.59,-1.13,9.32,0.05,-0.20,-0.06,25.97
34526203,1678,1,193109,242780,0.91,0.89,10.38,-0.05,0.01,-0.25,25.97
34566166,1777,1,192477,240458,1.19,0.08,7.47,-0.05,-0.21,0.15,25.97
34606167,1733,1,191819,239633,1.51,0.31,11.31,0.02,0.10,0.13,25.97
34646124,1811,1,191415,235648,2.23,1.16,7.31,-0.06,0.07,-0.01,25.97
34686165,1631,1,190375,236028,0.58,-0.86,12.77,0.13,-0.07,-0.00,25.97
34726192,1752,1,191115,236688,0.27,0.16,10.78,-0.07,0.20,0.01,25.97
34766143,1797,1,191493,240031,0.12,-0.41,12.59,0.08,-0.13,-0.03,25.97
34806175,1790,1,192584,239645,0.79,0.12,10.89,-0.07,0.01,-0.13,25.97
34846167,1895,1,192397,240021,0.68,0.19,10.21,-0.03,-0.12,0.13,25.97
34886852,1942,1,192572,237109,0.94,-0.78,9.56,-0.16,0.03,0.02,25.91
34925166,1951,1,191833,236303,0.95,-0.28,10.31,0.04,-0.00,0.02,25.91
34965165,1958,1,192651,238048,0.91,-0.16,12.30,-0.09,0.07,-0.01,25.91
35005175,1991,1,192651,240710,0.84,-0.21,8.94,-0.05,-0.28,0.00,25.91
35045175,1983,1,193788,239456,1.13,-0.94,9.37,-0.13,0.00,-0.00,25.91
35085175,2089,1,192407,236257,-0.39,-1.07,7.00,-0.13,-0.09,0.16,25.91
35125196,1981,1,192516,235938,2.46,0.05,11.21,0.09,-0.00,0.05,25.91
35165144,2103,1,192543,234561,-0.22,-0.06,5.99,-0.20,0.03,0.08,25.91
35205172,2141,1,192921,236173,2.31,-0.59,10.73,0.15,0.04,-0.24,25.91
35245166,2201,1,193448,238209,1.22,-0.39,9.09,-0.08,0.06,-0.28,25.91
35285175,2146,1,193652,240879,1.04,-1.78,10.18,0.00,0.00,-0.17,25.91
35325167,2163,1,194380,242754,0.19,0.59,9.75,0.03,-0.00,-0.07,25.91
35365163,2213,1,194654,244248,0.24,-0.17,10.61,0.03,0.03,0.06,25.91
35405143,2154,1,194219,243404,1.00,-0.71,9.79,-0.06,-0.01,0.03,25.91
35445172,2087,1,194100,243832,1.03,-0.55,10.01,0.02,0.03,-0.01,25.91
35485166,2019,1,193926,243156,0.61,1.00,9.69,-0.10,0.11,-0.25,25.91
35525167,1981,1,194250,243536,0.97,-1.47,12.37,0.06,0.03,-0.18,25.91
35565166,1975,1,194305,244050,-0.05,0.59,10.01,-0.11,-0.04,-0.07,25.91
35605195,1931,1,194752,245373,0.82,-1.45,12.76,0.01,-0.01,0.01,25.91
35645167,1919,1,194153,243288,0.34,-0.34,7.78,-0.21,-0.01,0.07,25.91
35685175,1865,1,194253,244106,0.82,-1.53,13.01,0.10,0.06,-0.01,25.91
35725166,1842,1,193578,242252,1.13,0.39,8.84,-0.16,-0.08,-0.04,25.91
35765178,1781,1,193812,243239,0.66,-0.66,12.66,0.08,0.05,-0.09,25.91
35805166,1867,1,193649,243833,0.60,-0.31,8.93,-0.12,-0.04,-0.00,25.91
35845192,1904,1,194319,244222,0.80,-0.73,11.82,0.01,-0.02,-0.08,25.91
35885175,1955,1,193401,243440,1.10,-0.82,7.62,-0.21,-0.24,-0.02,25.91
35925882,1914,1,193867,243407,0.12,-1.03,11.32,0.03,0.17,-0.01,25.67
35966167,1930,1,192462,240440,0.78,-0.18,6.83,-0.14,-0.14,-0.02,25.67
36006195,1854,1,192817,242845,0.92,-0.28,11.62,0.08,0.08,-0.03,25.67
36046166,1895,1,192987,243566,0.68,-0.58,7.55,-0.16,-0.04,-0.05,25.67
36084195,1890,1,194719,246653,0.77,0.02,11.07,0.09,-0.00,-0.20,25.67
36124166,1853,1,195541,248108,0.84,-1.21,9.57,-0.04,-0.04,-0.10,25.67
36164231,1591,1,196544,248260,-0.23,-0.81,9.54,-0.08,-0.01,-0.06,25.67
36204212,1444,1,195660,246407,0.45,-1.05,9.83,0.05,-0.05,0.02,25.67
36244163,1373,1,195637,248662,0.89,-0.20,10.74,-0.01,-0.09,-0.03,25.67
36284195,1359,1,196553,247323,0.71,-0.87,9.87,-0.07,0.07,-0.17,25.67
36324175,1390,1,196181,247218,-0.01,-0.37,10.48,0.05,-0.01,0.01,25.67
36364219,1414,1,196066,246009,0.38,-0.76,11.78,0.02,0.02,0.02,25.67
36404143,1515,1,195058,247403,0.64,-1.26,10.48,-0.02,-0.12,-0.01,25.67
36444195,1581,1,194886,245267,0.40,-1.24,10.97,-0.07,0.03,-0.02,25.67
36484175,1665,1,193705,244688,0.15,-1.30,10.63,0.00,-0.06,0.10,25.67
36524176,1702,1,193772,243832,0.12,-0.77,10.83,-0.06,0.02,0.01,25.67
36564166,1726,1,193207,243446,0.14,-1.34,10.41,0.04,-0.08,-0.01,25.67
36604175,1786,1,192909,242205,0.41,-0.79,9.59,-0.01,-0.06,-0.03,25.67
36644195,1935,1,192512,242532,0.20,-0.07,8.94,-0.03,-0.07,-0.03,25.67
36684195,1969,1,192958,243960,0.81,-0.90,8.89,-0.08,0.01,-0.04,25.67
36724172,1986,1,194108,245630,0.10,-1.09,9.44,-0.04,0.08,-0.06,25.67
36764175,1959,1,194100,244416,1.00,-1.01,9.69,-0.01,-0.06,-0.04,25.67
36804192,1968,1,193566,244076,-0.07,-1.94,8.91,-0.06,-0.02,0.08,25.67
36844195,1917,1,193117,242069,1.44,-1.00,9.96,0.03,-0.11,0.02,25.67
36884166,1939,1,192025,239999,-0.68,-1.34,7.19,-0.14,0.01,0.07,25.67
36924175,1938,1,192250,241805,1.39,-0.25,10.37,0.01,0.05,-0.02,25.67
36964853,1872,1,192826,241905,0.45,0.31,8.43,-0.11,0.01,-0.00,26.03
37005166,1856,1,193672,243023,0.51,-0.22,11.68,0.09,0.02,0.03,26.03
37045143,1904,1,193764,245153,0.23,-0.25,9.22,-0.14,-0.01,0.13,26.03
37085174,1905,1,194640,245286,0.65,-0.76,12.64,0.00,0.00,-0.01,26.03
37125162,2026,1,192996,241668,1.16,0.01,7.87,-0.19,-0.16,0.04,26.03
37165166,2026,1,191744,238812,0.81,-0.01,10.74,0.03,0.17,-0.04,26.03
37205166,2101,1,190910,237705,0.54,-0.45,8.48,-0.07,0.10,0.04,26.03
37245166,2126,1,192440,243037,0.47,-0.88,13.74,0.09,0.10,-0.19,26.03
37285166,2011,1,193549,244375,-0.18,-0.66,8.58,-0.31,-0.08,-0.11,26.03
37325212,1885,1,194327,246226,-0.17,-0.67,12.49,0.03,-0.00,-0.00,26.03
37365192,2007,1,193222,242999,0.80,0.97,8.93,-0.15,-0.11,0.12,26.03
37403166,2103,1,192996,244266,0.80,-0.63,12.08,0.12,0.02,-0.11,26.03
37443165,2178,1,192992,242048,0.17,-1.11,9.56,-0.31,0.15,-0.07,26.03
37483175,2154,1,192042,240854,-0.08,-0.86,9.90,0.04,0.06,-0.02,26.03
37523172,2112,1,192451,242501,1.19,-0.47,12.11,0.00,0.06,-0.02,26.03
37563166,2173,1,192804,242940,0.06,-2.49,9.16,-0.17,-0.06,-0.03,26.03
37603195,2219,1,192693,242200,0.33,0.17,9.26,-0.10,-0.08,-0.03,26.03
37643175,2263,1,192359,241909,0.96,-1.75,10.23,0.16,0.06,0.10,26.03
37683144,2192,1,192685,242057,-0.20,-0.71,10.16,-0.03,0.06,-0.00,26.03
37723195,2128,1,192109,239804,0.57,-1.62,10.68,-0.08,-0.07,0.03,26.03
37763175,2107,1,191561,239055,-0.42,-1.21,8.09,-0.07,-0.01,0.04,26.03
37803207,2101,1,191003,236864,1.15,0.50,8.46,-0.02,-0.06,-0.05,26.03
37843175,2138,1,190746,239276,0.53,-1.63,9.90,-0.01,0.16,-0.17,26.03
37883174,1867,1,192235,241074,1.67,-0.08,9.45,0.01,0.00,-0.16,26.03
37923166,1735,1,194125,245711,0.28,-1.02,9.43,-0.08,0.08,-0.22,26.03
37963174,1665,1,195492,246020,0.38,-1.54,9.51,-0.01,-0.02,-0.04,26.03
38003882,1662,1,195401,246851,-0.19,-0.78,10.07,0.01,-0.01,0.00,26.17
38044174,1687,1,195101,244479,0.03,-0.72,10.93,0.06,0.00,0.02,26.17
38084143,1651,1,193814,243643,-0.44,-0.49,10.26,-0.09,-0.06,0.08,26.17
38124195,1664,1,194734,244098,0.35,-1.69,11.52,0.03,0.07,-0.00,26.17
38164166,1600,1,193953,243676,0.35,-0.69,8.72,-0.11,-0.07,0.08,26.17
38204174,1573,1,195740,246633,0.52,-1.06,12.73,0.07,0.02,-0.15,26.17
38244166,1647,1,194859,246270,-0.05,-0.05,9.18,-0.22,-0.15,-0.03,26.17
38284212,1717,1,195083,244978,0.42,-0.26,11.53,0.02,0.10,-0.07,26.17
38324166,1759,1,193594,242686,1.16,0.00,7.54,-0.09,-0.08,-0.02,26.17
38364175,1808,1,194701,246348,0.45,-0.42,12.55,0.06,0.16,-0.08,26.17
38404166,1945,1,195665,247694,0.79,-0.34,10.12,-0.14,-0.02,-0.15,26.17
38444196,1882,1,196863,249039,0.07,-0.77,11.94,0.01,-0.04,-0.15,26.17
38484175,1882,1,195366,245937,0.05,-0.94,9.78,-0.19,-0.05,0.13,26.17
38524191,1879,1,195090,246375,-0.41,-0.99,12.07,0.01,0.02,-0.02,26.17
38564175,1713,1,193896,242976,0.99,0.08,9.85,-0.16,-0.05,-0.05,26.17
38604174,1786,1,193345,243552,0.00,-0.52,11.11,-0.00,0.11,-0.12,26.17
38644175,1806,1,192729,239760,0.72,-0.40,8.46,-0.19,0.01,-0.03,26.17
38684175,1823,1,192294,242698,0.91,-0.99,9.66,0.03,0.06,-0.15,26.17
38724166,1729,1,193506,241896,0.80,-0.32,8.52,-0.14,0.04,-0.05,26.17
38764174,1670,1,193355,243940,0.42,-1.01,10.01,-0.04,-0.02,-0.03,26.17
38804195,1737,1,193331,242945,0.98,-0.94,9.55,-0.10,-0.07,-0.00,26.17
38844195,1837,1,193477,245403,0.42,-1.68,9.87,-0.06,0.03,-0.02,26.17
38882175,1873,1,194614,245174,0.46,-1.06,10.44,-0.09,0.04,-0.07,26.17
38922175,1894,1,193772,244088,0.55,-1.06,9.52,-0.05,-0.07,-0.02,26.17
38962195,1925,1,193764,244709,0.30,-0.86,10.48,-0.02,0.05,-0.00,26.17
39002175,1858,1,193414,242235,0.33,0.02,9.43,-0.08,0.01,-0.01,26.17
39042848,1863,1,192687,242402,-0.22,-1.21,9.31,-0.08,0.06,0.02,26.21
39083175,1917,1,193044,241603,0.17,-0.20,10.27,-0.04,0.13,-0.03,26.21
39123175,1879,1,192299,241779,0.26,-0.62,9.67,-0.01,-0.03,0.01,26.21
39163174,1938,1,192741,241659,0.40,-0.41,10.77,-0.03,0.08,-0.01,26.21
39203172,2007,1,191877,240074,0.69,-1.31,9.61,-0.06,-0.06,-0.00,26.21
39243195,1999,1,191741,238518,0.06,-0.42,8.87,-0.10,0.04,-0.02,26.21
39283172,2063,1,191392,238671,0.51,-1.15,10.64,0.05,0.03,-0.01,26.21
39323166,2015,1,191786,239188,-0.07,-0.58,10.55,-0.03,0.03,-0.07,26.21
39363195,2003,1,191135,238768,-0.28,-1.84,8.46,-0.08,-0.06,-0.02,26.21
39403212,2011,1,191748,240779,0.24,-1.10,9.79,-0.04,-0.00,-0.03,26.21
39443226,2018,1,192043,241477,0.14,-1.13,8.37,-0.08,-0.09,-0.07,26.21
39483195,2000,1,192786,242546,-0.03,-1.07,9.61,-0.01,0.01,-0.02,26.21
39523192,2030,1,192479,242088,-0.07,-1.06,8.62,-0.06,-0.08,0.04,26.21
39563195,2053,1,192435,242078,0.28,-0.14,10.18,0.02,0.04,0.04,26.21
39603143,2030,1,191970,240912,0.25,-0.40,8.51,-0.05,-0.06,0.09,26.21
39643212,1982,1,192111,242038,0.57,0.47,11.03,0.05,0.06,0.01,26.21
39683124,1991,1,192142,241245,0.58,0.82,9.57,-0.07,-0.07,-0.01,26.21
39723175,2054,1,191994,241833,0.17,0.36,9.54,0.01,0.08,0.06,26.21
39763124,1929,1,192577,243243,0.39,0.34,10.44,0.04,0.09,0.01,26.21
39803124,1845,1,193265,245287,0.08,0.27,10.41,-0.04,0.05,-0.01,26.21
39843162,1883,1,193863,245749,0.22,-0.40,10.85,-0.00,0.04,0.02,26.21
39883166,1920,1,193810,245829,-0.16,-0.87,11.36,0.03,0.00,0.03,26.21
39923166,1898,1,193719,244294,-0.39,0.56,10.32,-0.03,0.01,0.06,26.21
39963166,1909,1,193355,244774,0.03,-0.55,11.94,0.05,-0.11,0.00,26.21
40003162,1889,1,193509,243847,-0.84,0.38,9.85,-0.10,0.04,-0.01,26.21
40043861,1840,1,192673,242933,0.19,-0.84,9.37,0.06,-0.25,0.01,26.09
40082166,1813,1,193126,244298,-0.41,-0.17,10.24,-0.02,0.09,0.01,26.09
40122174,1793,1,193331,244598,-0.40,-0.32,9.45,-0.07,-0.08,-0.03,26.09
40162223,1838,1,193718,246019,0.02,0.13,11.35,-0.01,-0.01,-0.02,26.09
40202174,1873,1,193687,244878,-0.33,-0.10,9.67,-0.04,-0.10,0.03,26.09
40242192,1887,1,193457,244890,0.25,-0.57,10.58,0.03,-0.07,0.04,26.09
40283166,1913,1,193077,242557,-0.27,0.29,8.33,-0.11,-0.04,-0.01,26.09
40321195,1891,1,192320,242528,0.26,-0.66,9.07,0.02,-0.02,-0.06,26.09
40361175,1837,1,193028,244344,-0.05,0.34,10.77,-0.02,0.05,-0.11,26.09
40401175,1801,1,193887,246667,0.09,-0.78,11.59,-0.00,-0.06,-0.14,26.09
40441195,1694,1,194516,246960,-0.61,0.33,9.89,-0.16,-0.07,-0.05,26.09
40481195,1671,1,194053,246031,0.20,-0.10,10.43,0.04,-0.16,0.16,26.09
40521166,1648,1,193363,244131,-0.91,-0.09,7.80,-0.12,-0.12,0.38,26.09
40561195,1698,1,192809,240709,0.81,0.37,10.66,-0.04,0.06,0.29,26.09
40601143,1826,1,191489,238364,0.26,0.25,7.87,-0.23,-0.05,-0.00,26.09
40641175,1856,1,192253,240298,0.33,0.29,9.43,-0.01,0.13,-0.08,26.09
40681167,1904,1,192529,242139,1.20,1.45,9.67,-0.07,-0.04,0.00,26.09
40721162,1949,1,193794,244318,1.07,0.60,10.13,-0.07,0.14,-0.17,26.09
40761167,2000,1,194071,245432,0.43,0.40,9.68,-0.12,0.02,-0.21,26.09
40801166,1962,1,194317,245658,0.38,-1.92,12.11,0.07,0.01,-0.13,26.09
40841167,1945,1,193857,244634,0.57,0.71,10.57,-0.11,-0.03,-0.08,26.09
40881175,1946,1,193664,243705,-0.20,-3.02,9.85,-0.08,0.08,-0.01,26.09
40921195,1888,1,192886,241695,0.46,0.31,9.40,-0.07,-0.00,-0.01,26.09
40961172,1999,1,192923,242922,-0.98,-2.55,10.13,-0.07,-0.03,0.03,26.09
41001195,1995,1,192675,242375,1.02,1.20,8.99,-0.12,-0.12,0.09,26.09
41041165,2096,1,192604,242504,0.14,-1.27,9.13,-0.05,0.03,0.14,26.09
41081864,1878,1,192466,241850,1.09,0.72,9.05,-0.11,0.01,0.06,26.23
41122143,1967,1,192682,242918,0.61,-1.26,10.27,-0.01,0.10,0.02,26.23
41162167,1807,1,192933,243961,0.57,-0.16,7.91,-0.12,-0.00,-0.01,26.23
41202195,1853,1,194192,245740,0.51,-0.32,10.81,-0.02,0.09,0.00,26.23
41242166,1879,1,194541,245839,0.37,-0.51,9.64,-0.09,0.04,-0.02,26.23
41282207,1902,1,193982,242129,0.10,-0.66,10.90,-0.05,0.07,0.01,26.23
41322166,1926,1,192570,240170,0.45,-1.44,9.92,-0.04,0.03,0.02,26.23
41362166,1867,1,192068,238397,-0.14,-0.09,9.69,-0.07,0.05,0.02,26.23
41402175,1975,1,191314,237107,-0.36,-1.37,9.98,-0.01,0.06,0.07,26.23
41442175,1938,1,190505,235566,0.28,-1.17,8.35,-0.16,-0.02,0.05,26.23
41482175,1930,1,190387,235469,-0.53,-1.38,10.57,0.05,0.06,0.07,26.23
41522167,1895,1,189929,234259,0.71,-0.55,9.10,-0.11,-0.02,0.07,26.23
41562175,1866,1,190288,236673,-0.42,-2.51,11.46,-0.02,0.10,0.05,26.23
41602175,1839,1,190879,236075,0.38,-0.87,8.72,-0.14,-0.03,0.01,26.23
41642175,1854,1,190992,238199,0.14,-2.41,12.08,0.02,0.00,0.00,26.23
41682143,1844,1,191233,237227,-0.39,-1.45,8.88,-0.14,0.04,-0.02,26.23
41720195,1874,1,191352,239474,-0.08,-1.53,10.87,-0.01,-0.04,-0.03,26.23
41760208,1870,1,192345,241214,0.06,-1.66,9.89,-0.11,0.03,-0.17,26.23
41800175,1901,1,193462,243493,-0.22,-0.91,12.19,0.04,-0.02,-0.14,26.23
41840195,1881,1,194242,244318,-0.19,-1.82,12.13,-0.09,0.02,-0.14,26.23
41880195,1891,1,193839,242666,-0.54,-1.39,11.58,-0.04,-0.05,0.03,26.23
41920195,1959,1,192766,240941,0.40,-2.24,11.44,-0.09,-0.04,0.13,26.23
41960175,1953,1,191738,236599,-0.08,-1.84,9.93,-0.09,-0.08,0.04,26.23
42000195,1984,1,190356,234569,-0.29,-1.86,8.97,-0.16,-0.02,0.19,26.23
42040195,1981,1,190708,237043,-0.12,-2.75,11.05,0.04,0.01,0.07,26.23
42080166,1856,1,191791,240313,0.19,-1.69,10.19,-0.08,-0.01,-0.01,26.23
42120882,1813,1,193460,244203,0.01,-2.22,11.65,-0.03,-0.02,-0.16,26.21
42161195,1808,1,194591,246597,-0.48,-2.17,10.12,-0.08,-0.08,-0.17,26.21
42201211,1793,1,195441,247590,-0.42,-2.00,11.29,-0.03,-0.05,-0.10,26.21
42241208,1856,1,195204,247413,-0.20,-1.94,9.49,-0.13,0.00,-0.05,26.21
42281195,1889,1,194873,244763,-0.34,-2.38,10.02,-0.04,-0.05,-0.00,26.21
42321208,2007,1,194057,244763,0.19,-2.45,9.80,0.02,-0.05,0.01,26.21
42361166,2033,1,194448,244182,-0.44,-1.37,8.93,0.01,-0.06,-0.01,26.21
42401195,2045,1,193949,244508,0.11,-3.01,8.61,-0.05,-0.02,0.00,26.21
42441174,1985,1,194959,245924,-0.23,-2.23,8.99,0.02,-0.05,0.00,26.21
42481175,1841,1,195129,246856,0.14,-1.82,9.00,0.01,-0.08,-0.01,26.21
42521175,1862,1,195683,246784,-0.52,-1.96,8.30,-0.05,-0.04,-0.01,26.21
42561208,1821,1,195137,246657,0.76,-2.06,8.89,-0.01,-0.09,-0.04,26.21
42601195,1773,1,195923,246739,-0.23,-1.49,9.49,0.03,0.02,-0.14,26.21
42641175,1815,1,194292,242714,0.33,-0.60,8.20,-0.04,-0.01,-0.05,26.21
42681195,1817,1,194431,244312,0.30,-1.98,10.26,0.07,0.03,-0.03,26.21
42721175,1847,1,194515,244497,0.52,-0.84,8.12,-0.03,0.03,-0.07,26.21
42761174,1840,1,195476,245062,0.14,-1.48,11.26,0.06,0.01,-0.04,26.21
42801166,1910,1,194843,245904,0.10,-1.24,8.44,-0.03,-0.03,-0.05,26.21
42841195,1859,1,195640,246012,0.20,-1.02,10.85,0.05,0.04,-0.10,26.21
42881162,1887,1,194979,246349,0.06,-1.32,9.65,-0.01,-0.01,-0.04,26.21
42921201,1872,1,195220,247179,0.14,-1.13,10.83,-0.01,0.00,-0.04,26.21
42961175,1857,1,196600,250401,0.02,-2.17,13.67,0.07,0.03,-0.20,26.21
43001167,1944,1,196590,249796,-0.54,-0.56,9.17,-0.15,0.01,-0.20,26.21
43041195,1884,1,196320,249909,-0.40,-1.97,13.85,-0.02,0.05,-0.14,26.21
43081196,2013,1,195303,248015,0.17,-0.51,10.18,-0.12,-0.04,-0.08,26.21
43119881,1968,1,195057,248721,0.69,-1.03,12.90,-0.02,-0.05,-0.03,26.23
43160195,2025,1,194785,247109,0.07,-0.98,9.25,-0.16,-0.01,-0.04,26.23
43200195,2002,1,194374,246425,0.60,-0.65,9.64,-0.06,-0.07,-0.04,26.23
43240195,1965,1,194224,245821,-0.01,-1.81,8.85,-0.08,-0.00,-0.03,26.23
43280208,2057,1,194023,246562,1.00,-0.73,8.48,-0.05,-0.16,-0.03,26.23
43320195,1878,1,194953,247565,0.68,-2.22,9.43,-0.07,-0.01,-0.04,26.23
43359195,1936,1,194779,247134,0.40,-0.97,7.21,-0.12,-0.12,-0.09,26.23
43399195,1806,1,194516,245416,0.91,-1.32,8.99,-0.04,-0.03,-0.05,26.23
43439195,1923,1,193627,244484,0.82,-1.52,7.26,-0.05,-0.08,-0.04,26.23
43479195,1823,1,194281,245743,0.71,-1.41,10.03,0.02,0.04,-0.01,26.23
43519166,1825,1,195021,247757,0.35,-1.80,8.04,-0.01,0.04,-0.08,26.23
43559175,1840,1,196163,247892,0.38,-0.79,9.50,0.01,0.02,-0.09,26.23
43599163,1920,1,195321,246712,0.68,-0.90,8.52,0.02,-0.03,-0.02,26.23
43639174,1920,1,195417,247736,0.75,-1.11,9.95,0.08,0.01,-0.02,26.23
43679166,1904,1,195744,246956,0.35,-0.10,10.19,0.07,0.02,-0.01,26.23
43719166,1930,1,195240,247302,0.28,-1.13,9.87,0.05,-0.01,-0.01,26.23
43759175,1927,1,195783,248519,0.75,-0.74,11.56,0.07,0.03,-0.06,26.23
43799167,1931,1,195689,248493,0.59,-1.18,10.92,0.06,-0.04,-0.01,26.23
43839175,1898,1,196013,250056,0.88,-0.64,11.02,0.04,0.01,-0.02,26.23
43879167,1873,1,196571,250212,0.51,-0.23,12.27,0.05,-0.05,-0.01,26.23
43919175,1838,1,196308,250141,0.19,-1.44,11.24,-0.01,-0.03,-0.09,26.23
43959196,1846,1,196121,249656,0.61,-0.65,12.52,0.02,-0.03,-0.03,26.23
43999175,1782,1,195523,249523,0.98,-0.85,11.68,-0.03,-0.07,-0.05,26.23
44039195,1794,1,195600,248190,0.36,-1.44,11.94,-0.07,0.04,-0.04,26.23
44079175,1904,1,193961,244480,0.76,-1.25,9.45,-0.04,-0.24,-0.10,26.23
44119195,1910,1,193185,242442,1.10,-1.28,10.16,-0.04,-0.06,0.01,26.23
44159861,1872,1,192461,241309,0.90,-1.02,8.65,-0.07,-0.11,-0.07,26.27
44200195,1855,1,192376,240565,1.21,-1.20,8.32,-0.08,-0.01,-0.01,26.27
44240195,1873,1,191991,240210,0.96,-0.43,8.57,-0.04,-0.03,0.01,26.27
44280174,1887,1,191833,239549,1.24,-1.06,7.98,-0.05,-0.04,0.07,26.27
44320175,1934,1,191837,240447,1.44,-1.42,8.81,-0.02,-0.01,0.10,26.27
44360180,1895,1,192157,240298,1.53,-0.58,7.80,-0.05,-0.04,0.08,26.27
44400172,1936,1,192576,242448,1.01,-0.90,9.01,-0.01,0.06,0.04,26.27
44440166,1931,1,192799,241377,0.92,-1.28,7.11,-0.10,0.02,0.01,26.27
44480165,1923,1,192328,240651,1.16,-0.32,9.25,0.03,0.01,0.16,26.27
44520143,1905,1,192206,240619,1.25,-1.02,9.29,0.00,0.05,0.03,26.27
44558172,1921,1,192344,241293,1.21,-0.57,10.18,0.02,0.03,0.01,26.27
44598143,1907,1,193132,243636,0.18,-1.35,10.34,0.01,0.10,0.02,26.27
44638143,1920,1,193445,243601,1.09,-0.37,10.41,-0.02,-0.05,0.01,26.27
44678175,1959,1,193356,244656,0.74,-0.98,10.71,-0.03,0.01,0.14,26.27
44718166,1919,1,194220,245330,0.51,-0.81,11.65,-0.04,0.08,0.02,26.27
44758166,1957,1,193713,243777,0.79,-0.74,11.37,-0.02,-0.01,0.08,26.27
44798175,1917,1,193529,243565,-0.02,-1.32,12.54,-0.00,0.03,0.08,26.27
44838175,1933,1,192811,241963,1.26,-0.91,11.29,-0.05,-0.11,0.01,26.27
44878175,1892,1,192767,242936,0.37,-0.74,11.11,-0.08,0.00,0.01,26.27
44918166,1891,1,192502,241151,1.08,-0.19,10.00,-0.11,-0.05,0.00,26.27
44958172,1895,1,191930,240930,0.81,-0.55,9.73,-0.09,-0.02,0.01,26.27
44998174,1870,1,191943,239741,0.80,-0.10,9.58,-0.09,0.05,0.01,26.27
45038162,1904,1,191305,238504,0.82,-1.04,9.36,-0.03,-0.01,0.06,26.27
45078174,1857,1,191819,240464,1.17,-1.09,11.03,-0.00,0.05,0.02,26.27
45118163,1840,1,191715,241561,1.12,-1.43,8.49,-0.10,-0.11,0.00,26.27
45158175,1803,1,192879,243042,1.10,-0.88,9.94,-0.04,0.06,0.01,26.27
45198849,1856,1,192826,243773,1.45,-1.18,9.37,-0.08,-0.12,-0.02,26.23
45239196,1913,1,193071,242705,1.31,-1.57,8.55,-0.06,-0.02,-0.01,26.23
45279195,1941,1,193166,244851,0.89,-0.40,9.63,0.03,0.07,-0.20,26.23
45319166,1872,1,194088,243918,1.73,-0.97,9.77,-0.00,0.06,-0.15,26.23
45359175,1819,1,193836,244859,0.43,-0.51,9.81,0.04,-0.06,-0.01,26.23
45399175,1910,1,194232,244091,0.43,-1.70,8.12,-0.06,-0.01,0.01,26.23
45439175,1968,1,193941,243780,1.33,-1.28,8.69,0.03,-0.01,-0.18,26.23
45479175,1936,1,194711,243748,0.39,-1.56,10.11,0.02,0.10,0.01,26.23
45519143,1895,1,193534,243092,1.67,-1.44,8.97,0.03,-0.14,0.02,26.23
45559167,1882,1,194316,244524,-0.08,-2.47,9.10,-0.04,0.05,0.02,26.23
45599172,1946,1,193439,241551,1.53,-0.45,9.06,0.02,-0.15,0.01,26.23
45639167,1910,1,193097,243398,0.92,-1.57,10.47,0.07,0.04,0.12,26.23
45679143,1887,1,193517,244067,1.03,-0.32,8.88,-0.05,-0.12,0.01,26.23
45719175,1884,1,194168,245283,0.66,-1.33,10.92,0.02,0.04,0.02,26.23
45759143,1936,1,193909,245701,0.44,-0.74,9.15,-0.01,-0.09,0.02,26.23
45799174,1868,1,194335,244947,0.54,-0.43,9.97,-0.01,0.03,0.02,26.23
45839163,1872,1,194341,247773,0.60,-1.28,11.26,0.08,0.03,-0.06,26.23
45879167,1807,1,195188,246534,1.20,-1.02,11.26,-0.00,-0.04,0.01,26.23
45919175,1828,1,194434,247673,0.50,-1.20,11.03,0.10,-0.25,0.00,26.23
45959166,1802,1,195138,247473,0.43,-1.21,10.42,-0.09,-0.02,0.01,26.23
45999175,1834,1,194855,248651,0.66,-0.71,9.82,0.05,-0.16,0.01,26.23
46037166,1776,1,195482,248052,0.52,-1.13,10.24,-0.08,-0.02,0.01,26.23
46077175,1882,1,194543,246633,1.39,-0.30,9.97,-0.03,-0.18,-0.00,26.23
46117195,1858,1,194178,245145,0.54,-1.32,10.23,-0.06,-0.04,0.00,26.23
46157175,1862,1,193433,243222,1.40,0.32,10.04,-0.00,-0.17,-0.04,26.23
46197218,1803,1,192928,243040,0.75,-1.90,8.96,-0.14,-0.03,0.06,26.23
46237861,1840,1,192931,243208,1.52,0.51,9.43,-0.09,0.02,0.01,26.29
46278143,1778,1,193502,244331,0.66,-0.51,10.04,-0.01,0.04,0.03,26.29
46318163,1881,1,193365,244183,1.39,0.13,9.46,-0.07,-0.11,-0.01,26.29
46358174,1869,1,193348,243624,1.47,-0.84,10.74,0.04,0.02,0.05,26.29
46398155,1906,1,192679,242755,1.13,-0.49,7.38,-0.09,-0.09,0.04,26.29
46437174,1861,1,193584,244589,1.29,-0.46,10.94,0.00,0.13,0.01,26.29
46477143,1901,1,193597,245754,1.32,-0.66,8.61,-0.11,-0.01,0.01,26.29
46517174,1870,1,194908,248267,0.96,-1.24,9.77,-0.06,0.03,-0.03,26.29
46557175,1998,1,194866,247759,1.13,0.46,8.81,-0.09,-0.02,-0.01,26.29
46597174,1950,1,195169,248558,0.61,-1.02,10.58,-0.00,0.13,0.01,26.29
46637166,1968,1,194574,247470,2.05,0.06,9.75,-0.08,-0.03,-0.01,26.29
46677175,1911,1,194657,247738,0.51,0.18,9.56,-0.06,0.07,0.01,26.29
46717143,1925,1,194627,247973,0.83,-0.40,8.79,-0.09,0.04,0.00,26.29
46757166,1895,1,194685,248012,1.30,0.45,10.32,-0.01,-0.04,0.01,26.29
46797166,1919,1,194584,247879,0.91,-1.09,9.84,-0.09,0.02,0.03,26.29
46837166,1956,1,194102,247130,0.90,-0.10,9.33,-0.08,-0.02,0.09,26.29
46877172,1959,1,194536,247792,0.50,-0.87,10.85,-0.06,0.06,0.03,26.29
46917166,1983,1,194166,246732,1.05,-1.17,10.22,-0.06,-0.05,0.03,26.29
46957175,1950,1,193898,245952,0.95,-0.27,10.59,-0.06,-0.00,0.01,26.29
46997174,1943,1,193583,246305,0.59,-1.24,9.26,-0.08,-0.05,0.02,26.29
47037175,1863,1,194242,247355,1.10,-0.05,9.91,-0.07,-0.02,-0.00,26.29
47077195,1834,1,194640,247058,0.52,-0.16,10.21,-0.05,-0.02,-0.04,26.29
47117195,1936,1,193463,245460,0.80,0.02,7.66,-0.13,-0.09,0.01,26.29
47157166,1901,1,193786,245382,0.50,-0.28,11.03,-0.00,0.14,0.02,26.29
47197162,1904,1,193128,245260,1.29,-0.34,8.60,-0.05,-0.10,-0.05,26.29
47237195,1787,1,194381,246830,0.58,-0.94,11.13,-0.00,0.11,-0.11,26.29
47277861,1823,1,193937,247424,0.68,-1.43,8.52,-0.10,-0.09,0.07,26.23
47318174,1801,1,195033,248178,0.52,-0.69,10.50,-0.05,0.06,-0.05,26.23
47358175,1841,1,194421,247463,0.39,-0.65,9.31,-0.05,-0.04,-0.01,26.23
47398195,1844,1,194868,248606,0.93,-1.29,11.10,-0.01,-0.00,-0.03,26.23
47438195,1871,1,195409,249267,0.20,0.12,8.76,-0.10,0.05,-0.14,26.23
47478166,1881,1,195796,249024,0.87,-1.56,10.22,-0.00,0.04,-0.05,26.23
47518175,1879,1,196159,249740,0.57,0.44,9.73,-0.01,-0.02,-0.16,26.23
47556174,1895,1,196539,249605,0.09,-1.95,10.38,-0.03,0.01,-0.05,26.23
47596175,1920,1,195858,248789,0.86,-0.85,10.48,-0.04,0.00,-0.03,26.23
47636206,1899,1,195573,246153,0.03,-2.00,9.75,-0.03,-0.00,-0.00,26.23
47676191,1938,1,193864,242934,-0.05,-0.91,8.22,-0.09,-0.04,0.14,26.23
47716195,1905,1,193186,242089,1.03,-1.65,10.35,0.02,0.07,0.07,26.23
47756143,1866,1,193212,244321,1.07,-0.54,9.02,-0.04,0.01,-0.00,26.23
47796175,1845,1,194511,245588,0.30,-1.33,9.72,-0.05,0.09,-0.01,26.23
47836179,1877,1,194423,246873,0.78,-0.94,10.00,-0.02,-0.02,-0.01,26.23
47876195,1900,1,194529,245822,0.33,-1.20,9.66,-0.03,0.02,-0.00,26.23
47916172,1911,1,193994,245859,0.59,-0.80,9.56,-0.01,0.06,-0.00,26.23
47956175,1893,1,194578,246601,0.38,-1.97,11.04,-0.04,0.11,-0.00,26.23
47996175,1879,1,194353,246181,0.11,-0.78,9.56,-0.04,0.00,-0.00,26.23
48036175,1869,1,194106,247062,0.52,-2.17,10.45,-0.01,-0.04,0.01,26.23
48076175,1831,1,194591,245853,0.50,-0.47,9.45,-0.04,-0.06,0.06,26.23
48116175,1843,1,193715,245406,0.44,-2.22,10.11,-0.05,-0.10,-0.00,26.23
48156195,1843,1,193673,245188,0.36,-1.44,9.36,-0.04,0.00,-0.00,26.23
48196175,1819,1,194328,246872,0.60,-1.01,11.10,-0.02,-0.00,-0.01,26.23
48236192,1844,1,194974,247902,0.62,-1.52,10.13,-0.08,-0.04,-0.06,26.23
48276195,1859,1,194816,247686,0.09,-1.83,10.19,-0.04,-0.10,-0.01,26.23
48316881,1859,1,194888,247422,0.53,-1.62,10.10,-0.04,-0.04,-0.00,26.29
48357195,1866,1,194492,246891,0.32,-1.58,8.88,-0.07,-0.04,-0.00,26.29
48397195,1852,1,195344,247814,0.51,-1.74,11.86,0.03,0.06,-0.06,26.29
48437166,1855,1,194823,246517,0.07,-1.04,9.83,0.00,-0.12,-0.01,26.29
48477172,1872,1,194890,246458,0.26,-1.81,11.86,0.02,0.00,0.00,26.29
48517143,1916,1,193752,244248,0.35,-1.60,9.06,-0.03,-0.14,-0.01,26.29
48557195,1899,1,193563,245925,0.65,-1.05,10.05,0.01,-0.01,-0.05,26.29
48597174,1856,1,194231,245548,-0.36,-0.71,9.20,-0.04,0.00,0.00,26.29
48637172,1903,1,193700,246042,0.32,-1.53,9.81,-0.00,-0.07,0.04,26.29
48677175,1867,1,194399,245759,0.24,-1.26,10.65,0.00,0.09,0.01,26.29
48717142,1878,1,193322,245767,1.33,-1.55,9.65,0.04,-0.18,0.02,26.29
48757166,1845,1,194385,246211,0.19,-0.77,9.79,-0.03,0.08,-0.00,26.29
48797172,1898,1,194263,248121,0.37,-2.31,10.36,0.07,-0.14,-0.03,26.29
48837174,1847,1,195552,249221,0.40,-1.26,10.81,0.01,0.02,-0.03,26.29
48877165,1901,1,195049,248250,-0.23,-1.96,9.32,-0.03,-0.21,-0.02,26.29
48917212,2007,1,194383,247665,0.76,-2.05,9.88,-0.04,0.02,0.01,26.29
48957162,1925,1,194669,247369,0.49,-0.25,11.60,0.04,-0.00,0.07,26.29
48995166,1927,1,193580,246504,1.32,-1.25,9.77,-0.05,-0.23,-0.01,26.29
49035195,1943,1,194182,247167,-0.36,-1.44,10.15,-0.11,0.09,0.00,26.29
49075175,1977,1,193485,246327,1.25,-2.22,9.79,-0.04,-0.20,-0.01,26.29
49115195,1901,1,193481,245926,0.62,-1.11,9.81,-0.08,-0.05,0.00,26.29
49155174,1936,1,193050,245091,0.75,-1.14,9.29,-0.10,-0.13,0.07,26.29
49195175,1929,1,192963,243883,0.30,-1.01,9.27,-0.08,0.05,-0.00,26.29
49235175,1899,1,192330,242421,0.33,-2.19,8.94,-0.04,-0.03,-0.04,26.29
49275207,1850,1,192081,242256,1.29,-1.00,10.37,0.01,-0.05,0.04,26.29
49315167,1859,1,191966,242053,0.17,-1.66,8.04,-0.09,-0.02,-0.02,26.29
49355881,1851,1,191872,242789,0.84,-0.54,8.45,-0.05,-0.06,-0.02,26.27
49396195,1771,1,192993,245042,0.32,-1.70,9.59,-0.01,0.08,0.01,26.27
49436165,1802,1,193352,246280,0.59,-0.74,8.42,-0.07,-0.07,-0.02,26.27
49476227,1856,1,194217,247026,0.87,-1.18,11.00,0.02,0.05,0.00,26.27
49516142,1901,1,193635,246893,0.58,-0.55,8.49,0.00,-0.09,-0.00,26.27
49556175,1904,1,194325,247107,0.42,-1.20,10.81,-0.01,0.15,0.01,26.27
49596166,1936,1,193767,245916,0.66,-1.07,9.56,0.02,-0.03,0.00,26.27
49636166,1861,1,194045,246082,0.56,-1.60,11.15,-0.01,0.07,0.01,26.27
49676182,1901,1,193266,244577,0.22,-1.10,8.60,-0.05,-0.05,-0.01,26.27
49716195,1930,1,193290,246251,0.57,-1.52,10.31,-0.02,0.06,-0.00,26.27
49756175,1875,1,194292,246296,0.26,-0.64,9.56,-0.03,0.08,0.00,26.27
49796166,1860,1,194129,247034,0.41,-1.71,11.88,0.00,-0.01,-0.00,26.27
49836175,1927,1,194023,246616,0.38,-0.93,9.87,-0.04,-0.07,-0.01,26.27
49876195,1920,1,193430,245904,1.00,-1.17,9.85,-0.04,-0.12,0.02,26.27
49916175,1940,1,193410,245742,0.74,-0.73,9.28,-0.09,-0.07,-0.02,26.27
49956195,1936,1,193539,245587,0.33,-1.27,9.65,-0.09,-0.01,-0.02,26.27
49996195,1903,1,193341,245363,0.55,-1.22,9.22,-0.09,-0.02,-0.01,26.27
50036196,1881,1,193285,244393,0.50,-0.52,10.27,-0.03,-0.02,0.02,26.27
50076175,1936,1,192969,245282,0.22,-1.20,10.35,-0.00,-0.05,0.05,26.27
50116175,1873,1,193607,246115,0.57,-0.69,10.55,-0.05,-0.03,-0.01,26.27
50156195,1881,1,193567,246558,0.64,-1.44,9.40,-0.08,-0.05,-0.02,26.27
50196195,1916,1,193754,245551,0.48,-1.05,8.85,-0.06,-0.02,-0.01,26.27
50236195,1918,1,193053,244927,0.97,-0.74,9.76,-0.05,-0.02,-0.05,26.27
50276195,1920,1,193151,245301,0.70,-0.33,9.65,-0.01,0.06,-0.03,26.27
50316185,1862,1,193500,245901,0.74,-0.68,9.70,-0.07,0.08,-0.07,26.27
50356861,1889,1,194237,245884,0.42,-1.46,9.66,-0.05,0.06,-0.03,26.37
50395175,1903,1,193432,243572,1.16,-1.19,9.37,-0.04,-0.03,-0.01,26.37
50435195,1898,1,192844,243585,0.95,-1.26,9.40,-0.03,0.01,-0.01,26.37
50475174,1905,1,192917,244216,0.79,-0.50,8.60,-0.09,0.04,-0.01,26.37
50515175,1935,1,193742,244617,0.25,-1.45,9.91,-0.04,0.13,-0.01,26.37
50555175,1923,1,193327,245118,1.09,-0.60,10.23,0.01,0.00,-0.01,26.37
50595166,1886,1,194341,247309,0.36,-1.84,11.29,0.00,0.07,0.01,26.37
50635144,1937,1,194447,248487,0.69,-1.93,10.63,-0.06,-0.03,-0.01,26.37
50675195,1927,1,194753,248323,0.70,-0.57,10.40,-0.04,-0.05,0.03,26.37
50715172,1984,1,194094,247153,0.04,-0.69,10.56,-0.06,-0.04,0.00,26.37
50755175,2000,1,193641,246159,0.40,-1.55,10.25,-0.08,0.01,-0.01,26.37
50795175,1972,1,193562,245656,-0.07,-1.16,10.95,-0.02,0.03,0.00,26.37
50835174,1904,1,193261,245323,-0.10,-1.31,10.27,-0.03,-0.02,0.01,26.37
50875195,1906,1,193097,244703,0.44,-0.80,10.70,-0.05,-0.03,0.00,26.37
50915175,1886,1,192316,242603,-0.24,-2.73,8.01,-0.13,-0.09,0.12,26.37
50955195,1869,1,191585,241202,1.01,-0.83,8.29,-0.05,-0.04,0.13,26.37
50995175,1767,1,191928,243095,1.13,-2.22,10.07,-0.01,0.09,0.02,26.37
51035166,1702,1,192874,244970,0.75,-0.40,10.31,-0.05,0.01,-0.13,26.37
51075175,1719,1,193497,245022,0.23,-1.92,9.79,-0.03,-0.05,-0.05,26.37
51115200,1831,1,192645,243117,0.58,-1.21,8.85,-0.03,-0.09,-0.01,26.37
51155195,1840,1,192430,242419,0.45,-1.36,9.40,-0.01,0.08,-0.00,26.37
51195172,1840,1,192162,242999,1.31,-1.40,9.55,0.02,0.01,-0.01,26.37
51235166,1776,1,193180,244448,0.81,-1.12,9.89,-0.01,0.04,-0.09,26.37
51275175,1842,1,193849,245893,0.22,-1.65,8.90,-0.04,0.07,-0.03,26.37
51315175,1846,1,194565,246932,0.75,-0.77,11.42,0.07,-0.01,-0.02,26.37
51355175,1879,1,194766,248030,0.08,-0.87,9.43,-0.04,-0.02,-0.04,26.37
51395882,1889,1,195287,249222,0.34,-1.67,11.90,-0.01,0.03,-0.01,26.29
51434175,1897,1,195209,249364,0.50,-1.04,10.95,-0.04,-0.07,-0.01,26.29
51474195,1886,1,194825,247803,0.15,-1.76,10.33,-0.06,-0.02,0.00,26.29
51514175,1913,1,193720,245197,0.64,-1.64,9.83,-0.05,-0.16,-0.01,26.29
51554196,1863,1,193143,244902,0.32,-2.04,10.43,-0.06,-0.03,-0.01,26.29
51594195,1826,1,193187,245399,0.42,-0.67,9.04,-0.06,-0.05,-0.00,26.29
51634196,1799,1,193802,246560,0.51,-1.13,10.34,-0.07,-0.06,0.00,26.29
51674175,1877,1,193455,244945,-0.08,-1.30,9.09,-0.13,-0.05,0.05,26.29
51714195,1935,1,192796,244399,0.63,-0.87,9.94,-0.03,-0.06,0.11,26.29
51754175,1887,1,192538,242151,0.81,-1.55,10.18,-0.04,0.02,-0.00,26.29
51794175,1892,1,192102,242145,0.30,-0.98,9.45,-0.03,-0.01,-0.05,26.29
51834192,1888,1,192458,243277,1.09,-1.28,10.56,-0.02,-0.05,-0.01,26.29
51874196,1909,1,192646,244027,0.16,-1.32,8.06,-0.06,-0.01,-0.01,26.29
51914195,1911,1,192878,243554,1.07,-1.03,9.01,-0.06,0.06,-0.02,26.29
51954175,1905,1,193259,243289,0.27,-1.44,9.32,-0.01,0.10,-0.02,26.29
51994175,1905,1,192822,244241,1.23,-0.50,9.02,-0.00,-0.06,-0.14,26.29
52034195,1952,1,194103,245754,0.38,-1.37,9.19,0.01,0.05,-0.02,26.29
52074166,1962,1,194106,246318,0.63,-1.75,8.26,-0.07,-0.00,-0.02,26.29
52114195,1925,1,194615,245966,0.75,-1.56,9.36,-0.01,0.01,-0.02,26.29
52154175,1941,1,193731,245690,0.65,-1.70,8.45,-0.04,-0.05,-0.02,26.29
52194195,1948,1,194513,246557,0.08,-1.70,9.45,-0.02,0.06,-0.01,26.29
52234172,1946,1,194082,245561,0.66,-0.12,8.87,-0.01,-0.03,-0.01,26.29
52274195,1938,1,194642,247379,0.08,-1.53,10.92,0.01,0.07,-0.01,26.29
52314166,1962,1,194318,247157,0.44,-0.46,9.07,-0.03,-0.08,-0.03,26.29
52354195,1876,1,195047,248908,0.56,-1.81,11.52,0.02,0.00,0.00,26.29
52394144,1924,1,195508,249452,0.07,-0.58,9.89,-0.08,-0.01,-0.04,26.29
52434882,1885,1,195406,248558,0.07,-1.42,11.86,-0.01,-0.00,-0.01,26.27
52473195,1922,1,194479,247745,0.30,-1.01,11.34,-0.01,-0.06,-0.01,26.27
52513195,1851,1,194579,247291,0.41,-1.65,13.07,-0.01,0.01,0.07,26.27
52553166,1911,1,193674,246063,0.36,-0.52,10.89,-0.03,-0.13,-0.01,26.27
52593195,1890,1,192964,243879,0.85,-1.49,10.72,-0.05,-0.06,-0.02,26.27
52633195,1904,1,191818,241406,0.12,-1.14,7.98,-0.10,-0.04,0.02,26.27
52673175,1808,1,191611,240465,0.61,-1.55,9.53,-0.05,0.05,0.01,26.27
52713166,1801,1,191458,241784,0.57,-1.91,9.06,-0.03,-0.05,-0.02,26.27
52753217,1788,1,192398,243807,0.23,-1.54,10.04,0.00,-0.02,0.03,26.27
52793163,1793,1,192283,244347,0.96,-1.50,7.51,-0.07,-0.19,-0.00,26.27
52833195,1818,1,192976,245322,0.51,-1.57,10.45,-0.04,0.06,-0.01,26.27
52873175,1854,1,192242,243257,1.41,-0.90,7.24,-0.08,-0.16,-0.04,26.27
52913195,1841,1,191926,242667,1.39,-0.88,8.59,-0.04,0.02,-0.03,26.27
52953190,1825,1,192197,244575,0.72,-0.02,8.13,0.02,0.06,-0.01,26.27
52993167,1771,1,193782,247229,1.40,-1.40,10.28,-0.00,0.06,-0.07,26.27
53033175,1872,1,194514,247551,0.43,-0.47,8.16,-0.06,0.01,-0.12,26.27
53073175,1952,1,194205,246832,0.48,-2.07,10.83,0.04,0.01,0.00,26.27
53113144,1977,1,193504,244881,0.92,-1.75,8.77,-0.00,-0.07,-0.00,26.27
53153195,1951,1,192758,244671,0.08,-0.95,11.43,0.06,0.01,0.02,26.27
53193143,1878,1,193525,245385,0.28,-0.79,10.27,-0.06,0.09,0.02,26.27
53233166,1915,1,193934,247217,-0.41,-1.26,11.39,-0.02,-0.01,-0.01,26.27
53273209,1984,1,193675,245686,0.32,-1.23,12.27,-0.02,0.03,0.12,26.27
53313166,2043,1,192994,247003,0.07,-1.63,12.70,0.03,-0.10,0.05,26.27
53353163,1955,1,193598,245624,-0.30,-1.47,12.11,-0.10,0.07,0.01,26.27
53394174,1971,1,192289,242725,-0.52,-2.09,9.97,0.04,-0.29,0.08,26.27
53434862,1922,1,191145,238708,0.44,-2.55,7.99,-0.16,-0.01,0.25,26.37
53473175,1810,1,190129,237207,0.95,-1.70,8.14,-0.09,-0.03,0.28,26.37
53513175,1602,1,190699,240174,0.92,-2.22,9.09,-0.11,0.17,0.06,26.37
53553167,1494,1,192110,244320,0.92,-0.03,9.55,-0.09,0.06,-0.27,26.37
53593175,1563,1,193702,246726,0.29,-1.91,11.30,0.00,-0.04,-0.15,26.37
53633175,1763,1,193168,244543,-0.62,-1.54,7.65,-0.10,-0.11,-0.04,26.37
53673209,1882,1,192288,243006,0.35,-1.77,10.56,-0.01,0.03,0.13,26.37
53713166,1870,1,191939,242174,0.64,-1.54,9.43,-0.02,0.09,0.00,26.37
53753165,1728,1,191870,242107,0.33,-1.77,8.74,-0.08,0.10,-0.12,26.37
53793175,1810,1,191952,241214,0.21,-1.14,8.59,-0.01,0.00,-0.03,26.37
53833175,1903,1,191151,239000,0.55,-1.34,8.96,-0.01,-0.10,-0.01,26.37
53873196,1903,1,191043,239332,0.07,-1.76,7.53,-0.08,0.03,-0.11,26.37
53913175,1942,1,192395,243287,0.11,-1.51,10.48,0.04,0.04,-0.01,26.37
53953167,1845,1,194106,247074,0.63,-0.57,11.86,0.05,-0.03,-0.11,26.37
53993175,1908,1,194944,247251,-0.77,-1.26,9.70,-0.05,-0.03,-0.06,26.37
54033212,2023,1,194094,246317,0.22,-2.03,11.92,0.04,-0.05,0.01,26.37
54073166,1943,1,193508,245751,0.41,-0.96,11.16,0.01,-0.10,-0.00,26.37
54113175,1877,1,193514,245997,0.19,-1.64,11.29,-0.05,0.00,-0.01,26.37
54153175,1897,1,193991,246691,0.21,-1.20,10.92,-0.03,0.00,-0.11,26.37
54193175,1901,1,194274,246325,0.09,-1.27,11.57,-0.02,0.00,-0.04,26.37
54233172,1944,1,193195,245305,0.47,-0.72,10.11,-0.01,-0.15,-0.01,26.37
54273195,1907,1,193403,246329,0.92,-0.45,12.06,-0.01,-0.07,-0.02,26.37
54313195,1945,1,193015,244760,0.49,-0.95,8.94,-0.12,-0.11,-0.04,26.37
54353195,1933,1,192665,243921,0.73,-0.65,8.79,-0.07,-0.03,-0.03,26.37
54392195,1984,1,191969,241684,0.88,-0.56,7.78,-0.10,-0.03,-0.03,26.37
54432195,1983,1,191161,239259,0.27,-0.71,7.30,-0.09,0.04,0.11,26.37
54472850,1895,1,190584,237377,1.04,-0.79,9.57,-0.02,0.06,-0.01,26.37
54513175,1933,1,190657,239760,1.02,-2.34,8.26,-0.03,-0.04,-0.06,26.37
54553195,1965,1,192110,241813,0.87,-0.34,7.54,-0.08,0.02,-0.10,26.37
54593207,2015,1,193051,245023,0.95,-1.82,9.31,0.01,-0.03,-0.02,26.37
54633175,2002,1,194476,246509,0.62,-0.15,8.74,-0.05,0.03,-0.14,26.37
54673175,2000,1,195021,246765,0.17,-0.86,11.80,0.06,-0.03,-0.01,26.37
54713175,2063,1,193257,243152,0.63,-0.44,7.75,-0.10,-0.18,-0.03,26.37
54753195,1989,1,192852,242984,0.37,-2.01,12.22,0.07,0.16,0.14,26.37
54793144,1943,1,192140,241441,0.68,-0.81,8.58,-0.02,-0.10,0.02,26.37
54833174,1840,1,194420,246642,0.15,-2.06,12.67,0.07,0.07,-0.06,26.37
54873166,1936,1,195945,249303,-0.67,-1.50,8.25,-0.13,-0.02,-0.21,26.37
54913212,1819,1,196887,249546,0.20,-0.95,13.46,0.04,-0.04,-0.10,26.37
54953175,1854,1,194598,246280,-0.00,-0.13,7.60,-0.07,-0.14,0.01,26.37
54993195,1831,1,193914,247059,0.77,-1.31,12.23,-0.03,0.05,0.09,26.37
55033165,1738,1,194667,246708,0.35,-1.14,8.96,-0.09,0.14,-0.12,26.37
55073175,1648,1,194756,246743,0.69,-0.63,11.00,0.05,-0.06,-0.04,26.37
55111172,1772,1,194363,245185,0.13,-2.27,9.81,-0.07,-0.01,-0.00,26.37
55151195,1829,1,193211,240281,-0.37,-1.93,7.47,-0.12,0.04,-0.03,26.37
55191195,1840,1,192845,240117,-0.74,-1.94,9.67,0.03,0.13,-0.01,26.37
55231175,1805,1,194026,244275,0.17,-1.50,10.90,0.08,-0.08,-0.00,26.37
55271172,1806,1,195817,246519,0.35,-3.50,12.64,0.04,-0.08,-0.10,26.37
55311175,1986,1,196307,248014,-0.84,-2.01,8.71,-0.08,-0.21,0.01,26.37
55351195,1901,1,196108,246010,0.14,-2.21,9.54,0.01,-0.04,0.09,26.37
55391166,1915,1,195057,246343,0.17,-2.26,10.29,-0.01,-0.11,-0.03,26.37
55432195,1925,1,195197,244012,-0.17,-2.19,8.81,-0.05,0.02,-0.04,26.37
55472882,1936,1,194263,243421,0.72,-1.06,9.61,0.08,-0.04,-0.17,26.55
55511175,1905,1,195776,244762,-0.28,-1.63,9.70,0.03,0.14,-0.01,26.55
55551174,1968,1,195229,245542,1.13,-2.91,10.37,0.04,-0.20,-0.02,26.55
55591175,1925,1,196650,248441,-0.12,-2.62,8.60,-0.02,-0.00,-0.02,26.55
55631210,1889,1,196447,246624,-0.03,-0.57,8.68,-0.06,-0.06,-0.06,26.55
55671208,1973,1,195894,248755,0.81,-1.58,11.00,0.05,0.03,0.04,26.55
55711143,1949,1,197122,248115,-0.19,0.30,10.17,-0.01,0.04,-0.03,26.55
55751175,1950,1,195912,247524,1.32,-1.57,12.27,0.10,-0.04,-0.03,26.55
55791175,1955,1,194950,243733,0.07,-0.93,8.96,-0.04,-0.08,-0.02,26.55
55831192,1904,1,194522,244727,-0.08,-1.96,12.64,0.06,-0.03,0.09,26.55
55871175,1922,1,194156,244320,0.50,-0.49,9.19,-0.09,-0.16,-0.03,26.55
55911195,1903,1,194179,245385,0.54,-1.67,11.27,-0.06,-0.05,-0.02,26.55
55951196,1906,1,193970,244998,0.95,0.10,9.98,-0.07,-0.04,-0.03,26.55
55991172,1872,1,194290,246384,0.26,-0.59,12.82,0.00,0.10,-0.02,26.55
56031167,1905,1,193855,245188,0.83,-0.14,11.23,0.00,-0.09,-0.02,26.55
56071175,1840,1,193351,245320,0.48,-1.51,10.24,-0.06,-0.08,-0.05,26.55
56111195,1822,1,193725,246086,1.04,-1.26,10.12,-0.08,0.01,-0.03,26.55
56151175,1751,1,194070,247395,1.11,-0.54,8.98,-0.11,-0.02,-0.06,26.55
56191196,1781,1,195050,247433,1.12,-0.61,10.46,-0.06,0.05,-0.10,26.55
56231199,1839,1,193890,245162,0.57,0.05,7.42,-0.08,-0.23,-0.03,26.55
56271175,1871,1,193528,244779,1.64,-0.79,10.52,-0.01,0.06,0.13,26.55
56311166,1799,1,192729,243333,1.21,0.33,6.67,-0.08,-0.12,-0.04,26.55
56351175,1751,1,194801,247952,0.53,-2.24,9.14,-0.07,0.16,-0.01,26.55
56391175,1879,1,196648,250572,1.08,-0.11,7.51,-0.10,-0.00,-0.17,26.55
56431195,1872,1,198860,252830,0.39,-1.65,10.51,0.01,0.06,0.05,26.55
56472143,1975,1,197449,249253,0.08,0.07,6.37,-0.05,-0.08,0.06,26.55
56512852,1919,1,196403,248837,2.13,-0.72,11.79,0.15,-0.05,0.08,26.67
56551166,1984,1,195866,246597,0.76,-0.94,7.32,-0.09,0.08,-0.05,26.67
56591175,1934,1,197380,248261,0.38,-0.63,9.43,-0.01,0.11,-0.11,26.67
56631175,1995,1,198815,249384,1.34,-1.30,10.71,0.01,0.17,-0.12,26.67
56671167,1963,1,199076,248797,0.03,0.02,9.75,0.02,-0.08,0.01,26.67
56711144,1904,1,197902,247965,0.62,-0.74,11.62,0.02,0.02,0.07,26.67
56751143,1947,1,197202,248195,0.26,-1.05,10.29,0.00,-0.06,0.02,26.67
56791163,1867,1,196399,247393,0.93,-0.51,12.59,-0.05,0.02,0.14,26.67
56831166,1869,1,195298,247166,0.86,0.58,11.01,-0.04,-0.06,0.09,26.67
56871165,1787,1,194492,245325,0.53,-0.97,11.82,-0.11,-0.00,0.08,26.67
56911175,1871,1,192893,243575,0.48,0.18,11.02,-0.03,-0.02,0.06,26.67
56951163,1805,1,192279,242995,1.13,-0.46,12.43,0.01,-0.02,0.08,26.67
56991166,1809,1,191846,242067,1.14,-0.71,11.26,0.01,-0.07,0.09,26.67
57031166,1819,1,191385,240430,0.25,-1.00,8.71,-0.13,-0.18,0.18,26.67
57071174,1870,1,191083,239128,1.67,-1.34,9.09,-0.06,-0.07,0.20,26.67
57111175,1857,1,191044,238758,0.79,-1.59,8.33,-0.11,-0.09,0.05,26.67
57151175,1851,1,191410,240716,0.69,-1.07,8.34,-0.12,-0.03,-0.12,26.67
57191195,1879,1,191818,241466,0.81,-1.16,9.34,0.01,-0.02,-0.05,26.67
57231175,1895,1,191905,241812,0.79,-0.48,9.55,0.02,-0.05,-0.02,26.67
57271172,1918,1,191993,242790,0.90,-1.64,10.81,0.07,-0.08,0.01,26.67
57311167,1904,1,192116,242481,0.57,-1.35,7.69,-0.12,-0.10,0.07,26.67
57351175,1899,1,191445,239083,1.43,-1.57,9.60,-0.01,0.00,-0.01,26.67
57391175,1933,1,190140,235275,0.83,-1.63,8.01,-0.06,-0.00,-0.02,26.67
57431192,1920,1,189256,233183,0.96,-0.32,9.42,0.08,0.08,-0.06,26.67
57471167,1924,1,188413,231694,0.77,-1.76,7.82,-0.04,0.03,-0.05,26.67
57511175,1855,1,188375,231877,0.62,-1.10,9.17,-0.01,0.11,-0.01,26.67
57551861,1829,1,188743,233982,0.47,-0.55,9.55,0.01,0.07,0.04,26.53
57590143,1867,1,190102,237636,0.67,-1.00,10.62,0.01,0.03,0.06,26.53
57630143,1923,1,190496,238539,0.42,-1.94,8.92,-0.10,-0.06,0.00,26.53
57670216,1963,1,190426,236799,0.32,-1.11,9.81,-0.03,0.01,0.13,26.53
57710167,1948,1,189247,235050,0.61,-1.68,9.03,-0.00,0.10,0.08,26.53
57750162,1871,1,189129,234524,0.55,-0.76,9.25,-0.10,0.12,0.14,26.53
57790167,1887,1,189584,237600,-0.08,-0.94,10.51,-0.07,0.16,0.05,26.53
57830175,1877,1,191030,240773,0.96,-1.71,13.91,-0.03,0.13,-0.05,26.53
57870218,1853,1,192144,243957,-0.68,-2.21,13.05,-0.02,-0.07,-0.04,26.53
57910208,1882,1,192405,244676,-0.45,-2.56,12.02,-0.13,-0.05,0.05,26.53
57950195,1872,1,192117,244177,-0.20,-1.05,13.25,-0.09,0.03,0.09,26.53
57990175,1845,1,191664,243990,0.73,-1.11,10.48,-0.13,-0.14,-0.03,26.53
58030196,1861,1,191395,241158,1.50,-0.56,10.74,-0.17,0.04,-0.02,26.53
58070175,1872,1,190405,240721,0.01,-2.22,9.04,-0.16,0.00,-0.03,26.53
58110175,1819,1,191183,241033,1.35,0.49,10.25,-0.15,0.10,-0.24,26.53
58150166,1855,1,190926,242295,0.59,-2.16,10.65,-0.01,-0.22,-0.00,26.53
58190196,1907,1,191057,240264,-0.03,-0.85,7.82,-0.15,-0.06,0.07,26.53
58230195,1954,1,190207,239185,1.41,-1.50,8.97,-0.09,-0.11,-0.03,26.53
58270195,1961,1,190280,238958,0.40,-1.51,6.69,-0.12,0.03,-0.03,26.53
58310175,1794,1,190809,240726,1.48,-1.19,9.80,-0.01,-0.00,-0.15,26.53
58350196,1872,1,191471,242138,0.79,-1.68,7.21,-0.06,-0.04,-0.18,26.53
58390195,1841,1,192781,244638,0.34,-0.35,8.54,0.00,-0.01,-0.21,26.53
58430174,1865,1,193772,245268,0.19,-1.60,8.51,0.02,0.03,-0.16,26.53
58470166,1873,1,194374,246714,0.30,-0.52,9.96,0.06,-0.02,-0.14,26.53
58510175,1873,1,194910,245481,0.19,-1.39,9.50,0.06,0.01,-0.10,26.53
58550163,1918,1,193880,245459,0.15,-2.05,8.63,0.06,-0.05,-0.03,26.53
58590861,1840,1,194301,244230,-0.02,-1.72,8.95,0.04,0.08,-0.01,26.55
58629175,1893,1,193350,245117,0.15,-1.10,8.58,0.07,-0.02,-0.01,26.55
58669175,1867,1,194803,247246,0.51,-1.68,10.46,0.06,0.07,-0.09,26.55
58709166,1931,1,195186,248436,0.32,-0.48,9.60,0.04,-0.00,-0.05,26.55
58749175,1946,1,195665,249491,0.28,-1.25,12.19,0.05,0.02,-0.02,26.55
58789166,2044,1,194717,247127,0.20,-1.04,10.63,-0.00,-0.07,-0.03,26.55
58829195,2091,1,193217,244893,0.70,-3.37,12.28,0.02,-0.06,-0.01,26.55
58869175,2092,1,191690,241705,0.10,-0.59,9.47,-0.03,-0.15,-0.02,26.55
58909195,1934,1,191605,242437,0.48,-2.31,13.45,0.03,0.08,0.02,26.55
58949143,1943,1,191358,240854,0.17,0.31,8.96,-0.06,-0.18,-0.12,26.55
58989174,1932,1,191273,242814,0.98,-1.63,11.43,-0.06,-0.05,-0.00,26.55
59029195,1775,1,191349,239007,0.89,0.44,7.52,-0.16,0.07,0.23,26.55
59069143,1653,1,190069,238126,0.65,-1.63,10.00,0.33,-0.23,0.02,26.55
59109166,1634,1,190357,237418,1.16,-0.61,9.35,-0.17,0.10,0.24,26.55
59149167,1744,1,189377,236877,0.14,-1.19,7.19,-0.21,-0.12,0.09,26.55
59189175,1424,1,189939,234865,1.56,-0.49,8.16,-0.16,0.14,0.39,26.55
59229166,1104,1,188850,233341,-1.06,-0.92,3.63,-0.56,0.18,0.47,26.55
59269175,859,1,189290,233331,2.91,0.05,8.55,0.35,0.11,0.33,26.55
59309172,373,1,189444,233603,0.13,-0.15,3.78,-0.55,0.04,-0.00,26.55
59349172,0,1,189429,234893,1.94,-0.37,8.62,0.55,-0.16,-0.22,26.55
59389175,0,1,190030,238227,0.30,-0.50,8.82,-0.13,0.07,-0.23,26.55
59429172,483,1,190858,239418,0.47,-0.80,8.66,-0.10,0.13,-0.24,26.55
59469174,952,1,191589,240016,0.26,-0.41,9.85,0.15,0.03,-0.25,26.55
59509181,1296,1,191728,239629,0.17,-1.28,10.65,0.07,0.02,-0.14,26.55
59549166,1535,1,191452,238318,0.50,1.82,10.83,-0.08,0.11,-0.03,26.55
59589166,1642,1,190593,239150,0.26,-2.89,11.51,0.13,-0.09,0.02,26.55
59629853,1878,1,191051,239023,0.62,1.36,11.35,-0.09,0.15,0.08,26.77
59668144,2225,1,190742,240641,0.36,-1.53,11.36,-0.02,-0.06,0.03,26.77
59708175,2557,1,191201,241287,1.50,0.40,12.00,-0.11,0.05,0.00,26.77
59748143,2687,1,191297,242286,-0.55,-2.38,10.09,-0.11,0.05,0.03,26.77
59788174,2717,1,191482,241115,1.39,1.34,11.08,-0.05,0.02,0.10,26.77
59828144,2749,1,191409,241711,-0.30,-1.67,10.72,-0.02,-0.06,0.08,26.77
59868195,2985,1,191285,240869,1.06,-0.47,9.41,-0.23,-0.03,-0.01,26.77
59908195,2960,1,191107,240009,0.48,-0.51,9.34,-0.05,-0.01,-0.00,26.77
59948195,2903,1,190971,238984,1.31,-0.91,7.98,-0.13,-0.07,-0.02,26.77
59988195,2756,1,191331,239174,1.03,-0.47,9.64,-0.02,0.04,0.01,26.77
60028166,2723,1,191445,240165,0.41,-1.25,7.92,-0.10,-0.02,0.01,26.77
60068175,2643,1,191941,241690,0.49,0.12,10.24,0.02,0.03,0.03,26.77
60108124,2583,1,191788,242090,0.24,-1.07,8.42,-0.09,-0.04,0.03,26.77
60148190,2517,1,191495,240885,0.97,-0.20,8.05,-0.09,0.01,-0.08,26.77
60188175,2527,1,191152,240209,0.21,-1.48,9.14,0.02,0.12,0.00,26.77
60228143,2403,1,190622,236831,1.09,0.40,9.23,0.02,0.06,-0.14,26.77
60268144,2359,1,190145,238608,0.20,-1.17,9.48,0.05,-0.07,-0.06,26.77
60308175,2358,1,190921,240204,0.58,-0.53,9.28,-0.08,0.04,-0.00,26.77
60348203,2277,1,191091,241323,0.19,-1.68,9.49,0.05,-0.02,-0.08,26.77
60388175,2270,1,191387,242184,0.56,-0.65,9.47,-0.05,0.04,-0.06,26.77
60428175,2234,1,191873,243953,-0.07,-0.77,11.18,0.08,0.03,-0.10,26.77
60468175,2193,1,192408,244700,0.30,-0.51,11.64,-0.02,0.05,-0.17,26.77
60508174,2098,1,192511,245154,-0.48,-1.22,11.88,0.03,-0.09,-0.05,26.77
60548195,2018,1,192021,244478,-0.09,-1.02,11.16,-0.07,-0.04,0.05,26.77
60588195,1962,1,191801,244652,0.41,-1.36,11.97,0.00,-0.06,0.01,26.77
60628165,1878,1,191848,244392,-0.01,-1.62,10.98,-0.08,-0.01,0.09,26.77
60668881,1841,1,191670,244112,-0.15,-0.27,11.47,-0.03,-0.05,0.01,26.49
60709195,1835,1,191270,242844,0.28,-1.32,10.75,-0.04,-0.12,0.00,26.49
60749175,1825,1,190765,241219,0.22,-0.92,8.14,-0.11,-0.15,-0.00,26.49
60789195,1813,1,190524,239405,0.11,-1.64,8.28,-0.10,-0.01,-0.00,26.49
60829195,1776,1,190118,239599,-0.20,-1.41,8.87,-0.04,-0.01,0.00,26.49
60869195,1702,1,190325,237567,0.96,-0.65,8.83,-0.08,0.04,-0.06,26.49
60907174,1753,1,189793,238231,0.09,-0.98,8.77,-0.03,-0.03,-0.02,26.49
60947229,1744,1,190626,240588,0.11,-1.17,8.44,-0.02,-0.01,-0.04,26.49
60987195,1731,1,191439,242398,0.42,-0.87,9.76,-0.02,0.02,-0.11,26.49
61027175,1712,1,192361,244098,0.02,-1.48,8.26,-0.07,0.06,-0.14,26.49
61067174,1714,1,193580,245745,0.60,-0.04,9.92,0.02,0.05,-0.16,26.49
61107163,1731,1,194874,247869,-0.33,-0.58,8.60,-0.06,0.10,-0.13,26.49
61147238,1712,1,195507,247834,0.53,-0.25,9.71,-0.02,0.26,-0.16,26.49
61187175,1675,1,196460,249676,-0.23,-0.45,10.59,0.04,-0.01,-0.12,26.49
61227195,1663,1,196886,250645,-0.21,-0.79,10.38,-0.05,0.10,-0.20,26.49
61267195,1671,1,197283,251366,-0.15,-1.73,12.06,0.00,-0.02,-0.10,26.49
61307195,1706,1,196194,249466,-0.23,-0.59,11.40,-0.04,-0.05,-0.08,26.49
61347208,1645,1,194658,248500,-0.06,-0.78,11.15,-0.02,-0.12,-0.02,26.49
61387212,1723,1,193882,246522,0.58,-0.50,10.06,-0.10,-0.02,-0.04,26.49
61427192,1710,1,194045,247469,-0.47,-1.07,11.13,0.01,0.06,-0.01,26.49
61467175,1742,1,193715,246815,0.51,-0.89,9.87,-0.08,-0.10,-0.03,26.49
61507195,1694,1,193801,246614,-0.25,-1.57,12.11,-0.01,0.02,0.00,26.49
61547175,1800,1,192393,243779,-0.18,-1.49,9.40,-0.08,-0.18,0.12,26.49
61587195,1776,1,191257,240967,-0.10,0.15,10.33,-0.10,-0.14,0.18,26.49
61627174,1826,1,190302,238440,0.19,-2.33,10.11,-0.05,-0.02,0.14,26.49
61667175,1895,1,189469,235764,-0.15,-0.90,7.28,-0.16,-0.09,0.13,26.49
