timestamp_us,ecg,leads,ir,red,accX,accY,accZ,gyroX,gyroY,gyroZ,temp
1928489,1810,1,194099,229998,0.00,0.00,0.00,0.00,0.00,0.00,0.00
1958962,1986,1,193929,230061,0.64,-0.22,9.69,-0.04,-0.00,-0.01,32.81
1999200,1920,1,194142,230747,0.64,-0.23,9.94,-0.04,0.01,-0.01,32.81
2039171,1878,1,193933,228968,0.69,-0.34,10.05,-0.04,0.00,-0.02,32.81
2079245,1818,1,193439,228204,0.70,-0.32,9.94,-0.04,0.00,-0.08,32.81
2119171,1732,1,194295,230550,0.64,-0.26,9.96,-0.04,-0.00,-0.12,32.81
2159194,1671,1,195590,232652,0.51,-0.14,9.97,-0.03,-0.02,-0.05,32.81
2199191,1562,1,196295,233784,0.61,-0.20,9.96,-0.03,-0.02,-0.01,32.81
2239194,1520,1,196617,234721,0.61,-0.26,9.98,-0.03,-0.01,-0.01,32.81
2279192,1424,1,196717,235087,0.63,-0.24,9.94,-0.04,-0.01,-0.00,32.81
2319194,1357,1,196914,235561,0.64,-0.23,9.97,-0.04,0.00,-0.01,32.81
2359171,1295,1,197261,236734,0.64,-0.24,9.96,-0.03,-0.00,-0.01,32.81
2399194,1253,1,198038,238785,0.62,-0.22,9.98,-0.03,-0.00,-0.01,32.81
2439191,1214,1,199164,241538,0.64,-0.23,9.96,-0.04,-0.01,-0.02,32.81
2479194,1174,1,200451,243767,0.61,-0.23,9.96,-0.03,-0.01,-0.03,32.81
2519192,1180,1,201327,244325,0.60,-0.20,9.95,-0.03,-0.01,-0.02,32.81
2559194,1127,1,199328,236059,0.61,-0.23,10.02,-0.03,-0.04,-0.01,32.81
2599192,1136,1,197008,234039,0.65,-0.24,9.96,-0.03,-0.03,-0.01,32.81
2639194,1168,1,196641,233715,0.63,-0.23,10.01,-0.03,-0.03,-0.01,32.81
2679192,1207,1,196457,233937,0.66,-0.21,9.95,-0.03,-0.02,-0.01,32.81
2719195,1232,1,196573,234944,0.65,-0.23,9.98,-0.04,-0.01,-0.01,32.81
2759192,1251,1,197385,237774,0.67,-0.21,9.93,-0.04,0.01,-0.00,32.81
2799173,1278,1,199020,240735,0.62,-0.23,9.97,-0.04,0.04,-0.01,32.81
2839171,1347,1,199935,241899,0.69,-0.29,10.02,-0.04,-0.01,-0.11,32.81
2879195,1419,1,200310,243249,0.64,-0.25,9.98,-0.04,-0.01,-0.17,32.81
2919193,1473,1,200615,243936,0.52,-0.13,9.96,-0.04,-0.02,-0.10,32.81
2959195,1535,1,200322,243436,0.59,-0.20,9.98,-0.03,-0.03,-0.02,32.81
2999885,1625,1,199673,242658,0.66,-0.23,9.94,-0.03,-0.04,-0.01,32.75
3038194,1613,1,198979,241303,0.65,-0.23,9.97,-0.03,-0.04,-0.00,32.75
3078192,1680,1,196321,231952,0.67,-0.23,9.96,-0.03,-0.05,-0.01,32.75
3118194,1729,1,193813,230178,0.69,-0.23,9.95,-0.03,-0.03,-0.01,32.75
3158192,1784,1,193589,230137,0.69,-0.23,9.97,-0.03,-0.02,-0.00,32.75
3198194,1793,1,193676,230526,0.68,-0.23,9.97,-0.03,-0.01,-0.01,32.75
3238192,1825,1,193887,231279,0.69,-0.22,10.00,-0.03,-0.03,-0.01,32.75
3278194,1878,1,194286,231917,0.73,-0.23,9.95,-0.03,-0.03,-0.01,32.75
3318192,1935,1,194450,231933,0.72,-0.22,9.96,-0.03,-0.03,-0.01,32.75
3358194,1937,1,194427,231734,0.72,-0.23,9.96,-0.03,-0.04,-0.01,32.75
3398192,1954,1,194447,231695,0.76,-0.23,9.92,-0.03,-0.02,-0.01,32.75
3438194,1935,1,194598,232245,0.75,-0.22,9.95,-0.04,0.01,-0.01,32.75
3478171,1967,1,194956,232983,0.74,-0.20,9.94,-0.04,0.01,-0.00,32.75
3518173,1975,1,195299,233966,0.72,-0.20,9.97,-0.04,0.02,-0.00,32.75
3558171,1985,1,195433,231642,0.70,-0.23,9.96,-0.04,0.02,-0.00,32.75
3598173,2003,1,193767,229781,0.69,-0.23,9.99,-0.04,0.02,-0.01,32.75
3638172,1984,1,193686,230079,0.65,-0.21,9.99,-0.04,0.00,-0.01,32.75
3678174,1977,1,193984,230704,0.69,-0.22,9.95,-0.03,-0.02,-0.01,32.75
3718192,1952,1,194281,231558,0.70,-0.23,9.97,-0.04,0.00,-0.00,32.75
3758174,1932,1,194680,232608,0.68,-0.23,9.96,-0.03,-0.01,-0.01,32.75
3798191,1871,1,195002,233229,0.69,-0.23,9.92,-0.03,-0.01,-0.01,32.75
3838194,1881,1,195006,233102,0.70,-0.22,9.93,-0.04,0.01,-0.00,32.75
3878171,1853,1,194838,232979,0.67,-0.20,9.98,-0.04,0.01,-0.01,32.75
3918171,1839,1,194820,233444,0.67,-0.23,9.95,-0.04,0.01,-0.01,32.75
3958172,1815,1,195045,234031,0.67,-0.25,9.97,-0.04,0.01,-0.01,32.75
3998171,1814,1,195187,234160,0.66,-0.19,9.96,-0.03,-0.02,-0.02,32.75
4038880,1808,1,195149,233632,0.66,-0.23,9.96,-0.03,-0.02,-0.01,32.59
4079204,1771,1,193861,229585,0.67,-0.21,9.94,-0.03,-0.03,-0.01,32.59
4119193,1757,1,193022,228846,0.68,-0.23,9.95,-0.03,-0.02,-0.01,32.59
4159195,1758,1,193013,229070,0.68,-0.23,9.96,-0.03,-0.02,-0.01,32.59
4199193,1725,1,193174,229525,0.70,-0.25,9.97,-0.03,-0.01,-0.00,32.59
4239195,1690,1,193379,230110,0.67,-0.23,9.97,-0.04,-0.00,-0.01,32.59
4279192,1675,1,193653,230667,0.66,-0.24,9.95,-0.03,-0.00,-0.00,32.59
4319195,1674,1,193777,230751,0.67,-0.22,9.96,-0.03,0.00,-0.01,32.59
4359172,1620,1,193710,230692,0.67,-0.21,9.99,-0.03,-0.01,-0.01,32.59
4399195,1648,1,193706,230892,0.69,-0.22,9.99,-0.04,-0.00,-0.01,32.59
4439192,1616,1,193803,231178,0.68,-0.21,9.98,-0.04,-0.01,-0.00,32.59
4479195,1611,1,193933,231573,0.66,-0.21,9.96,-0.03,-0.01,-0.01,32.59
4519193,1602,1,194089,231972,0.67,-0.24,9.98,-0.03,-0.01,-0.01,32.59
4559195,1621,1,194220,230593,0.68,-0.24,9.95,-0.03,-0.01,-0.01,32.59
4599193,1603,1,192903,228546,0.67,-0.22,9.95,-0.03,-0.01,-0.01,32.59
4639235,1631,1,192606,228392,0.67,-0.23,9.97,-0.03,-0.01,-0.01,32.59
4679193,1613,1,192699,228812,0.68,-0.23,9.95,-0.03,-0.01,-0.01,32.59
4719194,1602,1,192963,229349,0.69,-0.21,9.93,-0.03,-0.01,-0.00,32.59
4759192,1593,1,193179,230038,0.67,-0.22,9.97,-0.03,-0.02,-0.01,32.59
4799195,1567,1,193520,230473,0.67,-0.23,9.97,-0.03,-0.01,-0.01,32.59
4839204,1591,1,193565,230373,0.67,-0.22,9.96,-0.04,-0.01,-0.01,32.59
4879194,1557,1,193446,230267,0.67,-0.23,9.96,-0.03,-0.01,-0.01,32.59
4919193,1563,1,193394,230406,0.68,-0.23,9.95,-0.04,-0.00,-0.01,32.59
4959194,1535,1,193537,230756,0.67,-0.22,9.94,-0.03,-0.01,-0.01,32.59
4999192,1535,1,193607,231145,0.69,-0.23,9.96,-0.03,-0.01,-0.01,32.59
5039909,1534,1,193909,231433,0.67,-0.22,9.95,-0.03,-0.01,-0.01,32.59
5078192,1575,1,193208,228935,0.68,-0.23,9.96,-0.03,-0.01,-0.00,32.59
5118194,1581,1,192638,228576,0.67,-0.23,9.97,-0.03,-0.00,-0.01,32.59
5158192,1581,1,192740,228925,0.66,-0.22,9.95,-0.03,-0.01,-0.01,32.59
5198195,1557,1,192901,229395,0.68,-0.22,9.96,-0.04,-0.00,-0.01,32.59
5238192,1575,1,193100,229996,0.65,-0.22,9.98,-0.04,-0.00,-0.01,32.59
5278195,1578,1,193233,230473,0.65,-0.22,9.94,-0.03,-0.00,-0.01,32.59
5318192,1580,1,193397,230589,0.66,-0.23,9.99,-0.04,-0.00,-0.00,32.59
5358194,1582,1,193348,230547,0.68,-0.24,9.97,-0.03,-0.01,-0.01,32.59
5398192,1597,1,193321,230711,0.66,-0.23,9.96,-0.03,-0.01,-0.01,32.59
5438194,1613,1,193285,230914,0.65,-0.23,9.99,-0.03,-0.01,-0.01,32.59
5478192,1590,1,193418,231214,0.66,-0.23,9.97,-0.03,-0.01,-0.01,32.59
5518194,1605,1,193588,231585,0.66,-0.23,9.96,-0.03,-0.01,-0.01,32.59
5558192,1600,1,193613,230658,0.68,-0.24,9.96,-0.04,-0.01,-0.01,32.59
5598194,1605,1,192893,229521,0.68,-0.24,9.96,-0.03,-0.00,-0.00,32.59
5638192,1594,1,192761,229652,0.65,-0.24,9.98,-0.03,-0.01,-0.01,32.59
5678194,1584,1,192818,229870,0.68,-0.22,9.96,-0.03,-0.01,-0.01,32.59
5718192,1600,1,192961,230197,0.69,-0.22,9.95,-0.03,-0.01,-0.01,32.59
5758233,1625,1,193174,230512,0.67,-0.22,9.94,-0.03,-0.01,-0.01,32.59
5798192,1614,1,193320,230740,0.68,-0.23,9.97,-0.04,-0.01,-0.01,32.59
5838194,1623,1,193315,230793,0.67,-0.22,9.98,-0.04,-0.01,-0.01,32.59
5878192,1617,1,193281,230878,0.68,-0.21,9.95,-0.03,-0.01,-0.01,32.59
5918194,1622,1,193214,231012,0.65,-0.23,9.92,-0.03,-0.01,-0.01,32.59
5958192,1638,1,193409,231146,0.67,-0.23,9.96,-0.03,-0.01,-0.01,32.59
5998194,1671,1,193370,231497,0.67,-0.24,9.95,-0.03,-0.01,-0.01,32.59
6038192,1638,1,193545,231683,0.68,-0.23,9.96,-0.03,-0.01,-0.01,32.59
6078882,1607,1,193363,230525,0.66,-0.23,9.96,-0.04,-0.00,-0.01,32.53
6119192,1616,1,192973,229972,0.66,-0.22,9.96,-0.03,-0.01,-0.00,32.53
6159194,1644,1,192876,230243,0.68,-0.21,9.98,-0.03,-0.01,-0.01,32.53
6199193,1616,1,193069,230409,0.67,-0.24,9.96,-0.03,-0.02,-0.01,32.53
6239194,1621,1,193043,230743,0.68,-0.22,9.97,-0.04,-0.01,-0.01,32.53
6279195,1597,1,193251,231035,0.68,-0.23,9.95,-0.03,-0.01,-0.01,32.53
6319195,1615,1,193355,231103,0.67,-0.23,9.95,-0.04,-0.01,-0.01,32.53
6359192,1625,1,193218,231231,0.66,-0.22,9.99,-0.03,-0.00,-0.01,32.53
6399194,1635,1,193345,231188,0.65,-0.23,9.97,-0.03,-0.01,-0.01,32.53
6439192,1633,1,193313,231360,0.66,-0.23,9.98,-0.03,-0.01,-0.01,32.53
6479211,1623,1,193421,231629,0.67,-0.22,9.94,-0.03,-0.01,-0.01,32.53
6519193,1614,1,193546,231799,0.68,-0.22,9.95,-0.03,-0.01,-0.01,32.53
6559194,1615,1,193590,232024,0.67,-0.22,9.96,-0.03,-0.01,-0.01,32.53
6599193,1620,1,193432,231042,0.67,-0.20,9.97,-0.04,-0.00,-0.01,32.53
6639195,1606,1,192980,230569,0.67,-0.21,9.97,-0.03,-0.01,-0.01,32.53
6679209,1607,1,192914,230650,0.66,-0.23,9.98,-0.03,-0.01,-0.01,32.53
6719195,1598,1,193004,230870,0.69,-0.23,9.96,-0.03,-0.02,-0.01,32.53
6759192,1600,1,193229,231260,0.69,-0.21,9.96,-0.03,-0.01,-0.00,32.53
6799194,1600,1,193319,231477,0.67,-0.24,9.93,-0.03,-0.01,-0.01,32.53
6839193,1614,1,193294,231521,0.66,-0.21,9.96,-0.03,-0.01,-0.01,32.53
6879194,1600,1,193395,231630,0.67,-0.24,9.95,-0.04,-0.00,-0.01,32.53
6919192,1605,1,193386,231664,0.67,-0.23,9.98,-0.03,-0.01,-0.01,32.53
6959194,1597,1,193309,231753,0.66,-0.21,9.94,-0.03,-0.01,-0.01,32.53
6999192,1600,1,193427,231940,0.67,-0.22,9.97,-0.03,-0.01,-0.00,32.53
7039194,1595,1,193514,232219,0.68,-0.22,9.98,-0.04,-0.01,-0.01,32.53
7079880,1558,1,193627,232508,0.67,-0.24,9.96,-0.03,-0.01,-0.01,32.41
7118194,1643,1,193625,232168,0.68,-0.24,9.94,-0.03,-0.01,-0.01,32.41
7158192,1664,1,193224,231146,0.66,-0.22,9.96,-0.03,-0.00,-0.01,32.41
7198194,1650,1,193068,231141,0.69,-0.21,9.95,-0.04,-0.01,-0.01,32.41
7238192,1667,1,193114,231341,0.69,-0.23,9.95,-0.03,-0.01,-0.01,32.41
7278194,1669,1,193112,231616,0.69,-0.21,9.95,-0.04,-0.01,-0.01,32.41
7318192,1681,1,193288,231942,0.67,-0.22,9.97,-0.03,-0.01,-0.00,32.41
7358194,1717,1,193416,232186,0.66,-0.23,9.95,-0.03,-0.01,-0.00,32.41
7398192,1744,1,193380,232158,0.68,-0.23,9.97,-0.03,-0.01,-0.01,32.41
7438194,1787,1,193337,232198,0.68,-0.23,9.96,-0.03,-0.01,-0.01,32.41
7478192,1808,1,193361,232314,0.68,-0.22,9.96,-0.03,-0.01,-0.01,32.41
7518194,1863,1,193414,232495,0.68,-0.22,9.98,-0.03,-0.01,-0.00,32.41
7558192,1903,1,193476,232710,0.67,-0.23,9.96,-0.03,-0.01,-0.01,32.41
7598194,1947,1,193671,232992,0.68,-0.23,9.98,-0.03,-0.01,-0.01,32.41
7640192,1886,1,193726,233210,0.68,-0.23,9.96,-0.03,-0.01,-0.01,32.41
7680194,1919,1,193553,232175,0.68,-0.21,9.97,-0.04,-0.01,-0.01,32.41
7720192,1931,1,193050,231682,0.68,-0.20,9.98,-0.03,-0.01,-0.01,32.41
7760194,1938,1,193040,231718,0.67,-0.24,9.97,-0.03,-0.01,-0.01,32.41
7800192,1938,1,193175,231960,0.68,-0.20,9.96,-0.03,-0.01,-0.01,32.41
7840195,1919,1,193260,232299,0.66,-0.23,9.96,-0.03,-0.01,-0.01,32.41
7880192,1911,1,193387,232565,0.69,-0.23,9.96,-0.03,-0.01,-0.01,32.41
7920194,1904,1,193474,232645,0.66,-0.21,9.95,-0.04,-0.00,-0.01,32.41
7960192,1871,1,193532,232666,0.68,-0.23,9.98,-0.04,-0.00,-0.01,32.41
8000194,1841,1,193533,232843,0.68,-0.23,9.97,-0.03,-0.01,-0.01,32.41
8040192,1767,1,193447,232837,0.66,-0.21,9.93,-0.03,-0.01,-0.01,32.41
8080882,1709,1,193659,233128,0.66,-0.23,9.95,-0.03,-0.01,-0.00,32.47
8119210,1760,1,193732,233372,0.68,-0.23,9.95,-0.03,-0.01,-0.00,32.47
8159194,1722,1,193837,233650,0.68,-0.23,9.96,-0.03,-0.01,-0.01,32.47
8199192,1665,1,193688,232583,0.66,-0.22,9.95,-0.03,-0.01,-0.01,32.47
8239194,1629,1,193178,231973,0.67,-0.22,9.95,-0.03,-0.00,-0.01,32.47
8279191,1588,1,193170,232099,0.68,-0.21,9.99,-0.03,-0.01,-0.01,32.47
8319224,1535,1,193283,232426,0.67,-0.24,9.96,-0.03,-0.01,-0.01,32.47
8359192,1509,1,193333,232746,0.67,-0.21,9.96,-0.03,-0.01,-0.01,32.47
8399194,1488,1,193471,233021,0.68,-0.23,9.96,-0.03,-0.01,-0.00,32.47
8439192,1458,1,193546,233031,0.68,-0.23,9.94,-0.03,-0.01,-0.01,32.47
8479194,1456,1,193541,233075,0.67,-0.24,9.96,-0.03,-0.00,-0.01,32.47
8519192,1459,1,193528,233115,0.67,-0.24,9.97,-0.04,-0.01,-0.01,32.47
8559194,1456,1,193600,233226,0.66,-0.22,9.97,-0.03,-0.01,-0.01,32.47
8599192,1482,1,193682,233460,0.68,-0.22,9.95,-0.04,-0.01,-0.01,32.47
8639194,1487,1,193732,233745,0.66,-0.22,9.95,-0.03,-0.01,-0.01,32.47
8679192,1516,1,193865,233994,0.68,-0.23,9.96,-0.03,-0.01,-0.01,32.47
8719194,1521,1,193779,232953,0.67,-0.23,9.94,-0.03,-0.00,-0.01,32.47
8759191,1535,1,193265,232292,0.65,-0.25,9.94,-0.03,-0.00,-0.00,32.47
8799194,1574,1,193215,232396,0.66,-0.23,9.95,-0.03,-0.01,-0.01,32.47
8839192,1601,1,193282,232702,0.67,-0.23,9.94,-0.03,-0.01,-0.01,32.47
8879194,1614,1,193440,233007,0.67,-0.20,9.94,-0.03,-0.01,-0.01,32.47
8919191,1683,1,193629,233376,0.69,-0.22,9.97,-0.03,-0.01,-0.01,32.47
8959194,1684,1,193614,233384,0.67,-0.22,9.97,-0.04,-0.00,-0.01,32.47
8999192,1719,1,193650,233394,0.67,-0.22,9.95,-0.03,-0.01,-0.01,32.47
9039194,1754,1,193666,233448,0.67,-0.23,9.98,-0.03,-0.01,-0.01,32.47
9079192,1793,1,193695,233588,0.66,-0.24,9.97,-0.04,-0.00,-0.01,32.47
9119881,1779,1,193708,233800,0.68,-0.23,9.99,-0.03,-0.01,-0.01,32.49
9160192,1834,1,193823,234014,0.66,-0.21,9.97,-0.04,-0.01,-0.01,32.49
9200194,1839,1,193874,234234,0.65,-0.23,9.95,-0.03,-0.01,-0.00,32.49
9240192,1867,1,194018,233830,0.67,-0.23,9.95,-0.03,-0.01,-0.01,32.49
9280194,1847,1,193382,232530,0.69,-0.23,9.97,-0.04,-0.00,-0.00,32.49
9320192,1872,1,193192,232450,0.67,-0.23,9.97,-0.03,-0.01,-0.01,32.49
9360194,1906,1,193243,232677,0.65,-0.23,9.94,-0.03,-0.01,-0.01,32.49
9400192,1907,1,193388,232986,0.68,-0.23,9.94,-0.03,-0.01,-0.01,32.49
9440194,1904,1,193512,233378,0.67,-0.22,9.96,-0.03,-0.01,-0.00,32.49
9480192,1923,1,193647,233568,0.69,-0.23,9.93,-0.03,-0.01,-0.00,32.49
9520194,1933,1,193656,233579,0.68,-0.23,9.95,-0.04,-0.00,-0.01,32.49
9560192,1921,1,193653,233560,0.67,-0.23,9.98,-0.03,-0.01,-0.01,32.49
9600194,1914,1,193661,233657,0.69,-0.20,9.92,-0.04,-0.01,-0.01,32.49
9640192,1919,1,193697,233766,0.68,-0.23,9.95,-0.03,-0.01,-0.01,32.49
9680194,1913,1,193765,233977,0.68,-0.24,9.94,-0.03,-0.01,-0.01,32.49
9720192,1881,1,193811,234213,0.67,-0.25,9.96,-0.03,-0.01,-0.01,32.49
9760198,1891,1,193960,234422,0.69,-0.22,9.97,-0.03,-0.01,-0.00,32.49
9800192,1888,1,193736,232990,0.68,-0.22,9.97,-0.03,-0.00,-0.01,32.49
9840194,1874,1,193207,232370,0.66,-0.23,9.98,-0.03,-0.01,-0.01,32.49
9880192,1870,1,193141,232518,0.68,-0.22,10.00,-0.03,-0.01,-0.00,32.49
9920195,1857,1,193286,232870,0.67,-0.22,9.96,-0.03,-0.01,-0.00,32.49
9960224,1835,1,193370,233235,0.68,-0.21,9.96,-0.03,-0.01,-0.01,32.49
10000194,1832,1,193562,233620,0.69,-0.23,9.97,-0.03,-0.01,-0.01,32.49
10040194,1845,1,193646,233724,0.67,-0.22,9.97,-0.03,-0.00,-0.01,32.49
10080194,1830,1,193670,233706,0.66,-0.22,9.98,-0.04,-0.00,-0.01,32.49
10120880,1840,1,193662,233725,0.65,-0.23,9.96,-0.03,-0.01,-0.01,32.45
10159194,1775,1,193709,233859,0.67,-0.23,9.94,-0.03,-0.01,-0.00,32.45
10199192,1779,1,193786,234059,0.68,-0.23,9.95,-0.04,-0.01,-0.01,32.45
10239194,1786,1,193867,234378,0.67,-0.23,9.96,-0.03,-0.01,-0.00,32.45
10279192,1782,1,194042,234738,0.69,-0.23,9.93,-0.03,-0.01,-0.01,32.45
10319194,1786,1,194138,234468,0.66,-0.22,9.96,-0.03,-0.01,-0.01,32.45
10359195,1754,1,193446,232620,0.67,-0.23,9.97,-0.03,-0.01,-0.01,32.45
10399194,1759,1,193143,232408,0.67,-0.23,9.95,-0.03,-0.01,-0.01,32.45
10439194,1749,1,193220,232739,0.67,-0.21,9.97,-0.03,-0.02,-0.01,32.45
10479194,1742,1,193349,233103,0.68,-0.26,9.96,-0.03,-0.01,-0.00,32.45
10519192,1725,1,193526,233559,0.68,-0.23,9.96,-0.04,-0.01,-0.01,32.45
10559195,1698,1,193666,233838,0.68,-0.23,9.97,-0.03,-0.01,-0.01,32.45
10599194,1709,1,193656,233777,0.66,-0.22,9.95,-0.03,-0.01,-0.01,32.45
10639194,1713,1,193652,233674,0.66,-0.22,9.94,-0.03,-0.01,-0.01,32.45
10679194,1712,1,193601,233725,0.65,-0.22,9.95,-0.03,-0.01,-0.01,32.45
10719194,1699,1,193660,233876,0.67,-0.24,9.97,-0.03,-0.01,-0.00,32.45
10759192,1680,1,193682,234073,0.68,-0.24,10.00,-0.03,-0.01,-0.00,32.45
10799194,1685,1,193832,234344,0.69,-0.21,9.99,-0.03,-0.01,-0.01,32.45
10839194,1663,1,193956,234687,0.67,-0.24,9.97,-0.03,-0.01,-0.00,32.45
10879194,1657,1,193708,232908,0.63,-0.25,9.94,-0.03,-0.01,-0.01,32.45
10919194,1651,1,193002,232185,0.68,-0.22,9.93,-0.04,-0.01,-0.01,32.45
10959194,1648,1,193017,232317,0.66,-0.23,9.97,-0.03,-0.01,-0.00,32.45
10999192,1631,1,193161,232668,0.68,-0.22,9.96,-0.03,-0.02,-0.01,32.45
11039194,1623,1,193257,232979,0.67,-0.22,9.94,-0.03,-0.01,-0.01,32.45
11079194,1618,1,193440,233413,0.68,-0.23,9.97,-0.03,-0.01,-0.01,32.45
11119194,1621,1,193531,233441,0.68,-0.22,9.98,-0.03,-0.01,-0.01,32.45
11159880,1639,1,193447,233316,0.67,-0.22,9.96,-0.03,-0.01,-0.00,32.41
11200194,1631,1,193467,233351,0.69,-0.22,9.99,-0.03,-0.01,-0.01,32.41
11240194,1626,1,193444,233480,0.66,-0.21,9.94,-0.03,-0.01,-0.00,32.41
11280194,1610,1,193504,233647,0.66,-0.23,9.98,-0.03,-0.01,-0.01,32.41
11320194,1616,1,193630,234005,0.68,-0.21,9.96,-0.03,-0.01,-0.01,32.41
11360194,1601,1,193738,234341,0.66,-0.24,9.96,-0.03,-0.01,-0.01,32.41
11400194,1603,1,193806,233160,0.69,-0.23,9.94,-0.03,-0.01,-0.01,32.41
11440194,1584,1,192925,231732,0.68,-0.22,9.95,-0.04,-0.01,-0.00,32.41
11480192,1583,1,192808,231766,0.66,-0.23,9.99,-0.03,-0.01,-0.00,32.41
11520194,1594,1,192911,232102,0.68,-0.21,9.95,-0.03,-0.01,-0.01,32.41
11560194,1580,1,193046,232482,0.69,-0.23,9.98,-0.03,-0.01,-0.01,32.41
11600194,1572,1,193231,232901,0.68,-0.22,9.95,-0.03,-0.01,-0.01,32.41
11640194,1569,1,193409,233109,0.68,-0.22,9.96,-0.04,-0.00,-0.01,32.41
11680194,1535,1,193429,233110,0.67,-0.21,9.97,-0.03,-0.01,-0.01,32.41
11720194,1559,1,193401,233017,0.70,-0.22,9.94,-0.03,-0.01,-0.00,32.41
11760194,1533,1,193425,233109,0.68,-0.24,9.95,-0.04,-0.01,-0.01,32.41
11800201,1535,1,193499,233348,0.68,-0.22,9.96,-0.03,-0.01,-0.01,32.41
11840194,1535,1,193605,233647,0.69,-0.23,9.96,-0.03,-0.01,-0.01,32.41
11880194,1531,1,193697,233995,0.68,-0.25,9.98,-0.03,-0.01,-0.01,32.41
11920194,1535,1,193896,233994,0.69,-0.22,9.96,-0.03,-0.01,-0.01,32.41
11960194,1533,1,193205,231906,0.69,-0.23,9.95,-0.03,-0.01,-0.00,32.41
12000194,1527,1,192751,231527,0.68,-0.22,10.01,-0.03,-0.01,-0.01,32.41
12040194,1526,1,192825,231824,0.67,-0.23,9.97,-0.03,-0.01,-0.00,32.41
12080194,1535,1,192998,232174,0.69,-0.22,9.96,-0.03,-0.01,-0.01,32.41
12120194,1530,1,193135,232563,0.69,-0.22,9.95,-0.03,-0.01,-0.01,32.41
12160881,1535,1,193321,232899,0.68,-0.23,9.93,-0.03,-0.01,-0.01,32.33
12199194,1564,1,193348,232945,0.69,-0.22,9.95,-0.03,-0.00,-0.00,32.33
12239194,1571,1,193335,232904,0.67,-0.21,9.96,-0.04,-0.00,-0.01,32.33
12279192,1563,1,193351,232999,0.69,-0.21,9.97,-0.03,-0.01,-0.01,32.33
12319194,1571,1,193334,233166,0.68,-0.22,9.93,-0.04,-0.01,-0.00,32.33
12359192,1557,1,193453,233446,0.68,-0.23,9.96,-0.03,-0.01,-0.01,32.33
12399194,1577,1,193580,233872,0.70,-0.23,9.96,-0.03,-0.01,-0.01,32.33
12439192,1567,1,193707,234205,0.68,-0.21,9.94,-0.03,-0.01,-0.01,32.33
12479194,1579,1,193535,232343,0.68,-0.22,9.95,-0.04,-0.00,-0.01,32.33
12519192,1566,1,192730,231451,0.66,-0.23,9.95,-0.03,-0.01,-0.00,32.33
12559194,1571,1,192701,231641,0.68,-0.24,9.96,-0.04,-0.01,-0.01,32.33
12599195,1535,1,192849,232076,0.68,-0.23,9.96,-0.03,-0.01,-0.01,32.33
12639194,1584,1,193004,232386,0.68,-0.24,9.96,-0.04,-0.01,-0.01,32.33
12679194,1577,1,193204,232799,0.69,-0.22,9.98,-0.03,-0.01,-0.01,32.33
12719194,1586,1,193350,233074,0.69,-0.21,9.95,-0.04,0.01,-0.00,32.33
12759171,1587,1,193333,233117,0.64,-0.23,9.97,-0.04,0.01,-0.01,32.33
12799173,1585,1,193396,233313,0.66,-0.22,9.98,-0.04,0.00,-0.00,32.33
12839171,1587,1,193515,233744,0.66,-0.23,9.96,-0.03,0.01,-0.01,32.33
12879173,1584,1,193770,234155,0.65,-0.23,9.96,-0.04,0.01,-0.01,32.33
12919171,1574,1,193919,234560,0.61,-0.21,10.01,-0.04,-0.02,-0.05,32.33
12959194,1586,1,194152,234962,0.62,-0.22,9.96,-0.03,-0.01,-0.01,32.33
12999193,1581,1,194310,234159,0.67,-0.22,9.97,-0.03,-0.02,-0.01,32.33
13039194,1574,1,193419,232289,0.67,-0.23,10.00,-0.03,-0.02,-0.00,32.33
13079192,1583,1,193142,232177,0.65,-0.23,9.96,-0.03,-0.02,-0.01,32.33
13119194,1599,1,193265,232456,0.68,-0.24,9.98,-0.03,-0.02,-0.00,32.33
13159192,1607,1,193324,232851,0.68,-0.24,9.98,-0.03,-0.02,-0.01,32.33
13199882,1577,1,193468,233291,0.68,-0.22,9.94,-0.03,-0.02,-0.01,32.41
13240192,1600,1,193676,233612,0.69,-0.23,9.97,-0.04,0.00,-0.01,32.41
13280173,1616,1,193717,233773,0.70,-0.22,9.98,-0.04,0.00,-0.01,32.41
13320171,1639,1,193761,234025,0.68,-0.22,9.98,-0.04,-0.00,-0.01,32.41
13360194,1664,1,193859,234277,0.67,-0.22,9.96,-0.04,0.00,-0.00,32.41
13400171,1699,1,193975,234668,0.66,-0.24,9.99,-0.04,-0.00,-0.00,32.41
13440197,1733,1,194114,235217,0.67,-0.23,9.97,-0.03,-0.01,-0.00,32.41
13480192,1786,1,194434,235920,0.67,-0.22,9.99,-0.03,-0.01,-0.01,32.41
13520194,1824,1,194729,236143,0.65,-0.23,10.00,-0.03,-0.01,-0.00,32.41
13560192,1873,1,193736,232613,0.67,-0.24,9.95,-0.03,-0.01,-0.01,32.41
13600194,1920,1,193045,232173,0.67,-0.21,9.97,-0.03,-0.01,-0.01,32.41
13640194,1961,1,193153,232587,0.67,-0.23,9.96,-0.04,-0.01,-0.00,32.41
13680194,1994,1,193319,233066,0.66,-0.22,9.97,-0.04,-0.01,-0.00,32.41
13720192,2003,1,193576,233809,0.66,-0.22,9.95,-0.03,-0.01,-0.01,32.41
13760194,2021,1,193949,234538,0.68,-0.22,9.98,-0.04,-0.00,-0.00,32.41
13800192,2007,1,194114,234588,0.66,-0.23,9.98,-0.04,-0.00,-0.01,32.41
13840194,1986,1,194058,234414,0.68,-0.20,9.96,-0.03,-0.01,-0.01,32.41
13880192,1987,1,194057,234655,0.68,-0.23,9.95,-0.03,-0.01,-0.01,32.41
13920194,1959,1,194202,235010,0.67,-0.23,9.96,-0.03,-0.00,-0.01,32.41
13960192,1920,1,194454,235895,0.66,-0.23,9.96,-0.03,-0.00,-0.01,32.41
14000194,1870,1,194807,236722,0.66,-0.22,9.96,-0.03,-0.01,-0.00,32.41
14040192,1811,1,195145,237268,0.66,-0.22,9.94,-0.03,-0.01,-0.00,32.41
14080194,1773,1,194369,233102,0.69,-0.22,9.97,-0.04,-0.01,-0.01,32.41
14120194,1709,1,193287,232454,0.68,-0.23,9.96,-0.04,-0.01,-0.01,32.41
14160194,1670,1,193343,232784,0.65,-0.23,9.95,-0.03,-0.01,-0.01,32.41
14200881,1560,1,193495,233350,0.66,-0.23,9.98,-0.03,-0.01,-0.00,32.27
14239194,1603,1,193764,234026,0.66,-0.23,9.97,-0.04,-0.01,-0.01,32.27
14279194,1557,1,194083,234863,0.67,-0.21,9.96,-0.03,-0.00,-0.01,32.27
14319194,1519,1,194352,235229,0.66,-0.22,9.93,-0.04,-0.00,-0.01,32.27
14359192,1477,1,194383,235130,0.67,-0.24,9.96,-0.03,-0.00,-0.01,32.27
14399194,1465,1,194335,235192,0.64,-0.23,9.96,-0.03,-0.01,-0.03,32.27
14439192,1442,1,194476,235560,0.67,-0.22,9.97,-0.04,-0.00,-0.02,32.27
14479194,1450,1,194677,236178,0.66,-0.21,9.95,-0.04,-0.01,-0.02,32.27
14519192,1436,1,194935,237025,0.65,-0.21,9.98,-0.04,-0.01,-0.02,32.27
14559194,1441,1,195315,237760,0.67,-0.21,9.96,-0.03,-0.01,-0.01,32.27
14599192,1456,1,194871,234052,0.68,-0.23,9.98,-0.03,-0.01,-0.01,32.27
14639194,1472,1,193536,233038,0.67,-0.24,9.94,-0.03,-0.01,-0.02,32.27
14679192,1509,1,193502,233312,0.66,-0.22,9.95,-0.04,-0.01,-0.02,32.27
14719194,1535,1,193683,233672,0.66,-0.22,9.97,-0.03,-0.01,-0.01,32.27
14759192,1583,1,193887,234219,0.65,-0.23,9.96,-0.03,-0.01,-0.01,32.27
14799194,1614,1,194116,234938,0.64,-0.23,9.98,-0.03,-0.01,-0.01,32.27
14839194,1655,1,194365,235195,0.65,-0.22,9.97,-0.04,-0.00,-0.01,32.27
14879204,1671,1,194395,235090,0.64,-0.23,9.96,-0.03,-0.01,-0.01,32.27
14919195,1713,1,194357,235174,0.65,-0.23,9.97,-0.03,-0.01,-0.01,32.27
14959194,1723,1,194442,235510,0.65,-0.23,9.97,-0.03,-0.01,-0.01,32.27
14999192,1776,1,194601,236118,0.65,-0.23,9.95,-0.03,-0.01,-0.01,32.27
15039194,1802,1,194823,236632,0.66,-0.22,9.92,-0.03,-0.01,-0.01,32.27
15079208,1829,1,195088,237367,0.68,-0.21,9.97,-0.03,-0.01,-0.01,32.27
15119194,1863,1,195256,235586,0.66,-0.23,9.95,-0.04,-0.01,-0.01,32.27
15159192,1872,1,193715,233213,0.66,-0.24,9.96,-0.04,-0.01,-0.01,32.27
15199194,1906,1,193501,233273,0.65,-0.22,9.97,-0.03,-0.01,-0.01,32.27
15239882,1899,1,193650,233676,0.66,-0.23,9.95,-0.03,-0.01,-0.01,32.39
15280225,1909,1,193823,234151,0.67,-0.22,9.96,-0.03,-0.01,-0.00,32.39
15320192,1925,1,194042,234926,0.66,-0.23,9.94,-0.03,-0.01,-0.01,32.39
15360194,1939,1,194372,235487,0.66,-0.24,9.96,-0.04,-0.00,-0.01,32.39
15400192,1945,1,194508,235581,0.64,-0.25,9.96,-0.04,-0.00,-0.01,32.39
15440194,1959,1,194527,235620,0.66,-0.23,9.96,-0.03,-0.01,-0.01,32.39
15480194,1955,1,194599,235811,0.66,-0.24,9.96,-0.03,-0.01,-0.01,32.39
15520194,1955,1,194710,236231,0.66,-0.23,9.97,-0.04,-0.01,-0.01,32.39
15560192,1946,1,194945,236847,0.64,-0.22,9.99,-0.03,-0.01,-0.01,32.39
15600194,1951,1,195183,237667,0.66,-0.23,9.98,-0.03,-0.01,-0.01,32.39
15640194,1930,1,195530,238041,0.66,-0.20,9.95,-0.03,-0.01,-0.01,32.39
15680194,1923,1,194553,233939,0.66,-0.22,9.96,-0.03,-0.01,-0.01,32.39
15720194,1918,1,193658,233445,0.68,-0.23,9.95,-0.03,-0.01,-0.01,32.39
15760194,1905,1,193724,233757,0.65,-0.22,9.96,-0.03,-0.01,-0.01,32.39
15800194,1899,1,193877,234239,0.65,-0.23,9.94,-0.03,-0.01,-0.01,32.39
15840194,1896,1,194086,234967,0.67,-0.22,9.97,-0.03,-0.01,-0.01,32.39
15880194,1872,1,194461,235809,0.67,-0.24,9.95,-0.03,-0.01,-0.01,32.39
15920194,1873,1,194688,235847,0.67,-0.24,9.96,-0.03,-0.00,-0.01,32.39
15960192,1867,1,194590,235678,0.65,-0.23,9.97,-0.03,-0.01,-0.01,32.39
16000194,1841,1,194577,235784,0.67,-0.23,9.96,-0.03,-0.01,-0.01,32.39
16040195,1838,1,194643,236050,0.66,-0.22,9.97,-0.03,-0.01,-0.01,32.39
16080194,1834,1,194844,236481,0.67,-0.21,9.97,-0.03,-0.01,-0.01,32.39
16120194,1834,1,195010,237015,0.66,-0.23,9.99,-0.03,-0.01,-0.01,32.39
16160194,1819,1,195262,237692,0.67,-0.23,9.98,-0.03,-0.01,-0.01,32.39
16200194,1811,1,195132,234740,0.66,-0.24,9.99,-0.03,-0.00,-0.01,32.39
16240882,1834,1,193719,233394,0.65,-0.23,9.98,-0.03,-0.01,-0.01,32.55
16279194,1769,1,193641,233602,0.64,-0.22,9.98,-0.03,-0.01,-0.01,32.55
16319204,1769,1,193758,233986,0.64,-0.21,9.96,-0.03,-0.01,-0.01,32.55
16359194,1755,1,193975,234492,0.67,-0.21,10.00,-0.03,-0.01,-0.01,32.55
16399194,1754,1,194227,235261,0.66,-0.23,9.94,-0.03,-0.01,-0.00,32.55
16439192,1743,1,194425,235459,0.66,-0.23,9.97,-0.03,-0.01,-0.00,32.55
16479194,1734,1,194425,235322,0.65,-0.23,9.94,-0.03,-0.01,-0.01,32.55
16519191,1707,1,194451,235495,0.67,-0.22,9.96,-0.03,-0.01,-0.00,32.55
16559194,1704,1,194572,235870,0.66,-0.23,9.99,-0.03,-0.01,-0.01,32.55
16599192,1717,1,194720,236351,0.68,-0.22,9.96,-0.04,-0.01,-0.01,32.55
16639194,1709,1,194959,237010,0.67,-0.21,9.96,-0.03,-0.01,-0.00,32.55
16679192,1680,1,195292,237942,0.63,-0.24,9.97,-0.03,-0.01,-0.01,32.55
16719208,1699,1,195542,237097,0.66,-0.23,9.96,-0.03,-0.01,-0.01,32.55
16759194,1709,1,194029,233644,0.65,-0.22,9.98,-0.03,-0.00,-0.01,32.55
16799195,1680,1,193638,233443,0.63,-0.23,9.99,-0.03,-0.01,-0.01,32.55
16839192,1681,1,193729,233762,0.64,-0.23,9.98,-0.03,-0.02,-0.01,32.55
16879194,1685,1,193875,234230,0.66,-0.23,9.96,-0.03,-0.01,-0.01,32.55
16919198,1657,1,194100,234940,0.65,-0.22,9.96,-0.03,-0.00,-0.01,32.55
16959194,1667,1,194411,235535,0.65,-0.26,9.95,-0.04,-0.01,-0.01,32.55
16999192,1664,1,194523,235492,0.65,-0.23,9.99,-0.03,-0.01,-0.01,32.55
17039194,1659,1,194421,235380,0.65,-0.23,9.96,-0.03,-0.01,-0.01,32.55
17079192,1663,1,194455,235670,0.68,-0.23,9.97,-0.03,-0.01,-0.01,32.55
17119194,1664,1,194620,236131,0.65,-0.23,9.97,-0.04,-0.01,-0.01,32.55
17159194,1653,1,194820,236675,0.65,-0.23,9.98,-0.03,-0.01,-0.01,32.55
17199194,1648,1,195067,237306,0.64,-0.25,9.97,-0.03,-0.01,-0.01,32.55
17239194,1648,1,195357,238128,0.66,-0.22,9.95,-0.03,-0.01,-0.01,32.55
17279882,1658,1,195369,235210,0.66,-0.24,9.96,-0.03,-0.01,-0.01,32.49
17320194,1645,1,193714,233365,0.66,-0.22,9.97,-0.03,-0.01,-0.01,32.49
17360195,1645,1,193586,233380,0.65,-0.23,9.97,-0.03,-0.01,-0.01,32.49
17400194,1631,1,193670,233757,0.65,-0.23,9.96,-0.03,-0.02,-0.01,32.49
17440194,1626,1,193845,234246,0.67,-0.23,9.97,-0.03,-0.01,-0.01,32.49
17480194,1631,1,194121,235057,0.64,-0.22,9.95,-0.04,-0.01,-0.01,32.49
17520194,1626,1,194468,235640,0.67,-0.24,9.97,-0.03,-0.00,-0.01,32.49
17560192,1619,1,194548,235635,0.64,-0.23,9.99,-0.03,-0.01,-0.01,32.49
17600194,1627,1,194563,235690,0.64,-0.25,9.96,-0.03,-0.01,-0.01,32.49
17640194,1618,1,194664,236147,0.64,-0.23,9.96,-0.04,-0.01,-0.01,32.49
17680194,1630,1,194922,236861,0.65,-0.23,9.98,-0.03,-0.00,-0.01,32.49
17720192,1613,1,195222,237714,0.66,-0.22,9.96,-0.03,-0.00,-0.01,32.49
17760194,1600,1,195587,238521,0.67,-0.23,9.97,-0.03,-0.01,-0.01,32.49
17800194,1605,1,195926,239408,0.65,-0.20,9.96,-0.03,-0.01,-0.01,32.49
17840194,1599,1,195559,235057,0.66,-0.23,9.95,-0.03,-0.01,-0.01,32.49
17880192,1600,1,193808,233629,0.66,-0.25,9.97,-0.03,-0.01,-0.02,32.49
17920194,1590,1,193754,233770,0.66,-0.22,9.96,-0.03,-0.02,-0.01,32.49
17960192,1589,1,193899,234155,0.65,-0.23,9.96,-0.03,-0.02,-0.01,32.49
18000194,1585,1,194042,234656,0.65,-0.23,9.98,-0.03,-0.01,-0.01,32.49
18040194,1587,1,194347,235561,0.68,-0.24,9.97,-0.03,-0.00,-0.00,32.49
18080194,1584,1,194702,236078,0.65,-0.23,9.96,-0.03,-0.00,-0.01,32.49
18120192,1575,1,194770,236148,0.65,-0.23,9.98,-0.04,-0.00,-0.01,32.49
18160194,1562,1,194806,236417,0.64,-0.22,9.98,-0.03,-0.00,-0.01,32.49
18200192,1581,1,195062,237094,0.63,-0.24,9.97,-0.03,-0.01,-0.01,32.49
18240194,1572,1,195322,237850,0.66,-0.22,9.97,-0.04,-0.01,-0.01,32.49
18280880,1584,1,195583,238507,0.64,-0.23,9.95,-0.03,-0.01,-0.01,32.49
18319194,1571,1,195920,239472,0.65,-0.22,9.95,-0.03,-0.01,-0.01,32.49
18359192,1574,1,196316,240047,0.65,-0.23,9.96,-0.03,-0.01,-0.01,32.49
18399194,1561,1,195250,234700,0.66,-0.25,9.95,-0.04,-0.01,-0.01,32.49
18439194,1581,1,194001,234094,0.66,-0.21,9.96,-0.03,-0.01,-0.02,32.49
18479194,1584,1,194035,234480,0.63,-0.20,9.96,-0.03,-0.01,-0.01,32.49
18519192,1584,1,194286,235078,0.67,-0.22,9.96,-0.03,-0.02,-0.01,32.49
18559223,1580,1,194513,235887,0.65,-0.23,9.96,-0.03,-0.01,-0.01,32.49
18599194,1590,1,194931,236733,0.65,-0.23,9.95,-0.03,-0.01,-0.01,32.49
18639194,1597,1,195059,236622,0.66,-0.23,9.96,-0.03,-0.01,-0.01,32.49
18679194,1600,1,194868,236323,0.65,-0.23,9.98,-0.03,-0.01,-0.01,32.49
18719194,1616,1,194875,236607,0.67,-0.23,9.95,-0.03,-0.01,-0.01,32.49
18759194,1628,1,195115,237246,0.62,-0.22,9.94,-0.03,-0.00,-0.01,32.49
18799194,1637,1,195429,237937,0.67,-0.23,9.98,-0.03,-0.01,-0.01,32.49
18839194,1646,1,195736,238988,0.64,-0.21,9.95,-0.03,-0.01,-0.01,32.49
18879194,1652,1,196223,240304,0.65,-0.22,9.96,-0.03,-0.01,-0.01,32.49
18919194,1656,1,196458,237342,0.65,-0.24,9.96,-0.03,-0.01,-0.01,32.49
18959194,1662,1,194217,234089,0.66,-0.23,9.99,-0.03,-0.01,-0.01,32.49
18999192,1687,1,193935,233965,0.68,-0.23,10.00,-0.03,-0.02,-0.01,32.49
19039194,1700,1,193977,234394,0.66,-0.24,9.97,-0.03,-0.02,-0.01,32.49
19079192,1729,1,194231,235104,0.65,-0.22,9.95,-0.03,-0.01,-0.01,32.49
19119194,1753,1,194615,236210,0.67,-0.21,9.96,-0.03,-0.00,-0.00,32.49
19159192,1786,1,195041,236783,0.65,-0.23,9.93,-0.04,-0.00,-0.01,32.49
19199194,1831,1,195117,236743,0.67,-0.23,9.96,-0.04,-0.00,-0.01,32.49
19239192,1840,1,195175,237164,0.65,-0.22,9.97,-0.04,-0.00,-0.01,32.49
19279194,1857,1,195458,237960,0.65,-0.23,9.98,-0.03,-0.01,-0.01,32.49
19319882,1843,1,195731,238520,0.65,-0.22,9.98,-0.03,-0.01,-0.01,32.41
19360194,1875,1,195888,238910,0.65,-0.22,10.01,-0.03,-0.02,-0.01,32.41
19400194,1885,1,196087,239613,0.67,-0.22,9.96,-0.03,-0.01,-0.01,32.41
19440194,1919,1,196414,239614,0.65,-0.21,9.96,-0.03,-0.00,-0.01,32.41
19480192,1885,1,194987,234414,0.66,-0.21,9.96,-0.04,-0.00,-0.00,32.41
19520194,1888,1,194053,234025,0.67,-0.23,9.95,-0.03,-0.01,-0.00,32.41
19560193,1877,1,194086,234415,0.65,-0.23,9.96,-0.03,-0.01,-0.01,32.41
19600194,1873,1,194339,235024,0.65,-0.22,9.96,-0.04,-0.01,-0.01,32.41
19640194,1856,1,194559,235722,0.65,-0.24,9.97,-0.03,-0.01,-0.01,32.41
19680194,1826,1,194941,236599,0.66,-0.22,9.95,-0.03,-0.01,-0.01,32.41
19720194,1801,1,195167,236735,0.67,-0.22,9.95,-0.03,-0.01,-0.00,32.41
19760194,1771,1,195113,236640,0.65,-0.23,9.96,-0.03,-0.01,-0.01,32.41
19800194,1741,1,195141,236913,0.66,-0.23,9.94,-0.03,-0.01,-0.01,32.41
19840194,1698,1,195339,237422,0.67,-0.23,9.96,-0.04,-0.01,-0.01,32.41
19880194,1661,1,195567,238137,0.64,-0.21,9.96,-0.03,-0.01,-0.01,32.41
19920194,1616,1,195865,239059,0.63,-0.23,9.98,-0.03,-0.01,-0.00,32.41
19960192,1593,1,196299,240189,0.65,-0.23,9.96,-0.03,-0.01,-0.01,32.41
20000206,1573,1,196409,237290,0.65,-0.22,9.97,-0.04,-0.00,-0.01,32.41
20040192,1535,1,194382,234245,0.63,-0.23,9.96,-0.04,-0.01,-0.01,32.41
20080194,1509,1,194121,234265,0.64,-0.24,9.97,-0.03,-0.01,-0.01,32.41
20120194,1488,1,194278,234815,0.65,-0.23,9.98,-0.03,-0.01,-0.01,32.41
20160194,1477,1,194561,235508,0.65,-0.24,9.97,-0.04,-0.01,-0.01,32.41
20200210,1473,1,194921,236744,0.66,-0.21,9.96,-0.03,-0.01,-0.01,32.41
20240194,1472,1,195453,237705,0.64,-0.21,9.94,-0.04,-0.01,-0.01,32.41
20280194,1486,1,195580,237466,0.65,-0.23,9.94,-0.03,-0.00,-0.01,32.41
20320881,1412,1,195467,237425,0.67,-0.24,9.96,-0.03,-0.01,-0.01,32.41
20359192,1520,1,195588,237951,0.65,-0.24,9.96,-0.03,-0.01,-0.02,32.41
20399209,1521,1,195800,238651,0.65,-0.23,9.96,-0.03,-0.01,-0.02,32.41
20439192,1535,1,196145,239442,0.64,-0.21,9.97,-0.03,-0.01,-0.01,32.41
20479194,1535,1,196495,240507,0.64,-0.23,9.94,-0.03,-0.01,-0.01,32.41
20519192,1535,1,196906,241265,0.64,-0.23,9.95,-0.03,-0.01,-0.01,32.41
20559194,1563,1,195947,235492,0.65,-0.23,9.96,-0.03,-0.01,-0.01,32.41
20599194,1562,1,194380,234574,0.64,-0.21,9.97,-0.03,-0.01,-0.01,32.41
20639194,1603,1,194416,234967,0.64,-0.23,9.97,-0.03,-0.01,-0.01,32.41
20679192,1616,1,194638,235706,0.64,-0.23,9.96,-0.03,-0.01,-0.00,32.41
20719194,1627,1,194968,236724,0.64,-0.23,9.98,-0.03,-0.01,-0.01,32.41
20759192,1647,1,195602,238046,0.62,-0.21,9.98,-0.03,-0.01,-0.01,32.41
20799194,1665,1,195789,238150,0.64,-0.22,9.98,-0.03,-0.01,-0.01,32.41
20839195,1689,1,195667,237728,0.64,-0.23,9.96,-0.03,-0.01,-0.01,32.41
20879194,1702,1,195593,237827,0.65,-0.23,9.94,-0.03,-0.01,-0.01,32.41
20919193,1719,1,195759,238302,0.65,-0.22,9.95,-0.03,-0.01,-0.01,32.41
20959195,1744,1,196008,239065,0.65,-0.22,9.96,-0.03,-0.01,-0.01,32.41
20999194,1745,1,196320,239956,0.66,-0.23,9.97,-0.03,-0.01,-0.01,32.41
21039194,1757,1,196692,240874,0.66,-0.23,9.96,-0.03,-0.01,-0.01,32.41
21079194,1764,1,196658,237456,0.63,-0.23,9.97,-0.03,-0.01,-0.01,32.41
21119194,1776,1,194479,234452,0.66,-0.24,9.97,-0.03,-0.01,-0.00,32.41
21159192,1792,1,194254,234483,0.64,-0.24,9.96,-0.03,-0.01,-0.01,32.41
21199195,1792,1,194405,235040,0.65,-0.22,9.95,-0.03,-0.01,-0.00,32.41
21239192,1821,1,194623,235748,0.64,-0.21,9.98,-0.03,-0.01,-0.00,32.41
21279194,1830,1,195027,236989,0.65,-0.23,9.94,-0.03,-0.01,-0.01,32.41
21319194,1818,1,195533,237765,0.65,-0.23,9.97,-0.04,-0.01,-0.01,32.41
21359882,1791,1,195604,237547,0.65,-0.23,9.97,-0.04,-0.01,-0.01,32.41
21400195,1800,1,195531,237565,0.64,-0.24,9.96,-0.03,-0.01,-0.00,32.41
21440194,1803,1,195585,237983,0.64,-0.21,9.94,-0.03,-0.01,-0.01,32.41
21480194,1791,1,195849,238682,0.62,-0.22,9.96,-0.03,-0.01,-0.01,32.41
21520194,1818,1,196196,239549,0.65,-0.23,9.97,-0.03,-0.01,-0.00,32.41
21560194,1808,1,196553,240630,0.66,-0.24,9.95,-0.03,-0.01,-0.01,32.41
21600194,1826,1,196842,239888,0.67,-0.23,9.96,-0.03,-0.01,-0.01,32.41
21640194,1819,1,195052,234805,0.65,-0.22,9.96,-0.03,-0.01,-0.01,32.41
21680195,1830,1,194293,234402,0.66,-0.23,9.96,-0.03,-0.01,-0.00,32.41
21720193,1833,1,194323,234769,0.66,-0.23,9.96,-0.03,-0.01,-0.00,32.41
21760194,1827,1,194515,235449,0.66,-0.23,9.92,-0.03,-0.01,-0.01,32.41
21800194,1835,1,194832,236498,0.65,-0.22,9.96,-0.03,-0.01,-0.01,32.41
21840199,1837,1,195369,237726,0.64,-0.22,9.96,-0.04,-0.01,-0.01,32.41
21880194,1845,1,195680,237991,0.62,-0.23,9.97,-0.04,-0.01,-0.01,32.41
21920194,1832,1,195633,238014,0.64,-0.24,9.95,-0.03,-0.01,-0.01,32.41
21960194,1839,1,195777,238477,0.65,-0.23,9.95,-0.04,-0.01,-0.01,32.41
22000194,1840,1,195970,239075,0.66,-0.23,9.99,-0.03,-0.01,-0.01,32.41
22040209,1840,1,196244,239865,0.64,-0.23,10.00,-0.03,-0.01,-0.01,32.41
22080194,1844,1,196611,240741,0.63,-0.23,9.98,-0.03,-0.01,-0.01,32.41
22120194,1832,1,196948,241638,0.66,-0.22,9.97,-0.03,-0.01,-0.01,32.41
22160195,1825,1,196395,236326,0.65,-0.21,9.94,-0.04,-0.01,-0.01,32.41
22200195,1817,1,194351,234455,0.66,-0.24,9.98,-0.03,-0.01,-0.01,32.41
22240194,1835,1,194232,234654,0.65,-0.23,9.95,-0.03,-0.01,-0.00,32.41
22280192,1825,1,194400,235312,0.67,-0.22,9.96,-0.03,-0.01,-0.01,32.41
22320194,1818,1,194672,236196,0.65,-0.22,9.95,-0.03,-0.01,-0.01,32.41
22360882,1826,1,195169,237557,0.65,-0.22,9.97,-0.03,-0.01,-0.00,32.39
22399194,1817,1,195587,238005,0.65,-0.23,9.97,-0.04,-0.01,-0.00,32.39
22439192,1807,1,195572,237777,0.66,-0.23,9.95,-0.03,-0.01,-0.01,32.39
22479195,1795,1,195571,238098,0.65,-0.23,9.95,-0.03,-0.01,-0.01,32.39
22519194,1790,1,195762,238767,0.66,-0.23,9.97,-0.03,-0.01,-0.01,32.39
22559195,1789,1,196023,239538,0.65,-0.25,9.96,-0.03,-0.01,-0.01,32.39
22599194,1776,1,196475,240537,0.63,-0.23,10.00,-0.03,-0.01,-0.01,32.39
22639195,1778,1,196793,241396,0.65,-0.23,9.98,-0.03,-0.01,-0.01,32.39
22679194,1759,1,196897,239243,0.64,-0.23,9.96,-0.03,-0.01,-0.01,32.39
22719195,1766,1,194567,234431,0.62,-0.23,9.97,-0.03,-0.01,-0.00,32.39
22759192,1744,1,193984,234234,0.66,-0.22,9.96,-0.03,-0.01,-0.01,32.39
22799194,1758,1,194148,234874,0.64,-0.24,9.97,-0.03,-0.01,-0.00,32.39
22839192,1744,1,194470,235796,0.66,-0.24,9.96,-0.04,-0.01,-0.00,32.39
22879194,1736,1,194952,237309,0.65,-0.22,9.96,-0.03,-0.01,-0.01,32.39
22919195,1709,1,195532,238287,0.67,-0.22,9.96,-0.04,-0.01,-0.01,32.39
22959194,1712,1,195709,238332,0.66,-0.21,9.94,-0.03,-0.01,-0.01,32.39
22999194,1703,1,195592,238166,0.65,-0.22,9.99,-0.03,-0.01,-0.01,32.39
23039195,1725,1,195667,238586,0.65,-0.23,9.98,-0.04,-0.01,-0.01,32.39
23079195,1697,1,195875,239273,0.66,-0.24,9.96,-0.03,-0.01,-0.01,32.39
23119194,1709,1,196254,240312,0.65,-0.23,9.98,-0.04,-0.01,-0.01,32.39
23159195,1692,1,196592,241296,0.64,-0.23,9.96,-0.03,-0.01,-0.01,32.39
23199194,1675,1,196944,241179,0.64,-0.24,9.94,-0.03,-0.01,-0.01,32.39
23239195,1679,1,195351,235060,0.64,-0.24,9.98,-0.03,-0.01,-0.00,32.39
23279194,1673,1,193999,234282,0.63,-0.24,9.98,-0.03,-0.01,-0.00,32.39
23319192,1658,1,194080,234853,0.65,-0.24,9.96,-0.03,-0.01,-0.01,32.39
23359194,1659,1,194424,235668,0.64,-0.22,9.95,-0.03,-0.01,-0.01,32.39
23399882,1687,1,194851,237122,0.66,-0.26,9.97,-0.03,-0.01,-0.01,32.35
23440194,1680,1,195438,238236,0.66,-0.20,9.94,-0.03,-0.01,-0.01,32.35
23480222,1683,1,195573,238159,0.65,-0.22,9.96,-0.03,-0.01,-0.01,32.35
23520195,1668,1,195488,237942,0.64,-0.22,9.94,-0.03,-0.01,-0.01,32.35
23560194,1664,1,195414,238082,0.64,-0.24,9.93,-0.04,-0.01,-0.01,32.35
23600194,1663,1,195665,238716,0.67,-0.23,9.96,-0.03,-0.01,-0.01,32.35
23640194,1659,1,195920,239493,0.65,-0.24,9.96,-0.03,-0.01,-0.01,32.35
23680194,1647,1,196276,240544,0.65,-0.23,9.98,-0.03,-0.01,-0.00,32.35
23720192,1638,1,196620,240745,0.62,-0.23,9.97,-0.03,-0.01,-0.00,32.35
23760194,1634,1,195291,234810,0.66,-0.22,9.96,-0.03,-0.01,-0.01,32.35
23800195,1613,1,193830,233994,0.65,-0.23,9.98,-0.03,-0.01,-0.01,32.35
23840194,1601,1,193833,234345,0.68,-0.22,9.95,-0.03,-0.01,-0.00,32.35
23880192,1601,1,194007,235082,0.64,-0.23,9.97,-0.04,-0.01,-0.01,32.35
23920194,1596,1,194415,236099,0.66,-0.22,9.97,-0.03,-0.01,-0.01,32.35
23960195,1583,1,194808,237103,0.65,-0.23,9.99,-0.03,-0.01,-0.01,32.35
24000195,1576,1,195057,237202,0.65,-0.23,9.94,-0.04,-0.01,-0.01,32.35
24040194,1562,1,195031,237054,0.63,-0.24,9.97,-0.03,-0.01,-0.00,32.35
24080194,1579,1,194995,237238,0.64,-0.22,9.97,-0.03,-0.01,-0.01,32.35
24120194,1569,1,195190,237831,0.66,-0.24,9.96,-0.03,-0.01,-0.01,32.35
24160194,1616,1,195540,238599,0.64,-0.22,9.96,-0.03,-0.01,-0.01,32.35
24200195,1650,1,195800,239321,0.66,-0.23,9.96,-0.03,-0.01,-0.01,32.35
24240195,1685,1,196125,239909,0.65,-0.22,9.96,-0.03,-0.01,-0.01,32.35
24280194,1730,1,195229,234931,0.66,-0.21,9.96,-0.03,-0.01,-0.01,32.35
24319194,1774,1,193709,233822,0.64,-0.23,9.97,-0.03,-0.01,-0.01,32.35
24359195,1818,1,193709,234021,0.66,-0.22,9.96,-0.03,-0.01,-0.00,32.35
24399882,1869,1,193881,234564,0.64,-0.23,9.96,-0.03,-0.01,-0.01,32.39
24440194,1898,1,194142,235373,0.66,-0.22,9.95,-0.03,-0.01,-0.01,32.39
24480195,1939,1,194562,236543,0.65,-0.24,9.97,-0.03,-0.01,-0.01,32.39
24520208,1968,1,194840,236821,0.65,-0.22,9.97,-0.03,-0.01,-0.01,32.39
24560194,1984,1,194850,236650,0.64,-0.23,10.00,-0.04,-0.01,-0.01,32.39
24600192,1995,1,194866,236865,0.65,-0.24,9.98,-0.03,-0.01,-0.01,32.39
24640195,2006,1,195015,237353,0.64,-0.22,9.96,-0.03,-0.01,-0.01,32.39
24680194,2000,1,195242,238128,0.64,-0.23,9.96,-0.04,-0.01,-0.01,32.39
24720194,1972,1,195532,238840,0.65,-0.21,9.97,-0.03,-0.01,-0.01,32.39
24760194,1942,1,195794,239604,0.65,-0.22,9.93,-0.03,-0.01,-0.00,32.39
24800194,1904,1,195540,235620,0.65,-0.24,9.95,-0.04,-0.01,-0.01,32.39
24840195,1847,1,193668,233687,0.66,-0.24,9.97,-0.03,-0.01,-0.01,32.39
24880194,1798,1,193491,233626,0.65,-0.21,9.98,-0.03,-0.01,-0.01,32.39
24920194,1738,1,193656,234191,0.66,-0.23,9.96,-0.03,-0.01,-0.01,32.39
24960194,1680,1,193914,234862,0.64,-0.22,9.95,-0.03,-0.01,-0.00,32.39
25000192,1623,1,194210,235956,0.66,-0.22,9.97,-0.03,-0.01,-0.01,32.39
25040194,1569,1,194689,236574,0.66,-0.23,9.95,-0.03,-0.01,-0.01,32.39
25080195,1509,1,194799,236525,0.65,-0.23,9.95,-0.03,-0.01,-0.01,32.39
25120208,1452,1,194762,236709,0.66,-0.23,9.98,-0.03,-0.01,-0.00,32.39
25160195,1408,1,194849,237118,0.64,-0.23,9.96,-0.04,-0.01,-0.01,32.39
25200194,1361,1,195099,237774,0.62,-0.22,9.98,-0.03,-0.01,-0.01,32.39
25240194,1335,1,195433,238524,0.66,-0.23,9.97,-0.03,-0.01,-0.01,32.39
25280194,1317,1,195670,239386,0.65,-0.22,9.98,-0.03,-0.01,-0.01,32.39
25321192,1289,1,195913,238085,0.65,-0.22,9.97,-0.03,-0.01,-0.01,32.39
25359194,1323,1,193941,233894,0.64,-0.23,10.00,-0.04,-0.01,-0.01,32.39
25399192,1319,1,193439,233545,0.66,-0.21,9.96,-0.03,-0.01,-0.01,32.39
25439881,1287,1,193561,234030,0.63,-0.23,9.95,-0.03,-0.01,-0.01,32.35
25480195,1282,1,193820,234742,0.67,-0.24,10.00,-0.03,-0.01,-0.01,32.35
25520213,1294,1,194130,235914,0.67,-0.22,9.96,-0.03,-0.01,-0.01,32.35
25560194,1298,1,194695,236786,0.63,-0.22,9.96,-0.03,-0.01,-0.00,32.35
25600194,1325,1,194912,236855,0.66,-0.23,9.96,-0.04,-0.01,-0.00,32.35
25640195,1351,1,194822,236815,0.64,-0.23,9.96,-0.03,-0.01,-0.00,32.35
25680194,1392,1,194801,237144,0.64,-0.24,9.97,-0.03,-0.01,-0.01,32.35
25720194,1392,1,195049,237805,0.65,-0.24,9.96,-0.03,-0.01,-0.01,32.35
25760195,1414,1,195488,238851,0.66,-0.22,9.97,-0.03,-0.01,-0.01,32.35
25800195,1455,1,195800,239830,0.64,-0.23,9.96,-0.03,-0.01,-0.01,32.35
25840195,1471,1,196219,240163,0.64,-0.22,9.94,-0.03,-0.01,-0.01,32.35
25880195,1493,1,194962,234621,0.65,-0.23,9.96,-0.04,-0.01,-0.01,32.35
25920195,1519,1,193562,233737,0.64,-0.22,9.96,-0.03,-0.01,-0.01,32.35
25960194,1535,1,193591,234113,0.66,-0.22,9.95,-0.03,-0.01,-0.01,32.35
26000194,1578,1,193884,234722,0.67,-0.24,9.95,-0.03,-0.01,-0.01,32.35
26040193,1600,1,194097,235754,0.65,-0.24,9.95,-0.03,-0.01,-0.01,32.35
26080194,1618,1,194650,236928,0.64,-0.23,9.96,-0.03,-0.01,-0.01,32.35
26120195,1634,1,194870,237142,0.64,-0.24,9.96,-0.04,-0.01,-0.00,32.35
26160195,1655,1,194870,236982,0.65,-0.23,9.97,-0.03,-0.01,-0.01,32.35
26200195,1664,1,194911,237132,0.68,-0.21,9.96,-0.03,-0.01,-0.01,32.35
26240195,1661,1,195066,237831,0.65,-0.22,9.95,-0.03,-0.01,-0.00,32.35
26280193,1683,1,195280,238532,0.65,-0.22,9.96,-0.03,-0.01,-0.01,32.35
26320194,1706,1,195601,239340,0.64,-0.24,9.95,-0.03,-0.01,-0.01,32.35
26359195,1774,1,195928,240088,0.65,-0.23,9.99,-0.03,-0.01,-0.01,32.35
26399194,1768,1,195271,235163,0.63,-0.24,9.95,-0.03,-0.01,-0.00,32.35
26439880,1718,1,193448,233571,0.64,-0.22,9.98,-0.03,-0.01,-0.00,32.27
26480195,1718,1,193417,233637,0.65,-0.23,9.94,-0.03,-0.01,-0.00,32.27
26520193,1725,1,193521,234242,0.65,-0.23,9.96,-0.03,-0.01,-0.01,32.27
26560194,1713,1,193785,235059,0.66,-0.23,9.99,-0.03,-0.01,-0.01,32.27
26600195,1714,1,194266,236310,0.66,-0.23,9.99,-0.04,-0.01,-0.01,32.27
26640194,1728,1,194716,236632,0.66,-0.22,9.96,-0.03,-0.01,-0.01,32.27
26680194,1739,1,194720,236441,0.66,-0.23,9.96,-0.03,-0.01,-0.00,32.27
26720195,1726,1,194626,236626,0.65,-0.22,9.98,-0.03,-0.01,-0.01,32.27
26760194,1740,1,194724,237194,0.65,-0.22,9.94,-0.03,-0.01,-0.00,32.27
26800194,1747,1,195071,237958,0.65,-0.23,9.97,-0.03,-0.01,-0.00,32.27
26840192,1746,1,195435,238645,0.63,-0.22,9.93,-0.03,-0.01,-0.00,32.27
26880194,1758,1,195672,239574,0.67,-0.23,9.96,-0.03,-0.01,-0.01,32.27
26920195,1739,1,195908,237360,0.64,-0.23,9.97,-0.03,-0.00,-0.01,32.27
26960198,1735,1,193784,233537,0.65,-0.23,9.97,-0.04,-0.01,-0.01,32.27
27000194,1749,1,193245,233382,0.65,-0.23,9.96,-0.03,-0.01,-0.01,32.27
27040195,1747,1,193372,233976,0.64,-0.24,9.95,-0.03,-0.01,-0.01,32.27
27080195,1734,1,193684,234606,0.66,-0.23,9.93,-0.03,-0.01,-0.01,32.27
27120194,1761,1,194004,235890,0.65,-0.22,9.97,-0.03,-0.01,-0.00,32.27
27160214,1746,1,194635,236800,0.63,-0.24,9.96,-0.03,-0.01,-0.01,32.27
27200195,1770,1,194800,236759,0.64,-0.21,9.95,-0.04,-0.01,-0.01,32.27
27240194,1760,1,194629,236719,0.66,-0.22,9.97,-0.03,-0.01,-0.01,32.27
27280194,1776,1,194831,237234,0.66,-0.22,9.95,-0.03,-0.01,-0.01,32.27
27320194,1773,1,195051,237960,0.66,-0.24,9.95,-0.03,-0.01,-0.01,32.27
27360194,1777,1,195330,238897,0.66,-0.20,9.96,-0.03,-0.01,-0.01,32.27
27399192,1811,1,195688,239857,0.62,-0.22,9.98,-0.03,-0.01,-0.01,32.27
27439195,1830,1,196190,240384,0.64,-0.22,9.97,-0.04,-0.01,-0.00,32.27
27479879,1769,1,195106,234746,0.65,-0.22,9.95,-0.03,-0.01,-0.01,32.39
27520194,1775,1,193319,233554,0.65,-0.23,9.94,-0.03,-0.01,-0.01,32.39
27560192,1791,1,193354,233805,0.65,-0.23,9.97,-0.03,-0.01,-0.01,32.39
27600195,1792,1,193523,234462,0.65,-0.24,9.96,-0.03,-0.01,-0.00,32.39
27640192,1794,1,193920,235675,0.65,-0.22,9.95,-0.03,-0.01,-0.01,32.39
27680194,1799,1,194610,237236,0.65,-0.22,9.99,-0.03,-0.01,-0.00,32.39
27720192,1791,1,195022,237675,0.64,-0.24,9.98,-0.04,-0.01,-0.01,32.39
27760195,1791,1,195081,237668,0.64,-0.22,10.00,-0.03,-0.01,-0.01,32.39
27800192,1795,1,195167,237922,0.65,-0.22,9.96,-0.03,-0.01,-0.00,32.39
27840194,1795,1,195310,238579,0.66,-0.23,9.97,-0.03,-0.01,-0.01,32.39
27880194,1779,1,195580,239341,0.66,-0.23,9.97,-0.03,-0.01,-0.01,32.39
27920195,1808,1,195917,240276,0.66,-0.22,9.96,-0.03,-0.01,-0.01,32.39
27960192,1824,1,196339,241356,0.67,-0.24,9.94,-0.04,-0.01,-0.01,32.39
28000194,1808,1,196551,238619,0.64,-0.24,9.96,-0.04,-0.01,-0.01,32.39
28040195,1819,1,193887,234037,0.65,-0.23,9.97,-0.03,-0.01,-0.01,32.39
28080194,1811,1,193403,233977,0.65,-0.25,9.97,-0.03,-0.01,-0.00,32.39
28120192,1819,1,193605,234860,0.64,-0.23,9.95,-0.03,-0.01,-0.01,32.39
28160194,1815,1,194023,236105,0.65,-0.23,9.94,-0.03,-0.01,-0.01,32.39
28200192,1830,1,194740,237859,0.64,-0.24,9.98,-0.03,-0.01,-0.01,32.39
28240194,1814,1,195397,238736,0.64,-0.24,9.96,-0.04,-0.01,-0.01,32.39
28280194,1830,1,195536,238595,0.65,-0.22,9.94,-0.03,-0.01,-0.00,32.39
28320195,1830,1,195419,238782,0.62,-0.23,9.99,-0.03,-0.01,-0.01,32.39
28360193,1827,1,195628,239243,0.65,-0.23,9.93,-0.03,-0.01,-0.01,32.39
28399194,1840,1,195795,239877,0.64,-0.22,9.94,-0.03,-0.01,-0.01,32.39
28439194,1824,1,196064,240736,0.66,-0.23,9.96,-0.03,-0.01,-0.01,32.39
28479194,1825,1,196555,241681,0.65,-0.23,9.96,-0.03,-0.01,-0.01,32.39
28519881,1829,1,196788,240866,0.64,-0.23,9.94,-0.03,-0.01,-0.01,32.45
28560194,1829,1,194705,234527,0.63,-0.24,9.96,-0.03,-0.01,-0.01,32.45
28600218,1830,1,193455,233914,0.66,-0.24,9.93,-0.03,-0.01,-0.01,32.45
28640195,1830,1,193608,234379,0.64,-0.23,9.97,-0.03,-0.01,-0.01,32.45
28680195,1837,1,193803,235218,0.65,-0.22,9.95,-0.03,-0.01,-0.01,32.45
28720195,1839,1,194268,236797,0.65,-0.21,9.95,-0.03,-0.01,-0.01,32.45
28760192,1819,1,195018,238100,0.66,-0.24,9.95,-0.03,-0.01,-0.01,32.45
28800198,1817,1,195244,238240,0.66,-0.22,9.99,-0.03,-0.01,-0.01,32.45
28840194,1811,1,195249,238121,0.65,-0.23,9.97,-0.03,-0.01,-0.00,32.45
28880194,1815,1,195287,238473,0.64,-0.23,9.96,-0.04,-0.01,-0.01,32.45
28920193,1807,1,195484,239110,0.66,-0.24,9.97,-0.03,-0.01,-0.01,32.45
28960194,1786,1,195757,239967,0.66,-0.23,9.96,-0.03,-0.01,-0.01,32.45
29000193,1777,1,196125,240716,0.65,-0.23,9.96,-0.03,-0.01,-0.01,32.45
29040194,1781,1,196407,240868,0.65,-0.22,9.97,-0.03,-0.01,-0.01,32.45
29080195,1773,1,194929,234635,0.65,-0.23,9.96,-0.04,-0.01,-0.01,32.45
29120194,1781,1,193295,233732,0.64,-0.22,9.98,-0.03,-0.01,-0.01,32.45
29160195,1786,1,193411,233938,0.66,-0.22,9.94,-0.03,-0.01,-0.01,32.45
29200194,1780,1,193567,234643,0.65,-0.22,9.96,-0.03,-0.01,-0.01,32.45
29240193,1792,1,193921,235703,0.65,-0.23,9.95,-0.03,-0.01,-0.01,32.45
29280195,1793,1,194516,236928,0.65,-0.23,10.00,-0.04,-0.01,-0.01,32.45
29320193,1792,1,194824,237453,0.64,-0.25,9.95,-0.03,-0.01,-0.01,32.45
29360195,1802,1,194860,237263,0.65,-0.24,9.95,-0.03,-0.01,-0.01,32.45
29400193,1808,1,194851,237600,0.65,-0.24,9.97,-0.04,-0.01,-0.01,32.45
29440194,1814,1,195129,238233,0.65,-0.22,10.00,-0.03,-0.01,-0.01,32.45
29480193,1831,1,195405,239200,0.66,-0.24,9.96,-0.03,-0.01,-0.01,32.45
29520884,1852,1,195787,240038,0.65,-0.23,9.96,-0.03,-0.01,-0.01,32.35
29559194,1809,1,196075,240819,0.64,-0.23,9.97,-0.03,-0.01,-0.01,32.35
29599194,1819,1,195293,235095,0.65,-0.23,9.96,-0.03,-0.01,-0.01,32.35
29639195,1825,1,193290,233634,0.66,-0.23,9.96,-0.04,-0.01,-0.01,32.35
29679194,1822,1,193296,233862,0.65,-0.23,9.95,-0.03,-0.01,-0.01,32.35
29719195,1812,1,193460,234598,0.66,-0.23,9.92,-0.03,-0.01,-0.00,32.35
29759194,1821,1,193909,235515,0.66,-0.23,9.96,-0.03,-0.01,-0.00,32.35
29799192,1808,1,194413,237022,0.65,-0.22,9.97,-0.03,-0.01,-0.01,32.35
29839195,1799,1,194921,237548,0.65,-0.23,9.94,-0.03,-0.01,-0.01,32.35
29879195,1775,1,194978,237433,0.64,-0.23,9.94,-0.03,-0.01,-0.01,32.35
29919194,1776,1,194904,237854,0.65,-0.22,9.95,-0.04,-0.01,-0.01,32.35
29959194,1759,1,195247,238507,0.64,-0.22,9.94,-0.03,-0.01,-0.00,32.35
29999194,1746,1,195554,239473,0.65,-0.22,9.96,-0.03,-0.01,-0.01,32.35
30039195,1720,1,195946,240452,0.65,-0.24,9.95,-0.04,-0.01,-0.01,32.35
30079194,1711,1,196365,241282,0.65,-0.23,9.94,-0.03,-0.01,-0.01,32.35
30119194,1692,1,196075,237143,0.64,-0.24,9.96,-0.04,-0.01,-0.01,32.35
30159194,1671,1,193644,233886,0.64,-0.22,9.96,-0.04,-0.01,-0.01,32.35
30199195,1642,1,193286,234117,0.64,-0.24,9.97,-0.03,-0.01,-0.01,32.35
30239209,1631,1,193652,234750,0.67,-0.23,9.98,-0.03,-0.01,-0.00,32.35
30279192,1630,1,193982,235981,0.68,-0.23,9.96,-0.04,-0.01,-0.01,32.35
30319194,1594,1,194699,237542,0.66,-0.23,9.93,-0.03,-0.01,-0.00,32.35
30359192,1586,1,195110,238290,0.67,-0.21,9.98,-0.03,-0.01,-0.01,32.35
30399195,1575,1,195244,238073,0.65,-0.22,9.98,-0.03,-0.01,-0.01,32.35
30439205,1563,1,195140,238118,0.66,-0.23,9.97,-0.03,-0.01,-0.01,32.35
30479194,1535,1,195189,238622,0.65,-0.24,9.95,-0.03,-0.01,-0.01,32.35
30519195,1531,1,195531,239350,0.65,-0.23,9.93,-0.03,-0.01,-0.00,32.35
30559881,1519,1,195905,240219,0.66,-0.22,9.96,-0.03,-0.01,-0.01,32.27
30600194,1517,1,196273,241211,0.64,-0.22,9.98,-0.03,-0.01,-0.01,32.27
30640219,1514,1,196325,238355,0.63,-0.22,9.94,-0.03,-0.01,-0.01,32.27
30680195,1490,1,193891,234094,0.65,-0.23,9.98,-0.03,-0.01,-0.01,32.27
30720194,1519,1,193366,233993,0.65,-0.24,9.96,-0.03,-0.01,-0.01,32.27
30760194,1523,1,193538,234754,0.64,-0.23,9.97,-0.03,-0.01,-0.01,32.27
30800195,1535,1,194009,235757,0.65,-0.23,9.98,-0.03,-0.01,-0.01,32.27
30840194,1555,1,194635,237518,0.65,-0.20,9.96,-0.04,-0.00,-0.01,32.27
30880194,1600,1,195192,238487,0.64,-0.22,9.96,-0.03,-0.00,-0.00,32.27
30920192,1607,1,195351,238252,0.65,-0.22,9.96,-0.03,-0.01,-0.01,32.27
30960195,1639,1,195182,238325,0.64,-0.22,9.97,-0.03,-0.01,-0.00,32.27
31000192,1651,1,195340,238930,0.66,-0.23,9.97,-0.03,-0.01,-0.01,32.27
31040194,1685,1,195680,239640,0.65,-0.23,9.95,-0.03,-0.01,-0.01,32.27
31080194,1703,1,196023,240460,0.65,-0.23,9.94,-0.03,-0.01,-0.01,32.27
31120194,1723,1,196228,241605,0.66,-0.23,9.95,-0.03,-0.01,-0.01,32.27
31160194,1734,1,196471,238564,0.65,-0.21,9.95,-0.04,-0.01,-0.00,32.27
31200194,1762,1,193937,234120,0.64,-0.23,9.96,-0.03,-0.01,-0.01,32.27
31240194,1753,1,193375,233939,0.64,-0.24,9.93,-0.03,-0.01,-0.01,32.27
31280194,1748,1,193454,234472,0.65,-0.21,9.96,-0.03,-0.01,-0.00,32.27
31320192,1743,1,193713,235384,0.63,-0.23,9.98,-0.04,-0.01,-0.01,32.27
31360194,1754,1,194238,236876,0.64,-0.23,9.98,-0.04,-0.01,-0.01,32.27
31400194,1728,1,194939,237940,0.63,-0.24,9.98,-0.03,-0.01,-0.01,32.27
31440194,1722,1,195122,238024,0.66,-0.23,9.96,-0.03,-0.01,-0.01,32.27
31480194,1695,1,195175,238066,0.63,-0.23,9.94,-0.03,-0.01,-0.01,32.27
31520195,1680,1,195246,238464,0.65,-0.22,9.97,-0.03,-0.01,-0.00,32.27
31560880,1645,1,195457,239382,0.65,-0.23,9.95,-0.03,-0.01,-0.01,32.33
31599195,1680,1,195761,240267,0.65,-0.21,9.92,-0.03,-0.01,-0.01,32.33
31639195,1653,1,196163,241257,0.67,-0.23,9.94,-0.03,-0.01,-0.01,32.33
31679195,1639,1,196292,238891,0.64,-0.23,9.97,-0.03,-0.01,-0.01,32.33
31719194,1621,1,193928,234039,0.63,-0.23,9.94,-0.03,-0.01,-0.00,32.33
31759194,1605,1,193277,233784,0.64,-0.22,9.98,-0.03,-0.01,-0.01,32.33
31799194,1595,1,193432,234300,0.65,-0.22,9.96,-0.03,-0.01,-0.01,32.33
31839194,1581,1,193736,235097,0.65,-0.24,9.96,-0.03,-0.01,-0.00,32.33
31879206,1572,1,194151,236571,0.65,-0.24,9.93,-0.04,-0.01,-0.01,32.33
31919194,1561,1,194782,237799,0.66,-0.23,9.93,-0.03,-0.01,-0.01,32.33
31959194,1535,1,195042,237833,0.64,-0.22,9.98,-0.03,-0.01,-0.00,32.33
31999195,1562,1,194981,237951,0.65,-0.25,9.95,-0.03,-0.01,-0.01,32.33
32039195,1555,1,195147,238654,0.65,-0.24,9.98,-0.04,-0.01,-0.01,32.33
32079197,1574,1,195400,239453,0.63,-0.23,9.96,-0.04,-0.01,-0.01,32.33
32119194,1569,1,195704,240230,0.65,-0.24,9.96,-0.03,-0.01,-0.00,32.33
32159195,1573,1,196119,241063,0.66,-0.23,9.95,-0.03,-0.01,-0.01,32.33
32199194,1594,1,196411,241076,0.66,-0.22,9.95,-0.03,-0.01,-0.01,32.33
32239195,1584,1,194767,234664,0.66,-0.24,9.94,-0.04,-0.01,-0.00,32.33
32279193,1588,1,193235,233856,0.64,-0.23,9.95,-0.03,-0.01,-0.00,32.33
32319195,1603,1,193358,234124,0.65,-0.23,9.96,-0.03,-0.01,-0.01,32.33
32359194,1602,1,193545,234890,0.62,-0.25,9.97,-0.03,-0.01,-0.01,32.33
32399195,1614,1,193912,236337,0.66,-0.22,9.99,-0.03,-0.01,-0.01,32.33
32439194,1627,1,194602,237798,0.64,-0.23,9.98,-0.04,-0.01,-0.01,32.33
32479195,1648,1,195052,238085,0.66,-0.21,9.96,-0.03,-0.01,-0.00,32.33
32519193,1664,1,195062,238093,0.64,-0.23,9.96,-0.03,-0.01,-0.01,32.33
32559194,1677,1,195098,238474,0.65,-0.23,9.96,-0.04,-0.01,-0.01,32.33
32599882,1617,1,195309,239221,0.65,-0.23,9.94,-0.04,-0.01,-0.01,32.25
32640195,1637,1,195715,240171,0.64,-0.21,9.95,-0.03,-0.01,-0.01,32.25
32680194,1649,1,196018,241337,0.67,-0.22,9.96,-0.03,-0.01,-0.01,32.25
32720194,1647,1,196420,242240,0.64,-0.23,9.98,-0.03,-0.01,-0.01,32.25
32760195,1658,1,196216,237416,0.66,-0.23,9.96,-0.04,-0.01,-0.01,32.25
32800195,1673,1,193486,234034,0.64,-0.24,9.97,-0.03,-0.01,-0.00,32.25
32840192,1691,1,193320,234385,0.65,-0.22,9.96,-0.03,-0.01,-0.01,32.25
32880194,1694,1,193665,235251,0.65,-0.23,9.96,-0.03,-0.01,-0.01,32.25
32920195,1711,1,194031,236745,0.63,-0.22,9.96,-0.03,-0.01,-0.01,32.25
32960195,1739,1,194801,238333,0.66,-0.24,9.95,-0.03,-0.01,-0.01,32.25
33000195,1722,1,195235,238986,0.65,-0.21,9.95,-0.03,-0.01,-0.01,32.25
33040194,1750,1,195316,238807,0.65,-0.24,9.94,-0.03,-0.01,-0.01,32.25
33080195,1758,1,195307,239018,0.63,-0.24,9.96,-0.03,-0.01,-0.01,32.25
33120194,1761,1,195398,239680,0.64,-0.24,9.96,-0.03,-0.01,-0.01,32.25
33160194,1765,1,195797,240582,0.66,-0.22,9.96,-0.03,-0.01,-0.00,32.25
33200194,1774,1,196214,241441,0.64,-0.24,9.97,-0.03,-0.01,-0.00,32.25
33240192,1773,1,196482,242318,0.66,-0.23,9.93,-0.03,-0.01,-0.01,32.25
33280194,1776,1,196498,239199,0.65,-0.24,9.95,-0.03,-0.01,-0.00,32.25
33320193,1785,1,193756,234189,0.64,-0.23,9.96,-0.03,-0.01,-0.01,32.25
33360194,1793,1,193108,234068,0.64,-0.22,9.98,-0.03,-0.01,-0.01,32.25
33400195,1793,1,193407,234934,0.64,-0.21,9.96,-0.04,-0.01,-0.00,32.25
33440194,1817,1,193761,235948,0.67,-0.24,9.93,-0.03,-0.01,-0.00,32.25
33480192,1807,1,194248,237670,0.66,-0.24,9.96,-0.03,-0.01,-0.01,32.25
33520194,1826,1,194945,238495,0.65,-0.22,9.93,-0.04,-0.01,-0.00,32.25
33560193,1827,1,195110,238601,0.65,-0.23,9.96,-0.03,-0.01,-0.01,32.25
33600881,1797,1,195061,238712,0.67,-0.24,9.94,-0.03,-0.01,-0.01,32.19
33639195,1847,1,195202,239218,0.64,-0.24,9.96,-0.03,-0.01,-0.01,32.19
33679195,1851,1,195438,239911,0.67,-0.22,9.97,-0.03,-0.01,-0.01,32.19
33719231,1850,1,195865,240636,0.65,-0.22,9.96,-0.03,-0.01,-0.01,32.19
33759195,1860,1,196085,241534,0.63,-0.23,9.99,-0.03,-0.01,-0.01,32.19
33799195,1842,1,196269,240108,0.66,-0.23,9.96,-0.04,-0.01,-0.01,32.19
33839195,1856,1,194004,234239,0.65,-0.23,9.97,-0.04,-0.01,-0.01,32.19
33879195,1843,1,192944,233771,0.64,-0.23,9.98,-0.03,-0.01,-0.01,32.19
33919234,1835,1,193149,234249,0.66,-0.23,9.99,-0.03,-0.01,-0.01,32.19
33959195,1815,1,193521,235192,0.67,-0.23,9.95,-0.03,-0.01,-0.00,32.19
33999195,1810,1,193926,236584,0.65,-0.22,9.95,-0.03,-0.01,-0.01,32.19
34039194,1823,1,194566,237755,0.67,-0.22,9.94,-0.03,-0.01,-0.01,32.19
34079194,1823,1,194875,237892,0.65,-0.21,9.97,-0.03,-0.01,-0.00,32.19
34119193,1822,1,194863,238114,0.66,-0.24,9.96,-0.03,-0.01,-0.00,32.19
34159195,1818,1,194996,238682,0.67,-0.23,9.98,-0.03,-0.01,-0.01,32.19
34199194,1803,1,195282,239482,0.66,-0.23,9.95,-0.03,-0.01,-0.01,32.19
34239195,1810,1,195629,240285,0.64,-0.22,9.94,-0.03,-0.01,-0.01,32.19
34279195,1802,1,195954,241486,0.65,-0.23,9.96,-0.04,-0.01,-0.00,32.19
34319195,1794,1,196506,242186,0.64,-0.21,9.97,-0.04,-0.00,-0.01,32.19
34359195,1776,1,195390,236085,0.64,-0.23,9.96,-0.04,-0.01,-0.01,32.19
34399195,1759,1,193422,234280,0.64,-0.24,9.98,-0.03,-0.01,-0.01,32.19
34439194,1757,1,193349,234654,0.65,-0.23,9.94,-0.03,-0.01,-0.01,32.19
34479194,1763,1,193545,235702,0.66,-0.23,9.98,-0.03,-0.01,-0.01,32.19
34519195,1759,1,194141,237155,0.64,-0.24,9.97,-0.03,-0.01,-0.00,32.19
34559195,1759,1,194894,239073,0.64,-0.23,9.96,-0.03,-0.01,-0.01,32.19
34599195,1757,1,195510,239877,0.64,-0.23,9.94,-0.04,-0.00,-0.00,32.19
34639882,1763,1,195704,240032,0.65,-0.26,9.97,-0.03,-0.01,-0.01,32.21
34680194,1757,1,195812,240692,0.64,-0.23,9.91,-0.03,-0.01,-0.01,32.21
34720194,1749,1,196089,241642,0.65,-0.23,9.94,-0.03,-0.01,-0.01,32.21
34760194,1735,1,196536,242465,0.64,-0.23,9.95,-0.03,-0.01,-0.01,32.21
34800194,1719,1,196796,243178,0.65,-0.23,9.97,-0.03,-0.01,-0.01,32.21
34840194,1713,1,197022,243750,0.66,-0.24,9.98,-0.03,-0.01,-0.00,32.21
34880195,1711,1,197051,240476,0.66,-0.24,9.94,-0.03,-0.01,-0.01,32.21
34920195,1698,1,194218,234937,0.65,-0.23,9.98,-0.04,-0.01,-0.01,32.21
34960194,1697,1,193405,234841,0.64,-0.24,9.96,-0.03,-0.01,-0.01,32.21
35000195,1682,1,193614,235902,0.68,-0.23,9.98,-0.03,-0.01,-0.01,32.21
35040195,1677,1,194125,237159,0.63,-0.23,9.96,-0.03,-0.01,-0.01,32.21
35080194,1665,1,194803,239025,0.69,-0.23,9.97,-0.03,-0.01,-0.00,32.21
35120194,1660,1,195587,240184,0.66,-0.23,9.94,-0.03,-0.00,-0.01,32.21
35160193,1663,1,195669,240429,0.66,-0.24,9.95,-0.03,-0.00,-0.01,32.21
35200194,1643,1,195754,240758,0.64,-0.22,10.00,-0.03,-0.01,-0.00,32.21
35240192,1639,1,196016,241366,0.65,-0.25,9.98,-0.04,-0.01,-0.00,32.21
35280194,1623,1,196426,242235,0.64,-0.23,9.96,-0.03,-0.01,-0.01,32.21
35320194,1621,1,196757,243037,0.64,-0.23,9.97,-0.03,-0.01,-0.01,32.21
35360197,1625,1,196914,243602,0.63,-0.23,9.94,-0.03,-0.01,-0.01,32.21
35400194,1615,1,196993,241263,0.65,-0.22,9.95,-0.03,-0.01,-0.01,32.21
35440194,1614,1,194307,235101,0.64,-0.23,9.99,-0.03,-0.01,-0.00,32.21
35480192,1619,1,193363,234807,0.64,-0.23,9.96,-0.03,-0.01,-0.01,32.21
35520195,1605,1,193658,235707,0.66,-0.23,9.96,-0.03,-0.01,-0.01,32.21
35560196,1609,1,194217,236956,0.65,-0.23,9.98,-0.03,-0.01,-0.00,32.21
35600194,1596,1,194804,238613,0.65,-0.23,9.99,-0.03,-0.01,-0.01,32.21
35640881,1627,1,195348,239660,0.64,-0.23,9.96,-0.03,-0.01,-0.00,32.25
35679194,1579,1,195560,239701,0.62,-0.25,9.96,-0.03,-0.01,-0.01,32.25
35719195,1577,1,195557,239764,0.67,-0.23,9.93,-0.03,-0.01,-0.01,32.25
35759219,1566,1,195696,240255,0.66,-0.25,9.96,-0.03,-0.01,-0.01,32.25
35799195,1572,1,195811,240728,0.67,-0.22,9.95,-0.03,-0.01,-0.01,32.25
35839195,1573,1,195984,241439,0.67,-0.22,9.96,-0.04,-0.01,-0.01,32.25
35879194,1571,1,196287,242144,0.65,-0.22,9.96,-0.03,-0.01,-0.01,32.25
35919194,1590,1,196364,239084,0.64,-0.25,9.93,-0.04,-0.01,-0.01,32.25
35959195,1610,1,193724,234209,0.64,-0.22,9.91,-0.04,-0.01,-0.00,32.25
35999195,1634,1,192926,233997,0.66,-0.23,9.96,-0.03,-0.01,-0.01,32.25
36039195,1647,1,193119,234575,0.67,-0.21,9.96,-0.03,-0.01,-0.00,32.25
36079194,1696,1,193415,235452,0.65,-0.21,9.94,-0.03,-0.01,-0.01,32.25
36119195,1727,1,193976,237044,0.65,-0.22,9.99,-0.03,-0.01,-0.01,32.25
36159194,1769,1,194492,237843,0.65,-0.22,9.97,-0.03,-0.01,-0.01,32.25
36199194,1799,1,194767,238073,0.65,-0.22,9.98,-0.03,-0.01,-0.01,32.25
36239195,1831,1,194839,238361,0.67,-0.22,9.96,-0.04,-0.01,-0.01,32.25
36279195,1870,1,195082,239075,0.64,-0.21,9.95,-0.03,-0.01,-0.01,32.25
36319194,1898,1,195478,240111,0.63,-0.23,9.97,-0.03,-0.01,-0.01,32.25
36359195,1908,1,195778,240931,0.63,-0.21,9.99,-0.04,-0.01,-0.01,32.25
36400195,1919,1,196084,241776,0.65,-0.23,9.96,-0.03,-0.01,-0.01,32.25
36440194,1920,1,196308,239300,0.64,-0.22,9.96,-0.03,-0.01,-0.01,32.25
36480194,1938,1,193890,234565,0.64,-0.23,9.97,-0.04,-0.00,-0.01,32.25
36520193,1931,1,193281,234590,0.63,-0.25,9.96,-0.04,-0.00,-0.01,32.25
36560194,1920,1,193419,235227,0.65,-0.23,9.97,-0.03,-0.01,-0.01,32.25
36600195,1904,1,193798,236137,0.66,-0.22,9.95,-0.03,-0.01,-0.01,32.25
36640881,1845,1,194294,237437,0.65,-0.22,9.96,-0.03,-0.01,-0.01,32.27
36679195,1871,1,194835,238447,0.65,-0.24,9.96,-0.03,-0.01,-0.01,32.27
36719195,1834,1,194916,238402,0.66,-0.24,9.96,-0.03,-0.01,-0.01,32.27
36759195,1801,1,194798,238184,0.65,-0.23,9.97,-0.03,-0.01,-0.00,32.27
36799199,1760,1,194959,238640,0.64,-0.23,9.97,-0.03,-0.01,-0.01,32.27
36839194,1713,1,195261,239645,0.64,-0.23,9.98,-0.04,-0.01,-0.00,32.27
36879195,1664,1,195798,240916,0.63,-0.22,9.97,-0.04,-0.01,-0.00,32.27
36919195,1627,1,196241,241919,0.65,-0.24,9.96,-0.03,-0.01,-0.01,32.27
36959194,1587,1,196291,240139,0.65,-0.23,9.96,-0.03,-0.01,-0.01,32.27
36999204,1535,1,194094,234824,0.64,-0.23,9.97,-0.03,-0.00,-0.01,32.27
37039194,1521,1,193276,234629,0.63,-0.24,9.97,-0.03,-0.01,-0.01,32.27
37079194,1492,1,193400,235271,0.65,-0.21,9.96,-0.03,-0.01,-0.01,32.27
37119195,1478,1,193793,236051,0.66,-0.23,9.95,-0.03,-0.01,-0.01,32.27
37159195,1460,1,194283,237550,0.65,-0.24,9.96,-0.03,-0.01,-0.01,32.27
37199208,1452,1,195042,238842,0.64,-0.23,9.94,-0.04,-0.01,-0.01,32.27
37239195,1443,1,195229,239154,0.64,-0.23,9.98,-0.04,-0.01,-0.00,32.27
37279195,1439,1,195272,239157,0.63,-0.24,9.96,-0.03,-0.01,-0.01,32.27
37319194,1439,1,195491,239787,0.64,-0.23,9.99,-0.04,-0.01,-0.01,32.27
37359194,1440,1,195808,240525,0.64,-0.23,9.99,-0.03,-0.01,-0.01,32.27
37399194,1434,1,196141,241392,0.62,-0.24,9.95,-0.03,-0.00,-0.01,32.27
37439194,1451,1,196403,242175,0.62,-0.22,10.00,-0.03,-0.01,-0.01,32.27
37479192,1455,1,196592,240138,0.63,-0.23,9.98,-0.03,-0.01,-0.01,32.27
37519194,1461,1,194206,234941,0.64,-0.22,9.93,-0.03,-0.01,-0.01,32.27
37559194,1457,1,193307,234638,0.62,-0.24,9.98,-0.03,-0.01,-0.01,32.27
37599194,1488,1,193535,235361,0.63,-0.22,9.96,-0.03,-0.01,-0.01,32.27
37639194,1489,1,193875,236240,0.63,-0.23,9.98,-0.03,-0.01,-0.00,32.27
37679881,1456,1,194361,237759,0.65,-0.24,9.96,-0.03,-0.01,-0.01,32.35
37720195,1479,1,195006,238640,0.66,-0.24,9.95,-0.03,-0.01,-0.01,32.35
37760194,1498,1,195269,238703,0.67,-0.23,9.97,-0.03,-0.01,-0.01,32.35
37800194,1510,1,195156,238835,0.64,-0.24,9.93,-0.03,-0.01,-0.01,32.35
37840194,1523,1,195271,239201,0.66,-0.21,9.96,-0.03,-0.01,-0.00,32.35
37880192,1524,1,195555,239955,0.65,-0.23,9.97,-0.03,-0.01,-0.01,32.35
37920195,1556,1,195787,240668,0.66,-0.23,9.98,-0.03,-0.01,-0.01,32.35
37960195,1558,1,196118,241544,0.65,-0.22,9.96,-0.03,-0.01,-0.01,32.35
38000195,1569,1,196219,238463,0.64,-0.24,9.97,-0.04,-0.01,-0.01,32.35
38040194,1584,1,193675,234448,0.64,-0.23,9.99,-0.03,-0.01,-0.01,32.35
38080194,1600,1,193265,234427,0.64,-0.24,9.98,-0.03,-0.01,-0.00,32.35
38120192,1608,1,193252,234910,0.65,-0.23,9.97,-0.03,-0.01,-0.01,32.35
38160194,1616,1,193595,235694,0.66,-0.21,9.96,-0.03,-0.01,-0.01,32.35
38200194,1629,1,194194,237188,0.64,-0.22,9.97,-0.03,-0.01,-0.01,32.35
38240194,1634,1,194808,238326,0.63,-0.25,9.97,-0.04,-0.00,-0.01,32.35
38280194,1635,1,194966,238463,0.65,-0.23,9.98,-0.03,-0.01,-0.01,32.35
38320194,1650,1,195127,238734,0.65,-0.22,9.96,-0.03,-0.01,-0.01,32.35
38360194,1653,1,195300,239265,0.64,-0.22,9.97,-0.03,-0.01,-0.01,32.35
38400195,1651,1,195459,239903,0.63,-0.24,9.96,-0.03,-0.01,-0.01,32.35
38440194,1649,1,195771,240624,0.63,-0.22,9.95,-0.03,-0.01,-0.01,32.35
38480194,1655,1,196021,241282,0.66,-0.23,9.97,-0.03,-0.01,-0.01,32.35
38520194,1666,1,195692,236953,0.63,-0.22,9.97,-0.03,-0.01,-0.01,32.35
38560194,1669,1,193392,234167,0.65,-0.23,9.97,-0.04,-0.01,-0.01,32.35
38600194,1675,1,193046,234149,0.65,-0.24,9.96,-0.03,-0.01,-0.00,32.35
38640194,1682,1,193297,234735,0.63,-0.24,9.98,-0.03,-0.01,-0.01,32.35
38680881,1634,1,193566,235410,0.64,-0.21,10.00,-0.04,-0.01,-0.00,32.31
38721194,1649,1,193858,236503,0.62,-0.23,9.99,-0.03,-0.01,-0.00,32.31
38761193,1650,1,194408,237316,0.62,-0.22,9.95,-0.03,-0.01,-0.01,32.31
38801194,1649,1,194509,237455,0.63,-0.23,9.97,-0.03,-0.01,-0.00,32.31
38841208,1662,1,194597,237859,0.65,-0.24,9.96,-0.03,-0.01,-0.00,32.31
38881194,1650,1,194902,238749,0.64,-0.25,9.97,-0.03,-0.01,-0.01,32.31
38921195,1662,1,195227,239568,0.63,-0.23,9.99,-0.03,-0.01,-0.00,32.31
38961195,1656,1,195507,240217,0.64,-0.23,9.98,-0.03,-0.01,-0.00,32.31
39001193,1679,1,195908,241204,0.66,-0.25,9.96,-0.03,-0.01,-0.00,32.31
39041228,1683,1,195684,237540,0.65,-0.25,9.96,-0.04,-0.01,-0.01,32.31
39081194,1687,1,193361,234082,0.65,-0.22,9.96,-0.03,-0.01,-0.01,32.31
39121194,1685,1,192983,234128,0.64,-0.24,10.00,-0.03,-0.01,-0.01,32.31
39161192,1680,1,193051,234594,0.65,-0.22,9.97,-0.03,-0.01,-0.01,32.31
39201195,1691,1,193439,235419,0.66,-0.23,9.96,-0.03,-0.01,-0.01,32.31
39241213,1684,1,193780,236698,0.64,-0.23,9.95,-0.03,-0.01,-0.01,32.31
39281194,1701,1,194428,237788,0.63,-0.24,9.97,-0.03,-0.01,-0.01,32.31
39321195,1708,1,194638,237954,0.64,-0.23,9.96,-0.03,-0.01,-0.01,32.31
39361194,1712,1,194649,238299,0.64,-0.24,9.95,-0.03,-0.01,-0.01,32.31
39401194,1721,1,194958,239036,0.66,-0.23,9.98,-0.03,-0.01,-0.01,32.31
39441195,1731,1,195151,239667,0.64,-0.23,9.98,-0.03,-0.01,-0.01,32.31
39480195,1787,1,195557,240397,0.63,-0.24,9.99,-0.03,-0.01,-0.01,32.31
39520195,1781,1,195797,241197,0.65,-0.23,9.98,-0.03,-0.01,-0.01,32.31
39560195,1781,1,196063,239560,0.66,-0.25,9.95,-0.04,-0.01,-0.01,32.31
39600194,1774,1,193688,234190,0.63,-0.21,9.96,-0.03,-0.01,-0.01,32.31
39640194,1782,1,192955,233949,0.63,-0.23,9.96,-0.04,-0.01,-0.00,32.31
39680881,1735,1,193064,234663,0.65,-0.22,9.96,-0.03,-0.01,-0.01,32.31
39721195,1748,1,193477,235709,0.65,-0.25,9.96,-0.03,-0.01,-0.01,32.31
39761195,1759,1,193944,237301,0.64,-0.22,9.95,-0.04,-0.01,-0.01,32.31
39801194,1755,1,194764,238767,0.66,-0.24,9.95,-0.04,-0.00,-0.01,32.31
39841195,1768,1,195063,238994,0.65,-0.23,9.96,-0.03,-0.01,-0.01,32.31
39881195,1771,1,195189,239279,0.66,-0.25,9.99,-0.03,-0.01,-0.01,32.31
39921195,1771,1,195307,239757,0.65,-0.23,9.98,-0.04,-0.01,-0.00,32.31
39961195,1778,1,195723,240505,0.63,-0.23,9.95,-0.03,-0.01,-0.00,32.31
40001194,1776,1,195909,241397,0.64,-0.26,9.94,-0.03,-0.01,-0.01,32.31
40041195,1775,1,196196,242131,0.64,-0.22,9.96,-0.03,-0.01,-0.01,32.31
40081195,1781,1,196602,242115,0.65,-0.22,9.97,-0.03,-0.01,-0.01,32.31
40121194,1788,1,194867,235464,0.66,-0.23,9.99,-0.03,-0.01,-0.01,32.31
40161194,1791,1,193164,234312,0.65,-0.22,9.99,-0.03,-0.01,-0.01,32.31
40201194,1820,1,193259,234980,0.62,-0.23,9.97,-0.03,-0.01,-0.01,32.31
40241194,1827,1,193613,236103,0.66,-0.21,9.95,-0.03,-0.01,-0.01,32.31
40281195,1854,1,194201,237552,0.65,-0.23,9.96,-0.03,-0.01,-0.01,32.31
40321195,1872,1,194831,238928,0.64,-0.23,9.93,-0.03,-0.01,-0.01,32.31
40361194,1890,1,195249,239368,0.65,-0.22,9.97,-0.03,-0.01,-0.00,32.31
40401194,1918,1,195297,239469,0.64,-0.22,9.98,-0.04,-0.01,-0.01,32.31
40441194,1942,1,195410,239953,0.65,-0.23,9.95,-0.04,-0.01,-0.00,32.31
40480196,1979,1,195625,240540,0.64,-0.23,9.97,-0.03,-0.01,-0.00,32.31
40520192,2006,1,195981,241411,0.64,-0.21,9.98,-0.03,-0.01,-0.01,32.31
40560194,2019,1,196330,242266,0.64,-0.26,9.98,-0.03,-0.01,-0.00,32.31
40600192,2026,1,196551,242553,0.66,-0.23,9.96,-0.03,-0.01,-0.00,32.31
40640194,2035,1,195501,236367,0.64,-0.22,9.97,-0.04,-0.01,-0.01,32.31
40680909,2057,1,193257,234490,0.63,-0.23,9.97,-0.03,-0.01,-0.01,32.33
40721195,2064,1,193212,234970,0.64,-0.22,9.96,-0.03,-0.01,-0.00,32.33
40761193,2074,1,193533,235863,0.66,-0.23,9.98,-0.03,-0.01,-0.01,32.33
40801195,2065,1,194021,237128,0.64,-0.22,9.97,-0.04,-0.01,-0.01,32.33
40841194,2065,1,194650,238487,0.65,-0.24,9.96,-0.04,-0.01,-0.01,32.33
40881194,2038,1,195042,238973,0.65,-0.21,9.98,-0.03,-0.01,-0.01,32.33
40921193,2033,1,195082,239051,0.65,-0.22,9.98,-0.03,-0.01,-0.01,32.33
40961194,2010,1,195111,239192,0.66,-0.24,9.96,-0.03,-0.01,-0.01,32.33
41001195,1997,1,195313,239831,0.64,-0.23,9.98,-0.03,-0.01,-0.01,32.33
41041194,1963,1,195610,240684,0.66,-0.23,9.94,-0.03,-0.01,-0.00,32.33
41081193,1923,1,195907,241420,0.63,-0.23,9.97,-0.03,-0.01,-0.01,32.33
41121194,1899,1,196278,242286,0.64,-0.23,9.98,-0.03,-0.01,-0.01,32.33
41161195,1872,1,196124,238081,0.64,-0.23,9.98,-0.03,-0.01,-0.01,32.33
41201195,1840,1,193518,234450,0.65,-0.22,9.97,-0.03,-0.00,-0.01,32.33
41241194,1810,1,193231,234710,0.64,-0.24,9.98,-0.04,-0.01,-0.00,32.33
41281195,1774,1,193552,235622,0.65,-0.23,9.97,-0.03,-0.01,-0.01,32.33
41321195,1758,1,193817,236492,0.62,-0.24,9.98,-0.03,-0.01,-0.01,32.33
41361194,1725,1,194334,237949,0.63,-0.21,9.97,-0.03,-0.01,-0.01,32.33
41401195,1712,1,194885,238737,0.65,-0.23,9.94,-0.03,-0.01,-0.01,32.33
41441194,1684,1,195069,238984,0.65,-0.22,9.96,-0.03,-0.00,-0.01,32.33
41481195,1674,1,195276,239597,0.63,-0.22,9.96,-0.04,-0.00,-0.01,32.33
41520194,1618,1,195696,240768,0.65,-0.21,9.96,-0.04,-0.00,-0.01,32.33
41560194,1613,1,196082,241336,0.63,-0.23,9.98,-0.03,-0.01,-0.01,32.33
41600195,1597,1,196258,241727,0.63,-0.21,9.95,-0.03,-0.01,-0.01,32.33
41640195,1575,1,196548,242762,0.62,-0.23,9.99,-0.03,-0.01,-0.00,32.33
41680882,1612,1,196905,242772,0.63,-0.24,9.96,-0.04,-0.01,-0.01,32.33
41721195,1600,1,195132,235942,0.63,-0.23,9.97,-0.04,-0.01,-0.00,32.33
41761195,1589,1,193512,234979,0.64,-0.24,9.96,-0.04,-0.01,-0.01,32.33
41801195,1584,1,193589,235791,0.66,-0.22,9.96,-0.04,-0.01,-0.00,32.33
41841195,1590,1,194168,237074,0.66,-0.23,9.98,-0.03,-0.01,-0.01,32.33
41881195,1595,1,194746,238529,0.65,-0.20,9.97,-0.03,-0.01,-0.01,32.33
41921195,1598,1,195374,239972,0.64,-0.22,9.97,-0.03,-0.01,-0.01,32.33
41961194,1586,1,195649,240390,0.64,-0.24,9.95,-0.04,-0.01,-0.01,32.33
42001195,1575,1,195714,240359,0.64,-0.23,9.95,-0.04,-0.01,-0.01,32.33
42041195,1569,1,195800,240653,0.65,-0.23,9.97,-0.04,-0.01,-0.01,32.33
42081194,1569,1,195865,241078,0.65,-0.22,9.95,-0.03,-0.01,-0.01,32.33
42121195,1567,1,196151,242054,0.65,-0.24,9.96,-0.03,-0.01,-0.01,32.33
42161195,1565,1,196491,242971,0.66,-0.23,9.95,-0.04,-0.01,-0.01,32.33
42201194,1535,1,197034,243914,0.64,-0.24,9.95,-0.04,-0.00,-0.00,32.33
42241195,1566,1,196506,238330,0.64,-0.21,9.96,-0.03,-0.01,-0.00,32.33
42281193,1581,1,193595,234891,0.63,-0.23,9.97,-0.03,-0.01,-0.01,32.33
42321239,1569,1,193456,235265,0.65,-0.24,9.97,-0.03,-0.01,-0.01,32.33
42361195,1569,1,193641,236210,0.64,-0.23,9.96,-0.03,-0.01,-0.01,32.33
42401195,1573,1,194280,237633,0.64,-0.24,10.00,-0.04,-0.01,-0.01,32.33
42441193,1573,1,194922,239456,0.64,-0.22,9.99,-0.03,-0.01,-0.00,32.33
42481194,1565,1,195526,240083,0.64,-0.22,9.97,-0.03,-0.01,-0.01,32.33
42521235,1571,1,195614,240275,0.64,-0.22,10.00,-0.04,-0.00,-0.01,32.33
42561194,1571,1,195909,240817,0.62,-0.23,9.97,-0.04,-0.00,-0.01,32.33
42601192,1561,1,196150,241451,0.64,-0.23,9.98,-0.03,-0.01,-0.01,32.33
42641194,1559,1,196347,242156,0.64,-0.24,9.94,-0.03,-0.01,-0.01,32.33
42681882,1589,1,196587,242771,0.66,-0.24,9.96,-0.03,-0.01,-0.01,32.31
42720194,1558,1,196787,243207,0.64,-0.22,9.91,-0.03,-0.01,-0.01,32.31
42760194,1567,1,196366,238029,0.63,-0.23,9.94,-0.03,-0.01,-0.01,32.31
42800195,1558,1,193434,234204,0.64,-0.23,9.96,-0.03,-0.01,-0.00,32.31
42840193,1573,1,193063,234395,0.64,-0.22,9.96,-0.03,-0.01,-0.01,32.31
42880194,1553,1,193395,235620,0.66,-0.22,9.94,-0.04,-0.01,-0.01,32.31
42920194,1559,1,194094,237164,0.64,-0.24,9.95,-0.04,-0.01,-0.01,32.31
42960194,1559,1,194788,238717,0.65,-0.24,9.97,-0.03,-0.01,-0.01,32.31
43000194,1561,1,195252,239472,0.65,-0.25,9.97,-0.03,-0.01,-0.01,32.31
43040194,1563,1,195335,239331,0.63,-0.22,9.97,-0.03,-0.01,-0.00,32.31
43080192,1558,1,195191,239193,0.64,-0.22,9.96,-0.03,-0.01,-0.01,32.31
43120194,1569,1,195367,239912,0.62,-0.23,9.98,-0.03,-0.00,-0.00,32.31
43160192,1556,1,195743,241144,0.63,-0.20,9.98,-0.04,-0.00,-0.01,32.31
43200194,1554,1,196329,242381,0.64,-0.23,9.98,-0.03,-0.01,-0.00,32.31
43240194,1569,1,196740,243350,0.64,-0.24,9.95,-0.03,-0.01,-0.01,32.31
43280195,1567,1,196911,240635,0.65,-0.21,9.97,-0.03,-0.01,-0.01,32.31
43320195,1568,1,194336,235296,0.63,-0.23,9.97,-0.04,-0.00,-0.01,32.31
43360194,1569,1,193631,235298,0.64,-0.22,9.97,-0.04,-0.01,-0.01,32.31
43400194,1571,1,193882,235988,0.65,-0.21,9.95,-0.03,-0.01,-0.01,32.31
43440195,1577,1,194109,236604,0.64,-0.21,9.97,-0.03,-0.01,-0.01,32.31
43480194,1571,1,194406,237867,0.65,-0.22,9.94,-0.03,-0.01,-0.01,32.31
43520195,1577,1,195115,239377,0.64,-0.24,9.95,-0.03,-0.01,-0.01,32.31
43560194,1569,1,195567,239938,0.64,-0.23,9.98,-0.03,-0.01,-0.01,32.31
43600194,1565,1,195667,240142,0.65,-0.24,9.97,-0.03,-0.01,-0.01,32.31
43640194,1584,1,195851,240861,0.63,-0.21,9.96,-0.04,-0.01,-0.01,32.31
43680194,1583,1,196332,242193,0.62,-0.23,9.96,-0.04,-0.01,-0.01,32.31
43720882,1535,1,196828,243366,0.64,-0.24,9.99,-0.03,-0.00,-0.01,32.39
43761195,1568,1,197221,244092,0.62,-0.24,9.98,-0.03,-0.01,-0.01,32.39
43801194,1565,1,197355,242989,0.65,-0.23,9.95,-0.03,-0.01,-0.01,32.39
43841194,1559,1,195192,236039,0.64,-0.22,9.98,-0.04,-0.01,-0.01,32.39
43881195,1559,1,193730,235302,0.64,-0.22,9.96,-0.03,-0.01,-0.01,32.39
43921195,1562,1,193915,236163,0.63,-0.22,9.96,-0.03,-0.01,-0.00,32.39
43961204,1580,1,194452,237548,0.63,-0.24,9.94,-0.03,-0.01,-0.01,32.39
44001194,1570,1,195086,239525,0.63,-0.24,9.97,-0.04,-0.01,-0.01,32.39
44041194,1571,1,196066,241230,0.65,-0.24,9.94,-0.03,-0.01,-0.01,32.39
44081194,1566,1,196358,241634,0.63,-0.20,9.95,-0.03,-0.01,-0.01,32.39
44121192,1575,1,196418,241614,0.63,-0.22,9.97,-0.03,-0.01,-0.01,32.39
44161234,1584,1,196431,241907,0.63,-0.23,9.94,-0.03,-0.01,-0.01,32.39
44201194,1586,1,196559,242569,0.65,-0.22,9.96,-0.03,-0.01,-0.01,32.39
44241194,1577,1,196902,243307,0.65,-0.23,9.94,-0.03,-0.01,-0.00,32.39
44281192,1581,1,197076,243843,0.62,-0.20,9.99,-0.03,-0.01,-0.01,32.39
44321195,1584,1,197203,243001,0.65,-0.23,9.98,-0.03,-0.01,-0.01,32.39
44361217,1584,1,195237,236249,0.65,-0.24,9.97,-0.04,-0.01,-0.01,32.39
44401194,1605,1,193581,235166,0.64,-0.20,9.98,-0.03,-0.01,-0.01,32.39
44441192,1600,1,193727,235992,0.65,-0.23,9.98,-0.03,-0.01,-0.01,32.39
44481195,1600,1,194222,237232,0.64,-0.23,9.95,-0.04,-0.01,-0.01,32.39
44521198,1610,1,194802,238931,0.64,-0.21,9.96,-0.03,-0.01,-0.01,32.39
44561194,1622,1,195474,240148,0.65,-0.21,9.92,-0.03,-0.01,-0.01,32.39
44601194,1631,1,195699,240219,0.64,-0.22,9.95,-0.03,-0.01,-0.00,32.39
44641194,1643,1,195620,240186,0.67,-0.23,9.97,-0.03,-0.01,-0.01,32.39
44681194,1639,1,195790,240467,0.64,-0.21,9.97,-0.03,-0.01,-0.00,32.39
44721881,1615,1,195868,240920,0.65,-0.22,9.96,-0.03,-0.01,-0.01,32.39
44760194,1701,1,196117,241795,0.63,-0.23,9.96,-0.03,-0.01,-0.01,32.39
44800194,1708,1,196482,242918,0.64,-0.20,9.95,-0.03,-0.01,-0.01,32.39
44840193,1725,1,196856,241666,0.63,-0.23,9.96,-0.04,-0.00,-0.01,32.39
44880194,1717,1,194603,235573,0.64,-0.23,9.94,-0.04,-0.00,-0.00,32.39
44920192,1729,1,193516,235048,0.65,-0.23,9.99,-0.03,-0.01,-0.01,32.39
44960194,1738,1,193706,236008,0.64,-0.23,9.94,-0.03,-0.01,-0.01,32.39
45000195,1756,1,194244,237498,0.65,-0.23,9.98,-0.04,-0.01,-0.01,32.39
45040194,1739,1,194985,239405,0.64,-0.23,9.96,-0.04,-0.01,-0.01,32.39
45080194,1744,1,195665,240548,0.65,-0.23,9.95,-0.03,-0.01,-0.01,32.39
45120195,1751,1,195763,240409,0.65,-0.23,9.98,-0.03,-0.01,-0.01,32.39
45160194,1769,1,195698,240427,0.64,-0.23,9.93,-0.03,-0.01,-0.00,32.39
45200194,1766,1,195921,241098,0.65,-0.25,9.94,-0.04,-0.01,-0.01,32.39
45240195,1770,1,196179,241862,0.64,-0.24,9.96,-0.03,-0.01,-0.01,32.39
45280195,1782,1,196461,242542,0.64,-0.22,9.96,-0.03,-0.01,-0.01,32.39
45320195,1786,1,196574,242872,0.66,-0.22,9.96,-0.03,-0.01,-0.01,32.39
45360194,1787,1,196526,240466,0.66,-0.24,9.95,-0.04,-0.01,-0.01,32.39
45400195,1773,1,194019,234792,0.65,-0.23,9.95,-0.03,-0.00,-0.01,32.39
45440195,1781,1,193176,234573,0.64,-0.25,9.96,-0.04,-0.01,-0.01,32.39
45480195,1791,1,193394,235313,0.67,-0.23,9.96,-0.03,-0.01,-0.00,32.39
45520194,1792,1,193781,236286,0.65,-0.23,9.98,-0.03,-0.01,-0.01,32.39
45560195,1786,1,194276,237742,0.66,-0.23,9.97,-0.04,-0.01,-0.01,32.39
45600194,1799,1,195023,239392,0.63,-0.23,9.96,-0.04,-0.00,-0.01,32.39
45640193,1807,1,195515,240431,0.65,-0.21,9.95,-0.04,-0.00,-0.01,32.39
45680194,1799,1,195861,241109,0.63,-0.22,9.97,-0.03,-0.00,-0.01,32.39
45720195,1796,1,196160,241716,0.63,-0.23,9.96,-0.03,-0.01,-0.01,32.39
45760882,1776,1,196225,241776,0.65,-0.23,9.94,-0.03,-0.02,-0.01,32.33
45801195,1781,1,196223,241979,0.63,-0.23,9.94,-0.03,-0.02,-0.01,32.33
45841194,1791,1,196330,242535,0.65,-0.22,9.96,-0.03,-0.01,-0.01,32.33
45881194,1786,1,196614,241667,0.64,-0.22,9.98,-0.04,-0.00,-0.01,32.33
45921194,1784,1,194718,235819,0.65,-0.23,9.96,-0.04,-0.00,-0.01,32.33
45961192,1785,1,193490,235222,0.64,-0.22,9.96,-0.03,-0.01,-0.00,32.33
46001199,1778,1,193616,235782,0.63,-0.24,9.97,-0.03,-0.01,-0.01,32.33
46041195,1792,1,193914,236613,0.65,-0.21,9.95,-0.03,-0.01,-0.01,32.33
46081195,1776,1,194406,238131,0.65,-0.26,9.97,-0.03,-0.01,-0.01,32.33
46121194,1792,1,195150,239722,0.63,-0.23,10.00,-0.03,-0.01,-0.01,32.33
46161194,1795,1,195491,240018,0.67,-0.23,9.97,-0.03,-0.01,-0.01,32.33
46201194,1792,1,195547,240128,0.63,-0.23,9.96,-0.03,-0.01,-0.00,32.33
46241195,1802,1,195684,240677,0.63,-0.22,9.96,-0.03,-0.01,-0.01,32.33
46281194,1797,1,196050,241876,0.65,-0.23,9.97,-0.04,-0.01,-0.00,32.33
46321194,1802,1,196624,243207,0.64,-0.23,9.97,-0.04,-0.00,-0.01,32.33
46361193,1798,1,197058,244020,0.66,-0.22,9.96,-0.04,0.00,-0.01,32.33
46401173,1791,1,197237,243287,0.61,-0.23,9.95,-0.03,-0.02,-0.02,32.33
46441192,1790,1,195230,236191,0.62,-0.25,9.96,-0.03,-0.01,-0.01,32.33
46481194,1802,1,193428,235099,0.65,-0.21,9.96,-0.03,-0.02,-0.00,32.33
46521197,1792,1,193530,235930,0.65,-0.21,9.98,-0.03,-0.01,-0.01,32.33
46561194,1798,1,194042,237108,0.62,-0.25,9.95,-0.04,-0.00,-0.01,32.33
46601195,1802,1,194637,238696,0.65,-0.24,9.94,-0.04,-0.00,-0.01,32.33
46641195,1808,1,195373,240187,0.63,-0.21,9.98,-0.03,-0.01,-0.01,32.33
46681195,1808,1,195838,240760,0.66,-0.23,9.97,-0.04,-0.00,-0.01,32.33
46721194,1808,1,195892,240812,0.63,-0.23,9.94,-0.03,-0.01,-0.01,32.33
46761882,1797,1,195955,241089,0.63,-0.23,9.95,-0.03,-0.01,-0.01,32.33
46800194,1801,1,196155,241975,0.63,-0.22,9.97,-0.03,-0.01,-0.01,32.33
46840194,1799,1,196595,243064,0.63,-0.23,9.96,-0.03,-0.01,-0.01,32.33
46880194,1800,1,196921,243876,0.63,-0.23,9.97,-0.03,-0.01,-0.01,32.33
46920194,1808,1,197024,242001,0.65,-0.24,10.01,-0.03,-0.01,-0.00,32.33
46960194,1808,1,194684,235836,0.65,-0.25,9.96,-0.03,-0.01,-0.01,32.33
47000195,1802,1,193560,235393,0.65,-0.23,9.94,-0.03,-0.01,-0.01,32.33
47040194,1799,1,193684,236121,0.64,-0.21,9.94,-0.03,-0.01,-0.01,32.33
47080195,1777,1,194104,236964,0.66,-0.26,9.95,-0.03,-0.01,-0.01,32.33
47120194,1775,1,194435,238175,0.63,-0.23,9.96,-0.03,-0.01,-0.01,32.33
47160194,1776,1,194947,238979,0.67,-0.22,9.97,-0.03,-0.01,-0.01,32.33
47200194,1757,1,195034,238982,0.64,-0.23,9.94,-0.04,-0.01,-0.01,32.33
47240194,1759,1,195035,239152,0.62,-0.23,9.96,-0.03,-0.01,-0.01,32.33
47280194,1750,1,195195,239731,0.64,-0.23,9.95,-0.03,-0.01,-0.00,32.33
47320192,1758,1,195443,240329,0.64,-0.24,9.96,-0.03,-0.01,-0.00,32.33
47360194,1759,1,195658,240931,0.65,-0.22,9.94,-0.03,-0.01,-0.01,32.33
47400195,1744,1,195842,241759,0.64,-0.23,9.95,-0.03,-0.01,-0.01,32.33
47440216,1743,1,195959,238803,0.64,-0.23,9.97,-0.04,-0.00,-0.01,32.33
47480194,1734,1,193697,234877,0.63,-0.21,9.97,-0.04,-0.00,-0.01,32.33
47520195,1722,1,193231,234951,0.63,-0.23,9.99,-0.03,-0.01,-0.01,32.33
47560194,1717,1,193446,235525,0.65,-0.22,9.97,-0.03,-0.01,-0.01,32.33
47600195,1712,1,193718,236183,0.67,-0.23,9.94,-0.03,-0.01,-0.01,32.33
47640223,1712,1,194104,237851,0.66,-0.23,9.93,-0.04,-0.01,-0.01,32.33
47680194,1695,1,195038,239820,0.65,-0.22,9.96,-0.04,-0.00,-0.00,32.33
47720192,1689,1,195647,240621,0.64,-0.24,9.93,-0.04,0.00,-0.01,32.33
47760174,1683,1,195881,241027,0.68,-0.23,9.99,-0.03,-0.02,-0.02,32.33
47800880,1712,1,196060,241302,0.62,-0.22,9.95,-0.03,-0.01,-0.01,32.35
47841194,1712,1,196002,241175,0.64,-0.23,9.97,-0.03,-0.02,-0.01,32.35
47881195,1703,1,195953,241457,0.63,-0.23,9.97,-0.03,-0.01,-0.00,32.35
47921195,1697,1,196202,242265,0.66,-0.24,9.96,-0.03,-0.01,-0.01,32.35
47961194,1685,1,196362,239550,0.66,-0.22,9.96,-0.04,-0.00,-0.01,32.35
48001195,1680,1,194029,235177,0.66,-0.24,9.97,-0.04,-0.00,-0.00,32.35
48041192,1676,1,193402,235137,0.63,-0.23,9.99,-0.03,-0.01,-0.01,32.35
48081194,1668,1,193565,235724,0.63,-0.22,9.99,-0.03,-0.01,-0.01,32.35
48121195,1664,1,193863,236452,0.63,-0.23,9.97,-0.03,-0.01,-0.01,32.35
48161195,1675,1,194301,238157,0.64,-0.23,9.93,-0.03,-0.01,-0.01,32.35
48201195,1665,1,195021,239489,0.64,-0.23,9.96,-0.03,-0.01,-0.01,32.35
48241195,1665,1,195381,239729,0.65,-0.23,9.99,-0.04,-0.01,-0.01,32.35
48281194,1664,1,195394,239854,0.63,-0.20,9.96,-0.04,-0.01,-0.01,32.35
48321194,1661,1,195605,240546,0.63,-0.24,9.95,-0.03,-0.01,-0.00,32.35
48361195,1648,1,195925,241543,0.63,-0.23,9.97,-0.03,-0.01,-0.01,32.35
48401194,1661,1,196310,242531,0.65,-0.23,9.96,-0.03,-0.01,-0.01,32.35
48441195,1637,1,196682,243413,0.66,-0.24,9.92,-0.03,-0.01,-0.01,32.35
48481195,1625,1,196848,240990,0.64,-0.23,9.97,-0.04,-0.01,-0.01,32.35
48521199,1618,1,194340,235519,0.66,-0.23,9.98,-0.03,-0.01,-0.00,32.35
48561194,1618,1,193634,235499,0.67,-0.24,9.97,-0.04,-0.01,-0.01,32.35
48601194,1602,1,194000,236575,0.65,-0.23,9.99,-0.03,-0.00,-0.01,32.35
48641194,1604,1,194442,237480,0.65,-0.22,9.93,-0.03,-0.01,-0.00,32.35
48681193,1584,1,194685,238680,0.65,-0.23,9.95,-0.03,-0.02,-0.01,32.35
48721194,1593,1,194988,239214,0.65,-0.24,9.96,-0.03,-0.02,-0.00,32.35
48761192,1573,1,195065,238885,0.66,-0.23,9.97,-0.03,-0.01,-0.01,32.35
48801881,1606,1,194974,239034,0.66,-0.21,9.95,-0.04,-0.01,-0.01,32.33
48840194,1561,1,195237,240122,0.65,-0.22,9.96,-0.03,-0.00,-0.01,32.33
48880194,1535,1,195790,241641,0.64,-0.21,9.94,-0.04,-0.01,-0.01,32.33
48920194,1535,1,196395,243036,0.64,-0.23,9.94,-0.04,-0.00,-0.01,32.33
48960194,1535,1,196789,243947,0.67,-0.22,9.95,-0.04,-0.01,-0.01,32.33
49000194,1535,1,196907,241555,0.64,-0.21,9.96,-0.03,-0.01,-0.00,32.33
49040195,1535,1,194244,235065,0.66,-0.24,9.97,-0.03,-0.01,-0.01,32.33
49080197,1565,1,193132,234639,0.65,-0.25,9.95,-0.03,-0.01,-0.01,32.33
49120195,1571,1,193341,235560,0.65,-0.22,9.95,-0.03,-0.01,-0.01,32.33
49160195,1589,1,193765,236370,0.65,-0.21,9.98,-0.04,-0.00,-0.01,32.33
49200194,1598,1,194189,237431,0.64,-0.23,9.98,-0.03,-0.01,-0.01,32.33
49240194,1608,1,194746,238605,0.65,-0.22,9.96,-0.03,-0.01,-0.01,32.33
49280208,1629,1,195154,239599,0.65,-0.23,9.97,-0.03,-0.00,-0.01,32.33
49320194,1664,1,195582,240316,0.62,-0.23,9.97,-0.04,-0.00,-0.01,32.33
49360194,1698,1,195814,240831,0.63,-0.22,9.97,-0.04,-0.01,-0.01,32.33
49400194,1727,1,196083,241667,0.64,-0.22,9.98,-0.03,-0.01,-0.01,32.33
49440194,1755,1,196335,242363,0.63,-0.23,9.98,-0.03,-0.01,-0.00,32.33
49480194,1760,1,196443,242745,0.66,-0.24,9.94,-0.03,-0.02,-0.01,32.33
49521199,1808,1,196444,241359,0.65,-0.22,9.96,-0.03,-0.01,-0.01,32.33
49561194,1832,1,194255,235020,0.65,-0.22,9.97,-0.03,-0.01,-0.01,32.33
49601195,1856,1,193072,234368,0.65,-0.24,9.96,-0.04,-0.01,-0.01,32.33
49641195,1871,1,193253,235111,0.66,-0.22,9.96,-0.03,-0.01,-0.01,32.33
49681194,1894,1,193682,236334,0.64,-0.24,9.96,-0.03,-0.01,-0.01,32.33
49721195,1914,1,194208,237966,0.66,-0.23,9.98,-0.03,-0.01,-0.01,32.33
49761194,1901,1,194873,239453,0.66,-0.22,9.96,-0.03,-0.01,-0.01,32.33
49801882,1891,1,195304,240175,0.65,-0.23,9.95,-0.04,-0.01,-0.01,32.25
49840194,1907,1,195457,240589,0.66,-0.22,9.96,-0.04,-0.00,-0.01,32.25
49880194,1893,1,195644,241184,0.66,-0.23,9.97,-0.04,-0.01,-0.01,32.25
49920195,1871,1,195860,241746,0.65,-0.23,9.96,-0.03,-0.01,-0.01,32.25
49960194,1843,1,196137,242573,0.65,-0.22,9.95,-0.03,-0.01,-0.01,32.25
50000194,1813,1,196363,243359,0.66,-0.23,9.96,-0.03,-0.01,-0.01,32.25
50040194,1778,1,196640,243591,0.64,-0.24,9.96,-0.03,-0.01,-0.00,32.25
50080195,1745,1,195592,237297,0.65,-0.23,9.97,-0.04,-0.00,-0.01,32.25
50120194,1712,1,193504,235419,0.65,-0.22,9.97,-0.03,-0.01,-0.00,32.25
50160194,1683,1,193552,236535,0.66,-0.23,9.96,-0.03,-0.01,-0.00,32.25
50200194,1643,1,194233,238205,0.65,-0.24,9.96,-0.03,-0.01,-0.00,32.25
50240194,1619,1,194833,239875,0.66,-0.22,9.95,-0.03,-0.01,-0.01,32.25
50280194,1589,1,195596,241507,0.66,-0.23,9.96,-0.03,-0.01,-0.01,32.25
50320194,1583,1,195940,241877,0.63,-0.24,9.94,-0.04,-0.01,-0.01,32.25
50360195,1535,1,195979,241830,0.65,-0.22,9.94,-0.04,-0.01,-0.01,32.25
50400195,1513,1,195995,242103,0.65,-0.23,9.98,-0.03,-0.01,-0.01,32.25
50440195,1503,1,196185,242827,0.67,-0.23,9.94,-0.03,-0.01,-0.01,32.25
50480194,1501,1,196620,243984,0.66,-0.22,9.96,-0.04,-0.00,-0.01,32.25
50521197,1447,1,197156,245168,0.67,-0.24,9.95,-0.04,0.00,-0.00,32.25
50561174,1454,1,197682,245361,0.65,-0.23,9.95,-0.04,0.01,-0.01,32.25
50601173,1451,1,196674,238470,0.71,-0.21,10.07,-0.03,-0.03,-0.02,32.25
50641195,1454,1,194119,235686,0.60,-0.23,9.97,-0.03,-0.01,-0.01,32.25
50681192,1469,1,193702,235826,0.64,-0.23,9.98,-0.03,-0.02,-0.00,32.25
50721194,1463,1,193921,236579,0.64,-0.21,9.97,-0.03,-0.01,-0.01,32.25
50761195,1466,1,194207,237692,0.65,-0.23,9.99,-0.03,-0.01,-0.01,32.25
50801882,1438,1,194780,239576,0.67,-0.21,9.96,-0.03,-0.01,-0.00,32.45
50840192,1531,1,195458,240696,0.67,-0.21,9.97,-0.04,-0.01,-0.01,32.45
50880195,1531,1,195723,240956,0.65,-0.24,9.99,-0.03,-0.01,-0.01,32.45
50920211,1535,1,195763,241109,0.65,-0.22,9.96,-0.03,-0.01,-0.01,32.45
50960195,1558,1,195839,241570,0.67,-0.23,9.98,-0.03,-0.01,-0.00,32.45
51000194,1561,1,196064,242450,0.66,-0.23,9.98,-0.03,-0.01,-0.01,32.45
51042194,1473,1,196480,243596,0.66,-0.23,9.98,-0.04,-0.00,-0.01,32.45
51082194,1493,1,196915,243889,0.64,-0.23,9.97,-0.04,-0.00,-0.01,32.45
51122241,1493,1,195707,236843,0.63,-0.21,9.98,-0.03,-0.01,-0.00,32.45
51162192,1522,1,193251,234557,0.65,-0.23,9.97,-0.03,-0.01,-0.01,32.45
51202194,1535,1,193185,235061,0.67,-0.23,9.96,-0.04,-0.01,-0.00,32.45
51242192,1535,1,193458,235973,0.66,-0.23,9.95,-0.03,-0.01,-0.01,32.45
51282194,1535,1,193827,237007,0.64,-0.23,9.96,-0.03,-0.01,-0.01,32.45
51322194,1555,1,194396,238418,0.65,-0.22,9.95,-0.03,-0.01,-0.01,32.45
51362195,1577,1,194867,239437,0.68,-0.22,9.94,-0.04,-0.01,-0.01,32.45
51402194,1583,1,195240,240409,0.65,-0.23,9.95,-0.04,-0.01,-0.01,32.45
51442195,1580,1,195712,241531,0.67,-0.23,9.96,-0.03,-0.01,-0.01,32.45
51482194,1590,1,196134,242707,0.65,-0.22,9.95,-0.04,-0.01,-0.01,32.45
51522195,1605,1,196564,243613,0.63,-0.24,9.95,-0.03,-0.01,-0.01,32.45
51561194,1665,1,196813,244224,0.66,-0.23,9.94,-0.03,-0.01,-0.00,32.45
51601195,1686,1,196994,244560,0.63,-0.23,9.95,-0.03,-0.01,-0.01,32.45
51641194,1694,1,196383,239289,0.66,-0.23,9.93,-0.03,-0.01,-0.01,32.45
51681194,1706,1,193983,235879,0.65,-0.23,9.94,-0.04,-0.01,-0.01,32.45
51721194,1712,1,193613,236467,0.66,-0.25,9.96,-0.03,-0.01,-0.00,32.45
51761195,1711,1,194282,238336,0.66,-0.23,9.99,-0.03,-0.01,-0.01,32.45
51801882,1661,1,194961,240220,0.65,-0.24,9.96,-0.03,-0.01,-0.01,32.31
51842194,1680,1,195829,242345,0.66,-0.22,9.97,-0.04,-0.00,-0.00,32.31
51882192,1683,1,196517,243292,0.64,-0.23,9.99,-0.04,-0.00,-0.01,32.31
51922194,1686,1,196653,243512,0.65,-0.22,9.97,-0.03,-0.01,-0.01,32.31
51962194,1707,1,196786,244091,0.63,-0.22,9.95,-0.04,-0.01,-0.01,32.31
52002195,1717,1,197157,244860,0.66,-0.23,9.96,-0.04,-0.00,-0.01,32.31
52042192,1716,1,197491,245583,0.62,-0.22,9.95,-0.04,-0.00,-0.01,32.31
52082195,1717,1,197730,246036,0.68,-0.23,9.96,-0.04,-0.01,-0.01,32.31
52122194,1728,1,197882,246299,0.65,-0.23,9.96,-0.03,-0.01,-0.01,32.31
52162194,1740,1,197567,242293,0.62,-0.24,9.95,-0.03,-0.01,-0.01,32.31
52202195,1741,1,194989,237409,0.64,-0.23,9.97,-0.03,-0.01,-0.01,32.31
52242195,1747,1,194314,237426,0.63,-0.23,9.97,-0.03,-0.01,-0.01,32.31
52282194,1751,1,194743,238833,0.64,-0.23,9.95,-0.03,-0.01,-0.01,32.31
52322195,1773,1,195332,240523,0.63,-0.23,9.98,-0.03,-0.01,-0.01,32.31
52362194,1765,1,196171,242572,0.66,-0.22,9.96,-0.03,-0.01,-0.01,32.31
52402194,1775,1,196776,243478,0.64,-0.26,9.93,-0.04,-0.01,-0.01,32.31
52442195,1779,1,196949,243578,0.64,-0.24,9.97,-0.03,-0.01,-0.01,32.31
52482194,1773,1,197016,243848,0.63,-0.22,9.99,-0.03,-0.01,-0.01,32.31
52522194,1781,1,197103,244248,0.65,-0.24,9.96,-0.03,-0.01,-0.01,32.31
52561195,1813,1,197375,244752,0.64,-0.23,9.97,-0.03,-0.01,-0.01,32.31
52601194,1812,1,197539,245239,0.65,-0.22,9.97,-0.03,-0.01,-0.01,32.31
52641195,1809,1,197777,245544,0.65,-0.23,9.97,-0.03,-0.01,-0.00,32.31
52681192,1813,1,197060,239581,0.65,-0.23,9.95,-0.03,-0.01,-0.00,32.31
52721195,1811,1,194335,236044,0.65,-0.22,9.94,-0.03,-0.01,-0.01,32.31
52761198,1803,1,193962,236344,0.65,-0.23,9.97,-0.03,-0.01,-0.01,32.31
52801882,1790,1,194296,237533,0.65,-0.23,9.97,-0.03,-0.01,-0.00,32.45
52842193,1792,1,194761,239082,0.63,-0.23,9.97,-0.04,-0.01,-0.01,32.45
52882195,1792,1,195499,240929,0.65,-0.22,9.97,-0.03,-0.01,-0.01,32.45
52922195,1804,1,195979,241518,0.62,-0.23,9.99,-0.03,-0.01,-0.01,32.45
52962215,1790,1,196123,241737,0.64,-0.23,9.97,-0.03,-0.01,-0.01,32.45
53002195,1802,1,196259,242311,0.65,-0.23,9.96,-0.04,-0.01,-0.01,32.45
53042194,1794,1,196475,242923,0.64,-0.24,9.97,-0.03,-0.01,-0.01,32.45
53082195,1803,1,196641,243380,0.64,-0.20,9.97,-0.03,-0.01,-0.00,32.45
53122194,1792,1,196724,243863,0.66,-0.21,9.97,-0.03,-0.01,-0.00,32.45
53162194,1800,1,196869,243913,0.66,-0.23,9.94,-0.04,-0.01,-0.00,32.45
53202194,1794,1,195827,237453,0.67,-0.23,9.95,-0.04,-0.01,-0.00,32.45
53242195,1792,1,193477,235208,0.64,-0.22,9.96,-0.03,-0.01,-0.01,32.45
53282194,1791,1,193453,235714,0.65,-0.23,9.98,-0.03,-0.01,-0.01,32.45
53322194,1792,1,193788,236580,0.65,-0.21,9.98,-0.03,-0.01,-0.01,32.45
53362195,1791,1,194205,237839,0.64,-0.22,9.97,-0.03,-0.01,-0.00,32.45
53402193,1779,1,194889,239754,0.66,-0.21,9.95,-0.03,-0.01,-0.00,32.45
53442195,1786,1,195511,240582,0.64,-0.22,9.97,-0.03,-0.00,-0.01,32.45
53482194,1789,1,195726,241072,0.67,-0.25,9.95,-0.04,-0.00,-0.01,32.45
53522194,1781,1,196026,242002,0.66,-0.25,9.97,-0.03,-0.00,-0.01,32.45
53562195,1772,1,196539,243219,0.66,-0.24,9.99,-0.03,-0.00,-0.01,32.45
53601195,1739,1,197043,244254,0.64,-0.22,9.96,-0.04,-0.01,-0.01,32.45
53641195,1729,1,197368,244905,0.64,-0.23,9.96,-0.03,-0.01,-0.01,32.45
53681195,1741,1,197635,244769,0.64,-0.21,9.96,-0.04,-0.01,-0.01,32.45
53721195,1712,1,196266,237888,0.64,-0.23,9.97,-0.03,-0.01,-0.01,32.45
53761195,1707,1,194142,236004,0.64,-0.21,9.94,-0.03,-0.01,-0.01,32.45
53801195,1699,1,194072,236781,0.64,-0.23,9.93,-0.03,-0.01,-0.00,32.45
53841882,1712,1,194618,238322,0.64,-0.22,9.97,-0.03,-0.01,-0.01,32.45
53882195,1705,1,195297,239933,0.66,-0.24,9.97,-0.03,-0.01,-0.01,32.45
53922195,1711,1,195959,241253,0.64,-0.22,9.97,-0.03,-0.01,-0.01,32.45
53962195,1690,1,196204,241665,0.64,-0.24,9.99,-0.03,-0.01,-0.01,32.45
54002194,1670,1,196271,241859,0.67,-0.23,9.96,-0.03,-0.01,-0.01,32.45
54042195,1654,1,196357,242119,0.63,-0.22,9.97,-0.03,-0.01,-0.01,32.45
54082195,1652,1,196479,242672,0.67,-0.25,9.97,-0.03,-0.01,-0.01,32.45
54122194,1629,1,196616,243241,0.64,-0.22,9.97,-0.03,-0.01,-0.01,32.45
54162194,1617,1,196875,243795,0.64,-0.23,9.97,-0.03,-0.01,-0.01,32.45
54202195,1602,1,196899,242625,0.64,-0.24,10.00,-0.03,-0.01,-0.01,32.45
54242195,1599,1,194887,235825,0.64,-0.24,9.98,-0.04,-0.01,-0.01,32.45
54282195,1602,1,193262,234752,0.66,-0.23,9.96,-0.03,-0.01,-0.00,32.45
54322194,1610,1,193302,235387,0.65,-0.23,9.98,-0.03,-0.01,-0.01,32.45
54362195,1649,1,193628,236388,0.66,-0.23,9.97,-0.03,-0.01,-0.00,32.45
54402194,1677,1,194052,237699,0.68,-0.22,9.93,-0.03,-0.01,-0.01,32.45
54442194,1714,1,194561,238600,0.66,-0.22,9.95,-0.03,-0.01,-0.01,32.45
54482195,1789,1,194750,238866,0.64,-0.23,9.97,-0.04,-0.01,-0.01,32.45
54522194,1859,1,194811,239138,0.64,-0.22,9.98,-0.04,-0.00,-0.01,32.45
54562195,1922,1,195069,239937,0.63,-0.23,9.96,-0.04,-0.00,-0.01,32.45
54602193,1986,1,195490,240952,0.64,-0.24,9.98,-0.03,-0.01,-0.01,32.45
54642195,2061,1,195873,241978,0.64,-0.22,9.96,-0.04,-0.01,-0.01,32.45
54682194,2123,1,196220,242907,0.66,-0.22,9.95,-0.03,-0.01,-0.01,32.45
54722195,2171,1,196268,239355,0.65,-0.23,9.96,-0.03,-0.01,-0.00,32.45
54762193,2205,1,193771,234896,0.64,-0.22,9.95,-0.03,-0.01,-0.01,32.45
54802194,2219,1,193235,235047,0.64,-0.21,9.97,-0.03,-0.01,-0.00,32.45
54842880,2259,1,193621,236350,0.66,-0.23,9.98,-0.03,-0.01,-0.01,32.45
54881195,2224,1,194211,237981,0.66,-0.24,10.01,-0.03,-0.01,-0.01,32.45
54921195,2192,1,194883,239766,0.63,-0.22,9.97,-0.03,-0.01,-0.01,32.45
54961194,2156,1,195392,240411,0.63,-0.22,9.95,-0.04,-0.01,-0.01,32.45
55001195,2096,1,195408,240249,0.66,-0.23,9.95,-0.04,-0.01,-0.01,32.45
55041194,2031,1,195388,240388,0.67,-0.24,9.95,-0.04,-0.01,-0.01,32.45
55081194,1932,1,195563,240983,0.65,-0.24,9.96,-0.03,-0.01,-0.01,32.45
55121194,1850,1,195936,242010,0.64,-0.23,9.97,-0.04,-0.01,-0.00,32.45
55161195,1776,1,196277,242956,0.65,-0.20,9.98,-0.03,-0.01,-0.01,32.45
55201195,1703,1,196603,243064,0.65,-0.23,9.95,-0.03,-0.01,-0.01,32.45
55241194,1616,1,195310,236432,0.64,-0.22,9.99,-0.03,-0.01,-0.00,32.45
55281194,1534,1,193209,234633,0.64,-0.22,9.96,-0.03,-0.01,-0.01,32.45
55321195,1456,1,193206,235384,0.66,-0.21,9.98,-0.03,-0.01,-0.01,32.45
55361195,1392,1,193657,236631,0.66,-0.24,9.98,-0.04,-0.01,-0.01,32.45
55401195,1332,1,194282,238551,0.64,-0.23,9.96,-0.03,-0.01,-0.01,32.45
55441195,1291,1,195092,240065,0.64,-0.22,9.96,-0.03,-0.01,-0.01,32.45
55481194,1267,1,195373,240454,0.66,-0.23,9.98,-0.03,-0.01,-0.01,32.45
55521198,1255,1,195402,240511,0.66,-0.24,9.99,-0.03,-0.01,-0.01,32.45
55561194,1241,1,195476,240968,0.66,-0.23,10.00,-0.03,-0.01,-0.01,32.45
55601194,1233,1,195745,241676,0.64,-0.25,9.96,-0.03,-0.01,-0.01,32.45
55641195,1227,1,196000,242441,0.63,-0.23,9.96,-0.03,-0.01,-0.01,32.45
55681194,1249,1,196293,243210,0.65,-0.22,9.94,-0.03,-0.01,-0.01,32.45
55721194,1257,1,196342,240461,0.65,-0.24,9.98,-0.03,-0.01,-0.01,32.45
55761195,1294,1,193832,234993,0.65,-0.25,9.95,-0.04,-0.01,-0.00,32.45
55801195,1295,1,192989,234735,0.63,-0.23,9.97,-0.03,-0.01,-0.01,32.45
55841194,1319,1,193166,235458,0.66,-0.23,9.96,-0.03,-0.01,-0.01,32.45
55881882,1297,1,193532,236449,0.64,-0.21,9.94,-0.03,-0.01,-0.01,32.47
55922194,1357,1,194102,238303,0.64,-0.21,9.97,-0.03,-0.01,-0.01,32.47
55962194,1378,1,194784,239654,0.66,-0.23,9.97,-0.04,-0.01,-0.01,32.47
56002194,1399,1,195119,240110,0.65,-0.22,9.97,-0.03,-0.01,-0.01,32.47
56042236,1424,1,195253,240416,0.65,-0.23,9.97,-0.03,-0.01,-0.00,32.47
56082194,1458,1,195477,241271,0.67,-0.23,9.95,-0.03,-0.01,-0.01,32.47
56122195,1485,1,195927,242586,0.63,-0.23,9.95,-0.04,-0.00,-0.01,32.47
56162194,1509,1,196374,243598,0.64,-0.22,9.98,-0.04,-0.01,-0.01,32.47
56202194,1522,1,196684,244022,0.65,-0.23,9.99,-0.03,-0.01,-0.01,32.47
56242238,1535,1,195998,238377,0.66,-0.23,9.97,-0.03,-0.01,-0.01,32.47
56282194,1566,1,193760,235809,0.65,-0.21,9.98,-0.03,-0.01,-0.00,32.47
56322195,1582,1,193592,236494,0.66,-0.23,9.96,-0.03,-0.01,-0.00,32.47
56362192,1609,1,194132,238151,0.66,-0.22,9.96,-0.03,-0.01,-0.01,32.47
56402195,1606,1,194848,240067,0.67,-0.23,9.97,-0.03,-0.01,-0.00,32.47
56442193,1618,1,195576,241769,0.65,-0.23,9.97,-0.03,-0.01,-0.01,32.47
56482195,1632,1,195962,242321,0.67,-0.24,9.96,-0.04,-0.01,-0.01,32.47
56522195,1648,1,196068,242576,0.64,-0.22,9.96,-0.04,-0.01,-0.01,32.47
56562194,1645,1,196195,243009,0.64,-0.22,9.97,-0.03,-0.01,-0.01,32.47
56602194,1648,1,196417,243511,0.66,-0.22,9.96,-0.03,-0.01,-0.01,32.47
56642195,1634,1,196585,244051,0.66,-0.24,9.97,-0.03,-0.01,-0.00,32.47
56682192,1645,1,196788,244623,0.65,-0.23,9.97,-0.03,-0.01,-0.01,32.47
56722195,1655,1,196810,242309,0.63,-0.24,9.95,-0.03,-0.01,-0.01,32.47
56762194,1639,1,194464,236130,0.65,-0.25,9.98,-0.03,-0.01,-0.00,32.47
56802195,1648,1,193376,235714,0.65,-0.23,9.98,-0.03,-0.01,-0.01,32.47
56842194,1642,1,193714,237356,0.65,-0.23,9.96,-0.03,-0.01,-0.01,32.47
56882882,1607,1,194523,239359,0.67,-0.24,9.97,-0.04,-0.00,-0.01,32.45
56921194,1677,1,195391,241259,0.64,-0.21,9.95,-0.04,-0.01,-0.01,32.45
56961194,1671,1,195882,242018,0.65,-0.25,9.93,-0.03,-0.01,-0.01,32.45
57001195,1677,1,196081,242330,0.64,-0.22,9.97,-0.03,-0.01,-0.01,32.45
57041194,1675,1,196267,242907,0.63,-0.24,9.98,-0.04,-0.01,-0.01,32.45
57081195,1681,1,196506,243584,0.63,-0.24,9.96,-0.03,-0.01,-0.01,32.45
57121194,1676,1,196726,244272,0.62,-0.24,9.98,-0.03,-0.01,-0.01,32.45
57161195,1674,1,196938,244905,0.65,-0.23,9.96,-0.03,-0.01,-0.00,32.45
57201194,1680,1,197146,244863,0.65,-0.23,9.95,-0.03,-0.01,-0.01,32.45
57241195,1687,1,196189,238918,0.64,-0.22,9.96,-0.03,-0.01,-0.01,32.45
57281195,1680,1,194245,236926,0.65,-0.22,9.97,-0.03,-0.01,-0.01,32.45
57321194,1674,1,194172,237867,0.64,-0.22,9.98,-0.03,-0.01,-0.01,32.45
57361195,1675,1,194732,239279,0.65,-0.22,9.96,-0.03,-0.01,-0.00,32.45
57401195,1678,1,195276,240779,0.64,-0.24,9.95,-0.03,-0.01,-0.01,32.45
57441195,1680,1,195862,242029,0.67,-0.23,9.96,-0.03,-0.01,-0.01,32.45
57481195,1676,1,196097,242301,0.64,-0.23,9.99,-0.03,-0.01,-0.01,32.45
57521199,1680,1,196161,242309,0.65,-0.22,9.96,-0.03,-0.01,-0.00,32.45
57561194,1680,1,196163,242432,0.65,-0.23,9.95,-0.03,-0.01,-0.01,32.45
57601195,1687,1,196290,242950,0.65,-0.23,9.96,-0.03,-0.01,-0.01,32.45
57641195,1686,1,196465,243556,0.65,-0.23,9.98,-0.03,-0.01,-0.01,32.45
57681230,1689,1,196708,244079,0.67,-0.21,9.97,-0.03,-0.01,-0.01,32.45
57721195,1705,1,196648,241764,0.65,-0.23,9.97,-0.03,-0.01,-0.00,32.45
57761194,1697,1,194412,235952,0.63,-0.21,9.94,-0.03,-0.01,-0.01,32.45
57801195,1687,1,193420,235530,0.65,-0.24,9.96,-0.03,-0.01,-0.01,32.45
57841195,1711,1,193649,236327,0.66,-0.24,9.96,-0.04,-0.01,-0.01,32.45
57881194,1695,1,194034,237359,0.65,-0.22,9.95,-0.03,-0.01,-0.00,32.45
57921882,1646,1,194545,238967,0.67,-0.24,9.95,-0.03,-0.01,-0.00,32.47
57962194,1651,1,195275,240652,0.65,-0.22,9.96,-0.03,-0.01,-0.01,32.47
58002194,1654,1,195866,241933,0.64,-0.21,9.97,-0.04,-0.00,-0.00,32.47
58042193,1675,1,196306,242640,0.63,-0.22,9.95,-0.04,-0.00,-0.01,32.47
58082220,1681,1,196489,243397,0.66,-0.23,9.96,-0.03,-0.01,-0.01,32.47
58122195,1680,1,196846,244225,0.67,-0.24,9.95,-0.03,-0.01,-0.01,32.47
58162194,1700,1,197047,244772,0.66,-0.23,9.97,-0.03,-0.01,-0.01,32.47
58202194,1705,1,197217,245283,0.64,-0.22,9.96,-0.03,-0.01,-0.01,32.47
58242195,1712,1,197254,243402,0.65,-0.21,9.97,-0.03,-0.01,-0.01,32.47
58282195,1712,1,195239,237637,0.65,-0.22,9.98,-0.04,-0.01,-0.01,32.47
58322195,1715,1,194150,237052,0.65,-0.23,9.96,-0.03,-0.01,-0.01,32.47
58362195,1715,1,194267,238113,0.64,-0.23,9.97,-0.03,-0.01,-0.01,32.47
58402195,1729,1,194837,239635,0.66,-0.23,9.99,-0.03,-0.01,-0.01,32.47
58442194,1728,1,195484,241715,0.66,-0.23,9.96,-0.03,-0.01,-0.01,32.47
58482195,1744,1,196131,242850,0.65,-0.22,9.97,-0.04,-0.01,-0.01,32.47
58522195,1753,1,196405,243225,0.63,-0.24,9.97,-0.04,-0.00,-0.01,32.47
58562195,1758,1,196616,243733,0.65,-0.23,9.97,-0.03,-0.00,-0.01,32.47
58602192,1755,1,196958,244600,0.65,-0.23,9.96,-0.04,-0.00,-0.01,32.47
58642194,1769,1,197262,245322,0.65,-0.24,9.97,-0.04,-0.00,-0.01,32.47
58682195,1771,1,197582,245872,0.65,-0.23,9.99,-0.04,-0.00,-0.01,32.47
58722194,1776,1,197711,246170,0.65,-0.22,9.97,-0.03,-0.01,-0.01,32.47
58762194,1776,1,197862,246106,0.66,-0.23,9.95,-0.04,-0.00,-0.01,32.47
58802194,1789,1,196892,240424,0.63,-0.23,10.00,-0.04,-0.00,-0.01,32.47
58842192,1789,1,195162,238572,0.63,-0.21,9.94,-0.03,-0.01,-0.01,32.47
58882195,1799,1,195181,239483,0.63,-0.22,9.94,-0.03,-0.01,-0.01,32.47
58922882,1769,1,195773,241095,0.65,-0.22,9.94,-0.03,-0.01,-0.01,32.41
58961195,1840,1,196402,243259,0.65,-0.23,10.00,-0.03,-0.01,-0.01,32.41
59001193,1836,1,197168,244666,0.65,-0.22,9.99,-0.03,-0.01,-0.01,32.41
59041194,1840,1,197382,245075,0.62,-0.23,9.98,-0.03,-0.01,-0.01,32.41
59081194,1821,1,197324,245005,0.64,-0.22,10.00,-0.03,-0.02,-0.00,32.41
59121194,1832,1,197239,244852,0.65,-0.24,9.94,-0.03,-0.01,-0.01,32.41
59161194,1837,1,197168,244940,0.64,-0.23,9.98,-0.03,-0.01,-0.00,32.41
59201195,1827,1,197124,245250,0.66,-0.22,9.97,-0.03,-0.01,-0.01,32.41
59241194,1834,1,197283,245916,0.66,-0.23,9.96,-0.03,-0.01,-0.01,32.41
59281195,1835,1,197570,246256,0.66,-0.23,9.94,-0.04,-0.00,-0.01,32.41
59321204,1827,1,197109,241781,0.65,-0.23,9.95,-0.04,0.00,-0.01,32.41
59361174,1827,1,195399,239533,0.64,-0.23,10.00,-0.04,-0.00,-0.01,32.41
59403192,1793,1,195498,240657,0.64,-0.23,9.95,-0.03,-0.01,-0.01,32.41
59443195,1795,1,195992,242123,0.64,-0.24,9.96,-0.03,-0.01,-0.01,32.41
59483195,1802,1,196489,243664,0.65,-0.21,9.95,-0.03,-0.01,-0.01,32.41
59523220,1808,1,197016,244748,0.65,-0.23,9.95,-0.03,-0.01,-0.01,32.41
59563195,1809,1,197269,245199,0.66,-0.21,9.94,-0.04,-0.01,-0.01,32.41
59603195,1808,1,197391,245486,0.65,-0.22,9.96,-0.04,-0.01,-0.00,32.41
59643192,1808,1,197454,245722,0.63,-0.22,10.00,-0.03,-0.01,-0.01,32.41
59683195,1809,1,197524,246005,0.63,-0.23,9.97,-0.03,-0.01,-0.01,32.41
59723222,1808,1,197669,246381,0.64,-0.23,9.99,-0.03,-0.01,-0.01,32.41
59763195,1803,1,197710,246606,0.65,-0.22,9.97,-0.03,-0.01,-0.00,32.41
59803195,1808,1,197833,246770,0.64,-0.23,9.97,-0.03,-0.01,-0.01,32.41
59843195,1799,1,197770,244426,0.65,-0.22,9.96,-0.03,-0.01,-0.00,32.41
59883194,1790,1,195781,239136,0.64,-0.22,9.94,-0.04,-0.00,-0.01,32.41
59923882,1796,1,195045,239118,0.66,-0.24,9.96,-0.03,-0.01,-0.01,32.31
59962195,1776,1,195313,240114,0.65,-0.23,9.95,-0.03,-0.01,-0.01,32.31
60002195,1781,1,195628,240845,0.66,-0.23,9.96,-0.03,-0.02,-0.01,32.31
60042195,1773,1,195777,241758,0.67,-0.23,9.94,-0.03,-0.02,-0.01,32.31
60082194,1770,1,196048,242402,0.68,-0.23,9.96,-0.03,-0.01,-0.01,32.31
60122195,1763,1,196189,242889,0.67,-0.23,9.93,-0.04,-0.01,-0.01,32.31
60162214,1770,1,196473,243918,0.67,-0.23,9.96,-0.04,0.00,-0.01,32.31
60202172,1759,1,196961,245010,0.66,-0.23,9.94,-0.04,0.00,-0.01,32.31
60242174,1747,1,197380,245748,0.65,-0.22,9.97,-0.04,-0.00,-0.01,32.31
60282195,1743,1,197618,246212,0.66,-0.21,9.97,-0.03,-0.01,-0.01,32.31
60322194,1732,1,197691,246245,0.64,-0.24,9.96,-0.03,-0.01,-0.01,32.31
60362195,1729,1,197654,246145,0.67,-0.22,9.93,-0.03,-0.01,-0.01,32.31
60402195,1727,1,197199,241700,0.66,-0.22,9.91,-0.04,-0.00,-0.01,32.31
60442193,1711,1,194844,237123,0.64,-0.23,9.95,-0.04,-0.00,-0.01,32.31
60482194,1703,1,194162,236923,0.65,-0.23,9.96,-0.03,-0.01,-0.01,32.31
60522198,1694,1,194123,237269,0.66,-0.22,9.96,-0.03,-0.02,-0.00,32.31
60562195,1681,1,194295,237920,0.68,-0.24,9.95,-0.03,-0.01,-0.01,32.31
60602195,1663,1,194706,239420,0.65,-0.23,9.95,-0.04,-0.01,-0.01,32.31
60642195,1664,1,195377,240784,0.68,-0.24,9.97,-0.04,-0.00,-0.01,32.31
60682195,1658,1,195758,241285,0.65,-0.24,9.96,-0.04,-0.00,-0.01,32.31
60722194,1630,1,195919,241548,0.64,-0.23,9.97,-0.04,-0.00,-0.01,32.31
60762195,1615,1,196138,242190,0.63,-0.23,9.99,-0.03,-0.00,-0.01,32.31
60802195,1609,1,196469,242980,0.64,-0.21,9.97,-0.04,-0.01,-0.01,32.31
60842195,1601,1,196751,243662,0.63,-0.21,9.96,-0.03,-0.01,-0.01,32.31
60882195,1597,1,197007,244440,0.65,-0.23,9.98,-0.03,-0.01,-0.01,32.31
60922194,1604,1,197308,245300,0.64,-0.25,9.95,-0.04,-0.00,-0.01,32.31
60962881,1637,1,197619,244085,0.65,-0.23,9.98,-0.04,-0.00,-0.01,32.47
61003193,1643,1,195699,237986,0.67,-0.25,9.94,-0.04,0.00,-0.01,32.47
61043174,1648,1,194515,237235,0.61,-0.23,9.97,-0.03,-0.01,-0.01,32.47
61083195,1648,1,194672,238039,0.64,-0.22,9.98,-0.03,-0.01,-0.01,32.47
61123194,1669,1,195068,239133,0.65,-0.23,9.96,-0.03,-0.01,-0.00,32.47
61163197,1655,1,195523,240869,0.65,-0.20,9.96,-0.03,-0.01,-0.01,32.47
61203194,1655,1,196205,242211,0.64,-0.21,9.97,-0.03,-0.01,-0.01,32.47
61243194,1647,1,196477,242633,0.63,-0.22,9.96,-0.03,-0.01,-0.01,32.47
61283194,1637,1,196640,243092,0.65,-0.22,9.97,-0.04,-0.01,-0.01,32.47
61323194,1651,1,196926,244082,0.63,-0.23,9.98,-0.03,-0.01,-0.01,32.47
61363211,1647,1,197363,245105,0.65,-0.23,9.96,-0.04,-0.01,-0.00,32.47
61403193,1661,1,197730,245857,0.64,-0.23,9.96,-0.03,-0.01,-0.01,32.47
61443195,1648,1,197951,246401,0.65,-0.23,9.96,-0.03,-0.01,-0.01,32.47
61483195,1655,1,198082,246777,0.65,-0.22,9.95,-0.03,-0.01,-0.00,32.47
61523207,1650,1,198215,246942,0.65,-0.23,10.01,-0.04,-0.01,-0.01,32.47
61563195,1638,1,197616,241955,0.64,-0.24,9.97,-0.04,-0.01,-0.01,32.47
61603195,1634,1,195599,239214,0.65,-0.24,9.95,-0.03,-0.01,-0.01,32.47
61643195,1631,1,195574,240627,0.63,-0.24,9.94,-0.04,-0.01,-0.01,32.47
61683194,1638,1,196375,242969,0.65,-0.23,9.96,-0.03,-0.01,-0.01,32.47
