timestamp_us,ecg,leads,ir,red,accX,accY,accZ,gyroX,gyroY,gyroZ,temp
1920488,1191,1,209573,257210,0.00,0.00,0.00,0.00,0.00,0.00,0.00
1950960,976,1,209820,257461,1.31,-0.25,9.66,-0.03,0.01,-0.01,34.97
1991180,1013,1,210069,257861,1.35,-0.26,9.91,-0.03,0.02,-0.01,34.97
2031175,1123,1,210361,258174,1.32,-0.27,9.95,-0.03,0.02,-0.01,34.97
2071174,1249,1,210925,258771,1.31,-0.23,9.92,-0.03,0.02,-0.01,34.97
2111172,1351,1,211270,258806,1.27,-0.22,9.94,-0.03,0.02,-0.02,34.97
2151175,1627,1,211343,258549,1.28,-0.24,9.92,-0.03,0.00,-0.01,34.97
2191172,1777,1,211456,258734,1.27,-0.23,9.93,-0.03,0.00,-0.01,34.97
2231174,1989,1,211812,258625,1.25,-0.24,9.90,-0.03,-0.01,-0.01,34.97
2271191,2125,1,211762,255987,1.26,-0.23,9.90,-0.03,-0.01,-0.01,34.97
2311195,2258,1,210774,252863,1.25,-0.24,9.91,-0.03,-0.01,-0.01,34.97
2351195,2301,1,210515,251971,1.26,-0.21,9.98,-0.03,-0.01,-0.01,34.97
2391195,2330,1,210218,251105,1.25,-0.21,9.94,-0.03,-0.01,-0.01,34.97
2431195,2315,1,210247,251330,1.28,-0.24,9.96,-0.03,-0.01,-0.00,34.97
2471195,2273,1,210814,251645,1.27,-0.24,9.94,-0.03,-0.01,-0.00,34.97
2511192,2266,1,211196,251441,1.27,-0.20,9.92,-0.03,-0.01,-0.00,34.97
2551194,2240,1,211047,251187,1.25,-0.22,9.91,-0.04,-0.02,-0.01,34.97
2591195,2251,1,210966,251458,1.28,-0.23,9.94,-0.03,-0.01,-0.01,34.97
2631195,2205,1,210808,250986,1.28,-0.22,9.94,-0.03,-0.01,-0.01,34.97
2671195,2176,1,210200,249287,1.27,-0.22,9.92,-0.03,-0.01,-0.01,34.97
2711194,2160,1,209601,248156,1.26,-0.24,9.93,-0.03,-0.01,-0.01,34.97
2751195,2160,1,209217,247562,1.26,-0.23,9.93,-0.03,-0.01,-0.01,34.97
2791194,2123,1,209109,246680,1.25,-0.22,9.92,-0.03,-0.01,-0.01,34.97
2831195,2126,1,208009,244683,1.27,-0.23,9.94,-0.03,-0.01,-0.01,34.97
2871195,2103,1,208245,242342,1.27,-0.23,9.93,-0.03,-0.01,-0.01,34.97
2911195,2070,1,206692,237517,1.28,-0.23,9.94,-0.03,-0.01,-0.01,34.97
2951195,2054,1,205663,234536,1.27,-0.23,9.94,-0.03,-0.01,-0.00,34.97
2991878,2009,1,206093,236062,1.27,-0.23,9.92,-0.04,-0.02,-0.01,34.77
3030195,2054,1,207805,241521,1.28,-0.23,9.90,-0.03,-0.01,-0.00,34.77
3070191,2020,1,210923,244941,1.26,-0.24,9.91,-0.03,-0.01,-0.00,34.77
3110194,2027,1,211721,246141,1.26,-0.23,9.90,-0.04,-0.03,-0.00,34.77
3150191,1987,1,211868,246896,1.29,-0.23,9.89,-0.04,-0.02,-0.00,34.77
3190194,1983,1,212211,246910,1.30,-0.25,9.93,-0.03,-0.02,-0.01,34.77
3230191,1969,1,212023,246632,1.28,-0.24,9.93,-0.04,-0.02,-0.00,34.77
3270194,1933,1,211946,246600,1.29,-0.23,9.93,-0.03,-0.02,-0.00,34.77
3310192,1953,1,212023,247112,1.30,-0.23,9.91,-0.03,-0.01,-0.01,34.77
3350233,1947,1,212289,248180,1.30,-0.23,9.90,-0.03,-0.01,-0.00,34.77
3390191,1938,1,212709,249080,1.30,-0.23,9.93,-0.03,-0.02,-0.00,34.77
3430194,1920,1,212867,249492,1.30,-0.25,9.95,-0.03,-0.02,-0.00,34.77
3470191,1930,1,213011,250380,1.29,-0.24,9.91,-0.03,-0.02,-0.00,34.77
3510194,1930,1,213456,250461,1.31,-0.25,9.94,-0.04,-0.03,-0.00,34.77
3550198,1910,1,212831,247361,1.31,-0.25,9.94,-0.05,-0.08,-0.00,34.77
3590195,1920,1,212302,246934,1.36,-0.25,9.89,-0.05,-0.08,-0.00,34.77
3630195,1948,1,212795,248018,1.37,-0.25,9.92,-0.04,-0.02,-0.00,34.77
3670194,1935,1,213377,248509,1.33,-0.25,9.98,-0.04,-0.04,-0.00,34.77
3710192,1978,1,213748,249019,1.45,-0.27,9.87,-0.06,-0.10,-0.00,34.77
3750194,1934,1,214095,249808,1.43,-0.28,9.89,-0.04,-0.02,-0.00,34.77
3790195,1941,1,214611,250304,1.43,-0.27,9.91,-0.04,-0.01,-0.00,34.77
3830195,1949,1,215010,250995,1.43,-0.26,9.91,-0.03,-0.00,-0.01,34.77
3870192,1942,1,215604,252221,1.42,-0.27,9.91,-0.03,-0.00,-0.01,34.77
3910194,1936,1,216291,253227,1.42,-0.26,9.90,-0.03,0.01,-0.01,34.77
3950174,1942,1,216564,253614,1.41,-0.28,9.93,-0.03,0.00,-0.00,34.77
3990174,1945,1,216574,253758,1.40,-0.27,9.91,-0.03,0.00,-0.01,34.77
4030858,1904,1,216598,253911,1.40,-0.26,9.92,-0.03,0.00,-0.00,35.09
4069177,2010,1,216507,253953,1.38,-0.27,9.92,-0.03,0.00,-0.00,35.09
4109172,1985,1,216366,254067,1.38,-0.26,9.92,-0.03,0.01,-0.01,35.09
4149173,1988,1,216172,253661,1.36,-0.26,9.92,-0.03,0.01,-0.00,35.09
4189207,2000,1,215346,249876,1.35,-0.28,9.93,-0.03,-0.00,-0.00,35.09
4229194,1951,1,213333,246182,1.37,-0.25,9.92,-0.03,-0.00,-0.00,35.09
4269191,1979,1,212356,245115,1.36,-0.27,9.94,-0.03,-0.00,-0.00,35.09
4309194,1968,1,212089,245112,1.38,-0.24,9.90,-0.03,-0.01,-0.00,35.09
4349191,1968,1,211753,244764,1.36,-0.25,9.92,-0.03,-0.01,-0.00,35.09
4389194,1946,1,211215,243978,1.36,-0.24,9.93,-0.03,-0.01,-0.00,35.09
4429191,1954,1,210437,243073,1.37,-0.24,9.90,-0.03,-0.01,-0.00,35.09
4469194,1973,1,209677,241795,1.36,-0.25,9.92,-0.03,-0.01,-0.00,35.09
4509191,1936,1,208816,240527,1.36,-0.25,9.92,-0.03,-0.01,-0.00,35.09
4549194,1968,1,208133,239670,1.35,-0.24,9.89,-0.03,-0.02,-0.00,35.09
4589191,1978,1,207545,238953,1.37,-0.24,9.93,-0.03,-0.01,-0.00,35.09
4629194,1969,1,207119,238526,1.36,-0.23,9.92,-0.03,-0.01,-0.00,35.09
4669194,1968,1,206659,237776,1.36,-0.23,9.91,-0.03,-0.01,-0.00,35.09
4709194,1950,1,206174,237116,1.38,-0.24,9.89,-0.03,-0.01,-0.00,35.09
4749194,1983,1,205775,236538,1.35,-0.26,9.90,-0.03,-0.01,-0.00,35.09
4789194,1997,1,205259,235041,1.37,-0.24,9.90,-0.03,-0.01,-0.01,35.09
4829190,1997,1,203872,230677,1.36,-0.26,9.94,-0.03,-0.01,-0.00,35.09
4869194,1989,1,201612,226131,1.37,-0.23,9.91,-0.03,-0.01,-0.00,35.09
4909194,1979,1,199959,224118,1.38,-0.23,9.93,-0.03,-0.01,-0.00,35.09
4949194,1970,1,199482,222916,1.35,-0.25,9.90,-0.03,-0.01,-0.00,35.09
4989207,1971,1,198911,222097,1.36,-0.24,9.93,-0.03,-0.01,-0.01,35.09
5029194,1974,1,198716,222209,1.36,-0.23,9.92,-0.03,-0.00,-0.01,35.09
5069878,1936,1,198702,222141,1.36,-0.21,9.92,-0.03,-0.00,-0.00,33.17
5110191,1968,1,198763,222305,1.34,-0.24,9.91,-0.03,-0.01,-0.00,33.17
5150190,1945,1,198801,222641,1.36,-0.25,9.91,-0.03,-0.01,-0.00,33.17
5190215,1953,1,198988,223272,1.36,-0.23,9.94,-0.03,-0.01,-0.00,33.17
5230190,1923,1,199180,223841,1.35,-0.27,9.92,-0.03,-0.01,-0.00,33.17
5270192,1937,1,199432,224569,1.35,-0.24,9.94,-0.03,-0.01,-0.00,33.17
5310190,1942,1,199767,225607,1.33,-0.24,9.93,-0.03,-0.01,-0.00,33.17
5350192,1937,1,200257,226998,1.36,-0.25,9.91,-0.03,-0.01,-0.00,33.17
5390209,1917,1,200785,227800,1.35,-0.23,9.91,-0.03,-0.01,-0.01,33.17
5430192,1926,1,200603,225777,1.36,-0.26,9.91,-0.03,-0.01,-0.01,33.17
5470190,1925,1,199732,223910,1.35,-0.23,9.89,-0.03,-0.01,-0.01,33.17
5510195,1917,1,199453,224016,1.35,-0.24,9.90,-0.03,0.01,-0.01,33.17
5550172,1904,1,199737,224786,1.32,-0.25,9.94,-0.03,-0.00,-0.01,33.17
5590195,1925,1,199953,225590,1.34,-0.25,9.92,-0.04,-0.02,-0.00,33.17
5630190,1921,1,200307,226400,1.32,-0.24,9.91,-0.04,-0.01,-0.00,33.17
5670192,1920,1,200510,226982,1.34,-0.24,9.91,-0.04,-0.02,-0.00,33.17
5710189,1934,1,200659,227275,1.33,-0.25,9.91,-0.03,-0.02,-0.00,33.17
5750191,1943,1,200701,227305,1.35,-0.23,9.94,-0.03,-0.01,-0.00,33.17
5790190,1937,1,200830,227955,1.35,-0.24,9.90,-0.03,-0.01,-0.00,33.17
5830191,1936,1,201150,228630,1.35,-0.23,9.92,-0.03,-0.01,-0.00,33.17
5870190,1934,1,201332,229261,1.34,-0.26,9.93,-0.03,-0.01,-0.00,33.17
5910221,1948,1,201613,229818,1.35,-0.24,9.93,-0.03,-0.01,-0.01,33.17
5950190,1967,1,201675,230006,1.33,-0.22,9.93,-0.03,-0.01,-0.00,33.17
5990191,1965,1,201611,229717,1.33,-0.25,9.93,-0.03,-0.01,-0.00,33.17
6030189,1935,1,201147,227404,1.34,-0.26,9.92,-0.03,-0.01,-0.00,33.17
6070877,1936,1,200067,225106,1.37,-0.24,9.92,-0.03,-0.01,-0.00,32.19
6109191,1984,1,199644,224963,1.33,-0.23,9.93,-0.04,-0.01,-0.01,32.19
6149195,1973,1,199754,225495,1.33,-0.24,9.91,-0.03,-0.01,-0.00,32.19
6189191,1978,1,200005,226035,1.36,-0.24,9.91,-0.03,-0.01,-0.00,32.19
6229195,1968,1,200188,226656,1.31,-0.24,9.92,-0.03,-0.01,-0.01,32.19
6269194,1958,1,200285,226577,1.34,-0.25,9.90,-0.03,-0.01,-0.00,32.19
6309194,1963,1,200070,225979,1.34,-0.23,9.91,-0.03,-0.01,-0.01,32.19
6349194,1984,1,199845,225625,1.34,-0.23,9.95,-0.03,-0.00,-0.01,32.19
6389194,1957,1,199803,225954,1.35,-0.23,9.91,-0.03,-0.01,-0.00,32.19
6429192,1984,1,200018,226341,1.35,-0.23,9.92,-0.04,-0.01,-0.01,32.19
6469194,1967,1,200096,226571,1.36,-0.23,9.89,-0.03,-0.01,-0.01,32.19
6509194,1949,1,200141,226767,1.35,-0.23,9.93,-0.03,-0.01,-0.01,32.19
6549194,1977,1,200191,227200,1.34,-0.24,9.92,-0.03,-0.01,-0.01,32.19
6589194,1961,1,200368,227305,1.35,-0.25,9.93,-0.03,-0.01,-0.01,32.19
6629195,1965,1,199985,224635,1.35,-0.25,9.91,-0.03,-0.01,-0.00,32.19
6669195,1954,1,198395,220889,1.35,-0.24,9.93,-0.03,-0.01,-0.00,32.19
6709194,1953,1,197567,220204,1.32,-0.23,9.94,-0.03,-0.01,-0.00,32.19
6749192,1978,1,197663,220604,1.34,-0.25,9.89,-0.03,-0.01,-0.00,32.19
6789195,1948,1,197781,221029,1.36,-0.23,9.92,-0.03,-0.01,-0.00,32.19
6829207,1979,1,198018,221506,1.36,-0.25,9.90,-0.03,-0.01,-0.00,32.19
6869194,1966,1,197984,220955,1.34,-0.24,9.92,-0.03,-0.01,-0.01,32.19
6909194,1940,1,197778,220745,1.35,-0.24,9.92,-0.03,-0.01,-0.01,32.19
6949194,1969,1,197703,220741,1.35,-0.24,9.91,-0.03,-0.01,-0.00,32.19
6989191,1955,1,197811,221253,1.33,-0.24,9.91,-0.03,-0.01,-0.00,32.19
7029194,1961,1,198121,222423,1.33,-0.25,9.96,-0.03,-0.01,-0.00,32.19
7069194,1962,1,198776,223733,1.35,-0.27,9.93,-0.03,-0.01,-0.00,32.19
7109881,1957,1,199232,224503,1.36,-0.25,9.89,-0.03,-0.01,-0.01,31.95
7148194,2059,1,199455,224600,1.34,-0.24,9.90,-0.03,-0.01,-0.00,31.95
7188194,2010,1,199366,223731,1.34,-0.24,9.93,-0.03,-0.01,-0.00,31.95
7228194,2041,1,198498,220462,1.36,-0.25,9.92,-0.03,-0.01,-0.00,31.95
7269194,1967,1,197499,218843,1.35,-0.22,9.91,-0.03,-0.02,-0.01,31.95
7309194,1984,1,197295,218912,1.34,-0.24,9.90,-0.03,-0.01,-0.01,31.95
7349192,1975,1,197552,219549,1.35,-0.24,9.92,-0.03,-0.01,-0.00,31.95
7389192,1996,1,198032,220732,1.36,-0.26,9.94,-0.03,-0.01,-0.00,31.95
7429191,1965,1,198491,221485,1.35,-0.24,9.94,-0.03,-0.01,-0.00,31.95
7469189,1953,1,198620,221348,1.35,-0.24,9.90,-0.03,-0.01,-0.00,31.95
7509190,1965,1,198595,221425,1.30,-0.24,9.91,-0.03,-0.01,-0.01,31.95
7549207,1968,1,198872,222213,1.35,-0.23,9.93,-0.03,-0.01,-0.00,31.95
7589191,1967,1,199277,222870,1.36,-0.25,9.92,-0.03,-0.01,-0.00,31.95
7629190,1957,1,199566,223491,1.32,-0.23,9.90,-0.03,-0.01,-0.00,31.95
7669192,1969,1,199797,223764,1.33,-0.24,9.93,-0.03,-0.01,-0.01,31.95
7709190,1979,1,199721,223237,1.35,-0.24,9.90,-0.03,-0.00,-0.00,31.95
7749191,1984,1,199528,223198,1.34,-0.25,9.96,-0.03,-0.01,-0.00,31.95
7789190,1968,1,199505,222158,1.34,-0.24,9.94,-0.03,-0.01,-0.00,31.95
7829192,1962,1,198509,218927,1.34,-0.24,9.92,-0.03,-0.01,-0.01,31.95
7869190,1962,1,197682,217906,1.35,-0.23,9.90,-0.03,-0.01,-0.00,31.95
7909191,1967,1,197714,218420,1.33,-0.24,9.90,-0.03,-0.01,-0.00,31.95
7949189,1966,1,198069,219495,1.33,-0.25,9.91,-0.03,-0.01,-0.00,31.95
7989191,1979,1,198566,220664,1.36,-0.26,9.90,-0.03,-0.01,-0.00,31.95
8029189,1950,1,198914,221288,1.36,-0.24,9.92,-0.03,-0.01,-0.00,31.95
8069192,1879,1,199198,221934,1.36,-0.22,9.92,-0.03,-0.01,-0.00,31.95
8109189,1923,1,199506,222548,1.33,-0.24,9.93,-0.03,-0.01,-0.00,31.95
8149878,1914,1,199800,223525,1.35,-0.24,9.91,-0.03,-0.01,-0.00,32.25
8188191,1967,1,200183,224486,1.33,-0.25,9.91,-0.03,-0.01,-0.00,32.25
8228194,1949,1,200474,225234,1.34,-0.23,9.94,-0.03,-0.01,-0.00,32.25
8269189,1909,1,200720,225617,1.34,-0.23,9.89,-0.03,-0.01,-0.00,32.25
8309192,1913,1,200861,226002,1.33,-0.24,9.93,-0.03,-0.01,-0.00,32.25
8349189,1927,1,200974,226102,1.32,-0.24,9.94,-0.03,-0.01,-0.00,32.25
8389191,1935,1,201013,225811,1.35,-0.24,9.92,-0.04,-0.02,-0.01,32.25
8429190,1919,1,200508,223078,1.35,-0.24,9.93,-0.03,-0.01,-0.00,32.25
8469226,1922,1,199529,221027,1.33,-0.24,9.93,-0.03,-0.01,-0.00,32.25
8509189,1955,1,199275,221229,1.34,-0.25,9.92,-0.03,-0.01,-0.00,32.25
8549191,1936,1,199547,221976,1.36,-0.25,9.91,-0.03,-0.01,-0.00,32.25
8589189,1955,1,199850,223075,1.35,-0.24,9.90,-0.03,-0.01,-0.01,32.25
8629191,1927,1,200203,223941,1.34,-0.25,9.91,-0.03,-0.01,-0.01,32.25
8669232,1936,1,200502,224375,1.34,-0.23,9.92,-0.03,-0.01,-0.00,32.25
8709191,1933,1,200514,224431,1.35,-0.24,9.94,-0.03,-0.01,-0.00,32.25
8749189,1922,1,200515,224345,1.33,-0.23,9.93,-0.03,-0.01,-0.00,32.25
8789191,1931,1,200467,224397,1.35,-0.25,9.90,-0.03,-0.01,-0.00,32.25
8829189,1916,1,200508,224639,1.34,-0.24,9.93,-0.03,-0.01,-0.00,32.25
8869191,1935,1,200612,224827,1.35,-0.22,9.90,-0.03,-0.01,-0.00,32.25
8909189,1924,1,200691,224955,1.34,-0.26,9.89,-0.03,-0.01,-0.00,32.25
8949191,1932,1,200714,225220,1.36,-0.25,9.90,-0.03,-0.01,-0.01,32.25
8989190,1933,1,200889,225491,1.35,-0.25,9.91,-0.03,-0.01,-0.00,32.25
9029192,1936,1,200954,224803,1.36,-0.24,9.90,-0.03,-0.01,-0.01,32.25
9069189,1909,1,200104,221782,1.35,-0.23,9.91,-0.03,-0.01,-0.00,32.25
9109191,1905,1,199197,220276,1.35,-0.25,9.93,-0.03,-0.01,-0.00,32.25
9149875,1957,1,199029,220574,1.35,-0.25,9.95,-0.03,-0.01,-0.00,32.09
9188191,1950,1,199244,221102,1.36,-0.24,9.90,-0.03,-0.01,-0.00,32.09
9228190,1968,1,199394,221804,1.35,-0.26,9.92,-0.03,-0.01,-0.01,32.09
9268194,1959,1,199760,222651,1.34,-0.24,9.93,-0.03,-0.01,-0.01,32.09
9309189,1926,1,200000,223064,1.34,-0.24,9.92,-0.04,-0.02,-0.00,32.09
9349191,1930,1,200165,223520,1.34,-0.23,9.93,-0.04,-0.03,-0.00,32.09
9389189,1930,1,200389,224385,1.32,-0.21,9.92,-0.04,-0.03,-0.00,32.09
9429191,1901,1,200808,225579,1.36,-0.27,9.89,-0.03,-0.02,-0.00,32.09
9469189,1947,1,201317,226436,1.35,-0.25,9.93,-0.03,-0.01,-0.00,32.09
9509191,1953,1,201696,227193,1.37,-0.23,9.90,-0.03,-0.02,-0.00,32.09
9549189,1936,1,202040,227790,1.37,-0.27,9.89,-0.03,-0.01,-0.00,32.09
9589191,1930,1,202299,228330,1.36,-0.26,9.92,-0.03,-0.01,-0.00,32.09
9629189,1952,1,202494,227576,1.36,-0.25,9.90,-0.03,-0.01,-0.00,32.09
9667194,2027,1,201735,224291,1.37,-0.25,9.91,-0.03,-0.01,-0.00,32.09
9707191,2033,1,200808,222331,1.35,-0.24,9.90,-0.03,-0.01,-0.00,32.09
9747194,2057,1,200690,222412,1.36,-0.25,9.92,-0.03,-0.01,-0.00,32.09
9787194,2038,1,201031,223377,1.38,-0.23,9.91,-0.03,-0.01,-0.00,32.09
9827194,2023,1,201482,224891,1.36,-0.24,9.91,-0.03,-0.01,-0.00,32.09
9867194,2031,1,202063,226478,1.35,-0.24,9.91,-0.03,-0.00,-0.00,32.09
9907194,2019,1,202262,227268,1.35,-0.26,9.91,-0.03,-0.01,-0.00,32.09
9947194,2026,1,202474,227725,1.35,-0.25,9.94,-0.03,-0.01,-0.00,32.09
9987194,1991,1,202601,228131,1.35,-0.24,9.91,-0.03,-0.01,-0.00,32.09
10027196,2023,1,202693,228403,1.37,-0.25,9.95,-0.03,-0.01,-0.00,32.09
10067194,2004,1,202803,228499,1.37,-0.24,9.93,-0.03,-0.01,-0.00,32.09
10107213,2015,1,202856,228689,1.37,-0.24,9.92,-0.03,-0.01,-0.00,32.09
10147194,1989,1,202956,228953,1.36,-0.24,9.91,-0.03,-0.01,-0.00,32.09
10187881,1939,1,203089,229326,1.36,-0.25,9.91,-0.03,-0.01,-0.01,32.11
10228195,1933,1,203234,229735,1.36,-0.24,9.90,-0.03,-0.01,-0.01,32.11
10268195,1920,1,203057,228007,1.35,-0.23,9.91,-0.03,-0.01,-0.01,32.11
10308233,1945,1,202202,225583,1.34,-0.26,9.92,-0.03,-0.01,-0.00,32.11
10348195,1949,1,201741,225275,1.34,-0.26,9.90,-0.03,-0.01,-0.00,32.11
10388192,1931,1,201814,225706,1.36,-0.25,9.91,-0.04,-0.01,-0.00,32.11
10428195,1941,1,201923,226158,1.35,-0.26,9.93,-0.03,-0.01,-0.00,32.11
10468195,1938,1,202129,226762,1.35,-0.23,9.89,-0.03,-0.01,-0.00,32.11
10508190,1930,1,202223,226672,1.35,-0.24,9.93,-0.03,-0.01,-0.00,32.11
10548195,1943,1,202182,226537,1.38,-0.26,9.90,-0.03,-0.01,-0.00,32.11
10588190,1933,1,202120,226463,1.38,-0.24,9.90,-0.03,-0.01,-0.00,32.11
10628195,1910,1,202093,226409,1.35,-0.24,9.93,-0.03,-0.01,-0.00,32.11
10668191,1938,1,202185,226642,1.36,-0.24,9.90,-0.03,-0.01,-0.00,32.11
10708192,1934,1,202289,226901,1.36,-0.26,9.94,-0.03,-0.01,-0.01,32.11
10748190,1943,1,202416,227255,1.36,-0.26,9.92,-0.03,-0.01,-0.00,32.11
10788194,1925,1,202462,227335,1.35,-0.25,9.92,-0.03,-0.01,-0.00,32.11
10828190,1920,1,202435,227354,1.35,-0.24,9.91,-0.03,-0.01,-0.00,32.11
10868195,1943,1,202410,227080,1.36,-0.24,9.91,-0.03,-0.02,-0.00,32.11
10908190,1936,1,201865,224287,1.36,-0.24,9.93,-0.03,-0.01,-0.00,32.11
10948192,1926,1,200811,222432,1.36,-0.26,9.92,-0.03,-0.01,-0.00,32.11
10988190,1935,1,200606,222754,1.35,-0.25,9.92,-0.03,-0.01,-0.00,32.11
11028194,1951,1,200818,223507,1.36,-0.24,9.93,-0.03,-0.01,-0.01,32.11
11068190,1937,1,201062,224205,1.37,-0.25,9.92,-0.03,-0.01,-0.00,32.11
11108192,1934,1,201239,224685,1.34,-0.25,9.94,-0.03,-0.01,-0.00,32.11
11148189,1924,1,201374,224836,1.36,-0.25,9.88,-0.03,-0.01,-0.00,32.11
11188881,1884,1,201331,224807,1.35,-0.25,9.88,-0.03,-0.01,-0.00,32.35
11227194,1968,1,201297,224706,1.36,-0.25,9.93,-0.03,-0.01,-0.00,32.35
11267194,1947,1,201334,224836,1.35,-0.26,9.90,-0.03,-0.01,-0.00,32.35
11307194,1973,1,201426,225028,1.33,-0.24,9.90,-0.03,-0.01,-0.00,32.35
11347194,1947,1,201563,225318,1.36,-0.26,9.93,-0.03,-0.01,-0.00,32.35
11387194,1943,1,201748,225816,1.36,-0.25,9.92,-0.03,-0.01,-0.00,32.35
11427194,1979,1,201971,226297,1.36,-0.24,9.91,-0.03,-0.01,-0.00,32.35
11467194,1962,1,202166,226746,1.38,-0.23,9.90,-0.03,-0.01,-0.00,32.35
11507194,1955,1,202278,226495,1.35,-0.25,9.89,-0.03,-0.01,-0.00,32.35
11547208,1965,1,201821,224072,1.38,-0.23,9.92,-0.03,-0.01,-0.00,32.35
11587194,1975,1,200926,222679,1.36,-0.23,9.94,-0.03,-0.01,-0.00,32.35
11627194,1966,1,200790,223053,1.35,-0.23,9.91,-0.03,-0.01,-0.00,32.35
11667194,1975,1,201044,223703,1.35,-0.24,9.93,-0.03,-0.01,-0.01,32.35
11707194,1953,1,201223,224332,1.35,-0.25,9.92,-0.03,-0.01,-0.00,32.35
11747199,1967,1,201462,224805,1.35,-0.24,9.91,-0.03,-0.01,-0.00,32.35
11787195,1959,1,201593,224825,1.35,-0.25,9.91,-0.03,-0.01,-0.00,32.35
11827194,1991,1,201638,224954,1.36,-0.24,9.92,-0.03,-0.01,-0.00,32.35
11867194,1954,1,201860,225411,1.36,-0.23,9.93,-0.04,-0.02,-0.00,32.35
11907194,1969,1,202171,226437,1.35,-0.24,9.93,-0.04,-0.01,-0.00,32.35
11947199,1968,1,202595,227417,1.36,-0.26,9.91,-0.04,-0.01,-0.00,32.35
11987195,1975,1,202932,228272,1.37,-0.24,9.90,-0.04,-0.01,-0.00,32.35
12027195,1975,1,203224,229149,1.36,-0.24,9.90,-0.03,-0.01,-0.01,32.35
12067194,1982,1,203504,230014,1.36,-0.28,9.90,-0.03,-0.01,-0.01,32.35
12107190,1989,1,203838,230334,1.31,-0.23,9.94,-0.04,-0.01,-0.01,32.35
12147194,1983,1,203775,228337,1.37,-0.24,9.89,-0.03,-0.02,-0.00,32.35
12187194,1984,1,202949,225741,1.37,-0.25,9.91,-0.03,-0.01,-0.00,32.35
12227880,1935,1,202595,225359,1.36,-0.25,9.87,-0.03,-0.02,-0.01,32.03
12268190,1957,1,202768,225810,1.37,-0.27,9.93,-0.03,-0.02,-0.00,32.03
12308194,1982,1,203122,226779,1.35,-0.24,9.92,-0.03,-0.01,-0.00,32.03
12348189,1968,1,203628,228005,1.36,-0.24,9.91,-0.03,-0.02,-0.01,32.03
12388194,1973,1,203976,228770,1.39,-0.24,9.90,-0.04,-0.01,-0.00,32.03
12428189,1977,1,204160,229197,1.38,-0.22,9.93,-0.03,-0.01,-0.00,32.03
12468191,1971,1,204300,229690,1.37,-0.24,9.90,-0.03,-0.01,-0.01,32.03
12508190,1983,1,204453,230471,1.41,-0.26,9.90,-0.03,-0.01,-0.00,32.03
12548191,1966,1,204711,231124,1.39,-0.25,9.91,-0.03,-0.01,-0.00,32.03
12588190,1962,1,204897,231707,1.35,-0.27,9.89,-0.03,-0.01,-0.01,32.03
12628195,1963,1,205048,232403,1.36,-0.24,9.94,-0.03,-0.01,-0.00,32.03
12666194,2017,1,205279,233195,1.37,-0.25,9.92,-0.03,-0.02,-0.00,32.03
12706194,2017,1,205536,233702,1.38,-0.24,9.90,-0.03,-0.02,-0.00,32.03
12746191,2019,1,205659,232602,1.39,-0.24,9.91,-0.03,-0.01,-0.00,32.03
12786194,2031,1,204878,229809,1.38,-0.23,9.89,-0.03,-0.01,-0.01,32.03
12826194,2011,1,204143,228259,1.36,-0.26,9.91,-0.03,-0.01,-0.00,32.03
12866194,2031,1,203935,228157,1.38,-0.24,9.91,-0.03,-0.01,-0.00,32.03
12906194,2035,1,204064,228421,1.38,-0.24,9.91,-0.03,-0.01,-0.01,32.03
12946194,2000,1,204226,228817,1.39,-0.25,9.90,-0.03,-0.01,-0.00,32.03
12986191,2019,1,204383,229477,1.37,-0.24,9.90,-0.03,-0.01,-0.00,32.03
13026201,2007,1,204563,230179,1.38,-0.25,9.89,-0.03,-0.00,-0.01,32.03
13066194,2008,1,204650,230786,1.37,-0.25,9.90,-0.03,-0.00,-0.01,32.03
13106194,1997,1,204605,231196,1.37,-0.27,9.92,-0.03,-0.00,-0.01,32.03
13146194,2005,1,204533,231742,1.37,-0.27,9.92,-0.03,0.00,-0.01,32.03
13186173,1968,1,204394,232137,1.36,-0.25,9.94,-0.03,0.00,-0.00,32.03
13226174,1972,1,204336,232250,1.33,-0.23,9.93,-0.03,-0.01,-0.00,32.03
13266880,1902,1,204321,232124,1.35,-0.26,9.93,-0.03,-0.01,-0.00,31.83
13307190,1901,1,204369,231828,1.37,-0.24,9.91,-0.03,-0.02,-0.00,31.83
13347194,1917,1,204411,231113,1.36,-0.23,9.88,-0.03,-0.02,-0.00,31.83
13387207,1902,1,203976,229186,1.36,-0.25,9.91,-0.03,-0.01,-0.00,31.83
13427191,1936,1,203232,227406,1.40,-0.26,9.87,-0.03,-0.00,-0.01,31.83
13467190,1934,1,202787,227479,1.36,-0.26,9.92,-0.03,-0.01,-0.01,31.83
13507194,1923,1,202871,228317,1.36,-0.27,9.92,-0.03,-0.00,-0.01,31.83
13547190,1939,1,203034,229044,1.37,-0.26,9.90,-0.03,-0.00,-0.01,31.83
13587211,1931,1,203139,229495,1.33,-0.24,9.93,-0.03,-0.01,-0.00,31.83
13627190,1943,1,203277,229536,1.36,-0.25,9.91,-0.03,-0.02,-0.01,31.83
13667195,1936,1,203298,229128,1.36,-0.24,9.94,-0.03,-0.02,-0.00,31.83
13707190,1917,1,203254,228656,1.37,-0.24,9.89,-0.03,-0.02,-0.00,31.83
13747192,1926,1,203224,228621,1.38,-0.24,9.93,-0.03,-0.01,-0.00,31.83
13787215,1912,1,203313,229023,1.36,-0.26,9.90,-0.03,-0.01,-0.00,31.83
13827191,1925,1,203513,229498,1.36,-0.28,9.88,-0.03,-0.01,-0.01,31.83
13867190,1925,1,203622,229957,1.36,-0.23,9.91,-0.03,-0.01,-0.00,31.83
13907194,1936,1,203745,230382,1.33,-0.23,9.93,-0.03,-0.01,-0.01,31.83
13947190,1922,1,203882,230731,1.35,-0.26,9.93,-0.03,-0.01,-0.00,31.83
13987195,1923,1,203907,230344,1.38,-0.23,9.90,-0.03,-0.01,-0.00,31.83
14027195,1933,1,203389,228410,1.34,-0.25,9.90,-0.03,-0.01,-0.00,31.83
14067192,1936,1,202799,227445,1.36,-0.25,9.92,-0.03,-0.01,-0.00,31.83
14107190,1938,1,202673,227493,1.36,-0.25,9.91,-0.03,-0.01,-0.00,31.83
14147195,1935,1,202788,227595,1.36,-0.25,9.90,-0.03,-0.01,-0.00,31.83
14187190,1933,1,202859,227904,1.36,-0.26,9.91,-0.03,-0.01,-0.01,31.83
14227194,1926,1,202979,227839,1.36,-0.25,9.91,-0.03,-0.01,-0.00,31.83
14267876,1936,1,202886,227423,1.37,-0.26,9.92,-0.03,-0.01,-0.00,31.91
14306194,1953,1,202762,227148,1.38,-0.23,9.91,-0.03,-0.01,-0.00,31.91
14346194,1968,1,202820,227430,1.35,-0.26,9.93,-0.03,-0.01,-0.01,31.91
14386194,1984,1,202913,228083,1.37,-0.26,9.92,-0.03,-0.01,-0.00,31.91
14426194,1983,1,203222,228838,1.37,-0.25,9.90,-0.03,-0.01,-0.00,31.91
14466194,1979,1,203432,229478,1.36,-0.24,9.93,-0.03,-0.01,-0.00,31.91
14506194,1975,1,203658,230176,1.36,-0.27,9.91,-0.04,-0.01,-0.00,31.91
14546194,1985,1,203900,230661,1.36,-0.25,9.92,-0.03,-0.01,-0.01,31.91
14586194,1968,1,203934,229785,1.35,-0.24,9.94,-0.03,-0.01,-0.00,31.91
14626194,1968,1,203246,227676,1.35,-0.24,9.94,-0.03,-0.01,-0.00,31.91
14666194,1983,1,202685,226777,1.36,-0.25,9.92,-0.03,-0.01,-0.00,31.91
14706194,1970,1,202548,226595,1.35,-0.24,9.91,-0.03,-0.01,-0.00,31.91
14746194,1968,1,202550,226672,1.36,-0.25,9.91,-0.03,-0.01,-0.00,31.91
14786194,1963,1,202655,227043,1.37,-0.25,9.89,-0.03,-0.01,-0.00,31.91
14826194,1956,1,202771,227253,1.37,-0.25,9.91,-0.03,-0.01,-0.01,31.91
14866194,1989,1,202858,227425,1.37,-0.25,9.89,-0.03,-0.01,-0.00,31.91
14906194,1941,1,202944,227850,1.36,-0.24,9.92,-0.03,-0.01,-0.01,31.91
14946194,1968,1,203126,228483,1.36,-0.25,9.91,-0.03,-0.01,-0.00,31.91
14986195,1968,1,203388,229237,1.37,-0.27,9.91,-0.03,-0.01,-0.00,31.91
15026201,1957,1,203616,230023,1.36,-0.24,9.90,-0.03,-0.01,-0.00,31.91
15066191,1968,1,203831,230446,1.39,-0.24,9.93,-0.03,-0.01,-0.00,31.91
15106194,1977,1,203962,230728,1.38,-0.25,9.92,-0.03,-0.01,-0.00,31.91
15146195,1965,1,204015,230974,1.36,-0.24,9.92,-0.03,-0.01,-0.00,31.91
15186194,1958,1,203903,229609,1.36,-0.25,9.90,-0.03,-0.01,-0.00,31.91
15226194,1958,1,203099,227623,1.38,-0.25,9.91,-0.03,-0.01,-0.00,31.91
15266194,1955,1,202653,227246,1.38,-0.26,9.91,-0.03,-0.01,-0.01,31.91
15306881,1952,1,202591,227678,1.37,-0.26,9.90,-0.03,-0.01,-0.01,31.83
15347192,1950,1,202809,228137,1.34,-0.24,9.90,-0.03,-0.01,-0.00,31.83
15387189,1942,1,202971,228648,1.36,-0.25,9.91,-0.03,-0.01,-0.00,31.83
15427221,1914,1,203081,228806,1.36,-0.26,9.90,-0.03,-0.01,-0.00,31.83
15467189,1950,1,203135,228550,1.36,-0.25,9.90,-0.03,-0.01,-0.00,31.83
15507192,1963,1,203138,228517,1.38,-0.25,9.91,-0.03,-0.01,-0.00,31.83
15547190,1953,1,203136,228589,1.36,-0.23,9.92,-0.03,-0.01,-0.00,31.83
15587192,1952,1,203224,228865,1.36,-0.27,9.92,-0.03,-0.01,-0.01,31.83
15627190,1962,1,203330,229145,1.37,-0.24,9.93,-0.03,-0.01,-0.00,31.83
15667192,1941,1,203419,229462,1.36,-0.25,9.90,-0.03,-0.01,-0.00,31.83
15707190,1925,1,203545,229687,1.37,-0.23,9.89,-0.03,-0.01,-0.00,31.83
15747195,1936,1,203630,229878,1.37,-0.24,9.91,-0.03,-0.01,-0.01,31.83
15787190,1951,1,203711,229376,1.34,-0.25,9.89,-0.03,-0.01,-0.00,31.83
15827194,1936,1,203242,227167,1.37,-0.25,9.86,-0.03,-0.01,-0.00,31.83
15867190,1946,1,202627,226242,1.39,-0.25,9.93,-0.03,-0.01,-0.00,31.83
15907194,1921,1,202557,226567,1.35,-0.26,9.91,-0.03,-0.01,-0.00,31.83
15947189,1965,1,202756,227079,1.37,-0.23,9.89,-0.03,-0.01,-0.00,31.83
15985193,2027,1,203022,227717,1.34,-0.24,9.90,-0.03,-0.01,-0.00,31.83
16025213,2036,1,203228,228275,1.38,-0.25,9.91,-0.03,-0.01,-0.01,31.83
16065193,2006,1,203463,228596,1.37,-0.25,9.90,-0.03,-0.01,-0.00,31.83
16105193,2005,1,203659,229099,1.36,-0.25,9.92,-0.03,-0.02,-0.00,31.83
16145193,1999,1,203769,229637,1.37,-0.26,9.91,-0.03,-0.01,-0.01,31.83
16185194,2032,1,204021,230102,1.35,-0.25,9.92,-0.03,-0.01,-0.01,31.83
16225194,2000,1,204172,230418,1.36,-0.24,9.92,-0.03,-0.01,-0.00,31.83
16265193,2021,1,204193,230600,1.36,-0.23,9.93,-0.03,-0.01,-0.01,31.83
16305193,2032,1,204359,230577,1.36,-0.24,9.91,-0.03,-0.01,-0.00,31.83
16345880,1936,1,204437,230657,1.37,-0.25,9.91,-0.03,-0.01,-0.01,31.95
16386194,1947,1,204501,230316,1.36,-0.25,9.90,-0.03,-0.01,-0.01,31.95
16426189,1930,1,204076,228219,1.36,-0.23,9.92,-0.03,-0.01,-0.00,31.95
16466191,1947,1,203248,226663,1.36,-0.26,9.90,-0.03,-0.01,-0.00,31.95
16506189,1968,1,203036,226548,1.34,-0.26,9.92,-0.03,-0.01,-0.00,31.95
16546194,1985,1,202991,226738,1.36,-0.24,9.91,-0.03,-0.01,-0.01,31.95
16586190,1959,1,203125,227195,1.39,-0.25,9.91,-0.03,-0.01,-0.00,31.95
16626191,1968,1,203266,227553,1.38,-0.25,9.90,-0.03,-0.01,-0.00,31.95
16666189,1955,1,203223,227631,1.38,-0.22,9.91,-0.03,-0.01,-0.00,31.95
16706191,1942,1,203198,227541,1.36,-0.24,9.92,-0.03,-0.01,-0.00,31.95
16746190,1968,1,203147,227330,1.35,-0.24,9.90,-0.03,-0.01,-0.01,31.95
16786194,1948,1,203044,227290,1.36,-0.27,9.90,-0.03,-0.00,-0.01,31.95
16826189,1941,1,203075,227523,1.35,-0.23,9.91,-0.03,-0.01,-0.01,31.95
16866233,2000,1,203143,227769,1.36,-0.25,9.90,-0.03,-0.01,-0.00,31.95
16906189,1958,1,203240,228008,1.34,-0.24,9.91,-0.03,-0.01,-0.00,31.95
16946194,1960,1,203363,228330,1.35,-0.25,9.91,-0.03,-0.01,-0.00,31.95
16986189,1967,1,203327,227417,1.36,-0.25,9.94,-0.03,-0.01,-0.00,31.95
17026201,1936,1,202710,225308,1.37,-0.24,9.93,-0.03,-0.01,-0.01,31.95
17066235,1955,1,202182,224785,1.35,-0.24,9.91,-0.03,-0.01,-0.01,31.95
17106194,1959,1,202205,225111,1.37,-0.25,9.92,-0.03,-0.01,-0.00,31.95
17146189,1961,1,202385,225820,1.34,-0.25,9.88,-0.03,-0.01,-0.00,31.95
17186194,1942,1,202589,226510,1.35,-0.25,9.93,-0.03,-0.01,-0.00,31.95
17226190,1949,1,202826,226732,1.38,-0.24,9.91,-0.03,-0.01,-0.00,31.95
17266191,1959,1,202878,226777,1.36,-0.25,9.93,-0.03,-0.01,-0.00,31.95
17306190,1962,1,202886,227029,1.36,-0.26,9.94,-0.03,-0.01,-0.00,31.95
17346880,1953,1,202934,227253,1.35,-0.23,9.93,-0.03,-0.01,-0.00,31.85
17385194,1991,1,203031,227620,1.36,-0.25,9.89,-0.03,-0.01,-0.00,31.85
17425193,1987,1,203063,227946,1.34,-0.24,9.90,-0.03,-0.01,-0.01,31.85
17465194,2007,1,203260,228224,1.34,-0.24,9.92,-0.03,-0.01,-0.00,31.85
17505193,1954,1,203304,228435,1.33,-0.25,9.90,-0.03,-0.01,-0.00,31.85
17545194,1995,1,203490,228646,1.36,-0.23,9.92,-0.03,-0.01,-0.01,31.85
17585194,1984,1,203548,228379,1.37,-0.23,9.92,-0.03,-0.01,-0.00,31.85
17625194,1986,1,202988,226127,1.36,-0.24,9.93,-0.03,-0.01,-0.00,31.85
17665193,1989,1,202268,225091,1.33,-0.24,9.93,-0.03,-0.01,-0.00,31.85
17705194,1984,1,202155,225305,1.36,-0.25,9.90,-0.03,-0.01,-0.01,31.85
17745194,1973,1,202358,225817,1.36,-0.25,9.92,-0.03,-0.01,-0.00,31.85
17785194,1982,1,202517,226363,1.35,-0.25,9.91,-0.03,-0.01,-0.00,31.85
17825194,1997,1,202868,226901,1.35,-0.23,9.94,-0.03,-0.01,-0.00,31.85
17865194,1991,1,202959,227062,1.35,-0.25,9.90,-0.03,-0.01,-0.00,31.85
17905194,1983,1,202989,227113,1.35,-0.24,9.91,-0.03,-0.01,-0.00,31.85
17945194,1994,1,203062,227362,1.36,-0.23,9.90,-0.03,-0.01,-0.00,31.85
17985194,1971,1,203128,227659,1.36,-0.25,9.92,-0.03,-0.01,-0.01,31.85
18025217,1982,1,203300,228029,1.36,-0.23,9.93,-0.03,-0.01,-0.00,31.85
18065194,1968,1,203444,228310,1.35,-0.24,9.93,-0.03,-0.01,-0.00,31.85
18105194,1984,1,203564,228636,1.34,-0.23,9.92,-0.03,-0.01,-0.00,31.85
18145193,1995,1,203681,228963,1.36,-0.25,9.92,-0.03,-0.01,-0.00,31.85
18185194,2000,1,203888,229218,1.35,-0.23,9.89,-0.03,-0.01,-0.01,31.85
18225194,1967,1,203994,229374,1.36,-0.24,9.95,-0.03,-0.01,-0.01,31.85
18265194,1955,1,203769,227673,1.36,-0.23,9.92,-0.03,-0.01,-0.00,31.85
18306195,1937,1,203020,225994,1.35,-0.26,9.92,-0.03,-0.01,-0.00,31.85
18346876,1911,1,202728,226047,1.36,-0.24,9.92,-0.03,-0.01,-0.00,31.95
18385194,1968,1,202919,226673,1.36,-0.26,9.92,-0.03,-0.01,-0.00,31.95
18425193,1954,1,203002,227231,1.37,-0.24,9.91,-0.03,-0.01,-0.00,31.95
18465194,1961,1,203350,227931,1.35,-0.23,9.92,-0.03,-0.01,-0.00,31.95
18505225,1951,1,203465,228161,1.34,-0.23,9.88,-0.03,-0.01,-0.00,31.95
18545194,1956,1,203447,228235,1.35,-0.25,9.89,-0.03,-0.01,-0.00,31.95
18585194,1959,1,203484,228434,1.34,-0.24,9.91,-0.04,-0.01,-0.00,31.95
18625194,1989,1,203701,228800,1.36,-0.22,9.89,-0.03,-0.01,-0.00,31.95
18665194,1972,1,203800,229191,1.35,-0.23,9.90,-0.03,-0.01,-0.00,31.95
18705194,1986,1,203870,229390,1.36,-0.25,9.93,-0.03,-0.01,-0.00,31.95
18745194,1979,1,204078,229788,1.35,-0.23,9.93,-0.03,-0.01,-0.00,31.95
18785194,1989,1,204094,229981,1.37,-0.25,9.90,-0.03,-0.01,-0.00,31.95
18825194,1974,1,204135,230162,1.36,-0.25,9.92,-0.03,-0.01,-0.00,31.95
18865194,1998,1,204301,230544,1.36,-0.24,9.93,-0.03,-0.01,-0.00,31.95
18905194,1987,1,204277,229830,1.36,-0.25,9.91,-0.03,-0.01,-0.00,31.95
18945194,1943,1,203695,227721,1.36,-0.24,9.92,-0.03,-0.01,-0.01,31.95
18985194,1927,1,203037,226971,1.35,-0.23,9.91,-0.03,-0.01,-0.00,31.95
19025217,1963,1,203055,227328,1.34,-0.25,9.91,-0.03,-0.01,-0.01,31.95
19065194,1968,1,203305,227804,1.36,-0.25,9.89,-0.03,-0.01,-0.00,31.95
19105194,1963,1,203481,228510,1.36,-0.23,9.90,-0.03,-0.01,-0.00,31.95
19145191,1973,1,203573,228691,1.34,-0.23,9.93,-0.03,-0.01,-0.00,31.95
19185194,1969,1,203637,228693,1.35,-0.25,9.88,-0.03,-0.01,-0.01,31.95
19225190,1945,1,203656,228879,1.34,-0.23,9.89,-0.03,-0.01,-0.00,31.95
19265194,1950,1,203677,229132,1.35,-0.24,9.92,-0.03,-0.01,-0.00,31.95
19305190,1958,1,203752,229332,1.34,-0.24,9.92,-0.03,-0.01,-0.00,31.95
19346192,1945,1,203851,229568,1.36,-0.24,9.91,-0.03,-0.01,-0.00,31.95
19386876,1935,1,203974,229867,1.35,-0.24,9.90,-0.03,-0.01,-0.00,32.05
19425191,1968,1,204082,230119,1.36,-0.27,9.91,-0.03,-0.01,-0.00,32.05
19465194,1986,1,204087,230298,1.35,-0.26,9.91,-0.03,-0.01,-0.00,32.05
19505194,1965,1,204162,230292,1.36,-0.25,9.91,-0.03,-0.01,-0.00,32.05
19545195,1989,1,203955,228336,1.34,-0.22,9.90,-0.03,-0.01,-0.00,32.05
19585194,1965,1,203127,226774,1.36,-0.25,9.91,-0.03,-0.01,-0.00,32.05
19625194,1953,1,202861,226905,1.33,-0.24,9.90,-0.03,-0.01,-0.00,32.05
19665191,1957,1,203064,227327,1.35,-0.25,9.93,-0.03,-0.01,-0.00,32.05
19705189,1940,1,203362,227988,1.32,-0.23,9.91,-0.03,-0.01,-0.00,32.05
19745194,1962,1,203441,228417,1.37,-0.26,9.92,-0.03,-0.01,-0.00,32.05
19785195,1975,1,203614,228421,1.35,-0.24,9.89,-0.03,-0.01,-0.00,32.05
19825194,1957,1,203693,228505,1.38,-0.25,9.90,-0.03,-0.01,-0.00,32.05
19865194,1949,1,203657,228607,1.36,-0.23,9.90,-0.03,-0.01,-0.01,32.05
19905194,1935,1,203894,229132,1.34,-0.25,9.91,-0.03,-0.01,-0.00,32.05
19945189,1947,1,204006,229593,1.35,-0.23,9.92,-0.03,-0.01,-0.01,32.05
19985195,1957,1,204226,230112,1.34,-0.25,9.89,-0.03,-0.01,-0.00,32.05
20025215,1927,1,204357,230615,1.36,-0.23,9.94,-0.03,-0.01,-0.00,32.05
20065194,1968,1,204490,230989,1.34,-0.23,9.90,-0.03,-0.01,-0.00,32.05
20105189,1954,1,204618,231364,1.36,-0.23,9.92,-0.03,-0.01,-0.00,32.05
20145211,1973,1,204648,231047,1.35,-0.24,9.89,-0.03,-0.01,-0.01,32.05
20185190,1955,1,203896,228493,1.35,-0.24,9.90,-0.03,-0.00,-0.00,32.05
20225191,1948,1,203164,227180,1.33,-0.25,9.92,-0.03,-0.01,-0.00,32.05
20265189,1927,1,203007,227439,1.35,-0.25,9.91,-0.03,-0.01,-0.00,32.05
20305192,1936,1,203160,227865,1.34,-0.25,9.93,-0.03,-0.01,-0.00,32.05
20346189,1937,1,203220,228359,1.36,-0.26,9.90,-0.03,-0.01,-0.00,32.05
20384194,2000,1,203380,228677,1.36,-0.25,9.90,-0.03,-0.01,-0.00,32.05
20424877,1936,1,203301,228590,1.34,-0.24,9.96,-0.03,-0.01,-0.00,32.05
20465195,1950,1,203331,228452,1.32,-0.27,9.91,-0.03,-0.01,-0.00,32.05
20505189,1955,1,203092,228243,1.34,-0.26,9.92,-0.03,-0.01,-0.00,32.05
20545208,1940,1,203135,228205,1.34,-0.24,9.93,-0.03,-0.01,-0.01,32.05
20585189,1941,1,203196,228192,1.35,-0.23,9.90,-0.03,-0.01,-0.00,32.05
20625190,1943,1,203103,228068,1.35,-0.23,9.90,-0.03,-0.01,-0.00,32.05
20665189,1958,1,203239,228393,1.34,-0.27,9.90,-0.03,-0.01,-0.00,32.05
20705191,1938,1,203376,228728,1.33,-0.23,9.90,-0.03,-0.01,-0.00,32.05
20745189,1935,1,203433,229068,1.37,-0.24,9.91,-0.03,-0.01,-0.00,32.05
20785191,1942,1,203658,229277,1.34,-0.25,9.93,-0.03,-0.01,-0.00,32.05
20825189,1906,1,203155,227055,1.35,-0.24,9.92,-0.03,-0.01,-0.00,32.05
20865191,1920,1,202612,225816,1.36,-0.22,9.92,-0.03,-0.01,-0.00,32.05
20905190,1927,1,202488,226096,1.35,-0.24,9.91,-0.03,-0.01,-0.00,32.05
20945191,1949,1,202589,226746,1.35,-0.23,9.89,-0.03,-0.01,-0.00,32.05
20985189,1945,1,202866,227236,1.36,-0.24,9.91,-0.03,-0.01,-0.00,32.05
21025216,1950,1,202982,227495,1.35,-0.23,9.93,-0.03,-0.01,-0.01,32.05
21065190,1970,1,203096,227857,1.33,-0.24,9.95,-0.03,-0.01,-0.00,32.05
21105195,1945,1,203216,228128,1.34,-0.25,9.91,-0.03,-0.01,-0.01,32.05
21145190,1949,1,203195,228397,1.35,-0.24,9.90,-0.03,-0.01,-0.00,32.05
21185192,1937,1,203303,228901,1.35,-0.23,9.93,-0.03,-0.01,-0.00,32.05
21225190,1936,1,203416,229434,1.34,-0.23,9.93,-0.03,-0.01,-0.00,32.05
21265195,1949,1,203656,229846,1.33,-0.25,9.92,-0.03,-0.01,-0.00,32.05
21305189,1934,1,203647,229936,1.34,-0.23,9.92,-0.03,-0.01,-0.01,32.05
21345195,1939,1,203837,230280,1.36,-0.24,9.93,-0.03,-0.02,-0.00,32.05
21384194,1980,1,204029,230610,1.34,-0.24,9.92,-0.03,-0.02,-0.00,32.05
21424881,1913,1,204102,229676,1.36,-0.25,9.90,-0.03,-0.02,-0.00,31.99
21465190,1933,1,203631,227465,1.36,-0.25,9.91,-0.03,-0.02,-0.00,31.99
21505194,1936,1,203059,226987,1.35,-0.24,9.91,-0.03,-0.01,-0.00,31.99
21545190,1950,1,203344,228026,1.34,-0.24,9.90,-0.03,-0.01,-0.00,31.99
21585191,1941,1,203757,229168,1.36,-0.23,9.93,-0.03,-0.00,-0.00,31.99
21625190,1954,1,203980,230231,1.36,-0.24,9.90,-0.03,-0.00,-0.00,31.99
21665191,1952,1,204190,230870,1.36,-0.26,9.91,-0.04,-0.00,-0.01,31.99
21705190,1934,1,204076,230903,1.35,-0.25,9.89,-0.04,-0.01,-0.00,31.99
21745191,1947,1,203954,230867,1.34,-0.24,9.91,-0.03,-0.01,-0.00,31.99
21785190,1925,1,203940,231082,1.36,-0.25,9.91,-0.03,-0.01,-0.00,31.99
21825194,1931,1,204047,231249,1.35,-0.24,9.92,-0.04,-0.01,-0.00,31.99
21865190,1940,1,204014,231255,1.35,-0.25,9.92,-0.03,-0.01,-0.00,31.99
21905192,1943,1,204016,231080,1.34,-0.25,9.91,-0.03,-0.01,-0.00,31.99
21945190,1939,1,204003,230934,1.34,-0.25,9.91,-0.03,-0.01,-0.00,31.99
21985201,1936,1,203968,230707,1.35,-0.25,9.89,-0.03,-0.01,-0.00,31.99
22025215,1958,1,203794,229209,1.36,-0.24,9.92,-0.03,-0.01,-0.00,31.99
22065195,1983,1,202801,226716,1.35,-0.24,9.94,-0.03,-0.01,-0.01,31.99
22105191,1936,1,202241,226508,1.34,-0.23,9.91,-0.03,-0.01,-0.01,31.99
22145194,1930,1,202406,227226,1.34,-0.23,9.92,-0.03,-0.01,-0.01,31.99
22185213,1904,1,202638,227528,1.34,-0.25,9.90,-0.03,-0.01,-0.01,31.99
22225194,1927,1,202733,227343,1.33,-0.24,9.95,-0.03,-0.02,-0.00,31.99
22265190,1943,1,202556,226284,1.36,-0.24,9.91,-0.03,-0.02,-0.00,31.99
22305192,1923,1,202140,224967,1.36,-0.26,9.91,-0.03,-0.01,-0.00,31.99
22345190,1953,1,201883,224287,1.36,-0.24,9.92,-0.03,-0.01,-0.00,31.99
22385195,1920,1,201919,224698,1.35,-0.25,9.90,-0.03,-0.01,-0.00,31.99
22424880,1908,1,202001,225046,1.35,-0.21,9.94,-0.03,-0.01,-0.00,31.69
22465194,1910,1,202104,225157,1.37,-0.23,9.90,-0.03,-0.00,-0.00,31.69
22505189,1935,1,202112,225219,1.32,-0.23,9.89,-0.03,-0.00,-0.00,31.69
22545192,1935,1,202068,225539,1.33,-0.24,9.90,-0.04,-0.01,-0.00,31.69
22585189,1927,1,202283,226156,1.36,-0.25,9.90,-0.04,-0.01,-0.00,31.69
22625191,1929,1,202400,224850,1.34,-0.25,9.95,-0.03,-0.01,-0.01,31.69
22665190,1925,1,201623,222877,1.34,-0.25,9.91,-0.04,-0.01,-0.00,31.69
22705195,1936,1,201237,222817,1.36,-0.23,9.91,-0.03,-0.01,-0.01,31.69
22745190,1936,1,201358,223437,1.35,-0.25,9.90,-0.03,-0.01,-0.01,31.69
22785194,1942,1,201654,224197,1.35,-0.24,9.91,-0.03,-0.01,-0.00,31.69
22825189,1931,1,202045,225197,1.36,-0.23,9.91,-0.03,-0.01,-0.00,31.69
22863193,2027,1,202218,225268,1.34,-0.23,9.92,-0.03,-0.01,-0.00,31.69
22903194,2027,1,202190,225111,1.34,-0.26,9.89,-0.03,-0.01,-0.00,31.69
22943194,2038,1,202095,225077,1.34,-0.22,9.89,-0.03,-0.01,-0.00,31.69
22983193,2038,1,202182,225181,1.35,-0.21,9.89,-0.03,-0.02,-0.00,31.69
23023193,2043,1,202000,224845,1.35,-0.23,9.91,-0.03,-0.01,-0.00,31.69
23063193,2037,1,201972,225170,1.37,-0.23,9.93,-0.03,-0.02,-0.00,31.69
23103193,2036,1,202096,225798,1.36,-0.24,9.93,-0.03,-0.01,-0.00,31.69
23143193,2000,1,202363,226377,1.37,-0.24,9.92,-0.03,-0.01,-0.00,31.69
23183194,2032,1,202614,226784,1.36,-0.26,9.91,-0.03,-0.01,-0.00,31.69
23223194,2017,1,202507,225082,1.36,-0.22,9.93,-0.03,-0.01,-0.01,31.69
23263193,2011,1,201757,223690,1.33,-0.23,9.92,-0.03,-0.01,-0.00,31.69
23303193,2018,1,201612,223886,1.35,-0.23,9.92,-0.03,-0.01,-0.01,31.69
23343193,2007,1,201689,224259,1.34,-0.25,9.92,-0.03,-0.01,-0.00,31.69
23383193,2030,1,201772,224620,1.34,-0.25,9.90,-0.03,-0.00,-0.01,31.69
23424194,1951,1,201920,224812,1.35,-0.25,9.92,-0.03,-0.01,-0.00,31.69
23464876,1915,1,201925,224700,1.34,-0.24,9.89,-0.03,-0.01,-0.01,31.81
23503194,1990,1,201821,224449,1.36,-0.24,9.93,-0.03,-0.01,-0.00,31.81
23543194,1984,1,201825,224568,1.34,-0.22,9.90,-0.03,-0.01,-0.00,31.81
23583193,1985,1,201925,224986,1.35,-0.25,9.92,-0.03,-0.02,-0.00,31.81
23623193,1968,1,202078,225582,1.37,-0.25,9.87,-0.03,-0.01,-0.00,31.81
23663193,2002,1,202348,226631,1.35,-0.24,9.92,-0.03,-0.01,-0.00,31.81
23703193,2005,1,202749,227826,1.35,-0.21,9.90,-0.03,-0.00,-0.01,31.81
23743194,2001,1,203055,228817,1.34,-0.23,9.93,-0.03,-0.00,-0.00,31.81
23783191,1997,1,203142,228458,1.35,-0.24,9.93,-0.03,-0.01,-0.01,31.81
23823193,1995,1,202407,226082,1.36,-0.25,9.93,-0.04,-0.01,-0.01,31.81
23863193,2015,1,201690,225282,1.33,-0.26,9.92,-0.03,-0.01,-0.00,31.81
23903193,1994,1,201494,225447,1.33,-0.23,9.91,-0.03,-0.01,-0.00,31.81
23943194,2016,1,201514,225509,1.33,-0.24,9.91,-0.03,-0.01,-0.00,31.81
23983193,1989,1,201620,225719,1.35,-0.25,9.94,-0.03,-0.01,-0.00,31.81
24023194,2000,1,201603,225963,1.35,-0.23,9.90,-0.03,-0.02,-0.00,31.81
24063194,1997,1,201595,225939,1.34,-0.24,9.91,-0.03,-0.02,-0.00,31.81
24103193,1989,1,201509,226102,1.34,-0.26,9.90,-0.03,-0.01,-0.00,31.81
24143193,2006,1,201681,226729,1.34,-0.25,9.92,-0.03,-0.01,-0.00,31.81
24183193,1999,1,201957,227526,1.36,-0.25,9.93,-0.03,-0.01,-0.00,31.81
24223193,1994,1,202358,228121,1.37,-0.25,9.92,-0.03,-0.01,-0.00,31.81
24263194,1982,1,202552,228702,1.36,-0.24,9.91,-0.03,-0.01,-0.01,31.81
24303194,1969,1,202712,228975,1.35,-0.25,9.91,-0.03,-0.01,-0.01,31.81
24343194,1988,1,202768,228557,1.35,-0.22,9.92,-0.03,-0.01,-0.00,31.81
24383194,1998,1,202288,225417,1.33,-0.26,9.90,-0.03,-0.01,-0.00,31.81
24423191,1974,1,201239,223408,1.36,-0.26,9.91,-0.03,-0.02,-0.01,31.81
24464195,1951,1,200970,223573,1.36,-0.24,9.94,-0.03,-0.02,-0.00,31.81
24504876,1913,1,201311,225295,1.36,-0.24,9.92,-0.03,-0.01,-0.00,31.97
24543194,1994,1,202304,227538,1.42,-0.24,9.85,-0.03,-0.00,-0.00,31.97
24583191,1999,1,202803,228164,1.36,-0.23,9.94,-0.03,0.01,-0.00,31.97
24623173,1975,1,202860,228466,1.36,-0.22,9.90,-0.03,0.02,-0.00,31.97
24663174,1971,1,202651,228282,1.31,-0.23,9.95,-0.03,0.01,-0.01,31.97
24703173,1951,1,202540,227834,1.31,-0.22,9.93,-0.03,-0.01,-0.00,31.97
24743194,1963,1,202432,227348,1.34,-0.24,9.91,-0.04,-0.02,-0.00,31.97
24783193,1965,1,202280,227325,1.35,-0.25,9.93,-0.03,-0.02,-0.00,31.97
24823190,1968,1,202586,228007,1.33,-0.24,9.91,-0.04,-0.03,-0.00,31.97
24863194,1967,1,202796,228266,1.36,-0.24,9.91,-0.04,-0.02,-0.00,31.97
24903193,1971,1,202849,228042,1.33,-0.24,9.91,-0.03,-0.01,-0.00,31.97
24943193,1984,1,202620,226505,1.34,-0.25,9.88,-0.03,-0.01,-0.00,31.97
24983194,1998,1,201674,223767,1.35,-0.26,9.93,-0.03,-0.01,-0.00,31.97
25023194,1994,1,201057,223289,1.34,-0.24,9.90,-0.03,-0.01,-0.00,31.97
25063194,1997,1,201266,224044,1.34,-0.25,9.93,-0.03,-0.01,-0.00,31.97
25103194,1984,1,201485,224484,1.35,-0.23,9.92,-0.03,-0.01,-0.00,31.97
25143193,1975,1,201594,224874,1.33,-0.24,9.93,-0.03,-0.01,-0.00,31.97
25183193,1981,1,201663,225081,1.35,-0.23,9.89,-0.03,-0.01,-0.00,31.97
25223189,1979,1,201769,224947,1.33,-0.23,9.91,-0.03,-0.01,-0.01,31.97
25263240,1979,1,201717,225071,1.33,-0.25,9.91,-0.03,-0.01,-0.00,31.97
25303194,1977,1,201785,225527,1.35,-0.24,9.90,-0.03,-0.01,-0.00,31.97
25343193,1967,1,201896,226155,1.35,-0.26,9.90,-0.03,-0.01,-0.00,31.97
25383194,1958,1,202078,226737,1.36,-0.25,9.91,-0.03,-0.01,-0.00,31.97
25423194,1974,1,202328,227032,1.35,-0.23,9.92,-0.03,-0.01,-0.00,31.97
25463228,1984,1,202403,227363,1.35,-0.24,9.91,-0.03,-0.01,-0.00,31.97
25503193,1949,1,202451,227647,1.36,-0.23,9.89,-0.03,-0.01,-0.01,31.97
25543876,1938,1,202485,227215,1.33,-0.24,9.91,-0.03,-0.01,-0.00,31.97
25584191,1950,1,201913,224838,1.33,-0.25,9.90,-0.03,-0.01,-0.01,31.97
25624189,1933,1,201110,224259,1.33,-0.23,9.90,-0.03,-0.01,-0.00,31.97
25664208,1922,1,201250,224875,1.36,-0.25,9.92,-0.03,-0.01,-0.00,31.97
25704189,1959,1,201424,225819,1.36,-0.25,9.89,-0.03,-0.01,-0.01,31.97
25744191,1955,1,201814,226909,1.36,-0.26,9.90,-0.03,-0.01,-0.01,31.97
25784189,1940,1,202114,227622,1.34,-0.24,9.91,-0.03,-0.01,-0.00,31.97
25824191,1953,1,202258,228019,1.34,-0.25,9.92,-0.03,-0.01,-0.00,31.97
25864189,1955,1,202372,228166,1.34,-0.22,9.93,-0.03,-0.01,-0.00,31.97
25904190,1946,1,202354,228468,1.33,-0.23,9.90,-0.03,-0.01,-0.00,31.97
25944189,1950,1,202515,228734,1.34,-0.23,9.90,-0.03,-0.01,-0.00,31.97
25984191,1937,1,202669,229098,1.35,-0.24,9.92,-0.03,-0.01,-0.00,31.97
26024201,1934,1,202847,229278,1.36,-0.25,9.92,-0.03,-0.01,-0.01,31.97
26064191,1936,1,202899,229314,1.35,-0.24,9.94,-0.03,-0.01,-0.00,31.97
26104189,1931,1,202891,229444,1.35,-0.25,9.93,-0.03,-0.01,-0.00,31.97
26144191,1943,1,202980,229410,1.35,-0.25,9.95,-0.03,-0.01,-0.00,31.97
26184190,1915,1,202673,227415,1.34,-0.24,9.91,-0.03,-0.01,-0.00,31.97
26224191,1927,1,201766,225693,1.35,-0.25,9.90,-0.03,-0.01,-0.00,31.97
26264189,1938,1,201478,225949,1.35,-0.23,9.93,-0.03,-0.01,-0.00,31.97
26304191,1955,1,201676,226676,1.36,-0.24,9.91,-0.03,-0.01,-0.00,31.97
26344189,1939,1,201941,227372,1.34,-0.23,9.90,-0.03,-0.01,-0.00,31.97
26384191,1924,1,202262,227704,1.34,-0.24,9.92,-0.03,-0.01,-0.00,31.97
26422193,2030,1,202230,227667,1.34,-0.23,9.94,-0.03,-0.01,-0.01,31.97
26462193,2038,1,202272,227720,1.35,-0.25,9.91,-0.03,-0.01,-0.00,31.97
26502193,2058,1,202334,227766,1.35,-0.24,9.93,-0.03,-0.01,-0.00,31.97
26542193,2057,1,202342,228068,1.34,-0.24,9.87,-0.03,-0.01,-0.01,31.97
26582880,1943,1,202526,228348,1.36,-0.25,9.92,-0.03,-0.01,-0.00,31.91
26623194,1959,1,202672,228529,1.36,-0.23,9.94,-0.03,-0.01,-0.01,31.91
26663189,1966,1,202755,228814,1.36,-0.23,9.94,-0.03,-0.01,-0.00,31.91
26703191,1968,1,202879,229024,1.34,-0.24,9.90,-0.03,-0.01,-0.00,31.91
26743189,1947,1,202856,228880,1.34,-0.23,9.93,-0.03,-0.01,-0.00,31.91
26783194,1955,1,202543,226439,1.35,-0.24,9.94,-0.03,-0.01,-0.00,31.91
26823189,1947,1,201667,225234,1.33,-0.25,9.91,-0.03,-0.01,-0.00,31.91
26863191,1961,1,201648,225430,1.34,-0.25,9.90,-0.03,-0.01,-0.01,31.91
26903199,1942,1,201772,226040,1.34,-0.23,9.94,-0.03,-0.01,-0.00,31.91
26943190,1952,1,202029,226517,1.35,-0.23,9.90,-0.03,-0.01,-0.00,31.91
26983188,1936,1,202137,226946,1.34,-0.23,9.92,-0.03,-0.01,-0.00,31.91
27023191,1947,1,202312,226922,1.35,-0.23,9.90,-0.03,-0.01,-0.00,31.91
27063188,1952,1,202289,227152,1.35,-0.23,9.91,-0.03,-0.01,-0.00,31.91
27103224,1954,1,202429,227572,1.34,-0.22,9.91,-0.03,-0.01,-0.00,31.91
27143189,1935,1,202677,227819,1.35,-0.26,9.90,-0.03,-0.01,-0.01,31.91
27183191,1942,1,202764,228085,1.35,-0.23,9.91,-0.03,-0.01,-0.00,31.91
27223189,1953,1,202847,228212,1.34,-0.26,9.91,-0.03,-0.01,-0.00,31.91
27263191,1952,1,202948,228171,1.36,-0.24,9.90,-0.03,-0.01,-0.00,31.91
27303209,1932,1,202889,228211,1.36,-0.23,9.92,-0.03,-0.01,-0.00,31.91
27343190,1937,1,202997,228111,1.36,-0.27,9.91,-0.03,-0.01,-0.01,31.91
27383189,1931,1,202672,226256,1.32,-0.23,9.91,-0.03,-0.01,-0.00,31.91
27423191,1943,1,201742,223890,1.35,-0.25,9.91,-0.03,-0.01,-0.00,31.91
27463189,1918,1,201258,223753,1.35,-0.26,9.89,-0.03,-0.01,-0.00,31.91
27503191,1948,1,201427,224286,1.35,-0.24,9.87,-0.03,-0.01,-0.00,31.91
27543189,1943,1,201584,224932,1.33,-0.24,9.90,-0.03,-0.01,-0.01,31.91
27583877,1951,1,201858,225440,1.33,-0.23,9.93,-0.03,-0.01,-0.01,31.89
27622193,2002,1,201916,225704,1.36,-0.25,9.93,-0.03,-0.01,-0.00,31.89
27662193,1983,1,202106,225888,1.35,-0.23,9.92,-0.03,-0.01,-0.01,31.89
27702193,1981,1,202206,226253,1.35,-0.25,9.90,-0.03,-0.01,-0.00,31.89
27742193,1983,1,202414,226763,1.35,-0.25,9.93,-0.03,-0.01,-0.00,31.89
27782193,1965,1,202618,227298,1.35,-0.22,9.91,-0.03,-0.01,-0.00,31.89
27822193,1966,1,202922,227950,1.35,-0.23,9.90,-0.03,-0.01,-0.00,31.89
27862193,1970,1,203140,228319,1.33,-0.23,9.93,-0.03,-0.01,-0.01,31.89
27902193,1971,1,203324,228733,1.36,-0.23,9.94,-0.03,-0.01,-0.00,31.89
27942189,1966,1,203479,229243,1.34,-0.24,9.90,-0.03,-0.01,-0.00,31.89
27982190,1972,1,203748,229689,1.35,-0.25,9.91,-0.03,-0.01,-0.00,31.89
28022204,1977,1,203850,228872,1.34,-0.26,9.91,-0.03,-0.01,-0.00,31.89
28062193,1968,1,203107,226585,1.37,-0.24,9.91,-0.03,-0.01,-0.00,31.89
28102193,1981,1,202658,226209,1.35,-0.25,9.92,-0.03,-0.01,-0.00,31.89
28142210,1975,1,202839,226660,1.35,-0.24,9.92,-0.03,-0.01,-0.00,31.89
28182194,1982,1,203105,227165,1.37,-0.26,9.88,-0.03,-0.01,-0.00,31.89
28222194,1953,1,203334,227818,1.37,-0.23,9.91,-0.03,-0.01,-0.00,31.89
28262194,1958,1,203497,228149,1.37,-0.25,9.90,-0.03,-0.01,-0.00,31.89
28302194,1951,1,203546,228022,1.34,-0.23,9.89,-0.03,-0.01,-0.01,31.89
28342189,1954,1,203593,227927,1.37,-0.23,9.92,-0.03,-0.01,-0.00,31.89
28382194,1968,1,203674,228289,1.36,-0.23,9.92,-0.03,-0.01,-0.01,31.89
28422193,1954,1,203898,228919,1.37,-0.24,9.92,-0.03,-0.01,-0.00,31.89
28462194,1969,1,204061,229459,1.37,-0.24,9.92,-0.03,-0.01,-0.00,31.89
28502193,1970,1,204316,229895,1.33,-0.26,9.92,-0.03,-0.01,-0.00,31.89
28542197,1961,1,204400,230153,1.37,-0.25,9.91,-0.03,-0.01,-0.00,31.89
28582193,1943,1,204513,230439,1.34,-0.24,9.90,-0.03,-0.01,-0.00,31.89
28622880,1904,1,204594,229762,1.36,-0.25,9.90,-0.03,-0.01,-0.00,31.91
28663189,1910,1,203919,226964,1.35,-0.24,9.91,-0.03,-0.01,-0.00,31.91
28703192,1940,1,203098,225664,1.36,-0.25,9.89,-0.03,-0.01,-0.00,31.91
28743189,1919,1,203010,225749,1.38,-0.25,9.93,-0.03,-0.01,-0.00,31.91
28783191,1943,1,203153,226495,1.37,-0.24,9.91,-0.03,-0.01,-0.00,31.91
28823189,1949,1,203483,227433,1.35,-0.25,9.89,-0.03,-0.01,-0.01,31.91
28863195,1935,1,203746,227918,1.35,-0.25,9.93,-0.03,-0.01,-0.01,31.91
28903190,1942,1,203737,227993,1.36,-0.26,9.94,-0.03,-0.01,-0.01,31.91
28943195,1920,1,203665,227857,1.35,-0.25,9.90,-0.03,-0.01,-0.00,31.91
28983189,1935,1,203565,227685,1.38,-0.26,9.90,-0.03,-0.01,-0.00,31.91
29023190,1943,1,203478,227501,1.36,-0.26,9.90,-0.03,-0.01,-0.00,31.91
29063189,1943,1,203369,227366,1.36,-0.24,9.90,-0.03,-0.01,-0.01,31.91
29103191,1952,1,203286,227490,1.36,-0.25,9.90,-0.03,-0.01,-0.00,31.91
29143189,1911,1,203296,228096,1.36,-0.25,9.92,-0.03,-0.01,-0.00,31.91
29183191,1951,1,203519,228768,1.37,-0.25,9.90,-0.03,-0.01,-0.00,31.91
29223189,1918,1,203750,229197,1.37,-0.25,9.93,-0.03,-0.01,-0.00,31.91
29263191,1931,1,203613,227218,1.37,-0.23,9.91,-0.03,-0.01,-0.01,31.91
29303189,1930,1,202554,224865,1.36,-0.25,9.91,-0.03,-0.01,-0.00,31.91
29343191,1915,1,202101,224601,1.37,-0.25,9.92,-0.03,-0.01,-0.01,31.91
29383189,1926,1,202197,224775,1.35,-0.24,9.91,-0.03,-0.01,-0.01,31.91
29423191,1936,1,202172,225172,1.36,-0.26,9.91,-0.03,-0.01,-0.00,31.91
29461193,2030,1,202360,225910,1.37,-0.25,9.92,-0.03,-0.01,-0.00,31.91
29501193,2015,1,202679,226326,1.34,-0.26,9.92,-0.03,-0.01,-0.00,31.91
29541193,2019,1,202731,226524,1.36,-0.26,9.92,-0.03,-0.01,-0.01,31.91
29581193,2037,1,202800,226672,1.33,-0.25,9.92,-0.03,-0.01,-0.00,31.91
29621193,2011,1,202836,226985,1.36,-0.26,9.93,-0.03,-0.01,-0.01,31.91
29661879,1951,1,202978,227400,1.36,-0.24,9.88,-0.03,-0.01,-0.00,31.71
29702189,1958,1,203156,227689,1.34,-0.25,9.91,-0.04,-0.01,-0.00,31.71
29742194,1963,1,203254,227884,1.36,-0.25,9.91,-0.03,-0.01,-0.00,31.71
29782190,1936,1,203404,228201,1.34,-0.23,9.91,-0.03,-0.01,-0.00,31.71
29822194,1913,1,203455,228636,1.36,-0.24,9.93,-0.03,-0.01,-0.00,31.71
29862189,1920,1,203642,228360,1.35,-0.23,9.92,-0.03,-0.01,-0.00,31.71
29902194,1923,1,203011,225835,1.36,-0.25,9.91,-0.03,-0.01,-0.01,31.71
29942189,1920,1,202118,224591,1.35,-0.25,9.94,-0.03,-0.01,-0.00,31.71
29982194,1915,1,202144,225086,1.39,-0.24,9.90,-0.03,-0.01,-0.00,31.71
30022198,1927,1,202473,225815,1.36,-0.24,9.90,-0.03,-0.01,-0.00,31.71
30062191,1925,1,202745,226506,1.38,-0.24,9.95,-0.03,-0.01,-0.01,31.71
30102190,1907,1,202994,227170,1.36,-0.24,9.91,-0.03,-0.01,-0.01,31.71
30142194,1943,1,203055,227592,1.37,-0.23,9.90,-0.03,-0.01,-0.00,31.71
30182189,1926,1,203191,227791,1.34,-0.23,9.90,-0.03,-0.01,-0.00,31.71
30222191,1919,1,203271,228000,1.35,-0.25,9.91,-0.03,-0.01,-0.01,31.71
30262190,1929,1,203298,228130,1.34,-0.25,9.92,-0.03,-0.01,-0.00,31.71
30302194,1907,1,203215,227993,1.35,-0.24,9.91,-0.03,-0.01,-0.01,31.71
30342189,1924,1,203211,227830,1.35,-0.24,9.94,-0.03,-0.01,-0.01,31.71
30382191,1921,1,203203,227939,1.36,-0.23,9.93,-0.03,-0.01,-0.00,31.71
30422189,1920,1,203237,228103,1.34,-0.25,9.93,-0.03,-0.01,-0.00,31.71
30462194,1906,1,203377,228143,1.35,-0.25,9.93,-0.03,-0.01,-0.00,31.71
30502190,1929,1,202996,225942,1.34,-0.25,9.89,-0.03,-0.01,-0.00,31.71
30542194,1936,1,202078,223843,1.34,-0.22,9.90,-0.03,-0.01,-0.00,31.71
30582221,1934,1,201703,223939,1.35,-0.25,9.90,-0.03,-0.01,-0.00,31.71
30622191,1917,1,201964,224604,1.32,-0.24,9.93,-0.03,-0.01,-0.00,31.71
30662876,1905,1,202137,225114,1.35,-0.24,9.90,-0.03,-0.01,-0.00,31.71
30701194,1974,1,202425,225773,1.36,-0.27,9.90,-0.03,-0.01,-0.01,31.71
30741193,1981,1,202534,226151,1.36,-0.25,9.93,-0.03,-0.01,-0.00,31.71
30781193,1989,1,202672,225976,1.35,-0.24,9.90,-0.03,-0.01,-0.00,31.71
30821194,1963,1,202639,225819,1.36,-0.24,9.94,-0.04,-0.01,-0.00,31.71
30861194,1967,1,202555,225689,1.34,-0.26,9.90,-0.03,-0.02,-0.00,31.71
30901193,1979,1,202521,225747,1.36,-0.24,9.89,-0.03,-0.01,-0.00,31.71
30941193,1984,1,202507,225689,1.37,-0.25,9.90,-0.03,-0.02,-0.00,31.71
30981193,1961,1,202255,225319,1.37,-0.25,9.92,-0.03,-0.01,-0.00,31.71
31021194,1965,1,201830,225313,1.39,-0.24,9.90,-0.03,-0.02,-0.00,31.71
31061191,1959,1,201989,225712,1.36,-0.25,9.95,-0.03,-0.01,-0.00,31.71
31101207,1969,1,202102,224831,1.37,-0.24,9.95,-0.03,-0.01,-0.00,31.71
31141193,1972,1,201584,222963,1.39,-0.26,9.98,-0.03,-0.01,-0.00,31.71
31181193,1953,1,201343,223057,1.36,-0.24,9.90,-0.03,-0.01,-0.00,31.71
31221193,1954,1,201594,223911,1.36,-0.27,9.95,-0.03,-0.01,-0.00,31.71
31261193,1963,1,202025,224930,1.37,-0.24,9.92,-0.03,-0.01,-0.00,31.71
31301210,1962,1,202469,226058,1.35,-0.25,9.93,-0.03,-0.01,-0.00,31.71
31341193,1968,1,202737,226564,1.35,-0.24,9.92,-0.03,-0.01,-0.00,31.71
31381194,1947,1,202760,226797,1.36,-0.25,9.92,-0.03,-0.01,-0.01,31.71
31421193,1953,1,202838,226992,1.35,-0.25,9.95,-0.03,-0.01,-0.00,31.71
31461189,1939,1,202929,227541,1.37,-0.25,9.93,-0.03,-0.01,-0.00,31.71
31501194,1939,1,202998,227659,1.37,-0.25,9.91,-0.03,-0.01,-0.01,31.71
31541194,1951,1,202884,227573,1.39,-0.23,9.91,-0.03,-0.01,-0.00,31.71
31581194,1973,1,203110,228369,1.36,-0.25,9.90,-0.03,-0.01,-0.00,31.71
31621191,1970,1,203775,229588,1.39,-0.24,9.91,-0.03,-0.01,-0.00,31.71
31661194,1959,1,204224,231024,1.38,-0.24,9.90,-0.03,-0.01,-0.00,31.71
31701880,1923,1,204766,231839,1.37,-0.26,9.91,-0.03,-0.01,-0.00,31.77
31742195,1926,1,204757,230239,1.36,-0.24,9.92,-0.03,-0.01,-0.00,31.77
31782190,1925,1,204195,229259,1.35,-0.23,9.89,-0.03,-0.01,-0.01,31.77
31822194,1918,1,204300,230393,1.32,-0.25,9.91,-0.03,-0.01,-0.00,31.77
31862190,1936,1,204735,231639,1.36,-0.25,9.93,-0.03,-0.01,-0.00,31.77
31902195,1916,1,205219,233446,1.37,-0.24,9.92,-0.03,-0.01,-0.00,31.77
31942189,1908,1,206260,237459,1.35,-0.23,9.94,-0.03,-0.02,-0.00,31.77
31982194,1920,1,207716,240717,1.39,-0.26,9.90,-0.04,-0.04,-0.00,31.77
32022207,1904,1,208574,242778,1.40,-0.24,9.91,-0.04,-0.02,-0.00,31.77
32062191,1920,1,209034,243562,1.38,-0.23,9.92,-0.04,-0.02,-0.00,31.77
32102190,1972,1,209180,244005,1.39,-0.24,9.93,-0.04,-0.01,-0.00,31.77
32142191,1935,1,209314,244537,1.37,-0.27,9.91,-0.03,-0.01,-0.00,31.77
32182189,1895,1,209545,245102,1.37,-0.25,9.93,-0.03,-0.01,-0.01,31.77
32222214,1922,1,209836,245578,1.38,-0.26,9.93,-0.03,-0.02,-0.01,31.77
32262189,1919,1,209981,245630,1.38,-0.26,9.90,-0.04,-0.02,-0.00,31.77
32300193,1987,1,210069,245830,1.41,-0.25,9.93,-0.03,-0.01,-0.00,31.77
32340193,2011,1,209887,244244,1.40,-0.25,9.91,-0.03,-0.01,-0.00,31.77
32380193,2013,1,208708,241441,1.38,-0.25,9.92,-0.03,-0.01,-0.00,31.77
32420193,2001,1,208291,241293,1.37,-0.26,9.91,-0.03,-0.01,-0.00,31.77
32461194,1922,1,208366,241844,1.38,-0.26,9.92,-0.03,-0.01,-0.00,31.77
32501190,1953,1,208472,242412,1.37,-0.25,9.89,-0.03,-0.01,-0.00,31.77
32541194,1946,1,208598,242988,1.36,-0.25,9.93,-0.03,-0.01,-0.00,31.77
32581190,1963,1,208704,243015,1.38,-0.21,9.90,-0.03,-0.01,-0.00,31.77
32621191,1958,1,208691,242799,1.39,-0.27,9.91,-0.03,-0.01,-0.00,31.77
32661190,1955,1,208670,242898,1.39,-0.26,9.92,-0.03,-0.01,-0.01,31.77
32701194,1968,1,208671,243207,1.38,-0.25,9.91,-0.03,-0.01,-0.01,31.77
32741876,1917,1,208759,243531,1.38,-0.25,9.92,-0.03,-0.01,-0.01,31.85
32780193,2014,1,208774,243545,1.39,-0.27,9.92,-0.03,-0.00,-0.01,31.85
32820194,1983,1,208691,243413,1.38,-0.25,9.90,-0.03,0.00,-0.00,31.85
32860173,1999,1,208632,243394,1.37,-0.24,9.91,-0.03,-0.01,-0.01,31.85
32900193,2001,1,208522,243237,1.37,-0.25,9.92,-0.03,-0.01,-0.00,31.85
32940193,1999,1,208201,240491,1.36,-0.23,9.90,-0.03,-0.01,-0.00,31.85
32980190,1978,1,206967,238018,1.37,-0.25,9.93,-0.03,-0.01,-0.00,31.85
33020193,1972,1,206603,237337,1.37,-0.24,9.92,-0.03,-0.01,-0.00,31.85
33060193,1968,1,206568,237373,1.36,-0.24,9.92,-0.03,-0.01,-0.00,31.85
33100193,1971,1,206737,237770,1.37,-0.24,9.91,-0.03,-0.01,-0.00,31.85
33140193,1975,1,206937,238298,1.38,-0.25,9.90,-0.03,-0.01,-0.00,31.85
33180194,1985,1,207050,238258,1.37,-0.23,9.90,-0.03,-0.02,-0.00,31.85
33220191,1984,1,207061,238079,1.36,-0.25,9.90,-0.03,-0.01,-0.01,31.85
33260193,1968,1,207011,238202,1.39,-0.26,9.89,-0.03,-0.01,-0.00,31.85
33300194,1986,1,207110,238605,1.37,-0.27,9.89,-0.03,-0.01,-0.00,31.85
33340193,1963,1,207300,239104,1.37,-0.25,9.92,-0.03,-0.01,-0.01,31.85
33380193,1970,1,207463,239611,1.39,-0.24,9.93,-0.03,-0.01,-0.01,31.85
33420193,1959,1,207709,240125,1.39,-0.23,9.90,-0.03,-0.01,-0.01,31.85
33461189,1949,1,207853,240349,1.39,-0.26,9.90,-0.03,-0.01,-0.01,31.85
33501190,1931,1,207985,240219,1.35,-0.24,9.91,-0.04,-0.01,-0.00,31.85
33541189,1925,1,207733,237855,1.38,-0.25,9.89,-0.03,-0.01,-0.00,31.85
33581194,1942,1,206756,235405,1.37,-0.26,9.94,-0.03,-0.01,-0.01,31.85
33621190,1927,1,206232,234324,1.36,-0.25,9.92,-0.03,-0.01,-0.00,31.85
33661214,1925,1,206099,234498,1.37,-0.26,9.94,-0.03,-0.01,-0.00,31.85
33701190,1934,1,206233,235107,1.38,-0.22,9.91,-0.04,-0.01,-0.00,31.85
33741191,1938,1,206541,235982,1.39,-0.25,9.93,-0.03,-0.01,-0.00,31.85
33781876,1935,1,206811,236521,1.38,-0.25,9.89,-0.04,-0.01,-0.00,31.89
33820193,1965,1,206947,236790,1.39,-0.27,9.90,-0.04,-0.01,-0.00,31.89
33860191,1968,1,206995,236984,1.38,-0.25,9.90,-0.03,-0.01,-0.01,31.89
33900194,1975,1,206998,237151,1.37,-0.27,9.91,-0.03,-0.00,-0.00,31.89
33940189,1968,1,207067,237493,1.37,-0.25,9.89,-0.03,-0.01,-0.00,31.89
33980193,1968,1,207172,237763,1.38,-0.25,9.90,-0.03,-0.01,-0.00,31.89
34020191,1959,1,207243,237903,1.37,-0.28,9.95,-0.03,-0.01,-0.00,31.89
34060193,1968,1,207291,237722,1.37,-0.25,9.94,-0.03,-0.01,-0.00,31.89
34100189,1943,1,207242,237495,1.36,-0.23,9.90,-0.03,-0.02,-0.00,31.89
34140191,1945,1,206982,235371,1.39,-0.26,9.90,-0.03,-0.02,-0.00,31.89
34180188,1942,1,205986,232696,1.36,-0.25,9.90,-0.03,-0.01,-0.01,31.89
34220194,1935,1,205477,231635,1.37,-0.24,9.92,-0.03,-0.01,-0.00,31.89
34260194,1953,1,205458,232111,1.39,-0.25,9.92,-0.03,-0.01,-0.01,31.89
34300194,1933,1,205742,233153,1.37,-0.26,9.91,-0.03,-0.01,-0.00,31.89
34340194,1958,1,206159,234193,1.39,-0.25,9.91,-0.03,-0.01,-0.01,31.89
34380193,1947,1,206368,234716,1.37,-0.24,9.90,-0.03,-0.01,-0.00,31.89
34420193,1934,1,206422,234844,1.37,-0.27,9.91,-0.03,-0.01,-0.00,31.89
34460194,1939,1,206410,235019,1.39,-0.23,9.93,-0.03,-0.01,-0.01,31.89
34501189,1923,1,206524,235591,1.37,-0.25,9.91,-0.03,-0.01,-0.00,31.89
34541191,1924,1,206729,236106,1.37,-0.24,9.93,-0.03,-0.01,-0.00,31.89
34581189,1920,1,206822,236731,1.37,-0.25,9.91,-0.03,-0.01,-0.00,31.89
34621191,1915,1,206989,237196,1.37,-0.27,9.92,-0.04,-0.02,-0.01,31.89
34661189,1927,1,207105,237599,1.38,-0.26,9.92,-0.03,-0.01,-0.00,31.89
34701191,1907,1,207229,237869,1.37,-0.27,9.87,-0.03,-0.01,-0.00,31.89
34741189,1935,1,206990,235877,1.37,-0.27,9.92,-0.03,-0.01,-0.00,31.89
34781190,1915,1,206143,233956,1.39,-0.26,9.91,-0.03,-0.01,-0.00,31.89
34821875,1921,1,205847,233284,1.38,-0.24,9.90,-0.03,-0.01,-0.01,31.61
34860194,1952,1,205832,233329,1.39,-0.24,9.91,-0.03,-0.01,-0.00,31.61
34900194,1922,1,205898,233601,1.39,-0.27,9.90,-0.03,-0.01,-0.00,31.61
34940194,1929,1,205999,234088,1.40,-0.25,9.90,-0.03,-0.01,-0.01,31.61
34980194,1945,1,206110,234304,1.39,-0.26,9.91,-0.03,-0.01,-0.00,31.61
35020194,1942,1,206174,234368,1.40,-0.25,9.88,-0.03,-0.01,-0.00,31.61
35060194,1916,1,206240,234299,1.38,-0.25,9.93,-0.03,-0.01,-0.01,31.61
35100193,1950,1,206259,234370,1.36,-0.25,9.92,-0.03,-0.01,-0.00,31.61
35140194,1929,1,206298,234717,1.36,-0.27,9.91,-0.03,-0.01,-0.01,31.61
35180194,1920,1,206421,235160,1.40,-0.23,9.92,-0.03,-0.00,-0.01,31.61
35220189,1958,1,206615,235755,1.38,-0.25,9.93,-0.03,-0.01,-0.00,31.61
35260194,1902,1,206881,236739,1.36,-0.25,9.88,-0.03,-0.01,-0.01,31.61
35300197,1949,1,207198,237614,1.39,-0.25,9.90,-0.03,-0.01,-0.00,31.61
35340194,1984,1,206969,236222,1.40,-0.26,9.89,-0.04,-0.01,-0.01,31.61
35380189,1981,1,206344,235549,1.38,-0.26,9.93,-0.04,0.00,-0.01,31.61
35420174,1953,1,206229,235730,1.36,-0.27,9.91,-0.03,-0.01,-0.00,31.61
35460188,1930,1,206343,235871,1.38,-0.25,9.91,-0.03,-0.01,-0.00,31.61
35501191,1943,1,206398,235632,1.37,-0.26,9.88,-0.03,-0.01,-0.00,31.61
35539193,2032,1,206502,235225,1.36,-0.23,9.92,-0.03,-0.02,-0.00,31.61
35579193,2014,1,206459,234771,1.38,-0.26,9.90,-0.03,-0.02,-0.01,31.61
35619193,2000,1,206451,234709,1.37,-0.23,9.90,-0.03,-0.01,-0.01,31.61
35659193,2037,1,206399,234875,1.38,-0.25,9.88,-0.03,-0.00,-0.01,31.61
35699213,2027,1,206412,235705,1.38,-0.24,9.91,-0.03,0.00,-0.01,31.61
35739172,2018,1,206403,236618,1.36,-0.25,9.89,-0.03,0.00,-0.01,31.61
35779173,2032,1,206222,237678,1.36,-0.23,9.91,-0.03,0.01,-0.01,31.61
35819173,2002,1,206149,238846,1.37,-0.26,9.91,-0.03,-0.00,-0.01,31.61
35859880,1968,1,205957,239605,1.35,-0.26,9.92,-0.03,-0.00,-0.01,32.21
35900190,1967,1,205719,239885,1.35,-0.24,9.94,-0.03,-0.01,-0.01,32.21
35940189,1969,1,204804,236233,1.33,-0.23,9.91,-0.03,-0.01,-0.01,32.21
35980191,1949,1,203493,233971,1.34,-0.24,9.91,-0.03,-0.02,-0.00,32.21
36020189,1948,1,202848,232595,1.35,-0.24,9.94,-0.03,-0.01,-0.00,32.21
36060191,1950,1,202616,232397,1.37,-0.24,9.91,-0.03,-0.01,-0.00,32.21
36100189,1939,1,202509,232942,1.35,-0.24,9.91,-0.03,-0.00,-0.01,32.21
36140191,1939,1,202536,233292,1.36,-0.26,9.91,-0.04,-0.01,-0.01,32.21
36180189,1943,1,202416,233069,1.35,-0.23,9.95,-0.03,-0.01,-0.00,32.21
36220194,1939,1,202287,233116,1.36,-0.24,9.90,-0.03,-0.01,-0.00,32.21
36260188,1926,1,202229,233427,1.35,-0.26,9.93,-0.03,-0.01,-0.01,32.21
36300191,1943,1,202246,233845,1.40,-0.25,9.88,-0.03,-0.01,-0.01,32.21
36340189,1967,1,202198,234108,1.36,-0.22,9.91,-0.03,-0.01,-0.00,32.21
36380191,1961,1,202227,234682,1.35,-0.24,9.94,-0.03,-0.01,-0.01,32.21
36420190,1955,1,202358,235253,1.37,-0.25,9.93,-0.03,-0.02,-0.00,32.21
36460191,1968,1,202457,236113,1.37,-0.25,9.91,-0.04,-0.01,-0.01,32.21
36500190,1954,1,202614,236481,1.37,-0.27,9.91,-0.03,-0.02,-0.00,32.21
36539193,2001,1,202192,234506,1.36,-0.24,9.92,-0.03,-0.01,-0.01,32.21
36579193,1982,1,201622,234129,1.35,-0.24,9.93,-0.03,-0.01,-0.00,32.21
36619193,1999,1,201800,235500,1.36,-0.24,9.93,-0.03,-0.01,-0.01,32.21
36659190,1995,1,202289,236685,1.36,-0.24,9.90,-0.04,-0.02,-0.01,32.21
36699193,2026,1,202594,237935,1.36,-0.23,9.90,-0.03,-0.01,-0.01,32.21
36739193,1996,1,202919,238771,1.36,-0.26,9.93,-0.03,-0.00,-0.01,32.21
36779194,2012,1,203064,239287,1.34,-0.23,9.91,-0.03,-0.01,-0.01,32.21
36819193,1993,1,203172,239611,1.36,-0.24,9.92,-0.04,-0.01,-0.01,32.21
36859880,1958,1,203283,240243,1.37,-0.23,9.88,-0.03,-0.01,-0.01,32.25
36900189,1952,1,203556,241320,1.36,-0.25,9.91,-0.03,-0.01,-0.01,32.25
36940191,1959,1,203773,241969,1.37,-0.25,9.93,-0.03,-0.01,-0.00,32.25
36980189,1969,1,203913,242329,1.37,-0.23,9.92,-0.03,-0.01,-0.01,32.25
37020191,1967,1,204056,242726,1.35,-0.24,9.91,-0.03,-0.01,-0.00,32.25
37060189,1954,1,204172,243028,1.36,-0.26,9.92,-0.03,-0.01,-0.00,32.25
37100191,1974,1,204253,243221,1.36,-0.25,9.91,-0.03,-0.01,-0.00,32.25
37140194,1965,1,204275,242048,1.37,-0.25,9.93,-0.03,-0.01,-0.01,32.25
37180191,1938,1,203168,238387,1.36,-0.23,9.92,-0.03,-0.01,-0.01,32.25
37220189,1966,1,202503,238050,1.37,-0.26,9.92,-0.03,-0.01,-0.01,32.25
37260191,1938,1,202759,238956,1.38,-0.26,9.90,-0.03,-0.02,-0.00,32.25
37300189,1957,1,203036,239448,1.37,-0.25,9.91,-0.03,-0.01,-0.00,32.25
37340218,1954,1,203263,240034,1.37,-0.24,9.90,-0.03,-0.01,-0.00,32.25
37380189,1936,1,203441,240331,1.36,-0.25,9.95,-0.03,-0.01,-0.00,32.25
37420191,1932,1,203395,240037,1.38,-0.26,9.93,-0.03,-0.01,-0.00,32.25
37460189,1919,1,203289,239556,1.36,-0.26,9.91,-0.03,-0.01,-0.00,32.25
37500191,1941,1,202990,238990,1.37,-0.25,9.94,-0.03,-0.01,-0.00,32.25
37540190,1923,1,202818,239091,1.38,-0.25,9.92,-0.03,-0.01,-0.00,32.25
37579194,1904,1,202866,239342,1.38,-0.26,9.92,-0.03,-0.01,-0.00,32.25
37619194,1967,1,202929,239765,1.38,-0.25,9.92,-0.03,-0.01,-0.00,32.25
37659193,1933,1,203027,240685,1.36,-0.23,9.89,-0.03,-0.00,-0.00,32.25
37699189,1930,1,203420,241995,1.34,-0.25,9.90,-0.04,0.01,-0.00,32.25
37739173,1927,1,203874,241929,1.33,-0.23,9.96,-0.04,-0.01,-0.01,32.25
37779189,1879,1,203273,238497,1.34,-0.26,9.94,-0.04,-0.02,-0.01,32.25
37819194,1878,1,202337,236545,1.37,-0.25,9.91,-0.03,-0.02,-0.00,32.25
37859885,1846,1,201934,236030,1.37,-0.25,9.91,-0.03,-0.01,-0.00,32.47
37900191,1861,1,201647,235829,1.34,-0.24,9.94,-0.03,-0.00,-0.00,32.47
37940188,1859,1,201544,235712,1.33,-0.23,9.92,-0.03,-0.01,-0.00,32.47
37980190,1835,1,201596,235753,1.35,-0.27,9.92,-0.03,-0.02,-0.00,32.47
38020189,1837,1,201813,236119,1.37,-0.25,9.88,-0.03,-0.02,-0.00,32.47
38060191,1825,1,202017,236264,1.35,-0.23,9.92,-0.03,-0.02,-0.00,32.47
38100189,1821,1,202393,236647,1.36,-0.23,9.90,-0.03,-0.01,-0.00,32.47
38140190,1877,1,202836,237249,1.37,-0.25,9.90,-0.04,-0.02,-0.00,32.47
38180189,1923,1,203203,238062,1.38,-0.27,9.92,-0.04,-0.01,-0.00,32.47
38220190,1938,1,203726,239644,1.36,-0.24,9.90,-0.03,-0.01,-0.01,32.47
38260189,1947,1,204434,240645,1.36,-0.23,9.94,-0.03,-0.02,-0.01,32.47
38300191,1964,1,205121,241637,1.38,-0.24,9.89,-0.04,-0.02,-0.01,32.47
38340189,1963,1,205630,242366,1.37,-0.25,9.92,-0.04,-0.01,-0.00,32.47
38380191,1968,1,205820,240546,1.37,-0.26,9.96,-0.03,-0.01,-0.00,32.47
38420189,1958,1,204482,237031,1.36,-0.25,9.93,-0.03,-0.01,-0.01,32.47
38458194,2054,1,203988,236575,1.39,-0.23,9.87,-0.03,-0.01,-0.00,32.47
38498193,2054,1,203945,237036,1.37,-0.24,9.93,-0.03,-0.00,-0.00,32.47
38538193,2086,1,204001,238015,1.35,-0.24,9.93,-0.03,-0.00,-0.01,32.47
38579188,2001,1,204252,239510,1.36,-0.24,9.93,-0.03,-0.01,-0.00,32.47
38619191,1996,1,204618,240293,1.40,-0.24,9.92,-0.03,-0.01,-0.00,32.47
38659188,1988,1,204785,240001,1.36,-0.24,9.89,-0.03,-0.01,-0.00,32.47
38699191,2003,1,204683,239530,1.36,-0.25,9.95,-0.03,-0.01,-0.00,32.47
38739189,1989,1,204727,239312,1.37,-0.26,9.92,-0.03,-0.01,-0.00,32.47
38779225,2000,1,204723,239357,1.36,-0.25,9.91,-0.03,-0.01,-0.00,32.47
38819188,1985,1,204723,239527,1.40,-0.24,9.91,-0.03,-0.01,-0.00,32.47
38859190,1981,1,204666,239727,1.38,-0.25,9.92,-0.03,-0.01,-0.00,32.47
38899874,1949,1,204667,240121,1.36,-0.24,9.90,-0.03,-0.01,-0.00,32.11
38938193,2047,1,204547,240510,1.35,-0.27,9.90,-0.03,-0.01,-0.00,32.11
38978193,2033,1,204459,240404,1.36,-0.23,9.91,-0.03,-0.00,-0.00,32.11
39018193,2003,1,203905,237270,1.37,-0.25,9.90,-0.03,-0.01,-0.01,32.11
39058193,1996,1,202533,234593,1.36,-0.23,9.90,-0.03,-0.01,-0.00,32.11
39098193,2019,1,201989,233878,1.36,-0.25,9.91,-0.03,-0.01,-0.00,32.11
39138189,2010,1,201820,233787,1.36,-0.26,9.94,-0.03,-0.01,-0.00,32.11
39178193,2011,1,201841,233759,1.36,-0.24,9.93,-0.03,-0.01,-0.00,32.11
39218194,2011,1,201938,234031,1.36,-0.22,9.92,-0.03,-0.01,-0.00,32.11
39258193,2000,1,202122,234201,1.37,-0.25,9.90,-0.03,-0.01,-0.00,32.11
39298193,2017,1,202127,234356,1.37,-0.25,9.90,-0.03,-0.01,-0.00,32.11
39338193,1968,1,202175,234363,1.35,-0.26,9.94,-0.03,-0.01,-0.00,32.11
39378193,2027,1,202178,234485,1.35,-0.24,9.92,-0.03,-0.01,-0.00,32.11
39418193,1995,1,202355,234773,1.34,-0.25,9.91,-0.03,-0.02,-0.00,32.11
39458193,1996,1,202482,235042,1.37,-0.24,9.90,-0.03,-0.01,-0.00,32.11
39498193,1968,1,202608,235398,1.37,-0.27,9.89,-0.03,-0.01,-0.00,32.11
39538194,1967,1,202839,235786,1.35,-0.24,9.93,-0.03,-0.01,-0.01,32.11
39578194,1974,1,202984,235870,1.37,-0.24,9.92,-0.03,-0.01,-0.01,32.11
39618193,1972,1,202503,233647,1.38,-0.26,9.89,-0.03,-0.01,-0.00,32.11
39658193,1957,1,201716,232482,1.37,-0.26,9.94,-0.03,-0.01,-0.00,32.11
39698193,1950,1,201466,232503,1.34,-0.25,9.89,-0.03,-0.00,-0.00,32.11
39738193,1936,1,201399,233017,1.36,-0.23,9.90,-0.04,-0.01,-0.01,32.11
39778193,1946,1,201498,233626,1.36,-0.25,9.91,-0.04,-0.01,-0.00,32.11
39818193,1965,1,201793,234620,1.34,-0.26,9.93,-0.03,-0.01,-0.01,32.11
39858193,1956,1,202158,235177,1.38,-0.23,9.90,-0.03,-0.01,-0.00,32.11
39898193,1971,1,202288,235438,1.37,-0.25,9.95,-0.03,-0.01,-0.00,32.11
39938880,1904,1,202316,235588,1.36,-0.26,9.92,-0.03,-0.01,-0.00,32.09
39979191,1905,1,202422,235811,1.34,-0.25,9.90,-0.03,-0.01,-0.00,32.09
40019189,1915,1,202527,235758,1.36,-0.23,9.90,-0.03,-0.01,-0.00,32.09
40059190,1921,1,202644,235778,1.34,-0.26,9.90,-0.03,-0.02,-0.01,32.09
40099189,1904,1,202748,235832,1.37,-0.24,9.90,-0.03,-0.02,-0.00,32.09
40139190,1903,1,202862,236154,1.38,-0.24,9.92,-0.03,-0.01,-0.01,32.09
40179189,1897,1,203042,236209,1.34,-0.24,9.91,-0.03,-0.01,-0.00,32.09
40219190,1895,1,202573,233543,1.38,-0.23,9.91,-0.03,-0.01,-0.01,32.09
40259189,1904,1,201878,232125,1.37,-0.24,9.93,-0.03,-0.01,-0.01,32.09
40299190,1901,1,201779,231680,1.36,-0.25,9.89,-0.03,-0.02,-0.01,32.09
40339189,1901,1,201802,231723,1.36,-0.25,9.90,-0.03,-0.00,-0.01,32.09
40379190,1891,1,201837,231927,1.35,-0.23,9.93,-0.03,-0.01,-0.01,32.09
40419199,1875,1,202110,232432,1.36,-0.24,9.93,-0.03,-0.01,-0.01,32.09
40459191,1869,1,202400,232663,1.36,-0.25,9.88,-0.03,-0.01,-0.01,32.09
40499189,1851,1,202727,232808,1.37,-0.24,9.91,-0.03,-0.01,-0.00,32.09
40539190,1859,1,202884,232850,1.37,-0.24,9.89,-0.03,-0.01,-0.01,32.09
40579189,1875,1,202924,233211,1.36,-0.25,9.90,-0.03,-0.01,-0.00,32.09
40619200,1882,1,203034,233834,1.36,-0.25,9.93,-0.03,-0.01,-0.00,32.09
40659189,1893,1,203161,234533,1.38,-0.25,9.91,-0.03,-0.01,-0.01,32.09
40699194,1883,1,203317,235040,1.31,-0.21,9.91,-0.03,0.00,-0.00,32.09
40739172,1872,1,203414,235408,1.35,-0.25,9.88,-0.03,-0.01,-0.00,32.09
40779191,1875,1,203447,233983,1.35,-0.23,9.90,-0.03,-0.01,-0.00,32.09
40819208,1877,1,202649,231408,1.36,-0.23,9.91,-0.03,-0.01,-0.00,32.09
40859190,1839,1,202040,230266,1.35,-0.24,9.95,-0.03,-0.01,-0.00,32.09
40899188,1888,1,201859,230239,1.35,-0.24,9.90,-0.03,-0.01,-0.00,32.09
40939876,1877,1,201788,230546,1.35,-0.21,9.93,-0.03,-0.01,-0.00,32.09
40978194,1910,1,202062,231206,1.35,-0.27,9.93,-0.03,-0.02,-0.00,32.09
41018193,1911,1,202458,231798,1.35,-0.24,9.92,-0.04,-0.02,-0.00,32.09
41058193,1934,1,202689,232169,1.37,-0.23,9.91,-0.03,-0.01,-0.00,32.09
41098194,1951,1,202788,232546,1.37,-0.24,9.89,-0.03,-0.01,-0.01,32.09
41138193,1935,1,202914,232921,1.36,-0.23,9.90,-0.03,-0.01,-0.00,32.09
41178193,1926,1,203016,233350,1.36,-0.24,9.92,-0.03,-0.01,-0.00,32.09
41218194,1917,1,203068,233692,1.34,-0.25,9.93,-0.03,-0.01,-0.01,32.09
41258194,1919,1,203264,234038,1.37,-0.26,9.91,-0.03,-0.01,-0.00,32.09
41298194,1905,1,203428,234173,1.38,-0.26,9.90,-0.03,-0.02,-0.01,32.09
41338194,1909,1,203530,234186,1.39,-0.25,9.91,-0.03,-0.01,-0.00,32.09
41378193,1913,1,203244,231966,1.37,-0.22,9.93,-0.03,-0.01,-0.00,32.09
41418194,1917,1,202465,230178,1.36,-0.23,9.91,-0.03,-0.01,-0.01,32.09
41458194,1920,1,202168,229840,1.36,-0.22,9.91,-0.03,-0.01,-0.01,32.09
41498194,1920,1,202186,230006,1.36,-0.25,9.91,-0.03,-0.01,-0.00,32.09
41538189,1936,1,202224,230217,1.36,-0.25,9.91,-0.03,-0.01,-0.01,32.09
41578194,1920,1,202321,230742,1.38,-0.25,9.92,-0.03,-0.01,-0.00,32.09
41618189,1925,1,202469,231060,1.37,-0.24,9.92,-0.03,-0.01,-0.01,32.09
41658193,1945,1,202503,231150,1.36,-0.25,9.89,-0.03,-0.01,-0.00,32.09
41698188,1950,1,202473,231371,1.36,-0.25,9.90,-0.03,-0.01,-0.01,32.09
41738190,1955,1,202491,231793,1.36,-0.24,9.90,-0.03,-0.01,-0.01,32.09
41778188,1943,1,202619,232318,1.36,-0.24,9.92,-0.03,-0.01,-0.01,32.09
41818194,1948,1,202696,233079,1.37,-0.23,9.92,-0.03,-0.01,-0.00,32.09
41858188,1971,1,202855,233792,1.36,-0.24,9.93,-0.03,-0.01,-0.01,32.09
41898190,1983,1,202973,234256,1.36,-0.25,9.90,-0.03,-0.01,-0.00,32.09
41938188,1993,1,202793,232242,1.36,-0.23,9.93,-0.03,-0.01,-0.01,32.09
41978880,1934,1,201651,229692,1.35,-0.23,9.92,-0.03,-0.01,-0.01,32.11
42017193,2035,1,201160,229129,1.35,-0.23,9.91,-0.03,-0.01,-0.00,32.11
42057199,2021,1,201045,228938,1.37,-0.24,9.93,-0.03,-0.01,-0.01,32.11
42097193,2030,1,201036,228864,1.37,-0.23,9.89,-0.03,-0.01,-0.00,32.11
42137193,2020,1,201010,229094,1.38,-0.23,9.93,-0.03,-0.01,-0.00,32.11
42177193,2033,1,201112,229712,1.38,-0.26,9.90,-0.03,-0.01,-0.00,32.11
42217193,2030,1,201139,229853,1.36,-0.25,9.92,-0.03,-0.01,-0.00,32.11
42257206,2038,1,201147,230107,1.34,-0.26,9.93,-0.03,-0.01,-0.00,32.11
42297193,2018,1,201256,230380,1.35,-0.25,9.93,-0.03,-0.01,-0.00,32.11
42337193,2014,1,201296,230618,1.34,-0.23,9.91,-0.03,-0.01,-0.00,32.11
42377193,2011,1,201381,230985,1.35,-0.23,9.92,-0.03,-0.01,-0.00,32.11
42417193,2019,1,201553,231319,1.35,-0.24,9.92,-0.03,-0.01,-0.00,32.11
42457193,2005,1,201735,231731,1.34,-0.23,9.89,-0.03,-0.01,-0.00,32.11
42497193,2021,1,201868,231516,1.36,-0.24,9.89,-0.03,-0.01,-0.01,32.11
42537193,1998,1,201357,229174,1.37,-0.24,9.90,-0.03,-0.01,-0.00,32.11
42577193,2002,1,200823,227660,1.35,-0.24,9.94,-0.03,-0.01,-0.00,32.11
42617193,2007,1,200615,227269,1.37,-0.24,9.95,-0.03,-0.01,-0.00,32.11
42657193,1974,1,200655,227181,1.37,-0.25,9.90,-0.03,-0.01,-0.00,32.11
42697193,1991,1,200855,227793,1.37,-0.24,9.94,-0.03,-0.01,-0.00,32.11
42737189,1984,1,201204,228681,1.37,-0.23,9.88,-0.03,-0.01,-0.00,32.11
42777193,2009,1,201523,229323,1.35,-0.23,9.91,-0.03,-0.01,-0.00,32.11
42817189,1998,1,201748,229750,1.35,-0.25,9.93,-0.03,-0.01,-0.00,32.11
42857194,1999,1,201988,230107,1.36,-0.28,9.92,-0.03,-0.01,-0.00,32.11
42897193,1998,1,202143,230576,1.37,-0.23,9.90,-0.03,-0.01,-0.00,32.11
42937193,2005,1,202342,230960,1.38,-0.26,9.91,-0.03,-0.01,-0.00,32.11
42977193,1999,1,202482,231316,1.37,-0.23,9.92,-0.03,-0.01,-0.00,32.11
43017880,1934,1,202578,231628,1.38,-0.24,9.91,-0.03,-0.01,-0.00,32.13
43058189,1931,1,202543,231032,1.36,-0.25,9.89,-0.03,-0.01,-0.00,32.13
43098190,1933,1,201856,228276,1.36,-0.24,9.90,-0.03,-0.01,-0.00,32.13
43138188,1948,1,201031,226688,1.38,-0.27,9.95,-0.03,-0.01,-0.00,32.13
43178191,1942,1,200823,226596,1.36,-0.26,9.94,-0.03,-0.01,-0.00,32.13
43218188,1935,1,200909,226794,1.36,-0.23,9.93,-0.03,-0.02,-0.01,32.13
43258191,1915,1,201264,227989,1.37,-0.24,9.92,-0.03,-0.02,-0.00,32.13
43298189,1936,1,201835,229307,1.36,-0.25,9.89,-0.03,-0.01,-0.01,32.13
43338190,1925,1,202239,230381,1.36,-0.25,9.92,-0.03,-0.01,-0.00,32.13
43378188,1921,1,202499,231107,1.38,-0.25,9.91,-0.03,-0.00,-0.01,32.13
43418190,1919,1,202563,231597,1.37,-0.23,9.93,-0.03,-0.00,-0.00,32.13
43458189,1919,1,202604,232470,1.36,-0.25,9.93,-0.03,-0.01,-0.00,32.13
43498191,1942,1,202796,233388,1.36,-0.24,9.94,-0.03,-0.01,-0.00,32.13
43538188,1927,1,203016,234160,1.36,-0.24,9.93,-0.03,-0.01,-0.00,32.13
43578190,1927,1,203242,234834,1.36,-0.24,9.94,-0.03,-0.01,-0.01,32.13
43618188,1936,1,203165,233165,1.38,-0.24,9.91,-0.03,-0.01,-0.00,32.13
43658190,1926,1,202077,230509,1.36,-0.22,9.90,-0.03,-0.01,-0.00,32.13
43698188,1922,1,201546,229564,1.34,-0.24,9.89,-0.03,-0.01,-0.00,32.13
43738190,1927,1,201524,229362,1.35,-0.26,9.92,-0.03,-0.01,-0.01,32.13
43778188,1930,1,201598,229604,1.36,-0.23,9.89,-0.03,-0.02,-0.00,32.13
43818190,1936,1,201781,230298,1.38,-0.24,9.90,-0.03,-0.01,-0.00,32.13
43858189,1950,1,202023,230781,1.39,-0.26,9.92,-0.03,-0.01,-0.00,32.13
43898190,1915,1,202135,230945,1.37,-0.23,9.90,-0.03,-0.01,-0.00,32.13
43938189,1909,1,202199,230940,1.38,-0.25,9.90,-0.03,-0.01,-0.00,32.13
43978190,1925,1,202202,231190,1.37,-0.24,9.92,-0.03,-0.01,-0.00,32.13
44018875,1926,1,202320,231711,1.38,-0.25,9.92,-0.03,-0.01,-0.00,32.17
44057193,1956,1,202471,232497,1.38,-0.26,9.92,-0.03,-0.01,-0.00,32.17
44097211,1955,1,202719,233358,1.36,-0.25,9.91,-0.03,-0.01,-0.01,32.17
44137193,1967,1,202902,233721,1.36,-0.23,9.93,-0.03,-0.01,-0.00,32.17
44177189,1963,1,202614,231353,1.36,-0.25,9.91,-0.03,-0.01,-0.00,32.17
44217190,1983,1,201710,229302,1.35,-0.24,9.93,-0.03,-0.01,-0.00,32.17
44257188,1978,1,201400,228467,1.36,-0.24,9.90,-0.03,-0.01,-0.01,32.17
44297191,1954,1,201325,228197,1.37,-0.23,9.91,-0.03,-0.01,-0.00,32.17
44337189,1968,1,201312,228513,1.38,-0.25,9.92,-0.03,-0.01,-0.00,32.17
44377190,1975,1,201578,229310,1.37,-0.25,9.92,-0.03,-0.01,-0.00,32.17
44417189,1987,1,201865,229949,1.38,-0.23,9.90,-0.03,-0.01,-0.00,32.17
44457190,1963,1,202027,230552,1.37,-0.23,9.90,-0.03,-0.01,-0.00,32.17
44497188,1973,1,202246,231377,1.38,-0.25,9.92,-0.03,-0.01,-0.00,32.17
44537194,1981,1,202435,232147,1.36,-0.25,9.91,-0.03,-0.01,-0.00,32.17
44577189,1994,1,202630,232996,1.36,-0.24,9.93,-0.03,-0.01,-0.01,32.17
44617194,1999,1,202863,233837,1.35,-0.24,9.92,-0.03,-0.01,-0.00,32.17
44657189,2013,1,203003,234504,1.38,-0.25,9.92,-0.03,-0.01,-0.00,32.17
44697193,2015,1,203058,234157,1.35,-0.24,9.93,-0.03,-0.01,-0.00,32.17
44737188,2000,1,202239,230928,1.35,-0.24,9.90,-0.03,-0.01,-0.00,32.17
44777191,1985,1,201458,229351,1.35,-0.24,9.91,-0.03,-0.01,-0.00,32.17
44817189,1998,1,201284,228964,1.35,-0.23,9.90,-0.03,-0.01,-0.00,32.17
44857190,1997,1,201336,229063,1.37,-0.23,9.94,-0.03,-0.01,-0.00,32.17
44897188,2018,1,201467,229309,1.37,-0.24,9.90,-0.03,-0.01,-0.00,32.17
44937190,2031,1,201658,229600,1.37,-0.23,9.91,-0.03,-0.01,-0.00,32.17
44977189,2031,1,201750,229821,1.38,-0.24,9.91,-0.03,-0.01,-0.00,32.17
45017190,2027,1,201854,230042,1.36,-0.25,9.92,-0.03,-0.01,-0.01,32.17
45098191,1991,1,202067,230795,1.35,-0.24,9.90,-0.03,-0.01,-0.00,31.97
45138189,1982,1,202149,231306,1.37,-0.24,9.87,-0.03,-0.01,-0.01,31.97
45178191,1988,1,202283,231844,1.36,-0.25,9.93,-0.03,-0.01,-0.00,31.97
45218188,1968,1,202383,232218,1.37,-0.25,9.94,-0.03,-0.01,-0.00,31.97
45258190,1974,1,202272,230388,1.39,-0.25,9.90,-0.03,-0.01,-0.00,31.97
45298189,1968,1,201429,228041,1.36,-0.24,9.92,-0.03,-0.01,-0.01,31.97
45338190,1958,1,200921,226971,1.39,-0.25,9.92,-0.03,-0.01,-0.00,31.97
45378189,1952,1,200780,226772,1.37,-0.26,9.92,-0.03,-0.01,-0.00,31.97
45418190,1955,1,200841,227010,1.36,-0.23,9.90,-0.03,-0.01,-0.00,31.97
45458189,1936,1,201043,227600,1.38,-0.25,9.92,-0.03,-0.01,-0.00,31.97
45498190,1967,1,201218,227819,1.38,-0.22,9.91,-0.03,-0.01,-0.01,31.97
45538239,1938,1,201342,228023,1.38,-0.25,9.93,-0.03,-0.01,-0.01,31.97
45578191,1935,1,201409,228332,1.37,-0.24,9.92,-0.03,-0.01,-0.01,31.97
45618189,1935,1,201565,228689,1.39,-0.25,9.90,-0.03,-0.01,-0.00,31.97
45658190,1936,1,201794,229194,1.37,-0.23,9.93,-0.03,-0.01,-0.00,31.97
45698189,1937,1,201970,229734,1.37,-0.25,9.93,-0.03,-0.01,-0.00,31.97
45738211,1930,1,202210,230385,1.37,-0.24,9.90,-0.03,-0.01,-0.00,31.97
45778189,1968,1,202384,230372,1.38,-0.22,9.89,-0.03,-0.01,-0.00,31.97
45818191,1967,1,201934,228271,1.40,-0.25,9.91,-0.03,-0.01,-0.00,31.97
45858189,1952,1,201281,226968,1.38,-0.24,9.96,-0.03,-0.01,-0.00,31.97
45898191,1954,1,201122,226877,1.36,-0.23,9.93,-0.03,-0.01,-0.00,31.97
45938189,1943,1,201201,227004,1.38,-0.25,9.90,-0.03,-0.01,-0.00,31.97
45976193,2043,1,201369,227403,1.37,-0.26,9.90,-0.03,-0.01,-0.00,31.97
46016193,2039,1,201596,227749,1.36,-0.25,9.89,-0.03,-0.01,-0.00,31.97
46056193,2032,1,201655,227717,1.36,-0.24,9.90,-0.03,-0.01,-0.00,31.97
46096879,1935,1,201522,227256,1.37,-0.24,9.91,-0.03,-0.00,-0.00,31.99
46137190,1959,1,201326,227078,1.37,-0.27,9.90,-0.03,-0.01,-0.01,31.99
46177188,1943,1,201283,227091,1.37,-0.23,9.90,-0.03,-0.01,-0.00,31.99
46217190,1941,1,201372,227422,1.36,-0.22,9.91,-0.03,-0.01,-0.00,31.99
46257188,1949,1,201533,227861,1.36,-0.24,9.92,-0.03,-0.01,-0.00,31.99
46297190,1939,1,201580,228042,1.36,-0.26,9.92,-0.03,-0.01,-0.01,31.99
46337188,1962,1,201646,228223,1.36,-0.25,9.91,-0.03,-0.01,-0.00,31.99
46377190,1949,1,201240,225925,1.36,-0.25,9.93,-0.03,-0.01,-0.00,31.99
46417188,1920,1,200325,223677,1.37,-0.26,9.90,-0.03,-0.01,-0.00,31.99
46457212,1920,1,199821,223116,1.36,-0.25,9.91,-0.03,-0.01,-0.00,31.99
46497188,1933,1,199799,223160,1.37,-0.23,9.91,-0.03,-0.01,-0.00,31.99
46537190,1942,1,199888,223668,1.36,-0.26,9.93,-0.03,-0.01,-0.00,31.99
46577188,1939,1,200125,224502,1.37,-0.24,9.92,-0.03,-0.01,-0.00,31.99
46617190,1949,1,200391,225350,1.37,-0.24,9.90,-0.03,-0.01,-0.01,31.99
46657188,1942,1,200630,225923,1.36,-0.24,9.91,-0.03,-0.01,-0.00,31.99
46697191,1927,1,200792,226449,1.36,-0.25,9.93,-0.03,-0.01,-0.00,31.99
46737188,1926,1,200962,226671,1.37,-0.22,9.91,-0.03,-0.01,-0.00,31.99
46777190,1920,1,201030,226614,1.37,-0.23,9.91,-0.03,-0.01,-0.00,31.99
46817188,1931,1,201011,226572,1.36,-0.23,9.95,-0.03,-0.01,-0.00,31.99
46857190,1934,1,201017,226732,1.36,-0.25,9.91,-0.03,-0.01,-0.00,31.99
46897188,1940,1,201091,226998,1.36,-0.24,9.92,-0.03,-0.01,-0.00,31.99
46937190,1936,1,201171,226903,1.36,-0.22,9.91,-0.03,-0.01,-0.00,31.99
46977188,1937,1,200826,224351,1.36,-0.25,9.93,-0.03,-0.01,-0.00,31.99
47017190,1947,1,199591,221221,1.36,-0.26,9.91,-0.03,-0.01,-0.01,31.99
47057188,1946,1,198894,220284,1.36,-0.24,9.90,-0.03,-0.01,-0.00,31.99
47097876,1936,1,198746,220431,1.39,-0.24,9.90,-0.03,-0.01,-0.00,31.85
47136193,2003,1,198948,221558,1.35,-0.22,9.92,-0.03,-0.01,-0.00,31.85
47176242,2012,1,199613,223046,1.38,-0.24,9.91,-0.03,-0.01,-0.00,31.85
47216193,2000,1,199937,223550,1.36,-0.25,9.90,-0.03,-0.01,-0.00,31.85
47256193,2000,1,200052,223571,1.35,-0.25,9.91,-0.03,-0.01,-0.01,31.85
47296193,2027,1,200063,223469,1.36,-0.23,9.94,-0.03,-0.01,-0.00,31.85
47336193,2017,1,200049,223537,1.38,-0.25,9.91,-0.03,-0.01,-0.01,31.85
47376236,2015,1,200165,224039,1.36,-0.24,9.92,-0.03,-0.02,-0.00,31.85
47416193,1971,1,200405,224792,1.35,-0.25,9.92,-0.03,-0.01,-0.00,31.85
47456193,2005,1,200711,225714,1.37,-0.23,9.90,-0.03,-0.01,-0.00,31.85
47496190,1986,1,201002,226382,1.36,-0.24,9.94,-0.03,-0.01,-0.00,31.85
47536189,2000,1,201174,226572,1.35,-0.25,9.91,-0.03,-0.01,-0.00,31.85
47576194,2001,1,201151,225438,1.36,-0.24,9.90,-0.03,-0.01,-0.00,31.85
47616193,2005,1,200303,222832,1.38,-0.24,9.90,-0.03,-0.01,-0.00,31.85
47656193,2000,1,199715,222311,1.37,-0.27,9.90,-0.03,-0.01,-0.00,31.85
47696194,2010,1,199730,222560,1.36,-0.24,9.90,-0.03,-0.01,-0.00,31.85
47736193,1991,1,199969,223277,1.36,-0.24,9.92,-0.03,-0.01,-0.00,31.85
47776194,1995,1,200287,224112,1.35,-0.24,9.93,-0.03,-0.01,-0.00,31.85
47816193,1979,1,200553,224583,1.38,-0.22,9.91,-0.03,-0.01,-0.00,31.85
47856193,1984,1,200761,224889,1.37,-0.23,9.88,-0.03,-0.01,-0.00,31.85
47896193,1996,1,200796,224992,1.37,-0.24,9.92,-0.04,-0.01,-0.01,31.85
47936193,1986,1,200927,225302,1.37,-0.24,9.91,-0.03,-0.01,-0.00,31.85
47976193,1986,1,200985,225316,1.38,-0.25,9.92,-0.03,-0.01,-0.00,31.85
48016194,1980,1,200999,225164,1.36,-0.24,9.92,-0.03,-0.01,-0.00,31.85
48056191,1970,1,200969,225055,1.36,-0.23,9.91,-0.03,-0.01,-0.00,31.85
48096189,1970,1,201019,225722,1.38,-0.25,9.90,-0.03,-0.01,-0.01,31.85
48136880,1940,1,201328,226328,1.36,-0.23,9.90,-0.03,-0.01,-0.00,31.99
48177189,1963,1,201260,225137,1.36,-0.22,9.90,-0.03,-0.01,-0.00,31.99
48217190,1964,1,200430,222765,1.37,-0.24,9.91,-0.03,-0.01,-0.00,31.99
48257188,1953,1,199962,222346,1.39,-0.26,9.94,-0.03,-0.01,-0.01,31.99
48297190,1932,1,200053,222767,1.37,-0.25,9.94,-0.03,-0.01,-0.00,31.99
48337189,1932,1,200231,223527,1.35,-0.23,9.90,-0.03,-0.01,-0.00,31.99
48377190,1943,1,200573,224675,1.36,-0.24,9.93,-0.03,-0.01,-0.00,31.99
48417189,1968,1,200842,225233,1.36,-0.22,9.93,-0.03,-0.01,-0.00,31.99
48457191,1942,1,200907,225069,1.37,-0.24,9.93,-0.03,-0.01,-0.00,31.99
48497189,1961,1,200803,224697,1.36,-0.24,9.92,-0.03,-0.01,-0.01,31.99
48537191,1954,1,200759,224692,1.36,-0.24,9.91,-0.03,-0.01,-0.00,31.99
48577189,1962,1,200802,224911,1.37,-0.25,9.91,-0.03,-0.01,-0.00,31.99
48616193,1971,1,200855,225200,1.36,-0.25,9.93,-0.03,-0.01,-0.00,31.99
48656194,1958,1,200922,225661,1.39,-0.23,9.91,-0.03,-0.01,-0.00,31.99
48696193,1971,1,201096,226306,1.36,-0.23,9.92,-0.03,-0.01,-0.00,31.99
48736194,1965,1,201260,226975,1.36,-0.25,9.90,-0.03,-0.01,-0.00,31.99
48776194,1966,1,201444,227326,1.37,-0.24,9.89,-0.03,-0.01,-0.00,31.99
48816208,1959,1,201107,225058,1.36,-0.24,9.92,-0.03,-0.01,-0.00,31.99
48856193,1942,1,200175,223083,1.35,-0.23,9.92,-0.03,-0.01,-0.00,31.99
48896193,1936,1,199707,222735,1.37,-0.24,9.89,-0.03,-0.01,-0.00,31.99
48936194,1919,1,199734,222976,1.36,-0.24,9.94,-0.03,-0.01,-0.01,31.99
48976194,1917,1,199798,223550,1.36,-0.24,9.90,-0.03,-0.01,-0.00,31.99
49016219,1904,1,200064,224283,1.36,-0.23,9.91,-0.03,-0.01,-0.00,31.99
49056193,1908,1,200233,224657,1.36,-0.23,9.93,-0.03,-0.01,-0.00,31.99
49096194,1909,1,200329,224988,1.36,-0.24,9.90,-0.03,-0.01,-0.00,31.99
49136880,1875,1,200409,225339,1.37,-0.25,9.94,-0.03,-0.01,-0.00,31.49
49177191,1887,1,200479,225711,1.38,-0.25,9.93,-0.03,-0.01,-0.00,31.49
49217193,1898,1,200608,226142,1.35,-0.26,9.92,-0.03,-0.01,-0.00,31.49
49257191,1925,1,200827,226513,1.35,-0.23,9.91,-0.03,-0.01,-0.00,31.49
49297190,1931,1,200942,226730,1.37,-0.25,9.93,-0.03,-0.01,-0.00,31.49
49337191,1926,1,201078,227150,1.38,-0.24,9.93,-0.03,-0.01,-0.00,31.49
49377189,1939,1,201248,227571,1.36,-0.24,9.88,-0.03,-0.01,-0.00,31.49
49417192,1940,1,201367,227797,1.36,-0.24,9.91,-0.03,-0.01,-0.00,31.49
49457189,1927,1,201233,225991,1.34,-0.23,9.92,-0.03,-0.01,-0.00,31.49
49497191,1942,1,200301,223754,1.36,-0.23,9.89,-0.03,-0.01,-0.01,31.49
49537190,1939,1,199866,223431,1.37,-0.23,9.89,-0.03,-0.01,-0.01,31.49
49577195,1941,1,199935,223785,1.37,-0.23,9.95,-0.03,-0.01,-0.00,31.49
49617190,1945,1,200081,224286,1.35,-0.24,9.91,-0.03,-0.01,-0.00,31.49
49656194,1953,1,200345,225025,1.36,-0.23,9.90,-0.03,-0.01,-0.00,31.49
49696189,1941,1,200570,225503,1.38,-0.25,9.92,-0.03,-0.01,-0.00,31.49
49736194,1958,1,200700,225812,1.37,-0.24,9.92,-0.03,-0.01,-0.00,31.49
49776194,1959,1,200847,226193,1.37,-0.23,9.91,-0.03,-0.01,-0.00,31.49
49816194,1963,1,200927,226470,1.38,-0.25,9.95,-0.03,-0.01,-0.00,31.49
49856190,1968,1,201028,226877,1.37,-0.25,9.90,-0.03,-0.01,-0.00,31.49
49896191,1967,1,201223,227273,1.33,-0.23,9.93,-0.03,-0.01,-0.00,31.49
49936190,1978,1,201384,227579,1.37,-0.25,9.94,-0.03,-0.01,-0.01,31.49
49976194,1962,1,201472,227809,1.37,-0.23,9.90,-0.03,-0.01,-0.00,31.49
50016189,1974,1,201598,228329,1.37,-0.25,9.90,-0.03,-0.01,-0.00,31.49
50056194,1979,1,201774,228678,1.36,-0.25,9.91,-0.03,-0.01,-0.00,31.49
50096190,1984,1,201732,227052,1.38,-0.27,9.90,-0.03,-0.01,-0.01,31.49
50136194,1974,1,200760,224389,1.38,-0.25,9.92,-0.03,-0.01,-0.01,31.49
50176876,1957,1,200140,223428,1.37,-0.24,9.93,-0.03,-0.01,-0.00,31.55
50215193,2032,1,200018,223364,1.37,-0.23,9.91,-0.03,-0.01,-0.00,31.55
50255194,2014,1,200097,223629,1.37,-0.24,9.91,-0.03,-0.01,-0.00,31.55
50295193,2009,1,200242,224281,1.37,-0.23,9.91,-0.03,-0.01,-0.01,31.55
50335193,2010,1,200471,224791,1.36,-0.26,9.91,-0.03,-0.01,-0.00,31.55
50375193,2015,1,200619,225058,1.38,-0.24,9.91,-0.03,-0.01,-0.00,31.55
50415193,2032,1,200699,225266,1.38,-0.24,9.90,-0.03,-0.01,-0.00,31.55
50455199,2009,1,200806,225585,1.38,-0.24,9.93,-0.03,-0.01,-0.00,31.55
50495193,2007,1,200979,226116,1.36,-0.23,9.89,-0.03,-0.01,-0.00,31.55
50535194,2000,1,201175,226483,1.35,-0.24,9.89,-0.03,-0.01,-0.01,31.55
50575193,2000,1,201322,226797,1.36,-0.25,9.92,-0.03,-0.01,-0.00,31.55
50615193,2000,1,201422,227020,1.37,-0.23,9.93,-0.03,-0.01,-0.00,31.55
50656189,1968,1,201505,227291,1.36,-0.24,9.93,-0.03,-0.01,-0.00,31.55
50696191,1951,1,201518,226577,1.35,-0.24,9.94,-0.03,-0.01,-0.00,31.55
50736189,1940,1,200726,223370,1.38,-0.23,9.91,-0.03,-0.01,-0.00,31.55
50776194,1945,1,199704,221382,1.37,-0.26,9.91,-0.03,-0.01,-0.01,31.55
50816190,1942,1,199247,220808,1.37,-0.24,9.90,-0.03,-0.01,-0.00,31.55
50856191,1947,1,199191,220753,1.37,-0.22,9.95,-0.03,-0.01,-0.00,31.55
50896190,1931,1,199194,221263,1.37,-0.25,9.96,-0.03,-0.01,-0.00,31.55
50936194,1938,1,199440,221958,1.36,-0.25,9.91,-0.03,-0.01,-0.01,31.55
50976190,1936,1,199551,222035,1.37,-0.23,9.90,-0.03,-0.01,-0.01,31.55
51016191,1937,1,199503,222005,1.35,-0.24,9.90,-0.03,-0.01,-0.00,31.55
51056189,1921,1,199608,222464,1.36,-0.24,9.91,-0.03,-0.01,-0.00,31.55
51096194,1921,1,199759,223024,1.37,-0.24,9.90,-0.03,-0.01,-0.00,31.55
51136189,1936,1,199982,223492,1.36,-0.27,9.92,-0.03,-0.01,-0.00,31.55
51176194,1933,1,200139,223805,1.36,-0.24,9.90,-0.03,-0.01,-0.00,31.55
51216875,1913,1,200140,223966,1.35,-0.25,9.91,-0.03,-0.01,-0.00,31.49
51255194,1974,1,200213,224085,1.39,-0.24,9.91,-0.03,-0.01,-0.00,31.49
51295194,1982,1,200291,224257,1.36,-0.25,9.90,-0.03,-0.01,-0.00,31.49
51335194,1986,1,200353,224015,1.37,-0.24,9.92,-0.03,-0.01,-0.00,31.49
51375194,1977,1,199738,220933,1.35,-0.24,9.91,-0.03,-0.01,-0.00,31.49
51415194,1974,1,198621,219097,1.37,-0.23,9.89,-0.03,-0.01,-0.00,31.49
51455193,1981,1,198337,219055,1.37,-0.24,9.92,-0.03,-0.01,-0.00,31.49
51495193,1986,1,198450,219609,1.36,-0.24,9.91,-0.03,-0.01,-0.00,31.49
51535193,1995,1,198719,220322,1.38,-0.23,9.93,-0.03,-0.01,-0.00,31.49
51575194,1975,1,199035,221146,1.37,-0.26,9.92,-0.03,-0.01,-0.00,31.49
51615194,1977,1,199329,221775,1.36,-0.26,9.93,-0.03,-0.01,-0.00,31.49
51655193,1968,1,199511,222113,1.37,-0.26,9.93,-0.03,-0.01,-0.00,31.49
51695193,1972,1,199670,222445,1.37,-0.25,9.91,-0.03,-0.01,-0.00,31.49
51735194,1958,1,199808,222934,1.35,-0.23,9.90,-0.03,-0.01,-0.00,31.49
51775194,1968,1,200019,223552,1.38,-0.22,9.90,-0.03,-0.01,-0.01,31.49
51815194,1979,1,200206,223996,1.36,-0.23,9.90,-0.03,-0.01,-0.01,31.49
51855193,1969,1,200429,224420,1.36,-0.24,9.94,-0.03,-0.01,-0.00,31.49
51895194,1957,1,200586,225036,1.37,-0.25,9.90,-0.03,-0.01,-0.00,31.49
51935193,1973,1,200861,225648,1.36,-0.26,9.93,-0.03,-0.01,-0.01,31.49
51975194,1951,1,201030,226085,1.36,-0.22,9.92,-0.03,-0.01,-0.00,31.49
52015193,1969,1,201067,224826,1.36,-0.25,9.91,-0.03,-0.01,-0.00,31.49
52055193,1968,1,200145,222074,1.34,-0.24,9.91,-0.03,-0.01,-0.00,31.49
52095197,1963,1,199472,221239,1.35,-0.24,9.92,-0.03,-0.01,-0.00,31.49
52135194,1968,1,199456,221553,1.36,-0.26,9.90,-0.03,-0.01,-0.00,31.49
52175191,1968,1,199614,221978,1.36,-0.24,9.88,-0.03,-0.01,-0.00,31.49
52215194,1968,1,199765,222565,1.37,-0.25,9.91,-0.03,-0.01,-0.00,31.49
52255880,1931,1,200043,223137,1.37,-0.24,9.91,-0.03,-0.01,-0.00,31.35
52296248,1951,1,200139,223339,1.37,-0.25,9.93,-0.03,-0.01,-0.00,31.35
52336190,1938,1,200196,223501,1.36,-0.24,9.93,-0.03,-0.01,-0.01,31.35
52376194,1949,1,200227,223850,1.38,-0.23,9.89,-0.03,-0.01,-0.00,31.35
52416189,1931,1,200387,224299,1.38,-0.25,9.91,-0.03,-0.01,-0.00,31.35
52456194,1939,1,200530,224825,1.36,-0.24,9.88,-0.03,-0.01,-0.01,31.35
52496232,1951,1,200686,225269,1.37,-0.24,9.91,-0.03,-0.01,-0.00,31.35
52536191,1949,1,200856,225578,1.36,-0.24,9.91,-0.03,-0.01,-0.00,31.35
52576190,1950,1,200964,225947,1.38,-0.23,9.90,-0.03,-0.01,-0.00,31.35
52616191,1935,1,201118,226258,1.37,-0.25,9.92,-0.03,-0.01,-0.00,31.35
52656190,1950,1,200948,224599,1.38,-0.24,9.91,-0.03,-0.01,-0.00,31.35
52696191,1958,1,199991,221984,1.36,-0.26,9.92,-0.03,-0.01,-0.00,31.35
52736189,1947,1,199349,221365,1.35,-0.24,9.90,-0.03,-0.01,-0.01,31.35
52776191,1956,1,199337,221642,1.36,-0.24,9.92,-0.03,-0.01,-0.00,31.35
52816190,1939,1,199374,222019,1.37,-0.25,9.90,-0.03,-0.01,-0.00,31.35
52856191,1937,1,199617,222656,1.37,-0.22,9.90,-0.03,-0.01,-0.00,31.35
52896190,1939,1,199815,223009,1.36,-0.24,9.92,-0.03,-0.01,-0.00,31.35
52936191,1930,1,199883,223078,1.37,-0.24,9.95,-0.03,-0.01,-0.00,31.35
52976190,1927,1,199907,223224,1.38,-0.24,9.92,-0.03,-0.01,-0.00,31.35
53016191,1934,1,199968,223518,1.37,-0.24,9.93,-0.03,-0.01,-0.00,31.35
53056189,1946,1,200170,223939,1.35,-0.25,9.92,-0.03,-0.01,-0.00,31.35
53096194,1949,1,200308,224404,1.39,-0.26,9.88,-0.03,-0.01,-0.00,31.35
53136190,1943,1,200431,224818,1.37,-0.26,9.90,-0.03,-0.01,-0.00,31.35
53176191,1950,1,200567,225284,1.35,-0.23,9.92,-0.03,-0.01,-0.00,31.35
53216190,1936,1,200742,225659,1.36,-0.25,9.91,-0.03,-0.01,-0.00,31.35
53256877,1923,1,200817,224743,1.36,-0.24,9.91,-0.03,-0.01,-0.00,31.41
53295190,1971,1,200010,221946,1.36,-0.24,9.92,-0.03,-0.01,-0.00,31.41
53335194,1985,1,199204,220830,1.36,-0.23,9.90,-0.03,-0.01,-0.00,31.41
53375189,1989,1,199101,220958,1.35,-0.23,9.92,-0.03,-0.01,-0.00,31.41
53415194,1971,1,199198,221236,1.37,-0.23,9.91,-0.03,-0.01,-0.01,31.41
53455194,1964,1,199373,221890,1.35,-0.24,9.90,-0.03,-0.01,-0.00,31.41
53495194,1939,1,199637,222446,1.37,-0.24,9.92,-0.03,-0.01,-0.00,31.41
53535194,1967,1,199744,222717,1.36,-0.23,9.94,-0.03,-0.01,-0.00,31.41
53575194,1940,1,199852,222909,1.36,-0.25,9.92,-0.03,-0.01,-0.01,31.41
53615190,1954,1,199941,223204,1.38,-0.23,9.90,-0.03,-0.01,-0.00,31.41
53655194,1955,1,200121,223639,1.36,-0.24,9.92,-0.03,-0.01,-0.01,31.41
53695189,1953,1,200240,223939,1.36,-0.24,9.91,-0.03,-0.01,-0.00,31.41
53735194,1933,1,200362,224082,1.37,-0.24,9.91,-0.03,-0.01,-0.00,31.41
53775189,1962,1,200472,224507,1.37,-0.25,9.93,-0.03,-0.01,-0.00,31.41
53815194,1942,1,200688,225008,1.36,-0.25,9.92,-0.03,-0.01,-0.01,31.41
53855194,1948,1,200876,225451,1.36,-0.23,9.93,-0.03,-0.01,-0.00,31.41
53895194,1950,1,200946,224510,1.36,-0.23,9.91,-0.03,-0.01,-0.00,31.41
53935198,1947,1,200125,221956,1.36,-0.22,9.90,-0.03,-0.01,-0.01,31.41
53975193,1953,1,199535,221408,1.37,-0.22,9.90,-0.03,-0.01,-0.00,31.41
54015189,1951,1,199592,221725,1.37,-0.23,9.91,-0.03,-0.01,-0.00,31.41
54055194,1958,1,199777,222383,1.35,-0.23,9.93,-0.03,-0.01,-0.00,31.41
54095189,1945,1,200136,223208,1.36,-0.26,9.92,-0.03,-0.01,-0.00,31.41
54135200,1940,1,200384,223741,1.36,-0.23,9.94,-0.03,-0.01,-0.00,31.41
54175189,1936,1,200501,223947,1.37,-0.23,9.90,-0.03,-0.01,-0.00,31.41
54215190,1968,1,200544,223978,1.37,-0.23,9.93,-0.03,-0.01,-0.00,31.41
54255189,1954,1,200538,224109,1.39,-0.24,9.93,-0.03,-0.01,-0.00,31.41
54295877,1935,1,200674,224528,1.37,-0.24,9.90,-0.03,-0.01,-0.01,31.19
54334194,2017,1,200823,224920,1.36,-0.23,9.91,-0.03,-0.01,-0.00,31.19
54374193,1985,1,200993,225256,1.37,-0.23,9.90,-0.03,-0.01,-0.00,31.19
54414193,1984,1,201045,225588,1.37,-0.22,9.89,-0.03,-0.01,-0.00,31.19
54454193,1999,1,201211,226042,1.36,-0.24,9.94,-0.03,-0.01,-0.00,31.19
54494193,1999,1,201322,226479,1.36,-0.24,9.90,-0.03,-0.01,-0.00,31.19
54534193,1982,1,201390,225751,1.36,-0.25,9.91,-0.03,-0.01,-0.00,31.19
54574193,1993,1,200625,223291,1.36,-0.24,9.91,-0.03,-0.01,-0.00,31.19
54614193,1981,1,199945,222481,1.35,-0.25,9.93,-0.03,-0.01,-0.00,31.19
54654193,2000,1,199882,222747,1.37,-0.24,9.93,-0.03,-0.01,-0.00,31.19
54694193,1999,1,200045,223188,1.37,-0.24,9.91,-0.03,-0.01,-0.00,31.19
54734194,1981,1,200167,223826,1.34,-0.23,9.89,-0.03,-0.01,-0.00,31.19
54774193,1942,1,200447,224441,1.37,-0.23,9.92,-0.03,-0.01,-0.00,31.19
54814193,1974,1,200550,224668,1.36,-0.25,9.90,-0.03,-0.01,-0.00,31.19
54854197,1981,1,200667,224862,1.36,-0.25,9.92,-0.03,-0.01,-0.00,31.19
54894193,1984,1,200718,225135,1.35,-0.25,9.90,-0.03,-0.01,-0.00,31.19
54934193,1983,1,200863,225607,1.35,-0.24,9.92,-0.03,-0.01,-0.00,31.19
54974193,1971,1,201030,226326,1.36,-0.25,9.90,-0.03,-0.01,-0.00,31.19
55014193,1973,1,201254,226888,1.38,-0.23,9.92,-0.03,-0.01,-0.00,31.19
55054193,1985,1,201444,227250,1.35,-0.25,9.89,-0.03,-0.01,-0.00,31.19
55094193,1954,1,201546,227508,1.36,-0.24,9.91,-0.03,-0.01,-0.00,31.19
55134194,1962,1,201558,227441,1.36,-0.25,9.90,-0.03,-0.01,-0.00,31.19
55174193,1989,1,201251,225250,1.38,-0.23,9.89,-0.03,-0.01,-0.00,31.19
55214193,1969,1,200355,223443,1.37,-0.24,9.92,-0.03,-0.01,-0.01,31.19
55254194,1954,1,200087,223506,1.34,-0.25,9.89,-0.03,-0.01,-0.01,31.19
55294193,1971,1,200215,223782,1.36,-0.23,9.92,-0.03,-0.01,-0.00,31.19
55334880,1935,1,200348,224071,1.35,-0.24,9.89,-0.03,-0.01,-0.00,30.87
55375189,1940,1,200527,224632,1.37,-0.25,9.93,-0.03,-0.01,-0.01,30.87
55415194,1926,1,200683,224796,1.39,-0.23,9.92,-0.03,-0.01,-0.00,30.87
55455189,1935,1,200758,224931,1.35,-0.24,9.89,-0.03,-0.01,-0.01,30.87
55495194,1924,1,200809,225121,1.34,-0.24,9.91,-0.03,-0.01,-0.00,30.87
55535189,1929,1,200970,225508,1.35,-0.25,9.90,-0.03,-0.01,-0.01,30.87
55575200,1927,1,201108,225878,1.40,-0.26,9.90,-0.03,-0.01,-0.01,30.87
55615189,1927,1,201239,226120,1.37,-0.24,9.91,-0.03,-0.01,-0.00,30.87
55655192,1915,1,201384,226405,1.35,-0.24,9.93,-0.03,-0.01,-0.01,30.87
55695189,1915,1,201480,226829,1.39,-0.24,9.92,-0.03,-0.01,-0.00,30.87
55735191,1931,1,201577,226986,1.37,-0.23,9.88,-0.03,-0.01,-0.00,30.87
55775238,1922,1,201400,225277,1.36,-0.23,9.91,-0.03,-0.01,-0.00,30.87
55815191,1937,1,200470,223019,1.36,-0.23,9.92,-0.03,-0.01,-0.00,30.87
55855189,1936,1,199978,222645,1.36,-0.24,9.90,-0.03,-0.01,-0.00,30.87
55895191,1935,1,199996,222912,1.36,-0.25,9.93,-0.03,-0.01,-0.00,30.87
55935189,1921,1,200119,223286,1.36,-0.26,9.92,-0.03,-0.01,-0.00,30.87
55975217,1938,1,200282,223937,1.36,-0.23,9.92,-0.03,-0.01,-0.00,30.87
56015189,1932,1,200521,224318,1.37,-0.26,9.92,-0.03,-0.01,-0.00,30.87
56055191,1938,1,200596,224414,1.36,-0.25,9.91,-0.03,-0.01,-0.00,30.87
56095189,1936,1,200656,224625,1.35,-0.23,9.92,-0.03,-0.01,-0.00,30.87
56135190,1922,1,200710,224956,1.36,-0.23,9.90,-0.03,-0.01,-0.00,30.87
56175188,1931,1,200822,225397,1.36,-0.24,9.90,-0.03,-0.01,-0.00,30.87
56215190,1926,1,201023,225823,1.34,-0.23,9.89,-0.03,-0.01,-0.00,30.87
56255189,1936,1,201134,226273,1.36,-0.23,9.91,-0.03,-0.01,-0.00,30.87
56295191,1919,1,201329,226701,1.36,-0.24,9.91,-0.03,-0.01,-0.00,30.87
56335876,1911,1,201478,227068,1.36,-0.24,9.89,-0.03,-0.01,-0.00,31.19
56374194,1949,1,201662,227208,1.36,-0.24,9.91,-0.03,-0.01,-0.00,31.19
56414189,1956,1,201400,225214,1.36,-0.25,9.89,-0.03,-0.01,-0.00,31.19
56454193,1958,1,200425,222951,1.35,-0.22,9.90,-0.03,-0.01,-0.00,31.19
56494189,1948,1,199921,222614,1.36,-0.23,9.90,-0.03,-0.01,-0.00,31.19
56534194,1926,1,199957,222813,1.36,-0.24,9.92,-0.03,-0.01,-0.01,31.19
56574193,1957,1,200059,223183,1.37,-0.24,9.89,-0.03,-0.01,-0.00,31.19
56614194,1937,1,200261,223885,1.35,-0.25,9.90,-0.03,-0.01,-0.00,31.19
56654194,1942,1,200484,224255,1.36,-0.24,9.91,-0.03,-0.01,-0.00,31.19
56694194,1945,1,200598,224415,1.38,-0.23,9.94,-0.03,-0.01,-0.00,31.19
56734190,1950,1,200656,224606,1.36,-0.24,9.92,-0.03,-0.01,-0.00,31.19
56774194,1950,1,200773,224901,1.37,-0.24,9.93,-0.03,-0.01,-0.01,31.19
56814194,1941,1,200955,225286,1.36,-0.25,9.91,-0.03,-0.01,-0.00,31.19
56854194,1941,1,201104,225606,1.35,-0.25,9.92,-0.03,-0.01,-0.01,31.19
56894190,1929,1,201192,225732,1.36,-0.25,9.93,-0.03,-0.01,-0.00,31.19
56934194,1946,1,201220,225858,1.37,-0.23,9.93,-0.03,-0.01,-0.00,31.19
56974194,1952,1,201402,226345,1.37,-0.25,9.89,-0.03,-0.01,-0.00,31.19
57014194,1920,1,201605,226858,1.37,-0.23,9.91,-0.03,-0.01,-0.00,31.19
57054189,1945,1,201730,226595,1.36,-0.23,9.94,-0.03,-0.01,-0.00,31.19
57094194,1930,1,201172,224136,1.37,-0.24,9.90,-0.03,-0.01,-0.00,31.19
57134189,1955,1,200419,222985,1.35,-0.24,9.90,-0.03,-0.01,-0.00,31.19
57174194,1951,1,200315,223083,1.39,-0.25,9.90,-0.03,-0.01,-0.01,31.19
57214189,1933,1,200411,223463,1.36,-0.24,9.92,-0.03,-0.01,-0.00,31.19
57254191,1934,1,200618,224149,1.37,-0.26,9.89,-0.03,-0.01,-0.00,31.19
57294189,1936,1,200970,224936,1.38,-0.25,9.90,-0.03,-0.01,-0.00,31.19
57334191,1904,1,201137,225310,1.37,-0.26,9.92,-0.03,-0.01,-0.00,31.19
57374876,1922,1,201249,225548,1.36,-0.24,9.90,-0.03,-0.01,-0.00,31.19
57413220,2001,1,201332,225884,1.37,-0.23,9.88,-0.03,-0.01,-0.00,31.19
57453194,2003,1,201467,226300,1.36,-0.23,9.92,-0.03,-0.01,-0.00,31.19
57493193,1986,1,201651,226839,1.36,-0.25,9.90,-0.03,-0.01,-0.00,31.19
57533190,1985,1,201816,227262,1.37,-0.24,9.93,-0.03,-0.01,-0.00,31.19
57573193,1987,1,201981,227636,1.35,-0.23,9.91,-0.03,-0.01,-0.01,31.19
57613217,1981,1,202093,227938,1.36,-0.24,9.91,-0.03,-0.01,-0.01,31.19
57653194,1982,1,202227,228312,1.35,-0.24,9.89,-0.03,-0.01,-0.00,31.19
57693193,1985,1,202306,228711,1.36,-0.25,9.92,-0.03,-0.01,-0.00,31.19
57733194,2006,1,202196,227034,1.37,-0.24,9.89,-0.03,-0.01,-0.00,31.19
57773193,1983,1,201247,224645,1.36,-0.25,9.89,-0.03,-0.01,-0.00,31.19
57813193,1971,1,200714,224197,1.36,-0.24,9.91,-0.03,-0.01,-0.01,31.19
57853193,1974,1,200749,224335,1.37,-0.27,9.91,-0.03,-0.01,-0.00,31.19
57893194,1979,1,200759,224624,1.37,-0.24,9.92,-0.03,-0.01,-0.01,31.19
57933193,1968,1,200927,225164,1.38,-0.24,9.92,-0.03,-0.01,-0.00,31.19
57973194,1968,1,201124,225496,1.37,-0.23,9.93,-0.03,-0.01,-0.01,31.19
58013193,1966,1,201163,225575,1.36,-0.24,9.90,-0.03,-0.01,-0.01,31.19
58053194,1966,1,201188,225756,1.36,-0.23,9.88,-0.03,-0.01,-0.01,31.19
58093194,1961,1,201289,225978,1.34,-0.24,9.92,-0.03,-0.01,-0.00,31.19
58133194,1965,1,201407,226333,1.38,-0.24,9.92,-0.03,-0.01,-0.00,31.19
58173193,1954,1,201540,226632,1.37,-0.24,9.92,-0.03,-0.01,-0.00,31.19
58213194,1959,1,201640,226957,1.35,-0.25,9.91,-0.03,-0.01,-0.00,31.19
58253194,1962,1,201740,227249,1.36,-0.24,9.90,-0.03,-0.01,-0.00,31.19
58293194,1946,1,201887,227594,1.36,-0.24,9.90,-0.03,-0.01,-0.00,31.19
58333194,1971,1,202003,227371,1.37,-0.26,9.89,-0.03,-0.01,-0.00,31.19
58373194,1968,1,201425,224729,1.36,-0.25,9.91,-0.03,-0.01,-0.01,31.19
58413880,1920,1,200540,223051,1.36,-0.24,9.92,-0.03,-0.01,-0.00,31.57
58454191,1927,1,200174,222818,1.36,-0.24,9.90,-0.03,-0.01,-0.00,31.57
58494189,1925,1,200239,222916,1.37,-0.25,9.91,-0.03,-0.01,-0.00,31.57
58534194,1934,1,200189,223034,1.36,-0.25,9.91,-0.03,-0.01,-0.00,31.57
58574190,1925,1,200395,223553,1.35,-0.23,9.88,-0.03,-0.01,-0.00,31.57
58614194,1936,1,200550,223713,1.36,-0.24,9.92,-0.03,-0.01,-0.00,31.57
58654190,1904,1,200577,223711,1.36,-0.25,9.92,-0.03,-0.01,-0.00,31.57
58694194,1921,1,200638,223974,1.36,-0.24,9.91,-0.03,-0.01,-0.00,31.57
58734190,1922,1,200775,224331,1.38,-0.24,9.90,-0.03,-0.01,-0.00,31.57
58774192,1925,1,200926,224799,1.36,-0.23,9.92,-0.03,-0.01,-0.00,31.57
58814190,1925,1,201161,225338,1.36,-0.24,9.92,-0.03,-0.01,-0.00,31.57
58854195,1935,1,201344,225747,1.35,-0.23,9.92,-0.03,-0.01,-0.00,31.57
58894190,1930,1,201546,226270,1.36,-0.24,9.90,-0.03,-0.01,-0.00,31.57
58934191,1923,1,201698,226730,1.36,-0.23,9.90,-0.03,-0.01,-0.00,31.57
58974190,1923,1,201855,226884,1.36,-0.25,9.90,-0.03,-0.01,-0.01,31.57
59014195,1936,1,201532,224605,1.35,-0.23,9.91,-0.03,-0.01,-0.00,31.57
59054226,1923,1,200457,222353,1.36,-0.25,9.90,-0.03,-0.01,-0.00,31.57
59094192,1932,1,200027,222097,1.35,-0.24,9.92,-0.03,-0.01,-0.01,31.57
59134190,1920,1,200051,222449,1.37,-0.23,9.92,-0.03,-0.01,-0.00,31.57
59174194,1919,1,200176,222823,1.34,-0.25,9.92,-0.03,-0.01,-0.00,31.57
59214190,1938,1,200382,223551,1.38,-0.23,9.90,-0.03,-0.01,-0.00,31.57
59254240,1919,1,200694,224030,1.35,-0.24,9.92,-0.03,-0.01,-0.00,31.57
59294190,1935,1,200797,224123,1.36,-0.24,9.93,-0.03,-0.01,-0.00,31.57
59334194,1929,1,200871,224302,1.38,-0.23,9.89,-0.03,-0.01,-0.00,31.57
59374190,1922,1,200946,224727,1.35,-0.24,9.90,-0.03,-0.01,-0.00,31.57
59414878,1919,1,201089,225209,1.38,-0.24,9.91,-0.03,-0.01,-0.00,31.27
59453194,1954,1,201288,225675,1.37,-0.25,9.94,-0.03,-0.01,-0.00,31.27
59493194,1946,1,201405,226021,1.38,-0.23,9.90,-0.03,-0.01,-0.00,31.27
59533194,1962,1,201510,226392,1.36,-0.25,9.93,-0.03,-0.01,-0.00,31.27
59573195,1950,1,201680,226828,1.36,-0.23,9.92,-0.03,-0.01,-0.01,31.27
59613194,1956,1,201845,227217,1.37,-0.24,9.90,-0.03,-0.01,-0.00,31.27
59653194,1949,1,202006,227042,1.36,-0.23,9.91,-0.03,-0.01,-0.00,31.27
59693194,1952,1,201415,224181,1.35,-0.23,9.91,-0.03,-0.01,-0.00,31.27
59733194,1947,1,200347,222565,1.35,-0.25,9.91,-0.03,-0.01,-0.00,31.27
59773198,1953,1,200156,222580,1.37,-0.26,9.92,-0.03,-0.01,-0.00,31.27
59813194,1949,1,200245,223048,1.36,-0.23,9.90,-0.03,-0.01,-0.01,31.27
59853194,1937,1,200446,223741,1.38,-0.24,9.90,-0.03,-0.01,-0.00,31.27
59893194,1926,1,200774,224487,1.36,-0.23,9.94,-0.03,-0.01,-0.01,31.27
59933194,1934,1,201016,224817,1.36,-0.23,9.95,-0.03,-0.01,-0.01,31.27
59973194,1923,1,201096,225056,1.35,-0.24,9.89,-0.03,-0.01,-0.00,31.27
60013194,1947,1,201169,225405,1.36,-0.26,9.90,-0.03,-0.01,-0.00,31.27
60053194,1934,1,201319,225827,1.36,-0.25,9.90,-0.03,-0.01,-0.01,31.27
60093194,1929,1,201533,226426,1.37,-0.23,9.94,-0.03,-0.01,-0.00,31.27
60133194,1932,1,201763,226961,1.36,-0.27,9.92,-0.03,-0.01,-0.00,31.27
60173194,1938,1,201968,227468,1.38,-0.23,9.92,-0.03,-0.01,-0.00,31.27
60213194,1937,1,202133,227970,1.38,-0.24,9.90,-0.03,-0.01,-0.00,31.27
60253194,1947,1,202357,228408,1.36,-0.24,9.92,-0.03,-0.01,-0.00,31.27
60293194,1941,1,202510,228856,1.36,-0.23,9.93,-0.03,-0.01,-0.00,31.27
60333190,1937,1,202638,228689,1.34,-0.24,9.92,-0.03,-0.01,-0.00,31.27
60373194,1935,1,202078,225879,1.37,-0.27,9.91,-0.03,-0.01,-0.00,31.27
60413194,1931,1,201155,224413,1.37,-0.25,9.92,-0.03,-0.01,-0.00,31.27
60453880,1911,1,200968,224487,1.35,-0.25,9.90,-0.03,-0.01,-0.00,31.47
60492194,1977,1,201173,224910,1.35,-0.26,9.91,-0.03,-0.01,-0.00,31.47
60532194,2003,1,201381,225530,1.38,-0.25,9.91,-0.03,-0.01,-0.00,31.47
60572194,2000,1,201596,226244,1.38,-0.23,9.89,-0.03,-0.01,-0.00,31.47
60612194,2001,1,201804,226443,1.36,-0.25,9.91,-0.03,-0.01,-0.00,31.47
60652194,2000,1,201852,226353,1.34,-0.25,9.92,-0.03,-0.01,-0.00,31.47
60693194,1921,1,201871,226574,1.37,-0.24,9.92,-0.03,-0.01,-0.00,31.47
60733194,1935,1,201945,226843,1.36,-0.24,9.92,-0.03,-0.01,-0.00,31.47
60773195,1933,1,202020,227100,1.36,-0.23,9.91,-0.03,-0.01,-0.00,31.47
60813190,1925,1,202108,227397,1.36,-0.26,9.92,-0.03,-0.01,-0.00,31.47
60853194,1936,1,202215,227655,1.35,-0.25,9.88,-0.03,-0.01,-0.00,31.47
60893190,1938,1,202343,228000,1.36,-0.25,9.91,-0.03,-0.01,-0.01,31.47
60933194,1931,1,202449,228319,1.37,-0.24,9.92,-0.03,-0.01,-0.00,31.47
60973190,1941,1,202565,228192,1.37,-0.24,9.91,-0.03,-0.01,-0.00,31.47
61013194,1936,1,202065,225546,1.36,-0.26,9.91,-0.03,-0.01,-0.00,31.47
61053190,1943,1,201059,223737,1.36,-0.24,9.90,-0.03,-0.01,-0.00,31.47
61093191,1959,1,200796,223531,1.35,-0.23,9.90,-0.03,-0.01,-0.00,31.47
61133190,1935,1,200780,223613,1.36,-0.21,9.94,-0.03,-0.01,-0.00,31.47
61173194,1933,1,200917,224203,1.36,-0.23,9.92,-0.03,-0.01,-0.00,31.47
61213190,1949,1,201286,225325,1.38,-0.25,9.90,-0.03,-0.01,-0.00,31.47
61253195,1936,1,201658,226235,1.36,-0.23,9.91,-0.03,-0.01,-0.01,31.47
61293190,1936,1,202012,226899,1.33,-0.23,9.92,-0.03,-0.01,-0.00,31.47
61333194,1936,1,202180,227438,1.38,-0.24,9.90,-0.03,-0.01,-0.01,31.47
61373190,1926,1,202363,228050,1.35,-0.24,9.90,-0.03,-0.01,-0.00,31.47
61413191,1923,1,202562,228603,1.36,-0.23,9.89,-0.03,-0.01,-0.01,31.47
61453190,1936,1,202786,229001,1.34,-0.25,9.92,-0.03,-0.01,-0.00,31.47
61493881,1920,1,202875,229362,1.36,-0.24,9.90,-0.03,-0.01,-0.00,31.27
61532220,1972,1,203027,229593,1.36,-0.24,9.88,-0.03,-0.01,-0.00,31.27
61572194,1983,1,203118,229638,1.36,-0.22,9.90,-0.03,-0.01,-0.00,31.27
61612194,1980,1,203124,229437,1.36,-0.23,9.89,-0.03,-0.01,-0.00,31.27
61652194,1978,1,202669,226572,1.38,-0.24,9.90,-0.03,-0.01,-0.01,31.27
