timestamp_us,ecg,leads,ir,red,accX,accY,accZ,gyroX,gyroY,gyroZ,temp
1928488,1823,1,177378,229114,0.00,0.00,0.00,0.00,0.00,0.00,0.00
1958953,1755,1,177013,229672,0.17,-2.34,9.15,-0.04,0.03,-0.18,26.73
1999178,1786,1,177378,230587,-0.96,-2.38,7.87,-0.07,0.07,-0.18,26.73
2039187,1788,1,177143,229088,0.48,-1.44,9.14,-0.03,-0.13,-0.31,26.73
2079193,1808,1,176567,228133,-0.53,-1.73,9.53,-0.05,0.06,-0.19,26.73
2119188,1835,1,175746,225964,-0.27,-1.89,10.44,-0.08,-0.07,-0.22,26.73
2159206,1814,1,175036,224136,-0.20,-2.00,8.12,-0.02,-0.07,-0.31,26.73
2199225,1850,1,175239,223523,-0.15,-2.57,9.46,-0.01,0.06,-0.46,26.73
2239190,1847,1,175881,222930,-1.08,-2.31,10.78,-0.03,-0.02,-0.72,26.73
2279205,1872,1,176313,223592,-0.25,-2.20,10.75,0.05,0.05,-0.91,26.73
2319174,1891,1,177117,225474,-0.02,-2.41,11.00,0.05,0.07,-0.96,26.73
2359172,1693,1,177473,225076,0.32,-1.74,10.25,-0.01,-0.08,-0.70,26.73
2399223,1755,1,177142,224112,-0.30,-1.95,10.84,-0.04,-0.08,-0.65,26.73
2439207,1851,1,176703,224134,-0.36,-2.73,12.67,0.08,0.11,-0.33,26.73
2479174,1897,1,176317,222696,-0.77,-1.57,9.16,-0.01,0.06,-0.43,26.73
2519194,1966,1,175329,219773,-0.31,-2.46,9.92,-0.03,-0.08,-0.19,26.73
2559211,1941,1,173687,216037,0.34,-1.97,8.72,-0.05,-0.08,-0.19,26.73
2599194,1948,1,173036,215930,-0.22,-1.47,11.08,-0.05,-0.07,-0.15,26.73
2637212,1823,1,172991,216376,0.03,-1.74,9.06,-0.06,-0.02,0.11,26.73
2677172,1894,1,173207,216306,0.23,-2.09,9.23,-0.05,-0.01,-0.01,26.73
2717194,1781,1,172610,215198,0.17,-1.49,8.63,-0.06,0.05,0.16,26.73
2757164,1838,1,172263,214390,-0.11,-1.62,9.89,-0.13,-0.09,0.08,26.73
2797194,1798,1,172317,214922,-0.13,-2.47,11.11,-0.06,0.09,0.30,26.73
2837174,1744,1,172699,215434,-0.28,-1.27,8.80,-0.07,0.01,0.16,26.73
2877174,1680,1,173692,216965,-0.40,-2.23,9.74,-0.09,-0.04,0.15,26.73
2917192,1702,1,175006,218493,0.03,-1.82,9.18,-0.06,-0.09,0.00,26.73
2957174,1826,1,176024,219562,0.17,-1.67,12.03,-0.10,0.06,0.25,26.73
2997851,1770,1,176596,220429,-0.10,-2.00,10.62,-0.07,0.02,0.41,26.65
3038175,1777,1,177299,221756,0.25,-2.70,10.53,-0.07,0.05,0.28,26.65
3078165,1839,1,178475,222917,-0.38,-2.17,10.20,-0.08,-0.08,-0.02,26.65
3118219,1931,1,178779,222648,-0.54,-1.92,10.51,-0.06,-0.13,-0.14,26.65
3158208,2016,1,178737,222391,-0.31,-2.17,12.13,-0.05,0.11,-0.19,26.65
3198194,2000,1,178385,221543,-0.39,-1.43,9.82,-0.06,-0.01,-0.19,26.65
3238208,2000,1,177447,219966,-0.29,-1.84,9.35,-0.07,-0.08,-0.01,26.65
3278211,2018,1,176040,217909,-0.68,-1.66,9.39,-0.10,-0.06,-0.09,26.65
3318208,2045,1,174910,216534,-0.83,-1.59,9.70,-0.07,-0.14,-0.22,26.65
3358212,2108,1,174017,215353,0.43,-1.99,10.07,-0.03,0.04,-0.08,26.65
3398172,2046,1,173616,214962,0.57,-2.01,8.64,-0.06,0.10,0.11,26.65
3437165,2095,1,173678,216345,0.30,-2.22,7.64,-0.08,-0.09,0.03,26.65
3477172,2128,1,174951,218714,0.75,-2.57,8.72,-0.04,0.03,-0.14,26.65
3517174,2124,1,176125,219415,0.12,-1.63,9.73,-0.05,0.13,-0.16,26.65
3557174,2062,1,176677,219932,-0.16,-1.88,8.53,-0.01,0.01,-0.15,26.65
3597194,2031,1,176911,220085,0.50,-1.74,8.34,0.00,-0.09,-0.16,26.65
3637172,2000,1,177506,222303,-0.17,-2.02,10.08,-0.05,0.11,-0.14,26.65
3677194,1979,1,178022,225555,0.36,-1.47,9.40,-0.02,-0.01,-0.14,26.65
3717195,1968,1,179516,231731,-0.29,-2.25,11.79,-0.02,0.17,-0.14,26.65
3757195,1946,1,181079,233923,-0.07,-1.75,10.32,-0.01,-0.04,-0.14,26.65
3797208,1938,1,181851,234201,0.15,-1.78,10.81,0.01,-0.00,-0.14,26.65
3837174,1905,1,181698,234802,0.26,-1.47,10.85,-0.01,0.01,-0.14,26.65
3877175,1882,1,182047,235210,-0.04,-1.82,11.38,-0.04,-0.05,-0.13,26.65
3917211,1854,1,181924,235409,0.26,-1.65,10.74,0.01,0.00,-0.13,26.65
3957164,1777,1,181983,235143,-0.11,-1.87,10.69,-0.03,-0.03,-0.13,26.65
3997211,1777,1,181652,235543,0.00,-1.77,8.84,-0.01,-0.02,-0.13,26.65
4037882,1755,1,181559,234877,0.32,-1.46,8.92,-0.01,-0.00,-0.13,26.71
4076194,1791,1,181240,234843,-0.20,-1.50,10.41,-0.04,0.01,-0.12,26.71
4116195,1794,1,180785,233259,0.82,-1.89,9.28,-0.01,-0.05,-0.13,26.71
4156194,1771,1,180153,232729,0.00,-2.18,8.87,-0.03,-0.00,-0.12,26.71
4196192,1781,1,180179,232622,0.11,-1.47,8.44,-0.05,-0.09,-0.13,26.71
4236194,1765,1,180179,231542,0.33,-0.97,9.53,-0.01,-0.01,-0.13,26.71
4276194,1764,1,179020,226919,0.62,-1.02,10.19,-0.03,0.00,-0.13,26.71
4316174,1744,1,178295,226355,0.48,-0.86,9.88,-0.02,-0.08,-0.12,26.71
4356192,1745,1,178471,226683,1.31,-1.77,8.90,-0.01,-0.03,-0.12,26.71
4396194,1781,1,178511,227438,0.64,-1.53,8.61,-0.05,-0.08,-0.11,26.71
4436194,1815,1,178780,226942,0.90,-1.17,9.10,-0.04,-0.06,-0.11,26.71
4477194,1862,1,178736,227908,0.44,-0.96,11.08,-0.05,0.12,-0.10,26.71
4517172,1882,1,178499,225927,1.14,-0.91,9.84,-0.03,-0.03,-0.09,26.71
4557195,1877,1,178220,226774,0.96,-2.02,10.97,-0.05,0.17,-0.08,26.71
4597174,1904,1,178093,225668,0.76,-1.37,8.59,-0.05,-0.07,-0.09,26.71
4637194,1925,1,178142,225723,0.70,-1.40,10.39,-0.02,0.01,-0.08,26.71
4677172,1918,1,177626,224675,1.05,-1.36,10.02,-0.02,0.00,-0.08,26.71
4717174,1770,1,178243,227041,0.02,-1.18,11.15,-0.02,0.16,-0.07,26.71
4757174,1853,1,178210,226617,1.40,-1.33,8.72,0.01,-0.06,-0.07,26.71
4797174,1872,1,179015,230683,0.05,-1.48,9.92,-0.04,0.06,-0.06,26.71
4837172,1958,1,179843,232500,1.38,-0.74,8.74,-0.00,-0.03,-0.07,26.71
4877194,1936,1,181418,236036,0.34,-1.43,12.14,-0.04,0.08,-0.06,26.71
4917171,1968,1,181889,236033,1.32,-0.78,10.32,-0.02,-0.02,-0.06,26.71
4957194,1937,1,181929,235499,0.71,-1.10,10.24,-0.03,0.02,-0.05,26.71
4997172,1893,1,181477,234845,0.79,-0.68,9.58,-0.03,-0.05,-0.05,26.71
5035193,1944,1,181682,234387,1.28,-0.72,10.65,-0.06,-0.03,-0.04,26.71
5075880,1934,1,181370,234441,0.86,-0.97,10.34,-0.03,-0.05,-0.04,26.79
5116194,1899,1,181304,231923,1.49,-1.06,10.84,-0.04,-0.07,-0.04,26.79
5156194,1855,1,180445,231847,0.85,-1.90,10.07,-0.06,0.02,-0.03,26.79
5196174,1882,1,180514,231499,1.11,-1.15,8.00,-0.02,-0.17,-0.03,26.79
5236191,1904,1,180894,233804,0.59,-1.17,10.49,-0.02,0.14,-0.02,26.79
5276174,1918,1,181283,234233,1.16,-0.78,9.60,-0.04,-0.04,-0.03,26.79
5316191,1903,1,181373,234484,0.95,-1.18,12.09,-0.02,0.05,-0.02,26.79
5356174,1907,1,181267,234429,1.20,-1.05,8.90,-0.03,-0.07,-0.01,26.79
5396189,1911,1,181409,235005,1.40,-1.45,9.41,-0.06,-0.10,-0.01,26.79
5436194,1907,1,181648,235313,0.99,-1.30,9.55,-0.05,-0.04,-0.01,26.79
5475191,1883,1,181416,234380,1.68,-0.93,8.43,-0.03,-0.20,-0.02,26.79
5515194,1830,1,181318,233479,0.77,-1.00,11.83,-0.06,-0.03,-0.00,26.79
5555191,1893,1,180976,233247,1.69,-0.61,10.71,-0.04,0.06,0.00,26.79
5595165,1897,1,180580,230631,1.06,-0.68,9.01,-0.03,-0.10,0.01,26.79
5635172,1911,1,179840,228817,1.38,-1.33,10.92,-0.05,0.05,0.01,26.79
5675165,1920,1,179024,227338,1.49,-0.77,8.83,-0.03,-0.25,0.02,26.79
5715174,1809,1,179005,226898,1.17,-1.49,10.16,-0.06,-0.02,0.06,26.79
5755174,1830,1,178577,225549,1.28,-0.70,9.56,-0.03,-0.05,0.03,26.79
5795172,1818,1,178185,225314,1.50,-1.62,11.46,-0.10,0.23,0.02,26.79
5835166,1828,1,177905,225754,0.97,-1.32,7.29,-0.04,0.02,0.02,26.79
5875161,1851,1,178271,226279,1.30,-1.49,9.11,-0.03,-0.07,0.01,26.79
5915174,1872,1,178691,229026,0.93,-1.06,9.18,-0.05,0.02,0.02,26.79
5955161,1851,1,179336,229478,1.48,-0.52,8.43,-0.03,-0.07,0.01,26.79
5995174,1883,1,180060,230782,1.06,-0.96,11.03,-0.05,0.01,0.02,26.79
6035161,1905,1,179550,229069,1.79,-0.52,8.14,-0.02,-0.05,0.02,26.79
6075174,1907,1,179392,229393,1.16,-0.93,9.79,-0.04,-0.01,0.03,26.79
6115858,1918,1,179114,229666,1.57,-1.32,7.48,-0.01,-0.08,0.02,26.85
6156174,1904,1,179762,231440,1.40,-0.91,10.29,-0.05,-0.07,0.02,26.85
6194172,1917,1,180738,232709,1.01,-1.25,9.72,-0.05,0.11,0.03,26.85
6234165,1897,1,180767,232439,1.26,-0.86,10.30,-0.02,-0.02,0.03,26.85
6274172,1914,1,181637,231909,0.57,-1.41,12.34,-0.04,0.22,0.03,26.85
6314166,1927,1,179998,229975,1.39,-0.93,7.48,0.03,-0.14,0.03,26.85
6354161,1908,1,180331,229636,1.01,-1.12,10.17,-0.04,0.03,0.03,26.85
6394165,1909,1,179681,230146,1.21,-0.74,9.24,-0.01,-0.03,0.04,26.85
6434172,1915,1,180343,229606,1.18,-0.66,10.00,-0.04,0.05,0.04,26.85
6474165,1950,1,180034,230810,0.85,-0.88,11.11,-0.02,0.14,0.05,26.85
6515162,1945,1,180729,231788,1.36,-1.02,9.55,-0.02,0.08,0.05,26.85
6555165,1909,1,181112,233645,0.57,-0.89,10.10,-0.03,0.05,0.05,26.85
6595161,1914,1,181611,235311,1.58,-1.09,9.34,-0.03,0.04,0.05,26.85
6635165,1895,1,182900,237679,0.29,-1.32,9.83,-0.04,0.06,0.04,26.85
6675162,1883,1,183483,238459,1.30,-1.10,9.45,-0.01,-0.04,-0.10,26.85
6715194,1904,1,184433,239292,0.55,-1.19,12.80,-0.03,0.06,0.00,26.85
6755161,1903,1,184492,239983,1.12,-0.88,9.53,-0.02,0.02,0.04,26.85
6795160,1918,1,185142,239721,0.42,-1.09,10.68,-0.06,-0.04,0.05,26.85
6835171,1959,1,184760,240226,1.09,-1.01,10.31,-0.03,0.01,0.05,26.85
6875160,1979,1,184877,239340,1.04,-0.71,9.89,-0.07,-0.05,0.05,26.85
6915171,1936,1,184554,239415,0.97,-1.04,10.12,-0.05,-0.02,0.05,26.85
6955171,1953,1,184100,235704,1.31,-0.59,10.77,-0.09,-0.10,0.05,26.85
6995171,1913,1,182667,234359,0.79,-1.11,11.94,-0.07,0.05,0.06,26.85
7035160,1965,1,182095,232494,1.05,-1.07,9.46,-0.07,-0.04,0.05,26.85
7075171,1917,1,181023,230980,0.87,-1.03,10.42,-0.08,-0.01,0.06,26.85
7115231,1946,1,180381,230312,1.33,-0.91,8.36,-0.06,-0.02,0.22,26.85
7155858,1861,1,180119,229800,1.09,-0.26,9.19,-0.06,-0.12,0.08,26.93
7194171,1877,1,179924,230191,1.58,-1.13,9.79,-0.07,0.02,0.14,26.93
7234160,1883,1,179861,229282,1.27,-0.55,9.26,-0.07,-0.03,0.06,26.93
7274171,1894,1,180067,230889,1.07,-1.44,10.04,-0.05,0.11,0.08,26.93
7314172,1893,1,180351,231030,1.67,-1.21,8.94,-0.06,-0.03,0.07,26.93
7354173,1829,1,181001,232651,0.62,-1.56,10.13,-0.05,0.04,0.07,26.93
7394160,1878,1,181094,233265,1.52,-0.72,8.41,-0.02,-0.05,0.07,26.93
7434171,1852,1,182123,235405,0.99,-1.04,10.56,-0.05,-0.01,0.07,26.93
7474171,1846,1,182441,235680,1.65,-0.79,9.14,0.01,-0.06,0.07,26.93
7514160,1876,1,183209,236511,1.13,-0.57,11.79,-0.03,-0.02,0.08,26.93
7553171,1891,1,183403,237301,1.43,-0.84,9.72,0.01,0.04,0.09,26.93
7593141,1883,1,183459,236060,1.31,-0.95,10.53,-0.01,-0.06,0.08,26.93
7633172,1881,1,182923,235161,1.15,-1.04,10.75,-0.01,0.03,0.09,26.93
7673159,1887,1,182477,234812,1.45,-0.66,9.12,-0.02,-0.10,0.09,26.93
7713172,1888,1,182826,234551,1.02,-0.58,11.00,-0.02,0.02,0.09,26.93
7753160,1871,1,182123,234331,1.43,-0.63,10.03,-0.00,-0.05,0.10,26.93
7793172,1891,1,182468,234352,1.37,-0.44,11.13,-0.04,0.03,0.10,26.93
7833172,1907,1,182625,236155,1.57,-0.74,10.02,-0.02,-0.00,0.10,26.93
7873172,1921,1,183011,235611,1.64,-0.73,9.25,-0.05,-0.08,0.10,26.93
7913172,1907,1,183248,237614,0.89,-1.08,10.92,-0.04,0.02,0.11,26.93
7953159,1926,1,183445,236632,1.69,-0.30,8.89,-0.04,-0.11,0.10,26.93
7993172,1904,1,183774,238106,0.77,-0.31,12.05,-0.03,0.01,0.11,26.93
8033160,1911,1,183753,237613,1.98,-0.42,9.52,-0.03,-0.06,0.11,26.93
8073173,1910,1,183988,238305,1.30,-0.42,11.36,-0.05,-0.05,0.11,26.93
8113173,1910,1,184350,238544,1.42,-0.52,10.58,-0.03,0.06,0.12,26.93
8153164,1893,1,184377,238618,1.28,-0.96,10.12,-0.03,-0.05,0.12,26.93
8193859,1920,1,184651,238960,1.29,-0.86,10.30,-0.05,-0.02,0.12,26.99
8234171,1902,1,184510,239595,1.63,-0.88,9.77,-0.02,-0.07,0.12,26.99
8274171,1897,1,184812,239440,1.84,-0.90,8.76,-0.05,-0.09,0.12,26.99
8314171,1890,1,184962,239803,1.23,-0.61,10.36,-0.04,-0.05,0.12,26.99
8354172,1783,1,185153,240233,1.93,-0.45,9.49,-0.03,-0.09,-0.06,26.99
8394194,1751,1,185527,240619,1.35,-0.75,11.59,-0.03,-0.03,0.06,26.99
8434174,1729,1,185183,239428,1.96,-0.77,9.45,-0.04,-0.06,0.11,26.99
8474174,1794,1,184941,239161,1.28,-0.90,10.21,-0.05,-0.07,0.13,26.99
8514171,1876,1,184618,238860,1.74,-0.67,8.94,-0.04,-0.07,0.12,26.99
8554174,1909,1,184497,238547,1.73,-1.02,10.52,-0.06,-0.09,0.13,26.99
8594171,1920,1,183956,237356,1.92,-0.45,9.17,-0.05,-0.06,0.13,26.99
8634171,1959,1,183280,235525,1.97,-0.43,9.68,-0.03,-0.14,0.13,26.99
8672173,1955,1,182321,233910,1.95,0.11,10.94,-0.03,0.01,0.13,26.99
8712142,1911,1,181528,232978,1.92,-0.51,8.78,-0.05,0.01,0.31,26.99
8752181,1933,1,181557,232878,2.00,-0.47,9.51,-0.03,-0.04,0.16,26.99
8792173,1919,1,182025,234689,1.91,-0.36,9.80,-0.04,0.06,0.15,26.99
8832161,1937,1,182615,235465,1.93,-0.91,9.06,-0.05,0.00,0.14,26.99
8872164,1958,1,183079,236955,1.79,-0.69,9.48,-0.03,-0.04,0.15,26.99
8912174,1914,1,183515,237211,1.70,-0.05,8.89,-0.03,-0.04,0.15,26.99
8952172,1926,1,183778,237369,2.01,-0.22,10.42,-0.02,-0.01,0.15,26.99
8992174,1899,1,184201,238462,2.21,-0.38,9.84,-0.02,-0.03,0.15,26.99
9032173,1924,1,185098,240070,1.74,-0.28,11.04,-0.03,-0.02,0.16,26.99
9072174,1920,1,185517,240925,1.85,-0.75,9.80,-0.02,-0.01,0.16,26.99
9112173,1917,1,185888,241382,1.62,-0.85,10.68,-0.04,-0.08,0.16,26.99
9152173,1927,1,186145,242211,1.74,-0.69,10.46,-0.03,0.00,0.16,26.99
9192165,1931,1,186387,242591,1.91,-0.70,9.83,-0.04,-0.09,0.16,26.99
9232858,1914,1,186543,242750,1.53,-0.64,10.80,-0.03,-0.06,0.14,26.83
9273174,1813,1,186781,242992,1.92,-0.16,10.99,-0.01,-0.04,0.11,26.83
9313174,1588,1,186874,243079,1.72,-0.84,10.81,-0.03,-0.05,0.10,26.83
9353174,1712,1,186963,242742,1.66,-0.77,10.58,-0.03,-0.06,0.13,26.83
9393174,1793,1,186718,241588,1.53,-0.77,10.02,-0.02,-0.06,0.16,26.83
9433174,1770,1,186265,240524,1.26,-0.74,9.88,-0.00,-0.04,0.17,26.83
9473172,1877,1,185738,239563,1.60,-0.75,9.67,-0.02,-0.09,0.16,26.83
9513174,1904,1,185458,239543,1.60,-0.51,9.57,-0.01,-0.07,0.17,26.83
9553172,1886,1,185012,238270,1.99,-0.26,8.14,-0.01,-0.15,0.16,26.83
9593174,1947,1,184535,236836,1.83,-0.43,9.96,-0.02,-0.08,0.17,26.83
9633174,1946,1,184015,235979,2.28,-0.16,8.55,-0.01,-0.07,0.17,26.83
9673174,1984,1,184136,236612,1.75,-0.18,9.67,-0.00,0.00,0.17,26.83
9713161,2060,1,184467,237526,2.21,-0.81,9.39,-0.02,0.01,0.17,26.83
9753161,2047,1,185321,239457,1.80,-0.72,9.50,-0.01,-0.00,0.17,26.83
9793171,2035,1,185922,240702,2.00,-0.61,9.24,-0.01,-0.02,0.17,26.83
9833171,2019,1,186692,242398,1.77,-0.94,9.02,-0.01,-0.01,0.17,26.83
9873171,1989,1,187278,243381,2.29,-0.13,9.62,0.00,-0.03,0.16,26.83
9913160,2014,1,188026,244185,1.62,-0.57,10.55,-0.00,0.03,0.17,26.83
9951161,1902,1,188158,244606,2.44,0.55,9.63,0.00,-0.06,0.06,26.83
9991142,1904,1,188586,244784,1.71,-1.03,12.41,-0.02,0.01,0.12,26.83
10031165,1851,1,188493,244601,1.98,-0.37,9.68,0.02,0.01,0.14,26.83
10071141,1899,1,188513,243377,1.61,-0.80,11.71,-0.03,-0.06,0.17,26.83
10111171,1923,1,187730,242651,1.31,-0.40,9.28,0.01,0.03,0.17,26.83
10151141,1917,1,187008,242184,2.37,-0.65,9.19,0.00,-0.15,0.17,26.83
10191160,1907,1,187536,243845,1.75,-0.22,9.91,-0.00,0.01,0.17,26.83
10231160,1915,1,187918,243972,2.47,0.33,8.01,0.02,-0.10,0.16,26.83
10271827,1938,1,188399,242923,1.20,-0.69,11.88,-0.01,0.02,0.19,26.87
10312164,1853,1,187406,242634,2.21,0.42,10.33,-0.01,-0.00,0.17,26.87
10352160,1882,1,187622,241878,1.54,-0.80,11.14,-0.04,-0.06,0.17,26.87
10392223,1879,1,187127,241886,1.70,-0.29,11.00,-0.00,0.02,0.18,26.87
10432159,1914,1,187434,242320,1.68,-0.86,9.65,-0.02,-0.05,0.17,26.87
10472171,1901,1,187551,242563,1.59,-0.45,10.71,-0.01,-0.01,0.18,26.87
10512171,1918,1,187751,243261,1.75,-0.96,11.02,-0.03,-0.05,0.17,26.87
10552171,1897,1,187789,242931,2.21,0.12,9.91,-0.02,-0.06,0.17,26.87
10592193,1887,1,187731,242466,1.72,-0.22,11.52,-0.03,-0.02,0.18,26.87
10632171,1911,1,186820,241523,2.55,0.09,7.39,-0.02,-0.11,0.17,26.87
10672160,1882,1,186967,241133,2.04,-0.60,11.86,-0.05,-0.03,0.17,26.87
10712171,1905,1,186469,241594,2.16,-0.25,7.80,-0.01,0.01,0.18,26.87
10752160,1890,1,187416,242101,1.77,-1.01,10.94,-0.05,-0.01,0.18,26.87
10792173,1851,1,187069,242016,2.04,-0.17,7.97,0.02,0.02,0.18,26.87
10832137,1854,1,187289,242566,1.86,-0.94,10.33,-0.03,-0.03,0.18,26.87
10872171,1895,1,187381,243302,2.20,-0.48,8.89,0.01,0.03,0.18,26.87
10912137,1890,1,188214,244098,1.55,-1.94,11.63,-0.04,-0.05,0.16,26.87
10952173,1872,1,188491,244590,2.07,-0.08,8.20,0.07,0.02,0.00,26.87
10992138,1794,1,189006,244697,1.24,-0.11,10.89,0.01,-0.01,0.03,26.87
11032159,1840,1,188572,244616,2.16,0.60,9.01,0.02,-0.04,0.13,26.87
11072137,1855,1,188821,244519,1.61,-0.16,11.89,-0.03,-0.07,0.17,26.87
11112171,1883,1,188657,244784,2.19,-0.27,8.96,-0.00,-0.00,0.17,26.87
11150171,1918,1,189052,244593,1.58,-0.74,11.20,-0.01,-0.07,0.17,26.87
11190171,1915,1,188564,243841,2.03,-0.42,9.32,-0.01,-0.05,0.18,26.87
11230171,1905,1,188540,243409,1.77,-0.69,10.30,-0.01,-0.08,0.17,26.87
11270171,1897,1,188114,242699,2.22,0.01,9.58,0.01,-0.06,0.17,26.87
11310825,1930,1,187687,242201,2.23,-0.38,9.95,-0.03,-0.12,0.18,26.93
11351173,1868,1,187281,241717,2.32,-0.30,9.95,-0.02,-0.02,0.17,26.93
11391171,1884,1,187114,241445,2.02,-0.06,9.92,-0.01,-0.09,0.18,26.93
11431171,1883,1,186898,241493,1.82,-0.39,10.42,-0.04,-0.04,0.20,26.93
11471171,1908,1,187393,241868,1.46,-0.82,10.19,-0.03,0.03,0.18,26.93
11511159,1936,1,187003,241903,2.17,-0.59,9.70,-0.00,-0.08,0.17,26.93
11551171,1922,1,187474,241460,1.63,-0.51,11.14,-0.05,-0.00,0.17,26.93
11591171,1916,1,186670,240838,2.08,-0.35,8.50,0.01,-0.02,0.18,26.93
11631159,1932,1,186653,239904,2.37,-0.40,10.12,-0.03,-0.11,0.17,26.93
11671171,1938,1,186407,241214,2.04,0.11,10.26,-0.03,0.07,0.23,26.93
11711138,1904,1,186635,240264,2.25,-0.32,8.69,-0.04,-0.08,0.17,26.93
11751171,1904,1,186641,241253,1.54,-0.55,10.87,-0.01,0.09,0.20,26.93
11791159,1906,1,186938,241782,2.22,-0.08,8.40,-0.03,-0.01,0.18,26.93
11831171,1915,1,187656,243293,1.81,-0.29,11.21,-0.01,0.05,0.18,26.93
11871159,1911,1,188516,244600,1.81,-1.07,8.36,-0.02,0.01,0.18,26.93
11911164,1901,1,189177,245164,1.74,-0.42,10.10,-0.01,-0.07,0.09,26.93
11951171,1872,1,189473,245545,1.62,-0.95,10.81,0.01,0.08,0.13,26.93
11991141,1861,1,189554,245481,1.81,0.26,9.83,-0.01,-0.02,0.04,26.93
12031166,1890,1,189411,244916,1.81,-0.33,10.47,-0.03,-0.04,0.13,26.93
12071171,1909,1,189128,244765,2.20,0.51,9.90,-0.02,-0.05,0.14,26.93
12111159,1919,1,188649,243727,2.11,0.09,10.16,-0.04,-0.07,0.17,26.93
12151159,1911,1,188281,243056,1.75,-0.20,10.39,-0.04,-0.02,0.17,26.93
12191171,1920,1,187485,241854,2.70,0.18,10.18,-0.04,-0.12,0.17,26.93
12231171,1911,1,187083,240364,1.75,-0.30,9.69,-0.04,-0.03,0.19,26.93
12271171,1919,1,186560,240032,1.65,-0.09,8.92,-0.02,-0.02,0.20,26.93
12311857,1951,1,186781,239317,1.51,-0.44,10.32,-0.02,-0.03,0.19,26.87
12350171,1923,1,186463,239575,1.29,-0.87,11.00,-0.02,0.08,0.27,26.87
12390160,1922,1,186188,239222,2.32,-0.76,8.72,-0.02,-0.04,0.17,26.87
12430171,1938,1,186550,239229,1.00,-0.49,9.97,-0.00,0.00,0.18,26.87
12470160,1940,1,186143,239836,2.23,-0.58,8.56,-0.00,-0.00,0.20,26.87
12510171,1914,1,186738,240639,2.47,-0.10,9.45,-0.02,-0.03,0.17,26.87
12550171,1935,1,186869,241423,1.82,-0.18,8.76,-0.01,-0.03,0.18,26.87
12590171,1918,1,187346,242367,2.35,-0.10,10.63,-0.05,0.00,0.17,26.87
12630160,1894,1,187965,242912,1.97,-0.34,9.86,-0.02,0.00,0.18,26.87
12670160,1893,1,188078,243601,2.20,0.05,9.92,-0.01,-0.05,0.17,26.87
12710160,1898,1,188450,243682,1.97,-0.81,10.79,-0.05,-0.02,0.12,26.87
12750171,1909,1,188587,244209,1.64,-0.52,10.93,-0.01,-0.01,0.18,26.87
12790171,1888,1,188534,243916,2.28,-0.52,8.87,-0.03,-0.06,0.14,26.87
12830171,1898,1,188736,244049,1.08,-0.87,11.99,-0.01,0.03,0.18,26.87
12870160,1904,1,188257,242961,1.98,-0.36,8.90,-0.02,-0.08,0.15,26.87
12910171,1870,1,187952,241441,1.12,-0.66,11.26,-0.03,-0.03,0.18,26.87
12950171,1909,1,186881,239439,2.12,-0.08,9.11,-0.01,-0.03,0.17,26.87
12990165,1918,1,186709,239376,1.20,-0.04,9.96,-0.00,-0.05,0.17,26.87
13030171,1910,1,186514,239780,1.86,-0.15,8.92,-0.03,-0.03,0.17,26.87
13070171,1910,1,187041,240278,2.11,-0.70,10.06,-0.07,-0.11,0.17,26.87
13110171,1928,1,187014,239928,1.87,-0.23,9.36,-0.04,-0.05,0.17,26.87
13150171,1904,1,186827,239170,1.79,-0.68,9.77,-0.04,-0.08,0.16,26.87
13190171,1921,1,185981,237582,1.74,-0.33,9.69,-0.03,-0.07,0.16,26.87
13230171,1903,1,185271,236335,1.32,-0.77,10.27,-0.04,-0.04,0.17,26.87
13270171,1903,1,184530,235712,1.98,-0.57,8.90,-0.05,-0.03,0.20,26.87
13310171,1869,1,184498,235579,1.48,-0.86,10.01,-0.05,-0.03,0.19,26.87
13350857,1879,1,184231,235939,2.09,-0.75,9.01,-0.02,0.03,0.21,26.93
13389160,1869,1,184545,236497,1.75,-0.97,9.35,-0.06,-0.04,0.16,26.93
13429171,1893,1,184586,237198,1.92,-0.58,8.23,-0.03,-0.06,0.16,26.93
13469171,1874,1,185160,238235,2.35,-0.69,10.20,-0.04,-0.03,0.16,26.93
13509171,1862,1,185736,239863,2.01,-0.31,8.72,-0.01,0.03,0.15,26.93
13549160,1874,1,186714,241396,1.51,-1.04,9.56,-0.03,-0.01,0.15,26.93
13589171,1905,1,187562,242862,1.38,-0.51,9.08,-0.02,0.03,0.15,26.93
13629159,1905,1,187955,242622,1.82,-0.71,10.70,-0.03,-0.03,0.08,26.93
13669213,1895,1,187701,241424,1.41,-1.13,9.99,0.00,0.08,0.05,26.93
13709142,1766,1,187469,241169,1.52,-0.51,8.98,-0.02,-0.04,0.08,26.93
13749171,1872,1,187817,242130,1.18,-1.48,12.36,-0.04,-0.01,0.10,26.93
13789171,1819,1,188090,242635,1.55,-0.38,9.97,-0.02,-0.03,0.07,26.93
13829173,1829,1,188250,242748,1.07,-1.44,10.89,-0.03,-0.03,0.14,26.93
13869175,1881,1,188261,242201,1.35,-0.44,10.44,-0.03,-0.04,0.13,26.93
13909173,1936,1,187666,240767,1.01,-0.93,10.30,-0.04,-0.07,0.14,26.93
13949171,1981,1,186780,239149,1.31,-0.66,10.40,-0.02,-0.05,0.14,26.93
13989171,1968,1,186033,238109,1.78,-0.68,10.22,-0.02,-0.07,0.14,26.93
14029171,1968,1,185473,237479,1.59,-0.35,9.70,-0.03,-0.05,0.13,26.93
14069171,1975,1,185468,237819,0.80,-1.04,9.37,-0.05,-0.01,0.13,26.93
14109171,1983,1,185293,237629,1.58,-0.78,8.83,-0.06,-0.11,0.12,26.93
14149171,1968,1,185758,238893,1.24,-1.10,10.73,-0.06,-0.02,0.13,26.93
14189171,1969,1,185786,238973,1.98,-0.70,8.43,-0.03,-0.04,0.11,26.93
14229171,1902,1,186245,239795,1.26,-1.39,8.60,-0.05,-0.04,0.11,26.93
14269171,1963,1,186659,240639,0.94,-1.08,8.93,-0.05,-0.03,0.11,26.93
14309171,1938,1,187246,241490,1.05,-1.73,9.62,-0.05,0.00,0.09,26.93
14349159,1936,1,187258,240525,1.12,-1.49,8.71,-0.03,0.02,0.08,26.93
14389845,1906,1,186490,238625,1.16,-1.70,9.75,-0.03,0.01,0.07,26.83
14428160,1905,1,186098,237953,1.03,-1.23,9.52,-0.05,-0.00,0.10,26.83
14468171,1907,1,185996,238043,0.99,-1.60,10.47,-0.05,-0.01,0.09,26.83
14508171,1920,1,186024,238284,1.75,-1.06,9.39,-0.03,-0.01,0.08,26.83
14548172,1887,1,186078,238134,1.45,-1.00,10.31,-0.02,-0.01,0.08,26.83
14588171,1910,1,186005,238082,0.75,-1.12,9.68,-0.04,0.03,0.08,26.83
14628160,1936,1,185522,236969,1.15,-0.93,9.27,-0.05,-0.04,0.07,26.83
14668171,1919,1,185173,236410,0.95,-1.15,10.75,-0.03,0.07,0.08,26.83
14708160,1937,1,184785,236310,1.01,-1.48,9.32,-0.03,0.05,0.07,26.83
14748159,1902,1,184830,236004,0.31,-1.62,9.41,-0.06,0.01,0.07,26.83
14788160,1895,1,184811,236306,0.42,-1.78,9.80,-0.05,0.02,0.07,26.83
14828159,1893,1,185045,237703,0.85,-1.62,9.89,-0.04,0.04,0.07,26.83
14868160,1916,1,185731,238720,0.53,-1.98,9.42,-0.05,0.02,0.06,26.83
14908160,1904,1,186160,239697,0.38,-1.79,9.76,-0.05,-0.00,0.06,26.83
14948171,1907,1,186246,239166,0.29,-1.66,9.84,-0.07,-0.03,0.05,26.83
14988171,1859,1,185710,238538,0.60,-1.55,9.94,-0.03,0.01,0.05,26.83
15028159,1840,1,185059,236150,1.07,-1.58,8.91,-0.05,-0.05,0.04,26.83
15068171,1805,1,183856,233594,0.50,-1.25,10.14,-0.05,-0.03,0.05,26.83
15108171,1866,1,183159,232937,0.64,-1.11,9.30,-0.05,0.02,0.04,26.83
15148159,1873,1,182707,231934,0.98,-1.40,9.93,-0.04,-0.01,0.04,26.83
15188171,1866,1,182347,231751,0.94,-1.55,9.92,-0.02,-0.01,0.04,26.83
15228171,1902,1,182350,232255,0.47,-1.83,9.92,-0.03,-0.01,0.04,26.83
15268171,1911,1,182712,233352,0.47,-2.03,9.77,-0.03,-0.01,0.05,26.83
15308187,1924,1,183198,233808,0.56,-1.95,10.15,-0.00,-0.01,0.05,26.83
15348171,1954,1,182565,232446,1.02,-1.58,10.02,0.01,-0.07,0.04,26.83
15388160,1963,1,182462,233284,0.11,-2.27,10.10,-0.01,-0.03,0.05,26.83
15428857,1963,1,182518,233857,0.63,-1.29,9.05,0.02,-0.05,0.04,26.79
15467159,1899,1,183342,235746,0.82,-1.15,10.80,0.02,-0.01,0.04,26.79
15507176,1907,1,183638,236538,0.98,-1.07,9.32,0.04,-0.04,0.04,26.79
15547159,1892,1,184109,237133,0.62,-1.31,9.66,-0.01,-0.08,0.03,26.79
15587171,1943,1,184789,238019,0.66,-1.25,10.33,0.01,-0.04,0.04,26.79
15627160,1919,1,184838,238240,0.91,-1.29,9.37,0.03,-0.04,0.00,26.79
15667159,1946,1,184889,237656,0.64,-1.34,10.62,0.02,-0.04,0.03,26.79
15707159,1914,1,184372,236227,0.61,-1.14,9.97,0.01,-0.08,0.04,26.79
15747165,1885,1,183520,233302,0.53,-1.53,10.52,-0.01,-0.04,0.04,26.79
15787171,1881,1,182263,230678,0.89,-1.57,9.72,-0.01,-0.07,0.03,26.79
15827171,1872,1,181386,229504,0.89,-1.51,10.18,0.00,-0.09,0.05,26.79
15867160,1904,1,180735,228357,1.06,-1.20,9.74,0.00,-0.09,0.05,26.79
15907160,1925,1,179984,227433,0.87,-1.59,9.24,-0.03,-0.03,0.17,26.79
15947171,1950,1,179612,226832,1.15,-1.05,9.16,-0.01,-0.12,0.05,26.79
15987171,1933,1,179547,226622,1.51,-0.90,10.63,-0.01,-0.07,0.04,26.79
16027171,1943,1,179418,227207,1.44,-0.75,9.17,-0.00,-0.00,0.12,26.79
16067171,1936,1,179492,226457,1.08,-0.93,8.89,-0.03,-0.09,0.03,26.79
16107165,1889,1,179466,227151,1.08,-0.87,10.89,-0.04,0.03,0.06,26.79
16147160,1924,1,179637,227174,1.59,-0.80,8.93,-0.02,-0.00,0.03,26.79
16187171,1899,1,180226,229057,1.42,-1.19,10.57,-0.02,0.03,0.03,26.79
16227159,1904,1,180894,229251,1.16,-1.03,8.86,-0.03,-0.01,0.03,26.79
16267171,1877,1,180946,230374,0.83,-1.33,10.14,-0.02,0.01,0.04,26.79
16307159,1935,1,181807,231976,1.06,-1.43,9.93,-0.03,0.05,0.04,26.79
16347160,1898,1,182188,233912,0.90,-1.35,9.30,-0.01,0.00,0.04,26.79
16387159,1927,1,183626,236146,1.11,-1.20,10.58,-0.03,0.03,0.04,26.79
16427159,1908,1,183784,236479,0.85,-0.99,9.29,-0.01,0.01,0.02,26.79
16467846,1920,1,183629,235000,0.98,-1.36,8.92,-0.04,0.01,0.04,26.77
16506160,1913,1,183605,235381,1.42,-1.04,10.34,-0.03,-0.01,0.01,26.77
16546171,1902,1,183987,236540,1.23,-1.07,9.63,-0.02,0.04,-0.03,26.77
16586172,1896,1,184168,236492,0.77,-0.83,9.24,-0.05,-0.02,-0.06,26.77
16626190,1781,1,184409,236959,0.76,-1.36,10.55,-0.05,0.02,0.02,26.77
16666160,1810,1,184561,237452,1.16,-0.81,10.07,-0.04,0.03,-0.03,26.77
16706171,1823,1,184759,237461,1.09,-1.64,10.65,-0.04,0.01,0.00,26.77
16746160,1885,1,184455,236829,1.22,-0.84,9.16,-0.03,-0.03,0.00,26.77
16786171,1908,1,184357,235880,0.52,-1.79,10.88,-0.05,-0.00,0.02,26.77
16826171,1935,1,183651,234643,0.66,-1.55,9.82,-0.05,-0.00,0.04,26.77
16866171,1902,1,183188,233982,0.57,-1.91,9.64,-0.05,0.01,0.03,26.77
16906159,1913,1,182828,233295,1.16,-1.39,10.72,-0.03,0.00,0.03,26.77
16946166,1958,1,182640,234252,0.55,-1.88,9.83,-0.03,0.02,0.04,26.77
16986159,1930,1,183120,235373,0.23,-1.64,9.03,-0.04,0.02,0.03,26.77
17026164,1946,1,183916,237119,0.37,-1.62,10.65,-0.05,0.02,-0.01,26.77
17066171,1927,1,184617,238112,0.94,-1.09,10.18,-0.02,0.04,-0.07,26.77
17106171,1909,1,184556,236739,1.18,-1.72,9.77,-0.02,0.03,-0.02,26.77
17146174,1915,1,184030,235401,0.63,-1.37,9.61,-0.03,-0.04,-0.12,26.77
17186190,1885,1,183415,234242,0.42,-1.12,9.93,-0.05,-0.04,-0.01,26.77
17226186,1920,1,182993,233292,0.26,-1.52,10.82,-0.06,-0.02,-0.04,26.77
17266192,1866,1,182377,233204,0.57,-1.70,9.96,-0.04,0.01,0.01,26.77
17306159,1914,1,182519,232102,0.95,-1.10,9.91,-0.06,-0.06,-0.00,26.77
17346188,1873,1,182382,232396,0.43,-1.51,11.21,-0.03,0.03,0.01,26.77
17386159,1943,1,182144,232587,0.89,-1.77,8.74,-0.04,-0.02,-0.00,26.77
17426188,1919,1,182514,232908,0.30,-1.84,9.73,-0.06,-0.05,0.00,26.77
17466171,1936,1,182557,233157,0.17,-1.53,9.68,-0.06,-0.01,0.00,26.77
17506857,1898,1,182444,232073,0.24,-1.44,10.17,-0.06,-0.01,0.00,26.79
17545171,1936,1,181726,231784,0.94,-1.72,9.33,-0.02,0.01,0.00,26.79
17586160,1917,1,181506,230694,1.01,-1.88,8.65,-0.04,-0.06,0.00,26.79
17626171,1882,1,181154,230675,0.79,-1.73,10.11,-0.02,-0.02,0.01,26.79
17666171,1918,1,181261,230905,0.30,-2.27,8.94,-0.04,-0.01,0.01,26.79
17706171,1921,1,181278,231009,0.35,-1.79,8.90,-0.04,-0.02,0.01,26.79
17746171,1909,1,181467,230469,0.24,-1.54,9.95,-0.03,0.01,0.01,26.79
17786159,1909,1,181176,229888,0.67,-0.83,10.46,0.00,0.05,0.01,26.79
17826141,1894,1,181006,229836,1.30,-0.74,8.48,0.02,0.02,0.00,26.79
17866157,1901,1,181576,230842,1.13,-1.54,10.46,-0.00,0.01,0.00,26.79
17906160,1940,1,182034,232378,1.17,-1.22,9.65,0.00,0.01,0.00,26.79
17946136,1937,1,183121,233911,0.13,-1.32,9.95,-0.03,0.01,0.00,26.79
17986160,1925,1,183673,235370,0.12,-2.14,11.98,-0.03,0.04,0.00,26.79
18026164,1924,1,183663,232997,0.50,-0.84,9.59,0.00,-0.02,-0.08,26.79
18066171,1873,1,182053,230589,0.75,-0.73,11.12,-0.01,-0.01,0.00,26.79
18106171,1933,1,180971,228017,0.79,-1.16,9.37,-0.00,0.03,-0.01,26.79
18146171,1808,1,179044,225261,1.19,-0.54,6.91,-0.01,-0.05,0.47,26.79
18186171,1791,1,178315,223630,-0.23,-2.30,8.99,-0.10,-0.03,0.13,26.79
18226189,1843,1,177588,224601,0.94,-1.06,7.47,0.04,0.17,0.21,26.79
18266138,1871,1,179196,226146,0.31,-1.75,9.13,-0.02,0.00,0.01,26.79
18306159,1903,1,179474,228523,0.42,-1.41,9.83,0.04,0.04,0.01,26.79
18346137,1943,1,180829,230635,0.63,-2.05,7.91,0.02,-0.03,0.00,26.79
18386159,1932,1,181877,232228,0.74,-0.97,10.62,0.01,-0.04,-0.00,26.79
18424171,1969,1,182890,234284,0.24,-2.26,11.09,-0.02,0.04,0.00,26.79
18464160,1962,1,183280,234494,0.39,-1.64,10.88,-0.02,0.02,-0.02,26.79
18504171,1929,1,184334,236872,0.55,-2.13,12.67,-0.02,0.02,-0.17,26.79
18544858,1920,1,185037,238123,1.07,-0.05,10.85,0.02,0.00,-0.25,26.71
18584196,1855,1,185266,237698,0.59,-0.89,12.42,-0.04,-0.03,-0.13,26.71
18624193,1874,1,184592,236332,1.20,-0.05,12.45,-0.03,-0.03,-0.04,26.71
18664188,1863,1,184029,235388,0.65,-1.48,10.65,-0.06,-0.01,0.00,26.71
18704171,1879,1,182644,231612,1.17,-0.24,11.27,-0.05,-0.11,-0.01,26.71
18744188,1919,1,181234,229405,0.84,-1.61,9.74,-0.07,0.01,0.01,26.71
18784166,1936,1,179907,226939,0.95,-0.26,7.63,-0.05,-0.24,0.03,26.71
18824171,1931,1,179165,225964,0.59,-1.80,11.09,-0.12,-0.04,0.05,26.71
18864171,1941,1,178587,226431,1.64,0.09,7.85,-0.03,-0.03,-0.01,26.71
18904171,1936,1,179675,227807,1.28,-1.43,10.05,-0.11,-0.04,-0.01,26.71
18944193,1968,1,179565,227859,0.98,-0.87,7.83,-0.05,-0.10,-0.00,26.71
18984187,1938,1,179589,226981,0.93,-1.53,9.38,-0.11,-0.13,-0.01,26.71
19024213,2000,1,179156,227107,0.74,-0.92,9.79,-0.08,0.06,0.12,26.71
19064160,1957,1,179752,228338,0.80,-1.88,10.16,-0.11,0.01,0.03,26.71
19104160,1936,1,179895,228275,0.52,-1.19,8.97,-0.07,0.02,0.01,26.71
19144159,1924,1,179786,227106,1.03,-1.64,10.52,-0.11,-0.02,0.01,26.71
19184172,1906,1,180039,228226,0.41,-1.92,10.99,-0.05,0.06,0.02,26.71
19224159,1917,1,180288,228929,1.36,-2.01,9.52,-0.03,-0.01,0.00,26.71
19264171,1874,1,180829,229462,0.64,-2.00,10.92,-0.03,0.02,0.01,26.71
19304159,1893,1,180485,228760,1.12,-1.97,9.78,0.02,-0.02,0.01,26.71
19344159,1905,1,180481,228604,0.75,-1.92,10.21,-0.00,0.01,0.01,26.71
19384159,1908,1,180194,228938,0.45,-2.19,9.36,0.01,0.03,0.01,26.71
19424140,1904,1,180409,229162,0.21,-1.79,9.13,-0.01,0.02,0.01,26.71
19464159,1909,1,180352,228788,0.25,-1.24,8.94,-0.01,0.01,0.01,26.71
19504159,1920,1,180611,230180,0.44,-0.99,9.81,0.02,0.07,0.01,26.71
19544137,1918,1,180724,230513,1.29,-1.02,8.37,0.03,-0.02,0.00,26.71
19584846,1903,1,181195,230841,0.96,-0.96,9.07,0.00,-0.01,-0.00,26.77
19624171,1910,1,181373,231715,1.03,-1.32,10.22,0.01,0.01,-0.00,26.77
19664159,1899,1,181307,231185,1.12,-1.18,8.24,-0.00,-0.02,-0.01,26.77
19704187,1895,1,181485,231785,0.36,-1.59,9.86,-0.05,-0.00,-0.01,26.77
19744188,1889,1,181879,232463,0.72,-1.33,9.95,-0.05,-0.01,-0.01,26.77
19784187,1894,1,182006,231226,0.31,-1.27,10.59,-0.05,0.03,-0.00,26.77
19824171,1884,1,181498,230601,0.69,-1.38,10.21,-0.05,0.02,-0.00,26.77
19864171,1901,1,181803,231427,0.72,-1.08,10.59,-0.05,0.03,-0.01,26.77
19904171,1890,1,182070,231377,0.92,-0.92,11.24,-0.04,0.01,-0.01,26.77
19944171,1889,1,181653,230824,1.13,-1.09,10.61,-0.02,0.04,-0.00,26.77
19984171,1895,1,181247,229605,1.06,-1.34,9.37,-0.04,-0.01,-0.01,26.77
20024211,1881,1,180417,228093,0.94,-1.29,9.74,-0.05,-0.04,-0.00,26.77
20064188,1904,1,179962,227652,0.33,-1.85,10.55,-0.06,0.05,0.00,26.77
20104159,1888,1,179512,227519,0.67,-1.90,8.49,-0.06,-0.03,0.01,26.77
20144171,1907,1,180024,228415,0.28,-1.94,9.88,-0.07,0.03,0.01,26.77
20184160,1898,1,180134,228682,0.63,-1.77,9.32,-0.05,-0.02,0.01,26.77
20224175,1906,1,180879,230441,0.57,-1.53,9.89,-0.04,0.03,0.01,26.77
20264159,1929,1,181422,231843,0.88,-1.85,9.79,-0.01,0.01,0.01,26.77
20304159,1925,1,182285,233687,0.69,-1.70,9.08,-0.00,-0.01,0.00,26.77
20344171,1906,1,182870,233672,0.79,-1.58,10.32,-0.02,-0.04,-0.01,26.77
20384189,1904,1,182998,234558,0.36,-1.65,10.59,0.00,0.02,0.00,26.77
20424167,1923,1,182939,234690,0.59,-1.85,8.83,-0.02,-0.04,-0.00,26.77
20464188,1914,1,182897,232668,0.00,-2.00,10.72,-0.06,-0.03,-0.00,26.77
20504187,1930,1,182276,231808,0.19,-1.79,10.76,-0.02,-0.01,0.00,26.77
20544171,1919,1,181904,231929,0.29,-1.86,10.54,-0.04,-0.02,0.00,26.77
20584857,1907,1,182144,232131,0.24,-1.90,10.70,-0.03,0.00,0.00,26.87
20623164,1881,1,182048,232015,0.72,-1.67,10.72,-0.03,-0.04,0.00,26.87
20664171,1906,1,182053,231867,0.54,-1.31,10.26,-0.02,-0.02,-0.00,26.87
20704188,1905,1,181729,231122,0.94,-1.36,10.42,-0.02,-0.03,0.00,26.87
20744171,1908,1,181200,230292,0.85,-1.41,9.18,-0.02,-0.04,-0.00,26.87
20784188,1918,1,180751,229431,1.52,-1.15,9.65,-0.03,-0.10,-0.01,26.87
20822187,1931,1,180757,229401,0.87,-1.37,10.18,-0.02,-0.00,0.00,26.87
20862171,1923,1,180267,228970,1.02,-1.63,7.45,-0.03,-0.09,-0.01,26.87
20902187,1919,1,180626,229562,0.83,-1.30,9.56,-0.07,-0.05,-0.01,26.87
20942189,1938,1,181091,231173,0.55,-1.47,9.69,-0.03,0.00,-0.00,26.87
20982171,1927,1,181645,232133,0.85,-1.42,8.81,-0.06,-0.03,-0.01,26.87
21022189,1911,1,182457,233848,0.30,-1.60,9.28,-0.05,0.03,-0.00,26.87
21062171,1920,1,182770,234507,0.68,-1.47,9.12,-0.06,-0.03,-0.00,26.87
21102189,1920,1,183304,235482,0.51,-1.01,10.29,-0.04,0.04,-0.00,26.87
21142171,1915,1,183497,236259,0.79,-1.66,9.78,-0.04,0.01,0.00,26.87
21182160,1917,1,183703,235998,0.87,-1.43,9.54,-0.01,0.01,0.00,26.87
21222160,1908,1,182829,233384,1.20,-1.40,9.86,-0.03,-0.04,-0.00,26.87
21262188,1902,1,182850,234052,0.81,-1.36,10.69,-0.01,0.03,-0.00,26.87
21302171,1897,1,182971,234651,1.16,-1.60,10.22,-0.00,-0.02,-0.00,26.87
21342189,1907,1,183029,234302,0.94,-1.31,9.47,-0.00,-0.02,-0.01,26.87
21382187,1883,1,183032,233679,0.83,-1.52,11.27,-0.02,-0.02,-0.00,26.87
21422189,1899,1,182215,232217,1.03,-1.15,9.15,0.01,-0.03,-0.00,26.87
21462171,1902,1,181702,230639,0.95,-1.44,9.92,-0.02,-0.05,-0.01,26.87
21502189,1904,1,181185,230334,0.61,-1.66,9.25,0.00,-0.01,0.00,26.87
21542159,1911,1,180964,229606,0.81,-1.47,8.73,-0.02,-0.05,-0.01,26.87
21582189,1893,1,181024,230338,0.61,-1.35,10.53,-0.03,-0.00,0.00,26.87
21622857,1918,1,181452,231182,0.58,-1.96,9.24,-0.01,0.03,-0.00,26.79
21663171,1909,1,181482,231470,0.99,-1.55,8.45,-0.02,-0.04,-0.01,26.79
21703187,1911,1,182066,232310,0.42,-1.87,10.24,-0.05,0.01,-0.00,26.79
21743171,1914,1,182044,233052,0.49,-1.53,9.85,-0.03,-0.00,-0.00,26.79
21783186,1916,1,182344,233785,0.43,-1.76,9.76,-0.03,0.02,0.00,26.79
21823160,1917,1,182550,234086,0.46,-1.98,9.86,-0.05,-0.04,0.00,26.79
21863174,1904,1,182860,234676,0.13,-2.04,10.18,-0.04,0.04,0.00,26.79
21903160,1920,1,182584,233560,0.52,-1.78,9.61,-0.06,-0.04,0.00,26.79
21943171,1921,1,182438,232446,-0.01,-2.00,10.50,-0.05,0.06,0.00,26.79
21981171,1917,1,182058,232177,0.44,-1.66,9.96,-0.02,0.01,0.01,26.79
22021166,1918,1,182434,232901,0.33,-1.26,10.28,-0.02,0.02,0.00,26.79
22061166,1902,1,182910,233681,0.48,-1.47,11.34,-0.00,0.04,0.01,26.79
22101160,1918,1,182895,233243,0.56,-1.54,9.31,-0.00,0.01,0.00,26.79
22141160,1907,1,182543,233026,0.53,-1.56,10.29,-0.03,-0.04,0.00,26.79
22181171,1923,1,182824,233294,0.25,-1.21,10.17,-0.02,0.02,-0.00,26.79
22221171,1911,1,182621,233154,0.48,-1.59,10.96,-0.02,-0.01,0.00,26.79
22261171,1910,1,182380,233227,0.62,-1.26,9.31,-0.01,-0.00,0.00,26.79
22301171,1904,1,182718,234143,0.51,-1.66,10.79,-0.04,-0.02,0.00,26.79
22341171,1907,1,182766,233998,0.75,-1.31,10.06,-0.02,-0.03,-0.00,26.79
22381189,1907,1,182708,234043,0.53,-1.41,10.70,-0.04,-0.02,-0.00,26.79
22421187,1895,1,182790,233908,0.44,-1.35,10.09,-0.03,0.00,0.00,26.79
22461160,1908,1,182103,232780,0.74,-1.79,9.95,-0.04,-0.05,0.00,26.79
22501171,1897,1,181853,231969,0.74,-1.28,9.33,-0.05,-0.05,-0.00,26.79
22541188,1909,1,181768,231902,0.38,-1.55,10.86,-0.04,0.01,0.01,26.79
22581160,1910,1,181461,231805,0.90,-1.66,8.71,-0.03,-0.02,0.00,26.79
22621171,1906,1,182089,233170,0.26,-1.83,9.90,-0.06,-0.00,0.01,26.79
22661857,1904,1,182883,234303,0.33,-1.24,9.82,-0.03,0.02,0.01,26.79
22702160,1900,1,182819,233178,0.33,-1.43,10.39,-0.03,0.02,0.01,26.79
22742158,1911,1,182854,233669,0.32,-1.37,10.29,-0.02,0.03,0.01,26.79
22782159,1908,1,183147,234582,0.36,-1.98,9.79,-0.02,0.02,0.01,26.79
22822159,1907,1,183312,235214,0.49,-1.40,9.33,-0.01,-0.01,0.00,26.79
22862171,1914,1,183598,235589,0.27,-2.16,10.84,-0.03,0.00,-0.04,26.79
22902171,1881,1,183961,236880,0.08,-1.67,10.19,0.01,0.05,-0.01,26.79
22942160,1909,1,184328,237656,0.50,-1.64,9.65,-0.01,-0.00,-0.01,26.79
22982187,1909,1,184705,238130,0.17,-1.58,10.45,-0.01,0.00,-0.01,26.79
23022171,1905,1,184768,238521,0.35,-1.62,11.26,-0.00,-0.01,0.00,26.79
23062171,1897,1,184938,238682,0.23,-1.67,10.21,-0.01,-0.00,0.00,26.79
23100171,1913,1,184889,238020,0.48,-1.63,10.59,-0.01,-0.05,0.00,26.79
23140171,1910,1,184665,237868,0.28,-1.47,10.98,-0.01,-0.03,0.00,26.79
23180172,1911,1,184408,237014,0.56,-1.33,10.07,-0.02,-0.06,-0.00,26.79
23220186,1907,1,184406,236994,0.32,-1.17,11.52,-0.02,-0.00,-0.00,26.79
23260188,1906,1,183948,236096,0.59,-1.71,9.83,-0.02,-0.05,-0.00,26.79
23300187,1891,1,183574,235616,0.44,-1.40,10.07,-0.04,-0.06,-0.01,26.79
23340188,1903,1,183312,234602,0.30,-1.29,10.29,-0.04,-0.06,-0.00,26.79
23380187,1904,1,182712,233648,0.31,-1.33,10.44,-0.03,-0.01,0.00,26.79
23420171,1895,1,181885,232374,0.63,-1.18,8.52,-0.05,-0.06,0.04,26.79
23460171,1887,1,181212,229794,0.30,-1.39,9.63,-0.06,-0.04,0.06,26.79
23500188,1895,1,179967,227283,0.33,-1.48,10.04,-0.06,0.03,0.13,26.79
23540159,1904,1,179297,226468,0.85,-1.35,9.16,-0.03,0.03,0.09,26.79
23580160,1907,1,179221,226367,0.27,-1.48,9.38,-0.04,0.02,0.03,26.79
23620160,1907,1,179345,227660,0.39,-1.67,9.43,-0.03,0.06,0.04,26.79
23660160,1920,1,180304,228895,0.46,-1.25,9.40,-0.03,0.01,0.00,26.79
23700864,1924,1,180874,230569,0.57,-1.30,11.05,-0.01,0.03,0.01,26.85
23741160,1938,1,181762,232835,0.35,-1.70,10.09,-0.02,0.04,0.01,26.85
23781160,1914,1,182174,232125,0.75,-1.18,9.12,-0.02,-0.02,0.00,26.85
23821171,1910,1,182267,232934,0.09,-1.54,11.20,-0.04,0.05,0.01,26.85
23861158,1919,1,182489,233505,0.25,-1.22,10.47,-0.01,0.06,0.01,26.85
23901174,1901,1,182437,233400,0.30,-1.20,10.23,-0.04,-0.00,0.01,26.85
23941171,1920,1,182444,233142,0.39,-1.29,10.55,-0.03,0.05,0.01,26.85
23981160,1907,1,182214,233219,0.32,-1.47,10.58,-0.04,0.00,0.01,26.85
24021166,1921,1,182078,232492,0.49,-0.98,9.82,-0.04,0.01,0.00,26.85
24061160,1892,1,182027,233391,-0.11,-1.49,10.92,-0.06,0.04,0.01,26.85
24101171,1913,1,182129,232933,0.33,-1.33,9.40,-0.04,0.00,0.00,26.85
24141160,1871,1,181700,232161,0.21,-1.01,9.90,-0.07,-0.01,0.00,26.85
24181171,1895,1,181576,231740,0.24,-1.27,10.10,-0.07,0.04,0.00,26.85
24221160,1875,1,181040,231439,0.29,-1.38,9.97,-0.07,0.02,0.00,26.85
24261159,1904,1,181123,230692,0.46,-1.40,9.08,-0.07,0.04,0.00,26.85
24299160,1917,1,180461,228700,0.14,-1.58,10.29,-0.08,-0.01,0.00,26.85
24339171,1905,1,180311,228757,0.54,-1.38,10.19,-0.06,0.05,0.00,26.85
24379160,1904,1,180459,228795,0.68,-1.30,9.96,-0.06,0.00,0.00,26.85
24419160,1905,1,180568,229003,0.51,-1.75,9.99,-0.07,0.04,0.00,26.85
24459160,1902,1,180157,228006,0.65,-1.46,9.47,-0.06,-0.02,0.00,26.85
24499171,1905,1,179957,228128,0.60,-1.03,10.10,-0.06,0.05,0.00,26.85
24539160,1911,1,179885,227704,0.40,-1.18,10.12,-0.05,0.07,0.01,26.85
24579160,1904,1,179608,228174,0.57,-1.68,9.11,-0.06,0.04,0.01,26.85
24619159,1911,1,179772,227479,0.67,-0.98,9.28,-0.06,0.01,0.01,26.85
24659160,1904,1,179973,229206,0.37,-1.31,11.32,-0.04,0.11,0.01,26.85
24699159,1904,1,180195,229766,0.76,-1.56,8.29,-0.01,0.05,0.01,26.85
24739846,1915,1,181141,231720,0.40,-1.69,10.31,-0.05,0.04,0.01,26.73
24780160,1922,1,181797,233211,0.17,-1.72,10.28,-0.02,0.06,0.02,26.73
24820160,1931,1,182069,233612,0.52,-1.37,9.50,-0.04,0.02,0.01,26.73
24860160,1920,1,182545,234558,0.04,-1.56,10.79,-0.05,0.05,0.01,26.73
24900158,1906,1,182716,235001,0.41,-1.55,9.77,-0.03,0.02,0.01,26.73
24940160,1908,1,182905,235343,0.31,-1.70,10.35,-0.06,0.01,0.01,26.73
24980160,1920,1,183045,235536,0.30,-1.28,10.60,-0.04,0.02,0.01,26.73
25020159,1929,1,183317,235090,0.00,-1.89,11.49,-0.03,0.07,-0.01,26.73
25060171,1891,1,182679,234318,0.26,-1.50,9.72,-0.00,0.02,-0.01,26.73
25100171,1898,1,182764,234054,0.48,-1.62,10.38,-0.04,-0.02,-0.06,26.73
25140186,1888,1,182476,233744,0.29,-1.68,10.72,-0.01,-0.01,0.00,26.73
25180171,1922,1,182045,233028,0.68,-1.52,9.74,-0.03,-0.04,0.00,26.73
25220171,1910,1,181997,232913,0.12,-2.02,9.81,-0.04,-0.00,0.00,26.73
25260171,1900,1,181807,233096,0.38,-1.92,9.91,-0.03,-0.03,0.00,26.73
25300171,1902,1,181556,232615,0.59,-1.39,9.16,-0.03,-0.06,-0.00,26.73
25340193,1904,1,181952,233743,0.22,-1.74,11.14,-0.03,0.02,0.00,26.73
25380160,1907,1,181819,233689,0.55,-1.82,8.65,0.01,-0.02,-0.00,26.73
25420171,1918,1,182148,234090,0.29,-1.94,9.40,-0.05,-0.03,-0.00,26.73
25460186,1919,1,182184,233907,0.51,-1.70,10.15,-0.03,-0.04,0.00,26.73
25498171,1926,1,182050,233835,0.20,-1.92,9.71,-0.02,0.00,0.00,26.73
25538160,1923,1,181874,233974,0.39,-1.87,8.82,-0.04,-0.07,-0.00,26.73
25578188,1915,1,182236,233300,-0.02,-1.65,10.33,-0.04,-0.01,-0.00,26.73
25618205,1911,1,181832,233515,0.28,-2.13,10.17,-0.03,0.00,0.00,26.73
25658160,1915,1,182119,234159,0.19,-1.93,9.17,-0.04,-0.01,0.00,26.73
25698171,1920,1,182603,234977,-0.17,-1.91,10.08,-0.04,0.01,0.00,26.73
25738171,1919,1,182681,234404,0.02,-1.65,9.92,-0.02,0.02,0.00,26.73
25778846,1917,1,182578,233552,0.02,-1.27,10.31,-0.04,-0.01,0.00,26.77
25819171,1913,1,182461,233328,0.22,-1.45,10.94,-0.02,-0.01,0.00,26.77
25859171,1907,1,181711,231850,0.90,-1.25,9.62,-0.02,-0.04,0.01,26.77
25899171,1952,1,181214,230223,0.44,-1.48,9.60,-0.04,-0.08,0.01,26.77
25939171,1920,1,180272,228512,0.82,-0.54,10.92,-0.03,-0.00,0.30,26.77
25979171,1928,1,179347,226703,1.20,-0.82,8.89,-0.02,-0.10,0.40,26.77
26019171,1905,1,178459,225055,0.94,-0.48,10.05,-0.02,-0.14,0.44,26.77
26059171,1936,1,177802,224155,1.12,-0.79,9.76,0.00,-0.10,0.40,26.77
26099160,1927,1,177690,224812,1.48,-0.24,9.66,0.02,-0.05,0.25,26.77
26139160,1924,1,177926,224752,1.45,-0.49,9.39,0.02,-0.13,0.05,26.77
26179160,1906,1,178207,226846,1.32,-0.48,9.65,0.04,-0.02,0.06,26.77
26219160,1904,1,178955,228381,1.63,-0.31,8.67,0.03,-0.11,0.05,26.77
26259160,1905,1,180006,230106,1.36,-0.37,11.30,0.02,-0.07,0.06,26.77
26299160,1906,1,180318,230765,1.61,-0.30,10.21,0.05,-0.08,0.07,26.77
26339160,1915,1,180593,231495,1.59,-0.40,9.78,0.04,-0.16,0.07,26.77
26379160,1909,1,181093,232148,1.72,-0.35,11.49,0.03,-0.09,0.07,26.77
26419159,1854,1,180964,232253,2.04,-0.12,10.66,0.04,-0.18,0.07,26.77
26459158,1879,1,180902,231336,1.81,-0.28,10.08,0.01,-0.12,0.08,26.77
26499160,1870,1,179821,227974,1.90,-0.14,9.47,0.02,-0.21,0.08,26.77
26539160,1929,1,178814,226240,1.92,-0.31,9.06,-0.01,-0.14,0.08,26.77
26579171,1939,1,178141,225047,1.76,0.13,8.91,0.00,-0.18,0.08,26.77
26619140,1946,1,177515,223682,2.22,0.17,9.13,-0.01,-0.23,0.09,26.77
26659160,1939,1,177057,223308,1.96,-0.47,8.25,-0.02,-0.09,0.29,26.77
26697171,1968,1,177115,223522,1.77,-0.42,8.15,-0.05,-0.19,0.14,26.77
26737171,1959,1,177412,224441,2.08,0.38,10.32,-0.02,-0.03,0.15,26.77
26777206,1937,1,177752,225705,2.22,-0.22,7.75,-0.02,-0.02,0.12,26.77
26817857,1927,1,178393,226317,1.71,-0.19,8.88,-0.06,-0.07,0.11,26.77
26858171,1925,1,178610,227562,2.11,0.17,9.77,-0.04,-0.01,0.11,26.77
26898160,1922,1,179205,228968,2.18,0.05,10.11,-0.05,0.01,0.12,26.77
26938140,1904,1,179662,229266,2.17,0.15,9.65,-0.04,0.01,0.12,26.77
26978157,1920,1,179868,229526,2.04,0.16,10.59,-0.04,0.04,0.12,26.77
27018139,1941,1,180011,230008,2.25,0.20,10.68,-0.03,0.05,0.12,26.77
27058137,1929,1,180121,229983,2.28,0.18,11.60,-0.04,0.03,0.13,26.77
27098140,1922,1,180042,230359,2.45,0.26,10.90,-0.02,0.06,0.13,26.77
27138137,1921,1,180238,230664,2.29,0.18,10.18,-0.05,0.03,0.13,26.77
27178164,1904,1,180483,231064,1.75,0.14,11.76,-0.04,0.10,0.13,26.77
27218137,1904,1,180521,231512,1.61,-0.11,10.68,-0.05,0.05,0.14,26.77
27258160,1904,1,180777,231940,1.49,-0.02,9.94,-0.05,0.04,0.14,26.77
27298159,1901,1,181133,232877,0.96,-0.42,11.37,-0.06,0.05,0.15,26.77
27338160,1899,1,181265,232768,1.72,-0.25,9.89,-0.07,-0.02,0.15,26.77
27378171,1890,1,181486,233469,1.04,-0.81,11.71,-0.09,-0.01,0.15,26.77
27418171,1897,1,181839,233543,1.12,-0.40,9.69,-0.07,-0.01,0.15,26.77
27458171,1879,1,181896,233911,0.79,-1.02,11.10,-0.07,-0.07,0.16,26.77
27498171,1873,1,181819,233413,1.29,-0.47,10.39,-0.07,-0.09,0.15,26.77
27538171,1792,1,181876,233740,0.65,-0.78,12.22,-0.04,-0.02,0.16,26.77
27578171,1872,1,181612,233476,2.13,-0.21,8.95,-0.03,-0.10,0.16,26.77
27617171,1861,1,181763,233237,1.16,-0.68,11.75,-0.07,-0.04,0.16,26.77
27657171,1907,1,181321,232853,1.90,-0.46,9.39,0.00,-0.05,0.16,26.77
27697160,1926,1,181262,232323,1.71,-0.76,10.01,-0.03,-0.08,0.16,26.77
27737171,1943,1,181054,232451,1.61,-0.70,9.52,0.02,-0.01,0.16,26.77
27777160,1920,1,181098,232936,2.28,-0.50,9.01,0.01,-0.10,0.16,26.77
27817160,1872,1,181519,233841,1.93,-0.31,9.39,0.01,-0.01,0.16,26.77
27857846,1890,1,181364,232340,2.29,-0.44,8.33,0.00,-0.12,0.16,26.77
27896159,1991,1,180425,229702,1.57,-0.85,9.40,-0.02,-0.10,0.18,26.77
27936171,1950,1,179035,227858,1.86,-0.03,7.00,0.01,-0.26,0.55,26.77
27976160,1938,1,179069,227469,1.68,-0.41,10.69,-0.03,-0.10,0.41,26.77
28016171,1937,1,179281,229154,2.41,-0.05,6.30,0.05,-0.29,0.24,26.77
28056160,1948,1,180347,231238,2.39,-0.23,9.49,-0.03,-0.05,0.15,26.77
28096171,1942,1,181393,235030,1.50,-0.06,10.20,0.03,0.16,0.18,26.77
28136140,1938,1,182628,237136,2.82,-0.12,9.96,0.02,-0.02,0.07,26.77
28176160,1905,1,183161,237864,1.78,0.38,11.55,0.03,-0.01,-0.05,26.77
28216159,1886,1,183044,238213,2.29,0.45,11.37,0.02,-0.04,0.01,26.77
28256137,1882,1,183075,238481,2.00,0.78,12.68,-0.02,-0.04,0.02,26.77
28296160,1915,1,183035,238374,2.01,0.58,11.80,-0.03,-0.06,0.06,26.77
28336160,1898,1,183079,237758,1.42,0.40,12.38,-0.04,-0.06,0.15,26.77
28376160,1911,1,182801,237566,2.09,0.54,9.01,-0.03,-0.09,0.17,26.77
28416166,1904,1,182917,236794,1.78,0.38,11.52,-0.07,-0.08,0.18,26.77
28456160,1926,1,182416,236738,2.22,0.27,8.02,-0.04,-0.09,0.18,26.77
28496160,1962,1,182453,235957,2.22,0.55,8.01,-0.07,-0.14,0.18,26.77
28536160,1921,1,182488,236492,1.86,-0.11,9.95,-0.03,0.02,0.19,26.77
28576160,1911,1,182474,236000,2.21,-0.17,7.21,-0.05,-0.09,0.18,26.77
28617171,1924,1,182647,236543,2.06,-0.19,9.06,-0.05,-0.07,0.18,26.77
28657171,1904,1,182878,237119,1.98,-0.26,8.55,-0.06,-0.03,0.18,26.77
28697171,1878,1,183134,237554,1.64,-0.59,9.39,-0.06,-0.04,0.18,26.77
28737171,1903,1,183095,237559,1.90,-0.41,10.41,-0.06,-0.03,0.18,26.77
28777171,1899,1,183086,237377,1.57,-0.73,10.19,-0.06,-0.00,0.18,26.77
28817171,1920,1,182674,236771,2.02,-0.26,10.48,-0.03,-0.03,0.17,26.77
28857857,1930,1,182615,236099,1.97,-0.67,11.68,-0.03,-0.01,0.18,26.73
28896171,1937,1,182365,236206,2.13,-0.13,11.64,0.00,0.00,0.18,26.73
28936140,1911,1,182416,235970,2.21,-0.60,9.81,-0.00,0.01,0.17,26.73
28976160,1931,1,182352,236409,1.53,-0.64,11.60,-0.00,0.01,0.17,26.73
29016160,1917,1,182377,236331,2.02,-0.19,10.87,-0.02,-0.01,0.17,26.73
29056171,1910,1,182645,236776,1.23,-0.42,9.86,-0.01,0.02,0.18,26.73
29096160,1908,1,182505,236368,1.92,-0.33,9.39,-0.03,-0.08,0.17,26.73
29136171,1930,1,182662,236192,1.48,0.15,10.94,-0.01,0.00,0.18,26.73
29176140,1920,1,182270,235673,2.02,-0.06,8.68,-0.04,-0.09,0.17,26.73
29216171,1895,1,182424,234682,1.51,-0.10,9.41,-0.04,-0.01,0.17,26.73
29256171,1896,1,181420,232718,2.14,0.08,8.61,-0.04,-0.13,0.17,26.73
29296160,1881,1,180906,230261,1.84,0.26,9.28,-0.08,-0.05,0.17,26.73
29336159,1886,1,180470,231762,1.39,-0.96,8.62,-0.07,0.04,0.18,26.73
29376160,1893,1,180289,229699,2.35,0.51,7.25,-0.05,-0.15,0.17,26.73
29416158,1901,1,181638,234260,1.15,-0.52,11.84,-0.05,0.11,0.19,26.73
29456160,1920,1,182011,235026,2.66,-0.00,8.06,0.01,-0.09,0.18,26.73
29496160,1916,1,183087,236484,1.88,-0.85,10.76,-0.04,0.01,0.18,26.73
29536159,1919,1,183401,237899,1.98,-0.72,9.59,-0.00,-0.03,0.18,26.73
29576171,1933,1,184191,238848,1.99,-0.77,11.34,-0.02,-0.02,0.17,26.73
29616171,1915,1,184588,239856,1.25,-1.30,10.91,0.01,0.00,0.13,26.73
29655140,1923,1,184755,240231,2.25,-0.65,10.24,0.01,-0.06,0.11,26.73
29695160,1907,1,185194,240393,1.44,-0.98,11.49,0.05,-0.02,0.07,26.73
29735160,1919,1,184964,239879,2.32,-0.51,11.28,0.06,-0.05,0.16,26.73
29775160,1914,1,184837,238776,1.83,-0.51,10.35,0.03,0.01,0.17,26.73
29815140,1917,1,183983,237420,1.71,-0.57,8.93,0.06,-0.07,0.17,26.73
29855160,1923,1,183625,236529,1.56,-0.17,10.33,0.03,-0.03,0.17,26.73
29895846,1946,1,183061,235841,2.08,0.02,8.89,0.04,-0.04,0.18,26.65
29936136,1951,1,182423,233583,1.88,0.13,8.74,0.01,-0.11,0.17,26.65
29976140,1941,1,181602,233213,2.24,0.12,9.56,0.02,-0.05,0.17,26.65
30016136,1938,1,181922,233864,2.05,0.15,9.67,-0.03,-0.06,0.17,26.65
30056160,1920,1,181899,234088,2.01,0.01,10.25,-0.02,-0.03,0.17,26.65
30096159,1905,1,181881,234434,2.04,-0.24,9.56,-0.06,-0.10,0.17,26.65
30136171,1897,1,181921,234621,2.08,0.38,10.87,-0.05,-0.10,0.17,26.65
30176160,1895,1,182069,234691,1.90,-0.23,10.59,-0.06,-0.01,0.18,26.65
30216171,1920,1,181711,234395,2.15,0.17,9.77,-0.04,-0.12,0.17,26.65
30256165,1906,1,181656,234512,2.30,-0.41,10.91,-0.08,-0.06,0.17,26.65
30296171,1891,1,181752,234824,2.08,-0.33,10.79,-0.06,-0.05,0.17,26.65
30334171,1916,1,181867,235137,1.80,-0.97,9.82,-0.09,-0.04,0.17,26.65
30374171,1921,1,182427,235945,1.10,-0.96,10.50,-0.09,0.03,0.17,26.65
30414160,1913,1,182655,235981,1.67,-0.45,9.06,-0.04,-0.03,0.16,26.65
30454191,1905,1,182910,236288,2.14,-0.75,10.12,-0.05,0.01,0.16,26.65
30494160,1936,1,182955,236229,2.17,-1.22,8.71,-0.04,-0.02,0.16,26.65
30534172,1919,1,182568,235459,2.35,-0.68,8.12,-0.03,-0.06,0.14,26.65
30574171,1926,1,182483,234614,1.63,-0.87,8.93,-0.05,0.02,0.15,26.65
30614160,1927,1,181628,232149,1.45,-1.07,8.60,-0.02,0.03,0.15,26.65
30654160,1926,1,180870,230447,1.15,-1.18,7.87,-0.06,-0.00,0.15,26.65
30695171,1914,1,180605,230574,1.16,-0.98,10.16,-0.05,0.04,0.15,26.65
30735160,1932,1,180617,231067,1.46,-0.83,9.32,-0.03,0.06,0.15,26.65
30775159,1915,1,180635,231212,1.61,-0.88,9.43,-0.03,0.05,0.14,26.65
30815160,1920,1,180946,232645,2.01,-1.08,9.50,-0.02,0.04,0.13,26.65
30855160,1932,1,181428,233451,1.86,-0.33,9.90,-0.02,0.01,0.13,26.65
30895845,1913,1,181748,234400,1.45,-0.81,10.37,-0.04,0.07,0.13,26.65
30934160,1883,1,182281,235653,1.08,-0.91,9.43,-0.06,0.05,0.13,26.65
30974160,1871,1,182820,236529,1.32,-0.87,10.06,-0.05,0.01,0.13,26.65
31014160,1875,1,183295,237100,1.30,-1.10,11.91,-0.06,0.05,0.12,26.65
31054160,1875,1,183575,238056,1.35,-1.50,9.99,-0.04,0.03,0.12,26.65
31094159,1873,1,183924,237635,0.71,-2.06,10.33,-0.08,-0.03,-0.04,26.65
31134187,1855,1,183722,237733,0.65,-1.64,11.55,-0.09,0.02,0.11,26.65
31174160,1856,1,183205,235814,0.43,-1.69,9.51,-0.07,0.06,0.10,26.65
31214160,1888,1,182193,233979,0.40,-1.67,10.48,-0.07,-0.01,0.10,26.65
31254171,1899,1,181879,234048,0.65,-1.89,10.63,-0.06,0.06,0.05,26.65
31294160,1842,1,181715,233269,0.95,-1.50,9.97,-0.02,0.02,-0.06,26.65
31334171,1840,1,181607,232564,0.60,-2.32,9.27,-0.02,0.05,-0.11,26.65
31374171,1854,1,181935,233136,0.57,-1.96,9.52,-0.04,0.01,-0.01,26.65
31414171,1905,1,182249,234259,0.74,-1.85,9.28,-0.05,-0.01,0.05,26.65
31454171,1968,1,182791,234761,0.57,-2.22,9.97,-0.05,0.02,0.04,26.65
31494160,1963,1,182629,235085,1.02,-2.19,8.92,-0.05,-0.03,0.05,26.65
31534171,2015,1,182996,234732,0.20,-2.17,9.41,-0.07,-0.00,0.06,26.65
31574171,1975,1,182488,234432,0.30,-2.00,9.82,-0.03,0.01,0.06,26.65
31614160,1991,1,182470,233592,0.44,-1.91,9.10,-0.05,-0.02,0.06,26.65
31654171,1936,1,181836,232538,0.76,-1.70,9.84,-0.02,-0.01,0.06,26.65
31693174,1953,1,181595,231703,0.77,-1.84,9.07,-0.01,-0.01,0.05,26.65
31733171,1940,1,180859,229335,0.92,-1.82,8.99,-0.04,-0.07,0.04,26.65
31773171,1909,1,179804,227399,0.36,-1.63,10.25,-0.02,0.06,0.04,26.65
31813160,1920,1,178777,227496,0.68,-1.70,7.48,-0.02,0.04,0.04,26.65
31853160,1957,1,179908,229789,0.48,-1.75,10.20,-0.07,0.07,0.03,26.65
31893180,1936,1,180357,231413,0.64,-1.54,9.08,-0.02,0.04,0.03,26.65
31933846,1936,1,181371,233658,0.54,-1.98,9.45,-0.06,0.00,0.03,26.73
31974160,1920,1,181996,233791,0.32,-1.24,9.56,-0.04,-0.06,-0.08,26.73
32014187,1909,1,182238,234124,0.17,-1.89,11.82,-0.03,0.02,0.03,26.73
32054159,1921,1,181417,229831,0.59,-1.06,10.15,-0.00,-0.03,0.02,26.73
32094171,1896,1,179985,227685,0.36,-2.02,11.21,-0.02,-0.01,0.02,26.73
32134171,1922,1,179124,225788,0.52,-1.38,11.02,0.01,-0.03,0.02,26.73
32174159,1906,1,178262,224674,0.79,-1.61,11.12,-0.01,-0.07,0.02,26.73
32214171,1942,1,178118,224433,0.32,-1.16,11.50,-0.00,0.02,0.02,26.73
32254160,1904,1,177747,224543,0.98,-1.82,10.54,-0.01,-0.05,0.01,26.73
32294171,1902,1,177689,224479,0.76,-1.56,9.94,-0.03,-0.08,0.01,26.73
32334171,1889,1,177101,223293,0.81,-1.65,10.67,-0.04,-0.08,0.01,26.73
32374171,1863,1,176465,221956,0.55,-2.05,9.79,-0.03,-0.07,0.02,26.73
32414171,1876,1,175618,220815,0.30,-2.01,8.24,-0.05,-0.09,0.02,26.73
32454171,1917,1,175349,220151,0.22,-1.58,9.80,-0.07,-0.08,0.04,26.73
32494171,1887,1,175083,220263,0.86,-1.31,10.60,-0.01,0.03,0.03,26.73
32534160,1911,1,174815,219425,1.20,-1.56,7.77,-0.03,-0.18,0.02,26.73
32574171,1893,1,174760,219148,0.42,-2.27,9.36,-0.05,-0.10,0.07,26.73
32614171,1908,1,174930,219691,0.47,-2.31,10.05,-0.04,-0.03,0.10,26.73
32654171,1905,1,175122,219270,0.63,-1.65,9.47,-0.03,-0.05,0.02,26.73
32692171,1920,1,175169,219384,0.00,-2.50,10.85,-0.03,0.01,0.07,26.73
32732160,1917,1,175258,219898,0.35,-1.67,9.33,-0.01,0.00,0.03,26.73
32772160,1918,1,175672,219702,0.46,-2.04,11.33,-0.02,-0.03,0.03,26.73
32812171,1908,1,175795,219823,0.23,-1.74,10.64,0.00,0.03,0.03,26.73
32852140,1908,1,176040,220998,0.23,-2.15,10.83,-0.01,-0.04,0.03,26.73
32892171,1904,1,176569,222229,0.27,-1.45,11.11,0.01,0.04,0.02,26.73
32932139,1889,1,176777,222742,0.13,-2.06,10.67,-0.01,-0.03,0.03,26.73
32972857,1906,1,176537,222252,0.88,-0.94,9.66,0.02,-0.06,0.02,26.73
33013160,1914,1,176467,221995,0.30,-1.58,10.95,-0.02,-0.01,0.03,26.73
33053171,1909,1,176099,221588,0.37,-1.59,8.70,0.01,0.00,0.02,26.73
33093140,1907,1,175764,220273,0.56,-1.29,9.44,-0.02,-0.08,0.02,26.73
33133171,1936,1,175424,220229,0.42,-1.17,9.51,0.00,0.03,0.02,26.73
33173140,1931,1,175675,221364,0.12,-1.99,9.32,-0.02,-0.01,0.02,26.73
33213171,1917,1,175672,221232,0.98,-0.96,8.38,-0.01,-0.09,0.01,26.73
33253171,1941,1,176699,224173,0.13,-1.90,10.77,-0.06,0.03,0.02,26.73
33293160,1939,1,177445,225329,0.38,-1.26,9.19,-0.00,-0.00,0.02,26.73
33333171,1905,1,178279,227053,0.16,-1.79,11.00,-0.06,0.02,0.02,26.73
33373160,1934,1,178567,227449,0.42,-1.14,10.19,-0.03,0.03,0.02,26.73
33413158,1920,1,178894,228287,0.10,-1.98,10.96,-0.07,0.03,0.02,26.73
33453159,1922,1,178900,227331,0.69,-0.94,10.85,-0.06,0.01,0.02,26.73
33493159,1915,1,178222,224917,0.59,-1.71,11.61,-0.08,0.02,0.02,26.73
33533171,1904,1,177574,224513,0.40,-1.83,10.23,-0.06,0.07,0.02,26.73
33573160,1921,1,177738,225230,0.84,-1.60,10.30,-0.07,0.03,0.02,26.73
33613160,1911,1,178035,226069,0.22,-1.47,11.18,-0.05,0.08,0.02,26.73
33653160,1877,1,177938,227051,0.57,-1.84,9.34,-0.05,0.00,0.02,26.73
33693160,1918,1,179019,229279,-0.13,-1.58,9.49,-0.06,0.05,0.02,26.73
33733192,1874,1,179696,230666,0.14,-1.81,9.22,-0.03,0.01,0.02,26.73
33773160,1919,1,180373,231402,-0.13,-1.91,9.83,-0.06,0.05,0.02,26.73
33811171,1930,1,180376,230998,-0.08,-1.47,8.92,-0.03,-0.02,0.02,26.73
33851186,1917,1,179803,228408,0.29,-1.79,10.11,-0.04,0.02,0.02,26.73
33891160,1930,1,178600,226867,-0.02,-1.88,9.06,-0.04,0.00,0.02,26.73
33931171,1906,1,178278,226004,0.47,-1.68,10.05,-0.04,0.00,0.01,26.73
33971160,1901,1,178190,225715,0.68,-1.50,10.98,-0.03,0.00,0.01,26.73
34011846,1905,1,178099,226786,0.47,-2.16,9.85,-0.02,0.01,0.02,26.71
34052160,1899,1,178496,226255,0.75,-1.42,9.90,-0.04,-0.07,0.01,26.71
34092171,1918,1,178375,226533,0.61,-2.21,11.75,-0.04,-0.01,0.01,26.71
34132171,1913,1,178231,226218,0.79,-1.59,10.52,-0.01,-0.02,0.01,26.71
34172171,1911,1,177776,225042,1.07,-1.50,11.16,-0.02,-0.04,0.01,26.71
34212171,1921,1,177038,222572,0.75,-1.41,10.35,-0.01,-0.01,0.01,26.71
34252171,1911,1,176192,221520,1.03,-1.54,10.18,-0.02,-0.05,0.01,26.71
34292171,1919,1,176176,221369,0.96,-1.10,9.68,-0.03,-0.04,0.01,26.71
34332171,1918,1,176284,221461,0.65,-1.14,11.62,-0.02,0.02,0.02,26.71
34372160,1929,1,175954,221382,0.96,-1.26,8.47,-0.02,-0.00,0.01,26.71
34412171,1919,1,176082,221885,0.83,-1.03,9.41,-0.05,-0.06,0.01,26.71
34452171,1927,1,176534,222355,0.73,-1.16,9.47,-0.04,-0.01,0.01,26.71
34492171,1916,1,176728,222957,0.71,-1.34,10.20,-0.05,-0.02,0.01,26.71
34532171,1929,1,176825,222990,0.95,-1.13,8.76,-0.05,-0.04,0.01,26.71
34572171,1911,1,177177,224552,0.77,-1.91,9.86,-0.07,-0.02,0.01,26.71
34612171,1920,1,177663,224606,1.02,-1.27,9.05,-0.06,-0.08,0.00,26.71
34652171,1904,1,177448,225165,0.94,-1.11,10.03,-0.06,-0.06,0.00,26.71
34692171,1921,1,178165,226311,0.85,-1.29,9.39,-0.05,0.01,0.00,26.71
34732159,1903,1,178347,227137,0.96,-1.41,9.50,-0.06,-0.06,0.00,26.71
34772171,1917,1,178496,227207,1.47,-1.22,9.18,-0.06,-0.04,-0.00,26.71
34812187,1911,1,178666,227611,1.16,-1.16,10.63,-0.04,-0.03,0.00,26.71
34852171,1907,1,178576,226807,1.53,-1.50,9.72,-0.01,0.01,0.01,26.71
34892160,1890,1,177714,225779,1.11,-1.11,8.52,-0.03,-0.05,0.01,26.71
34932171,1909,1,177890,225685,1.41,-1.38,9.84,-0.03,-0.00,0.01,26.71
34972171,1887,1,177155,223918,1.29,-0.78,8.70,-0.02,-0.08,0.02,26.71
35010857,1909,1,176606,222183,1.81,-1.30,8.53,-0.04,-0.04,0.01,26.87
35051171,1888,1,176421,221688,0.96,-0.67,9.17,-0.02,0.03,0.02,26.87
35091160,1904,1,176629,222890,0.82,-1.73,8.60,-0.02,0.04,0.02,26.87
35131160,1911,1,176948,222625,0.83,-0.88,8.61,-0.02,-0.01,0.02,26.87
35171172,1930,1,177108,223411,0.64,-1.71,10.02,-0.05,0.02,0.02,26.87
35211160,1927,1,177616,224851,0.58,-1.39,9.09,-0.02,0.05,0.02,26.87
35251160,1930,1,178380,227035,0.42,-2.09,9.63,-0.03,0.01,0.02,26.87
35291159,1924,1,179257,227689,0.60,-1.40,8.83,-0.01,0.02,0.02,26.87
35331160,1921,1,179514,229122,0.12,-1.87,10.41,-0.03,0.00,0.02,26.87
35371164,1934,1,180113,230082,0.42,-1.39,9.32,-0.00,0.03,0.02,26.87
35411158,1904,1,180217,229621,0.22,-1.78,9.89,-0.02,-0.01,0.02,26.87
35451171,1919,1,180136,230641,0.25,-2.18,10.35,0.00,0.05,0.02,26.87
35491140,1932,1,180345,230134,0.42,-1.64,9.67,-0.02,-0.02,0.01,26.87
35531171,1917,1,180043,229984,0.50,-1.54,11.23,0.01,-0.00,0.02,26.87
35571160,1922,1,179820,229824,0.77,-1.70,10.07,0.01,-0.00,0.02,26.87
35611157,1915,1,179872,229766,0.35,-2.21,9.46,-0.01,-0.02,0.02,26.87
35651171,1899,1,179674,229201,0.60,-1.15,9.37,-0.01,-0.03,0.02,26.87
35691171,1917,1,179954,229045,0.03,-1.94,11.20,-0.02,0.04,0.02,26.87
35731160,1914,1,178888,225738,0.37,-1.13,9.21,0.00,-0.01,0.02,26.87
35771159,1917,1,178205,224784,-0.01,-1.53,9.91,-0.05,-0.00,0.01,26.87
35811188,1908,1,178093,225237,0.22,-1.49,10.24,-0.03,0.05,0.02,26.87
35851158,1909,1,178035,225154,0.38,-1.82,9.71,-0.07,-0.03,0.01,26.87
35891171,1914,1,178238,226146,0.57,-1.40,10.56,-0.06,0.06,0.01,26.87
35931160,1914,1,178815,227218,0.60,-1.78,10.72,-0.06,0.02,0.01,26.87
35971160,1891,1,178922,228719,0.90,-1.42,10.63,-0.04,0.03,0.01,26.87
36011159,1915,1,179447,228968,0.80,-1.17,9.38,-0.05,0.01,0.01,26.87
36051846,1875,1,179723,229616,0.59,-1.30,11.83,-0.06,0.02,0.01,26.83
36090159,1914,1,179669,229628,0.80,-1.28,10.25,-0.05,0.02,0.01,26.83
36130158,1905,1,179771,230093,0.44,-1.38,10.69,-0.07,0.01,0.01,26.83
36170159,1910,1,179474,229439,0.35,-1.51,9.72,-0.08,-0.02,0.00,26.83
36210171,1904,1,179878,231021,0.17,-1.92,10.89,-0.09,0.01,0.00,26.83
36250160,1898,1,180426,231742,0.68,-1.11,9.99,-0.09,-0.02,-0.00,26.83
36290189,1918,1,180709,231423,0.46,-1.44,10.64,-0.09,-0.05,0.00,26.83
36330171,1911,1,180405,231441,1.00,-1.74,10.41,-0.07,-0.02,0.00,26.83
36370171,1906,1,180095,229364,0.88,-1.51,8.57,-0.08,-0.10,0.00,26.83
36410171,1904,1,178792,226631,0.97,-1.27,9.85,-0.07,-0.06,0.01,26.83
36450171,1917,1,178979,226626,0.16,-1.69,10.75,-0.08,-0.01,0.01,26.83
36490171,1883,1,178266,226053,0.85,-1.56,8.49,-0.04,-0.11,0.01,26.83
36530171,1890,1,178254,225719,0.36,-2.09,8.82,-0.10,-0.05,0.01,26.83
36570171,1906,1,178270,226489,0.24,-1.64,10.54,-0.07,-0.00,0.01,26.83
36610171,1884,1,178253,225930,1.14,-1.83,8.60,-0.04,-0.08,0.01,26.83
36650171,1881,1,178153,226578,0.74,-1.62,9.23,-0.04,-0.02,0.02,26.83
36690171,1920,1,178729,227089,0.78,-2.11,8.98,-0.02,0.00,0.01,26.83
36730160,1936,1,179000,229560,0.45,-1.53,9.21,0.01,-0.04,0.02,26.83
36770160,1942,1,180932,234064,0.36,-2.05,8.90,-0.02,0.01,0.02,26.83
36810192,1926,1,182981,236952,-0.61,-1.86,10.31,0.02,0.05,0.03,26.83
36850158,1936,1,183972,238807,0.47,-1.97,10.40,0.01,-0.00,0.02,26.83
36890159,1917,1,184759,239372,-0.00,-2.16,10.90,0.01,0.02,0.02,26.83
36930160,1929,1,184913,239900,0.39,-2.27,9.97,0.02,-0.03,0.02,26.83
36970159,1932,1,185196,239462,0.48,-1.60,11.34,0.03,-0.03,0.02,26.83
37010192,1927,1,184660,239409,1.02,-1.19,9.80,0.05,-0.05,0.02,26.83
37050159,1920,1,184889,239042,0.83,-1.50,11.10,0.04,-0.01,0.02,26.83
37090846,1919,1,184295,236306,0.43,-1.14,9.74,0.09,-0.03,0.03,26.83
37129159,1907,1,182059,231842,1.13,-1.05,9.09,0.03,-0.15,0.02,26.83
37169159,1909,1,181444,231970,0.68,-0.60,10.43,0.02,-0.00,0.02,26.83
37209160,1920,1,181391,231708,1.04,-1.39,8.83,0.00,-0.07,0.02,26.83
37249160,1910,1,180983,230438,1.36,-1.05,10.04,-0.00,-0.09,0.02,26.83
37289171,1904,1,180260,230516,1.33,-1.36,9.14,-0.01,-0.09,0.03,26.83
37329171,1908,1,180282,230453,1.81,-0.63,8.75,0.03,-0.12,0.02,26.83
37369160,1919,1,180380,230734,1.77,-0.74,10.03,-0.02,-0.10,0.03,26.83
37409171,1920,1,180735,233221,1.17,-1.12,9.65,-0.01,-0.01,0.03,26.83
37449171,1905,1,181893,233781,1.41,-0.71,9.26,-0.01,-0.06,0.03,26.83
37489171,1927,1,182177,235108,0.97,-1.43,10.67,-0.04,-0.03,0.04,26.83
37529171,1907,1,182476,235156,1.77,-1.37,9.24,-0.01,-0.03,0.03,26.83
37569171,1914,1,182984,235975,1.05,-1.28,11.53,-0.03,-0.06,0.04,26.83
37609171,1895,1,183009,236163,1.64,-1.01,10.01,-0.00,0.01,0.04,26.83
37649160,1901,1,183296,236501,0.82,-1.36,10.36,-0.02,0.00,0.04,26.83
37689159,1909,1,183184,236706,1.06,-0.83,10.07,-0.01,-0.03,0.04,26.83
37729171,1904,1,183307,235908,0.52,-1.25,10.75,-0.05,0.03,0.04,26.83
37769159,1879,1,182687,234525,0.27,-1.19,10.08,-0.04,0.00,0.04,26.83
37809160,1893,1,181183,229587,1.14,-1.45,10.96,-0.07,-0.05,0.04,26.83
37849171,1866,1,179539,228160,1.30,-0.79,10.93,-0.06,0.04,0.05,26.83
37889160,1904,1,178592,225798,1.62,-0.85,8.07,-0.07,-0.03,0.04,26.83
37929171,1840,1,177968,225392,0.89,-0.62,10.18,-0.11,0.02,0.05,26.83
37969160,1909,1,177770,224569,1.25,-0.63,8.06,-0.12,0.01,0.04,26.83
38009159,1841,1,177912,226137,1.38,-0.80,10.22,-0.09,0.04,0.05,26.83
38049159,1902,1,178454,228219,1.94,-1.34,7.48,-0.12,0.01,0.05,26.83
38089158,1925,1,180243,232069,1.48,-0.99,9.35,-0.08,0.04,0.05,26.83
38129846,1967,1,181654,234283,1.32,-1.23,8.67,-0.10,0.00,0.05,26.83
38168160,1949,1,182773,236073,0.72,-1.60,10.55,-0.10,0.04,0.05,26.83
38208160,1954,1,183204,236796,1.48,-1.90,8.87,-0.07,-0.00,0.05,26.83
38248171,1905,1,183854,238154,0.62,-2.10,11.63,-0.09,0.06,0.06,26.83
38288159,1942,1,184487,239502,0.70,-2.07,8.97,-0.01,0.06,0.06,26.83
38328159,1818,1,184936,239503,0.83,-1.36,10.72,-0.03,0.01,-0.20,26.83
38368171,1904,1,184896,239931,0.30,-2.24,11.30,-0.02,0.08,-0.02,26.83
38408171,1866,1,184799,239228,0.31,-0.90,11.71,-0.01,0.04,-0.12,26.83
38448195,1875,1,184581,239614,0.27,-2.18,11.21,-0.00,0.15,0.05,26.83
38488159,1898,1,184356,237630,0.70,-1.31,9.38,0.01,-0.02,-0.02,26.83
38528171,1845,1,183893,237421,0.20,-1.49,11.39,0.01,0.03,0.07,26.83
38568142,1857,1,183754,236936,0.88,-1.02,9.71,-0.01,-0.04,0.04,26.83
38608171,1853,1,183483,236015,0.12,-1.26,9.91,-0.02,-0.07,0.05,26.83
38648201,1863,1,182995,234430,0.64,-1.47,9.70,-0.06,-0.06,0.03,26.83
38688171,1905,1,182394,234392,1.13,-1.43,9.90,-0.04,-0.09,0.03,26.83
38728171,1941,1,181975,232223,1.39,-0.99,8.63,-0.04,-0.13,0.03,26.83
38768173,1904,1,181585,232740,0.55,-1.62,10.24,-0.05,-0.09,0.04,26.83
38808171,1923,1,181867,232037,0.90,-1.37,9.14,-0.04,-0.05,0.03,26.83
38848171,1925,1,181789,233489,0.84,-2.32,10.05,-0.04,-0.06,0.04,26.83
38888171,1984,1,182632,234745,1.03,-1.75,8.49,-0.03,-0.08,0.04,26.83
38928174,1942,1,183149,235722,0.55,-1.59,10.33,0.00,-0.09,0.04,26.83
38968160,1942,1,183590,236603,0.61,-1.70,9.70,-0.01,-0.04,0.04,26.83
39008171,1934,1,183888,236916,0.64,-1.53,9.72,0.00,-0.04,0.04,26.83
39048160,1966,1,183895,237196,0.94,-1.80,10.42,0.01,-0.03,0.04,26.83
39088161,1967,1,183914,236883,1.45,-1.28,10.11,0.02,-0.03,0.04,26.83
39128160,1989,1,183844,237604,0.67,-1.50,9.05,0.03,-0.01,0.05,26.83
39168846,1926,1,183605,234831,1.19,-0.67,9.75,0.01,-0.06,0.03,26.85
39207164,1895,1,182985,235214,0.69,-1.29,10.06,0.02,0.05,0.08,26.85
39247142,1909,1,182894,234236,1.93,-0.48,8.69,0.02,-0.09,0.03,26.85
39287165,1904,1,183159,236794,1.13,-1.49,10.34,0.01,0.02,0.08,26.85
39327142,1887,1,183907,236367,1.22,-0.63,8.47,0.01,-0.01,0.03,26.85
39367160,1899,1,183609,236795,1.00,-1.36,10.75,-0.03,-0.09,0.04,26.85
39407174,1930,1,183896,236918,1.34,-1.18,9.21,-0.01,0.04,0.03,26.85
39447160,1960,1,184129,237311,0.80,-1.61,11.06,-0.02,-0.05,0.04,26.85
39487172,1946,1,184197,236913,1.03,-1.34,11.12,-0.01,0.01,0.04,26.85
39527160,1950,1,183516,236166,0.73,-1.19,9.96,-0.01,-0.07,0.04,26.85
39567173,1954,1,182905,234581,0.73,-1.23,9.52,-0.04,-0.06,0.03,26.85
39607171,1954,1,182612,234537,0.15,-1.83,11.04,-0.07,-0.02,0.04,26.85
39647173,1926,1,182612,234956,1.35,-0.86,10.42,-0.05,-0.01,0.03,26.85
39688171,1920,1,182348,233007,1.07,-1.08,10.75,-0.08,-0.04,0.03,26.85
39728171,1931,1,181444,234100,1.00,-1.41,8.88,-0.08,-0.01,0.02,26.85
39768171,1911,1,182516,234626,1.46,-1.34,10.03,-0.10,-0.03,0.02,26.85
39808174,1840,1,182055,233915,1.87,-0.65,10.05,-0.04,-0.03,0.03,26.85
39848171,1911,1,181504,230743,1.18,-1.24,8.92,-0.11,-0.02,0.02,26.85
39888173,1869,1,180945,230870,0.81,-1.18,9.47,-0.07,-0.02,0.03,26.85
39928171,1878,1,181289,231441,1.16,-2.03,7.75,-0.07,0.01,0.03,26.85
39966164,1867,1,181807,232275,0.97,-1.20,9.45,-0.06,-0.01,0.03,26.85
40006173,1919,1,181882,231827,1.13,-1.68,9.00,-0.05,-0.05,0.03,26.85
40046171,1915,1,182215,233160,0.46,-1.65,10.43,-0.03,0.06,0.03,26.85
40086160,1919,1,182437,233175,0.39,-1.99,9.59,-0.03,0.02,0.03,26.85
40126160,1923,1,182687,233894,0.43,-2.03,10.55,-0.02,0.05,0.03,26.85
40166160,1883,1,182807,233943,0.64,-1.30,9.11,0.01,0.06,0.03,26.85
40206832,1885,1,182716,234301,0.61,-1.06,9.96,-0.02,-0.02,0.03,26.87
40247171,1916,1,183243,235888,0.51,-1.49,9.45,-0.04,0.04,0.02,26.87
40287206,1898,1,183910,236881,1.01,-1.04,10.20,-0.02,-0.03,0.02,26.87
40327171,1894,1,184534,238092,1.07,-1.29,10.84,-0.01,0.04,0.03,26.87
40367164,1874,1,184814,238342,0.90,-1.54,9.74,-0.01,-0.03,0.03,26.87
40407171,1897,1,184988,238741,0.71,-1.63,9.90,-0.04,-0.06,-0.11,26.87
40447193,1902,1,185380,239668,0.52,-1.12,11.18,-0.01,-0.02,-0.06,26.87
40487190,1863,1,185916,240233,0.55,-1.57,10.87,0.00,-0.05,-0.09,26.87
40527174,1894,1,185804,239556,0.34,-1.38,10.69,0.02,-0.05,0.03,26.87
40567160,1909,1,185442,237095,0.20,-1.65,10.00,-0.02,-0.04,0.02,26.87
40607171,1895,1,184387,235790,0.27,-2.10,10.61,0.00,-0.06,0.02,26.87
40647160,1914,1,183703,233603,1.01,-2.32,8.87,-0.03,-0.13,0.01,26.87
40687173,1903,1,183172,233162,0.03,-0.91,11.22,-0.00,-0.05,0.02,26.87
40726172,1923,1,182360,230663,0.53,-0.97,9.17,0.01,-0.06,0.01,26.87
40766160,1887,1,181940,232696,0.23,-2.14,12.44,-0.02,0.02,0.03,26.87
40806164,1936,1,181791,231006,1.85,-0.91,7.43,-0.02,-0.14,-0.00,26.87
40846193,1866,1,181450,230808,1.12,-1.00,11.19,-0.03,-0.15,0.04,26.87
40886171,1924,1,181113,230789,1.19,-0.88,8.33,-0.05,-0.07,0.12,26.87
40926173,1921,1,181088,230802,0.67,-1.60,10.21,-0.05,-0.10,0.03,26.87
40966171,1936,1,180610,230367,2.11,-1.35,9.26,-0.01,-0.01,0.05,26.87
41006173,1936,1,181200,232663,0.27,-1.98,10.94,-0.04,0.00,0.11,26.87
41046159,1939,1,181361,232138,0.60,-1.32,7.59,0.01,-0.02,0.03,26.87
41086159,1943,1,181166,232471,0.56,-1.63,10.01,-0.03,-0.06,0.02,26.87
41126171,1919,1,181791,233154,1.15,-1.10,9.68,-0.00,0.06,0.01,26.87
41166159,1923,1,181563,233448,1.28,-0.96,10.15,0.01,-0.04,0.02,26.87
41206160,1919,1,182249,234699,1.11,-0.82,9.09,-0.01,0.02,0.02,26.87
41246845,1931,1,182428,234909,0.83,-0.95,9.10,-0.01,-0.01,0.01,26.85
41285171,1910,1,182998,234560,1.49,-1.19,10.43,-0.02,0.03,0.01,26.85
41325164,1885,1,182589,234222,1.61,-0.83,10.42,-0.02,-0.08,0.01,26.85
41365171,1891,1,182929,235764,1.41,-1.03,9.95,-0.03,0.04,0.02,26.85
41405160,1856,1,183786,236785,0.52,-1.25,9.92,-0.04,-0.02,0.01,26.85
41445171,1845,1,183889,236435,0.88,-1.04,10.41,-0.03,-0.01,0.01,26.85
41485171,1867,1,183797,238178,0.71,-1.82,9.98,-0.03,-0.00,0.02,26.85
41525175,1845,1,184266,236534,0.95,-0.70,9.52,-0.02,-0.05,0.01,26.85
41565171,1875,1,183101,234487,0.53,-1.34,11.21,-0.04,-0.06,0.02,26.85
41605172,1877,1,181842,232129,1.07,-0.99,8.92,-0.05,0.01,0.02,26.85
41645160,1856,1,181666,232111,0.56,-1.71,10.85,-0.06,0.04,0.02,26.85
41685159,1874,1,181040,230620,1.48,-1.01,8.45,-0.02,-0.01,0.02,26.85
41726219,1893,1,181026,231531,-0.00,-1.53,10.98,-0.10,0.02,0.14,26.85
41766171,1919,1,181106,231813,0.97,-0.88,7.55,-0.04,-0.04,0.01,26.85
41806171,1889,1,182092,233124,1.23,-1.51,12.12,-0.08,0.03,0.04,26.85
41846159,1936,1,181840,232791,0.97,-0.63,8.56,-0.04,0.06,0.02,26.85
41886159,1928,1,182144,234906,1.08,-1.97,10.56,-0.10,-0.02,0.02,26.85
41926175,1920,1,182964,236315,1.41,-1.14,8.57,-0.05,0.05,0.02,26.85
41966160,1911,1,183858,236830,0.85,-1.81,10.28,-0.08,-0.02,0.02,26.85
42006171,1923,1,184057,236814,0.90,-1.60,9.99,-0.03,0.04,-0.04,26.85
42046171,1936,1,184516,237743,0.42,-2.10,10.17,-0.04,0.05,-0.05,26.85
42086171,1913,1,184810,237742,0.35,-1.35,9.40,-0.02,0.02,-0.09,26.85
42126171,1936,1,184956,238162,0.41,-2.29,10.92,-0.04,0.03,0.02,26.85
42166160,1921,1,184631,237373,0.95,-0.97,8.01,0.02,0.01,-0.03,26.85
42206159,1922,1,184444,237870,0.74,-1.64,10.93,-0.04,-0.01,0.02,26.85
42246171,1922,1,184815,238003,0.95,-0.93,9.49,-0.03,0.08,0.01,26.85
42284846,1917,1,184269,237238,1.04,-1.00,10.69,-0.04,-0.06,0.01,26.85
42325171,1936,1,184685,237788,1.23,-1.38,9.47,-0.04,0.09,0.02,26.85
42365164,1919,1,183883,235960,0.91,-0.68,8.68,-0.03,-0.11,0.02,26.85
42405171,1936,1,183906,235643,0.70,-1.41,10.93,-0.08,0.04,0.02,26.85
42445159,1936,1,182954,235104,0.63,-1.26,9.07,-0.06,-0.03,0.03,26.85
42485171,1937,1,183325,234604,1.01,-1.63,9.73,-0.07,0.01,0.02,26.85
42525166,1919,1,182525,233402,0.55,-1.64,10.25,-0.03,0.01,0.03,26.85
42565159,1927,1,182462,233573,0.42,-1.72,8.86,-0.05,0.01,0.03,26.85
42605160,1913,1,181792,231647,0.04,-1.44,8.52,-0.04,-0.01,0.02,26.85
42645171,1887,1,181431,229811,0.61,-1.87,9.93,-0.06,0.06,0.02,26.85
42685160,1917,1,180433,228452,0.77,-0.78,9.31,-0.02,0.01,0.02,26.85
42725159,1911,1,180677,229524,0.72,-1.58,9.46,-0.04,0.06,0.02,26.85
42765164,1946,1,181220,230923,0.43,-0.82,8.62,-0.02,0.04,0.02,26.85
42805159,1915,1,181871,232068,0.83,-1.58,9.61,-0.06,-0.01,0.02,26.85
42845173,1910,1,182102,232965,1.39,-0.90,9.98,-0.03,-0.01,0.02,26.85
42885171,1909,1,182936,234725,1.24,-1.32,10.23,-0.04,0.00,0.02,26.85
42925160,1887,1,183244,234897,0.82,-0.75,10.20,-0.02,0.00,0.02,26.85
42965159,1905,1,183723,235367,0.52,-1.63,10.63,-0.05,0.04,0.02,26.85
43005160,1904,1,182974,233808,0.63,-1.11,9.83,-0.01,-0.05,0.03,26.85
43045171,1905,1,182795,233845,0.82,-1.67,10.14,-0.04,0.00,0.03,26.85
43085160,1918,1,182419,231699,0.24,-0.96,10.67,-0.03,-0.05,0.03,26.85
43125171,1904,1,181184,229802,0.69,-1.19,11.20,-0.04,0.02,0.16,26.85
43165160,1901,1,180113,228357,0.43,-1.08,9.03,-0.03,0.06,0.27,26.85
43205159,1902,1,179926,228672,0.26,-2.16,9.71,-0.04,0.00,0.10,26.85
43245160,1911,1,180024,229680,0.91,-0.66,10.58,-0.01,-0.01,0.04,26.85
43285171,1927,1,180947,232139,0.56,-0.97,9.52,-0.05,0.02,0.04,26.85
43325845,1920,1,181677,232335,0.63,-0.38,10.03,-0.05,-0.04,0.03,26.83
43364230,1911,1,181642,231001,0.73,-1.27,10.63,-0.08,-0.05,0.04,26.83
43404171,1916,1,180532,228265,1.24,-0.58,9.73,-0.06,-0.06,0.04,26.83
43444171,1931,1,179719,227924,1.39,-1.13,9.32,-0.05,-0.11,0.05,26.83
43484173,1925,1,180104,227842,0.79,-0.87,10.01,-0.09,-0.04,0.05,26.83
43524172,1930,1,180013,228879,1.04,-1.56,10.75,-0.06,-0.09,0.05,26.83
43564212,1916,1,180189,227840,1.41,-0.99,9.26,-0.03,-0.05,0.06,26.83
43604171,1926,1,180380,229315,0.76,-1.38,10.70,-0.03,-0.06,0.06,26.83
43644171,1932,1,180536,228782,0.70,-0.98,9.31,0.01,-0.02,0.07,26.83
43684159,1919,1,180205,229107,0.74,-1.41,9.39,-0.02,-0.05,0.17,26.83
43724172,1899,1,180332,228458,0.94,-0.76,9.51,0.01,0.01,0.07,26.83
43764138,1913,1,180048,228782,1.08,-1.75,9.99,0.01,0.01,0.21,26.83
43804141,1909,1,180407,230273,1.33,-0.36,9.66,0.03,0.02,0.08,26.83
43844141,1923,1,181010,232281,0.95,-1.06,9.55,0.01,-0.04,0.08,26.83
43884160,1917,1,181752,233732,1.29,-0.38,8.71,0.01,-0.06,0.07,26.83
43924159,1918,1,182473,234160,1.73,-0.41,10.89,-0.03,-0.09,0.08,26.83
43964173,1910,1,182420,235036,1.52,-0.44,10.01,0.01,-0.04,0.09,26.83
44004159,1920,1,182606,234298,1.53,-0.06,9.31,-0.02,-0.12,0.09,26.83
44044171,1904,1,182699,235393,1.02,-0.88,11.44,-0.01,0.01,0.09,26.83
44084159,1902,1,182865,235419,1.46,-0.95,8.50,-0.02,-0.07,0.09,26.83
44124171,1909,1,183435,235942,1.06,-1.09,11.43,-0.01,-0.03,0.09,26.83
44164171,1906,1,183293,234400,1.39,-0.66,10.07,0.01,-0.06,0.10,26.83
44204160,1905,1,183144,234825,0.82,-0.62,10.41,-0.00,-0.07,0.10,26.83
44244171,1920,1,183279,235388,1.09,-0.93,9.84,-0.00,-0.03,0.10,26.83
44284171,1920,1,183512,235058,0.76,-1.08,10.16,-0.02,-0.04,0.10,26.83
44324171,1911,1,183231,234259,1.18,-0.71,11.18,-0.01,-0.04,0.10,26.83
44364857,1904,1,182034,231609,1.39,-0.45,10.01,-0.00,-0.10,0.10,26.91
44403171,1907,1,181052,230963,1.47,-0.13,10.25,-0.02,-0.04,0.10,26.91
44443172,1905,1,180971,230258,1.37,-0.42,10.59,-0.04,-0.01,0.10,26.91
44483171,1914,1,180646,231996,1.74,-0.57,10.03,-0.03,-0.02,0.12,26.91
44523188,1894,1,181543,231823,1.90,-0.55,10.00,-0.08,-0.06,0.10,26.91
44563171,1937,1,181203,232590,1.56,-0.13,11.17,-0.03,-0.06,0.10,26.91
44603173,1933,1,181415,232015,1.97,-0.06,10.20,-0.08,-0.08,0.10,26.91
44643171,1918,1,181328,233605,1.19,-0.63,10.13,-0.06,0.00,0.10,26.91
44683159,1907,1,181841,232935,1.76,-0.50,8.44,-0.09,-0.11,0.09,26.91
44723171,1904,1,181973,233962,1.16,-1.06,11.64,-0.09,-0.03,0.10,26.91
44763171,1920,1,182414,234708,1.28,-1.08,9.54,-0.06,-0.01,0.10,26.91
44803171,1881,1,182405,233816,1.18,-0.24,10.18,-0.04,-0.10,0.10,26.91
44843172,1904,1,182609,234933,0.60,-1.19,11.25,-0.08,0.09,0.10,26.91
44883159,1921,1,181997,232184,1.13,-0.61,8.66,-0.06,-0.10,0.10,26.91
44923171,1895,1,181717,232615,0.96,-1.22,9.92,-0.10,-0.01,0.10,26.91
44963171,1904,1,181533,231845,1.52,0.08,9.40,-0.06,-0.06,0.10,26.91
45003172,1906,1,182040,233513,1.23,-0.93,11.38,-0.07,0.02,0.10,26.91
45043160,1892,1,181795,232956,1.41,-0.42,9.57,-0.07,-0.04,0.10,26.91
45083171,1901,1,182204,234961,1.32,-1.26,10.07,-0.10,-0.02,0.09,26.91
45123171,1931,1,183123,236386,1.70,-0.30,10.66,-0.07,-0.02,0.09,26.91
45163171,1910,1,183744,237743,1.77,-1.01,10.46,-0.09,-0.03,0.10,26.91
45203176,1901,1,184308,238521,1.37,0.08,9.39,-0.07,-0.03,0.09,26.91
45243159,1927,1,184835,238604,1.18,-1.13,10.57,-0.09,-0.03,0.10,26.91
45283171,1911,1,184717,238774,0.53,-1.25,9.55,-0.07,-0.07,0.10,26.91
45323171,1914,1,184659,238012,1.15,-1.39,9.75,-0.08,-0.11,0.10,26.91
45363171,1911,1,184504,237981,0.79,-1.41,9.75,-0.04,-0.04,0.10,26.91
45403870,1906,1,184376,238008,1.39,-1.72,9.92,-0.05,-0.12,0.09,26.87
45442171,1904,1,184809,238600,0.34,-1.67,10.35,-0.01,0.03,0.10,26.87
45482162,1895,1,184648,239011,0.74,-1.48,8.51,-0.00,-0.09,0.09,26.87
45522171,1895,1,185323,239438,0.37,-2.30,11.25,-0.01,-0.04,-0.04,26.87
45562190,1910,1,185345,239954,0.41,-0.85,8.54,0.02,-0.06,0.04,26.87
45602159,1904,1,185452,238997,0.56,-1.31,9.50,-0.02,-0.09,-0.13,26.87
45642190,1913,1,185092,238305,-0.05,-1.95,10.42,-0.01,-0.02,0.06,26.87
45682188,1900,1,184907,238792,0.28,-2.08,8.78,-0.01,-0.04,-0.02,26.87
45722190,1866,1,185080,238269,0.41,-1.50,9.30,-0.01,-0.09,-0.04,26.87
45762187,1893,1,185074,238970,0.44,-1.74,10.85,-0.01,-0.01,0.06,26.87
45802173,1934,1,185218,238271,0.42,-1.71,10.49,0.01,-0.01,0.04,26.87
45842160,1925,1,184666,237991,0.64,-1.62,10.16,-0.01,-0.06,0.05,26.87
45882174,1821,1,185118,238135,0.45,-1.67,10.13,-0.03,-0.03,0.04,26.87
45922171,1859,1,184562,237432,0.54,-1.30,9.53,-0.01,-0.10,0.04,26.87
45962174,1863,1,184974,238260,0.57,-1.99,10.88,-0.04,0.01,0.03,26.87
46002159,1874,1,184506,238098,0.92,-1.45,9.09,-0.03,-0.16,0.03,26.87
46042174,1914,1,185404,238800,0.31,-1.94,10.73,-0.07,-0.00,0.02,26.87
46082174,1904,1,184620,238164,0.42,-1.23,9.17,-0.01,-0.06,0.02,26.87
46122173,1900,1,185125,238259,0.56,-1.25,10.58,-0.08,-0.02,0.01,26.87
46162171,1933,1,184527,238205,0.21,-1.08,10.49,-0.01,0.01,0.01,26.87
46202166,1927,1,184304,236755,0.79,-1.70,8.39,-0.07,-0.07,-0.01,26.87
46242189,1893,1,183321,235005,-0.35,-1.25,8.63,-0.06,-0.07,0.00,26.87
46282190,1943,1,182430,232725,0.74,-1.33,8.24,-0.07,-0.05,-0.02,26.87
46322189,1921,1,182147,232438,-0.85,-2.01,11.15,-0.06,0.14,-0.01,26.87
46362193,1926,1,180841,229463,0.29,-2.21,8.59,-0.05,-0.05,-0.02,26.87
46402189,1921,1,180784,229482,-0.52,-1.93,10.46,-0.07,0.05,-0.03,26.87
46442879,1951,1,180289,229694,0.42,-1.66,9.36,-0.03,-0.04,-0.03,26.97
46481193,1953,1,180873,229292,-0.24,-1.73,10.00,-0.05,0.02,-0.03,26.97
46521194,1970,1,180257,228154,-0.18,-2.10,8.94,-0.02,-0.04,-0.03,26.97
46561206,1984,1,179930,227446,0.01,-1.49,8.91,-0.03,-0.07,-0.04,26.97
46601193,1972,1,179984,227646,-0.29,-1.50,10.09,-0.04,0.03,0.00,26.97
46641220,1934,1,179995,228486,-0.09,-1.60,9.75,-0.00,0.08,-0.05,26.97
46681190,1936,1,179906,227727,0.20,-1.87,9.06,-0.01,0.04,-0.06,26.97
46721171,1895,1,179567,227727,-0.42,-2.47,8.68,-0.03,0.06,-0.06,26.97
46761193,1901,1,179943,228938,-0.34,-1.69,9.93,-0.02,0.10,-0.07,26.97
46801189,1892,1,180737,232398,-0.57,-2.58,9.50,-0.00,0.16,-0.08,26.97
46841217,1890,1,182357,235610,-0.42,-2.11,8.49,-0.01,-0.03,-0.30,26.97
46881205,1883,1,183612,237261,-0.73,-1.98,9.44,0.00,-0.02,-0.15,26.97
46921189,1927,1,183865,238169,-0.62,-2.15,9.52,-0.00,0.05,-0.08,26.97
46961188,1904,1,183964,237425,-0.92,-3.39,8.56,-0.04,0.01,-0.03,26.97
47001193,1869,1,183621,237490,-0.89,-3.17,8.98,-0.01,0.03,-0.07,26.97
47041189,1874,1,183659,237127,-0.97,-2.72,10.88,-0.00,0.02,-0.15,26.97
47081193,1889,1,183379,235862,-1.10,-2.41,10.26,0.06,0.06,-0.19,26.97
47121171,1906,1,183220,236505,-1.15,-3.05,11.04,0.03,0.06,-0.14,26.97
47161173,1903,1,183789,237585,-0.86,-2.51,9.26,0.04,-0.01,-0.16,26.97
47201189,1915,1,184666,238627,-1.49,-3.49,11.35,0.01,-0.01,-0.11,26.97
47241193,1918,1,185165,239031,-1.38,-3.07,9.70,-0.00,-0.01,-0.12,26.97
47281206,1910,1,184952,238613,-1.19,-2.80,9.93,0.01,-0.04,-0.14,26.97
47321193,1899,1,184851,238390,-1.55,-3.33,11.57,-0.03,0.05,-0.14,26.97
47361189,1904,1,184416,237796,-0.89,-2.46,9.75,0.01,-0.03,-0.17,26.97
47401193,1898,1,184347,236910,-1.07,-2.33,10.57,-0.00,-0.01,-0.15,26.97
47441206,1905,1,183820,236443,-0.88,-2.26,9.48,0.03,-0.01,-0.16,26.97
47481879,1910,1,183552,235260,-0.44,-1.98,9.24,0.01,-0.09,-0.17,26.93
47520189,1881,1,182903,233356,-0.99,-2.11,10.14,0.01,-0.01,-0.16,26.93
47560193,1877,1,180743,229227,0.15,-1.65,7.32,-0.00,-0.26,-0.15,26.93
47600189,1894,1,180052,229215,-1.48,-2.89,9.39,-0.05,-0.05,-0.02,26.93
47640206,1898,1,180579,230458,-0.74,-1.73,8.59,-0.01,-0.04,-0.18,26.93
47680206,1904,1,181036,232258,-0.57,-2.18,10.69,0.00,0.03,-0.18,26.93
47720172,1926,1,182443,234664,-0.79,-2.23,8.80,0.01,0.05,-0.18,26.93
47760172,1934,1,182693,235020,-0.30,-2.58,9.80,-0.02,-0.10,-0.18,26.93
47800206,1934,1,183989,236712,-1.33,-2.49,11.64,-0.03,0.06,-0.18,26.93
47840189,1904,1,183192,233900,-1.03,-2.36,8.83,-0.00,-0.06,-0.18,26.93
47880206,1900,1,183729,236138,-1.66,-2.64,12.13,-0.04,0.07,-0.18,26.93
47920188,1923,1,183379,234572,-1.10,-2.04,9.56,-0.01,-0.02,-0.19,26.93
47960206,1907,1,183314,234130,-1.28,-3.67,11.95,-0.03,0.02,-0.19,26.93
48000189,1917,1,181731,230233,-1.49,-2.88,6.71,-0.04,-0.11,-0.18,26.93
48040206,1933,1,181270,232563,-1.59,-2.97,12.21,-0.05,0.07,-0.20,26.93
48080189,1906,1,182205,232471,-1.49,-2.92,7.17,0.01,0.10,-0.20,26.93
48120172,1920,1,181789,234170,-1.38,-3.09,10.52,-0.03,0.02,-0.21,26.93
48160188,1920,1,183280,235698,-1.44,-2.50,8.83,-0.01,0.10,-0.21,26.93
48200192,1882,1,183043,235025,-1.28,-2.99,9.22,0.01,-0.04,-0.21,26.93
48240188,1898,1,182893,234020,-1.00,-2.83,8.73,-0.06,-0.05,-0.22,26.93
48280212,1882,1,181645,231344,-1.03,-2.02,9.61,-0.04,-0.10,-0.22,26.93
48320205,1919,1,180855,230710,-1.27,-2.14,8.21,-0.03,-0.04,-0.18,26.93
48360205,1904,1,180108,229743,-0.29,-1.93,8.72,-0.04,-0.16,-0.22,26.93
48400205,1903,1,181208,232890,-1.46,-3.09,11.59,-0.04,0.14,-0.19,26.93
48440192,1904,1,182006,233531,-0.71,-2.85,7.49,-0.01,-0.05,-0.23,26.93
48480222,1884,1,183139,235035,-1.36,-3.03,13.27,-0.07,0.05,-0.24,26.93
48520879,1885,1,183716,236206,-1.67,-2.54,10.71,0.02,0.08,-0.23,26.87
48559171,1878,1,183330,233740,-1.63,-3.28,10.07,-0.01,-0.03,-0.23,26.87
48599205,1878,1,183302,236045,-1.81,-3.02,11.88,-0.00,0.12,-0.23,26.87
48639189,1911,1,183389,234420,-0.64,-1.53,9.58,0.01,-0.07,-0.32,26.87
48679192,1868,1,181901,231596,-1.70,-2.11,10.21,-0.02,0.03,-0.21,26.87
48719188,1914,1,181574,233411,-1.33,-3.15,8.98,-0.06,0.06,-0.25,26.87
48759192,1915,1,181716,230446,-0.79,-1.29,9.76,0.00,-0.01,-0.28,26.87
48799188,1932,1,180336,230564,-1.35,-3.05,9.74,-0.05,0.03,-0.24,26.87
48839192,1910,1,181130,232277,-0.89,-2.18,7.96,-0.06,0.10,-0.25,26.87
48879188,1898,1,181466,231034,-1.27,-1.60,11.53,-0.04,-0.09,-0.24,26.87
48919205,1935,1,180560,231323,-0.58,-2.04,8.95,-0.05,0.03,-0.25,26.87
48959188,1903,1,180650,229569,-1.03,-2.25,8.95,-0.07,-0.05,-0.26,26.87
48999206,1931,1,179979,228618,-0.90,-2.54,11.42,-0.04,0.02,-0.23,26.87
49039187,1930,1,179402,227705,-0.89,-1.76,9.18,-0.08,0.02,-0.09,26.87
49079189,1939,1,179280,227744,-1.43,-2.54,10.73,-0.08,0.03,-0.19,26.87
49119188,1923,1,179514,228901,-1.43,-2.39,10.21,-0.07,0.08,-0.24,26.87
49159192,1939,1,180256,231035,-0.95,-2.40,10.90,-0.09,0.08,-0.24,26.87
49199187,1916,1,181196,231835,-1.03,-2.47,11.16,-0.05,0.07,-0.24,26.87
49239192,1941,1,181169,230822,-1.01,-2.81,9.55,-0.05,0.05,-0.25,26.87
49279188,1909,1,180692,230515,-1.43,-3.04,10.68,-0.09,-0.01,-0.25,26.87
49319206,1919,1,181116,231887,-1.80,-3.00,9.10,-0.02,0.12,-0.24,26.87
49359187,1904,1,181694,233011,-1.79,-2.98,11.54,-0.02,0.07,-0.25,26.87
49399192,1891,1,180735,231139,-0.79,-1.83,6.92,-0.02,-0.04,-0.26,26.87
49439205,1885,1,181500,233463,-0.78,-2.73,11.34,-0.06,0.08,-0.24,26.87
49479193,1901,1,180798,230594,-0.42,-0.45,6.35,-0.03,-0.03,-0.34,26.87
49519206,1856,1,181054,232875,-1.57,-3.02,11.01,-0.12,0.07,-0.23,26.87
49559879,1884,1,181747,234060,-0.72,-1.63,8.18,-0.06,0.02,-0.43,26.93
49598188,1873,1,182273,234551,-1.35,-3.45,12.17,-0.04,-0.02,-0.24,26.93
49638206,1886,1,182619,235633,-1.11,-3.24,10.43,-0.04,0.09,-0.31,26.93
49678189,1904,1,182579,233678,-1.49,-2.53,10.56,-0.03,-0.07,-0.22,26.93
49718206,1904,1,181996,233108,-1.55,-2.56,12.24,-0.03,0.06,-0.24,26.93
49758189,1920,1,181217,232038,-1.13,-2.66,10.03,-0.05,0.01,-0.24,26.93
49798192,1938,1,181392,232267,-1.45,-2.87,10.69,-0.04,0.05,-0.24,26.93
49838189,1906,1,181127,231826,-1.25,-2.45,10.34,-0.06,-0.02,-0.25,26.93
49878206,1902,1,181215,231147,-1.49,-2.94,10.37,-0.07,0.05,-0.24,26.93
49918223,1902,1,179998,227626,-1.42,-2.70,10.65,-0.06,0.01,-0.24,26.93
49958192,1936,1,178841,226033,-1.04,-2.71,9.96,-0.09,-0.00,-0.24,26.93
49998205,1916,1,178431,225000,-0.66,-1.88,10.32,-0.07,-0.00,-0.25,26.93
50038205,1911,1,177601,223399,-0.24,-2.48,8.15,-0.07,-0.05,-0.24,26.93
50078205,1899,1,176746,221023,-1.39,-2.23,9.03,-0.12,-0.05,-0.03,26.93
50118206,1907,1,175228,219284,-0.93,-2.22,8.06,-0.13,0.09,0.30,26.93
50158171,1942,1,175889,223633,-1.71,-3.00,10.03,-0.13,0.10,-0.08,26.93
50198188,1915,1,177996,224835,-0.09,-1.81,7.78,-0.05,0.05,-0.25,26.93
50238187,1856,1,178137,226422,-1.03,-2.06,13.78,-0.11,0.01,-0.22,26.93
50278192,1952,1,179552,228634,-1.36,-2.55,11.37,-0.04,0.30,-0.22,26.93
50318188,1863,1,178420,224385,-1.31,-2.64,9.33,0.01,-0.10,-0.21,26.93
50358192,1949,1,178248,227097,-1.03,-2.88,13.32,-0.06,0.19,0.04,26.93
50398171,1913,1,178674,226736,-0.88,-2.04,8.56,-0.03,0.02,-0.21,26.93
50438189,1926,1,178373,227479,-0.79,-2.41,9.65,-0.00,-0.01,-0.21,26.93
50478205,1905,1,179104,229053,-0.39,-1.59,11.11,-0.09,0.02,-0.21,26.93
50518192,1928,1,179359,229584,-0.48,-2.35,9.74,-0.02,-0.02,-0.20,26.93
50558205,1939,1,179729,230288,-0.92,-1.96,9.78,-0.05,0.03,-0.20,26.93
50598875,1891,1,179953,230071,-0.73,-2.35,9.96,-0.03,0.01,-0.20,26.97
50639186,1921,1,179376,228254,-0.15,-2.72,10.17,0.01,-0.00,-0.31,26.97
50679189,1903,1,179201,229119,-0.63,-2.21,9.52,-0.01,-0.02,-0.30,26.97
50719205,1917,1,179752,230511,-0.73,-1.99,8.25,-0.01,-0.04,-0.44,26.97
50759205,1887,1,180252,231067,-1.00,-1.89,9.94,-0.03,-0.02,-0.36,26.97
50797205,1919,1,180553,232268,-0.63,-2.54,9.77,-0.01,0.01,-0.26,26.97
50837191,1891,1,181143,233408,-0.12,-2.31,9.53,-0.01,-0.07,-0.34,26.97
50877204,1872,1,181606,233191,-1.11,-2.71,10.32,-0.02,-0.02,-0.34,26.97
50917205,1882,1,181274,232940,-0.81,-2.50,9.81,-0.01,-0.02,-0.19,26.97
50957205,1905,1,181210,232374,-0.75,-1.94,10.35,-0.04,-0.02,-0.24,26.97
50997205,1905,1,180871,231015,-0.66,-2.10,10.76,-0.00,0.04,-0.20,26.97
51037186,1915,1,180035,230125,-0.35,-2.46,9.10,-0.03,-0.01,-0.19,26.97
51077205,1926,1,180182,230005,-0.41,-2.11,10.77,-0.03,-0.00,-0.19,26.97
51117204,1909,1,180113,230143,-0.53,-2.51,9.35,-0.01,0.02,-0.18,26.97
51157189,1925,1,180125,231346,-0.10,-2.59,9.42,-0.06,-0.05,-0.18,26.97
51197205,1927,1,181275,233125,-0.35,-2.08,10.40,-0.04,0.04,-0.18,26.97
51237189,1941,1,181532,233601,-0.21,-2.09,9.73,-0.02,0.04,-0.18,26.97
51277186,1921,1,181600,232659,-0.06,-2.27,9.28,-0.05,0.04,-0.18,26.97
51317189,1925,1,181128,231505,-0.24,-2.39,9.79,-0.04,0.03,-0.18,26.97
51357187,1909,1,181045,232345,0.29,-1.74,9.60,-0.06,0.02,-0.19,26.97
51397171,1905,1,181296,232348,-0.65,-2.22,10.38,-0.08,0.04,-0.18,26.97
51437187,1914,1,181276,232057,-0.30,-1.93,9.26,-0.07,0.05,-0.18,26.97
51477189,1904,1,180539,228790,-0.47,-1.67,10.44,-0.08,0.01,-0.18,26.97
51517187,1882,1,179845,228740,-0.04,-1.44,10.89,-0.05,0.09,-0.18,26.97
51557189,1903,1,179242,227306,0.32,-1.93,9.61,-0.04,0.04,-0.18,26.97
51597171,1905,1,178764,226735,0.10,-2.42,9.13,-0.08,0.01,-0.18,26.97
51637857,1881,1,178452,225235,-0.21,-2.06,10.27,-0.11,-0.03,-0.17,26.93
51678205,1888,1,177918,225014,-0.59,-2.20,9.84,-0.08,0.08,-0.16,26.93
51718188,1915,1,177574,224438,-0.41,-2.19,8.57,-0.11,0.01,-0.16,26.93
51758210,1913,1,177877,225418,-0.48,-2.10,10.68,-0.09,0.05,-0.16,26.93
51798188,1920,1,178005,225899,-0.02,-1.80,9.78,-0.06,0.02,-0.15,26.93
51838186,1936,1,178391,226577,-0.05,-1.97,10.02,-0.04,0.06,-0.15,26.93
51878189,1937,1,178543,226958,0.22,-2.23,9.41,-0.02,0.02,-0.14,26.93
51918171,1927,1,178522,226941,0.14,-1.96,10.32,-0.04,-0.03,-0.14,26.93
51958211,1891,1,178748,227432,-0.45,-2.16,10.63,-0.03,0.04,-0.13,26.93
51996187,1914,1,178536,226789,-0.29,-2.38,9.38,-0.04,0.02,-0.13,26.93
52036189,1889,1,178976,226774,-0.33,-1.97,10.13,-0.03,0.04,-0.12,26.93
52076187,1894,1,179229,228130,0.27,-2.28,10.53,0.01,0.02,-0.12,26.93
52116159,1919,1,179829,228929,0.39,-1.97,8.85,-0.00,-0.02,-0.12,26.93
52156186,1869,1,180043,229443,0.40,-1.68,9.34,-0.00,-0.04,-0.20,26.93
52196188,1903,1,180268,230243,0.34,-1.63,9.62,-0.01,-0.04,-0.17,26.93
52236187,1893,1,180412,230744,-0.26,-1.45,9.69,-0.02,-0.03,-0.13,26.93
52276205,1920,1,180577,230455,-0.08,-1.45,9.52,-0.03,-0.01,-0.11,26.93
52316204,1893,1,180110,228679,-0.31,-1.40,10.04,-0.02,-0.01,-0.10,26.93
52356205,1911,1,179032,227161,0.73,-1.12,9.76,-0.01,-0.03,-0.10,26.93
52396186,1903,1,178599,226364,0.57,-1.27,10.36,0.00,-0.00,-0.10,26.93
52436171,1894,1,178417,227108,1.19,-1.36,9.10,0.01,-0.04,-0.09,26.93
52476171,1901,1,178943,228094,0.95,-1.34,10.05,-0.01,-0.06,-0.09,26.93
52516189,1902,1,179731,230673,0.79,-1.58,11.17,0.00,0.03,-0.08,26.93
52556160,1917,1,180217,230245,0.66,-1.24,9.22,-0.02,-0.07,-0.08,26.93
52596189,1906,1,179784,229159,0.25,-1.44,10.93,-0.02,-0.04,-0.07,26.93
52636188,1904,1,179183,228258,0.19,-1.23,10.18,-0.04,-0.02,0.04,26.93
52676857,1917,1,178793,227434,0.47,-0.99,11.24,-0.03,-0.01,0.09,26.77
52717171,1915,1,178421,225972,0.21,-1.63,10.46,-0.03,0.01,0.13,26.77
52757159,1904,1,177588,223470,0.85,-0.75,9.07,-0.01,-0.04,0.10,26.77
52797171,1925,1,177146,222228,0.85,-1.36,10.89,-0.03,-0.05,0.00,26.77
52837171,1892,1,176419,221576,0.99,-1.52,10.30,0.02,0.16,0.16,26.77
52877137,1914,1,176089,220955,1.57,-1.38,8.67,0.01,-0.08,-0.03,26.77
52917171,1933,1,175933,220594,1.03,-1.10,10.16,0.01,0.00,-0.02,26.77
52957159,1919,1,175927,221485,1.23,-1.75,10.03,-0.00,0.05,0.04,26.77
52997159,1921,1,176169,221526,0.97,-1.32,9.05,-0.00,-0.04,-0.02,26.77
53037186,1926,1,176009,221516,0.85,-1.46,9.52,-0.02,-0.02,-0.02,26.77
53077188,1933,1,176511,223121,0.45,-1.54,8.90,-0.04,0.02,-0.02,26.77
53117171,1911,1,176888,223711,0.88,-0.94,9.84,-0.03,-0.02,-0.02,26.77
53157188,1931,1,177528,225655,0.57,-1.38,10.26,-0.05,0.03,-0.01,26.77
53197171,1924,1,177655,226680,1.26,-0.96,7.92,-0.02,-0.03,-0.01,26.77
53237188,1923,1,178707,227851,0.92,-1.11,9.97,-0.07,0.02,-0.01,26.77
53275171,1921,1,178856,229418,1.22,-0.68,8.73,-0.00,0.04,-0.00,26.77
53315171,1938,1,179871,231115,1.69,-1.13,9.05,-0.05,0.00,-0.01,26.77
53355171,1920,1,180605,231925,1.36,-0.74,9.68,-0.03,0.02,-0.00,26.77
53395174,1917,1,180793,231966,1.79,-1.25,10.02,-0.05,-0.00,-0.00,26.77
53435187,1917,1,180584,229689,1.26,-0.79,9.50,-0.04,0.03,0.00,26.77
53475160,1904,1,179766,228360,1.46,-1.25,9.85,-0.05,0.00,-0.00,26.77
53515171,1902,1,179677,228342,1.16,-1.08,9.86,-0.07,0.02,0.00,26.77
53555160,1885,1,179481,228355,1.45,-0.95,10.04,-0.07,0.00,-0.00,26.77
53595171,1886,1,179665,228454,1.20,-1.06,10.23,-0.10,0.01,0.00,26.77
53635160,1887,1,179542,228690,0.87,-1.26,9.66,-0.08,0.03,0.01,26.77
53675160,1895,1,179609,228815,1.01,-1.21,8.71,-0.11,0.00,0.00,26.77
53715846,1875,1,179829,229309,0.58,-0.84,10.55,-0.10,0.04,0.01,26.77
53756159,1897,1,180200,230888,0.78,-1.29,9.80,-0.10,0.03,-0.15,26.77
53796171,1888,1,180874,231849,0.64,-0.94,9.41,-0.09,0.02,-0.27,26.77
53835171,1907,1,181081,232137,0.81,-0.92,9.82,-0.10,-0.02,-0.21,26.77
53875189,1907,1,181270,232819,0.62,-1.12,9.98,-0.09,0.02,-0.10,26.77
53915171,1923,1,181410,233210,0.80,-0.88,9.18,-0.09,-0.03,-0.07,26.77
53955188,1939,1,181897,234182,0.32,-1.64,10.17,-0.09,0.03,-0.04,26.77
53995171,1929,1,182278,235241,0.75,-0.97,8.99,-0.08,-0.02,-0.07,26.77
54035188,1909,1,182928,235644,0.36,-0.96,10.35,-0.08,0.01,-0.13,26.77
54075171,1895,1,183184,236619,0.49,-1.54,10.73,-0.07,0.03,-0.03,26.77
54115172,1918,1,183264,234962,0.51,-1.17,9.39,-0.07,0.02,-0.07,26.77
54155171,1903,1,182937,234668,0.43,-1.44,10.12,-0.08,-0.00,-0.00,26.77
54195188,1913,1,183170,234670,0.68,-0.96,10.43,-0.05,-0.01,-0.04,26.77
54235186,1903,1,182802,234468,0.64,-1.00,10.39,-0.05,-0.01,0.02,26.77
54275171,1904,1,182786,233797,0.95,-1.08,9.73,-0.05,-0.01,0.02,26.77
54315171,1885,1,182467,233556,0.76,-0.98,10.49,-0.04,-0.06,0.02,26.77
54355172,1901,1,182367,233655,1.10,-0.59,9.68,-0.03,-0.05,0.03,26.77
54395171,1866,1,182278,233219,0.85,-0.80,11.16,-0.04,-0.09,0.04,26.77
54435171,1894,1,182249,233908,0.73,-0.86,9.99,-0.01,-0.02,0.07,26.77
54475171,1898,1,182299,234264,1.21,-0.35,9.37,-0.02,-0.12,0.06,26.77
54515171,1911,1,183004,235755,1.12,-0.66,11.12,-0.03,-0.04,0.06,26.77
54555171,1913,1,183386,236824,1.27,-0.44,9.92,0.00,-0.07,0.06,26.77
54595159,1905,1,183808,237658,1.43,-0.50,9.67,0.00,-0.06,0.05,26.77
54635160,1895,1,184130,237462,1.29,-0.38,10.26,-0.02,-0.09,0.06,26.77
54675171,1909,1,184008,237749,1.32,-0.34,10.61,0.01,-0.06,0.06,26.77
54715846,1920,1,183914,236964,1.63,-0.10,9.94,-0.01,-0.09,0.07,26.83
54754171,1923,1,183424,236338,1.57,-0.48,11.18,-0.01,-0.08,0.07,26.83
54794171,1918,1,182827,233129,1.53,-0.31,9.28,-0.01,-0.09,0.08,26.83
54835171,1920,1,180840,229133,1.95,-0.03,10.55,-0.02,-0.14,0.07,26.83
54875171,1903,1,179877,227373,1.94,-0.15,10.52,-0.01,-0.08,0.09,26.83
54915171,1915,1,178705,225655,2.14,0.17,8.58,-0.01,-0.06,0.26,26.83
54955159,1953,1,177951,224204,2.11,-0.24,9.39,-0.05,-0.13,0.28,26.83
54995171,1936,1,177157,222987,2.06,-0.18,9.73,-0.04,-0.09,0.33,26.83
55035189,1939,1,176791,223208,2.23,-0.27,9.75,-0.05,-0.07,0.26,26.83
55075171,1929,1,176990,223233,2.58,0.16,8.49,-0.03,-0.08,0.09,26.83
55115160,1920,1,177415,223931,2.43,-0.55,9.81,-0.05,-0.05,0.13,26.83
55155171,1897,1,177241,222988,2.65,0.09,9.21,-0.01,-0.04,0.10,26.83
55195159,1918,1,177122,223063,2.54,-0.04,9.29,-0.04,-0.04,0.15,26.83
55235184,1921,1,177303,223759,2.93,0.10,9.79,-0.01,-0.00,0.10,26.83
55275160,1949,1,177724,224728,2.87,0.06,9.36,-0.02,0.01,0.12,26.83
55315140,1936,1,177528,224788,2.82,0.15,8.15,-0.03,-0.07,0.11,26.83
55355159,1927,1,178682,226571,2.24,0.11,9.26,-0.07,0.03,0.12,26.83
55395140,1891,1,179304,229330,2.68,0.40,9.69,-0.02,0.07,0.12,26.83
55435137,1917,1,180869,232081,2.41,0.02,8.38,-0.05,0.05,0.06,26.83
55475140,1954,1,182039,234427,2.48,0.26,9.65,-0.05,0.02,-0.04,26.83
55515159,1883,1,182999,234780,2.02,-0.14,9.22,-0.06,0.05,0.04,26.83
55555160,1886,1,183475,236108,2.51,1.10,10.53,-0.05,-0.00,0.02,26.83
55595159,1892,1,184342,237700,1.67,-0.35,9.96,-0.06,0.05,0.13,26.83
55635160,1855,1,184450,237880,1.97,0.25,9.69,-0.03,0.02,0.13,26.83
55675137,1855,1,184883,238166,1.21,-0.68,11.22,-0.09,0.07,0.13,26.83
55713161,1887,1,183775,235330,2.32,0.12,10.24,-0.04,-0.06,0.14,26.83
55753846,1904,1,182884,234812,1.29,-0.55,11.91,-0.08,0.00,0.14,26.79
55794159,1888,1,182451,235059,1.81,-0.06,8.77,-0.06,-0.12,0.14,26.79
55834171,1904,1,183412,236136,1.29,-0.48,11.85,-0.12,0.03,0.14,26.79
55873161,1904,1,183265,235421,1.61,-0.22,9.01,-0.07,-0.03,0.14,26.79
55913171,1911,1,182674,234035,1.75,-0.38,9.57,-0.09,-0.09,0.14,26.79
55953172,1879,1,182146,233013,1.43,-0.40,8.61,-0.07,0.02,0.15,26.79
55993160,1911,1,181682,233363,1.80,-0.78,8.34,-0.05,-0.01,0.15,26.79
56033171,1907,1,181951,232626,1.49,-0.62,8.07,-0.06,-0.02,0.15,26.79
56073171,1925,1,181975,234751,1.51,-0.68,9.62,-0.03,-0.00,0.15,26.79
56113171,1926,1,182959,235733,1.62,-0.65,8.12,-0.02,-0.03,0.16,26.79
56153171,1904,1,183143,235100,1.57,-0.97,9.56,0.01,-0.06,0.16,26.79
56193160,1925,1,182607,233861,1.86,-0.43,8.84,0.00,-0.08,0.16,26.79
56233159,1904,1,182700,234083,1.88,-0.27,10.58,0.02,-0.01,0.16,26.79
56273164,1935,1,182853,235236,1.66,-0.69,8.82,0.05,0.03,0.16,26.79
56313138,1913,1,183314,235455,1.90,-0.52,10.12,0.03,-0.02,0.16,26.79
56353159,1933,1,183646,236064,1.39,-0.76,10.12,0.05,0.01,0.17,26.79
56393140,1915,1,183531,236217,1.93,-0.76,9.79,0.04,-0.06,0.16,26.79
56433159,1925,1,184109,236871,1.16,-0.34,11.12,0.04,0.06,0.16,26.79
56473148,1903,1,184258,237491,1.37,-0.71,10.79,0.07,0.03,0.16,26.79
56513140,1942,1,184475,237439,1.39,-0.41,10.07,0.04,0.00,0.16,26.79
56553137,1940,1,184502,237524,1.15,-0.36,11.37,0.03,-0.01,0.16,26.79
56593159,1943,1,184204,236603,1.50,-0.12,10.05,0.02,-0.04,0.16,26.79
56633159,1932,1,183891,236631,1.05,-0.71,10.90,-0.01,0.01,0.16,26.79
56673190,1904,1,183747,236088,1.12,-0.12,9.41,0.00,-0.03,0.16,26.79
56713159,1911,1,183439,235462,1.21,-0.49,11.59,-0.02,-0.05,0.16,26.79
56753172,1887,1,183227,235701,1.01,-0.58,10.36,-0.02,0.04,0.16,26.79
56793845,1885,1,182833,233572,1.37,-0.12,9.24,-0.03,-0.08,0.16,26.77
56834171,1899,1,182107,232649,1.49,-0.55,11.40,-0.02,0.03,0.16,26.77
56874159,1911,1,181781,232387,2.03,-0.42,8.38,-0.03,-0.07,0.16,26.77
56912172,1917,1,182671,234270,1.66,-0.14,10.76,-0.04,-0.04,0.15,26.77
56952171,1895,1,183000,235087,2.04,-0.08,10.18,-0.03,-0.03,0.16,26.77
56992172,1891,1,183419,235612,2.06,-0.40,10.10,-0.03,-0.03,0.16,26.77
57032171,1901,1,183302,235258,2.10,0.27,8.58,-0.03,-0.06,0.16,26.77
57072160,1904,1,183527,235697,1.85,0.06,10.66,-0.04,0.02,0.16,26.77
57112137,1880,1,183150,234946,2.10,0.28,9.52,-0.02,-0.02,0.16,26.77
57152160,1904,1,182636,234102,2.24,0.17,9.59,-0.03,0.01,0.16,26.77
57192140,1899,1,182554,234490,1.87,0.06,9.24,-0.02,0.03,0.16,26.77
57232141,1905,1,182784,234824,1.82,-0.17,9.51,-0.03,0.01,0.16,26.77
57272160,1901,1,182507,234349,1.50,0.40,8.97,-0.02,0.01,0.16,26.77
57312140,1907,1,182917,234982,1.17,-0.07,10.87,-0.02,0.07,0.16,26.77
57352159,1887,1,182470,234889,1.38,0.23,8.83,0.02,0.02,0.16,26.77
57392122,1903,1,182904,235240,0.98,0.15,9.14,-0.03,0.02,0.16,26.77
57432138,1920,1,183095,236120,1.19,0.34,10.69,0.02,0.03,0.17,26.77
57472121,1893,1,183227,235739,1.70,0.08,9.37,-0.01,-0.03,0.17,26.77
57512157,1872,1,182857,234772,1.37,0.21,9.76,-0.02,-0.02,0.17,26.77
57552160,1908,1,182970,235075,1.03,-0.27,10.59,-0.01,0.00,0.17,26.77
57592160,1915,1,182988,235481,1.17,0.02,10.71,0.01,-0.02,0.17,26.77
57632141,1911,1,183174,235850,1.16,-0.32,10.25,-0.02,-0.01,0.17,26.77
57672171,1903,1,183514,236455,0.76,-0.25,10.58,0.01,-0.01,0.17,26.77
57712160,1919,1,183391,237061,1.73,-0.14,9.84,0.00,-0.07,0.16,26.77
57752159,1920,1,183968,237839,1.20,0.17,10.89,-0.03,-0.04,0.16,26.77
57792160,1922,1,184177,237866,1.53,0.07,10.29,-0.00,-0.07,0.16,26.77
57832846,1923,1,184359,238523,1.34,0.21,11.75,-0.01,-0.01,0.16,26.79
57873164,1932,1,184469,237849,1.24,-0.05,8.99,-0.00,-0.05,0.16,26.79
57913171,1943,1,184028,237462,1.09,-0.42,10.39,0.01,-0.05,0.16,26.79
57953160,1927,1,183494,236445,1.52,-0.17,8.28,-0.02,-0.05,0.16,26.79
57993171,1936,1,183299,235767,0.99,0.28,10.22,-0.01,-0.06,0.16,26.79
58033159,1927,1,182922,235740,1.41,-0.04,9.87,0.00,0.02,0.16,26.79
58073138,1934,1,182817,235655,1.47,-0.54,8.12,-0.02,-0.06,0.16,26.79
58111195,1909,1,183024,235418,1.24,-0.00,8.55,-0.02,-0.01,0.15,26.79
58151171,1933,1,183150,235582,1.05,-0.36,10.50,-0.02,0.07,0.15,26.79
58191159,1919,1,183319,236792,1.37,-0.32,9.98,-0.01,0.05,0.15,26.79
58231159,1904,1,184235,237769,1.27,-0.04,9.70,-0.03,0.03,0.14,26.79
58271159,1903,1,184689,239035,1.23,-0.33,11.27,-0.05,0.02,0.14,26.79
58311188,1897,1,185107,239287,1.14,0.14,10.21,-0.04,0.04,0.14,26.79
58351141,1902,1,185091,239369,1.01,-0.06,10.62,-0.04,0.02,0.14,26.79
58391159,1906,1,185379,239673,0.80,-0.03,11.24,-0.03,0.08,0.14,26.79
58431159,1920,1,184753,238580,1.44,-0.07,9.31,-0.03,-0.07,0.14,26.79
58471171,1904,1,184275,237132,1.20,-0.13,9.87,-0.08,-0.03,0.13,26.79
58511190,1904,1,183570,236870,0.86,-0.40,10.77,-0.07,-0.01,0.14,26.79
58551171,1888,1,183484,236537,0.86,-0.56,8.78,-0.07,0.01,0.14,26.79
58591160,1902,1,183855,237567,0.40,-1.01,10.62,-0.08,0.03,0.13,26.79
58631159,1898,1,184334,238787,0.72,-0.79,10.00,-0.07,0.02,0.12,26.79
58671159,1885,1,185033,240060,0.43,-1.22,8.98,-0.05,0.00,-0.12,26.79
58711172,1890,1,185920,241264,0.93,-0.97,9.79,-0.07,0.01,-0.12,26.79
58751173,1878,1,186182,241220,0.53,-0.87,9.25,-0.06,0.01,-0.14,26.79
58791171,1885,1,185662,239153,0.34,-0.74,7.57,-0.07,0.00,0.04,26.79
58831159,1909,1,184605,236596,0.33,-1.50,9.18,-0.09,-0.02,-0.02,26.79
58871874,1907,1,184000,236330,0.44,-0.73,9.23,-0.03,0.02,0.08,26.85
58912160,1938,1,183468,234006,0.93,-0.87,8.61,-0.06,-0.05,0.08,26.85
58952171,1909,1,182909,234340,0.31,-0.68,9.94,-0.04,0.02,0.09,26.85
58992159,1935,1,183091,234107,0.87,-1.09,9.49,-0.03,0.05,0.08,26.85
59032159,1919,1,182969,234958,0.45,-0.97,10.46,-0.03,0.01,0.14,26.85
59072159,1915,1,183485,235719,0.15,-0.77,10.12,-0.00,0.09,0.10,26.85
59112159,1930,1,183649,236578,-0.16,-1.31,11.26,0.02,0.08,0.09,26.85
59152159,1931,1,184017,237299,0.34,-1.38,10.90,-0.01,0.04,0.07,26.85
59192159,1914,1,184499,238150,0.02,-1.07,12.12,-0.00,-0.02,0.08,26.85
59232171,1907,1,184558,238445,0.15,-0.93,10.33,0.00,0.01,0.07,26.85
59272137,1889,1,184544,238028,-0.00,-1.25,11.75,-0.03,-0.03,0.06,26.85
59310193,1906,1,184446,237180,0.23,-1.42,11.36,-0.02,-0.03,0.06,26.85
59350171,1904,1,183614,235791,0.19,-0.71,9.68,-0.01,-0.08,0.06,26.85
59390171,1920,1,183060,234290,-0.07,-1.29,8.72,-0.04,-0.01,0.06,26.85
59430187,1906,1,182439,233203,0.14,-1.30,9.79,-0.02,-0.02,0.05,26.85
59470171,1916,1,181600,230836,0.63,-1.23,7.54,-0.05,-0.07,0.05,26.85
59510171,1883,1,181437,231453,-0.09,-0.99,8.27,-0.04,-0.01,0.05,26.85
59550189,1904,1,182377,233125,0.02,-1.54,8.90,-0.03,0.02,0.04,26.85
59590159,1910,1,182933,234554,0.22,-1.29,9.26,-0.02,-0.03,0.02,26.85
59630171,1918,1,183700,235107,0.44,-1.07,9.45,-0.03,-0.05,0.02,26.85
59670171,1921,1,183436,235140,-0.10,-0.91,8.88,-0.00,-0.02,0.04,26.85
59710189,1919,1,183396,234802,0.46,-1.30,9.51,-0.03,0.03,0.02,26.85
59750165,1911,1,183198,234086,0.32,-1.24,10.87,-0.03,-0.03,0.03,26.85
59790172,1904,1,182549,233204,0.37,-0.70,9.42,-0.01,-0.02,0.03,26.85
59830171,1907,1,182239,232424,0.30,-1.18,10.98,-0.02,0.05,0.03,26.85
59870159,1883,1,181726,231646,0.56,-1.35,11.43,-0.02,0.01,0.02,26.85
59910846,1904,1,181414,231181,0.43,-1.05,10.94,-0.02,0.00,0.08,26.85
59951180,1910,1,181199,231095,0.34,-0.72,9.34,-0.01,0.02,0.10,26.85
59991159,1904,1,181623,231543,-0.29,-1.40,11.91,-0.02,0.08,0.03,26.85
60031171,1872,1,181246,231179,0.41,-0.66,9.82,-0.00,-0.01,0.03,26.85
60071171,1901,1,181162,230665,0.26,-0.97,9.87,-0.04,-0.04,0.03,26.85
60111205,1872,1,181148,231060,-0.27,-0.87,9.70,-0.01,0.05,0.03,26.85
60151171,1904,1,180788,230309,0.43,-1.32,8.66,-0.05,-0.04,0.01,26.85
60191171,1905,1,180955,229477,0.06,-1.40,9.55,-0.07,-0.02,0.02,26.85
60231171,1911,1,180465,229007,-0.09,-1.23,9.08,-0.05,-0.04,0.02,26.85
60271188,1907,1,180631,229064,0.11,-0.94,8.96,-0.06,-0.00,0.01,26.85
60311171,1904,1,180665,229480,0.18,-1.47,10.81,-0.10,-0.03,0.01,26.85
60351171,1904,1,180434,228591,0.41,-1.41,9.01,-0.08,-0.08,0.01,26.85
60391171,1920,1,180045,227611,-0.13,-1.16,9.66,-0.08,-0.02,0.01,26.85
60431189,1904,1,179807,227466,-0.15,-1.19,9.89,-0.07,0.05,0.01,26.85
60471171,1905,1,179465,227645,0.43,-1.89,10.48,-0.09,-0.02,0.01,26.85
60511171,1898,1,179275,226707,0.66,-1.21,8.70,-0.07,-0.09,0.01,26.85
60549171,1935,1,179248,227441,0.28,-1.34,10.27,-0.07,-0.01,0.01,26.85
60589172,1922,1,179591,228218,0.20,-1.17,9.46,-0.05,0.04,0.01,26.85
60629160,1906,1,179931,228440,0.19,-1.57,10.33,-0.08,-0.02,0.00,26.85
60669171,1923,1,180473,229280,-0.14,-1.33,10.36,-0.02,0.06,0.02,26.85
60709171,1917,1,180036,229543,0.20,-0.81,8.06,0.00,-0.01,0.02,26.85
60749160,1923,1,180658,230865,-0.08,-1.39,10.32,-0.04,0.05,0.01,26.85
60789171,1915,1,180951,231842,0.25,-1.60,9.66,-0.01,-0.01,0.01,26.85
60829171,1936,1,181153,231547,-0.26,-1.13,8.59,-0.02,-0.04,0.01,26.85
60869188,1912,1,181049,231870,-0.22,-0.97,10.02,0.01,0.07,0.02,26.85
60909160,1920,1,181372,233010,-0.00,-1.63,10.59,-0.01,0.06,0.01,26.85
60949857,1926,1,181651,233476,0.25,-1.33,9.70,-0.01,-0.05,0.01,26.93
60990171,1922,1,181957,233600,-0.08,-1.36,9.32,-0.02,-0.02,0.01,26.93
61030187,1914,1,181815,232404,-0.36,-1.24,10.72,-0.02,0.03,0.01,26.93
61070171,1891,1,181021,231632,0.34,-1.19,10.65,-0.04,-0.04,0.00,26.93
61110171,1892,1,181358,232598,-0.18,-1.29,10.89,-0.03,-0.02,0.01,26.93
61150189,1890,1,181334,232030,0.01,-0.69,9.60,-0.01,-0.01,0.01,26.93
61190171,1888,1,181217,231551,0.03,-1.71,10.67,-0.05,0.01,0.00,26.93
61230159,1890,1,181318,232341,0.32,-1.62,10.89,-0.05,-0.05,0.00,26.93
61270171,1899,1,181656,232989,0.12,-1.31,9.46,-0.03,-0.08,0.01,26.93
61310171,1891,1,181962,233660,0.01,-1.11,9.65,-0.03,0.00,0.00,26.93
61350159,1909,1,182224,233555,-0.06,-1.40,11.02,-0.05,0.01,-0.00,26.93
61390188,1922,1,181868,232795,0.25,-1.20,9.45,-0.03,-0.04,0.01,26.93
61430171,1929,1,181457,231609,0.02,-1.07,9.17,-0.04,-0.04,0.01,26.93
61470171,1909,1,181143,232047,-0.22,-1.37,9.25,-0.02,0.04,0.01,26.93
61510171,1909,1,180696,230607,0.40,-1.38,9.21,-0.05,-0.05,0.00,26.93
61550171,1926,1,180268,229663,0.45,-1.07,9.15,-0.03,-0.05,0.01,26.93
61590183,1909,1,179869,229195,0.26,-1.19,8.67,-0.01,-0.02,0.02,26.93
61630171,1908,1,179742,229003,0.23,-1.15,9.54,-0.03,0.02,0.01,26.93
61670159,1917,1,179833,229083,0.22,-1.47,10.25,-0.04,-0.02,0.05,26.93
