timestamp_us,ecg,leads,ir,red,accX,accY,accZ,gyroX,gyroY,gyroZ,temp
1918490,1918,1,183881,214878,0.00,0.00,0.00,0.00,0.00,0.00,0.00
1948956,1869,1,185148,216778,-0.40,-0.68,9.72,-0.03,-0.01,-0.00,31.35
1989218,1872,1,185792,217017,-0.45,-0.70,9.99,-0.03,-0.01,-0.00,31.35
2028208,1904,1,186772,215689,-0.37,-0.70,9.92,-0.03,-0.03,0.00,31.35
2068190,1941,1,185289,204728,-0.35,-0.72,9.89,-0.02,0.02,-0.00,31.35
2108189,1923,1,179479,187188,-0.45,-0.68,9.97,-0.02,0.02,-0.00,31.35
2148191,1959,1,174121,179649,-0.41,-0.65,9.93,-0.02,0.01,-0.00,31.35
2188189,1962,1,173399,179588,-0.42,-0.68,9.94,-0.03,-0.02,-0.00,31.35
2228208,1979,1,173907,180108,-0.41,-0.67,9.95,-0.03,-0.01,-0.00,31.35
2268207,1974,1,174050,181021,-0.42,-0.70,9.93,-0.03,-0.00,-0.01,31.35
2308207,1969,1,174720,180398,-0.45,-0.65,9.95,-0.03,-0.02,-0.00,31.35
2348208,1975,1,173695,177225,-0.46,-0.66,9.97,-0.03,-0.02,-0.00,31.35
2388207,1969,1,172767,175962,-0.43,-0.68,9.94,-0.03,-0.00,-0.00,31.35
2428214,1989,1,172879,175818,-0.42,-0.67,9.96,-0.03,-0.01,-0.00,31.35
2468208,1984,1,172600,175209,-0.44,-0.65,9.94,-0.03,-0.01,-0.01,31.35
2508208,1991,1,172886,176842,-0.46,-0.67,9.91,-0.04,-0.01,-0.01,31.35
2548207,1995,1,173798,178455,-0.43,-0.66,9.93,-0.04,-0.01,-0.01,31.35
2588208,1993,1,174457,179984,-0.43,-0.67,9.94,-0.03,0.01,-0.00,31.35
2628199,1975,1,174490,177720,-0.44,-0.68,9.96,-0.03,-0.01,-0.00,31.35
2668208,1991,1,172253,174413,-0.44,-0.66,9.94,-0.03,0.00,-0.00,31.35
2708191,1978,1,171511,174254,-0.45,-0.65,9.94,-0.03,-0.00,-0.01,31.35
2748208,1981,1,171720,174637,-0.46,-0.64,9.95,-0.04,-0.01,-0.00,31.35
2788207,1989,1,171594,174555,-0.46,-0.65,9.94,-0.03,-0.01,-0.01,31.35
2828208,1968,1,171479,174436,-0.43,-0.66,9.95,-0.03,-0.01,-0.01,31.35
2868207,1969,1,171199,173854,-0.44,-0.66,9.94,-0.03,-0.01,-0.00,31.35
2908208,1963,1,170845,172674,-0.45,-0.65,9.93,-0.03,-0.01,-0.00,31.35
2948207,1943,1,169807,171186,-0.45,-0.65,9.96,-0.03,-0.00,-0.01,31.35
2988893,1924,1,169655,172128,-0.46,-0.66,9.94,-0.03,-0.01,-0.01,31.15
3029207,1933,1,170631,174455,-0.46,-0.66,9.94,-0.04,-0.02,-0.01,31.15
3069208,1924,1,171656,176784,-0.47,-0.67,9.94,-0.04,-0.02,-0.01,31.15
3109208,1924,1,172825,179567,-0.45,-0.66,9.95,-0.04,-0.02,-0.01,31.15
3149208,1919,1,174620,185641,-0.45,-0.64,9.92,-0.04,-0.02,-0.01,31.15
3189208,1919,1,178391,196004,-0.44,-0.66,9.97,-0.04,-0.03,-0.01,31.15
3229209,1910,1,181632,204094,-0.46,-0.67,9.96,-0.04,-0.02,-0.01,31.15
3269207,1904,1,184602,211977,-0.44,-0.68,9.95,-0.04,-0.04,-0.01,31.15
3309208,1905,1,186934,216391,-0.40,-0.67,9.93,-0.04,-0.04,-0.01,31.15
3349208,1898,1,187973,218325,-0.43,-0.66,9.97,-0.04,-0.03,-0.01,31.15
3389208,1914,1,188661,220169,-0.43,-0.70,10.00,-0.05,-0.04,-0.01,31.15
3429208,1910,1,189417,221916,-0.38,-0.69,9.93,-0.05,-0.07,-0.01,31.15
3469207,1904,1,189893,222976,-0.38,-0.70,9.94,-0.05,-0.03,-0.01,31.15
3509208,1918,1,190072,223098,-0.35,-0.70,9.96,-0.05,-0.03,-0.01,31.15
3549208,1921,1,189685,221533,-0.35,-0.71,9.92,-0.05,-0.04,-0.01,31.15
3589208,1913,1,189099,219830,-0.34,-0.73,9.95,-0.05,-0.03,-0.01,31.15
3629208,1911,1,188561,218276,-0.32,-0.73,9.96,-0.03,-0.02,-0.00,31.15
3667209,1966,1,188313,217864,-0.32,-0.71,9.94,-0.03,-0.02,-0.01,31.15
3707207,1952,1,188479,218152,-0.33,-0.73,9.94,-0.04,-0.02,-0.01,31.15
3747209,1959,1,188675,218819,-0.33,-0.72,9.93,-0.04,-0.02,-0.01,31.15
3787207,1963,1,188972,219574,-0.32,-0.73,9.94,-0.04,-0.02,-0.01,31.15
3827211,1953,1,189260,220153,-0.32,-0.72,9.95,-0.04,-0.02,-0.01,31.15
3867209,1948,1,189505,220914,-0.33,-0.73,9.93,-0.05,-0.02,-0.01,31.15
3907210,1955,1,189753,221572,-0.30,-0.74,9.95,-0.05,-0.02,-0.01,31.15
3947208,1966,1,189983,222309,-0.31,-0.74,9.95,-0.05,-0.03,-0.01,31.15
3987209,1973,1,190224,223253,-0.32,-0.74,9.97,-0.05,-0.03,-0.01,31.15
4027935,1914,1,190513,224217,-0.28,-0.75,9.96,-0.04,-0.04,-0.01,31.81
4068215,1917,1,190712,225216,-0.26,-0.75,9.96,-0.04,-0.02,-0.01,31.81
4108209,1919,1,191010,225801,-0.28,-0.75,9.96,-0.04,-0.02,-0.01,31.81
4148208,1917,1,191015,224860,-0.27,-0.77,9.96,-0.04,-0.03,-0.00,31.81
4188208,1919,1,190187,222576,-0.24,-0.77,9.91,-0.03,-0.02,-0.01,31.81
4228207,1925,1,189557,221500,-0.26,-0.78,9.95,-0.03,-0.01,-0.01,31.81
4268229,1922,1,189413,221067,-0.24,-0.74,9.95,-0.03,-0.02,-0.00,31.81
4308207,1936,1,189330,220878,-0.27,-0.75,9.97,-0.03,-0.01,-0.00,31.81
4348207,1926,1,189320,220867,-0.24,-0.74,9.96,-0.03,-0.01,-0.00,31.81
4388208,1927,1,189398,221584,-0.27,-0.75,9.94,-0.04,-0.01,-0.00,31.81
4428207,1936,1,189762,222353,-0.24,-0.75,9.96,-0.03,-0.01,-0.01,31.81
4468233,1905,1,189907,222707,-0.25,-0.76,9.96,-0.04,-0.01,-0.01,31.81
4508207,1921,1,189960,222906,-0.26,-0.77,9.96,-0.03,-0.01,-0.00,31.81
4548207,1921,1,190050,223196,-0.25,-0.76,9.94,-0.04,-0.01,-0.00,31.81
4588207,1904,1,190155,223263,-0.25,-0.76,9.95,-0.04,-0.00,-0.01,31.81
4628207,1915,1,190127,223187,-0.24,-0.75,9.96,-0.04,-0.00,-0.00,31.81
4668206,1930,1,189942,223127,-0.27,-0.76,9.97,-0.04,-0.01,-0.01,31.81
4708207,1951,1,189927,222879,-0.26,-0.79,9.94,-0.04,-0.01,-0.01,31.81
4748206,1957,1,189766,222507,-0.27,-0.77,9.95,-0.04,-0.01,-0.01,31.81
4788206,1937,1,189467,221125,-0.25,-0.78,9.94,-0.03,-0.01,-0.01,31.81
4828206,1905,1,188745,219451,-0.27,-0.77,9.98,-0.03,-0.01,-0.01,31.81
4868206,1930,1,188319,218971,-0.26,-0.77,9.94,-0.03,-0.01,-0.00,31.81
4908207,1925,1,188274,218931,-0.28,-0.77,9.96,-0.03,-0.01,-0.00,31.81
4948207,1904,1,188280,219024,-0.26,-0.77,9.95,-0.03,-0.01,-0.01,31.81
4988206,1897,1,188368,219621,-0.26,-0.76,9.94,-0.03,-0.01,-0.01,31.81
5028893,1861,1,188755,220734,-0.27,-0.78,9.95,-0.04,-0.01,-0.01,31.61
5067207,1882,1,189084,221531,-0.24,-0.78,9.96,-0.04,-0.02,-0.01,31.61
5108207,1872,1,189247,221674,-0.25,-0.77,9.93,-0.04,-0.01,-0.01,31.61
5148206,1865,1,189259,221703,-0.26,-0.77,9.95,-0.03,-0.02,-0.00,31.61
5188207,1827,1,189283,221863,-0.25,-0.77,9.95,-0.03,-0.02,-0.01,31.61
5228207,1808,1,189321,222059,-0.25,-0.76,9.95,-0.03,-0.01,-0.00,31.61
5268207,1777,1,189380,222215,-0.25,-0.77,9.96,-0.04,-0.01,-0.01,31.61
5308206,1751,1,189468,222962,-0.25,-0.74,9.94,-0.03,-0.01,-0.01,31.61
5348207,1802,1,189875,224174,-0.25,-0.78,9.95,-0.04,-0.01,-0.01,31.61
5388207,1814,1,190272,224873,-0.26,-0.78,9.99,-0.04,-0.01,-0.01,31.61
5428207,1842,1,190050,223021,-0.25,-0.77,9.96,-0.03,-0.01,-0.01,31.61
5468206,1863,1,189290,221974,-0.24,-0.78,9.95,-0.03,-0.01,-0.01,31.61
5508248,1903,1,189028,221353,-0.27,-0.76,9.92,-0.03,-0.01,-0.01,31.61
5548207,1936,1,188692,220352,-0.25,-0.78,9.97,-0.03,-0.01,-0.00,31.61
5588207,1975,1,188355,219181,-0.25,-0.77,9.94,-0.03,-0.03,-0.01,31.61
5628206,1997,1,187990,218562,-0.23,-0.78,9.95,-0.02,-0.03,-0.00,31.61
5668207,1991,1,187981,218367,-0.21,-0.78,9.96,-0.03,-0.02,-0.00,31.61
5708207,1906,1,187898,218488,-0.24,-0.76,9.95,-0.03,-0.01,-0.00,31.61
5748207,2011,1,188073,219611,-0.23,-0.75,9.97,-0.04,-0.00,-0.00,31.61
5788207,2069,1,188480,220733,-0.24,-0.78,9.91,-0.04,-0.01,-0.01,31.61
5828207,2039,1,188809,221567,-0.23,-0.76,9.96,-0.03,-0.02,-0.01,31.61
5868206,2047,1,189049,221902,-0.24,-0.77,9.96,-0.03,-0.02,-0.00,31.61
5908228,2023,1,189144,222244,-0.24,-0.77,9.95,-0.03,-0.01,-0.00,31.61
5948206,1971,1,189410,223162,-0.22,-0.77,9.94,-0.03,-0.02,-0.01,31.61
5988207,1968,1,189908,224973,-0.23,-0.74,9.95,-0.04,-0.02,-0.00,31.61
6028892,1968,1,190735,227589,-0.24,-0.78,9.97,-0.04,-0.03,-0.01,31.63
6067207,1963,1,191571,229151,-0.23,-0.78,9.98,-0.05,-0.05,-0.01,31.63
6107208,1953,1,191384,227809,-0.19,-0.79,9.94,-0.05,-0.08,-0.01,31.63
6147210,1936,1,191198,228190,-0.14,-0.78,9.91,-0.04,-0.06,-0.01,31.63
6187209,1937,1,191459,228781,-0.14,-0.79,9.93,-0.04,-0.04,-0.00,31.63
6227210,1945,1,191544,228777,-0.15,-0.80,9.95,-0.04,-0.03,-0.00,31.63
6267209,1954,1,191597,229125,-0.13,-0.78,9.95,-0.03,-0.02,-0.00,31.63
6307208,1968,1,191897,229767,-0.13,-0.79,9.93,-0.03,-0.01,-0.00,31.63
6347208,1968,1,192009,229656,-0.15,-0.82,9.96,-0.03,-0.01,-0.00,31.63
6387210,1977,1,191933,229427,-0.12,-0.79,9.95,-0.03,-0.02,-0.00,31.63
6427208,1971,1,191951,229322,-0.12,-0.80,9.93,-0.03,-0.01,-0.01,31.63
6467208,1975,1,191953,229126,-0.13,-0.80,9.95,-0.04,-0.01,-0.00,31.63
6507209,1974,1,191907,229187,-0.12,-0.80,9.95,-0.03,-0.01,-0.00,31.63
6547208,1968,1,192057,229760,-0.13,-0.78,9.95,-0.04,-0.00,-0.00,31.63
6587208,1949,1,192302,230311,-0.14,-0.79,9.93,-0.03,-0.01,-0.01,31.63
6627208,1950,1,192371,230321,-0.15,-0.82,9.95,-0.03,-0.01,-0.00,31.63
6667208,1941,1,192248,229682,-0.14,-0.80,9.95,-0.03,-0.01,-0.00,31.63
6707208,1927,1,191910,228116,-0.17,-0.81,9.93,-0.03,-0.01,-0.00,31.63
6747208,1921,1,191429,226240,-0.14,-0.81,9.96,-0.03,-0.01,-0.00,31.63
6787208,1904,1,190334,223008,-0.12,-0.79,9.94,-0.03,-0.01,-0.01,31.63
6827208,1881,1,189538,221769,-0.13,-0.81,9.97,-0.03,-0.01,-0.00,31.63
6867208,1869,1,189308,221638,-0.13,-0.80,9.95,-0.04,-0.01,-0.00,31.63
6907209,1855,1,189324,221715,-0.15,-0.80,9.96,-0.03,-0.01,-0.00,31.63
6947208,1868,1,189336,221883,-0.15,-0.79,9.94,-0.03,-0.01,-0.00,31.63
6987208,1856,1,189468,222710,-0.13,-0.79,9.94,-0.03,-0.01,-0.00,31.63
7027212,1875,1,189897,223743,-0.14,-0.81,9.96,-0.03,-0.01,-0.00,31.63
7067895,1891,1,190232,224426,-0.15,-0.79,9.97,-0.03,-0.01,-0.01,31.47
7106209,1958,1,190436,225088,-0.14,-0.78,9.97,-0.03,-0.01,-0.01,31.47
7146207,1971,1,190723,225833,-0.14,-0.79,9.94,-0.03,-0.01,-0.00,31.47
7186209,1989,1,190990,226720,-0.15,-0.79,9.96,-0.03,-0.01,-0.01,31.47
7226207,2023,1,191228,227376,-0.15,-0.80,9.97,-0.03,-0.01,-0.00,31.47
7266209,2058,1,191468,227943,-0.13,-0.81,9.99,-0.03,-0.01,-0.00,31.47
7306207,2067,1,191591,228376,-0.15,-0.78,9.98,-0.03,-0.01,-0.00,31.47
7346207,2089,1,191737,228908,-0.14,-0.80,9.96,-0.03,-0.01,-0.01,31.47
7386208,2091,1,191831,229343,-0.14,-0.78,9.98,-0.03,-0.01,-0.00,31.47
7426207,2082,1,191925,229731,-0.13,-0.80,9.96,-0.03,-0.01,-0.01,31.47
7466208,2072,1,192081,229589,-0.15,-0.79,9.94,-0.03,-0.01,-0.01,31.47
7506207,2042,1,191466,226235,-0.16,-0.81,9.94,-0.03,-0.01,-0.01,31.47
7546212,1997,1,190334,224409,-0.13,-0.79,9.94,-0.03,-0.01,-0.00,31.47
7586207,1936,1,190055,224177,-0.14,-0.80,9.97,-0.03,-0.01,-0.00,31.47
7626208,1886,1,189984,224030,-0.16,-0.80,9.95,-0.03,-0.01,-0.01,31.47
7666207,1811,1,190040,224367,-0.13,-0.82,9.93,-0.03,-0.01,-0.01,31.47
7706208,1732,1,190304,225391,-0.13,-0.80,9.94,-0.03,-0.01,-0.01,31.47
7746218,1657,1,190643,226195,-0.14,-0.79,9.93,-0.03,-0.01,-0.01,31.47
7786208,1584,1,190803,226181,-0.15,-0.78,9.94,-0.03,-0.01,-0.00,31.47
7826207,1520,1,190708,225991,-0.13,-0.80,9.95,-0.03,-0.01,-0.00,31.47
7866207,1485,1,190681,226149,-0.12,-0.80,9.96,-0.03,-0.01,-0.01,31.47
7906207,1447,1,190821,226713,-0.16,-0.79,9.94,-0.03,-0.01,-0.00,31.47
7946207,1321,1,191007,226954,-0.15,-0.79,9.96,-0.03,-0.01,-0.00,31.47
7986207,1396,1,191025,226913,-0.13,-0.80,9.97,-0.03,-0.01,-0.00,31.47
8026214,1344,1,191009,226885,-0.14,-0.81,9.94,-0.03,-0.01,-0.00,31.47
8066212,1447,1,191041,226986,-0.15,-0.80,9.94,-0.03,-0.02,-0.00,31.47
8106894,1441,1,191275,227713,-0.09,-0.78,9.89,-0.04,-0.02,-0.00,31.27
8147208,1467,1,191593,228844,-0.13,-0.81,9.95,-0.04,-0.00,-0.01,31.27
8187209,1479,1,191973,229163,-0.16,-0.81,9.96,-0.04,-0.01,-0.01,31.27
8227208,1503,1,191256,225422,-0.13,-0.78,9.96,-0.03,-0.01,-0.00,31.27
8267208,1526,1,190051,223544,-0.14,-0.79,9.96,-0.03,-0.01,-0.00,31.27
8307208,1566,1,189697,222936,-0.13,-0.79,9.93,-0.03,-0.01,-0.01,31.27
8347210,1601,1,189617,222583,-0.15,-0.81,9.94,-0.03,-0.01,-0.00,31.27
8387208,1662,1,189576,222631,-0.14,-0.81,9.96,-0.03,-0.01,-0.00,31.27
8427208,1729,1,189712,223271,-0.13,-0.81,9.96,-0.03,-0.01,-0.00,31.27
8467208,1790,1,189994,223901,-0.15,-0.79,9.95,-0.03,-0.01,-0.01,31.27
8507210,1846,1,190156,224331,-0.13,-0.77,9.95,-0.03,-0.01,-0.01,31.27
8547208,1891,1,190273,224653,-0.15,-0.78,9.94,-0.03,-0.01,-0.00,31.27
8587209,1899,1,190349,224773,-0.15,-0.79,9.96,-0.03,-0.01,-0.01,31.27
8627208,1925,1,190369,224748,-0.13,-0.82,9.94,-0.03,-0.01,-0.00,31.27
8667208,1962,1,190404,224826,-0.15,-0.77,9.99,-0.03,-0.01,-0.00,31.27
8707208,1981,1,190513,225426,-0.11,-0.78,9.95,-0.03,-0.01,-0.00,31.27
8747208,2000,1,190796,226228,-0.15,-0.80,9.94,-0.03,-0.01,-0.01,31.27
8787209,2014,1,191114,227076,-0.14,-0.78,9.95,-0.03,-0.01,-0.00,31.27
8827209,2010,1,191354,227788,-0.16,-0.78,9.96,-0.04,-0.01,-0.01,31.27
8867208,2007,1,191560,228285,-0.14,-0.79,9.95,-0.04,-0.01,-0.01,31.27
8907209,2018,1,191623,227940,-0.13,-0.79,9.96,-0.03,-0.01,-0.01,31.27
8947209,2017,1,190880,224809,-0.12,-0.80,9.97,-0.03,-0.01,-0.01,31.27
8987210,2025,1,189914,223901,-0.15,-0.79,9.96,-0.04,-0.01,-0.01,31.27
9027215,2039,1,189921,224077,-0.15,-0.78,9.95,-0.03,-0.01,-0.00,31.27
9067209,2054,1,189987,224325,-0.15,-0.79,9.97,-0.03,-0.01,-0.00,31.27
9107895,2032,1,190120,224715,-0.13,-0.81,9.95,-0.03,-0.01,-0.01,31.41
9146208,2031,1,190345,225770,-0.13,-0.79,9.96,-0.04,-0.01,-0.00,31.41
9186250,2033,1,190766,226988,-0.14,-0.80,9.97,-0.03,-0.01,-0.00,31.41
9226208,2021,1,191105,227546,-0.15,-0.80,9.94,-0.03,-0.01,-0.01,31.41
9266209,2000,1,191248,228064,-0.14,-0.81,9.96,-0.03,-0.01,-0.01,31.41
9306208,1993,1,191422,228539,-0.14,-0.80,9.94,-0.03,-0.01,-0.00,31.41
9346208,1996,1,191590,229158,-0.12,-0.80,9.96,-0.03,-0.01,-0.00,31.41
9386212,1981,1,191852,229905,-0.14,-0.80,9.96,-0.04,-0.01,-0.01,31.41
9426210,1971,1,192115,230714,-0.15,-0.81,9.93,-0.03,-0.01,-0.00,31.41
9466208,1971,1,192324,231267,-0.13,-0.80,9.94,-0.03,-0.01,-0.01,31.41
9506208,1973,1,192511,231912,-0.12,-0.79,9.94,-0.03,-0.01,-0.01,31.41
9546208,1964,1,192726,232547,-0.15,-0.80,9.95,-0.03,-0.01,-0.01,31.41
9586208,1968,1,192914,232955,-0.16,-0.82,9.96,-0.03,-0.01,-0.00,31.41
9626209,1974,1,193027,232967,-0.12,-0.80,9.95,-0.03,-0.01,-0.00,31.41
9666208,1984,1,192559,229797,-0.15,-0.79,9.96,-0.03,-0.01,-0.00,31.41
9706208,1979,1,191449,227879,-0.15,-0.80,9.95,-0.03,-0.01,-0.01,31.41
9746209,1969,1,191301,228009,-0.15,-0.79,9.96,-0.03,-0.01,-0.01,31.41
9786208,1951,1,191451,228271,-0.15,-0.79,9.94,-0.03,-0.01,-0.01,31.41
9826208,1946,1,191464,228356,-0.15,-0.79,9.91,-0.03,-0.01,-0.01,31.41
9866208,1933,1,191618,229140,-0.14,-0.78,9.94,-0.03,-0.01,-0.01,31.41
9906208,1925,1,192046,229963,-0.11,-0.79,9.96,-0.03,-0.01,-0.01,31.41
9946208,1917,1,192299,230218,-0.13,-0.78,9.95,-0.03,-0.01,-0.01,31.41
9986208,1914,1,192303,230285,-0.13,-0.80,9.95,-0.03,-0.01,-0.01,31.41
10026216,1907,1,192362,230458,-0.14,-0.81,9.95,-0.03,-0.01,-0.01,31.41
10066209,1911,1,192471,230684,-0.13,-0.80,9.96,-0.03,-0.01,-0.01,31.41
10106208,1904,1,192598,231054,-0.14,-0.78,9.97,-0.03,-0.01,-0.01,31.41
10146895,1897,1,192736,231511,-0.14,-0.81,9.95,-0.03,-0.01,-0.01,31.41
10185208,1945,1,192873,231890,-0.14,-0.81,9.96,-0.03,-0.01,-0.00,31.41
10225212,1969,1,192960,232057,-0.14,-0.81,9.95,-0.03,-0.01,-0.00,31.41
10265208,1963,1,193012,232210,-0.12,-0.81,9.96,-0.03,-0.01,-0.00,31.41
10305212,1952,1,193025,232282,-0.16,-0.78,9.96,-0.03,-0.01,-0.00,31.41
10345208,1947,1,193000,232072,-0.13,-0.76,9.95,-0.03,-0.01,-0.00,31.41
10385212,1954,1,192552,228649,-0.12,-0.80,9.94,-0.03,-0.01,-0.01,31.41
10425208,1951,1,191331,226852,-0.14,-0.78,9.95,-0.04,-0.01,-0.01,31.41
10465212,1957,1,191140,227130,-0.14,-0.80,9.95,-0.04,-0.01,-0.00,31.41
10505208,1946,1,191380,227489,-0.13,-0.81,9.94,-0.03,-0.01,-0.01,31.41
10545208,1952,1,191299,226999,-0.13,-0.79,9.93,-0.03,-0.01,-0.01,31.41
10585208,1956,1,191146,227173,-0.14,-0.81,9.94,-0.03,-0.01,-0.00,31.41
10625212,1963,1,191321,227401,-0.16,-0.80,9.96,-0.03,-0.01,-0.00,31.41
10665208,1973,1,191280,227301,-0.13,-0.81,9.94,-0.03,-0.01,-0.00,31.41
10705208,1986,1,191325,227388,-0.13,-0.79,9.95,-0.03,-0.01,-0.01,31.41
10745208,1985,1,191390,227659,-0.15,-0.79,9.96,-0.03,-0.01,-0.00,31.41
10785208,1995,1,191528,227982,-0.15,-0.81,9.95,-0.03,-0.01,-0.00,31.41
10825216,2001,1,191649,228305,-0.13,-0.81,9.96,-0.03,-0.01,-0.00,31.41
10865210,1996,1,191780,228732,-0.13,-0.79,9.95,-0.03,-0.01,-0.00,31.41
10905208,2003,1,191984,229361,-0.11,-0.81,9.96,-0.03,-0.01,-0.00,31.41
10945208,2001,1,192236,230264,-0.12,-0.79,9.93,-0.03,-0.01,-0.01,31.41
10985208,2012,1,192570,231225,-0.14,-0.80,9.96,-0.04,-0.01,-0.01,31.41
11025261,2010,1,192782,230882,-0.12,-0.79,9.94,-0.03,-0.01,-0.01,31.41
11065208,1991,1,191865,226903,-0.11,-0.80,9.94,-0.03,-0.01,-0.00,31.41
11105210,1984,1,190730,225273,-0.13,-0.80,9.94,-0.03,-0.01,-0.00,31.41
11145208,1986,1,190514,225058,-0.13,-0.77,9.94,-0.03,-0.01,-0.00,31.41
11185898,1968,1,190561,225098,-0.12,-0.79,9.95,-0.03,-0.01,-0.00,31.05
11226224,1952,1,190524,225271,-0.15,-0.81,9.96,-0.03,-0.01,-0.00,31.05
11266208,1963,1,190784,226142,-0.15,-0.79,9.98,-0.03,-0.01,-0.00,31.05
11306208,1943,1,191122,226876,-0.13,-0.81,9.95,-0.03,-0.01,-0.01,31.05
11346208,1936,1,191219,227166,-0.14,-0.81,9.95,-0.03,-0.01,-0.01,31.05
11386208,1937,1,191332,227434,-0.12,-0.80,9.96,-0.03,-0.01,-0.00,31.05
11426208,1923,1,191436,227742,-0.14,-0.79,9.96,-0.03,-0.01,-0.01,31.05
11466208,1922,1,191557,228119,-0.16,-0.77,9.96,-0.03,-0.01,-0.01,31.05
11506208,1918,1,191681,228162,-0.12,-0.79,9.96,-0.03,-0.01,-0.01,31.05
11546208,1909,1,191669,228069,-0.14,-0.79,9.93,-0.03,-0.01,-0.01,31.05
11586208,1911,1,191682,227886,-0.13,-0.80,9.95,-0.03,-0.01,-0.00,31.05
11626208,1902,1,191715,227975,-0.12,-0.80,9.95,-0.03,-0.01,-0.01,31.05
11666208,1907,1,191826,228438,-0.14,-0.79,9.96,-0.03,-0.01,-0.01,31.05
11706208,1904,1,192020,228166,-0.13,-0.79,9.93,-0.03,-0.01,-0.00,31.05
11746208,1895,1,191202,225357,-0.11,-0.79,9.96,-0.03,-0.01,-0.01,31.05
11786208,1887,1,190582,224679,-0.14,-0.78,9.96,-0.03,-0.01,-0.00,31.05
11826208,1904,1,190506,224982,-0.14,-0.80,9.97,-0.04,-0.01,-0.01,31.05
11866208,1878,1,190613,225281,-0.14,-0.80,9.98,-0.03,-0.01,-0.01,31.05
11906209,1882,1,190713,225618,-0.15,-0.77,9.93,-0.03,-0.01,-0.01,31.05
11946208,1883,1,190850,226517,-0.16,-0.79,9.96,-0.03,-0.01,-0.01,31.05
11986208,1879,1,191313,227401,-0.16,-0.77,9.96,-0.03,-0.01,-0.00,31.05
12026217,1872,1,191559,227898,-0.12,-0.79,9.96,-0.03,-0.01,-0.01,31.05
12065212,1887,1,191658,228363,-0.13,-0.78,9.91,-0.03,-0.01,-0.00,31.05
12105208,1894,1,191849,229164,-0.13,-0.82,9.94,-0.03,-0.01,-0.01,31.05
12145208,1887,1,192208,230337,-0.15,-0.79,9.98,-0.04,-0.01,-0.00,31.05
12185894,1872,1,192624,231449,-0.16,-0.81,9.96,-0.04,-0.01,-0.01,30.99
12226208,1878,1,192885,232131,-0.16,-0.80,9.96,-0.03,-0.01,-0.01,30.99
12266209,1878,1,192996,232707,-0.13,-0.80,9.98,-0.03,-0.01,-0.00,30.99
12306209,1882,1,193090,233027,-0.13,-0.80,9.95,-0.03,-0.01,-0.00,30.99
12346209,1879,1,193147,233319,-0.13,-0.80,9.96,-0.03,-0.01,-0.00,30.99
12386208,1890,1,193367,233332,-0.15,-0.80,9.96,-0.03,-0.01,-0.01,30.99
12426209,1882,1,192884,230293,-0.14,-0.79,9.94,-0.03,-0.01,-0.01,30.99
12466209,1885,1,191614,228034,-0.12,-0.79,9.94,-0.03,-0.01,-0.00,30.99
12506209,1885,1,191452,228389,-0.11,-0.81,9.93,-0.03,-0.01,-0.01,30.99
12546209,1891,1,191582,229130,-0.16,-0.80,9.98,-0.03,-0.01,-0.00,30.99
12586209,1901,1,191796,229724,-0.14,-0.78,9.95,-0.03,-0.02,-0.00,30.99
12626209,1891,1,192037,230735,-0.13,-0.78,9.92,-0.03,-0.02,-0.00,30.99
12666213,1895,1,192619,232363,-0.10,-0.80,9.92,-0.03,-0.01,-0.00,30.99
12706208,1904,1,193379,234381,-0.16,-0.78,9.94,-0.04,-0.02,-0.01,30.99
12746208,1902,1,194286,236192,-0.13,-0.80,10.00,-0.04,-0.08,-0.01,30.99
12786208,1907,1,195040,237207,-0.07,-0.82,9.94,-0.04,-0.05,-0.01,30.99
12826209,1913,1,195489,237387,-0.05,-0.78,9.92,-0.04,-0.02,-0.00,30.99
12866234,1910,1,195485,237252,-0.07,-0.82,9.95,-0.03,-0.00,-0.00,30.99
12906210,1919,1,195488,237443,-0.06,-0.80,9.94,-0.03,-0.00,-0.01,30.99
12946209,1919,1,195352,237024,-0.08,-0.82,9.97,-0.03,0.00,-0.00,30.99
12986190,1922,1,195016,236680,-0.11,-0.81,9.96,-0.03,0.00,-0.01,30.99
13026203,1920,1,194885,236526,-0.10,-0.82,9.95,-0.03,0.00,-0.01,30.99
13066191,1907,1,194639,236614,-0.09,-0.81,9.95,-0.03,-0.00,-0.00,30.99
13105210,1919,1,194660,236235,-0.09,-0.82,9.96,-0.04,-0.00,-0.01,30.99
13145208,1910,1,194103,235011,-0.12,-0.79,9.97,-0.04,-0.02,-0.01,30.99
13185897,1891,1,193743,234156,-0.11,-0.84,9.94,-0.04,-0.02,-0.00,31.13
13226209,1917,1,193508,233452,-0.09,-0.81,9.94,-0.03,-0.02,-0.00,31.13
13266210,1904,1,193399,232706,-0.07,-0.85,9.96,-0.03,-0.02,-0.00,31.13
13306209,1905,1,193225,232677,-0.02,-0.82,9.97,-0.03,-0.01,-0.00,31.13
13346211,1910,1,193426,233865,-0.08,-0.80,9.95,-0.03,-0.00,-0.01,31.13
13386209,1917,1,193867,234836,-0.11,-0.78,9.90,-0.03,-0.00,-0.01,31.13
13424210,1977,1,193948,234935,-0.13,-0.81,9.93,-0.03,-0.00,-0.01,31.13
13464209,1967,1,193791,234812,-0.08,-0.82,9.99,-0.03,-0.01,-0.00,31.13
13504211,1979,1,193709,234776,-0.09,-0.81,9.96,-0.03,-0.01,-0.00,31.13
13544209,1974,1,193818,235126,-0.09,-0.80,9.94,-0.03,-0.01,-0.01,31.13
13584210,1963,1,193888,235790,-0.08,-0.79,9.92,-0.03,-0.01,-0.01,31.13
13624210,1968,1,194157,236571,-0.11,-0.80,9.96,-0.04,-0.00,-0.01,31.13
13664211,1969,1,194363,236968,-0.11,-0.78,9.95,-0.03,-0.01,-0.01,31.13
13704209,1969,1,194395,237527,-0.11,-0.81,9.95,-0.03,-0.02,-0.00,31.13
13744213,1968,1,194791,238720,-0.14,-0.83,9.98,-0.05,-0.05,-0.01,31.13
13784208,1967,1,195372,238410,-0.07,-0.82,9.95,-0.07,-0.13,-0.01,31.13
13824210,1957,1,195105,237709,0.01,-0.82,9.94,-0.05,-0.07,-0.01,31.13
13864189,1965,1,195194,237813,0.01,-0.85,9.93,-0.05,-0.03,-0.01,31.13
13904195,1951,1,195191,238053,-0.01,-0.83,9.95,-0.03,-0.01,-0.01,31.13
13944209,1954,1,195241,238188,0.00,-0.84,9.94,-0.03,-0.00,-0.00,31.13
13984196,1942,1,195207,238261,-0.03,-0.84,10.01,-0.03,-0.01,-0.00,31.13
14024229,1951,1,195251,238609,-0.01,-0.85,9.95,-0.03,0.00,-0.01,31.13
14064196,1954,1,195131,238635,-0.01,-0.85,9.93,-0.04,-0.00,-0.01,31.13
14105209,1918,1,195060,238711,-0.02,-0.84,9.93,-0.03,-0.01,-0.01,31.13
14145211,1913,1,195057,238840,-0.02,-0.87,9.93,-0.04,-0.01,-0.01,31.13
14185896,1910,1,195119,239010,-0.04,-0.85,9.96,-0.04,-0.01,-0.01,31.11
14224210,1943,1,195021,239055,-0.03,-0.85,9.94,-0.04,-0.00,-0.01,31.11
14264208,1949,1,194948,239033,-0.02,-0.82,9.95,-0.04,-0.01,-0.01,31.11
14304209,1943,1,194926,239001,-0.03,-0.80,9.94,-0.03,-0.01,-0.01,31.11
14344208,1943,1,194954,239029,-0.02,-0.84,9.94,-0.03,-0.01,-0.01,31.11
14384210,1939,1,194927,239133,-0.03,-0.83,9.96,-0.04,-0.01,-0.01,31.11
14424208,1936,1,194948,239092,-0.02,-0.85,9.94,-0.03,-0.01,-0.00,31.11
14464212,1934,1,194777,238230,-0.02,-0.83,9.92,-0.03,-0.02,-0.01,31.11
14504208,1925,1,194231,237255,-0.02,-0.83,9.96,-0.04,-0.01,-0.01,31.11
14544210,1926,1,194114,237079,-0.01,-0.85,9.93,-0.03,-0.02,-0.01,31.11
14584208,1925,1,194052,237047,-0.02,-0.84,9.95,-0.03,-0.01,-0.01,31.11
14624210,1931,1,194036,236884,-0.01,-0.85,9.96,-0.03,-0.02,-0.00,31.11
14664208,1932,1,194071,236891,-0.02,-0.85,9.96,-0.03,-0.01,-0.00,31.11
14704210,1922,1,194149,236991,-0.01,-0.86,9.96,-0.03,-0.01,-0.01,31.11
14744209,1936,1,194177,236968,-0.03,-0.86,9.99,-0.04,-0.01,-0.00,31.11
14784210,1937,1,194163,236996,-0.03,-0.84,9.96,-0.03,-0.01,-0.01,31.11
14824208,1941,1,194175,237191,-0.02,-0.84,9.95,-0.03,-0.01,-0.01,31.11
14864210,1938,1,194296,237356,-0.00,-0.84,9.94,-0.03,-0.01,-0.00,31.11
14904208,1941,1,194384,237560,-0.03,-0.84,9.96,-0.03,-0.01,-0.01,31.11
14944212,1941,1,194370,237680,-0.01,-0.84,9.95,-0.03,-0.01,-0.01,31.11
14984208,1940,1,194354,237797,-0.00,-0.84,9.95,-0.03,-0.01,-0.00,31.11
15024227,1936,1,194384,237899,-0.02,-0.84,9.92,-0.03,-0.01,-0.00,31.11
15064208,1922,1,194393,237877,-0.04,-0.86,9.96,-0.03,-0.01,-0.00,31.11
15104210,1936,1,194401,237757,-0.01,-0.85,9.96,-0.03,-0.01,-0.00,31.11
15145209,1914,1,194282,236783,-0.01,-0.84,9.96,-0.03,-0.01,-0.00,31.11
15185208,1918,1,193587,234670,-0.00,-0.86,9.93,-0.03,-0.01,-0.00,31.11
15225896,1910,1,193056,234266,-0.03,-0.84,9.94,-0.03,-0.01,-0.01,31.35
15264212,1926,1,193107,234513,-0.02,-0.82,9.96,-0.03,-0.01,-0.01,31.35
15304208,1929,1,193127,234569,-0.02,-0.85,9.95,-0.03,-0.01,-0.00,31.35
15344212,1927,1,193172,234898,-0.01,-0.85,9.90,-0.03,-0.01,-0.00,31.35
15384208,1934,1,193388,235522,-0.02,-0.84,9.94,-0.03,-0.01,-0.00,31.35
15424212,1932,1,193532,235715,-0.04,-0.83,9.97,-0.03,-0.01,-0.01,31.35
15464208,1934,1,193567,235780,-0.02,-0.85,9.96,-0.03,-0.01,-0.01,31.35
15504210,1927,1,193603,235956,-0.00,-0.86,9.94,-0.03,-0.01,-0.00,31.35
15544208,1926,1,193657,236134,-0.01,-0.83,9.97,-0.03,-0.01,-0.00,31.35
15584210,1933,1,193699,236208,-0.02,-0.85,9.94,-0.03,-0.01,-0.00,31.35
15624209,1927,1,193727,236349,0.00,-0.85,9.98,-0.03,-0.01,-0.01,31.35
15664192,1931,1,193765,236483,-0.03,-0.86,9.96,-0.03,-0.01,-0.01,31.35
15704208,1936,1,193875,236629,-0.01,-0.85,9.94,-0.03,-0.01,-0.00,31.35
15744215,1931,1,193934,236797,-0.04,-0.87,9.93,-0.03,-0.01,-0.00,31.35
15784209,1926,1,194009,236834,-0.02,-0.83,9.94,-0.04,-0.01,-0.01,31.35
15824210,1922,1,193708,235138,-0.02,-0.85,9.94,-0.03,-0.01,-0.01,31.35
15864208,1919,1,193068,234192,-0.03,-0.84,9.94,-0.03,-0.01,-0.00,31.35
15904212,1911,1,192958,234256,-0.05,-0.84,9.97,-0.03,-0.01,-0.01,31.35
15944259,1921,1,192989,234307,-0.03,-0.85,9.94,-0.03,-0.01,-0.00,31.35
15984212,1917,1,192956,234333,-0.01,-0.86,9.93,-0.03,-0.01,-0.00,31.35
16024227,1913,1,192969,234632,-0.03,-0.85,9.97,-0.03,-0.01,-0.00,31.35
16064210,1927,1,193103,235020,-0.01,-0.85,9.95,-0.03,-0.01,-0.01,31.35
16104208,1923,1,193215,235168,-0.05,-0.85,9.97,-0.03,-0.01,-0.01,31.35
16144243,1920,1,193242,235391,-0.03,-0.84,9.94,-0.03,-0.01,-0.00,31.35
16184209,1918,1,193337,235652,-0.02,-0.84,9.95,-0.03,-0.01,-0.01,31.35
16224210,1923,1,193409,235885,-0.02,-0.85,9.93,-0.03,-0.01,-0.01,31.35
16264895,1904,1,193504,236117,-0.04,-0.84,9.95,-0.03,-0.01,-0.00,31.21
16305209,1915,1,193615,236318,-0.04,-0.84,9.96,-0.03,-0.01,-0.01,31.21
16345224,1904,1,193671,236593,-0.04,-0.82,9.95,-0.03,-0.01,-0.00,31.21
16385209,1904,1,193776,236917,-0.02,-0.84,9.95,-0.03,-0.01,-0.01,31.21
16425209,1913,1,193844,237121,-0.04,-0.84,9.95,-0.03,-0.01,-0.00,31.21
16465208,1914,1,193854,236956,-0.04,-0.84,9.96,-0.03,-0.01,-0.01,31.21
16505209,1911,1,193511,235099,-0.03,-0.85,9.96,-0.03,-0.01,-0.00,31.21
16545208,1904,1,192754,233962,-0.04,-0.86,9.95,-0.03,-0.01,-0.01,31.21
16585209,1911,1,192634,233891,-0.01,-0.85,9.93,-0.03,-0.01,-0.01,31.21
16625209,1907,1,192566,233917,-0.03,-0.83,9.96,-0.03,-0.01,-0.01,31.21
16665209,1909,1,192587,234038,-0.05,-0.86,9.96,-0.03,-0.01,-0.00,31.21
16705208,1904,1,192643,234379,-0.03,-0.85,9.95,-0.03,-0.01,-0.00,31.21
16745209,1907,1,192830,234828,-0.03,-0.86,9.97,-0.03,-0.01,-0.01,31.21
16785208,1920,1,192951,234990,-0.02,-0.85,9.94,-0.03,-0.01,-0.00,31.21
16825209,1917,1,193037,235279,-0.01,-0.82,9.95,-0.03,-0.01,-0.01,31.21
16865209,1913,1,193134,235462,-0.03,-0.86,9.94,-0.03,-0.01,-0.01,31.21
16905209,1909,1,193204,235703,-0.02,-0.84,9.96,-0.03,-0.01,-0.00,31.21
16945209,1917,1,193317,236067,-0.01,-0.85,9.94,-0.03,-0.01,-0.00,31.21
16985209,1912,1,193366,236399,-0.02,-0.84,9.96,-0.03,-0.01,-0.00,31.21
17025233,1915,1,193532,236735,-0.03,-0.85,9.93,-0.03,-0.01,-0.01,31.21
17065209,1922,1,193605,237055,-0.03,-0.85,9.95,-0.03,-0.01,-0.00,31.21
17105209,1919,1,193772,237586,-0.03,-0.84,9.94,-0.04,-0.01,-0.01,31.21
17145209,1926,1,193920,237865,-0.03,-0.84,9.97,-0.04,-0.01,-0.01,31.21
17185209,1909,1,193906,237353,-0.06,-0.84,9.95,-0.03,-0.01,-0.00,31.21
17225209,1915,1,193290,234685,-0.04,-0.85,9.95,-0.03,-0.02,-0.00,31.21
17265895,1907,1,192398,233243,-0.00,-0.83,9.91,-0.03,-0.02,-0.00,31.01
17304209,1917,1,192163,232920,-0.03,-0.83,9.98,-0.03,-0.01,-0.01,31.01
17344212,1918,1,192270,233546,-0.04,-0.84,9.94,-0.03,-0.00,-0.01,31.01
17384209,1919,1,192440,233927,-0.04,-0.86,9.95,-0.03,-0.01,-0.00,31.01
17424208,1914,1,192545,234219,-0.04,-0.83,9.92,-0.03,-0.01,-0.00,31.01
17464208,1917,1,192660,234378,0.00,-0.84,9.94,-0.03,-0.01,-0.00,31.01
17504192,1917,1,192656,234320,-0.03,-0.85,9.98,-0.03,-0.02,-0.01,31.01
17544209,1917,1,192665,234306,-0.03,-0.86,9.93,-0.03,-0.02,-0.00,31.01
17584215,1917,1,192803,234614,0.00,-0.85,9.96,-0.04,-0.01,-0.00,31.01
17624192,1907,1,192919,234914,0.00,-0.85,9.95,-0.04,-0.00,-0.01,31.01
17664195,1911,1,193009,235213,-0.04,-0.85,9.95,-0.03,-0.01,-0.00,31.01
17704209,1902,1,193146,235591,-0.03,-0.84,9.94,-0.03,-0.01,-0.00,31.01
17744213,1895,1,193293,235930,-0.02,-0.86,9.95,-0.03,-0.01,-0.00,31.01
17784253,1909,1,193439,236456,-0.04,-0.85,9.92,-0.04,-0.01,-0.01,31.01
17824211,1906,1,193581,236970,-0.00,-0.84,9.94,-0.04,-0.01,-0.00,31.01
17864209,1911,1,193808,237767,-0.01,-0.85,9.94,-0.04,-0.01,-0.01,31.01
17904212,1904,1,194128,238289,0.02,-0.87,9.94,-0.04,0.00,-0.01,31.01
17944174,1905,1,194018,237381,-0.04,-0.84,9.99,-0.05,-0.00,-0.02,31.01
17984232,1907,1,193568,236692,-0.02,-0.85,9.92,-0.04,-0.02,-0.01,31.01
18024228,1908,1,193384,236519,-0.03,-0.86,9.94,-0.04,-0.01,-0.01,31.01
18064209,1923,1,193388,236561,-0.04,-0.86,9.96,-0.04,-0.02,-0.01,31.01
18104209,1931,1,193370,236459,-0.05,-0.86,9.97,-0.03,-0.01,-0.01,31.01
18144211,1928,1,193286,236232,-0.04,-0.88,9.94,-0.03,-0.01,-0.00,31.01
18184209,1919,1,193271,236285,-0.01,-0.87,9.93,-0.03,-0.01,-0.00,31.01
18224209,1920,1,193241,236118,-0.03,-0.86,9.93,-0.03,-0.02,-0.00,31.01
18264209,1919,1,193166,235912,-0.04,-0.86,9.96,-0.03,-0.02,-0.00,31.01
18304896,1904,1,193105,235662,-0.00,-0.86,9.93,-0.03,-0.02,-0.00,31.01
18343208,1949,1,193008,235445,-0.01,-0.87,9.97,-0.03,-0.02,-0.00,31.01
18383212,1942,1,192937,235350,-0.00,-0.85,9.94,-0.03,-0.02,-0.00,31.01
18423208,1937,1,192982,235386,0.02,-0.86,9.93,-0.03,-0.02,-0.00,31.01
18463196,1933,1,193052,235444,0.01,-0.86,9.97,-0.03,-0.01,-0.00,31.01
18503192,1946,1,193124,235702,-0.00,-0.85,9.94,-0.03,-0.01,-0.01,31.01
18543209,1947,1,193253,235967,0.01,-0.84,9.93,-0.03,-0.01,-0.00,31.01
18583192,1936,1,193365,236165,-0.00,-0.85,9.96,-0.03,-0.01,-0.01,31.01
18623210,1941,1,193477,236153,0.00,-0.85,9.93,-0.03,-0.01,-0.00,31.01
18663192,1935,1,193075,234257,0.02,-0.85,9.95,-0.03,-0.01,-0.01,31.01
18703196,1926,1,192384,232878,-0.01,-0.85,9.95,-0.04,-0.01,-0.01,31.01
18743208,1938,1,192250,233112,0.00,-0.85,9.94,-0.03,-0.01,-0.00,31.01
18783195,1936,1,192409,233635,0.01,-0.85,9.96,-0.03,-0.01,-0.00,31.01
18823192,1930,1,192511,233812,0.00,-0.86,9.98,-0.03,-0.01,-0.01,31.01
18863195,1931,1,192672,234392,0.02,-0.84,9.95,-0.03,-0.01,-0.00,31.01
18903192,1923,1,192885,234963,-0.01,-0.85,9.93,-0.03,-0.01,-0.01,31.01
18943209,1931,1,193045,235228,0.00,-0.86,9.94,-0.03,-0.01,-0.00,31.01
18983191,1931,1,193037,235478,0.01,-0.84,9.95,-0.03,-0.01,-0.01,31.01
19023195,1933,1,193188,235829,-0.01,-0.86,9.94,-0.03,-0.01,-0.00,31.01
19063208,1936,1,193249,236172,-0.03,-0.85,9.96,-0.04,-0.01,-0.01,31.01
19103210,1943,1,193412,236483,-0.00,-0.87,9.94,-0.03,-0.01,-0.01,31.01
19143209,1940,1,193467,236851,-0.01,-0.86,9.96,-0.03,-0.01,-0.01,31.01
19183208,1949,1,193581,237044,-0.03,-0.83,9.94,-0.03,-0.01,-0.01,31.01
19223212,1937,1,193557,237209,-0.01,-0.86,9.92,-0.03,-0.01,-0.00,31.01
19263207,1946,1,193659,237450,-0.01,-0.86,9.93,-0.03,-0.01,-0.00,31.01
19303207,1946,1,193771,237597,-0.02,-0.84,9.95,-0.03,-0.01,-0.00,31.01
19343896,1914,1,193836,237435,-0.01,-0.85,9.95,-0.03,-0.01,-0.00,31.05
19384208,1924,1,193481,235834,-0.03,-0.87,9.93,-0.03,-0.01,-0.00,31.05
19424208,1909,1,192832,234963,-0.01,-0.86,9.95,-0.03,-0.01,-0.00,31.05
19464209,1917,1,192802,235125,-0.01,-0.85,9.97,-0.03,-0.01,-0.01,31.05
19504208,1917,1,192895,235436,-0.02,-0.84,9.96,-0.03,-0.01,-0.00,31.05
19544208,1905,1,192935,235656,-0.02,-0.87,9.96,-0.03,-0.01,-0.01,31.05
19584207,1920,1,193076,236172,0.00,-0.85,9.94,-0.03,-0.01,-0.00,31.05
19624197,1904,1,193305,236563,0.00,-0.86,9.93,-0.03,-0.01,-0.00,31.05
19664191,1913,1,193361,236687,-0.00,-0.87,9.97,-0.03,-0.01,-0.01,31.05
19704209,1918,1,193377,236762,-0.02,-0.86,9.95,-0.03,-0.01,-0.00,31.05
19744208,1919,1,193442,236980,-0.01,-0.86,9.94,-0.03,-0.01,-0.00,31.05
19784209,1915,1,193514,237280,-0.00,-0.87,9.93,-0.03,-0.01,-0.00,31.05
19824208,1911,1,193642,237486,-0.01,-0.85,9.96,-0.04,-0.01,-0.01,31.05
19864209,1910,1,193687,237681,-0.01,-0.87,9.96,-0.03,-0.01,-0.01,31.05
19904208,1911,1,193738,237824,-0.01,-0.86,9.95,-0.03,-0.01,-0.01,31.05
19944208,1905,1,193778,237894,-0.01,-0.85,9.92,-0.03,-0.01,-0.00,31.05
19984208,1902,1,193802,237887,-0.01,-0.85,9.94,-0.03,-0.01,-0.01,31.05
20024228,1902,1,193796,237773,-0.01,-0.85,9.92,-0.03,-0.01,-0.00,31.05
20064208,1904,1,193746,237277,-0.00,-0.87,9.96,-0.03,-0.02,-0.00,31.05
20104209,1903,1,193311,235361,-0.01,-0.85,9.93,-0.03,-0.01,-0.00,31.05
20144208,1895,1,192619,234351,0.01,-0.85,9.96,-0.03,-0.01,-0.00,31.05
20184190,1904,1,192553,234331,-0.01,-0.85,9.97,-0.03,-0.01,-0.00,31.05
20224208,1897,1,192647,234461,0.00,-0.84,9.97,-0.03,-0.01,-0.00,31.05
20264190,1900,1,192714,234718,-0.01,-0.85,9.95,-0.03,-0.01,-0.01,31.05
20304208,1914,1,192894,235303,-0.03,-0.84,9.96,-0.03,-0.01,-0.00,31.05
20344895,1889,1,193092,235666,0.00,-0.86,9.91,-0.04,-0.01,-0.01,31.13
20383195,1907,1,193201,236094,0.01,-0.86,9.96,-0.04,-0.01,-0.01,31.13
20423190,1916,1,193359,236453,-0.02,-0.85,9.96,-0.03,-0.01,-0.01,31.13
20463210,1918,1,193471,236640,-0.01,-0.85,9.97,-0.03,-0.01,-0.00,31.13
20503208,1915,1,193567,236874,-0.02,-0.84,9.95,-0.03,-0.01,-0.01,31.13
20543209,1914,1,193601,236938,-0.03,-0.85,9.94,-0.03,-0.01,-0.01,31.13
20583208,1913,1,193656,236968,-0.01,-0.85,9.97,-0.03,-0.01,-0.00,31.13
20623212,1918,1,193698,237188,-0.02,-0.85,9.93,-0.03,-0.01,-0.01,31.13
20663208,1911,1,193762,237310,-0.01,-0.83,9.94,-0.03,-0.01,-0.00,31.13
20703208,1916,1,193859,237513,-0.02,-0.85,9.95,-0.03,-0.01,-0.00,31.13
20743208,1910,1,193796,236967,-0.01,-0.84,9.94,-0.03,-0.01,-0.01,31.13
20783208,1910,1,193231,235138,0.01,-0.84,9.98,-0.03,-0.01,-0.01,31.13
20823192,1909,1,192859,235131,-0.00,-0.86,9.95,-0.03,-0.01,-0.00,31.13
20863208,1910,1,193050,236003,-0.02,-0.85,9.95,-0.04,-0.01,-0.01,31.13
20903208,1920,1,193387,236975,-0.01,-0.85,9.91,-0.04,-0.00,-0.01,31.13
20943208,1911,1,193673,237806,-0.03,-0.85,9.97,-0.04,-0.00,-0.01,31.13
20983208,1906,1,193955,238525,-0.03,-0.87,9.93,-0.04,-0.01,-0.01,31.13
21023208,1911,1,194053,238490,-0.03,-0.86,9.96,-0.03,-0.01,-0.00,31.13
21063237,1917,1,193890,238167,-0.02,-0.87,9.96,-0.03,-0.02,-0.00,31.13
21103208,1925,1,193784,237893,-0.03,-0.83,9.97,-0.03,-0.01,-0.01,31.13
21143208,1920,1,193749,237759,-0.02,-0.86,9.95,-0.03,-0.01,-0.01,31.13
21183208,1936,1,193716,237684,0.00,-0.86,9.98,-0.03,-0.01,-0.01,31.13
21223191,1922,1,193714,237629,-0.02,-0.85,9.96,-0.03,-0.01,-0.00,31.13
21263235,1931,1,193730,237613,-0.01,-0.86,9.93,-0.03,-0.01,-0.00,31.13
21303208,1935,1,193806,237858,-0.01,-0.85,9.96,-0.03,-0.01,-0.00,31.13
21343208,1931,1,193928,238375,-0.03,-0.86,9.94,-0.04,-0.01,-0.01,31.13
21383894,1917,1,194001,238239,-0.01,-0.85,9.96,-0.04,-0.01,-0.01,30.97
21424209,1907,1,193645,237119,0.01,-0.85,9.96,-0.03,-0.01,-0.00,30.97
21464190,1914,1,193249,236412,-0.02,-0.85,9.98,-0.03,-0.01,-0.01,30.97
21504208,1920,1,192870,235328,-0.04,-0.87,9.99,-0.03,-0.02,-0.00,30.97
21544208,1922,1,192596,234599,-0.02,-0.86,9.93,-0.03,-0.02,-0.00,30.97
21584208,1915,1,192459,234292,-0.00,-0.86,9.92,-0.03,-0.02,-0.00,30.97
21624209,1926,1,192551,234688,0.01,-0.86,9.92,-0.03,-0.01,-0.00,30.97
21664192,1929,1,192787,235219,-0.00,-0.85,9.93,-0.03,-0.01,-0.01,30.97
21704209,1920,1,192939,235418,0.00,-0.84,9.94,-0.03,-0.01,-0.01,30.97
21744192,1925,1,192966,235561,0.00,-0.85,9.95,-0.03,-0.01,-0.00,30.97
21784190,1923,1,193046,235898,-0.01,-0.87,9.93,-0.03,-0.01,-0.01,30.97
21824208,1927,1,193231,236425,-0.00,-0.85,9.93,-0.04,-0.01,-0.01,30.97
21864209,1923,1,193392,236915,0.00,-0.84,9.97,-0.03,-0.01,-0.01,30.97
21904191,1920,1,193546,237214,-0.00,-0.86,9.97,-0.03,-0.01,-0.01,30.97
21944209,1923,1,193685,237491,-0.03,-0.86,9.95,-0.03,-0.01,-0.01,30.97
21984208,1916,1,193792,237815,-0.01,-0.86,9.95,-0.03,-0.01,-0.01,30.97
22024229,1914,1,193876,238065,-0.01,-0.86,9.98,-0.03,-0.01,-0.01,30.97
22064208,1917,1,193738,237086,0.00,-0.85,9.95,-0.03,-0.01,-0.01,30.97
22104190,1908,1,193067,235625,-0.03,-0.84,9.95,-0.03,-0.01,-0.01,30.97
22144208,1904,1,192875,235470,-0.01,-0.85,9.96,-0.03,-0.01,-0.01,30.97
22184208,1904,1,192889,235457,0.01,-0.87,9.94,-0.03,-0.01,-0.01,30.97
22222195,1962,1,192926,235417,0.00,-0.85,9.98,-0.03,-0.01,-0.00,30.97
22262191,1958,1,192901,235595,-0.00,-0.84,9.96,-0.03,-0.01,-0.00,30.97
22302210,1951,1,193081,236039,0.01,-0.85,9.95,-0.03,-0.01,-0.01,30.97
22342193,1962,1,193238,236404,-0.01,-0.85,9.93,-0.03,-0.01,-0.00,30.97
22382210,1953,1,193383,236852,-0.00,-0.85,9.94,-0.03,-0.01,-0.01,30.97
22422895,1897,1,193566,237446,-0.02,-0.86,9.93,-0.03,-0.01,-0.01,30.91
22463211,1911,1,193776,238063,-0.01,-0.84,9.96,-0.04,-0.01,-0.01,30.91
22503209,1908,1,194032,238724,-0.02,-0.88,9.96,-0.04,-0.00,-0.01,30.91
22543210,1904,1,194256,239310,-0.01,-0.84,9.93,-0.04,-0.00,-0.01,30.91
22583209,1908,1,194421,239748,-0.04,-0.87,10.00,-0.03,-0.00,-0.01,30.91
22623210,1904,1,194487,239944,-0.03,-0.85,9.95,-0.03,-0.01,-0.00,30.91
22663209,1904,1,194473,240071,-0.01,-0.85,9.95,-0.03,-0.01,-0.01,30.91
22703217,1906,1,194408,239949,-0.03,-0.86,9.96,-0.03,-0.01,-0.01,30.91
22743209,1893,1,194222,239107,-0.03,-0.86,9.95,-0.03,-0.01,-0.00,30.91
22783213,1901,1,193792,238450,-0.01,-0.85,9.96,-0.03,-0.01,-0.01,30.91
22823210,1909,1,193753,238581,0.01,-0.85,9.93,-0.03,-0.01,-0.01,30.91
22863196,1897,1,193788,238629,-0.01,-0.86,9.96,-0.03,-0.01,-0.00,30.91
22903227,1888,1,193777,238655,-0.03,-0.86,9.97,-0.03,-0.01,-0.00,30.91
22943211,1894,1,193777,238787,0.00,-0.86,9.95,-0.03,-0.01,-0.00,30.91
22983193,1892,1,193797,238955,0.03,-0.86,9.93,-0.03,-0.02,-0.01,30.91
23023197,1892,1,193813,238728,0.00,-0.84,9.95,-0.03,-0.02,-0.00,30.91
23063193,1905,1,193733,238397,-0.00,-0.87,9.93,-0.03,-0.02,-0.00,30.91
23103211,1904,1,193650,238197,-0.00,-0.86,9.95,-0.03,-0.02,-0.00,30.91
23143209,1907,1,193648,238206,-0.01,-0.85,9.94,-0.03,-0.01,-0.00,30.91
23183211,1906,1,193719,238380,0.00,-0.87,9.96,-0.03,-0.01,-0.00,30.91
23223193,1906,1,193828,238807,0.01,-0.84,9.94,-0.04,-0.01,-0.01,30.91
23263197,1907,1,193990,239248,0.01,-0.86,9.94,-0.04,-0.00,-0.01,30.91
23303193,1919,1,194079,239653,-0.01,-0.85,9.96,-0.04,-0.01,-0.00,30.91
23343211,1920,1,194174,239823,-0.04,-0.85,9.95,-0.03,-0.01,-0.01,30.91
23383210,1919,1,194144,239834,-0.00,-0.87,9.93,-0.03,-0.01,-0.01,30.91
23423898,1900,1,193928,238881,0.00,-0.84,9.96,-0.03,-0.01,-0.01,30.91
23462193,1926,1,193501,238199,-0.00,-0.89,9.92,-0.03,-0.01,-0.01,30.91
23502210,1929,1,193404,238123,-0.02,-0.84,9.95,-0.03,-0.01,-0.00,30.91
23542209,1934,1,193368,237971,-0.00,-0.86,9.95,-0.03,-0.01,-0.00,30.91
23582211,1930,1,193389,237956,0.01,-0.86,9.95,-0.03,-0.01,-0.01,30.91
23622196,1922,1,193447,238278,0.01,-0.86,9.96,-0.03,-0.01,-0.01,30.91
23662196,1930,1,193668,238879,-0.01,-0.85,9.93,-0.04,-0.01,-0.01,30.91
23702209,1927,1,193782,239237,-0.00,-0.86,9.96,-0.03,-0.01,-0.01,30.91
23742211,1914,1,193838,239319,0.00,-0.87,9.93,-0.03,-0.01,-0.00,30.91
23782193,1936,1,193862,239304,0.00,-0.85,9.95,-0.03,-0.01,-0.01,30.91
23822196,1936,1,193793,239253,-0.01,-0.85,9.93,-0.03,-0.01,-0.00,30.91
23862210,1930,1,193870,239392,0.00,-0.86,9.94,-0.03,-0.01,-0.01,30.91
23902196,1929,1,193889,239535,-0.01,-0.88,9.96,-0.03,-0.01,-0.00,30.91
23942209,1925,1,193906,239667,-0.01,-0.86,9.95,-0.03,-0.01,-0.01,30.91
23982211,1926,1,193965,239756,-0.01,-0.86,9.96,-0.03,-0.01,-0.00,30.91
24022218,1916,1,194005,239824,-0.00,-0.85,9.95,-0.03,-0.01,-0.00,30.91
24062210,1919,1,194017,239799,-0.03,-0.85,9.96,-0.03,-0.01,-0.00,30.91
24102209,1925,1,193862,238894,-0.02,-0.85,9.95,-0.03,-0.01,-0.00,30.91
24142210,1909,1,193449,238087,-0.01,-0.87,9.96,-0.03,-0.01,-0.00,30.91
24182209,1906,1,193331,238015,-0.02,-0.87,9.96,-0.03,-0.01,-0.01,30.91
24222211,1907,1,193347,238096,-0.01,-0.84,9.94,-0.03,-0.01,-0.00,30.91
24262209,1907,1,193369,238148,-0.02,-0.87,9.94,-0.03,-0.01,-0.01,30.91
24302211,1906,1,193407,238403,0.01,-0.86,9.95,-0.03,-0.01,-0.00,30.91
24342209,1908,1,193556,238633,-0.01,-0.86,9.93,-0.03,-0.01,-0.01,30.91
24382211,1917,1,193576,238625,-0.01,-0.86,9.95,-0.03,-0.01,-0.00,30.91
24422209,1911,1,193558,238598,0.02,-0.87,9.93,-0.03,-0.01,-0.01,30.91
24462883,1901,1,193628,238647,-0.01,-0.86,9.95,-0.03,-0.01,-0.01,30.79
24503209,1904,1,193645,238770,-0.00,-0.85,9.94,-0.03,-0.01,-0.01,30.79
24543223,1904,1,193743,238807,-0.00,-0.86,9.92,-0.03,-0.01,-0.00,30.79
24583209,1904,1,193730,238825,-0.00,-0.86,9.95,-0.03,-0.01,-0.00,30.79
24623211,1915,1,193754,238803,0.01,-0.86,9.94,-0.03,-0.01,-0.01,30.79
24663196,1905,1,193844,238941,0.00,-0.86,9.95,-0.03,-0.01,-0.00,30.79
24703196,1906,1,193847,239042,-0.00,-0.85,9.95,-0.03,-0.01,-0.00,30.79
24743213,1904,1,193865,239005,0.00,-0.86,9.96,-0.03,-0.01,-0.00,30.79
24783197,1898,1,193654,237922,-0.02,-0.85,9.95,-0.03,-0.01,-0.01,30.79
24823209,1903,1,193291,237450,0.00,-0.85,9.94,-0.03,-0.01,-0.01,30.79
24863197,1901,1,193246,237532,-0.02,-0.86,9.93,-0.03,-0.01,-0.01,30.79
24903210,1901,1,193291,237654,-0.02,-0.86,9.95,-0.03,-0.01,-0.00,30.79
24943213,1895,1,193339,237817,-0.00,-0.87,9.96,-0.03,-0.01,-0.00,30.79
24983209,1893,1,193472,238206,-0.00,-0.85,9.96,-0.03,-0.01,-0.00,30.79
25023211,1900,1,193551,238314,-0.01,-0.86,9.96,-0.03,-0.01,-0.01,30.79
25063209,1903,1,193471,238341,-0.01,-0.86,9.95,-0.03,-0.01,-0.00,30.79
25103213,1901,1,193530,238409,-0.02,-0.86,9.93,-0.03,-0.01,-0.00,30.79
25143210,1899,1,193558,238504,-0.03,-0.85,9.99,-0.03,-0.01,-0.01,30.79
25182211,1905,1,193551,238560,0.01,-0.85,9.93,-0.03,-0.01,-0.01,30.79
25222196,1902,1,193625,238625,0.00,-0.88,9.93,-0.03,-0.01,-0.00,30.79
25262196,1917,1,193708,238818,-0.01,-0.86,9.94,-0.03,-0.01,-0.01,30.79
25302209,1918,1,193633,238755,-0.02,-0.87,9.96,-0.03,-0.01,-0.00,30.79
25342211,1920,1,193701,238833,0.00,-0.85,9.96,-0.03,-0.01,-0.01,30.79
25382192,1907,1,193620,238624,-0.02,-0.85,9.99,-0.03,-0.01,-0.00,30.79
25422211,1909,1,193316,237224,-0.01,-0.87,9.94,-0.03,-0.02,-0.01,30.79
25462895,1894,1,192838,236431,-0.00,-0.87,9.94,-0.03,-0.01,-0.01,30.81
25503211,1899,1,192696,236301,-0.02,-0.86,9.96,-0.03,-0.01,-0.01,30.81
25543210,1905,1,192622,236379,0.02,-0.85,9.93,-0.03,-0.01,-0.00,30.81
25583196,1909,1,192696,236734,0.00,-0.85,9.96,-0.03,-0.01,-0.01,30.81
25623197,1915,1,192931,237405,-0.02,-0.87,9.97,-0.03,-0.01,-0.00,30.81
25663211,1928,1,193065,237916,-0.02,-0.86,9.96,-0.03,-0.01,-0.01,30.81
25703209,1933,1,193189,237992,-0.01,-0.85,9.94,-0.03,-0.01,-0.00,30.81
25743213,1934,1,193297,238180,0.01,-0.85,9.93,-0.03,-0.01,-0.01,30.81
25783194,1936,1,193304,238283,-0.02,-0.86,9.97,-0.03,-0.01,-0.01,30.81
25823213,1938,1,193382,238519,-0.01,-0.85,9.94,-0.03,-0.01,-0.01,30.81
25863210,1943,1,193507,238672,-0.01,-0.85,9.92,-0.03,-0.01,-0.01,30.81
25903213,1946,1,193526,238994,-0.01,-0.83,9.92,-0.03,-0.01,-0.01,30.81
25943210,1949,1,193618,239254,0.00,-0.86,9.95,-0.03,-0.01,-0.01,30.81
25983197,1943,1,193643,239337,-0.00,-0.86,9.94,-0.03,-0.01,-0.00,30.81
26023209,1943,1,193687,239420,-0.02,-0.85,9.93,-0.03,-0.01,-0.00,30.81
26063214,1938,1,193505,238321,-0.02,-0.85,9.95,-0.03,-0.01,-0.00,30.81
26103210,1938,1,192979,237338,-0.00,-0.85,9.93,-0.03,-0.02,-0.01,30.81
26143211,1953,1,192836,237266,-0.01,-0.84,9.96,-0.03,-0.01,-0.01,30.81
26182209,1958,1,192934,237320,-0.01,-0.86,9.95,-0.03,-0.01,-0.00,30.81
26222213,1946,1,192867,237277,-0.01,-0.85,9.95,-0.03,-0.01,-0.00,30.81
26262209,1947,1,192958,237544,-0.02,-0.85,9.94,-0.03,-0.01,-0.00,30.81
26302213,1949,1,193088,238058,-0.02,-0.87,9.99,-0.03,-0.01,-0.01,30.81
26342209,1946,1,193178,238121,0.00,-0.85,9.94,-0.03,-0.01,-0.01,30.81
26382196,1933,1,193203,238098,-0.03,-0.88,9.98,-0.03,-0.01,-0.00,30.81
26422209,1936,1,193228,238304,-0.00,-0.83,9.91,-0.03,-0.01,-0.00,30.81
26462211,1931,1,193334,238475,-0.02,-0.85,9.95,-0.03,-0.01,-0.00,30.81
26502895,1922,1,193340,238569,-0.02,-0.85,9.95,-0.03,-0.01,-0.01,30.97
26541211,1975,1,193356,238729,0.00,-0.85,9.95,-0.03,-0.01,-0.01,30.97
26581192,1967,1,193418,238878,-0.01,-0.86,9.96,-0.03,-0.01,-0.00,30.97
26621210,1967,1,193516,239004,-0.03,-0.85,9.96,-0.03,-0.01,-0.01,30.97
26661209,1958,1,193606,239117,0.01,-0.85,9.97,-0.03,-0.01,-0.01,30.97
26701196,1953,1,193626,239126,0.00,-0.86,9.94,-0.03,-0.01,-0.00,30.97
26741192,1954,1,193510,238347,-0.01,-0.86,9.97,-0.03,-0.01,-0.00,30.97
26781212,1945,1,193014,237578,-0.04,-0.85,9.96,-0.03,-0.01,-0.01,30.97
26821208,1941,1,192944,237567,-0.01,-0.88,9.95,-0.03,-0.01,-0.01,30.97
26861210,1936,1,192981,237587,-0.00,-0.86,9.95,-0.03,-0.01,-0.01,30.97
26901208,1936,1,193118,237691,-0.01,-0.85,9.93,-0.03,-0.01,-0.01,30.97
26941210,1945,1,193161,237863,-0.01,-0.85,9.95,-0.03,-0.01,-0.01,30.97
26981208,1952,1,193278,238170,-0.02,-0.87,9.98,-0.03,-0.01,-0.00,30.97
27021210,1968,1,193321,238328,-0.00,-0.85,9.94,-0.03,-0.01,-0.01,30.97
27061209,1964,1,193297,238365,0.00,-0.86,9.94,-0.03,-0.01,-0.01,30.97
27101195,1982,1,193281,238431,-0.01,-0.85,9.97,-0.03,-0.01,-0.00,30.97
27141208,2000,1,193305,238481,-0.01,-0.85,9.95,-0.03,-0.01,-0.01,30.97
27181210,2028,1,193334,238506,-0.00,-0.85,9.94,-0.03,-0.01,-0.00,30.97
27222209,2019,1,193325,238608,-0.01,-0.85,9.96,-0.03,-0.01,-0.00,30.97
27262213,2033,1,193269,238669,-0.03,-0.85,9.96,-0.03,-0.01,-0.00,30.97
27302209,2075,1,193341,238730,-0.04,-0.85,9.94,-0.03,-0.01,-0.01,30.97
27342213,2098,1,193377,238894,-0.01,-0.85,9.95,-0.03,-0.01,-0.00,30.97
27382209,2130,1,193403,239027,-0.02,-0.86,9.93,-0.03,-0.01,-0.00,30.97
27422211,2163,1,193541,239008,-0.03,-0.86,9.96,-0.03,-0.01,-0.00,30.97
27462209,2192,1,193434,238206,-0.01,-0.85,9.95,-0.03,-0.01,-0.00,30.97
27502211,2204,1,192881,237040,-0.02,-0.84,9.96,-0.03,-0.01,-0.00,30.97
27542896,2227,1,192700,236584,-0.02,-0.86,9.97,-0.03,-0.02,-0.00,30.87
27581211,2275,1,192579,236541,-0.03,-0.85,9.95,-0.03,-0.02,-0.01,30.87
27621209,2291,1,192514,236264,-0.00,-0.85,9.93,-0.03,-0.01,-0.01,30.87
27661211,2304,1,192452,236200,0.00,-0.84,9.95,-0.03,-0.01,-0.00,30.87
27701192,2290,1,192602,236830,-0.01,-0.86,9.96,-0.03,-0.01,-0.00,30.87
27741210,2282,1,192710,237274,-0.00,-0.85,9.95,-0.03,-0.01,-0.00,30.87
27781209,2261,1,192986,237321,-0.01,-0.83,9.95,-0.03,-0.01,-0.00,30.87
27821215,2239,1,192984,237560,-0.00,-0.85,9.95,-0.03,-0.01,-0.01,30.87
27861208,2195,1,192878,237634,0.00,-0.84,9.92,-0.03,-0.01,-0.01,30.87
27901195,2154,1,192896,237709,-0.02,-0.86,9.94,-0.03,-0.01,-0.01,30.87
27941208,2112,1,192941,237750,-0.02,-0.85,9.95,-0.03,-0.01,-0.00,30.87
27981210,2060,1,193010,237751,-0.01,-0.87,9.94,-0.03,-0.01,-0.00,30.87
28021230,2027,1,192982,237667,0.00,-0.86,9.96,-0.03,-0.02,-0.00,30.87
28061195,1984,1,193099,237763,0.00,-0.85,9.95,-0.03,-0.01,-0.01,30.87
28101192,1930,1,193123,237992,-0.01,-0.85,9.94,-0.03,-0.01,-0.00,30.87
28141212,1882,1,193262,238165,-0.01,-0.84,9.96,-0.03,-0.01,-0.01,30.87
28181208,1839,1,192999,237172,-0.01,-0.85,9.95,-0.03,-0.01,-0.00,30.87
28221213,1814,1,192533,235880,0.00,-0.85,9.94,-0.03,-0.01,-0.01,30.87
28262191,1777,1,192250,235897,-0.02,-0.85,9.95,-0.03,-0.01,-0.01,30.87
28302209,1731,1,192358,236078,-0.01,-0.87,9.94,-0.03,-0.01,-0.00,30.87
28342209,1705,1,192463,236199,-0.01,-0.85,9.94,-0.03,-0.01,-0.01,30.87
28382209,1680,1,192562,236542,-0.02,-0.85,9.93,-0.03,-0.01,-0.00,30.87
28422209,1673,1,192712,237224,-0.01,-0.86,9.97,-0.03,-0.01,-0.01,30.87
28462209,1665,1,192811,237499,0.00,-0.86,9.94,-0.03,-0.01,-0.00,30.87
28502191,1680,1,192874,237651,0.01,-0.85,9.96,-0.03,-0.01,-0.00,30.87
28542193,1693,1,192894,237803,-0.02,-0.84,9.94,-0.03,-0.01,-0.01,30.87
28582895,1687,1,193050,237889,-0.02,-0.85,9.97,-0.04,-0.01,-0.00,30.91
28621212,1712,1,193016,237957,-0.01,-0.85,9.96,-0.04,-0.02,-0.00,30.91
28661208,1729,1,193001,238018,0.01,-0.86,9.95,-0.04,-0.03,-0.00,30.91
28701196,1738,1,193029,238023,0.00,-0.86,9.93,-0.04,-0.02,-0.00,30.91
28741192,1771,1,193128,238058,0.01,-0.86,9.95,-0.03,-0.01,-0.01,30.91
28781196,1782,1,193078,238316,0.02,-0.86,9.94,-0.03,-0.01,-0.00,30.91
28821192,1795,1,193188,238311,-0.02,-0.84,9.95,-0.03,-0.01,-0.01,30.91
28861210,1798,1,193297,238362,0.02,-0.87,9.95,-0.04,-0.01,-0.00,30.91
28901193,1810,1,193071,237268,0.01,-0.86,9.96,-0.03,-0.01,-0.01,30.91
28941196,1829,1,192591,235887,0.02,-0.85,9.99,-0.04,-0.03,-0.00,30.91
28981193,1827,1,192241,235728,0.04,-0.86,9.93,-0.04,-0.02,-0.00,30.91
29021196,1835,1,192138,235720,0.03,-0.87,9.94,-0.03,-0.01,-0.01,30.91
29061192,1853,1,192226,235606,0.01,-0.85,9.96,-0.03,-0.01,-0.00,30.91
29101196,1859,1,192142,236024,0.02,-0.85,9.94,-0.03,-0.01,-0.00,30.91
29141193,1873,1,192550,236724,0.04,-0.87,9.95,-0.03,-0.01,-0.01,30.91
29181196,1868,1,192687,236768,0.03,-0.88,9.95,-0.03,-0.01,-0.01,30.91
29221196,1873,1,192601,237050,0.02,-0.84,9.96,-0.03,-0.01,-0.01,30.91
29261196,1867,1,192841,237175,0.04,-0.87,9.96,-0.03,-0.01,-0.01,30.91
29301196,1872,1,192825,237397,0.02,-0.85,9.93,-0.03,0.00,-0.01,30.91
29341175,1871,1,192862,237570,0.01,-0.87,9.96,-0.03,-0.01,-0.00,30.91
29381196,1873,1,193094,237915,-0.00,-0.86,9.94,-0.03,-0.01,-0.01,30.91
29421213,1888,1,193127,237966,0.02,-0.86,9.92,-0.03,-0.01,-0.01,30.91
29461218,1872,1,193160,238234,-0.00,-0.85,9.95,-0.03,-0.01,-0.00,30.91
29501210,1880,1,193219,238435,0.01,-0.87,9.96,-0.03,-0.01,-0.00,30.91
29541193,1881,1,193272,238490,0.02,-0.84,9.93,-0.03,-0.01,-0.01,30.91
29581196,1885,1,193238,238053,-0.01,-0.87,9.96,-0.03,-0.01,-0.00,30.91
29621895,1859,1,192718,236695,0.01,-0.87,9.96,-0.03,-0.01,-0.00,30.81
29662227,1871,1,192329,235616,0.00,-0.85,9.93,-0.03,-0.01,-0.01,30.81
29702191,1873,1,192061,235514,0.02,-0.85,9.93,-0.03,-0.01,-0.00,30.81
29742193,1884,1,192030,235641,0.00,-0.84,9.96,-0.03,-0.01,-0.00,30.81
29782190,1871,1,192172,235725,0.03,-0.85,9.94,-0.03,-0.01,-0.01,30.81
29822193,1876,1,192247,236389,0.00,-0.85,9.95,-0.03,-0.01,-0.00,30.81
29862208,1872,1,192511,236836,0.01,-0.85,9.95,-0.03,-0.01,-0.00,30.81
29902193,1885,1,192610,236997,0.00,-0.86,9.97,-0.04,-0.01,-0.01,30.81
29942191,1885,1,192629,237093,-0.00,-0.87,9.94,-0.03,-0.01,-0.01,30.81
29982209,1887,1,192720,237285,0.01,-0.84,9.94,-0.03,-0.01,-0.00,30.81
30022200,1891,1,192797,237710,-0.01,-0.85,9.95,-0.03,-0.01,-0.01,30.81
30062210,1902,1,192973,237981,-0.01,-0.86,9.95,-0.03,-0.01,-0.00,30.81
30102209,1914,1,192920,238159,0.02,-0.84,9.93,-0.03,-0.01,-0.00,30.81
30142193,1921,1,193078,238442,0.00,-0.85,9.93,-0.03,-0.01,-0.00,30.81
30182191,1906,1,193116,238634,-0.01,-0.87,9.97,-0.03,-0.01,-0.00,30.81
30222209,1919,1,193256,238858,-0.01,-0.86,9.94,-0.03,-0.01,-0.00,30.81
30262210,1920,1,193203,238253,0.01,-0.85,9.97,-0.03,-0.01,-0.01,30.81
30302193,1930,1,192756,237088,0.00,-0.85,9.95,-0.03,-0.01,-0.00,30.81
30342191,1934,1,192502,236963,-0.00,-0.86,9.93,-0.03,-0.01,-0.00,30.81
30382209,1934,1,192531,237262,-0.00,-0.88,9.95,-0.03,-0.01,-0.00,30.81
30422209,1936,1,192496,237420,0.02,-0.86,9.96,-0.03,-0.01,-0.00,30.81
30462193,1954,1,192648,237629,0.00,-0.87,9.94,-0.03,-0.01,-0.01,30.81
30502191,1958,1,192775,237943,-0.01,-0.88,9.96,-0.03,-0.01,-0.01,30.81
30542209,1974,1,192842,238105,-0.01,-0.85,9.93,-0.03,-0.01,-0.00,30.81
30582209,1970,1,192895,238287,0.00,-0.85,9.93,-0.03,-0.01,-0.00,30.81
30622878,1962,1,193034,238467,-0.01,-0.85,9.96,-0.03,-0.01,-0.00,30.71
30661209,1970,1,193029,238550,0.00,-0.84,9.97,-0.03,-0.01,-0.01,30.71
30701196,1968,1,193032,238620,0.00,-0.86,9.96,-0.03,-0.01,-0.00,30.71
30741193,1958,1,193103,238734,-0.00,-0.86,9.98,-0.03,-0.01,-0.00,30.71
30781210,1969,1,193185,238828,0.00,-0.87,9.92,-0.03,-0.01,-0.00,30.71
30821193,1965,1,193080,238788,-0.00,-0.86,9.96,-0.03,-0.01,-0.00,30.71
30861211,1968,1,193110,238868,0.01,-0.86,9.92,-0.03,-0.01,-0.00,30.71
30901193,1959,1,193131,238647,0.01,-0.85,9.94,-0.03,-0.01,-0.00,30.71
30941196,1962,1,192734,237287,0.00,-0.85,9.94,-0.03,-0.01,-0.01,30.71
30981191,1958,1,192298,236135,-0.01,-0.84,9.96,-0.03,-0.01,-0.00,30.71
31021209,1943,1,191837,235375,-0.02,-0.85,9.96,-0.03,-0.01,-0.00,30.71
31061209,1934,1,191641,234927,0.00,-0.86,9.93,-0.03,-0.01,-0.00,30.71
31101200,1936,1,191520,234541,-0.01,-0.83,9.96,-0.03,-0.01,-0.01,30.71
31141209,1925,1,191540,234728,-0.01,-0.83,9.97,-0.03,-0.01,-0.00,30.71
31181213,1918,1,191765,235244,-0.00,-0.85,9.93,-0.03,-0.01,-0.00,30.71
31221209,1920,1,191862,235441,-0.01,-0.85,9.95,-0.03,-0.01,-0.01,30.71
31261213,1923,1,191914,235568,0.00,-0.85,9.93,-0.03,-0.01,-0.01,30.71
31301224,1923,1,191967,235982,-0.02,-0.86,9.95,-0.03,-0.01,-0.01,30.71
31341209,1914,1,192215,236542,-0.00,-0.85,9.95,-0.03,-0.01,-0.01,30.71
31381209,1904,1,192376,237015,-0.00,-0.84,9.96,-0.03,-0.01,-0.00,30.71
31421209,1915,1,192565,237462,-0.01,-0.86,9.95,-0.03,-0.01,-0.01,30.71
31461209,1913,1,192741,237710,-0.02,-0.85,9.95,-0.03,-0.01,-0.00,30.71
31501228,1906,1,192729,237650,-0.01,-0.85,9.96,-0.03,-0.01,-0.01,30.71
31541209,1915,1,192825,237736,-0.01,-0.83,9.96,-0.03,-0.01,-0.00,30.71
31581211,1909,1,192786,237157,0.00,-0.85,9.97,-0.03,-0.01,-0.00,30.71
31621193,1895,1,192088,234550,-0.00,-0.87,9.94,-0.03,-0.01,-0.00,30.71
31661897,1882,1,191313,233095,0.02,-0.86,9.93,-0.03,-0.01,-0.01,30.87
31700192,1926,1,191250,233139,-0.00,-0.85,9.95,-0.03,-0.01,-0.01,30.87
31740210,1936,1,191194,233049,-0.00,-0.85,9.95,-0.03,-0.01,-0.00,30.87
31780208,1937,1,191197,232964,-0.02,-0.85,9.95,-0.03,-0.01,-0.00,30.87
31820211,1933,1,191276,233288,0.00,-0.85,9.96,-0.03,-0.01,-0.01,30.87
31860192,1935,1,191490,233693,0.01,-0.84,9.94,-0.03,-0.01,-0.00,30.87
31900196,1939,1,191611,234004,0.01,-0.85,9.90,-0.03,-0.01,-0.01,30.87
31940192,1936,1,191661,234377,0.02,-0.85,9.93,-0.04,-0.01,-0.01,30.87
31980196,1936,1,191729,234701,-0.00,-0.85,9.95,-0.03,-0.01,-0.00,30.87
32020208,1937,1,191943,234959,-0.00,-0.88,9.95,-0.03,-0.01,-0.00,30.87
32060210,1933,1,191941,235092,-0.00,-0.84,9.94,-0.03,-0.01,-0.00,30.87
32100208,1936,1,192093,235418,0.00,-0.84,9.97,-0.03,-0.01,-0.01,30.87
32140195,1934,1,192130,235726,-0.00,-0.85,9.96,-0.03,-0.01,-0.01,30.87
32180208,1930,1,192231,236039,-0.01,-0.87,9.96,-0.03,-0.01,-0.00,30.87
32220210,1929,1,192374,236211,-0.01,-0.86,9.94,-0.03,-0.01,-0.01,30.87
32260209,1920,1,192250,234640,0.01,-0.84,9.97,-0.03,-0.01,-0.00,30.87
32300195,1929,1,191279,232004,-0.01,-0.82,9.96,-0.03,-0.01,-0.01,30.87
32340208,1927,1,190857,231891,-0.01,-0.85,9.94,-0.03,-0.01,-0.01,30.87
32380210,1928,1,190954,232450,-0.02,-0.85,9.96,-0.03,-0.01,-0.00,30.87
32420208,1929,1,191152,232856,0.00,-0.86,9.94,-0.03,-0.01,-0.00,30.87
32460195,1930,1,191195,233575,0.00,-0.84,9.94,-0.03,-0.01,-0.00,30.87
32500192,1931,1,191698,234651,-0.02,-0.85,9.94,-0.03,-0.01,-0.01,30.87
32540213,1935,1,191865,234983,-0.01,-0.85,9.97,-0.03,-0.01,-0.01,30.87
32580209,1929,1,191987,235368,-0.00,-0.83,9.95,-0.04,-0.01,-0.01,30.87
32620210,1929,1,192216,235874,-0.01,-0.85,9.96,-0.03,-0.01,-0.01,30.87
32660208,1919,1,192268,236159,-0.00,-0.85,9.97,-0.04,-0.01,-0.01,30.87
32700896,1893,1,192382,236472,-0.02,-0.85,9.96,-0.03,-0.01,-0.01,30.97
32741209,1904,1,192496,236780,-0.01,-0.84,9.93,-0.03,-0.01,-0.01,30.97
32781209,1903,1,192575,237181,-0.02,-0.86,9.96,-0.03,-0.01,-0.00,30.97
32821209,1907,1,192653,237364,-0.01,-0.84,9.95,-0.03,-0.01,-0.00,30.97
32861209,1914,1,192782,237611,-0.01,-0.86,9.97,-0.03,-0.01,-0.01,30.97
32901209,1911,1,192646,236713,-0.02,-0.86,9.92,-0.03,-0.01,-0.01,30.97
32941231,1905,1,192113,235411,-0.01,-0.85,9.95,-0.03,-0.01,-0.01,30.97
32981209,1904,1,191823,235410,-0.01,-0.84,9.95,-0.03,-0.01,-0.00,30.97
33021209,1904,1,191903,235764,-0.01,-0.86,9.96,-0.03,-0.01,-0.00,30.97
33061209,1909,1,191953,235888,-0.00,-0.85,9.97,-0.03,-0.01,-0.00,30.97
33101209,1909,1,192009,236187,-0.01,-0.85,9.97,-0.03,-0.01,-0.00,30.97
33141231,1910,1,192219,236599,-0.02,-0.85,9.95,-0.03,-0.01,-0.00,30.97
33181209,1917,1,192373,236742,-0.00,-0.86,9.94,-0.03,-0.01,-0.00,30.97
33221209,1909,1,192385,236828,-0.02,-0.88,9.94,-0.03,-0.01,-0.00,30.97
33261209,1918,1,192382,236891,-0.02,-0.85,9.94,-0.03,-0.01,-0.01,30.97
33301209,1914,1,192481,237001,-0.00,-0.84,9.95,-0.03,-0.01,-0.01,30.97
33341209,1918,1,192538,237216,0.01,-0.85,9.95,-0.03,-0.01,-0.00,30.97
33381191,1920,1,192504,237338,-0.01,-0.86,9.96,-0.03,-0.01,-0.00,30.97
33421209,1910,1,192647,237471,-0.01,-0.85,9.99,-0.03,-0.01,-0.01,30.97
33461209,1916,1,192713,237673,-0.01,-0.85,9.94,-0.03,-0.01,-0.01,30.97
33501209,1916,1,192681,237737,-0.02,-0.84,9.95,-0.03,-0.01,-0.01,30.97
33541209,1918,1,192691,236916,-0.01,-0.85,9.93,-0.03,-0.01,-0.01,30.97
33581209,1914,1,191961,235066,-0.00,-0.85,9.94,-0.03,-0.01,-0.01,30.97
33621209,1904,1,191520,234783,-0.01,-0.87,9.94,-0.03,-0.01,-0.00,30.97
33661213,1902,1,191667,235045,-0.01,-0.86,9.95,-0.03,-0.01,-0.01,30.97
33701896,1898,1,191572,235092,-0.01,-0.85,9.94,-0.03,-0.01,-0.00,31.01
33740210,1921,1,191768,235547,-0.02,-0.84,9.93,-0.03,-0.01,-0.00,31.01
33780208,1920,1,191832,236133,-0.02,-0.86,9.95,-0.03,-0.01,-0.01,31.01
33820213,1919,1,192089,236407,0.00,-0.85,9.95,-0.03,-0.01,-0.01,31.01
33860192,1921,1,192118,236525,-0.03,-0.85,9.92,-0.03,-0.01,-0.01,31.01
33900210,1926,1,192201,236647,-0.02,-0.84,9.94,-0.03,-0.01,-0.00,31.01
33940208,1926,1,192255,236643,-0.00,-0.85,9.94,-0.03,-0.01,-0.00,31.01
33980210,1930,1,192313,236849,-0.01,-0.86,9.94,-0.03,-0.01,-0.00,31.01
34020209,1917,1,192339,236970,-0.01,-0.85,9.95,-0.03,-0.01,-0.01,31.01
34060213,1918,1,192439,237122,-0.03,-0.84,9.97,-0.03,-0.01,-0.01,31.01
34100209,1919,1,192477,237236,0.00,-0.85,9.95,-0.03,-0.01,-0.00,31.01
34140196,1919,1,192454,237236,-0.01,-0.86,9.92,-0.03,-0.01,-0.01,31.01
34180209,1919,1,192562,237149,-0.00,-0.85,9.96,-0.04,-0.01,-0.00,31.01
34220210,1913,1,192200,235133,-0.02,-0.86,9.95,-0.03,-0.01,-0.01,31.01
34260209,1916,1,191346,233685,-0.02,-0.84,9.92,-0.03,-0.01,-0.01,31.01
34300210,1915,1,191160,233525,-0.01,-0.86,9.95,-0.03,-0.01,-0.01,31.01
34340209,1914,1,191146,233442,0.01,-0.87,9.95,-0.03,-0.01,-0.01,31.01
34380195,1904,1,191153,233511,-0.02,-0.86,9.92,-0.03,-0.01,-0.00,31.01
34420208,1911,1,191232,234177,-0.00,-0.87,9.94,-0.03,-0.01,-0.01,31.01
34460210,1914,1,191539,234679,0.00,-0.86,9.95,-0.03,-0.01,-0.01,31.01
34500192,1904,1,191701,234928,-0.00,-0.86,9.95,-0.03,-0.01,-0.01,31.01
34540211,1909,1,191729,234971,0.00,-0.86,9.95,-0.03,-0.01,-0.00,31.01
34580236,1906,1,191795,235045,-0.00,-0.84,9.94,-0.03,-0.01,-0.00,31.01
34620210,1909,1,191768,235162,0.02,-0.85,9.93,-0.03,-0.01,-0.00,31.01
34660192,1904,1,191815,235318,-0.00,-0.83,9.94,-0.03,-0.01,-0.00,31.01
34700210,1905,1,191967,235543,-0.00,-0.85,9.96,-0.03,-0.01,-0.01,31.01
34740895,1894,1,192096,235850,-0.01,-0.85,9.93,-0.03,-0.01,-0.00,30.79
34781216,1892,1,192158,236059,-0.02,-0.85,9.94,-0.03,-0.01,-0.01,30.79
34821209,1901,1,192193,236189,-0.00,-0.85,9.96,-0.03,-0.01,-0.01,30.79
34861209,1899,1,192078,234725,0.00,-0.84,9.93,-0.03,-0.01,-0.00,30.79
34901190,1898,1,191210,231840,0.00,-0.85,9.94,-0.03,-0.01,-0.01,30.79
34941194,1891,1,190467,230970,0.00,-0.85,9.96,-0.03,-0.01,-0.00,30.79
34981190,1903,1,190410,230997,0.00,-0.84,9.94,-0.03,-0.01,-0.01,30.79
35021193,1907,1,190385,230822,-0.01,-0.86,9.94,-0.03,-0.01,-0.00,30.79
35061209,1904,1,190481,231584,0.00,-0.85,9.96,-0.03,-0.01,-0.00,30.79
35101193,1905,1,190910,232832,-0.00,-0.85,9.93,-0.03,-0.01,-0.01,30.79
35141209,1907,1,191158,233317,0.00,-0.85,9.96,-0.03,-0.01,-0.01,30.79
35181193,1903,1,191211,233461,0.02,-0.83,9.94,-0.03,-0.01,-0.00,30.79
35221191,1898,1,191349,233778,-0.01,-0.88,9.95,-0.03,-0.01,-0.01,30.79
35261209,1907,1,191482,234173,-0.01,-0.86,9.95,-0.03,-0.01,-0.00,30.79
35301209,1901,1,191620,234447,-0.01,-0.85,9.96,-0.03,-0.01,-0.00,30.79
35341209,1903,1,191751,234889,-0.00,-0.85,9.97,-0.03,-0.01,-0.01,30.79
35381210,1914,1,191921,235262,0.00,-0.84,9.95,-0.04,-0.01,-0.00,30.79
35421193,1910,1,191976,235420,-0.01,-0.84,9.96,-0.03,-0.01,-0.00,30.79
35461209,1907,1,192027,235634,-0.00,-0.85,9.95,-0.03,-0.01,-0.01,30.79
35501209,1918,1,191874,233976,-0.01,-0.85,9.97,-0.03,-0.01,-0.01,30.79
35541209,1904,1,190736,230861,-0.00,-0.83,9.94,-0.03,-0.01,-0.01,30.79
35581209,1907,1,190191,230470,-0.01,-0.85,9.95,-0.03,-0.01,-0.01,30.79
35621209,1920,1,190216,230612,-0.00,-0.84,9.95,-0.03,-0.01,-0.00,30.79
35661209,1909,1,190197,230586,-0.01,-0.85,9.96,-0.03,-0.01,-0.00,30.79
35701209,1904,1,190290,231324,0.01,-0.86,9.96,-0.03,-0.01,-0.00,30.79
35741880,1899,1,190779,232687,-0.01,-0.84,9.95,-0.03,-0.01,-0.01,30.79
35780209,1909,1,191046,233300,-0.01,-0.85,9.95,-0.03,-0.01,-0.01,30.79
35820211,1907,1,191243,233865,0.00,-0.86,9.97,-0.04,-0.01,-0.00,30.79
35860192,1916,1,191411,234400,0.00,-0.83,9.95,-0.03,-0.01,-0.01,30.79
35900195,1923,1,191631,234796,-0.02,-0.83,9.95,-0.03,-0.01,-0.01,30.79
35940209,1904,1,191701,235005,0.01,-0.85,9.94,-0.03,-0.01,-0.01,30.79
35980196,1904,1,191780,235391,0.00,-0.84,9.94,-0.03,-0.01,-0.01,30.79
36020233,1904,1,191938,235776,-0.03,-0.85,9.96,-0.03,-0.01,-0.01,30.79
36060213,1907,1,192128,236187,-0.01,-0.84,9.95,-0.03,-0.01,-0.00,30.79
36100209,1904,1,192247,236140,-0.01,-0.87,9.97,-0.03,-0.01,-0.00,30.79
36140213,1904,1,191839,234021,-0.03,-0.87,9.94,-0.03,-0.01,-0.00,30.79
36180208,1899,1,190805,231706,-0.01,-0.85,9.95,-0.03,-0.01,-0.01,30.79
36221216,1897,1,190476,231663,-0.02,-0.84,9.94,-0.03,-0.01,-0.00,30.79
36261210,1895,1,190562,231892,0.00,-0.84,9.96,-0.03,-0.01,-0.01,30.79
36301193,1904,1,190657,232312,0.02,-0.85,9.96,-0.03,-0.01,-0.00,30.79
36341191,1903,1,190890,233374,0.01,-0.85,9.96,-0.03,-0.01,-0.00,30.79
36381193,1904,1,191348,234570,-0.02,-0.86,9.93,-0.04,-0.01,-0.01,30.79
36421242,1909,1,191565,235126,-0.01,-0.83,9.93,-0.04,-0.01,-0.01,30.79
36461209,1904,1,191650,235175,-0.02,-0.85,9.95,-0.03,-0.01,-0.01,30.79
36501209,1905,1,191710,235173,-0.01,-0.85,9.94,-0.03,-0.01,-0.00,30.79
36541209,1898,1,191764,235474,-0.02,-0.84,9.94,-0.03,-0.01,-0.01,30.79
36581209,1904,1,191876,235856,0.00,-0.85,9.95,-0.03,-0.01,-0.01,30.79
36621207,1895,1,192008,236212,0.00,-0.84,9.96,-0.03,-0.01,-0.01,30.79
36661191,1899,1,192147,236471,-0.02,-0.86,9.96,-0.03,-0.01,-0.00,30.79
36701209,1899,1,192271,236694,-0.01,-0.86,9.96,-0.03,-0.01,-0.00,30.79
36741895,1893,1,192322,236868,-0.00,-0.85,9.96,-0.03,-0.01,-0.00,31.01
36780210,1901,1,192226,235589,-0.02,-0.85,9.97,-0.03,-0.01,-0.00,31.01
36820209,1903,1,191332,233125,-0.04,-0.84,9.97,-0.03,-0.01,-0.00,31.01
36860211,1891,1,190803,232560,-0.03,-0.85,9.97,-0.03,-0.01,-0.00,31.01
36900209,1903,1,190792,232641,-0.01,-0.86,9.95,-0.03,-0.01,-0.01,31.01
36940212,1897,1,190777,232811,-0.00,-0.85,9.97,-0.03,-0.01,-0.01,31.01
36980209,1901,1,190943,233306,-0.01,-0.87,9.95,-0.03,-0.01,-0.01,31.01
37020213,1904,1,191192,234119,-0.01,-0.87,9.93,-0.03,-0.01,-0.01,31.01
37060209,1891,1,191407,234537,-0.03,-0.85,9.95,-0.03,-0.01,-0.01,31.01
37100212,1904,1,191460,234576,-0.01,-0.86,9.95,-0.03,-0.01,-0.00,31.01
37140209,1904,1,191632,234805,-0.01,-0.87,9.94,-0.03,-0.01,-0.00,31.01
37180211,1904,1,191650,235068,0.01,-0.83,9.95,-0.03,-0.01,-0.01,31.01
37220193,1909,1,191742,235331,-0.01,-0.86,9.96,-0.03,-0.01,-0.01,31.01
37259210,1937,1,191922,235636,-0.02,-0.85,9.95,-0.03,-0.01,-0.00,31.01
37299209,1939,1,192074,236044,0.00,-0.85,9.95,-0.03,-0.01,-0.01,31.01
37339195,1941,1,192166,236202,-0.02,-0.86,9.96,-0.03,-0.01,-0.01,31.01
37379208,1949,1,192278,236459,-0.02,-0.84,9.93,-0.03,-0.01,-0.00,31.01
37419212,1949,1,192326,236434,-0.01,-0.85,9.95,-0.03,-0.01,-0.01,31.01
37459208,1943,1,192269,235283,0.00,-0.83,9.94,-0.03,-0.01,-0.01,31.01
37499195,1947,1,191378,233106,-0.01,-0.84,9.96,-0.03,-0.01,-0.00,31.01
37539208,1936,1,190915,232748,-0.02,-0.85,9.94,-0.03,-0.01,-0.01,31.01
37579210,1934,1,190930,232996,-0.03,-0.83,9.93,-0.03,-0.01,-0.01,31.01
37619208,1925,1,191017,233029,0.01,-0.85,9.91,-0.03,-0.01,-0.00,31.01
37659195,1936,1,191046,233410,-0.03,-0.85,9.96,-0.03,-0.01,-0.00,31.01
37699209,1936,1,191287,234358,0.01,-0.84,9.97,-0.03,-0.01,-0.00,31.01
37739195,1938,1,191535,234830,0.01,-0.86,9.96,-0.03,-0.01,-0.01,31.01
37779879,1904,1,191619,234927,0.00,-0.85,9.97,-0.03,-0.01,-0.01,30.85
37820193,1907,1,191679,235118,-0.01,-0.85,9.97,-0.03,-0.01,-0.00,30.85
37860209,1904,1,191752,235433,0.00,-0.86,9.95,-0.03,-0.01,-0.00,30.85
37900192,1918,1,191825,235719,-0.03,-0.86,9.94,-0.03,-0.01,-0.00,30.85
37940209,1905,1,191943,235801,0.00,-0.86,9.96,-0.03,-0.01,-0.00,30.85
37980193,1907,1,191981,235696,0.01,-0.86,9.92,-0.03,-0.01,-0.01,30.85
38020191,1904,1,191938,235673,0.01,-0.83,9.94,-0.03,-0.01,-0.00,30.85
38060193,1904,1,191971,235584,-0.00,-0.84,9.96,-0.03,-0.01,-0.00,30.85
38100209,1906,1,191931,235478,0.00,-0.85,9.97,-0.03,-0.01,-0.01,30.85
38140193,1904,1,191887,235181,-0.00,-0.85,9.94,-0.03,-0.02,-0.00,30.85
38180209,1905,1,191664,232825,0.00,-0.84,9.97,-0.03,-0.02,-0.00,30.85
38220192,1909,1,190143,228678,0.00,-0.85,9.96,-0.03,-0.01,-0.01,30.85
38260190,1899,1,189372,228033,-0.01,-0.85,9.96,-0.04,-0.01,-0.01,30.85
38300209,1903,1,189405,228438,0.00,-0.85,9.98,-0.04,-0.01,-0.01,30.85
38340191,1904,1,189593,229003,-0.00,-0.85,9.93,-0.03,-0.01,-0.00,30.85
38380209,1903,1,189850,230016,0.00,-0.85,9.96,-0.03,-0.01,-0.01,30.85
38420191,1898,1,190360,231484,0.00,-0.86,9.95,-0.04,-0.01,-0.01,30.85
38460193,1899,1,190702,232029,0.00,-0.85,9.94,-0.03,-0.01,-0.00,30.85
38500191,1897,1,190776,232237,0.00,-0.84,9.95,-0.03,-0.01,-0.00,30.85
38540192,1889,1,190847,232490,-0.01,-0.85,9.95,-0.03,-0.01,-0.01,30.85
38580209,1901,1,190954,232802,0.01,-0.86,9.94,-0.03,-0.01,-0.01,30.85
38620193,1901,1,191068,233033,-0.01,-0.84,9.94,-0.03,-0.01,-0.01,30.85
38660209,1891,1,191145,233319,0.00,-0.83,9.94,-0.03,-0.01,-0.01,30.85
38700192,1904,1,191286,233791,-0.01,-0.85,9.94,-0.03,-0.01,-0.00,30.85
38740209,1903,1,191406,234188,0.02,-0.86,9.96,-0.03,-0.01,-0.01,30.85
38780879,1890,1,191586,234561,-0.00,-0.85,9.96,-0.03,-0.01,-0.00,30.81
38819208,1917,1,191625,234816,0.01,-0.85,9.94,-0.03,-0.01,-0.01,30.81
38859195,1905,1,191475,233105,0.00,-0.85,9.98,-0.04,-0.01,-0.01,30.81
38899196,1913,1,190623,231300,-0.01,-0.85,9.98,-0.04,-0.00,-0.01,30.81
38939210,1917,1,190370,231377,-0.02,-0.84,9.96,-0.03,-0.01,-0.00,30.81
38979209,1919,1,190414,231487,-0.01,-0.85,9.95,-0.03,-0.01,-0.00,30.81
39019210,1921,1,190413,231258,-0.01,-0.86,9.96,-0.03,-0.01,-0.00,30.81
39059209,1920,1,190361,231606,-0.00,-0.84,9.93,-0.03,-0.01,-0.00,30.81
39099212,1915,1,190634,232329,0.00,-0.85,9.95,-0.03,-0.01,-0.01,30.81
39139195,1920,1,190810,232670,0.00,-0.84,9.96,-0.03,-0.01,-0.01,30.81
39179195,1921,1,190959,233130,0.01,-0.84,9.92,-0.03,-0.01,-0.00,30.81
39219193,1920,1,191024,233154,-0.01,-0.84,9.96,-0.03,-0.01,-0.00,30.81
39259210,1919,1,191077,233251,0.00,-0.84,9.97,-0.03,-0.01,-0.00,30.81
39299192,1916,1,191135,233479,-0.00,-0.84,9.96,-0.03,-0.01,-0.01,30.81
39339210,1925,1,191277,234086,0.01,-0.85,9.96,-0.04,-0.01,-0.01,30.81
39379195,1920,1,191536,234749,0.00,-0.85,9.95,-0.04,-0.01,-0.00,30.81
39419195,1910,1,191733,235274,-0.00,-0.84,9.94,-0.03,-0.01,-0.00,30.81
39459208,1911,1,191852,235477,0.00,-0.86,9.94,-0.03,-0.01,-0.01,30.81
39499196,1919,1,191869,234714,0.01,-0.84,9.95,-0.03,-0.01,-0.01,30.81
39539196,1914,1,191111,232155,0.02,-0.85,9.94,-0.03,-0.01,-0.01,30.81
39579196,1913,1,190392,231135,-0.00,-0.86,9.97,-0.03,-0.01,-0.01,30.81
39619209,1914,1,190370,231346,0.00,-0.86,9.96,-0.03,-0.01,-0.01,30.81
39659196,1905,1,190425,231459,-0.01,-0.83,9.94,-0.03,-0.01,-0.01,30.81
39699211,1914,1,190476,231578,-0.00,-0.83,9.96,-0.03,-0.01,-0.00,30.81
39739210,1915,1,190615,232260,-0.03,-0.82,9.96,-0.03,-0.01,-0.00,30.81
39779208,1911,1,190886,232789,-0.00,-0.85,9.94,-0.03,-0.01,-0.01,30.81
39819897,1901,1,191049,232950,-0.00,-0.83,9.96,-0.03,-0.01,-0.01,30.87
39860209,1908,1,191086,233102,-0.02,-0.85,9.93,-0.03,-0.01,-0.01,30.87
39900250,1899,1,191175,233426,0.01,-0.86,9.94,-0.03,-0.01,-0.00,30.87
39940191,1904,1,191362,233877,-0.02,-0.84,9.96,-0.03,-0.01,-0.01,30.87
39980209,1902,1,191466,233920,-0.02,-0.86,9.94,-0.03,-0.01,-0.00,30.87
40020209,1901,1,191566,234258,0.00,-0.84,9.96,-0.03,-0.01,-0.00,30.87
40060192,1904,1,191672,234649,0.01,-0.85,9.97,-0.03,-0.01,-0.00,30.87
40100191,1906,1,191773,234984,0.00,-0.85,9.95,-0.03,-0.01,-0.00,30.87
40140192,1905,1,191891,235251,0.00,-0.83,9.93,-0.03,-0.01,-0.01,30.87
40180191,1905,1,191808,233962,-0.04,-0.85,9.93,-0.03,-0.01,-0.00,30.87
40220209,1889,1,190821,230784,0.01,-0.84,9.95,-0.03,-0.01,-0.00,30.87
40260191,1902,1,190070,229886,0.00,-0.85,9.94,-0.03,-0.01,-0.00,30.87
40300193,1902,1,190031,229825,-0.00,-0.85,9.95,-0.03,-0.01,-0.01,30.87
40339209,1904,1,190020,230135,-0.00,-0.86,9.97,-0.03,-0.01,-0.01,30.87
40379210,1909,1,190174,230688,-0.02,-0.83,9.95,-0.03,-0.01,-0.01,30.87
40419209,1905,1,190388,231668,0.00,-0.83,9.96,-0.03,-0.02,-0.00,30.87
40459196,1915,1,190986,233822,0.03,-0.85,9.88,-0.04,-0.00,-0.01,30.87
40499193,1911,1,191477,234632,-0.03,-0.84,9.99,-0.03,-0.01,-0.01,30.87
40539210,1911,1,191741,235329,0.01,-0.84,9.96,-0.03,-0.01,-0.01,30.87
40579196,1909,1,191859,235261,-0.01,-0.87,10.02,-0.03,-0.01,-0.01,30.87
40619209,1918,1,191723,234482,-0.04,-0.86,9.96,-0.03,-0.02,-0.00,30.87
40659209,1904,1,191486,233927,0.02,-0.85,9.90,-0.03,-0.02,-0.00,30.87
40699196,1904,1,191498,234389,0.03,-0.84,9.93,-0.04,0.00,-0.01,30.87
40739174,1888,1,191727,235368,-0.00,-0.84,9.96,-0.04,0.01,-0.01,30.87
40779195,1900,1,192021,236161,-0.01,-0.87,9.97,-0.04,-0.00,-0.01,30.87
40819208,1904,1,192269,236666,-0.02,-0.85,9.97,-0.04,-0.01,-0.01,30.87
40859895,1888,1,192207,235687,-0.01,-0.87,9.95,-0.03,-0.01,-0.00,30.81
40900209,1893,1,191347,233705,-0.02,-0.84,9.95,-0.03,-0.01,-0.00,30.81
40940209,1891,1,191020,233925,-0.01,-0.86,9.97,-0.03,-0.01,-0.01,30.81
40980209,1883,1,191251,234724,-0.02,-0.84,9.97,-0.04,-0.02,-0.01,30.81
41020209,1887,1,191498,235390,-0.03,-0.85,9.94,-0.04,-0.01,-0.01,30.81
41060209,1886,1,191671,235827,-0.01,-0.86,9.96,-0.03,-0.01,-0.00,30.81
41100209,1893,1,191844,236525,-0.05,-0.84,9.98,-0.03,-0.01,-0.00,30.81
41140209,1899,1,192114,237048,-0.01,-0.83,10.01,-0.04,-0.02,-0.00,30.81
41180209,1888,1,192307,237662,0.01,-0.85,9.92,-0.04,-0.05,-0.00,30.81
41220191,1893,1,192659,238320,0.03,-0.89,9.98,-0.04,-0.02,-0.01,30.81
41260193,1891,1,192837,238830,0.02,-0.86,9.97,-0.04,-0.03,-0.01,30.81
41300191,1894,1,192913,239048,0.02,-0.86,9.97,-0.04,-0.01,-0.01,30.81
41340203,1905,1,192968,238884,0.03,-0.87,9.96,-0.03,-0.01,-0.00,30.81
41380191,1904,1,192841,238754,0.03,-0.86,9.95,-0.03,-0.01,-0.00,30.81
41420193,1909,1,192906,239062,0.02,-0.87,9.98,-0.03,-0.01,-0.00,30.81
41460191,1905,1,192963,239198,0.03,-0.88,9.98,-0.03,-0.01,-0.00,30.81
41500193,1915,1,192971,239271,0.03,-0.89,9.94,-0.03,-0.01,-0.00,30.81
41540231,1907,1,192938,238762,0.03,-0.85,9.97,-0.03,-0.00,-0.01,30.81
41580193,1909,1,192382,236896,0.05,-0.86,9.95,-0.03,-0.01,-0.00,30.81
41620191,1906,1,191815,235402,0.04,-0.84,9.94,-0.03,-0.01,-0.00,30.81
41660193,1907,1,191357,234907,0.02,-0.85,9.95,-0.03,-0.01,-0.00,30.81
41700191,1896,1,191346,234584,0.02,-0.87,9.95,-0.03,-0.01,-0.00,30.81
41740209,1901,1,191291,234347,0.02,-0.86,9.95,-0.03,-0.01,-0.00,30.81
41780190,1917,1,191349,234508,0.02,-0.85,9.93,-0.03,-0.01,-0.00,30.81
41820193,1919,1,191490,234434,0.03,-0.84,9.95,-0.03,-0.01,-0.00,30.81
41860877,1904,1,191477,234126,0.02,-0.86,9.93,-0.03,-0.01,-0.00,30.79
41899193,1919,1,191505,234097,0.02,-0.85,9.93,-0.03,-0.01,-0.01,30.79
41939193,1922,1,191581,234311,0.04,-0.86,9.96,-0.03,-0.01,-0.01,30.79
41979196,1920,1,191742,234635,0.05,-0.86,9.95,-0.03,-0.01,-0.00,30.79
42019191,1920,1,191849,235009,0.03,-0.86,9.96,-0.03,-0.01,-0.01,30.79
42059196,1920,1,191958,235347,0.03,-0.85,9.94,-0.03,-0.01,-0.01,30.79
42099196,1917,1,192117,235786,0.02,-0.84,9.95,-0.03,-0.01,-0.01,30.79
42139196,1914,1,192229,236173,0.01,-0.83,9.94,-0.04,-0.00,-0.00,30.79
42179191,1911,1,192334,236522,0.01,-0.86,9.95,-0.03,-0.01,-0.00,30.79
42219193,1919,1,192301,235495,0.01,-0.86,9.95,-0.03,-0.01,-0.01,30.79
42259191,1910,1,191514,232899,0.01,-0.85,9.95,-0.03,-0.01,-0.01,30.79
42299196,1915,1,190865,232030,0.00,-0.83,9.94,-0.03,-0.01,-0.01,30.79
42339196,1904,1,190829,232361,-0.00,-0.85,9.97,-0.03,-0.01,-0.00,30.79
42379230,1894,1,190896,232593,0.02,-0.85,9.95,-0.03,-0.01,-0.00,30.79
42419193,1908,1,191020,233233,0.02,-0.85,9.94,-0.03,-0.01,-0.01,30.79
42459197,1904,1,191315,234009,0.01,-0.82,9.95,-0.04,-0.01,-0.00,30.79
42499193,1903,1,191437,234205,0.02,-0.84,9.96,-0.03,-0.01,-0.00,30.79
42539193,1898,1,191516,234294,0.01,-0.85,9.94,-0.03,-0.01,-0.01,30.79
42579191,1899,1,191627,234549,0.01,-0.85,9.93,-0.03,-0.01,-0.01,30.79
42619193,1906,1,191663,234712,-0.00,-0.85,9.97,-0.03,-0.01,-0.00,30.79
42659209,1900,1,191790,235059,0.02,-0.85,9.96,-0.03,-0.01,-0.01,30.79
42699193,1904,1,191891,235481,0.00,-0.83,9.94,-0.03,-0.01,-0.01,30.79
42739191,1901,1,192034,235943,0.01,-0.86,9.95,-0.04,-0.01,-0.01,30.79
42779196,1904,1,192188,236409,0.02,-0.85,9.95,-0.03,-0.01,-0.01,30.79
42819191,1900,1,192360,236729,0.01,-0.85,9.97,-0.03,-0.01,-0.00,30.79
42859193,1906,1,192384,236017,0.01,-0.83,9.95,-0.03,-0.01,-0.00,30.79
42899877,1893,1,191671,233843,0.01,-0.85,9.95,-0.03,-0.01,-0.00,30.87
42938195,1940,1,191126,233106,0.02,-0.85,9.94,-0.03,-0.01,-0.00,30.87
42978212,1943,1,191099,233145,0.01,-0.85,9.95,-0.03,-0.01,-0.01,30.87
43018195,1936,1,191057,232748,0.00,-0.85,9.94,-0.03,-0.01,-0.00,30.87
43058192,1933,1,190878,232550,0.01,-0.84,9.94,-0.03,-0.02,-0.00,30.87
43098195,1936,1,191065,233592,-0.00,-0.85,9.94,-0.03,-0.01,-0.01,30.87
43138208,1937,1,191396,234380,0.01,-0.85,9.96,-0.04,-0.01,-0.01,30.87
43178216,1930,1,191604,234776,0.01,-0.85,9.95,-0.04,-0.01,-0.00,30.87
43218192,1927,1,191650,234912,-0.00,-0.86,9.98,-0.03,-0.01,-0.01,30.87
43258210,1920,1,191763,235228,-0.00,-0.85,9.95,-0.03,-0.01,-0.00,30.87
43298208,1933,1,191839,235452,-0.01,-0.85,9.95,-0.03,-0.01,-0.01,30.87
43338212,1927,1,191891,235609,-0.01,-0.86,9.95,-0.03,-0.01,-0.01,30.87
43378226,1930,1,191970,235823,-0.00,-0.86,9.97,-0.03,-0.01,-0.00,30.87
43418210,1931,1,192019,235941,0.01,-0.85,9.94,-0.03,-0.01,-0.00,30.87
43458192,1936,1,192113,236326,0.01,-0.84,9.96,-0.03,-0.01,-0.01,30.87
43498195,1936,1,192195,235891,-0.00,-0.85,9.97,-0.03,-0.01,-0.00,30.87
43538208,1931,1,191451,232917,0.00,-0.85,9.93,-0.03,-0.01,-0.00,30.87
43578195,1936,1,190556,231276,0.02,-0.84,9.95,-0.03,-0.01,-0.00,30.87
43618192,1934,1,190354,231165,0.01,-0.85,9.94,-0.03,-0.01,-0.00,30.87
43658195,1934,1,190420,231168,0.02,-0.85,9.97,-0.03,-0.01,-0.00,30.87
43698192,1931,1,190443,231299,-0.00,-0.86,9.94,-0.03,-0.01,-0.00,30.87
43738210,1930,1,190630,232290,0.00,-0.84,9.93,-0.03,-0.01,-0.00,30.87
43778192,1936,1,190997,233111,0.02,-0.84,9.96,-0.03,-0.01,-0.01,30.87
43818196,1936,1,191199,233567,0.02,-0.84,9.97,-0.03,-0.01,-0.00,30.87
43858192,1929,1,191251,233940,0.01,-0.85,9.96,-0.03,-0.01,-0.00,30.87
43898195,1927,1,191321,234344,0.00,-0.85,9.94,-0.03,-0.01,-0.01,30.87
43938878,1904,1,191510,234747,0.00,-0.86,9.96,-0.03,-0.01,-0.00,30.97
43979192,1918,1,191641,235089,-0.01,-0.85,9.94,-0.03,-0.01,-0.01,30.97
44019209,1909,1,191764,235449,0.02,-0.84,9.93,-0.03,-0.01,-0.00,30.97
44059192,1915,1,191813,235734,0.01,-0.85,9.95,-0.03,-0.01,-0.00,30.97
44099191,1904,1,191934,236036,0.01,-0.85,9.96,-0.03,-0.01,-0.01,30.97
44139193,1907,1,192056,236224,0.00,-0.84,9.95,-0.03,-0.01,-0.00,30.97
44179191,1915,1,191906,234782,0.01,-0.85,9.96,-0.03,-0.01,-0.01,30.97
44219193,1908,1,191046,232129,0.01,-0.85,9.96,-0.03,-0.01,-0.00,30.97
44259190,1915,1,190471,231521,0.00,-0.84,9.94,-0.03,-0.01,-0.01,30.97
44299192,1913,1,190499,231895,0.02,-0.85,9.96,-0.03,-0.01,-0.00,30.97
44339190,1905,1,190577,232250,0.00,-0.84,9.96,-0.03,-0.01,-0.00,30.97
44379192,1901,1,190861,233414,-0.01,-0.83,9.93,-0.04,-0.01,-0.01,30.97
44419208,1905,1,191207,234469,-0.02,-0.84,9.95,-0.03,-0.01,-0.01,30.97
44459209,1904,1,191479,234901,0.01,-0.85,9.95,-0.03,-0.01,-0.01,30.97
44499191,1891,1,191548,235137,0.00,-0.85,9.92,-0.03,-0.01,-0.01,30.97
44539193,1892,1,191595,235223,0.00,-0.84,9.96,-0.03,-0.01,-0.00,30.97
44579191,1897,1,191643,235335,0.01,-0.83,9.98,-0.03,-0.01,-0.00,30.97
44619193,1897,1,191675,235352,0.00,-0.84,9.95,-0.03,-0.01,-0.01,30.97
44659191,1900,1,191694,235575,0.01,-0.85,9.95,-0.03,-0.01,-0.01,30.97
44699193,1904,1,191798,235855,0.02,-0.85,9.97,-0.03,-0.01,-0.01,30.97
44739191,1904,1,191894,236120,0.01,-0.85,9.94,-0.03,-0.01,-0.01,30.97
44779193,1915,1,192042,236496,0.00,-0.85,9.97,-0.04,-0.01,-0.01,30.97
44819194,1899,1,192094,236740,0.01,-0.84,9.93,-0.03,-0.01,-0.01,30.97
44859193,1904,1,192165,236048,0.01,-0.86,9.95,-0.03,-0.01,-0.00,30.97
44899190,1904,1,191347,233332,-0.00,-0.85,9.96,-0.03,-0.01,-0.01,30.97
44939895,1891,1,190572,231877,0.02,-0.84,9.98,-0.03,-0.01,-0.00,30.71
44978192,1917,1,190366,231684,0.02,-0.84,9.93,-0.03,-0.01,-0.00,30.71
45018195,1913,1,190419,231961,-0.01,-0.85,9.97,-0.03,-0.01,-0.00,30.71
45058209,1915,1,190492,232212,0.02,-0.85,9.98,-0.03,-0.01,-0.00,30.71
45098195,1919,1,190719,233129,0.01,-0.84,9.92,-0.03,-0.01,-0.01,30.71
45138195,1921,1,190985,233879,0.01,-0.84,9.93,-0.03,-0.01,-0.00,30.71
45178195,1915,1,191213,234337,-0.00,-0.84,9.98,-0.03,-0.01,-0.01,30.71
45218208,1913,1,191375,234718,0.02,-0.87,9.94,-0.03,-0.01,-0.01,30.71
45258195,1919,1,191405,234908,0.00,-0.86,9.96,-0.03,-0.01,-0.01,30.71
45298193,1914,1,191507,235184,0.01,-0.84,9.97,-0.03,-0.01,-0.00,30.71
45338195,1906,1,191604,235526,0.02,-0.83,9.97,-0.03,-0.01,-0.01,30.71
45378195,1904,1,191674,235741,0.01,-0.86,9.94,-0.03,-0.01,-0.00,30.71
45418192,1919,1,191818,236056,-0.02,-0.84,9.93,-0.03,-0.01,-0.00,30.71
45458208,1914,1,191973,236445,0.00,-0.84,9.95,-0.03,-0.01,-0.01,30.71
45498192,1913,1,192137,236750,0.00,-0.82,9.92,-0.03,-0.01,-0.01,30.71
45538190,1914,1,192203,236913,-0.01,-0.85,9.94,-0.03,-0.01,-0.00,30.71
45578208,1904,1,191973,235024,-0.00,-0.83,9.97,-0.03,-0.01,-0.00,30.71
45618208,1906,1,191113,233152,0.00,-0.82,9.95,-0.03,-0.01,-0.00,30.71
45658196,1918,1,190799,233124,-0.00,-0.85,9.95,-0.03,-0.01,-0.01,30.71
45698208,1910,1,190941,233376,0.02,-0.86,9.96,-0.03,-0.01,-0.00,30.71
45738196,1915,1,190932,233304,0.02,-0.85,9.96,-0.03,-0.01,-0.01,30.71
45778196,1913,1,191016,233805,0.01,-0.85,9.91,-0.03,-0.01,-0.00,30.71
45818195,1910,1,191341,234571,0.02,-0.85,9.96,-0.03,-0.01,-0.00,30.71
45858192,1905,1,191469,234826,0.02,-0.85,9.95,-0.03,-0.01,-0.00,30.71
45898195,1917,1,191474,234933,0.01,-0.85,9.96,-0.03,-0.01,-0.01,30.71
45938191,1907,1,191605,235080,0.00,-0.84,9.94,-0.03,-0.01,-0.00,30.71
45978882,1897,1,191661,235204,0.00,-0.85,9.95,-0.03,-0.01,-0.00,30.65
46019190,1905,1,191707,235413,0.02,-0.84,9.97,-0.03,-0.01,-0.01,30.65
46059193,1904,1,191774,235563,0.01,-0.85,9.92,-0.03,-0.01,-0.00,30.65
46099191,1906,1,191849,235723,0.02,-0.84,9.96,-0.03,-0.01,-0.01,30.65
46139193,1911,1,191885,235831,0.02,-0.85,9.96,-0.03,-0.01,-0.01,30.65
46179190,1913,1,191896,235970,-0.01,-0.85,9.96,-0.03,-0.01,-0.01,30.65
46219209,1904,1,192002,236152,0.01,-0.85,9.95,-0.03,-0.01,-0.01,30.65
46259191,1909,1,192029,235749,0.02,-0.85,9.97,-0.03,-0.01,-0.01,30.65
46299193,1894,1,191335,232724,0.01,-0.84,9.96,-0.03,-0.01,-0.00,30.65
46339190,1906,1,190373,230876,0.01,-0.85,9.93,-0.03,-0.01,-0.00,30.65
46379192,1904,1,190210,231029,0.00,-0.85,9.96,-0.03,-0.01,-0.00,30.65
46419190,1901,1,190337,231375,0.02,-0.84,9.94,-0.03,-0.01,-0.01,30.65
46459230,1904,1,190476,231979,0.01,-0.83,9.93,-0.03,-0.01,-0.01,30.65
46499191,1900,1,190815,233038,0.03,-0.86,9.95,-0.03,-0.01,-0.01,30.65
46539193,1904,1,191118,233541,0.00,-0.85,9.95,-0.03,-0.01,-0.01,30.65
46579191,1908,1,191224,233820,0.02,-0.83,9.96,-0.03,-0.01,-0.00,30.65
46619192,1905,1,191265,234111,0.01,-0.85,9.96,-0.03,-0.01,-0.01,30.65
46659196,1905,1,191402,234498,0.01,-0.85,9.94,-0.03,-0.01,-0.01,30.65
46699193,1907,1,191542,234995,-0.01,-0.84,9.94,-0.03,-0.01,-0.00,30.65
46739209,1904,1,191641,235326,0.00,-0.84,9.96,-0.03,-0.01,-0.01,30.65
46779192,1907,1,191750,235572,0.01,-0.84,9.98,-0.03,-0.01,-0.01,30.65
46819191,1908,1,191806,235778,0.01,-0.84,9.95,-0.03,-0.01,-0.01,30.65
46859193,1905,1,191876,236055,0.02,-0.85,9.93,-0.03,-0.01,-0.01,30.65
46899191,1907,1,191957,236226,0.00,-0.84,9.96,-0.03,-0.01,-0.00,30.65
46939192,1904,1,191769,234605,0.02,-0.84,9.96,-0.03,-0.01,-0.01,30.65
46979877,1891,1,190865,231982,0.02,-0.86,9.95,-0.03,-0.01,-0.00,30.65
47018192,1915,1,190337,231289,0.02,-0.83,9.95,-0.03,-0.01,-0.01,30.65
47058191,1911,1,190281,231436,0.00,-0.85,9.96,-0.03,-0.01,-0.01,30.65
47098196,1917,1,190387,231669,0.03,-0.85,9.94,-0.03,-0.01,-0.00,30.65
47138190,1904,1,190547,232500,0.01,-0.84,9.95,-0.03,-0.01,-0.00,30.65
47178193,1895,1,190852,233298,0.01,-0.85,9.95,-0.03,-0.01,-0.01,30.65
47218191,1905,1,190951,233314,0.01,-0.85,9.96,-0.03,-0.01,-0.00,30.65
47258193,1909,1,191009,233343,0.01,-0.85,9.96,-0.03,-0.01,-0.00,30.65
47298190,1907,1,191062,233743,0.01,-0.85,9.95,-0.03,-0.01,-0.01,30.65
47338193,1909,1,191288,234406,0.02,-0.83,9.95,-0.04,-0.01,-0.01,30.65
47378191,1904,1,191432,234898,0.02,-0.85,9.97,-0.03,-0.01,-0.01,30.65
47418193,1914,1,191566,235361,0.02,-0.86,9.95,-0.03,-0.01,-0.01,30.65
47458191,1915,1,191735,235837,-0.01,-0.86,9.97,-0.03,-0.01,-0.01,30.65
47498209,1918,1,191894,236184,0.00,-0.83,9.97,-0.03,-0.01,-0.01,30.65
47538190,1913,1,191962,236411,0.01,-0.85,9.95,-0.03,-0.01,-0.01,30.65
47578193,1905,1,191869,235082,0.03,-0.87,9.97,-0.03,-0.01,-0.00,30.65
47618190,1908,1,190986,232785,0.00,-0.84,9.95,-0.03,-0.01,-0.01,30.65
47658193,1910,1,190541,232528,0.01,-0.86,9.94,-0.03,-0.01,-0.00,30.65
47698195,1904,1,190662,232827,-0.00,-0.85,9.96,-0.03,-0.01,-0.00,30.65
47738208,1904,1,190721,233123,0.00,-0.83,9.96,-0.03,-0.01,-0.00,30.65
47778190,1901,1,190853,233794,0.00,-0.83,9.92,-0.03,-0.01,-0.01,30.65
47818192,1907,1,191188,234774,0.01,-0.85,9.96,-0.04,-0.01,-0.00,30.65
47858190,1908,1,191454,235238,-0.01,-0.88,9.97,-0.03,-0.01,-0.01,30.65
47898208,1915,1,191538,235402,-0.00,-0.84,9.98,-0.03,-0.01,-0.00,30.65
47938209,1914,1,191605,235580,0.01,-0.86,9.97,-0.03,-0.01,-0.01,30.65
47978193,1907,1,191638,235736,0.01,-0.86,9.94,-0.03,-0.01,-0.01,30.65
48018877,1899,1,191778,236049,-0.00,-0.84,9.95,-0.03,-0.01,-0.01,30.79
48057210,1949,1,191861,236277,0.01,-0.86,9.98,-0.03,-0.01,-0.00,30.79
48097238,1947,1,191973,236602,0.01,-0.84,9.95,-0.03,-0.01,-0.00,30.79
48137195,1951,1,192092,236814,0.02,-0.85,9.97,-0.03,-0.01,-0.01,30.79
48177192,1950,1,192178,236987,0.01,-0.85,9.93,-0.03,-0.01,-0.00,30.79
48217195,1946,1,192195,236108,0.00,-0.85,9.94,-0.03,-0.01,-0.00,30.79
48257191,1939,1,191370,233525,-0.00,-0.85,9.95,-0.03,-0.01,-0.00,30.79
48297249,1935,1,190700,232380,0.01,-0.86,9.95,-0.03,-0.01,-0.00,30.79
48337192,1945,1,190655,232478,0.00,-0.86,9.95,-0.03,-0.01,-0.00,30.79
48377195,1945,1,190697,232649,0.00,-0.85,9.94,-0.03,-0.01,-0.00,30.79
48417191,1938,1,190816,233148,0.01,-0.85,9.94,-0.03,-0.01,-0.01,30.79
48457195,1937,1,191066,234136,-0.01,-0.85,9.96,-0.03,-0.01,-0.00,30.79
48497209,1942,1,191367,234636,0.02,-0.84,9.97,-0.03,-0.01,-0.01,30.79
48537195,1941,1,191469,234905,0.01,-0.87,9.93,-0.03,-0.01,-0.01,30.79
48577192,1938,1,191542,235320,-0.00,-0.86,9.93,-0.03,-0.01,-0.01,30.79
48617210,1941,1,191653,235674,0.01,-0.84,9.96,-0.04,-0.01,-0.01,30.79
48657195,1940,1,191787,236010,-0.00,-0.84,9.96,-0.03,-0.01,-0.01,30.79
48697210,1938,1,191886,236328,-0.00,-0.86,9.95,-0.03,-0.01,-0.00,30.79
48737208,1936,1,192010,236683,0.01,-0.85,9.94,-0.03,-0.01,-0.01,30.79
48777195,1931,1,192121,237056,0.01,-0.83,9.97,-0.03,-0.01,-0.01,30.79
48817196,1936,1,192282,237451,0.02,-0.82,9.93,-0.03,-0.01,-0.00,30.79
48857195,1927,1,192378,237616,-0.00,-0.85,9.94,-0.03,-0.01,-0.01,30.79
48897208,1931,1,192190,235852,-0.00,-0.84,9.96,-0.03,-0.01,-0.00,30.79
48937208,1929,1,191260,233982,-0.00,-0.86,9.94,-0.03,-0.01,-0.01,30.79
48977208,1930,1,190925,233925,0.00,-0.86,9.97,-0.03,-0.01,-0.00,30.79
49017195,1925,1,191039,234261,0.00,-0.84,9.94,-0.03,-0.01,-0.01,30.79
49057879,1903,1,191088,234420,-0.00,-0.84,9.96,-0.03,-0.01,-0.00,30.57
49098209,1904,1,191180,234898,0.01,-0.84,9.96,-0.03,-0.01,-0.01,30.57
49138191,1905,1,191407,235591,0.01,-0.84,9.94,-0.03,-0.01,-0.00,30.57
49178192,1906,1,191594,235899,-0.00,-0.85,9.98,-0.03,-0.01,-0.00,30.57
49218209,1910,1,191651,236023,0.03,-0.84,9.95,-0.03,-0.01,-0.01,30.57
49258192,1914,1,191703,236193,-0.00,-0.84,9.96,-0.03,-0.01,-0.01,30.57
49298209,1907,1,191740,236433,0.01,-0.85,9.94,-0.03,-0.01,-0.01,30.57
49338193,1914,1,191845,236658,-0.00,-0.84,9.96,-0.03,-0.01,-0.00,30.57
49378209,1913,1,191921,236886,0.01,-0.86,9.95,-0.03,-0.01,-0.00,30.57
49418192,1920,1,192000,237040,-0.01,-0.84,9.95,-0.03,-0.01,-0.00,30.57
49458208,1911,1,192075,237155,0.00,-0.85,9.93,-0.03,-0.01,-0.00,30.57
49498192,1910,1,192145,237366,0.02,-0.85,9.92,-0.03,-0.01,-0.01,30.57
49538190,1904,1,192211,237396,0.03,-0.84,9.95,-0.03,-0.01,-0.00,30.57
49578192,1909,1,192087,235854,0.02,-0.84,9.94,-0.03,-0.01,-0.01,30.57
49618191,1903,1,191025,233137,0.00,-0.83,9.94,-0.03,-0.01,-0.01,30.57
49658193,1902,1,190449,232426,-0.01,-0.85,9.92,-0.03,-0.01,-0.01,30.57
49698209,1904,1,190450,232406,0.03,-0.85,9.98,-0.03,-0.01,-0.01,30.57
49738192,1899,1,190447,232412,0.01,-0.85,9.95,-0.03,-0.01,-0.00,30.57
49778191,1901,1,190449,232793,0.00,-0.84,9.95,-0.03,-0.01,-0.00,30.57
49818192,1902,1,190789,233874,0.02,-0.84,9.95,-0.03,-0.01,-0.01,30.57
49858190,1904,1,191037,234278,0.02,-0.85,9.95,-0.03,-0.01,-0.00,30.57
49898192,1911,1,191108,234392,-0.00,-0.84,9.96,-0.03,-0.01,-0.01,30.57
49938218,1904,1,191176,234601,-0.00,-0.85,9.93,-0.04,-0.01,-0.01,30.57
49978208,1901,1,191229,234787,0.00,-0.84,9.95,-0.03,-0.01,-0.00,30.57
50018190,1902,1,191317,234994,0.01,-0.84,9.95,-0.03,-0.01,-0.00,30.57
50058878,1894,1,191339,235232,0.01,-0.85,9.99,-0.03,-0.01,-0.00,30.63
50097190,1920,1,191448,235471,-0.01,-0.85,9.96,-0.03,-0.01,-0.01,30.63
50137225,1925,1,191559,235689,0.01,-0.85,9.93,-0.03,-0.01,-0.00,30.63
50177192,1924,1,191600,235777,0.02,-0.85,9.95,-0.03,-0.01,-0.01,30.63
50217196,1931,1,191657,235796,0.02,-0.85,9.96,-0.03,-0.01,-0.01,30.63
50257195,1924,1,191390,233640,0.01,-0.87,9.97,-0.03,-0.01,-0.01,30.63
50297195,1923,1,190194,230443,0.00,-0.83,9.96,-0.03,-0.01,-0.00,30.63
50337192,1927,1,189756,230093,-0.00,-0.85,9.95,-0.03,-0.01,-0.01,30.63
50378208,1919,1,189772,230238,0.02,-0.84,9.97,-0.03,-0.01,-0.01,30.63
50418190,1916,1,189814,230423,0.03,-0.83,9.96,-0.03,-0.01,-0.00,30.63
50458192,1923,1,189987,231313,0.00,-0.85,9.94,-0.03,-0.01,-0.00,30.63
50498190,1920,1,190429,232543,0.01,-0.84,9.95,-0.03,-0.01,-0.00,30.63
50538192,1926,1,190714,233128,0.01,-0.85,9.95,-0.03,-0.01,-0.00,30.63
50578190,1933,1,190850,233462,-0.00,-0.85,9.97,-0.03,-0.01,-0.01,30.63
50618209,1926,1,190971,233933,0.00,-0.84,9.95,-0.03,-0.01,-0.01,30.63
50658190,1933,1,191107,234272,0.00,-0.84,9.97,-0.03,-0.01,-0.00,30.63
50698192,1936,1,191239,234679,0.02,-0.88,9.92,-0.03,-0.01,-0.00,30.63
50738190,1939,1,191365,234959,0.02,-0.84,9.94,-0.03,-0.01,-0.01,30.63
50778193,1937,1,191443,235220,0.01,-0.84,9.95,-0.03,-0.01,-0.00,30.63
50818191,1936,1,191549,235653,0.01,-0.84,9.93,-0.03,-0.01,-0.01,30.63
50858193,1936,1,191664,235940,0.01,-0.85,9.95,-0.03,-0.01,-0.00,30.63
50898190,1929,1,191707,234814,0.00,-0.83,9.96,-0.03,-0.01,-0.00,30.63
50938192,1921,1,190825,232007,0.01,-0.85,9.96,-0.03,-0.01,-0.00,30.63
50978191,1919,1,190188,231068,0.02,-0.85,9.96,-0.03,-0.01,-0.00,30.63
51018193,1919,1,190083,230892,0.02,-0.83,9.95,-0.03,-0.01,-0.01,30.63
51058877,1914,1,189999,230795,0.00,-0.86,9.95,-0.03,-0.01,-0.00,30.67
51097195,1933,1,190049,231211,0.02,-0.83,9.95,-0.03,-0.01,-0.00,30.67
51137192,1936,1,190371,232414,0.01,-0.85,9.96,-0.03,-0.01,-0.01,30.67
51177192,1931,1,190682,232804,0.02,-0.85,9.93,-0.03,-0.01,-0.01,30.67
51217196,1933,1,190765,233070,0.02,-0.85,9.95,-0.03,-0.01,-0.00,30.67
51257192,1934,1,190902,233657,0.01,-0.84,9.96,-0.03,-0.01,-0.01,30.67
51297195,1930,1,191103,234232,0.01,-0.85,9.95,-0.03,-0.01,-0.01,30.67
51337195,1929,1,191225,234528,0.01,-0.85,9.94,-0.03,-0.01,-0.00,30.67
51378191,1917,1,191418,234910,0.01,-0.82,9.98,-0.03,-0.01,-0.00,30.67
51418192,1920,1,191510,235386,-0.01,-0.85,9.95,-0.03,-0.01,-0.01,30.67
51458209,1914,1,191718,235882,-0.01,-0.86,9.95,-0.03,-0.01,-0.00,30.67
51498208,1909,1,191884,236138,0.01,-0.87,9.93,-0.03,-0.01,-0.01,30.67
51538191,1905,1,191949,235573,0.01,-0.84,9.98,-0.03,-0.01,-0.00,30.67
51578227,1907,1,191149,232327,0.01,-0.86,9.95,-0.03,-0.01,-0.00,30.67
51618191,1908,1,190115,230512,0.02,-0.86,9.97,-0.03,-0.01,-0.01,30.67
51658193,1915,1,189901,230174,-0.00,-0.84,9.96,-0.03,-0.01,-0.00,30.67
51698209,1911,1,189747,229863,0.01,-0.82,9.95,-0.03,-0.02,-0.00,30.67
51738192,1907,1,189800,230486,0.01,-0.86,9.94,-0.03,-0.01,-0.00,30.67
51778238,1904,1,190325,232743,0.02,-0.84,9.92,-0.04,-0.00,-0.01,30.67
51818192,1905,1,191025,234407,0.02,-0.85,9.95,-0.04,-0.00,-0.01,30.67
51858190,1903,1,191368,234899,-0.00,-0.83,9.97,-0.03,-0.01,-0.01,30.67
51898209,1901,1,191416,234914,0.01,-0.84,9.97,-0.03,-0.01,-0.00,30.67
51938190,1906,1,191372,234889,0.01,-0.86,9.94,-0.03,-0.01,-0.00,30.67
51978193,1904,1,191385,235073,0.00,-0.85,9.94,-0.03,-0.01,-0.00,30.67
52018190,1909,1,191449,235285,-0.01,-0.87,9.98,-0.03,-0.01,-0.00,30.67
52058209,1908,1,191556,235781,-0.01,-0.84,9.94,-0.04,-0.01,-0.00,30.67
52098895,1901,1,191746,236256,0.01,-0.87,9.94,-0.03,-0.01,-0.00,30.59
52137193,1907,1,191856,236531,0.02,-0.84,9.93,-0.03,-0.01,-0.00,30.59
52177190,1905,1,191981,236670,-0.02,-0.84,9.94,-0.03,-0.01,-0.01,30.59
52217213,1905,1,191855,235112,0.03,-0.85,9.96,-0.03,-0.01,-0.00,30.59
52257190,1907,1,190767,231861,0.01,-0.86,9.95,-0.03,-0.01,-0.00,30.59
52297196,1903,1,190056,231363,0.01,-0.84,9.92,-0.03,-0.01,-0.00,30.59
52337190,1908,1,190163,231869,0.01,-0.85,9.98,-0.03,-0.01,-0.01,30.59
52377193,1898,1,190316,232114,0.01,-0.85,9.96,-0.03,-0.01,-0.01,30.59
52418191,1904,1,190323,232495,0.02,-0.86,9.93,-0.03,-0.01,-0.00,30.59
52458192,1904,1,190659,233725,0.01,-0.84,9.95,-0.03,-0.01,-0.01,30.59
52498191,1907,1,190956,234326,0.00,-0.84,9.96,-0.03,-0.01,-0.00,30.59
52538191,1904,1,191104,234718,0.01,-0.85,9.93,-0.03,-0.01,-0.01,30.59
52578191,1905,1,191192,234993,0.00,-0.83,9.97,-0.04,-0.01,-0.01,30.59
52618192,1918,1,191265,235180,0.00,-0.86,9.96,-0.03,-0.01,-0.00,30.59
52658190,1904,1,191300,235140,0.01,-0.85,9.94,-0.03,-0.01,-0.01,30.59
52698193,1909,1,191302,235104,-0.02,-0.85,9.95,-0.03,-0.01,-0.00,30.59
52738208,1904,1,191327,235212,0.00,-0.85,9.96,-0.03,-0.01,-0.00,30.59
52778192,1913,1,191445,235622,0.00,-0.85,9.95,-0.03,-0.01,-0.00,30.59
52818190,1919,1,191529,236060,0.00,-0.84,9.96,-0.03,-0.01,-0.00,30.59
52858192,1903,1,191713,236408,0.02,-0.84,9.94,-0.03,-0.01,-0.01,30.59
52898191,1907,1,191654,235028,0.00,-0.87,9.97,-0.03,-0.01,-0.00,30.59
52938192,1911,1,190736,232489,0.00,-0.84,9.96,-0.03,-0.01,-0.00,30.59
52978190,1910,1,190250,232188,-0.01,-0.84,9.96,-0.03,-0.01,-0.01,30.59
53018209,1915,1,190287,232253,0.02,-0.85,9.95,-0.03,-0.01,-0.01,30.59
53058190,1905,1,190268,231878,0.00,-0.85,9.95,-0.03,-0.01,-0.00,30.59
53098192,1918,1,190155,231994,0.01,-0.84,9.93,-0.03,-0.01,-0.00,30.59
53138877,1904,1,190414,233132,0.02,-0.85,9.94,-0.03,-0.01,-0.01,30.63
53177193,1904,1,190763,233765,0.02,-0.85,9.91,-0.03,-0.01,-0.01,30.63
53217237,1911,1,190928,234084,0.02,-0.86,9.97,-0.03,-0.01,-0.00,30.63
53257192,1911,1,190981,234261,-0.01,-0.83,9.94,-0.03,-0.01,-0.01,30.63
53297208,1919,1,191036,234585,0.01,-0.84,9.93,-0.03,-0.01,-0.01,30.63
53337196,1921,1,191195,234902,0.01,-0.83,9.97,-0.03,-0.01,-0.01,30.63
53377191,1914,1,191255,234923,0.03,-0.86,9.94,-0.03,-0.01,-0.00,30.63
53417235,1920,1,191281,235075,0.01,-0.85,9.94,-0.03,-0.01,-0.00,30.63
53457191,1913,1,191398,235416,0.00,-0.84,9.96,-0.03,-0.01,-0.00,30.63
53497192,1915,1,191500,235649,0.00,-0.86,9.96,-0.03,-0.01,-0.00,30.63
53537190,1904,1,191588,235775,0.02,-0.85,9.94,-0.03,-0.01,-0.00,30.63
53577192,1920,1,191583,234773,0.01,-0.84,9.96,-0.03,-0.01,-0.01,30.63
53617191,1919,1,190631,231390,-0.01,-0.84,9.97,-0.03,-0.01,-0.01,30.63
53657209,1918,1,189815,230406,0.01,-0.86,9.96,-0.03,-0.01,-0.00,30.63
53697190,1911,1,189814,230710,0.02,-0.85,9.94,-0.03,-0.01,-0.01,30.63
53737193,1914,1,189954,231065,-0.00,-0.85,9.95,-0.03,-0.01,-0.01,30.63
53777208,1907,1,190079,231599,0.02,-0.85,9.96,-0.03,-0.01,-0.01,30.63
53817193,1919,1,190351,232359,0.02,-0.85,9.95,-0.03,-0.01,-0.00,30.63
53857190,1914,1,190530,232662,-0.00,-0.85,9.95,-0.03,-0.01,-0.00,30.63
53897208,1915,1,190630,233088,0.00,-0.84,9.94,-0.03,-0.01,-0.00,30.63
53937190,1918,1,190824,233638,0.02,-0.83,9.94,-0.03,-0.01,-0.01,30.63
53977193,1915,1,191052,234395,0.00,-0.83,9.96,-0.03,-0.01,-0.01,30.63
54017190,1910,1,191316,235143,0.00,-0.84,9.94,-0.03,-0.01,-0.01,30.63
54057192,1917,1,191493,235560,0.01,-0.84,9.94,-0.03,-0.01,-0.01,30.63
54097191,1919,1,191653,235937,0.02,-0.85,9.98,-0.03,-0.01,-0.01,30.63
54137193,1925,1,191760,236272,0.03,-0.85,9.96,-0.04,-0.01,-0.01,30.63
54177877,1904,1,191867,236712,0.01,-0.85,9.96,-0.03,-0.01,-0.01,30.79
54216195,1958,1,192033,237060,0.00,-0.85,9.98,-0.04,-0.01,-0.01,30.79
54256191,1963,1,192145,236561,0.02,-0.84,9.96,-0.03,-0.01,-0.01,30.79
54296195,1965,1,191421,234386,0.02,-0.84,9.93,-0.03,-0.01,-0.00,30.79
54336192,1958,1,190949,234124,0.03,-0.85,9.91,-0.03,-0.01,-0.00,30.79
54376195,1958,1,191130,234581,-0.02,-0.86,9.95,-0.03,-0.01,-0.01,30.79
54416208,1963,1,191279,234670,-0.01,-0.83,9.95,-0.03,-0.01,-0.01,30.79
54456209,1951,1,191290,234875,-0.00,-0.85,9.93,-0.03,-0.01,-0.00,30.79
54496208,1956,1,191497,235453,-0.01,-0.84,9.91,-0.03,-0.01,-0.00,30.79
54536212,1951,1,191623,235695,0.02,-0.85,9.97,-0.03,-0.01,-0.00,30.79
54576192,1953,1,191679,235770,0.02,-0.85,9.94,-0.03,-0.01,-0.01,30.79
54616195,1943,1,191717,235819,0.02,-0.86,9.93,-0.03,-0.01,-0.01,30.79
54656192,1943,1,191796,235976,-0.00,-0.84,9.93,-0.03,-0.01,-0.00,30.79
54696210,1938,1,191847,236085,0.02,-0.84,9.96,-0.03,-0.01,-0.01,30.79
54736192,1936,1,191945,236283,0.03,-0.84,9.94,-0.03,-0.01,-0.00,30.79
54776192,1949,1,191995,236532,0.02,-0.85,9.95,-0.03,-0.01,-0.01,30.79
54816193,1951,1,192092,236769,0.01,-0.85,9.96,-0.03,-0.01,-0.01,30.79
54856200,1936,1,192198,237008,0.00,-0.84,9.96,-0.03,-0.01,-0.00,30.79
54896192,1930,1,192279,237170,0.01,-0.83,9.93,-0.03,-0.01,-0.01,30.79
54936195,1936,1,192204,235764,-0.02,-0.84,9.96,-0.03,-0.01,-0.01,30.79
54976208,1938,1,191183,232880,0.03,-0.84,9.93,-0.03,-0.01,-0.00,30.79
55016195,1939,1,190565,232310,0.00,-0.84,9.96,-0.03,-0.01,-0.00,30.79
55056200,1920,1,190666,232791,0.00,-0.85,9.93,-0.03,-0.01,-0.00,30.79
55096195,1935,1,190819,233262,0.04,-0.82,9.98,-0.03,-0.01,-0.01,30.79
55136192,1936,1,191024,234056,0.02,-0.85,9.97,-0.03,-0.01,-0.00,30.79
55176195,1936,1,191296,234721,0.00,-0.85,9.98,-0.03,-0.01,-0.00,30.79
55216879,1904,1,191403,234882,0.03,-0.83,9.96,-0.03,-0.01,-0.01,30.87
55257212,1898,1,191449,234942,-0.00,-0.83,9.93,-0.03,-0.01,-0.01,30.87
55297209,1907,1,191459,234985,-0.01,-0.85,9.95,-0.03,-0.01,-0.01,30.87
55337209,1909,1,191477,235082,0.02,-0.83,9.93,-0.03,-0.01,-0.00,30.87
55377190,1907,1,191576,235327,0.02,-0.84,9.91,-0.03,-0.01,-0.01,30.87
55417193,1909,1,191717,235875,0.02,-0.84,9.93,-0.03,-0.01,-0.01,30.87
55457191,1902,1,191971,236744,0.01,-0.83,9.96,-0.04,-0.01,-0.01,30.87
55497193,1902,1,192255,237322,0.02,-0.83,9.99,-0.04,-0.00,-0.01,30.87
55537190,1908,1,192350,237210,0.01,-0.85,9.96,-0.03,-0.01,-0.01,30.87
55577192,1906,1,192029,234729,-0.01,-0.84,9.98,-0.03,-0.02,-0.00,30.87
55617208,1899,1,190359,229419,0.02,-0.84,9.95,-0.03,-0.02,-0.00,30.87
55657192,1905,1,189229,227739,0.00,-0.85,9.99,-0.02,-0.03,0.00,30.87
55697174,1904,1,189204,228087,0.07,-0.84,9.87,-0.03,-0.02,0.00,30.87
55737174,1904,1,189580,229702,0.04,-0.83,9.95,-0.04,0.00,-0.01,30.87
55777174,1906,1,190247,232109,0.03,-0.84,9.95,-0.04,0.00,-0.01,30.87
55817174,1915,1,190988,234025,0.03,-0.84,9.98,-0.04,-0.00,-0.01,30.87
55857190,1915,1,191376,234733,0.00,-0.83,9.95,-0.04,-0.00,-0.01,30.87
55897191,1929,1,191535,235182,0.03,-0.84,9.94,-0.04,-0.01,-0.01,30.87
55937190,1926,1,191683,235505,0.01,-0.85,9.95,-0.04,-0.00,-0.01,30.87
55977192,1935,1,191689,235399,0.02,-0.84,9.97,-0.03,-0.01,-0.01,30.87
56017190,1935,1,191581,235036,0.00,-0.84,9.94,-0.03,-0.02,-0.00,30.87
56057192,1949,1,191522,234816,0.01,-0.86,9.96,-0.03,-0.01,-0.00,30.87
56097191,1958,1,191481,234825,0.02,-0.85,9.95,-0.03,-0.01,-0.00,30.87
56137192,1968,1,191614,235282,0.01,-0.85,9.93,-0.03,-0.01,-0.00,30.87
56177190,1971,1,191775,235838,0.03,-0.83,9.96,-0.04,-0.01,-0.01,30.87
56217879,1971,1,191700,234330,0.01,-0.83,9.97,-0.04,-0.00,-0.01,30.79
56256190,2000,1,190658,231416,0.01,-0.87,9.96,-0.03,-0.01,-0.01,30.79
56296195,2014,1,189984,230613,0.02,-0.84,9.94,-0.03,-0.01,-0.01,30.79
56336190,2016,1,189890,230226,0.01,-0.85,9.96,-0.03,-0.01,-0.01,30.79
56376195,2023,1,189812,230098,0.01,-0.87,9.95,-0.03,-0.01,-0.00,30.79
56416189,2023,1,189879,230776,0.04,-0.84,9.95,-0.03,-0.01,-0.01,30.79
56456192,2031,1,190267,232149,0.01,-0.84,9.95,-0.03,-0.01,-0.00,30.79
56496195,2026,1,190635,232808,0.01,-0.84,9.94,-0.03,-0.01,-0.01,30.79
56536195,2028,1,190768,233269,0.02,-0.85,9.95,-0.03,-0.01,-0.01,30.79
56576192,2020,1,190923,233665,0.01,-0.82,9.96,-0.03,-0.01,-0.00,30.79
56616195,2015,1,191085,234075,0.03,-0.84,9.95,-0.03,-0.01,-0.00,30.79
56656192,2007,1,191205,234450,0.03,-0.85,9.96,-0.03,-0.01,-0.01,30.79
56696212,2000,1,191309,234829,0.01,-0.84,9.95,-0.03,-0.01,-0.01,30.79
56736191,1999,1,191448,234971,0.02,-0.85,9.97,-0.03,-0.01,-0.01,30.79
56776192,1998,1,191527,235216,0.05,-0.84,9.96,-0.03,-0.01,-0.01,30.79
56816191,1994,1,191596,235285,0.01,-0.82,9.93,-0.03,-0.01,-0.00,30.79
56856192,1985,1,191276,232560,0.01,-0.84,9.95,-0.03,-0.01,-0.01,30.79
56896212,1971,1,190069,230356,0.00,-0.86,9.95,-0.03,-0.01,-0.01,30.79
56936192,1966,1,189865,230717,0.02,-0.84,9.94,-0.03,-0.01,-0.01,30.79
56976192,1957,1,190132,231316,0.01,-0.83,9.93,-0.03,-0.01,-0.01,30.79
57016192,1949,1,190275,231510,0.01,-0.84,9.94,-0.03,-0.01,-0.01,30.79
57056190,1936,1,190358,232117,0.02,-0.85,9.93,-0.03,-0.01,-0.00,30.79
57096192,1935,1,190655,233040,0.04,-0.85,9.94,-0.03,-0.01,-0.01,30.79
57136192,1925,1,190904,233550,0.03,-0.85,9.96,-0.03,-0.01,-0.00,30.79
57176192,1913,1,191046,233940,0.01,-0.84,9.95,-0.03,-0.01,-0.01,30.79
57216190,1904,1,191177,234277,0.00,-0.85,9.95,-0.03,-0.01,-0.00,30.79
57256882,1887,1,191293,234362,0.01,-0.85,9.91,-0.03,-0.01,-0.00,30.77
57297190,1879,1,191371,234511,0.02,-0.85,9.94,-0.03,-0.01,-0.00,30.77
57337192,1893,1,191442,234693,0.00,-0.83,9.96,-0.03,-0.01,-0.00,30.77
57377190,1891,1,191559,235235,0.02,-0.83,9.93,-0.03,-0.01,-0.00,30.77
57417192,1893,1,191738,235735,0.01,-0.86,9.96,-0.03,-0.01,-0.01,30.77
57457191,1899,1,191976,236149,-0.00,-0.84,9.95,-0.04,-0.01,-0.01,30.77
57497208,1895,1,191809,234151,0.02,-0.85,9.93,-0.03,-0.01,-0.00,30.77
57537190,1894,1,190640,231058,0.03,-0.83,9.96,-0.03,-0.01,-0.01,30.77
57577193,1888,1,190068,230588,0.01,-0.84,9.96,-0.03,-0.01,-0.00,30.77
57617190,1891,1,190106,230558,-0.01,-0.85,9.95,-0.03,-0.01,-0.00,30.77
57657209,1888,1,190040,230458,0.02,-0.83,9.97,-0.03,-0.01,-0.00,30.77
57697190,1875,1,190112,231321,0.00,-0.83,9.96,-0.03,-0.01,-0.00,30.77
57737191,1878,1,190566,232656,0.01,-0.85,9.96,-0.03,-0.01,-0.00,30.77
57777190,1875,1,190855,233334,0.00,-0.84,9.97,-0.03,-0.01,-0.00,30.77
57817192,1872,1,190991,233433,0.00,-0.83,9.96,-0.03,-0.01,-0.00,30.77
57857190,1871,1,190967,233406,-0.01,-0.84,9.94,-0.03,-0.01,-0.01,30.77
57897208,1872,1,190976,233408,0.03,-0.84,9.94,-0.03,-0.01,-0.00,30.77
57937190,1869,1,191084,233873,0.02,-0.84,9.95,-0.03,-0.01,-0.00,30.77
57977193,1872,1,191273,234664,0.02,-0.83,9.95,-0.04,-0.01,-0.01,30.77
58017190,1875,1,191478,235253,-0.01,-0.84,9.93,-0.03,-0.01,-0.01,30.77
58057209,1873,1,191675,235632,0.01,-0.83,9.96,-0.03,-0.01,-0.01,30.77
58097191,1872,1,191747,235777,0.01,-0.83,9.96,-0.03,-0.01,-0.01,30.77
58137192,1872,1,191775,235174,0.00,-0.84,9.96,-0.03,-0.01,-0.00,30.77
58177190,1872,1,190964,231310,0.00,-0.84,9.94,-0.03,-0.01,-0.01,30.77
58217192,1863,1,189799,229764,0.01,-0.84,9.94,-0.03,-0.01,-0.00,30.77
58257877,1862,1,189707,229885,-0.01,-0.83,9.95,-0.03,-0.01,-0.00,30.85
58296212,1872,1,189779,229943,0.02,-0.84,9.94,-0.03,-0.01,-0.01,30.85
58336214,1886,1,189837,230389,0.03,-0.85,9.94,-0.03,-0.01,-0.00,30.85
58376192,1889,1,190192,231838,0.02,-0.86,9.96,-0.03,-0.01,-0.01,30.85
58416193,1889,1,190564,232625,0.00,-0.84,9.95,-0.03,-0.01,-0.01,30.85
58456192,1892,1,190754,232939,0.02,-0.83,9.98,-0.03,-0.01,-0.00,30.85
58496190,1903,1,190773,233035,0.02,-0.85,9.98,-0.03,-0.01,-0.01,30.85
58536227,1897,1,190849,233218,0.03,-0.85,9.95,-0.03,-0.01,-0.00,30.85
58576192,1890,1,190906,233396,-0.01,-0.83,9.94,-0.03,-0.01,-0.00,30.85
58616208,1904,1,190979,233537,0.00,-0.84,9.98,-0.03,-0.01,-0.00,30.85
58656192,1896,1,191005,233671,0.03,-0.82,9.96,-0.03,-0.01,-0.00,30.85
58696193,1910,1,191117,234069,0.01,-0.84,9.92,-0.04,-0.01,-0.01,30.85
58736191,1901,1,191240,234504,0.02,-0.84,9.97,-0.03,-0.01,-0.00,30.85
58776195,1903,1,191424,234996,0.02,-0.84,9.95,-0.03,-0.01,-0.01,30.85
58816190,1918,1,191462,234461,0.01,-0.85,9.96,-0.03,-0.01,-0.01,30.85
58856192,1911,1,190673,230778,0.01,-0.85,9.95,-0.03,-0.01,-0.00,30.85
58896190,1913,1,189693,229789,0.00,-0.83,9.94,-0.03,-0.01,-0.00,30.85
58936192,1906,1,189659,229984,0.02,-0.85,9.93,-0.03,-0.01,-0.01,30.85
58976193,1913,1,189733,230040,0.01,-0.83,9.95,-0.03,-0.01,-0.00,30.85
59016192,1913,1,189685,230123,0.00,-0.84,9.97,-0.03,-0.01,-0.01,30.85
59056190,1905,1,189892,230856,0.00,-0.84,9.96,-0.03,-0.01,-0.00,30.85
59096192,1907,1,190095,231210,0.03,-0.84,9.95,-0.03,-0.01,-0.00,30.85
59136190,1915,1,190199,231729,0.03,-0.85,9.92,-0.03,-0.01,-0.01,30.85
59176195,1918,1,190387,232254,0.00,-0.83,9.95,-0.03,-0.01,-0.01,30.85
59216191,1920,1,190573,232983,0.00,-0.82,9.95,-0.03,-0.01,-0.00,30.85
59256192,1920,1,190824,233584,0.02,-0.85,9.94,-0.03,-0.01,-0.01,30.85
59296877,1910,1,190921,233884,0.02,-0.84,9.94,-0.03,-0.01,-0.01,30.63
59337193,1909,1,191041,234254,0.02,-0.85,9.94,-0.03,-0.01,-0.00,30.63
59377190,1910,1,191164,234677,0.03,-0.84,9.95,-0.03,-0.01,-0.01,30.63
59417193,1919,1,191341,234984,0.02,-0.85,9.95,-0.03,-0.01,-0.01,30.63
59457191,1917,1,191414,235175,0.01,-0.84,9.96,-0.03,-0.01,-0.01,30.63
59497192,1917,1,191442,234291,0.02,-0.84,9.96,-0.03,-0.01,-0.00,30.63
59537190,1911,1,190569,231250,0.01,-0.85,9.96,-0.03,-0.01,-0.00,30.63
59577193,1904,1,189880,230768,0.02,-0.86,9.95,-0.04,-0.01,-0.00,30.63
59617190,1911,1,190040,231645,0.02,-0.84,9.96,-0.03,-0.01,-0.01,30.63
59657192,1904,1,190335,232474,0.01,-0.85,9.97,-0.03,-0.01,-0.01,30.63
59697191,1907,1,190565,233391,0.02,-0.83,9.97,-0.03,-0.01,-0.01,30.63
59737193,1911,1,191013,234510,0.02,-0.83,9.94,-0.03,-0.01,-0.01,30.63
59777191,1907,1,191224,234934,0.00,-0.84,9.92,-0.03,-0.01,-0.01,30.63
59817192,1914,1,191294,235205,0.00,-0.85,9.95,-0.03,-0.01,-0.00,30.63
59857190,1904,1,191415,235417,0.01,-0.84,9.94,-0.03,-0.01,-0.01,30.63
59897193,1907,1,191514,235675,0.01,-0.84,9.92,-0.03,-0.01,-0.01,30.63
59937190,1918,1,191581,235979,0.02,-0.83,9.95,-0.03,-0.01,-0.00,30.63
59977201,1901,1,191689,236149,0.01,-0.84,9.96,-0.03,-0.01,-0.00,30.63
60017190,1905,1,191773,236326,0.01,-0.85,9.95,-0.03,-0.01,-0.01,30.63
60057192,1911,1,191847,236534,0.02,-0.82,9.92,-0.03,-0.01,-0.01,30.63
60097223,1913,1,191916,236706,0.00,-0.85,9.94,-0.03,-0.01,-0.01,30.63
60135194,1967,1,191993,236831,0.00,-0.85,9.94,-0.03,-0.01,-0.00,30.63
60175243,1969,1,191725,234681,0.01,-0.85,9.99,-0.03,-0.01,-0.00,30.63
60215195,1970,1,190640,231992,0.02,-0.84,9.93,-0.03,-0.01,-0.00,30.63
60255192,1968,1,190139,231510,0.01,-0.84,9.93,-0.03,-0.01,-0.01,30.63
60295195,1967,1,190167,231546,0.01,-0.85,9.95,-0.03,-0.01,-0.00,30.63
60335878,1903,1,190246,232010,0.01,-0.86,9.94,-0.03,-0.01,-0.01,30.81
60376192,1905,1,190557,233326,0.01,-0.83,9.96,-0.03,-0.01,-0.01,30.81
60415195,1963,1,190985,234076,0.01,-0.84,9.96,-0.03,-0.01,-0.01,30.81
60455195,1961,1,191099,234203,0.01,-0.84,9.93,-0.03,-0.01,-0.01,30.81
60495192,1954,1,191244,234376,0.02,-0.85,9.95,-0.03,-0.01,-0.01,30.81
60535196,1950,1,191307,234680,0.01,-0.85,9.96,-0.03,-0.01,-0.00,30.81
60575192,1946,1,191446,235176,0.01,-0.85,9.97,-0.03,-0.01,-0.01,30.81
60615195,1937,1,191634,235676,0.03,-0.84,9.92,-0.04,-0.01,-0.01,30.81
60655192,1943,1,191793,236049,-0.00,-0.83,9.96,-0.03,-0.01,-0.01,30.81
60695210,1947,1,191887,236253,0.02,-0.83,9.93,-0.03,-0.01,-0.00,30.81
60735192,1950,1,192011,236571,0.01,-0.84,9.94,-0.03,-0.01,-0.00,30.81
60775195,1941,1,192103,236683,0.02,-0.83,9.96,-0.03,-0.01,-0.01,30.81
60815192,1934,1,191725,234446,0.03,-0.84,9.97,-0.03,-0.01,-0.00,30.81
60855195,1938,1,190868,232852,0.03,-0.82,9.95,-0.03,-0.01,-0.01,30.81
60895192,1947,1,190676,233091,0.03,-0.84,9.93,-0.03,-0.01,-0.01,30.81
60935195,1943,1,190816,233400,0.02,-0.86,9.97,-0.03,-0.01,-0.00,30.81
60975192,1943,1,190924,233795,0.02,-0.84,9.96,-0.03,-0.01,-0.01,30.81
61015195,1936,1,191185,234697,0.02,-0.83,9.97,-0.03,-0.01,-0.01,30.81
61055192,1945,1,191435,235277,0.02,-0.85,9.94,-0.04,-0.01,-0.01,30.81
61095192,1938,1,191564,235763,0.00,-0.84,9.94,-0.04,-0.01,-0.00,30.81
61135190,1938,1,191693,236147,0.00,-0.83,9.97,-0.03,-0.01,-0.01,30.81
61175191,1936,1,191853,236475,0.01,-0.83,9.96,-0.03,-0.01,-0.01,30.81
61215190,1948,1,191914,236616,0.03,-0.84,9.95,-0.03,-0.01,-0.01,30.81
61255192,1957,1,192011,236948,0.03,-0.85,9.96,-0.03,-0.01,-0.00,30.81
61295190,1962,1,192187,237500,0.01,-0.85,9.93,-0.03,-0.01,-0.01,30.81
61335195,1956,1,192398,238100,0.03,-0.84,9.94,-0.03,-0.01,-0.01,30.81
61375881,1934,1,192645,238784,0.01,-0.85,9.93,-0.04,-0.00,-0.01,30.87
61415195,1968,1,192745,238430,-0.00,-0.84,9.93,-0.04,-0.00,-0.01,30.87
61455208,1975,1,192229,237335,0.01,-0.83,9.99,-0.04,-0.01,-0.01,30.87
61495195,1971,1,191855,236734,-0.00,-0.83,9.96,-0.03,-0.01,-0.01,30.87
61535208,1981,1,191704,236499,-0.02,-0.86,9.93,-0.03,-0.02,-0.01,30.87
61575208,1983,1,191646,236293,0.01,-0.87,9.92,-0.03,-0.01,-0.00,30.87
61615209,1994,1,191587,236452,0.02,-0.85,9.95,-0.03,-0.01,-0.00,30.87
61655192,2000,1,191765,236982,-0.00,-0.85,9.97,-0.03,-0.01,-0.01,30.87
