timestamp_us,ecg,leads,ir,red,accX,accY,accZ,gyroX,gyroY,gyroZ,temp
1919486,1838,1,209113,244011,0.00,0.00,0.00,0.00,0.00,0.00,0.00
1949956,1820,1,208977,244295,1.14,-0.43,9.68,-0.03,-0.02,-0.00,32.03
1990198,1872,1,208900,242420,1.19,-0.43,9.94,-0.03,-0.02,-0.00,32.03
2030188,1873,1,207802,240502,1.17,-0.43,9.95,-0.03,-0.02,-0.00,32.03
2070192,1895,1,207364,239994,1.19,-0.42,9.93,-0.03,-0.04,-0.00,32.03
2110204,1891,1,207236,240187,1.20,-0.44,9.91,-0.03,-0.03,-0.00,32.03
2150192,1835,1,207254,240896,1.19,-0.44,9.88,-0.03,-0.02,-0.00,32.03
2190189,1877,1,207759,241756,1.20,-0.45,9.96,-0.03,-0.01,-0.00,32.03
2230192,1925,1,207942,242264,1.19,-0.43,9.94,-0.03,-0.02,-0.00,32.03
2270189,1893,1,207986,242578,1.17,-0.44,9.93,-0.03,-0.02,-0.00,32.03
2310191,1910,1,208207,243035,1.22,-0.44,9.93,-0.03,-0.01,-0.00,32.03
2350192,1936,1,208464,243553,1.20,-0.42,9.91,-0.03,-0.01,-0.01,32.03
2390192,1910,1,208744,244078,1.17,-0.42,9.95,-0.03,-0.01,-0.00,32.03
2430188,1902,1,208909,244773,1.20,-0.43,9.91,-0.03,-0.01,-0.00,32.03
2470192,1913,1,209139,245064,1.19,-0.43,9.95,-0.03,-0.00,-0.00,32.03
2510188,1867,1,208707,242770,1.19,-0.44,9.93,-0.03,-0.01,-0.00,32.03
2550192,1886,1,207829,241400,1.20,-0.41,9.90,-0.04,0.01,-0.00,32.03
2590169,1856,1,207695,241150,1.17,-0.44,9.97,-0.03,-0.01,-0.00,32.03
2630192,1824,1,207705,241179,1.18,-0.44,9.94,-0.03,-0.02,-0.00,32.03
2670189,1839,1,207779,241697,1.18,-0.44,9.92,-0.03,-0.01,-0.01,32.03
2710193,1866,1,208020,242103,1.18,-0.44,9.93,-0.03,-0.01,-0.00,32.03
2750189,1869,1,208013,242102,1.20,-0.45,9.91,-0.03,-0.02,-0.00,32.03
2790193,1900,1,208066,242194,1.20,-0.42,9.95,-0.03,-0.01,-0.01,32.03
2830189,1858,1,208113,242534,1.17,-0.43,9.92,-0.03,-0.01,-0.00,32.03
2870193,1806,1,208229,242927,1.21,-0.44,9.92,-0.03,-0.01,-0.00,32.03
2910205,1850,1,208377,243378,1.17,-0.43,9.93,-0.03,-0.01,-0.00,32.03
2950192,1862,1,208600,243966,1.20,-0.42,9.95,-0.03,-0.01,-0.00,32.03
2990875,1839,1,208811,244056,1.20,-0.41,9.92,-0.03,-0.00,-0.00,31.91
3029193,1906,1,208168,241600,1.19,-0.42,9.93,-0.03,-0.01,-0.00,31.91
3069192,1914,1,207399,240470,1.20,-0.42,9.93,-0.03,-0.01,-0.00,31.91
3109227,1918,1,207332,240667,1.19,-0.44,9.91,-0.04,-0.01,-0.00,31.91
3149192,1963,1,207510,241080,1.18,-0.43,9.95,-0.04,-0.01,-0.00,31.91
3189192,1959,1,207640,241114,1.15,-0.43,9.95,-0.03,-0.01,-0.00,31.91
3229190,1945,1,207667,241125,1.20,-0.44,9.90,-0.03,-0.02,-0.00,31.91
3269192,1943,1,207743,241138,1.21,-0.43,9.95,-0.03,-0.02,-0.00,31.91
3309211,1918,1,207771,241381,1.19,-0.45,9.94,-0.03,-0.01,-0.00,31.91
3349193,1984,1,207941,241965,1.19,-0.45,9.91,-0.03,-0.01,-0.01,31.91
3389192,1968,1,208179,242997,1.18,-0.42,9.93,-0.03,0.00,-0.01,31.91
3429172,1946,1,208544,243892,1.17,-0.43,9.96,-0.03,-0.01,-0.00,31.91
3469190,1968,1,208832,244592,1.20,-0.44,9.91,-0.03,-0.01,-0.00,31.91
3509192,1991,1,208982,244140,1.19,-0.43,9.92,-0.03,0.00,-0.00,31.91
3549169,1984,1,208210,241618,1.18,-0.43,9.95,-0.03,-0.01,-0.00,31.91
3589192,2013,1,207574,240872,1.19,-0.43,9.95,-0.03,-0.01,-0.00,31.91
3629190,2053,1,207509,240965,1.19,-0.45,9.95,-0.03,-0.01,-0.00,31.91
3669192,2000,1,207578,241061,1.19,-0.43,9.94,-0.03,-0.03,-0.00,31.91
3709190,2014,1,207717,241547,1.20,-0.44,9.90,-0.03,-0.01,-0.00,31.91
3749192,2016,1,207930,241902,1.21,-0.44,9.93,-0.03,-0.01,-0.00,31.91
3789190,1994,1,208072,242608,1.22,-0.44,9.92,-0.03,-0.01,-0.00,31.91
3829192,2011,1,208319,243635,1.19,-0.42,9.95,-0.03,0.00,-0.00,31.91
3869169,1997,1,208770,245040,1.21,-0.42,9.92,-0.04,0.00,-0.00,31.91
3909172,1951,1,209226,245599,1.15,-0.46,9.97,-0.03,0.00,-0.00,31.91
3950169,1820,1,209392,245893,1.18,-0.42,9.92,-0.03,-0.02,-0.00,31.91
3990192,1774,1,209478,246225,1.19,-0.43,9.96,-0.03,-0.02,-0.00,31.91
4030887,1776,1,209555,245641,1.20,-0.45,9.89,-0.03,-0.01,-0.00,31.89
4069192,1840,1,208724,243057,1.19,-0.44,9.92,-0.04,0.00,-0.00,31.89
4109169,1878,1,208241,242569,1.18,-0.44,9.94,-0.04,0.01,-0.00,31.89
4149172,1904,1,208404,242956,1.16,-0.43,9.94,-0.04,-0.01,-0.00,31.89
4189192,1910,1,208705,243646,1.17,-0.42,9.92,-0.04,-0.01,-0.00,31.89
4229193,1887,1,208683,243293,1.15,-0.43,10.01,-0.03,-0.02,-0.00,31.89
4269190,1900,1,208356,242748,1.20,-0.43,9.94,-0.03,-0.07,-0.00,31.89
4309192,1891,1,208365,242524,1.22,-0.42,9.89,-0.03,-0.03,-0.00,31.89
4349189,1963,1,208493,242600,1.23,-0.45,9.93,-0.03,-0.02,-0.00,31.89
4389192,1973,1,208630,243057,1.22,-0.44,9.95,-0.03,-0.01,-0.00,31.89
4429189,1983,1,208852,243946,1.21,-0.44,9.94,-0.04,0.01,-0.01,31.89
4469172,1979,1,209202,244825,1.20,-0.44,9.92,-0.03,-0.01,-0.00,31.89
4509189,1977,1,209436,245289,1.21,-0.42,9.97,-0.03,-0.01,-0.00,31.89
4549192,1986,1,209373,243798,1.21,-0.46,9.95,-0.03,-0.02,-0.00,31.89
4589189,1986,1,208352,241599,1.24,-0.43,9.92,-0.04,-0.00,-0.00,31.89
4629192,2026,1,207882,241244,1.21,-0.45,9.93,-0.03,-0.01,-0.00,31.89
4669189,1979,1,207958,241859,1.22,-0.45,9.90,-0.03,0.00,-0.01,31.89
4709172,2063,1,208225,242847,1.20,-0.42,9.93,-0.03,0.01,-0.01,31.89
4749170,2062,1,208631,243851,1.17,-0.44,9.95,-0.03,0.01,-0.01,31.89
4789172,2057,1,208911,244208,1.19,-0.42,9.91,-0.03,-0.02,-0.00,31.89
4829189,2089,1,208946,243975,1.19,-0.44,9.95,-0.03,-0.01,-0.00,31.89
4869193,2078,1,208758,243325,1.19,-0.44,9.97,-0.03,-0.04,-0.00,31.89
4909190,2096,1,208547,243014,1.22,-0.44,9.94,-0.03,-0.04,-0.00,31.89
4949193,2037,1,208476,243173,1.21,-0.45,9.92,-0.03,-0.02,-0.00,31.89
4989190,2045,1,208656,243866,1.24,-0.44,9.88,-0.03,-0.02,-0.01,31.89
5029192,2062,1,208979,244426,1.22,-0.42,9.93,-0.04,0.00,-0.00,31.89
5069856,2023,1,208679,242576,1.22,-0.43,9.91,-0.04,0.00,-0.00,31.85
5110172,1967,1,207801,241294,1.23,-0.44,9.95,-0.03,0.01,-0.00,31.85
5150172,1938,1,207516,241326,1.24,-0.43,9.92,-0.03,-0.01,-0.00,31.85
5190192,1997,1,207645,241613,1.21,-0.44,9.97,-0.03,-0.01,-0.00,31.85
5230190,1907,1,207751,242064,1.22,-0.44,9.93,-0.03,-0.01,-0.00,31.85
5270193,1903,1,208002,242714,1.21,-0.44,9.93,-0.03,-0.01,-0.00,31.85
5310189,1911,1,208156,242948,1.21,-0.43,9.93,-0.03,-0.01,-0.00,31.85
5350192,1863,1,208264,243163,1.19,-0.44,9.90,-0.03,-0.00,-0.00,31.85
5390189,1838,1,208424,243636,1.22,-0.44,9.88,-0.04,-0.00,-0.00,31.85
5430192,1826,1,208546,243570,1.15,-0.43,9.99,-0.03,-0.02,-0.00,31.85
5470189,1799,1,208388,243097,1.21,-0.42,9.95,-0.03,-0.05,-0.00,31.85
5510192,1795,1,208368,243199,1.27,-0.44,9.90,-0.03,-0.06,-0.00,31.85
5550189,1776,1,208651,243246,1.24,-0.42,9.92,-0.04,-0.00,-0.00,31.85
5590192,1774,1,208020,241236,1.24,-0.43,9.95,-0.04,-0.00,-0.00,31.85
5630190,1760,1,207353,240641,1.24,-0.44,9.90,-0.04,0.01,-0.00,31.85
5670172,1718,1,207303,241052,1.23,-0.43,9.96,-0.04,0.02,-0.01,31.85
5710172,1731,1,207477,241619,1.20,-0.42,9.96,-0.03,-0.01,-0.00,31.85
5750192,1705,1,207674,242670,1.21,-0.44,9.95,-0.03,-0.01,-0.00,31.85
5790190,1696,1,208153,244217,1.23,-0.44,9.89,-0.03,-0.00,-0.01,31.85
5830192,1653,1,208583,245176,1.20,-0.43,9.93,-0.03,-0.01,-0.00,31.85
5870190,1717,1,208836,245526,1.21,-0.45,9.94,-0.03,0.01,-0.01,31.85
5910172,1751,1,209167,245791,1.19,-0.43,9.91,-0.03,0.00,-0.00,31.85
5950169,1767,1,209179,245817,1.18,-0.44,9.94,-0.03,-0.01,-0.00,31.85
5990193,1774,1,209174,245781,1.22,-0.44,9.93,-0.04,-0.02,-0.00,31.85
6030190,1775,1,209134,245453,1.20,-0.44,9.94,-0.03,-0.03,-0.00,31.85
6070879,1782,1,209099,244337,1.21,-0.42,9.93,-0.03,-0.02,-0.00,31.81
6109190,1829,1,208051,241232,1.22,-0.43,9.94,-0.03,-0.02,-0.00,31.81
6149193,1778,1,207256,240241,1.22,-0.43,9.93,-0.03,-0.01,-0.00,31.81
6189189,1826,1,207100,240690,1.20,-0.44,9.90,-0.04,-0.00,-0.00,31.81
6229192,1781,1,207334,241465,1.21,-0.42,9.90,-0.04,0.01,-0.01,31.81
6269169,1773,1,207633,242567,1.22,-0.44,9.95,-0.03,-0.01,-0.00,31.81
6309192,1771,1,208101,243696,1.21,-0.44,9.91,-0.03,-0.00,-0.00,31.81
6349189,1763,1,208424,244203,1.19,-0.42,9.96,-0.03,-0.00,-0.00,31.81
6389226,1725,1,208492,244439,1.20,-0.44,9.90,-0.03,-0.01,-0.00,31.81
6429189,1711,1,208658,245024,1.22,-0.44,9.91,-0.03,0.01,-0.00,31.81
6469172,1711,1,208964,245730,1.20,-0.43,9.91,-0.04,0.00,-0.00,31.81
6509169,1729,1,209130,245750,1.20,-0.41,9.99,-0.04,-0.01,-0.00,31.81
6549192,1733,1,209040,245375,1.19,-0.43,9.95,-0.03,-0.02,-0.00,31.81
6589230,1739,1,208885,244103,1.18,-0.45,9.94,-0.03,-0.03,-0.00,31.81
6629193,1798,1,207822,240864,1.22,-0.43,9.91,-0.03,-0.03,-0.00,31.81
6669190,1871,1,206856,239582,1.21,-0.44,9.98,-0.03,-0.03,-0.00,31.81
6709192,1842,1,206630,239560,1.23,-0.44,9.93,-0.03,-0.02,-0.00,31.81
6749189,1878,1,206855,240328,1.24,-0.41,9.87,-0.04,0.01,-0.00,31.81
6789172,1924,1,207158,241426,1.21,-0.44,9.97,-0.03,0.01,-0.00,31.81
6829169,1897,1,207597,242381,1.25,-0.45,9.90,-0.03,-0.00,-0.00,31.81
6869193,1942,1,207888,242756,1.20,-0.43,9.95,-0.03,-0.01,-0.00,31.81
6909189,1967,1,207898,242645,1.22,-0.43,9.96,-0.03,-0.01,-0.00,31.81
6949192,1926,1,207778,242484,1.22,-0.43,9.91,-0.03,-0.02,-0.00,31.81
6989192,2005,1,207814,242872,1.25,-0.45,9.89,-0.03,0.00,-0.00,31.81
7028172,2064,1,208030,243589,1.21,-0.42,9.89,-0.03,-0.00,-0.00,31.81
7068189,2066,1,208316,244152,1.22,-0.44,9.93,-0.03,0.01,-0.00,31.81
7108859,1948,1,208427,243372,1.19,-0.43,9.94,-0.03,-0.02,-0.00,31.81
7149190,1913,1,207454,240365,1.20,-0.41,9.93,-0.04,-0.03,-0.00,31.81
7189192,1843,1,206555,239177,1.24,-0.44,9.95,-0.03,-0.04,-0.00,31.81
7229190,1780,1,206452,239185,1.23,-0.42,9.95,-0.03,-0.04,-0.00,31.81
7269193,1770,1,206582,239498,1.24,-0.44,9.93,-0.03,-0.02,-0.00,31.81
7309190,1711,1,206787,240361,1.24,-0.44,9.91,-0.03,-0.01,-0.00,31.81
7349192,1642,1,207186,241252,1.24,-0.44,9.92,-0.04,-0.00,-0.00,31.81
7389189,1571,1,207470,242007,1.22,-0.43,9.91,-0.04,0.01,-0.01,31.81
7429172,1521,1,207653,242513,1.23,-0.43,9.92,-0.03,-0.01,-0.00,31.81
7469193,1535,1,207954,243205,1.24,-0.44,9.94,-0.03,-0.00,-0.00,31.81
7509192,1566,1,208179,243590,1.24,-0.42,9.94,-0.03,-0.01,-0.00,31.81
7549189,1579,1,208280,243854,1.23,-0.44,9.90,-0.03,-0.02,-0.00,31.81
7589192,1575,1,208415,244049,1.23,-0.42,9.93,-0.03,-0.01,-0.00,31.81
7629192,1605,1,208333,242960,1.21,-0.43,9.89,-0.03,-0.01,-0.01,31.81
7669192,1620,1,207353,240391,1.23,-0.45,9.93,-0.03,-0.00,-0.00,31.81
7709189,1627,1,206745,240020,1.24,-0.43,9.88,-0.03,-0.01,-0.00,31.81
7749192,1631,1,206706,240343,1.21,-0.44,9.97,-0.03,0.00,-0.00,31.81
7789169,1649,1,206856,240571,1.21,-0.44,9.94,-0.03,-0.01,-0.00,31.81
7829258,1727,1,206956,241092,1.24,-0.46,9.96,-0.03,-0.01,-0.00,31.81
7869192,1746,1,207154,241455,1.23,-0.44,9.91,-0.03,-0.02,-0.00,31.81
7909192,1792,1,207218,241816,1.24,-0.45,9.93,-0.03,-0.01,-0.00,31.81
7949192,1798,1,207360,242261,1.22,-0.42,9.92,-0.03,-0.01,-0.00,31.81
7989192,1824,1,207570,242716,1.23,-0.43,9.94,-0.04,-0.00,-0.00,31.81
8028230,1921,1,207619,243063,1.23,-0.43,9.94,-0.03,-0.01,-0.00,31.81
8068192,1939,1,207808,243293,1.24,-0.42,9.91,-0.03,-0.02,-0.00,31.81
8108876,1915,1,207904,243250,1.22,-0.43,9.97,-0.03,-0.02,-0.00,31.89
8149192,1922,1,207969,242382,1.25,-0.40,9.88,-0.03,-0.01,-0.00,31.89
8189189,1950,1,207016,239984,1.24,-0.44,9.96,-0.03,-0.01,-0.00,31.89
8229230,1984,1,206446,239307,1.23,-0.44,9.95,-0.03,-0.01,-0.01,31.89
8269193,2037,1,206382,239889,1.25,-0.44,9.91,-0.03,0.00,-0.00,31.89
8309172,1987,1,206621,240698,1.21,-0.44,9.95,-0.04,0.01,-0.01,31.89
8349172,2000,1,206928,241491,1.24,-0.45,9.93,-0.03,-0.01,-0.01,31.89
8389193,2026,1,207316,242297,1.22,-0.43,9.90,-0.03,-0.01,-0.00,31.89
8429206,2061,1,207534,242795,1.25,-0.43,9.93,-0.03,-0.01,-0.00,31.89
8469192,2055,1,207619,242557,1.22,-0.43,9.96,-0.03,-0.01,-0.01,31.89
8509192,2064,1,207429,242133,1.25,-0.45,9.91,-0.03,-0.04,-0.00,31.89
8549192,2065,1,207551,242485,1.26,-0.43,9.85,-0.03,-0.02,-0.00,31.89
8589190,2096,1,207771,243304,1.24,-0.44,9.96,-0.04,0.00,-0.00,31.89
8629172,2101,1,208109,244082,1.24,-0.42,9.92,-0.03,-0.01,-0.00,31.89
8669192,2096,1,208278,244559,1.24,-0.45,9.92,-0.03,0.00,-0.00,31.89
8709172,2096,1,207794,241955,1.23,-0.45,9.90,-0.03,-0.00,-0.01,31.89
8749190,2113,1,206748,240450,1.22,-0.44,9.94,-0.03,-0.01,-0.01,31.89
8789192,2109,1,206625,240469,1.23,-0.44,9.92,-0.03,-0.01,-0.00,31.89
8829192,2122,1,206719,240724,1.19,-0.43,9.97,-0.03,-0.01,-0.00,31.89
8869192,2112,1,206844,240970,1.23,-0.42,9.95,-0.03,-0.02,-0.00,31.89
8909189,2153,1,207039,241348,1.25,-0.43,9.91,-0.03,-0.02,-0.00,31.89
8949192,2079,1,207171,241732,1.26,-0.42,9.93,-0.03,-0.01,-0.00,31.89
8989189,2096,1,207249,242162,1.22,-0.43,9.93,-0.03,-0.00,-0.00,31.89
9029193,2122,1,207353,242599,1.23,-0.45,9.93,-0.03,-0.00,-0.01,31.89
9068189,2126,1,207523,243196,1.24,-0.44,9.94,-0.03,-0.01,-0.00,31.89
9108192,2128,1,207810,243638,1.21,-0.43,9.95,-0.03,-0.00,-0.00,31.89
9148876,2059,1,207946,244156,1.22,-0.43,9.93,-0.03,-0.01,-0.01,31.83
9189192,2055,1,208187,244576,1.21,-0.42,9.94,-0.03,-0.01,-0.00,31.83
9229189,2085,1,208194,242851,1.24,-0.45,9.89,-0.03,-0.01,-0.00,31.83
9269192,2018,1,207131,240432,1.24,-0.42,9.92,-0.03,-0.01,-0.00,31.83
9309189,2062,1,206633,240053,1.22,-0.45,9.95,-0.03,-0.01,-0.01,31.83
9349193,2005,1,206762,240324,1.21,-0.44,9.93,-0.03,-0.01,-0.00,31.83
9389193,2032,1,206884,241083,1.23,-0.43,9.93,-0.03,-0.00,-0.00,31.83
9429193,1999,1,207269,241702,1.20,-0.42,9.99,-0.03,-0.01,-0.00,31.83
9469190,1973,1,207340,241919,1.22,-0.43,9.96,-0.03,-0.02,-0.00,31.83
9509192,1941,1,207778,242094,1.24,-0.43,9.91,-0.03,-0.01,-0.00,31.83
9549192,1961,1,207957,242667,1.24,-0.45,9.89,-0.03,-0.01,-0.01,31.83
9589192,1917,1,208203,243188,1.23,-0.45,9.94,-0.03,-0.00,-0.00,31.83
9629190,1920,1,208418,243613,1.23,-0.43,9.91,-0.03,-0.01,-0.00,31.83
9669192,1841,1,208599,244150,1.22,-0.42,9.89,-0.03,-0.01,-0.00,31.83
9709189,1850,1,208809,244547,1.21,-0.44,9.95,-0.03,-0.01,-0.00,31.83
9749192,1856,1,208908,243674,1.23,-0.43,9.90,-0.03,-0.01,-0.00,31.83
9789189,1808,1,207815,241001,1.23,-0.44,9.93,-0.03,-0.01,-0.00,31.83
9829192,1837,1,207236,240436,1.22,-0.44,9.93,-0.03,-0.01,-0.00,31.83
9869192,1810,1,207222,240801,1.20,-0.44,9.94,-0.03,-0.01,-0.00,31.83
9909192,1799,1,207361,241199,1.23,-0.45,9.90,-0.03,-0.01,-0.00,31.83
9949189,1773,1,207670,241688,1.25,-0.45,9.88,-0.03,-0.00,-0.00,31.83
9989192,1778,1,207759,241679,1.22,-0.43,9.95,-0.03,-0.03,-0.00,31.83
10029193,1792,1,207786,241683,1.21,-0.44,9.92,-0.03,-0.01,-0.00,31.83
10069192,1774,1,207793,241804,1.24,-0.41,9.90,-0.03,-0.01,-0.00,31.83
10109192,1776,1,207874,242263,1.23,-0.44,9.90,-0.03,-0.01,-0.00,31.83
10149879,1759,1,208065,242901,1.22,-0.43,9.95,-0.04,-0.01,-0.00,31.71
10188192,1808,1,208259,243276,1.21,-0.42,9.92,-0.03,-0.01,-0.00,31.71
10228192,1802,1,208432,243646,1.24,-0.42,9.92,-0.03,-0.01,-0.00,31.71
10268192,1803,1,208521,243142,1.22,-0.44,9.95,-0.03,-0.01,-0.00,31.71
10308192,1790,1,207673,240568,1.24,-0.43,9.92,-0.03,-0.01,-0.00,31.71
10348192,1776,1,207009,239860,1.24,-0.44,9.91,-0.03,-0.00,-0.00,31.71
10388192,1881,1,206993,240040,1.23,-0.43,9.94,-0.03,-0.01,-0.00,31.71
10428192,1807,1,207034,240282,1.21,-0.42,9.92,-0.03,-0.02,-0.00,31.71
10468192,1838,1,207163,240686,1.20,-0.46,9.91,-0.03,-0.02,-0.00,31.71
10508189,1870,1,207422,241416,1.23,-0.42,9.93,-0.03,-0.01,-0.01,31.71
10548192,1891,1,207684,242049,1.24,-0.42,9.95,-0.04,-0.01,-0.00,31.71
10588192,1946,1,207865,242459,1.21,-0.43,9.93,-0.03,0.00,-0.01,31.71
10628172,1986,1,207989,242525,1.19,-0.42,9.96,-0.03,-0.01,-0.00,31.71
10668192,1981,1,208084,243142,1.23,-0.42,9.94,-0.03,-0.01,-0.00,31.71
10708192,1941,1,208341,243778,1.23,-0.44,9.94,-0.03,-0.01,-0.00,31.71
10748192,1981,1,208535,244154,1.20,-0.45,9.93,-0.03,-0.01,-0.00,31.71
10788192,2014,1,208674,244047,1.24,-0.42,9.94,-0.03,-0.02,-0.00,31.71
10828192,2005,1,208045,241240,1.24,-0.44,9.94,-0.03,-0.01,-0.00,31.71
10868192,2057,1,207070,240069,1.24,-0.45,9.92,-0.03,-0.01,-0.01,31.71
10908192,2062,1,206939,240410,1.22,-0.44,9.92,-0.03,-0.00,-0.00,31.71
10948192,1998,1,207150,240914,1.21,-0.43,9.93,-0.04,-0.00,-0.00,31.71
10988189,2007,1,207248,241309,1.20,-0.43,9.96,-0.03,-0.02,-0.01,31.71
11028192,1974,1,207533,241853,1.24,-0.44,9.94,-0.03,-0.01,-0.00,31.71
11068192,1968,1,207684,242392,1.21,-0.45,9.93,-0.03,-0.00,-0.00,31.71
11108193,1968,1,207926,243295,1.22,-0.42,9.94,-0.04,-0.01,-0.00,31.71
11148192,1915,1,208273,243596,1.20,-0.45,9.95,-0.03,-0.00,-0.00,31.71
11188879,1865,1,208204,243628,1.20,-0.41,9.95,-0.03,-0.02,-0.00,31.71
11229192,1808,1,208305,244081,1.23,-0.42,9.91,-0.03,-0.01,-0.01,31.71
11269192,1738,1,208503,244537,1.22,-0.42,9.93,-0.03,-0.01,-0.00,31.71
11309192,1792,1,208713,245072,1.23,-0.42,9.91,-0.04,-0.01,-0.00,31.71
11349192,1703,1,208544,242689,1.22,-0.43,9.93,-0.03,-0.02,-0.00,31.71
11389192,1712,1,207226,240600,1.22,-0.43,9.90,-0.03,-0.01,-0.00,31.71
11429192,1680,1,206914,240594,1.23,-0.44,9.94,-0.03,-0.00,-0.00,31.71
11469192,1627,1,207108,241518,1.23,-0.43,9.92,-0.04,0.01,-0.01,31.71
11509220,1602,1,207524,242283,1.20,-0.44,9.92,-0.03,0.01,-0.01,31.71
11549172,1639,1,207760,243029,1.20,-0.44,9.94,-0.03,-0.02,-0.00,31.71
11589192,1702,1,208087,243701,1.23,-0.44,9.95,-0.03,-0.01,-0.00,31.71
11629192,1647,1,208257,243821,1.19,-0.45,9.93,-0.03,-0.01,-0.00,31.71
11669192,1582,1,208304,244105,1.21,-0.43,9.92,-0.03,-0.01,-0.00,31.71
11709235,1660,1,208489,244320,1.19,-0.44,9.95,-0.03,-0.00,-0.00,31.71
11749192,1621,1,208569,244613,1.19,-0.45,9.89,-0.03,-0.02,-0.01,31.71
11789192,1659,1,208729,244909,1.22,-0.43,9.94,-0.03,-0.01,-0.00,31.71
11829193,1618,1,208841,245373,1.21,-0.42,9.96,-0.03,-0.01,-0.00,31.71
11869192,1668,1,208823,243849,1.19,-0.43,9.96,-0.03,-0.02,-0.00,31.71
11909192,1664,1,207505,240764,1.22,-0.44,9.90,-0.03,-0.02,-0.00,31.71
11949192,1638,1,206862,240301,1.23,-0.42,9.92,-0.04,-0.01,-0.01,31.71
11989193,1680,1,206968,240849,1.20,-0.42,9.91,-0.04,0.01,-0.00,31.71
12029172,1705,1,207101,241248,1.18,-0.43,9.95,-0.03,-0.02,-0.01,31.71
12069193,1715,1,207394,242048,1.22,-0.43,9.94,-0.03,-0.01,-0.00,31.71
12109192,1756,1,207618,242384,1.22,-0.43,9.94,-0.03,-0.03,-0.00,31.71
12149192,1726,1,207696,242643,1.21,-0.41,9.91,-0.03,-0.02,-0.00,31.71
12189879,1754,1,207889,242833,1.23,-0.41,9.94,-0.03,-0.01,-0.00,31.71
12228199,1821,1,207954,243113,1.21,-0.43,9.90,-0.03,-0.02,-0.00,31.71
12268190,1778,1,208129,243698,1.24,-0.42,9.93,-0.03,-0.01,-0.01,31.71
12308192,1821,1,208350,244223,1.22,-0.45,9.94,-0.03,-0.02,-0.01,31.71
12348192,1858,1,208548,244757,1.23,-0.42,9.91,-0.03,-0.01,-0.00,31.71
12388192,1826,1,208714,243995,1.21,-0.42,9.92,-0.03,-0.01,-0.01,31.71
12428193,1843,1,207689,241313,1.23,-0.44,9.92,-0.03,-0.01,-0.00,31.71
12468192,1788,1,207124,240813,1.22,-0.44,9.94,-0.03,0.00,-0.00,31.71
12508172,1835,1,207093,241047,1.22,-0.43,9.93,-0.03,-0.02,-0.00,31.71
12548192,1904,1,207198,241430,1.21,-0.44,9.93,-0.03,-0.01,-0.01,31.71
12588192,1894,1,207525,242303,1.24,-0.42,9.92,-0.04,-0.02,-0.00,31.71
12628192,1936,1,207744,242434,1.19,-0.44,9.98,-0.03,-0.02,-0.00,31.71
12668192,1903,1,207829,242603,1.22,-0.42,9.90,-0.03,-0.01,-0.00,31.71
12708192,1872,1,207894,242871,1.22,-0.43,9.92,-0.03,-0.01,-0.00,31.71
12748192,1913,1,208057,243478,1.23,-0.45,9.93,-0.03,-0.00,-0.00,31.71
12788192,1853,1,208367,244227,1.26,-0.44,9.89,-0.04,0.01,-0.00,31.71
12828172,1978,1,208527,244448,1.21,-0.43,10.00,-0.03,-0.03,-0.00,31.71
12868192,1963,1,208666,244763,1.23,-0.45,9.92,-0.03,-0.01,-0.00,31.71
12908192,2061,1,208729,243809,1.24,-0.45,9.90,-0.03,-0.01,-0.01,31.71
12948198,1989,1,207721,241310,1.24,-0.44,9.90,-0.03,-0.00,-0.00,31.71
12988189,2046,1,207166,240825,1.24,-0.43,9.94,-0.04,0.01,-0.01,31.71
13028172,2027,1,207128,240884,1.19,-0.42,9.96,-0.03,-0.03,-0.00,31.71
13068192,2003,1,207204,241044,1.20,-0.42,9.92,-0.03,-0.02,-0.00,31.71
13108192,2027,1,207358,241361,1.23,-0.44,9.93,-0.03,-0.01,-0.00,31.71
13148196,2006,1,207539,241788,1.23,-0.42,9.93,-0.03,-0.01,-0.00,31.71
13188192,2038,1,207592,241762,1.21,-0.42,9.98,-0.03,-0.01,-0.00,31.71
13228879,1968,1,207693,242055,1.27,-0.43,9.86,-0.03,-0.01,-0.00,31.83
13267192,2002,1,207718,242134,1.23,-0.43,9.96,-0.03,-0.01,-0.01,31.83
13307192,2007,1,207829,242902,1.22,-0.44,9.93,-0.03,0.00,-0.00,31.83
13347206,2035,1,208249,243761,1.22,-0.42,9.96,-0.04,-0.01,-0.00,31.83
13387192,2000,1,208468,244124,1.23,-0.43,9.96,-0.03,-0.02,-0.00,31.83
13427192,1943,1,208521,243010,1.21,-0.45,9.96,-0.03,0.00,-0.00,31.83
13467169,1950,1,207507,240640,1.22,-0.42,9.89,-0.03,-0.00,-0.00,31.83
13507192,1925,1,207043,240479,1.23,-0.43,9.93,-0.03,0.00,-0.00,31.83
13547169,1936,1,207101,240665,1.17,-0.43,9.99,-0.03,0.01,-0.00,31.83
13587172,1899,1,207156,240728,1.23,-0.45,9.91,-0.03,-0.03,-0.00,31.83
13627192,1863,1,207224,241143,1.23,-0.42,9.96,-0.03,-0.02,-0.00,31.83
13667192,1859,1,207395,241643,1.23,-0.44,9.96,-0.03,-0.01,-0.00,31.83
13707192,1895,1,207561,241941,1.25,-0.44,9.90,-0.04,-0.00,-0.00,31.83
13747192,1856,1,207630,241836,1.20,-0.43,9.95,-0.03,-0.02,-0.00,31.83
13787189,1648,1,207746,242118,1.21,-0.43,9.92,-0.03,-0.01,-0.00,31.83
13827192,1833,1,207810,242658,1.25,-0.43,9.92,-0.03,-0.01,-0.01,31.83
13867192,1798,1,208112,243776,1.20,-0.42,9.90,-0.04,0.00,-0.00,31.83
13907172,1841,1,208430,243911,1.17,-0.43,10.00,-0.03,-0.00,-0.00,31.83
13947189,1837,1,208314,242577,1.22,-0.44,9.92,-0.03,-0.03,-0.00,31.83
13987192,1857,1,207275,240120,1.24,-0.43,9.91,-0.03,-0.02,-0.00,31.83
14027195,1770,1,206716,239480,1.25,-0.43,9.91,-0.03,-0.01,-0.00,31.83
14067192,1835,1,206723,239690,1.22,-0.42,9.94,-0.03,0.00,-0.00,31.83
14107169,1805,1,206744,239931,1.22,-0.45,9.95,-0.03,-0.01,-0.00,31.83
14147192,1778,1,206870,240293,1.23,-0.44,9.93,-0.03,-0.02,-0.00,31.83
14187192,1787,1,206977,240471,1.24,-0.43,9.93,-0.03,-0.02,-0.00,31.83
14227192,1760,1,207041,240622,1.25,-0.44,9.92,-0.03,-0.02,-0.00,31.83
14267878,1753,1,207117,240869,1.21,-0.43,9.92,-0.03,-0.01,-0.00,31.85
14308192,1801,1,207238,241458,1.22,-0.44,9.89,-0.03,-0.01,-0.00,31.85
14348192,1808,1,207491,242195,1.20,-0.44,9.94,-0.03,0.00,-0.00,31.85
14388172,1732,1,207785,243198,1.22,-0.40,9.90,-0.03,-0.02,-0.00,31.85
14428189,1759,1,208145,243652,1.22,-0.42,9.96,-0.04,-0.01,-0.00,31.85
14468192,1680,1,207997,241592,1.22,-0.43,9.95,-0.03,-0.03,-0.00,31.85
14508193,1750,1,206791,239150,1.27,-0.41,9.90,-0.03,-0.03,-0.00,31.85
14548192,1730,1,206211,238570,1.27,-0.43,9.90,-0.03,-0.02,-0.00,31.85
14588190,1747,1,206260,238575,1.23,-0.43,9.92,-0.03,-0.01,-0.00,31.85
14628192,1744,1,206324,238901,1.27,-0.43,9.93,-0.03,-0.01,-0.00,31.85
14668192,1706,1,206560,239742,1.27,-0.43,9.94,-0.04,-0.01,-0.00,31.85
14708192,1725,1,206891,240559,1.26,-0.43,9.93,-0.03,-0.01,-0.00,31.85
14748193,1707,1,207102,241411,1.23,-0.43,9.92,-0.03,0.00,-0.01,31.85
14788192,1705,1,207436,242549,1.22,-0.44,9.96,-0.03,0.01,-0.00,31.85
14828172,1697,1,207857,243401,1.23,-0.43,9.95,-0.03,0.00,-0.00,31.85
14868172,1744,1,208079,243686,1.22,-0.44,9.92,-0.03,-0.02,-0.00,31.85
14908192,1748,1,208142,243637,1.24,-0.42,9.93,-0.03,-0.02,-0.00,31.85
14948192,1771,1,208138,243481,1.24,-0.42,9.90,-0.03,-0.02,-0.00,31.85
14988222,1797,1,207844,241351,1.24,-0.44,9.93,-0.03,-0.01,-0.01,31.85
15028192,1823,1,206812,239262,1.24,-0.45,9.94,-0.03,0.00,-0.01,31.85
15068172,1854,1,206265,238535,1.25,-0.44,9.95,-0.03,-0.03,-0.00,31.85
15108192,1855,1,206197,238580,1.23,-0.44,9.94,-0.03,-0.01,-0.00,31.85
15148192,1850,1,206330,238958,1.24,-0.45,9.93,-0.03,-0.02,-0.00,31.85
15188216,1782,1,206496,239559,1.25,-0.42,9.94,-0.03,-0.01,-0.00,31.85
15228192,1853,1,206700,239758,1.23,-0.43,9.93,-0.03,-0.01,-0.00,31.85
15268879,1831,1,206712,240004,1.26,-0.44,9.88,-0.03,-0.02,-0.00,31.67
15307192,1855,1,206799,240307,1.25,-0.45,9.92,-0.03,-0.01,-0.00,31.67
15347192,1904,1,207063,241083,1.28,-0.44,9.87,-0.04,0.01,-0.00,31.67
15387172,1892,1,207291,241882,1.23,-0.43,9.96,-0.03,0.00,-0.01,31.67
15427172,1774,1,207588,242859,1.23,-0.42,9.94,-0.03,0.03,-0.01,31.67
15467172,1835,1,208071,243908,1.23,-0.44,9.94,-0.04,0.01,-0.01,31.67
15507172,1833,1,208002,241697,1.21,-0.41,9.94,-0.04,0.00,-0.00,31.67
15547169,1859,1,206809,239150,1.24,-0.45,9.94,-0.04,-0.02,-0.01,31.67
15587192,1872,1,205998,237759,1.21,-0.45,10.00,-0.03,-0.08,-0.00,31.67
15627189,1874,1,205778,237819,1.26,-0.43,9.92,-0.03,-0.08,-0.00,31.67
15667192,1859,1,206060,238498,1.31,-0.41,9.87,-0.03,-0.03,-0.00,31.67
15707192,1894,1,206547,239483,1.29,-0.42,9.90,-0.03,-0.01,-0.00,31.67
15747192,1933,1,207045,240439,1.26,-0.41,9.93,-0.03,0.00,-0.00,31.67
15787169,1863,1,207357,241473,1.27,-0.43,9.91,-0.04,0.02,-0.01,31.67
15827172,1892,1,207714,242404,1.24,-0.43,9.94,-0.03,0.03,-0.01,31.67
15867173,1858,1,207847,242893,1.26,-0.42,9.93,-0.03,0.00,-0.01,31.67
15907172,1890,1,208116,243692,1.20,-0.41,9.94,-0.03,0.01,-0.00,31.67
15947172,1936,1,208432,244259,1.24,-0.43,9.90,-0.04,0.03,-0.01,31.67
15987172,1931,1,208593,243939,1.23,-0.43,9.91,-0.04,-0.01,-0.00,31.67
16027195,1891,1,207974,240505,1.17,-0.44,9.99,-0.03,-0.04,-0.00,31.67
16067192,1987,1,206573,237780,1.25,-0.45,9.86,-0.04,-0.07,-0.00,31.67
16107192,1921,1,205941,236570,1.25,-0.45,9.95,-0.03,-0.01,-0.01,31.67
16147193,1943,1,206305,237346,1.29,-0.46,9.85,-0.04,-0.01,-0.00,31.67
16187192,1957,1,206703,238343,1.23,-0.45,9.91,-0.03,-0.01,-0.00,31.67
16227192,1923,1,207159,239970,1.27,-0.43,9.83,-0.04,0.03,-0.00,31.67
16267173,1946,1,207550,241586,1.22,-0.44,9.91,-0.03,0.06,-0.00,31.67
16307858,1843,1,208004,242942,1.20,-0.43,9.92,-0.03,0.07,-0.01,31.57
16348172,1883,1,208609,243439,1.13,-0.43,10.01,-0.04,0.02,-0.01,31.57
16388172,1813,1,208386,242189,1.14,-0.43,9.99,-0.04,-0.03,-0.00,31.57
16428192,1879,1,207531,240417,1.17,-0.42,9.96,-0.03,-0.09,-0.00,31.57
16468192,1931,1,207228,240357,1.29,-0.44,9.82,-0.04,-0.07,-0.00,31.57
16508192,1905,1,208054,242032,1.24,-0.42,9.93,-0.04,-0.05,-0.00,31.57
16548192,1887,1,209035,241843,1.25,-0.43,9.92,-0.03,0.02,-0.01,31.57
16588172,1853,1,208548,240429,1.24,-0.45,9.89,-0.03,-0.01,-0.00,31.57
16628193,1875,1,208040,240108,1.25,-0.42,9.91,-0.04,0.04,-0.01,31.57
16668172,1851,1,207780,240418,1.19,-0.44,9.95,-0.03,0.03,-0.01,31.57
16708172,1873,1,207702,240788,1.19,-0.43,9.93,-0.03,0.00,-0.00,31.57
16748169,1840,1,207738,241065,1.16,-0.45,9.96,-0.03,-0.02,-0.00,31.57
16788192,1839,1,207749,241107,1.23,-0.44,9.90,-0.03,-0.04,-0.00,31.57
16828207,1792,1,207793,241141,1.24,-0.43,9.93,-0.03,-0.01,-0.00,31.57
16868192,1773,1,207827,241342,1.21,-0.44,9.93,-0.03,0.00,-0.00,31.57
16908169,1763,1,207933,241521,1.18,-0.42,9.95,-0.03,-0.01,-0.00,31.57
16948192,1749,1,208004,241579,1.24,-0.40,9.90,-0.03,-0.02,-0.00,31.57
16988189,1762,1,208119,241888,1.20,-0.42,9.97,-0.03,-0.03,-0.00,31.57
17028192,1731,1,208287,242378,1.24,-0.44,9.94,-0.03,-0.01,-0.00,31.57
17067192,1767,1,208353,241652,1.21,-0.45,9.92,-0.04,-0.01,-0.00,31.57
17107192,1709,1,207639,239822,1.23,-0.42,9.95,-0.03,-0.01,-0.00,31.57
17147192,1751,1,207209,239496,1.22,-0.42,9.92,-0.03,-0.01,-0.01,31.57
17187192,1759,1,207347,240200,1.22,-0.41,9.91,-0.03,-0.00,-0.00,31.57
17227193,1813,1,207632,240922,1.22,-0.43,9.92,-0.04,0.03,-0.01,31.57
17267172,1836,1,207750,241487,1.15,-0.44,9.99,-0.03,-0.00,-0.00,31.57
17307192,1767,1,207990,242127,1.22,-0.44,9.93,-0.03,-0.01,-0.00,31.57
17347879,1797,1,208142,242235,1.19,-0.44,9.95,-0.03,-0.01,-0.00,31.77
17388192,1793,1,208135,242084,1.20,-0.41,9.96,-0.04,-0.02,-0.00,31.77
17428192,1743,1,208027,241693,1.19,-0.43,9.96,-0.03,-0.04,-0.00,31.77
17468192,1748,1,208039,241622,1.21,-0.45,9.95,-0.03,-0.07,-0.00,31.77
17508192,1732,1,208258,242234,1.29,-0.44,9.91,-0.03,-0.04,-0.00,31.77
17548192,1716,1,208752,243136,1.26,-0.43,9.93,-0.04,-0.01,-0.00,31.77
17588192,1762,1,208926,242474,1.24,-0.45,9.94,-0.03,0.00,-0.00,31.77
17628169,1719,1,208181,240999,1.26,-0.43,9.91,-0.03,-0.00,-0.01,31.77
17668193,1818,1,207838,240955,1.24,-0.42,9.91,-0.04,-0.00,-0.00,31.77
17708190,1649,1,207931,241319,1.23,-0.43,9.91,-0.03,0.01,-0.01,31.77
17748172,1707,1,208018,241768,1.24,-0.41,9.94,-0.03,-0.00,-0.01,31.77
17788192,1642,1,208273,242742,1.27,-0.44,9.90,-0.04,0.00,-0.01,31.77
17828172,1663,1,208491,243219,1.22,-0.42,9.96,-0.03,-0.03,-0.00,31.77
17868192,1629,1,208726,243415,1.21,-0.42,9.95,-0.03,-0.00,-0.00,31.77
17908192,1641,1,208659,243121,1.22,-0.44,9.96,-0.03,-0.03,-0.00,31.77
17948192,1581,1,208711,242892,1.26,-0.42,9.95,-0.03,-0.03,-0.00,31.77
17988192,1606,1,208790,243006,1.25,-0.42,9.93,-0.03,-0.04,-0.00,31.77
18028192,1616,1,208976,243564,1.29,-0.44,9.90,-0.03,-0.01,-0.00,31.77
18067192,1638,1,209292,244679,1.27,-0.41,9.89,-0.04,0.00,-0.00,31.77
18107172,1657,1,209502,244266,1.25,-0.43,9.92,-0.04,0.02,-0.00,31.77
18147172,1761,1,208643,242354,1.22,-0.43,9.96,-0.04,0.02,-0.01,31.77
18187172,1788,1,208198,241892,1.22,-0.44,9.93,-0.03,-0.02,-0.00,31.77
18227192,1781,1,208173,242049,1.23,-0.42,9.94,-0.03,-0.01,-0.00,31.77
18267193,1849,1,208104,242121,1.22,-0.43,9.93,-0.03,-0.00,-0.00,31.77
18307192,1850,1,208262,242718,1.25,-0.43,9.91,-0.03,-0.02,-0.00,31.77
18347878,1839,1,208516,242958,1.25,-0.44,9.94,-0.04,-0.00,-0.01,31.75
18388192,1841,1,208422,242499,1.18,-0.45,10.02,-0.03,-0.03,-0.00,31.75
18428193,1872,1,208426,242790,1.30,-0.41,9.83,-0.03,-0.00,-0.01,31.75
18468192,1902,1,208527,242917,1.24,-0.44,9.94,-0.03,-0.01,-0.00,31.75
18508192,1955,1,208631,243124,1.24,-0.42,9.93,-0.03,-0.03,-0.00,31.75
18548192,1901,1,208782,243531,1.25,-0.43,9.96,-0.03,-0.02,-0.00,31.75
18588192,1929,1,209001,244715,1.25,-0.40,9.90,-0.04,-0.00,-0.00,31.75
18628192,1911,1,209442,244870,1.24,-0.42,9.95,-0.04,0.03,-0.01,31.75
18668173,1983,1,208674,242762,1.23,-0.43,9.92,-0.04,-0.00,-0.00,31.75
18708192,1963,1,208124,241885,1.23,-0.43,9.97,-0.03,-0.01,-0.00,31.75
18748193,1993,1,207962,241798,1.25,-0.43,9.90,-0.03,-0.04,-0.00,31.75
18788192,2022,1,208074,242047,1.24,-0.42,9.89,-0.03,-0.02,-0.00,31.75
18828192,2010,1,208264,242538,1.23,-0.43,9.96,-0.03,-0.03,-0.00,31.75
18868192,2004,1,208532,243076,1.25,-0.43,9.90,-0.04,-0.01,-0.00,31.75
18908193,1991,1,208618,243427,1.23,-0.43,9.93,-0.03,-0.00,-0.00,31.75
18948193,1987,1,208790,243936,1.24,-0.43,9.92,-0.04,-0.00,-0.00,31.75
18988189,2001,1,208962,244384,1.24,-0.44,9.96,-0.03,-0.01,-0.00,31.75
19028192,1991,1,209152,244930,1.24,-0.43,9.91,-0.03,-0.01,-0.00,31.75
19068192,2006,1,209452,245479,1.24,-0.43,9.94,-0.03,-0.01,-0.00,31.75
19107192,1983,1,209723,246000,1.25,-0.43,9.89,-0.03,-0.01,-0.00,31.75
19147192,1967,1,209792,245375,1.23,-0.44,9.92,-0.03,-0.02,-0.00,31.75
19187192,1940,1,208992,243168,1.26,-0.44,9.94,-0.03,-0.00,-0.00,31.75
19227193,1965,1,208429,242547,1.26,-0.44,9.94,-0.03,-0.01,-0.00,31.75
19267192,1888,1,208402,242729,1.27,-0.45,9.89,-0.03,0.01,-0.01,31.75
19307172,1951,1,208491,242877,1.24,-0.42,9.96,-0.03,-0.03,-0.00,31.75
19347192,1915,1,208671,243482,1.24,-0.43,9.91,-0.03,-0.01,-0.00,31.75
19387879,1894,1,208827,243910,1.27,-0.41,9.92,-0.03,-0.01,-0.00,31.57
19428192,1867,1,208854,243974,1.24,-0.42,9.96,-0.03,-0.02,-0.00,31.57
19468192,1901,1,208938,244165,1.26,-0.41,9.93,-0.03,-0.01,-0.00,31.57
19508193,1930,1,209100,244483,1.24,-0.45,9.93,-0.03,-0.01,-0.00,31.57
19548192,1894,1,209207,244772,1.26,-0.43,9.90,-0.03,-0.02,-0.00,31.57
19588193,1907,1,209375,245196,1.25,-0.41,9.93,-0.03,-0.01,-0.00,31.57
19628192,1949,1,209529,245583,1.25,-0.41,9.91,-0.03,-0.00,-0.00,31.57
19668192,1958,1,209565,244718,1.22,-0.44,9.93,-0.03,-0.01,-0.00,31.57
19708192,1991,1,208826,242774,1.27,-0.43,9.93,-0.03,-0.01,-0.00,31.57
19748192,1959,1,208315,242236,1.24,-0.42,9.90,-0.03,-0.00,-0.00,31.57
19788190,1933,1,208294,242362,1.24,-0.43,9.93,-0.03,-0.01,-0.00,31.57
19828192,1919,1,208358,242672,1.26,-0.42,9.90,-0.03,-0.01,-0.00,31.57
19868189,1868,1,208532,243233,1.24,-0.43,9.94,-0.03,-0.01,-0.00,31.57
19908205,1854,1,208740,243526,1.26,-0.43,9.96,-0.03,-0.01,-0.00,31.57
19946192,1869,1,208816,243657,1.24,-0.45,9.92,-0.03,-0.02,-0.00,31.57
19986192,1781,1,208915,244044,1.27,-0.42,9.90,-0.03,-0.02,-0.00,31.57
20026198,1797,1,209052,244429,1.26,-0.42,9.95,-0.03,-0.00,-0.00,31.57
20066192,1723,1,209235,244898,1.26,-0.43,9.93,-0.03,-0.01,-0.00,31.57
20106211,1695,1,209436,245458,1.25,-0.43,9.92,-0.03,-0.01,-0.00,31.57
20146192,1650,1,209659,245858,1.24,-0.42,9.93,-0.03,-0.01,-0.00,31.57
20186192,1625,1,209671,244759,1.24,-0.43,9.96,-0.03,-0.01,-0.01,31.57
20226193,1593,1,208864,242836,1.24,-0.43,9.93,-0.03,-0.01,-0.00,31.57
20266192,1554,1,208416,242284,1.25,-0.43,9.91,-0.03,-0.01,-0.01,31.57
20306192,1493,1,208369,242475,1.25,-0.42,9.89,-0.03,-0.01,-0.00,31.57
20346192,1456,1,208470,242761,1.26,-0.43,9.90,-0.03,-0.01,-0.01,31.57
20386192,1459,1,208634,243081,1.24,-0.44,9.97,-0.03,-0.01,-0.00,31.57
20426879,1437,1,208847,243220,1.24,-0.43,9.95,-0.03,-0.02,-0.00,31.55
20467193,1431,1,208926,243284,1.27,-0.42,9.91,-0.03,-0.02,-0.00,31.55
20507192,1439,1,209023,243510,1.27,-0.42,9.91,-0.03,-0.01,-0.00,31.55
20547192,1420,1,209102,243659,1.25,-0.43,9.93,-0.03,-0.01,-0.00,31.55
20587192,1447,1,209210,244157,1.25,-0.42,9.92,-0.03,-0.01,-0.00,31.55
20627193,1529,1,209434,244956,1.25,-0.41,9.90,-0.03,0.00,-0.00,31.55
20667169,1499,1,209775,245787,1.25,-0.43,9.91,-0.04,0.00,-0.00,31.55
20707172,1561,1,209811,244641,1.25,-0.44,9.92,-0.03,-0.01,-0.00,31.55
20747193,1577,1,208926,242712,1.24,-0.43,9.91,-0.03,-0.01,-0.00,31.55
20787193,1603,1,208485,242048,1.24,-0.43,9.94,-0.03,-0.01,-0.00,31.55
20827192,1671,1,208427,242104,1.26,-0.43,9.93,-0.03,-0.01,-0.00,31.55
20867192,1680,1,208507,242297,1.24,-0.43,9.92,-0.03,-0.01,-0.00,31.55
20907192,1741,1,208676,242808,1.23,-0.43,9.93,-0.03,-0.01,-0.00,31.55
20947193,1769,1,208824,243030,1.26,-0.43,9.89,-0.03,-0.01,-0.00,31.55
20987192,1792,1,208882,243212,1.23,-0.42,9.91,-0.03,-0.01,-0.00,31.55
21027196,1815,1,209009,243568,1.23,-0.43,9.91,-0.03,-0.01,-0.00,31.55
21067193,1872,1,209142,243978,1.24,-0.42,9.92,-0.03,-0.00,-0.00,31.55
21107193,1905,1,209292,244451,1.24,-0.42,9.92,-0.03,-0.01,-0.00,31.55
21147193,1927,1,209465,245025,1.23,-0.44,9.91,-0.03,-0.00,-0.00,31.55
21187192,1915,1,209671,245391,1.23,-0.41,9.94,-0.03,-0.01,-0.00,31.55
21227192,1968,1,209677,244426,1.22,-0.43,9.94,-0.03,-0.01,-0.00,31.55
21267192,1966,1,208849,242316,1.26,-0.43,9.90,-0.03,-0.01,-0.00,31.55
21307193,2019,1,208349,241766,1.22,-0.43,9.90,-0.03,-0.01,-0.00,31.55
21347193,2032,1,208312,241955,1.22,-0.42,9.95,-0.03,-0.01,-0.00,31.55
21387192,2019,1,208427,242285,1.24,-0.42,9.89,-0.03,-0.01,-0.01,31.55
21427879,1986,1,208559,242713,1.25,-0.44,9.90,-0.03,-0.02,-0.00,31.69
21466192,2067,1,208762,243185,1.24,-0.43,9.92,-0.03,-0.01,-0.00,31.69
21506192,2071,1,208883,243418,1.24,-0.44,9.93,-0.03,-0.01,-0.00,31.69
21546209,2067,1,208964,243684,1.24,-0.45,9.91,-0.03,-0.01,-0.00,31.69
21586192,2069,1,209054,243962,1.23,-0.43,9.91,-0.03,-0.01,-0.00,31.69
21626192,2040,1,209190,244323,1.24,-0.43,9.93,-0.03,-0.01,-0.00,31.69
21666192,2047,1,209352,244627,1.24,-0.43,9.90,-0.03,-0.02,-0.00,31.69
21706190,2084,1,209499,244945,1.24,-0.43,9.91,-0.03,-0.02,-0.00,31.69
21746226,2064,1,209409,243792,1.23,-0.42,9.94,-0.03,-0.02,-0.00,31.69
21786192,1995,1,208673,242051,1.25,-0.41,9.92,-0.03,-0.01,-0.00,31.69
21826192,2016,1,208277,241592,1.24,-0.43,9.92,-0.03,-0.01,-0.00,31.69
21866193,2027,1,208324,241813,1.25,-0.42,9.93,-0.03,-0.01,-0.00,31.69
21906192,1992,1,208363,242149,1.22,-0.43,9.94,-0.03,-0.01,-0.00,31.69
21946212,2010,1,208571,242727,1.25,-0.43,9.93,-0.03,-0.01,-0.00,31.69
21986192,2005,1,208829,243220,1.25,-0.41,9.95,-0.03,-0.01,-0.00,31.69
22026198,1955,1,208938,243515,1.24,-0.43,9.94,-0.03,-0.01,-0.00,31.69
22066192,1989,1,209011,243798,1.24,-0.43,9.92,-0.03,-0.01,-0.00,31.69
22106192,1977,1,209113,244070,1.25,-0.41,9.92,-0.03,-0.01,-0.00,31.69
22146192,1940,1,209314,244425,1.24,-0.45,9.91,-0.03,-0.01,-0.00,31.69
22187192,1968,1,209452,244785,1.24,-0.44,9.93,-0.03,-0.01,-0.00,31.69
22227192,1867,1,209599,245064,1.24,-0.42,9.94,-0.03,-0.01,-0.00,31.69
22267192,1921,1,209368,243551,1.24,-0.42,9.93,-0.03,-0.01,-0.00,31.69
22307192,1905,1,208632,242237,1.24,-0.42,9.95,-0.03,0.00,-0.00,31.69
22347169,1904,1,208380,241925,1.22,-0.44,9.94,-0.03,-0.01,-0.01,31.69
22387193,1911,1,208375,241887,1.25,-0.43,9.89,-0.03,-0.02,-0.00,31.69
22427879,1859,1,208363,242122,1.25,-0.43,9.89,-0.03,-0.02,-0.00,31.69
22466193,1899,1,208572,242501,1.27,-0.43,9.92,-0.03,-0.01,-0.00,31.69
22506192,1872,1,208690,242665,1.27,-0.41,9.91,-0.03,-0.01,-0.00,31.69
22546193,1867,1,208758,242810,1.27,-0.45,9.90,-0.03,-0.01,-0.00,31.69
22586190,1854,1,208779,242934,1.25,-0.43,9.92,-0.03,-0.02,-0.00,31.69
22626193,1771,1,208895,243295,1.27,-0.42,9.90,-0.03,-0.01,-0.00,31.69
22666190,1760,1,209098,243918,1.25,-0.45,9.91,-0.03,-0.00,-0.00,31.69
22706193,1747,1,209337,244587,1.24,-0.43,9.91,-0.03,-0.01,-0.00,31.69
22746192,1648,1,209439,244941,1.25,-0.44,9.92,-0.03,-0.01,-0.00,31.69
22786192,1655,1,209141,243083,1.24,-0.44,9.94,-0.04,-0.01,-0.00,31.69
22826192,1648,1,208443,241957,1.27,-0.42,9.90,-0.04,-0.01,-0.00,31.69
22866193,1623,1,208309,242007,1.24,-0.43,9.93,-0.04,0.01,-0.01,31.69
22906172,1600,1,208371,242149,1.19,-0.42,9.97,-0.04,0.01,-0.01,31.69
22946172,1535,1,208402,242331,1.24,-0.44,9.89,-0.03,-0.01,-0.01,31.69
22986192,1582,1,208636,243092,1.22,-0.43,9.92,-0.04,0.00,-0.01,31.69
23026177,1535,1,208998,243967,1.26,-0.43,9.77,-0.04,0.05,-0.01,31.69
23066172,1535,1,209457,245090,1.20,-0.43,9.95,-0.04,-0.01,-0.01,31.69
23106193,1535,1,209662,245165,1.18,-0.45,9.96,-0.03,0.00,-0.01,31.69
23146172,1574,1,209652,245391,1.20,-0.46,9.96,-0.03,-0.03,-0.00,31.69
23187209,1564,1,209874,245582,1.23,-0.42,9.94,-0.03,-0.02,-0.00,31.69
23227192,1555,1,209913,245464,1.22,-0.45,9.91,-0.03,-0.02,-0.00,31.69
23267192,1574,1,209975,245343,1.19,-0.45,9.91,-0.04,0.00,-0.00,31.69
23307170,1584,1,209658,242943,1.20,-0.42,9.96,-0.03,-0.01,-0.00,31.69
23347192,1574,1,208667,241385,1.22,-0.45,9.92,-0.03,-0.02,-0.00,31.69
23387221,1612,1,208323,241232,1.22,-0.43,9.95,-0.03,-0.01,-0.00,31.69
23427879,1645,1,208339,241793,1.22,-0.46,9.94,-0.04,-0.00,-0.00,31.95
23466192,1697,1,208535,242766,1.18,-0.42,9.93,-0.03,-0.00,-0.00,31.95
23506192,1772,1,209041,244286,1.19,-0.43,9.93,-0.03,-0.01,-0.00,31.95
23546192,1810,1,209489,245383,1.23,-0.43,9.93,-0.03,-0.01,-0.00,31.95
23586192,1815,1,209810,246105,1.21,-0.44,9.95,-0.03,-0.01,-0.00,31.95
23626192,1847,1,209935,246365,1.19,-0.44,9.96,-0.03,-0.02,-0.00,31.95
23666193,1895,1,210021,246856,1.22,-0.44,9.91,-0.03,-0.02,-0.00,31.95
23706192,1874,1,210292,247641,1.22,-0.42,9.91,-0.04,-0.01,-0.00,31.95
23746193,1872,1,210532,248385,1.23,-0.44,9.92,-0.03,-0.02,-0.00,31.95
23786193,1936,1,210815,249126,1.23,-0.45,9.92,-0.03,-0.01,-0.00,31.95
23826192,1951,1,210666,246852,1.21,-0.43,9.93,-0.03,-0.01,-0.00,31.95
23866192,1942,1,209411,244383,1.21,-0.44,9.96,-0.04,-0.00,-0.01,31.95
23906193,1959,1,208961,244266,1.23,-0.43,9.92,-0.03,-0.02,-0.00,31.95
23946192,1979,1,209209,245272,1.24,-0.43,9.92,-0.04,-0.01,-0.00,31.95
23986192,1935,1,209626,246519,1.20,-0.44,9.95,-0.03,-0.01,-0.00,31.95
24026198,1919,1,210154,248310,1.22,-0.45,9.90,-0.03,-0.01,-0.00,31.95
24066192,1967,1,210704,249674,1.22,-0.45,9.95,-0.04,-0.00,-0.00,31.95
24106192,1954,1,210954,250366,1.23,-0.43,9.93,-0.03,-0.02,-0.00,31.95
24146192,1946,1,211110,250741,1.20,-0.42,9.94,-0.03,-0.01,-0.01,31.95
24186193,1934,1,211130,250777,1.21,-0.45,9.95,-0.03,-0.02,-0.00,31.95
24226193,1973,1,211195,250899,1.23,-0.45,9.94,-0.03,-0.00,-0.00,31.95
24266192,2000,1,211242,250768,1.21,-0.45,9.96,-0.03,-0.02,-0.00,31.95
24306192,2098,1,211264,250488,1.21,-0.45,9.90,-0.03,-0.01,-0.01,31.95
24346192,2096,1,210665,246890,1.20,-0.44,9.96,-0.03,-0.02,-0.00,31.95
24386192,2119,1,209286,244947,1.20,-0.46,9.93,-0.03,-0.03,-0.00,31.95
24426193,2158,1,209091,245193,1.25,-0.43,9.93,-0.03,-0.03,-0.00,31.95
24466879,2114,1,209477,246322,1.25,-0.42,9.91,-0.03,-0.01,-0.00,31.47
24507192,2151,1,209941,247362,1.23,-0.44,9.92,-0.03,0.02,-0.00,31.47
24547172,2187,1,210357,247868,1.22,-0.45,9.96,-0.03,-0.00,-0.00,31.47
24587192,2177,1,210415,247739,1.23,-0.46,9.93,-0.03,-0.01,-0.00,31.47
24627192,2113,1,210404,247522,1.24,-0.44,9.90,-0.03,-0.01,-0.00,31.47
24667193,2134,1,210514,247661,1.23,-0.44,9.94,-0.03,-0.01,-0.00,31.47
24707192,2137,1,210574,247792,1.22,-0.43,9.93,-0.03,-0.01,-0.00,31.47
24747192,2114,1,210653,247655,1.22,-0.44,9.98,-0.03,-0.01,-0.00,31.47
24787192,2165,1,210654,247425,1.22,-0.43,9.94,-0.03,-0.01,-0.00,31.47
24827192,2150,1,210604,246709,1.25,-0.43,9.91,-0.04,0.01,-0.01,31.47
24867172,2131,1,209651,243602,1.24,-0.43,9.95,-0.04,0.01,-0.01,31.47
24907172,2147,1,208791,242647,1.21,-0.43,9.96,-0.03,-0.01,-0.00,31.47
24947192,2139,1,208664,242812,1.22,-0.43,9.96,-0.04,-0.01,-0.00,31.47
24987192,2066,1,208721,243623,1.22,-0.44,9.94,-0.04,-0.00,-0.00,31.47
25027209,2090,1,209151,245090,1.23,-0.46,9.93,-0.04,0.00,-0.00,31.47
25067172,2015,1,209726,246348,1.21,-0.45,9.91,-0.04,-0.00,-0.00,31.47
25107192,1977,1,210006,246673,1.19,-0.43,9.95,-0.03,-0.00,-0.00,31.47
25147192,1933,1,209948,246334,1.20,-0.44,9.95,-0.03,-0.02,-0.00,31.47
25187192,1904,1,209879,246397,1.21,-0.43,9.89,-0.03,-0.03,-0.00,31.47
25227198,1898,1,210021,246969,1.24,-0.45,9.89,-0.04,-0.01,-0.00,31.47
25267192,1811,1,210228,247212,1.19,-0.44,9.93,-0.03,-0.00,-0.00,31.47
25307192,1734,1,210195,247092,1.21,-0.45,9.95,-0.03,-0.02,-0.00,31.47
25347193,1771,1,209985,245094,1.20,-0.42,9.95,-0.03,-0.03,-0.00,31.47
25387192,1657,1,208715,242541,1.24,-0.46,9.94,-0.03,-0.01,-0.00,31.47
25427211,1710,1,208174,242078,1.25,-0.45,9.93,-0.03,-0.01,-0.00,31.47
25467879,1643,1,208198,242507,1.21,-0.41,9.91,-0.04,-0.01,-0.00,31.71
25506192,1661,1,208437,243312,1.21,-0.43,9.96,-0.03,-0.01,-0.00,31.71
25546192,1634,1,208740,244228,1.23,-0.46,9.94,-0.03,-0.00,-0.00,31.71
25586192,1680,1,208928,244334,1.22,-0.44,9.93,-0.03,-0.03,-0.01,31.71
25626192,1679,1,208936,244522,1.24,-0.43,9.90,-0.03,-0.01,-0.00,31.71
25666192,1629,1,208978,244775,1.23,-0.44,9.90,-0.03,0.00,-0.00,31.71
25706170,1719,1,209067,244923,1.23,-0.44,9.90,-0.03,-0.01,-0.01,31.71
25746192,1703,1,209216,245555,1.22,-0.47,9.96,-0.03,-0.03,-0.01,31.71
25786192,1716,1,209582,246573,1.24,-0.44,9.90,-0.03,-0.01,-0.01,31.71
25826192,1730,1,209976,247521,1.22,-0.44,9.93,-0.04,0.00,-0.01,31.71
25866172,1767,1,209702,244773,1.24,-0.45,9.93,-0.03,-0.01,-0.00,31.71
25906192,1778,1,208592,243308,1.21,-0.44,9.93,-0.03,-0.02,-0.01,31.71
25946192,1818,1,208359,243512,1.22,-0.44,9.94,-0.03,-0.02,-0.00,31.71
25986192,1783,1,208672,244466,1.24,-0.46,9.92,-0.03,-0.02,-0.00,31.71
26026198,1811,1,209126,245710,1.25,-0.45,9.94,-0.03,-0.03,-0.00,31.71
26066192,1847,1,209753,247264,1.27,-0.45,9.88,-0.03,-0.03,-0.01,31.71
26106192,1862,1,210243,248305,1.24,-0.41,9.95,-0.03,-0.00,-0.00,31.71
26146192,1849,1,210543,249161,1.26,-0.44,9.91,-0.03,-0.01,-0.00,31.71
26186192,1878,1,210861,249929,1.26,-0.45,9.92,-0.03,-0.01,-0.00,31.71
26226192,1863,1,211160,250718,1.26,-0.43,9.90,-0.03,-0.01,-0.00,31.71
26266192,1865,1,211440,251321,1.24,-0.46,9.97,-0.03,-0.02,-0.00,31.71
26306192,1875,1,211673,251980,1.24,-0.44,9.87,-0.03,-0.01,-0.00,31.71
26346192,1837,1,211922,251341,1.26,-0.44,9.92,-0.04,-0.01,-0.00,31.71
26386192,1917,1,210771,247271,1.26,-0.44,9.91,-0.03,0.00,-0.00,31.71
26426169,1894,1,209815,246524,1.24,-0.44,9.93,-0.04,0.01,-0.01,31.71
26466172,1920,1,209910,247362,1.22,-0.46,9.96,-0.03,-0.01,-0.01,31.71
26506879,1890,1,210255,248564,1.24,-0.44,9.89,-0.04,0.00,-0.01,31.77
26547172,1885,1,210709,249822,1.24,-0.45,9.92,-0.03,-0.01,-0.01,31.77
26587192,1897,1,211056,250429,1.24,-0.45,9.94,-0.03,-0.01,-0.01,31.77
26627192,1879,1,211164,250654,1.26,-0.43,9.91,-0.03,-0.01,-0.00,31.77
26667192,1870,1,211231,250861,1.25,-0.44,9.93,-0.03,-0.01,-0.01,31.77
26707193,1914,1,211394,251478,1.23,-0.45,9.92,-0.04,-0.01,-0.01,31.77
26747192,1840,1,211598,251955,1.22,-0.47,9.93,-0.04,-0.01,-0.01,31.77
26787192,1846,1,211745,252366,1.25,-0.42,9.93,-0.03,-0.02,-0.00,31.77
26827192,1890,1,211954,252729,1.28,-0.45,9.93,-0.03,-0.02,-0.00,31.77
26867193,1874,1,211757,250034,1.24,-0.45,9.90,-0.04,-0.01,-0.00,31.77
26907192,1913,1,210219,246911,1.24,-0.46,9.91,-0.04,0.00,-0.01,31.77
26947172,1835,1,209681,246392,1.24,-0.44,9.96,-0.03,-0.02,-0.00,31.77
26987192,1871,1,209892,247045,1.24,-0.44,9.91,-0.03,-0.01,-0.00,31.77
27027196,1865,1,210290,248197,1.25,-0.43,9.95,-0.03,0.00,-0.00,31.77
27067169,1869,1,210784,249531,1.23,-0.44,9.94,-0.03,-0.01,-0.00,31.77
27107193,1894,1,211140,250256,1.22,-0.43,9.89,-0.04,0.00,-0.01,31.77
27147172,1895,1,211383,250332,1.21,-0.44,9.96,-0.03,-0.01,-0.01,31.77
27187193,1920,1,211568,251028,1.24,-0.44,9.90,-0.03,-0.02,-0.00,31.77
27227192,1872,1,212017,252158,1.25,-0.44,9.90,-0.03,-0.02,-0.01,31.77
27267192,1813,1,212487,253353,1.24,-0.43,9.91,-0.03,-0.00,-0.00,31.77
27307192,1854,1,212832,254240,1.22,-0.45,9.93,-0.04,0.00,-0.00,31.77
27347172,1879,1,212829,252946,1.25,-0.45,9.95,-0.03,-0.00,-0.00,31.77
27387192,1935,1,211540,248439,1.23,-0.46,9.95,-0.03,-0.02,-0.01,31.77
27427193,1894,1,210671,247705,1.22,-0.42,9.93,-0.03,-0.02,-0.00,31.77
27467192,1894,1,210914,249134,1.26,-0.43,9.89,-0.04,0.01,-0.01,31.77
27505859,1911,1,211458,251019,1.21,-0.45,9.94,-0.03,0.01,-0.01,31.89
27546172,1919,1,212127,252886,1.20,-0.45,9.94,-0.03,-0.02,-0.01,31.89
27586192,1876,1,212610,253853,1.23,-0.45,9.95,-0.03,-0.03,-0.01,31.89
27626193,1936,1,212838,254272,1.25,-0.44,9.91,-0.03,-0.02,-0.00,31.89
27666193,1911,1,212939,254695,1.26,-0.43,9.91,-0.03,0.00,-0.01,31.89
27706172,1884,1,213076,255154,1.22,-0.43,9.97,-0.03,-0.01,-0.00,31.89
27746192,1919,1,213188,255349,1.21,-0.46,9.96,-0.03,-0.02,-0.00,31.89
27786192,1904,1,213274,255387,1.26,-0.44,9.92,-0.03,-0.04,-0.00,31.89
27826192,1870,1,213309,255282,1.27,-0.44,9.94,-0.03,-0.00,-0.00,31.89
27866193,1903,1,212542,251218,1.24,-0.45,9.90,-0.03,0.00,-0.00,31.89
27906172,1903,1,211048,248875,1.20,-0.42,9.96,-0.03,-0.01,-0.00,31.89
27946192,1895,1,210717,249042,1.24,-0.44,9.91,-0.03,-0.03,-0.00,31.89
27986192,1906,1,211098,250278,1.26,-0.43,9.87,-0.03,-0.02,-0.00,31.89
28026198,1887,1,211635,251983,1.24,-0.45,9.97,-0.03,0.00,-0.00,31.89
28066172,1866,1,212188,252777,1.26,-0.44,9.94,-0.03,-0.01,-0.00,31.89
28106192,1839,1,212401,252629,1.24,-0.43,9.95,-0.03,-0.01,-0.00,31.89
28146192,1863,1,212276,251789,1.24,-0.44,9.95,-0.03,-0.03,-0.00,31.89
28186192,1901,1,212128,251705,1.28,-0.45,9.89,-0.03,-0.02,-0.00,31.89
28226193,1873,1,212281,252417,1.26,-0.43,9.89,-0.03,0.00,-0.00,31.89
28266170,1885,1,212464,253057,1.25,-0.44,9.94,-0.03,-0.01,-0.00,31.89
28306192,1893,1,212662,253466,1.28,-0.43,9.94,-0.03,-0.01,-0.00,31.89
28346192,1893,1,212368,250406,1.27,-0.42,9.90,-0.04,-0.01,-0.00,31.89
28386192,1881,1,210764,247530,1.25,-0.45,9.94,-0.03,-0.00,-0.00,31.89
28426192,1904,1,210334,247473,1.24,-0.45,9.95,-0.03,-0.02,-0.00,31.89
28466192,1891,1,210571,248284,1.24,-0.44,9.92,-0.03,-0.01,-0.01,31.89
28506192,1898,1,210987,249424,1.24,-0.44,9.93,-0.03,-0.00,-0.00,31.89
28546879,1809,1,211283,249889,1.24,-0.45,9.91,-0.03,-0.02,-0.00,31.57
28585192,1984,1,211450,249676,1.28,-0.44,9.89,-0.03,-0.02,-0.00,31.57
28625193,2014,1,211374,249676,1.25,-0.45,9.90,-0.03,-0.01,-0.00,31.57
28665193,1999,1,211420,249870,1.27,-0.43,9.90,-0.03,-0.00,-0.00,31.57
28705210,2089,1,211538,250249,1.27,-0.44,9.90,-0.03,-0.01,-0.00,31.57
28745192,1885,1,211620,250715,1.24,-0.41,9.96,-0.03,-0.01,-0.00,31.57
28785192,1905,1,211706,250882,1.24,-0.44,9.92,-0.03,-0.00,-0.00,31.57
28825192,1984,1,211578,248336,1.29,-0.44,9.91,-0.03,-0.01,-0.00,31.57
28865192,1991,1,210337,246395,1.24,-0.44,9.89,-0.03,-0.01,-0.00,31.57
28905192,2022,1,210107,246394,1.25,-0.45,9.92,-0.03,-0.01,-0.00,31.57
28945192,1963,1,210177,246859,1.25,-0.43,9.94,-0.03,-0.01,-0.00,31.57
28985192,1999,1,210411,247491,1.23,-0.43,9.95,-0.03,-0.02,-0.00,31.57
29025212,1989,1,210635,248202,1.28,-0.45,9.91,-0.03,-0.00,-0.00,31.57
29065192,1993,1,210755,248681,1.25,-0.44,9.92,-0.03,-0.02,-0.01,31.57
29105193,1939,1,210948,248997,1.26,-0.45,9.91,-0.03,-0.00,-0.01,31.57
29145192,1975,1,211153,249251,1.24,-0.43,9.94,-0.03,-0.01,-0.00,31.57
29185193,1984,1,211157,249611,1.25,-0.44,9.93,-0.03,-0.01,-0.00,31.57
29225192,1979,1,211443,249971,1.24,-0.44,9.94,-0.03,-0.01,-0.00,31.57
29265192,1949,1,211551,250606,1.25,-0.44,9.91,-0.04,-0.01,-0.00,31.57
29305192,1978,1,211660,249605,1.26,-0.43,9.92,-0.04,0.01,-0.01,31.57
29345172,1932,1,210541,247217,1.21,-0.45,9.97,-0.04,0.01,-0.00,31.57
29385172,1975,1,210161,247132,1.23,-0.43,9.92,-0.03,-0.03,-0.00,31.57
29425192,1950,1,210333,247598,1.23,-0.44,9.93,-0.03,-0.02,-0.00,31.57
29465192,1936,1,210613,248331,1.24,-0.44,9.91,-0.03,-0.01,-0.00,31.57
29505192,1979,1,210957,249121,1.24,-0.44,9.93,-0.03,-0.01,-0.00,31.57
29545192,1981,1,211141,249342,1.22,-0.44,9.93,-0.03,-0.01,-0.00,31.57
29585879,1934,1,211183,249360,1.24,-0.44,9.94,-0.03,-0.02,-0.00,31.63
29626192,1899,1,211191,249554,1.26,-0.43,9.90,-0.03,-0.01,-0.01,31.63
29666192,1919,1,211251,249806,1.23,-0.43,9.91,-0.03,-0.01,-0.00,31.63
29706192,1933,1,211455,250265,1.23,-0.44,9.94,-0.03,-0.02,-0.00,31.63
29746192,1958,1,211622,250532,1.24,-0.43,9.91,-0.03,-0.01,-0.00,31.63
29786192,1932,1,211695,250260,1.24,-0.43,9.91,-0.03,-0.01,-0.00,31.63
29826193,1927,1,211063,248356,1.27,-0.45,9.89,-0.03,-0.01,-0.00,31.63
29866192,1930,1,210626,248043,1.25,-0.45,9.96,-0.03,-0.01,-0.00,31.63
29906192,1890,1,210696,248259,1.24,-0.42,9.89,-0.03,-0.01,-0.00,31.63
29946192,1904,1,210791,248635,1.25,-0.43,9.90,-0.03,-0.02,-0.00,31.63
29986192,1930,1,210964,249044,1.26,-0.44,9.90,-0.04,-0.01,-0.00,31.63
30026198,1898,1,211134,249446,1.23,-0.45,9.94,-0.03,-0.01,-0.00,31.63
30066192,1920,1,211158,249457,1.24,-0.44,9.94,-0.03,-0.01,-0.00,31.63
30106192,1920,1,211270,249616,1.24,-0.42,9.95,-0.03,-0.01,-0.00,31.63
30146245,1891,1,211248,249761,1.26,-0.44,9.92,-0.03,-0.00,-0.00,31.63
30186192,1878,1,211289,249901,1.26,-0.44,9.92,-0.03,-0.00,-0.00,31.63
30226192,1870,1,211519,250043,1.24,-0.45,9.95,-0.03,-0.02,-0.00,31.63
30266192,1870,1,211632,250261,1.26,-0.43,9.91,-0.03,-0.01,-0.00,31.63
30306193,1840,1,211589,249869,1.27,-0.43,9.94,-0.03,-0.01,-0.00,31.63
30346206,1748,1,211201,249297,1.25,-0.43,9.93,-0.03,-0.01,-0.00,31.63
30386192,1838,1,211151,249277,1.24,-0.44,9.94,-0.03,-0.01,-0.00,31.63
30426192,1813,1,211279,249498,1.25,-0.44,9.93,-0.03,-0.01,-0.00,31.63
30466193,1791,1,211385,249772,1.28,-0.43,9.92,-0.03,-0.01,-0.00,31.63
30506192,1793,1,211468,250203,1.25,-0.42,9.90,-0.03,-0.01,-0.00,31.63
30546192,1798,1,211517,250227,1.27,-0.43,9.96,-0.03,-0.01,-0.00,31.63
30586879,1741,1,211566,250341,1.25,-0.42,9.94,-0.03,-0.01,-0.00,31.49
30625192,1811,1,211494,250525,1.25,-0.43,9.91,-0.03,-0.01,-0.00,31.49
30665192,1796,1,211537,250693,1.25,-0.45,9.92,-0.03,-0.01,-0.01,31.49
30705192,1798,1,211639,250949,1.25,-0.43,9.91,-0.03,-0.02,-0.01,31.49
30745192,1806,1,211760,251196,1.27,-0.42,9.93,-0.03,-0.01,-0.00,31.49
30785192,1765,1,211832,251356,1.28,-0.43,9.91,-0.03,-0.01,-0.00,31.49
30825192,1779,1,211666,250660,1.26,-0.44,9.95,-0.03,-0.01,-0.00,31.49
30865192,1776,1,211349,250330,1.26,-0.43,9.91,-0.03,-0.01,-0.00,31.49
30905192,1730,1,211387,250456,1.26,-0.43,9.91,-0.03,-0.01,-0.00,31.49
30945192,1763,1,211486,250684,1.28,-0.42,9.91,-0.03,-0.01,-0.00,31.49
30985192,1737,1,211485,250869,1.27,-0.43,9.90,-0.03,-0.00,-0.00,31.49
31025213,1711,1,211615,251125,1.24,-0.44,9.92,-0.03,-0.01,-0.00,31.49
31065192,1722,1,211674,251243,1.24,-0.43,9.92,-0.03,-0.01,-0.00,31.49
31105193,1738,1,211687,251357,1.27,-0.43,9.91,-0.03,-0.02,-0.01,31.49
31145192,1732,1,211727,251505,1.27,-0.43,9.93,-0.03,-0.01,-0.00,31.49
31185192,1759,1,211740,251688,1.25,-0.43,9.93,-0.03,-0.01,-0.00,31.49
31225192,1783,1,211835,251835,1.26,-0.43,9.92,-0.03,-0.01,-0.00,31.49
31265192,1764,1,212009,252062,1.26,-0.45,9.89,-0.03,-0.01,-0.00,31.49
31305192,1757,1,212061,252269,1.26,-0.45,9.92,-0.03,-0.01,-0.00,31.49
31345192,1834,1,212008,251855,1.27,-0.42,9.91,-0.03,-0.01,-0.00,31.49
31385193,1770,1,211756,251305,1.25,-0.42,9.91,-0.03,-0.01,-0.00,31.49
31425192,1797,1,211616,251358,1.26,-0.42,9.92,-0.03,-0.01,-0.00,31.49
31465192,1792,1,211709,251532,1.26,-0.42,9.95,-0.03,-0.01,-0.00,31.49
31505192,1806,1,211796,251647,1.29,-0.42,9.91,-0.03,-0.01,-0.00,31.49
31545192,1767,1,211893,251910,1.27,-0.44,9.93,-0.03,-0.00,-0.00,31.49
31585192,1775,1,211974,252018,1.24,-0.43,9.94,-0.03,-0.01,-0.01,31.49
31625879,1721,1,211988,252128,1.29,-0.44,9.92,-0.03,-0.02,-0.00,31.47
31666192,1737,1,212071,252236,1.26,-0.44,9.90,-0.03,-0.01,-0.00,31.47
31706192,1685,1,212065,252374,1.26,-0.44,9.91,-0.03,-0.01,-0.01,31.47
31746193,1691,1,212114,252551,1.26,-0.44,9.94,-0.03,-0.01,-0.01,31.47
31786192,1660,1,212136,252665,1.26,-0.45,9.93,-0.03,-0.01,-0.00,31.47
31826192,1660,1,212212,252834,1.25,-0.43,9.95,-0.03,-0.01,-0.01,31.47
31866192,1709,1,212267,253037,1.24,-0.44,9.91,-0.03,-0.01,-0.00,31.47
31906193,1582,1,212281,253217,1.26,-0.43,9.89,-0.03,-0.01,-0.00,31.47
31946192,1629,1,212325,252950,1.26,-0.42,9.90,-0.03,-0.01,-0.01,31.47
31986217,1632,1,212034,252272,1.27,-0.45,9.93,-0.03,-0.01,-0.00,31.47
32026198,1596,1,211830,252295,1.25,-0.43,9.96,-0.03,-0.01,-0.00,31.47
32066192,1630,1,211960,252507,1.28,-0.44,9.91,-0.03,-0.01,-0.01,31.47
32106192,1658,1,212004,252662,1.27,-0.44,9.91,-0.03,-0.01,-0.00,31.47
32146192,1665,1,212041,252882,1.23,-0.45,9.92,-0.03,-0.01,-0.00,31.47
32186213,1639,1,212046,253014,1.25,-0.44,9.91,-0.03,-0.01,-0.00,31.47
32226192,1655,1,212082,253031,1.25,-0.42,9.93,-0.03,-0.01,-0.00,31.47
32266193,1685,1,212109,253130,1.27,-0.43,9.92,-0.03,-0.01,-0.00,31.47
32306192,1650,1,212181,253290,1.26,-0.44,9.93,-0.03,-0.01,-0.00,31.47
32346193,1642,1,212171,253425,1.25,-0.43,9.94,-0.03,-0.01,-0.00,31.47
32386192,1702,1,212207,253595,1.25,-0.43,9.93,-0.03,-0.01,-0.00,31.47
32426192,1744,1,212294,253706,1.28,-0.44,9.92,-0.03,-0.01,-0.00,31.47
32466192,1751,1,212352,253900,1.25,-0.43,9.94,-0.03,-0.01,-0.00,31.47
32506192,1790,1,212371,254044,1.24,-0.43,9.92,-0.03,-0.01,-0.00,31.47
32546192,1792,1,212461,254189,1.27,-0.45,9.90,-0.03,-0.01,-0.00,31.47
32586192,1815,1,212495,253986,1.28,-0.43,9.91,-0.03,-0.01,-0.01,31.47
32626879,1775,1,212146,253346,1.26,-0.44,9.93,-0.03,-0.01,-0.00,31.55
32665193,1846,1,212003,253345,1.26,-0.43,9.90,-0.03,-0.01,-0.00,31.55
32705193,1850,1,212011,253483,1.27,-0.43,9.93,-0.04,-0.00,-0.00,31.55
32745192,1779,1,212088,253651,1.26,-0.42,9.93,-0.03,-0.01,-0.00,31.55
32785192,1750,1,212143,253854,1.28,-0.45,9.91,-0.03,-0.01,-0.00,31.55
32825193,1759,1,212206,253968,1.24,-0.44,9.91,-0.03,-0.00,-0.00,31.55
32865193,1790,1,212225,254054,1.24,-0.44,9.92,-0.03,-0.01,-0.00,31.55
32905192,1725,1,212195,254113,1.26,-0.44,9.91,-0.03,-0.01,-0.00,31.55
32945193,1712,1,212235,254188,1.26,-0.45,9.94,-0.03,-0.01,-0.00,31.55
32985192,1719,1,212258,254334,1.24,-0.44,9.91,-0.03,-0.01,-0.00,31.55
33025219,1690,1,212330,254461,1.24,-0.42,9.92,-0.03,-0.01,-0.00,31.55
33065193,1696,1,212314,254562,1.27,-0.45,9.91,-0.03,-0.01,-0.00,31.55
33105192,1647,1,212358,254793,1.27,-0.42,9.92,-0.03,-0.01,-0.00,31.55
33145192,1602,1,212381,254991,1.27,-0.44,9.92,-0.03,-0.01,-0.00,31.55
33185193,1653,1,212443,255169,1.25,-0.44,9.91,-0.03,-0.01,-0.00,31.55
33226192,1634,1,212472,254947,1.27,-0.44,9.91,-0.03,-0.01,-0.00,31.55
33266192,1664,1,212090,253946,1.26,-0.45,9.93,-0.03,-0.02,-0.00,31.55
33306192,1655,1,212000,253948,1.25,-0.45,9.92,-0.03,-0.02,-0.00,31.55
33346192,1664,1,212152,254176,1.27,-0.45,9.89,-0.03,-0.01,-0.00,31.55
33386192,1680,1,212198,254322,1.26,-0.44,9.93,-0.04,0.02,-0.00,31.55
33426174,1701,1,212175,254428,1.24,-0.44,9.97,-0.03,-0.00,-0.00,31.55
33466192,1711,1,212235,254553,1.24,-0.46,9.93,-0.03,-0.01,-0.01,31.55
33506192,1753,1,212259,254646,1.23,-0.44,9.95,-0.03,-0.02,-0.00,31.55
33546192,1770,1,212341,254739,1.27,-0.43,9.89,-0.03,-0.03,-0.00,31.55
33586192,1797,1,212411,254913,1.27,-0.43,9.91,-0.03,-0.01,-0.00,31.55
33626878,1805,1,212504,255111,1.24,-0.45,9.90,-0.04,-0.00,-0.01,31.57
33665192,1898,1,212597,255298,1.22,-0.45,9.95,-0.03,-0.00,-0.00,31.57
33705192,1885,1,212680,255558,1.26,-0.42,9.93,-0.03,-0.02,-0.01,31.57
33745193,1856,1,212790,255904,1.26,-0.46,9.91,-0.03,-0.02,-0.01,31.57
33785193,1949,1,213007,256287,1.25,-0.44,9.92,-0.03,-0.01,-0.00,31.57
33825197,1965,1,213125,256434,1.27,-0.43,9.93,-0.03,-0.01,-0.01,31.57
33865192,1987,1,213093,255578,1.25,-0.45,9.93,-0.03,-0.01,-0.00,31.57
33905192,1985,1,212510,254504,1.26,-0.45,9.91,-0.03,-0.02,-0.00,31.57
33945192,2019,1,212435,254585,1.26,-0.46,9.93,-0.03,-0.01,-0.00,31.57
33985193,2013,1,212473,254718,1.27,-0.44,9.96,-0.03,-0.01,-0.00,31.57
34025215,1997,1,212560,254889,1.25,-0.43,9.94,-0.03,-0.02,-0.00,31.57
34065193,1997,1,212687,255155,1.28,-0.44,9.93,-0.03,-0.02,-0.00,31.57
34105192,2042,1,212850,255296,1.27,-0.43,9.91,-0.03,-0.01,-0.00,31.57
34145192,2086,1,212965,255424,1.27,-0.44,9.92,-0.03,-0.02,-0.01,31.57
34185192,2053,1,212971,255488,1.27,-0.45,9.90,-0.03,-0.01,-0.00,31.57
34225193,2029,1,212956,255542,1.24,-0.46,9.94,-0.03,-0.01,-0.00,31.57
34266192,1998,1,212954,255708,1.26,-0.42,9.93,-0.03,-0.01,-0.00,31.57
34306192,2003,1,212950,255876,1.26,-0.43,9.95,-0.03,-0.01,-0.00,31.57
34346192,2014,1,212988,256084,1.26,-0.45,9.92,-0.03,-0.01,-0.00,31.57
34386193,2011,1,213009,256275,1.26,-0.43,9.91,-0.03,-0.01,-0.00,31.57
34426192,1991,1,213053,256302,1.26,-0.43,9.93,-0.04,0.01,-0.00,31.57
34466172,2010,1,212843,255129,1.23,-0.45,9.98,-0.03,-0.01,-0.00,31.57
34506192,2028,1,212614,254905,1.30,-0.40,9.90,-0.03,-0.02,-0.00,31.57
34546192,2009,1,212805,255155,1.29,-0.45,9.91,-0.03,-0.01,-0.00,31.57
34586192,1984,1,212972,255344,1.29,-0.43,9.90,-0.04,0.01,-0.00,31.57
34626859,1980,1,212911,255410,1.25,-0.43,9.94,-0.04,0.02,-0.00,31.63
34665173,2043,1,212844,255536,1.23,-0.44,9.93,-0.03,-0.00,-0.00,31.63
34705192,2009,1,212823,255553,1.26,-0.44,9.94,-0.03,-0.02,-0.00,31.63
34745193,2024,1,212748,255460,1.28,-0.42,9.91,-0.03,-0.01,-0.00,31.63
34785192,2010,1,212737,255439,1.26,-0.44,9.91,-0.03,-0.02,-0.00,31.63
34825192,1980,1,212714,255409,1.28,-0.43,9.91,-0.03,-0.01,-0.00,31.63
34865192,2000,1,212756,255520,1.26,-0.45,9.94,-0.03,-0.00,-0.00,31.63
34905192,1965,1,212798,255635,1.26,-0.44,9.94,-0.03,-0.03,-0.00,31.63
34945193,1951,1,213014,256029,1.28,-0.43,9.90,-0.03,-0.04,-0.00,31.63
34985189,1958,1,213632,256526,1.29,-0.44,9.93,-0.03,-0.02,-0.00,31.63
35025215,1995,1,213959,256025,1.27,-0.42,9.94,-0.04,0.01,-0.00,31.63
35065172,1945,1,213903,255674,1.23,-0.44,9.96,-0.04,0.01,-0.00,31.63
35105172,1936,1,213845,255642,1.24,-0.44,9.96,-0.04,-0.01,-0.00,31.63
35145192,1936,1,213863,255614,1.25,-0.42,9.90,-0.03,-0.01,-0.00,31.63
35185193,1953,1,213612,255500,1.26,-0.44,9.93,-0.04,0.01,-0.01,31.63
35225172,1923,1,213318,255351,1.25,-0.45,9.95,-0.04,0.01,-0.00,31.63
35266172,1856,1,213265,255403,1.20,-0.45,9.97,-0.03,-0.02,-0.01,31.63
35306192,1861,1,213267,255463,1.23,-0.43,9.97,-0.03,-0.04,-0.00,31.63
35346192,1859,1,213443,255685,1.28,-0.44,9.88,-0.03,-0.05,-0.00,31.63
35386192,1864,1,213490,255810,1.28,-0.45,9.92,-0.03,-0.01,-0.00,31.63
35426192,1875,1,213454,255911,1.29,-0.44,9.90,-0.04,0.01,-0.00,31.63
35466174,1850,1,213347,255854,1.24,-0.42,9.94,-0.04,0.02,-0.00,31.63
35506172,1867,1,213410,255733,1.21,-0.45,9.97,-0.03,-0.01,-0.00,31.63
35546192,1843,1,213331,255341,1.25,-0.43,9.94,-0.03,-0.02,-0.00,31.63
35586192,1815,1,212957,254599,1.27,-0.44,9.88,-0.04,-0.01,-0.00,31.63
35626879,1791,1,212856,254507,1.24,-0.43,9.97,-0.04,-0.01,-0.00,31.57
35665192,1819,1,212811,254744,1.26,-0.45,9.92,-0.03,-0.03,-0.00,31.57
35705192,1821,1,212761,254830,1.28,-0.44,9.89,-0.03,-0.00,-0.00,31.57
35745193,1817,1,212774,254992,1.26,-0.45,9.93,-0.03,0.00,-0.00,31.57
35785169,1807,1,212914,255178,1.26,-0.43,9.90,-0.04,-0.01,-0.00,31.57
35825192,1801,1,212902,255200,1.24,-0.42,9.93,-0.03,-0.02,-0.01,31.57
35865192,1869,1,212940,255218,1.26,-0.45,9.90,-0.03,-0.02,-0.00,31.57
35905192,1906,1,213005,255380,1.27,-0.44,9.93,-0.03,-0.01,-0.00,31.57
35945192,1957,1,212976,255594,1.25,-0.43,9.94,-0.03,-0.02,-0.00,31.57
35985192,1927,1,213101,256098,1.27,-0.44,9.89,-0.04,0.00,-0.00,31.57
36025195,1904,1,213220,256598,1.27,-0.44,9.89,-0.04,-0.00,-0.00,31.57
36065192,1904,1,213285,256607,1.26,-0.46,9.93,-0.03,0.01,-0.00,31.57
36105172,1895,1,213138,255070,1.24,-0.45,9.98,-0.03,-0.01,-0.00,31.57
36145192,1886,1,212634,254570,1.24,-0.45,9.92,-0.03,-0.01,-0.00,31.57
36185192,1853,1,212524,254508,1.27,-0.42,9.93,-0.03,-0.01,-0.00,31.57
36225193,1821,1,212627,254711,1.26,-0.45,9.91,-0.03,-0.02,-0.00,31.57
36265192,1767,1,212574,255033,1.29,-0.43,9.92,-0.04,0.00,-0.00,31.57
36305172,1813,1,212533,255594,1.27,-0.43,9.89,-0.04,-0.01,-0.00,31.57
36345192,1691,1,212567,255796,1.24,-0.45,9.95,-0.03,0.00,-0.00,31.57
36385172,1535,1,212533,255721,1.23,-0.43,9.97,-0.03,-0.01,-0.00,31.57
36425192,1535,1,212385,255538,1.24,-0.44,9.90,-0.03,-0.02,-0.00,31.57
36465192,1517,1,212428,255493,1.25,-0.42,9.92,-0.03,-0.03,-0.00,31.57
36505193,1499,1,212446,255530,1.26,-0.44,9.90,-0.03,-0.03,-0.00,31.57
36545193,1461,1,212570,255686,1.29,-0.43,9.92,-0.03,-0.00,-0.00,31.57
36585192,1437,1,212580,255741,1.27,-0.43,9.95,-0.03,-0.02,-0.00,31.57
36625192,1383,1,212754,255414,1.26,-0.46,9.93,-0.03,-0.02,-0.00,31.57
36665879,1318,1,212529,254529,1.27,-0.44,9.94,-0.03,-0.01,-0.00,31.41
36706192,1319,1,212813,254702,1.25,-0.46,9.91,-0.03,-0.01,-0.00,31.41
36746193,1324,1,213407,255237,1.26,-0.41,9.91,-0.03,-0.03,-0.00,31.41
36786193,1362,1,213878,255422,1.27,-0.44,9.88,-0.03,-0.02,-0.00,31.41
36826192,1399,1,214010,255456,1.27,-0.44,9.95,-0.04,-0.01,-0.00,31.41
36864192,1402,1,214036,255539,1.29,-0.44,9.90,-0.04,-0.00,-0.01,31.41
36904252,1439,1,214048,255532,1.29,-0.43,9.93,-0.03,-0.01,-0.00,31.41
36944192,1494,1,214010,255404,1.28,-0.43,9.90,-0.03,-0.01,-0.00,31.41
36984193,1535,1,213889,255334,1.30,-0.45,9.87,-0.03,-0.01,-0.00,31.41
37024202,1566,1,213805,255437,1.26,-0.43,9.93,-0.03,-0.00,-0.00,31.41
37064192,1600,1,213887,255656,1.25,-0.43,9.93,-0.03,-0.01,-0.00,31.41
37104224,1648,1,213978,255805,1.27,-0.44,9.97,-0.03,-0.02,-0.00,31.41
37144193,1714,1,214241,255917,1.32,-0.45,9.93,-0.03,-0.02,-0.00,31.41
37184192,1839,1,214323,255182,1.28,-0.45,9.90,-0.04,-0.01,-0.00,31.41
37224189,2069,1,213860,254260,1.26,-0.43,9.91,-0.04,0.01,-0.01,31.41
37264172,2299,1,213440,253962,1.24,-0.45,9.99,-0.04,-0.00,-0.00,31.41
37304192,2385,1,213386,254200,1.28,-0.45,9.93,-0.03,-0.01,-0.00,31.41
37344192,2362,1,213371,254612,1.28,-0.46,9.92,-0.03,-0.02,-0.00,31.41
37384192,2438,1,213369,255066,1.26,-0.45,9.92,-0.03,-0.01,-0.00,31.41
37424192,2448,1,213195,255038,1.27,-0.47,9.90,-0.03,-0.01,-0.00,31.41
37464192,2475,1,213076,254929,1.29,-0.42,9.89,-0.04,0.00,-0.00,31.41
37504172,2489,1,212858,254804,1.25,-0.45,9.93,-0.03,-0.01,-0.00,31.41
37544192,2457,1,212812,254814,1.25,-0.43,9.95,-0.04,-0.01,-0.00,31.41
37584192,2526,1,212953,254912,1.27,-0.47,9.94,-0.03,-0.01,-0.00,31.41
37624192,2427,1,213094,255150,1.27,-0.44,9.95,-0.03,-0.02,-0.00,31.41
37664192,2314,1,213424,255363,1.28,-0.45,9.92,-0.03,-0.02,-0.00,31.41
37704879,2259,1,213211,254705,1.27,-0.47,9.92,-0.04,-0.00,-0.00,31.71
37745193,2254,1,212595,253920,1.26,-0.42,9.93,-0.04,0.00,-0.01,31.71
37785172,2212,1,212010,253888,1.32,-0.44,9.85,-0.05,0.05,-0.01,31.71
37825172,2063,1,211602,254192,1.22,-0.47,10.02,-0.05,0.04,-0.02,31.71
37865172,2033,1,211379,254282,1.18,-0.45,9.97,-0.04,-0.02,-0.01,31.71
37905192,1936,1,211305,254430,1.24,-0.46,9.95,-0.03,-0.03,-0.00,31.71
37945192,1935,1,211385,254515,1.24,-0.46,9.94,-0.03,-0.04,-0.00,31.71
37985192,1856,1,211445,254693,1.30,-0.46,9.86,-0.04,-0.01,-0.00,31.71
38025215,1840,1,211484,254862,1.23,-0.45,9.93,-0.04,-0.00,-0.01,31.71
38065192,1815,1,211545,255128,1.24,-0.45,9.95,-0.03,-0.00,-0.01,31.71
38105192,1776,1,211679,255565,1.23,-0.46,9.92,-0.03,-0.01,-0.00,31.71
38145192,1810,1,211750,256005,1.25,-0.48,9.89,-0.03,-0.02,-0.00,31.71
38185192,1789,1,211891,256428,1.24,-0.46,9.91,-0.04,-0.01,-0.01,31.71
38225192,1792,1,211818,255376,1.24,-0.46,9.97,-0.04,-0.00,-0.01,31.71
38265192,1758,1,211089,253768,1.25,-0.48,9.90,-0.04,-0.01,-0.01,31.71
38305192,1696,1,210815,254355,1.25,-0.49,9.94,-0.03,-0.03,-0.01,31.71
38345192,1751,1,211139,255289,1.27,-0.45,9.90,-0.03,-0.02,-0.00,31.71
38385192,1670,1,211394,255850,1.28,-0.46,9.93,-0.03,-0.02,-0.00,31.71
38425192,1746,1,211513,256347,1.26,-0.49,9.92,-0.03,-0.01,-0.00,31.71
38465193,1667,1,211689,256644,1.28,-0.48,9.96,-0.03,-0.02,-0.00,31.71
38505192,1709,1,211735,256749,1.26,-0.45,9.92,-0.04,-0.00,-0.00,31.71
38545198,1694,1,211703,256722,1.26,-0.45,9.92,-0.03,-0.01,-0.01,31.71
38585192,1701,1,211680,256767,1.27,-0.46,9.91,-0.03,-0.01,-0.00,31.71
38625192,1722,1,211772,256775,1.27,-0.45,9.93,-0.03,-0.01,-0.01,31.71
38665192,1745,1,211827,256850,1.26,-0.47,9.91,-0.03,-0.01,-0.01,31.71
38705879,1692,1,211896,257229,1.30,-0.47,9.93,-0.04,-0.00,-0.00,31.69
38744234,1700,1,211830,256472,1.28,-0.48,9.96,-0.04,-0.00,-0.00,31.69
38784192,1613,1,211000,253275,1.27,-0.46,9.92,-0.03,-0.04,-0.00,31.69
38824192,1523,1,210684,252937,1.27,-0.46,9.92,-0.03,-0.04,-0.00,31.69
38864192,1408,1,210935,253380,1.28,-0.46,9.88,-0.03,-0.01,-0.00,31.69
38904192,1405,1,211119,253874,1.30,-0.47,9.88,-0.04,0.02,-0.01,31.69
38944195,1521,1,211277,254456,1.28,-0.49,9.95,-0.04,0.03,-0.01,31.69
38984173,1673,1,211381,254630,1.21,-0.46,9.97,-0.03,-0.02,-0.00,31.69
39024203,1750,1,211481,254581,1.26,-0.47,9.90,-0.03,-0.03,-0.00,31.69
39064190,1818,1,211508,254776,1.29,-0.49,9.91,-0.03,-0.02,-0.00,31.69
39104192,1870,1,211546,255014,1.30,-0.48,9.90,-0.03,-0.01,-0.00,31.69
39144189,1882,1,211600,255401,1.28,-0.42,9.93,-0.03,0.01,-0.00,31.69
39184172,1875,1,211626,255987,1.24,-0.43,9.94,-0.04,-0.00,-0.00,31.69
39224192,1887,1,211785,256186,1.27,-0.47,9.92,-0.04,-0.01,-0.00,31.69
39264193,1915,1,211831,255903,1.29,-0.47,9.91,-0.03,-0.01,-0.00,31.69
39304193,1938,1,211196,253579,1.27,-0.45,9.91,-0.04,-0.02,-0.00,31.69
39344192,1943,1,210736,253117,1.25,-0.47,9.96,-0.03,-0.02,-0.00,31.69
39384192,1942,1,210945,253357,1.28,-0.47,9.93,-0.03,-0.04,-0.00,31.69
39424192,1938,1,211157,253748,1.35,-0.47,9.89,-0.03,-0.03,-0.00,31.69
39464221,1925,1,211299,254539,1.32,-0.44,9.88,-0.04,0.01,-0.00,31.69
39504172,1908,1,211453,254967,1.23,-0.48,9.94,-0.04,0.00,-0.01,31.69
39544172,1902,1,211512,254919,1.25,-0.50,9.94,-0.03,-0.01,-0.00,31.69
39584192,1894,1,211464,254840,1.26,-0.47,9.92,-0.03,-0.02,-0.01,31.69
39624192,1879,1,211490,254840,1.30,-0.44,9.90,-0.03,-0.02,-0.01,31.69
39664193,1872,1,211616,255173,1.33,-0.45,9.91,-0.04,-0.02,-0.00,31.69
39704192,1856,1,211726,255533,1.30,-0.45,9.90,-0.03,-0.03,-0.00,31.69
39744879,1815,1,211865,255863,1.31,-0.44,9.88,-0.03,-0.01,-0.00,31.57
39785192,1827,1,211998,255867,1.27,-0.45,9.92,-0.04,-0.00,-0.00,31.57
39825192,1827,1,211536,253880,1.26,-0.47,9.92,-0.04,-0.00,-0.00,31.57
39865192,1824,1,211168,253351,1.28,-0.49,9.95,-0.03,-0.02,-0.00,31.57
39905192,1831,1,211384,253576,1.28,-0.45,9.92,-0.03,-0.03,-0.00,31.57
39945193,1813,1,211740,253859,1.30,-0.45,9.89,-0.03,-0.01,-0.00,31.57
39985192,1791,1,211874,254082,1.31,-0.47,9.93,-0.04,-0.00,-0.01,31.57
40025215,1771,1,211913,254271,1.32,-0.48,9.91,-0.04,-0.01,-0.00,31.57
40065192,1776,1,211887,254453,1.31,-0.46,9.91,-0.03,-0.01,-0.00,31.57
40105192,1771,1,211766,254697,1.28,-0.46,9.94,-0.03,-0.02,-0.00,31.57
40145192,1771,1,211851,255016,1.29,-0.46,9.92,-0.03,-0.00,-0.00,31.57
40185193,1761,1,211897,255261,1.30,-0.48,9.91,-0.03,-0.00,-0.01,31.57
40225193,1759,1,211942,255412,1.29,-0.45,9.92,-0.03,-0.01,-0.00,31.57
40265192,1773,1,212036,255497,1.29,-0.48,9.91,-0.03,-0.01,-0.00,31.57
40305192,1785,1,212128,255265,1.32,-0.45,9.89,-0.03,-0.01,-0.00,31.57
40345192,1793,1,211670,253539,1.32,-0.47,9.92,-0.03,0.00,-0.00,31.57
40385218,1825,1,211234,253222,1.31,-0.47,9.92,-0.03,-0.01,-0.00,31.57
40425192,1823,1,211227,253432,1.26,-0.47,9.93,-0.03,-0.01,-0.00,31.57
40465192,1840,1,211369,253566,1.28,-0.46,9.89,-0.03,-0.02,-0.00,31.57
40505192,1847,1,211466,253800,1.29,-0.45,9.92,-0.03,-0.00,-0.00,31.57
40545192,1853,1,211621,254053,1.31,-0.45,9.91,-0.03,-0.01,-0.00,31.57
40585233,1867,1,211633,254207,1.28,-0.46,9.90,-0.03,-0.01,-0.00,31.57
40625192,1879,1,211671,254142,1.28,-0.46,9.92,-0.03,-0.01,-0.00,31.57
40665192,1890,1,211712,254240,1.30,-0.47,9.92,-0.03,-0.01,-0.00,31.57
40705192,1899,1,211672,254604,1.31,-0.48,9.92,-0.03,-0.01,-0.00,31.57
40745879,1889,1,211697,254901,1.29,-0.46,9.94,-0.03,-0.01,-0.00,31.41
40784192,1934,1,211836,255167,1.30,-0.46,9.92,-0.03,-0.01,-0.00,31.41
40824192,1937,1,211927,255330,1.28,-0.47,9.92,-0.03,-0.02,-0.00,31.41
40864193,1936,1,211577,253564,1.31,-0.47,9.95,-0.03,-0.01,-0.00,31.41
40904192,1942,1,211090,252835,1.29,-0.45,9.93,-0.03,-0.01,-0.00,31.41
40944192,1936,1,211059,253094,1.31,-0.44,9.92,-0.03,-0.01,-0.00,31.41
40984192,1925,1,211139,253608,1.32,-0.45,9.92,-0.03,-0.01,-0.00,31.41
41024239,1920,1,211299,254275,1.30,-0.49,9.90,-0.03,-0.00,-0.00,31.41
41064190,1899,1,211509,255148,1.30,-0.46,9.92,-0.03,-0.01,-0.00,31.41
41104192,1891,1,211664,255524,1.28,-0.45,9.95,-0.03,-0.01,-0.01,31.41
41144192,1875,1,211773,255596,1.28,-0.47,9.93,-0.03,-0.01,-0.00,31.41
41184192,1853,1,211913,255738,1.31,-0.45,9.90,-0.03,-0.01,-0.00,31.41
41224193,1846,1,211978,256070,1.30,-0.46,9.90,-0.03,-0.01,-0.00,31.41
41264193,1821,1,212083,256238,1.29,-0.46,9.91,-0.03,-0.01,-0.00,31.41
41304193,1808,1,212154,256348,1.28,-0.48,9.94,-0.03,-0.02,-0.00,31.41
41344192,1791,1,212157,256541,1.31,-0.47,9.93,-0.03,-0.01,-0.00,31.41
41384193,1792,1,212244,256009,1.31,-0.47,9.91,-0.03,-0.00,-0.00,31.41
41424193,1776,1,211596,253412,1.29,-0.46,9.92,-0.03,-0.01,-0.00,31.41
41464192,1775,1,211004,253074,1.30,-0.48,9.91,-0.03,-0.01,-0.00,31.41
41504192,1764,1,211041,253462,1.31,-0.47,9.90,-0.03,-0.01,-0.00,31.41
41544193,1773,1,211269,253714,1.30,-0.47,9.90,-0.03,-0.01,-0.00,31.41
41584192,1769,1,211430,254387,1.30,-0.47,9.92,-0.04,-0.01,-0.00,31.41
41624193,1750,1,211571,254764,1.28,-0.45,9.92,-0.03,-0.01,-0.00,31.41
41664192,1745,1,211696,254737,1.32,-0.46,9.90,-0.03,-0.01,-0.00,31.41
41704193,1754,1,211606,254755,1.31,-0.47,9.90,-0.03,-0.02,-0.00,31.41
41744193,1756,1,211722,254814,1.30,-0.45,9.91,-0.03,-0.01,-0.00,31.41
41784879,1743,1,211770,255181,1.32,-0.45,9.90,-0.03,-0.00,-0.00,31.43
41825192,1733,1,211777,255237,1.30,-0.46,9.94,-0.03,-0.01,-0.00,31.43
41865193,1728,1,211786,255481,1.31,-0.46,9.90,-0.03,-0.01,-0.00,31.43
41905192,1741,1,211940,255643,1.31,-0.46,9.92,-0.03,-0.01,-0.00,31.43
41945193,1733,1,211866,256093,1.33,-0.45,9.90,-0.04,-0.01,-0.00,31.43
41985192,1707,1,211904,254424,1.32,-0.47,9.91,-0.04,-0.01,-0.01,31.43
42025223,1644,1,211036,253111,1.30,-0.46,9.89,-0.03,0.00,-0.00,31.43
42065172,1564,1,210907,253176,1.29,-0.45,9.96,-0.03,-0.02,-0.00,31.43
42105192,1446,1,211077,253340,1.29,-0.47,9.92,-0.03,-0.03,-0.00,31.43
42145192,1375,1,211117,253673,1.30,-0.46,9.90,-0.03,-0.01,-0.00,31.43
42185189,1344,1,211322,254153,1.29,-0.46,9.93,-0.03,-0.01,-0.00,31.43
42225213,1329,1,211353,254255,1.31,-0.46,9.91,-0.04,0.03,-0.00,31.43
42265172,1386,1,211374,254299,1.30,-0.48,9.89,-0.03,-0.01,-0.00,31.43
42305192,1455,1,211463,254320,1.31,-0.46,9.91,-0.03,-0.01,-0.00,31.43
42345192,1505,1,211508,254579,1.30,-0.46,9.90,-0.04,-0.01,-0.01,31.43
42385192,1576,1,211628,254942,1.31,-0.45,9.91,-0.04,-0.01,-0.01,31.43
42425206,1648,1,211613,255134,1.30,-0.48,9.92,-0.03,-0.00,-0.01,31.43
42465193,1742,1,211791,255138,1.30,-0.46,9.96,-0.03,-0.01,-0.00,31.43
42505193,1797,1,211710,255233,1.30,-0.44,9.90,-0.03,-0.01,-0.00,31.43
42545193,1840,1,211794,254962,1.30,-0.46,9.92,-0.03,-0.02,-0.00,31.43
42585192,1901,1,211429,253224,1.31,-0.45,9.91,-0.03,-0.01,-0.00,31.43
42625192,1904,1,211036,252825,1.29,-0.45,9.90,-0.03,-0.01,-0.00,31.43
42665192,1933,1,211076,252847,1.29,-0.47,9.92,-0.03,-0.01,-0.00,31.43
42705192,1963,1,211082,253249,1.29,-0.45,9.92,-0.03,-0.01,-0.00,31.43
42745192,1981,1,211271,253559,1.30,-0.44,9.95,-0.04,-0.01,-0.00,31.43
42785879,2032,1,211457,254025,1.30,-0.46,9.92,-0.03,-0.01,-0.00,31.11
42824193,2045,1,211504,254034,1.32,-0.47,9.93,-0.03,-0.01,-0.00,31.11
42864192,2069,1,211564,254209,1.29,-0.45,9.90,-0.03,-0.01,-0.00,31.11
42904193,2064,1,211557,254476,1.29,-0.46,9.90,-0.03,-0.02,-0.01,31.11
42944193,2061,1,211712,254785,1.32,-0.46,9.92,-0.03,-0.01,-0.01,31.11
42984192,2037,1,211775,255089,1.30,-0.46,9.91,-0.03,-0.01,-0.00,31.11
43024202,2032,1,211983,255187,1.30,-0.45,9.95,-0.03,-0.01,-0.00,31.11
43064193,2014,1,211943,255568,1.31,-0.45,9.88,-0.03,-0.01,-0.00,31.11
43104192,2000,1,212118,255571,1.31,-0.45,9.94,-0.03,-0.02,-0.00,31.11
43144193,1994,1,211881,254048,1.32,-0.48,9.91,-0.03,-0.01,-0.00,31.11
43184192,1974,1,211317,253083,1.31,-0.46,9.92,-0.03,-0.01,-0.00,31.11
43224193,1951,1,211162,253212,1.30,-0.45,9.90,-0.03,-0.01,-0.00,31.11
43264193,1936,1,211342,253573,1.31,-0.46,9.91,-0.03,-0.01,-0.00,31.11
43304193,1925,1,211370,253985,1.33,-0.46,9.88,-0.03,-0.01,-0.00,31.11
43344192,1907,1,211598,254597,1.32,-0.45,9.91,-0.03,-0.00,-0.00,31.11
43384193,1908,1,211744,254751,1.32,-0.47,9.91,-0.03,-0.01,-0.00,31.11
43424193,1876,1,211699,254989,1.31,-0.46,9.92,-0.03,-0.01,-0.00,31.11
43464193,1861,1,211847,255092,1.31,-0.46,9.90,-0.03,-0.01,-0.00,31.11
43504192,1873,1,211797,255432,1.31,-0.47,9.91,-0.03,-0.01,-0.01,31.11
43544192,1863,1,211985,255535,1.30,-0.45,9.90,-0.03,-0.01,-0.00,31.11
43584193,1867,1,212062,255572,1.31,-0.45,9.92,-0.03,-0.01,-0.00,31.11
43624193,1865,1,212040,255857,1.34,-0.49,9.89,-0.03,-0.01,-0.01,31.11
43664223,1847,1,212074,256119,1.33,-0.45,9.88,-0.03,-0.01,-0.00,31.11
43704193,1846,1,211959,254306,1.31,-0.48,9.91,-0.03,-0.00,-0.00,31.11
43744193,1845,1,211233,253142,1.32,-0.48,9.92,-0.03,-0.01,-0.00,31.11
43784193,1845,1,211156,253241,1.31,-0.46,9.91,-0.03,-0.02,-0.00,31.11
43824879,1825,1,211165,253705,1.33,-0.46,9.91,-0.03,-0.01,-0.00,31.13
43863197,1869,1,211318,254133,1.31,-0.45,9.91,-0.03,-0.01,-0.00,31.13
43903192,1859,1,211494,254519,1.31,-0.46,9.92,-0.03,-0.01,-0.00,31.13
43943192,1858,1,211687,254731,1.33,-0.46,9.90,-0.03,-0.02,-0.00,31.13
43983193,1849,1,211770,254769,1.33,-0.44,9.90,-0.03,-0.01,-0.00,31.13
44023192,1846,1,211710,255113,1.31,-0.45,9.92,-0.03,-0.00,-0.00,31.13
44063192,1840,1,211913,255326,1.30,-0.47,9.91,-0.03,-0.01,-0.00,31.13
44103192,1818,1,211877,255747,1.31,-0.49,9.91,-0.03,-0.01,-0.00,31.13
44143192,1809,1,212137,255826,1.31,-0.48,9.91,-0.03,-0.02,-0.00,31.13
44183192,1797,1,212148,256208,1.32,-0.46,9.92,-0.03,-0.01,-0.00,31.13
44223192,1794,1,212314,256477,1.32,-0.47,9.91,-0.03,-0.01,-0.00,31.13
44263192,1791,1,212320,255290,1.31,-0.46,9.93,-0.03,-0.01,-0.00,31.13
44303193,1808,1,211532,253819,1.30,-0.46,9.92,-0.03,-0.01,-0.00,31.13
44343192,1801,1,211494,253817,1.32,-0.43,9.90,-0.03,-0.01,-0.00,31.13
44383192,1791,1,211549,254186,1.35,-0.45,9.90,-0.03,-0.01,-0.00,31.13
44423192,1792,1,211683,254611,1.32,-0.47,9.93,-0.03,-0.01,-0.01,31.13
44463192,1781,1,211720,254934,1.32,-0.46,9.94,-0.03,-0.02,-0.00,31.13
44503192,1781,1,211997,255206,1.32,-0.48,9.93,-0.03,-0.01,-0.00,31.13
44543192,1770,1,212071,255212,1.32,-0.43,9.93,-0.03,-0.01,-0.00,31.13
44583192,1765,1,211961,255490,1.34,-0.46,9.89,-0.03,-0.01,-0.00,31.13
44623192,1779,1,212124,255735,1.31,-0.45,9.94,-0.03,-0.01,-0.00,31.13
44663192,1776,1,212138,256116,1.31,-0.44,9.90,-0.03,-0.01,-0.00,31.13
44703192,1792,1,212360,256492,1.31,-0.49,9.94,-0.03,-0.01,-0.00,31.13
44743192,1781,1,212391,256686,1.32,-0.45,9.94,-0.03,-0.01,-0.00,31.13
44783192,1795,1,212517,256972,1.32,-0.46,9.92,-0.03,-0.01,-0.00,31.13
44823192,1789,1,212487,256659,1.34,-0.47,9.91,-0.03,-0.01,-0.00,31.13
44863879,1747,1,212015,254484,1.32,-0.45,9.92,-0.03,-0.01,-0.00,30.99
44904193,1770,1,211505,254125,1.31,-0.46,9.93,-0.03,-0.01,-0.00,30.99
44944193,1765,1,211541,254506,1.29,-0.46,9.91,-0.03,-0.01,-0.00,30.99
44984193,1767,1,211745,254926,1.32,-0.47,9.93,-0.03,-0.01,-0.01,30.99
45024202,1780,1,211912,255379,1.32,-0.44,9.89,-0.03,-0.01,-0.00,30.99
45064193,1787,1,212088,255628,1.31,-0.44,9.93,-0.03,-0.01,-0.00,30.99
45104193,1802,1,212037,255767,1.33,-0.47,9.92,-0.03,-0.01,-0.00,30.99
45144193,1797,1,212151,255852,1.33,-0.45,9.89,-0.03,-0.01,-0.00,30.99
45184193,1798,1,212175,256201,1.32,-0.47,9.89,-0.03,-0.01,-0.00,30.99
45224192,1806,1,212274,256505,1.34,-0.48,9.92,-0.03,-0.01,-0.00,30.99
45264192,1808,1,212427,256644,1.31,-0.46,9.91,-0.03,-0.02,-0.00,30.99
45303195,1847,1,212456,256883,1.33,-0.45,9.91,-0.03,-0.01,-0.00,30.99
45343193,1849,1,212581,257174,1.33,-0.46,9.92,-0.03,-0.01,-0.00,30.99
45383192,1853,1,212681,257479,1.32,-0.47,9.91,-0.03,-0.01,-0.00,30.99
45423192,1855,1,212399,255934,1.33,-0.46,9.92,-0.03,-0.00,-0.00,30.99
45463192,1857,1,211646,254518,1.32,-0.47,9.92,-0.03,-0.01,-0.00,30.99
45503220,1856,1,211572,254462,1.31,-0.46,9.94,-0.03,-0.01,-0.00,30.99
45543192,1860,1,211542,254844,1.34,-0.47,9.87,-0.03,-0.01,-0.00,30.99
45583192,1853,1,211760,255071,1.32,-0.47,9.90,-0.03,-0.01,-0.00,30.99
45623193,1856,1,211935,255546,1.33,-0.48,9.92,-0.03,-0.01,-0.00,30.99
45663193,1845,1,212026,255669,1.32,-0.46,9.92,-0.03,-0.01,-0.00,30.99
45703209,1829,1,212071,255608,1.31,-0.46,9.91,-0.03,-0.01,-0.00,30.99
45743192,1838,1,212088,255846,1.34,-0.46,9.88,-0.03,-0.01,-0.00,30.99
45783193,1843,1,212063,256153,1.32,-0.45,9.92,-0.03,-0.01,-0.00,30.99
45823192,1851,1,212249,256423,1.31,-0.46,9.93,-0.03,-0.01,-0.00,30.99
45863879,1802,1,212373,256732,1.31,-0.45,9.88,-0.03,-0.01,-0.00,31.11
45904192,1811,1,212453,256907,1.31,-0.47,9.92,-0.03,-0.01,-0.00,31.11
45944193,1809,1,212473,257017,1.33,-0.44,9.90,-0.03,-0.01,-0.01,31.11
45984193,1815,1,212545,256591,1.32,-0.45,9.92,-0.03,-0.01,-0.00,31.11
46024203,1830,1,212015,254726,1.31,-0.45,9.93,-0.03,-0.00,-0.00,31.11
46064193,1826,1,211543,254405,1.31,-0.46,9.93,-0.03,-0.01,-0.00,31.11
46104193,1812,1,211637,254750,1.31,-0.46,9.93,-0.03,-0.01,-0.00,31.11
46144192,1803,1,211817,255101,1.33,-0.47,9.93,-0.03,-0.01,-0.01,31.11
46184192,1812,1,211909,255686,1.33,-0.46,9.89,-0.03,-0.01,-0.00,31.11
46224192,1808,1,212081,256007,1.30,-0.46,9.94,-0.03,-0.01,-0.00,31.11
46264193,1806,1,212044,256050,1.32,-0.46,9.94,-0.03,-0.02,-0.00,31.11
46304192,1797,1,212108,256192,1.32,-0.45,9.92,-0.03,-0.01,-0.00,31.11
46343192,1826,1,212113,256449,1.31,-0.47,9.94,-0.03,-0.01,-0.00,31.11
46383192,1815,1,212326,256655,1.30,-0.46,9.90,-0.03,-0.01,-0.01,31.11
46423193,1808,1,212418,256938,1.32,-0.47,9.92,-0.03,-0.01,-0.00,31.11
46463192,1802,1,212485,257255,1.32,-0.47,9.94,-0.03,-0.01,-0.00,31.11
46503192,1808,1,212525,257664,1.31,-0.46,9.94,-0.03,-0.01,-0.00,31.11
46543192,1821,1,212578,257406,1.32,-0.45,9.92,-0.03,-0.01,-0.00,31.11
46583192,1830,1,212050,255319,1.33,-0.47,9.92,-0.03,-0.01,-0.00,31.11
46623192,1833,1,211711,254683,1.33,-0.44,9.91,-0.03,-0.01,-0.00,31.11
46663192,1838,1,211695,254907,1.33,-0.47,9.92,-0.03,-0.01,-0.00,31.11
46703192,1852,1,211768,255319,1.32,-0.44,9.93,-0.03,-0.01,-0.00,31.11
46743192,1866,1,211856,255850,1.32,-0.45,9.92,-0.03,-0.01,-0.00,31.11
46783192,1874,1,212038,256104,1.32,-0.47,9.90,-0.03,-0.01,-0.01,31.11
46823192,1890,1,212181,256066,1.32,-0.47,9.92,-0.03,-0.01,-0.00,31.11
46863879,1872,1,212134,256212,1.33,-0.46,9.90,-0.03,-0.01,-0.00,31.19
46904193,1883,1,212170,256442,1.32,-0.45,9.91,-0.03,-0.01,-0.01,31.19
46944193,1895,1,212236,256588,1.31,-0.45,9.93,-0.03,-0.01,-0.00,31.19
46984192,1906,1,212362,256770,1.32,-0.47,9.90,-0.03,-0.01,-0.00,31.19
47024202,1914,1,212497,257178,1.34,-0.46,9.90,-0.03,-0.01,-0.00,31.19
47064192,1920,1,212495,257417,1.30,-0.46,9.91,-0.03,-0.01,-0.00,31.19
47104192,1921,1,212480,256605,1.29,-0.47,9.93,-0.03,-0.01,-0.00,31.19
47144217,1923,1,211890,254422,1.33,-0.45,9.92,-0.03,-0.01,-0.00,31.19
47184192,1929,1,211387,253958,1.31,-0.48,9.91,-0.03,-0.01,-0.00,31.19
47224192,1919,1,211330,254236,1.32,-0.45,9.92,-0.03,-0.01,-0.00,31.19
47264192,1895,1,211555,254383,1.32,-0.44,9.93,-0.03,-0.00,-0.00,31.19
47304192,1875,1,211511,254791,1.31,-0.46,9.95,-0.03,-0.01,-0.00,31.19
47344223,1842,1,211750,254813,1.33,-0.46,9.91,-0.03,-0.01,-0.00,31.19
47384192,1818,1,211785,254787,1.30,-0.44,9.96,-0.03,-0.01,-0.00,31.19
47424192,1799,1,211730,254668,1.30,-0.44,9.94,-0.03,-0.01,-0.01,31.19
47464192,1757,1,211665,254663,1.30,-0.43,9.91,-0.03,-0.01,-0.00,31.19
47504193,1753,1,211690,254634,1.30,-0.44,9.95,-0.03,-0.01,-0.00,31.19
47544192,1697,1,211695,254716,1.30,-0.46,9.90,-0.03,-0.01,-0.00,31.19
47584192,1682,1,211819,255001,1.31,-0.46,9.93,-0.03,-0.01,-0.00,31.19
47624192,1651,1,211810,255287,1.31,-0.45,9.90,-0.03,-0.01,-0.00,31.19
47664192,1624,1,211976,254932,1.31,-0.45,9.96,-0.03,-0.02,-0.00,31.19
47704193,1603,1,211631,253673,1.32,-0.45,9.89,-0.03,-0.01,-0.01,31.19
47744192,1605,1,211312,253230,1.32,-0.44,9.92,-0.03,-0.02,-0.00,31.19
47784192,1595,1,211205,253371,1.32,-0.48,9.90,-0.03,-0.02,-0.00,31.19
47824192,1583,1,211417,253448,1.31,-0.45,9.90,-0.03,-0.01,-0.00,31.19
47864879,1577,1,211454,253750,1.35,-0.44,9.92,-0.04,-0.00,-0.00,31.27
47903193,1648,1,211563,254039,1.34,-0.45,9.90,-0.03,-0.01,-0.00,31.27
47943192,1664,1,211555,253851,1.31,-0.44,9.91,-0.03,-0.01,-0.00,31.27
47983192,1707,1,211489,253641,1.30,-0.44,9.92,-0.03,-0.01,-0.01,31.27
48023192,1735,1,211441,253587,1.35,-0.44,9.89,-0.03,-0.01,-0.00,31.27
48063193,1774,1,211422,253594,1.34,-0.46,9.93,-0.03,-0.00,-0.01,31.27
48103192,1813,1,211531,253648,1.31,-0.49,9.90,-0.04,-0.01,-0.00,31.27
48143192,1835,1,211494,253809,1.32,-0.45,9.95,-0.04,-0.01,-0.00,31.27
48183192,1853,1,211508,253977,1.35,-0.47,9.91,-0.03,-0.01,-0.00,31.27
48223192,1859,1,211602,253810,1.33,-0.45,9.95,-0.03,-0.01,-0.01,31.27
48263192,1869,1,211300,252754,1.34,-0.45,9.89,-0.03,-0.02,-0.00,31.27
48303193,1859,1,210846,252228,1.32,-0.45,9.90,-0.04,-0.01,-0.00,31.27
48343193,1835,1,210746,252408,1.34,-0.46,9.91,-0.04,-0.01,-0.00,31.27
48383192,1831,1,210833,252527,1.33,-0.45,9.92,-0.04,-0.01,-0.00,31.27
48423192,1798,1,210968,252537,1.34,-0.43,9.94,-0.03,-0.01,-0.00,31.27
48463192,1777,1,211117,252697,1.35,-0.40,9.93,-0.03,-0.02,-0.00,31.27
48503192,1758,1,211393,252816,1.39,-0.42,9.91,-0.04,-0.02,-0.00,31.27
48543193,1740,1,211622,252726,1.15,-0.77,9.90,-0.04,0.01,-0.00,31.27
48583170,1740,1,211384,252818,1.26,-0.40,9.95,-0.03,0.02,-0.01,31.27
48623172,1739,1,211187,253576,1.41,-0.32,9.89,-0.03,0.00,-0.00,31.27
48663173,1750,1,211128,254809,1.36,-0.45,9.94,-0.04,0.01,-0.00,31.27
48703172,1771,1,211210,255185,1.32,-0.50,9.95,-0.04,-0.02,-0.00,31.27
48743193,1794,1,211317,254886,1.22,-0.52,9.91,-0.04,-0.02,-0.01,31.27
48783231,1840,1,211331,254023,1.34,-0.31,9.91,-0.03,-0.03,-0.00,31.27
48823193,1865,1,210929,252282,1.34,-0.55,9.88,-0.04,-0.01,-0.01,31.27
48863193,1919,1,210545,252000,1.26,-0.61,9.91,-0.04,0.00,-0.01,31.27
48903859,1910,1,210547,252368,1.31,-0.32,9.94,-0.03,-0.02,-0.01,31.39
48944193,1919,1,210687,252892,1.30,-0.42,9.90,-0.03,-0.01,-0.00,31.39
48984205,1917,1,210838,253459,1.30,-0.54,9.93,-0.03,-0.01,-0.00,31.39
49024202,1916,1,210965,253538,1.32,-0.49,9.92,-0.03,-0.02,-0.00,31.39
49064192,1907,1,210998,253392,1.31,-0.39,9.93,-0.03,-0.01,-0.00,31.39
49104192,1887,1,211061,253559,1.27,-0.43,9.88,-0.03,-0.00,-0.00,31.39
49144192,1835,1,211031,253667,1.30,-0.55,9.96,-0.03,-0.01,-0.00,31.39
49184211,1808,1,211187,253518,1.36,-0.45,9.91,-0.03,-0.03,-0.00,31.39
49224192,1717,1,211120,253694,1.33,-0.40,9.89,-0.03,-0.01,-0.00,31.39
49264192,1703,1,211334,253967,1.29,-0.48,9.92,-0.03,-0.00,-0.00,31.39
49304192,1615,1,211340,254283,1.32,-0.48,9.95,-0.03,-0.01,-0.00,31.39
49344192,1602,1,211354,253334,1.36,-0.45,9.93,-0.03,-0.02,-0.00,31.39
49384192,1528,1,210804,251972,1.31,-0.44,9.89,-0.03,-0.01,-0.00,31.39
49423192,1535,1,210562,251966,1.25,-0.47,9.92,-0.03,-0.01,-0.00,31.39
49463192,1565,1,210596,252087,1.33,-0.47,9.91,-0.03,-0.01,-0.00,31.39
49503192,1616,1,210702,252559,1.36,-0.45,9.89,-0.03,-0.01,-0.00,31.39
49543192,1567,1,210950,253409,1.31,-0.49,9.93,-0.04,-0.01,-0.00,31.39
49583192,1701,1,211323,254614,1.31,-0.45,9.88,-0.04,-0.01,-0.00,31.39
49623192,1621,1,211571,255075,1.31,-0.44,9.90,-0.03,-0.03,-0.00,31.39
49663192,1642,1,211715,255560,1.37,-0.46,9.92,-0.03,-0.02,-0.00,31.39
49703192,1535,1,212009,256046,1.31,-0.45,9.93,-0.03,-0.01,-0.00,31.39
49743192,1655,1,212149,256200,1.29,-0.44,9.94,-0.03,-0.01,-0.00,31.39
49783192,1635,1,212224,256481,1.33,-0.44,9.95,-0.03,-0.03,-0.00,31.39
49823192,1646,1,212385,256410,1.33,-0.47,9.97,-0.03,0.00,-0.00,31.39
49863169,1627,1,212140,256038,1.33,-0.47,9.95,-0.03,-0.01,-0.00,31.39
49903192,1597,1,212654,254652,1.31,-0.42,10.05,-0.02,-0.29,0.02,31.39
49943859,1621,1,212661,254119,1.74,-0.43,9.33,-0.03,-0.14,0.01,31.71
49984172,1701,1,212573,254469,1.51,-0.48,9.78,-0.04,0.11,-0.01,31.71
50022179,1757,1,212373,255088,1.36,-0.48,9.96,-0.04,0.17,-0.01,31.71
50062172,1728,1,212227,255697,1.24,-0.46,10.09,-0.03,0.02,-0.01,31.71
50102172,1813,1,212414,256330,1.37,-0.42,9.92,-0.03,-0.05,-0.00,31.71
50142192,1773,1,212650,256749,1.44,-0.45,9.88,-0.03,-0.04,-0.00,31.71
50182192,1776,1,212806,257349,1.41,-0.45,9.90,-0.04,0.01,-0.00,31.71
50222172,1833,1,212996,258067,1.32,-0.42,9.97,-0.04,-0.00,-0.00,31.71
50262192,1851,1,213141,258792,1.37,-0.43,9.89,-0.03,-0.02,-0.01,31.71
50302192,1897,1,213310,259274,1.40,-0.50,9.86,-0.04,-0.01,-0.00,31.71
50342189,1919,1,213389,259537,1.33,-0.47,9.91,-0.04,0.00,-0.01,31.71
50382172,1897,1,213361,259444,1.32,-0.46,9.93,-0.03,0.00,-0.00,31.71
50423175,1904,1,213345,258997,1.37,-0.43,9.92,-0.03,-0.01,-0.00,31.71
50463192,1925,1,212810,255554,1.42,-0.47,9.89,-0.03,-0.01,-0.01,31.71
50503192,1913,1,211568,253529,1.39,-0.46,9.90,-0.03,-0.01,-0.00,31.71
50543192,1963,1,211446,253716,1.35,-0.42,9.92,-0.03,-0.01,-0.00,31.71
50583192,1963,1,211613,254283,1.32,-0.46,9.95,-0.03,-0.01,-0.00,31.71
50623219,2021,1,211817,254700,1.37,-0.48,9.93,-0.03,-0.01,-0.00,31.71
50663192,1985,1,212021,254880,1.41,-0.48,9.88,-0.03,-0.01,-0.01,31.71
50703192,1989,1,212050,254827,1.39,-0.41,9.92,-0.03,-0.01,-0.00,31.71
50743192,2014,1,212060,254879,1.34,-0.42,9.92,-0.03,-0.00,-0.00,31.71
50783192,2002,1,212106,255174,1.35,-0.47,9.93,-0.03,-0.01,-0.00,31.71
50823210,1975,1,212240,255506,1.39,-0.46,9.89,-0.03,-0.02,-0.00,31.71
50863192,2004,1,212397,255724,1.35,-0.44,9.93,-0.03,-0.01,-0.00,31.71
50903192,2003,1,212469,255986,1.35,-0.46,9.90,-0.03,-0.01,-0.00,31.71
50943879,1999,1,212612,256206,1.38,-0.46,9.90,-0.03,-0.01,-0.01,31.53
50982192,2023,1,212559,254360,1.39,-0.45,9.91,-0.03,-0.02,-0.00,31.53
51022203,2020,1,211629,252286,1.37,-0.44,9.93,-0.03,-0.01,-0.00,31.53
51062192,2036,1,211309,252212,1.36,-0.45,9.92,-0.03,-0.01,-0.00,31.53
51102192,1994,1,211385,252585,1.36,-0.47,9.91,-0.03,-0.01,-0.00,31.53
51142192,2018,1,211564,253079,1.40,-0.45,9.89,-0.03,-0.01,-0.00,31.53
51182192,2018,1,211768,253818,1.36,-0.45,9.91,-0.03,-0.01,-0.00,31.53
51222192,1981,1,211956,254387,1.38,-0.44,9.91,-0.03,-0.01,-0.00,31.53
51262192,1955,1,212090,254890,1.37,-0.45,9.92,-0.03,-0.01,-0.00,31.53
51302192,1979,1,212190,255532,1.38,-0.47,9.91,-0.04,-0.01,-0.01,31.53
51342192,1946,1,212370,256142,1.35,-0.45,9.93,-0.03,-0.00,-0.00,31.53
51382192,1999,1,212530,256536,1.35,-0.43,9.94,-0.03,-0.01,-0.00,31.53
51422193,1957,1,212592,256635,1.36,-0.45,9.96,-0.03,-0.02,-0.00,31.53
51462192,1934,1,212737,256762,1.37,-0.45,9.94,-0.03,-0.03,-0.00,31.53
51502192,1925,1,212800,256136,1.40,-0.46,9.90,-0.03,-0.02,-0.00,31.53
51542189,1914,1,212051,253313,1.38,-0.45,9.91,-0.04,0.00,-0.00,31.53
51582171,1897,1,211400,252823,1.36,-0.45,9.95,-0.03,0.00,-0.00,31.53
51622170,1885,1,211482,253266,1.35,-0.45,9.91,-0.03,-0.01,-0.00,31.53
51662192,1898,1,211624,253748,1.37,-0.45,9.90,-0.03,-0.01,-0.00,31.53
51702192,1851,1,211819,254572,1.36,-0.46,9.91,-0.03,-0.00,-0.01,31.53
51742192,1878,1,212078,255025,1.37,-0.46,9.92,-0.03,-0.01,-0.00,31.53
51782192,1857,1,212054,254867,1.35,-0.46,9.93,-0.03,-0.01,-0.00,31.53
51822192,1854,1,211967,254839,1.36,-0.45,9.91,-0.03,-0.02,-0.00,31.53
51862192,1861,1,212071,255606,1.37,-0.45,9.89,-0.04,0.00,-0.00,31.53
51902172,1841,1,212247,256373,1.37,-0.45,9.93,-0.04,-0.00,-0.00,31.53
51942192,1856,1,212487,256996,1.36,-0.45,9.91,-0.03,-0.01,-0.00,31.53
51982879,1793,1,212525,257192,1.36,-0.44,9.90,-0.03,-0.01,-0.00,31.39
52023192,1839,1,212570,257200,1.35,-0.45,9.92,-0.03,-0.01,-0.00,31.39
52063192,1795,1,212253,254323,1.35,-0.45,9.90,-0.03,-0.01,-0.01,31.39
52103192,1809,1,211068,252540,1.34,-0.49,9.93,-0.03,-0.01,-0.00,31.39
52143192,1814,1,210883,252686,1.36,-0.44,9.88,-0.03,-0.01,-0.00,31.39
52183192,1798,1,211035,253170,1.36,-0.48,9.87,-0.03,-0.01,-0.00,31.39
52223193,1795,1,211207,253717,1.36,-0.46,9.92,-0.03,-0.01,-0.00,31.39
52263192,1808,1,211410,254373,1.36,-0.45,9.91,-0.03,-0.01,-0.01,31.39
52303192,1813,1,211584,254724,1.35,-0.45,9.90,-0.03,-0.01,-0.00,31.39
52343193,1793,1,211641,255060,1.34,-0.47,9.89,-0.04,-0.01,-0.00,31.39
52383192,1838,1,211698,255487,1.35,-0.47,9.92,-0.03,-0.00,-0.00,31.39
52423192,1789,1,211796,255725,1.36,-0.45,9.92,-0.03,-0.01,-0.00,31.39
52463214,1856,1,211837,255760,1.35,-0.45,9.89,-0.03,-0.02,-0.00,31.39
52503192,1806,1,211831,255639,1.37,-0.46,9.92,-0.03,-0.02,-0.00,31.39
52543192,1808,1,211874,255477,1.39,-0.45,9.94,-0.03,-0.02,-0.00,31.39
52583192,1775,1,211773,254168,1.37,-0.46,9.91,-0.03,-0.01,-0.00,31.39
52623192,1829,1,210856,251171,1.36,-0.46,9.91,-0.03,-0.02,-0.00,31.39
52663192,1833,1,210225,250380,1.37,-0.47,9.89,-0.03,-0.01,-0.00,31.39
52703192,1790,1,210190,250451,1.37,-0.45,9.93,-0.03,-0.02,-0.01,31.39
52743192,1776,1,210307,250861,1.39,-0.43,9.87,-0.04,-0.02,-0.00,31.39
52783192,1843,1,210559,251613,1.37,-0.44,9.90,-0.04,0.01,-0.00,31.39
52823172,1797,1,210826,252440,1.37,-0.46,9.83,-0.04,-0.01,-0.01,31.39
52863192,1791,1,211039,252969,1.36,-0.46,9.93,-0.03,-0.02,-0.00,31.39
52903192,1793,1,211165,253378,1.39,-0.47,9.86,-0.03,-0.01,-0.00,31.39
52943192,1803,1,211205,253526,1.36,-0.45,9.90,-0.03,0.01,-0.01,31.39
52983858,1806,1,211197,253105,1.35,-0.43,9.92,-0.03,-0.00,-0.00,31.27
53022200,1812,1,211190,252611,1.32,-0.45,9.98,-0.03,-0.04,-0.00,31.27
53062192,1827,1,212203,253802,1.34,-0.44,10.00,-0.02,-0.08,-0.00,31.27
53102192,1845,1,213556,254395,1.48,-0.45,9.76,-0.03,-0.07,-0.00,31.27
53142192,1901,1,213623,253795,1.46,-0.45,9.79,-0.04,0.01,-0.01,31.27
53182172,1903,1,212833,252459,1.42,-0.43,9.84,-0.05,0.07,-0.01,31.27
53222172,1917,1,212153,252116,1.31,-0.46,10.01,-0.05,0.09,-0.01,31.27
53262171,1939,1,212076,252526,1.32,-0.44,9.94,-0.03,-0.03,-0.01,31.27
53302192,1951,1,212306,253445,1.36,-0.46,9.90,-0.03,-0.03,-0.00,31.27
53342192,1934,1,212741,254796,1.36,-0.47,9.88,-0.03,-0.01,-0.00,31.27
53382192,1938,1,213194,256275,1.36,-0.45,9.90,-0.04,-0.01,-0.00,31.27
53422193,1925,1,213570,257590,1.36,-0.47,9.91,-0.04,-0.01,-0.00,31.27
53462192,1919,1,213801,258785,1.35,-0.48,9.91,-0.04,0.01,-0.01,31.27
53502172,1885,1,213985,259677,1.34,-0.47,9.93,-0.03,-0.01,-0.01,31.27
53542192,1872,1,214088,260196,1.35,-0.46,9.89,-0.03,-0.02,-0.00,31.27
53582192,1854,1,214168,260229,1.30,-0.46,9.95,-0.03,-0.02,-0.00,31.27
53622192,1857,1,214101,260073,1.37,-0.47,9.95,-0.03,-0.01,-0.00,31.27
53662192,1854,1,214050,259310,1.37,-0.48,9.90,-0.04,0.00,-0.01,31.27
53702172,1841,1,213228,256355,1.38,-0.47,9.89,-0.04,0.02,-0.01,31.27
53742171,1854,1,212232,255331,1.30,-0.46,9.96,-0.03,0.03,-0.01,31.27
53782172,1849,1,212175,255749,1.28,-0.45,9.95,-0.03,-0.01,-0.01,31.27
53822192,1871,1,212334,256541,1.36,-0.47,9.89,-0.03,-0.02,-0.00,31.27
53862192,1878,1,212624,257574,1.34,-0.48,9.92,-0.04,-0.00,-0.01,31.27
53902238,1885,1,212800,258078,1.29,-0.45,9.92,-0.03,-0.01,-0.01,31.27
53942192,1873,1,212808,258197,1.31,-0.49,9.94,-0.04,-0.01,-0.01,31.27
53982192,1872,1,212802,258426,1.30,-0.48,9.91,-0.03,-0.01,-0.01,31.27
54022889,1856,1,212921,258475,1.31,-0.47,9.96,-0.03,-0.03,-0.00,31.21
54063192,1850,1,213067,258546,1.36,-0.43,9.89,-0.03,-0.02,-0.00,31.21
54103205,1797,1,213227,258533,1.36,-0.46,9.96,-0.03,-0.01,-0.01,31.21
54143193,1806,1,213445,258307,1.32,-0.49,9.98,-0.03,-0.06,-0.00,31.21
54183192,1792,1,213508,257171,1.36,-0.47,9.84,-0.03,-0.06,-0.00,31.21
54223192,1831,1,212560,254088,1.39,-0.43,9.86,-0.04,0.01,-0.00,31.21
54263172,1845,1,211776,254080,1.37,-0.45,9.90,-0.05,0.03,-0.01,31.21
54303172,1831,1,211734,255741,1.33,-0.52,9.96,-0.05,0.06,-0.02,31.21
54343172,1833,1,211936,256856,1.28,-0.46,9.95,-0.04,0.00,-0.02,31.21
54383172,1827,1,212086,257259,1.28,-0.44,10.00,-0.03,-0.03,-0.01,31.21
54423192,1813,1,212250,257626,1.36,-0.46,9.88,-0.03,-0.04,-0.00,31.21
54463192,1812,1,212255,257954,1.36,-0.49,9.88,-0.03,0.00,-0.00,31.21
54503169,1807,1,211997,257729,1.34,-0.47,9.89,-0.03,0.03,-0.00,31.21
54543172,1816,1,211737,257236,1.30,-0.46,9.91,-0.03,-0.03,-0.00,31.21
54583192,1840,1,211663,256932,1.25,-0.46,10.06,-0.03,-0.02,-0.00,31.21
54623192,1850,1,211993,256816,1.39,-0.47,9.90,-0.03,-0.09,-0.00,31.21
54663192,1835,1,212150,255925,1.41,-0.45,9.87,-0.02,-0.04,-0.00,31.21
54703192,1826,1,211957,255376,1.41,-0.43,9.84,-0.04,0.05,-0.01,31.21
54743172,1807,1,211587,253684,1.38,-0.45,9.90,-0.05,0.11,-0.01,31.21
54783172,1789,1,210639,252649,1.18,-0.57,9.97,-0.04,0.02,-0.09,31.21
54823172,1786,1,210441,253210,1.03,-0.42,10.04,-0.03,-0.05,-0.02,31.21
54863192,1775,1,210626,253811,1.47,-0.33,9.89,-0.02,-0.13,-0.00,31.21
54903192,1772,1,210970,255300,1.53,-0.51,9.78,-0.03,0.01,-0.00,31.21
54943172,1791,1,211470,257354,1.43,-0.48,9.78,-0.04,0.07,-0.00,31.21
54983172,1805,1,211369,257478,1.28,-0.57,10.20,-0.05,0.04,-0.05,31.21
55023858,1808,1,210944,257296,1.23,-0.39,9.95,-0.04,-0.02,-0.12,31.25
55062192,1835,1,210764,256889,1.27,-0.33,9.95,-0.03,-0.04,-0.04,31.25
55102192,1833,1,210628,255936,1.30,-0.58,9.88,-0.02,-0.04,-0.01,31.25
55142192,1799,1,210473,255079,1.25,-0.40,9.94,-0.02,-0.05,-0.00,31.25
55182192,1800,1,210368,254519,1.38,-0.34,9.86,-0.03,-0.03,-0.00,31.25
55222192,1854,1,210264,254319,1.35,-0.54,9.92,-0.03,0.01,-0.00,31.25
55262172,1899,1,210189,252289,1.40,-0.48,9.89,-0.05,0.05,-0.01,31.25
55302172,1904,1,209017,248748,1.24,-0.40,10.03,-0.04,-0.02,-0.00,31.25
55342192,1907,1,208334,247958,1.31,-0.38,9.85,-0.03,-0.02,-0.00,31.25
55382192,1904,1,208114,247539,1.37,-0.49,9.92,-0.03,-0.00,-0.00,31.25
55422192,1902,1,207919,247422,1.32,-0.53,9.93,-0.03,-0.01,-0.00,31.25
55462192,1859,1,207957,248086,1.33,-0.35,9.93,-0.04,-0.01,-0.00,31.25
55502192,1793,1,208343,249522,1.30,-0.41,9.91,-0.04,0.02,-0.00,31.25
55542176,1725,1,208726,250743,1.28,-0.51,9.94,-0.04,0.01,-0.01,31.25
55582172,1628,1,208990,251408,1.43,-0.48,9.88,-0.03,-0.01,-0.00,31.25
55622193,1520,1,208953,251518,1.28,-0.42,9.94,-0.03,-0.03,-0.00,31.25
55662192,1407,1,209075,252259,1.25,-0.40,9.91,-0.03,-0.01,-0.01,31.25
55702193,1234,1,209320,252838,1.36,-0.49,9.96,-0.04,-0.01,-0.00,31.25
55742224,1138,1,209339,252584,1.37,-0.48,9.93,-0.03,-0.03,-0.00,31.25
55782192,1057,1,209002,250361,1.35,-0.39,9.91,-0.03,-0.03,-0.00,31.25
55822192,910,1,208096,249153,1.26,-0.45,9.90,-0.04,0.01,-0.00,31.25
55862170,898,1,207961,249454,1.32,-0.46,9.96,-0.03,-0.01,-0.00,31.25
55902193,847,1,208158,250383,1.41,-0.46,9.92,-0.03,-0.01,-0.00,31.25
55942219,1006,1,208617,251711,1.29,-0.44,9.92,-0.04,0.01,-0.00,31.25
55982172,1296,1,209071,252506,1.27,-0.44,9.91,-0.03,-0.01,-0.00,31.25
56022203,1629,1,208984,251926,1.32,-0.48,9.94,-0.03,-0.04,-0.00,31.25
56062879,1973,1,208704,251537,1.38,-0.51,9.85,-0.03,-0.04,-0.00,31.05
56103192,2250,1,208853,252951,1.42,-0.44,9.88,-0.04,0.02,-0.00,31.05
56143171,2412,1,209379,254426,1.27,-0.47,9.96,-0.04,0.01,-0.00,31.05
56183172,2532,1,209583,254887,1.29,-0.44,9.94,-0.03,-0.03,-0.00,31.05
56223193,2640,1,209594,254749,1.34,-0.47,9.92,-0.03,-0.05,-0.00,31.05
56263192,2646,1,209597,254495,1.37,-0.48,9.85,-0.03,-0.03,-0.00,31.05
56303192,2486,1,209331,252432,1.41,-0.40,9.85,-0.04,0.02,-0.01,31.05
56343172,2368,1,208324,250611,1.28,-0.47,9.96,-0.04,0.03,-0.01,31.05
56383171,2283,1,208004,250224,1.31,-0.44,9.97,-0.03,-0.02,-0.00,31.05
56423192,2213,1,207933,249816,1.39,-0.48,9.94,-0.03,-0.04,-0.00,31.05
56463192,2154,1,207900,250265,1.38,-0.45,9.89,-0.03,-0.02,-0.00,31.05
56503192,2112,1,208339,251903,1.35,-0.41,9.90,-0.04,0.00,-0.00,31.05
56543172,2047,1,208832,253004,1.30,-0.47,9.96,-0.04,-0.00,-0.00,31.05
56583192,2043,1,209031,253598,1.37,-0.45,9.91,-0.03,-0.02,-0.01,31.05
56623192,2013,1,209171,253903,1.37,-0.44,9.95,-0.03,-0.01,-0.00,31.05
56663192,2012,1,209150,253720,1.32,-0.45,9.89,-0.03,-0.02,-0.01,31.05
56703193,2027,1,209115,253334,1.35,-0.41,9.95,-0.03,-0.02,-0.01,31.05
56743192,2059,1,208888,252079,1.37,-0.47,9.92,-0.03,-0.02,-0.01,31.05
56783193,2006,1,208587,251179,1.38,-0.45,9.85,-0.03,-0.03,-0.00,31.05
56823192,2298,1,208422,250134,1.40,-0.50,9.81,-0.05,0.07,-0.01,31.05
56863173,2582,1,208306,250108,1.29,-0.44,10.00,-0.04,0.09,-0.01,31.05
56903175,2703,1,208454,250375,1.27,-0.41,9.98,-0.03,0.00,-0.01,31.05
56943174,2605,1,208484,250606,1.28,-0.47,9.94,-0.03,-0.04,-0.00,31.05
56983194,2583,1,208277,250805,1.25,-0.51,9.96,-0.03,-0.08,-0.00,31.05
57023193,2435,1,208349,251577,1.37,-0.42,9.90,-0.03,-0.07,-0.00,31.05
57063879,2310,1,208551,252503,1.39,-0.41,9.87,-0.03,-0.02,-0.01,30.91
57102192,2123,1,208923,253468,1.31,-0.45,9.93,-0.04,0.01,-0.00,30.91
57142172,1955,1,209123,253676,1.29,-0.51,9.97,-0.03,-0.01,-0.00,30.91
57182192,1865,1,209087,253343,1.38,-0.42,9.91,-0.03,-0.03,-0.01,30.91
57222192,1763,1,208973,253065,1.41,-0.43,9.89,-0.03,-0.04,-0.00,30.91
57262192,1731,1,209017,253203,1.35,-0.50,9.88,-0.03,-0.00,-0.00,30.91
57302192,1680,1,209141,253340,1.32,-0.46,9.93,-0.03,0.00,-0.00,30.91
57342172,1654,1,208703,250494,1.36,-0.41,9.90,-0.04,0.01,-0.01,30.91
57382172,1613,1,207617,248581,1.34,-0.45,9.92,-0.03,-0.01,-0.00,30.91
57422192,1573,1,207361,248455,1.32,-0.47,9.91,-0.03,-0.02,-0.00,30.91
57462192,1494,1,207457,248987,1.35,-0.47,9.90,-0.03,-0.02,-0.00,30.91
57502192,1461,1,207722,250405,1.40,-0.41,9.90,-0.03,-0.02,-0.00,30.91
57542189,1450,1,208395,252453,1.36,-0.45,9.94,-0.04,0.01,-0.00,30.91
57582172,1230,1,208853,253260,1.33,-0.50,9.96,-0.04,-0.02,-0.00,30.91
57622193,1232,1,208877,253319,1.35,-0.43,9.93,-0.03,-0.03,-0.00,30.91
57662192,1323,1,208927,253620,1.41,-0.43,9.89,-0.03,-0.02,-0.00,30.91
57702192,1395,1,209103,254352,1.40,-0.45,9.92,-0.03,0.00,-0.00,30.91
57742172,1375,1,209364,255131,1.36,-0.45,9.90,-0.04,0.02,-0.01,30.91
57782173,1531,1,209585,255416,1.30,-0.44,9.93,-0.03,0.02,-0.00,30.91
57822172,1596,1,209607,254614,1.32,-0.43,9.94,-0.03,-0.01,-0.01,30.91
57862192,1641,1,208877,251927,1.39,-0.48,9.86,-0.03,-0.01,-0.01,30.91
57902193,1750,1,208161,251249,1.36,-0.46,9.90,-0.04,0.01,-0.01,30.91
57942172,1814,1,208344,252132,1.27,-0.43,9.96,-0.03,-0.01,-0.00,30.91
57982192,1968,1,208742,253622,1.33,-0.44,9.88,-0.04,0.00,-0.00,30.91
58022177,1904,1,209331,254873,1.33,-0.45,9.92,-0.04,0.02,-0.01,30.91
58062173,2068,1,209743,255489,1.31,-0.47,9.94,-0.04,0.01,-0.01,30.91
58102859,2096,1,209459,253096,1.12,-0.48,10.25,-0.02,-0.02,-0.01,31.05
58141192,2082,1,208725,253751,1.47,-0.36,9.57,-0.03,-0.17,-0.00,31.05
58181192,2151,1,209748,256714,1.38,-0.47,9.95,-0.07,0.10,-0.01,31.05
58221171,2135,1,210714,258339,1.41,-0.50,9.91,-0.04,0.02,-0.04,31.05
58261172,2303,1,211608,259711,1.28,-0.46,9.91,-0.03,-0.00,-0.04,31.05
58301193,2367,1,212137,259972,1.19,-0.41,9.95,-0.03,-0.01,-0.04,31.05
58341193,2327,1,211853,258682,1.29,-0.43,9.94,-0.03,-0.02,-0.01,31.05
58381192,2356,1,210528,254979,1.35,-0.48,9.88,-0.03,-0.04,-0.01,31.05
58422193,2253,1,209339,253860,1.33,-0.44,9.86,-0.03,-0.02,-0.00,31.05
58462193,2247,1,209461,254586,1.31,-0.42,9.93,-0.03,0.00,-0.00,31.05
58502170,2186,1,209437,254952,1.31,-0.48,9.98,-0.03,-0.04,-0.00,31.05
58542193,2167,1,209461,255391,1.32,-0.47,9.92,-0.04,-0.02,-0.00,31.05
58582192,2083,1,209127,255165,1.26,-0.44,10.05,-0.04,-0.10,-0.00,31.05
58622192,2039,1,208936,255892,1.53,-0.45,9.57,-0.05,-0.09,-0.00,31.05
58662192,2073,1,209073,256253,1.43,-0.48,9.89,-0.04,0.07,-0.00,31.05
58702171,1991,1,208794,255857,1.35,-0.47,9.97,-0.03,-0.03,-0.00,31.05
58742192,1954,1,208583,255886,1.42,-0.42,9.84,-0.03,-0.00,-0.01,31.05
58782192,1905,1,208592,255968,1.37,-0.46,9.96,-0.03,0.01,-0.00,31.05
58822172,1867,1,208634,256145,1.40,-0.47,9.88,-0.03,0.00,-0.00,31.05
58862171,1791,1,208828,255926,1.42,-0.47,9.85,-0.03,0.05,-0.01,31.05
58902172,1808,1,208539,254108,1.33,-0.44,9.92,-0.03,0.02,-0.00,31.05
58942172,1819,1,208207,253938,1.33,-0.43,9.90,-0.03,-0.02,-0.00,31.05
58982192,1775,1,208546,254740,1.36,-0.47,9.89,-0.03,0.01,-0.00,31.05
59022214,1776,1,208723,254862,1.34,-0.46,9.92,-0.03,-0.02,-0.00,31.05
59062193,1744,1,208739,255230,1.35,-0.43,9.88,-0.03,-0.02,-0.01,31.05
59102879,1718,1,208747,255249,1.33,-0.45,9.95,-0.03,-0.02,-0.00,30.81
59141192,1778,1,208768,255611,1.35,-0.43,9.88,-0.03,-0.03,-0.00,30.81
59181193,1859,1,208887,256111,1.36,-0.44,9.98,-0.04,-0.01,-0.01,30.81
59221208,1806,1,208957,256804,1.37,-0.43,9.88,-0.04,-0.00,-0.00,30.81
59261192,1809,1,209246,257284,1.33,-0.45,9.95,-0.04,0.02,-0.01,30.81
59301172,1813,1,209254,257180,1.31,-0.45,9.94,-0.04,-0.01,-0.01,30.81
59341193,1767,1,209068,257012,1.35,-0.45,9.94,-0.03,-0.03,-0.01,30.81
59381192,1766,1,208990,256500,1.35,-0.46,9.89,-0.03,-0.01,-0.01,30.81
59421192,1785,1,208497,254755,1.32,-0.46,9.96,-0.03,-0.00,-0.00,30.81
59462192,1773,1,207961,253606,1.34,-0.44,9.93,-0.03,-0.03,-0.00,30.81
59502192,1777,1,207814,253908,1.40,-0.43,9.83,-0.03,-0.02,-0.01,30.81
59542192,1758,1,208085,254824,1.38,-0.44,9.90,-0.04,0.01,-0.00,30.81
59582172,1779,1,208483,255961,1.32,-0.45,9.92,-0.03,0.02,-0.00,30.81
59622172,1808,1,208796,256661,1.31,-0.45,9.88,-0.04,0.03,-0.01,30.81
59662172,1791,1,208824,256512,1.27,-0.47,10.01,-0.03,0.00,-0.01,30.81
59702172,1817,1,208579,256177,1.33,-0.45,9.88,-0.03,-0.05,-0.00,30.81
59742192,1889,1,208471,256210,1.33,-0.44,9.90,-0.03,-0.03,-0.00,30.81
59782192,1865,1,208503,256329,1.33,-0.44,9.91,-0.04,-0.01,-0.00,30.81
59822192,1933,1,208473,256562,1.37,-0.45,9.90,-0.04,-0.03,-0.00,30.81
59862192,1922,1,208528,256900,1.35,-0.45,9.92,-0.04,0.02,-0.00,30.81
59902172,1963,1,208678,257125,1.45,-0.48,9.91,-0.04,0.01,-0.03,30.81
59942172,2006,1,208686,256826,1.27,-0.44,9.92,-0.03,-0.02,-0.04,30.81
59982192,2064,1,208502,256169,1.26,-0.44,9.94,-0.03,-0.03,-0.01,30.81
60022203,2064,1,208392,255902,1.36,-0.43,9.87,-0.03,-0.03,-0.00,30.81
60062192,2055,1,208480,255956,1.36,-0.46,9.87,-0.03,0.00,-0.00,30.81
60102218,2031,1,208669,256455,1.30,-0.45,9.93,-0.03,0.01,-0.00,30.81
60142858,1943,1,208869,256666,1.33,-0.42,9.94,-0.03,0.00,-0.00,31.11
60181172,1926,1,208884,256588,1.32,-0.44,9.90,-0.03,-0.01,-0.00,31.11
60221192,1948,1,208841,256302,1.33,-0.44,9.94,-0.03,-0.02,-0.00,31.11
60261192,1954,1,208704,256051,1.35,-0.47,9.89,-0.03,-0.04,-0.00,31.11
60301192,1967,1,208609,255755,1.28,-0.44,9.97,-0.03,-0.03,-0.00,31.11
60341192,1959,1,208512,255796,1.36,-0.42,9.91,-0.03,-0.02,-0.00,31.11
60381192,1915,1,208636,256124,1.36,-0.45,9.91,-0.04,0.01,-0.00,31.11
60421172,1903,1,208683,255055,1.32,-0.44,9.94,-0.03,0.01,-0.00,31.11
60462172,1873,1,207890,252243,1.32,-0.43,9.92,-0.03,-0.01,-0.00,31.11
60502192,1826,1,207310,251214,1.35,-0.42,9.90,-0.03,-0.01,-0.00,31.11
60542192,1776,1,207226,251320,1.34,-0.47,9.91,-0.03,-0.02,-0.00,31.11
60582192,1792,1,207252,251602,1.33,-0.47,9.95,-0.03,-0.03,-0.00,31.11
60622192,1799,1,207320,252298,1.38,-0.43,9.88,-0.03,-0.04,-0.00,31.11
60662205,1733,1,207626,253125,1.38,-0.44,9.90,-0.03,-0.01,-0.00,31.11
60702192,1700,1,207836,253752,1.38,-0.44,9.90,-0.04,-0.00,-0.00,31.11
60742189,1663,1,208120,254655,1.33,-0.46,9.94,-0.04,0.01,-0.00,31.11
60782172,1669,1,208409,255381,1.33,-0.47,9.95,-0.03,0.01,-0.00,31.11
60822172,1694,1,208691,255995,1.37,-0.44,9.90,-0.03,0.01,-0.00,31.11
60862210,1671,1,208800,256246,1.33,-0.45,9.93,-0.03,-0.00,-0.00,31.11
60902192,1665,1,208752,256098,1.31,-0.43,9.97,-0.03,-0.02,-0.00,31.11
60942192,1697,1,208633,255365,1.34,-0.44,9.89,-0.03,-0.03,-0.00,31.11
60982192,1693,1,207934,252202,1.34,-0.43,9.93,-0.03,-0.02,-0.01,31.11
61022202,1721,1,207054,250867,1.37,-0.45,9.90,-0.03,-0.02,-0.00,31.11
61062215,1633,1,206962,251165,1.34,-0.44,9.89,-0.03,-0.01,-0.01,31.11
61102193,1717,1,207147,251605,1.34,-0.43,9.94,-0.03,-0.00,-0.00,31.11
61142192,1745,1,207329,252263,1.37,-0.45,9.90,-0.03,-0.01,-0.00,31.11
61182879,1779,1,207551,252714,1.36,-0.45,9.90,-0.03,-0.01,-0.00,30.97
61221192,1735,1,207646,252820,1.35,-0.44,9.92,-0.03,-0.01,-0.00,30.97
61261192,1746,1,207689,252910,1.36,-0.45,9.89,-0.03,-0.00,-0.01,30.97
61301192,1762,1,207719,252888,1.35,-0.43,9.93,-0.03,-0.01,-0.00,30.97
61341192,1794,1,207733,253085,1.36,-0.46,9.88,-0.03,-0.02,-0.00,30.97
61381192,1808,1,207841,253367,1.34,-0.47,9.92,-0.03,-0.01,-0.00,30.97
61421192,1826,1,207973,253660,1.34,-0.45,9.90,-0.03,-0.01,-0.00,30.97
61461193,1869,1,208046,253841,1.36,-0.45,9.92,-0.03,-0.01,-0.00,30.97
61502192,1844,1,207695,251367,1.36,-0.45,9.92,-0.03,-0.01,-0.00,30.97
61542192,1827,1,206703,249410,1.36,-0.45,9.90,-0.03,-0.02,-0.00,30.97
61582192,1852,1,206444,249399,1.36,-0.43,9.89,-0.03,-0.02,-0.00,30.97
61622192,1873,1,206518,249794,1.37,-0.43,9.91,-0.03,-0.02,-0.00,30.97
61662192,1881,1,206692,250298,1.35,-0.44,9.92,-0.03,-0.00,-0.00,30.97
