timestamp_us,ecg,leads,ir,red,accX,accY,accZ,gyroX,gyroY,gyroZ,temp
1918524,508,1,184743,230707,0.00,0.00,0.00,0.00,0.00,0.00,0.00
1948966,321,1,183869,227290,0.89,-0.26,8.38,-0.02,0.01,0.01,28.17
1989173,733,1,182744,226713,1.00,-1.67,9.32,-0.02,0.05,-0.06,28.17
2029176,1021,1,182735,225510,0.50,-1.05,8.09,-0.06,0.10,-0.11,28.17
2069179,1170,1,182933,227933,0.77,0.83,10.45,0.02,0.01,-0.01,28.17
2109148,1299,1,183844,228832,0.59,-2.30,9.65,-0.06,0.05,0.00,28.17
2149200,1372,1,184224,232252,0.38,-0.29,9.31,-0.00,-0.12,0.02,28.17
2189176,1535,1,186045,232955,0.52,-0.62,11.87,-0.03,0.17,0.00,28.17
2229170,1616,1,185107,232699,0.80,-0.11,9.26,0.01,-0.20,0.07,28.17
2269166,1605,1,185824,233233,0.43,-2.40,12.52,-0.08,0.19,0.04,28.17
2309170,1622,1,185099,232349,1.21,0.36,9.77,-0.03,-0.24,0.34,28.17
2349170,1479,1,185329,233907,-0.01,-1.17,12.25,-0.05,0.06,0.19,28.17
2389179,1645,1,185925,234033,-0.46,-1.34,11.82,-0.11,0.09,0.01,28.17
2429179,1534,1,185456,233992,0.58,-1.07,10.69,0.01,-0.22,0.09,28.17
2469171,1582,1,185337,233011,1.14,-1.25,10.09,-0.05,-0.13,0.00,28.17
2509179,1522,1,185193,234081,0.26,-1.83,9.10,-0.19,-0.22,0.27,28.17
2549179,1520,1,185445,233321,0.87,1.52,10.14,-0.18,0.06,-0.18,28.17
2589170,1614,1,185442,234155,0.57,-0.85,10.68,-0.03,-0.02,0.01,28.17
2629179,1435,1,185257,232680,0.97,-0.33,8.86,-0.12,-0.13,-0.15,28.17
2669199,1526,1,185102,232712,0.30,1.53,10.46,-0.07,0.05,0.02,28.17
2709148,1442,1,184740,232414,1.27,-0.20,7.71,-0.07,-0.15,0.16,28.17
2747202,1611,1,185033,233912,1.00,-0.52,8.34,-0.05,0.03,0.07,28.17
2787170,1208,1,185768,235873,0.87,0.47,7.83,-0.12,0.03,-0.00,28.17
2827166,1499,1,185738,233066,1.06,0.74,9.50,-0.05,0.20,-0.14,28.17
2867170,1727,1,184510,232363,0.53,-2.17,8.02,-0.10,-0.01,0.02,28.17
2907176,2331,1,184308,230598,1.10,-0.27,9.82,-0.03,0.13,-0.27,28.17
2947190,2607,1,184611,232208,1.02,-0.90,11.58,0.03,0.16,0.03,28.17
2987837,2619,1,185441,234605,0.01,-2.18,9.90,0.06,0.07,0.03,28.17
3028159,2858,1,185982,234656,0.13,-2.59,10.49,-0.01,0.05,0.05,28.17
3068170,2867,1,185697,234571,-0.29,-2.60,12.98,0.07,0.07,0.22,28.17
3108170,2815,1,185395,233851,-0.55,-0.31,8.60,0.02,-0.08,0.15,28.17
3148220,2645,1,185457,234680,-0.07,-3.74,15.44,0.08,0.23,0.04,28.17
3188170,3409,1,185475,233913,-0.29,0.43,8.61,-0.11,-0.02,-0.29,28.17
3228199,4095,1,185298,234534,-0.12,-2.60,13.87,0.10,0.04,0.01,28.17
3268170,4095,1,185112,232441,0.52,0.04,9.03,-0.21,-0.07,-0.15,28.17
3308176,4095,1,185035,234724,0.25,-2.89,12.19,-0.00,-0.09,0.08,28.17
3348178,4095,1,185811,234170,0.77,-0.22,10.42,-0.04,0.03,-0.03,28.17
3388179,4095,1,186394,237701,-0.43,-1.26,8.94,0.01,-0.17,0.01,28.17
3428178,3839,1,187065,235313,0.87,1.70,8.89,-0.15,-0.13,-0.40,28.17
3468179,3421,1,185606,236367,1.15,-0.99,9.19,-0.09,-0.12,0.56,28.17
3508179,3233,1,185864,233328,2.05,0.87,9.60,-0.16,0.20,-0.14,28.17
3548169,3025,1,184536,233233,0.15,-2.01,7.95,-0.08,-0.12,0.19,28.17
3588179,2800,1,185729,235243,1.90,-0.79,12.66,-0.10,0.25,-0.27,28.17
3628179,2649,1,185915,233268,0.87,-0.74,9.54,-0.04,-0.12,-0.01,28.17
3668200,2450,1,185200,235845,0.89,-2.04,9.05,-0.01,-0.22,0.02,28.17
3708176,2297,1,186562,234039,1.08,-0.75,9.01,-0.10,0.22,-0.23,28.17
3748179,2097,1,185430,236106,1.44,-0.42,10.55,0.13,-0.31,0.23,28.17
3788170,1969,1,186259,234620,1.75,0.51,8.40,0.01,0.09,-0.21,28.17
3828148,1869,1,185729,236359,-0.09,-0.77,7.64,-0.02,-0.08,0.18,28.17
3868195,1667,1,186075,233032,1.45,-0.62,7.67,0.00,0.05,-0.08,28.17
3908171,1582,1,184663,234440,0.32,-1.18,9.00,-0.01,-0.05,0.24,28.17
3948176,1450,1,186326,234280,0.57,-1.55,10.14,0.05,0.50,-0.10,28.17
3988857,1370,1,185562,234973,0.64,0.39,10.22,0.05,-0.57,0.00,28.33
4027181,1165,1,186200,234730,-0.89,-2.10,10.68,-0.07,0.29,0.02,28.33
4067179,1063,1,185208,234146,0.73,-0.68,9.36,-0.06,-0.27,0.21,28.33
4107179,906,1,185244,233907,0.23,-0.76,12.10,0.01,0.16,0.04,28.33
4147149,988,1,184905,233272,-0.12,-1.13,9.04,-0.12,-0.11,0.03,28.33
4187199,832,1,185328,233038,0.82,-0.67,13.30,-0.03,0.20,-0.08,28.33
4227179,838,1,184159,230963,0.50,-0.30,8.64,-0.07,-0.23,0.09,28.33
4267176,762,1,184398,232828,1.11,-2.27,11.35,-0.04,0.09,-0.06,28.33
4307179,768,1,185017,232242,-0.34,-0.25,9.88,-0.09,-0.01,-0.00,28.33
4347212,752,1,184599,234061,0.99,-1.49,9.26,-0.03,-0.22,0.00,28.33
4387179,833,1,186181,234754,-0.25,-1.45,11.83,-0.13,0.16,-0.08,28.33
4427199,1040,1,184893,232860,1.51,-0.54,6.05,-0.17,-0.32,0.05,28.33
4467179,1085,1,185266,233623,-0.32,-3.19,12.26,-0.02,0.19,0.00,28.33
4507179,1303,1,184204,229338,0.99,-0.05,6.59,-0.12,-0.16,0.04,28.33
4547179,1243,1,183526,226985,-0.50,-3.27,9.79,0.06,0.19,0.04,28.33
4587171,1300,1,181957,226593,0.15,-0.79,6.16,-0.10,-0.32,0.01,28.33
4627179,1109,1,183398,227113,0.54,-1.86,9.07,0.05,0.41,-0.11,28.33
4667170,1180,1,181771,223734,0.79,0.28,7.92,-0.05,-0.18,-0.07,28.33
4707179,1230,1,181258,222595,0.06,-2.04,11.61,0.04,0.62,-0.01,28.33
4747167,1420,1,180376,222092,0.52,0.04,7.03,-0.03,-0.67,0.25,28.33
4787171,1392,1,182036,226013,0.35,-2.09,11.31,0.19,0.41,0.13,28.33
4827147,1520,1,181627,225367,-0.20,-0.66,6.96,-0.10,-0.46,0.32,28.33
4912202,1613,1,182463,225573,0.50,-1.01,7.55,-0.11,-0.07,0.02,28.33
4946176,1871,1,182461,227466,0.57,-0.88,11.58,0.12,-0.01,0.02,28.33
4986170,2012,1,183358,227449,-0.14,-1.62,11.28,-0.08,0.18,-0.01,28.33
5026905,2097,1,183023,228519,1.06,0.70,10.95,0.05,-0.15,-0.08,28.39
5067170,2145,1,183847,228674,-0.79,-1.28,12.02,-0.06,0.20,-0.05,28.39
5107199,2258,1,184377,232925,1.05,-0.71,11.92,0.15,-0.31,0.02,28.39
5147171,2197,1,185972,233605,-0.08,-2.36,13.18,-0.13,0.24,-0.02,28.39
5187199,2373,1,185672,234555,0.70,-0.66,10.36,0.05,-0.37,0.00,28.39
5227170,2059,1,186600,233189,0.00,-1.23,13.45,-0.15,0.13,-0.00,28.39
5267179,1967,1,184789,232872,0.91,-0.15,7.68,0.08,-0.42,0.02,28.39
5307170,1840,1,186135,233901,-0.31,-1.19,13.82,-0.10,0.20,0.02,28.39
5347179,2018,1,185067,234091,0.74,-0.51,5.93,0.05,-0.34,-0.05,28.39
5387179,2054,1,186510,235391,0.22,-2.48,13.82,-0.06,0.10,-0.14,28.39
5427179,2151,1,185601,234633,1.08,-1.19,4.79,-0.11,-0.37,-0.03,28.39
5467231,2096,1,186059,233981,0.30,-1.69,11.63,-0.16,0.12,-0.02,28.39
5507179,2320,1,184866,231492,0.72,-1.15,6.59,-0.07,-0.20,-0.01,28.39
5547199,2273,1,184545,230923,1.00,-1.02,10.35,0.01,0.04,0.00,28.39
5587144,2385,1,183704,229935,1.26,-1.32,5.74,-0.03,-0.21,-0.02,28.39
5625198,2431,1,184333,231567,0.93,-2.32,7.65,-0.05,0.10,-0.19,28.39
5665178,2479,1,184772,231435,0.52,-1.48,6.49,-0.03,-0.01,-0.13,28.39
5705198,2403,1,184980,233495,1.12,-1.30,7.90,0.06,-0.08,-0.04,28.39
5745176,2347,1,185907,234266,0.83,-1.07,10.43,0.06,0.18,-0.03,28.39
5785170,2198,1,186283,235459,0.70,-2.27,7.65,0.06,-0.07,-0.01,28.39
5825176,2102,1,186674,235220,0.44,-0.32,10.33,0.12,0.02,0.02,28.39
5865147,2029,1,185292,231650,0.65,-1.30,7.14,0.02,-0.02,0.46,28.39
5905167,1986,1,185079,232282,0.57,-1.36,10.61,0.10,0.09,0.17,28.39
5945147,1957,1,185334,233744,0.76,-1.28,8.32,-0.02,0.02,-0.00,28.39
5985176,1919,1,186486,236356,-0.02,-1.58,12.20,0.06,0.25,-0.25,28.39
6025205,1897,1,187406,238653,0.81,0.42,10.43,0.01,-0.01,-0.37,28.39
6065857,1762,1,188308,239766,-0.31,-0.62,13.36,0.01,-0.01,0.11,28.31
6106179,1650,1,187455,237822,0.65,0.10,12.95,-0.05,-0.05,0.06,28.31
6146166,1489,1,186325,236142,0.30,-1.32,13.07,-0.05,-0.06,0.18,28.31
6186176,1535,1,185472,234076,0.36,-0.60,11.00,-0.17,-0.09,0.01,28.31
6226193,1595,1,184888,232413,-0.10,-2.68,11.32,-0.12,-0.05,0.21,28.31
6266197,1745,1,184253,230530,1.17,-0.10,8.06,-0.08,-0.18,0.07,28.31
6306176,1482,1,184410,231643,0.21,-1.22,9.35,-0.09,0.09,0.01,28.31
6346164,1869,1,184340,233388,1.02,-0.74,7.38,-0.11,-0.18,-0.01,28.31
6386192,2133,1,186796,236319,-0.10,-2.27,9.64,-0.13,0.20,-0.07,28.31
6426215,2235,1,186117,234492,0.84,-0.92,6.77,-0.05,-0.19,-0.02,28.31
6466191,2190,1,185734,232746,0.46,-1.46,9.56,-0.09,-0.02,0.04,28.31
6506176,2193,1,184732,232472,0.94,-1.70,8.45,-0.06,-0.11,0.37,28.31
6546176,2176,1,184948,230564,1.39,-0.97,9.68,-0.04,0.02,0.01,28.31
6586166,2198,1,183758,231116,0.95,-1.90,8.61,-0.02,0.01,0.26,28.31
6626180,2137,1,185075,233316,0.75,-1.12,9.23,-0.06,0.18,-0.01,28.31
6666176,2092,1,185761,232696,-0.16,-0.86,7.27,0.00,0.12,-0.00,28.31
6706170,1981,1,185059,232933,1.11,-1.15,9.81,0.07,0.08,-0.01,28.31
6746164,1925,1,185355,232706,0.84,-0.24,9.91,0.10,0.26,-0.01,28.31
6786160,1872,1,184709,232118,0.31,-2.24,9.60,0.03,0.03,-0.20,28.31
6826164,1808,1,185180,234006,0.51,-0.19,10.09,-0.03,0.09,-0.52,28.31
6866176,1730,1,186200,236321,-0.31,-1.49,10.97,-0.01,-0.17,0.03,28.31
6906193,1647,1,185921,233530,0.86,-0.02,10.02,0.04,-0.22,0.13,28.31
6946161,1604,1,184659,232001,0.09,-1.65,13.09,-0.03,0.01,0.81,28.31
6986165,1654,1,184350,230480,-0.31,-1.75,6.82,-0.17,-0.15,0.33,28.31
7024204,1658,1,184188,231321,0.81,-0.96,10.39,-0.02,0.05,-0.08,28.31
7064179,1701,1,184806,232402,0.34,-1.81,8.98,-0.11,0.13,-0.00,28.31
7104866,1678,1,185154,234117,0.50,-2.45,11.17,0.02,-0.12,-0.00,27.95
7145176,1739,1,185813,235384,0.24,-0.64,9.39,-0.14,-0.01,-0.06,27.95
7185192,1728,1,186609,236760,0.01,-1.05,11.55,0.02,0.00,-0.01,27.95
7225164,1744,1,186227,235403,0.82,-0.52,11.64,0.01,-0.18,-0.01,27.95
7265176,1726,1,185142,233778,1.09,-0.51,9.68,-0.04,-0.19,-0.01,27.95
7305191,1776,1,184560,232097,1.14,-1.03,8.43,-0.11,-0.08,-0.01,27.95
7345191,1809,1,184596,232141,0.45,-1.15,9.39,-0.06,0.10,-0.01,27.95
7385176,1838,1,185182,234517,0.30,-0.08,9.97,-0.03,0.13,-0.11,27.95
7425176,1858,1,186789,236594,0.40,-1.73,11.54,0.02,0.08,-0.13,27.95
7465164,1879,1,186865,237143,0.77,-0.52,10.29,0.05,-0.15,-0.02,27.95
7505170,1855,1,186755,236248,0.16,-1.53,9.86,-0.04,-0.12,0.00,27.95
7545176,1872,1,185755,234474,0.91,-1.20,8.71,-0.03,-0.22,0.01,27.95
7585170,1885,1,185459,234505,0.67,-1.57,9.60,-0.07,0.02,0.14,27.95
7625164,1951,1,185062,231765,0.96,-0.28,7.65,-0.05,-0.08,-0.03,27.95
7665191,1941,1,184176,231745,0.50,-1.82,8.05,-0.03,-0.03,-0.06,27.95
7705193,1993,1,184296,229936,1.14,-1.53,7.37,-0.07,0.15,-0.07,27.95
7745176,2018,1,183870,232077,0.84,-0.73,8.36,0.04,-0.05,-0.06,27.95
7785176,2035,1,185273,233353,0.89,-2.01,8.33,-0.00,0.16,-0.20,27.95
7825176,2045,1,185647,234110,1.03,-0.86,9.63,0.05,0.12,-0.29,27.95
7865216,1984,1,185733,232616,-0.01,-2.16,8.62,-0.02,0.05,-0.05,27.95
7905191,1954,1,184925,230546,0.96,-0.33,9.38,0.11,-0.16,0.05,27.95
7945164,1904,1,184306,228248,-0.41,-0.84,10.41,0.07,0.24,0.16,27.95
7985162,1919,1,183150,227100,0.67,-0.54,9.98,0.07,-0.03,0.01,27.95
8025179,1826,1,183183,227405,0.59,-0.25,13.35,-0.02,0.12,-0.22,27.95
8065203,1844,1,183649,230344,-0.13,-1.37,10.73,-0.06,-0.15,0.07,27.95
8105878,1759,1,185620,234071,0.32,-0.09,13.65,-0.04,0.02,-0.14,28.37
8144176,1767,1,186417,236339,-0.03,-1.43,11.52,-0.03,-0.15,0.41,28.37
8184192,1799,1,186349,234754,0.65,0.18,12.10,-0.16,-0.00,0.30,28.37
8224160,1888,1,185156,233647,0.02,-1.38,12.11,-0.05,-0.12,0.38,28.37
8264176,1959,1,184423,230518,1.04,-0.58,9.50,-0.21,-0.10,0.02,28.37
8305176,1975,1,183363,227550,0.08,-0.76,9.39,-0.09,-0.03,0.01,28.37
8345170,1926,1,182339,224390,1.19,-0.98,8.99,-0.16,-0.00,0.17,28.37
8385176,1959,1,181769,224661,0.71,-0.77,8.75,-0.10,-0.09,0.11,28.37
8425176,1986,1,182846,228458,0.53,-1.25,9.12,-0.16,0.10,-0.01,28.37
8465176,2047,1,183890,229236,0.75,-0.79,9.20,-0.12,-0.00,-0.10,28.37
8503199,2021,1,183924,229453,0.73,-1.96,8.25,-0.07,-0.19,0.01,28.37
8543179,2013,1,184753,229207,0.62,-3.09,11.08,-0.05,0.07,0.20,28.37
8583170,1969,1,183639,226964,1.09,-1.31,8.56,-0.00,-0.09,0.01,28.37
8623176,1907,1,183629,228230,-0.22,-1.93,10.07,-0.05,0.16,0.01,28.37
8663178,1904,1,183303,227745,0.54,-0.87,8.93,-0.03,0.09,-0.01,28.37
8703176,1834,1,183372,228615,0.71,-0.99,9.83,0.02,0.06,-0.05,28.37
8743165,1849,1,183685,231374,0.58,-0.81,8.03,-0.03,0.02,-0.04,28.37
8783176,1805,1,185319,233170,0.34,-1.04,9.61,0.03,0.16,-0.43,28.37
8823163,1809,1,185572,234086,0.27,-1.17,8.83,0.01,-0.06,-0.06,28.37
8863176,1764,1,186231,234619,0.64,0.01,10.54,0.03,0.03,-0.29,28.37
8903146,1767,1,186123,235697,-0.12,-1.50,9.75,0.04,-0.17,0.08,28.37
8943176,1760,1,186604,236261,0.44,-1.15,11.35,-0.04,0.04,-0.26,28.37
8983178,1776,1,186729,236675,0.13,-1.59,10.70,0.01,-0.04,-0.08,28.37
9023176,1791,1,186964,237226,0.41,-0.97,10.96,-0.02,-0.07,-0.11,28.37
9063198,1789,1,187144,237159,-0.23,-1.27,11.10,-0.04,0.01,-0.06,28.37
9103193,1803,1,186679,236359,0.65,-0.71,10.39,-0.03,-0.14,-0.02,28.37
9143880,1806,1,186652,236416,0.22,-1.01,10.87,-0.04,-0.02,0.00,28.23
9184176,1821,1,186503,235993,0.29,-0.68,10.01,-0.07,-0.05,-0.02,28.23
9224193,1827,1,186283,235691,0.74,-0.27,11.49,-0.02,-0.05,-0.00,28.23
9264191,1838,1,186317,235319,0.31,-0.98,10.13,-0.07,-0.00,-0.01,28.23
9303192,1840,1,186072,234968,0.67,-1.05,9.75,-0.04,-0.14,-0.01,28.23
9343191,1863,1,186033,234453,0.72,-1.64,10.52,-0.02,-0.06,0.00,28.23
9383176,1853,1,185709,233983,0.81,-1.79,8.99,-0.03,-0.12,0.00,28.23
9423176,1859,1,185654,233822,0.30,-1.43,8.77,-0.05,-0.01,-0.00,28.23
9463191,1869,1,185891,234678,0.15,-1.41,9.18,-0.01,-0.02,0.01,28.23
9503191,1887,1,186172,235324,0.74,-0.84,9.27,-0.01,-0.09,-0.03,28.23
9543192,1874,1,186192,235514,0.69,-0.77,8.23,-0.04,-0.02,-0.01,28.23
9583191,1899,1,186591,236645,0.65,-1.37,8.97,-0.01,0.01,0.00,28.23
9623164,1904,1,186866,236451,0.84,-0.29,9.52,0.00,0.01,-0.05,28.23
9663160,1885,1,186922,237713,0.57,-0.91,9.14,-0.01,0.01,0.00,28.23
9703195,1927,1,187681,238526,0.88,-0.89,9.74,-0.01,0.07,-0.01,28.23
9743176,1904,1,187579,238475,0.60,-0.81,9.23,0.02,-0.05,0.00,28.23
9783165,1904,1,187782,239422,0.82,-1.13,10.37,-0.00,0.02,0.00,28.23
9823160,1925,1,188238,239882,0.61,-1.24,10.52,0.02,-0.01,-0.07,28.23
9863176,1923,1,188377,240017,0.30,-1.52,10.72,-0.00,0.02,-0.00,28.23
9903200,1920,1,188223,239350,0.47,-0.50,10.75,0.00,-0.08,0.01,28.23
9943165,1906,1,187756,238618,0.37,-1.27,10.83,-0.03,-0.04,0.01,28.23
9983176,1883,1,186835,237367,0.94,-0.59,9.91,-0.05,-0.11,-0.00,28.23
10023191,1870,1,186839,236771,0.42,-0.57,11.02,-0.05,0.08,0.00,28.23
10063160,1882,1,185927,235752,0.62,-0.14,8.79,-0.05,-0.11,0.00,28.23
10103176,1863,1,186151,235287,1.08,-0.49,11.19,-0.06,0.09,0.01,28.23
10143161,1877,1,185320,234153,1.03,-0.66,8.70,-0.05,-0.13,0.00,28.23
10183862,1883,1,185404,233658,0.63,-0.65,9.64,-0.12,0.07,-0.00,28.11
10222176,1910,1,184983,233033,0.94,-0.72,9.35,-0.05,-0.06,0.01,28.11
10262176,1918,1,185056,233973,0.85,-0.98,9.60,-0.07,-0.02,0.01,28.11
10302170,1920,1,185304,234053,1.21,-0.76,10.74,-0.03,-0.01,0.00,28.11
10343176,1910,1,184822,232418,0.97,-0.88,8.36,-0.06,-0.08,0.01,28.11
10383170,1922,1,184771,232826,0.45,-1.75,9.95,-0.07,0.04,0.13,28.11
10423164,1936,1,184563,233087,0.82,-0.22,8.84,0.01,-0.06,0.01,28.11
10463161,1948,1,185281,235232,0.70,-0.97,10.10,-0.04,0.09,0.01,28.11
10503164,1947,1,185735,235531,1.15,-0.21,9.37,-0.04,-0.02,0.00,28.11
10543176,1903,1,185836,234938,0.49,-0.94,9.80,-0.07,0.00,0.01,28.11
10583164,1883,1,185069,233774,1.05,-0.66,8.81,-0.06,-0.07,0.14,28.11
10623170,1879,1,185191,233899,0.62,-1.19,11.38,-0.02,0.09,0.05,28.11
10663164,1883,1,184818,234577,1.02,-0.32,9.52,0.00,-0.08,0.02,28.11
10703161,1869,1,185849,235536,0.56,-0.98,10.70,-0.06,0.12,0.01,28.11
10743164,1872,1,185674,235108,0.21,-1.26,9.06,-0.03,-0.08,0.01,28.11
10783176,1872,1,185606,234972,0.81,-0.84,11.30,-0.01,-0.01,0.01,28.11
10823176,1854,1,185570,235708,0.90,-0.95,10.03,-0.01,-0.06,0.01,28.11
10863170,1871,1,185578,234899,0.92,-1.02,9.28,-0.06,-0.05,0.00,28.11
10903176,1872,1,185850,235586,0.22,-0.91,10.06,-0.04,0.08,0.01,28.11
10943160,1856,1,185580,233841,0.82,-0.14,9.03,-0.02,-0.10,0.01,28.11
10983176,1843,1,185491,235431,0.74,-0.90,10.96,-0.01,0.04,0.01,28.11
11023161,1866,1,186045,235478,0.90,-0.89,9.56,-0.02,-0.01,0.00,28.11
11063176,1867,1,185907,236137,1.12,-0.66,10.04,0.02,-0.16,0.01,28.11
11103161,1845,1,186079,235695,0.03,-1.32,8.18,-0.08,0.01,0.02,28.11
11143164,1829,1,185880,235644,0.36,-1.66,9.85,-0.02,-0.04,0.02,28.11
11183862,1838,1,185391,233707,1.08,-0.59,9.61,-0.02,-0.04,0.00,27.93
11222176,1821,1,185505,235594,0.66,-0.99,10.29,-0.03,0.05,0.01,27.93
11262161,1861,1,185563,234919,1.08,-0.80,8.94,-0.06,-0.08,0.00,27.93
11302176,1849,1,186134,236203,0.06,-0.38,11.43,-0.02,0.11,0.02,27.93
11343161,1872,1,185617,235145,0.75,-0.01,8.84,-0.01,-0.17,0.01,27.93
11383176,1852,1,185862,236036,0.82,-1.17,12.10,-0.01,0.08,0.01,27.93
11423161,1868,1,185713,235548,0.88,-0.92,9.40,-0.01,-0.13,0.01,27.93
11463176,1874,1,185560,235212,0.96,-0.89,10.42,0.01,-0.05,0.01,27.93
11503161,1895,1,185387,235675,0.57,-1.06,8.65,-0.03,-0.07,0.01,27.93
11543176,1893,1,185891,235863,0.41,-1.08,9.71,-0.07,-0.03,0.01,27.93
11581170,1909,1,185652,235658,0.87,-0.90,9.59,-0.05,-0.05,0.00,27.93
11621176,1907,1,185598,234921,0.53,-0.58,9.21,-0.06,0.06,0.00,27.93
11661161,1916,1,185622,236364,0.99,-0.87,10.22,-0.03,0.03,0.01,27.93
11701165,1904,1,186107,236002,0.45,-0.19,9.50,-0.05,0.01,0.00,27.93
11741160,1890,1,186132,236742,0.31,-0.72,10.05,-0.06,0.03,0.01,27.93
11781164,1899,1,185991,235875,0.95,-0.66,9.75,-0.04,0.01,0.00,27.93
11821161,1879,1,186054,236250,1.00,-1.52,10.58,-0.05,0.12,0.00,27.93
11861165,1898,1,186315,236503,0.57,-0.41,10.18,-0.03,0.05,0.00,27.93
11901161,1883,1,186715,237505,0.54,-1.32,11.08,-0.03,0.07,0.01,27.93
11941165,1889,1,186653,236720,0.12,-1.18,9.51,-0.05,-0.03,0.01,27.93
11981176,1879,1,185876,235191,0.85,-0.94,10.42,-0.03,-0.07,0.00,27.93
12021176,1897,1,185852,236351,0.43,-0.93,10.69,-0.01,0.03,0.01,27.93
12061161,1909,1,185987,235233,0.96,-0.79,10.00,-0.06,-0.00,-0.00,27.93
12101191,1935,1,186140,236766,0.19,-1.69,10.93,-0.03,0.05,0.01,27.93
12141165,1935,1,185776,234433,0.82,-0.71,8.21,-0.08,-0.12,0.00,27.93
12181176,1920,1,185308,235496,0.72,-2.13,10.79,-0.02,0.01,0.02,27.93
12221850,1953,1,185687,234986,-0.03,-1.06,8.56,-0.11,0.08,-0.00,27.93
12262191,1936,1,185766,236629,0.63,-0.58,11.00,0.02,0.03,0.00,27.93
12302141,1936,1,186945,238350,0.51,-0.40,9.68,-0.07,0.11,-0.00,27.93
12342176,1923,1,187447,239088,0.83,-0.78,10.27,-0.01,-0.04,-0.00,27.93
12382191,1920,1,187799,239557,0.68,-1.46,9.62,-0.07,0.05,-0.01,27.93
12422176,1919,1,187864,239079,0.57,-0.95,9.90,-0.02,0.00,-0.01,27.93
12462170,1904,1,187819,238552,0.76,-1.41,10.40,-0.03,0.04,-0.00,27.93
12502176,1886,1,187401,237687,0.13,-1.40,10.25,-0.01,0.07,-0.13,27.93
12542176,1887,1,187016,236654,0.53,-0.75,10.13,-0.06,-0.05,-0.07,27.93
12582192,1877,1,186579,236933,0.82,-1.60,9.52,-0.04,-0.08,-0.00,27.93
12622191,1869,1,186420,234654,0.34,-0.78,9.73,-0.08,0.06,-0.01,27.93
12662176,1838,1,185309,233869,0.15,-0.77,9.87,-0.05,-0.01,0.14,27.93
12702176,1866,1,185160,232519,0.28,-0.94,10.78,-0.05,0.02,0.03,27.93
12742164,1862,1,184069,231184,0.02,-1.74,11.08,0.01,-0.06,0.17,27.93
12782162,1947,1,183794,230287,0.18,-2.01,10.79,-0.03,0.00,0.07,27.93
12822164,1921,1,183359,228732,0.33,-0.99,10.78,-0.01,-0.03,0.02,27.93
12862170,1910,1,183039,229667,-0.13,-1.87,11.33,-0.02,0.01,0.17,27.93
12902176,1955,1,183651,230760,0.52,-0.62,10.61,-0.01,-0.01,-0.01,27.93
12942190,1874,1,184592,234380,0.30,-1.73,11.70,-0.01,-0.00,-0.00,27.93
12982197,1837,1,185381,234524,0.67,-0.46,9.00,0.03,-0.14,-0.13,27.93
13022181,1845,1,185773,235578,-0.31,-1.57,11.41,-0.04,0.04,0.00,27.93
13060176,1734,1,184948,232506,0.71,-0.83,8.27,0.03,-0.08,-0.00,27.93
13100170,1834,1,184474,232788,0.76,-1.51,11.44,-0.08,0.02,-0.01,27.93
13140176,1735,1,184773,231788,0.02,-1.24,9.02,-0.04,0.01,-0.31,27.93
13180194,1754,1,184757,232346,0.40,-0.33,10.29,-0.03,-0.07,-0.27,27.93
13220192,1764,1,184852,232148,0.07,-1.32,9.76,-0.09,0.03,-0.01,27.93
13260856,1770,1,184417,232199,0.87,-0.90,10.38,-0.04,-0.08,-0.01,28.11
13301192,1754,1,185244,234448,0.91,-0.86,10.93,-0.06,0.03,-0.01,28.11
13341170,1855,1,185164,232702,0.63,-0.90,9.54,-0.01,-0.06,-0.02,28.11
13381191,1897,1,184523,231700,0.50,-1.13,9.96,-0.07,0.01,-0.01,28.11
13421176,1879,1,183644,229034,1.16,-0.07,9.79,-0.03,-0.06,-0.02,28.11
13461192,1872,1,183181,230869,0.77,-1.41,9.98,-0.09,0.00,0.02,28.11
13501161,1879,1,184046,230866,0.16,-1.12,8.58,-0.08,0.16,-0.11,28.11
13541176,1882,1,184562,233356,0.68,-0.85,10.81,-0.06,-0.07,-0.11,28.11
13581191,1918,1,185610,235017,0.06,-1.43,10.97,-0.06,-0.00,-0.25,28.11
13621193,1849,1,185817,235731,0.66,-0.51,10.80,0.04,-0.13,0.00,28.11
13661161,1819,1,186244,235810,0.05,-0.96,11.48,-0.05,0.07,-0.00,28.11
13701181,1805,1,185703,234936,1.23,-0.71,11.30,0.07,-0.15,0.01,28.11
13741162,1851,1,185228,233401,0.15,-1.39,10.15,-0.02,0.09,0.03,28.11
13781163,1934,1,185029,232722,0.18,-1.20,10.19,0.01,-0.02,-0.01,28.11
13821176,1915,1,184627,232980,0.90,-0.92,9.75,0.00,-0.15,-0.00,28.11
13861176,1920,1,185293,233609,0.06,-0.81,10.15,-0.05,-0.05,-0.01,28.11
13901192,1963,1,184622,231853,0.65,-0.83,8.83,-0.04,-0.17,-0.00,28.11
13941192,1936,1,184105,229769,0.44,-1.21,8.96,-0.09,-0.02,-0.01,28.11
13981191,1963,1,183226,229035,0.42,-0.98,9.26,-0.05,-0.03,0.10,28.11
14021176,1980,1,183100,228343,0.60,-0.59,9.21,-0.03,0.01,-0.01,28.11
14061176,1999,1,183301,230147,0.47,-1.68,9.68,-0.04,0.01,-0.03,28.11
14101176,2000,1,183605,229949,0.87,-0.06,8.13,-0.01,-0.09,-0.18,28.11
14141191,1957,1,183928,232065,0.58,-1.53,9.91,-0.07,0.07,-0.01,28.11
14181176,1969,1,184816,232922,0.34,-0.45,9.15,-0.06,0.11,-0.01,28.11
14221176,1935,1,184951,234499,0.52,-1.07,9.85,-0.01,-0.02,-0.00,28.11
14261876,1937,1,185740,235394,0.62,-0.82,9.82,-0.04,-0.02,-0.01,28.01
14300191,1904,1,185647,235036,0.51,-0.91,9.74,-0.03,-0.06,-0.01,28.01
14340192,1936,1,186050,236501,0.68,-1.24,9.85,-0.07,0.07,-0.01,28.01
14380176,1909,1,186785,237332,-0.07,-0.84,10.74,-0.03,-0.01,-0.24,28.01
14420208,1898,1,186821,236858,0.63,-0.39,11.13,-0.01,0.02,-0.08,28.01
14460170,1867,1,186460,235026,0.39,-0.62,11.20,-0.03,-0.01,-0.21,28.01
14500192,1878,1,185347,233865,0.81,-1.17,10.22,-0.01,-0.16,-0.01,28.01
14540191,1873,1,185032,232736,0.31,-1.39,9.20,-0.08,0.00,-0.01,28.01
14580176,1872,1,184801,231405,0.36,-0.66,9.89,-0.08,0.06,-0.01,28.01
14620170,1872,1,184976,233029,0.46,-1.25,10.57,-0.05,0.10,-0.01,28.01
14660176,1862,1,185435,234112,0.40,-0.67,10.56,-0.00,-0.06,-0.03,28.01
14700191,1843,1,185608,233997,0.24,-0.62,9.73,-0.02,-0.12,-0.04,28.01
14740191,1855,1,185461,234091,0.49,-1.20,10.09,-0.02,-0.03,-0.00,28.01
14780191,1823,1,185501,233390,0.62,-1.13,10.80,-0.04,0.04,-0.01,28.01
14820176,1825,1,185403,234482,0.10,-1.62,10.33,-0.02,0.03,0.00,28.01
14860160,1858,1,185608,233201,0.72,-1.14,9.70,-0.04,-0.07,-0.01,28.01
14900191,1879,1,185282,233662,0.30,-1.60,10.90,-0.00,-0.00,0.00,28.01
14940170,1887,1,184911,233703,0.31,-1.52,8.60,-0.00,-0.13,-0.00,28.01
14980191,1897,1,185728,234894,-0.16,-1.40,10.04,-0.05,0.13,-0.01,28.01
15020191,1904,1,185920,235515,0.21,-0.87,9.69,-0.01,-0.16,-0.01,28.01
15060192,1872,1,186043,234552,0.25,-0.68,10.27,-0.01,-0.12,-0.00,28.01
15100191,1872,1,184793,232716,0.83,-0.66,9.34,-0.00,-0.18,0.05,28.01
15140176,1871,1,184759,232747,0.12,-0.86,9.46,-0.04,0.02,-0.01,28.01
15180170,1890,1,184389,232617,0.78,-0.33,9.46,-0.03,-0.16,-0.05,28.01
15220192,1886,1,185160,232877,0.31,-1.28,9.66,-0.10,0.27,-0.03,28.01
15260170,1899,1,184577,231198,-0.20,-0.90,8.88,-0.08,-0.03,-0.02,28.01
15300896,1901,1,184803,233735,0.96,-0.82,11.07,-0.06,0.14,-0.01,28.01
15339176,1887,1,185392,233557,0.10,-1.46,9.26,-0.07,-0.03,-0.07,28.01
15379193,1927,1,185566,235539,0.55,-0.76,10.57,-0.01,-0.02,-0.09,28.01
15419191,1888,1,186354,235775,-0.28,-0.94,10.17,-0.07,0.09,-0.08,28.01
15459192,1904,1,186248,236492,0.46,-0.80,10.78,-0.01,-0.05,-0.01,28.01
15499190,1881,1,186584,236332,0.28,-0.40,10.30,-0.08,0.10,-0.02,28.01
15539176,1885,1,186668,236505,0.33,-0.75,10.91,-0.03,0.14,-0.01,28.01
15579170,1902,1,186637,236770,0.72,-0.77,10.69,-0.03,-0.07,-0.01,28.01
15619192,1879,1,186539,237013,0.47,-1.23,9.89,-0.05,-0.08,-0.01,28.01
15659191,1866,1,186738,236546,0.38,-1.19,10.26,-0.08,-0.00,-0.02,28.01
15699192,1865,1,185687,233875,0.67,-1.23,8.63,-0.06,-0.13,-0.01,28.01
15739191,1853,1,185217,232759,0.42,-1.35,9.47,-0.11,0.09,-0.01,28.01
15779176,1861,1,185023,233065,0.96,-1.09,9.77,-0.06,-0.01,-0.01,28.01
15819191,1856,1,185303,233069,-0.31,-0.11,9.88,-0.06,0.13,-0.02,28.01
15859192,1871,1,184736,233050,0.95,-1.40,8.86,-0.01,-0.27,-0.00,28.01
15899191,1878,1,185559,234811,0.20,-1.11,10.03,-0.06,0.09,-0.01,28.01
15939176,1856,1,185749,234304,0.58,-0.82,10.17,0.00,-0.05,-0.01,28.01
15979170,1831,1,186458,236471,-0.04,-1.32,11.78,-0.01,0.16,-0.00,28.01
16019192,1843,1,186375,235870,0.55,-1.09,9.86,0.01,-0.16,-0.01,28.01
16059176,1851,1,186612,237459,0.54,-1.50,11.29,-0.02,-0.02,-0.00,28.01
16099191,1830,1,186999,236404,-0.25,-0.76,10.15,-0.03,0.06,-0.01,28.01
16139190,1819,1,186335,237121,0.76,-0.93,11.08,0.03,-0.10,-0.00,28.01
16179176,1856,1,187281,236988,-0.40,-1.87,10.32,-0.11,0.14,-0.01,28.01
16219191,1856,1,186493,236167,0.01,-0.76,10.24,0.09,-0.22,-0.00,28.01
16259196,1871,1,186230,235245,0.14,-1.45,9.71,-0.05,-0.01,-0.01,28.01
16299191,1907,1,185738,235428,0.44,-1.34,9.60,0.01,-0.15,-0.01,28.01
16339862,1901,1,185818,234482,0.27,-1.50,9.40,-0.04,-0.02,-0.01,28.05
16378192,1926,1,185623,234480,0.47,-0.82,10.10,-0.02,-0.09,-0.01,28.05
16418193,1933,1,185663,234775,0.03,-1.16,9.58,-0.02,-0.06,-0.01,28.05
16458191,1917,1,185410,233901,0.74,-1.09,8.47,-0.03,-0.11,-0.01,28.05
16498193,1910,1,185376,234854,0.59,-1.59,9.50,-0.04,0.07,0.01,28.05
16538162,1891,1,185916,235275,0.51,-0.25,9.31,-0.02,0.01,-0.01,28.05
16578176,1888,1,186256,236156,0.41,-1.61,9.32,-0.07,0.01,-0.01,28.05
16618176,1913,1,186343,236380,0.53,-1.35,9.51,-0.03,-0.07,-0.01,28.05
16658193,1881,1,186278,236645,0.29,-0.96,9.31,-0.02,-0.04,-0.01,28.05
16698191,1873,1,186726,237259,0.18,-0.66,9.79,-0.06,0.04,-0.01,28.05
16738176,1900,1,187181,238236,0.36,-1.30,10.66,-0.04,0.07,-0.01,28.05
16778170,1892,1,187169,237978,0.43,-0.66,9.59,-0.04,-0.05,-0.02,28.05
16818191,1885,1,187184,237985,0.58,-0.97,10.51,-0.05,0.05,-0.01,28.05
16858170,1885,1,187464,238488,0.48,-1.24,10.72,-0.06,0.10,-0.02,28.05
16898176,1891,1,187405,238056,0.37,-1.61,10.25,-0.06,0.07,-0.13,28.05
16938170,1904,1,187418,238309,0.42,-1.54,10.24,-0.07,0.08,-0.02,28.05
16978176,1892,1,187650,238186,0.06,-1.16,11.26,-0.02,0.10,-0.04,28.05
17018176,1904,1,186975,236669,0.43,-0.66,9.93,-0.02,-0.14,-0.01,28.05
17058192,1909,1,186613,235798,0.32,-1.29,9.81,-0.07,0.02,-0.01,28.05
17098176,1886,1,186177,234244,0.31,-0.62,9.79,-0.05,0.05,-0.01,28.05
17138176,1898,1,185888,235095,0.58,-1.21,11.24,-0.03,0.11,-0.00,28.05
17178170,1867,1,185877,234507,0.29,-0.74,9.59,0.00,-0.12,-0.22,28.05
17218176,1857,1,186138,236205,0.46,-1.38,10.56,-0.01,-0.08,-0.00,28.05
17258191,1882,1,186594,236418,0.35,-1.38,9.82,-0.02,-0.08,-0.01,28.05
17298192,1889,1,186451,236867,0.75,-1.17,9.79,0.00,-0.08,0.00,28.05
17338160,1917,1,186670,236576,0.16,-0.90,9.00,-0.08,0.12,-0.01,28.05
17378862,1908,1,186559,236658,0.24,-0.43,9.91,-0.02,0.06,-0.13,27.81
17419176,1917,1,186583,237131,0.79,-0.46,9.83,-0.02,-0.13,-0.05,27.81
17457192,1904,1,186997,237623,0.36,-1.47,9.82,-0.03,0.00,-0.01,27.81
17497170,1894,1,186926,237585,0.44,-0.64,9.40,0.00,-0.15,-0.01,27.81
17537176,1904,1,187466,238462,0.47,-1.24,10.79,-0.02,0.11,-0.01,27.81
17577176,1898,1,186872,237173,0.06,-0.44,8.93,-0.01,-0.25,-0.04,27.81
17617193,1889,1,187032,237257,0.52,-1.45,10.31,-0.06,0.10,-0.01,27.81
17657170,1887,1,186846,236804,0.33,-0.64,9.39,-0.02,-0.04,-0.01,27.81
17697192,1863,1,187039,237641,0.55,-0.35,10.60,0.02,0.03,-0.01,27.81
17737165,1872,1,187087,238023,0.11,-0.54,10.10,0.01,-0.24,-0.00,27.81
17777176,1841,1,187121,237304,-0.08,-1.74,10.33,-0.05,-0.00,-0.01,27.81
17817209,1855,1,187176,238155,0.47,-1.24,9.00,-0.02,-0.21,-0.00,27.81
17857192,1855,1,187751,238384,0.57,-1.16,10.29,-0.08,0.03,-0.01,27.81
17897176,1871,1,187452,238896,0.46,-1.18,9.74,-0.05,-0.06,-0.01,27.81
17937193,1859,1,187540,237336,0.14,-0.41,9.88,-0.09,0.08,-0.02,27.81
17977176,1875,1,186575,236709,0.74,-0.61,9.56,-0.02,-0.14,-0.01,27.81
18017192,1872,1,186653,236893,0.57,-0.58,9.62,-0.06,0.07,-0.02,27.81
18057176,1903,1,186543,236404,0.46,-0.93,9.52,-0.07,0.02,-0.01,27.81
18097183,1901,1,186753,237982,0.53,-1.16,9.98,-0.06,0.05,-0.00,27.81
18137170,1893,1,187246,237364,0.60,-0.35,9.56,-0.04,-0.02,-0.01,27.81
18177192,1894,1,186752,237180,0.92,-0.89,9.31,-0.08,-0.03,0.12,27.81
18217170,1905,1,186618,236850,0.57,-1.08,8.87,-0.07,0.04,0.00,27.81
18257165,1898,1,186583,237243,0.89,-0.75,9.30,-0.05,-0.01,-0.03,27.81
18297190,1903,1,187203,238360,0.43,-1.05,9.15,-0.07,0.13,-0.01,27.81
18337176,1874,1,187563,238916,0.32,-1.25,10.41,-0.05,0.17,-0.04,27.81
18377176,1858,1,187979,239791,0.17,-0.68,11.19,0.01,0.05,-0.04,27.81
18417850,1855,1,188445,240761,0.63,-1.46,10.79,0.02,-0.07,-0.01,27.85
18458176,1865,1,188490,240230,0.27,-0.51,10.38,0.02,-0.07,-0.01,27.85
18498176,1868,1,188589,240637,0.31,-1.68,10.74,-0.02,0.08,0.00,27.85
18538161,1873,1,188512,240026,-0.09,-0.79,11.27,-0.01,0.02,-0.01,27.85
18578192,1857,1,188539,239502,-0.10,-1.06,10.81,0.00,-0.03,-0.01,27.85
18618191,1857,1,187654,239151,0.50,-1.60,10.23,-0.01,-0.16,0.00,27.85
18658176,1857,1,187910,239248,0.28,-1.55,10.68,-0.02,-0.02,-0.00,27.85
18698192,1859,1,187590,238833,0.31,-0.76,9.65,-0.02,-0.12,-0.01,27.85
18738192,1900,1,187734,238179,0.14,-1.60,10.07,-0.08,-0.01,-0.01,27.85
18778191,1906,1,186951,238140,0.35,-1.42,9.39,0.01,-0.15,-0.01,27.85
18818176,1902,1,187330,237722,0.11,-1.14,9.10,-0.03,0.02,-0.01,27.85
18858176,1898,1,186740,238531,0.75,-1.03,9.39,0.01,-0.13,-0.00,27.85
18898176,1892,1,187595,238943,0.64,-1.36,10.24,-0.06,0.11,-0.02,27.85
18938176,1872,1,187637,238840,-0.14,-1.06,8.59,-0.04,-0.07,-0.01,27.85
18976209,1907,1,187624,239661,1.32,-1.43,10.29,-0.01,-0.04,-0.00,27.85
19016190,1886,1,187885,240470,0.74,-0.60,9.28,0.01,-0.17,-0.01,27.85
19056176,1901,1,188064,240466,0.33,-0.79,8.59,-0.06,-0.09,-0.02,27.85
19096191,1909,1,188325,239791,0.31,-0.59,9.26,-0.04,0.09,-0.15,27.85
19136176,1911,1,187949,239863,0.79,-0.80,9.37,-0.02,-0.09,-0.02,27.85
19176191,1907,1,188450,240103,0.67,-0.35,11.51,-0.03,0.26,-0.09,27.85
19216176,1917,1,187948,239837,0.99,-0.98,9.01,0.05,-0.32,-0.01,27.85
19256170,1906,1,188299,240678,0.95,-0.70,11.46,0.00,0.12,-0.07,27.85
19296165,1903,1,187963,239557,0.48,-0.40,9.31,0.01,-0.18,-0.01,27.85
19336176,1892,1,188192,239546,0.18,-0.75,10.78,-0.00,-0.00,-0.00,27.85
19376192,1919,1,187569,238886,-0.01,-0.72,8.88,-0.04,-0.10,0.02,27.85
19416191,1917,1,188021,239858,0.95,-0.68,12.81,0.03,0.12,-0.04,27.85
19456850,1904,1,187567,238550,0.57,-0.92,8.64,0.02,-0.18,-0.00,27.73
19497176,1905,1,187683,239229,0.67,-1.15,11.71,0.00,-0.01,0.00,27.73
19537200,1899,1,187298,238423,0.17,-1.02,8.95,0.01,-0.12,0.00,27.73
19577161,1904,1,187258,238688,0.76,-1.36,10.51,0.01,-0.07,0.00,27.73
19617164,1919,1,186962,238189,0.63,-0.27,9.44,-0.01,-0.08,0.00,27.73
19657176,1901,1,187245,239046,0.23,-1.22,10.57,-0.04,0.02,0.05,27.73
19697164,1933,1,186835,237515,1.10,-0.34,8.60,-0.06,-0.13,-0.01,27.73
19737191,1920,1,186659,237844,0.67,-0.93,10.92,-0.05,0.05,0.11,27.73
19777164,1914,1,186293,237044,1.06,-0.43,8.18,-0.07,-0.08,0.13,27.73
19817176,1921,1,186308,237228,0.55,-0.57,9.43,-0.06,0.01,-0.01,27.73
19857176,1921,1,186374,236744,0.69,-0.65,8.75,-0.07,-0.03,0.02,27.73
19897176,1907,1,186377,236644,0.45,-0.61,9.22,-0.04,0.01,0.02,27.73
19937165,1914,1,186366,237513,0.87,-0.75,10.07,-0.01,0.02,0.04,27.73
19977161,1886,1,186823,238190,0.48,-0.86,9.12,-0.01,-0.01,0.00,27.73
20017176,1885,1,186690,238486,1.35,-0.65,8.95,-0.01,-0.08,-0.00,27.73
20057191,1866,1,187001,237429,0.46,-0.56,9.42,-0.03,0.02,0.00,27.73
20097164,1897,1,186627,237721,0.43,-0.52,8.62,-0.03,0.04,0.09,27.73
20137160,1890,1,187449,239637,0.82,-0.94,9.76,-0.02,0.06,-0.00,27.73
20177176,1858,1,188162,241015,0.47,-0.39,10.16,-0.00,-0.03,-0.01,27.73
20217191,1833,1,188329,241868,0.64,-0.32,10.67,-0.02,-0.09,-0.00,27.73
20257191,1838,1,188556,241819,0.66,-0.47,9.94,-0.06,-0.07,0.00,27.73
20297176,1859,1,188108,240761,0.60,-0.55,10.86,-0.07,-0.01,-0.00,27.73
20337192,1855,1,187579,240221,0.90,-0.06,11.63,-0.05,0.02,-0.00,27.73
20376170,1856,1,187531,239547,0.95,-1.04,10.92,-0.08,0.01,-0.00,27.73
20416176,1874,1,187361,240504,0.68,-0.85,10.88,-0.06,0.01,-0.00,27.73
20456176,1887,1,187877,239395,0.31,-0.68,10.25,-0.07,-0.00,-0.00,27.73
20496877,1893,1,187029,239281,0.65,-1.08,10.05,-0.05,-0.14,0.01,27.53
20535176,1883,1,187353,239037,0.16,-0.56,10.01,-0.09,0.04,-0.00,27.53
20575176,1883,1,187096,238672,0.48,-0.31,9.88,-0.02,-0.06,0.00,27.53
20615176,1887,1,187053,238529,0.42,-1.17,9.74,-0.03,-0.00,0.00,27.53
20655176,1887,1,187146,238289,0.84,-0.63,9.36,-0.00,-0.09,0.00,27.53
20695170,1904,1,187109,238522,0.51,-1.54,8.55,-0.04,0.03,0.01,27.53
20735165,1911,1,187127,238899,0.85,-0.65,8.75,-0.03,0.02,-0.00,27.53
20775176,1877,1,187588,239366,0.62,-1.21,9.37,-0.06,0.09,0.00,27.53
20815163,1882,1,187935,239810,0.29,-1.27,9.69,-0.02,0.04,0.00,27.53
20855162,1877,1,187733,237933,0.52,-0.66,9.48,0.01,-0.01,0.00,27.53
20895165,1879,1,186779,237482,0.39,-0.60,8.47,-0.02,-0.04,0.13,27.53
20935170,1860,1,186937,238125,0.72,-1.28,9.49,-0.02,0.04,-0.02,27.53
20975176,1869,1,186984,238369,0.52,-0.47,9.55,0.01,0.00,-0.15,27.53
21015165,1869,1,187079,238297,0.23,-0.77,9.56,-0.06,0.18,-0.19,27.53
21055176,1868,1,187511,239770,0.35,-0.79,11.11,-0.02,0.07,-0.10,27.53
21095170,1877,1,187873,240587,0.42,-0.16,10.01,0.00,-0.10,-0.04,27.53
21135176,1873,1,188246,241369,0.58,-0.95,10.23,-0.04,-0.07,0.00,27.53
21175170,1857,1,188327,241698,0.67,-0.83,9.68,-0.05,-0.09,-0.00,27.53
21215192,1814,1,188678,241661,-0.03,-0.44,10.68,-0.10,0.12,-0.00,27.53
21255191,1808,1,188021,240283,0.50,-0.28,9.79,-0.06,-0.13,-0.00,27.53
21295192,1840,1,187765,240108,0.11,-1.14,11.18,-0.10,0.05,0.06,27.53
21335165,1889,1,187788,240152,0.67,-0.14,9.98,-0.05,-0.02,-0.01,27.53
21375217,1902,1,187803,240822,0.77,-0.84,10.91,-0.05,-0.00,-0.00,27.53
21415191,1920,1,188367,240391,0.47,-1.41,10.18,-0.09,-0.01,-0.01,27.53
21455193,1900,1,187653,239172,0.50,-1.00,9.88,-0.02,-0.15,0.01,27.53
21495176,1895,1,187029,237727,0.68,-0.98,9.09,-0.07,-0.02,0.16,27.53
21535862,1882,1,186448,237227,0.59,-1.10,8.66,-0.06,-0.08,0.01,27.69
21576189,1909,1,186615,237851,0.65,-0.99,8.93,-0.07,0.04,-0.06,27.69
21616176,1886,1,186584,236709,0.40,-1.06,9.42,-0.05,0.16,-0.29,27.69
21656176,1899,1,186692,238082,0.22,-1.20,10.53,-0.03,-0.03,-0.04,27.69
21696192,1908,1,187219,238551,0.46,-1.23,9.46,0.02,-0.17,0.00,27.69
21736162,1903,1,187201,238606,-0.26,-1.71,10.40,-0.02,-0.00,0.18,27.69
21776193,1904,1,187425,239072,0.31,-1.09,10.58,0.01,0.07,0.00,27.69
21816141,1877,1,187399,239123,0.31,-0.46,9.72,0.01,0.00,-0.01,27.69
21856164,1905,1,187502,239457,0.64,-1.27,10.22,-0.02,0.05,-0.01,27.69
21896176,1909,1,187220,239365,0.33,-0.87,8.37,0.04,-0.18,-0.01,27.69
21936176,1915,1,187810,241097,0.35,-1.42,10.43,-0.02,0.08,-0.00,27.69
21976176,1915,1,188533,242446,0.43,-0.90,9.60,0.00,-0.09,-0.06,27.69
22016176,1886,1,189400,243715,0.05,-1.26,11.74,-0.02,0.00,-0.21,27.69
22056176,1903,1,189276,243511,0.59,-0.46,8.91,0.03,-0.16,-0.03,27.69
22096176,1876,1,189366,243244,0.46,-1.00,10.98,-0.09,0.10,-0.01,27.69
22134170,1901,1,188806,242872,0.63,-0.43,9.48,-0.04,-0.10,-0.01,27.69
22174192,1881,1,189166,242708,0.11,-1.36,10.18,-0.14,0.13,-0.01,27.69
22214176,1871,1,188697,241533,0.39,-0.40,9.10,-0.04,-0.13,-0.01,27.69
22254192,1870,1,188568,241634,0.27,-0.74,10.69,-0.08,0.01,-0.00,27.69
22294176,1888,1,188394,241043,0.68,-0.79,9.32,-0.06,-0.06,-0.01,27.69
22334192,1877,1,188090,240081,0.58,-0.81,9.46,-0.09,0.02,-0.01,27.69
22374170,1909,1,187716,238878,0.19,-1.07,9.63,-0.10,0.09,-0.01,27.69
22414176,1906,1,187007,237197,0.85,-0.26,9.74,-0.03,-0.07,-0.01,27.69
22454191,1903,1,186321,236488,0.49,-1.41,7.89,-0.10,-0.00,0.15,27.69
22494176,1904,1,186136,236110,0.74,-1.53,8.37,-0.07,0.05,0.04,27.69
22534165,1890,1,186099,235928,0.63,-1.28,8.80,-0.05,0.17,-0.01,27.69
22574862,1876,1,185837,236361,0.48,-1.15,8.80,-0.02,-0.00,-0.00,27.67
22615191,1872,1,186191,236621,-0.12,-1.07,9.30,-0.04,0.16,-0.00,27.67
22655192,1858,1,186478,239025,0.80,-1.17,9.89,0.03,-0.14,0.00,27.67
22695161,1847,1,187891,241253,-0.01,-0.94,11.37,-0.01,0.19,-0.03,27.67
22735193,1846,1,188658,242917,0.37,-0.97,11.72,0.04,-0.06,-0.08,27.67
22775176,1815,1,189540,244389,0.10,-1.57,12.63,-0.02,0.00,-0.20,27.67
22815181,1808,1,189856,244215,-0.10,-0.62,11.89,-0.01,-0.12,-0.01,27.67
22855209,1808,1,189226,243164,0.51,-1.05,11.34,-0.06,-0.10,0.00,27.67
22895176,1808,1,189014,243227,-0.24,-1.14,10.81,-0.09,-0.02,-0.01,27.67
22935210,1865,1,188591,241862,1.07,-0.59,10.13,-0.08,-0.13,-0.02,27.67
22975192,1869,1,188946,242017,-0.33,-1.23,10.85,-0.14,0.11,-0.02,27.67
23015225,1900,1,188025,240112,0.50,-0.20,8.17,-0.01,-0.19,-0.02,27.67
23055191,1893,1,187706,240238,0.84,-1.64,9.30,-0.09,-0.04,0.09,27.67
23095176,1905,1,187415,238016,0.34,-1.22,6.87,-0.08,-0.11,-0.02,27.67
23135192,1911,1,186987,238466,1.04,-0.50,10.07,-0.04,0.06,-0.02,27.67
23175170,1908,1,187265,239285,0.14,-1.06,8.16,-0.07,-0.10,-0.05,27.67
23215212,1910,1,187640,239845,0.34,-0.52,8.57,-0.04,-0.15,-0.00,27.67
23255191,1916,1,187398,239337,0.79,-0.88,8.50,-0.08,0.00,0.24,27.67
23295164,1898,1,187034,238543,0.90,-1.36,8.52,-0.04,0.01,0.14,27.67
23335162,1902,1,186884,238735,1.09,-1.36,9.33,-0.01,0.09,-0.00,27.67
23375176,1910,1,187204,239080,0.48,-0.88,9.37,-0.00,0.16,-0.04,27.67
23415176,1908,1,187429,239843,0.55,-1.11,9.87,-0.01,0.06,-0.03,27.67
23454176,1915,1,188009,241634,0.04,-1.16,9.37,-0.01,-0.01,-0.00,27.67
23494191,1903,1,188750,241965,0.18,-1.26,10.33,-0.00,0.04,-0.01,27.67
23534176,1890,1,188365,242089,0.51,-0.73,10.59,0.03,-0.04,-0.01,27.67
23574862,1865,1,188881,242270,0.35,-0.54,11.15,-0.00,0.06,-0.00,27.73
23615176,1862,1,188682,242326,0.30,-1.27,11.00,0.00,-0.04,-0.01,27.73
23655176,1858,1,188712,242129,0.40,-1.11,10.73,-0.02,-0.07,-0.01,27.73
23695192,1861,1,188387,241431,0.51,-0.93,11.19,-0.03,-0.08,-0.01,27.73
23735191,1867,1,188071,241408,0.52,-0.91,10.41,-0.08,-0.01,-0.01,27.73
23775192,1898,1,188065,241218,0.39,-0.63,10.73,-0.07,-0.02,-0.01,27.73
23813190,1887,1,188012,240641,0.32,-0.99,10.75,-0.10,0.02,-0.01,27.73
23853176,1875,1,187764,239751,0.31,-0.09,10.79,-0.05,-0.05,-0.01,27.73
23893190,1877,1,186929,238098,0.74,-1.28,9.19,-0.08,-0.07,-0.01,27.73
23933192,1895,1,187160,238946,0.17,-1.06,10.16,-0.07,0.07,-0.00,27.73
23973170,1887,1,187642,239231,0.49,-0.81,9.85,-0.05,-0.01,-0.01,27.73
24013192,1904,1,187580,239237,0.96,-0.60,9.82,-0.03,-0.08,-0.01,27.73
24053191,1887,1,187337,239653,0.62,-1.00,8.52,-0.06,-0.04,-0.01,27.73
24093192,1881,1,187476,240479,0.97,-0.94,8.88,-0.04,-0.04,-0.01,27.73
24133191,1879,1,187851,240446,0.65,-0.82,8.27,-0.11,-0.02,-0.01,27.73
24173193,1899,1,188132,241041,0.34,-1.07,8.92,-0.10,0.03,-0.01,27.73
24213176,1890,1,188234,240468,0.55,-0.43,9.52,-0.06,0.08,-0.01,27.73
24253176,1886,1,187784,241085,0.68,-0.75,9.65,-0.02,-0.01,-0.00,27.73
24293191,1872,1,188313,241394,0.91,-0.83,10.00,-0.04,0.12,-0.01,27.73
24333176,1881,1,188329,241528,0.62,-1.06,9.32,-0.02,-0.01,-0.01,27.73
24373192,1873,1,188407,241432,0.29,-0.92,9.51,-0.07,0.14,-0.01,27.73
24413176,1892,1,188397,242077,0.62,-0.90,10.09,-0.02,-0.02,-0.01,27.73
24454200,1879,1,188828,242501,-0.42,-2.39,11.29,-0.02,0.11,-0.23,27.73
24494193,1869,1,188870,242993,0.28,-0.77,10.25,0.02,-0.09,-0.05,27.73
24534176,1825,1,189449,243717,0.08,-1.83,11.69,-0.05,0.08,-0.02,27.73
24574862,1856,1,189363,243392,-0.23,-0.73,10.29,0.02,-0.14,-0.01,27.55
24613191,1840,1,189339,242830,0.48,-1.54,11.80,-0.04,0.06,-0.01,27.55
24653219,1842,1,188700,241103,0.11,-0.64,9.50,0.00,-0.13,-0.01,27.55
24693170,1830,1,188720,242273,0.46,-1.43,11.25,-0.03,0.01,-0.00,27.55
24733176,1827,1,188886,241187,-0.31,-0.24,9.09,-0.04,-0.06,-0.02,27.55
24773210,1856,1,188140,240823,0.78,-1.26,10.45,-0.02,-0.12,0.09,27.55
24813176,1872,1,187472,238808,0.83,-0.48,7.88,-0.09,-0.13,0.10,27.55
24853190,1862,1,186781,237850,0.20,-1.29,9.94,-0.05,-0.02,0.16,27.55
24893176,1872,1,186024,236625,0.78,-0.79,7.75,-0.09,-0.06,0.05,27.55
24933176,1886,1,186527,238754,0.64,-0.96,9.96,-0.04,0.10,-0.01,27.55
24973176,1885,1,187091,239480,0.67,-1.02,8.67,-0.03,-0.11,-0.00,27.55
25013191,1885,1,187619,240756,0.24,-0.73,9.96,-0.01,0.00,-0.00,27.55
25053176,1865,1,187781,240372,0.68,-1.09,8.57,-0.01,-0.09,-0.01,27.55
25093191,1885,1,187706,241437,0.06,-0.96,10.10,-0.01,0.01,-0.00,27.55
25133176,1879,1,188406,241505,0.63,-0.68,9.34,-0.02,0.02,-0.01,27.55
25173176,1889,1,188127,241859,0.57,-0.19,10.44,0.03,-0.08,0.00,27.55
25213165,1879,1,188163,240843,0.57,-1.51,8.86,-0.05,-0.00,-0.01,27.55
25253191,1912,1,187804,241007,0.74,-0.46,10.59,0.01,-0.03,-0.00,27.55
25293176,1873,1,188205,241114,0.52,-1.43,9.77,-0.02,0.04,-0.00,27.55
25333176,1899,1,188106,241069,0.16,-0.43,10.45,0.02,-0.07,0.00,27.55
25373165,1883,1,187835,240670,0.57,-1.71,9.99,-0.01,-0.05,0.00,27.55
25413176,1874,1,187419,238473,0.12,-0.84,10.08,-0.01,-0.06,0.00,27.55
25453176,1872,1,186410,237150,0.80,-0.93,9.98,-0.04,-0.02,0.14,27.55
25493184,1840,1,186275,237404,0.37,-0.96,10.28,-0.02,-0.01,0.02,27.55
25533176,1869,1,186372,237787,0.71,-0.76,9.92,-0.02,-0.03,0.00,27.55
25573176,1876,1,186721,238295,0.64,-0.60,10.53,-0.01,-0.00,0.00,27.55
25613862,1867,1,186577,238898,0.99,-1.30,9.69,-0.02,-0.08,-0.00,27.53
25652191,1869,1,186938,238561,0.22,-0.94,9.06,-0.06,-0.03,-0.00,27.53
25692192,1841,1,187317,239710,0.32,-1.08,10.45,-0.05,0.04,0.00,27.53
25732165,1897,1,186449,237657,1.40,0.04,8.89,0.01,-0.20,0.00,27.53
25772142,1862,1,186005,237129,0.62,-1.00,9.26,-0.11,0.08,0.07,27.53
25812165,1909,1,185910,237505,0.89,-0.17,9.23,-0.08,-0.01,-0.04,27.53
25852193,1932,1,185902,236838,1.02,0.19,9.33,-0.08,0.05,-0.06,27.53
25892165,1939,1,185917,237643,0.65,-0.69,9.57,-0.09,0.06,0.02,27.53
25932165,1941,1,185699,236751,1.00,-0.70,8.79,-0.05,-0.06,0.00,27.53
25972176,1919,1,185879,237933,0.66,-0.82,9.83,-0.07,0.06,0.04,27.53
26012165,1899,1,185971,237667,0.90,-0.36,8.47,-0.05,-0.04,-0.01,27.53
26052191,1889,1,186308,238798,0.89,-0.28,9.79,-0.06,0.06,-0.02,27.53
26092181,1875,1,186861,238893,0.49,-0.56,9.17,-0.09,0.12,-0.01,27.53
26132170,1883,1,187147,239516,0.73,-0.48,10.49,-0.03,0.10,-0.00,27.53
26172176,1871,1,187176,239441,0.65,-0.48,9.78,-0.01,-0.08,-0.00,27.53
26212191,1873,1,187045,238799,0.45,-1.65,9.40,-0.07,0.03,-0.00,27.53
26252176,1872,1,186980,239216,0.36,-0.98,9.89,-0.04,0.03,0.00,27.53
26292182,1854,1,187271,239542,0.31,-0.79,10.96,-0.03,0.04,0.00,27.53
26332165,1861,1,187126,239164,0.30,-0.91,9.74,-0.02,-0.12,0.00,27.53
26372176,1867,1,187318,239744,0.58,-1.39,10.96,-0.07,0.07,-0.00,27.53
26412176,1872,1,187213,238942,0.33,-0.61,10.53,-0.01,-0.09,-0.00,27.53
26452191,1869,1,186984,240255,0.68,-1.12,11.33,-0.01,-0.07,0.01,27.53
26492192,1873,1,187544,239696,-0.08,-1.39,10.13,-0.07,0.07,-0.00,27.53
26532191,1892,1,187154,239264,0.25,-0.80,9.77,0.01,-0.12,0.00,27.53
26572165,1897,1,186815,238672,0.35,-1.11,10.26,-0.07,-0.04,0.01,27.53
26612176,1881,1,186509,238607,0.14,-1.00,9.42,-0.05,-0.05,-0.00,27.53
26652878,1899,1,186724,238947,0.48,-0.92,9.87,-0.06,-0.02,-0.00,27.35
26693191,1909,1,186741,238887,0.35,-0.52,10.16,-0.01,-0.10,-0.00,27.35
26731193,1954,1,186722,239192,0.42,-1.03,9.38,-0.03,-0.13,0.01,27.35
26771176,1950,1,186726,239251,0.56,-0.93,8.79,-0.04,-0.09,-0.00,27.35
26811192,1950,1,186704,238494,0.36,-0.99,8.68,-0.08,0.05,-0.01,27.35
26851170,1953,1,186278,237738,0.53,-0.75,8.68,-0.04,-0.05,-0.01,27.35
26891193,1941,1,186043,236540,0.25,-0.62,8.59,-0.05,0.16,-0.01,27.35
26931170,1963,1,185818,237083,1.07,-1.28,9.11,-0.01,0.00,-0.01,27.35
26971176,1909,1,186060,236836,0.16,-0.53,9.18,-0.03,0.09,-0.02,27.35
27011176,1909,1,185909,236769,0.60,-1.60,9.53,-0.02,0.01,-0.04,27.35
27051176,1906,1,186370,237635,0.33,-1.30,10.13,-0.03,0.20,-0.01,27.35
27091176,1905,1,186634,237417,0.19,-1.05,10.03,0.01,0.09,-0.00,27.35
27131165,1877,1,186468,237728,0.41,-1.61,9.92,-0.01,0.03,0.00,27.35
27171165,1871,1,186593,237523,0.03,-1.46,11.19,-0.02,0.13,-0.04,27.35
27211176,1857,1,186178,237615,0.15,-1.26,9.87,0.01,-0.11,-0.04,27.35
27251176,1830,1,186782,238725,0.23,-2.12,11.82,-0.05,0.09,-0.09,27.35
27291176,1850,1,187164,240050,0.34,-0.94,12.18,0.04,-0.11,-0.12,27.35
27331176,1843,1,187728,240591,-0.08,-0.84,11.48,-0.02,-0.06,-0.16,27.35
27371210,1853,1,187790,241074,0.13,-1.37,11.71,-0.02,-0.13,0.03,27.35
27411176,1821,1,188087,241522,0.47,-1.04,11.47,-0.06,-0.07,-0.01,27.35
27451193,1827,1,188180,241838,-0.01,-0.98,10.90,-0.07,-0.08,-0.01,27.35
27491210,1872,1,188195,240843,-0.10,-0.70,10.01,-0.10,-0.02,-0.01,27.35
27531209,1856,1,187682,240292,-0.28,-1.36,10.63,-0.06,-0.09,0.24,27.35
27571192,1859,1,187339,239088,0.49,-1.88,9.58,-0.07,-0.04,0.04,27.35
27611176,1878,1,187111,239355,0.29,-1.12,9.48,-0.01,-0.05,0.02,27.35
27651171,1872,1,187422,239895,0.11,-1.50,8.56,-0.07,-0.01,-0.01,27.35
27691878,1876,1,187518,239739,0.51,-1.48,8.34,-0.05,-0.02,-0.01,27.37
27732212,1911,1,187426,239856,0.81,-0.87,8.71,-0.03,-0.04,-0.01,27.37
27772192,1891,1,187509,239359,0.45,-1.01,8.49,-0.04,0.04,-0.01,27.37
27812176,1907,1,186980,238734,1.18,-1.31,8.65,-0.02,-0.05,-0.10,27.37
27852193,1903,1,187215,239252,0.24,-1.21,9.55,-0.02,0.17,-0.17,27.37
27892176,1906,1,187138,238687,0.62,-0.77,8.23,-0.01,0.02,-0.05,27.37
27932176,1886,1,187018,238811,0.98,-1.54,10.45,0.00,0.12,0.01,27.37
27972142,1893,1,186875,238146,-0.09,-0.96,9.06,-0.01,0.07,-0.01,27.37
28012192,1917,1,186583,238100,0.61,-0.95,10.58,0.02,0.06,-0.01,27.37
28052163,1906,1,186864,239380,0.07,-1.17,10.98,-0.00,0.12,-0.01,27.37
28092176,1902,1,187264,240367,0.19,-1.01,9.36,0.01,-0.12,0.01,27.37
28132169,1857,1,188064,242328,0.31,-1.27,11.50,-0.02,0.06,-0.01,27.37
28172176,1859,1,188675,242829,-0.15,-0.91,11.19,0.01,-0.07,-0.01,27.37
28212191,1877,1,188838,243558,0.29,-1.32,11.53,-0.04,-0.07,-0.01,27.37
28252193,1888,1,189099,243362,-0.26,-1.46,11.88,-0.04,0.03,-0.01,27.37
28292192,1884,1,188709,242709,0.57,-1.17,10.64,-0.02,-0.18,-0.00,27.37
28332193,1882,1,188366,242090,0.20,-1.44,10.98,-0.10,-0.01,0.13,27.37
28372176,1887,1,188101,241241,0.40,-1.27,9.34,-0.08,-0.11,0.09,27.37
28410176,1913,1,187913,241133,0.35,-1.25,9.51,-0.08,-0.03,0.07,27.37
28450170,1941,1,187802,240291,0.23,-0.37,9.04,-0.06,-0.09,-0.01,27.37
28490192,1971,1,187153,239397,0.61,-1.19,8.59,-0.10,-0.07,0.18,27.37
28530176,1933,1,186884,239148,0.67,-1.29,7.98,-0.09,-0.00,0.08,27.37
28570176,1917,1,186967,238967,0.80,-0.60,9.01,-0.06,0.02,-0.02,27.37
28610171,1926,1,187548,240562,0.53,-1.06,9.79,-0.05,0.08,-0.01,27.37
28650176,1925,1,188077,240862,0.30,-0.07,9.31,-0.02,-0.04,-0.03,27.37
28690192,1952,1,187868,240985,0.97,-1.25,9.31,-0.04,-0.11,0.07,27.37
28730863,1870,1,187662,240506,0.63,-1.01,8.80,-0.04,-0.02,0.00,27.37
28771176,1887,1,187843,241537,0.35,-1.15,9.99,-0.02,0.06,-0.00,27.37
28811176,1907,1,188243,242100,0.24,-1.31,8.88,-0.06,-0.00,-0.01,27.37
28851192,1908,1,188685,242561,-0.03,-0.65,10.89,-0.02,0.11,-0.01,27.37
28891195,1923,1,188565,242563,0.40,-0.68,10.07,0.00,-0.03,-0.01,27.37
28931176,1897,1,188690,243202,0.49,-1.09,10.72,-0.02,0.04,-0.01,27.37
28971176,1894,1,189080,243694,0.40,-1.40,10.50,-0.03,0.03,-0.01,27.37
29011176,1884,1,189334,244294,0.14,-1.50,10.07,-0.03,0.00,-0.01,27.37
29051176,1870,1,189569,243944,0.03,-1.70,10.55,-0.03,0.02,-0.00,27.37
29091176,1913,1,189172,243337,0.34,-1.14,10.63,-0.00,-0.08,-0.01,27.37
29131197,1878,1,188859,243271,0.45,-1.39,9.46,-0.05,-0.11,-0.01,27.37
29171192,1874,1,188751,242734,0.34,-0.94,9.90,-0.03,-0.05,-0.01,27.37
29211194,1871,1,188757,242922,0.31,-1.52,10.12,-0.03,0.04,-0.01,27.37
29251176,1893,1,189039,242881,0.07,-0.96,10.47,-0.01,0.03,-0.01,27.37
29291176,1885,1,188668,242677,0.69,-1.17,10.06,-0.01,-0.13,-0.01,27.37
29331193,1847,1,188683,242244,-0.09,-1.50,9.26,-0.05,-0.04,-0.01,27.37
29371210,1889,1,188007,241318,0.62,-0.65,9.42,-0.03,-0.11,-0.01,27.37
29411193,1855,1,188625,242283,0.07,-1.46,10.01,-0.06,0.10,-0.01,27.37
29451176,1885,1,188469,241386,0.09,-0.20,9.56,-0.01,-0.13,-0.01,27.37
29491192,1867,1,188367,241981,0.77,-0.79,10.98,-0.02,0.00,-0.01,27.37
29531176,1886,1,188111,241218,0.23,-0.74,9.12,-0.01,-0.08,-0.01,27.37
29571228,1871,1,188061,241992,0.87,-0.88,10.31,-0.01,-0.02,-0.01,27.37
29611195,1825,1,188605,242504,-0.14,-1.14,8.55,-0.07,0.07,-0.01,27.37
29651193,1856,1,188631,242640,0.35,-0.77,9.62,-0.04,-0.02,-0.01,27.37
29691194,1865,1,188566,242941,0.21,-0.66,9.10,-0.04,-0.02,-0.02,27.37
29731878,1853,1,188593,242846,0.46,-1.04,9.63,-0.06,0.03,-0.02,27.29
29770176,1853,1,188957,243596,0.31,-1.29,10.69,-0.05,0.16,-0.03,27.29
29810176,1827,1,189333,243691,0.17,-1.02,11.21,0.06,0.06,-0.22,27.29
29850165,1866,1,189308,244104,-0.00,-1.52,10.45,-0.00,-0.04,0.00,27.29
29890193,1846,1,189539,244008,0.08,-1.88,10.38,-0.03,0.04,-0.07,27.29
29930176,1867,1,189387,244173,0.43,-0.95,10.85,0.01,-0.03,-0.01,27.29
29970176,1850,1,189546,244399,0.24,-1.66,10.49,-0.04,0.03,-0.01,27.29
30010178,1891,1,189542,244431,0.38,-1.33,9.94,-0.02,-0.08,-0.01,27.29
30050193,1842,1,189608,243831,-0.09,-1.42,9.95,-0.05,0.00,-0.01,27.29
30090194,1881,1,189036,242833,1.20,-1.81,10.51,0.03,-0.17,-0.00,27.29
30130176,1845,1,188643,242005,0.00,-1.30,8.96,-0.07,-0.09,-0.01,27.29
30170194,1846,1,188723,242547,0.11,-1.49,9.81,-0.06,0.02,-0.01,27.29
30210176,1863,1,188977,241845,0.23,-0.30,9.72,-0.03,0.03,-0.01,27.29
30250176,1872,1,188396,241649,0.42,-1.51,10.13,-0.02,-0.05,0.00,27.29
30290176,1873,1,188254,241505,0.70,-0.87,9.36,-0.04,-0.11,-0.02,27.29
30330193,1874,1,188374,241444,0.45,-1.36,9.49,-0.01,-0.03,-0.01,27.29
30370191,1899,1,188159,241957,0.52,-0.95,9.08,-0.02,-0.12,-0.01,27.29
30410193,1869,1,188713,242542,-0.19,-1.78,9.59,-0.03,0.08,-0.01,27.29
30450192,1871,1,188860,242843,0.26,-0.86,9.95,-0.02,-0.01,-0.04,27.29
30490193,1873,1,188987,242750,0.48,-0.80,10.61,-0.01,0.04,-0.02,27.29
30530176,1894,1,188683,242836,0.33,-0.39,9.64,-0.02,-0.12,-0.02,27.29
30570193,1894,1,189036,243193,0.32,-1.35,10.33,-0.03,0.08,-0.08,27.29
30610176,1889,1,189036,242955,0.04,-0.40,9.43,-0.02,-0.02,-0.03,27.29
30650193,1901,1,189028,243316,0.44,-1.29,10.49,-0.03,0.00,-0.01,27.29
30690176,1917,1,188983,242988,0.15,-1.00,9.14,-0.03,-0.13,-0.01,27.29
30730193,1903,1,188768,242886,0.52,-1.26,9.90,-0.04,-0.06,-0.01,27.29
30770878,1906,1,188847,243161,0.08,-0.90,9.82,-0.06,-0.00,-0.01,27.43
30809193,1904,1,188769,242813,0.54,-0.91,9.85,-0.04,-0.03,-0.01,27.43
30849192,1905,1,188663,242473,0.10,-1.33,9.57,-0.07,0.00,-0.01,27.43
30889176,1894,1,188397,241054,0.41,-1.16,9.93,-0.02,0.00,-0.01,27.43
30929176,1889,1,187973,241346,0.62,-0.90,9.75,-0.02,-0.05,-0.01,27.43
30969193,1902,1,188398,241486,0.26,-2.04,9.42,-0.05,0.01,-0.00,27.43
31009176,1907,1,188202,240853,0.22,-1.04,9.07,-0.02,-0.05,-0.01,27.43
31049193,1863,1,188346,241695,0.30,-1.12,10.57,-0.03,0.08,-0.01,27.43
31089176,1869,1,188396,241764,0.50,-0.78,10.00,0.00,-0.08,-0.00,27.43
31129176,1868,1,188365,242343,0.47,-1.46,10.07,-0.04,0.01,-0.00,27.43
31169176,1883,1,189004,242247,-0.35,-1.16,10.46,-0.03,0.13,-0.01,27.43
31209218,1872,1,188651,242193,0.69,-1.13,10.17,0.04,-0.10,-0.00,27.43
31249176,1847,1,188872,242813,0.21,-1.41,10.13,-0.05,-0.02,-0.01,27.43
31289197,1838,1,188766,242549,0.12,-1.29,9.14,-0.01,-0.11,-0.01,27.43
31329192,1837,1,188914,243628,0.42,-0.98,10.26,-0.01,-0.03,-0.00,27.43
31369193,1850,1,189320,244131,0.38,-0.73,9.85,-0.01,-0.07,-0.00,27.43
31409224,1856,1,189673,244761,0.24,-1.05,9.68,-0.03,-0.02,-0.01,27.43
31449193,1843,1,190109,244941,0.59,-0.77,10.67,-0.01,-0.01,-0.01,27.43
31489192,1840,1,189760,244269,0.73,-0.84,10.25,-0.01,-0.08,-0.01,27.43
31529194,1872,1,189689,244722,0.38,-1.07,9.68,-0.04,-0.06,-0.01,27.43
31569191,1856,1,189691,244089,0.30,-0.68,9.62,-0.03,-0.04,-0.00,27.43
31609193,1871,1,189114,242966,0.54,-0.28,9.13,-0.03,-0.12,-0.01,27.43
31649192,1856,1,188487,241276,0.67,-1.08,9.51,-0.05,0.01,-0.04,27.43
31689176,1855,1,188115,240873,0.68,-0.33,9.12,-0.04,-0.01,-0.05,27.43
31729191,1853,1,188420,241305,0.86,-0.62,10.44,-0.01,0.08,-0.04,27.43
31769176,1842,1,188388,241472,0.45,-0.67,10.17,-0.02,-0.00,-0.01,27.43
31809878,1866,1,188376,241263,0.58,-1.27,10.00,-0.03,-0.03,0.00,27.35
31848176,1881,1,188154,240468,0.45,-1.01,9.63,-0.04,-0.02,0.01,27.35
31888176,1890,1,187623,240217,0.25,-1.35,9.17,-0.04,-0.02,0.06,27.35
31928176,1895,1,187924,241744,0.68,-0.47,9.86,-0.02,0.03,-0.01,27.35
31968176,1878,1,188599,242016,0.45,-0.65,10.02,-0.01,-0.01,-0.00,27.35
32008193,1893,1,188381,242018,0.95,-1.09,10.13,-0.01,-0.08,0.02,27.35
32048176,1871,1,188378,241895,0.62,-1.41,9.86,-0.02,-0.06,0.00,27.35
32088176,1857,1,188052,241366,0.59,-1.28,9.95,-0.02,-0.06,-0.00,27.35
32128192,1867,1,188159,242023,0.24,-1.54,10.05,-0.06,0.02,0.04,27.35
32168164,1883,1,188506,242390,0.57,-0.99,9.93,-0.03,0.01,0.00,27.35
32208165,1891,1,188320,242124,0.73,-0.76,9.44,-0.05,-0.05,0.02,27.35
32248176,1905,1,188646,242957,0.59,-1.05,9.84,-0.05,0.01,0.00,27.35
32288165,1903,1,188884,243282,0.61,-0.84,9.28,-0.05,-0.04,0.00,27.35
32328176,1904,1,189268,243687,0.22,-1.42,10.20,-0.07,0.05,0.00,27.35
32368165,1921,1,189091,242201,0.32,-0.61,10.38,-0.02,-0.03,0.01,27.35
32408176,1931,1,188327,240973,0.47,-0.89,10.97,0.01,-0.05,0.08,27.35
32449164,1920,1,187684,240504,0.64,-1.13,8.88,0.03,-0.06,0.01,27.35
32489163,1878,1,187765,240172,0.79,-0.84,9.46,-0.01,-0.05,-0.00,27.35
32529191,1900,1,187376,239883,0.45,-1.06,9.02,-0.03,-0.04,-0.01,27.35
32569193,1983,1,187504,239934,0.26,-0.69,10.11,-0.03,-0.02,-0.00,27.35
32609192,1897,1,187280,240088,0.79,-1.19,9.00,-0.05,-0.07,0.02,27.35
32649176,1849,1,187486,240751,0.30,-0.68,9.54,-0.01,-0.01,0.01,27.35
32689176,1904,1,187142,240294,1.02,-1.18,8.94,-0.04,-0.09,0.01,27.35
32729176,1845,1,187484,241035,0.55,-0.85,7.99,-0.08,0.03,0.00,27.35
32769162,1868,1,187996,241490,0.62,-0.66,9.36,-0.10,0.05,-0.01,27.35
32809176,1875,1,188303,242039,0.72,-0.87,10.78,-0.06,0.06,-0.01,27.35
32849867,1896,1,188333,241749,0.45,-0.56,10.03,-0.01,0.02,-0.00,27.23
32888176,1857,1,188251,242466,0.84,-1.50,9.74,-0.01,0.01,-0.00,27.23
32928176,1840,1,188739,242900,0.32,-1.80,9.72,-0.02,-0.01,-0.19,27.23
32968194,1849,1,188853,242958,-0.19,-0.74,9.42,-0.04,0.05,-0.05,27.23
33008192,1821,1,189009,242906,0.66,-1.27,10.01,-0.05,0.05,-0.02,27.23
33048214,1797,1,188984,243102,0.00,-1.07,9.67,-0.04,0.01,-0.00,27.23
33088176,1777,1,189276,243798,0.50,-1.87,11.20,-0.01,0.02,-0.03,27.23
33128176,1782,1,189508,243983,0.52,-0.84,10.46,0.03,-0.07,-0.03,27.23
33168176,1761,1,189555,243233,0.23,-1.65,10.50,-0.04,-0.02,-0.03,27.23
33208193,1808,1,188790,242176,0.39,-0.92,9.34,0.01,-0.13,-0.00,27.23
33248176,1806,1,188692,242244,0.84,-1.01,10.80,-0.03,0.03,-0.00,27.23
33288176,1827,1,188566,242448,0.46,-0.84,9.20,-0.03,-0.06,-0.00,27.23
33328192,1836,1,189166,242724,0.41,-1.09,10.78,-0.05,0.07,-0.01,27.23
33368176,1890,1,188428,241815,0.67,-1.09,8.48,0.00,-0.17,0.01,27.23
33408165,1787,1,188568,242060,0.51,-1.21,10.35,-0.05,0.05,0.00,27.23
33448164,1827,1,188256,242596,0.38,-0.81,9.00,-0.02,-0.14,0.00,27.23
33487176,1834,1,189403,244666,0.21,-1.70,11.62,-0.06,0.16,-0.02,27.23
33527176,1879,1,189648,243742,0.64,0.42,9.17,0.03,-0.07,-0.20,27.23
33567165,1820,1,189490,243895,0.59,-0.78,11.72,-0.03,0.05,0.01,27.23
33607165,1829,1,189099,243128,0.70,-1.41,9.07,-0.06,-0.11,-0.00,27.23
33647191,1839,1,188798,243077,0.85,-0.73,9.63,-0.01,-0.08,-0.01,27.23
33687193,1794,1,189123,243329,0.48,-0.91,9.51,-0.10,0.04,-0.01,27.23
33727176,1821,1,189041,243231,0.16,-0.78,9.55,-0.06,-0.01,-0.01,27.23
33767194,1829,1,189017,242556,0.25,-0.92,9.30,-0.09,0.05,-0.01,27.23
33807176,1815,1,188558,241992,0.45,-0.91,8.80,-0.03,-0.02,0.00,27.23
33847176,1718,1,188921,242893,0.76,-1.07,10.46,-0.05,0.06,0.01,27.23
33887851,1805,1,188998,242713,0.53,-1.26,9.34,-0.03,-0.08,-0.00,27.43
33928194,1873,1,188529,240232,0.45,-0.47,9.65,-0.04,-0.01,-0.00,27.43
33968192,1881,1,187267,238624,0.58,-1.02,9.62,-0.04,0.01,0.32,27.43
34008164,1914,1,186765,237816,0.57,-0.51,9.71,-0.01,-0.02,0.09,27.43
34048176,1970,1,186763,240246,0.43,-1.30,10.59,-0.02,0.01,0.06,27.43
34088163,1999,1,187669,240404,0.92,-1.01,9.08,-0.03,-0.02,-0.02,27.43
34128192,2075,1,187869,240890,-0.05,-1.14,10.65,-0.06,0.07,0.00,27.43
34168176,2106,1,187737,240039,0.66,-1.01,9.77,-0.03,-0.03,-0.00,27.43
34208192,2047,1,187479,240419,-0.12,-1.45,10.60,0.00,0.00,0.03,27.43
34248163,1987,1,187491,240890,0.67,-1.19,9.62,-0.04,-0.02,-0.01,27.43
34288192,2023,1,188344,241849,0.19,-0.57,11.09,-0.03,0.03,-0.01,27.43
34328176,2112,1,187935,241463,0.45,-1.21,10.06,-0.01,-0.05,0.00,27.43
34366176,2046,1,187994,240586,0.66,-1.27,10.62,-0.04,-0.03,-0.01,27.43
34406197,2007,1,187520,240558,0.34,-1.50,10.09,-0.01,-0.03,0.00,27.43
34446176,2007,1,187835,241424,0.87,-1.26,9.80,-0.03,0.01,-0.01,27.43
34487218,2006,1,188516,241985,0.05,-1.44,9.96,-0.04,0.03,-0.01,27.43
34527176,2096,1,188169,241467,0.67,-0.96,9.18,-0.04,-0.06,-0.00,27.43
34567194,2029,1,188148,240428,0.57,-1.21,9.52,-0.08,0.00,-0.01,27.43
34607176,1993,1,186869,238971,0.76,-1.08,8.95,-0.03,-0.04,-0.00,27.43
34647193,1957,1,187768,241047,0.06,-1.96,9.26,-0.11,0.16,-0.02,27.43
34687200,1984,1,188517,241472,0.31,-1.05,9.24,-0.03,0.04,-0.35,27.43
34727176,2015,1,188687,241597,0.03,-1.29,11.10,-0.06,0.08,-0.03,27.43
34767176,1934,1,188062,240803,-0.05,-0.98,8.68,-0.01,-0.09,-0.02,27.43
34807210,1966,1,188499,242609,0.56,-1.48,10.97,-0.01,0.04,-0.02,27.43
34847176,1969,1,189017,242934,0.30,-0.63,8.11,-0.03,-0.02,-0.18,27.43
34887895,1947,1,189426,243923,-0.00,-1.27,11.45,-0.06,0.07,-0.22,27.15
34926193,1915,1,189274,242150,0.17,-0.45,8.43,-0.03,-0.04,-0.20,27.15
34966193,1919,1,188840,242331,-0.27,-1.73,10.43,-0.06,0.11,-0.02,27.15
35006193,1931,1,188747,242355,0.56,-0.93,9.00,-0.03,-0.05,-0.02,27.15
35046193,1936,1,189292,243949,0.66,-1.27,11.26,-0.03,0.02,-0.02,27.15
35086176,1937,1,189409,242885,-0.50,-1.79,7.24,-0.09,-0.01,-0.07,27.15
35126210,1958,1,189419,242930,0.57,-1.47,11.17,-0.04,0.08,-0.02,27.15
35166176,1883,1,189385,242530,0.00,-1.16,9.80,-0.01,0.01,-0.03,27.15
35206176,1938,1,188950,242938,0.88,-0.82,9.86,0.02,-0.09,-0.02,27.15
35246176,1905,1,189631,243817,0.10,-1.79,9.61,-0.02,0.01,-0.02,27.15
35286176,1935,1,189398,242740,0.18,-0.75,9.49,0.01,-0.06,-0.02,27.15
35326176,1875,1,189505,242901,0.30,-1.18,10.91,-0.03,0.03,-0.03,27.15
35366176,1895,1,189244,242820,0.27,-1.08,9.81,0.00,-0.08,-0.02,27.15
35406176,1872,1,189939,244173,0.02,-1.63,11.87,-0.02,0.07,-0.02,27.15
35446176,1907,1,189972,244175,0.01,-1.18,9.84,-0.01,-0.08,-0.02,27.15
35486192,1894,1,190123,244280,0.19,-1.63,11.15,-0.04,0.03,-0.02,27.15
35526181,1893,1,190018,244591,0.38,-1.62,10.03,-0.01,-0.10,-0.02,27.15
35566193,1846,1,190029,244137,0.36,-1.35,9.79,-0.05,-0.07,-0.02,27.15
35606195,1849,1,190159,245124,-0.04,-1.47,9.88,-0.03,-0.02,-0.02,27.15
35646210,1862,1,190655,244738,0.29,-0.93,10.17,-0.03,-0.05,-0.02,27.15
35686195,1872,1,190109,244538,0.22,-1.24,10.01,-0.01,-0.09,-0.01,27.15
35726192,1808,1,189963,242653,0.41,-1.77,8.95,-0.05,-0.03,-0.03,27.15
35766194,1799,1,188970,242940,0.43,-1.31,10.08,0.03,-0.05,0.08,27.15
35806165,1780,1,189962,243863,0.33,-1.82,10.32,-0.03,0.11,-0.03,27.15
35846177,1905,1,190006,243920,0.35,-0.83,9.39,0.05,-0.13,-0.01,27.15
35886176,1837,1,190216,244325,0.32,-2.26,10.75,-0.02,0.07,-0.01,27.15
35926863,1843,1,190012,243654,0.40,-0.90,9.47,0.04,-0.11,-0.01,26.93
35965176,1821,1,189739,243778,0.36,-1.63,10.53,-0.03,0.01,0.14,26.93
36005167,1839,1,189441,242482,0.73,-0.99,9.21,-0.05,-0.07,-0.02,26.93
36045192,1859,1,188911,242102,0.39,-1.41,9.18,-0.07,-0.03,0.11,26.93
36085176,1867,1,188658,241025,0.52,-0.05,8.63,-0.08,-0.04,0.00,26.93
36125223,1854,1,188169,241006,-0.05,-0.97,9.12,-0.08,0.04,0.06,26.93
36165176,1840,1,188443,241735,0.56,-0.07,9.68,-0.08,0.05,-0.04,26.93
36205176,1857,1,188965,242398,0.57,-0.58,10.71,-0.06,0.03,-0.08,26.93
36245176,1867,1,188531,241995,1.07,-0.63,8.63,-0.08,-0.11,0.01,26.93
36285176,1840,1,188610,241634,0.57,-0.82,10.36,-0.10,0.09,-0.01,26.93
36325217,1860,1,187910,240955,0.75,-0.72,8.40,-0.10,-0.07,-0.02,26.93
36365192,1848,1,188699,242359,-0.31,0.21,9.54,-0.09,0.24,-0.03,26.93
36405176,1872,1,188932,242362,0.30,0.34,9.56,-0.02,-0.03,-0.02,26.93
36445176,1903,1,188828,242991,-0.04,-0.63,9.50,-0.07,0.00,-0.01,26.93
36485194,1856,1,189160,242896,-0.19,-0.67,9.80,-0.09,0.11,-0.02,26.93
36525197,1869,1,188659,242227,0.70,-0.89,10.65,-0.04,0.01,-0.01,26.93
36565176,1868,1,189070,243977,0.30,-0.98,10.86,-0.07,0.07,-0.01,26.93
36605176,1899,1,189669,243559,-0.29,-0.47,9.77,-0.08,0.02,-0.02,26.93
36645194,1942,1,189635,243720,0.22,-0.67,10.29,-0.03,0.02,-0.02,26.93
36685176,1918,1,189711,243779,-0.01,-0.58,10.41,-0.03,-0.02,-0.05,26.93
36725211,1904,1,189518,243976,0.62,-1.10,10.56,-0.03,-0.07,-0.03,26.93
36765193,1883,1,190268,244607,-0.34,-1.87,9.79,-0.04,0.00,-0.06,26.93
36805195,1915,1,190045,243209,0.16,-0.76,9.41,-0.03,-0.06,-0.02,26.93
36845192,1894,1,189715,243162,0.25,-1.44,10.74,0.01,0.03,-0.00,26.93
36885169,1933,1,188828,240438,-0.15,-1.62,8.58,-0.06,-0.10,-0.02,26.93
36925210,1914,1,188313,241216,-0.01,-1.23,10.34,0.02,0.07,-0.01,26.93
36965864,1887,1,188754,241263,-0.11,-0.80,9.66,-0.04,0.03,-0.01,27.15
37006193,1923,1,188673,241898,-0.17,-1.31,10.04,0.00,-0.03,-0.01,27.15
37046195,1909,1,189162,242783,0.01,-1.05,10.20,-0.02,0.00,-0.01,27.15
37086176,1901,1,189089,242428,0.20,-0.98,9.78,0.01,-0.08,-0.01,27.15
37126176,1914,1,189439,243874,0.57,-1.53,11.36,-0.03,0.01,-0.01,27.15
37166176,1907,1,190005,243919,0.18,-0.75,10.75,-0.02,-0.01,-0.02,27.15
37204198,1927,1,189853,244005,0.23,-1.44,10.14,-0.01,-0.05,-0.01,27.15
37244193,1907,1,189807,243441,0.07,-0.71,11.17,-0.04,-0.00,-0.01,27.15
37284194,1911,1,189769,243756,0.01,-1.28,10.96,-0.03,-0.03,-0.01,27.15
37324193,1926,1,189779,243581,0.55,-0.35,10.60,-0.04,-0.10,-0.02,27.15
37364194,1911,1,189655,242927,0.33,-1.12,10.47,-0.05,-0.05,-0.01,27.15
37404193,1954,1,188744,240411,0.49,-0.33,8.46,-0.06,-0.15,-0.00,27.15
37444198,1911,1,188015,238779,0.06,-0.45,9.86,-0.10,0.08,0.00,27.15
37484164,1927,1,187281,238389,-0.08,-0.70,8.22,-0.08,-0.07,0.12,27.15
37524202,1887,1,187711,239307,0.03,-0.07,9.33,-0.08,0.16,-0.04,27.15
37565176,1922,1,187805,239400,-0.30,-0.16,8.83,-0.04,-0.04,-0.00,27.15
37605210,1917,1,187541,240015,0.10,-0.30,9.04,-0.02,-0.04,0.11,27.15
37645176,1877,1,187562,240124,-0.18,-0.57,7.91,-0.08,0.00,0.15,27.15
37685176,1876,1,187952,241001,-0.14,-0.00,9.34,-0.04,0.08,0.01,27.15
37725176,1867,1,188245,241608,-0.32,-0.11,9.30,-0.04,0.07,-0.00,27.15
37765228,1869,1,188735,242938,-0.59,-0.52,9.87,-0.02,0.09,0.00,27.15
37805176,1862,1,189258,243210,-0.65,-0.60,10.12,-0.00,0.08,0.00,27.15
37845176,1843,1,189514,243977,-0.85,-0.86,11.03,-0.00,0.10,0.00,27.15
37885176,1837,1,189443,243693,-0.98,-0.13,10.68,-0.00,0.01,-0.00,27.15
37925194,1831,1,189219,243452,-1.01,-1.14,11.16,-0.03,0.04,0.08,27.15
37965213,1848,1,188983,243195,-0.55,-0.33,10.53,-0.03,0.02,0.07,27.15
38005862,1857,1,188974,243062,-0.65,0.21,11.70,0.02,-0.04,0.05,27.15
38044164,1859,1,188545,243211,-0.22,-0.33,9.62,-0.06,-0.05,0.18,27.15
38084198,1856,1,189325,242892,-0.76,-0.52,10.93,-0.06,0.11,-0.02,27.15
38124194,1833,1,189268,243501,-0.50,-0.32,11.19,-0.02,-0.08,-0.01,27.15
38164211,1841,1,189622,243326,-0.79,-0.22,10.69,-0.03,-0.01,-0.02,27.15
38204211,1861,1,189321,243308,-0.80,-0.37,9.75,-0.01,-0.11,-0.01,27.15
38244211,1876,1,189636,243076,-0.63,-0.51,9.56,-0.06,-0.02,-0.02,27.15
38284211,1877,1,189126,243287,-0.74,-0.62,8.26,-0.06,-0.09,-0.02,27.15
38324210,1872,1,190396,244709,-0.32,-1.15,10.24,0.00,0.14,-0.18,27.15
38364176,1856,1,190888,245505,-0.72,-0.26,9.86,0.02,-0.07,-0.02,27.15
38404194,1862,1,191258,245020,-0.77,-0.29,9.79,0.01,-0.06,-0.01,27.15
38444192,1907,1,189883,242966,-0.12,-0.46,8.85,-0.01,-0.14,0.16,27.15
38484195,1904,1,189715,244256,-0.34,-0.13,9.50,0.00,-0.00,0.00,27.15
38524183,1873,1,190049,244699,-0.36,0.56,9.20,0.02,-0.08,-0.01,27.15
38564176,1877,1,190658,246175,-0.45,-0.34,10.64,0.00,0.01,-0.09,27.15
38604176,1911,1,191172,244976,-0.57,-0.54,9.80,0.00,-0.01,-0.11,27.15
38644193,1906,1,190085,244293,-0.51,0.17,10.98,0.03,-0.11,0.10,27.15
38684165,1926,1,190017,243537,-0.68,-1.04,10.03,-0.02,0.08,0.01,27.15
38724176,1895,1,190085,244670,-0.36,-0.02,11.10,0.07,-0.13,-0.00,27.15
38764192,1895,1,190741,245148,-0.72,-1.01,10.69,-0.06,-0.01,-0.02,27.15
38804210,1923,1,189944,243737,-0.22,0.29,8.83,0.02,-0.10,-0.03,27.15
38844176,1918,1,189485,241485,-0.12,-0.58,11.03,-0.02,0.02,0.00,27.15
38884176,1905,1,188232,242022,-0.74,-0.29,9.48,-0.03,-0.05,0.18,27.15
38924192,1913,1,190082,243315,0.06,-1.45,12.00,-0.03,0.12,-0.08,27.15
38964176,1921,1,189907,244301,-0.96,-0.58,9.42,0.08,-0.17,-0.01,27.15
39004192,1887,1,190242,243142,-0.32,-0.93,10.66,-0.07,0.06,-0.01,27.15
39044880,1924,1,188197,239507,-0.18,-0.14,7.75,0.00,-0.12,0.06,26.91
39083176,1879,1,187372,238586,0.40,-1.39,11.19,-0.03,0.07,0.08,26.91
39123165,1846,1,186595,238142,-0.11,0.26,8.00,-0.06,-0.05,-0.01,26.91
39163191,1813,1,187517,239396,0.07,-0.36,10.43,0.00,0.07,-0.19,26.91
39203165,1846,1,187884,240610,-0.27,-0.91,9.75,-0.08,-0.01,-0.02,26.91
39243211,1871,1,188345,240514,0.22,-0.73,10.39,-0.01,-0.00,0.00,26.91
39283176,1866,1,187282,238609,0.75,-0.25,9.22,-0.02,-0.09,0.00,26.91
39323176,1892,1,187253,239315,0.30,-1.13,10.12,-0.06,0.05,-0.00,26.91
39363176,1914,1,187192,238838,0.18,0.37,8.85,-0.04,0.03,-0.02,26.91
39403171,1889,1,187237,238687,0.54,-1.34,11.05,-0.03,0.11,-0.16,26.91
39443177,1892,1,186881,237969,0.67,0.76,9.14,0.03,-0.04,-0.32,26.91
39483165,1902,1,186685,236911,0.06,-1.48,10.52,-0.01,0.01,-0.11,26.91
39523176,1909,1,185528,235221,1.12,-0.31,9.13,-0.03,-0.05,-0.02,26.91
39563193,1904,1,186208,236731,0.11,-0.78,10.01,0.00,-0.00,-0.02,26.91
39603192,1946,1,186611,238248,0.58,-0.28,9.24,-0.03,-0.00,-0.06,26.91
39643192,1950,1,187368,238772,0.08,-0.97,11.22,-0.05,0.03,-0.12,26.91
39683176,1938,1,187317,239637,0.32,0.02,9.47,0.01,-0.07,-0.02,26.91
39723164,1898,1,188206,240476,0.25,-0.53,11.44,-0.08,0.07,-0.07,26.91
39763176,1915,1,188401,241378,0.46,-0.61,10.78,0.01,-0.14,0.00,26.91
39803177,1877,1,188580,241244,0.55,-1.21,10.37,-0.06,-0.07,0.01,26.91
39843178,1903,1,188244,240594,0.41,-0.47,9.12,-0.05,-0.11,0.01,26.91
39883176,1901,1,187892,239385,-0.13,-0.20,9.89,-0.08,0.03,0.02,26.91
39923176,1890,1,186901,237353,0.17,-0.07,9.28,-0.09,0.01,0.03,26.91
39963165,1893,1,186394,236484,0.26,-0.26,10.78,-0.05,0.09,0.02,26.91
40003165,1890,1,186058,236671,0.30,-0.38,10.30,-0.03,-0.02,0.02,26.91
40043176,1887,1,186118,236607,0.52,-0.52,10.18,-0.02,-0.06,0.01,26.91
40083864,1871,1,185942,236250,0.24,-1.60,8.66,-0.06,-0.05,0.02,26.73
40122176,1882,1,185926,235741,-0.06,-0.58,10.05,-0.02,0.02,0.01,26.73
40162176,1850,1,185304,232502,0.62,-0.97,9.48,-0.02,-0.08,0.02,26.73
40202176,1870,1,184197,231072,0.84,-0.41,9.45,0.01,-0.12,-0.00,26.73
40242177,1838,1,183846,230913,0.62,-0.70,8.80,-0.03,-0.02,0.01,26.73
40282176,1840,1,184689,233048,-0.18,-1.22,9.79,-0.02,0.09,0.00,26.73
40322176,1839,1,185172,233136,0.66,-0.62,9.78,-0.01,0.01,-0.09,26.73
40362176,1853,1,185083,233213,-0.18,-0.71,10.23,0.00,0.01,0.07,26.73
40402165,1875,1,184706,233406,0.84,0.32,9.94,-0.01,-0.03,0.00,26.73
40442165,1869,1,185406,235198,0.35,-0.39,10.66,-0.01,0.02,-0.04,26.73
40482178,1914,1,185628,235655,0.74,0.37,10.03,-0.04,-0.05,-0.02,26.73
40522178,1902,1,186178,236088,0.13,-0.44,11.00,-0.02,0.11,0.02,26.73
40562165,1931,1,185528,234942,0.58,-0.53,10.24,-0.01,-0.14,0.12,26.73
40602176,1937,1,185154,235139,0.45,-1.06,10.38,-0.06,-0.04,0.07,26.73
40642178,1879,1,185062,234169,0.26,-0.48,9.60,-0.04,-0.04,0.01,26.73
40682176,1922,1,184730,234271,0.55,-0.13,9.37,-0.02,-0.04,0.00,26.73
40722176,1862,1,185045,234446,0.34,-0.10,10.30,-0.10,0.11,-0.00,26.73
40762176,1938,1,184665,234409,0.58,-0.51,9.45,-0.02,-0.11,0.01,26.73
40802178,1878,1,184730,233308,0.43,-0.54,9.41,-0.05,0.01,0.00,26.73
40842165,1863,1,183842,231595,0.66,-1.38,9.14,-0.04,-0.09,0.01,26.73
40882178,1823,1,183509,229491,0.07,-0.77,9.19,-0.08,0.06,-0.01,26.73
40922176,1851,1,182637,228982,0.50,-0.57,9.64,-0.03,0.00,-0.00,26.73
40962176,1809,1,182986,229173,0.44,-1.11,10.61,-0.06,0.09,-0.10,26.73
41002176,1889,1,182897,229508,-0.10,-0.14,10.29,-0.01,-0.03,-0.09,26.73
41042221,1829,1,183418,230684,0.76,-1.75,10.64,-0.04,0.01,-0.11,26.73
41082176,1855,1,183604,231663,0.22,-0.69,10.58,-0.01,-0.11,-0.01,26.73
41122884,1840,1,184071,231952,0.13,-1.18,9.84,-0.08,0.02,-0.00,26.73
41163176,1881,1,184179,233132,0.42,0.08,10.36,-0.01,-0.03,-0.01,26.73
41203176,1854,1,184883,234122,-0.13,-0.95,10.46,-0.09,0.09,-0.01,26.73
41243198,1903,1,184792,233762,0.11,0.03,9.59,-0.03,-0.06,-0.00,26.73
41283176,1863,1,184890,234185,0.26,-0.71,10.73,-0.05,0.03,-0.00,26.73
41323176,1878,1,184744,234060,0.02,-1.70,9.21,-0.08,-0.08,0.13,26.73
41363176,1873,1,184927,234200,0.06,-0.23,9.76,-0.05,0.05,0.01,26.73
41403165,1925,1,184861,234960,0.30,-0.52,10.40,-0.03,-0.04,0.03,26.73
41443176,1856,1,185097,235094,0.26,-0.87,9.60,-0.06,-0.01,-0.00,26.73
41483193,1893,1,185178,235009,-0.09,-0.56,9.93,-0.06,0.01,-0.00,26.73
41523195,1904,1,184884,234251,0.24,-1.31,9.70,-0.08,-0.02,0.12,26.73
41563176,1904,1,184323,232039,0.48,-1.36,9.60,-0.05,0.00,-0.00,26.73
41603176,1930,1,183425,230432,0.26,-0.81,8.70,-0.07,-0.03,-0.00,26.73
41643193,1901,1,183304,230270,0.17,-0.22,10.40,-0.02,0.16,-0.04,26.73
41681178,1910,1,183283,230873,-0.08,-0.44,11.08,0.00,0.07,-0.00,26.73
41721176,1919,1,183678,231931,-0.34,-0.40,9.56,-0.01,0.02,-0.02,26.73
41761195,1920,1,184313,233794,0.86,-1.11,11.14,-0.00,-0.01,-0.00,26.73
41801194,1920,1,184653,233720,0.21,-1.00,9.26,-0.02,-0.05,-0.00,26.73
41841195,1911,1,184747,233309,-0.10,-0.21,9.52,-0.04,0.04,-0.01,26.73
41881193,1925,1,184808,233847,-0.26,-1.28,10.93,-0.01,0.07,-0.03,26.73
41921198,1926,1,184822,233422,0.66,-0.63,10.79,0.01,-0.05,-0.04,26.73
41961176,1937,1,184458,234036,0.07,-1.48,9.50,-0.03,-0.11,0.01,26.73
42001178,1931,1,184898,233747,0.06,-1.03,9.60,-0.05,0.01,-0.01,26.73
42041176,1954,1,184579,233562,0.33,-0.47,9.67,-0.01,-0.09,-0.01,26.73
42081198,1914,1,184794,233711,0.26,-0.09,10.32,-0.02,0.05,-0.01,26.73
42121176,1984,1,184558,233929,0.41,-0.68,9.93,-0.00,-0.10,-0.00,26.73
42161881,1939,1,184841,234430,-0.16,-1.04,9.35,-0.05,-0.04,0.00,26.67
42202193,1918,1,184361,232808,-0.17,-0.46,9.38,-0.05,-0.08,0.13,26.67
42242198,1902,1,183923,231764,-0.25,-0.46,9.15,-0.05,0.00,0.06,26.67
42282176,1903,1,183697,232328,0.03,-0.34,9.50,-0.01,-0.00,0.08,26.67
42322176,1864,1,184300,233925,-0.01,0.02,9.77,-0.02,0.02,0.01,26.67
42362165,1878,1,184657,234633,-0.26,-0.41,9.12,-0.04,-0.02,0.01,26.67
42402198,1866,1,185184,235918,-0.54,-1.13,9.75,-0.01,0.04,0.00,26.67
42442176,1847,1,185597,236828,-0.50,0.34,10.02,-0.00,0.01,0.02,26.67
42482164,1836,1,185956,237443,-0.00,0.11,10.86,-0.01,0.03,-0.00,26.67
42522177,1862,1,186197,238222,-0.44,-0.06,11.14,-0.05,-0.00,-0.01,26.67
42562211,1872,1,186648,237911,-0.67,-0.79,10.81,-0.03,0.03,-0.01,26.67
42602194,1894,1,186090,237366,-0.68,-0.13,10.21,-0.03,-0.01,-0.01,26.67
42642211,1892,1,186045,237358,-0.72,-0.27,10.47,-0.03,0.03,-0.01,26.67
42682194,1898,1,185999,237256,-0.47,0.16,10.45,-0.03,-0.04,-0.00,26.67
42722195,1890,1,186113,237430,-0.46,-0.48,10.74,-0.05,-0.00,-0.01,26.67
42762211,1889,1,186205,237798,-0.93,-0.05,9.78,-0.05,-0.04,-0.01,26.67
42802211,1899,1,186243,237937,-0.60,-0.79,9.93,-0.06,-0.04,-0.01,26.67
42842211,1901,1,186037,236504,-0.87,-0.19,9.51,-0.06,-0.02,0.02,26.67
42882198,1885,1,185186,234506,-0.60,-0.17,10.11,-0.06,0.00,0.00,26.67
42922176,1861,1,184598,233446,-1.11,-0.50,9.66,-0.07,0.01,0.02,26.67
42962176,1867,1,183767,232119,-0.27,-0.51,9.04,-0.04,-0.07,0.00,26.67
43002193,1862,1,183607,231727,-0.46,0.24,9.27,-0.06,0.03,-0.01,26.67
43042178,1870,1,183204,231419,-0.40,-0.47,9.28,-0.04,-0.03,-0.01,26.67
43080244,1879,1,183486,231760,-0.65,-0.36,9.19,-0.04,0.07,-0.01,26.67
43120198,1872,1,183550,232420,-0.76,-0.39,9.54,-0.04,-0.00,-0.01,26.67
43160211,1869,1,184016,233577,-0.78,-0.74,10.07,-0.02,0.02,-0.01,26.67
43200884,1863,1,184735,235306,-0.87,-0.49,10.64,-0.02,0.02,-0.01,26.65
43241194,1846,1,185626,237356,-0.83,-0.33,11.46,-0.03,0.02,-0.01,26.65
43281198,1840,1,186339,238273,-0.99,-0.41,11.19,-0.02,0.00,-0.08,26.65
43321194,1826,1,186416,238497,-0.99,-0.41,11.07,-0.01,0.01,-0.02,26.65
43361198,1829,1,186630,238530,-0.95,-0.72,11.86,-0.01,0.01,-0.01,26.65
43401193,1849,1,186337,237891,-0.91,-0.33,10.10,-0.04,-0.05,-0.02,26.65
43441211,1877,1,186144,237286,-0.97,-0.61,10.30,-0.03,-0.01,-0.02,26.65
43481211,1904,1,185481,236037,-0.73,0.07,9.08,-0.04,-0.07,-0.02,26.65
43521194,1887,1,185180,235551,-1.01,-0.14,10.27,-0.04,-0.01,-0.02,26.65
43561211,1910,1,184269,233833,-0.57,-0.42,9.21,-0.06,-0.10,-0.02,26.65
43601211,1882,1,184354,233741,-1.24,-0.39,9.57,-0.05,-0.00,-0.02,26.65
43641211,1872,1,183743,232402,-0.67,0.57,9.47,-0.07,-0.06,0.10,26.65
43681176,1878,1,183245,231737,-1.12,-0.58,9.61,-0.07,-0.01,0.10,26.65
43721193,1932,1,182862,231281,-0.94,-0.58,8.24,-0.11,-0.03,0.07,26.65
43761195,1902,1,183521,233567,-0.44,0.19,10.14,-0.02,0.04,-0.03,26.65
43801176,1903,1,184041,234301,-0.60,0.01,9.55,-0.06,-0.03,-0.02,26.65
43841194,1890,1,184692,236162,-1.17,-1.36,9.93,-0.02,0.03,-0.01,26.65
43881194,1881,1,185210,236062,-0.94,-0.09,10.01,-0.03,0.01,-0.02,26.65
43921195,1853,1,185697,238093,-1.12,-0.60,11.35,-0.01,0.03,-0.02,26.65
43961193,1867,1,186453,238496,-1.09,0.36,9.92,-0.05,0.03,-0.05,26.65
44001176,1877,1,186810,239409,-0.63,-0.72,11.12,0.01,0.02,-0.13,26.65
44041176,1877,1,187007,239567,-1.09,0.12,10.37,-0.04,0.01,-0.13,26.65
44081178,1871,1,186839,239139,-1.03,-0.52,10.93,0.01,-0.02,-0.02,26.65
44121193,1863,1,186468,237962,-1.06,-0.43,9.66,-0.03,-0.00,-0.01,26.65
44161211,1878,1,185933,236742,-0.77,-0.60,10.85,-0.01,-0.02,-0.02,26.65
44201897,1883,1,184927,233855,-1.13,-0.32,9.58,-0.04,0.00,-0.03,26.61
44240198,1895,1,184004,232897,-1.04,0.16,9.56,-0.02,-0.05,-0.02,26.61
44280192,1915,1,184183,234098,-0.56,-0.57,10.11,-0.05,-0.03,-0.03,26.61
44320211,1894,1,184490,235352,-0.74,-0.54,9.79,-0.05,-0.06,-0.02,26.61
44360211,1918,1,184975,235485,-0.69,-0.03,9.64,-0.03,-0.01,-0.02,26.61
44400210,1905,1,184980,235480,-0.73,-0.28,10.50,-0.05,-0.02,-0.02,26.61
44440211,1921,1,184639,235362,-0.66,-0.25,10.04,-0.07,-0.03,-0.03,26.61
44480211,1907,1,184947,235538,-1.03,-0.71,9.79,-0.04,-0.00,-0.02,26.61
44520210,1902,1,184753,234812,-0.62,0.12,9.89,-0.05,-0.03,-0.02,26.61
44560195,1889,1,185026,236615,-0.58,-0.80,10.43,-0.04,0.01,-0.04,26.61
44600193,1902,1,185696,237311,-0.33,-0.28,9.72,-0.05,-0.02,-0.05,26.61
44640211,1913,1,185966,237855,-0.40,-0.61,10.25,-0.02,-0.01,-0.03,26.61
44680211,1904,1,186204,238183,-0.46,-0.84,9.52,-0.03,-0.01,-0.03,26.61
44720211,1883,1,186280,238144,-0.07,-0.02,10.45,0.00,-0.04,-0.05,26.61
44760192,1888,1,186285,238579,-0.45,-0.92,10.30,-0.03,-0.02,-0.02,26.61
44800211,1898,1,186159,237613,-0.38,-0.13,9.84,-0.01,-0.02,-0.02,26.61
44840211,1879,1,185726,236270,-0.07,-0.84,10.86,0.03,-0.03,-0.01,26.61
44880195,1895,1,184976,236584,-0.32,-0.55,9.70,-0.02,-0.08,-0.01,26.61
44920211,1890,1,186179,237579,-0.48,-0.62,9.82,0.01,0.02,-0.02,26.61
44960176,1890,1,185544,237348,-0.13,-0.69,9.94,0.01,-0.11,-0.04,26.61
45000194,1862,1,185941,238483,-0.10,-0.54,9.90,-0.01,-0.03,-0.01,26.61
45040211,1882,1,186031,237713,0.04,-0.22,9.47,-0.02,-0.06,-0.02,26.61
45080193,1882,1,185731,238049,0.48,-0.44,10.75,0.01,-0.01,-0.02,26.61
45120178,1867,1,185622,237339,-0.39,-0.19,9.11,-0.04,-0.03,-0.00,26.61
45160211,1873,1,185758,237873,0.45,-0.92,10.54,0.01,-0.02,-0.02,26.61
45200178,1894,1,185996,238713,0.08,-0.57,10.07,-0.05,-0.05,0.00,26.61
45240862,1875,1,186138,238456,-0.14,-0.58,9.29,-0.02,-0.05,0.00,26.65
45279195,1877,1,186433,239002,0.04,-0.96,10.58,0.01,0.00,0.00,26.65
45319143,1877,1,186013,237967,0.16,-0.01,9.64,-0.05,-0.08,0.00,26.65
45359176,1849,1,186013,238941,0.30,-0.46,10.22,-0.01,-0.01,-0.01,26.65
45399194,1872,1,186728,239594,0.51,-0.17,9.96,-0.06,-0.04,-0.00,26.65
45439195,1863,1,186885,239649,0.37,-0.62,9.56,-0.01,-0.03,0.01,26.65
45479176,1873,1,186797,239172,0.59,-0.34,9.85,-0.05,-0.05,-0.01,26.65
45519198,1890,1,186117,238027,0.45,-0.80,9.56,-0.05,-0.04,-0.02,26.65
45560192,1867,1,185729,236862,0.67,-0.25,9.24,0.01,0.00,0.00,26.65
45600146,1872,1,185871,237595,0.18,-0.85,10.24,0.00,0.04,0.00,26.65
45640143,1888,1,185894,237880,0.17,-0.39,9.57,-0.04,-0.03,-0.01,26.65
45680198,1872,1,186153,237826,0.19,-0.58,9.99,-0.01,0.03,-0.01,26.65
45720176,1902,1,185551,237218,0.56,-0.80,9.56,-0.00,-0.05,-0.07,26.65
45760194,1889,1,185776,237586,0.50,-0.26,9.74,-0.02,0.03,-0.03,26.65
45800176,1903,1,186194,239060,0.44,-0.64,10.35,-0.02,0.01,-0.01,26.65
45840178,1883,1,186580,238916,0.39,0.01,10.18,-0.02,0.01,0.01,26.65
45880144,1902,1,186514,239435,0.12,-1.17,10.68,-0.03,0.01,0.01,26.65
45920169,1879,1,186715,239323,0.14,-0.75,10.49,-0.04,-0.01,0.01,26.65
45958176,1883,1,186508,239550,0.87,-0.25,10.55,-0.03,-0.04,0.00,26.65
45998176,1883,1,186711,239644,0.34,-0.95,10.14,-0.06,-0.03,0.01,26.65
46038176,1927,1,186509,239098,0.25,-0.53,9.90,-0.06,-0.05,0.01,26.65
46078176,1847,1,186360,237834,0.36,-0.74,10.32,-0.04,0.00,0.01,26.65
46118165,1909,1,185196,236381,0.04,-0.34,9.21,-0.08,-0.02,0.03,26.65
46158188,1857,1,185467,235596,0.25,-0.59,9.83,-0.03,0.02,0.01,26.65
46198165,1884,1,185052,235815,0.04,-0.45,9.97,-0.07,-0.02,0.02,26.65
46238176,1858,1,185252,236484,0.13,-0.59,9.91,-0.04,0.01,0.01,26.65
46278851,1854,1,185448,235881,0.05,-0.26,9.81,-0.04,-0.00,0.01,26.71
46319176,1866,1,184849,235891,0.18,-0.89,9.76,-0.04,-0.03,0.04,26.71
46359189,1865,1,184747,235277,0.31,-0.02,9.15,-0.03,-0.01,0.02,26.71
46399176,1859,1,184647,236516,0.30,-0.58,9.42,-0.02,-0.01,0.02,26.71
46439176,1855,1,185333,236073,-0.31,-0.49,9.36,-0.04,0.05,0.01,26.71
46479176,1859,1,185038,236572,-0.01,-0.84,10.52,0.02,0.01,0.02,26.71
46519164,1837,1,184993,236643,-0.01,-0.22,9.70,-0.02,0.01,0.02,26.71
46559176,1845,1,185187,237344,-0.01,-0.59,10.40,-0.01,0.01,0.01,26.71
46598176,1861,1,185425,237388,-0.54,-0.23,9.94,-0.02,0.02,0.01,26.71
46638176,1863,1,185542,237818,-0.19,-0.31,10.52,-0.02,0.02,0.01,26.71
46678176,1875,1,185607,237975,0.07,-0.16,10.19,-0.02,-0.01,0.01,26.71
46718176,1875,1,185691,238378,-0.37,-0.03,10.26,-0.03,-0.01,0.01,26.71
46758194,1888,1,185878,238174,-0.47,-0.49,10.53,-0.02,0.01,0.01,26.71
46798178,1899,1,185417,237071,-0.36,-0.07,10.16,-0.01,-0.03,0.00,26.71
46838193,1904,1,185251,237069,-0.51,-0.51,10.85,-0.00,0.01,0.01,26.71
46878178,1903,1,185102,237042,-0.69,0.26,10.19,-0.02,-0.05,0.03,26.71
46918176,1889,1,184959,237188,-0.57,-0.26,10.16,-0.01,-0.01,0.01,26.71
46958198,1907,1,184887,236791,-0.74,0.68,10.12,-0.04,-0.03,0.01,26.71
46998176,1907,1,185014,237914,-0.88,-0.09,9.84,-0.03,-0.04,0.00,26.71
47038194,1917,1,185380,237576,-0.60,-0.26,9.58,-0.05,0.03,-0.05,26.71
47078195,1908,1,185001,237616,-0.81,0.13,10.33,-0.01,-0.02,-0.09,26.71
47118198,1919,1,184691,237307,-0.97,0.38,9.11,-0.05,-0.02,-0.05,26.71
47158193,1909,1,184326,237200,-1.04,-0.16,9.86,-0.03,0.00,-0.02,26.71
47198194,1887,1,183898,236539,-0.74,0.68,9.28,-0.03,-0.03,-0.08,26.71
47238193,1856,1,183387,236313,-0.91,-0.52,10.43,-0.04,0.02,-0.11,26.71
47278884,1886,1,183090,235736,-0.87,0.38,9.23,-0.03,-0.02,-0.19,26.73
47319193,1867,1,182913,235532,-1.13,-0.08,9.60,-0.02,0.00,-0.13,26.73
47357195,1897,1,182664,235117,-1.30,0.47,9.84,-0.04,0.01,-0.05,26.73
47397176,1855,1,182412,234531,-0.93,0.68,10.46,-0.01,-0.02,-0.01,26.73
47437197,1853,1,182126,233971,-1.11,-0.13,10.27,-0.05,-0.04,0.03,26.73
47477194,1838,1,182044,233060,-1.04,0.04,10.00,-0.05,-0.00,-0.01,26.73
47517195,1845,1,182265,232790,-1.42,0.19,10.33,-0.04,0.01,0.00,26.73
47557164,1846,1,182532,233037,-0.80,-0.05,10.89,-0.04,-0.02,0.10,26.73
47598194,1840,1,182826,232535,-1.35,0.06,10.04,-0.07,0.04,-0.00,26.73
47638176,1861,1,182632,231912,-1.07,0.26,10.35,-0.04,0.01,-0.01,26.73
47678178,1873,1,182557,231516,-1.39,-0.34,9.62,-0.05,0.01,-0.00,26.73
47718193,1891,1,182132,230129,-0.89,0.74,9.02,-0.03,-0.04,-0.01,26.73
47758194,1879,1,181775,229608,-1.02,-0.62,9.98,-0.06,0.06,-0.00,26.73
47798233,1891,1,181709,229949,-1.04,-0.06,9.93,-0.02,-0.02,-0.01,26.73
47838211,1857,1,182217,230930,-0.79,-0.38,10.66,-0.02,-0.02,0.02,26.73
47878194,1869,1,182062,229660,-0.84,-0.33,10.37,-0.07,-0.06,0.29,26.73
47918198,1894,1,181190,228192,-1.09,-0.49,10.60,-0.06,-0.03,0.34,26.73
47958192,1910,1,181210,228014,-0.78,-0.78,10.95,-0.08,-0.04,0.27,26.73
47998235,1904,1,183380,230822,0.00,-0.23,10.25,-0.08,-0.04,0.19,26.73
48038176,1904,1,186584,234053,-0.03,-0.71,10.45,-0.09,-0.00,-0.08,26.73
48078211,1922,1,186426,234079,-0.29,-0.57,9.75,-0.08,-0.02,-0.08,26.73
48118212,1929,1,185444,233216,-0.57,-1.32,9.85,-0.04,-0.07,-0.01,26.73
48158211,1938,1,184341,232151,-0.26,-1.39,9.38,-0.05,-0.07,-0.02,26.73
48198211,1945,1,184115,231465,-0.56,-1.44,10.01,-0.01,-0.04,-0.09,26.73
48238210,1936,1,183163,229092,-0.44,-0.60,9.43,-0.06,0.00,-0.11,26.73
48278879,1908,1,182400,228024,-0.46,-0.87,10.54,0.02,0.01,-0.13,26.79
48317178,1936,1,182649,230028,0.36,-0.43,10.58,-0.03,-0.02,-0.06,26.79
48357194,1937,1,183511,231162,0.42,-1.13,10.43,-0.00,-0.02,-0.08,26.79
48397198,1961,1,183594,231076,0.51,-1.04,9.52,-0.03,-0.03,-0.05,26.79
48437193,1948,1,183497,230766,0.51,-0.96,9.62,-0.00,-0.03,-0.11,26.79
48477195,1936,1,183443,231266,-0.08,-0.94,9.69,-0.04,-0.01,-0.02,26.79
48517211,1938,1,183573,231707,0.27,-0.61,9.88,-0.02,-0.03,-0.01,26.79
48557198,1918,1,183571,232030,0.79,-1.17,9.99,-0.04,-0.02,-0.02,26.79
48597194,1920,1,183594,232575,1.13,-1.06,9.18,0.00,-0.07,-0.08,26.79
48638176,1904,1,183860,232753,0.08,-1.29,9.15,0.01,-0.04,-0.03,26.79
48678176,1899,1,183948,232774,0.08,-0.86,9.49,-0.01,-0.01,-0.01,26.79
48718195,1894,1,183570,231100,0.20,-1.01,10.79,0.02,0.00,-0.01,26.79
48758165,1886,1,182908,230270,0.56,-1.49,10.11,-0.01,-0.03,-0.01,26.79
48798198,1887,1,182533,228723,0.18,-0.21,9.20,-0.01,-0.01,-0.02,26.79
48838193,1894,1,182366,228783,-0.05,-1.94,10.42,-0.04,0.02,-0.01,26.79
48878198,1887,1,182324,228063,0.62,-0.41,9.92,-0.03,-0.01,-0.02,26.79
48916193,1895,1,182059,227702,0.22,-1.31,9.76,-0.05,0.01,-0.02,26.79
48956178,1904,1,181948,227570,0.46,-1.19,9.53,-0.05,-0.03,-0.02,26.79
48996194,1871,1,182392,228907,0.19,-1.51,9.87,-0.03,0.00,-0.02,26.79
49036176,1869,1,182713,229672,0.64,-0.71,9.81,-0.06,-0.04,-0.00,26.79
49076193,1841,1,183087,230382,0.08,-1.28,10.36,-0.02,0.01,-0.02,26.79
49116178,1860,1,183359,231115,0.34,-1.18,9.91,-0.06,-0.02,-0.01,26.79
49156194,1840,1,183657,232257,-0.11,-0.70,10.20,-0.04,0.01,-0.02,26.79
49196195,1845,1,183997,233262,0.62,-1.35,10.72,-0.05,-0.01,-0.00,26.79
49236193,1845,1,184262,233901,0.61,-1.02,10.29,-0.04,-0.03,-0.03,26.79
49276198,1847,1,184335,233909,0.01,-0.81,9.13,-0.07,-0.00,-0.01,26.79
49316880,1866,1,184327,233839,0.17,-0.91,10.46,-0.04,0.03,-0.02,26.71
49357176,1872,1,184269,233359,0.17,-1.78,10.09,-0.06,0.01,-0.02,26.71
49397176,1872,1,184028,232797,0.47,-0.94,9.69,-0.04,-0.03,-0.03,26.71
49437240,1856,1,183971,232347,-0.49,-0.97,9.76,-0.06,0.05,-0.02,26.71
49477193,1879,1,183420,230704,0.24,-1.48,9.35,-0.09,0.03,-0.02,26.71
49517178,1869,1,182906,229164,0.48,-1.41,9.92,-0.03,-0.02,-0.16,26.71
49557194,1902,1,182346,228478,0.10,-1.85,9.07,-0.07,-0.00,-0.18,26.71
49597195,1883,1,182314,227720,-0.15,-1.27,9.34,-0.05,0.03,-0.28,26.71
49637234,1888,1,181721,226461,-0.51,-1.70,9.89,-0.07,0.06,-0.21,26.71
49677198,1857,1,181576,226189,0.27,-1.98,10.41,-0.04,0.01,-0.28,26.71
49717176,1855,1,181323,225948,-0.57,-1.60,8.88,-0.07,-0.01,-0.08,26.71
49757211,1839,1,181536,226442,-0.21,-1.10,9.73,-0.04,0.01,-0.12,26.71
49797194,1831,1,181795,227353,-0.04,-1.65,10.12,-0.03,0.01,-0.09,26.71
49837198,1817,1,182114,228023,-0.23,-0.90,9.53,-0.03,-0.03,-0.06,26.71
49877212,1821,1,182383,228394,-0.40,-1.24,10.29,-0.03,0.02,-0.04,26.71
49917198,1825,1,182481,229305,0.08,-1.11,10.25,-0.08,0.03,0.09,26.71
49957165,1841,1,182700,229535,-0.18,-1.50,10.44,-0.04,-0.00,-0.04,26.71
49997211,1870,1,182704,229873,-0.30,-1.52,9.98,-0.05,-0.01,-0.04,26.71
50037211,1874,1,183073,230626,-0.52,-1.34,10.49,-0.04,0.01,-0.06,26.71
50077199,1873,1,183356,231705,-0.01,-1.44,10.17,-0.03,0.01,-0.06,26.71
50117194,1895,1,183550,231737,-0.07,-0.96,10.22,-0.04,-0.02,-0.07,26.71
50157211,1901,1,183383,231176,-0.29,-1.44,10.11,-0.03,-0.01,-0.05,26.71
50197211,1921,1,182807,228521,-0.09,-1.67,9.76,-0.04,-0.01,-0.06,26.71
50237211,1910,1,181927,226561,-0.35,-0.90,10.25,-0.01,0.01,-0.06,26.71
50277193,1858,1,181524,226195,-0.43,-1.13,9.95,-0.02,0.01,-0.06,26.71
50317884,1856,1,181406,225719,-0.13,-1.14,9.18,-0.03,-0.02,-0.06,26.79
50356229,1859,1,181357,226590,0.05,-1.14,10.13,-0.01,-0.02,-0.06,26.79
50396198,1866,1,182012,228265,0.23,-0.94,10.20,-0.02,-0.02,-0.06,26.79
50436193,1873,1,182744,229973,-0.17,-1.65,10.46,-0.03,-0.00,-0.06,26.79
50476212,1872,1,183412,231315,0.29,-2.32,10.35,-0.03,-0.04,-0.06,26.79
50516194,1866,1,183657,231104,0.38,-1.67,10.27,-0.04,-0.06,-0.07,26.79
50556198,1858,1,183429,230033,0.20,-1.70,10.10,-0.03,-0.03,-0.06,26.79
50596193,1877,1,182995,228188,0.32,-0.89,9.83,-0.05,-0.04,-0.07,26.79
50636195,1887,1,182097,226462,0.35,-1.19,10.04,-0.03,-0.02,-0.07,26.79
50676193,1904,1,181661,225852,0.17,-1.38,9.34,-0.05,-0.02,-0.06,26.79
50716198,1904,1,181442,226006,0.40,-1.74,9.47,-0.04,-0.06,-0.06,26.79
50756193,1935,1,181855,227153,-0.14,-1.31,9.00,-0.04,-0.03,-0.06,26.79
50796210,1946,1,182206,228402,0.55,-1.15,9.94,-0.03,-0.05,-0.06,26.79
50836194,1951,1,182750,228497,0.45,-1.45,9.82,-0.03,0.03,-0.07,26.79
50876178,1946,1,182148,226654,0.38,-1.12,9.74,-0.05,-0.01,-0.06,26.79
50916194,1936,1,181948,226528,0.42,-1.91,10.25,-0.01,0.06,-0.08,26.79
50956178,1930,1,181656,227026,0.78,-1.29,9.42,-0.04,-0.11,-0.06,26.79
50996194,1920,1,182279,227626,-0.15,-1.46,9.92,-0.04,0.05,-0.10,26.79
51036198,1936,1,182392,228500,0.82,-1.06,9.98,0.00,-0.06,-0.09,26.79
51076182,1917,1,182894,229897,0.52,-1.03,10.44,-0.00,-0.01,-0.05,26.79
51116199,1920,1,183189,230372,0.22,-1.40,9.54,-0.03,-0.06,-0.01,26.79
51156194,1939,1,183285,230726,0.70,-0.87,9.96,-0.04,-0.04,0.03,26.79
51196176,1931,1,183386,230678,0.54,-0.91,9.56,-0.03,-0.06,0.04,26.79
51236176,1891,1,183510,230703,0.70,-0.61,10.41,0.01,0.02,-0.01,26.79
51276171,1925,1,183366,230624,0.61,-0.60,10.25,-0.01,0.02,0.09,26.79
51316165,1883,1,183765,231474,0.71,-1.13,10.49,-0.02,-0.01,0.02,26.79
51356865,1914,1,183731,231601,0.76,-0.86,9.69,0.01,-0.04,0.04,26.73
51395165,1904,1,183893,231288,0.93,-1.51,9.97,-0.01,-0.04,0.02,26.73
51435178,1945,1,183085,229576,1.13,-0.53,9.24,-0.00,-0.10,0.11,26.73
51475176,1886,1,182990,229158,0.96,-0.84,10.26,0.00,-0.01,0.02,26.73
51515166,1869,1,182494,228760,0.82,-0.53,9.40,0.02,-0.07,0.06,26.73
51555165,1810,1,182898,229275,0.74,-1.09,10.23,0.02,0.03,0.00,26.73
51595146,1872,1,182232,227358,0.49,-0.38,8.91,-0.00,-0.10,-0.01,26.73
51635193,1843,1,182627,229771,0.95,-0.79,11.00,0.02,0.04,-0.01,26.73
51675165,1866,1,183187,230327,0.86,-0.04,9.81,-0.01,-0.11,-0.00,26.73
51715193,1815,1,183705,232729,0.65,-0.72,10.77,0.01,-0.02,0.00,26.73
51755165,1840,1,184126,232285,1.06,-0.46,9.96,-0.01,-0.11,0.00,26.73
51795176,1835,1,183834,232513,0.96,-1.78,10.05,-0.02,-0.04,0.13,26.73
51835178,1872,1,183471,229734,1.18,-0.37,8.78,-0.07,-0.08,-0.00,26.73
51875194,1874,1,182719,228801,1.37,-0.69,11.57,0.01,-0.02,0.13,26.73
51915169,1904,1,182316,227563,0.97,0.05,9.59,0.01,-0.06,-0.03,26.73
51955165,1888,1,182278,228665,1.11,-0.15,10.94,0.09,0.02,-0.04,26.73
51995169,1904,1,182409,227487,1.49,-0.10,9.08,0.04,-0.13,-0.14,26.73
52035176,1871,1,181967,228020,1.17,-0.79,9.68,0.05,-0.02,0.02,26.73
52075165,1917,1,182096,227598,0.80,-0.41,8.14,-0.04,-0.07,0.06,26.73
52115176,1910,1,182219,228918,1.45,-0.32,10.76,0.01,-0.01,0.06,26.73
52155169,1927,1,182467,228706,1.35,-0.75,9.17,-0.06,-0.07,0.09,26.73
52195176,1926,1,182291,229023,0.94,-0.21,9.93,-0.01,-0.01,0.24,26.73
52235178,1907,1,182325,228533,1.02,-0.40,9.30,-0.03,0.00,0.17,26.73
52275165,1958,1,181716,227743,1.32,-0.32,9.81,0.01,-0.02,0.22,26.73
52315169,1917,1,181764,227042,1.27,-0.22,8.86,-0.08,0.01,0.03,26.73
52355165,1926,1,181404,227381,1.55,0.14,9.86,-0.01,-0.04,0.01,26.73
52395852,1902,1,181996,227206,1.55,-0.62,10.04,-0.07,0.02,0.01,26.67
52434164,1893,1,181522,227545,1.05,-1.01,10.32,-0.01,-0.04,0.04,26.67
52474178,1904,1,182108,227689,1.08,-1.08,9.42,-0.08,0.00,-0.01,26.67
52514176,1908,1,182173,229875,1.06,-0.44,10.46,-0.01,-0.00,0.00,26.67
52554178,1959,1,182983,229952,1.45,-0.70,8.66,-0.04,-0.01,-0.15,26.67
52594194,1927,1,183090,230294,1.07,-0.40,10.02,-0.06,0.03,0.03,26.67
52634165,1947,1,183079,229117,1.06,-0.33,9.01,-0.07,0.04,0.04,26.67
52674165,1919,1,182765,229544,0.96,-0.50,10.56,-0.02,0.02,0.04,26.67
52714193,1955,1,182962,229395,1.01,-0.88,9.81,-0.04,0.02,0.04,26.67
52754164,1933,1,182863,229933,1.22,-0.83,10.06,-0.01,-0.04,0.04,26.67
52794178,1881,1,183028,230151,1.20,-1.32,9.38,-0.04,-0.01,0.04,26.67
52834176,1855,1,182874,230125,1.39,-0.66,9.47,-0.03,-0.07,0.06,26.67
52874178,1846,1,183175,231017,0.77,-0.82,9.94,-0.07,0.05,0.04,26.67
52914169,1817,1,183426,231377,1.03,0.08,10.00,-0.03,0.02,0.04,26.67
52954147,1838,1,183854,232636,0.99,-0.80,11.48,-0.01,0.05,0.04,26.67
52994165,1876,1,183568,231213,1.02,-0.57,9.54,-0.09,-0.03,0.07,26.67
53034176,1797,1,183450,231722,1.37,-1.30,10.30,-0.03,-0.03,0.04,26.67
53074176,1862,1,183474,231161,1.10,-0.80,9.23,-0.08,-0.04,0.04,26.67
53114176,1818,1,183535,231750,1.11,-0.74,10.76,-0.00,0.01,0.04,26.67
53154165,1865,1,183454,230526,0.86,-0.38,9.43,-0.05,-0.00,0.04,26.67
53194176,1840,1,183233,230892,0.66,-1.02,11.09,0.03,0.01,0.06,26.67
53234144,1901,1,183369,230344,0.97,-0.26,10.09,-0.06,0.05,0.03,26.67
53274166,1840,1,183190,230211,0.78,-1.15,10.57,-0.01,-0.02,0.05,26.67
53314176,1842,1,183220,230329,0.86,-1.81,9.09,-0.11,-0.00,0.04,26.67
53354176,1857,1,183239,230255,0.98,-0.75,9.55,-0.06,-0.00,0.02,26.67
53394176,1875,1,183207,230634,0.83,-1.23,9.30,-0.07,-0.01,0.06,26.67
53434864,1851,1,183548,231746,0.76,-0.54,9.51,-0.05,-0.00,-0.02,26.73
53473192,1866,1,184046,232514,0.93,-0.90,9.61,-0.07,-0.01,-0.04,26.73
53513195,1872,1,184085,232464,1.13,-1.07,9.80,-0.04,-0.02,-0.02,26.73
53553193,1863,1,184035,232398,1.07,-1.09,9.86,-0.03,-0.02,0.02,26.73
53593176,1871,1,183774,231655,0.71,-1.41,9.38,-0.06,-0.02,0.02,26.73
53633176,1876,1,183454,230708,1.00,-1.20,10.61,-0.01,-0.02,0.04,26.73
53673178,1907,1,182934,229639,0.72,-0.99,9.62,-0.07,0.01,0.03,26.73
53713165,1957,1,182854,230455,0.55,-1.32,10.27,-0.06,0.00,0.09,26.73
53753165,2000,1,183164,230214,1.16,-0.45,10.72,-0.03,-0.01,0.01,26.73
53793176,2118,1,182680,229496,1.13,-0.54,9.74,-0.07,-0.01,0.21,26.73
53833178,1995,1,182442,228769,0.39,-1.39,9.32,-0.07,0.03,0.15,26.73
53873165,1947,1,182442,229207,0.70,-0.96,10.34,-0.01,0.00,0.04,26.73
53913165,1878,1,182569,229609,0.91,-0.49,9.41,-0.03,0.00,0.02,26.73
53953165,1858,1,183000,231050,0.53,-1.41,10.27,-0.02,0.01,0.06,26.73
53993169,1851,1,183393,230829,0.78,-0.92,10.00,-0.02,-0.00,0.02,26.73
54033176,1845,1,183231,231792,0.66,-1.48,10.36,-0.07,-0.01,0.25,26.73
54073178,1824,1,183502,230955,0.45,-1.01,9.18,-0.03,-0.01,0.02,26.73
54113176,1859,1,183352,233164,0.67,-1.42,10.75,-0.03,-0.01,0.20,26.73
54153178,1763,1,184237,232253,0.92,-0.52,9.43,-0.05,0.02,0.01,26.73
54193165,1877,1,183677,233540,0.64,-0.95,10.60,0.03,-0.06,0.02,26.73
54233166,1805,1,184364,233676,0.66,-1.14,9.77,-0.06,0.04,0.01,26.73
54273165,1895,1,184377,234025,0.73,-1.11,11.27,0.02,-0.04,0.00,26.73
54313165,1891,1,184122,233828,0.95,-1.39,9.79,-0.02,-0.04,0.01,26.73
54353182,1873,1,183974,231968,0.45,-1.23,9.28,-0.03,-0.04,0.01,26.73
54393178,1887,1,183259,230990,0.50,-0.72,10.00,-0.03,-0.00,0.01,26.73
54433176,1893,1,183280,231728,0.79,-0.66,10.50,-0.02,-0.02,0.01,26.73
54473862,1886,1,183772,232668,0.41,-0.79,9.44,-0.05,0.01,0.01,26.67
54514165,1936,1,183846,231981,0.82,-0.79,9.94,-0.02,-0.04,0.01,26.67
54552218,1916,1,183230,230987,1.10,-0.48,9.43,-0.03,-0.05,0.00,26.67
54592176,1885,1,183033,231412,0.75,-1.00,8.54,-0.06,-0.00,-0.02,26.67
54632195,1919,1,183614,232347,0.96,-0.75,9.31,-0.04,0.01,-0.09,26.67
54672176,1925,1,184098,232599,0.68,-0.77,10.01,-0.03,-0.00,-0.01,26.67
54712195,1907,1,183967,232867,0.67,-0.79,10.01,-0.02,-0.02,0.01,26.67
54752176,1877,1,184190,232213,0.49,-0.90,10.07,-0.02,-0.00,0.01,26.67
54792176,1866,1,183548,232528,0.50,-0.90,10.46,-0.02,-0.02,0.13,26.67
54832176,1847,1,184288,233723,0.80,-0.99,9.86,-0.04,0.02,0.00,26.67
54872165,1893,1,184805,234822,0.38,-1.19,10.24,-0.02,-0.02,0.00,26.67
54912176,1872,1,184842,234951,0.97,-0.74,9.78,-0.03,-0.02,0.01,26.67
54952178,1883,1,184739,234534,0.57,-0.79,10.28,-0.02,-0.03,0.01,26.67
54992178,1894,1,184294,233829,1.15,-0.72,9.94,-0.03,-0.03,0.00,26.67
55032178,1878,1,184119,232719,0.40,-0.05,9.40,-0.04,0.02,-0.01,26.67
55072176,1902,1,183619,231589,0.38,-0.59,10.28,-0.02,0.03,0.01,26.67
55112169,1891,1,182848,230779,0.79,-0.39,9.53,-0.03,-0.03,0.01,26.67
55152176,1872,1,183255,231588,0.56,-0.71,10.23,-0.04,0.03,0.01,26.67
55192169,1867,1,183146,230698,0.60,-0.58,9.50,-0.03,-0.02,0.01,26.67
55232176,1860,1,183237,232141,0.41,-1.55,10.87,-0.03,0.01,0.11,26.67
55272169,1857,1,183709,232117,0.26,-0.50,9.80,-0.03,-0.02,0.01,26.67
55312176,1869,1,183863,233107,0.74,-0.36,10.76,0.00,-0.01,0.01,26.67
55352166,1877,1,184217,233596,0.37,-0.73,9.81,-0.06,0.00,0.01,26.67
55392165,1870,1,184392,234323,0.79,-0.94,10.75,-0.01,-0.04,0.01,26.67
55432178,1853,1,184306,233307,0.60,-0.38,9.45,-0.05,-0.04,0.01,26.67
55472176,1858,1,184183,233114,0.42,-0.69,10.34,-0.03,0.00,0.01,26.67
55512851,1867,1,183690,232016,0.52,-0.34,9.69,-0.05,-0.01,0.01,26.59
55553176,1865,1,183237,230991,0.70,-0.52,9.73,-0.04,-0.01,0.01,26.59
55593176,1883,1,182981,231299,0.31,-0.75,9.80,-0.04,0.01,0.01,26.59
55633165,1888,1,183027,230025,0.66,-0.73,9.33,-0.05,-0.00,0.01,26.59
55673176,1903,1,182551,230170,0.72,-1.05,10.56,0.01,-0.01,0.01,26.59
55713165,1885,1,182258,229457,0.50,-0.87,8.60,-0.05,-0.05,0.07,26.59
55753176,1891,1,182583,229664,0.68,-0.68,10.28,-0.01,0.00,-0.03,26.59
55793181,1904,1,181767,227236,0.71,-0.81,9.53,-0.02,-0.05,0.01,26.59
55831178,1906,1,181405,227715,0.65,-0.71,10.24,-0.01,-0.02,0.02,26.59
55871176,1921,1,181382,227431,0.57,-0.51,9.26,-0.04,-0.05,0.01,26.59
55911178,1919,1,181645,228026,1.07,-0.29,10.44,-0.01,-0.01,0.01,26.59
55951176,1917,1,181795,228323,0.83,-0.22,10.04,-0.03,-0.02,0.01,26.59
55991209,1901,1,181997,228902,0.65,-0.45,9.74,-0.03,-0.04,0.04,26.59
56031176,1911,1,182210,228984,0.70,-0.22,10.24,-0.03,-0.03,0.05,26.59
56071176,1900,1,182021,228701,1.00,-0.88,10.45,-0.00,-0.04,0.03,26.59
56111176,1919,1,181847,228353,0.93,-0.66,9.50,-0.03,-0.04,0.08,26.59
56151176,1906,1,181767,227653,0.71,-0.53,10.24,0.01,-0.02,0.07,26.59
56191170,1891,1,181701,228379,1.36,-0.60,10.99,0.06,-0.03,0.04,26.59
56231169,1899,1,181717,228348,0.88,-0.53,9.40,-0.05,-0.03,0.02,26.59
56271176,1898,1,182051,229629,0.80,-0.49,9.36,-0.02,-0.01,0.01,26.59
56311176,1894,1,182502,230761,0.99,-0.86,9.08,-0.03,-0.04,0.01,26.59
56351176,1891,1,183157,232221,0.92,-0.59,9.31,-0.02,-0.02,-0.05,26.59
56391195,1902,1,183596,232274,1.06,-0.77,9.41,-0.02,-0.01,-0.01,26.59
56431194,1905,1,183811,233308,0.45,-1.19,9.90,0.00,-0.01,-0.03,26.59
56471176,1926,1,183956,232838,0.55,-0.57,10.28,0.01,-0.00,-0.16,26.59
56511176,1917,1,184160,233694,0.38,-0.45,10.79,0.00,0.03,-0.02,26.59
56551852,1906,1,184541,234737,0.84,-0.11,10.64,-0.02,-0.03,0.02,26.55
56592176,1895,1,184991,235290,0.70,-0.69,10.78,-0.02,0.02,0.02,26.55
56631165,1901,1,184990,235222,0.62,-0.32,9.96,-0.04,-0.03,0.02,26.55
56671176,1889,1,185150,235232,0.61,-0.83,10.78,-0.03,0.01,0.03,26.55
56711169,1873,1,184993,235176,0.84,-1.21,10.14,-0.05,-0.05,0.02,26.55
56751178,1872,1,184607,233972,1.01,-0.32,9.55,-0.04,-0.04,0.00,26.55
56791176,1872,1,184174,233574,0.63,-0.97,9.36,-0.04,-0.05,0.03,26.55
56831176,1879,1,184042,233198,1.02,-0.39,9.67,-0.06,-0.03,0.02,26.55
56871178,1874,1,183934,232783,0.51,-0.26,9.33,-0.03,0.04,-0.01,26.55
56911176,1872,1,183759,232973,1.03,0.04,9.36,-0.03,0.00,0.02,26.55
56951146,1855,1,184089,233348,0.87,-0.74,10.33,-0.04,0.04,0.02,26.55
56991165,1872,1,183779,233284,0.96,-0.73,8.93,-0.06,-0.08,0.02,26.55
57031176,1863,1,184223,233866,0.70,-1.36,10.31,-0.03,0.03,0.02,26.55
57071165,1905,1,184005,233345,0.85,-0.50,9.31,-0.05,-0.05,0.01,26.55
57111176,1882,1,184042,231966,0.43,-1.58,10.80,-0.03,0.07,-0.03,26.55
57151176,1906,1,182993,230399,0.62,-0.28,9.38,-0.04,-0.02,0.01,26.55
57191176,1904,1,183159,230877,0.53,-0.76,10.82,-0.02,0.06,0.01,26.55
57231165,1920,1,183039,231134,0.79,-0.21,9.66,-0.06,-0.05,-0.00,26.55
57271198,1895,1,183412,231481,1.24,-0.65,10.30,-0.02,-0.01,-0.01,26.55
57311194,1915,1,183412,232186,0.92,-1.40,9.70,-0.04,-0.03,0.03,26.55
57351176,1907,1,183937,233596,1.12,-1.38,9.62,-0.01,-0.08,0.03,26.55
57391176,1889,1,184341,233789,0.50,-0.72,9.99,-0.03,-0.00,0.03,26.55
57431176,1872,1,184347,233763,0.97,-0.56,10.01,-0.02,-0.00,0.02,26.55
57471176,1873,1,184560,233839,0.45,-0.06,9.95,-0.03,0.03,0.02,26.55
57511165,1879,1,184377,234543,1.08,-0.50,9.90,-0.03,-0.02,0.02,26.55
57551176,1872,1,184737,235143,0.92,-0.33,10.06,-0.01,-0.02,0.02,26.55
57591862,1875,1,184770,235578,1.18,-0.46,9.67,-0.03,-0.06,0.02,26.61
57631178,1868,1,184963,235435,0.92,-1.35,9.91,-0.03,-0.01,0.02,26.61
57671178,1885,1,184723,235117,1.17,-0.52,9.50,-0.02,-0.04,0.02,26.61
57711176,1840,1,185067,235803,0.28,-1.27,10.07,-0.03,0.04,0.03,26.61
57751165,1885,1,185208,236159,0.72,-0.42,10.24,-0.03,-0.02,0.02,26.61
57791176,1839,1,185218,235663,0.94,-0.77,10.97,-0.01,-0.00,0.03,26.61
57831199,1869,1,184978,235011,0.85,-0.86,10.07,-0.05,-0.02,0.02,26.61
57871176,1870,1,184780,234330,1.07,-0.62,10.01,-0.03,-0.03,0.02,26.61
57911176,1840,1,184730,233568,0.98,-0.85,9.87,-0.04,-0.01,0.02,26.61
57951176,1839,1,184446,233473,1.23,-1.25,9.90,0.00,-0.02,-0.02,26.61
57991176,1837,1,184319,233779,0.91,-0.88,8.67,-0.04,-0.06,-0.00,26.61
58031207,1840,1,184787,234587,0.85,-1.19,10.36,-0.02,-0.01,-0.00,26.61
58071198,1879,1,184697,234697,0.71,-0.82,9.50,-0.02,-0.05,0.03,26.61
58111176,1862,1,184755,234635,1.29,-0.76,10.48,-0.02,-0.02,0.03,26.61
58151178,1874,1,184869,235126,1.00,-1.30,10.09,-0.04,-0.00,0.02,26.61
58191176,1872,1,184849,234722,1.36,-0.38,9.66,-0.05,-0.01,-0.01,26.61
58231198,1877,1,184840,235654,1.15,-0.91,10.12,-0.04,0.01,0.02,26.61
58271164,1901,1,185096,235659,0.95,-1.18,9.38,-0.05,-0.02,-0.04,26.61
58311198,1904,1,185090,235373,0.77,-0.57,9.28,-0.03,0.02,0.00,26.61
58351165,1913,1,184937,234987,0.87,-0.76,9.58,-0.02,0.01,0.02,26.61
58391165,1904,1,184761,235000,1.02,-1.34,10.43,-0.02,0.00,-0.01,26.61
58431176,1918,1,184455,233558,1.02,-0.30,8.70,-0.05,-0.02,-0.04,26.61
58471195,1904,1,184081,233015,1.13,-0.80,11.06,0.00,0.03,0.02,26.61
58509143,1927,1,183809,232185,0.83,-0.52,8.92,-0.08,-0.02,0.02,26.61
58549176,1913,1,183565,231625,1.37,-0.90,9.88,-0.04,0.01,0.02,26.61
58589165,1875,1,183441,231141,0.72,-1.12,9.04,-0.07,0.06,0.02,26.61
58629851,1878,1,183404,231200,0.91,-1.08,9.54,-0.05,0.02,0.01,26.61
58669164,1872,1,183613,231263,0.69,-1.41,10.01,-0.04,0.04,0.01,26.61
58709169,1917,1,183354,231294,0.87,-1.69,9.95,-0.04,-0.01,0.02,26.61
58749176,1859,1,183279,230677,0.79,-0.55,9.38,-0.04,-0.01,-0.05,26.61
58789198,1862,1,183234,231135,0.44,-1.06,10.58,-0.04,0.04,0.01,26.61
58829164,1885,1,183599,232101,0.84,-1.55,10.14,-0.06,0.02,-0.00,26.61
58869178,1894,1,183870,232506,0.40,-0.82,10.22,-0.06,0.02,0.01,26.61
58909165,1863,1,183965,232756,1.13,-1.02,9.89,-0.05,0.00,0.01,26.61
58949166,1863,1,184095,233958,0.48,-1.55,10.11,-0.06,0.03,0.03,26.61
58989164,1847,1,184437,233359,0.74,-0.50,9.50,-0.07,0.02,-0.01,26.61
59029176,1897,1,184197,234017,0.55,-1.24,10.43,-0.02,0.03,0.01,26.61
59069164,1821,1,184392,233131,0.75,-1.93,9.33,-0.08,0.02,0.01,26.61
59109165,1880,1,183543,231014,0.35,-1.39,9.93,-0.04,0.02,0.02,26.61
59149165,1771,1,183229,230019,0.71,-1.16,10.39,-0.03,0.05,-0.03,26.61
59189178,1918,1,182772,230250,0.03,-1.61,10.15,-0.06,0.04,0.01,26.61
59229165,1808,1,183159,230820,0.95,-1.28,9.86,-0.04,0.01,-0.12,26.61
59269182,1904,1,183434,231691,0.44,-1.57,10.14,-0.05,0.03,-0.07,26.61
59309176,1867,1,184089,233710,1.01,-1.41,10.50,-0.01,-0.00,-0.12,26.61
59349198,1886,1,184590,233908,0.19,-1.85,9.32,-0.09,0.00,-0.11,26.61
59389176,1877,1,184840,234239,0.78,-1.28,10.60,0.01,-0.01,-0.13,26.61
59429178,1871,1,184607,233100,0.23,-1.97,9.73,-0.07,-0.01,-0.05,26.61
59469222,1874,1,184191,233180,0.89,-1.13,10.05,-0.02,-0.02,-0.02,26.61
59509198,1857,1,184320,232644,0.40,-1.12,10.34,-0.05,0.05,-0.01,26.61
59549176,1911,1,184152,233488,0.66,-1.70,10.60,-0.02,-0.00,0.01,26.61
59589178,1904,1,184167,232977,0.84,-0.91,9.65,-0.03,-0.04,0.00,26.61
59629862,1904,1,184059,233123,0.34,-1.23,10.18,-0.02,-0.01,0.15,26.55
59670178,1904,1,183712,232182,0.96,-1.13,9.53,-0.02,-0.04,0.10,26.55
59710176,1909,1,183202,231766,0.59,-1.36,9.53,-0.03,-0.01,0.08,26.55
59750178,1904,1,183244,230965,0.94,-1.40,9.32,-0.04,-0.01,-0.02,26.55
59790194,1920,1,182569,230070,1.00,-1.72,9.84,-0.05,-0.03,-0.03,26.55
59830198,1895,1,182847,230765,0.77,-0.90,10.40,-0.03,-0.00,-0.03,26.55
59870193,1927,1,182983,231488,0.74,-1.08,10.48,-0.05,-0.02,-0.02,26.55
59910198,1884,1,183577,232667,0.51,-1.43,10.16,-0.02,-0.02,-0.02,26.55
59950194,1888,1,183726,232881,0.75,-0.85,10.60,-0.02,-0.05,-0.02,26.55
59988195,1877,1,183992,233272,0.48,-1.24,10.16,-0.02,-0.03,-0.02,26.55
60028198,1915,1,183749,231950,0.68,-1.37,9.56,-0.04,-0.07,-0.02,26.55
60068198,1894,1,183734,232221,0.37,-2.43,9.71,-0.02,-0.01,-0.02,26.55
60108193,1889,1,183143,229968,1.01,-1.07,8.76,-0.04,-0.08,-0.03,26.55
60148227,1861,1,183166,231375,0.45,-2.21,10.18,-0.00,-0.00,-0.03,26.55
60188193,1908,1,183162,230467,0.70,-0.97,8.77,-0.05,-0.06,-0.03,26.55
60228194,1886,1,183041,230817,0.44,-1.50,9.94,-0.01,-0.03,-0.03,26.55
60268194,1909,1,183348,231530,0.12,-1.62,9.20,-0.03,-0.02,-0.03,26.55
60308213,1882,1,183301,231117,0.89,-1.49,9.77,-0.03,-0.00,-0.03,26.55
60348194,1877,1,183051,231094,0.76,-1.43,9.82,-0.02,-0.01,-0.03,26.55
60388198,1890,1,182894,230496,0.85,-0.61,9.95,-0.03,-0.02,-0.03,26.55
60428194,1882,1,182864,230979,0.39,-1.52,9.78,-0.03,0.02,-0.03,26.55
60468178,1893,1,182700,230079,1.12,-1.33,9.90,-0.03,-0.01,-0.03,26.55
60508198,1859,1,182558,230296,0.87,-1.30,9.97,-0.04,0.02,-0.03,26.55
60548178,1859,1,182087,228311,1.31,-0.74,9.63,-0.02,-0.03,-0.03,26.55
60588194,1856,1,181844,228636,0.80,-1.04,9.98,-0.03,0.03,0.01,26.55
60628165,1886,1,181598,228316,1.14,-1.40,8.87,-0.03,-0.03,-0.02,26.55
60668880,1873,1,182280,229659,1.07,-1.57,10.23,-0.02,0.02,-0.03,26.53
60709178,1871,1,182492,230208,0.12,-2.15,9.63,-0.03,0.01,-0.02,26.53
60749176,1889,1,182865,231056,0.37,-1.60,9.88,-0.01,-0.03,-0.02,26.53
60789198,1877,1,183148,231600,0.36,-1.76,10.17,-0.03,0.01,-0.02,26.53
60829176,1887,1,183024,230161,0.85,-0.84,9.96,-0.04,0.01,-0.03,26.53
60869178,1879,1,183027,231584,0.23,-0.94,11.07,-0.02,0.04,-0.03,26.53
60909176,1895,1,183160,231184,0.80,-1.28,9.80,-0.06,-0.02,-0.03,26.53
60949198,1889,1,182977,230483,0.89,-1.30,9.71,-0.05,-0.01,-0.03,26.53
60989193,1904,1,182151,229236,1.15,-0.94,9.57,-0.05,-0.03,-0.02,26.53
61029195,1887,1,182240,229860,0.46,-1.50,9.34,-0.06,-0.01,-0.02,26.53
61069193,1902,1,182360,230569,1.34,-1.62,10.03,-0.06,-0.03,-0.03,26.53
61109200,1874,1,183083,231223,0.53,-1.69,9.79,-0.06,-0.02,-0.02,26.53
61149194,1888,1,183074,231293,0.67,-1.94,9.90,-0.03,-0.03,-0.02,26.53
61189198,1883,1,182513,228877,0.95,-1.92,9.35,-0.06,-0.03,-0.02,26.53
61229194,1874,1,182061,228274,0.13,-1.54,9.95,-0.03,0.02,-0.02,26.53
61269177,1900,1,181542,226986,0.88,-0.95,9.62,-0.04,0.01,-0.03,26.53
61309178,1878,1,181246,226558,0.40,-1.47,10.10,-0.03,0.05,-0.04,26.53
61349176,1879,1,181050,226033,1.28,-0.63,9.82,-0.02,-0.02,-0.06,26.53
61389194,1875,1,181174,227073,0.51,-1.70,10.24,-0.02,0.03,-0.03,26.53
61429178,1896,1,181205,226414,0.67,-1.34,9.29,-0.03,-0.02,-0.03,26.53
61469194,1889,1,181255,227510,0.51,-1.94,10.35,-0.00,0.01,-0.02,26.53
61509178,1893,1,181430,227559,0.61,-1.80,8.35,-0.03,-0.03,-0.02,26.53
61549193,1904,1,181622,227601,0.17,-1.07,10.24,-0.00,0.03,-0.02,26.53
61587178,1909,1,181682,228563,0.29,-1.26,9.90,0.00,0.02,-0.02,26.53
61627164,1911,1,182388,230651,0.74,-1.41,10.52,-0.03,0.03,-0.03,26.53
61667178,1916,1,183218,232832,0.95,-1.33,9.98,-0.04,-0.05,-0.02,26.53
