timestamp_us,ecg,leads,ir,red,accX,accY,accZ,gyroX,gyroY,gyroZ,temp
1917486,1978,1,175688,206000,0.00,0.00,0.00,0.00,0.00,0.00,0.00
1947951,1995,1,175665,205970,0.11,-0.38,9.72,-0.09,-0.06,-0.01,31.25
1988198,1967,1,175657,206164,0.13,-0.42,9.98,-0.08,-0.04,-0.01,31.25
2028194,1983,1,175716,206401,0.15,-0.43,9.97,-0.07,-0.04,-0.01,31.25
2068186,1972,1,175836,206735,0.13,-0.45,10.03,-0.08,-0.06,-0.01,31.25
2108185,1996,1,176042,207335,0.30,-0.40,9.81,-0.07,-0.05,-0.01,31.25
2148185,1956,1,176280,208118,0.18,-0.45,9.99,-0.07,-0.01,-0.01,31.25
2188186,1939,1,176390,207425,0.17,-0.51,9.98,-0.08,-0.02,-0.01,31.25
2228185,1933,1,175853,205692,0.20,-0.51,9.94,-0.06,-0.02,-0.01,31.25
2268185,1923,1,175452,205102,0.17,-0.51,9.96,-0.07,-0.00,-0.01,31.25
2308185,1938,1,175401,204771,0.16,-0.52,10.02,-0.08,0.01,-0.01,31.25
2348170,1946,1,175264,204598,0.15,-0.53,9.96,-0.05,-0.02,-0.01,31.25
2388186,1968,1,175320,204974,0.18,-0.57,9.96,-0.05,-0.01,-0.01,31.25
2428185,1968,1,175535,205545,0.20,-0.58,9.96,-0.05,-0.01,-0.01,31.25
2468185,1993,1,175630,205697,0.17,-0.55,9.95,-0.05,-0.01,-0.01,31.25
2508222,1978,1,175608,205661,0.19,-0.55,9.98,-0.04,-0.01,-0.01,31.25
2548186,1969,1,175637,205719,0.19,-0.57,9.96,-0.04,-0.01,-0.01,31.25
2588185,1955,1,175751,206437,0.17,-0.58,9.94,-0.04,-0.01,-0.00,31.25
2628185,1942,1,176052,207392,0.16,-0.56,9.96,-0.04,-0.01,-0.00,31.25
2668186,1943,1,176406,207924,0.17,-0.57,9.96,-0.04,-0.01,-0.01,31.25
2708197,1936,1,176566,208524,0.19,-0.57,9.97,-0.04,-0.01,-0.00,31.25
2748185,1958,1,176816,209241,0.17,-0.58,9.96,-0.04,-0.01,-0.01,31.25
2788185,1936,1,177007,209443,0.18,-0.57,9.99,-0.04,-0.01,-0.00,31.25
2828185,1925,1,176938,209227,0.17,-0.57,9.95,-0.04,-0.02,-0.00,31.25
2868186,1909,1,176788,207941,0.18,-0.58,9.96,-0.04,-0.02,-0.00,31.25
2908185,1905,1,175960,205488,0.18,-0.60,9.95,-0.04,-0.01,-0.00,31.25
2948185,1895,1,175322,204601,0.20,-0.60,9.95,-0.04,-0.01,-0.01,31.25
2988871,1904,1,175291,204783,0.17,-0.59,9.96,-0.04,-0.01,-0.00,31.41
3027228,1897,1,175461,205187,0.18,-0.58,9.98,-0.04,-0.02,-0.00,31.41
3067185,1897,1,175634,205789,0.20,-0.58,9.96,-0.04,-0.01,-0.01,31.41
3107185,1904,1,175929,206447,0.19,-0.59,9.98,-0.03,-0.01,-0.01,31.41
3147185,1910,1,176005,206352,0.22,-0.57,9.97,-0.03,-0.01,-0.00,31.41
3187186,1916,1,175912,206399,0.19,-0.60,9.95,-0.03,-0.02,-0.01,31.41
3227185,1917,1,175971,206864,0.18,-0.61,9.97,-0.04,-0.01,-0.01,31.41
3267186,1920,1,176280,207596,0.20,-0.58,9.98,-0.04,-0.01,-0.01,31.41
3307186,1917,1,176527,208068,0.18,-0.59,9.99,-0.04,-0.01,-0.01,31.41
3347228,1913,1,176671,208437,0.21,-0.58,9.96,-0.04,-0.01,-0.00,31.41
3387185,1927,1,176763,208958,0.19,-0.57,9.97,-0.03,-0.01,-0.01,31.41
3427186,1922,1,176992,209610,0.19,-0.59,9.96,-0.03,-0.01,-0.00,31.41
3467185,1936,1,177206,210275,0.20,-0.60,9.97,-0.04,-0.01,-0.01,31.41
3507186,1920,1,177441,210641,0.18,-0.60,9.98,-0.03,-0.01,-0.01,31.41
3547185,1923,1,177171,209012,0.19,-0.58,9.97,-0.04,-0.01,-0.01,31.41
3587185,1917,1,176581,207522,0.18,-0.57,9.96,-0.03,-0.01,-0.00,31.41
3627185,1929,1,176296,207223,0.20,-0.58,9.96,-0.04,-0.01,-0.01,31.41
3667185,1923,1,176253,207097,0.21,-0.57,9.95,-0.04,-0.01,-0.01,31.41
3707186,1923,1,176136,206888,0.19,-0.58,9.97,-0.04,-0.02,-0.00,31.41
3747186,1933,1,176176,207330,0.19,-0.60,9.96,-0.04,-0.01,-0.01,31.41
3787185,1934,1,176466,208111,0.20,-0.59,9.97,-0.04,-0.01,-0.01,31.41
3827186,1922,1,176641,208429,0.21,-0.58,9.97,-0.04,-0.01,-0.01,31.41
3867185,1932,1,176680,208432,0.20,-0.61,9.98,-0.03,-0.02,-0.00,31.41
3907186,1926,1,176695,208641,0.21,-0.58,9.96,-0.04,-0.02,-0.01,31.41
3947185,1934,1,176786,208917,0.21,-0.59,9.97,-0.04,-0.01,-0.01,31.41
3987186,1926,1,176861,209211,0.22,-0.58,9.96,-0.03,-0.01,-0.00,31.41
4027911,1914,1,176971,209607,0.22,-0.59,9.96,-0.04,-0.01,-0.00,31.41
4068186,1929,1,177345,211654,0.22,-0.58,9.96,-0.04,-0.01,-0.01,31.41
4108185,1936,1,178481,214601,0.23,-0.60,9.97,-0.05,-0.03,-0.01,31.41
4148197,1926,1,179372,216540,0.24,-0.61,9.97,-0.04,-0.02,-0.01,31.41
4188185,1922,1,179683,216580,0.24,-0.60,9.97,-0.04,-0.02,-0.00,31.41
4228186,1921,1,179032,213216,0.23,-0.60,9.95,-0.04,-0.01,-0.00,31.41
4268185,1921,1,177939,211688,0.23,-0.61,9.95,-0.03,-0.01,-0.01,31.41
4308186,1920,1,177727,211520,0.26,-0.61,9.97,-0.03,-0.01,-0.01,31.41
4348208,1911,1,177681,211405,0.24,-0.60,9.96,-0.03,-0.01,-0.01,31.41
4388185,1933,1,177678,211500,0.26,-0.60,9.97,-0.03,-0.01,-0.00,31.41
4428184,1932,1,177788,212081,0.23,-0.60,9.98,-0.03,-0.01,-0.00,31.41
4468185,1923,1,178093,212923,0.24,-0.61,9.97,-0.03,-0.01,-0.01,31.41
4508185,1927,1,178346,213244,0.24,-0.60,9.98,-0.04,-0.01,-0.01,31.41
4548211,1921,1,178383,213412,0.24,-0.59,9.97,-0.03,-0.01,-0.00,31.41
4588185,1925,1,178525,213830,0.23,-0.60,9.98,-0.03,-0.01,-0.00,31.41
4628186,1927,1,178599,214068,0.24,-0.61,9.98,-0.03,-0.01,-0.01,31.41
4668185,1926,1,178705,214305,0.22,-0.61,9.96,-0.03,-0.01,-0.01,31.41
4708186,1924,1,178752,214657,0.24,-0.59,9.98,-0.04,-0.01,-0.01,31.41
4748185,1922,1,179031,215315,0.22,-0.61,9.96,-0.04,-0.01,-0.00,31.41
4788185,1923,1,179211,215777,0.24,-0.63,9.97,-0.04,-0.01,-0.01,31.41
4828185,1931,1,179296,216131,0.23,-0.60,9.94,-0.03,-0.01,-0.00,31.41
4868185,1930,1,179409,216203,0.23,-0.62,9.98,-0.03,-0.01,-0.00,31.41
4908185,1926,1,179129,214176,0.24,-0.62,9.94,-0.03,-0.02,-0.00,31.41
4948185,1929,1,178141,212181,0.24,-0.61,9.93,-0.04,-0.01,-0.00,31.41
4988185,1921,1,177794,211572,0.22,-0.62,9.96,-0.03,-0.01,-0.00,31.41
5028871,1916,1,177642,211385,0.22,-0.62,9.96,-0.03,-0.01,-0.01,31.39
5067185,1936,1,177573,211217,0.23,-0.60,9.97,-0.03,-0.01,-0.00,31.39
5107185,1931,1,177588,211432,0.25,-0.62,9.98,-0.03,-0.01,-0.00,31.39
5147186,1922,1,177784,212221,0.27,-0.61,10.00,-0.03,-0.01,-0.00,31.39
5187186,1920,1,178045,212705,0.25,-0.63,9.96,-0.03,-0.01,-0.00,31.39
5227186,1925,1,178131,213024,0.25,-0.62,9.96,-0.03,-0.01,-0.00,31.39
5267185,1930,1,178242,213185,0.27,-0.61,9.98,-0.04,-0.01,-0.00,31.39
5307185,1922,1,178291,213330,0.26,-0.59,9.97,-0.03,-0.01,-0.01,31.39
5347186,1920,1,178305,213496,0.23,-0.61,9.98,-0.03,-0.01,-0.00,31.39
5387257,1906,1,178356,213608,0.27,-0.61,9.96,-0.03,-0.01,-0.00,31.39
5427186,1909,1,178389,213874,0.28,-0.61,9.96,-0.03,-0.01,-0.01,31.39
5467185,1921,1,178522,214150,0.22,-0.62,9.95,-0.03,-0.01,-0.00,31.39
5507185,1918,1,178645,214638,0.25,-0.61,9.95,-0.04,-0.01,-0.00,31.39
5547186,1921,1,178762,214797,0.25,-0.61,9.99,-0.03,-0.01,-0.00,31.39
5588186,1916,1,178690,213729,0.22,-0.63,9.98,-0.03,-0.01,-0.00,31.39
5628185,1919,1,177930,211774,0.26,-0.60,9.97,-0.03,-0.01,-0.01,31.39
5668186,1923,1,177503,211086,0.24,-0.61,9.97,-0.03,-0.01,-0.01,31.39
5708185,1926,1,177418,210969,0.25,-0.64,9.94,-0.03,-0.01,-0.01,31.39
5748186,1920,1,177391,210943,0.25,-0.62,9.96,-0.03,-0.01,-0.00,31.39
5788186,1923,1,177463,211331,0.25,-0.61,9.97,-0.03,-0.01,-0.01,31.39
5828186,1926,1,177705,212125,0.24,-0.60,9.99,-0.04,-0.01,-0.00,31.39
5868185,1927,1,177965,212577,0.25,-0.61,9.99,-0.03,-0.01,-0.01,31.39
5908186,1920,1,178000,212827,0.26,-0.62,9.98,-0.03,-0.01,-0.01,31.39
5948185,1925,1,178140,213160,0.24,-0.62,9.96,-0.03,-0.01,-0.01,31.39
5988193,1926,1,178262,213549,0.23,-0.61,9.98,-0.03,-0.01,-0.01,31.39
6028871,1925,1,178394,214069,0.25,-0.62,9.95,-0.03,-0.01,-0.01,31.41
6067186,1904,1,178581,214509,0.23,-0.61,9.98,-0.03,-0.01,-0.01,31.41
6107185,1915,1,178753,215074,0.25,-0.61,9.96,-0.03,-0.01,-0.00,31.41
6147185,1919,1,178999,215669,0.25,-0.64,9.99,-0.03,-0.01,-0.01,31.41
6187191,1915,1,179207,216424,0.23,-0.61,9.96,-0.03,-0.01,-0.00,31.41
6227185,1917,1,179479,216973,0.26,-0.62,9.95,-0.03,-0.01,-0.01,31.41
6267185,1919,1,179462,215407,0.24,-0.61,9.97,-0.03,-0.01,-0.01,31.41
6307186,1907,1,178463,213277,0.26,-0.60,9.95,-0.03,-0.01,-0.00,31.41
6347184,1909,1,178113,213053,0.24,-0.61,9.94,-0.03,-0.01,-0.00,31.41
6387185,1916,1,178146,213090,0.27,-0.62,9.95,-0.03,-0.01,-0.01,31.41
6427185,1915,1,178169,213220,0.23,-0.62,9.97,-0.03,-0.01,-0.00,31.41
6467185,1919,1,178219,213506,0.24,-0.62,9.94,-0.03,-0.01,-0.00,31.41
6507186,1921,1,178488,214439,0.24,-0.62,9.96,-0.03,-0.01,-0.01,31.41
6547186,1919,1,178796,215012,0.25,-0.62,9.94,-0.03,-0.01,-0.01,31.41
6587185,1914,1,178937,215355,0.24,-0.60,9.99,-0.03,-0.01,-0.00,31.41
6627185,1910,1,179032,215621,0.24,-0.61,9.98,-0.03,-0.01,-0.01,31.41
6667185,1915,1,179082,215801,0.26,-0.61,9.99,-0.03,-0.01,-0.00,31.41
6707185,1905,1,179113,215796,0.25,-0.63,9.94,-0.03,-0.01,-0.01,31.41
6747185,1909,1,179209,216082,0.24,-0.60,9.97,-0.03,-0.01,-0.01,31.41
6787185,1905,1,179296,216436,0.25,-0.63,9.93,-0.03,-0.01,-0.01,31.41
6827185,1917,1,179445,216839,0.24,-0.60,9.98,-0.03,-0.01,-0.00,31.41
6867186,1909,1,179557,217108,0.23,-0.61,9.96,-0.03,-0.01,-0.01,31.41
6907185,1911,1,179701,217402,0.23,-0.61,9.97,-0.03,-0.01,-0.00,31.41
6947185,1914,1,179678,216480,0.24,-0.62,9.96,-0.03,-0.01,-0.00,31.41
6987186,1919,1,178735,213640,0.25,-0.64,9.95,-0.03,-0.01,-0.00,31.41
7027194,1920,1,178077,212726,0.24,-0.62,9.96,-0.03,-0.01,-0.00,31.41
7067871,1922,1,178002,212562,0.24,-0.62,9.96,-0.03,-0.01,-0.01,31.25
7108186,1921,1,177954,212382,0.25,-0.62,9.99,-0.03,-0.01,-0.01,31.25
7148185,1919,1,177912,212474,0.23,-0.62,9.94,-0.03,-0.01,-0.00,31.25
7188186,1919,1,178022,213234,0.25,-0.61,9.96,-0.03,-0.01,-0.01,31.25
7228185,1920,1,178386,213939,0.24,-0.62,9.96,-0.03,-0.01,-0.00,31.25
7268186,1910,1,178514,214154,0.24,-0.62,9.96,-0.03,-0.01,-0.00,31.25
7308185,1909,1,178573,214483,0.24,-0.61,9.99,-0.03,-0.01,-0.00,31.25
7348185,1914,1,178712,214822,0.24,-0.62,9.98,-0.03,-0.01,-0.00,31.25
7388185,1909,1,178871,215141,0.25,-0.60,9.96,-0.03,-0.01,-0.01,31.25
7428185,1909,1,178961,215315,0.23,-0.62,9.98,-0.03,-0.01,-0.00,31.25
7468185,1904,1,179013,215562,0.25,-0.62,9.95,-0.03,-0.01,-0.00,31.25
7508185,1890,1,179122,215972,0.26,-0.62,9.93,-0.03,-0.01,-0.00,31.25
7548185,1904,1,179329,216254,0.23,-0.62,9.97,-0.03,-0.01,-0.01,31.25
7588186,1899,1,179309,216467,0.25,-0.61,9.98,-0.03,-0.01,-0.00,31.25
7628185,1906,1,179430,216851,0.26,-0.59,9.96,-0.03,-0.01,-0.01,31.25
7668186,1907,1,179406,215921,0.24,-0.63,9.97,-0.03,-0.01,-0.01,31.25
7708185,1905,1,178565,213211,0.26,-0.63,9.96,-0.03,-0.01,-0.00,31.25
7748186,1917,1,177907,212260,0.24,-0.60,9.96,-0.03,-0.01,-0.00,31.25
7788185,1920,1,177777,212143,0.27,-0.61,9.95,-0.03,-0.01,-0.01,31.25
7828194,1929,1,177730,212092,0.24,-0.61,9.98,-0.03,-0.01,-0.00,31.25
7868185,1943,1,177731,212175,0.26,-0.59,9.98,-0.03,-0.01,-0.00,31.25
7908186,1945,1,177834,212871,0.23,-0.62,9.94,-0.03,-0.01,-0.00,31.25
7948185,1946,1,178155,213577,0.25,-0.61,9.95,-0.03,-0.01,-0.01,31.25
7988186,1955,1,178304,213847,0.25,-0.64,9.96,-0.03,-0.01,-0.01,31.25
8028185,1966,1,178455,214211,0.25,-0.61,9.96,-0.03,-0.01,-0.00,31.25
8068871,1979,1,178529,214619,0.26,-0.61,9.96,-0.03,-0.01,-0.00,31.19
8107185,1984,1,178705,215130,0.26,-0.63,9.97,-0.03,-0.01,-0.00,31.19
8147185,1994,1,178883,215599,0.25,-0.62,9.94,-0.03,-0.01,-0.00,31.19
8187185,1997,1,179056,216135,0.24,-0.62,9.96,-0.03,-0.01,-0.00,31.19
8227186,2000,1,179199,216401,0.26,-0.62,9.96,-0.03,-0.01,-0.01,31.19
8267185,2017,1,179206,216403,0.26,-0.63,9.98,-0.03,-0.01,-0.01,31.19
8307186,2017,1,179272,216685,0.25,-0.62,9.95,-0.03,-0.01,-0.00,31.19
8347185,2025,1,179384,217087,0.26,-0.61,9.99,-0.03,-0.01,-0.00,31.19
8387186,2023,1,179450,217307,0.24,-0.62,9.98,-0.03,-0.01,-0.00,31.19
8427185,2025,1,179281,215228,0.23,-0.61,9.94,-0.03,-0.01,-0.01,31.19
8467187,2013,1,178219,212985,0.26,-0.63,9.96,-0.03,-0.01,-0.01,31.19
8507185,2007,1,177817,212578,0.25,-0.63,9.95,-0.03,-0.01,-0.01,31.19
8547186,2001,1,177804,212639,0.23,-0.62,9.97,-0.03,-0.01,-0.01,31.19
8587185,1993,1,177835,212812,0.24,-0.61,9.94,-0.03,-0.01,-0.00,31.19
8627185,1975,1,177880,213182,0.25,-0.62,9.99,-0.03,-0.01,-0.00,31.19
8667186,1961,1,178102,213800,0.23,-0.62,9.98,-0.03,-0.01,-0.00,31.19
8707185,1955,1,178324,214038,0.25,-0.62,9.93,-0.03,-0.01,-0.00,31.19
8747185,1941,1,178329,214326,0.25,-0.64,9.98,-0.03,-0.01,-0.00,31.19
8787185,1922,1,178520,214801,0.24,-0.61,9.98,-0.04,-0.01,-0.01,31.19
8827185,1913,1,178626,215085,0.24,-0.60,9.97,-0.03,-0.01,-0.00,31.19
8867185,1887,1,178693,215257,0.26,-0.64,9.97,-0.03,-0.01,-0.00,31.19
8907185,1873,1,178858,215842,0.25,-0.61,9.97,-0.03,-0.01,-0.01,31.19
8947186,1867,1,179016,216397,0.25,-0.63,9.98,-0.04,-0.01,-0.01,31.19
8987185,1859,1,179233,216892,0.23,-0.62,9.98,-0.03,-0.01,-0.00,31.19
9027195,1845,1,179311,217293,0.25,-0.64,9.96,-0.03,-0.01,-0.00,31.19
9067185,1825,1,179493,217797,0.24,-0.62,9.97,-0.03,-0.01,-0.00,31.19
9107871,1835,1,179637,216479,0.22,-0.63,9.94,-0.03,-0.01,-0.01,31.13
9148185,1847,1,178487,213565,0.24,-0.63,9.96,-0.03,-0.01,-0.00,31.13
9188186,1847,1,177920,212940,0.26,-0.61,9.97,-0.03,-0.01,-0.01,31.13
9228185,1853,1,177884,212939,0.24,-0.61,9.97,-0.03,-0.01,-0.01,31.13
9268204,1856,1,177865,212980,0.24,-0.63,9.95,-0.03,-0.01,-0.00,31.13
9308185,1871,1,177932,213252,0.27,-0.61,9.97,-0.03,-0.01,-0.01,31.13
9348186,1862,1,178129,214007,0.25,-0.62,9.98,-0.03,-0.01,-0.00,31.13
9388186,1878,1,178407,214494,0.24,-0.61,9.96,-0.04,-0.01,-0.00,31.13
9428186,1875,1,178522,214752,0.25,-0.62,9.96,-0.03,-0.01,-0.01,31.13
9469185,1882,1,178544,215042,0.25,-0.64,9.97,-0.03,-0.01,-0.00,31.13
9507185,1877,1,178715,215342,0.25,-0.62,9.97,-0.03,-0.01,-0.01,31.13
9547185,1877,1,178725,215648,0.26,-0.62,9.96,-0.03,-0.01,-0.01,31.13
9587186,1883,1,178880,216002,0.25,-0.63,9.98,-0.03,-0.01,-0.00,31.13
9627185,1869,1,179028,216545,0.26,-0.62,9.95,-0.03,-0.01,-0.01,31.13
9667207,1879,1,179369,217994,0.25,-0.63,9.94,-0.04,-0.01,-0.00,31.13
9707185,1885,1,179927,219169,0.24,-0.62,10.00,-0.04,-0.01,-0.01,31.13
9747185,1909,1,180128,219680,0.25,-0.61,9.95,-0.04,-0.01,-0.01,31.13
9787185,1901,1,180024,219220,0.25,-0.61,9.99,-0.03,-0.01,-0.00,31.13
9827185,1893,1,179202,215274,0.26,-0.62,9.98,-0.03,-0.01,-0.00,31.13
9867185,1895,1,178021,213605,0.24,-0.63,9.95,-0.03,-0.01,-0.00,31.13
9907186,1891,1,177763,213365,0.27,-0.62,9.97,-0.03,-0.01,-0.00,31.13
9947185,1901,1,177701,213216,0.26,-0.63,9.98,-0.03,-0.01,-0.01,31.13
9987186,1899,1,177696,213276,0.25,-0.61,9.97,-0.03,-0.01,-0.01,31.13
10027191,1901,1,177736,213624,0.25,-0.60,9.96,-0.03,-0.01,-0.00,31.13
10067186,1898,1,177937,214076,0.24,-0.62,9.96,-0.03,-0.01,-0.00,31.13
10107871,1888,1,178028,214257,0.25,-0.62,9.98,-0.03,-0.01,-0.00,31.07
10148186,1879,1,178130,214568,0.25,-0.63,9.97,-0.03,-0.01,-0.01,31.07
10188185,1890,1,178274,214986,0.24,-0.63,9.98,-0.03,-0.01,-0.01,31.07
10228186,1893,1,178377,215345,0.22,-0.62,10.01,-0.03,-0.01,-0.00,31.07
10268185,1893,1,178603,215910,0.25,-0.62,9.96,-0.03,-0.01,-0.00,31.07
10308185,1900,1,178750,216372,0.25,-0.62,9.96,-0.03,-0.01,-0.01,31.07
10348185,1904,1,178910,216976,0.26,-0.62,9.96,-0.03,-0.01,-0.00,31.07
10388185,1904,1,179103,217511,0.25,-0.63,9.98,-0.03,-0.01,-0.01,31.07
10428185,1904,1,179291,218132,0.26,-0.62,9.95,-0.03,-0.01,-0.01,31.07
10468186,1894,1,179518,218564,0.24,-0.61,9.97,-0.03,-0.01,-0.01,31.07
10507185,1893,1,179405,216734,0.23,-0.63,9.98,-0.03,-0.01,-0.01,31.07
10547186,1888,1,178187,213901,0.25,-0.62,9.96,-0.04,-0.01,-0.00,31.07
10587185,1894,1,177758,213333,0.25,-0.64,9.96,-0.03,-0.01,-0.01,31.07
10627186,1898,1,177693,213311,0.25,-0.61,9.96,-0.03,-0.01,-0.00,31.07
10667185,1901,1,177743,213389,0.24,-0.62,9.97,-0.03,-0.01,-0.00,31.07
10707186,1904,1,177694,213678,0.24,-0.62,9.96,-0.03,-0.01,-0.01,31.07
10747185,1905,1,177997,214420,0.24,-0.62,9.97,-0.03,-0.01,-0.00,31.07
10787186,1913,1,178146,214756,0.26,-0.62,9.95,-0.03,-0.01,-0.00,31.07
10827185,1904,1,178246,215082,0.27,-0.62,9.96,-0.03,-0.01,-0.00,31.07
10867185,1907,1,178410,215334,0.25,-0.63,9.95,-0.03,-0.01,-0.00,31.07
10907185,1908,1,178406,215618,0.25,-0.62,9.97,-0.03,-0.01,-0.00,31.07
10947186,1907,1,178656,216166,0.24,-0.62,9.96,-0.03,-0.01,-0.00,31.07
10987185,1904,1,178827,216587,0.25,-0.62,9.98,-0.03,-0.01,-0.01,31.07
11027194,1912,1,179010,217217,0.23,-0.62,9.97,-0.03,-0.01,-0.00,31.07
11067185,1908,1,179136,217748,0.25,-0.63,9.95,-0.03,-0.01,-0.01,31.07
11107201,1904,1,179386,218331,0.26,-0.64,9.96,-0.03,-0.01,-0.00,31.07
11147871,1906,1,179532,218447,0.27,-0.63,9.97,-0.03,-0.01,-0.00,31.07
11188185,1919,1,179236,215888,0.23,-0.62,9.96,-0.03,-0.01,-0.00,31.07
11228185,1910,1,178085,213746,0.25,-0.62,9.96,-0.03,-0.01,-0.01,31.07
11268187,1919,1,177642,213397,0.24,-0.62,9.96,-0.03,-0.01,-0.01,31.07
11308200,1918,1,177668,213544,0.24,-0.62,9.97,-0.03,-0.01,-0.01,31.07
11348186,1915,1,177787,213686,0.24,-0.63,9.98,-0.03,-0.01,-0.00,31.07
11388185,1913,1,177775,214131,0.25,-0.61,9.95,-0.03,-0.01,-0.01,31.07
11428186,1919,1,178064,214840,0.24,-0.62,9.98,-0.03,-0.01,-0.00,31.07
11468185,1918,1,178310,214927,0.25,-0.62,9.96,-0.03,-0.01,-0.01,31.07
11508186,1919,1,178266,215189,0.24,-0.62,9.97,-0.04,-0.01,-0.00,31.07
11547185,1915,1,178326,215482,0.24,-0.63,9.95,-0.03,-0.01,-0.01,31.07
11587186,1905,1,178496,215921,0.26,-0.63,9.98,-0.03,-0.01,-0.00,31.07
11627185,1913,1,178658,216476,0.25,-0.61,9.97,-0.03,-0.01,-0.01,31.07
11667186,1913,1,178867,217030,0.27,-0.61,9.95,-0.03,-0.01,-0.00,31.07
11707185,1913,1,179085,217562,0.25,-0.60,9.97,-0.03,-0.01,-0.00,31.07
11747185,1915,1,179169,217848,0.25,-0.60,9.95,-0.03,-0.01,-0.00,31.07
11787185,1910,1,179322,218172,0.25,-0.63,9.96,-0.03,-0.01,-0.01,31.07
11827186,1917,1,179380,218297,0.25,-0.61,9.96,-0.03,-0.01,-0.00,31.07
11867185,1909,1,179218,216559,0.24,-0.64,9.97,-0.03,-0.01,-0.00,31.07
11907186,1920,1,178056,213578,0.25,-0.62,9.98,-0.03,-0.01,-0.00,31.07
11947185,1913,1,177510,212955,0.24,-0.65,9.95,-0.03,-0.01,-0.00,31.07
11987186,1926,1,177538,213188,0.25,-0.60,9.95,-0.04,-0.01,-0.01,31.07
12027191,1917,1,177581,213299,0.25,-0.61,9.95,-0.03,-0.01,-0.00,31.07
12067186,1921,1,177623,213570,0.26,-0.62,9.94,-0.03,-0.01,-0.00,31.07
12107185,1921,1,177856,214494,0.25,-0.62,9.96,-0.03,-0.01,-0.00,31.07
12147186,1920,1,178206,215237,0.25,-0.62,9.97,-0.03,-0.01,-0.01,31.07
12187871,1920,1,178273,215615,0.24,-0.61,9.99,-0.03,-0.01,-0.01,31.07
12228186,1910,1,178452,215942,0.24,-0.63,9.95,-0.03,-0.01,-0.00,31.07
12268185,1920,1,178558,216527,0.24,-0.63,9.97,-0.04,-0.01,-0.01,31.07
12308186,1919,1,178778,217041,0.26,-0.66,9.98,-0.03,-0.01,-0.00,31.07
12348185,1918,1,178861,217306,0.27,-0.63,9.97,-0.03,-0.01,-0.00,31.07
12388186,1907,1,179010,217535,0.24,-0.63,9.95,-0.03,-0.01,-0.00,31.07
12428185,1917,1,179066,217964,0.24,-0.63,9.96,-0.04,-0.01,-0.00,31.07
12468186,1921,1,179195,218423,0.24,-0.62,9.96,-0.03,-0.01,-0.00,31.07
12508185,1926,1,179364,218797,0.25,-0.62,9.96,-0.03,-0.01,-0.00,31.07
12547186,1920,1,179477,218729,0.25,-0.63,9.97,-0.03,-0.01,-0.00,31.07
12587185,1923,1,179094,215495,0.24,-0.63,9.98,-0.03,-0.01,-0.00,31.07
12627185,1922,1,177823,213290,0.23,-0.61,9.96,-0.03,-0.01,-0.01,31.07
12667185,1917,1,177403,212868,0.26,-0.64,9.98,-0.03,-0.01,-0.00,31.07
12707186,1924,1,177388,212926,0.25,-0.63,9.96,-0.03,-0.01,-0.00,31.07
12747221,1920,1,177365,212865,0.24,-0.62,9.97,-0.03,-0.01,-0.01,31.07
12787186,1915,1,177423,213312,0.23,-0.62,9.97,-0.03,-0.01,-0.00,31.07
12827185,1924,1,177696,213935,0.25,-0.64,9.94,-0.03,-0.01,-0.00,31.07
12867186,1921,1,177715,214246,0.26,-0.62,9.97,-0.03,-0.01,-0.01,31.07
12907185,1916,1,177793,214539,0.25,-0.62,9.96,-0.03,-0.01,-0.01,31.07
12947225,1920,1,177952,214640,0.23,-0.63,9.98,-0.03,-0.01,-0.01,31.07
12987185,1920,1,177925,214632,0.25,-0.62,9.96,-0.03,-0.01,-0.01,31.07
13027194,1915,1,178012,214696,0.26,-0.62,9.97,-0.03,-0.01,-0.00,31.07
13067185,1915,1,177959,214977,0.28,-0.62,9.94,-0.03,-0.01,-0.00,31.07
13107186,1925,1,178172,215652,0.24,-0.61,9.96,-0.03,-0.01,-0.01,31.07
13147185,1920,1,178475,216293,0.24,-0.64,9.97,-0.03,-0.01,-0.00,31.07
13187186,1917,1,178695,216813,0.25,-0.62,9.97,-0.03,-0.01,-0.01,31.07
13227871,1915,1,178824,217001,0.24,-0.62,9.97,-0.03,-0.01,-0.00,31.07
13268186,1914,1,178389,214143,0.26,-0.62,9.96,-0.03,-0.01,-0.01,31.07
13308185,1905,1,177432,213056,0.25,-0.61,9.95,-0.04,-0.01,-0.00,31.07
13348186,1909,1,177302,212954,0.26,-0.62,9.96,-0.03,-0.01,-0.01,31.07
13388185,1915,1,177332,212784,0.25,-0.62,9.97,-0.03,-0.01,-0.00,31.07
13428186,1911,1,177147,212750,0.27,-0.62,9.93,-0.03,-0.01,-0.00,31.07
13468185,1914,1,177205,213134,0.25,-0.62,9.97,-0.03,-0.01,-0.00,31.07
13508186,1913,1,177473,213605,0.23,-0.63,9.95,-0.03,-0.01,-0.00,31.07
13548185,1910,1,177570,213716,0.24,-0.62,9.96,-0.03,-0.01,-0.00,31.07
13587186,1916,1,177591,213820,0.24,-0.62,9.99,-0.03,-0.01,-0.01,31.07
13627185,1908,1,177686,214176,0.23,-0.64,9.95,-0.03,-0.01,-0.00,31.07
13667185,1910,1,177876,214506,0.28,-0.62,9.99,-0.03,-0.01,-0.00,31.07
13707185,1915,1,178017,214841,0.27,-0.62,9.93,-0.03,-0.01,-0.01,31.07
13747186,1917,1,178067,215382,0.26,-0.62,9.95,-0.03,-0.01,-0.01,31.07
13787185,1913,1,178266,215937,0.26,-0.62,9.95,-0.03,-0.01,-0.01,31.07
13827186,1917,1,178419,216488,0.24,-0.63,9.98,-0.03,-0.01,-0.00,31.07
13867185,1911,1,178695,216940,0.23,-0.62,9.94,-0.03,-0.01,-0.01,31.07
13907186,1919,1,178723,215524,0.24,-0.61,9.96,-0.03,-0.01,-0.01,31.07
13947185,1914,1,177591,213115,0.25,-0.62,9.94,-0.03,-0.01,-0.00,31.07
13987186,1920,1,177174,212666,0.27,-0.61,9.98,-0.04,-0.01,-0.00,31.07
14027190,1919,1,177187,212612,0.24,-0.62,9.95,-0.03,-0.01,-0.01,31.07
14067186,1929,1,177177,212483,0.23,-0.61,9.95,-0.03,-0.01,-0.00,31.07
14107185,1927,1,177086,212768,0.25,-0.63,9.95,-0.03,-0.01,-0.00,31.07
14147186,1921,1,177354,213328,0.25,-0.61,9.97,-0.03,-0.01,-0.01,31.07
14187185,1919,1,177528,213670,0.26,-0.62,9.96,-0.03,-0.01,-0.00,31.07
14227186,1931,1,177559,213947,0.26,-0.61,9.96,-0.03,-0.01,-0.00,31.07
14267871,1925,1,177653,214244,0.24,-0.62,9.97,-0.03,-0.01,-0.01,31.13
14308186,1922,1,177758,214626,0.24,-0.63,9.95,-0.03,-0.01,-0.00,31.13
14348185,1920,1,177887,215163,0.25,-0.63,9.96,-0.03,-0.01,-0.01,31.13
14388194,1918,1,178164,215573,0.26,-0.60,9.98,-0.03,-0.01,-0.00,31.13
14428185,1927,1,178243,216063,0.24,-0.62,9.98,-0.03,-0.01,-0.00,31.13
14468186,1924,1,178409,216364,0.25,-0.64,9.97,-0.03,-0.01,-0.01,31.13
14508185,1923,1,178487,216674,0.25,-0.61,9.96,-0.03,-0.01,-0.01,31.13
14548186,1915,1,178700,216833,0.24,-0.62,9.96,-0.03,-0.01,-0.01,31.13
14589185,1917,1,178430,214742,0.23,-0.62,9.96,-0.03,-0.01,-0.00,31.13
14627186,1918,1,177409,212594,0.26,-0.60,9.95,-0.03,-0.01,-0.00,31.13
14667185,1911,1,177022,212551,0.27,-0.64,9.95,-0.03,-0.01,-0.01,31.13
14707186,1909,1,177108,212648,0.23,-0.62,9.95,-0.03,-0.01,-0.01,31.13
14747185,1917,1,177069,212517,0.23,-0.58,9.98,-0.03,-0.02,-0.00,31.13
14787202,1913,1,177044,212464,0.23,-0.62,10.00,-0.03,-0.01,-0.01,31.13
14827185,1910,1,177093,212768,0.27,-0.65,9.98,-0.03,-0.01,-0.00,31.13
14867186,1919,1,177150,212930,0.25,-0.59,9.94,-0.03,-0.01,-0.01,31.13
14907185,1907,1,177227,213201,0.26,-0.61,9.97,-0.03,-0.01,-0.01,31.13
14947186,1908,1,177398,213807,0.23,-0.62,9.96,-0.04,-0.01,-0.01,31.13
14987185,1911,1,177639,214309,0.22,-0.61,9.98,-0.04,-0.01,-0.01,31.13
15027194,1919,1,177889,214762,0.24,-0.62,9.99,-0.04,-0.01,-0.01,31.13
15067185,1916,1,177959,215427,0.26,-0.61,9.96,-0.03,-0.01,-0.01,31.13
15107187,1919,1,178316,216455,0.26,-0.61,9.96,-0.03,-0.01,-0.00,31.13
15147185,1923,1,178629,216753,0.23,-0.63,9.97,-0.03,-0.01,-0.01,31.13
15187186,1915,1,178580,216713,0.25,-0.62,9.96,-0.03,-0.02,-0.00,31.13
15227185,1917,1,178533,215918,0.25,-0.62,10.00,-0.03,-0.01,-0.01,31.13
15267186,1911,1,177801,213086,0.24,-0.63,9.93,-0.03,-0.01,-0.01,31.13
15307871,1917,1,176829,211270,0.26,-0.62,9.96,-0.03,-0.01,-0.01,31.13
15346186,1922,1,176406,211014,0.27,-0.62,9.94,-0.03,-0.01,-0.01,31.13
15386185,1935,1,176580,211299,0.26,-0.62,9.96,-0.04,-0.01,-0.01,31.13
15426186,1938,1,176735,212075,0.24,-0.61,9.97,-0.04,-0.01,-0.00,31.13
15466185,1932,1,177128,213071,0.23,-0.61,9.97,-0.03,-0.01,-0.00,31.13
15506186,1937,1,177521,213873,0.26,-0.62,9.96,-0.03,-0.01,-0.01,31.13
15546185,1937,1,177589,213732,0.26,-0.62,9.97,-0.03,-0.01,-0.00,31.13
15586186,1934,1,177340,213351,0.23,-0.62,9.95,-0.03,-0.01,-0.00,31.13
15626185,1921,1,177316,212819,0.23,-0.63,9.98,-0.03,-0.01,-0.00,31.13
15666186,1927,1,177050,212595,0.26,-0.63,9.96,-0.03,-0.01,-0.00,31.13
15706185,1936,1,177064,212785,0.25,-0.62,9.96,-0.03,-0.01,-0.00,31.13
15746186,1927,1,177275,213413,0.25,-0.64,9.97,-0.03,-0.01,-0.00,31.13
15786185,1931,1,177545,214404,0.25,-0.63,9.98,-0.03,-0.01,-0.00,31.13
15826186,1934,1,177825,215403,0.26,-0.61,9.95,-0.03,-0.01,-0.00,31.13
15866185,1937,1,178324,216064,0.26,-0.62,9.96,-0.03,-0.01,-0.00,31.13
15906186,1938,1,178365,214856,0.24,-0.62,9.99,-0.03,-0.01,-0.00,31.13
15946185,1934,1,177277,211761,0.26,-0.63,9.97,-0.03,-0.01,-0.01,31.13
15986186,1931,1,176420,210599,0.24,-0.64,9.93,-0.03,-0.01,-0.01,31.13
16026210,1931,1,176271,210070,0.23,-0.63,9.98,-0.03,-0.01,-0.01,31.13
16066186,1931,1,176144,209844,0.23,-0.61,9.97,-0.03,-0.01,-0.00,31.13
16106185,1911,1,176042,210264,0.26,-0.63,9.98,-0.03,-0.01,-0.00,31.13
16146186,1920,1,176369,211336,0.26,-0.65,9.96,-0.03,-0.01,-0.01,31.13
16186185,1914,1,176913,212271,0.26,-0.60,9.95,-0.04,-0.00,-0.01,31.13
16226228,1935,1,177101,212906,0.25,-0.63,9.95,-0.03,-0.01,-0.01,31.13
16266185,1936,1,177321,212904,0.24,-0.61,9.99,-0.03,-0.01,-0.01,31.13
16306187,1927,1,177231,212812,0.24,-0.62,9.97,-0.03,-0.01,-0.01,31.13
16346871,1921,1,177335,212839,0.25,-0.63,9.95,-0.03,-0.01,-0.00,31.15
16387186,1912,1,177210,212993,0.25,-0.60,9.96,-0.03,-0.01,-0.00,31.15
16427185,1914,1,177390,213631,0.24,-0.61,9.96,-0.03,-0.01,-0.01,31.15
16467186,1920,1,177721,214674,0.25,-0.60,9.96,-0.04,-0.01,-0.01,31.15
16507185,1921,1,178179,216286,0.27,-0.61,9.98,-0.04,-0.00,-0.01,31.15
16547186,1920,1,178706,216443,0.24,-0.64,9.95,-0.03,-0.01,-0.01,31.15
16587185,1920,1,177909,213198,0.26,-0.63,9.98,-0.03,-0.01,-0.01,31.15
16627187,1920,1,177128,211928,0.26,-0.64,9.98,-0.03,-0.01,-0.00,31.15
16667185,1923,1,176821,211720,0.24,-0.64,9.96,-0.03,-0.01,-0.00,31.15
16707186,1918,1,176677,211322,0.23,-0.61,9.96,-0.03,-0.01,-0.01,31.15
16747185,1921,1,176551,211344,0.25,-0.61,9.97,-0.03,-0.01,-0.01,31.15
16787186,1917,1,176848,212216,0.24,-0.63,9.96,-0.03,-0.01,-0.00,31.15
16827185,1914,1,177376,213375,0.26,-0.62,9.94,-0.03,-0.01,-0.01,31.15
16867186,1924,1,177643,213975,0.26,-0.64,9.96,-0.03,-0.01,-0.01,31.15
16907185,1923,1,177758,214454,0.27,-0.62,9.97,-0.03,-0.01,-0.00,31.15
16947186,1922,1,177779,214439,0.25,-0.63,9.96,-0.03,-0.01,-0.01,31.15
16987185,1922,1,177804,214334,0.26,-0.63,9.97,-0.03,-0.01,-0.01,31.15
17027194,1908,1,177880,214330,0.24,-0.61,9.97,-0.03,-0.01,-0.01,31.15
17067185,1919,1,177842,214574,0.26,-0.61,9.96,-0.03,-0.01,-0.01,31.15
17107186,1917,1,178065,215066,0.25,-0.60,9.97,-0.04,-0.01,-0.01,31.15
17147185,1915,1,178269,215702,0.24,-0.63,9.95,-0.03,-0.01,-0.00,31.15
17187186,1919,1,178309,215740,0.23,-0.62,9.98,-0.03,-0.01,-0.01,31.15
17227185,1916,1,177819,213125,0.23,-0.60,9.94,-0.03,-0.01,-0.01,31.15
17267186,1911,1,177022,211789,0.26,-0.63,9.98,-0.03,-0.01,-0.01,31.15
17307185,1907,1,176792,211541,0.25,-0.62,9.96,-0.03,-0.01,-0.00,31.15
17347872,1906,1,176727,211447,0.25,-0.62,9.95,-0.03,-0.01,-0.01,30.97
17386185,1922,1,176686,211278,0.23,-0.62,9.98,-0.03,-0.01,-0.01,30.97
17426186,1919,1,176631,210966,0.24,-0.62,9.96,-0.03,-0.01,-0.00,30.97
17466185,1914,1,176548,210634,0.24,-0.60,9.96,-0.03,-0.02,-0.00,30.97
17506185,1911,1,176317,210139,0.24,-0.62,9.97,-0.03,-0.01,-0.00,30.97
17546185,1911,1,176246,210097,0.27,-0.62,9.96,-0.03,-0.01,-0.01,30.97
17586186,1921,1,176332,210470,0.25,-0.62,9.97,-0.03,-0.01,-0.00,30.97
17626185,1925,1,176448,210926,0.24,-0.61,9.96,-0.03,-0.01,-0.00,30.97
17666186,1908,1,176700,211474,0.24,-0.61,9.96,-0.03,-0.01,-0.01,30.97
17706185,1933,1,176895,211729,0.24,-0.63,9.98,-0.03,-0.01,-0.00,30.97
17746186,1923,1,176851,211706,0.25,-0.62,9.94,-0.03,-0.01,-0.01,30.97
17786185,1923,1,176880,211851,0.27,-0.63,9.93,-0.03,-0.01,-0.00,30.97
17826186,1922,1,176940,211567,0.25,-0.62,9.96,-0.03,-0.01,-0.01,30.97
17866185,1920,1,176451,209627,0.24,-0.64,10.00,-0.03,-0.01,-0.00,30.97
17906185,1915,1,175676,208076,0.25,-0.61,9.94,-0.03,-0.01,-0.01,30.97
17946185,1907,1,175352,207910,0.24,-0.61,9.94,-0.04,-0.01,-0.01,30.97
17986186,1918,1,175419,208239,0.25,-0.64,9.96,-0.04,-0.01,-0.01,30.97
18026196,1920,1,175602,208449,0.27,-0.62,9.97,-0.03,-0.01,-0.00,30.97
18066187,1907,1,175732,209302,0.26,-0.63,9.97,-0.03,-0.01,-0.00,30.97
18106185,1912,1,176117,210202,0.25,-0.63,9.99,-0.03,-0.01,-0.00,30.97
18146186,1920,1,176292,210554,0.26,-0.63,9.95,-0.03,-0.01,-0.01,30.97
18186185,1923,1,176375,210642,0.27,-0.62,9.95,-0.03,-0.01,-0.00,30.97
18226186,1919,1,176396,210692,0.25,-0.63,9.97,-0.03,-0.01,-0.00,30.97
18266185,1920,1,176611,211487,0.26,-0.63,9.94,-0.03,-0.01,-0.00,30.97
18306186,1919,1,176895,212186,0.25,-0.62,9.98,-0.03,-0.01,-0.00,30.97
18346185,1921,1,177097,212452,0.26,-0.62,9.94,-0.03,-0.01,-0.00,30.97
18386872,1941,1,177009,212284,0.25,-0.62,9.96,-0.03,-0.01,-0.00,30.77
18427185,1942,1,176981,212084,0.24,-0.61,9.95,-0.03,-0.01,-0.00,30.77
18467186,1962,1,176929,212056,0.27,-0.62,9.96,-0.03,-0.01,-0.00,30.77
18507185,1963,1,176851,211623,0.28,-0.62,10.00,-0.03,-0.01,-0.00,30.77
18547186,1969,1,176287,209659,0.24,-0.64,9.98,-0.03,-0.01,-0.01,30.77
18587185,1979,1,175741,208635,0.24,-0.62,9.93,-0.03,-0.01,-0.00,30.77
18627186,1997,1,175578,208381,0.27,-0.60,9.95,-0.03,-0.01,-0.00,30.77
18667186,1998,1,175657,208445,0.26,-0.61,9.99,-0.03,-0.02,-0.00,30.77
18707186,2002,1,175699,208559,0.26,-0.62,9.98,-0.04,-0.03,-0.00,30.77
18747185,1999,1,175646,208580,0.26,-0.63,9.97,-0.03,-0.03,-0.00,30.77
18787186,2012,1,175828,208536,0.30,-0.62,9.95,-0.03,-0.03,-0.00,30.77
18827185,2022,1,175942,208736,0.27,-0.62,9.95,-0.03,-0.03,-0.00,30.77
18867186,2017,1,176282,209649,0.32,-0.63,9.91,-0.03,-0.01,-0.00,30.77
18907185,2021,1,176724,211510,0.28,-0.62,9.97,-0.04,0.00,-0.01,30.77
18947170,2014,1,177577,214605,0.31,-0.61,9.95,-0.04,0.00,-0.01,30.77
18987165,2017,1,178669,217245,0.28,-0.63,9.99,-0.04,0.00,-0.01,30.77
19027173,2015,1,179322,219249,0.28,-0.62,9.94,-0.04,-0.00,-0.01,30.77
19067185,2000,1,179987,220656,0.27,-0.63,9.97,-0.04,-0.01,-0.01,30.77
19107186,2001,1,180109,220763,0.29,-0.64,9.99,-0.03,-0.03,-0.00,30.77
19147185,1998,1,179917,219821,0.29,-0.62,9.98,-0.03,-0.02,-0.00,30.77
19187186,1988,1,179578,218248,0.27,-0.62,10.00,-0.03,-0.02,-0.00,30.77
19227185,1971,1,178852,214570,0.31,-0.63,9.95,-0.03,-0.03,-0.00,30.77
19267186,1965,1,177054,210951,0.30,-0.61,9.94,-0.03,-0.02,-0.00,30.77
19307185,1953,1,176931,213178,0.34,-0.62,9.90,-0.04,-0.00,-0.01,30.77
19347186,1936,1,178706,219918,0.35,-0.62,9.87,-0.06,0.05,-0.01,30.77
19387850,1930,1,181000,223298,0.23,-0.64,10.00,-0.08,0.04,-0.03,30.99
19426170,1914,1,181630,223355,0.21,-0.67,10.02,-0.05,-0.01,-0.01,30.99
19466185,1918,1,181403,222573,0.26,-0.65,9.98,-0.03,-0.02,-0.00,30.99
19506239,1909,1,180750,221500,0.25,-0.66,9.96,-0.03,-0.03,-0.00,30.99
19546185,1891,1,180318,220515,0.30,-0.65,9.92,-0.03,-0.03,-0.00,30.99
19586185,1885,1,179899,219552,0.28,-0.65,10.00,-0.03,-0.02,-0.00,30.99
19626185,1874,1,179465,218368,0.28,-0.67,9.99,-0.03,-0.03,-0.00,30.99
19666186,1869,1,179275,218131,0.31,-0.65,9.95,-0.03,-0.04,-0.00,30.99
19706214,1850,1,179194,218185,0.30,-0.65,9.93,-0.03,-0.02,-0.00,30.99
19746185,1836,1,179394,218667,0.32,-0.65,9.94,-0.03,-0.02,-0.00,30.99
19786185,1840,1,179517,219323,0.31,-0.66,9.94,-0.03,-0.00,-0.01,30.99
19826186,1847,1,179743,219695,0.29,-0.67,9.99,-0.03,-0.01,-0.00,30.99
19866185,1835,1,179869,219913,0.31,-0.65,9.96,-0.04,-0.01,-0.01,30.99
19906186,1839,1,179751,218773,0.29,-0.65,9.95,-0.03,-0.01,-0.00,30.99
19946185,1824,1,178690,214164,0.31,-0.64,9.97,-0.03,-0.01,-0.00,30.99
19986186,1829,1,177495,213098,0.31,-0.65,9.95,-0.04,-0.01,-0.00,30.99
20026196,1831,1,177562,214138,0.31,-0.64,9.96,-0.04,0.00,-0.01,30.99
20066165,1842,1,177953,214875,0.30,-0.66,9.96,-0.04,-0.01,-0.00,30.99
20106185,1840,1,178184,215572,0.31,-0.65,9.94,-0.03,-0.01,-0.00,30.99
20146186,1839,1,178587,216972,0.29,-0.66,9.96,-0.03,-0.01,-0.00,30.99
20186185,1847,1,178845,217471,0.33,-0.66,9.96,-0.03,-0.01,-0.01,30.99
20226186,1840,1,179026,217726,0.33,-0.64,9.96,-0.03,-0.01,-0.00,30.99
20266185,1845,1,179032,217963,0.31,-0.64,9.97,-0.03,-0.01,-0.01,30.99
20306186,1853,1,179202,218125,0.30,-0.64,10.01,-0.03,-0.01,-0.01,30.99
20346185,1854,1,179037,218216,0.32,-0.65,9.95,-0.03,-0.01,-0.01,30.99
20386186,1851,1,179251,218511,0.31,-0.68,9.97,-0.03,-0.01,-0.01,30.99
20426871,1857,1,179282,218686,0.29,-0.65,9.95,-0.03,-0.01,-0.00,31.05
20467185,1853,1,179341,218855,0.30,-0.64,9.95,-0.03,-0.01,-0.00,31.05
20507185,1852,1,179356,218969,0.30,-0.64,9.94,-0.03,-0.01,-0.01,31.05
20547186,1856,1,179385,219139,0.31,-0.64,9.95,-0.03,-0.01,-0.00,31.05
20587185,1861,1,179391,217655,0.30,-0.64,9.94,-0.03,-0.01,-0.01,31.05
20627185,1869,1,178141,214153,0.31,-0.66,9.97,-0.04,-0.01,-0.01,31.05
20667185,1866,1,177444,213578,0.31,-0.65,9.94,-0.03,-0.00,-0.00,31.05
20707186,1872,1,177474,213619,0.31,-0.65,9.98,-0.03,-0.01,-0.00,31.05
20747185,1887,1,177531,213706,0.30,-0.65,9.95,-0.03,-0.01,-0.00,31.05
20787185,1886,1,177607,214235,0.32,-0.65,9.96,-0.03,-0.01,-0.00,31.05
20827185,1881,1,177873,215356,0.31,-0.64,9.98,-0.03,-0.01,-0.01,31.05
20867186,1894,1,178205,215688,0.30,-0.65,9.96,-0.03,-0.01,-0.00,31.05
20907184,1889,1,178132,215750,0.32,-0.66,9.96,-0.03,-0.01,-0.00,31.05
20947186,1901,1,178283,216236,0.28,-0.65,9.99,-0.03,-0.01,-0.00,31.05
20987185,1904,1,178464,216732,0.31,-0.64,9.99,-0.03,-0.01,-0.00,31.05
21027194,1918,1,178679,217391,0.30,-0.65,9.97,-0.03,-0.01,-0.00,31.05
21067185,1909,1,178859,217855,0.30,-0.65,9.95,-0.03,-0.01,-0.00,31.05
21107185,1920,1,179103,218475,0.31,-0.68,9.97,-0.03,-0.01,-0.00,31.05
21147185,1920,1,179220,218869,0.31,-0.64,9.98,-0.03,-0.01,-0.01,31.05
21187186,1920,1,179324,218950,0.30,-0.65,9.95,-0.03,-0.01,-0.01,31.05
21227185,1917,1,179244,217241,0.29,-0.65,9.98,-0.03,-0.02,-0.01,31.05
21267186,1923,1,177714,212733,0.32,-0.65,9.96,-0.03,-0.02,-0.00,31.05
21307185,1922,1,176922,212054,0.32,-0.65,9.97,-0.03,-0.01,-0.00,31.05
21347191,1926,1,176976,212697,0.32,-0.65,9.95,-0.04,-0.01,-0.01,31.05
21387185,1927,1,177319,213558,0.31,-0.64,9.97,-0.04,-0.01,-0.00,31.05
21427871,1920,1,177648,214612,0.31,-0.63,9.98,-0.03,-0.01,-0.00,30.87
21466185,1923,1,177996,216315,0.29,-0.66,9.96,-0.03,-0.01,-0.01,30.87
21506186,1927,1,178633,217570,0.31,-0.64,9.98,-0.04,-0.01,-0.01,30.87
21546204,1914,1,178908,217931,0.33,-0.64,9.96,-0.04,-0.01,-0.00,30.87
21586186,1920,1,178997,217970,0.36,-0.63,9.94,-0.03,-0.01,-0.00,30.87
21626185,1918,1,178992,218289,0.32,-0.66,9.95,-0.03,-0.01,-0.01,30.87
21666187,1927,1,179113,218547,0.28,-0.64,9.96,-0.04,-0.00,-0.01,30.87
21706185,1933,1,179236,218615,0.31,-0.64,9.96,-0.03,-0.01,-0.00,30.87
21746186,1930,1,179270,218945,0.33,-0.66,9.99,-0.03,-0.01,-0.01,30.87
21786185,1927,1,179394,219542,0.33,-0.64,9.93,-0.04,-0.01,-0.01,30.87
21826186,1933,1,179553,220239,0.31,-0.66,9.96,-0.03,-0.00,-0.01,30.87
21866185,1933,1,179894,220971,0.28,-0.64,10.00,-0.03,-0.00,-0.00,30.87
21906185,1931,1,179902,219611,0.31,-0.68,9.92,-0.03,0.00,-0.00,30.87
21946170,1924,1,178531,215191,0.29,-0.69,9.97,-0.03,-0.00,-0.01,30.87
21986187,1927,1,177396,213437,0.28,-0.62,9.97,-0.03,-0.01,-0.01,30.87
22026195,1923,1,177060,212706,0.32,-0.62,9.98,-0.03,-0.01,-0.01,30.87
22066186,1922,1,176928,212322,0.30,-0.65,9.99,-0.03,-0.02,-0.01,30.87
22106185,1920,1,176706,211873,0.30,-0.64,9.96,-0.03,-0.01,-0.00,30.87
22146186,1929,1,176561,211345,0.31,-0.65,9.99,-0.03,-0.02,-0.01,30.87
22186185,1922,1,176338,210583,0.30,-0.66,9.98,-0.03,-0.03,-0.00,30.87
22226186,1920,1,176094,209832,0.33,-0.65,9.95,-0.03,-0.02,-0.00,30.87
22266185,1924,1,176026,209700,0.37,-0.68,9.96,-0.03,-0.01,-0.00,30.87
22306186,1918,1,176086,209987,0.33,-0.62,9.97,-0.03,-0.01,-0.01,30.87
22346185,1911,1,176214,210260,0.31,-0.63,9.95,-0.03,-0.01,-0.00,30.87
22386186,1904,1,176331,210464,0.30,-0.63,9.96,-0.03,-0.01,-0.00,30.87
22426186,1921,1,176388,210789,0.31,-0.63,9.96,-0.03,-0.01,-0.00,30.87
22466872,1920,1,176609,211244,0.34,-0.65,9.96,-0.03,-0.01,-0.00,30.87
22507185,1914,1,176770,211803,0.33,-0.65,9.96,-0.03,-0.01,-0.01,30.87
22547186,1909,1,176992,212175,0.31,-0.64,9.97,-0.04,-0.00,-0.00,30.87
22586185,1921,1,176638,210270,0.33,-0.62,9.99,-0.04,-0.01,-0.00,30.87
22626186,1920,1,175957,209140,0.31,-0.62,9.96,-0.03,-0.01,-0.00,30.87
22666185,1919,1,175723,208994,0.34,-0.64,9.96,-0.03,-0.01,-0.01,30.87
22706186,1923,1,175683,209042,0.31,-0.63,9.97,-0.03,-0.01,-0.01,30.87
22746185,1921,1,175748,209234,0.31,-0.65,9.98,-0.04,-0.01,-0.01,30.87
22786186,1915,1,175853,209699,0.32,-0.65,9.97,-0.03,-0.01,-0.00,30.87
22826185,1919,1,176101,210216,0.30,-0.64,9.97,-0.03,-0.01,-0.01,30.87
22866186,1919,1,176143,210169,0.30,-0.62,9.97,-0.04,-0.01,-0.00,30.87
22906185,1907,1,176093,209928,0.31,-0.63,9.93,-0.03,-0.02,-0.01,30.87
22946186,1920,1,176016,209439,0.29,-0.65,9.97,-0.03,-0.01,-0.01,30.87
22986185,1917,1,175925,209193,0.35,-0.64,9.96,-0.03,-0.02,-0.00,30.87
23026197,1905,1,176142,211163,0.35,-0.65,9.91,-0.04,0.01,-0.01,30.87
23066165,1925,1,176873,212920,0.23,-0.63,10.01,-0.04,0.03,-0.01,30.87
23106170,1910,1,177389,214994,0.30,-0.65,9.96,-0.04,0.02,-0.01,30.87
23146165,1911,1,178046,216275,0.27,-0.63,9.98,-0.04,0.02,-0.01,30.87
23186172,1908,1,178082,214924,0.27,-0.65,10.03,-0.03,-0.01,-0.00,30.87
23226185,1916,1,176717,209541,0.27,-0.65,9.97,-0.03,-0.03,-0.00,30.87
23266186,1910,1,174956,205667,0.30,-0.65,9.92,-0.03,-0.03,-0.00,30.87
23306185,1917,1,173983,203935,0.30,-0.64,9.96,-0.03,-0.01,-0.00,30.87
23346186,1909,1,173555,203082,0.26,-0.64,9.97,-0.04,-0.00,-0.01,30.87
23386185,1914,1,173266,201993,0.32,-0.65,9.95,-0.03,-0.01,-0.00,30.87
23426186,1906,1,172952,201167,0.28,-0.66,10.00,-0.03,-0.01,-0.00,30.87
23466870,1907,1,172925,201236,0.26,-0.63,9.95,-0.03,-0.02,-0.00,30.93
23507186,1905,1,173351,202772,0.31,-0.65,9.92,-0.04,-0.01,-0.00,30.93
23547185,1909,1,173892,204132,0.30,-0.65,9.96,-0.04,-0.01,-0.01,30.93
23587186,1919,1,174389,205608,0.32,-0.63,9.99,-0.04,-0.00,-0.01,30.93
23626185,1925,1,175007,207396,0.28,-0.64,9.97,-0.04,0.00,-0.01,30.93
23666170,1927,1,175559,208649,0.27,-0.65,9.95,-0.04,-0.00,-0.01,30.93
23706185,1914,1,175779,208992,0.31,-0.64,9.96,-0.03,-0.01,-0.00,30.93
23746186,1929,1,175810,208902,0.27,-0.65,9.99,-0.03,-0.02,-0.00,30.93
23786185,1920,1,175683,208403,0.28,-0.66,9.96,-0.03,-0.02,-0.00,30.93
23826186,1917,1,175493,207649,0.29,-0.65,9.97,-0.03,-0.02,-0.00,30.93
23866185,1911,1,175273,206596,0.31,-0.65,9.97,-0.03,-0.02,-0.00,30.93
23906186,1905,1,174586,203791,0.29,-0.62,9.94,-0.03,-0.01,-0.01,30.93
23946185,1914,1,173632,201943,0.29,-0.63,9.97,-0.03,-0.01,-0.01,30.93
23986186,1917,1,173424,202073,0.29,-0.63,9.94,-0.03,-0.01,-0.01,30.93
24026196,1919,1,173667,203132,0.30,-0.65,9.96,-0.04,-0.01,-0.01,30.93
24066186,1909,1,174042,204041,0.28,-0.64,9.97,-0.03,-0.01,-0.01,30.93
24106185,1917,1,174465,205134,0.31,-0.65,9.98,-0.03,-0.01,-0.01,30.93
24146186,1921,1,174803,205951,0.28,-0.66,9.95,-0.03,-0.01,-0.00,30.93
24186185,1920,1,175078,206668,0.28,-0.65,9.97,-0.04,-0.01,-0.01,30.93
24226187,1930,1,175357,207841,0.28,-0.64,9.99,-0.04,-0.01,-0.01,30.93
24266185,1919,1,175672,208455,0.29,-0.64,9.98,-0.03,-0.01,-0.01,30.93
24306186,1924,1,175679,208038,0.27,-0.67,9.95,-0.03,-0.01,-0.00,30.93
24346185,1907,1,175458,207143,0.29,-0.65,9.98,-0.03,-0.02,-0.00,30.93
24386186,1919,1,175182,206170,0.29,-0.64,9.90,-0.03,-0.02,-0.00,30.93
24426186,1909,1,174870,205247,0.29,-0.69,9.99,-0.03,-0.02,-0.00,30.93
24466872,1919,1,174658,204514,0.29,-0.65,9.96,-0.03,-0.02,-0.00,30.85
24507185,1917,1,174483,203469,0.30,-0.64,9.98,-0.03,-0.01,-0.00,30.85
24547186,1919,1,173887,201478,0.31,-0.66,9.93,-0.04,-0.00,-0.01,30.85
24587185,1904,1,173186,200722,0.29,-0.63,9.97,-0.04,0.01,-0.01,30.85
24626219,1902,1,173061,200559,0.27,-0.63,9.98,-0.04,-0.01,-0.00,30.85
24666185,1911,1,173054,200402,0.29,-0.65,9.96,-0.03,-0.01,-0.00,30.85
24706187,1911,1,173096,200219,0.29,-0.65,9.98,-0.03,-0.02,-0.00,30.85
24746185,1907,1,173168,200609,0.29,-0.64,9.95,-0.03,-0.02,-0.00,30.85
24786186,1907,1,173371,201152,0.31,-0.64,9.99,-0.03,-0.01,-0.01,30.85
24826208,1908,1,173472,200589,0.24,-0.63,9.93,-0.03,-0.02,-0.00,30.85
24866186,1921,1,173734,201609,0.30,-0.62,10.00,-0.03,-0.06,0.00,30.85
24906170,1921,1,174363,202429,0.37,-0.63,10.00,-0.03,-0.02,0.00,30.85
24946165,1931,1,174794,203864,0.28,-0.66,9.92,-0.03,-0.01,-0.01,30.85
24986186,1910,1,175703,206855,0.34,-0.62,9.86,-0.04,0.00,-0.01,30.85
25026174,1922,1,176794,210948,0.34,-0.63,9.93,-0.05,0.02,-0.01,30.85
25066165,1929,1,177659,211424,0.25,-0.65,10.07,-0.04,0.00,-0.01,30.85
25106170,1926,1,177151,209339,0.35,-0.64,10.02,-0.02,-0.05,-0.00,30.85
25146185,1920,1,176659,207047,0.30,-0.66,9.95,-0.03,-0.01,-0.00,30.85
25186185,1920,1,175707,205127,0.30,-0.64,9.91,-0.03,-0.00,-0.01,30.85
25226185,1935,1,175505,206366,0.34,-0.65,9.89,-0.04,0.00,-0.01,30.85
25266170,1936,1,176257,208854,0.33,-0.65,9.97,-0.04,0.00,-0.01,30.85
25306165,1921,1,176904,210266,0.31,-0.66,9.98,-0.03,-0.02,-0.01,30.85
25346186,1936,1,177115,210514,0.30,-0.63,9.96,-0.03,-0.01,-0.00,30.85
25386185,1927,1,177192,210557,0.30,-0.65,10.01,-0.03,-0.00,-0.00,30.85
25426185,1922,1,177058,210278,0.30,-0.66,9.93,-0.03,-0.01,-0.00,30.85
25466185,1923,1,177015,210611,0.34,-0.66,9.92,-0.04,-0.01,-0.01,30.85
25506872,1932,1,177248,211195,0.29,-0.68,9.97,-0.04,-0.01,-0.01,31.01
25547185,1919,1,177310,211284,0.27,-0.65,10.01,-0.03,-0.01,-0.01,31.01
25587186,1924,1,177235,210848,0.28,-0.67,9.95,-0.03,-0.01,-0.00,31.01
25627185,1904,1,176968,209703,0.32,-0.63,9.97,-0.03,-0.02,-0.00,31.01
25666185,1923,1,176452,208120,0.31,-0.63,9.95,-0.03,-0.03,-0.00,31.01
25706185,1920,1,176028,207060,0.31,-0.64,9.94,-0.03,-0.03,-0.00,31.01
25746186,1925,1,176126,209007,0.32,-0.63,9.88,-0.04,-0.00,-0.01,31.01
25786185,1907,1,178085,215808,0.31,-0.64,9.92,-0.05,0.02,-0.01,31.01
25826170,1917,1,179345,216263,0.31,-0.69,9.98,-0.05,0.01,-0.01,31.01
25866165,1906,1,179161,216133,0.29,-0.66,10.03,-0.04,-0.01,-0.01,31.01
25906186,1912,1,179003,215523,0.27,-0.64,9.92,-0.03,-0.03,-0.00,31.01
25946185,1915,1,178881,215892,0.32,-0.64,9.92,-0.03,-0.04,-0.00,31.01
25986185,1920,1,179349,217242,0.35,-0.69,9.95,-0.04,-0.02,-0.00,31.01
26026196,1917,1,179615,217400,0.30,-0.67,10.00,-0.03,-0.01,-0.00,31.01
26066185,1915,1,179489,216190,0.30,-0.65,9.96,-0.03,-0.03,-0.00,31.01
26106186,1904,1,179037,214535,0.33,-0.64,9.95,-0.03,-0.02,-0.00,31.01
26146186,1903,1,178737,214788,0.32,-0.64,9.90,-0.04,-0.00,-0.01,31.01
26186185,1899,1,179033,215757,0.33,-0.68,9.98,-0.04,0.01,-0.01,31.01
26226170,1904,1,179182,215803,0.31,-0.67,9.98,-0.03,-0.01,-0.01,31.01
26266194,1890,1,179219,216351,0.32,-0.65,9.96,-0.03,-0.01,-0.00,31.01
26306186,1913,1,179472,217145,0.32,-0.64,9.95,-0.03,-0.01,-0.01,31.01
26346185,1910,1,179710,217855,0.30,-0.64,9.92,-0.03,-0.00,-0.01,31.01
26386185,1911,1,179847,218373,0.30,-0.65,9.96,-0.03,0.00,-0.01,31.01
26426170,1923,1,179859,217594,0.32,-0.66,9.99,-0.03,-0.01,-0.00,31.01
26466218,1919,1,178740,212439,0.34,-0.66,9.97,-0.03,-0.02,-0.00,31.01
26506871,1918,1,177289,210124,0.32,-0.66,9.92,-0.03,-0.01,-0.00,30.79
26547186,1920,1,176857,208899,0.31,-0.65,9.96,-0.03,-0.01,-0.01,30.79
26587185,1915,1,176581,207799,0.33,-0.66,9.96,-0.03,-0.01,-0.00,30.79
26627187,1909,1,176342,207343,0.31,-0.65,9.95,-0.03,-0.01,-0.01,30.79
26667185,1914,1,176583,208733,0.32,-0.66,9.94,-0.04,-0.01,-0.01,30.79
26707186,1926,1,177386,211413,0.32,-0.65,9.95,-0.04,0.00,-0.01,30.79
26747170,1919,1,178121,212365,0.30,-0.65,9.98,-0.03,-0.01,-0.01,30.79
26787186,1925,1,177865,210586,0.32,-0.65,9.96,-0.03,-0.03,-0.00,30.79
26827185,1925,1,177233,209073,0.32,-0.65,9.94,-0.03,-0.02,-0.00,30.79
26867186,1920,1,176801,208328,0.29,-0.67,9.95,-0.04,0.00,-0.01,30.79
26907170,1903,1,176736,209001,0.31,-0.66,9.97,-0.04,0.00,-0.01,30.79
26947170,1920,1,177262,211187,0.30,-0.67,9.97,-0.04,-0.00,-0.01,30.79
26987186,1923,1,178197,213657,0.29,-0.64,9.95,-0.04,-0.01,-0.00,30.79
27027194,1916,1,178919,215520,0.31,-0.64,9.93,-0.03,-0.00,-0.00,30.79
27067184,1924,1,179291,215533,0.28,-0.64,9.99,-0.04,-0.00,-0.01,30.79
27107187,1920,1,178448,211901,0.30,-0.64,9.98,-0.04,-0.00,-0.00,30.79
27147186,1922,1,177469,210605,0.28,-0.66,9.98,-0.04,-0.01,-0.00,30.79
27187186,1921,1,177257,210448,0.28,-0.68,9.99,-0.03,-0.01,-0.00,30.79
27227186,1931,1,177131,210618,0.31,-0.66,9.99,-0.03,-0.03,-0.00,30.79
27267186,1927,1,177475,212329,0.31,-0.65,9.96,-0.03,-0.01,-0.00,30.79
27307186,1936,1,178357,215416,0.30,-0.64,9.94,-0.03,-0.01,-0.01,30.79
27347186,1919,1,179432,217907,0.31,-0.66,9.94,-0.03,-0.00,-0.00,30.79
27387185,1923,1,179956,219351,0.31,-0.67,9.99,-0.03,-0.01,-0.01,30.79
27427187,1931,1,180414,220472,0.28,-0.72,10.04,-0.03,0.00,-0.01,30.79
27467165,1919,1,180405,220281,0.32,-0.64,9.94,-0.03,-0.01,-0.00,30.79
27507872,1917,1,180500,220943,0.30,-0.68,9.94,-0.04,-0.00,-0.01,30.85
27546185,1904,1,180691,221257,0.27,-0.65,9.98,-0.04,-0.00,-0.01,30.85
27586187,1904,1,180640,220923,0.29,-0.65,9.97,-0.03,-0.02,-0.00,30.85
27626185,1904,1,180438,220175,0.31,-0.66,9.96,-0.03,-0.01,-0.00,30.85
27666186,1902,1,180112,219431,0.30,-0.65,9.98,-0.04,-0.01,-0.01,30.85
27706186,1897,1,180050,218968,0.29,-0.68,9.94,-0.03,-0.00,-0.01,30.85
27746187,1904,1,179191,214966,0.30,-0.65,9.95,-0.03,-0.01,-0.00,30.85
27786185,1907,1,178091,213681,0.28,-0.65,9.96,-0.03,-0.01,-0.00,30.85
27826187,1904,1,178311,215144,0.30,-0.67,9.96,-0.03,-0.01,-0.00,30.85
27866186,1907,1,178713,215391,0.29,-0.65,10.00,-0.03,-0.01,-0.00,30.85
27906186,1909,1,178571,214905,0.31,-0.65,9.96,-0.03,-0.01,-0.00,30.85
27946185,1913,1,178475,215287,0.31,-0.66,9.94,-0.03,-0.01,-0.01,30.85
27986187,1916,1,178749,215848,0.29,-0.65,9.96,-0.03,-0.01,-0.01,30.85
28026195,1917,1,178731,215874,0.29,-0.65,9.96,-0.03,-0.01,-0.00,30.85
28066187,1915,1,178776,216008,0.29,-0.66,9.97,-0.03,-0.01,-0.00,30.85
28106194,1918,1,178838,216194,0.29,-0.65,9.95,-0.03,-0.01,-0.00,30.85
28146187,1925,1,178846,216128,0.32,-0.68,9.96,-0.03,-0.01,-0.00,30.85
28186186,1917,1,178739,215973,0.29,-0.67,9.98,-0.03,-0.01,-0.00,30.85
28226187,1920,1,178633,215533,0.30,-0.66,9.99,-0.03,-0.01,-0.00,30.85
28266186,1899,1,178424,215185,0.29,-0.66,9.96,-0.03,-0.01,-0.00,30.85
28306191,1904,1,178614,216724,0.29,-0.66,9.94,-0.04,-0.01,-0.01,30.85
28346185,1919,1,179376,217494,0.28,-0.67,9.98,-0.04,0.01,-0.01,30.85
28386170,1883,1,178910,215326,0.28,-0.66,9.99,-0.04,-0.01,-0.01,30.85
28426185,1846,1,178328,214471,0.30,-0.67,9.95,-0.03,-0.02,-0.00,30.85
28466186,1887,1,178135,213771,0.29,-0.65,9.97,-0.03,-0.02,-0.00,30.85
28506185,1963,1,177799,212910,0.29,-0.64,9.97,-0.03,-0.01,-0.00,30.85
28546872,1957,1,177249,211535,0.27,-0.64,9.98,-0.03,-0.02,-0.00,30.73
28587185,1963,1,176763,210504,0.28,-0.67,9.95,-0.03,-0.01,-0.00,30.73
28627186,1975,1,176425,209891,0.28,-0.66,9.93,-0.03,-0.01,-0.01,30.73
28667185,1955,1,176361,210267,0.30,-0.68,9.96,-0.03,-0.01,-0.00,30.73
28707186,1966,1,176987,213493,0.29,-0.64,9.94,-0.04,-0.00,-0.01,30.73
28747185,1891,1,178731,218469,0.29,-0.63,9.96,-0.04,0.01,-0.01,30.73
28787170,2032,1,180109,220198,0.29,-0.67,10.00,-0.04,-0.01,-0.00,30.73
28827186,1955,1,179877,218161,0.30,-0.64,10.01,-0.03,-0.03,-0.00,30.73
28867185,1937,1,178681,214363,0.31,-0.64,9.99,-0.03,-0.02,-0.00,30.73
28907185,1918,1,177380,211531,0.31,-0.65,9.94,-0.03,-0.01,-0.00,30.73
28947186,1934,1,176691,210755,0.30,-0.66,9.92,-0.04,-0.00,-0.01,30.73
28987186,1744,1,176701,211067,0.29,-0.65,9.97,-0.04,0.00,-0.01,30.73
29027173,1937,1,176697,210889,0.30,-0.67,10.01,-0.04,-0.01,-0.01,30.73
29067186,1957,1,176940,212141,0.28,-0.67,9.97,-0.03,-0.01,-0.01,30.73
29107187,1948,1,177615,213582,0.30,-0.65,9.96,-0.03,-0.01,-0.00,30.73
29147185,1967,1,177737,213503,0.28,-0.64,9.96,-0.03,-0.01,-0.00,30.73
29187187,1948,1,177538,212941,0.30,-0.62,9.96,-0.03,-0.01,-0.01,30.73
29227185,1935,1,177414,212924,0.30,-0.67,10.00,-0.03,-0.01,-0.00,30.73
29267186,1927,1,177408,213065,0.27,-0.67,9.95,-0.03,-0.01,-0.00,30.73
29307185,1933,1,177515,213478,0.29,-0.68,9.93,-0.03,-0.01,-0.00,30.73
29347186,1917,1,177886,214709,0.31,-0.69,9.95,-0.03,-0.01,-0.01,30.73
29387185,1918,1,178355,215833,0.29,-0.64,9.98,-0.04,-0.01,-0.01,30.73
29427186,1920,1,178754,216882,0.28,-0.64,9.92,-0.03,-0.01,-0.01,30.73
29467186,1902,1,179016,217435,0.30,-0.65,9.95,-0.03,-0.01,-0.01,30.73
29507186,1919,1,179094,217353,0.29,-0.67,9.96,-0.03,-0.01,-0.00,30.73
29547871,1904,1,178954,216645,0.31,-0.67,9.98,-0.03,-0.01,-0.00,30.59
29586187,1911,1,178628,215884,0.30,-0.65,9.96,-0.03,-0.01,-0.00,30.59
29626185,1903,1,178388,214900,0.27,-0.65,9.95,-0.03,-0.01,-0.00,30.59
29666186,1887,1,177690,212672,0.31,-0.66,9.94,-0.03,-0.01,-0.01,30.59
29706185,1873,1,177299,212690,0.31,-0.68,9.95,-0.03,-0.01,-0.01,30.59
29746222,1878,1,177639,214005,0.30,-0.65,9.96,-0.04,-0.01,-0.01,30.59
29786185,1887,1,178140,215138,0.28,-0.67,9.99,-0.03,-0.01,-0.00,30.59
29826187,1886,1,178342,215620,0.30,-0.66,9.96,-0.03,-0.01,-0.00,30.59
29866185,1897,1,178590,216661,0.30,-0.66,9.99,-0.03,-0.01,-0.01,30.59
29906186,1885,1,178872,216866,0.28,-0.66,9.97,-0.03,-0.01,-0.00,30.59
29946191,1887,1,178711,216158,0.30,-0.66,9.95,-0.03,-0.01,-0.00,30.59
29986186,1893,1,178436,215577,0.29,-0.67,9.95,-0.03,-0.01,-0.00,30.59
30026196,1904,1,178264,215296,0.30,-0.66,9.96,-0.03,-0.01,-0.01,30.59
30066186,1909,1,178167,215236,0.29,-0.65,9.94,-0.03,-0.01,-0.00,30.59
30106186,1904,1,178147,215255,0.29,-0.65,9.97,-0.03,-0.01,-0.00,30.59
30146187,1925,1,178234,215413,0.31,-0.66,9.96,-0.04,-0.01,-0.00,30.59
30186186,1926,1,178225,215449,0.31,-0.66,9.95,-0.03,-0.01,-0.01,30.59
30226186,1933,1,178231,215520,0.27,-0.67,9.97,-0.03,-0.01,-0.01,30.59
30266185,1929,1,178305,215499,0.30,-0.68,9.96,-0.03,-0.01,-0.01,30.59
30306186,1929,1,177933,213135,0.31,-0.67,9.94,-0.03,-0.01,-0.01,30.59
30346185,1926,1,177102,211802,0.32,-0.67,9.93,-0.04,-0.01,-0.00,30.59
30386186,1931,1,177053,212428,0.28,-0.66,9.95,-0.04,-0.00,-0.01,30.59
30426185,1920,1,177382,213268,0.28,-0.65,9.98,-0.04,-0.01,-0.01,30.59
30466187,1920,1,177574,213566,0.30,-0.66,9.98,-0.03,-0.01,-0.01,30.59
30506184,1929,1,177690,214142,0.28,-0.66,9.95,-0.03,-0.01,-0.00,30.59
30546186,1920,1,177881,214528,0.31,-0.66,9.97,-0.03,-0.01,-0.01,30.59
30586870,1917,1,177902,214343,0.28,-0.67,9.96,-0.03,-0.01,-0.01,30.63
30627186,1918,1,177770,214048,0.29,-0.66,9.96,-0.03,-0.01,-0.01,30.63
30667185,1920,1,177660,214081,0.28,-0.66,9.96,-0.03,-0.01,-0.00,30.63
30707186,1916,1,177894,214841,0.30,-0.65,9.93,-0.04,-0.01,-0.01,30.63
30745185,1913,1,178180,215610,0.30,-0.66,9.96,-0.03,-0.01,-0.00,30.63
30785186,1933,1,178504,216712,0.31,-0.66,9.96,-0.03,-0.01,-0.01,30.63
30825186,1938,1,178949,217988,0.30,-0.66,9.96,-0.04,-0.01,-0.01,30.63
30865186,1940,1,179272,218369,0.28,-0.66,9.94,-0.03,-0.01,-0.01,30.63
30905185,1936,1,179305,218704,0.29,-0.67,9.96,-0.04,-0.01,-0.00,30.63
30945186,1937,1,178964,215414,0.28,-0.66,9.98,-0.03,-0.01,-0.00,30.63
30985186,1945,1,177780,213309,0.30,-0.64,9.95,-0.03,-0.01,-0.00,30.63
31025211,1951,1,177350,212666,0.29,-0.66,9.97,-0.03,-0.01,-0.00,30.63
31065186,1963,1,177158,212154,0.28,-0.64,9.98,-0.03,-0.01,-0.01,30.63
31105187,1967,1,176965,212166,0.31,-0.66,9.95,-0.03,-0.01,-0.00,30.63
31145186,1980,1,177338,213935,0.28,-0.66,9.93,-0.03,-0.00,-0.01,30.63
31185187,1986,1,177932,214934,0.29,-0.67,9.96,-0.03,-0.01,-0.01,30.63
31225185,1989,1,178031,214511,0.31,-0.64,9.96,-0.03,-0.01,-0.00,30.63
31265187,1997,1,177855,214855,0.31,-0.64,9.95,-0.03,-0.01,-0.01,30.63
31305186,2000,1,178008,215296,0.28,-0.63,9.99,-0.03,-0.01,-0.00,30.63
31345186,2003,1,178093,215336,0.29,-0.65,9.96,-0.03,-0.01,-0.00,30.63
31385197,2006,1,178149,215366,0.31,-0.66,9.95,-0.03,-0.01,-0.00,30.63
31425187,2019,1,178173,215514,0.31,-0.65,9.97,-0.03,-0.01,-0.00,30.63
31465186,2015,1,178217,216041,0.30,-0.65,9.96,-0.03,-0.01,-0.00,30.63
31505186,2006,1,178536,216563,0.30,-0.66,9.96,-0.04,-0.01,-0.01,30.63
31545186,2010,1,178435,214863,0.30,-0.64,9.96,-0.03,-0.01,-0.01,30.63
31585211,2007,1,177263,211557,0.31,-0.64,9.92,-0.03,-0.01,-0.00,30.63
31625871,1975,1,176590,210505,0.29,-0.64,9.99,-0.03,-0.01,-0.01,30.77
31666187,1971,1,176380,210143,0.29,-0.65,9.98,-0.03,-0.01,-0.00,30.77
31706186,1952,1,176344,209989,0.28,-0.64,9.96,-0.03,-0.01,-0.00,30.77
31746187,1945,1,176240,209992,0.28,-0.66,9.94,-0.03,-0.01,-0.00,30.77
31786211,1943,1,176409,210646,0.28,-0.65,9.99,-0.03,-0.01,-0.00,30.77
31826186,1927,1,176585,210758,0.31,-0.66,9.97,-0.03,-0.01,-0.00,30.77
31866186,1918,1,176471,210359,0.28,-0.64,9.96,-0.03,-0.01,-0.00,30.77
31906187,1920,1,176295,209722,0.29,-0.66,9.96,-0.03,-0.01,-0.00,30.77
31946185,1904,1,176022,209000,0.30,-0.68,9.95,-0.03,-0.02,-0.00,30.77
31986186,1903,1,175865,208937,0.32,-0.66,9.96,-0.03,-0.01,-0.00,30.77
32026196,1894,1,176030,209478,0.30,-0.64,9.97,-0.04,-0.01,-0.01,30.77
32066186,1881,1,176298,210741,0.32,-0.64,9.90,-0.04,-0.01,-0.01,30.77
32106185,1877,1,176914,212702,0.30,-0.66,9.96,-0.04,-0.00,-0.01,30.77
32146186,1865,1,177588,213805,0.29,-0.65,9.96,-0.04,-0.00,-0.01,30.77
32186184,1851,1,177526,211820,0.31,-0.67,9.96,-0.03,-0.01,-0.00,30.77
32226187,1842,1,176301,208490,0.31,-0.65,9.96,-0.03,-0.01,-0.00,30.77
32266185,1837,1,175343,206468,0.28,-0.66,9.99,-0.03,-0.01,-0.00,30.77
32306187,1839,1,174788,205315,0.29,-0.65,9.94,-0.03,-0.01,-0.00,30.77
32346186,1849,1,174589,204921,0.30,-0.64,9.97,-0.03,-0.02,-0.00,30.77
32386186,1840,1,174767,205861,0.33,-0.64,9.93,-0.04,-0.01,-0.00,30.77
32426186,1830,1,175270,206939,0.28,-0.65,9.98,-0.03,-0.01,-0.01,30.77
32466187,1841,1,175479,207270,0.31,-0.65,9.94,-0.03,-0.02,-0.00,30.77
32506186,1836,1,175556,207480,0.32,-0.65,9.95,-0.03,-0.01,-0.00,30.77
32546187,1831,1,175548,207481,0.30,-0.64,9.97,-0.03,-0.01,-0.00,30.77
32586185,1830,1,175656,208145,0.30,-0.65,9.96,-0.03,-0.01,-0.01,30.77
32626872,1840,1,176157,210209,0.31,-0.65,9.95,-0.04,0.00,-0.01,30.79
32665170,1840,1,177081,212472,0.30,-0.65,9.97,-0.04,-0.00,-0.01,30.79
32705186,1834,1,177480,213026,0.30,-0.65,9.96,-0.03,-0.02,-0.00,30.79
32745186,1854,1,177481,212601,0.32,-0.64,9.99,-0.03,-0.02,-0.00,30.79
32785186,1841,1,177227,211708,0.28,-0.65,9.97,-0.03,-0.01,-0.01,30.79
32825185,1855,1,176890,210833,0.29,-0.64,9.91,-0.03,-0.01,-0.00,30.79
32865187,1854,1,176616,209691,0.30,-0.65,9.96,-0.03,-0.01,-0.01,30.79
32905185,1871,1,175877,207256,0.29,-0.65,9.95,-0.03,-0.01,-0.00,30.79
32945186,1859,1,175193,206067,0.31,-0.67,9.98,-0.03,-0.01,-0.00,30.79
32985185,1859,1,175047,205872,0.28,-0.65,9.95,-0.03,-0.01,-0.01,30.79
33025210,1859,1,175041,205956,0.29,-0.64,9.95,-0.03,-0.01,-0.00,30.79
33065186,1856,1,175199,206696,0.30,-0.67,9.97,-0.03,-0.01,-0.01,30.79
33105187,1857,1,175599,208002,0.30,-0.67,9.96,-0.04,-0.01,-0.01,30.79
33145185,1858,1,176014,208709,0.28,-0.65,9.96,-0.04,-0.01,-0.01,30.79
33185187,1863,1,176099,208703,0.30,-0.65,9.97,-0.03,-0.01,-0.01,30.79
33225198,1871,1,175997,208535,0.30,-0.65,9.96,-0.03,-0.01,-0.01,30.79
33265186,1861,1,175937,208362,0.30,-0.64,9.96,-0.03,-0.01,-0.00,30.79
33305185,1867,1,175945,208344,0.30,-0.66,9.96,-0.03,-0.01,-0.00,30.79
33345186,1867,1,175916,208376,0.30,-0.66,9.95,-0.03,-0.01,-0.01,30.79
33385185,1859,1,175934,208630,0.30,-0.66,9.95,-0.03,-0.01,-0.00,30.79
33425186,1882,1,176093,209111,0.29,-0.65,9.98,-0.03,-0.01,-0.00,30.79
33465185,1887,1,176364,210002,0.29,-0.64,9.96,-0.04,-0.01,-0.01,30.79
33505187,1886,1,176743,211037,0.29,-0.67,9.96,-0.03,-0.01,-0.01,30.79
33545185,1907,1,177040,211884,0.30,-0.63,9.95,-0.04,-0.01,-0.01,30.79
33585186,1912,1,177043,210225,0.29,-0.64,9.96,-0.03,-0.01,-0.01,30.79
33625185,1910,1,176322,208532,0.28,-0.65,9.96,-0.03,-0.01,-0.00,30.79
33665872,1918,1,175943,208149,0.30,-0.67,9.94,-0.03,-0.01,-0.00,30.71
33706185,1935,1,175887,208014,0.31,-0.67,9.96,-0.03,-0.01,-0.01,30.71
33746187,1934,1,175800,207796,0.31,-0.64,9.96,-0.03,-0.01,-0.00,30.71
33786186,1947,1,175765,208019,0.30,-0.65,9.93,-0.03,-0.01,-0.00,30.71
33826186,1963,1,175959,208714,0.32,-0.64,9.95,-0.03,-0.01,-0.00,30.71
33866186,1951,1,176149,208945,0.30,-0.65,9.97,-0.04,-0.01,-0.00,30.71
33906186,1968,1,176186,208826,0.29,-0.67,10.00,-0.03,-0.01,-0.00,30.71
33946185,1968,1,175998,208024,0.31,-0.67,9.96,-0.03,-0.02,-0.00,30.71
33986186,1983,1,175738,207725,0.31,-0.66,9.94,-0.03,-0.02,-0.00,30.71
34026195,1968,1,175717,207854,0.32,-0.65,9.98,-0.03,-0.01,-0.00,30.71
34066186,1985,1,175884,208821,0.29,-0.66,9.97,-0.04,-0.01,-0.01,30.71
34106186,1963,1,176519,211105,0.28,-0.66,9.97,-0.04,-0.00,-0.01,30.71
34146186,1980,1,177368,213288,0.30,-0.66,9.95,-0.04,-0.00,-0.01,30.71
34186185,1968,1,177762,213408,0.27,-0.66,9.95,-0.03,-0.01,-0.00,30.71
34226186,1984,1,177341,211482,0.29,-0.64,9.97,-0.03,-0.02,-0.00,30.71
34266185,1986,1,176723,209897,0.28,-0.64,9.96,-0.03,-0.01,-0.00,30.71
34306187,1985,1,176006,206949,0.30,-0.65,9.97,-0.04,-0.01,-0.01,30.71
34346185,1977,1,174867,204162,0.31,-0.64,9.95,-0.03,-0.01,-0.00,30.71
34386187,1975,1,174288,203479,0.32,-0.66,9.96,-0.03,-0.02,-0.00,30.71
34426185,1959,1,174404,203971,0.29,-0.65,9.99,-0.03,-0.01,-0.00,30.71
34466186,1965,1,174682,204832,0.32,-0.65,9.98,-0.04,-0.01,-0.01,30.71
34506185,1968,1,175058,206194,0.31,-0.65,9.98,-0.03,-0.01,-0.00,30.71
34546187,1965,1,175620,207606,0.28,-0.64,9.95,-0.03,-0.01,-0.01,30.71
34586186,1961,1,175962,208291,0.30,-0.65,9.97,-0.03,-0.01,-0.00,30.71
34626186,1955,1,176032,208337,0.31,-0.69,9.99,-0.03,-0.01,-0.00,30.71
34665871,1951,1,175981,208151,0.30,-0.65,9.95,-0.03,-0.01,-0.00,30.77
34706186,1953,1,175972,208450,0.31,-0.64,9.97,-0.03,-0.01,-0.00,30.77
34746186,1954,1,176276,209715,0.30,-0.68,9.99,-0.04,-0.01,-0.01,30.77
34786186,1936,1,176691,210759,0.29,-0.64,9.98,-0.03,-0.01,-0.01,30.77
34826185,1950,1,176965,211334,0.30,-0.64,9.94,-0.03,-0.01,-0.00,30.77
34866236,1938,1,177056,211615,0.30,-0.65,9.95,-0.03,-0.01,-0.00,30.77
34906185,1936,1,177206,212104,0.32,-0.67,9.98,-0.03,-0.01,-0.00,30.77
34946186,1934,1,177259,211239,0.29,-0.66,9.96,-0.03,-0.01,-0.00,30.77
34986186,1936,1,176397,208236,0.31,-0.64,9.96,-0.03,-0.01,-0.01,30.77
35026198,1934,1,175660,207079,0.29,-0.65,9.97,-0.03,-0.01,-0.01,30.77
35066185,1913,1,175579,207326,0.30,-0.65,9.96,-0.03,-0.01,-0.00,30.77
35106186,1920,1,175751,207976,0.31,-0.67,9.97,-0.04,-0.01,-0.01,30.77
35146186,1921,1,176057,208895,0.30,-0.65,9.96,-0.03,-0.01,-0.01,30.77
35186186,1903,1,176447,210084,0.29,-0.67,9.95,-0.03,-0.01,-0.01,30.77
35226185,1894,1,176784,210648,0.28,-0.65,9.98,-0.03,-0.01,-0.00,30.77
35266186,1875,1,176787,210343,0.32,-0.66,9.97,-0.03,-0.01,-0.00,30.77
35306185,1879,1,176549,209564,0.29,-0.64,9.98,-0.03,-0.01,-0.00,30.77
35346186,1872,1,176218,208621,0.30,-0.66,9.99,-0.03,-0.02,-0.00,30.77
35386185,1873,1,175931,208014,0.31,-0.65,9.94,-0.03,-0.02,-0.00,30.77
35426186,1869,1,175843,208007,0.30,-0.63,9.96,-0.03,-0.01,-0.00,30.77
35466185,1899,1,175869,208285,0.30,-0.65,9.97,-0.03,-0.01,-0.00,30.77
35506186,1901,1,176080,209037,0.29,-0.66,9.96,-0.03,-0.01,-0.00,30.77
35546186,1906,1,176418,210013,0.31,-0.68,9.94,-0.03,-0.01,-0.00,30.77
35586186,1899,1,176701,210441,0.30,-0.64,9.96,-0.03,-0.01,-0.01,30.77
35626185,1919,1,176438,208430,0.29,-0.66,9.94,-0.03,-0.01,-0.00,30.77
35666186,1931,1,175760,207068,0.27,-0.64,9.96,-0.03,-0.01,-0.01,30.77
35705871,1942,1,175512,207041,0.30,-0.66,9.98,-0.03,-0.01,-0.01,30.65
35746186,1975,1,175657,207655,0.30,-0.66,9.96,-0.03,-0.01,-0.00,30.65
35786185,2000,1,175900,208388,0.31,-0.64,9.97,-0.03,-0.01,-0.00,30.65
35826186,2019,1,176250,209541,0.29,-0.65,9.96,-0.03,-0.01,-0.01,30.65
35866185,2057,1,176636,210533,0.29,-0.65,9.96,-0.03,-0.01,-0.00,30.65
35906186,2076,1,176865,210941,0.33,-0.64,9.97,-0.03,-0.01,-0.00,30.65
35946185,2099,1,176994,211419,0.31,-0.63,9.98,-0.03,-0.01,-0.01,30.65
35986187,2119,1,177184,211957,0.29,-0.66,9.98,-0.03,-0.01,-0.00,30.65
36026197,2117,1,177356,212280,0.30,-0.66,9.95,-0.03,-0.01,-0.00,30.65
36066186,2116,1,177378,212379,0.30,-0.66,9.96,-0.03,-0.01,-0.00,30.65
36106185,2122,1,177353,212621,0.29,-0.66,9.94,-0.03,-0.01,-0.01,30.65
36146186,2109,1,177628,213360,0.28,-0.66,9.98,-0.03,-0.01,-0.01,30.65
36186185,2112,1,177851,214424,0.28,-0.66,9.98,-0.04,-0.01,-0.01,30.65
36226187,2090,1,178261,215419,0.30,-0.67,9.96,-0.04,-0.01,-0.00,30.65
36266186,2096,1,178400,213944,0.30,-0.66,9.96,-0.03,-0.01,-0.00,30.65
36306186,2081,1,177240,210779,0.31,-0.65,9.92,-0.03,-0.01,-0.00,30.65
36346186,2067,1,176745,210488,0.30,-0.64,9.99,-0.04,-0.01,-0.00,30.65
36386186,2063,1,176849,210978,0.27,-0.64,9.95,-0.03,-0.01,-0.00,30.65
36426185,2014,1,176977,211294,0.29,-0.63,9.96,-0.03,-0.01,-0.00,30.65
36466186,2005,1,177081,211984,0.29,-0.65,9.96,-0.03,-0.01,-0.00,30.65
36506196,2018,1,177422,212918,0.29,-0.65,9.93,-0.04,-0.01,-0.00,30.65
36546186,1984,1,177600,213108,0.29,-0.65,9.95,-0.03,-0.01,-0.00,30.65
36586186,1947,1,177572,213092,0.31,-0.67,9.97,-0.03,-0.01,-0.00,30.65
36626186,1936,1,177569,213419,0.29,-0.63,9.95,-0.03,-0.01,-0.01,30.65
36666185,1917,1,177770,213925,0.31,-0.63,9.93,-0.03,-0.01,-0.01,30.65
36707186,1920,1,177886,214353,0.29,-0.67,9.95,-0.03,-0.01,-0.00,30.65
36745871,1893,1,178036,214602,0.29,-0.67,9.97,-0.03,-0.01,-0.01,30.65
36786187,1903,1,178109,214956,0.30,-0.65,9.97,-0.03,-0.01,-0.01,30.65
36826185,1891,1,178218,215452,0.30,-0.67,9.98,-0.03,-0.01,-0.00,30.65
36866186,1874,1,178375,215958,0.31,-0.65,9.95,-0.03,-0.01,-0.01,30.65
36906202,1868,1,178437,215611,0.29,-0.66,9.95,-0.03,-0.01,-0.00,30.65
36946186,1859,1,177821,212540,0.28,-0.68,9.96,-0.04,-0.01,-0.01,30.65
36986185,1866,1,177113,211653,0.29,-0.66,9.98,-0.04,-0.01,-0.01,30.65
37026197,1865,1,177114,212109,0.30,-0.64,9.96,-0.03,-0.01,-0.00,30.65
37066185,1863,1,177340,212724,0.29,-0.65,9.98,-0.03,-0.01,-0.01,30.65
37106187,1886,1,177434,213052,0.30,-0.67,9.96,-0.03,-0.01,-0.00,30.65
37146185,1878,1,177577,213586,0.28,-0.66,9.96,-0.03,-0.01,-0.01,30.65
37186187,1872,1,177681,213518,0.30,-0.68,9.95,-0.03,-0.01,-0.01,30.65
37226185,1853,1,177542,213355,0.30,-0.66,9.95,-0.03,-0.01,-0.00,30.65
37266186,1840,1,177553,213380,0.30,-0.64,9.96,-0.03,-0.01,-0.00,30.65
37306185,1834,1,177607,213809,0.30,-0.66,9.96,-0.03,-0.01,-0.00,30.65
37346186,1830,1,177860,214660,0.30,-0.67,9.94,-0.03,-0.01,-0.00,30.65
37386185,1817,1,178172,215489,0.29,-0.66,9.94,-0.03,-0.01,-0.01,30.65
37426187,1834,1,178463,216346,0.28,-0.65,9.98,-0.03,-0.01,-0.01,30.65
37466185,1820,1,178619,216620,0.31,-0.66,9.96,-0.03,-0.01,-0.00,30.65
37506186,1831,1,178643,216706,0.29,-0.64,9.98,-0.03,-0.01,-0.00,30.65
37546186,1840,1,178593,215452,0.28,-0.66,9.96,-0.03,-0.01,-0.01,30.65
37586186,1841,1,177686,212601,0.30,-0.66,9.95,-0.03,-0.01,-0.00,30.65
37626185,1855,1,177221,212175,0.29,-0.63,9.99,-0.03,-0.01,-0.01,30.65
37666187,1865,1,177255,212428,0.31,-0.63,9.95,-0.03,-0.01,-0.00,30.65
37706185,1877,1,177269,212530,0.30,-0.64,9.94,-0.03,-0.01,-0.00,30.65
37745186,1890,1,177284,212935,0.29,-0.64,9.96,-0.03,-0.01,-0.01,30.65
37785871,1895,1,177578,213937,0.29,-0.67,9.99,-0.03,-0.01,-0.00,30.59
37826187,1908,1,177841,214399,0.29,-0.67,9.95,-0.03,-0.01,-0.00,30.59
37866185,1916,1,177900,214686,0.29,-0.67,9.94,-0.03,-0.01,-0.01,30.59
37906187,1936,1,178073,215184,0.32,-0.66,9.96,-0.03,-0.01,-0.00,30.59
37946186,1916,1,178226,215644,0.31,-0.65,9.96,-0.03,-0.01,-0.01,30.59
37986187,1935,1,178402,216126,0.30,-0.65,9.99,-0.03,-0.01,-0.01,30.59
38026196,1931,1,178481,216483,0.30,-0.64,9.95,-0.03,-0.01,-0.01,30.59
38066186,1934,1,178727,217325,0.30,-0.69,9.95,-0.03,-0.01,-0.01,30.59
38106185,1929,1,178870,217460,0.29,-0.67,9.97,-0.03,-0.01,-0.00,30.59
38146186,1939,1,178817,217229,0.30,-0.67,9.96,-0.03,-0.01,-0.00,30.59
38186185,1931,1,178645,214993,0.31,-0.65,9.99,-0.03,-0.01,-0.01,30.59
38226186,1925,1,177290,211628,0.29,-0.65,9.99,-0.03,-0.01,-0.00,30.59
38266186,1925,1,176707,211196,0.30,-0.66,9.93,-0.03,-0.01,-0.00,30.59
38306186,1919,1,177054,213260,0.31,-0.65,9.94,-0.04,-0.00,-0.01,30.59
38346191,1936,1,177866,214371,0.29,-0.66,9.99,-0.04,0.00,-0.01,30.59
38386170,1918,1,177679,212991,0.30,-0.66,9.99,-0.03,-0.02,-0.00,30.59
38426185,1919,1,177081,211946,0.31,-0.65,9.97,-0.03,-0.02,-0.00,30.59
38466186,1920,1,176890,211995,0.29,-0.65,9.95,-0.03,-0.01,-0.00,30.59
38506185,1904,1,177047,212513,0.30,-0.65,9.96,-0.03,-0.01,-0.01,30.59
38546211,1889,1,177229,213106,0.33,-0.67,9.98,-0.03,-0.02,-0.00,30.59
38586185,1893,1,177415,213502,0.33,-0.68,10.00,-0.03,-0.01,-0.01,30.59
38626187,1890,1,177539,213669,0.30,-0.65,9.96,-0.03,-0.01,-0.01,30.59
38666186,1888,1,177459,213554,0.30,-0.64,9.95,-0.03,-0.01,-0.00,30.59
38706186,1904,1,177505,213955,0.31,-0.65,9.95,-0.03,-0.01,-0.01,30.59
38746186,1905,1,177677,214471,0.30,-0.66,9.96,-0.03,-0.01,-0.01,30.59
38785872,1916,1,177797,214562,0.30,-0.66,9.92,-0.03,-0.01,-0.01,30.71
38826185,1915,1,177687,213763,0.29,-0.65,9.96,-0.03,-0.01,-0.00,30.71
38866187,1925,1,177027,210922,0.27,-0.67,9.98,-0.03,-0.01,-0.00,30.71
38906185,1929,1,176165,209287,0.31,-0.65,9.95,-0.03,-0.01,-0.01,30.71
38946187,1923,1,175806,208641,0.29,-0.67,9.96,-0.03,-0.01,-0.00,30.71
38986185,1925,1,175677,208586,0.31,-0.64,9.94,-0.03,-0.01,-0.01,30.71
39026197,1921,1,175777,209102,0.29,-0.64,10.00,-0.04,-0.01,-0.00,30.71
39066185,1915,1,176036,210206,0.29,-0.67,9.96,-0.04,-0.01,-0.01,30.71
39106187,1911,1,176564,211583,0.29,-0.65,9.97,-0.03,-0.01,-0.01,30.71
39146185,1918,1,176906,212148,0.30,-0.65,9.95,-0.03,-0.01,-0.00,30.71
39186186,1914,1,177006,212189,0.29,-0.64,9.95,-0.03,-0.01,-0.01,30.71
39226185,1909,1,176882,211845,0.29,-0.65,9.96,-0.03,-0.01,-0.01,30.71
39266187,1904,1,176747,211557,0.30,-0.65,9.96,-0.03,-0.01,-0.00,30.71
39306185,1894,1,176709,211781,0.32,-0.65,9.93,-0.03,-0.01,-0.00,30.71
39346186,1872,1,176884,212503,0.27,-0.65,9.96,-0.03,-0.01,-0.00,30.71
39386186,1883,1,177194,213532,0.29,-0.64,9.96,-0.03,-0.01,-0.00,30.71
39426186,1890,1,177579,214591,0.32,-0.64,9.96,-0.03,-0.01,-0.00,30.71
39466186,1883,1,177883,215118,0.30,-0.66,9.97,-0.04,-0.01,-0.01,30.71
39506186,1875,1,177904,214266,0.30,-0.65,9.94,-0.03,-0.01,-0.00,30.71
39546185,1872,1,176969,210817,0.32,-0.65,9.97,-0.03,-0.01,-0.00,30.71
39586186,1872,1,176136,209598,0.30,-0.64,9.96,-0.03,-0.01,-0.01,30.71
39626185,1885,1,176011,209690,0.29,-0.64,9.98,-0.03,-0.01,-0.00,30.71
39666187,1872,1,176017,209679,0.30,-0.67,9.97,-0.03,-0.01,-0.01,30.71
39706185,1865,1,176005,209826,0.30,-0.65,9.96,-0.03,-0.01,-0.00,30.71
39746186,1870,1,176181,210725,0.29,-0.66,9.96,-0.03,-0.01,-0.00,30.71
39785871,1853,1,176623,211875,0.29,-0.66,9.97,-0.03,-0.01,-0.01,30.65
39826187,1867,1,176921,212500,0.32,-0.65,9.97,-0.03,-0.01,-0.00,30.65
39866185,1872,1,177088,212835,0.30,-0.67,9.96,-0.04,-0.01,-0.00,30.65
39906186,1885,1,177153,212948,0.29,-0.66,9.95,-0.03,-0.01,-0.01,30.65
39946185,1887,1,177149,213165,0.28,-0.64,9.97,-0.03,-0.01,-0.01,30.65
39986214,1893,1,177288,213632,0.30,-0.65,9.95,-0.03,-0.01,-0.00,30.65
40026195,1890,1,177376,213742,0.31,-0.66,9.95,-0.03,-0.01,-0.00,30.65
40066186,1922,1,177408,213870,0.31,-0.66,9.96,-0.03,-0.01,-0.00,30.65
40106185,1922,1,177405,213883,0.28,-0.68,9.95,-0.03,-0.01,-0.00,30.65
40146186,1930,1,177463,214133,0.30,-0.65,9.96,-0.03,-0.01,-0.00,30.65
40186195,1921,1,177448,213766,0.30,-0.66,9.96,-0.03,-0.01,-0.00,30.65
40226186,1931,1,176907,210937,0.32,-0.64,9.97,-0.03,-0.01,-0.00,30.65
40266186,1915,1,176110,209766,0.30,-0.66,9.96,-0.03,-0.01,-0.00,30.65
40306186,1936,1,175997,209855,0.30,-0.66,9.95,-0.04,-0.01,-0.01,30.65
40346185,1926,1,176014,209909,0.32,-0.65,9.97,-0.03,-0.01,-0.00,30.65
40386186,1948,1,176063,210425,0.32,-0.67,9.95,-0.03,-0.00,-0.01,30.65
40426185,1951,1,176402,211434,0.29,-0.65,9.97,-0.04,-0.01,-0.00,30.65
40466187,1939,1,176670,211672,0.27,-0.67,9.97,-0.03,-0.01,-0.00,30.65
40506186,1951,1,176528,211131,0.30,-0.68,9.93,-0.03,-0.01,-0.00,30.65
40546186,1942,1,176322,210794,0.29,-0.64,9.99,-0.03,-0.01,-0.01,30.65
40586185,1942,1,176304,210832,0.32,-0.66,9.98,-0.03,-0.01,-0.00,30.65
40626186,1934,1,176398,211520,0.31,-0.66,9.96,-0.03,-0.01,-0.00,30.65
40666185,1920,1,176743,212811,0.31,-0.65,9.95,-0.03,-0.01,-0.00,30.65
40706187,1936,1,177382,215003,0.29,-0.65,9.96,-0.04,-0.00,-0.01,30.65
40746185,1918,1,178088,216506,0.29,-0.65,10.00,-0.04,-0.00,-0.00,30.65
40786186,1918,1,178369,216695,0.31,-0.65,9.95,-0.03,-0.01,-0.00,30.65
40826871,1913,1,178277,216304,0.30,-0.66,9.96,-0.03,-0.01,-0.00,30.57
40865186,1911,1,177815,213023,0.31,-0.66,9.98,-0.03,-0.01,-0.01,30.57
40905185,1917,1,176518,210581,0.30,-0.64,9.93,-0.03,-0.01,-0.00,30.57
40945186,1924,1,176112,209943,0.30,-0.66,9.97,-0.03,-0.01,-0.01,30.57
40985185,1927,1,175932,209716,0.28,-0.66,9.99,-0.03,-0.01,-0.00,30.57
41025211,1927,1,175974,210358,0.31,-0.65,9.93,-0.04,-0.01,-0.01,30.57
41065185,1933,1,176579,212863,0.30,-0.67,9.93,-0.04,-0.00,-0.01,30.57
41105186,1943,1,177800,216379,0.29,-0.66,9.96,-0.04,-0.00,-0.01,30.57
41145185,1929,1,178745,218030,0.29,-0.65,9.98,-0.04,-0.01,-0.01,30.57
41185187,1953,1,179026,218048,0.28,-0.66,9.96,-0.03,-0.01,-0.01,30.57
41225186,1958,1,178789,217325,0.29,-0.66,9.97,-0.03,-0.02,-0.00,30.57
41265186,1962,1,178484,216774,0.29,-0.66,9.97,-0.03,-0.01,-0.00,30.57
41305186,1964,1,178382,217054,0.30,-0.67,9.94,-0.03,-0.01,-0.00,30.57
41345186,1962,1,178601,217764,0.31,-0.67,9.97,-0.04,-0.01,-0.01,30.57
41385185,1955,1,178853,218604,0.32,-0.66,9.96,-0.03,-0.01,-0.01,30.57
41425187,1957,1,179257,219679,0.29,-0.65,9.96,-0.04,-0.01,-0.00,30.57
41465185,1946,1,179536,219901,0.27,-0.63,9.98,-0.03,-0.01,-0.00,30.57
41505186,1957,1,179322,217727,0.27,-0.65,9.96,-0.03,-0.01,-0.01,30.57
41545185,1955,1,177965,214038,0.33,-0.65,9.95,-0.03,-0.01,-0.00,30.57
41585187,1970,1,177440,213919,0.29,-0.64,9.95,-0.03,-0.01,-0.01,30.57
41625196,1967,1,177590,214122,0.28,-0.67,9.97,-0.03,-0.01,-0.01,30.57
41665187,1955,1,177396,213302,0.29,-0.68,9.96,-0.03,-0.01,-0.00,30.57
41705185,1949,1,177006,212449,0.29,-0.68,10.00,-0.03,-0.02,-0.00,30.57
41745186,1936,1,176854,212499,0.33,-0.66,9.96,-0.03,-0.01,-0.00,30.57
41785185,1938,1,176869,212511,0.29,-0.64,9.97,-0.03,-0.01,-0.00,30.57
41825213,1927,1,176811,212304,0.32,-0.66,9.93,-0.03,-0.01,-0.00,30.57
41865871,1941,1,176864,212686,0.32,-0.64,9.94,-0.03,-0.01,-0.00,30.59
41906187,1923,1,177077,213204,0.30,-0.64,9.98,-0.03,-0.01,-0.01,30.59
41946185,1941,1,177185,213287,0.29,-0.64,9.96,-0.03,-0.01,-0.01,30.59
41986187,1936,1,177126,213000,0.32,-0.66,10.00,-0.03,-0.01,-0.00,30.59
42026215,1933,1,176983,212668,0.28,-0.66,9.99,-0.03,-0.01,-0.00,30.59
42066187,1925,1,176930,212980,0.31,-0.66,9.93,-0.03,-0.01,-0.01,30.59
42106185,1923,1,177212,214085,0.30,-0.68,9.92,-0.04,-0.01,-0.00,30.59
42146186,1921,1,177681,215558,0.30,-0.63,9.96,-0.04,-0.01,-0.01,30.59
42186185,1927,1,177954,214347,0.28,-0.65,9.96,-0.04,-0.01,-0.01,30.59
42226187,1909,1,177091,212312,0.29,-0.65,9.98,-0.04,-0.01,-0.01,30.59
42266185,1937,1,176824,212324,0.30,-0.66,9.97,-0.03,-0.01,-0.00,30.59
42306186,1919,1,176975,212874,0.30,-0.65,9.96,-0.04,-0.01,-0.00,30.59
42346185,1942,1,177151,213364,0.30,-0.64,9.98,-0.04,-0.01,-0.00,30.59
42386186,1926,1,177336,214290,0.30,-0.65,9.98,-0.03,-0.01,-0.00,30.59
42426185,1935,1,177815,215637,0.29,-0.66,9.97,-0.03,-0.01,-0.00,30.59
42466186,1921,1,178178,216590,0.30,-0.64,9.98,-0.03,-0.01,-0.00,30.59
42506185,1963,1,178426,217186,0.31,-0.68,9.95,-0.03,-0.01,-0.01,30.59
42546187,1946,1,178566,217560,0.29,-0.66,9.96,-0.03,-0.01,-0.01,30.59
42586185,1950,1,178734,218147,0.30,-0.67,9.94,-0.03,-0.01,-0.00,30.59
42626186,1941,1,178970,218738,0.31,-0.67,9.96,-0.03,-0.01,-0.00,30.59
42666186,1951,1,179039,218736,0.29,-0.67,9.97,-0.03,-0.01,-0.00,30.59
42706186,1946,1,179056,219084,0.31,-0.67,9.96,-0.03,-0.01,-0.00,30.59
42746186,1936,1,179178,219385,0.31,-0.67,9.95,-0.03,-0.01,-0.00,30.59
42786187,1926,1,179215,219437,0.31,-0.64,9.96,-0.03,-0.01,-0.00,30.59
42826185,1937,1,179230,219337,0.30,-0.66,9.97,-0.03,-0.01,-0.00,30.59
42866872,1936,1,178971,217294,0.30,-0.66,9.95,-0.03,-0.01,-0.00,30.63
42905185,1934,1,177585,213145,0.33,-0.65,9.93,-0.03,-0.01,-0.00,30.63
42945186,1933,1,176815,212370,0.31,-0.63,9.94,-0.03,-0.01,-0.01,30.63
42985185,1925,1,176814,212653,0.30,-0.64,9.95,-0.03,-0.01,-0.01,30.63
43025211,1945,1,176996,213193,0.32,-0.65,9.96,-0.04,-0.01,-0.00,30.63
43065186,1941,1,177182,214200,0.32,-0.67,9.95,-0.04,-0.01,-0.01,30.63
43105187,1936,1,177701,215838,0.30,-0.68,9.97,-0.04,-0.01,-0.01,30.63
43145185,1933,1,178165,216859,0.31,-0.66,9.99,-0.04,-0.01,-0.01,30.63
43185187,1923,1,178449,217629,0.29,-0.67,9.98,-0.03,-0.01,-0.01,30.63
43225185,1918,1,178628,217995,0.29,-0.65,9.96,-0.03,-0.01,-0.00,30.63
43265186,1926,1,178723,218138,0.32,-0.64,9.97,-0.03,-0.01,-0.00,30.63
43305186,1922,1,178777,218490,0.28,-0.67,9.96,-0.03,-0.01,-0.00,30.63
43345186,1904,1,179004,219279,0.29,-0.67,9.96,-0.03,-0.01,-0.01,30.63
43385185,1934,1,179375,220550,0.29,-0.67,9.95,-0.03,-0.01,-0.00,30.63
43425186,1920,1,179834,221425,0.30,-0.66,9.98,-0.03,-0.01,-0.01,30.63
43465190,1928,1,179993,221682,0.30,-0.66,9.96,-0.03,-0.01,-0.01,30.63
43505186,1920,1,179978,221374,0.28,-0.66,9.93,-0.04,-0.01,-0.00,30.63
43545186,1920,1,179332,217708,0.30,-0.67,9.96,-0.03,-0.01,-0.01,30.63
43585186,1933,1,178227,215894,0.31,-0.67,9.97,-0.03,-0.01,-0.01,30.63
43625185,1943,1,178053,215714,0.29,-0.67,9.96,-0.03,-0.01,-0.01,30.63
43665187,1925,1,177900,215725,0.28,-0.66,9.95,-0.03,-0.01,-0.00,30.63
43705186,1942,1,178176,217053,0.32,-0.64,9.96,-0.03,-0.01,-0.01,30.63
43745187,1954,1,178849,218967,0.28,-0.67,9.95,-0.04,-0.01,-0.00,30.63
43785185,1968,1,179361,219800,0.27,-0.67,9.98,-0.03,-0.01,-0.00,30.63
43825186,2000,1,179427,219775,0.29,-0.65,9.96,-0.03,-0.01,-0.00,30.63
43865185,2031,1,179398,219625,0.29,-0.68,9.98,-0.03,-0.01,-0.01,30.63
43905873,2032,1,179305,219511,0.29,-0.65,9.97,-0.03,-0.01,-0.00,30.53
43946185,2053,1,179286,219791,0.28,-0.65,9.99,-0.03,-0.01,-0.00,30.53
43986187,2061,1,179520,220349,0.28,-0.66,9.93,-0.03,-0.01,-0.01,30.53
44026196,2097,1,179640,220518,0.29,-0.65,9.96,-0.03,-0.01,-0.00,30.53
44066187,2107,1,179601,220485,0.28,-0.64,9.99,-0.03,-0.01,-0.00,30.53
44106185,2101,1,179657,220783,0.30,-0.66,9.98,-0.03,-0.01,-0.01,30.53
44146186,2109,1,179672,220394,0.29,-0.65,9.98,-0.03,-0.01,-0.00,30.53
44186186,2098,1,178997,216192,0.31,-0.67,9.98,-0.03,-0.01,-0.00,30.53
44226187,2101,1,177610,214203,0.32,-0.67,9.95,-0.03,-0.01,-0.01,30.53
44266185,2091,1,177479,214620,0.31,-0.67,9.95,-0.03,-0.01,-0.01,30.53
44306187,2085,1,177704,214852,0.29,-0.66,9.97,-0.03,-0.01,-0.01,30.53
44346186,2064,1,177679,214763,0.31,-0.65,9.96,-0.03,-0.01,-0.01,30.53
44386187,2061,1,177659,215007,0.31,-0.64,9.95,-0.03,-0.01,-0.00,30.53
44426186,2035,1,177795,215369,0.32,-0.67,9.95,-0.03,-0.01,-0.00,30.53
44466187,2022,1,177725,215186,0.32,-0.68,9.97,-0.03,-0.01,-0.00,30.53
44506186,1990,1,177889,215896,0.31,-0.65,9.98,-0.03,-0.01,-0.00,30.53
44546186,1969,1,178150,216615,0.29,-0.67,9.94,-0.03,-0.01,-0.01,30.53
44586185,1946,1,178374,217002,0.30,-0.65,9.95,-0.03,-0.01,-0.00,30.53
44626186,1927,1,178407,217229,0.31,-0.65,9.96,-0.03,-0.01,-0.00,30.53
44666186,1924,1,178618,218098,0.29,-0.65,9.94,-0.03,-0.01,-0.01,30.53
44706187,1894,1,178858,218371,0.30,-0.67,9.96,-0.04,-0.01,-0.00,30.53
44746185,1882,1,178837,218586,0.31,-0.65,9.95,-0.03,-0.01,-0.00,30.53
44786186,1877,1,179041,218995,0.29,-0.65,9.95,-0.04,-0.01,-0.01,30.53
44826185,1861,1,178828,216234,0.30,-0.66,9.98,-0.03,-0.01,-0.00,30.53
44866186,1866,1,177401,213200,0.31,-0.64,9.96,-0.04,-0.01,-0.01,30.53
44906871,1865,1,176892,212595,0.31,-0.67,9.98,-0.03,-0.01,-0.00,30.45
44945186,1872,1,176853,212809,0.31,-0.65,9.97,-0.03,-0.01,-0.01,30.45
44985185,1851,1,177055,213474,0.31,-0.66,9.95,-0.03,-0.01,-0.00,30.45
45025211,1856,1,177267,214268,0.28,-0.66,9.95,-0.04,-0.01,-0.01,30.45
45065185,1858,1,177614,215502,0.32,-0.68,9.96,-0.03,-0.01,-0.00,30.45
45105228,1842,1,178054,216284,0.29,-0.65,9.96,-0.03,-0.01,-0.01,30.45
45145185,1840,1,178284,216644,0.28,-0.66,9.97,-0.03,-0.01,-0.00,30.45
45185187,1846,1,178310,216929,0.31,-0.67,9.97,-0.03,-0.01,-0.00,30.45
45225185,1856,1,178405,217381,0.30,-0.66,9.95,-0.03,-0.01,-0.00,30.45
45265186,1840,1,178681,218181,0.30,-0.63,9.96,-0.04,-0.01,-0.00,30.45
45305229,1824,1,178971,218811,0.28,-0.66,9.98,-0.04,-0.01,-0.00,30.45
45345186,1842,1,179067,219294,0.29,-0.68,9.97,-0.03,-0.01,-0.00,30.45
45385185,1847,1,179288,219831,0.31,-0.68,9.93,-0.03,-0.01,-0.00,30.45
45425186,1828,1,179503,220631,0.29,-0.64,9.95,-0.03,-0.01,-0.00,30.45
45465186,1840,1,179829,221097,0.30,-0.66,9.98,-0.04,-0.01,-0.01,30.45
45505187,1845,1,179614,218423,0.28,-0.68,9.98,-0.03,-0.01,-0.01,30.45
45545186,1845,1,178258,215453,0.31,-0.67,9.94,-0.03,-0.01,-0.00,30.45
45585187,1834,1,177873,215484,0.29,-0.66,9.98,-0.04,-0.01,-0.01,30.45
45625185,1849,1,178120,216607,0.30,-0.64,9.95,-0.03,-0.01,-0.00,30.45
45665186,1872,1,178515,217157,0.29,-0.65,9.99,-0.03,-0.01,-0.01,30.45
45705185,1883,1,178580,217481,0.30,-0.66,9.95,-0.03,-0.01,-0.01,30.45
45745187,1897,1,178717,217990,0.29,-0.67,9.94,-0.03,-0.01,-0.00,30.45
45785185,1889,1,178785,218197,0.31,-0.67,9.97,-0.03,-0.01,-0.00,30.45
45825187,1899,1,178949,218721,0.28,-0.65,9.98,-0.03,-0.01,-0.00,30.45
45865185,1900,1,179030,218568,0.29,-0.67,9.95,-0.03,-0.01,-0.00,30.45
45905186,1898,1,178822,218113,0.31,-0.65,9.96,-0.03,-0.02,-0.00,30.45
45945871,1905,1,178732,217972,0.27,-0.63,9.93,-0.03,-0.01,-0.00,30.57
45986187,1901,1,178698,217809,0.31,-0.66,9.97,-0.03,-0.01,-0.00,30.57
46026196,1911,1,178545,217605,0.29,-0.65,9.99,-0.03,-0.01,-0.00,30.57
46066187,1917,1,178545,217662,0.33,-0.65,9.95,-0.03,-0.01,-0.00,30.57
46106186,1929,1,178665,218216,0.30,-0.63,9.96,-0.03,-0.01,-0.00,30.57
46146186,1925,1,178806,218245,0.29,-0.67,9.98,-0.03,-0.01,-0.01,30.57
46186185,1919,1,178431,215305,0.32,-0.67,9.93,-0.03,-0.01,-0.00,30.57
46226187,1922,1,177239,212939,0.30,-0.64,9.94,-0.03,-0.01,-0.00,30.57
46266185,1932,1,176737,212201,0.33,-0.67,9.96,-0.03,-0.01,-0.00,30.57
46306187,1955,1,176561,211953,0.29,-0.65,9.96,-0.03,-0.01,-0.01,30.57
46346185,1952,1,176420,211642,0.27,-0.64,9.98,-0.03,-0.01,-0.01,30.57
46386187,1929,1,176387,212040,0.30,-0.66,9.94,-0.03,-0.01,-0.01,30.57
46426185,1934,1,176900,214262,0.32,-0.67,9.94,-0.04,-0.01,-0.01,30.57
46466187,1951,1,178081,218452,0.30,-0.66,9.97,-0.04,0.01,-0.01,30.57
46506170,1942,1,179689,220931,0.27,-0.66,9.95,-0.04,0.01,-0.01,30.57
46546170,1943,1,179758,219868,0.32,-0.65,9.88,-0.03,-0.02,-0.00,30.57
46586185,1943,1,179024,217708,0.32,-0.65,9.99,-0.03,-0.03,-0.00,30.57
46626187,1936,1,178209,216007,0.30,-0.67,9.96,-0.03,-0.01,-0.00,30.57
46666185,1936,1,177716,214828,0.30,-0.65,9.96,-0.03,-0.01,-0.00,30.57
46706186,1933,1,177287,213946,0.29,-0.67,9.97,-0.03,-0.01,-0.01,30.57
46746192,1923,1,177094,213630,0.30,-0.67,9.97,-0.03,-0.02,-0.00,30.57
46786186,1929,1,177030,213413,0.30,-0.67,9.95,-0.03,-0.01,-0.00,30.57
46826185,1924,1,176728,211548,0.28,-0.65,9.94,-0.03,-0.01,-0.00,30.57
46866187,1929,1,175736,208830,0.31,-0.64,9.96,-0.03,-0.01,-0.00,30.57
46906185,1938,1,174986,207631,0.29,-0.67,9.97,-0.03,-0.01,-0.00,30.57
46946899,1947,1,174827,207344,0.30,-0.64,9.95,-0.03,-0.01,-0.00,30.47
46985185,1945,1,174648,206740,0.32,-0.66,9.95,-0.03,-0.01,-0.01,30.47
47025211,1933,1,174323,205824,0.30,-0.65,9.96,-0.03,-0.02,-0.00,30.47
47065185,1951,1,174105,205269,0.32,-0.65,9.98,-0.03,-0.02,-0.00,30.47
47105186,1943,1,173950,204925,0.31,-0.66,9.97,-0.03,-0.01,-0.00,30.47
47145206,1936,1,173897,204640,0.32,-0.67,9.95,-0.03,-0.01,-0.01,30.47
47185187,1947,1,173943,204852,0.33,-0.67,9.97,-0.03,-0.01,-0.01,30.47
47225185,1936,1,174089,205373,0.30,-0.65,9.95,-0.03,-0.01,-0.00,30.47
47265186,1943,1,174350,206167,0.31,-0.63,9.95,-0.03,-0.01,-0.01,30.47
47305185,1923,1,174584,206763,0.31,-0.66,9.99,-0.03,-0.01,-0.00,30.47
47345186,1947,1,174837,207643,0.30,-0.65,9.94,-0.04,-0.01,-0.01,30.47
47385185,1942,1,175134,208414,0.30,-0.66,9.97,-0.03,-0.01,-0.00,30.47
47425186,1958,1,175450,209407,0.30,-0.66,9.94,-0.04,-0.01,-0.01,30.47
47465185,1937,1,175757,209478,0.30,-0.63,9.99,-0.04,-0.01,-0.00,30.47
47505186,1950,1,175224,207120,0.31,-0.67,9.97,-0.03,-0.01,-0.01,30.47
47545185,1941,1,174497,205702,0.30,-0.66,9.95,-0.03,-0.01,-0.00,30.47
47585186,1931,1,174239,205521,0.30,-0.65,9.96,-0.03,-0.01,-0.01,30.47
47625185,1936,1,174322,205750,0.29,-0.67,9.96,-0.03,-0.01,-0.01,30.47
47665187,1936,1,174431,206052,0.29,-0.65,9.97,-0.03,-0.01,-0.01,30.47
47705186,1937,1,174632,206489,0.31,-0.65,9.98,-0.03,-0.01,-0.00,30.47
47745186,1936,1,174734,206733,0.30,-0.68,9.97,-0.03,-0.01,-0.00,30.47
47786185,1938,1,174809,206768,0.30,-0.65,9.96,-0.03,-0.01,-0.01,30.47
47826186,1930,1,174709,206519,0.28,-0.64,9.97,-0.03,-0.01,-0.00,30.47
47866185,1919,1,174725,206642,0.32,-0.66,9.96,-0.03,-0.01,-0.01,30.47
47906187,1936,1,174783,206711,0.28,-0.65,9.95,-0.03,-0.01,-0.00,30.47
47946871,1916,1,174711,206632,0.30,-0.66,9.95,-0.03,-0.01,-0.00,30.39
47985186,1936,1,174662,206558,0.29,-0.65,9.95,-0.03,-0.01,-0.01,30.39
48025210,1934,1,174632,206703,0.30,-0.66,9.95,-0.03,-0.01,-0.01,30.39
48065186,1920,1,174890,207662,0.29,-0.64,9.96,-0.04,-0.01,-0.01,30.39
48105185,1939,1,175323,208466,0.29,-0.64,9.95,-0.04,-0.01,-0.00,30.39
48145186,1920,1,175180,207092,0.29,-0.66,9.96,-0.04,-0.01,-0.00,30.39
48185185,1927,1,174714,206400,0.29,-0.64,9.98,-0.03,-0.01,-0.00,30.39
48225187,1936,1,174847,207017,0.27,-0.64,9.97,-0.03,-0.01,-0.00,30.39
48265185,1942,1,175001,207146,0.30,-0.63,9.96,-0.03,-0.02,-0.00,30.39
48305186,1943,1,175035,207038,0.30,-0.66,9.93,-0.03,-0.02,-0.01,30.39
48345185,1939,1,175270,208248,0.30,-0.66,9.93,-0.04,-0.01,-0.00,30.39
48385186,1936,1,175729,209144,0.29,-0.68,9.96,-0.04,-0.01,-0.00,30.39
48425185,1945,1,175876,209540,0.32,-0.63,9.98,-0.03,-0.01,-0.01,30.39
48465187,1945,1,175970,209907,0.31,-0.66,9.96,-0.03,-0.01,-0.01,30.39
48505185,1936,1,176052,210227,0.32,-0.64,9.98,-0.03,-0.01,-0.00,30.39
48545187,1938,1,176219,210664,0.29,-0.66,9.97,-0.03,-0.01,-0.01,30.39
48585185,1925,1,176334,211020,0.31,-0.65,9.96,-0.03,-0.01,-0.00,30.39
48625186,1931,1,176482,211517,0.31,-0.67,9.96,-0.03,-0.01,-0.00,30.39
48665185,1937,1,176680,211906,0.31,-0.64,9.98,-0.04,-0.01,-0.00,30.39
48705187,1937,1,176709,212140,0.30,-0.64,9.95,-0.03,-0.01,-0.01,30.39
48745185,1939,1,176846,212474,0.30,-0.65,9.95,-0.04,-0.01,-0.01,30.39
48785186,1937,1,176832,211709,0.31,-0.66,9.95,-0.03,-0.01,-0.00,30.39
48825186,1951,1,176110,209351,0.31,-0.66,9.93,-0.03,-0.01,-0.00,30.39
48865186,1936,1,175669,208892,0.32,-0.65,9.97,-0.04,-0.01,-0.01,30.39
48905185,1945,1,175688,209247,0.30,-0.65,9.98,-0.03,-0.01,-0.01,30.39
48945187,1936,1,175832,209571,0.31,-0.67,9.95,-0.03,-0.01,-0.01,30.39
48985871,1936,1,175931,210103,0.30,-0.65,9.95,-0.03,-0.01,-0.00,30.45
49026196,1941,1,176252,210912,0.30,-0.65,9.98,-0.03,-0.01,-0.01,30.45
49066185,1936,1,176317,210929,0.29,-0.66,9.95,-0.03,-0.01,-0.00,30.45
49106186,1935,1,176278,210789,0.29,-0.67,9.96,-0.03,-0.01,-0.01,30.45
49146185,1935,1,176219,210887,0.30,-0.66,9.96,-0.03,-0.01,-0.01,30.45
49186186,1931,1,176432,211734,0.31,-0.66,9.92,-0.03,-0.01,-0.00,30.45
49226185,1934,1,176677,212143,0.32,-0.64,9.97,-0.03,-0.01,-0.00,30.45
49266187,1920,1,176767,212691,0.30,-0.64,9.96,-0.03,-0.01,-0.01,30.45
49306185,1946,1,177046,213601,0.30,-0.65,9.96,-0.03,-0.01,-0.00,30.45
49346186,1936,1,177363,214354,0.30,-0.67,9.95,-0.03,-0.01,-0.01,30.45
49386185,1931,1,177673,215079,0.28,-0.67,9.97,-0.03,-0.01,-0.00,30.45
49426187,1930,1,177687,214022,0.29,-0.65,9.98,-0.03,-0.01,-0.00,30.45
49466185,1921,1,176642,210424,0.30,-0.64,9.95,-0.03,-0.01,-0.00,30.45
49506186,1922,1,175777,209033,0.29,-0.65,9.98,-0.03,-0.01,-0.00,30.45
49546186,1902,1,175484,208807,0.29,-0.65,9.93,-0.03,-0.01,-0.00,30.45
49586186,1922,1,175536,208891,0.29,-0.67,9.96,-0.03,-0.01,-0.00,30.45
49626186,1921,1,175610,208962,0.28,-0.66,9.95,-0.03,-0.01,-0.00,30.45
49666187,1933,1,175716,209667,0.30,-0.65,9.96,-0.03,-0.01,-0.01,30.45
49706185,1919,1,175983,210216,0.31,-0.67,9.97,-0.03,-0.01,-0.00,30.45
49746186,1925,1,176061,210295,0.31,-0.66,9.96,-0.03,-0.01,-0.01,30.45
49786185,1909,1,176099,210536,0.31,-0.66,9.97,-0.03,-0.01,-0.01,30.45
49826187,1921,1,176216,210747,0.32,-0.67,9.96,-0.03,-0.01,-0.01,30.45
49866185,1931,1,176227,210790,0.30,-0.68,9.97,-0.03,-0.01,-0.00,30.45
49906186,1907,1,176246,211214,0.29,-0.66,9.97,-0.03,-0.01,-0.00,30.45
49946185,1918,1,176566,212287,0.30,-0.66,9.97,-0.03,-0.01,-0.00,30.45
49986872,1929,1,176901,213072,0.28,-0.65,9.96,-0.03,-0.01,-0.00,30.51
50025210,1931,1,177102,213354,0.30,-0.66,9.98,-0.03,-0.01,-0.01,30.51
50065186,1930,1,176990,212059,0.27,-0.65,9.98,-0.03,-0.01,-0.00,30.51
50105186,1945,1,176080,209166,0.29,-0.68,9.95,-0.03,-0.01,-0.00,30.51
50145187,1927,1,175338,207922,0.28,-0.66,9.96,-0.03,-0.01,-0.00,30.51
50185185,1925,1,175136,207792,0.28,-0.64,9.96,-0.03,-0.01,-0.01,30.51
50225224,1919,1,175189,207981,0.27,-0.64,9.95,-0.03,-0.01,-0.01,30.51
50265185,1931,1,175256,208196,0.30,-0.64,9.97,-0.03,-0.01,-0.01,30.51
50305187,1921,1,175448,208852,0.31,-0.65,9.97,-0.03,-0.01,-0.00,30.51
50345185,1921,1,175645,209292,0.28,-0.65,9.97,-0.03,-0.01,-0.00,30.51
50385187,1937,1,175675,209264,0.26,-0.65,9.97,-0.03,-0.01,-0.00,30.51
50425229,1929,1,175703,209490,0.29,-0.67,9.93,-0.03,-0.01,-0.00,30.51
50465186,1929,1,175806,209642,0.29,-0.66,9.97,-0.04,-0.01,-0.01,30.51
50505185,1936,1,175779,209674,0.31,-0.68,9.95,-0.03,-0.01,-0.00,30.51
50545186,1904,1,175829,209752,0.32,-0.65,9.95,-0.03,-0.01,-0.00,30.51
50585186,1933,1,175888,210220,0.28,-0.64,9.95,-0.03,-0.01,-0.00,30.51
50625186,1922,1,176110,210802,0.28,-0.67,9.96,-0.03,-0.01,-0.00,30.51
50665185,1929,1,176316,211399,0.30,-0.65,9.96,-0.03,-0.01,-0.01,30.51
50705186,1936,1,176522,211572,0.29,-0.66,9.96,-0.03,-0.01,-0.00,30.51
50745186,1948,1,176127,209445,0.30,-0.66,9.96,-0.03,-0.01,-0.00,30.51
50785186,1946,1,175456,208184,0.29,-0.66,9.96,-0.03,-0.01,-0.00,30.51
50825186,1935,1,175216,207674,0.32,-0.65,9.98,-0.03,-0.01,-0.01,30.51
50866187,1957,1,174991,207118,0.29,-0.65,9.97,-0.03,-0.01,-0.00,30.51
50906186,1945,1,174816,207141,0.27,-0.66,9.94,-0.03,-0.01,-0.00,30.51
50946186,1931,1,175093,208247,0.31,-0.65,9.94,-0.04,-0.01,-0.01,30.51
50986871,1936,1,175664,209679,0.29,-0.63,9.96,-0.04,-0.01,-0.00,30.57
51025210,1940,1,176054,210702,0.28,-0.67,9.93,-0.04,-0.01,-0.00,30.57
51065186,1921,1,176428,211739,0.31,-0.66,9.97,-0.04,-0.01,-0.00,30.57
51105187,1920,1,176762,212433,0.29,-0.66,9.98,-0.04,-0.01,-0.01,30.57
51145185,1938,1,176931,212807,0.28,-0.66,9.96,-0.03,-0.01,-0.01,30.57
51185187,1936,1,176978,213347,0.28,-0.67,9.95,-0.03,-0.01,-0.01,30.57
51225185,1939,1,177449,215219,0.31,-0.66,9.95,-0.04,-0.01,-0.00,30.57
51265186,1930,1,178211,217043,0.28,-0.66,9.93,-0.03,0.00,-0.01,30.57
51305170,1921,1,178622,218000,0.29,-0.69,9.97,-0.04,-0.01,-0.00,30.57
51345186,1931,1,178867,218088,0.30,-0.66,9.97,-0.03,-0.01,-0.01,30.57
51385185,1937,1,178632,216265,0.29,-0.64,9.96,-0.03,-0.02,-0.00,30.57
51425187,1925,1,177604,213544,0.32,-0.66,9.95,-0.03,-0.01,-0.00,30.57
51465185,1930,1,177258,213812,0.29,-0.67,9.97,-0.03,-0.01,-0.01,30.57
51505187,1928,1,177834,216408,0.30,-0.64,9.93,-0.04,-0.01,-0.01,30.57
51545185,1929,1,178817,218666,0.29,-0.69,10.00,-0.03,-0.00,-0.01,30.57
51585186,1926,1,179428,220239,0.29,-0.65,9.95,-0.04,-0.02,-0.01,30.57
51625185,1926,1,180235,222124,0.30,-0.64,9.96,-0.04,-0.01,-0.00,30.57
51665186,1920,1,180906,223242,0.29,-0.66,9.94,-0.04,-0.01,-0.00,30.57
51705186,1926,1,181262,223830,0.30,-0.63,9.98,-0.03,-0.01,-0.00,30.57
51745186,1922,1,181568,224383,0.30,-0.65,9.94,-0.04,-0.03,-0.00,30.57
51785185,1935,1,181836,225141,0.30,-0.65,9.93,-0.04,-0.01,-0.01,30.57
51825186,1923,1,182082,225435,0.29,-0.65,9.96,-0.03,-0.01,-0.00,30.57
51866194,1921,1,182070,225317,0.30,-0.66,9.95,-0.03,-0.01,-0.00,30.57
51906186,1945,1,181879,224906,0.31,-0.68,9.95,-0.03,-0.01,-0.00,30.57
51946185,1938,1,181758,224987,0.34,-0.64,9.94,-0.03,-0.01,-0.00,30.57
51986187,1936,1,181814,225024,0.32,-0.66,9.98,-0.03,-0.01,-0.01,30.57
52026882,1921,1,181894,225257,0.31,-0.65,9.94,-0.03,-0.01,-0.00,31.41
52065224,1922,1,182516,227207,0.34,-0.65,9.89,-0.04,-0.00,-0.01,31.41
52105185,1929,1,184512,230539,0.31,-0.67,9.96,-0.04,0.02,-0.01,31.41
52145170,1935,1,186322,232254,0.28,-0.68,9.96,-0.04,-0.00,-0.01,31.41
52185185,1917,1,186727,231753,0.27,-0.66,9.99,-0.03,-0.02,-0.00,31.41
52225187,1922,1,186138,230921,0.28,-0.66,9.96,-0.03,-0.02,-0.00,31.41
52265201,1925,1,186140,231340,0.30,-0.69,9.95,-0.04,-0.01,-0.01,31.41
52305186,1929,1,186316,231621,0.31,-0.69,9.97,-0.03,-0.01,-0.00,31.41
52345185,1917,1,186304,231295,0.29,-0.65,10.00,-0.03,-0.02,-0.01,31.41
52385186,1919,1,185847,230160,0.29,-0.66,9.96,-0.03,-0.02,-0.00,31.41
52425186,1920,1,185029,228327,0.28,-0.65,9.96,-0.03,-0.02,-0.00,31.41
52465186,1920,1,183978,226616,0.28,-0.63,9.94,-0.03,-0.03,-0.00,31.41
52505185,1934,1,183165,225265,0.32,-0.67,9.94,-0.03,-0.02,-0.00,31.41
52545187,1936,1,182742,226042,0.33,-0.66,9.95,-0.03,-0.02,-0.00,31.41
52585185,1933,1,183285,227851,0.34,-0.65,9.93,-0.04,-0.01,-0.01,31.41
52625187,1935,1,183685,228206,0.30,-0.67,10.00,-0.04,-0.00,-0.01,31.41
52665186,1933,1,183496,227721,0.31,-0.65,9.98,-0.03,-0.01,-0.00,31.41
52705186,1933,1,183085,226494,0.32,-0.67,9.96,-0.03,-0.02,-0.00,31.41
52745186,1920,1,182232,223424,0.32,-0.67,9.96,-0.03,-0.02,-0.00,31.41
52785186,1925,1,181261,221587,0.34,-0.65,9.96,-0.03,-0.02,-0.00,31.41
52825185,1925,1,180908,221031,0.31,-0.68,9.99,-0.03,-0.02,-0.00,31.41
52865186,1916,1,180839,221264,0.35,-0.65,9.96,-0.04,-0.01,-0.00,31.41
52905185,1933,1,180987,221952,0.33,-0.66,9.97,-0.04,-0.01,-0.01,31.41
52945187,1931,1,181356,223102,0.33,-0.65,9.96,-0.03,-0.01,-0.00,31.41
52985185,1934,1,181648,223789,0.33,-0.66,9.98,-0.03,-0.01,-0.00,31.41
53025211,1936,1,181850,224391,0.32,-0.67,9.97,-0.04,-0.01,-0.01,31.41
53065871,1936,1,182039,224923,0.32,-0.66,9.98,-0.04,-0.01,-0.00,32.09
53106186,1937,1,182224,225327,0.32,-0.67,9.95,-0.04,-0.01,-0.01,32.09
53146185,1931,1,182119,225097,0.38,-0.68,10.02,-0.03,-0.02,-0.01,32.09
53186187,1938,1,182190,225395,0.32,-0.66,9.96,-0.03,-0.01,-0.01,32.09
53226185,1943,1,182307,225892,0.31,-0.67,9.96,-0.03,-0.01,-0.01,32.09
53266187,1933,1,182482,226402,0.32,-0.65,9.98,-0.03,-0.02,-0.00,32.09
53306185,1936,1,182655,226768,0.34,-0.66,9.98,-0.04,-0.01,-0.00,32.09
53346186,1934,1,182772,227112,0.31,-0.66,9.95,-0.04,-0.01,-0.01,32.09
53386185,1930,1,182755,226481,0.31,-0.68,9.96,-0.04,-0.01,-0.00,32.09
53426186,1934,1,182328,225339,0.33,-0.65,9.98,-0.03,-0.01,-0.01,32.09
53466185,1933,1,182227,225064,0.32,-0.68,9.96,-0.03,-0.01,-0.01,32.09
53506187,1933,1,182016,224631,0.33,-0.65,9.96,-0.03,-0.02,-0.00,32.09
53546185,1935,1,181991,225316,0.34,-0.64,9.95,-0.03,-0.02,-0.00,32.09
53586186,1936,1,182367,226533,0.34,-0.67,9.95,-0.04,-0.00,-0.00,32.09
53626185,1933,1,182718,227034,0.29,-0.67,9.98,-0.04,-0.00,-0.01,32.09
53666186,1942,1,182762,226906,0.32,-0.66,9.96,-0.03,-0.02,-0.00,32.09
53706205,1936,1,182701,226698,0.32,-0.68,9.96,-0.03,-0.01,-0.00,32.09
53746186,1939,1,182683,226733,0.33,-0.65,9.96,-0.03,-0.01,-0.01,32.09
53786185,1933,1,182697,226750,0.32,-0.67,9.99,-0.03,-0.01,-0.00,32.09
53826186,1922,1,182628,226439,0.31,-0.66,9.97,-0.03,-0.01,-0.00,32.09
53866185,1923,1,182496,226477,0.33,-0.65,9.93,-0.03,-0.01,-0.00,32.09
53906215,1925,1,182633,226726,0.34,-0.69,9.94,-0.03,-0.01,-0.01,32.09
53946185,1919,1,182777,227350,0.32,-0.67,9.96,-0.04,-0.01,-0.00,32.09
53986186,1934,1,183126,228160,0.33,-0.66,9.94,-0.04,-0.00,-0.01,32.09
54026196,1917,1,183324,228051,0.30,-0.66,9.99,-0.04,-0.01,-0.00,32.09
54066871,1920,1,183015,226587,0.32,-0.66,9.95,-0.03,-0.01,-0.00,32.11
54105186,1917,1,182655,226370,0.34,-0.67,9.94,-0.04,-0.01,-0.01,32.11
54145187,1919,1,182728,226629,0.33,-0.66,9.96,-0.03,-0.01,-0.01,32.11
54185185,1920,1,182698,226276,0.29,-0.65,9.97,-0.03,-0.01,-0.01,32.11
54225187,1923,1,182471,225899,0.31,-0.68,9.94,-0.03,-0.01,-0.00,32.11
54265185,1927,1,182367,225921,0.34,-0.65,9.91,-0.03,-0.02,-0.00,32.11
54305186,1918,1,182377,225824,0.34,-0.69,9.96,-0.03,-0.01,-0.01,32.11
54345185,1920,1,182169,225470,0.36,-0.64,9.86,-0.03,-0.02,-0.01,32.11
54385187,1918,1,182152,225614,0.31,-0.67,9.99,-0.04,-0.01,-0.01,32.11
54425185,1917,1,182158,225562,0.34,-0.68,9.96,-0.03,-0.01,-0.00,32.11
54465187,1922,1,182109,225448,0.33,-0.66,9.96,-0.03,-0.01,-0.00,32.11
54505186,1926,1,182067,225592,0.33,-0.66,9.94,-0.03,-0.01,-0.00,32.11
54545187,1935,1,182116,225722,0.33,-0.67,9.98,-0.03,-0.01,-0.00,32.11
54585185,1931,1,182134,225663,0.32,-0.68,9.98,-0.03,-0.01,-0.01,32.11
54625187,1935,1,182104,225705,0.32,-0.65,9.97,-0.03,-0.01,-0.00,32.11
54665186,1927,1,182011,224693,0.32,-0.66,9.92,-0.03,-0.01,-0.00,32.11
54705186,1921,1,181193,221369,0.33,-0.65,9.99,-0.03,-0.01,-0.00,32.11
54745186,1922,1,180429,220224,0.32,-0.67,9.95,-0.03,-0.01,-0.01,32.11
54785187,1929,1,180247,220054,0.34,-0.68,9.97,-0.03,-0.01,-0.00,32.11
54825186,1935,1,180222,220156,0.34,-0.67,9.97,-0.03,-0.01,-0.01,32.11
54865187,1927,1,180388,220710,0.32,-0.67,9.96,-0.03,-0.01,-0.00,32.11
54905185,1931,1,180692,221748,0.32,-0.66,9.96,-0.03,-0.01,-0.00,32.11
54945186,1932,1,180918,222081,0.32,-0.67,9.98,-0.03,-0.01,-0.00,32.11
54985185,1923,1,180947,222199,0.32,-0.65,9.97,-0.03,-0.01,-0.01,32.11
55025210,1925,1,180985,222212,0.31,-0.67,9.97,-0.03,-0.01,-0.01,32.11
55065185,1921,1,180954,222237,0.32,-0.67,9.95,-0.03,-0.01,-0.00,32.11
55105872,1930,1,180926,222331,0.33,-0.65,9.95,-0.03,-0.01,-0.01,31.95
55146185,1911,1,180985,222617,0.30,-0.67,9.98,-0.03,-0.01,-0.00,31.95
55186186,1935,1,181101,223012,0.32,-0.66,9.97,-0.03,-0.01,-0.01,31.95
55226185,1929,1,181207,223469,0.33,-0.68,9.95,-0.03,-0.01,-0.00,31.95
55266186,1936,1,181364,224108,0.32,-0.65,9.94,-0.03,-0.01,-0.01,31.95
55306186,1936,1,181626,224056,0.34,-0.64,9.95,-0.03,-0.01,-0.01,31.95
55346197,1924,1,180987,219974,0.32,-0.66,9.97,-0.03,-0.01,-0.00,31.95
55386186,1936,1,179496,217037,0.31,-0.66,9.97,-0.03,-0.02,-0.00,31.95
55426187,1934,1,178885,216191,0.32,-0.66,9.97,-0.03,-0.02,-0.01,31.95
55466185,1931,1,178783,216280,0.32,-0.68,9.96,-0.04,-0.01,-0.01,31.95
55506187,1933,1,178886,216963,0.30,-0.66,9.96,-0.03,-0.01,-0.00,31.95
55546196,1936,1,179371,218816,0.34,-0.67,9.96,-0.03,-0.01,-0.01,31.95
55586187,1930,1,180004,220077,0.32,-0.68,9.96,-0.04,-0.01,-0.01,31.95
55626185,1923,1,180120,220063,0.32,-0.66,9.98,-0.03,-0.01,-0.00,31.95
55666187,1934,1,180044,219709,0.33,-0.66,9.93,-0.03,-0.01,-0.01,31.95
55706185,1933,1,179950,219657,0.32,-0.65,9.97,-0.03,-0.01,-0.01,31.95
55746187,1929,1,179933,219801,0.30,-0.67,9.96,-0.03,-0.01,-0.00,31.95
55786185,1932,1,180006,220070,0.33,-0.66,9.96,-0.03,-0.01,-0.00,31.95
55826186,1931,1,180148,220707,0.32,-0.68,9.97,-0.03,-0.01,-0.00,31.95
55866185,1937,1,180370,221168,0.29,-0.66,9.99,-0.03,-0.01,-0.00,31.95
55906186,1924,1,180514,221743,0.31,-0.65,9.93,-0.03,-0.01,-0.00,31.95
55946185,1930,1,180729,222311,0.32,-0.64,9.97,-0.03,-0.01,-0.01,31.95
55986187,1932,1,180834,221197,0.32,-0.66,9.97,-0.03,-0.01,-0.01,31.95
56026197,1911,1,179832,217985,0.33,-0.65,9.98,-0.04,-0.01,-0.01,31.95
56066186,1913,1,179303,217745,0.32,-0.67,9.95,-0.04,-0.01,-0.01,31.95
56106871,1915,1,179568,218494,0.30,-0.65,9.96,-0.03,-0.01,-0.00,31.89
56145187,1920,1,179767,218938,0.35,-0.67,9.97,-0.03,-0.01,-0.01,31.89
56185185,1933,1,179913,219569,0.32,-0.65,9.96,-0.03,-0.01,-0.01,31.89
56225187,1933,1,180375,221060,0.30,-0.64,9.97,-0.03,-0.01,-0.01,31.89
56265185,1930,1,180696,221507,0.29,-0.68,9.95,-0.03,-0.01,-0.00,31.89
56305186,1930,1,180645,221567,0.31,-0.66,9.97,-0.03,-0.01,-0.00,31.89
56345185,1921,1,180782,221895,0.32,-0.67,9.95,-0.03,-0.01,-0.00,31.89
56385186,1927,1,180864,222093,0.35,-0.66,9.93,-0.04,-0.01,-0.00,31.89
56425185,1933,1,180878,222285,0.34,-0.65,9.95,-0.03,-0.01,-0.01,31.89
56465187,1933,1,180965,222555,0.29,-0.64,9.99,-0.03,-0.01,-0.01,31.89
56505185,1917,1,181008,222577,0.29,-0.68,9.98,-0.03,-0.01,-0.00,31.89
56545186,1929,1,181011,222794,0.32,-0.69,9.95,-0.03,-0.01,-0.00,31.89
56585185,1936,1,181190,223585,0.37,-0.66,9.96,-0.03,-0.01,-0.00,31.89
56625187,1920,1,181477,224374,0.32,-0.65,9.96,-0.04,-0.01,-0.01,31.89
56665185,1920,1,181699,224472,0.30,-0.63,9.98,-0.04,-0.01,-0.01,31.89
56705187,1915,1,181260,220952,0.33,-0.64,9.98,-0.03,-0.01,-0.00,31.89
56745185,1920,1,179864,218188,0.31,-0.68,9.93,-0.03,-0.01,-0.01,31.89
56785186,1916,1,179421,218017,0.31,-0.68,9.92,-0.03,-0.01,-0.01,31.89
56825186,1905,1,179554,218367,0.31,-0.65,9.97,-0.03,-0.01,-0.01,31.89
56865187,1920,1,179687,218803,0.30,-0.65,9.97,-0.03,-0.01,-0.00,31.89
56905185,1917,1,179943,219823,0.30,-0.66,9.99,-0.03,-0.01,-0.00,31.89
56945186,1933,1,180292,220728,0.31,-0.67,9.97,-0.03,-0.01,-0.00,31.89
56985195,1935,1,180463,221067,0.32,-0.67,9.96,-0.03,-0.01,-0.00,31.89
57025210,1936,1,180614,221591,0.31,-0.67,9.96,-0.03,-0.01,-0.01,31.89
57065185,1945,1,180775,221989,0.29,-0.65,9.95,-0.03,-0.01,-0.00,31.89
57105187,1941,1,180864,222213,0.28,-0.66,9.95,-0.03,-0.01,-0.01,31.89
57145871,1938,1,180827,222171,0.30,-0.67,9.98,-0.03,-0.01,-0.00,31.85
57184194,1950,1,180831,222458,0.33,-0.68,9.98,-0.03,-0.01,-0.01,31.85
57224186,1972,1,180978,222808,0.31,-0.65,9.97,-0.03,-0.01,-0.00,31.85
57264186,1949,1,181074,223072,0.31,-0.66,9.99,-0.03,-0.01,-0.01,31.85
57306185,1953,1,181129,223304,0.29,-0.64,9.97,-0.03,-0.01,-0.00,31.85
57346186,1958,1,181161,223496,0.31,-0.65,9.98,-0.03,-0.01,-0.01,31.85
57386207,1964,1,181185,223607,0.32,-0.64,9.96,-0.03,-0.01,-0.00,31.85
57426187,1974,1,181170,223198,0.31,-0.68,9.95,-0.03,-0.01,-0.01,31.85
57466185,1968,1,180457,218999,0.33,-0.66,9.96,-0.03,-0.01,-0.00,31.85
57506186,1969,1,179180,217276,0.34,-0.67,9.96,-0.03,-0.01,-0.01,31.85
57546185,1971,1,179059,217438,0.31,-0.68,9.96,-0.03,-0.01,-0.01,31.85
57586187,1981,1,179211,217957,0.32,-0.63,9.96,-0.03,-0.01,-0.00,31.85
57626185,1984,1,179395,218316,0.30,-0.66,9.97,-0.03,-0.01,-0.01,31.85
57666186,1978,1,179429,218794,0.32,-0.67,9.97,-0.03,-0.01,-0.00,31.85
57704185,2000,1,179846,220213,0.31,-0.66,9.92,-0.03,-0.01,-0.01,31.85
57744187,2000,1,180298,221392,0.29,-0.66,9.95,-0.04,-0.01,-0.01,31.85
57784185,2010,1,180632,222332,0.31,-0.66,9.96,-0.04,-0.01,-0.00,31.85
57824186,2000,1,180826,222336,0.32,-0.63,9.96,-0.03,-0.01,-0.00,31.85
57864185,1990,1,180573,221153,0.32,-0.67,9.99,-0.03,-0.02,-0.00,31.85
57904186,1990,1,180061,220102,0.34,-0.66,9.95,-0.03,-0.02,-0.00,31.85
57944186,1971,1,179862,220242,0.32,-0.65,9.92,-0.03,-0.01,-0.01,31.85
57984186,1959,1,179999,220931,0.33,-0.66,9.95,-0.04,-0.01,-0.00,31.85
58024199,1966,1,180282,221803,0.31,-0.67,9.97,-0.03,-0.01,-0.00,31.85
58064186,1959,1,180575,222410,0.32,-0.65,9.97,-0.03,-0.01,-0.00,31.85
58104185,1945,1,180730,222738,0.31,-0.64,9.96,-0.03,-0.01,-0.00,31.85
58144186,1951,1,180751,221954,0.30,-0.65,9.96,-0.03,-0.01,-0.01,31.85
58184871,1926,1,179761,217868,0.31,-0.65,9.96,-0.03,-0.01,-0.00,31.69
58225186,1933,1,178751,216619,0.31,-0.68,9.92,-0.03,-0.01,-0.00,31.69
58265185,1925,1,178591,216405,0.31,-0.67,9.96,-0.03,-0.01,-0.01,31.69
58305187,1934,1,178523,216344,0.33,-0.66,9.95,-0.03,-0.01,-0.01,31.69
58345185,1935,1,178573,216712,0.32,-0.67,9.98,-0.03,-0.01,-0.00,31.69
58385186,1950,1,178875,218092,0.31,-0.64,9.99,-0.03,-0.01,-0.01,31.69
58425185,1962,1,179443,219447,0.31,-0.65,9.96,-0.03,-0.01,-0.00,31.69
58465186,1973,1,179683,219839,0.33,-0.67,9.95,-0.03,-0.01,-0.00,31.69
58505185,1983,1,179760,220243,0.33,-0.66,9.96,-0.03,-0.01,-0.00,31.69
58545187,2007,1,180016,221239,0.32,-0.66,9.96,-0.03,-0.01,-0.01,31.69
58585186,2028,1,180356,222073,0.32,-0.65,9.95,-0.04,-0.01,-0.01,31.69
58625186,2042,1,180572,222456,0.31,-0.63,9.97,-0.03,-0.01,-0.00,31.69
58665185,2065,1,180724,223078,0.34,-0.68,9.96,-0.03,-0.01,-0.01,31.69
58705187,2061,1,180932,223827,0.32,-0.67,9.94,-0.03,-0.01,-0.01,31.69
58745185,2086,1,181186,224142,0.32,-0.65,9.96,-0.03,-0.01,-0.00,31.69
58785187,2097,1,181223,224068,0.30,-0.65,9.97,-0.03,-0.01,-0.01,31.69
58825185,2096,1,181110,223647,0.31,-0.64,9.98,-0.03,-0.01,-0.00,31.69
58865186,2101,1,180775,221350,0.31,-0.66,9.96,-0.03,-0.02,-0.00,31.69
58905185,2084,1,179135,216285,0.31,-0.67,9.93,-0.03,-0.01,-0.00,31.69
58945186,2092,1,178084,215377,0.30,-0.65,9.96,-0.03,-0.01,-0.01,31.69
58985185,2079,1,178255,216446,0.32,-0.67,9.96,-0.04,-0.00,-0.01,31.69
59025210,2061,1,178690,217281,0.33,-0.66,9.98,-0.04,-0.01,-0.00,31.69
59065185,2032,1,178885,217859,0.32,-0.67,9.96,-0.03,-0.01,-0.00,31.69
59105186,2015,1,179163,219000,0.32,-0.66,9.92,-0.03,-0.01,-0.00,31.69
59145186,1996,1,179526,219458,0.30,-0.66,9.98,-0.03,-0.01,-0.00,31.69
59185872,1973,1,179451,219355,0.32,-0.64,9.94,-0.03,-0.01,-0.00,31.61
59224185,1962,1,179555,219964,0.30,-0.68,9.96,-0.03,-0.01,-0.00,31.61
59264186,1951,1,179947,221507,0.33,-0.67,9.93,-0.04,-0.01,-0.00,31.61
59304186,1936,1,180388,222308,0.32,-0.68,9.99,-0.04,-0.01,-0.00,31.61
59344186,1904,1,180457,222114,0.30,-0.66,9.95,-0.03,-0.01,-0.00,31.61
59384185,1892,1,180297,221720,0.31,-0.65,9.97,-0.03,-0.01,-0.00,31.61
59424186,1869,1,180173,221570,0.33,-0.67,9.94,-0.03,-0.01,-0.00,31.61
59464186,1868,1,180165,221878,0.33,-0.67,9.96,-0.03,-0.01,-0.01,31.61
59504187,1869,1,180346,222291,0.33,-0.67,9.96,-0.03,-0.01,-0.00,31.61
59544185,1866,1,180512,222756,0.34,-0.63,9.96,-0.03,-0.01,-0.00,31.61
59584186,1856,1,180606,222901,0.30,-0.67,9.97,-0.03,-0.01,-0.01,31.61
59624185,1858,1,180200,220184,0.33,-0.68,9.95,-0.04,-0.01,-0.00,31.61
59664186,1851,1,179335,219234,0.32,-0.64,9.93,-0.03,-0.01,-0.00,31.61
59704185,1856,1,179384,220039,0.33,-0.66,9.96,-0.03,-0.01,-0.00,31.61
59744186,1854,1,179659,220725,0.31,-0.67,9.97,-0.03,-0.01,-0.01,31.61
59784185,1851,1,179854,221463,0.33,-0.67,9.97,-0.04,-0.01,-0.00,31.61
59824186,1846,1,180272,223267,0.34,-0.68,9.91,-0.04,-0.01,-0.01,31.61
59865185,1840,1,181042,224841,0.34,-0.66,9.97,-0.04,0.00,-0.01,31.61
59905170,1844,1,181451,225424,0.30,-0.68,9.99,-0.04,0.00,-0.01,31.61
59945170,1857,1,181557,225465,0.31,-0.67,9.96,-0.04,-0.01,-0.01,31.61
59985187,1850,1,181495,225406,0.32,-0.68,9.96,-0.03,-0.01,-0.00,31.61
60025210,1847,1,181517,225382,0.32,-0.67,9.97,-0.03,-0.01,-0.00,31.61
60065187,1861,1,181508,225366,0.32,-0.67,9.96,-0.03,-0.01,-0.00,31.61
60105186,1859,1,181460,225293,0.32,-0.67,9.95,-0.03,-0.02,-0.00,31.61
60145187,1860,1,181398,225127,0.34,-0.66,9.98,-0.03,-0.01,-0.00,31.61
60185871,1870,1,181351,224783,0.32,-0.68,9.96,-0.03,-0.01,-0.00,31.85
60224187,1881,1,181173,224452,0.32,-0.67,9.94,-0.03,-0.02,-0.00,31.85
60264185,1872,1,181053,224283,0.34,-0.66,9.97,-0.03,-0.01,-0.00,31.85
60304186,1890,1,180940,223353,0.32,-0.67,10.00,-0.03,-0.01,-0.01,31.85
60344185,1888,1,179949,218852,0.33,-0.65,9.96,-0.03,-0.01,-0.01,31.85
60384186,1894,1,178545,216697,0.33,-0.68,9.96,-0.03,-0.01,-0.01,31.85
60424185,1901,1,178285,216589,0.32,-0.65,9.96,-0.03,-0.01,-0.00,31.85
60464192,1902,1,178331,216779,0.32,-0.66,9.97,-0.03,-0.01,-0.01,31.85
60504185,1906,1,178447,216856,0.34,-0.68,9.97,-0.03,-0.01,-0.00,31.85
60544187,1905,1,178428,216879,0.33,-0.67,9.96,-0.03,-0.01,-0.00,31.85
60584185,1911,1,178292,216120,0.33,-0.68,9.96,-0.03,-0.01,-0.00,31.85
60624186,1913,1,177814,214637,0.33,-0.64,9.96,-0.03,-0.01,-0.00,31.85
60664206,1904,1,177360,213597,0.33,-0.65,9.93,-0.03,-0.01,-0.00,31.85
60704187,1922,1,177065,213085,0.35,-0.64,9.94,-0.03,-0.01,-0.01,31.85
60744185,1931,1,176892,213009,0.32,-0.65,9.95,-0.03,-0.01,-0.01,31.85
60784187,1936,1,176848,213006,0.34,-0.69,9.95,-0.03,-0.02,-0.00,31.85
60824185,1930,1,176825,212842,0.34,-0.65,9.95,-0.03,-0.02,-0.00,31.85
60864186,1936,1,176586,212274,0.34,-0.66,9.95,-0.03,-0.01,-0.01,31.85
60905185,1907,1,176398,211951,0.33,-0.66,9.96,-0.03,-0.02,-0.00,31.85
60945187,1915,1,176400,211897,0.33,-0.65,9.97,-0.03,-0.02,-0.00,31.85
60985186,1919,1,176321,211435,0.32,-0.66,9.98,-0.03,-0.01,-0.00,31.85
61025214,1919,1,175858,209249,0.36,-0.65,9.93,-0.03,-0.02,-0.00,31.85
61065186,1913,1,174982,207615,0.36,-0.63,9.96,-0.04,-0.01,-0.00,31.85
61105186,1922,1,174592,207046,0.34,-0.67,9.99,-0.04,-0.01,-0.01,31.85
61145186,1924,1,174640,207114,0.34,-0.68,10.01,-0.04,-0.01,-0.01,31.85
61185187,1926,1,174921,208355,0.36,-0.66,9.96,-0.03,-0.01,-0.00,31.85
61225871,1923,1,175649,210731,0.36,-0.68,9.93,-0.04,0.00,-0.01,31.39
61264170,1949,1,176532,212826,0.34,-0.65,9.98,-0.03,-0.01,-0.01,31.39
61304185,1943,1,177449,215958,0.36,-0.67,9.95,-0.03,-0.01,-0.01,31.39
61344187,1931,1,178295,217417,0.32,-0.67,9.94,-0.03,-0.01,-0.00,31.39
61384185,1956,1,178567,217928,0.33,-0.66,9.98,-0.03,-0.01,-0.00,31.39
61424186,1938,1,178702,218154,0.34,-0.66,9.96,-0.03,-0.01,-0.01,31.39
61464185,1941,1,178726,218229,0.32,-0.67,9.96,-0.03,-0.01,-0.00,31.39
61504186,1947,1,178811,218715,0.34,-0.65,9.95,-0.03,-0.01,-0.00,31.39
61544185,1936,1,179055,219467,0.33,-0.66,9.96,-0.04,-0.01,-0.00,31.39
61584186,1941,1,179307,219992,0.32,-0.66,9.97,-0.03,-0.01,-0.00,31.39
61624185,1941,1,179453,220276,0.35,-0.65,9.98,-0.03,-0.01,-0.01,31.39
61664187,1939,1,179369,218575,0.34,-0.66,9.96,-0.03,-0.01,-0.00,31.39
