timestamp_us,ecg,leads,ir,red,accX,accY,accZ,gyroX,gyroY,gyroZ,temp
1918490,1574,1,193909,232174,0.00,0.00,0.00,0.00,0.00,0.00,0.00
1948963,1393,1,193904,232794,0.56,-0.22,9.73,-0.04,-0.01,-0.00,32.47
1989202,1329,1,194198,233479,0.59,-0.25,9.92,-0.03,-0.01,-0.01,32.47
2029193,1418,1,194302,233594,0.59,-0.23,9.97,-0.03,-0.01,-0.01,32.47
2069196,1418,1,193422,229246,0.61,-0.26,9.97,-0.04,-0.01,-0.01,32.47
2109193,1487,1,192390,228191,0.59,-0.24,9.97,-0.03,-0.01,-0.01,32.47
2149196,1617,1,192518,228602,0.60,-0.23,10.00,-0.03,-0.01,-0.00,32.47
2188192,1711,1,192685,229100,0.58,-0.23,9.97,-0.03,-0.01,-0.01,32.47
2228195,1658,1,192879,229665,0.60,-0.22,9.96,-0.03,-0.01,-0.01,32.47
2268193,1535,1,193065,230283,0.59,-0.23,9.98,-0.03,-0.01,-0.01,32.47
2308195,1459,1,193255,230470,0.60,-0.25,9.96,-0.04,-0.00,-0.00,32.47
2348192,1264,1,193204,230694,0.59,-0.23,9.96,-0.04,-0.00,-0.01,32.47
2388195,1168,1,193249,230754,0.57,-0.23,9.95,-0.04,-0.00,-0.00,32.47
2428192,1184,1,193169,230765,0.61,-0.23,9.96,-0.04,-0.01,-0.01,32.47
2468196,1207,1,193265,231130,0.59,-0.26,9.96,-0.03,-0.01,-0.01,32.47
2508193,1358,1,193423,231543,0.57,-0.25,9.97,-0.04,-0.01,-0.01,32.47
2548195,1471,1,193107,228404,0.59,-0.23,9.98,-0.03,-0.01,-0.00,32.47
2588193,1594,1,191695,226224,0.58,-0.22,9.96,-0.04,-0.01,-0.00,32.47
2628195,1665,1,191491,226025,0.58,-0.24,9.96,-0.03,-0.01,-0.01,32.47
2668194,1741,1,191645,227115,0.59,-0.22,9.94,-0.03,-0.01,-0.01,32.47
2708195,1714,1,192738,231450,0.59,-0.21,9.97,-0.03,-0.03,-0.01,32.47
2748194,1706,1,194155,233849,0.60,-0.24,9.96,-0.03,-0.03,-0.01,32.47
2788196,1719,1,194789,234964,0.61,-0.22,9.98,-0.03,-0.03,-0.01,32.47
2828193,1797,1,194971,235234,0.63,-0.23,9.93,-0.03,-0.02,-0.01,32.47
2868196,1936,1,195060,235282,0.63,-0.25,9.97,-0.03,-0.01,-0.00,32.47
2908193,2044,1,195108,235932,0.62,-0.23,9.96,-0.03,-0.01,-0.01,32.47
2948195,2160,1,195127,236908,0.64,-0.23,9.93,-0.04,-0.00,-0.01,32.47
2988880,2226,1,195252,237927,0.62,-0.24,9.98,-0.04,-0.00,-0.00,32.25
3029196,2259,1,195597,237748,0.61,-0.22,9.97,-0.04,-0.00,-0.01,32.25
3069193,2291,1,194663,234657,0.61,-0.21,9.99,-0.03,-0.02,-0.01,32.25
3109196,2282,1,193774,233380,0.62,-0.22,9.97,-0.03,-0.02,-0.01,32.25
3149193,2257,1,193773,233852,0.63,-0.21,9.95,-0.03,-0.02,-0.01,32.25
3188195,2303,1,193769,234528,0.63,-0.23,9.97,-0.03,-0.04,-0.01,32.25
3228193,2186,1,194007,235346,0.68,-0.22,9.90,-0.03,-0.03,-0.01,32.25
3268196,2175,1,194358,236065,0.64,-0.21,9.92,-0.04,0.02,-0.00,32.25
3308172,2171,1,194450,236687,0.60,-0.23,9.98,-0.04,0.02,-0.00,32.25
3348174,2076,1,194684,237022,0.59,-0.23,9.98,-0.04,0.00,-0.01,32.25
3388210,1991,1,194743,237473,0.63,-0.22,9.97,-0.03,-0.01,-0.01,32.25
3428195,1921,1,194799,237727,0.63,-0.23,9.99,-0.04,-0.01,-0.00,32.25
3468193,1884,1,194954,238113,0.61,-0.21,9.98,-0.04,-0.01,-0.01,32.25
3508196,1872,1,195021,238212,0.63,-0.23,9.97,-0.03,-0.01,-0.01,32.25
3548193,1808,1,194678,236007,0.63,-0.22,9.96,-0.03,-0.01,-0.01,32.25
3588240,1811,1,193861,235143,0.62,-0.23,9.99,-0.03,-0.01,-0.01,32.25
3628193,1799,1,193891,235906,0.62,-0.22,9.98,-0.03,-0.01,-0.01,32.25
3668195,1744,1,194194,236613,0.62,-0.21,9.96,-0.03,-0.01,-0.01,32.25
3708193,1717,1,194510,237338,0.61,-0.23,9.95,-0.03,-0.01,-0.01,32.25
3748195,1697,1,194636,237821,0.61,-0.24,9.94,-0.03,-0.01,-0.01,32.25
3788193,1682,1,194739,237882,0.62,-0.23,10.00,-0.03,-0.01,-0.01,32.25
3828196,1685,1,194575,237832,0.63,-0.22,9.96,-0.03,-0.01,-0.01,32.25
3868193,1647,1,194534,237905,0.66,-0.23,9.95,-0.03,-0.01,-0.01,32.25
3908195,1670,1,194674,238076,0.62,-0.23,9.97,-0.04,-0.01,-0.01,32.25
3948194,1647,1,194739,238186,0.62,-0.21,9.96,-0.03,-0.01,-0.01,32.25
3988195,1655,1,194718,238307,0.63,-0.23,9.95,-0.04,-0.01,-0.01,32.25
4028881,1595,1,194699,236768,0.62,-0.23,9.94,-0.03,-0.01,-0.01,32.25
4069196,1611,1,193844,234793,0.63,-0.23,9.96,-0.04,-0.01,-0.01,32.25
4109194,1626,1,193820,234982,0.63,-0.21,9.94,-0.04,-0.00,-0.00,32.25
4149196,1655,1,193989,235796,0.62,-0.22,9.96,-0.04,-0.00,-0.01,32.25
4189193,1657,1,194278,237689,0.63,-0.22,9.90,-0.04,0.02,-0.01,32.25
4229175,1635,1,194969,238317,0.59,-0.23,10.01,-0.04,0.01,-0.01,32.25
4269173,1612,1,194971,238521,0.60,-0.21,9.94,-0.03,-0.02,-0.01,32.25
4309196,1600,1,195000,238649,0.59,-0.23,10.02,-0.03,-0.02,-0.01,32.25
4349193,1664,1,195210,238698,0.63,-0.23,9.97,-0.03,-0.02,-0.01,32.25
4389196,1703,1,195633,238880,0.64,-0.22,9.95,-0.03,-0.03,-0.01,32.25
4429193,1719,1,195973,238966,0.62,-0.23,9.99,-0.04,0.01,-0.01,32.25
4469174,1706,1,196233,239180,0.61,-0.23,10.01,-0.04,-0.01,-0.01,32.25
4509194,1693,1,196254,238191,0.68,-0.23,9.88,-0.03,-0.02,-0.01,32.25
4549195,1648,1,194919,236124,0.61,-0.27,10.00,-0.05,0.08,-0.01,32.25
4589172,1616,1,193544,235109,0.54,-0.18,9.96,-0.05,0.01,-0.27,32.25
4629180,1358,1,157554,234177,0.55,-0.19,9.96,-0.05,0.02,-0.21,32.25
4669181,1330,1,154296,236840,0.70,-0.32,9.93,-0.05,0.02,-0.24,32.25
4709182,1391,1,155857,238815,0.41,-0.10,10.02,-0.04,-0.00,-0.16,32.25
4749202,1450,1,157028,237688,0.46,-0.16,10.04,-0.03,-0.04,-0.02,32.25
4789204,1507,1,157685,235831,0.59,-0.22,9.99,-0.03,-0.06,-0.01,32.25
4829203,1535,1,157656,235256,0.62,-0.23,9.96,-0.03,-0.05,-0.01,32.25
4869204,1593,1,159778,235481,0.66,-0.24,9.95,-0.03,-0.07,-0.01,32.25
4909202,1615,1,161452,236697,0.69,-0.21,9.93,-0.02,-0.10,-0.01,32.25
4949204,1637,1,161299,237753,0.68,-0.21,9.98,-0.04,0.01,-0.01,32.25
4989180,1648,1,161575,237062,0.72,-0.22,9.88,-0.04,0.05,-0.00,32.25
5029871,1621,1,159712,234249,0.65,-0.22,9.97,-0.04,0.03,-0.00,32.19
5070181,1644,1,160168,232448,0.63,-0.24,9.99,-0.03,0.01,-0.00,32.19
5110181,1669,1,160484,232947,0.62,-0.23,9.95,-0.04,0.01,-0.00,32.19
5150180,1679,1,160424,233759,0.61,-0.24,9.99,-0.03,-0.01,-0.01,32.19
5190204,1648,1,160648,234746,0.63,-0.24,9.94,-0.03,-0.01,-0.01,32.19
5230202,1607,1,161099,235715,0.62,-0.23,9.99,-0.03,-0.00,-0.01,32.19
5270204,1609,1,161138,236640,0.64,-0.23,9.97,-0.03,-0.00,-0.00,32.19
5310202,1488,1,160650,237290,0.62,-0.23,9.95,-0.03,-0.01,-0.01,32.19
5350204,1468,1,161236,238077,0.63,-0.21,9.99,-0.04,0.01,-0.00,32.19
5390181,1419,1,161660,238671,0.59,-0.22,9.99,-0.04,-0.00,-0.01,32.19
5430204,1425,1,161934,239177,0.62,-0.22,9.96,-0.03,-0.01,-0.01,32.19
5470203,1459,1,161380,239289,0.61,-0.21,9.99,-0.03,-0.02,-0.01,32.19
5510204,1413,1,161882,240612,0.62,-0.22,9.92,-0.04,0.02,-0.00,32.19
5550180,1456,1,162872,243006,0.60,-0.25,9.97,-0.04,0.01,-0.00,32.19
5590181,1449,1,163641,244350,0.57,-0.22,10.01,-0.04,-0.00,-0.01,32.19
5630202,1490,1,163712,244437,0.58,-0.25,9.97,-0.03,-0.02,-0.01,32.19
5670204,1502,1,164951,244643,0.60,-0.23,9.96,-0.03,-0.02,-0.01,32.19
5710202,1569,1,164976,243345,0.59,-0.21,9.99,-0.03,-0.03,-0.01,32.19
5750204,1593,1,164699,241414,0.60,-0.22,10.02,-0.02,-0.09,-0.01,32.19
5790202,1600,1,163997,242020,0.69,-0.20,9.89,-0.04,0.02,-0.00,32.19
5830181,1600,1,164938,243579,0.64,-0.24,9.92,-0.04,0.03,-0.00,32.19
5870180,1535,1,165931,244921,0.58,-0.22,10.01,-0.04,0.02,-0.00,32.19
5910181,1650,1,166147,245517,0.61,-0.23,9.96,-0.04,-0.00,-0.01,32.19
5950202,1662,1,166331,244484,0.59,-0.25,10.00,-0.03,-0.03,-0.01,32.19
5990204,1691,1,165346,238026,0.60,-0.22,9.97,-0.03,-0.07,-0.01,32.19
6030891,1670,1,164423,233653,0.69,-0.22,9.86,-0.03,-0.05,-0.01,32.13
6069203,1702,1,165250,234608,0.69,-0.20,9.89,-0.03,-0.01,-0.01,32.13
6109202,1705,1,163809,236641,0.65,-0.23,9.94,-0.04,0.04,-0.00,32.13
6149181,1719,1,164773,238169,0.62,-0.24,10.01,-0.04,0.01,-0.01,32.13
6189179,1712,1,165521,238786,0.62,-0.22,9.97,-0.03,-0.00,-0.01,32.13
6229203,1695,1,165842,239097,0.64,-0.23,9.96,-0.04,0.01,-0.01,32.13
6269180,1686,1,165435,239523,0.62,-0.24,9.98,-0.04,0.02,-0.01,32.13
6309180,1719,1,166482,239897,0.61,-0.23,9.97,-0.03,-0.00,-0.00,32.13
6349201,1679,1,167415,240244,0.62,-0.23,9.93,-0.03,-0.01,-0.01,32.13
6389202,1663,1,168323,240469,0.62,-0.21,9.99,-0.03,-0.02,-0.01,32.13
6429201,1648,1,168095,240660,0.63,-0.23,9.94,-0.03,-0.04,-0.01,32.13
6469203,1618,1,168332,239843,0.65,-0.22,9.92,-0.03,-0.01,-0.01,32.13
6509202,1616,1,167913,239388,0.62,-0.21,9.98,-0.03,-0.01,-0.01,32.13
6549203,1647,1,168311,239546,0.62,-0.23,9.98,-0.03,-0.01,-0.01,32.13
6589201,1632,1,168167,239761,0.65,-0.23,9.96,-0.03,-0.01,-0.01,32.13
6629203,1535,1,168666,239859,0.63,-0.23,9.96,-0.03,-0.01,-0.00,32.13
6669210,1535,1,168971,240010,0.64,-0.23,9.97,-0.03,-0.01,-0.01,32.13
6709203,1535,1,169390,239815,0.64,-0.23,9.94,-0.03,-0.01,-0.01,32.13
6749201,1535,1,168194,239803,0.62,-0.21,9.96,-0.03,-0.00,-0.00,32.13
6789202,1523,1,168686,239748,0.65,-0.23,9.95,-0.04,-0.01,-0.01,32.13
6829202,1535,1,168480,239820,0.64,-0.23,9.94,-0.03,-0.01,-0.01,32.13
6869208,1523,1,169086,239901,0.64,-0.24,9.97,-0.04,-0.01,-0.01,32.13
6909201,1535,1,168556,239994,0.62,-0.23,9.95,-0.03,-0.01,-0.01,32.13
6949203,1535,1,168546,239092,0.64,-0.21,9.97,-0.04,-0.00,-0.00,32.13
6989201,1559,1,168037,238399,0.62,-0.22,9.98,-0.03,-0.00,-0.01,32.13
7029203,1563,1,168129,238594,0.62,-0.21,9.94,-0.03,-0.01,-0.01,32.13
7069915,1509,1,165143,238890,0.63,-0.23,9.95,-0.03,-0.00,-0.01,32.13
7110203,1535,1,166315,239261,0.63,-0.22,9.98,-0.03,-0.01,-0.01,32.13
7150202,1575,1,166811,239545,0.64,-0.25,9.96,-0.03,-0.00,-0.01,32.13
7190203,1580,1,167053,239595,0.62,-0.24,9.98,-0.03,-0.01,-0.00,32.13
7230202,1621,1,166648,239655,0.62,-0.23,9.97,-0.03,-0.01,-0.01,32.13
7270204,1597,1,166887,239738,0.62,-0.23,9.96,-0.03,-0.01,-0.01,32.13
7310202,1594,1,167469,239846,0.63,-0.21,9.97,-0.03,-0.01,-0.01,32.13
7350204,1619,1,167576,239778,0.64,-0.23,9.96,-0.03,-0.01,-0.01,32.13
7390202,1635,1,166526,239907,0.64,-0.23,9.95,-0.03,-0.01,-0.01,32.13
7430204,1600,1,166864,239543,0.64,-0.24,9.98,-0.03,-0.01,-0.00,32.13
7470202,1629,1,166625,238665,0.63,-0.21,9.95,-0.03,-0.01,-0.00,32.13
7510203,1680,1,166884,238577,0.63,-0.21,9.99,-0.03,-0.01,-0.01,32.13
7550202,1584,1,166602,238874,0.62,-0.23,9.96,-0.03,-0.01,-0.01,32.13
7590203,1637,1,166865,239065,0.64,-0.23,9.95,-0.04,-0.00,-0.01,32.13
7630202,1623,1,166834,239306,0.63,-0.23,9.98,-0.03,-0.01,-0.01,32.13
7670203,1626,1,166777,239245,0.63,-0.23,9.99,-0.03,-0.01,-0.01,32.13
7710202,1603,1,166361,239197,0.64,-0.24,9.98,-0.03,-0.01,-0.01,32.13
7750203,1638,1,166800,239171,0.62,-0.21,9.97,-0.03,-0.01,-0.01,32.13
7790202,1633,1,167075,239263,0.63,-0.23,9.95,-0.03,-0.01,-0.01,32.13
7830204,1657,1,167160,239542,0.64,-0.23,9.97,-0.03,-0.01,-0.01,32.13
7870202,1638,1,166959,239686,0.64,-0.24,9.98,-0.03,-0.01,-0.01,32.13
7910203,1602,1,167664,239770,0.64,-0.23,9.97,-0.03,-0.01,-0.00,32.13
7950202,1616,1,167233,238998,0.64,-0.23,9.96,-0.03,-0.01,-0.01,32.13
7990203,1652,1,167217,238456,0.62,-0.23,9.97,-0.03,-0.01,-0.00,32.13
8030202,1639,1,166442,238687,0.64,-0.22,9.99,-0.03,-0.01,-0.01,32.13
8070892,1573,1,167353,238919,0.64,-0.23,9.95,-0.03,-0.01,-0.01,32.27
8109201,1613,1,166734,239118,0.63,-0.22,9.95,-0.03,-0.01,-0.01,32.27
8149203,1615,1,166898,239146,0.65,-0.25,9.98,-0.03,-0.01,-0.01,32.27
8189201,1616,1,166682,239088,0.63,-0.21,9.96,-0.03,-0.00,-0.01,32.27
8229201,1584,1,166908,238995,0.62,-0.22,9.97,-0.03,-0.01,-0.01,32.27
8269201,1582,1,166732,239009,0.63,-0.23,9.99,-0.03,-0.01,-0.01,32.27
8309203,1579,1,167318,239098,0.64,-0.23,9.94,-0.03,-0.02,-0.01,32.27
8349201,1578,1,167402,239235,0.64,-0.24,9.95,-0.03,-0.03,-0.01,32.27
8389202,1574,1,167746,239339,0.65,-0.23,9.96,-0.03,-0.02,-0.01,32.27
8429201,1526,1,168020,239043,0.65,-0.22,9.97,-0.03,-0.00,-0.00,32.27
8469202,1523,1,167726,237988,0.66,-0.23,9.94,-0.03,-0.01,-0.00,32.27
8509244,1535,1,166742,237783,0.66,-0.21,9.97,-0.04,0.01,-0.01,32.27
8549180,1535,1,166908,237892,0.64,-0.22,9.98,-0.04,0.00,-0.00,32.27
8589179,1566,1,166858,238014,0.63,-0.19,9.98,-0.03,-0.01,-0.01,32.27
8629202,1595,1,167507,238096,0.65,-0.24,9.96,-0.03,-0.01,-0.01,32.27
8669201,1535,1,166108,238100,0.63,-0.20,9.95,-0.03,-0.01,-0.01,32.27
8709203,1575,1,166579,238096,0.63,-0.23,9.97,-0.03,-0.01,-0.01,32.27
8749201,1568,1,166842,238047,0.64,-0.23,9.98,-0.03,-0.00,-0.01,32.27
8789202,1535,1,166765,238024,0.64,-0.21,9.97,-0.04,-0.01,-0.01,32.27
8829201,1573,1,166410,237976,0.63,-0.23,9.98,-0.03,-0.01,-0.00,32.27
8869202,1612,1,166725,238019,0.63,-0.22,9.97,-0.03,-0.01,-0.01,32.27
8909200,1586,1,166384,238060,0.64,-0.23,9.95,-0.03,-0.01,-0.01,32.27
8949202,1577,1,166652,237435,0.63,-0.23,9.98,-0.03,-0.01,-0.01,32.27
8989200,1601,1,165804,236841,0.63,-0.22,9.96,-0.03,-0.01,-0.00,32.27
9029200,1614,1,166413,236976,0.63,-0.22,9.97,-0.03,-0.01,-0.01,32.27
9069200,1587,1,166522,237245,0.64,-0.23,9.94,-0.03,-0.01,-0.01,32.27
9109891,1583,1,166534,237306,0.62,-0.22,9.96,-0.03,-0.01,-0.01,32.27
9150211,1600,1,167191,237517,0.63,-0.23,9.97,-0.03,-0.01,-0.01,32.27
9190202,1573,1,167526,237404,0.63,-0.24,9.96,-0.03,-0.01,-0.01,32.27
9230201,1559,1,167826,237344,0.64,-0.23,9.96,-0.03,-0.00,-0.00,32.27
9270202,1559,1,167685,237388,0.64,-0.23,9.99,-0.03,-0.00,-0.01,32.27
9310201,1573,1,167098,237512,0.62,-0.23,9.93,-0.03,-0.00,-0.01,32.27
9350203,1591,1,167497,237622,0.65,-0.23,9.96,-0.04,-0.00,-0.01,32.27
9390201,1603,1,167611,237662,0.63,-0.20,9.99,-0.03,-0.01,-0.01,32.27
9430203,1583,1,167934,237668,0.64,-0.24,9.96,-0.03,-0.01,-0.01,32.27
9470202,1570,1,167732,237005,0.62,-0.21,9.96,-0.03,-0.01,-0.01,32.27
9510204,1563,1,167325,236468,0.64,-0.23,9.93,-0.03,-0.01,-0.01,32.27
9550202,1573,1,166990,236464,0.61,-0.21,9.96,-0.03,-0.00,-0.00,32.27
9590204,1567,1,167438,236523,0.65,-0.24,9.99,-0.03,-0.01,-0.01,32.27
9630202,1585,1,166561,236643,0.64,-0.24,9.96,-0.03,-0.01,-0.01,32.27
9670203,1575,1,167169,236776,0.62,-0.24,9.97,-0.03,-0.01,-0.01,32.27
9710202,1584,1,167610,236835,0.65,-0.25,9.96,-0.03,-0.01,-0.01,32.27
9750203,1576,1,167540,236829,0.66,-0.23,9.97,-0.03,-0.01,-0.01,32.27
9790202,1585,1,167667,236890,0.62,-0.23,9.96,-0.03,-0.01,-0.00,32.27
9830202,1584,1,168571,236859,0.62,-0.23,9.96,-0.04,-0.01,-0.01,32.27
9870201,1605,1,168446,236962,0.62,-0.23,9.97,-0.03,-0.01,-0.00,32.27
9910201,1631,1,169141,236964,0.63,-0.23,9.97,-0.03,-0.01,-0.00,32.27
9950201,1616,1,167858,236999,0.64,-0.23,9.96,-0.03,-0.01,-0.01,32.27
9990202,1582,1,168448,236596,0.61,-0.23,9.95,-0.03,-0.01,-0.01,32.27
10030201,1586,1,168443,236136,0.64,-0.21,9.94,-0.03,-0.01,-0.01,32.27
10070202,1574,1,168732,236441,0.65,-0.22,9.98,-0.03,-0.01,-0.01,32.27
10110890,1568,1,168182,236826,0.63,-0.23,9.98,-0.04,-0.01,-0.01,32.27
10149217,1594,1,168123,237075,0.62,-0.20,9.96,-0.03,-0.01,-0.01,32.27
10189201,1586,1,168040,237281,0.64,-0.21,9.96,-0.03,-0.01,-0.01,32.27
10229201,1586,1,168269,237316,0.65,-0.24,9.97,-0.03,-0.01,-0.01,32.27
10269200,1591,1,167448,237298,0.62,-0.21,9.98,-0.03,-0.01,-0.01,32.27
10309202,1563,1,167655,237250,0.66,-0.22,9.94,-0.03,-0.01,-0.01,32.27
10349226,1579,1,167481,237264,0.61,-0.24,9.96,-0.03,-0.01,-0.01,32.27
10389202,1594,1,167989,237204,0.65,-0.21,9.98,-0.03,-0.01,-0.00,32.27
10429200,1586,1,167418,237303,0.65,-0.22,9.97,-0.03,-0.01,-0.01,32.27
10469202,1598,1,167591,237256,0.65,-0.22,9.94,-0.03,-0.01,-0.01,32.27
10509200,1566,1,167193,236878,0.65,-0.24,9.95,-0.03,-0.01,-0.01,32.27
10549220,1584,1,166982,236033,0.63,-0.23,9.94,-0.03,-0.01,-0.01,32.27
10589200,1569,1,166002,236192,0.64,-0.20,9.96,-0.03,-0.01,-0.01,32.27
10629202,1567,1,166287,236428,0.63,-0.22,9.94,-0.03,-0.00,-0.01,32.27
10669200,1561,1,165988,236660,0.63,-0.21,9.96,-0.03,-0.01,-0.01,32.27
10709202,1578,1,166373,236806,0.65,-0.24,9.96,-0.03,-0.01,-0.01,32.27
10749200,1559,1,165715,236982,0.64,-0.22,9.94,-0.03,-0.01,-0.01,32.27
10789202,1559,1,165869,236976,0.63,-0.23,9.97,-0.03,-0.01,-0.01,32.27
10829200,1584,1,165843,236987,0.64,-0.23,9.94,-0.03,-0.01,-0.00,32.27
10869202,1535,1,165984,236928,0.63,-0.24,9.98,-0.03,-0.01,-0.01,32.27
10909200,1535,1,165359,237020,0.65,-0.24,9.97,-0.04,-0.01,-0.01,32.27
10949201,1535,1,165525,237016,0.63,-0.23,9.98,-0.03,-0.01,-0.01,32.27
10989200,1535,1,165343,236985,0.63,-0.22,9.94,-0.03,-0.01,-0.01,32.27
11029201,1535,1,164996,236399,0.67,-0.23,9.98,-0.03,-0.01,-0.01,32.27
11069201,1561,1,164428,235796,0.64,-0.22,9.96,-0.03,-0.01,-0.01,32.27
11109202,1535,1,164288,235957,0.65,-0.23,9.95,-0.03,-0.01,-0.01,32.27
11151890,1557,1,165929,236029,0.65,-0.22,9.96,-0.03,-0.00,-0.00,32.39
11191201,1534,1,163939,236109,0.64,-0.21,9.97,-0.03,-0.01,-0.01,32.39
11231201,1535,1,163350,236274,0.62,-0.21,9.96,-0.03,-0.01,-0.00,32.39
11271202,1535,1,163610,236353,0.65,-0.22,9.97,-0.03,-0.01,-0.01,32.39
11311201,1564,1,163259,236559,0.67,-0.23,9.95,-0.03,-0.01,-0.01,32.39
11351202,1535,1,163799,236596,0.66,-0.22,9.94,-0.03,-0.01,-0.01,32.39
11391201,1521,1,163243,236856,0.64,-0.22,9.95,-0.03,-0.01,-0.01,32.39
11431202,1535,1,163748,237386,0.66,-0.20,9.95,-0.03,-0.01,-0.01,32.39
11471201,1534,1,163810,237866,0.66,-0.23,9.97,-0.03,-0.01,-0.01,32.39
11511202,1534,1,164345,238287,0.65,-0.21,9.96,-0.03,-0.01,-0.00,32.39
11551201,1535,1,164227,238060,0.65,-0.22,9.96,-0.03,-0.01,-0.01,32.39
11591202,1529,1,164902,236973,0.67,-0.23,9.99,-0.03,-0.01,-0.01,32.39
11631201,1532,1,165000,237261,0.65,-0.23,9.92,-0.03,-0.01,-0.01,32.39
11671202,1517,1,165432,237844,0.64,-0.21,9.93,-0.03,-0.01,-0.00,32.39
11711201,1535,1,165253,238338,0.65,-0.24,9.95,-0.03,-0.01,-0.01,32.39
11751202,1535,1,165439,238707,0.66,-0.23,9.96,-0.04,-0.00,-0.00,32.39
11791201,1535,1,165437,238593,0.65,-0.23,9.97,-0.03,-0.01,-0.00,32.39
11831202,1535,1,165547,237791,0.66,-0.21,9.97,-0.04,0.00,-0.00,32.39
11871180,1535,1,164004,237842,0.62,-0.22,10.00,-0.03,-0.01,-0.01,32.39
11911202,1505,1,164908,238241,0.64,-0.22,9.95,-0.03,-0.02,-0.01,32.39
11951202,1522,1,165036,238747,0.65,-0.22,9.96,-0.03,-0.00,-0.01,32.39
11991215,1507,1,165714,239448,0.65,-0.23,9.95,-0.03,-0.01,-0.00,32.39
12031201,1531,1,165883,240051,0.67,-0.23,9.95,-0.03,-0.01,-0.00,32.39
12071202,1535,1,166439,239707,0.64,-0.23,9.98,-0.03,-0.01,-0.01,32.39
12111201,1515,1,166141,236698,0.67,-0.20,9.95,-0.03,-0.01,-0.01,32.39
12151891,1533,1,167336,235353,0.66,-0.21,9.96,-0.03,-0.01,-0.01,32.21
12190224,1515,1,166682,235580,0.65,-0.21,9.95,-0.03,-0.01,-0.01,32.21
12230203,1509,1,167385,236004,0.65,-0.22,9.96,-0.03,-0.02,-0.01,32.21
12270202,1531,1,167830,236455,0.67,-0.23,9.98,-0.03,-0.01,-0.01,32.21
12310203,1521,1,168296,235320,0.66,-0.23,9.99,-0.03,-0.01,-0.00,32.21
12350202,1499,1,167216,233082,0.69,-0.24,9.94,-0.03,-0.01,-0.00,32.21
12390203,1506,1,166471,232216,0.68,-0.21,9.96,-0.04,0.00,-0.00,32.21
12430180,1499,1,165868,232595,0.64,-0.22,10.01,-0.04,0.01,-0.01,32.21
12470181,1488,1,166465,232948,0.67,-0.22,9.95,-0.04,-0.00,-0.00,32.21
12510201,1499,1,165567,233965,0.66,-0.21,9.97,-0.04,-0.00,-0.00,32.21
12550203,1490,1,166027,234664,0.65,-0.23,9.97,-0.03,-0.00,-0.01,32.21
12590201,1506,1,166593,235206,0.66,-0.23,9.99,-0.04,-0.00,-0.00,32.21
12630203,1491,1,167268,233858,0.66,-0.22,9.93,-0.03,-0.00,-0.01,32.21
12670201,1498,1,166411,232810,0.62,-0.22,9.99,-0.04,0.00,-0.01,32.21
12710181,1477,1,167899,234028,0.64,-0.24,9.97,-0.03,-0.01,-0.01,32.21
12750201,1488,1,168228,234325,0.64,-0.23,10.00,-0.03,-0.02,-0.01,32.21
12790203,1478,1,168700,234350,0.68,-0.22,9.95,-0.03,-0.00,-0.01,32.21
12830201,1479,1,168145,235191,0.63,-0.23,9.94,-0.04,0.01,-0.01,32.21
12870180,1496,1,169054,236248,0.64,-0.23,9.96,-0.03,-0.01,-0.01,32.21
12910201,1511,1,169475,236876,0.65,-0.22,9.94,-0.03,-0.01,-0.01,32.21
12950203,1530,1,169759,236983,0.65,-0.23,9.96,-0.03,-0.01,-0.01,32.21
12990202,1535,1,169390,236850,0.64,-0.24,9.98,-0.03,-0.01,-0.01,32.21
13030203,1535,1,169345,237119,0.62,-0.23,9.97,-0.03,-0.02,-0.01,32.21
13070200,1535,1,169871,237952,0.63,-0.23,9.97,-0.03,-0.01,-0.01,32.21
13110202,1558,1,170426,238235,0.64,-0.21,9.93,-0.03,-0.01,-0.01,32.21
13150200,1555,1,168844,236332,0.62,-0.22,9.96,-0.03,-0.01,-0.01,32.21
13190890,1565,1,166550,235199,0.65,-0.21,9.96,-0.03,-0.01,-0.01,32.33
13231201,1584,1,167215,235708,0.62,-0.22,9.97,-0.03,-0.00,-0.01,32.33
13271202,1600,1,168147,236987,0.64,-0.22,9.96,-0.03,-0.01,-0.01,32.33
13311201,1601,1,168153,237805,0.63,-0.22,9.96,-0.03,-0.01,-0.01,32.33
13351202,1607,1,168557,238229,0.65,-0.23,9.93,-0.04,-0.00,-0.01,32.33
13391201,1626,1,168441,238244,0.65,-0.23,9.95,-0.03,-0.00,-0.00,32.33
13431202,1614,1,168437,237996,0.64,-0.23,9.95,-0.04,0.00,-0.01,32.33
13471179,1590,1,167681,238117,0.63,-0.23,9.95,-0.04,0.00,-0.01,32.33
13511180,1615,1,168070,238455,0.65,-0.22,9.98,-0.03,-0.01,-0.01,32.33
13551201,1574,1,168214,238677,0.63,-0.23,9.95,-0.03,-0.01,-0.01,32.33
13591202,1554,1,168444,238735,0.63,-0.23,9.96,-0.03,-0.01,-0.01,32.33
13631201,1553,1,168356,238860,0.63,-0.23,9.98,-0.03,-0.01,-0.01,32.33
13671202,1505,1,168128,236712,0.65,-0.23,9.96,-0.03,-0.01,-0.00,32.33
13711201,1523,1,167123,235766,0.65,-0.25,9.97,-0.04,0.01,-0.00,32.33
13751180,1522,1,167411,235931,0.63,-0.23,9.99,-0.04,0.00,-0.01,32.33
13791179,1501,1,166218,236739,0.62,-0.23,9.97,-0.03,-0.01,-0.01,32.33
13831209,1517,1,166690,237467,0.62,-0.23,9.93,-0.03,-0.01,-0.01,32.33
13871201,1482,1,167039,238087,0.62,-0.23,9.98,-0.03,-0.01,-0.01,32.33
13911202,1461,1,167670,238333,0.65,-0.24,9.95,-0.03,-0.01,-0.01,32.33
13951201,1447,1,167245,238366,0.62,-0.23,9.93,-0.03,-0.00,-0.00,32.33
13991201,1462,1,167716,238286,0.62,-0.22,9.93,-0.04,-0.00,-0.01,32.33
14031201,1458,1,167052,238461,0.63,-0.22,9.97,-0.04,0.01,-0.01,32.33
14071180,1451,1,167873,238720,0.61,-0.22,9.96,-0.03,-0.01,-0.01,32.33
14111201,1443,1,167325,238889,0.62,-0.23,9.99,-0.03,-0.01,-0.01,32.33
14151201,1413,1,167535,238952,0.63,-0.22,9.96,-0.03,-0.01,-0.00,32.33
14191890,1437,1,167748,237582,0.62,-0.22,9.95,-0.03,-0.01,-0.01,32.33
14230203,1483,1,168369,236539,0.63,-0.23,9.96,-0.03,-0.00,-0.01,32.33
14271200,1477,1,166929,236847,0.61,-0.24,9.98,-0.03,-0.01,-0.01,32.33
14311202,1472,1,167556,237292,0.64,-0.24,9.93,-0.03,-0.01,-0.01,32.33
14351200,1506,1,167595,237676,0.63,-0.23,9.97,-0.03,-0.01,-0.01,32.33
14391201,1466,1,168480,237923,0.64,-0.24,9.96,-0.03,-0.01,-0.01,32.33
14431201,1501,1,167090,238044,0.61,-0.21,9.98,-0.03,-0.01,-0.01,32.33
14471202,1472,1,167772,238085,0.63,-0.23,9.98,-0.03,-0.01,-0.01,32.33
14511201,1478,1,168051,238184,0.62,-0.24,9.95,-0.03,-0.00,-0.00,32.33
14551201,1504,1,168298,238329,0.62,-0.23,9.97,-0.03,-0.00,-0.01,32.33
14591201,1488,1,168555,238484,0.63,-0.23,9.94,-0.04,-0.00,-0.01,32.33
14631201,1495,1,168493,238646,0.63,-0.22,9.94,-0.03,-0.01,-0.00,32.33
14671201,1483,1,169225,238678,0.62,-0.26,9.95,-0.03,-0.01,-0.01,32.33
14711201,1499,1,168946,237180,0.64,-0.23,9.96,-0.03,-0.01,-0.01,32.33
14751200,1535,1,168366,236169,0.61,-0.23,9.94,-0.03,-0.00,-0.01,32.33
14791201,1555,1,168598,236588,0.65,-0.23,9.93,-0.03,-0.01,-0.01,32.33
14831200,1563,1,168714,237047,0.61,-0.24,9.95,-0.03,-0.01,-0.01,32.33
14871201,1563,1,168732,237326,0.63,-0.23,9.97,-0.03,-0.01,-0.01,32.33
14911200,1569,1,168968,237584,0.61,-0.23,9.96,-0.03,-0.01,-0.01,32.33
14951201,1577,1,169763,237687,0.62,-0.23,9.96,-0.03,-0.00,-0.01,32.33
14991200,1597,1,170637,237712,0.62,-0.23,9.96,-0.03,-0.01,-0.01,32.33
15031201,1600,1,170946,237643,0.59,-0.23,9.96,-0.03,-0.01,-0.01,32.33
15071200,1613,1,169575,237789,0.63,-0.23,9.96,-0.03,-0.01,-0.01,32.33
15111201,1609,1,169880,237915,0.61,-0.22,9.96,-0.03,-0.01,-0.00,32.33
15151200,1606,1,170085,238124,0.60,-0.22,9.95,-0.03,-0.01,-0.01,32.33
15191201,1613,1,170350,237972,0.62,-0.23,9.93,-0.03,-0.01,-0.01,32.33
15231889,1566,1,169657,236575,0.62,-0.23,9.94,-0.04,-0.00,-0.01,32.35
15270202,1612,1,168936,236504,0.62,-0.22,9.96,-0.04,-0.00,-0.01,32.35
15310200,1644,1,169316,236994,0.62,-0.24,9.98,-0.03,-0.01,-0.01,32.35
15350201,1631,1,170009,237366,0.62,-0.23,9.96,-0.03,-0.01,-0.00,32.35
15390200,1616,1,169431,237822,0.59,-0.23,9.97,-0.03,-0.02,-0.01,32.35
15430201,1634,1,169532,238267,0.63,-0.23,9.95,-0.04,0.00,-0.00,32.35
15470181,1622,1,169723,238638,0.62,-0.23,9.93,-0.04,0.00,-0.01,32.35
15510179,1589,1,169945,238729,0.81,-0.47,10.02,-0.03,-0.03,-0.07,32.35
15550200,1600,1,170016,238650,0.52,-0.14,9.98,-0.03,-0.03,-0.04,32.35
15590201,1614,1,170018,238261,0.59,-0.20,9.97,-0.03,-0.03,-0.01,32.35
15630199,1641,1,169032,237957,0.67,-0.22,9.94,-0.03,-0.04,-0.01,32.35
15670201,1579,1,169660,237930,0.65,-0.23,9.92,-0.04,-0.00,-0.01,32.35
15710199,1618,1,168128,237262,0.63,-0.23,9.96,-0.04,0.01,-0.00,32.35
15750179,1535,1,167597,236242,0.70,-0.29,9.97,-0.03,-0.01,-0.01,32.35
15790200,1617,1,165079,235826,0.61,-0.20,10.01,-0.03,-0.04,-0.04,32.35
15830201,1623,1,165894,236134,0.66,-0.21,9.94,-0.04,-0.01,-0.02,32.35
15870200,1609,1,166278,236666,0.63,-0.17,9.95,-0.03,-0.02,-0.02,32.35
15910201,1630,1,167390,237092,0.64,-0.21,10.00,-0.03,-0.01,-0.01,32.35
15950199,1604,1,167842,237291,0.67,-0.21,9.93,-0.04,-0.00,-0.00,32.35
15990201,1629,1,167911,237402,0.68,-0.23,9.91,-0.04,0.01,-0.01,32.35
16030178,1632,1,167217,237499,0.64,-0.22,9.98,-0.04,0.01,-0.00,32.35
16070179,1594,1,167340,237020,0.62,-0.22,10.02,-0.04,0.00,-0.01,32.35
16110178,1626,1,167669,236704,0.65,-0.23,9.94,-0.03,-0.04,-0.01,32.35
16150201,1595,1,168108,236814,0.65,-0.22,10.00,-0.03,-0.05,-0.00,32.35
16190199,1652,1,167615,236727,0.68,-0.23,9.95,-0.03,-0.03,-0.01,32.35
16230201,1631,1,167144,235642,0.70,-0.22,9.97,-0.03,-0.07,-0.01,32.35
16270888,1534,1,166025,233873,0.78,-0.20,9.77,-0.03,-0.00,-0.00,32.33
16311200,1584,1,166828,233620,0.65,-0.25,10.09,-0.04,0.00,-0.00,32.33
16351179,1535,1,165860,233410,0.62,-0.25,10.09,-0.05,0.08,-0.00,32.33
16391179,1582,1,165971,233081,0.68,-0.22,9.89,-0.03,0.00,-0.01,32.33
16431179,1535,1,166472,233680,0.64,-0.23,9.97,-0.03,-0.01,-0.01,32.33
16471200,1558,1,167388,234106,0.69,-0.23,9.89,-0.04,-0.00,-0.00,32.33
16511200,1587,1,166964,234224,0.64,-0.23,10.02,-0.03,-0.04,-0.01,32.33
16551200,1581,1,167471,234242,0.72,-0.22,9.91,-0.03,-0.01,-0.01,32.33
16591200,1592,1,167591,234144,0.67,-0.23,9.96,-0.04,-0.00,-0.01,32.33
16631201,1634,1,167035,234050,0.67,-0.23,9.97,-0.04,0.00,-0.01,32.33
16671178,1621,1,167079,234322,0.65,-0.23,10.01,-0.03,-0.01,-0.01,32.33
16711200,1605,1,167912,235227,0.65,-0.23,9.96,-0.03,-0.01,-0.00,32.33
16751200,1591,1,168700,234892,0.66,-0.25,9.96,-0.03,-0.03,-0.01,32.33
16791201,1655,1,168515,233128,0.68,-0.21,9.99,-0.03,-0.03,-0.01,32.33
16831200,1663,1,167799,233908,0.68,-0.22,9.98,-0.04,0.01,-0.01,32.33
16871179,1680,1,168252,234999,0.68,-0.23,9.97,-0.04,0.02,-0.01,32.33
16911179,1679,1,168370,235364,0.69,-0.21,9.95,-0.04,0.01,-0.00,32.33
16951179,1666,1,168887,235437,0.65,-0.23,9.95,-0.04,0.03,-0.01,32.33
16991179,1646,1,167728,235646,0.64,-0.23,10.02,-0.04,0.01,-0.01,32.33
17031179,1697,1,168539,235422,0.63,-0.24,10.02,-0.03,-0.06,-0.01,32.33
17071200,1677,1,168749,235700,0.69,-0.23,9.89,-0.03,-0.03,-0.01,32.33
17111215,1687,1,169144,236034,0.66,-0.19,9.99,-0.03,-0.01,-0.01,32.33
17151200,1681,1,169096,236465,0.65,-0.22,9.99,-0.03,-0.01,-0.00,32.33
17191200,1703,1,169729,236977,0.67,-0.23,10.01,-0.03,-0.02,-0.00,32.33
17231200,1670,1,169903,237179,0.71,-0.23,9.92,-0.03,-0.01,-0.01,32.33
17271889,1692,1,168404,235406,0.69,-0.22,9.97,-0.04,0.01,-0.01,32.19
17310214,1710,1,166773,233955,0.68,-0.22,9.95,-0.03,-0.01,-0.00,32.19
17350200,1696,1,167228,234380,0.67,-0.20,9.98,-0.03,-0.00,-0.01,32.19
17390199,1710,1,167264,235056,0.68,-0.23,10.00,-0.03,-0.01,-0.01,32.19
17430200,1686,1,167675,235781,0.65,-0.23,9.97,-0.03,-0.01,-0.00,32.19
17470200,1724,1,167480,236468,0.69,-0.22,9.93,-0.03,-0.01,-0.01,32.19
17510201,1698,1,167581,236541,0.68,-0.21,9.91,-0.03,-0.01,-0.00,32.19
17550200,1712,1,167427,236525,0.68,-0.23,9.94,-0.03,-0.01,-0.01,32.19
17590200,1698,1,167855,236341,0.67,-0.24,9.95,-0.03,-0.01,-0.01,32.19
17630199,1681,1,166729,236442,0.67,-0.20,9.96,-0.03,-0.00,-0.01,32.19
17670200,1678,1,166831,236614,0.68,-0.23,9.98,-0.03,-0.02,-0.01,32.19
17710199,1651,1,166763,236826,0.69,-0.22,9.94,-0.03,-0.00,-0.00,32.19
17750201,1663,1,166947,236195,0.67,-0.21,9.95,-0.03,-0.01,-0.00,32.19
17790199,1657,1,165878,233455,0.68,-0.22,9.96,-0.03,-0.01,-0.01,32.19
17830201,1634,1,165352,232590,0.68,-0.22,9.96,-0.03,-0.01,-0.00,32.19
17870200,1650,1,165481,233020,0.68,-0.22,9.99,-0.03,-0.01,-0.00,32.19
17912201,1606,1,166804,233328,0.69,-0.22,9.96,-0.03,-0.02,-0.01,32.19
17952201,1600,1,166561,233950,0.70,-0.21,9.89,-0.03,-0.01,-0.01,32.19
17992201,1625,1,166691,234657,0.68,-0.23,9.94,-0.04,-0.00,-0.01,32.19
18032201,1616,1,166765,235096,0.70,-0.22,9.96,-0.03,-0.00,-0.00,32.19
18072201,1643,1,167160,235305,0.67,-0.22,9.94,-0.03,-0.01,-0.01,32.19
18112201,1623,1,167039,235389,0.68,-0.24,9.98,-0.04,0.00,-0.01,32.19
18152179,1633,1,167491,235435,0.66,-0.23,9.96,-0.03,-0.00,-0.01,32.19
18192201,1646,1,167246,235821,0.67,-0.21,9.96,-0.03,-0.01,-0.01,32.19
18232201,1615,1,167842,236295,0.68,-0.20,9.93,-0.03,-0.03,-0.01,32.19
18272889,1651,1,168311,235518,0.67,-0.22,10.01,-0.03,-0.02,-0.00,32.05
18311200,1675,1,167624,230991,0.72,-0.21,9.97,-0.03,-0.01,-0.01,32.05
18351200,1682,1,166664,229491,0.68,-0.22,9.95,-0.03,-0.01,-0.01,32.05
18391200,1690,1,167056,230046,0.71,-0.22,9.98,-0.03,-0.02,-0.01,32.05
18431199,1709,1,166912,231458,0.70,-0.21,9.96,-0.03,-0.03,-0.01,32.05
18471201,1718,1,167630,233304,0.70,-0.23,9.96,-0.03,-0.03,-0.01,32.05
18511200,1713,1,168229,234517,0.74,-0.20,9.91,-0.03,-0.03,-0.01,32.05
18551200,1762,1,168942,235075,0.74,-0.22,9.94,-0.04,-0.00,-0.01,32.05
18591200,1770,1,168177,235277,0.71,-0.20,9.92,-0.04,0.02,-0.00,32.05
18631178,1793,1,168359,235514,0.69,-0.23,9.97,-0.04,0.02,-0.00,32.05
18671178,1744,1,168416,235789,0.69,-0.22,9.97,-0.04,0.01,-0.01,32.05
18711179,1725,1,168898,236202,0.69,-0.22,9.97,-0.04,-0.00,-0.00,32.05
18751199,1738,1,168845,236618,0.68,-0.22,9.99,-0.03,-0.01,-0.01,32.05
18791200,1710,1,168986,236226,0.68,-0.22,9.98,-0.03,-0.02,-0.01,32.05
18831199,1667,1,168778,234325,0.72,-0.21,9.95,-0.03,-0.02,-0.01,32.05
18871200,1707,1,169024,234359,0.70,-0.23,9.96,-0.04,-0.00,-0.01,32.05
18911199,1723,1,168179,235240,0.70,-0.21,9.98,-0.03,-0.00,-0.01,32.05
18951204,1719,1,168571,235897,0.70,-0.21,9.94,-0.03,-0.00,-0.01,32.05
18991200,1594,1,168137,236321,0.69,-0.23,9.95,-0.04,0.00,-0.01,32.05
19031179,1637,1,168339,236142,0.68,-0.24,9.96,-0.03,0.00,-0.01,32.05
19071178,1694,1,168432,235638,0.67,-0.23,9.97,-0.03,-0.01,-0.00,32.05
19111200,1632,1,168427,235286,0.68,-0.24,9.95,-0.03,-0.01,-0.01,32.05
19151199,1597,1,168171,235210,0.68,-0.21,9.98,-0.03,-0.01,-0.00,32.05
19191200,1595,1,168535,235468,0.70,-0.23,9.96,-0.03,-0.01,-0.01,32.05
19231199,1599,1,168433,235753,0.70,-0.23,9.95,-0.04,-0.00,-0.00,32.05
19271201,1595,1,167883,235990,0.69,-0.21,9.96,-0.04,0.00,-0.01,32.05
19311867,1557,1,166105,235274,0.67,-0.22,9.97,-0.04,-0.01,-0.01,32.13
19352201,1535,1,165942,232578,0.69,-0.23,9.97,-0.03,-0.01,-0.01,32.13
19392201,1593,1,165337,232163,0.68,-0.23,9.96,-0.03,-0.01,-0.01,32.13
19432201,1535,1,165811,233113,0.69,-0.23,9.96,-0.03,-0.00,-0.00,32.13
19472201,1555,1,166010,234158,0.71,-0.21,9.94,-0.03,-0.00,-0.00,32.13
19512200,1614,1,166530,234889,0.68,-0.20,9.97,-0.03,-0.01,-0.00,32.13
19552201,1558,1,165097,235222,0.70,-0.22,9.94,-0.03,-0.00,-0.01,32.13
19592201,1456,1,165606,235343,0.70,-0.23,9.98,-0.03,-0.01,-0.01,32.13
19632201,1456,1,165809,235477,0.70,-0.23,9.96,-0.03,-0.01,-0.01,32.13
19672201,1525,1,166171,235553,0.70,-0.22,9.93,-0.03,-0.01,-0.01,32.13
19712201,1535,1,165870,235724,0.69,-0.21,9.96,-0.03,-0.00,-0.00,32.13
19752201,1515,1,166299,235881,0.67,-0.24,9.96,-0.03,-0.00,-0.00,32.13
19792201,1516,1,166417,235939,0.69,-0.22,9.95,-0.03,-0.01,-0.01,32.13
19832201,1518,1,166586,234999,0.68,-0.22,9.96,-0.04,-0.00,-0.01,32.13
19872201,1554,1,165356,232495,0.67,-0.23,9.99,-0.03,-0.00,-0.00,32.13
19912201,1535,1,164850,231769,0.70,-0.22,9.96,-0.03,-0.01,-0.00,32.13
19952201,1535,1,165018,232559,0.69,-0.23,9.95,-0.03,-0.01,-0.01,32.13
19992201,1529,1,165611,233541,0.68,-0.21,9.94,-0.04,-0.00,-0.00,32.13
20032201,1535,1,165583,234664,0.67,-0.23,9.94,-0.03,-0.01,-0.01,32.13
20072201,1583,1,166305,235159,0.68,-0.23,9.95,-0.03,-0.01,-0.01,32.13
20112201,1584,1,166685,235251,0.70,-0.24,9.98,-0.03,-0.01,-0.01,32.13
20152201,1555,1,166994,235268,0.67,-0.21,9.99,-0.03,-0.01,-0.01,32.13
20192201,1525,1,165455,235383,0.68,-0.22,9.96,-0.03,-0.01,-0.00,32.13
20232200,1556,1,166024,235613,0.68,-0.22,9.98,-0.04,-0.01,-0.00,32.13
20272201,1535,1,166291,235810,0.68,-0.21,9.96,-0.03,-0.01,-0.00,32.13
20312889,1573,1,168591,236075,0.71,-0.21,9.94,-0.03,-0.01,-0.01,32.13
20351200,1564,1,168323,235060,0.68,-0.21,9.98,-0.03,-0.00,-0.00,32.13
20391200,1565,1,167625,232576,0.69,-0.21,9.95,-0.03,-0.01,-0.00,32.13
20431199,1586,1,166818,232310,0.69,-0.20,9.96,-0.03,-0.01,-0.01,32.13
20471200,1570,1,167458,232909,0.71,-0.22,9.95,-0.03,-0.01,-0.01,32.13
20511199,1558,1,167072,233665,0.70,-0.23,9.96,-0.03,-0.01,-0.01,32.13
20551201,1581,1,167545,234432,0.70,-0.22,9.95,-0.03,-0.01,-0.00,32.13
20591242,1566,1,168231,235021,0.69,-0.22,9.96,-0.03,-0.00,-0.00,32.13
20631201,1602,1,168142,235061,0.70,-0.21,9.99,-0.03,-0.00,-0.00,32.13
20671199,1567,1,167877,235074,0.69,-0.22,9.97,-0.03,-0.00,-0.01,32.13
20711200,1579,1,167915,235245,0.70,-0.22,9.95,-0.03,-0.01,-0.01,32.13
20751200,1535,1,168010,235447,0.67,-0.22,9.95,-0.03,-0.01,-0.01,32.13
20791237,1535,1,168784,235601,0.67,-0.22,9.96,-0.03,-0.01,-0.01,32.13
20831200,1565,1,167482,235848,0.69,-0.23,9.95,-0.03,-0.01,-0.01,32.13
20871201,1570,1,167862,235399,0.68,-0.22,9.93,-0.04,-0.01,-0.01,32.13
20911200,1595,1,167093,232781,0.68,-0.21,9.99,-0.03,-0.01,-0.01,32.13
20951201,1578,1,166746,232305,0.68,-0.23,9.94,-0.03,-0.01,-0.01,32.13
20991200,1524,1,166407,233108,0.68,-0.22,9.98,-0.04,-0.00,-0.01,32.13
21031201,1570,1,167051,233817,0.68,-0.21,9.99,-0.04,-0.00,-0.01,32.13
21071200,1583,1,167121,234595,0.69,-0.21,9.96,-0.04,-0.00,-0.00,32.13
21111201,1575,1,167780,234929,0.69,-0.21,9.95,-0.04,-0.00,-0.00,32.13
21151200,1557,1,166709,234920,0.66,-0.22,9.97,-0.03,-0.00,-0.01,32.13
21191200,1553,1,166805,235064,0.65,-0.22,9.96,-0.03,-0.01,-0.00,32.13
21231200,1535,1,166966,235145,0.67,-0.22,9.97,-0.03,-0.01,-0.01,32.13
21271201,1535,1,167579,235268,0.67,-0.23,9.95,-0.03,-0.01,-0.00,32.13
21311200,1513,1,167132,235372,0.69,-0.21,9.96,-0.03,-0.01,-0.01,32.13
21351890,1520,1,165999,235593,0.66,-0.23,9.96,-0.03,-0.01,-0.01,32.27
21392200,1521,1,166625,235746,0.68,-0.23,10.00,-0.03,-0.00,-0.00,32.27
21432200,1535,1,166762,234042,0.67,-0.23,9.98,-0.03,-0.01,-0.01,32.27
21472200,1535,1,165003,232467,0.66,-0.22,9.95,-0.03,-0.01,-0.00,32.27
21512201,1525,1,164871,232697,0.69,-0.22,9.89,-0.03,-0.02,-0.01,32.27
21552200,1497,1,165664,233615,0.69,-0.22,9.96,-0.03,-0.01,-0.01,32.27
21592201,1521,1,165977,234299,0.67,-0.20,9.97,-0.03,-0.01,-0.00,32.27
21632200,1533,1,165781,234804,0.67,-0.23,9.96,-0.03,-0.00,-0.00,32.27
21672200,1535,1,166014,235023,0.67,-0.23,9.97,-0.03,-0.01,-0.01,32.27
21712200,1535,1,166384,235044,0.68,-0.21,9.97,-0.03,-0.01,-0.00,32.27
21752201,1535,1,166082,235061,0.65,-0.22,9.96,-0.03,-0.01,-0.01,32.27
21792200,1520,1,165829,235193,0.67,-0.23,9.97,-0.03,-0.01,-0.01,32.27
21832200,1521,1,166073,235381,0.68,-0.21,9.93,-0.03,-0.02,-0.01,32.27
21872200,1535,1,166217,235571,0.67,-0.21,9.95,-0.03,-0.01,-0.01,32.27
21912201,1535,1,166101,235643,0.66,-0.23,9.97,-0.03,-0.01,-0.01,32.27
21952201,1506,1,166047,234160,0.67,-0.22,9.97,-0.03,-0.01,-0.01,32.27
21992201,1525,1,165370,231958,0.66,-0.22,9.95,-0.03,-0.01,-0.01,32.27
22032200,1522,1,165198,232138,0.67,-0.22,9.96,-0.03,-0.01,-0.01,32.27
22072201,1488,1,165706,232811,0.68,-0.23,9.98,-0.03,-0.01,-0.00,32.27
22112200,1504,1,164821,233567,0.69,-0.22,9.95,-0.03,-0.01,-0.01,32.27
22152201,1488,1,165626,234341,0.68,-0.23,9.99,-0.03,-0.00,-0.00,32.27
22192200,1490,1,165458,234663,0.67,-0.21,9.96,-0.03,-0.00,-0.00,32.27
22232203,1493,1,165822,234661,0.66,-0.22,9.94,-0.03,-0.01,-0.00,32.27
22272201,1504,1,165667,234784,0.67,-0.22,9.97,-0.03,-0.01,-0.01,32.27
22312201,1517,1,165919,234865,0.68,-0.20,9.97,-0.03,-0.01,-0.01,32.27
22352889,1489,1,165899,235093,0.68,-0.21,9.96,-0.03,-0.01,-0.01,32.19
22391202,1470,1,165958,235315,0.68,-0.21,9.96,-0.03,-0.01,-0.01,32.19
22431227,1521,1,165507,235442,0.67,-0.24,9.93,-0.03,-0.01,-0.01,32.19
22471202,1510,1,165717,233734,0.67,-0.22,9.96,-0.03,-0.01,-0.01,32.19
22511200,1479,1,164528,231201,0.70,-0.22,9.96,-0.03,-0.01,-0.01,32.19
22551200,1535,1,164435,231385,0.68,-0.22,9.98,-0.03,-0.01,-0.01,32.19
22591200,1535,1,164322,232274,0.68,-0.21,9.96,-0.03,-0.01,-0.01,32.19
22631224,1535,1,164776,233062,0.68,-0.21,9.94,-0.04,-0.01,-0.00,32.19
22671200,1569,1,165173,233813,0.67,-0.22,9.95,-0.03,-0.00,-0.00,32.19
22711202,1535,1,165635,234141,0.68,-0.21,9.95,-0.03,-0.01,-0.01,32.19
22751200,1535,1,164379,234089,0.68,-0.23,9.97,-0.03,-0.01,-0.01,32.19
22791202,1568,1,164627,234159,0.69,-0.23,9.97,-0.03,-0.01,-0.00,32.19
22831200,1561,1,164390,234372,0.67,-0.22,9.96,-0.03,-0.01,-0.01,32.19
22871202,1607,1,164787,234612,0.68,-0.21,9.93,-0.03,-0.01,-0.01,32.19
22911200,1556,1,164600,234812,0.67,-0.21,9.99,-0.03,-0.01,-0.00,32.19
22951202,1562,1,164735,235036,0.68,-0.21,9.97,-0.03,-0.01,-0.00,32.19
22991201,1565,1,164648,233799,0.69,-0.22,9.97,-0.03,-0.01,-0.01,32.19
23031201,1559,1,163938,231208,0.67,-0.20,9.98,-0.03,-0.01,-0.01,32.19
23071200,1535,1,162947,231001,0.68,-0.24,9.97,-0.03,-0.01,-0.01,32.19
23111202,1529,1,163543,231951,0.68,-0.22,9.94,-0.03,-0.01,-0.01,32.19
23151200,1527,1,163603,232741,0.68,-0.23,9.95,-0.03,-0.01,-0.01,32.19
23191201,1535,1,164445,233494,0.68,-0.21,9.97,-0.03,-0.01,-0.01,32.19
23231200,1522,1,166004,233958,0.68,-0.22,9.96,-0.03,-0.01,-0.01,32.19
23272200,1519,1,165961,234178,0.68,-0.22,10.00,-0.03,-0.01,-0.01,32.19
23312200,1509,1,165646,234262,0.66,-0.22,9.97,-0.03,-0.00,-0.01,32.19
23352201,1513,1,166237,234521,0.67,-0.23,9.95,-0.03,-0.00,-0.00,32.19
23392889,1492,1,163835,234715,0.66,-0.22,9.96,-0.03,-0.01,-0.01,32.19
23431201,1557,1,164245,234913,0.70,-0.21,9.94,-0.03,-0.01,-0.00,32.19
23471199,1567,1,164352,235168,0.68,-0.21,9.95,-0.03,-0.01,-0.01,32.19
23511201,1521,1,164782,234568,0.68,-0.23,9.96,-0.03,-0.00,-0.01,32.19
23551200,1569,1,163549,231810,0.68,-0.22,9.96,-0.03,-0.01,-0.01,32.19
23591201,1570,1,162973,230962,0.67,-0.23,9.96,-0.03,-0.01,-0.01,32.19
23631200,1535,1,163347,231691,0.68,-0.22,9.97,-0.03,-0.01,-0.01,32.19
23671201,1565,1,163957,232504,0.69,-0.23,9.97,-0.03,-0.01,-0.01,32.19
23711200,1565,1,163733,233437,0.66,-0.23,9.96,-0.03,-0.01,-0.00,32.19
23751201,1574,1,164359,234098,0.68,-0.22,9.95,-0.03,-0.00,-0.01,32.19
23791200,1554,1,164355,234368,0.68,-0.24,9.99,-0.03,-0.01,-0.01,32.19
23831200,1535,1,164317,234421,0.68,-0.22,9.98,-0.03,-0.01,-0.01,32.19
23871200,1585,1,164246,234545,0.66,-0.21,9.95,-0.03,-0.00,-0.01,32.19
23911200,1565,1,164455,234736,0.66,-0.22,9.97,-0.03,-0.01,-0.01,32.19
23951200,1591,1,164709,234971,0.65,-0.22,9.97,-0.03,-0.01,-0.01,32.19
23991200,1557,1,164892,235002,0.69,-0.22,9.96,-0.03,-0.01,-0.01,32.19
24031200,1571,1,164005,235176,0.67,-0.23,9.98,-0.03,-0.01,-0.01,32.19
24071212,1535,1,163449,233060,0.66,-0.21,9.96,-0.03,-0.01,-0.01,32.19
24111200,1566,1,162913,231273,0.67,-0.22,9.95,-0.03,-0.01,-0.01,32.19
24151200,1584,1,163121,231615,0.69,-0.21,9.97,-0.03,-0.01,-0.01,32.19
24191200,1535,1,163150,232579,0.69,-0.23,9.97,-0.03,-0.01,-0.00,32.19
24231201,1521,1,163676,233399,0.67,-0.23,9.97,-0.03,-0.01,-0.00,32.19
24271200,1566,1,163698,234220,0.68,-0.23,9.91,-0.03,-0.01,-0.01,32.19
24311201,1531,1,163933,234427,0.69,-0.22,9.96,-0.03,-0.01,-0.01,32.19
24351200,1535,1,163604,234491,0.67,-0.22,9.95,-0.03,-0.01,-0.01,32.19
24391201,1507,1,163815,234650,0.66,-0.22,9.94,-0.03,-0.01,-0.01,32.19
24431888,1493,1,164747,234835,0.65,-0.23,9.96,-0.03,-0.01,-0.01,32.17
24472201,1525,1,166101,234957,0.66,-0.22,9.97,-0.03,-0.01,-0.01,32.17
24512200,1520,1,165842,235211,0.67,-0.23,9.93,-0.03,-0.01,-0.00,32.17
24552201,1503,1,166436,235362,0.68,-0.22,9.96,-0.03,-0.01,-0.01,32.17
24592200,1504,1,165995,233964,0.67,-0.23,9.99,-0.03,-0.01,-0.01,32.17
24632200,1535,1,165472,231963,0.66,-0.21,9.96,-0.03,-0.01,-0.00,32.17
24672200,1598,1,164171,232172,0.69,-0.22,9.97,-0.03,-0.01,-0.01,32.17
24712201,1600,1,164538,232837,0.68,-0.23,9.96,-0.03,-0.01,-0.01,32.17
24752200,1627,1,164929,233684,0.67,-0.23,9.92,-0.03,-0.01,-0.01,32.17
24792201,1622,1,165563,234344,0.67,-0.23,9.96,-0.03,-0.01,-0.00,32.17
24832200,1638,1,165436,234624,0.67,-0.22,10.00,-0.04,-0.00,-0.01,32.17
24872201,1695,1,165449,234616,0.66,-0.22,9.96,-0.03,-0.01,-0.00,32.17
24912200,1721,1,165876,234670,0.68,-0.24,9.96,-0.04,-0.01,-0.01,32.17
24952201,1713,1,166317,234853,0.68,-0.22,9.96,-0.03,-0.01,-0.01,32.17
24992201,1728,1,165414,235030,0.68,-0.22,9.95,-0.03,-0.01,-0.01,32.17
25032201,1813,1,165668,235164,0.66,-0.21,9.96,-0.03,-0.01,-0.01,32.17
25072200,1840,1,166118,235401,0.67,-0.23,9.95,-0.03,-0.01,-0.00,32.17
25112201,1821,1,165906,233799,0.66,-0.24,9.97,-0.03,-0.01,-0.01,32.17
25152200,1776,1,164596,231666,0.67,-0.24,9.96,-0.03,-0.01,-0.01,32.17
25192201,1783,1,164953,231855,0.69,-0.23,9.96,-0.03,-0.01,-0.01,32.17
25232200,1741,1,165141,232657,0.68,-0.22,9.97,-0.03,-0.01,-0.01,32.17
25272201,1691,1,165479,233181,0.68,-0.22,9.96,-0.03,-0.01,-0.01,32.17
25312200,1638,1,164680,233930,0.67,-0.23,9.94,-0.03,-0.01,-0.01,32.17
25352201,1611,1,164856,234304,0.66,-0.24,9.97,-0.03,-0.01,-0.01,32.17
25392200,1573,1,165198,234276,0.66,-0.23,9.96,-0.03,-0.01,-0.01,32.17
25432889,1481,1,163130,234314,0.69,-0.21,9.97,-0.03,-0.01,-0.01,32.09
25473200,1471,1,163378,234472,0.68,-0.22,9.96,-0.04,-0.01,-0.01,32.09
25513201,1453,1,163616,234692,0.67,-0.21,9.97,-0.03,-0.01,-0.01,32.09
25553201,1449,1,163492,234898,0.68,-0.22,9.97,-0.03,-0.01,-0.01,32.09
25593201,1439,1,163899,235056,0.66,-0.23,9.94,-0.03,-0.01,-0.01,32.09
25633201,1438,1,163095,233334,0.67,-0.22,9.95,-0.03,-0.01,-0.01,32.09
25673201,1445,1,162438,230922,0.68,-0.23,9.96,-0.03,-0.01,-0.00,32.09
25713229,1440,1,162237,231118,0.68,-0.21,9.96,-0.03,-0.01,-0.01,32.09
25753201,1433,1,162997,232010,0.68,-0.24,9.94,-0.03,-0.01,-0.00,32.09
25793201,1462,1,162622,232785,0.67,-0.24,9.97,-0.03,-0.01,-0.00,32.09
25833201,1456,1,163333,233578,0.66,-0.23,9.99,-0.03,-0.01,-0.01,32.09
25873200,1498,1,163427,233987,0.67,-0.23,9.97,-0.03,-0.01,-0.00,32.09
25913245,1526,1,163995,233958,0.65,-0.23,9.95,-0.03,-0.01,-0.01,32.09
25953201,1488,1,162545,234073,0.68,-0.23,9.97,-0.03,-0.01,-0.01,32.09
25993201,1526,1,162870,234205,0.67,-0.21,9.96,-0.03,-0.01,-0.01,32.09
26033201,1563,1,162808,234495,0.66,-0.22,9.98,-0.03,-0.01,-0.01,32.09
26073201,1557,1,163408,234689,0.66,-0.23,9.95,-0.03,-0.01,-0.01,32.09
26113219,1563,1,162838,234878,0.66,-0.22,9.94,-0.03,-0.01,-0.01,32.09
26153201,1523,1,163470,233745,0.66,-0.22,9.98,-0.04,-0.01,-0.01,32.09
26193201,1575,1,162675,231429,0.68,-0.22,9.95,-0.03,-0.01,-0.00,32.09
26233201,1677,1,162538,231248,0.66,-0.20,9.97,-0.03,-0.01,-0.01,32.09
26273201,1657,1,161956,232149,0.69,-0.22,9.96,-0.04,-0.01,-0.01,32.09
26313201,1661,1,162595,232952,0.68,-0.23,9.96,-0.03,-0.01,-0.01,32.09
26352200,1693,1,164244,233668,0.68,-0.20,9.92,-0.03,-0.01,-0.01,32.09
26392203,1683,1,164325,234035,0.67,-0.23,9.97,-0.03,-0.01,-0.01,32.09
26432890,1650,1,162702,234182,0.67,-0.21,9.93,-0.03,-0.01,-0.00,32.05
26473201,1696,1,163565,234243,0.67,-0.22,9.95,-0.03,-0.01,-0.00,32.05
26513200,1681,1,163254,234339,0.66,-0.21,9.95,-0.03,-0.01,-0.01,32.05
26553201,1690,1,163541,234388,0.67,-0.21,9.96,-0.03,-0.00,-0.01,32.05
26593201,1686,1,162194,234674,0.65,-0.22,9.97,-0.04,-0.01,-0.01,32.05
26633201,1683,1,162736,234873,0.68,-0.25,9.96,-0.03,-0.01,-0.01,32.05
26673200,1664,1,162502,234069,0.67,-0.22,9.96,-0.03,-0.01,-0.01,32.05
26713201,1696,1,161369,231654,0.66,-0.22,9.95,-0.03,-0.01,-0.01,32.05
26753200,1671,1,160850,231188,0.67,-0.23,9.97,-0.03,-0.01,-0.01,32.05
26793201,1674,1,161227,231930,0.68,-0.24,9.95,-0.03,-0.01,-0.01,32.05
26833201,1663,1,161724,232755,0.68,-0.20,9.95,-0.03,-0.01,-0.01,32.05
26873201,1650,1,162341,233499,0.67,-0.22,9.94,-0.03,-0.01,-0.00,32.05
26913201,1627,1,161665,233937,0.68,-0.22,9.97,-0.03,-0.01,-0.01,32.05
26953201,1635,1,162099,234011,0.66,-0.21,9.97,-0.03,-0.00,-0.00,32.05
26993200,1663,1,162092,234107,0.65,-0.22,9.95,-0.03,-0.01,-0.00,32.05
27033201,1648,1,162242,234207,0.66,-0.22,9.94,-0.03,-0.00,-0.01,32.05
27073200,1634,1,162139,234565,0.66,-0.24,9.97,-0.03,-0.01,-0.00,32.05
27113201,1603,1,162287,234720,0.66,-0.24,9.96,-0.03,-0.01,-0.01,32.05
27153200,1616,1,162656,234911,0.67,-0.22,9.97,-0.03,-0.01,-0.00,32.05
27193201,1627,1,162747,234031,0.66,-0.22,9.96,-0.03,-0.01,-0.01,32.05
27233200,1657,1,160681,231576,0.67,-0.23,9.93,-0.03,-0.01,-0.01,32.05
27273201,1647,1,160652,230953,0.67,-0.23,9.95,-0.03,-0.01,-0.01,32.05
27313200,1658,1,161056,231706,0.66,-0.24,9.93,-0.03,-0.01,-0.01,32.05
27352203,1680,1,161875,232711,0.64,-0.24,9.98,-0.03,-0.01,-0.01,32.05
27392201,1601,1,162159,233658,0.67,-0.22,9.96,-0.03,-0.01,-0.01,32.05
27432202,1629,1,162348,234077,0.67,-0.23,9.94,-0.03,-0.01,-0.00,32.05
27472889,1598,1,161769,234209,0.67,-0.24,9.96,-0.03,-0.01,-0.01,32.17
27513201,1616,1,162861,234231,0.67,-0.23,9.99,-0.03,-0.01,-0.01,32.17
27553200,1613,1,161856,234342,0.67,-0.21,9.94,-0.03,-0.01,-0.01,32.17
27593201,1622,1,162682,234438,0.67,-0.22,9.95,-0.03,-0.01,-0.00,32.17
27633201,1584,1,162342,234686,0.66,-0.23,9.95,-0.03,-0.01,-0.01,32.17
27673201,1616,1,162935,234913,0.66,-0.22,9.96,-0.03,-0.01,-0.00,32.17
27713201,1620,1,162686,234087,0.66,-0.23,9.95,-0.03,-0.01,-0.01,32.17
27753201,1620,1,161888,231623,0.66,-0.21,9.96,-0.03,-0.01,-0.01,32.17
27793201,1622,1,161842,231222,0.67,-0.21,9.94,-0.03,-0.01,-0.00,32.17
27833201,1599,1,162244,231739,0.67,-0.24,9.97,-0.03,-0.01,-0.01,32.17
27873200,1603,1,161795,232519,0.67,-0.21,9.99,-0.03,-0.01,-0.01,32.17
27913201,1600,1,162295,233398,0.65,-0.21,9.97,-0.03,-0.01,-0.01,32.17
27953200,1584,1,162403,233850,0.66,-0.22,9.98,-0.03,-0.00,-0.00,32.17
27993201,1584,1,162866,233844,0.64,-0.22,9.98,-0.03,-0.01,-0.01,32.17
28033200,1600,1,162333,234006,0.67,-0.23,9.97,-0.03,-0.01,-0.01,32.17
28073201,1584,1,162641,234043,0.65,-0.22,9.96,-0.03,-0.01,-0.01,32.17
28113200,1594,1,162931,234244,0.65,-0.22,9.98,-0.03,-0.01,-0.01,32.17
28153201,1606,1,163171,234474,0.65,-0.23,9.99,-0.03,-0.01,-0.00,32.17
28193201,1614,1,162434,234654,0.67,-0.22,9.96,-0.03,-0.01,-0.00,32.17
28233202,1584,1,163284,234182,0.66,-0.22,9.95,-0.03,-0.01,-0.01,32.17
28273201,1586,1,162556,231837,0.66,-0.22,9.97,-0.03,-0.01,-0.01,32.17
28313202,1616,1,162131,231110,0.67,-0.22,9.96,-0.03,-0.01,-0.01,32.17
28353201,1590,1,162088,231621,0.67,-0.22,9.96,-0.03,-0.01,-0.01,32.17
28393201,1599,1,162809,232284,0.67,-0.23,9.94,-0.03,-0.01,-0.01,32.17
28433200,1573,1,162898,233127,0.66,-0.22,9.97,-0.03,-0.01,-0.01,32.17
28473890,1646,1,163390,233703,0.66,-0.21,9.96,-0.03,-0.01,-0.00,32.27
28512200,1629,1,161439,233899,0.66,-0.21,9.97,-0.03,-0.01,-0.01,32.27
28552202,1646,1,161894,233936,0.66,-0.21,9.95,-0.03,-0.01,-0.01,32.27
28592201,1623,1,161793,234117,0.67,-0.21,9.96,-0.03,-0.01,-0.01,32.27
28632202,1615,1,162437,234300,0.66,-0.23,9.96,-0.03,-0.01,-0.01,32.27
28672200,1621,1,162161,234437,0.66,-0.23,9.96,-0.03,-0.01,-0.01,32.27
28712203,1629,1,162612,234680,0.66,-0.21,9.96,-0.03,-0.01,-0.01,32.27
28752200,1600,1,162805,234592,0.65,-0.23,9.96,-0.03,-0.00,-0.01,32.27
28792201,1648,1,162978,232528,0.65,-0.23,9.98,-0.03,-0.01,-0.01,32.27
28832200,1638,1,161615,231214,0.66,-0.22,9.98,-0.03,-0.01,-0.01,32.27
28872201,1626,1,162095,231595,0.65,-0.22,9.95,-0.03,-0.01,-0.01,32.27
28912200,1618,1,162263,232340,0.67,-0.22,9.93,-0.03,-0.01,-0.00,32.27
28952201,1616,1,162596,233008,0.70,-0.24,9.97,-0.03,-0.01,-0.01,32.27
28992200,1583,1,162655,233722,0.67,-0.23,9.97,-0.03,-0.01,-0.00,32.27
29032201,1573,1,163293,233962,0.65,-0.23,9.95,-0.03,-0.01,-0.01,32.27
29072200,1602,1,163304,234019,0.68,-0.20,9.96,-0.03,-0.01,-0.01,32.27
29112201,1593,1,163796,234016,0.65,-0.22,9.94,-0.03,-0.01,-0.01,32.27
29152200,1574,1,162458,234172,0.65,-0.23,9.95,-0.03,-0.01,-0.01,32.27
29192216,1565,1,162550,234321,0.66,-0.22,9.95,-0.03,-0.01,-0.01,32.27
29232201,1535,1,162786,234547,0.65,-0.23,9.97,-0.03,-0.01,-0.01,32.27
29272201,1576,1,163374,234732,0.66,-0.23,9.93,-0.03,-0.01,-0.00,32.27
29312200,1520,1,163090,233120,0.66,-0.23,9.96,-0.03,-0.01,-0.01,32.27
29352201,1556,1,162710,231106,0.66,-0.23,9.96,-0.03,-0.01,-0.01,32.27
29392217,1514,1,161907,231431,0.65,-0.23,9.96,-0.03,-0.01,-0.01,32.27
29432201,1520,1,162582,232147,0.66,-0.21,9.96,-0.03,-0.01,-0.01,32.27
29472200,1535,1,162198,233029,0.66,-0.26,9.97,-0.03,-0.01,-0.01,32.27
29512889,1529,1,163363,233500,0.66,-0.23,9.96,-0.03,-0.01,-0.01,32.17
29553200,1516,1,165001,233820,0.63,-0.21,9.97,-0.03,-0.01,-0.00,32.17
29593201,1526,1,164955,233844,0.68,-0.21,9.95,-0.03,-0.01,-0.01,32.17
29633201,1532,1,164684,233793,0.66,-0.23,9.95,-0.03,-0.01,-0.01,32.17
29673202,1511,1,165139,233945,0.65,-0.24,9.96,-0.03,-0.00,-0.00,32.17
29713200,1509,1,165006,234284,0.66,-0.23,9.96,-0.03,-0.01,-0.01,32.17
29753201,1509,1,165620,234405,0.65,-0.23,9.99,-0.03,-0.01,-0.00,32.17
29793201,1499,1,164302,234723,0.64,-0.23,9.96,-0.03,-0.01,-0.01,32.17
29833201,1508,1,164913,233449,0.66,-0.23,9.96,-0.03,-0.01,-0.01,32.17
29873201,1511,1,163905,230579,0.65,-0.25,9.97,-0.03,-0.01,-0.01,32.17
29913202,1509,1,163571,230296,0.65,-0.23,9.96,-0.03,-0.01,-0.01,32.17
29953200,1486,1,163777,231105,0.67,-0.23,9.94,-0.03,-0.01,-0.00,32.17
29993202,1506,1,163893,231863,0.66,-0.23,9.97,-0.03,-0.01,-0.00,32.17
30033200,1531,1,164920,232817,0.66,-0.22,9.96,-0.04,-0.01,-0.01,32.17
30073202,1475,1,165352,233198,0.66,-0.23,9.96,-0.03,-0.00,-0.01,32.17
30113200,1564,1,164823,233366,0.64,-0.23,9.96,-0.03,-0.01,-0.01,32.17
30153202,1535,1,164879,233460,0.65,-0.22,9.96,-0.03,-0.01,-0.01,32.17
30193201,1567,1,164793,233698,0.64,-0.21,9.98,-0.03,-0.01,-0.01,32.17
30233202,1572,1,165165,233898,0.64,-0.22,9.99,-0.03,-0.01,-0.01,32.17
30273200,1535,1,165173,234222,0.67,-0.23,9.96,-0.03,-0.01,-0.01,32.17
30313202,1638,1,165428,234464,0.67,-0.23,9.94,-0.03,-0.01,-0.01,32.17
30353200,1634,1,165818,233947,0.67,-0.23,9.96,-0.03,-0.01,-0.01,32.17
30393201,1664,1,165104,230936,0.65,-0.22,9.96,-0.03,-0.01,-0.01,32.17
30433201,1674,1,163370,230046,0.68,-0.23,9.97,-0.03,-0.01,-0.01,32.17
30473202,1689,1,163752,230890,0.67,-0.21,9.94,-0.03,-0.01,-0.01,32.17
30513889,1680,1,162256,231636,0.67,-0.21,9.95,-0.03,-0.01,-0.01,32.13
30554201,1696,1,162969,232450,0.65,-0.23,9.96,-0.03,-0.01,-0.00,32.13
30594201,1734,1,162729,233117,0.67,-0.23,10.00,-0.03,-0.01,-0.01,32.13
30634202,1668,1,163233,233226,0.66,-0.23,9.99,-0.03,-0.01,-0.00,32.13
30674201,1648,1,163341,233404,0.63,-0.22,9.97,-0.03,-0.01,-0.01,32.13
30714201,1645,1,163735,233456,0.65,-0.22,9.95,-0.03,-0.01,-0.00,32.13
30754201,1601,1,163225,233687,0.66,-0.22,9.97,-0.03,-0.01,-0.01,32.13
30794201,1625,1,163747,234119,0.65,-0.24,9.94,-0.03,-0.01,-0.01,32.13
30834201,1554,1,163765,234366,0.65,-0.21,9.93,-0.03,-0.01,-0.00,32.13
30874201,1535,1,164052,234437,0.65,-0.25,9.97,-0.03,-0.00,-0.00,32.13
30914201,1535,1,163379,232201,0.66,-0.23,9.96,-0.03,-0.01,-0.00,32.13
30954202,1534,1,162638,230053,0.68,-0.24,9.97,-0.03,-0.01,-0.01,32.13
30994201,1514,1,162414,230235,0.67,-0.23,9.97,-0.03,-0.01,-0.01,32.13
31034212,1491,1,163185,230983,0.67,-0.23,9.96,-0.03,-0.01,-0.01,32.13
31074201,1489,1,162097,231991,0.67,-0.23,9.96,-0.03,-0.01,-0.00,32.13
31114201,1488,1,162515,232747,0.66,-0.23,9.94,-0.03,-0.01,-0.01,32.13
31154201,1411,1,162601,233114,0.65,-0.23,9.97,-0.03,-0.00,-0.00,32.13
31194201,1408,1,163281,233205,0.65,-0.23,9.99,-0.04,-0.01,-0.01,32.13
31234201,1441,1,163073,233357,0.66,-0.22,9.96,-0.03,-0.01,-0.00,32.13
31274201,1428,1,163524,233547,0.65,-0.21,9.95,-0.03,-0.01,-0.00,32.13
31314201,1406,1,163524,233781,0.67,-0.22,9.99,-0.03,-0.01,-0.01,32.13
31354201,1397,1,163745,234060,0.67,-0.24,9.96,-0.03,-0.01,-0.00,32.13
31394201,1383,1,163258,234263,0.65,-0.23,9.93,-0.03,-0.01,-0.01,32.13
31434201,1417,1,163375,233145,0.64,-0.21,9.96,-0.03,-0.01,-0.01,32.13
31474201,1369,1,162630,230287,0.67,-0.22,9.96,-0.03,-0.01,-0.01,32.13
31514890,1405,1,164527,230123,0.67,-0.23,9.95,-0.03,-0.01,-0.01,32.03
31553200,1399,1,164255,231203,0.64,-0.23,9.96,-0.03,-0.01,-0.01,32.03
31593201,1431,1,164820,231933,0.67,-0.20,9.97,-0.03,-0.01,-0.00,32.03
31633200,1439,1,164631,232937,0.67,-0.24,9.97,-0.03,-0.01,-0.01,32.03
31673203,1427,1,165402,233312,0.64,-0.24,9.95,-0.03,-0.01,-0.01,32.03
31713201,1434,1,164415,233413,0.66,-0.25,9.96,-0.03,-0.01,-0.00,32.03
31753203,1440,1,164690,233420,0.66,-0.23,9.96,-0.03,-0.01,-0.01,32.03
31793201,1411,1,164770,233716,0.66,-0.22,9.96,-0.03,-0.01,-0.01,32.03
31833203,1488,1,164967,233857,0.65,-0.22,9.96,-0.03,-0.01,-0.01,32.03
31873201,1471,1,164546,234078,0.67,-0.22,9.95,-0.03,-0.01,-0.01,32.03
31913203,1467,1,164919,234399,0.64,-0.22,9.97,-0.03,-0.01,-0.01,32.03
31953201,1475,1,165166,234206,0.66,-0.22,9.97,-0.03,-0.00,-0.01,32.03
31993202,1485,1,164648,231492,0.65,-0.22,9.98,-0.03,-0.01,-0.00,32.03
32033201,1505,1,163364,230451,0.64,-0.24,9.96,-0.03,-0.01,-0.00,32.03
32073203,1471,1,163489,231344,0.67,-0.22,9.97,-0.03,-0.01,-0.01,32.03
32113201,1486,1,163906,232269,0.67,-0.22,9.96,-0.03,-0.01,-0.00,32.03
32153203,1520,1,164605,233075,0.66,-0.23,9.96,-0.03,-0.01,-0.00,32.03
32193200,1506,1,164697,233688,0.66,-0.24,9.95,-0.03,-0.01,-0.01,32.03
32233201,1514,1,164923,233752,0.65,-0.23,9.98,-0.03,-0.01,-0.00,32.03
32273201,1520,1,164867,233825,0.66,-0.23,9.98,-0.04,-0.01,-0.01,32.03
32313203,1515,1,164942,233934,0.67,-0.23,9.98,-0.03,-0.01,-0.00,32.03
32353201,1535,1,163829,234099,0.63,-0.22,9.97,-0.03,-0.01,-0.01,32.03
32393203,1535,1,164252,234438,0.64,-0.22,9.98,-0.03,-0.01,-0.01,32.03
32433201,1535,1,164517,234510,0.67,-0.23,9.94,-0.04,-0.01,-0.01,32.03
32473202,1534,1,164910,234528,0.67,-0.23,9.95,-0.03,-0.00,-0.01,32.03
32513200,1577,1,163928,232399,0.67,-0.23,9.97,-0.03,-0.01,-0.01,32.03
32553891,1516,1,163040,230931,0.66,-0.21,9.98,-0.04,-0.01,-0.01,31.99
32594201,1535,1,163428,231397,0.65,-0.23,9.95,-0.03,-0.01,-0.00,31.99
32634201,1474,1,163944,232109,0.66,-0.23,9.95,-0.03,-0.01,-0.01,31.99
32674235,1460,1,163753,232853,0.64,-0.21,9.96,-0.03,-0.01,-0.00,31.99
32714201,1502,1,164353,233449,0.66,-0.21,9.98,-0.03,-0.01,-0.01,31.99
32754200,1520,1,164633,233617,0.66,-0.23,9.96,-0.03,-0.01,-0.01,31.99
32794201,1511,1,164800,233662,0.65,-0.23,9.98,-0.03,-0.01,-0.00,31.99
32834201,1471,1,164209,233871,0.65,-0.23,9.96,-0.03,-0.01,-0.01,31.99
32874238,1471,1,164303,234030,0.66,-0.23,9.97,-0.03,-0.01,-0.00,31.99
32914201,1511,1,164727,234274,0.64,-0.24,9.97,-0.03,-0.01,-0.01,31.99
32954201,1490,1,165333,234479,0.67,-0.24,9.96,-0.03,-0.01,-0.01,31.99
32994201,1483,1,164315,234282,0.67,-0.23,9.98,-0.04,-0.00,-0.01,31.99
33034202,1497,1,163718,231944,0.64,-0.22,9.95,-0.03,-0.01,-0.01,31.99
33074201,1519,1,162884,231007,0.65,-0.25,9.96,-0.03,-0.01,-0.01,31.99
33114202,1517,1,163523,231372,0.66,-0.23,9.96,-0.03,-0.01,-0.01,31.99
33154201,1503,1,163652,232199,0.66,-0.23,9.97,-0.03,-0.01,-0.00,31.99
33194201,1532,1,164043,233010,0.65,-0.22,9.98,-0.03,-0.01,-0.00,31.99
33234200,1527,1,164054,233569,0.67,-0.25,9.97,-0.03,-0.01,-0.01,31.99
33274201,1509,1,164669,233726,0.66,-0.22,9.96,-0.04,-0.00,-0.01,31.99
33314201,1472,1,164087,233704,0.63,-0.21,9.96,-0.03,-0.01,-0.01,31.99
33354202,1488,1,164381,233826,0.67,-0.23,9.97,-0.03,-0.01,-0.01,31.99
33394200,1522,1,164836,234002,0.67,-0.22,9.95,-0.03,-0.01,-0.01,31.99
33434201,1568,1,165120,234297,0.67,-0.21,9.97,-0.03,-0.01,-0.01,31.99
33474200,1535,1,164945,234505,0.66,-0.21,9.96,-0.03,-0.01,-0.01,31.99
33514201,1503,1,165609,234029,0.66,-0.22,9.95,-0.03,-0.01,-0.00,31.99
33554889,1473,1,164022,231265,0.65,-0.23,9.99,-0.03,-0.01,-0.00,32.09
33593201,1574,1,163186,230205,0.66,-0.23,9.97,-0.03,-0.01,-0.01,32.09
33633199,1561,1,162038,231128,0.67,-0.23,9.96,-0.03,-0.01,-0.01,32.09
33673201,1568,1,162915,231832,0.68,-0.21,9.95,-0.03,-0.01,-0.01,32.09
33713200,1600,1,163071,232704,0.67,-0.21,9.95,-0.03,-0.01,-0.00,32.09
33753201,1589,1,163737,233223,0.64,-0.22,9.97,-0.03,-0.01,-0.01,32.09
33793200,1595,1,163222,233414,0.68,-0.22,9.96,-0.03,-0.01,-0.00,32.09
33833200,1614,1,163598,233423,0.64,-0.23,9.95,-0.03,-0.01,-0.01,32.09
33873200,1584,1,163639,233669,0.64,-0.21,9.98,-0.03,-0.01,-0.01,32.09
33913201,1521,1,164253,233788,0.64,-0.22,9.96,-0.03,-0.01,-0.01,32.09
33953200,1580,1,163438,234130,0.65,-0.23,9.96,-0.03,-0.01,-0.01,32.09
33993201,1600,1,163526,234219,0.66,-0.23,9.97,-0.03,-0.01,-0.01,32.09
34033200,1633,1,163486,233521,0.64,-0.24,9.95,-0.03,-0.01,-0.01,32.09
34073200,1593,1,162979,230635,0.66,-0.23,9.98,-0.03,-0.01,-0.01,32.09
34113199,1634,1,162482,230316,0.67,-0.22,9.95,-0.03,-0.01,-0.01,32.09
34153201,1632,1,162623,231166,0.66,-0.21,9.98,-0.03,-0.01,-0.01,32.09
34193200,1605,1,162864,231778,0.65,-0.23,9.96,-0.03,-0.01,-0.01,32.09
34233201,1652,1,163212,232607,0.66,-0.22,9.94,-0.03,-0.01,-0.01,32.09
34273200,1600,1,162518,233170,0.65,-0.22,9.95,-0.03,-0.01,-0.00,32.09
34313245,1612,1,162742,233343,0.66,-0.23,9.98,-0.03,-0.01,-0.00,32.09
34353199,1629,1,162864,233516,0.67,-0.22,9.93,-0.03,-0.01,-0.01,32.09
34393201,1615,1,163264,233569,0.64,-0.22,9.95,-0.03,-0.01,-0.01,32.09
34433199,1607,1,162765,233897,0.67,-0.22,9.96,-0.03,-0.01,-0.01,32.09
34473201,1613,1,163305,234065,0.65,-0.22,9.98,-0.03,-0.01,-0.01,32.09
34513216,1616,1,163086,234345,0.65,-0.21,9.95,-0.03,-0.01,-0.00,32.09
34553200,1629,1,163477,232897,0.65,-0.23,9.96,-0.03,-0.01,-0.01,32.09
34593888,1565,1,162801,230445,0.66,-0.22,9.96,-0.03,-0.01,-0.01,32.17
34634201,1600,1,163954,230315,0.66,-0.21,9.97,-0.03,-0.01,-0.01,32.17
34674201,1574,1,164301,230836,0.66,-0.23,9.95,-0.03,-0.01,-0.01,32.17
34714223,1598,1,164303,231662,0.63,-0.25,9.97,-0.03,-0.01,-0.01,32.17
34754200,1616,1,164384,232630,0.65,-0.22,9.95,-0.03,-0.01,-0.00,32.17
34794201,1593,1,164844,233062,0.66,-0.23,9.98,-0.04,-0.00,-0.01,32.17
34834200,1600,1,164945,233237,0.65,-0.22,9.98,-0.03,-0.01,-0.01,32.17
34874201,1569,1,165418,233150,0.64,-0.22,9.98,-0.03,-0.01,-0.01,32.17
34914200,1593,1,164105,233390,0.65,-0.21,9.97,-0.03,-0.01,-0.01,32.17
34954201,1586,1,164335,233609,0.66,-0.23,9.96,-0.03,-0.01,-0.01,32.17
34994200,1583,1,164401,233821,0.64,-0.22,9.96,-0.03,-0.01,-0.01,32.17
35034202,1597,1,165034,234139,0.66,-0.22,10.00,-0.03,-0.01,-0.01,32.17
35074200,1599,1,164908,232552,0.66,-0.22,9.94,-0.03,-0.01,-0.01,32.17
35114202,1605,1,163990,229659,0.65,-0.22,9.94,-0.03,-0.01,-0.01,32.17
35154200,1587,1,163613,229550,0.66,-0.21,9.96,-0.03,-0.00,-0.01,32.17
35194202,1600,1,163637,230392,0.66,-0.22,9.93,-0.03,-0.01,-0.01,32.17
35234201,1610,1,163774,231162,0.67,-0.20,9.98,-0.03,-0.01,-0.00,32.17
35274201,1648,1,164279,231984,0.65,-0.23,9.97,-0.03,-0.01,-0.00,32.17
35314201,1602,1,164486,232428,0.66,-0.22,9.94,-0.03,-0.01,-0.01,32.17
35355201,1563,1,163005,232552,0.67,-0.22,9.98,-0.03,-0.01,-0.01,32.17
35395201,1603,1,162707,232649,0.66,-0.21,9.98,-0.03,-0.01,-0.00,32.17
35435201,1623,1,162895,232834,0.65,-0.22,9.98,-0.03,-0.01,-0.00,32.17
35475201,1611,1,162840,233294,0.66,-0.22,9.93,-0.03,-0.01,-0.00,32.17
35515201,1594,1,163268,233470,0.66,-0.22,9.97,-0.03,-0.01,-0.01,32.17
35555201,1589,1,162221,233510,0.66,-0.23,9.96,-0.03,-0.00,-0.00,32.17
35595890,1558,1,163869,231557,0.66,-0.23,9.96,-0.03,-0.01,-0.00,32.11
35634201,1614,1,162941,229302,0.67,-0.23,9.97,-0.03,-0.01,-0.01,32.11
35674203,1625,1,163079,229829,0.64,-0.23,9.98,-0.03,-0.01,-0.01,32.11
35714201,1606,1,163152,230593,0.64,-0.22,9.97,-0.03,-0.01,-0.01,32.11
35754204,1631,1,163851,231463,0.69,-0.21,9.97,-0.03,-0.01,-0.01,32.11
35794201,1613,1,163972,232380,0.67,-0.21,9.97,-0.03,-0.00,-0.00,32.11
35834203,1618,1,164786,232544,0.66,-0.22,9.97,-0.03,-0.00,-0.01,32.11
35874201,1616,1,164009,232688,0.68,-0.23,9.96,-0.03,-0.01,-0.01,32.11
35914203,1630,1,164319,232764,0.66,-0.23,9.97,-0.03,-0.01,-0.01,32.11
35954201,1625,1,164336,233121,0.67,-0.23,9.96,-0.03,-0.01,-0.01,32.11
35994203,1626,1,164964,233392,0.66,-0.22,9.96,-0.03,-0.01,-0.01,32.11
36034201,1629,1,164865,233580,0.66,-0.21,9.95,-0.03,-0.01,-0.01,32.11
36074203,1612,1,164807,233631,0.65,-0.21,9.96,-0.03,-0.00,-0.01,32.11
36114200,1645,1,164648,230531,0.65,-0.23,9.97,-0.03,-0.01,-0.01,32.11
36154202,1627,1,163740,228548,0.67,-0.22,9.98,-0.03,-0.01,-0.01,32.11
36194201,1617,1,162406,229095,0.67,-0.21,9.95,-0.03,-0.01,-0.01,32.11
36234202,1616,1,162967,230068,0.66,-0.22,9.97,-0.03,-0.01,-0.00,32.11
36274200,1632,1,163156,231107,0.66,-0.21,9.96,-0.03,-0.01,-0.01,32.11
36314203,1621,1,163981,232083,0.67,-0.24,9.96,-0.03,-0.01,-0.01,32.11
36354201,1629,1,163986,232542,0.65,-0.21,9.96,-0.03,-0.01,-0.00,32.11
36394203,1627,1,164220,232709,0.65,-0.22,9.94,-0.03,-0.01,-0.01,32.11
36434201,1634,1,164235,232735,0.65,-0.24,9.97,-0.03,-0.01,-0.01,32.11
36474203,1621,1,164274,232945,0.65,-0.24,9.95,-0.03,-0.00,-0.01,32.11
36514201,1653,1,163965,233213,0.65,-0.23,9.99,-0.03,-0.01,-0.01,32.11
36554203,1664,1,164309,233564,0.66,-0.23,9.98,-0.03,-0.01,-0.01,32.11
36594201,1618,1,164565,233505,0.67,-0.23,9.95,-0.03,-0.01,-0.01,32.11
36634891,1600,1,162636,230293,0.66,-0.23,9.95,-0.03,-0.01,-0.01,32.19
36675201,1645,1,161828,228670,0.66,-0.22,9.96,-0.03,-0.01,-0.01,32.19
36715201,1607,1,162312,229088,0.64,-0.22,9.94,-0.03,-0.01,-0.01,32.19
36755201,1623,1,162285,230181,0.66,-0.24,9.94,-0.03,-0.01,-0.00,32.19
36795201,1610,1,163180,231065,0.67,-0.22,9.98,-0.03,-0.01,-0.01,32.19
36835201,1653,1,162404,232082,0.66,-0.23,9.96,-0.03,-0.01,-0.00,32.19
36875201,1625,1,162616,232423,0.66,-0.23,9.96,-0.03,-0.01,-0.00,32.19
36915201,1584,1,163472,232507,0.68,-0.21,9.96,-0.03,-0.01,-0.00,32.19
36955201,1598,1,163291,232652,0.65,-0.21,9.98,-0.03,-0.01,-0.00,32.19
36995201,1619,1,163080,232908,0.66,-0.23,9.94,-0.03,-0.01,-0.01,32.19
37035201,1600,1,163445,233028,0.66,-0.21,9.99,-0.03,-0.01,-0.00,32.19
37075200,1633,1,163551,233468,0.67,-0.21,9.93,-0.03,-0.01,-0.00,32.19
37115201,1617,1,164294,233560,0.67,-0.23,9.95,-0.04,-0.01,-0.00,32.19
37155201,1600,1,163006,230957,0.67,-0.22,9.94,-0.03,-0.01,-0.01,32.19
37195202,1609,1,162311,228930,0.65,-0.23,9.95,-0.03,-0.01,-0.01,32.19
37235201,1653,1,162327,229204,0.64,-0.20,9.94,-0.03,-0.01,-0.01,32.19
37275201,1624,1,162830,230265,0.67,-0.21,9.94,-0.03,-0.01,-0.01,32.19
37315201,1615,1,162607,231230,0.65,-0.22,9.97,-0.03,-0.01,-0.01,32.19
37355201,1642,1,163510,232138,0.64,-0.23,9.99,-0.03,-0.01,-0.01,32.19
37395200,1629,1,163783,232650,0.65,-0.23,9.97,-0.04,-0.01,-0.00,32.19
37435201,1623,1,164294,232601,0.64,-0.20,9.99,-0.03,-0.01,-0.01,32.19
37475201,1604,1,162964,232837,0.66,-0.23,9.94,-0.03,-0.01,-0.00,32.19
37515201,1636,1,163020,233091,0.67,-0.23,9.97,-0.03,-0.01,-0.00,32.19
37555200,1616,1,163220,233321,0.65,-0.23,9.96,-0.03,-0.01,-0.00,32.19
37595201,1640,1,163770,233602,0.65,-0.25,9.99,-0.03,-0.01,-0.01,32.19
37635889,1607,1,163637,233903,0.66,-0.21,9.97,-0.03,-0.01,-0.00,32.09
37674202,1648,1,163358,232611,0.66,-0.22,9.95,-0.03,-0.01,-0.00,32.09
37714200,1625,1,162237,230014,0.65,-0.21,9.94,-0.03,-0.01,-0.01,32.09
37754202,1641,1,161901,229800,0.65,-0.22,9.97,-0.03,-0.01,-0.01,32.09
37794236,1633,1,161900,230567,0.68,-0.22,9.95,-0.03,-0.01,-0.01,32.09
37834202,1655,1,162177,231439,0.66,-0.21,9.96,-0.03,-0.01,-0.01,32.09
37874200,1657,1,162349,232451,0.66,-0.22,9.93,-0.03,-0.01,-0.01,32.09
37914202,1634,1,162986,232839,0.68,-0.25,9.94,-0.03,-0.01,-0.00,32.09
37954200,1641,1,162733,233068,0.65,-0.23,9.95,-0.03,-0.01,-0.01,32.09
37994245,1654,1,162913,233133,0.65,-0.21,9.97,-0.03,-0.01,-0.01,32.09
38034200,1604,1,163214,233307,0.66,-0.23,9.97,-0.03,-0.01,-0.01,32.09
38074202,1605,1,163479,233441,0.64,-0.21,9.93,-0.03,-0.01,-0.00,32.09
38114201,1586,1,162187,233790,0.68,-0.21,9.97,-0.03,-0.01,-0.01,32.09
38154202,1626,1,162798,233874,0.66,-0.23,9.96,-0.03,-0.01,-0.01,32.09
38194201,1584,1,162676,233612,0.64,-0.23,9.99,-0.03,-0.01,-0.01,32.09
38234202,1601,1,162649,231269,0.64,-0.24,9.93,-0.03,-0.01,-0.01,32.09
38274200,1601,1,161763,230337,0.66,-0.21,9.96,-0.03,-0.01,-0.00,32.09
38314200,1586,1,162133,231080,0.65,-0.23,9.96,-0.03,-0.01,-0.01,32.09
38354200,1584,1,162466,232036,0.66,-0.23,9.98,-0.03,-0.01,-0.01,32.09
38394201,1599,1,162994,232814,0.66,-0.22,9.96,-0.03,-0.01,-0.01,32.09
38435200,1578,1,163892,233198,0.66,-0.23,9.98,-0.03,-0.01,-0.00,32.09
38475201,1585,1,164072,233371,0.65,-0.23,9.95,-0.03,-0.01,-0.01,32.09
38515201,1578,1,164178,233430,0.67,-0.23,9.96,-0.03,-0.01,-0.01,32.09
38555201,1584,1,164556,233534,0.64,-0.24,9.98,-0.03,-0.01,-0.01,32.09
38595200,1594,1,164513,233771,0.68,-0.23,9.95,-0.03,-0.01,-0.01,32.09
38635201,1588,1,164849,233887,0.67,-0.22,9.93,-0.03,-0.01,-0.01,32.09
38675889,1570,1,163929,234193,0.65,-0.21,9.95,-0.03,-0.01,-0.00,32.25
38714201,1586,1,163558,233890,0.65,-0.23,9.96,-0.03,-0.01,-0.01,32.25
38754200,1569,1,162013,231632,0.63,-0.22,9.96,-0.03,-0.01,-0.01,32.25
38794201,1587,1,161599,230734,0.66,-0.25,10.00,-0.03,-0.01,-0.01,32.25
38834200,1456,1,161615,231338,0.65,-0.23,9.97,-0.03,-0.01,-0.01,32.25
38874201,1488,1,162012,231946,0.67,-0.22,9.96,-0.03,-0.01,-0.01,32.25
38914200,1403,1,161951,232773,0.66,-0.23,9.95,-0.03,-0.01,-0.01,32.25
38954200,1345,1,162251,233395,0.64,-0.22,9.96,-0.03,-0.01,-0.01,32.25
38994200,1366,1,162617,233548,0.66,-0.23,9.99,-0.03,-0.01,-0.01,32.25
39034200,1269,1,162706,233564,0.64,-0.23,9.97,-0.03,-0.01,-0.00,32.25
39074200,1153,1,162256,233751,0.65,-0.22,9.96,-0.03,-0.01,-0.01,32.25
39114200,1089,1,162162,233841,0.65,-0.22,9.93,-0.04,0.02,-0.00,32.25
39154178,1088,1,162525,234056,0.69,-0.22,9.91,-0.03,-0.06,-0.01,32.25
39194201,1037,1,162738,234280,0.68,-0.22,9.93,-0.04,0.02,-0.00,32.25
39234178,944,1,162411,233811,0.66,-0.22,10.00,-0.04,0.00,-0.01,32.25
39274179,858,1,162302,231239,0.68,-0.22,9.96,-0.03,-0.02,-0.01,32.25
39314200,945,1,161446,230531,0.68,-0.24,9.98,-0.03,-0.01,-0.01,32.25
39354200,914,1,161932,230825,0.67,-0.22,9.97,-0.04,-0.00,-0.01,32.25
39396201,1047,1,161834,231317,0.66,-0.22,9.97,-0.03,-0.00,-0.00,32.25
39435204,1088,1,163614,232243,0.64,-0.21,9.97,-0.03,-0.00,-0.01,32.25
39475200,1216,1,163921,233024,0.65,-0.23,9.97,-0.03,-0.01,-0.01,32.25
39515202,1266,1,164638,233228,0.68,-0.23,9.95,-0.04,-0.00,-0.01,32.25
39555201,1360,1,163893,233318,0.65,-0.23,10.00,-0.03,-0.00,-0.01,32.25
39595201,1424,1,164258,233641,0.65,-0.24,9.96,-0.03,-0.01,-0.01,32.25
39635222,1513,1,164332,233740,0.64,-0.22,9.97,-0.03,-0.00,-0.01,32.25
39675890,1603,1,162651,233866,0.65,-0.22,9.97,-0.03,-0.01,-0.01,32.27
39716201,1649,1,162711,234102,0.67,-0.21,9.94,-0.03,-0.01,-0.01,32.27
39756202,1615,1,162763,233681,0.65,-0.23,9.97,-0.03,-0.01,-0.00,32.27
39796201,1749,1,162327,231159,0.64,-0.22,9.96,-0.03,-0.01,-0.01,32.27
39836201,1680,1,161900,230560,0.67,-0.23,9.96,-0.03,-0.01,-0.01,32.27
39876201,1751,1,161793,231074,0.64,-0.24,9.96,-0.03,-0.01,-0.01,32.27
39916201,1770,1,162133,231848,0.66,-0.22,9.95,-0.03,-0.01,-0.01,32.27
39956201,1797,1,162256,232666,0.68,-0.22,9.90,-0.03,0.00,-0.00,32.27
39996179,1792,1,162901,233220,0.60,-0.21,10.05,-0.03,-0.01,-0.01,32.27
40036201,1817,1,161779,233295,0.65,-0.23,9.92,-0.03,-0.01,-0.00,32.27
40076201,1825,1,162187,233350,0.67,-0.23,9.98,-0.03,-0.01,-0.01,32.27
40116201,1833,1,162055,233537,0.64,-0.24,9.95,-0.03,-0.01,-0.01,32.27
40156201,1786,1,162226,233676,0.64,-0.24,9.97,-0.03,-0.01,-0.01,32.27
40196201,1808,1,161787,234004,0.63,-0.23,9.98,-0.03,-0.01,-0.01,32.27
40236201,1809,1,162223,234056,0.66,-0.21,9.96,-0.04,0.01,-0.00,32.27
40276180,1858,1,162094,233560,0.65,-0.23,9.96,-0.03,-0.01,-0.01,32.27
40316202,1859,1,161840,231483,0.66,-0.23,9.95,-0.03,-0.01,-0.01,32.27
40356201,1776,1,160674,230655,0.71,-0.22,9.84,-0.03,-0.02,-0.01,32.27
40396201,1823,1,161269,231445,0.64,-0.23,10.00,-0.03,-0.00,-0.01,32.27
40436201,1814,1,164542,232348,0.66,-0.23,9.97,-0.03,-0.02,-0.01,32.27
40475203,1813,1,163883,232741,0.62,-0.22,10.06,-0.03,-0.02,-0.01,32.27
40515201,1792,1,163426,233375,0.65,-0.24,9.96,-0.04,0.01,-0.00,32.27
40555181,1797,1,164190,233580,0.65,-0.20,9.95,-0.03,-0.02,-0.01,32.27
40595201,1738,1,164395,233489,0.67,-0.25,9.94,-0.03,-0.00,-0.00,32.27
40635202,1781,1,164263,233701,0.63,-0.22,9.98,-0.03,-0.01,-0.01,32.27
40675201,1807,1,163506,233911,0.64,-0.22,9.94,-0.03,-0.01,-0.01,32.27
40715890,1826,1,161805,233867,0.70,-0.22,9.90,-0.03,-0.01,-0.01,32.05
40756201,1755,1,162415,234218,0.64,-0.21,9.98,-0.03,-0.01,-0.01,32.05
40796201,1783,1,162881,233147,0.64,-0.22,9.97,-0.03,-0.01,-0.01,32.05
40836201,1744,1,161661,231004,0.65,-0.21,9.97,-0.03,-0.01,-0.01,32.05
40876201,1765,1,161665,230915,0.66,-0.23,9.97,-0.03,-0.01,-0.01,32.05
40916201,1706,1,161904,231608,0.65,-0.23,9.97,-0.03,-0.01,-0.00,32.05
40956201,1673,1,162609,232390,0.68,-0.23,9.92,-0.03,-0.01,-0.01,32.05
40996201,1583,1,162416,232833,0.70,-0.22,9.95,-0.03,-0.01,-0.00,32.05
41036201,1524,1,162628,233264,0.66,-0.23,9.96,-0.04,-0.01,-0.00,32.05
41076201,1450,1,162745,233402,0.65,-0.22,9.97,-0.03,-0.01,-0.01,32.05
41116201,1430,1,163132,233727,0.65,-0.21,9.99,-0.03,-0.01,-0.01,32.05
41156200,1462,1,163048,233805,0.68,-0.23,9.93,-0.03,-0.02,-0.01,32.05
41196201,1503,1,163212,233850,0.65,-0.23,9.95,-0.03,-0.01,-0.00,32.05
41236200,1527,1,163331,234259,0.67,-0.24,9.96,-0.03,-0.01,-0.01,32.05
41276220,1621,1,163555,234215,0.66,-0.22,9.97,-0.04,-0.00,-0.00,32.05
41316200,1631,1,161986,232105,0.68,-0.22,9.96,-0.03,-0.01,-0.01,32.05
41356201,1645,1,161708,231022,0.68,-0.21,9.96,-0.03,-0.01,-0.01,32.05
41396200,1584,1,161816,231556,0.67,-0.23,9.99,-0.03,-0.02,-0.00,32.05
41436201,1627,1,162289,232058,0.68,-0.23,9.94,-0.03,-0.01,-0.00,32.05
41476235,1599,1,162388,232837,0.67,-0.22,9.95,-0.03,-0.01,-0.01,32.05
41516201,1590,1,162854,233336,0.67,-0.23,9.97,-0.03,-0.01,-0.00,32.05
41556200,1599,1,162675,233613,0.66,-0.23,9.96,-0.04,-0.00,-0.01,32.05
41596201,1571,1,163490,233633,0.67,-0.24,9.94,-0.03,-0.00,-0.01,32.05
41636201,1569,1,162718,233634,0.67,-0.22,9.94,-0.03,-0.01,-0.01,32.05
41676201,1587,1,162940,233740,0.66,-0.22,9.96,-0.03,-0.01,-0.01,32.05
41716889,1535,1,163360,234052,0.65,-0.23,10.00,-0.03,-0.01,-0.01,32.13
41755202,1585,1,163601,234212,0.65,-0.22,9.97,-0.03,-0.01,-0.01,32.13
41795200,1535,1,163580,233141,0.66,-0.22,9.95,-0.03,-0.01,-0.01,32.13
41835202,1569,1,162820,230502,0.67,-0.22,10.00,-0.03,-0.01,-0.00,32.13
41875201,1555,1,161823,230377,0.66,-0.23,9.97,-0.03,-0.01,-0.01,32.13
41915202,1535,1,162679,231000,0.67,-0.20,9.97,-0.03,-0.01,-0.01,32.13
41955201,1521,1,162130,231692,0.67,-0.23,9.95,-0.03,-0.01,-0.01,32.13
41995202,1477,1,162549,232486,0.67,-0.22,9.98,-0.03,-0.01,-0.01,32.13
42035200,1470,1,162643,233008,0.68,-0.21,9.97,-0.03,-0.01,-0.01,32.13
42075202,1463,1,162923,233256,0.66,-0.23,9.99,-0.03,-0.01,-0.01,32.13
42115200,1472,1,162608,233259,0.67,-0.24,9.95,-0.03,-0.01,-0.00,32.13
42155202,1456,1,162523,233507,0.67,-0.23,9.97,-0.04,0.00,-0.00,32.13
42195179,1473,1,162990,233605,0.67,-0.23,9.96,-0.03,-0.02,-0.01,32.13
42235202,1469,1,163105,233959,0.64,-0.22,9.97,-0.03,-0.00,-0.01,32.13
42275201,1463,1,162858,234019,0.66,-0.23,9.92,-0.04,-0.01,-0.01,32.13
42315202,1478,1,162699,231998,0.65,-0.23,9.94,-0.03,-0.01,-0.01,32.13
42355201,1450,1,161795,230393,0.66,-0.23,10.00,-0.03,-0.01,-0.01,32.13
42395201,1423,1,162307,230589,0.67,-0.22,9.95,-0.03,-0.00,-0.01,32.13
42435200,1456,1,161850,231323,0.66,-0.21,9.98,-0.03,-0.00,-0.01,32.13
42475202,1466,1,162293,232152,0.67,-0.22,9.92,-0.03,-0.01,-0.01,32.13
42515200,1456,1,162582,232992,0.68,-0.22,9.94,-0.03,-0.01,-0.01,32.13
42555202,1479,1,163178,233081,0.64,-0.23,10.07,-0.03,-0.01,-0.01,32.13
42595200,1426,1,161564,233397,0.67,-0.22,9.96,-0.04,0.00,-0.00,32.13
42635180,1481,1,162559,233390,0.68,-0.21,9.95,-0.03,-0.01,-0.01,32.13
42675201,1488,1,162542,233610,0.66,-0.22,9.99,-0.03,-0.01,-0.01,32.13
42715202,1535,1,162955,233810,0.66,-0.23,9.95,-0.03,-0.01,-0.01,32.13
42755889,1520,1,163040,233921,0.67,-0.22,9.97,-0.03,-0.01,-0.01,32.09
42796201,1535,1,164054,233450,0.64,-0.23,9.99,-0.03,-0.01,-0.01,32.09
42836200,1586,1,163358,231162,0.66,-0.23,9.98,-0.03,-0.01,-0.01,32.09
42876201,1587,1,163083,230678,0.64,-0.22,9.98,-0.03,-0.01,-0.00,32.09
42916212,1601,1,163148,231047,0.65,-0.21,9.96,-0.03,-0.01,-0.01,32.09
42956201,1611,1,163291,231700,0.68,-0.23,9.96,-0.03,-0.01,-0.00,32.09
42996200,1602,1,163807,232485,0.67,-0.24,9.95,-0.03,-0.00,-0.01,32.09
43036201,1567,1,164302,232800,0.65,-0.22,9.96,-0.03,-0.01,-0.01,32.09
43076200,1535,1,164138,232958,0.67,-0.23,9.96,-0.04,-0.00,-0.00,32.09
43116251,1581,1,164372,233097,0.68,-0.23,9.96,-0.03,-0.00,-0.01,32.09
43156200,1535,1,164551,233323,0.66,-0.23,9.95,-0.03,-0.01,-0.01,32.09
43196201,1535,1,165085,233326,0.68,-0.22,9.96,-0.03,-0.01,-0.01,32.09
43236200,1534,1,163797,233563,0.67,-0.21,9.98,-0.03,-0.01,-0.00,32.09
43276201,1531,1,164129,233861,0.67,-0.23,9.97,-0.03,-0.01,-0.00,32.09
43316224,1523,1,164116,232532,0.68,-0.24,9.98,-0.03,-0.01,-0.01,32.09
43356201,1561,1,163514,230479,0.66,-0.21,9.98,-0.03,-0.01,-0.01,32.09
43396200,1517,1,163298,230590,0.66,-0.25,9.98,-0.03,-0.01,-0.01,32.09
43436202,1487,1,163662,231342,0.66,-0.22,9.93,-0.03,-0.01,-0.01,32.09
43476200,1503,1,163729,232201,0.69,-0.22,9.98,-0.03,-0.01,-0.01,32.09
43516201,1475,1,164272,232756,0.66,-0.22,9.95,-0.03,-0.01,-0.01,32.09
43556201,1527,1,164160,233172,0.68,-0.21,9.97,-0.03,-0.00,-0.00,32.09
43596201,1495,1,164605,233027,0.60,-0.24,10.14,-0.03,-0.01,-0.01,32.09
43636200,1456,1,164465,233149,0.65,-0.23,10.00,-0.03,-0.01,-0.01,32.09
43676201,1477,1,164852,233357,0.69,-0.22,9.93,-0.03,-0.00,-0.01,32.09
43716200,1489,1,164222,233524,0.67,-0.22,9.97,-0.03,-0.01,-0.01,32.09
43756890,1436,1,163323,233861,0.65,-0.22,9.97,-0.04,-0.01,-0.01,32.11
43797201,1499,1,163678,233714,0.67,-0.21,9.94,-0.03,-0.01,-0.00,32.11
43837201,1520,1,163490,230966,0.66,-0.22,9.95,-0.03,-0.01,-0.01,32.11
43877201,1521,1,161410,229748,0.66,-0.22,9.94,-0.04,-0.01,-0.01,32.11
43917201,1522,1,161884,230288,0.67,-0.22,9.94,-0.03,-0.01,-0.01,32.11
43957201,1534,1,161890,231035,0.68,-0.23,9.96,-0.03,-0.01,-0.01,32.11
43997201,1527,1,162353,231804,0.67,-0.21,9.97,-0.03,-0.01,-0.01,32.11
44037201,1535,1,162304,232508,0.66,-0.22,9.97,-0.03,-0.01,-0.01,32.11
44077201,1535,1,162667,232787,0.67,-0.22,9.96,-0.03,-0.00,-0.00,32.11
44117201,1520,1,162609,232802,0.67,-0.23,9.91,-0.03,-0.01,-0.01,32.11
44157201,1571,1,162735,232988,0.68,-0.22,9.92,-0.03,-0.01,-0.01,32.11
44197201,1500,1,163371,233296,0.67,-0.24,9.95,-0.03,-0.01,-0.01,32.11
44237201,1531,1,163843,233540,0.66,-0.23,9.96,-0.03,-0.01,-0.01,32.11
44277201,1477,1,163998,233819,0.66,-0.24,10.01,-0.03,-0.01,-0.01,32.11
44317201,1505,1,164392,232730,0.66,-0.21,9.94,-0.03,-0.00,-0.00,32.11
44357201,1521,1,163158,230291,0.67,-0.23,9.99,-0.03,-0.01,-0.01,32.11
44397201,1519,1,162930,230118,0.65,-0.22,9.99,-0.03,-0.01,-0.00,32.11
44437201,1462,1,163012,230746,0.67,-0.23,9.95,-0.03,-0.01,-0.01,32.11
44477201,1535,1,163429,231451,0.68,-0.22,9.97,-0.03,-0.01,-0.01,32.11
44517201,1531,1,162338,232294,0.67,-0.24,9.96,-0.03,-0.01,-0.01,32.11
44557201,1515,1,163065,232847,0.67,-0.23,9.92,-0.04,-0.00,-0.00,32.11
44597201,1557,1,163178,232941,0.68,-0.24,9.95,-0.03,-0.01,-0.01,32.11
44637201,1491,1,163561,233124,0.65,-0.23,9.95,-0.03,-0.01,-0.00,32.11
44677201,1507,1,163095,233265,0.66,-0.21,9.96,-0.03,-0.01,-0.01,32.11
44717202,1519,1,163205,233420,0.66,-0.22,9.97,-0.03,-0.01,-0.01,32.11
44757894,1490,1,165334,233702,0.65,-0.23,9.99,-0.03,-0.00,-0.01,32.21
44796201,1555,1,165786,233842,0.66,-0.23,9.95,-0.03,-0.01,-0.00,32.21
44836200,1484,1,165499,232483,0.65,-0.24,9.95,-0.03,-0.01,-0.01,32.21
44876201,1525,1,164870,230466,0.68,-0.21,9.97,-0.03,-0.01,-0.01,32.21
44916201,1535,1,164437,230571,0.66,-0.20,9.96,-0.03,-0.01,-0.00,32.21
44956206,1520,1,164649,231032,0.67,-0.23,9.96,-0.04,-0.01,-0.01,32.21
44996200,1535,1,164535,231835,0.65,-0.22,9.98,-0.03,-0.01,-0.00,32.21
45036201,1531,1,165393,232538,0.68,-0.21,9.95,-0.03,-0.01,-0.01,32.21
45076200,1535,1,165944,232939,0.71,-0.22,9.88,-0.03,-0.01,-0.00,32.21
45116201,1589,1,166320,233109,0.65,-0.22,9.95,-0.03,-0.01,-0.01,32.21
45156201,1562,1,164601,233164,0.65,-0.22,9.94,-0.03,-0.01,-0.01,32.21
45196203,1593,1,165353,233318,0.67,-0.23,9.98,-0.03,-0.01,-0.01,32.21
45236202,1576,1,165124,233566,0.66,-0.23,9.95,-0.03,-0.01,-0.00,32.21
45276202,1581,1,165613,233744,0.66,-0.23,9.96,-0.03,-0.01,-0.00,32.21
45316201,1600,1,165528,233792,0.68,-0.20,9.96,-0.03,-0.01,-0.01,32.21
45356202,1602,1,164872,231934,0.65,-0.23,9.96,-0.03,-0.02,-0.01,32.21
45396201,1632,1,164600,230668,0.68,-0.23,9.95,-0.04,-0.00,-0.01,32.21
45436203,1641,1,164592,230932,0.67,-0.21,9.97,-0.03,-0.01,-0.01,32.21
45476202,1669,1,164064,231707,0.67,-0.23,9.99,-0.03,-0.01,-0.01,32.21
45516202,1695,1,164756,232349,0.72,-0.21,9.93,-0.03,-0.01,-0.01,32.21
45556201,1586,1,164790,232950,0.68,-0.21,9.95,-0.03,-0.00,-0.01,32.21
45596203,1623,1,165255,233263,0.64,-0.21,9.97,-0.03,-0.01,-0.01,32.21
45636201,1630,1,165144,233349,0.65,-0.20,9.97,-0.03,-0.01,-0.01,32.21
45676202,1600,1,165159,233467,0.66,-0.22,9.96,-0.03,-0.01,-0.01,32.21
45716200,1639,1,165301,233725,0.67,-0.22,9.95,-0.03,-0.01,-0.01,32.21
45756203,1574,1,165292,233651,0.66,-0.21,9.97,-0.03,-0.01,-0.00,32.21
45796890,1645,1,163392,233898,0.67,-0.22,9.97,-0.03,-0.01,-0.00,32.17
45837201,1535,1,164013,233512,0.67,-0.24,9.92,-0.03,-0.01,-0.01,32.17
45877201,1535,1,163510,231184,0.68,-0.22,9.97,-0.03,-0.01,-0.01,32.17
45917201,1515,1,163288,230352,0.66,-0.23,9.95,-0.03,-0.01,-0.00,32.17
45957201,1535,1,163539,231112,0.67,-0.22,9.96,-0.03,-0.00,-0.01,32.17
45997201,1559,1,163716,231693,0.67,-0.22,9.96,-0.03,-0.01,-0.01,32.17
46037200,1535,1,164087,232459,0.67,-0.21,9.93,-0.03,-0.01,-0.01,32.17
46077201,1584,1,164934,233020,0.68,-0.23,9.95,-0.03,-0.01,-0.01,32.17
46117201,1579,1,164060,233074,0.67,-0.21,9.96,-0.03,-0.01,-0.01,32.17
46157201,1562,1,164701,233124,0.65,-0.23,9.96,-0.03,-0.01,-0.01,32.17
46197200,1625,1,164530,233208,0.66,-0.21,9.92,-0.03,-0.01,-0.00,32.17
46237201,1595,1,164729,233358,0.66,-0.22,9.99,-0.03,-0.01,-0.01,32.17
46277200,1629,1,164795,233545,0.68,-0.22,9.91,-0.03,-0.01,-0.01,32.17
46317201,1567,1,164903,233552,0.69,-0.21,9.97,-0.03,-0.03,-0.01,32.17
46357200,1600,1,164971,232593,0.69,-0.21,9.96,-0.03,-0.02,-0.01,32.17
46397217,1600,1,164099,229247,0.68,-0.22,9.97,-0.03,-0.01,-0.01,32.17
46437201,1603,1,162841,229127,0.66,-0.21,9.99,-0.04,-0.00,-0.00,32.17
46477201,1601,1,162994,229905,0.69,-0.23,9.94,-0.03,-0.02,-0.01,32.17
46517200,1584,1,162933,230921,0.65,-0.23,10.01,-0.04,0.00,-0.00,32.17
46557179,1689,1,164200,231908,0.70,-0.22,9.94,-0.04,-0.00,-0.01,32.17
46597224,1631,1,163470,232597,0.69,-0.22,9.97,-0.04,0.00,-0.00,32.17
46637179,1637,1,163891,232979,0.65,-0.20,9.99,-0.04,0.00,-0.00,32.17
46677179,1624,1,164608,233042,0.68,-0.22,9.94,-0.03,-0.01,-0.01,32.17
46717201,1584,1,164891,233061,0.68,-0.24,9.96,-0.03,-0.01,-0.01,32.17
46757200,1721,1,164404,233272,0.69,-0.22,9.94,-0.03,-0.01,-0.01,32.17
46797911,1535,1,164514,233519,0.69,-0.23,9.95,-0.03,-0.01,-0.01,32.17
46836200,1610,1,164294,233798,0.63,-0.21,10.06,-0.03,-0.02,-0.01,32.17
46876202,1535,1,164086,232617,0.68,-0.22,10.01,-0.03,0.00,-0.01,32.17
46916178,1615,1,163136,230165,0.66,-0.22,9.95,-0.03,-0.01,-0.01,32.17
46956202,1593,1,163051,230052,0.67,-0.23,9.97,-0.03,-0.02,-0.00,32.17
46996200,1584,1,163256,230902,0.69,-0.23,9.96,-0.03,-0.01,-0.01,32.17
47036201,1559,1,164313,231597,0.69,-0.21,9.95,-0.03,-0.01,-0.01,32.17
47076200,1535,1,163373,232344,0.65,-0.22,9.98,-0.03,-0.01,-0.01,32.17
47116201,1524,1,163815,232984,0.68,-0.22,9.95,-0.03,-0.00,-0.00,32.17
47156200,1509,1,164034,233271,0.69,-0.22,9.93,-0.03,-0.01,-0.01,32.17
47196201,1473,1,164386,233380,0.69,-0.21,10.00,-0.04,-0.00,-0.01,32.17
47236200,1455,1,164165,233468,0.68,-0.23,9.94,-0.03,-0.01,-0.01,32.17
47276201,1439,1,164577,233637,0.70,-0.21,9.97,-0.03,-0.00,-0.00,32.17
47316200,1425,1,164671,233883,0.66,-0.22,9.96,-0.03,-0.01,-0.01,32.17
47356201,1363,1,165300,234063,0.68,-0.23,9.95,-0.03,-0.00,-0.01,32.17
47396200,1363,1,164665,232931,0.67,-0.24,9.97,-0.03,-0.00,-0.00,32.17
47436201,1349,1,163869,230575,0.67,-0.22,9.99,-0.03,-0.01,-0.00,32.17
47476200,1380,1,163100,230473,0.65,-0.22,9.95,-0.03,0.00,-0.01,32.17
47516179,1392,1,164061,231450,0.64,-0.20,9.97,-0.04,-0.00,-0.01,32.17
47556200,1426,1,164216,232526,0.68,-0.24,9.97,-0.04,-0.01,-0.01,32.17
47596201,1481,1,164763,232917,0.69,-0.20,9.89,-0.03,-0.00,-0.01,32.17
47636199,1520,1,164346,232963,0.68,-0.22,9.92,-0.03,-0.01,-0.01,32.17
47676201,1513,1,164543,232767,0.64,-0.21,9.95,-0.03,-0.01,-0.01,32.17
47716200,1522,1,163655,232878,0.66,-0.24,9.96,-0.03,-0.00,-0.01,32.17
47756200,1476,1,163963,233137,0.68,-0.24,9.97,-0.03,-0.01,-0.01,32.17
47796200,1429,1,163739,233593,0.66,-0.22,9.93,-0.04,0.00,-0.01,32.17
47836868,1354,1,164493,233897,0.66,-0.24,9.95,-0.04,0.01,-0.01,32.13
47877179,1315,1,165290,233993,0.62,-0.21,10.03,-0.04,0.01,-0.00,32.13
47917179,1332,1,165395,232441,0.62,-0.23,9.98,-0.03,-0.01,-0.01,32.13
47957200,1311,1,164905,230553,0.66,-0.23,9.95,-0.03,-0.02,-0.01,32.13
47997201,1360,1,165203,230798,0.64,-0.24,9.93,-0.03,-0.00,-0.01,32.13
48037200,1365,1,165015,231719,0.65,-0.23,9.97,-0.03,-0.00,-0.00,32.13
48077201,1405,1,165300,232566,0.64,-0.22,9.97,-0.03,-0.00,-0.01,32.13
48117200,1466,1,165457,232953,0.64,-0.23,9.97,-0.03,-0.01,-0.01,32.13
48157201,1526,1,165753,233111,0.63,-0.25,9.96,-0.03,-0.01,-0.01,32.13
48197200,1571,1,165801,233178,0.66,-0.22,9.97,-0.03,-0.01,-0.01,32.13
48237201,1619,1,166302,233282,0.64,-0.23,9.96,-0.03,-0.01,-0.00,32.13
48277200,1680,1,166490,233561,0.64,-0.24,9.96,-0.03,-0.01,-0.01,32.13
48317201,1727,1,166695,233739,0.65,-0.22,9.97,-0.03,-0.01,-0.00,32.13
48357201,1749,1,165546,234051,0.65,-0.22,9.96,-0.03,-0.01,-0.00,32.13
48397201,1792,1,165768,233485,0.62,-0.23,9.96,-0.03,-0.01,-0.00,32.13
48437200,1809,1,165016,231215,0.66,-0.23,9.97,-0.03,-0.01,-0.01,32.13
48477201,1840,1,165278,230435,0.64,-0.24,9.95,-0.03,-0.01,-0.01,32.13
48517200,1863,1,164712,230995,0.65,-0.22,9.95,-0.03,-0.01,-0.01,32.13
48557201,1861,1,165342,231887,0.64,-0.23,9.92,-0.03,-0.01,-0.00,32.13
48597200,1866,1,165614,232822,0.66,-0.23,9.95,-0.04,-0.00,-0.00,32.13
48637201,1850,1,166019,233165,0.65,-0.22,9.96,-0.04,-0.00,-0.01,32.13
48677200,1856,1,165487,233318,0.64,-0.23,9.98,-0.03,-0.00,-0.01,32.13
48717201,1911,1,166123,233375,0.63,-0.24,9.94,-0.03,-0.00,-0.01,32.13
48757200,1906,1,165710,233323,0.63,-0.23,9.96,-0.03,-0.01,-0.01,32.13
48797201,1907,1,166163,233491,0.64,-0.23,9.96,-0.03,-0.01,-0.00,32.13
48837889,1893,1,163936,233662,0.66,-0.21,9.94,-0.03,-0.01,-0.01,32.21
48878201,1758,1,164647,233853,0.64,-0.22,9.97,-0.03,-0.01,-0.01,32.21
48918201,1632,1,164657,232607,0.64,-0.24,10.00,-0.03,-0.01,-0.00,32.21
48958201,1648,1,164379,230801,0.63,-0.24,10.00,-0.03,-0.00,-0.01,32.21
48998201,1526,1,162557,231069,0.64,-0.23,9.98,-0.03,-0.01,-0.01,32.21
49038201,1435,1,162955,231494,0.63,-0.23,9.96,-0.03,-0.01,-0.00,32.21
49078201,1360,1,163127,232071,0.62,-0.22,9.97,-0.03,-0.01,-0.00,32.21
49118201,1340,1,163843,232529,0.65,-0.19,9.97,-0.03,-0.01,-0.01,32.21
49158201,1347,1,163346,232806,0.62,-0.23,9.96,-0.04,-0.01,-0.00,32.21
49198201,1203,1,163799,233091,0.65,-0.24,9.97,-0.03,-0.01,-0.00,32.21
49238201,1328,1,164107,233143,0.67,-0.22,9.97,-0.03,-0.01,-0.01,32.21
49278201,1359,1,164309,233364,0.64,-0.21,9.97,-0.04,0.01,-0.01,32.21
49318179,1469,1,163904,233642,0.59,-0.24,10.02,-0.03,0.00,-0.00,32.21
49358179,1569,1,163878,233607,0.64,-0.22,9.97,-0.03,-0.02,-0.00,32.21
49398201,1610,1,164002,233687,0.63,-0.22,10.00,-0.03,-0.02,-0.01,32.21
49438201,1629,1,164192,231665,0.65,-0.24,9.95,-0.03,-0.03,-0.01,32.21
49478201,1731,1,162921,229351,0.66,-0.22,9.96,-0.03,-0.00,-0.01,32.21
49518201,1873,1,163001,229715,0.65,-0.22,9.92,-0.03,0.00,-0.00,32.21
49558180,1968,1,163334,230815,0.63,-0.24,10.00,-0.04,-0.00,-0.01,32.21
49598201,2103,1,164100,231451,0.62,-0.22,9.99,-0.03,-0.02,-0.01,32.21
49638201,2153,1,162883,232136,0.67,-0.22,9.96,-0.03,-0.03,-0.01,32.21
49678201,2179,1,163345,232451,0.69,-0.22,9.88,-0.03,0.00,-0.01,32.21
49718179,2123,1,163814,232811,0.61,-0.22,10.01,-0.04,0.03,-0.00,32.21
49758179,2037,1,164388,233041,0.60,-0.24,9.97,-0.03,-0.01,-0.01,32.21
49798201,1929,1,163998,233422,0.64,-0.23,9.95,-0.04,-0.00,-0.01,32.21
49838890,1902,1,165409,233527,0.62,-0.22,9.96,-0.04,0.02,-0.00,32.19
49877216,1831,1,164451,233227,0.60,-0.23,10.01,-0.04,0.02,-0.01,32.19
49917181,1789,1,161003,231042,0.70,-0.40,10.14,-0.03,-0.05,-0.10,32.19
49957201,1670,1,159079,225389,0.62,-0.23,9.93,-0.04,-0.00,-0.03,32.19
49997203,1711,1,158058,224265,0.55,-0.22,10.04,-0.03,-0.01,-0.02,32.19
50037201,1778,1,157029,226670,0.65,-0.23,9.92,-0.04,0.01,-0.01,32.19
50077221,1846,1,158532,228820,0.62,-0.21,9.96,-0.03,-0.01,-0.02,32.19
50117201,1787,1,158526,230031,0.61,-0.23,9.98,-0.03,-0.01,-0.01,32.19
50157203,1739,1,158877,230617,0.62,-0.23,9.97,-0.03,-0.01,-0.01,32.19
50197200,1744,1,159230,231034,0.60,-0.23,9.95,-0.03,-0.01,-0.01,32.19
50237201,1711,1,159446,231013,0.63,-0.24,9.96,-0.03,-0.01,-0.01,32.19
50277202,1488,1,157649,231684,0.61,-0.23,9.92,-0.04,0.00,-0.01,32.19
50317181,796,1,158978,232969,0.60,-0.23,10.03,-0.03,-0.02,-0.01,32.19
50357200,306,1,159236,233725,0.60,-0.24,9.97,-0.03,-0.04,-0.01,32.19
50397201,119,1,159864,233752,0.64,-0.25,9.94,-0.03,-0.03,-0.01,32.19
50437201,117,1,159782,231997,0.64,-0.21,9.97,-0.03,-0.00,-0.01,32.19
50477203,120,1,159612,230944,0.62,-0.23,9.96,-0.03,-0.00,-0.00,32.19
50518202,107,1,158591,231885,0.62,-0.23,9.97,-0.03,-0.01,-0.01,32.19
50558202,108,1,159082,232608,0.63,-0.21,9.92,-0.03,-0.02,-0.01,32.19
50598201,107,1,159099,233191,0.65,-0.22,9.95,-0.03,-0.02,-0.01,32.19
50638202,109,1,159768,233608,0.66,-0.24,9.96,-0.03,-0.02,-0.00,32.19
50678201,109,1,160117,234031,0.65,-0.22,9.97,-0.03,-0.01,-0.00,32.19
50718202,106,1,161157,234165,0.67,-0.23,9.93,-0.03,-0.00,-0.01,32.19
50758201,107,1,160541,234263,0.64,-0.23,9.93,-0.03,-0.00,-0.01,32.19
50798202,109,1,161144,234611,0.65,-0.22,9.95,-0.03,-0.01,-0.01,32.19
50838890,128,1,161195,234861,0.65,-0.23,9.96,-0.03,-0.01,-0.01,32.09
50877203,623,1,161468,234963,0.63,-0.23,9.96,-0.03,-0.01,-0.01,32.09
50917201,725,1,160550,234468,0.63,-0.21,9.96,-0.03,-0.00,-0.01,32.09
50957203,699,1,160181,233443,0.63,-0.24,9.97,-0.03,-0.01,-0.01,32.09
50997201,985,1,160206,233421,0.66,-0.23,9.97,-0.04,-0.00,-0.01,32.09
51037202,1216,1,160315,233551,0.64,-0.24,9.99,-0.03,-0.01,-0.01,32.09
51077201,1519,1,160274,233443,0.65,-0.21,9.96,-0.03,-0.02,-0.01,32.09
51117202,2013,1,160520,233517,0.66,-0.22,9.94,-0.03,-0.02,-0.01,32.09
51157201,2679,1,153334,233168,0.66,-0.22,9.94,-0.04,0.00,-0.01,32.09
51197182,2810,1,150800,232878,0.67,-0.22,9.90,-0.04,0.03,-0.00,32.09
51237181,2813,1,150246,232617,0.62,-0.22,9.98,-0.04,0.02,-0.00,32.09
51277182,2813,1,150315,232237,0.62,-0.23,9.97,-0.03,0.00,-0.01,32.09
51317180,2816,1,150681,231742,0.62,-0.24,9.93,-0.03,-0.01,-0.01,32.09
51357204,2815,1,150616,230830,0.60,-0.24,10.01,-0.03,-0.01,-0.01,32.09
51397202,2810,1,149589,230377,0.62,-0.22,9.96,-0.03,0.00,-0.00,32.09
51437181,2813,1,149872,226297,0.62,-0.23,9.95,-0.03,-0.00,-0.01,32.09
51477203,2804,1,148849,224888,0.62,-0.23,9.96,-0.03,-0.01,-0.01,32.09
51518205,2853,1,150579,225149,0.63,-0.22,9.95,-0.03,-0.01,-0.01,32.09
51558202,2505,1,154573,226980,0.63,-0.23,9.99,-0.03,-0.03,-0.01,32.09
51598203,2320,1,158576,229428,0.66,-0.23,9.96,-0.03,-0.05,-0.01,32.09
51638202,2141,1,160301,230004,0.65,-0.23,9.95,-0.03,-0.02,-0.01,32.09
51678203,1936,1,160745,230282,0.67,-0.22,9.95,-0.03,-0.01,-0.00,32.09
51718226,1840,1,160213,231446,0.64,-0.22,10.00,-0.03,-0.02,-0.00,32.09
51758203,1681,1,160335,232946,0.65,-0.24,10.03,-0.03,-0.04,-0.01,32.09
51798202,1600,1,159306,233331,0.71,-0.24,9.94,-0.03,-0.04,-0.01,32.09
51838892,1535,1,159530,233457,0.67,-0.23,9.95,-0.04,-0.00,-0.00,32.09
51877200,1523,1,157988,233430,0.67,-0.21,9.97,-0.04,0.01,-0.00,32.09
51917200,1497,1,158239,232286,0.64,-0.22,10.01,-0.04,0.01,-0.00,32.09
51957179,1486,1,158036,228008,0.67,-0.22,9.98,-0.03,-0.02,-0.01,32.09
51997202,1440,1,157426,227389,0.68,-0.22,9.92,-0.03,-0.01,-0.01,32.09
52037200,1424,1,157264,228637,0.67,-0.23,9.97,-0.03,-0.02,-0.01,32.09
52077202,1398,1,158086,229900,0.68,-0.22,9.93,-0.03,-0.01,-0.01,32.09
52117201,1381,1,158083,231136,0.67,-0.22,9.97,-0.03,-0.01,-0.00,32.09
52157203,1366,1,158967,231699,0.69,-0.23,9.94,-0.03,-0.01,-0.01,32.09
52197200,1360,1,157739,231999,0.69,-0.20,9.93,-0.03,-0.01,-0.01,32.09
52237202,1360,1,158414,232228,0.68,-0.22,9.96,-0.04,-0.00,-0.01,32.09
52277201,1363,1,158248,232370,0.68,-0.22,9.96,-0.04,-0.00,-0.01,32.09
52317200,1386,1,158057,232601,0.67,-0.21,9.97,-0.04,0.00,-0.01,32.09
52357179,1398,1,158249,232911,0.67,-0.22,9.96,-0.03,-0.00,-0.01,32.09
52397202,1415,1,159069,232537,0.66,-0.22,9.95,-0.04,-0.00,-0.00,32.09
52437201,1440,1,158190,229637,0.64,-0.23,10.00,-0.03,-0.01,-0.00,32.09
52477201,1456,1,157403,227756,0.68,-0.24,9.97,-0.03,-0.01,-0.00,32.09
52517200,1472,1,158984,228624,0.67,-0.24,9.99,-0.03,-0.01,-0.01,32.09
52558203,1477,1,159007,229596,0.66,-0.21,9.96,-0.03,-0.01,-0.00,32.09
52598202,1498,1,159616,230766,0.66,-0.20,9.95,-0.03,-0.01,-0.01,32.09
52638203,1509,1,160353,231387,0.68,-0.22,9.96,-0.03,-0.01,-0.01,32.09
52678201,1520,1,159976,231602,0.67,-0.20,9.95,-0.03,-0.01,-0.01,32.09
52718203,1523,1,160671,231630,0.66,-0.22,9.99,-0.03,-0.01,-0.01,32.09
52758201,1535,1,160253,231772,0.68,-0.22,9.96,-0.03,-0.01,-0.01,32.09
52798203,1535,1,160866,231932,0.67,-0.22,9.95,-0.03,-0.01,-0.00,32.09
52838890,1531,1,158477,232541,0.65,-0.23,9.97,-0.03,-0.00,-0.01,32.21
52877202,1562,1,158151,233047,0.67,-0.23,9.98,-0.03,-0.01,-0.01,32.21
52917201,1556,1,158052,230936,0.66,-0.24,9.97,-0.03,-0.01,-0.01,32.21
52957202,1573,1,156901,228153,0.67,-0.22,9.99,-0.03,-0.00,-0.01,32.21
52997201,1563,1,156245,228523,0.67,-0.23,9.98,-0.03,-0.01,-0.01,32.21
53037203,1578,1,156874,229547,0.67,-0.22,9.98,-0.03,-0.01,-0.01,32.21
53077200,1584,1,157613,230636,0.67,-0.23,9.96,-0.03,-0.01,-0.01,32.21
53119202,1581,1,159270,231472,0.66,-0.22,9.96,-0.03,-0.01,-0.01,32.21
53159201,1587,1,158802,232002,0.67,-0.22,9.97,-0.03,-0.01,-0.00,32.21
53199202,1589,1,158992,232034,0.67,-0.21,9.96,-0.03,-0.00,-0.01,32.21
53239201,1583,1,158651,232101,0.65,-0.22,9.97,-0.03,-0.01,-0.01,32.21
53279202,1587,1,159083,232230,0.65,-0.21,9.96,-0.03,-0.00,-0.01,32.21
53319201,1600,1,158988,232404,0.67,-0.23,9.98,-0.03,-0.01,-0.01,32.21
53359252,1600,1,159596,232745,0.67,-0.23,9.94,-0.03,-0.01,-0.01,32.21
53399201,1587,1,159444,231993,0.65,-0.22,9.97,-0.03,-0.01,-0.00,32.21
53439202,1586,1,158947,228323,0.67,-0.22,9.97,-0.04,-0.01,-0.01,32.21
53479201,1579,1,156848,227620,0.66,-0.22,9.93,-0.03,-0.01,-0.01,32.21
53519202,1578,1,157376,228709,0.67,-0.22,9.95,-0.03,-0.01,-0.01,32.21
53559237,1577,1,157577,229766,0.66,-0.22,9.96,-0.03,-0.01,-0.01,32.21
53599202,1584,1,158548,230830,0.67,-0.21,9.95,-0.03,-0.01,-0.00,32.21
53639201,1574,1,158282,231596,0.66,-0.23,9.97,-0.03,-0.01,-0.00,32.21
53679202,1568,1,158620,231823,0.67,-0.21,9.94,-0.03,-0.00,-0.00,32.21
53719201,1566,1,158374,231954,0.65,-0.20,9.96,-0.04,-0.00,-0.01,32.21
53759201,1558,1,158667,232201,0.65,-0.22,9.96,-0.03,-0.01,-0.01,32.21
53799202,1557,1,158514,232473,0.67,-0.23,9.97,-0.03,-0.01,-0.01,32.21
53839890,1559,1,160675,232792,0.67,-0.23,9.95,-0.03,-0.01,-0.00,32.21
53878202,1559,1,160882,233026,0.64,-0.22,9.96,-0.03,-0.01,-0.01,32.21
53918203,1535,1,160587,230933,0.66,-0.22,9.95,-0.03,-0.01,-0.01,32.21
53958201,1535,1,159196,228206,0.68,-0.23,9.96,-0.03,-0.01,-0.01,32.21
53998203,1535,1,159237,228439,0.65,-0.23,9.95,-0.03,-0.01,-0.00,32.21
54038201,1535,1,159654,229540,0.67,-0.24,9.97,-0.03,-0.01,-0.01,32.21
54078203,1535,1,160079,230582,0.67,-0.22,9.98,-0.03,-0.01,-0.01,32.21
54118202,1530,1,159766,231542,0.65,-0.24,9.97,-0.04,-0.00,-0.01,32.21
54158204,1527,1,159727,231965,0.67,-0.23,9.96,-0.03,-0.01,-0.01,32.21
54198202,1521,1,159738,232121,0.66,-0.23,10.00,-0.03,-0.01,-0.01,32.21
54238203,1512,1,160317,232189,0.66,-0.23,9.98,-0.03,-0.01,-0.01,32.21
54278201,1514,1,160175,232247,0.64,-0.23,9.95,-0.03,-0.01,-0.01,32.21
54318203,1519,1,160559,232495,0.67,-0.22,9.94,-0.03,-0.00,-0.00,32.21
54358201,1520,1,160737,232925,0.67,-0.23,9.96,-0.03,-0.01,-0.01,32.21
54398203,1520,1,161233,232511,0.64,-0.23,9.96,-0.03,-0.01,-0.01,32.21
54438202,1518,1,160026,229217,0.64,-0.22,9.96,-0.03,-0.01,-0.01,32.21
54478203,1511,1,159684,227960,0.65,-0.23,9.96,-0.03,-0.01,-0.01,32.21
54518201,1510,1,159250,228628,0.67,-0.22,9.96,-0.03,-0.01,-0.01,32.21
54558203,1520,1,159997,229669,0.66,-0.23,9.96,-0.03,-0.01,-0.01,32.21
54598201,1519,1,160305,230808,0.67,-0.21,9.96,-0.03,-0.01,-0.01,32.21
54638203,1528,1,160837,231470,0.66,-0.21,9.96,-0.03,-0.00,-0.00,32.21
54678201,1501,1,160865,231683,0.67,-0.23,9.96,-0.04,-0.00,-0.01,32.21
54718203,1522,1,161002,231724,0.67,-0.23,9.98,-0.03,-0.01,-0.01,32.21
54758201,1518,1,159887,231865,0.67,-0.21,9.95,-0.03,-0.01,-0.01,32.21
54798202,1520,1,160386,232074,0.65,-0.23,9.96,-0.03,-0.01,-0.01,32.21
54838200,1520,1,160239,232409,0.66,-0.23,9.95,-0.03,-0.01,-0.01,32.21
54878892,1507,1,159077,232516,0.68,-0.22,9.96,-0.03,-0.01,-0.01,32.09
54919201,1495,1,159256,230138,0.65,-0.23,9.95,-0.03,-0.01,-0.01,32.09
54959202,1488,1,158435,227399,0.67,-0.21,9.94,-0.03,-0.01,-0.01,32.09
54999201,1491,1,157772,227824,0.66,-0.23,9.95,-0.03,-0.01,-0.01,32.09
55039201,1501,1,158979,228885,0.66,-0.20,9.96,-0.03,-0.01,-0.00,32.09
55079200,1503,1,158741,230207,0.65,-0.23,9.96,-0.03,-0.01,-0.01,32.09
55119202,1501,1,159526,231319,0.64,-0.21,9.92,-0.03,-0.01,-0.01,32.09
55159201,1505,1,159772,231830,0.66,-0.21,9.96,-0.03,-0.00,-0.01,32.09
55199253,1518,1,159988,231963,0.67,-0.21,9.98,-0.03,-0.00,-0.00,32.09
55239201,1505,1,159983,232165,0.66,-0.24,9.98,-0.04,-0.01,-0.01,32.09
55279202,1514,1,160506,232340,0.67,-0.22,9.97,-0.03,-0.01,-0.01,32.09
55319201,1513,1,160478,232754,0.64,-0.22,9.96,-0.03,-0.01,-0.01,32.09
55359202,1517,1,160896,233035,0.66,-0.21,9.95,-0.03,-0.01,-0.00,32.09
55399220,1505,1,159604,232182,0.66,-0.23,9.96,-0.03,-0.01,-0.01,32.09
55439202,1507,1,158774,229032,0.66,-0.20,9.96,-0.03,-0.01,-0.01,32.09
55479201,1504,1,158588,228550,0.65,-0.21,9.98,-0.03,-0.01,-0.01,32.09
55519202,1510,1,159195,229464,0.66,-0.21,9.96,-0.03,-0.01,-0.00,32.09
55559201,1511,1,158662,230359,0.66,-0.23,9.98,-0.03,-0.01,-0.01,32.09
55599202,1520,1,159855,231444,0.66,-0.21,9.96,-0.03,-0.01,-0.01,32.09
55639201,1507,1,159908,232112,0.67,-0.22,9.97,-0.03,-0.00,-0.00,32.09
55679202,1519,1,160857,232256,0.67,-0.24,9.96,-0.03,-0.01,-0.01,32.09
55719201,1507,1,160259,232265,0.64,-0.22,9.96,-0.03,-0.01,-0.00,32.09
55759202,1503,1,160194,232491,0.66,-0.21,9.97,-0.03,-0.01,-0.01,32.09
55799201,1511,1,160455,232661,0.67,-0.23,9.96,-0.03,-0.01,-0.00,32.09
55839202,1520,1,160806,233055,0.68,-0.21,9.95,-0.03,-0.01,-0.01,32.09
55879890,1491,1,160511,233239,0.65,-0.21,9.98,-0.03,-0.01,-0.01,32.19
55918202,1554,1,160304,231393,0.65,-0.24,9.96,-0.03,-0.01,-0.01,32.19
55958201,1535,1,159161,229504,0.66,-0.21,9.96,-0.03,-0.01,-0.01,32.19
55998202,1535,1,159519,229899,0.65,-0.22,9.93,-0.03,-0.01,-0.01,32.19
56038200,1554,1,158418,230832,0.66,-0.22,9.97,-0.03,-0.01,-0.01,32.19
56078202,1535,1,159102,231696,0.65,-0.22,9.94,-0.03,-0.01,-0.01,32.19
56118200,1535,1,159325,232464,0.66,-0.21,9.94,-0.03,-0.01,-0.01,32.19
56158202,1535,1,159891,232735,0.66,-0.22,9.95,-0.03,-0.01,-0.01,32.19
56198200,1535,1,159737,232869,0.67,-0.20,9.96,-0.03,-0.01,-0.00,32.19
56238201,1535,1,159688,232830,0.68,-0.23,9.95,-0.03,-0.01,-0.01,32.19
56278200,1553,1,160220,232991,0.67,-0.26,9.96,-0.03,-0.01,-0.01,32.19
56318202,1558,1,160475,233257,0.65,-0.21,9.95,-0.03,-0.01,-0.01,32.19
56358200,1535,1,159664,233426,0.65,-0.22,9.95,-0.03,-0.01,-0.01,32.19
56398203,1535,1,160155,233346,0.67,-0.22,9.97,-0.03,-0.01,-0.01,32.19
56438201,1535,1,159596,231202,0.66,-0.24,9.97,-0.03,-0.01,-0.01,32.19
56478202,1556,1,159398,230369,0.68,-0.23,9.93,-0.03,-0.01,-0.01,32.19
56518200,1556,1,159140,230816,0.66,-0.24,9.98,-0.03,-0.01,-0.01,32.19
56558202,1557,1,159913,231405,0.65,-0.23,9.96,-0.03,-0.00,-0.00,32.19
56598200,1559,1,159739,232251,0.67,-0.23,9.97,-0.03,-0.01,-0.01,32.19
56638202,1561,1,160545,232631,0.65,-0.23,9.96,-0.03,-0.01,-0.01,32.19
56678201,1555,1,159476,232859,0.66,-0.24,9.95,-0.03,-0.01,-0.01,32.19
56718202,1563,1,159709,232825,0.67,-0.23,9.94,-0.03,-0.01,-0.01,32.19
56758201,1535,1,159734,232966,0.66,-0.23,9.96,-0.03,-0.01,-0.01,32.19
56798202,1558,1,160243,233159,0.66,-0.21,9.95,-0.03,-0.01,-0.01,32.19
56838219,1561,1,159740,233412,0.65,-0.23,9.98,-0.03,-0.01,-0.01,32.19
56878202,1573,1,160118,233566,0.64,-0.24,9.96,-0.03,-0.01,-0.01,32.19
56918890,1535,1,160573,232644,0.65,-0.24,9.95,-0.03,-0.01,-0.01,32.17
56959204,1534,1,161146,230423,0.66,-0.21,9.97,-0.03,-0.01,-0.01,32.17
56999202,1517,1,160161,230229,0.65,-0.23,9.95,-0.03,-0.01,-0.01,32.17
57039208,1519,1,160553,230872,0.64,-0.22,9.97,-0.03,-0.01,-0.01,32.17
57079202,1528,1,160820,231720,0.67,-0.23,9.97,-0.03,-0.01,-0.01,32.17
57119204,1533,1,161693,232501,0.66,-0.22,9.94,-0.03,-0.01,-0.01,32.17
57159202,1527,1,161343,232836,0.66,-0.22,9.95,-0.04,-0.01,-0.01,32.17
57199203,1535,1,161935,232873,0.65,-0.23,9.96,-0.03,-0.00,-0.01,32.17
57239202,1535,1,161758,232956,0.65,-0.23,9.96,-0.03,-0.01,-0.01,32.17
57279203,1534,1,162235,233025,0.64,-0.22,9.95,-0.03,-0.01,-0.01,32.17
57319201,1535,1,160979,233361,0.66,-0.22,9.99,-0.03,-0.01,-0.01,32.17
57359203,1535,1,161254,233655,0.66,-0.25,9.94,-0.03,-0.01,-0.01,32.17
57399202,1535,1,161452,233807,0.64,-0.24,9.98,-0.03,-0.01,-0.01,32.17
57439203,1535,1,161442,232055,0.65,-0.23,9.99,-0.03,-0.01,-0.01,32.17
57479202,1535,1,160515,230980,0.65,-0.22,9.98,-0.03,-0.01,-0.01,32.17
57519203,1535,1,160849,231240,0.65,-0.23,9.98,-0.03,-0.01,-0.01,32.17
57559201,1575,1,160862,231913,0.66,-0.22,9.95,-0.03,-0.01,-0.01,32.17
57599203,1575,1,161180,232573,0.68,-0.22,9.98,-0.03,-0.01,-0.00,32.17
57639202,1584,1,160931,233023,0.66,-0.22,9.95,-0.03,-0.01,-0.00,32.17
57679203,1578,1,161353,233178,0.66,-0.20,9.95,-0.03,-0.01,-0.00,32.17
57719201,1583,1,161556,233295,0.66,-0.24,9.98,-0.03,-0.01,-0.01,32.17
57759203,1572,1,161968,233392,0.65,-0.23,9.95,-0.03,-0.00,-0.01,32.17
57799201,1575,1,161620,233490,0.65,-0.21,9.98,-0.03,-0.01,-0.01,32.17
57839203,1590,1,161905,233692,0.65,-0.22,9.95,-0.03,-0.01,-0.01,32.17
57879201,1585,1,161767,233923,0.65,-0.23,9.96,-0.03,-0.01,-0.01,32.17
57919892,1535,1,160465,233406,0.64,-0.21,9.95,-0.04,-0.00,-0.01,32.27
57960201,1535,1,159256,231412,0.66,-0.21,9.95,-0.03,-0.01,-0.01,32.27
58000202,1535,1,158924,230970,0.67,-0.22,9.97,-0.03,-0.01,-0.01,32.27
58040201,1535,1,158715,231333,0.66,-0.23,9.94,-0.03,-0.01,-0.01,32.27
58080202,1565,1,159126,231827,0.67,-0.25,9.97,-0.03,-0.01,-0.01,32.27
58120201,1558,1,159161,232689,0.66,-0.22,9.97,-0.03,-0.01,-0.01,32.27
58160202,1575,1,159692,233050,0.66,-0.24,9.97,-0.03,-0.01,-0.00,32.27
58200201,1574,1,159357,233097,0.65,-0.23,9.95,-0.03,-0.01,-0.01,32.27
58240202,1572,1,159938,233146,0.66,-0.24,9.96,-0.03,-0.01,-0.01,32.27
58280201,1571,1,159279,233092,0.65,-0.23,9.99,-0.03,-0.01,-0.01,32.27
58320202,1581,1,159321,233276,0.66,-0.23,9.96,-0.03,-0.00,-0.01,32.27
58360201,1591,1,159594,233414,0.64,-0.22,9.96,-0.03,-0.01,-0.01,32.27
58400201,1584,1,159870,233585,0.66,-0.21,9.95,-0.03,-0.01,-0.01,32.27
58440201,1584,1,159625,233161,0.65,-0.23,9.99,-0.03,-0.01,-0.01,32.27
58480201,1570,1,159122,231342,0.68,-0.22,9.97,-0.03,-0.01,-0.01,32.27
58520201,1571,1,158878,230986,0.65,-0.23,9.96,-0.03,-0.01,-0.01,32.27
58560202,1582,1,159313,231417,0.66,-0.23,9.94,-0.03,-0.01,-0.01,32.27
58600201,1581,1,158221,231983,0.65,-0.21,9.99,-0.03,-0.01,-0.01,32.27
58640202,1583,1,158836,232616,0.67,-0.21,9.95,-0.03,-0.01,-0.01,32.27
58680229,1593,1,158780,232943,0.65,-0.22,9.96,-0.03,-0.00,-0.01,32.27
58720202,1589,1,159501,233014,0.66,-0.22,9.96,-0.03,-0.01,-0.01,32.27
58760201,1585,1,158976,232934,0.67,-0.22,9.97,-0.03,-0.01,-0.01,32.27
58800202,1575,1,159425,233078,0.66,-0.23,9.95,-0.03,-0.01,-0.00,32.27
58840201,1595,1,159535,233293,0.64,-0.24,9.99,-0.03,-0.01,-0.01,32.27
58880222,1588,1,159542,233470,0.66,-0.23,9.97,-0.03,-0.01,-0.01,32.27
58920889,1571,1,161082,233698,0.65,-0.23,9.98,-0.03,-0.00,-0.01,32.35
58959203,1613,1,161409,232961,0.65,-0.24,9.98,-0.03,-0.01,-0.01,32.35
58999202,1615,1,160511,231184,0.64,-0.23,9.96,-0.03,-0.01,-0.01,32.35
59039203,1611,1,160444,231122,0.65,-0.23,9.96,-0.03,-0.01,-0.00,32.35
59079201,1611,1,160148,231570,0.64,-0.23,9.97,-0.03,-0.01,-0.01,32.35
59119203,1613,1,160373,232157,0.65,-0.23,9.96,-0.03,-0.01,-0.01,32.35
59159201,1613,1,161011,232849,0.64,-0.23,9.97,-0.03,-0.01,-0.01,32.35
59199203,1616,1,161477,233023,0.66,-0.21,9.95,-0.03,-0.00,-0.01,32.35
59239202,1612,1,160292,232978,0.65,-0.23,9.97,-0.03,-0.01,-0.01,32.35
59279203,1605,1,160328,233053,0.67,-0.23,9.94,-0.03,-0.01,-0.01,32.35
59319201,1611,1,160588,233237,0.65,-0.23,9.95,-0.03,-0.01,-0.00,32.35
59359202,1610,1,160659,233268,0.65,-0.22,9.96,-0.03,-0.01,-0.01,32.35
59399200,1605,1,160392,233535,0.66,-0.24,9.95,-0.03,-0.01,-0.01,32.35
59439202,1616,1,160827,233618,0.67,-0.22,9.94,-0.03,-0.01,-0.01,32.35
59479201,1618,1,160672,232056,0.65,-0.24,9.99,-0.03,-0.01,-0.00,32.35
59519203,1616,1,160039,230710,0.66,-0.23,9.96,-0.03,-0.01,-0.01,32.35
59559201,1610,1,159473,230866,0.67,-0.23,9.95,-0.03,-0.01,-0.01,32.35
59599203,1616,1,159429,231355,0.64,-0.23,9.97,-0.03,-0.01,-0.00,32.35
59639201,1614,1,159836,232074,0.65,-0.23,9.96,-0.03,-0.01,-0.01,32.35
59679203,1617,1,160372,232685,0.64,-0.22,9.98,-0.03,-0.01,-0.00,32.35
59719201,1621,1,160163,232913,0.65,-0.24,9.98,-0.03,-0.01,-0.00,32.35
59759203,1619,1,160252,232945,0.66,-0.22,9.96,-0.03,-0.01,-0.01,32.35
59799201,1629,1,160468,232991,0.64,-0.23,9.97,-0.03,-0.00,-0.01,32.35
59839203,1621,1,160477,233051,0.67,-0.22,9.98,-0.03,-0.01,-0.01,32.35
59879201,1616,1,159611,233270,0.65,-0.23,9.98,-0.03,-0.01,-0.00,32.35
59919202,1614,1,159875,233359,0.67,-0.23,9.98,-0.03,-0.01,-0.01,32.35
59959890,1601,1,158749,233384,0.65,-0.23,9.94,-0.03,-0.01,-0.00,32.35
60000202,1606,1,159603,231590,0.66,-0.23,9.94,-0.03,-0.01,-0.01,32.35
60040201,1600,1,158457,230452,0.67,-0.22,9.94,-0.03,-0.01,-0.01,32.35
60080203,1612,1,159142,230772,0.66,-0.23,9.96,-0.03,-0.01,-0.00,32.35
60120201,1596,1,158951,231447,0.64,-0.21,9.96,-0.03,-0.01,-0.01,32.35
60160202,1612,1,159434,231993,0.65,-0.22,9.92,-0.03,-0.01,-0.01,32.35
60200201,1606,1,159413,232589,0.66,-0.24,9.94,-0.03,-0.01,-0.01,32.35
60240202,1604,1,159694,232837,0.66,-0.21,9.95,-0.03,-0.01,-0.00,32.35
60280201,1613,1,159665,232916,0.66,-0.23,9.96,-0.03,-0.00,-0.01,32.35
60320202,1602,1,159714,232933,0.66,-0.21,9.96,-0.03,-0.00,-0.01,32.35
60360201,1610,1,159861,233206,0.66,-0.25,9.95,-0.03,-0.01,-0.01,32.35
60400202,1607,1,160027,233384,0.65,-0.23,9.93,-0.03,-0.01,-0.01,32.35
60440201,1616,1,159960,233650,0.68,-0.20,9.94,-0.03,-0.01,-0.01,32.35
60480202,1603,1,160628,233445,0.66,-0.22,9.96,-0.03,-0.01,-0.01,32.35
60520202,1600,1,158231,231406,0.63,-0.21,9.97,-0.03,-0.01,-0.01,32.35
60560204,1596,1,158605,230577,0.67,-0.21,9.96,-0.03,-0.01,-0.00,32.35
60600202,1597,1,158103,230887,0.66,-0.23,9.97,-0.03,-0.01,-0.01,32.35
60640203,1595,1,157457,231514,0.65,-0.23,9.98,-0.03,-0.01,-0.01,32.35
60680202,1586,1,155858,232124,0.65,-0.24,9.97,-0.03,-0.01,-0.01,32.35
60720204,1589,1,155763,232638,0.64,-0.23,9.96,-0.03,-0.00,-0.01,32.35
60760202,1587,1,156154,232869,0.67,-0.22,9.96,-0.03,-0.01,-0.01,32.35
60800204,1586,1,156415,232823,0.65,-0.24,9.96,-0.03,-0.01,-0.01,32.35
60840202,1581,1,155836,232927,0.66,-0.22,9.99,-0.03,-0.01,-0.01,32.35
60880204,1595,1,156258,233036,0.68,-0.22,9.99,-0.03,-0.01,-0.00,32.35
60920202,1585,1,156284,233291,0.66,-0.22,9.96,-0.03,-0.01,-0.00,32.35
60960892,1581,1,156865,233361,0.68,-0.22,9.96,-0.03,-0.01,-0.01,32.19
60999202,1600,1,156288,233273,0.67,-0.23,9.95,-0.03,-0.00,-0.00,32.19
61039202,1595,1,156405,231484,0.67,-0.22,9.94,-0.03,-0.01,-0.01,32.19
61079201,1581,1,155540,230795,0.65,-0.22,9.95,-0.03,-0.01,-0.01,32.19
61119203,1584,1,155939,231338,0.66,-0.23,9.97,-0.03,-0.01,-0.01,32.19
61159201,1577,1,154651,231914,0.65,-0.23,9.93,-0.03,-0.01,-0.01,32.19
61199203,1586,1,155399,232516,0.66,-0.23,9.95,-0.03,-0.01,-0.01,32.19
61239201,1591,1,155492,232931,0.64,-0.21,9.96,-0.03,-0.01,-0.01,32.19
61279203,1591,1,156061,232948,0.65,-0.22,9.96,-0.03,-0.01,-0.01,32.19
61319202,1586,1,155366,232899,0.64,-0.22,9.95,-0.03,-0.01,-0.01,32.19
61359203,1573,1,155815,233012,0.66,-0.23,9.95,-0.03,-0.01,-0.01,32.19
61399201,1586,1,155999,233110,0.65,-0.23,9.96,-0.03,-0.01,-0.01,32.19
61439203,1587,1,156053,233271,0.66,-0.23,9.96,-0.03,-0.01,-0.01,32.19
61479201,1584,1,155410,233479,0.65,-0.22,9.95,-0.03,-0.00,-0.01,32.19
61519203,1588,1,155626,232610,0.66,-0.23,9.95,-0.03,-0.01,-0.01,32.19
61559201,1575,1,155457,230808,0.65,-0.23,9.97,-0.03,-0.01,-0.01,32.19
61599203,1579,1,155114,230736,0.64,-0.23,9.98,-0.03,-0.01,-0.01,32.19
61639201,1582,1,154903,231261,0.65,-0.22,9.96,-0.03,-0.01,-0.01,32.19
61679203,1583,1,155971,231958,0.67,-0.24,9.98,-0.03,-0.01,-0.01,32.19
