timestamp_us,ecg,leads,ir,red,accX,accY,accZ,gyroX,gyroY,gyroZ,temp
1920487,1699,1,206916,241770,0.00,0.00,0.00,0.00,0.00,0.00,0.00
1950953,1581,1,208675,244223,1.17,-0.22,9.68,-0.03,-0.01,-0.01,31.69
1991199,1526,1,210105,245857,1.19,-0.22,9.91,-0.03,-0.01,-0.01,31.69
2031187,1520,1,210488,245999,1.18,-0.23,9.92,-0.03,-0.00,-0.01,31.69
2071187,1535,1,210263,245444,1.17,-0.22,9.92,-0.03,-0.00,-0.01,31.69
2111187,1577,1,210042,244460,1.19,-0.21,9.95,-0.03,-0.01,-0.01,31.69
2151188,1649,1,210302,244176,1.19,-0.20,9.94,-0.04,-0.02,-0.01,31.69
2191187,1670,1,210406,243904,1.21,-0.23,9.91,-0.03,-0.01,-0.00,31.69
2231188,1718,1,210340,242883,1.20,-0.21,9.95,-0.03,-0.01,-0.01,31.69
2271187,1787,1,210025,243208,1.21,-0.22,9.90,-0.03,-0.01,-0.01,31.69
2311188,1805,1,210411,243695,1.17,-0.23,9.94,-0.04,-0.01,-0.01,31.69
2351187,1830,1,210893,243886,1.18,-0.23,9.95,-0.03,-0.02,-0.01,31.69
2391188,1904,1,211251,243827,1.19,-0.22,9.92,-0.03,-0.02,-0.00,31.69
2431187,1919,1,210948,243218,1.20,-0.22,9.90,-0.03,-0.02,-0.00,31.69
2471187,1941,1,210569,242581,1.20,-0.21,9.92,-0.03,-0.01,-0.00,31.69
2510187,1997,1,210168,241714,1.20,-0.22,9.93,-0.03,-0.01,-0.01,31.69
2550188,2000,1,209509,239894,1.22,-0.22,9.91,-0.03,-0.01,-0.00,31.69
2590187,2018,1,208483,237386,1.20,-0.22,9.93,-0.03,-0.01,-0.00,31.69
2630188,2042,1,207532,235270,1.23,-0.22,9.95,-0.03,-0.01,-0.01,31.69
2670187,2041,1,206809,234112,1.22,-0.23,9.92,-0.03,-0.01,-0.00,31.69
2710189,2045,1,206201,232579,1.22,-0.21,9.95,-0.03,-0.01,-0.00,31.69
2750188,2032,1,205530,230097,1.22,-0.23,9.94,-0.03,-0.01,-0.00,31.69
2790188,2032,1,204256,226436,1.20,-0.21,9.93,-0.03,-0.01,-0.00,31.69
2830187,2018,1,202812,223755,1.21,-0.23,9.95,-0.03,-0.01,-0.00,31.69
2870189,2023,1,202662,223641,1.20,-0.22,9.94,-0.03,-0.01,-0.00,31.69
2910187,2011,1,202563,223026,1.21,-0.21,9.94,-0.03,-0.01,-0.00,31.69
2950189,2013,1,201978,221225,1.22,-0.23,9.94,-0.03,-0.01,-0.00,31.69
2990873,1984,1,201355,221279,1.20,-0.21,9.92,-0.03,-0.01,-0.00,31.39
3031187,1981,1,201778,223055,1.19,-0.23,9.93,-0.03,-0.01,-0.00,31.39
3071187,1974,1,202467,225966,1.21,-0.22,9.92,-0.04,-0.02,-0.00,31.39
3111188,1979,1,203983,230422,1.22,-0.23,9.94,-0.04,-0.02,-0.01,31.39
3151188,1983,1,205155,233085,1.22,-0.22,9.95,-0.04,-0.02,-0.00,31.39
3191188,1964,1,206245,236128,1.23,-0.20,9.92,-0.04,-0.02,-0.00,31.39
3231187,1978,1,207117,237907,1.24,-0.23,9.94,-0.03,-0.02,-0.00,31.39
3271188,1927,1,207592,239055,1.25,-0.23,9.94,-0.03,-0.01,-0.00,31.39
3311188,1934,1,208210,241094,1.24,-0.22,9.91,-0.04,-0.02,-0.00,31.39
3351188,1920,1,208618,240525,1.24,-0.23,9.93,-0.04,-0.02,-0.00,31.39
3391188,1947,1,207928,238587,1.24,-0.23,9.93,-0.03,-0.01,-0.00,31.39
3431188,1937,1,207495,238707,1.25,-0.24,9.94,-0.03,-0.01,-0.00,31.39
3471188,1964,1,207915,240185,1.25,-0.23,9.94,-0.04,-0.02,-0.00,31.39
3510189,1968,1,208337,241234,1.24,-0.23,9.95,-0.04,-0.03,-0.00,31.39
3550187,1938,1,208662,242278,1.24,-0.23,9.91,-0.04,-0.03,-0.00,31.39
3590190,1936,1,208885,242866,1.27,-0.23,9.93,-0.04,-0.02,-0.00,31.39
3630188,1943,1,208999,243031,1.26,-0.22,9.93,-0.04,-0.01,-0.00,31.39
3670190,1945,1,208962,243131,1.24,-0.23,9.91,-0.03,-0.01,-0.00,31.39
3710188,1937,1,208967,243250,1.26,-0.21,9.93,-0.03,-0.01,-0.00,31.39
3750190,1920,1,208951,243321,1.25,-0.22,9.92,-0.03,-0.00,-0.00,31.39
3790188,1906,1,208973,243637,1.27,-0.23,9.95,-0.03,-0.01,-0.00,31.39
3830190,1919,1,209027,243971,1.28,-0.23,9.93,-0.03,-0.01,-0.00,31.39
3870188,1915,1,209112,244087,1.27,-0.24,9.91,-0.03,-0.01,-0.00,31.39
3910190,1922,1,209079,243901,1.26,-0.24,9.92,-0.03,-0.01,-0.00,31.39
3950189,1925,1,208740,241646,1.27,-0.23,9.93,-0.03,-0.01,-0.00,31.39
3990876,1904,1,207628,239382,1.26,-0.23,9.92,-0.03,-0.01,-0.00,31.19
4031188,1897,1,207157,238848,1.26,-0.23,9.95,-0.03,-0.00,-0.00,31.19
4071189,1891,1,207029,238690,1.25,-0.23,9.92,-0.03,-0.00,-0.00,31.19
4111188,1893,1,207006,238958,1.24,-0.23,9.92,-0.03,-0.00,-0.00,31.19
4149189,1959,1,207059,239217,1.24,-0.22,9.92,-0.03,-0.01,-0.01,31.19
4189188,1959,1,207092,239425,1.24,-0.23,9.90,-0.03,-0.01,-0.01,31.19
4229224,1993,1,207103,239593,1.26,-0.23,9.92,-0.03,-0.01,-0.00,31.19
4269188,1985,1,207269,240050,1.26,-0.22,9.93,-0.03,-0.01,-0.00,31.19
4309190,1986,1,207279,240022,1.25,-0.23,9.92,-0.03,-0.01,-0.00,31.19
4349188,2028,1,207197,240240,1.24,-0.24,9.91,-0.03,-0.01,-0.00,31.19
4389190,2007,1,207390,240939,1.25,-0.22,9.93,-0.04,-0.02,-0.00,31.19
4429188,1994,1,207648,241598,1.26,-0.23,9.93,-0.04,-0.02,-0.00,31.19
4469190,1991,1,207763,241874,1.27,-0.24,9.91,-0.03,-0.01,-0.00,31.19
4509188,1997,1,207792,240997,1.26,-0.22,9.93,-0.03,-0.01,-0.00,31.19
4550190,1942,1,207040,238477,1.25,-0.24,9.91,-0.03,-0.01,-0.00,31.19
4590188,1939,1,206441,237672,1.27,-0.23,9.93,-0.03,-0.01,-0.00,31.19
4630190,1922,1,206257,237622,1.29,-0.24,9.93,-0.03,-0.01,-0.00,31.19
4670188,1925,1,206326,237895,1.28,-0.23,9.89,-0.03,-0.01,-0.00,31.19
4710190,1931,1,206439,238542,1.27,-0.23,9.93,-0.03,-0.01,-0.00,31.19
4750188,1918,1,206696,239175,1.27,-0.24,9.91,-0.04,-0.01,-0.00,31.19
4790190,1919,1,206755,239224,1.27,-0.20,9.95,-0.03,-0.01,-0.00,31.19
4830188,1900,1,206759,239255,1.26,-0.23,9.90,-0.03,-0.01,-0.00,31.19
4870190,1930,1,206740,239398,1.27,-0.23,9.93,-0.03,-0.01,-0.00,31.19
4910188,1917,1,206774,239556,1.27,-0.20,9.95,-0.03,-0.01,-0.00,31.19
4950196,1913,1,206790,239684,1.25,-0.23,9.95,-0.03,-0.01,-0.00,31.19
4990874,1883,1,206819,239971,1.26,-0.22,9.92,-0.03,-0.01,-0.00,31.35
5029190,1930,1,206874,240155,1.26,-0.24,9.93,-0.03,-0.01,-0.00,31.35
5069188,1941,1,206874,240188,1.26,-0.23,9.93,-0.03,-0.01,-0.00,31.35
5109189,1936,1,206829,239878,1.27,-0.25,9.93,-0.03,-0.01,-0.00,31.35
5149193,1937,1,206258,237682,1.25,-0.21,9.90,-0.03,-0.01,-0.01,31.35
5189189,1939,1,205618,236567,1.27,-0.22,9.92,-0.03,-0.01,-0.00,31.35
5229188,1918,1,205309,236269,1.25,-0.21,9.94,-0.03,-0.01,-0.01,31.35
5269190,1922,1,205233,236380,1.29,-0.23,9.94,-0.03,-0.01,-0.00,31.35
5309188,1945,1,205393,237213,1.26,-0.24,9.92,-0.04,-0.01,-0.00,31.35
5349212,1913,1,205870,238161,1.28,-0.22,9.96,-0.04,-0.01,-0.01,31.35
5389188,1935,1,205988,238226,1.26,-0.23,9.93,-0.03,-0.01,-0.00,31.35
5429189,1915,1,205926,237963,1.25,-0.24,9.92,-0.03,-0.01,-0.00,31.35
5469188,1927,1,205769,237821,1.26,-0.23,9.90,-0.03,-0.01,-0.00,31.35
5509189,1924,1,205743,237753,1.27,-0.23,9.94,-0.03,-0.01,-0.00,31.35
5549188,1905,1,205729,238258,1.29,-0.23,9.93,-0.03,-0.01,-0.00,31.35
5589189,1930,1,205983,238662,1.26,-0.23,9.95,-0.03,-0.01,-0.00,31.35
5629188,1927,1,206028,238668,1.27,-0.25,9.92,-0.03,-0.01,-0.00,31.35
5669190,1920,1,205967,238363,1.26,-0.21,9.92,-0.03,-0.01,-0.00,31.35
5709188,1883,1,205739,238037,1.25,-0.23,9.94,-0.03,-0.01,-0.00,31.35
5749189,1857,1,205619,237859,1.26,-0.22,9.94,-0.03,-0.01,-0.00,31.35
5789188,1862,1,205603,237101,1.27,-0.24,9.92,-0.04,-0.01,-0.00,31.35
5829189,1813,1,205124,236148,1.25,-0.24,9.92,-0.03,-0.01,-0.00,31.35
5869188,1789,1,204881,235474,1.24,-0.19,9.92,-0.03,-0.01,-0.00,31.35
5909189,1775,1,204483,234786,1.27,-0.21,9.94,-0.03,-0.01,-0.00,31.35
5949188,1769,1,204146,234423,1.28,-0.25,9.90,-0.03,-0.01,-0.00,31.35
5989189,1808,1,204120,234597,1.24,-0.24,9.94,-0.03,-0.01,-0.00,31.35
6029874,1783,1,204205,234756,1.26,-0.22,9.93,-0.03,-0.01,-0.00,31.43
6070189,1805,1,204172,234910,1.25,-0.23,9.94,-0.03,-0.01,-0.00,31.43
6110188,1867,1,204356,235443,1.26,-0.25,9.92,-0.04,-0.01,-0.00,31.43
6150190,1840,1,204526,236001,1.28,-0.22,9.92,-0.03,-0.01,-0.00,31.43
6190188,1886,1,204675,236395,1.26,-0.21,9.93,-0.03,-0.01,-0.00,31.43
6230190,1904,1,204764,236718,1.26,-0.22,9.93,-0.03,-0.01,-0.00,31.43
6270188,1840,1,204923,237192,1.23,-0.23,9.92,-0.04,-0.01,-0.00,31.43
6310190,1868,1,205063,237767,1.29,-0.23,9.89,-0.03,-0.01,-0.00,31.43
6350188,1803,1,205269,238269,1.26,-0.23,9.92,-0.03,-0.01,-0.00,31.43
6390190,1881,1,205467,239032,1.23,-0.23,9.90,-0.03,-0.01,-0.00,31.43
6430188,1905,1,205658,239108,1.27,-0.23,9.95,-0.04,-0.01,-0.00,31.43
6470190,1904,1,205434,238377,1.27,-0.24,9.92,-0.03,-0.01,-0.00,31.43
6510188,1934,1,204887,236455,1.26,-0.23,9.91,-0.03,-0.01,-0.00,31.43
6550190,1963,1,204493,236240,1.27,-0.23,9.93,-0.03,-0.01,-0.00,31.43
6590188,1939,1,204558,236532,1.28,-0.23,9.96,-0.04,-0.01,-0.00,31.43
6630190,1938,1,204609,236373,1.24,-0.24,9.92,-0.03,-0.01,-0.01,31.43
6670188,1962,1,204465,236304,1.24,-0.22,9.93,-0.03,-0.01,-0.00,31.43
6710190,1963,1,204505,236606,1.27,-0.23,9.91,-0.03,-0.01,-0.00,31.43
6750188,1947,1,204488,236813,1.27,-0.24,9.93,-0.03,-0.01,-0.01,31.43
6790224,1970,1,204570,237001,1.25,-0.25,9.90,-0.03,-0.01,-0.00,31.43
6830188,1945,1,204582,237088,1.24,-0.23,9.95,-0.03,-0.01,-0.00,31.43
6870190,1962,1,204637,237191,1.24,-0.22,9.94,-0.03,-0.01,-0.00,31.43
6910188,1951,1,204646,237374,1.25,-0.24,9.93,-0.03,-0.01,-0.00,31.43
6950189,1942,1,204789,237786,1.26,-0.24,9.93,-0.03,-0.01,-0.00,31.43
6990206,1947,1,204890,238082,1.25,-0.21,9.93,-0.03,-0.01,-0.00,31.43
7030876,1950,1,205121,238663,1.27,-0.24,9.94,-0.03,-0.01,-0.00,31.47
7069188,1903,1,205237,239014,1.27,-0.22,9.94,-0.03,-0.01,-0.00,31.47
7109190,1957,1,205393,239235,1.28,-0.23,9.92,-0.03,-0.01,-0.00,31.47
7149188,1963,1,205325,238504,1.26,-0.22,9.94,-0.03,-0.01,-0.00,31.47
7189190,1949,1,204769,236925,1.26,-0.22,9.93,-0.03,-0.01,-0.00,31.47
7229188,1963,1,204424,236446,1.28,-0.22,9.93,-0.03,-0.01,-0.00,31.47
7269190,1878,1,204301,236314,1.25,-0.22,9.93,-0.03,-0.01,-0.00,31.47
7309188,1955,1,204263,236482,1.27,-0.23,9.91,-0.03,-0.01,-0.00,31.47
7349190,1936,1,204362,236759,1.25,-0.22,9.91,-0.03,-0.01,-0.00,31.47
7389188,1939,1,204517,237142,1.28,-0.21,9.93,-0.03,-0.01,-0.00,31.47
7429190,1919,1,204675,237505,1.25,-0.23,9.92,-0.03,-0.01,-0.00,31.47
7469189,1928,1,204792,237665,1.25,-0.23,9.95,-0.03,-0.01,-0.00,31.47
7509189,1893,1,204806,237836,1.26,-0.23,9.92,-0.03,-0.01,-0.00,31.47
7549188,1875,1,204981,238598,1.29,-0.23,9.92,-0.04,-0.01,-0.00,31.47
7589190,1909,1,205301,239434,1.27,-0.23,9.94,-0.03,-0.01,-0.00,31.47
7629188,1902,1,205551,239776,1.27,-0.24,9.92,-0.03,-0.01,-0.00,31.47
7669189,1936,1,205556,239979,1.27,-0.21,9.91,-0.03,-0.01,-0.00,31.47
7709188,1917,1,205628,240183,1.24,-0.24,9.93,-0.03,-0.01,-0.00,31.47
7749189,1904,1,205696,240338,1.26,-0.22,9.92,-0.03,-0.01,-0.00,31.47
7789188,1901,1,205731,240661,1.28,-0.24,9.92,-0.03,-0.01,-0.00,31.47
7829189,1895,1,205821,240664,1.26,-0.22,9.93,-0.03,-0.01,-0.00,31.47
7869188,1913,1,205452,238179,1.26,-0.24,9.93,-0.03,-0.01,-0.00,31.47
7909190,1890,1,204561,236866,1.25,-0.24,9.90,-0.03,-0.01,-0.00,31.47
7949188,1904,1,204343,236642,1.26,-0.21,9.91,-0.03,-0.01,-0.00,31.47
7989189,1913,1,204171,236299,1.25,-0.23,9.93,-0.03,-0.01,-0.00,31.47
8029188,1926,1,204043,236430,1.28,-0.22,9.92,-0.03,-0.01,-0.00,31.47
8069876,1886,1,204187,237037,1.29,-0.23,9.90,-0.03,-0.01,-0.00,31.27
8108187,1942,1,204335,237366,1.25,-0.22,9.94,-0.03,-0.01,-0.00,31.27
8148189,1969,1,204411,237568,1.28,-0.24,9.92,-0.03,-0.01,-0.01,31.27
8188188,1965,1,204428,237551,1.26,-0.22,9.90,-0.03,-0.01,-0.00,31.27
8228189,1959,1,204397,237651,1.27,-0.23,9.92,-0.03,-0.01,-0.00,31.27
8268188,1975,1,204490,238051,1.25,-0.23,9.92,-0.03,-0.01,-0.00,31.27
8308189,1983,1,204724,238796,1.25,-0.22,9.93,-0.03,-0.01,-0.00,31.27
8348188,1975,1,204991,239354,1.27,-0.23,9.92,-0.03,-0.01,-0.00,31.27
8388189,1959,1,205180,239832,1.27,-0.23,9.91,-0.03,-0.01,-0.00,31.27
8428189,1954,1,205263,239860,1.28,-0.23,9.95,-0.03,-0.01,-0.00,31.27
8468189,1940,1,205198,239847,1.26,-0.24,9.92,-0.03,-0.01,-0.00,31.27
8508188,1932,1,205155,239964,1.26,-0.23,9.92,-0.03,-0.01,-0.00,31.27
8548190,1948,1,205192,239755,1.24,-0.23,9.93,-0.03,-0.01,-0.00,31.27
8588189,1872,1,204780,237758,1.25,-0.22,9.93,-0.03,-0.01,-0.00,31.27
8628208,1937,1,204166,236944,1.25,-0.21,9.90,-0.03,-0.01,-0.00,31.27
8668188,1914,1,204102,236770,1.26,-0.23,9.94,-0.03,-0.01,-0.00,31.27
8708189,1905,1,204097,236920,1.28,-0.23,9.94,-0.03,-0.01,-0.00,31.27
8748188,1898,1,204213,237371,1.29,-0.21,9.91,-0.03,-0.01,-0.00,31.27
8788190,1899,1,204382,237770,1.25,-0.23,9.92,-0.03,-0.01,-0.00,31.27
8828202,1936,1,204532,237957,1.27,-0.24,9.90,-0.03,-0.01,-0.00,31.27
8868190,1940,1,204595,238102,1.25,-0.22,9.95,-0.03,-0.01,-0.00,31.27
8908188,1920,1,204602,238282,1.29,-0.22,9.94,-0.03,-0.01,-0.00,31.27
8948190,1933,1,204760,238664,1.27,-0.23,9.92,-0.03,-0.01,-0.01,31.27
8988188,1916,1,204897,239064,1.26,-0.21,9.92,-0.03,-0.01,-0.00,31.27
9028190,1923,1,205088,239554,1.25,-0.23,9.92,-0.03,-0.01,-0.00,31.27
9068188,1913,1,205179,239885,1.26,-0.22,9.93,-0.03,-0.01,-0.00,31.27
9108876,1842,1,205305,240248,1.25,-0.23,9.93,-0.03,-0.01,-0.00,31.27
9149189,1872,1,205414,240468,1.26,-0.22,9.94,-0.03,-0.01,-0.01,31.27
9189190,1900,1,205506,240788,1.25,-0.23,9.94,-0.03,-0.01,-0.00,31.27
9229188,1888,1,205524,241047,1.27,-0.22,9.93,-0.03,-0.01,-0.00,31.27
9269190,1874,1,205663,240928,1.26,-0.23,9.91,-0.03,-0.01,-0.00,31.27
9309188,1887,1,205135,238389,1.27,-0.21,9.93,-0.03,-0.01,-0.01,31.27
9349190,1918,1,204354,237228,1.27,-0.22,9.92,-0.03,-0.01,-0.00,31.27
9389189,1928,1,204054,236930,1.29,-0.23,9.92,-0.03,-0.01,-0.00,31.27
9429190,1884,1,204043,237293,1.27,-0.24,9.92,-0.03,-0.01,-0.01,31.27
9469189,1900,1,204297,238084,1.28,-0.21,9.92,-0.04,-0.01,-0.00,31.27
9509190,1934,1,204571,238503,1.25,-0.21,9.92,-0.04,-0.01,-0.00,31.27
9549188,1922,1,204610,238423,1.26,-0.22,9.92,-0.03,-0.01,-0.00,31.27
9589190,1901,1,204471,238352,1.26,-0.22,9.91,-0.03,-0.01,-0.00,31.27
9629188,1904,1,204472,238660,1.27,-0.22,9.93,-0.03,-0.01,-0.00,31.27
9669190,1920,1,204676,239153,1.27,-0.24,9.91,-0.03,-0.01,-0.00,31.27
9709189,1931,1,204897,239734,1.26,-0.23,9.94,-0.03,-0.01,-0.00,31.27
9749190,1924,1,205054,239967,1.26,-0.21,9.92,-0.03,-0.01,-0.00,31.27
9789188,1927,1,205035,240098,1.27,-0.23,9.93,-0.03,-0.01,-0.00,31.27
9829190,1903,1,205109,240340,1.27,-0.23,9.91,-0.03,-0.01,-0.00,31.27
9869189,1920,1,205187,240741,1.27,-0.23,9.91,-0.03,-0.01,-0.00,31.27
9907194,2005,1,205361,241224,1.25,-0.22,9.94,-0.03,-0.01,-0.00,31.27
9947190,1984,1,205563,241576,1.26,-0.22,9.92,-0.03,-0.01,-0.00,31.27
9987193,1970,1,205599,241497,1.26,-0.23,9.90,-0.03,-0.01,-0.00,31.27
10027193,1997,1,205316,239673,1.26,-0.22,9.92,-0.03,-0.01,-0.00,31.27
10067199,1967,1,204617,238265,1.25,-0.22,9.93,-0.03,-0.01,-0.00,31.27
10107193,1984,1,204420,238084,1.25,-0.22,9.91,-0.03,-0.01,-0.00,31.27
10147880,1829,1,204396,238241,1.27,-0.22,9.92,-0.03,-0.01,-0.00,31.19
10188188,1917,1,204488,238403,1.27,-0.24,9.95,-0.03,-0.01,-0.00,31.19
10228191,1904,1,204638,238661,1.26,-0.22,9.92,-0.03,-0.01,-0.00,31.19
10268191,1918,1,204647,238831,1.26,-0.23,9.93,-0.03,-0.01,-0.00,31.19
10308190,1879,1,204683,239018,1.26,-0.21,9.90,-0.03,-0.01,-0.00,31.19
10348188,1936,1,204746,239143,1.25,-0.19,9.93,-0.03,-0.01,-0.00,31.19
10388190,1854,1,204747,239161,1.26,-0.21,9.95,-0.03,-0.01,-0.00,31.19
10428189,1900,1,204697,239241,1.24,-0.24,9.94,-0.03,-0.01,-0.00,31.19
10468190,1877,1,204755,239579,1.24,-0.23,9.95,-0.03,-0.01,-0.00,31.19
10508188,1916,1,204890,239910,1.25,-0.23,9.92,-0.03,-0.01,-0.00,31.19
10548190,1929,1,205023,240273,1.26,-0.22,9.93,-0.03,-0.01,-0.00,31.19
10588189,1920,1,205156,240674,1.25,-0.22,9.94,-0.03,-0.01,-0.00,31.19
10628190,1920,1,205262,241063,1.25,-0.23,9.92,-0.03,-0.01,-0.00,31.19
10668188,1919,1,205362,241056,1.26,-0.24,9.92,-0.03,-0.01,-0.01,31.19
10708190,1933,1,205070,239356,1.24,-0.22,9.90,-0.03,-0.01,-0.00,31.19
10748187,1893,1,204454,238264,1.25,-0.21,9.91,-0.03,-0.01,-0.00,31.19
10788190,1910,1,204247,238060,1.26,-0.23,9.93,-0.03,-0.01,-0.00,31.19
10828188,1927,1,204155,237796,1.26,-0.24,9.93,-0.03,-0.01,-0.00,31.19
10868190,1923,1,204091,237966,1.24,-0.22,9.93,-0.03,-0.01,-0.00,31.19
10908188,1914,1,204223,238352,1.28,-0.22,9.92,-0.03,-0.01,-0.00,31.19
10948190,1893,1,204346,238538,1.24,-0.24,9.92,-0.03,-0.01,-0.00,31.19
10988188,1913,1,204346,238534,1.26,-0.21,9.95,-0.03,-0.01,-0.00,31.19
11028189,1911,1,204223,238222,1.25,-0.21,9.90,-0.03,-0.01,-0.00,31.19
11068189,1938,1,204192,238304,1.27,-0.23,9.92,-0.03,-0.01,-0.00,31.19
11108190,1936,1,204306,238872,1.26,-0.23,9.94,-0.04,-0.01,-0.00,31.19
11148874,1897,1,204474,239182,1.24,-0.23,9.93,-0.03,-0.01,-0.00,31.11
11187191,1968,1,204469,239294,1.27,-0.21,9.92,-0.03,-0.01,-0.00,31.11
11227188,1962,1,204591,239686,1.25,-0.22,9.95,-0.03,-0.01,-0.00,31.11
11267191,1945,1,204711,240083,1.28,-0.23,9.91,-0.03,-0.01,-0.00,31.11
11307188,1937,1,204907,240497,1.27,-0.23,9.93,-0.04,-0.01,-0.00,31.11
11347191,1940,1,204842,239887,1.24,-0.23,9.93,-0.03,-0.01,-0.00,31.11
11387188,1903,1,204324,237983,1.24,-0.22,9.93,-0.03,-0.01,-0.01,31.11
11427191,1893,1,203837,237351,1.26,-0.24,9.93,-0.03,-0.01,-0.00,31.11
11467188,1915,1,203789,237354,1.27,-0.23,9.92,-0.03,-0.01,-0.00,31.11
11507190,1906,1,203803,237291,1.24,-0.22,9.93,-0.03,-0.01,-0.01,31.11
11547189,1942,1,203823,237483,1.23,-0.20,9.91,-0.03,-0.01,-0.00,31.11
11587190,1909,1,203979,237780,1.26,-0.22,9.90,-0.03,-0.01,-0.00,31.11
11627189,1907,1,204069,237817,1.24,-0.22,9.93,-0.03,-0.01,-0.00,31.11
11667191,1915,1,204018,237739,1.26,-0.21,9.92,-0.03,-0.01,-0.00,31.11
11707188,1935,1,204000,237815,1.25,-0.21,9.91,-0.03,-0.01,-0.00,31.11
11747191,1913,1,203983,237961,1.25,-0.24,9.93,-0.03,-0.01,-0.00,31.11
11787189,1941,1,204078,238104,1.28,-0.23,9.91,-0.03,-0.01,-0.00,31.11
11827190,1914,1,204029,238017,1.25,-0.21,9.92,-0.03,-0.01,-0.00,31.11
11867189,1919,1,204079,238284,1.27,-0.22,9.90,-0.03,-0.01,-0.00,31.11
11907190,1920,1,204249,238798,1.26,-0.23,9.92,-0.03,-0.01,-0.00,31.11
11947188,1945,1,204447,239101,1.26,-0.23,9.92,-0.03,-0.01,-0.00,31.11
11987190,1942,1,204478,239107,1.25,-0.20,9.91,-0.03,-0.01,-0.01,31.11
12027194,1921,1,204325,238210,1.25,-0.20,9.93,-0.03,-0.01,-0.00,31.11
12067191,1936,1,203842,237051,1.25,-0.23,9.93,-0.03,-0.01,-0.00,31.11
12107193,1936,1,203503,236491,1.26,-0.23,9.92,-0.03,-0.01,-0.00,31.11
12147191,1929,1,203358,236229,1.24,-0.22,9.95,-0.03,-0.01,-0.00,31.11
12187874,1915,1,203245,236257,1.24,-0.22,9.90,-0.03,-0.01,-0.00,31.25
12228191,1936,1,203268,236533,1.25,-0.24,9.93,-0.03,-0.01,-0.00,31.25
12268189,1931,1,203368,236533,1.27,-0.22,9.92,-0.03,-0.01,-0.00,31.25
12308191,1911,1,203393,236877,1.25,-0.22,9.92,-0.03,-0.01,-0.00,31.25
12348189,1917,1,203553,237355,1.25,-0.23,9.95,-0.04,-0.01,-0.00,31.25
12388191,1879,1,203710,237679,1.27,-0.23,9.91,-0.03,-0.01,-0.00,31.25
12428189,1951,1,203786,237835,1.25,-0.23,9.95,-0.03,-0.01,-0.01,31.25
12468191,1927,1,203897,238236,1.23,-0.23,9.92,-0.03,-0.01,-0.00,31.25
12508189,1952,1,204097,238825,1.26,-0.23,9.92,-0.03,-0.01,-0.00,31.25
12548190,1941,1,204338,239532,1.27,-0.22,9.92,-0.03,-0.01,-0.00,31.25
12588189,1929,1,204523,239968,1.25,-0.23,9.94,-0.03,-0.01,-0.00,31.25
12628191,1920,1,204644,240211,1.24,-0.21,9.95,-0.03,-0.01,-0.00,31.25
12668189,1937,1,204546,238845,1.26,-0.23,9.94,-0.03,-0.01,-0.00,31.25
12708191,1923,1,203847,237199,1.27,-0.24,9.93,-0.03,-0.01,-0.00,31.25
12746193,2003,1,203437,236929,1.25,-0.22,9.92,-0.03,-0.01,-0.00,31.25
12786193,1980,1,203456,236957,1.25,-0.23,9.93,-0.03,-0.01,-0.01,31.25
12826194,2015,1,203513,237031,1.25,-0.22,9.90,-0.03,-0.01,-0.00,31.25
12866194,1978,1,203642,237436,1.26,-0.24,9.92,-0.03,-0.01,-0.00,31.25
12906194,1965,1,203667,237638,1.26,-0.22,9.95,-0.03,-0.01,-0.00,31.25
12946194,1979,1,203749,237658,1.27,-0.23,9.94,-0.03,-0.01,-0.00,31.25
12986193,1997,1,203822,237864,1.26,-0.23,9.91,-0.03,-0.01,-0.00,31.25
13026201,1966,1,203830,237942,1.25,-0.22,9.96,-0.03,-0.01,-0.00,31.25
13066193,1955,1,203879,238058,1.25,-0.23,9.90,-0.03,-0.01,-0.00,31.25
13106194,1970,1,203925,238188,1.26,-0.24,9.90,-0.03,-0.01,-0.00,31.25
13146194,1980,1,204093,238417,1.25,-0.23,9.94,-0.03,-0.01,-0.00,31.25
13186194,1986,1,204161,238713,1.24,-0.23,9.91,-0.03,-0.01,-0.00,31.25
13226880,1903,1,204192,238874,1.25,-0.23,9.90,-0.03,-0.01,-0.00,31.15
13267190,1891,1,204098,237992,1.27,-0.22,9.93,-0.03,-0.01,-0.00,31.15
13307189,1901,1,203589,236600,1.26,-0.20,9.91,-0.03,-0.01,-0.00,31.15
13347190,1911,1,203174,236104,1.26,-0.23,9.91,-0.03,-0.01,-0.00,31.15
13387188,1904,1,203026,235976,1.26,-0.22,9.92,-0.03,-0.01,-0.00,31.15
13427190,1901,1,202977,236026,1.27,-0.20,9.92,-0.03,-0.01,-0.00,31.15
13467189,1908,1,203135,236223,1.24,-0.23,9.90,-0.03,-0.01,-0.00,31.15
13507191,1901,1,203169,236403,1.24,-0.23,9.94,-0.03,-0.01,-0.00,31.15
13547188,1899,1,203282,236661,1.27,-0.22,9.94,-0.03,-0.01,-0.00,31.15
13587191,1936,1,203338,236751,1.24,-0.22,9.91,-0.03,-0.01,-0.00,31.15
13627189,1932,1,203428,236941,1.25,-0.20,9.91,-0.03,-0.01,-0.00,31.15
13667190,1921,1,203498,237348,1.27,-0.22,9.92,-0.03,-0.01,-0.00,31.15
13707189,1917,1,203637,237730,1.26,-0.22,9.94,-0.03,-0.01,-0.00,31.15
13747191,1886,1,203665,237928,1.25,-0.22,9.94,-0.03,-0.01,-0.00,31.15
13787188,1869,1,203695,238188,1.25,-0.23,9.93,-0.03,-0.01,-0.00,31.15
13827191,1920,1,203838,238508,1.25,-0.24,9.93,-0.03,-0.01,-0.00,31.15
13867189,1887,1,203832,238092,1.27,-0.24,9.93,-0.03,-0.01,-0.00,31.15
13907191,1907,1,203406,236495,1.25,-0.24,9.92,-0.03,-0.01,-0.00,31.15
13947189,1909,1,202976,235695,1.26,-0.21,9.93,-0.03,-0.01,-0.00,31.15
13987191,1904,1,202743,235266,1.27,-0.22,9.93,-0.03,-0.01,-0.00,31.15
14027194,1954,1,202724,235164,1.26,-0.21,9.94,-0.03,-0.01,-0.00,31.15
14067191,1919,1,202775,235428,1.27,-0.21,9.92,-0.03,-0.01,-0.00,31.15
14107189,1903,1,202916,235784,1.25,-0.22,9.91,-0.03,-0.01,-0.00,31.15
14147191,1919,1,202880,235809,1.24,-0.23,9.93,-0.03,-0.01,-0.00,31.15
14187189,1935,1,202896,235984,1.26,-0.21,9.91,-0.03,-0.01,-0.00,31.15
14227877,1933,1,202975,236263,1.26,-0.24,9.94,-0.03,-0.01,-0.00,31.27
14266189,1967,1,203074,236446,1.25,-0.21,9.93,-0.03,-0.01,-0.00,31.27
14306191,1925,1,203152,236585,1.25,-0.21,9.92,-0.03,-0.01,-0.00,31.27
14346189,1910,1,203224,236822,1.28,-0.22,9.93,-0.03,-0.01,-0.00,31.27
14386190,1984,1,203335,237100,1.24,-0.23,9.91,-0.03,-0.01,-0.00,31.27
14426188,1963,1,203494,237323,1.25,-0.21,9.93,-0.03,-0.01,-0.00,31.27
14466190,1930,1,203569,237491,1.24,-0.23,9.92,-0.03,-0.01,-0.00,31.27
14506189,1952,1,203486,236464,1.25,-0.23,9.92,-0.03,-0.01,-0.00,31.27
14546191,1912,1,202887,235228,1.26,-0.22,9.94,-0.03,-0.01,-0.00,31.27
14586189,1977,1,202574,234638,1.27,-0.21,9.91,-0.03,-0.01,-0.00,31.27
14626191,1968,1,202437,234451,1.25,-0.21,9.91,-0.03,-0.01,-0.00,31.27
14666189,1947,1,202427,234487,1.25,-0.22,9.91,-0.03,-0.01,-0.00,31.27
14706190,1919,1,202489,234737,1.25,-0.25,9.92,-0.03,-0.01,-0.00,31.27
14746189,1933,1,202645,234951,1.24,-0.22,9.92,-0.04,-0.01,-0.00,31.27
14786191,1936,1,202676,235119,1.26,-0.25,9.90,-0.03,-0.01,-0.00,31.27
14826188,1993,1,202768,235358,1.27,-0.24,9.96,-0.03,-0.01,-0.00,31.27
14866191,1939,1,202966,235769,1.28,-0.23,9.92,-0.03,-0.01,-0.00,31.27
14906189,1927,1,203104,236164,1.25,-0.24,9.93,-0.03,-0.01,-0.00,31.27
14946191,1915,1,203197,236578,1.27,-0.23,9.94,-0.03,-0.01,-0.00,31.27
14986189,1917,1,203363,237018,1.26,-0.24,9.93,-0.03,-0.01,-0.00,31.27
15026201,1961,1,203474,237297,1.27,-0.23,9.91,-0.03,-0.01,-0.00,31.27
15066189,1929,1,203555,237651,1.26,-0.23,9.93,-0.03,-0.01,-0.00,31.27
15106190,1920,1,203714,237978,1.25,-0.22,9.92,-0.03,-0.01,-0.01,31.27
15146189,1922,1,203623,236997,1.25,-0.21,9.92,-0.03,-0.01,-0.00,31.27
15186190,1917,1,202968,235447,1.25,-0.23,9.93,-0.03,-0.01,-0.00,31.27
15226189,1894,1,202548,234778,1.27,-0.22,9.91,-0.03,-0.01,-0.00,31.27
15266877,1891,1,202423,234705,1.27,-0.23,9.93,-0.03,-0.01,-0.00,31.05
15307189,1902,1,202515,234723,1.25,-0.24,9.93,-0.03,-0.01,-0.00,31.05
15347191,1850,1,202645,235102,1.26,-0.23,9.94,-0.03,-0.01,-0.00,31.05
15387198,1926,1,202698,235392,1.25,-0.21,9.93,-0.03,-0.01,-0.00,31.05
15427191,1899,1,202699,235487,1.26,-0.23,9.94,-0.03,-0.01,-0.00,31.05
15467189,1886,1,202765,235631,1.24,-0.24,9.90,-0.03,-0.01,-0.00,31.05
15507190,1917,1,202912,235946,1.25,-0.21,9.92,-0.03,-0.01,-0.00,31.05
15547189,1913,1,202997,235934,1.26,-0.22,9.94,-0.03,-0.01,-0.00,31.05
15587210,1899,1,202967,236057,1.26,-0.23,9.90,-0.03,-0.01,-0.00,31.05
15627189,1936,1,202910,236133,1.27,-0.21,9.90,-0.03,-0.01,-0.00,31.05
15667190,1873,1,203087,236408,1.26,-0.22,9.92,-0.03,-0.01,-0.00,31.05
15705197,1984,1,203135,236560,1.25,-0.23,9.92,-0.03,-0.01,-0.00,31.05
15745194,2003,1,203112,236100,1.25,-0.23,9.93,-0.03,-0.01,-0.00,31.05
15785194,1983,1,202772,234667,1.28,-0.22,9.93,-0.03,-0.01,-0.00,31.05
15825194,1936,1,202184,233495,1.26,-0.22,9.94,-0.03,-0.01,-0.00,31.05
15865194,2011,1,202002,232975,1.24,-0.24,9.95,-0.03,-0.01,-0.00,31.05
15905194,1966,1,201895,232768,1.25,-0.22,9.92,-0.03,-0.01,-0.00,31.05
15945194,1968,1,201868,232969,1.25,-0.24,9.92,-0.03,-0.01,-0.00,31.05
15985194,1974,1,202188,233419,1.23,-0.24,9.94,-0.03,-0.01,-0.00,31.05
16025212,1961,1,202291,233618,1.25,-0.22,9.90,-0.03,-0.01,-0.00,31.05
16065194,1970,1,202227,233576,1.25,-0.23,9.94,-0.03,-0.01,-0.00,31.05
16105194,1984,1,202282,233862,1.26,-0.23,9.92,-0.03,-0.01,-0.00,31.05
16145194,1974,1,202274,233987,1.26,-0.23,9.90,-0.03,-0.01,-0.01,31.05
16185194,1967,1,202464,234255,1.24,-0.22,9.93,-0.03,-0.01,-0.00,31.05
16225194,1959,1,202419,234387,1.24,-0.21,9.94,-0.03,-0.01,-0.00,31.05
16265194,1904,1,202381,234466,1.27,-0.22,9.94,-0.03,-0.01,-0.00,31.05
16305880,1878,1,202596,234770,1.25,-0.22,9.89,-0.04,-0.01,-0.00,31.05
16346189,1920,1,202564,235011,1.26,-0.23,9.92,-0.03,-0.01,-0.00,31.05
16386191,1931,1,202475,233937,1.26,-0.23,9.92,-0.03,-0.01,-0.00,31.05
16426189,1899,1,202027,232528,1.24,-0.21,9.93,-0.03,-0.01,-0.01,31.05
16466191,1895,1,201520,231466,1.27,-0.22,9.94,-0.03,-0.01,-0.00,31.05
16506189,1921,1,201500,231254,1.26,-0.24,9.92,-0.03,-0.01,-0.00,31.05
16546190,1887,1,201432,231263,1.26,-0.22,9.95,-0.03,-0.01,-0.00,31.05
16586189,1903,1,201549,231755,1.26,-0.21,9.95,-0.03,-0.01,-0.00,31.05
16625194,1952,1,201588,231987,1.27,-0.22,9.92,-0.03,-0.01,-0.01,31.05
16665194,1939,1,201645,232250,1.25,-0.22,9.92,-0.03,-0.01,-0.00,31.05
16705194,1933,1,201785,232587,1.24,-0.21,9.92,-0.03,-0.01,-0.00,31.05
16745194,1935,1,201724,232575,1.26,-0.23,9.94,-0.03,-0.01,-0.00,31.05
16785194,1905,1,201904,232841,1.24,-0.21,9.90,-0.03,-0.01,-0.00,31.05
16825211,1933,1,201996,233120,1.25,-0.22,9.90,-0.03,-0.01,-0.00,31.05
16865194,1951,1,202110,233364,1.26,-0.22,9.92,-0.03,-0.01,-0.00,31.05
16905189,1933,1,202099,233626,1.24,-0.22,9.93,-0.03,-0.01,-0.00,31.05
16945194,1930,1,202212,234084,1.24,-0.24,9.93,-0.03,-0.01,-0.00,31.05
16985189,1937,1,202411,234379,1.25,-0.23,9.88,-0.03,-0.01,-0.00,31.05
17025250,1953,1,202194,233176,1.24,-0.23,9.90,-0.03,-0.01,-0.00,31.05
17065188,1945,1,201685,231529,1.24,-0.24,9.96,-0.03,-0.01,-0.00,31.05
17105194,1919,1,201135,230336,1.25,-0.25,9.93,-0.03,-0.01,-0.00,31.05
17145189,1939,1,200943,229966,1.25,-0.21,9.93,-0.03,-0.01,-0.00,31.05
17185194,1927,1,201011,230188,1.26,-0.22,9.94,-0.03,-0.01,-0.01,31.05
17225214,1872,1,201120,230613,1.25,-0.22,9.95,-0.03,-0.01,-0.00,31.05
17265194,1927,1,201173,230904,1.25,-0.22,9.92,-0.03,-0.01,-0.00,31.05
17305875,1879,1,201427,231251,1.24,-0.23,9.93,-0.03,-0.01,-0.00,31.13
17346190,1894,1,201366,231404,1.26,-0.23,9.93,-0.03,-0.01,-0.00,31.13
17386189,1872,1,201546,231683,1.25,-0.22,9.93,-0.03,-0.01,-0.00,31.13
17426190,1883,1,201687,231935,1.24,-0.22,9.94,-0.03,-0.01,-0.00,31.13
17466189,1907,1,201738,232246,1.25,-0.20,9.92,-0.03,-0.01,-0.00,31.13
17506191,1907,1,201767,232269,1.26,-0.21,9.92,-0.03,-0.01,-0.00,31.13
17546189,1904,1,201861,232574,1.26,-0.22,9.94,-0.03,-0.01,-0.00,31.13
17586191,1900,1,202079,232899,1.24,-0.23,9.95,-0.03,-0.01,-0.00,31.13
17626189,1904,1,202251,233275,1.24,-0.23,9.90,-0.03,-0.01,-0.00,31.13
17665191,1930,1,202251,232824,1.22,-0.22,9.94,-0.03,-0.01,-0.00,31.13
17705189,1919,1,201720,231280,1.24,-0.25,9.94,-0.03,-0.01,-0.00,31.13
17745194,1894,1,201341,230148,1.24,-0.25,9.95,-0.03,-0.01,-0.00,31.13
17785190,1907,1,201073,229747,1.25,-0.22,9.94,-0.03,-0.01,-0.00,31.13
17825191,1905,1,201106,229756,1.26,-0.23,9.91,-0.03,-0.01,-0.00,31.13
17865194,1893,1,201059,229964,1.24,-0.24,9.92,-0.03,-0.01,-0.00,31.13
17905190,1905,1,201263,230348,1.24,-0.22,9.93,-0.03,-0.01,-0.00,31.13
17945188,1907,1,201346,230652,1.25,-0.22,9.91,-0.03,-0.01,-0.01,31.13
17985191,1916,1,201360,230924,1.23,-0.23,9.94,-0.03,-0.01,-0.00,31.13
18025215,1916,1,201466,231109,1.24,-0.23,9.95,-0.03,-0.01,-0.00,31.13
18065190,1904,1,201546,231379,1.27,-0.22,9.93,-0.03,-0.01,-0.00,31.13
18105188,1908,1,201621,231612,1.25,-0.22,9.93,-0.03,-0.01,-0.00,31.13
18145190,1902,1,201647,231696,1.28,-0.22,9.91,-0.03,-0.01,-0.00,31.13
18185188,1962,1,201721,231863,1.24,-0.23,9.94,-0.03,-0.01,-0.00,31.13
18225190,1916,1,201687,232060,1.26,-0.24,9.95,-0.03,-0.01,-0.00,31.13
18265188,1911,1,201792,232276,1.24,-0.23,9.93,-0.03,-0.01,-0.00,31.13
18305190,1924,1,201770,231624,1.24,-0.21,9.91,-0.03,-0.01,-0.00,31.13
18345875,1877,1,201187,229954,1.24,-0.21,9.94,-0.03,-0.01,-0.00,31.01
18386190,1904,1,200813,229045,1.27,-0.25,9.90,-0.03,-0.01,-0.00,31.01
18426189,1849,1,200707,228792,1.25,-0.22,9.93,-0.03,-0.01,-0.00,31.01
18466190,1904,1,200712,229314,1.24,-0.22,9.93,-0.03,-0.01,-0.01,31.01
18506189,1915,1,200932,229921,1.26,-0.22,9.90,-0.03,-0.01,-0.00,31.01
18546190,1903,1,201175,230355,1.26,-0.22,9.94,-0.03,-0.01,-0.00,31.01
18586189,1875,1,201188,230642,1.26,-0.22,9.93,-0.03,-0.01,-0.00,31.01
18626191,1886,1,201218,230729,1.25,-0.23,9.94,-0.03,-0.01,-0.00,31.01
18665189,1905,1,201265,230826,1.25,-0.23,9.92,-0.03,-0.01,-0.00,31.01
18705190,1900,1,201363,231091,1.26,-0.23,9.94,-0.03,-0.01,-0.00,31.01
18745189,1922,1,201403,231220,1.26,-0.25,9.94,-0.03,-0.01,-0.00,31.01
18785191,1923,1,201507,231466,1.25,-0.23,9.90,-0.03,-0.01,-0.00,31.01
18825188,1920,1,201575,231726,1.24,-0.23,9.95,-0.03,-0.01,-0.00,31.01
18865190,1888,1,201733,231914,1.25,-0.21,9.92,-0.03,-0.01,-0.00,31.01
18905189,1931,1,201776,232022,1.24,-0.23,9.93,-0.03,-0.01,-0.00,31.01
18945191,1909,1,201718,231332,1.27,-0.21,9.92,-0.03,-0.01,-0.00,31.01
18985188,1942,1,201276,229971,1.25,-0.23,9.94,-0.04,-0.01,-0.00,31.01
19025214,1876,1,200960,229255,1.24,-0.21,9.92,-0.04,-0.01,-0.00,31.01
19065189,1875,1,200848,229080,1.24,-0.22,9.94,-0.04,-0.01,-0.00,31.01
19105191,1914,1,200842,229209,1.27,-0.24,9.91,-0.03,-0.01,-0.00,31.01
19145189,1929,1,200948,229653,1.24,-0.22,9.91,-0.03,-0.01,-0.00,31.01
19185191,1922,1,201187,230153,1.27,-0.23,9.93,-0.03,-0.01,-0.00,31.01
19225188,1935,1,201264,230309,1.24,-0.22,9.92,-0.03,-0.01,-0.00,31.01
19265191,1990,1,201291,230481,1.25,-0.24,9.94,-0.03,-0.01,-0.00,31.01
19305189,1878,1,201355,230566,1.25,-0.23,9.97,-0.03,-0.01,-0.00,31.01
19345191,1918,1,201341,230758,1.26,-0.22,9.93,-0.03,-0.01,-0.01,31.01
19385875,1856,1,201469,231065,1.24,-0.21,9.93,-0.03,-0.01,-0.00,30.79
19424193,1943,1,201561,231285,1.25,-0.23,9.94,-0.03,-0.01,-0.00,30.79
19464189,1910,1,201643,231609,1.26,-0.22,9.92,-0.03,-0.01,-0.01,30.79
19504194,1936,1,201890,232067,1.24,-0.23,9.93,-0.03,-0.01,-0.00,30.79
19544194,1942,1,201994,232402,1.25,-0.23,9.92,-0.03,-0.01,-0.00,30.79
19584193,1937,1,201971,232543,1.25,-0.21,9.93,-0.03,-0.01,-0.00,30.79
19624189,1937,1,201787,231406,1.25,-0.22,9.91,-0.04,-0.01,-0.00,30.79
19664194,1856,1,201289,230202,1.26,-0.24,9.94,-0.03,-0.01,-0.00,30.79
19705189,1945,1,201142,229666,1.25,-0.21,9.92,-0.03,-0.01,-0.00,30.79
19745191,1879,1,201045,229643,1.25,-0.23,9.92,-0.03,-0.01,-0.00,30.79
19785189,1916,1,201072,230011,1.25,-0.22,9.91,-0.03,-0.01,-0.00,30.79
19825191,1905,1,201205,230379,1.25,-0.23,9.91,-0.03,-0.01,-0.00,30.79
19865189,1893,1,201325,230515,1.25,-0.24,9.94,-0.03,-0.01,-0.00,30.79
19905190,1901,1,201293,230567,1.23,-0.25,9.90,-0.03,-0.01,-0.00,30.79
19945189,1897,1,201242,230605,1.27,-0.24,9.91,-0.03,-0.01,-0.00,30.79
19985191,1893,1,201353,231059,1.24,-0.23,9.93,-0.04,-0.01,-0.00,30.79
20025215,1863,1,201546,231313,1.26,-0.23,9.93,-0.03,-0.01,-0.00,30.79
20065191,1919,1,201655,231526,1.24,-0.22,9.96,-0.03,-0.01,-0.00,30.79
20105189,1905,1,201717,231758,1.25,-0.22,9.91,-0.03,-0.01,-0.00,30.79
20145191,1905,1,201802,232173,1.25,-0.23,9.92,-0.03,-0.01,-0.00,30.79
20185189,1915,1,201995,232654,1.25,-0.22,9.90,-0.03,-0.01,-0.00,30.79
20225190,1890,1,202082,232732,1.25,-0.22,9.92,-0.03,-0.01,-0.00,30.79
20265189,1906,1,202062,231887,1.27,-0.22,9.93,-0.03,-0.01,-0.00,30.79
20305252,1899,1,201533,230551,1.26,-0.22,9.94,-0.03,-0.01,-0.01,30.79
20345189,1919,1,201256,229909,1.24,-0.22,9.92,-0.03,-0.01,-0.01,30.79
20385191,1893,1,201288,229783,1.24,-0.22,9.94,-0.03,-0.01,-0.00,30.79
20425875,1896,1,201305,229984,1.24,-0.23,9.94,-0.03,-0.01,-0.00,31.01
20464194,1904,1,201348,230411,1.28,-0.23,9.93,-0.03,-0.01,-0.00,31.01
20504214,1931,1,201440,230840,1.24,-0.21,9.94,-0.03,-0.01,-0.00,31.01
20544191,1918,1,201565,231098,1.24,-0.23,9.92,-0.03,-0.01,-0.00,31.01
20584189,1937,1,201735,231282,1.27,-0.22,9.94,-0.03,-0.01,-0.00,31.01
20624191,1920,1,201782,231574,1.27,-0.21,9.93,-0.03,-0.01,-0.00,31.01
20664189,1917,1,201832,231915,1.23,-0.20,9.93,-0.03,-0.01,-0.00,31.01
20704191,1931,1,201937,232027,1.25,-0.20,9.90,-0.03,-0.01,-0.00,31.01
20745189,1894,1,202005,232162,1.26,-0.25,9.92,-0.03,-0.01,-0.00,31.01
20785191,1857,1,202063,232316,1.25,-0.23,9.94,-0.03,-0.01,-0.00,31.01
20825189,1918,1,202077,232641,1.24,-0.22,9.92,-0.03,-0.01,-0.00,31.01
20865191,1898,1,202115,232390,1.21,-0.22,9.93,-0.03,-0.01,-0.00,31.01
20905189,1899,1,201848,231242,1.24,-0.22,9.93,-0.03,-0.01,-0.00,31.01
20945191,1918,1,201474,230313,1.26,-0.24,9.93,-0.03,-0.01,-0.00,31.01
20985189,1906,1,201251,230334,1.26,-0.23,9.93,-0.03,-0.01,-0.01,31.01
21025215,1927,1,201406,230730,1.23,-0.21,9.94,-0.03,-0.01,-0.00,31.01
21065189,1899,1,201561,231150,1.24,-0.21,9.92,-0.03,-0.01,-0.00,31.01
21105191,1937,1,201769,231471,1.27,-0.25,9.93,-0.03,-0.01,-0.00,31.01
21145189,1921,1,201838,231670,1.25,-0.22,9.91,-0.03,-0.01,-0.00,31.01
21185190,1899,1,201806,231803,1.23,-0.21,9.90,-0.03,-0.01,-0.00,31.01
21225189,1904,1,201886,231943,1.25,-0.22,9.93,-0.03,-0.01,-0.00,31.01
21265191,1903,1,201953,231946,1.25,-0.19,9.95,-0.03,-0.01,-0.00,31.01
21305189,1917,1,201854,232126,1.26,-0.22,9.91,-0.03,-0.01,-0.00,31.01
21345191,1914,1,202025,232431,1.26,-0.24,9.92,-0.03,-0.01,-0.00,31.01
21385189,1943,1,202117,232824,1.26,-0.22,9.91,-0.03,-0.01,-0.00,31.01
21425191,1905,1,202300,233285,1.25,-0.22,9.92,-0.03,-0.01,-0.00,31.01
21463880,1836,1,202415,233355,1.25,-0.21,9.93,-0.03,-0.01,-0.00,31.01
21504190,1968,1,202278,232467,1.25,-0.23,9.92,-0.03,-0.01,-0.00,31.01
21544189,1915,1,201784,231097,1.25,-0.24,9.93,-0.03,-0.01,-0.01,31.01
21584191,1907,1,201518,230215,1.25,-0.23,9.92,-0.03,-0.01,-0.00,31.01
21624188,1891,1,201413,229988,1.25,-0.23,9.91,-0.03,-0.01,-0.00,31.01
21664191,1922,1,201422,230228,1.24,-0.23,9.93,-0.03,-0.01,-0.00,31.01
21704188,1891,1,201512,230690,1.24,-0.21,9.89,-0.03,-0.01,-0.00,31.01
21744191,1933,1,201687,231041,1.25,-0.23,9.91,-0.03,-0.01,-0.01,31.01
21784189,1902,1,201873,231279,1.25,-0.20,9.95,-0.03,-0.01,-0.00,31.01
21824190,1908,1,201857,231604,1.25,-0.20,9.92,-0.03,-0.01,-0.00,31.01
21864189,1904,1,201983,232131,1.25,-0.21,9.92,-0.03,-0.01,-0.00,31.01
21904191,1907,1,202244,232559,1.26,-0.22,9.95,-0.03,-0.01,-0.00,31.01
21944207,1930,1,202349,232882,1.27,-0.22,9.93,-0.03,-0.01,-0.01,31.01
21984191,1906,1,202428,233285,1.24,-0.22,9.90,-0.03,-0.01,-0.00,31.01
22024201,1938,1,202500,233627,1.26,-0.23,9.92,-0.03,-0.01,-0.00,31.01
22064191,1922,1,202624,233975,1.24,-0.22,9.91,-0.03,-0.01,-0.00,31.01
22144200,1842,1,202695,233228,1.25,-0.22,9.93,-0.03,-0.01,-0.00,31.01
22184189,1910,1,202123,231838,1.29,-0.23,9.93,-0.03,-0.01,-0.00,31.01
22224191,1891,1,201845,230984,1.26,-0.23,9.91,-0.03,-0.01,-0.00,31.01
22264189,1881,1,201722,231017,1.26,-0.21,9.93,-0.03,-0.01,-0.00,31.01
22304190,1881,1,201779,231265,1.27,-0.23,9.95,-0.03,-0.01,-0.00,31.01
22344189,1864,1,201884,231563,1.26,-0.23,9.94,-0.03,-0.01,-0.00,31.01
22384190,1934,1,201973,231872,1.23,-0.22,9.91,-0.03,-0.01,-0.00,31.01
22424189,1911,1,201971,232312,1.25,-0.22,9.93,-0.03,-0.01,-0.00,31.01
22464191,1904,1,202152,232619,1.26,-0.23,9.92,-0.03,-0.01,-0.00,31.01
22504875,1886,1,202279,232788,1.25,-0.21,9.93,-0.03,-0.01,-0.00,30.79
22543194,1952,1,202319,233080,1.25,-0.22,9.92,-0.03,-0.01,-0.00,30.79
22583189,1970,1,202418,233528,1.25,-0.23,9.90,-0.03,-0.01,-0.00,30.79
22623194,1942,1,202614,233860,1.25,-0.21,9.95,-0.03,-0.01,-0.00,30.79
22663194,1955,1,202706,234310,1.25,-0.22,9.92,-0.03,-0.01,-0.00,30.79
22703194,1934,1,202816,234632,1.25,-0.21,9.91,-0.03,-0.01,-0.00,30.79
22743194,1911,1,202827,234404,1.26,-0.21,9.90,-0.03,-0.01,-0.00,30.79
22783194,1947,1,202588,233079,1.25,-0.23,9.91,-0.03,-0.01,-0.00,30.79
22823189,1950,1,202140,232096,1.25,-0.21,9.91,-0.03,-0.01,-0.00,30.79
22863194,1933,1,202002,231880,1.24,-0.24,9.93,-0.03,-0.01,-0.00,30.79
22903194,1899,1,201922,231946,1.24,-0.22,9.91,-0.03,-0.01,-0.00,30.79
22943194,1947,1,202051,232287,1.26,-0.22,9.94,-0.03,-0.01,-0.01,30.79
22983190,1930,1,202208,232648,1.24,-0.24,9.90,-0.03,-0.01,-0.00,30.79
23023193,1947,1,202348,232984,1.25,-0.24,9.93,-0.03,-0.01,-0.00,30.79
23063194,1928,1,202363,233110,1.25,-0.21,9.93,-0.03,-0.01,-0.00,30.79
23103194,1925,1,202470,233145,1.25,-0.22,9.94,-0.03,-0.01,-0.00,30.79
23143189,1934,1,202453,233385,1.27,-0.23,9.92,-0.03,-0.01,-0.00,30.79
23183190,1947,1,202588,233533,1.25,-0.23,9.94,-0.03,-0.01,-0.00,30.79
23223190,1923,1,202585,233787,1.24,-0.21,9.91,-0.03,-0.01,-0.00,30.79
23263194,1941,1,202738,233931,1.27,-0.22,9.93,-0.03,-0.01,-0.00,30.79
23303190,2000,1,202807,234071,1.26,-0.23,9.94,-0.03,-0.01,-0.00,30.79
23343194,1920,1,202744,233620,1.25,-0.23,9.92,-0.03,-0.01,-0.00,30.79
23383189,1904,1,202458,232137,1.26,-0.23,9.94,-0.03,-0.01,-0.00,30.79
23423194,1926,1,201955,230811,1.24,-0.23,9.95,-0.03,-0.01,-0.00,30.79
23463190,1872,1,201660,230410,1.24,-0.23,9.92,-0.03,-0.01,-0.00,30.79
23503195,1906,1,201708,230693,1.26,-0.22,9.93,-0.03,-0.01,-0.00,30.79
23543876,1872,1,201806,231072,1.25,-0.23,9.90,-0.03,-0.01,-0.00,30.85
23584199,1916,1,201962,231556,1.25,-0.21,9.94,-0.03,-0.01,-0.00,30.85
23624189,1888,1,201999,231547,1.24,-0.23,9.93,-0.03,-0.01,-0.00,30.85
23664191,1878,1,202016,231716,1.26,-0.22,9.92,-0.03,-0.01,-0.00,30.85
23704189,1872,1,202061,232072,1.25,-0.22,9.94,-0.03,-0.01,-0.00,30.85
23744191,1886,1,202172,232391,1.24,-0.21,9.90,-0.04,-0.01,-0.00,30.85
23784227,1870,1,202256,232535,1.28,-0.22,9.94,-0.03,-0.01,-0.00,30.85
23824191,1903,1,202180,232910,1.26,-0.23,9.92,-0.03,-0.01,-0.00,30.85
23864189,1887,1,202299,233324,1.23,-0.23,9.94,-0.03,-0.01,-0.00,30.85
23904191,1936,1,202331,233688,1.23,-0.24,9.92,-0.03,-0.01,-0.00,30.85
23944189,1931,1,202520,233723,1.26,-0.22,9.91,-0.03,-0.01,-0.00,30.85
23984210,1936,1,202316,232577,1.26,-0.22,9.90,-0.03,-0.01,-0.00,30.85
24024201,1866,1,201847,231227,1.26,-0.23,9.92,-0.03,-0.01,-0.00,30.85
24064191,1927,1,201588,230648,1.26,-0.21,9.92,-0.03,-0.01,-0.00,30.85
24104189,1905,1,201566,230698,1.25,-0.22,9.94,-0.03,-0.01,-0.00,30.85
24144191,1889,1,201577,231065,1.27,-0.22,9.92,-0.03,-0.01,-0.00,30.85
24184189,1919,1,201738,231561,1.27,-0.23,9.93,-0.03,-0.01,-0.00,30.85
24224190,1899,1,201840,231976,1.26,-0.21,9.92,-0.03,-0.01,-0.00,30.85
24264189,1872,1,202000,232254,1.25,-0.22,9.93,-0.03,-0.01,-0.01,30.85
24304191,1951,1,202040,232617,1.26,-0.22,9.94,-0.03,-0.01,-0.00,30.85
24344189,1872,1,202281,233075,1.26,-0.21,9.90,-0.03,-0.01,-0.00,30.85
24382194,2019,1,202400,233437,1.28,-0.22,9.93,-0.04,-0.01,-0.00,30.85
24422194,2041,1,202538,234080,1.27,-0.24,9.90,-0.03,-0.01,-0.00,30.85
24462194,2013,1,202637,234543,1.26,-0.24,9.89,-0.04,-0.01,-0.00,30.85
24502194,1959,1,202781,234535,1.26,-0.22,9.91,-0.04,-0.01,-0.00,30.85
24542193,1959,1,202719,234782,1.27,-0.22,9.93,-0.03,-0.01,-0.00,30.85
24582880,1893,1,202837,234198,1.28,-0.23,9.91,-0.03,-0.01,-0.01,30.73
24623191,1905,1,202571,233363,1.26,-0.22,9.93,-0.03,-0.01,-0.00,30.73
24663189,1902,1,202518,232917,1.25,-0.22,9.94,-0.03,-0.01,-0.00,30.73
24703191,1872,1,202331,232725,1.24,-0.20,9.92,-0.03,-0.01,-0.00,30.73
24743188,1891,1,202328,232738,1.26,-0.24,9.93,-0.03,-0.01,-0.00,30.73
24783191,1919,1,202444,233171,1.25,-0.23,9.91,-0.03,-0.01,-0.00,30.73
24823189,1919,1,202436,233346,1.25,-0.24,9.99,-0.03,-0.00,-0.00,30.73
24863191,1873,1,202430,233484,1.24,-0.25,9.98,-0.03,-0.01,-0.00,30.73
24903189,1862,1,202650,234337,1.27,-0.21,9.90,-0.04,-0.02,-0.00,30.73
24943191,1904,1,202870,234964,1.28,-0.24,9.94,-0.03,-0.01,-0.00,30.73
24983189,1920,1,203076,235154,1.25,-0.23,9.93,-0.03,-0.01,-0.00,30.73
25023190,1927,1,203104,235218,1.26,-0.22,9.92,-0.03,-0.01,-0.01,30.73
25063189,1914,1,203204,235573,1.25,-0.21,9.95,-0.04,-0.01,-0.00,30.73
25103191,1936,1,203202,235520,1.26,-0.21,9.86,-0.04,-0.01,-0.00,30.73
25143189,1894,1,203112,235417,1.28,-0.25,9.91,-0.03,-0.01,-0.00,30.73
25183191,1899,1,203130,235622,1.24,-0.23,9.91,-0.04,-0.02,-0.00,30.73
25223189,1872,1,203201,235334,1.25,-0.23,9.93,-0.04,-0.02,-0.00,30.73
25263191,1850,1,203035,234888,1.26,-0.24,9.92,-0.03,-0.01,-0.01,30.73
25303189,1920,1,202881,234603,1.23,-0.24,9.93,-0.03,-0.01,-0.00,30.73
25343191,1887,1,202826,234411,1.27,-0.21,9.96,-0.03,-0.01,-0.00,30.73
25383188,1907,1,202638,234478,1.26,-0.21,9.92,-0.03,-0.01,-0.00,30.73
25423204,1890,1,202777,234464,1.27,-0.24,9.91,-0.03,-0.01,-0.00,30.73
25463188,1936,1,202730,234755,1.27,-0.23,9.91,-0.03,-0.01,-0.00,30.73
25503192,1879,1,202948,235417,1.24,-0.22,9.92,-0.04,-0.01,-0.00,30.73
25543189,1905,1,203203,235791,1.26,-0.24,9.93,-0.03,-0.01,-0.00,30.73
25583877,1833,1,203241,235765,1.26,-0.22,9.93,-0.03,-0.01,-0.00,30.67
25622213,1920,1,203174,235721,1.26,-0.21,9.94,-0.03,-0.01,-0.00,30.67
25662194,1888,1,203106,235679,1.25,-0.22,9.94,-0.03,-0.01,-0.00,30.67
25702190,1906,1,203146,235817,1.25,-0.22,9.88,-0.03,-0.01,-0.00,30.67
25742194,1946,1,203171,236159,1.27,-0.23,9.90,-0.03,-0.01,-0.00,30.67
25782189,1869,1,203395,236115,1.26,-0.22,9.90,-0.03,-0.01,-0.00,30.67
25822194,1882,1,203118,234944,1.25,-0.22,9.93,-0.03,-0.01,-0.00,30.67
25862194,1893,1,202700,233985,1.24,-0.23,9.91,-0.03,-0.01,-0.00,30.67
25902195,1896,1,202429,233499,1.26,-0.23,9.92,-0.03,-0.01,-0.00,30.67
25942193,1902,1,202484,233219,1.25,-0.23,9.93,-0.03,-0.01,-0.00,30.67
25982194,1867,1,202426,233493,1.25,-0.22,9.94,-0.03,-0.01,-0.00,30.67
26022204,1920,1,202580,233642,1.26,-0.24,9.91,-0.03,-0.01,-0.00,30.67
26062194,1911,1,202543,233843,1.27,-0.23,9.90,-0.03,-0.01,-0.00,30.67
26102189,1871,1,202618,234053,1.24,-0.21,9.93,-0.03,-0.01,-0.00,30.67
26142194,1883,1,202716,234292,1.24,-0.21,9.92,-0.03,-0.01,-0.00,30.67
26182190,1899,1,202681,234474,1.26,-0.22,9.91,-0.03,-0.01,-0.00,30.67
26222194,1962,1,202806,234719,1.25,-0.24,9.92,-0.03,-0.01,-0.00,30.67
26262189,1895,1,202806,234900,1.27,-0.22,9.92,-0.03,-0.01,-0.00,30.67
26302194,1920,1,202912,234886,1.24,-0.22,9.93,-0.03,-0.01,-0.00,30.67
26342190,1911,1,202814,235081,1.26,-0.21,9.93,-0.03,-0.01,-0.00,30.67
26382194,1925,1,202868,235136,1.24,-0.23,9.93,-0.03,-0.01,-0.00,30.67
26422194,1922,1,202925,235203,1.26,-0.24,9.93,-0.03,-0.01,-0.00,30.67
26462194,1904,1,202874,234740,1.24,-0.24,9.92,-0.03,-0.01,-0.00,30.67
26502190,1898,1,202598,233810,1.25,-0.24,9.95,-0.03,-0.01,-0.00,30.67
26542195,1881,1,202311,233176,1.26,-0.24,9.93,-0.03,-0.01,-0.00,30.67
26582190,1909,1,202102,232828,1.24,-0.23,9.90,-0.03,-0.01,-0.00,30.67
26622878,1894,1,202091,232801,1.26,-0.24,9.94,-0.03,-0.01,-0.00,30.81
26663190,1846,1,202057,233039,1.25,-0.24,9.94,-0.03,-0.01,-0.00,30.81
26703191,1961,1,202116,233456,1.25,-0.21,9.93,-0.03,-0.01,-0.00,30.81
26743189,1934,1,202246,233387,1.24,-0.22,9.93,-0.03,-0.01,-0.00,30.81
26783191,1905,1,202139,233104,1.23,-0.23,9.93,-0.03,-0.01,-0.00,30.81
26823190,1930,1,202031,233170,1.25,-0.23,9.94,-0.03,-0.01,-0.00,30.81
26863191,1909,1,202138,233473,1.26,-0.23,9.93,-0.03,-0.01,-0.00,30.81
26903190,1929,1,202218,233966,1.23,-0.23,9.89,-0.03,-0.01,-0.01,30.81
26943192,1922,1,202450,234385,1.26,-0.21,9.92,-0.03,-0.01,-0.00,30.81
26981193,1987,1,202639,234779,1.24,-0.22,9.92,-0.03,-0.01,-0.00,30.81
27021194,2043,1,202782,235097,1.25,-0.23,9.91,-0.04,-0.01,-0.00,30.81
27061209,2025,1,202781,235106,1.26,-0.21,9.90,-0.03,-0.01,-0.00,30.81
27101194,2043,1,202704,235101,1.24,-0.21,9.90,-0.03,-0.01,-0.00,30.81
27141194,2031,1,202729,235208,1.27,-0.21,9.94,-0.03,-0.01,-0.00,30.81
27181194,2028,1,202742,234698,1.25,-0.24,9.94,-0.03,-0.01,-0.00,30.81
27221194,2003,1,202509,233599,1.25,-0.24,9.92,-0.03,-0.01,-0.00,30.81
27261217,2009,1,202163,232557,1.24,-0.21,9.93,-0.03,-0.01,-0.00,30.81
27301194,1999,1,201987,232109,1.25,-0.22,9.91,-0.03,-0.01,-0.00,30.81
27341194,1994,1,201917,232023,1.28,-0.22,9.94,-0.03,-0.01,-0.00,30.81
27381194,2022,1,201896,232358,1.25,-0.21,9.93,-0.03,-0.01,-0.00,30.81
27421193,1984,1,202037,232779,1.25,-0.21,9.93,-0.03,-0.01,-0.00,30.81
27461194,1951,1,202104,233038,1.27,-0.23,9.94,-0.03,-0.01,-0.01,30.81
27501194,1986,1,202144,233237,1.26,-0.24,9.94,-0.03,-0.01,-0.00,30.81
27541194,1936,1,202224,233595,1.26,-0.21,9.93,-0.03,-0.01,-0.00,30.81
27581194,1982,1,202369,233862,1.25,-0.21,9.91,-0.03,-0.01,-0.00,30.81
27621194,1957,1,202433,234158,1.27,-0.22,9.90,-0.03,-0.01,-0.00,30.81
27661880,1904,1,202520,234700,1.25,-0.23,9.90,-0.03,-0.01,-0.01,30.87
27702189,1920,1,202669,235004,1.26,-0.23,9.96,-0.03,-0.01,-0.00,30.87
27742191,1910,1,202763,235280,1.25,-0.24,9.92,-0.03,-0.01,-0.00,30.87
27782189,1884,1,202791,235505,1.26,-0.21,9.89,-0.03,-0.01,-0.00,30.87
27822191,1899,1,202841,235750,1.27,-0.23,9.92,-0.03,-0.01,-0.00,30.87
27862190,1901,1,202928,235809,1.24,-0.22,9.90,-0.03,-0.01,-0.00,30.87
27902191,1879,1,202856,235088,1.24,-0.23,9.91,-0.03,-0.01,-0.00,30.87
27942190,1920,1,202521,234212,1.24,-0.25,9.91,-0.03,-0.01,-0.00,30.87
27982191,1910,1,202219,233792,1.26,-0.22,9.90,-0.03,-0.01,-0.00,30.87
28022199,1874,1,202141,233658,1.25,-0.23,9.92,-0.03,-0.01,-0.00,30.87
28062191,1889,1,202115,233690,1.25,-0.22,9.94,-0.03,-0.01,-0.00,30.87
28102189,1952,1,202148,233883,1.25,-0.23,9.93,-0.03,-0.01,-0.00,30.87
28142191,1902,1,202253,234097,1.24,-0.23,9.91,-0.03,-0.01,-0.00,30.87
28182189,1899,1,202290,234242,1.26,-0.21,9.96,-0.03,-0.01,-0.00,30.87
28222191,1908,1,202370,234293,1.25,-0.25,9.92,-0.03,-0.01,-0.00,30.87
28262189,1920,1,202347,234461,1.24,-0.24,9.94,-0.03,-0.01,-0.01,30.87
28302192,1930,1,202423,234626,1.25,-0.21,9.91,-0.03,-0.01,-0.00,30.87
28342189,1942,1,202488,234834,1.24,-0.22,9.94,-0.03,-0.01,-0.00,30.87
28382192,1934,1,202514,235023,1.26,-0.21,9.92,-0.03,-0.01,-0.01,30.87
28422189,1938,1,202654,235107,1.27,-0.22,9.92,-0.03,-0.01,-0.00,30.87
28462191,1926,1,202711,235178,1.23,-0.23,9.90,-0.03,-0.01,-0.00,30.87
28502190,1901,1,202699,235276,1.24,-0.24,9.92,-0.03,-0.01,-0.00,30.87
28542191,1929,1,202759,234630,1.24,-0.22,9.90,-0.03,-0.01,-0.00,30.87
28582189,1921,1,202325,233414,1.24,-0.23,9.89,-0.03,-0.01,-0.00,30.87
28622191,1902,1,201936,232496,1.26,-0.22,9.95,-0.03,-0.01,-0.00,30.87
28662876,1891,1,201766,232320,1.25,-0.23,9.94,-0.04,-0.01,-0.01,30.77
28701222,1939,1,201775,232395,1.26,-0.21,9.94,-0.03,-0.01,-0.00,30.77
28741190,1936,1,201824,232692,1.25,-0.22,9.92,-0.03,-0.01,-0.00,30.77
28781194,1953,1,201899,233036,1.26,-0.22,9.92,-0.03,-0.01,-0.00,30.77
28821194,1920,1,202003,233394,1.26,-0.24,9.95,-0.03,-0.01,-0.00,30.77
28861194,1928,1,202058,233512,1.26,-0.23,9.90,-0.03,-0.01,-0.00,30.77
28901223,1920,1,202051,233467,1.25,-0.20,9.91,-0.03,-0.01,-0.00,30.77
28941192,1911,1,202068,233655,1.27,-0.22,9.91,-0.03,-0.01,-0.00,30.77
28981190,1909,1,202112,233883,1.26,-0.24,9.91,-0.03,-0.01,-0.00,30.77
29021194,1909,1,202210,234096,1.27,-0.24,9.93,-0.03,-0.01,-0.00,30.77
29061190,1932,1,202237,234447,1.24,-0.22,9.92,-0.03,-0.01,-0.00,30.77
29101194,1940,1,202369,234805,1.25,-0.20,9.92,-0.03,-0.01,-0.00,30.77
29141190,1903,1,202464,235098,1.24,-0.24,9.94,-0.03,-0.01,-0.00,30.77
29181193,1920,1,202543,235159,1.23,-0.21,9.92,-0.03,-0.01,-0.00,30.77
29221190,1922,1,202508,234403,1.23,-0.21,9.91,-0.03,-0.01,-0.00,30.77
29261194,1948,1,202075,233020,1.26,-0.22,9.92,-0.03,-0.01,-0.00,30.77
29301190,1941,1,201577,231933,1.25,-0.23,9.93,-0.03,-0.01,-0.00,30.77
29341192,1982,1,201375,231360,1.25,-0.24,9.96,-0.03,-0.01,-0.00,30.77
29381189,1948,1,201319,231140,1.25,-0.21,9.94,-0.03,-0.01,-0.01,30.77
29421194,1923,1,201220,231282,1.24,-0.23,9.94,-0.03,-0.01,-0.00,30.77
29461190,1923,1,201366,231609,1.25,-0.22,9.93,-0.03,-0.01,-0.00,30.77
29501194,1890,1,201545,232075,1.25,-0.22,9.91,-0.03,-0.01,-0.00,30.77
29541189,1917,1,201711,232476,1.25,-0.22,9.92,-0.03,-0.01,-0.00,30.77
29581191,1936,1,201764,232623,1.24,-0.23,9.94,-0.03,-0.01,-0.00,30.77
29621189,1924,1,201698,232502,1.26,-0.24,9.93,-0.03,-0.01,-0.00,30.77
29661195,1910,1,201710,232667,1.24,-0.23,9.93,-0.03,-0.01,-0.00,30.77
29701875,1871,1,201824,233218,1.27,-0.22,9.90,-0.04,-0.01,-0.00,30.73
29740194,1974,1,201981,233529,1.25,-0.23,9.93,-0.03,-0.01,-0.00,30.73
29780194,1943,1,202186,233762,1.24,-0.21,9.94,-0.03,-0.01,-0.00,30.73
29820194,1954,1,202263,233995,1.27,-0.23,9.92,-0.03,-0.01,-0.01,30.73
29860194,1951,1,202349,234121,1.26,-0.21,9.92,-0.03,-0.01,-0.00,30.73
29900194,1962,1,202338,233661,1.24,-0.23,9.94,-0.03,-0.01,-0.01,30.73
29940194,1941,1,202006,232442,1.25,-0.22,9.92,-0.03,-0.01,-0.00,30.73
29980194,1874,1,201586,231537,1.24,-0.23,9.94,-0.04,-0.01,-0.00,30.73
30020194,1947,1,201437,230998,1.25,-0.24,9.95,-0.03,-0.01,-0.00,30.73
30060194,1941,1,201311,230715,1.25,-0.22,9.91,-0.03,-0.01,-0.00,30.73
30100194,1967,1,201303,231050,1.24,-0.22,9.92,-0.03,-0.01,-0.00,30.73
30140194,1933,1,201532,231809,1.27,-0.23,9.93,-0.03,-0.01,-0.00,30.73
30180194,1971,1,201734,232290,1.27,-0.25,9.97,-0.04,-0.01,-0.00,30.73
30220194,1947,1,201709,232284,1.23,-0.20,9.97,-0.03,-0.01,-0.00,30.73
30260194,1941,1,201710,232474,1.23,-0.23,9.94,-0.03,-0.01,-0.00,30.73
30300194,2000,1,201869,232808,1.26,-0.22,9.93,-0.03,-0.01,-0.01,30.73
30340194,1963,1,201974,233119,1.26,-0.23,9.93,-0.04,-0.01,-0.00,30.73
30380194,1977,1,202066,233367,1.26,-0.22,9.90,-0.03,-0.01,-0.00,30.73
30420189,1942,1,202009,233636,1.24,-0.21,9.92,-0.03,-0.01,-0.00,30.73
30460194,1970,1,202132,233975,1.24,-0.23,9.95,-0.03,-0.01,-0.00,30.73
30500194,1971,1,202220,234243,1.27,-0.22,9.93,-0.03,-0.01,-0.00,30.73
30540239,1967,1,202180,234021,1.25,-0.22,9.93,-0.04,-0.01,-0.01,30.73
30580194,2017,1,201865,232847,1.26,-0.23,9.91,-0.03,-0.01,-0.00,30.73
30620194,2021,1,201412,231856,1.26,-0.23,9.95,-0.03,-0.01,-0.00,30.73
30660194,2063,1,201405,232125,1.27,-0.23,9.91,-0.04,-0.01,-0.00,30.73
30700194,2042,1,201639,232600,1.29,-0.25,9.90,-0.03,-0.01,-0.00,30.73
30740880,1934,1,201715,232649,1.24,-0.25,9.94,-0.03,-0.01,-0.00,30.81
30780194,1887,1,201696,232606,1.26,-0.23,9.93,-0.03,-0.01,-0.00,30.81
30820194,1909,1,201712,232760,1.25,-0.24,9.93,-0.03,-0.01,-0.00,30.81
30860194,1889,1,201751,232936,1.24,-0.23,9.94,-0.03,-0.01,-0.00,30.81
30900194,1910,1,201867,233326,1.24,-0.21,9.91,-0.03,-0.01,-0.00,30.81
30940194,1897,1,202045,233764,1.25,-0.22,9.97,-0.04,-0.01,-0.00,30.81
30980194,1882,1,202144,234075,1.24,-0.23,9.94,-0.03,-0.01,-0.01,30.81
31020194,1880,1,202191,234300,1.24,-0.24,9.92,-0.04,-0.01,-0.00,30.81
31060194,1907,1,202269,234474,1.26,-0.23,9.91,-0.03,-0.01,-0.00,30.81
31100194,1882,1,202288,234689,1.24,-0.22,9.92,-0.03,-0.01,-0.00,30.81
31140193,1889,1,202397,234686,1.26,-0.23,9.92,-0.03,-0.01,-0.00,30.81
31180194,1905,1,202201,233453,1.24,-0.23,9.95,-0.03,-0.01,-0.00,30.81
31220194,1897,1,201665,232022,1.25,-0.22,9.94,-0.03,-0.01,-0.00,30.81
31260194,1943,1,201405,231363,1.26,-0.22,9.92,-0.04,-0.01,-0.00,30.81
31300194,1968,1,201369,231221,1.24,-0.22,9.92,-0.03,-0.01,-0.00,30.81
31340194,1968,1,201411,231557,1.25,-0.23,9.89,-0.03,-0.01,-0.00,30.81
31380194,1955,1,201672,232201,1.26,-0.24,9.95,-0.03,-0.01,-0.00,30.81
31420194,1975,1,201803,232400,1.24,-0.22,9.93,-0.03,-0.01,-0.00,30.81
31460190,1981,1,201859,232392,1.24,-0.21,9.93,-0.03,-0.01,-0.00,30.81
31500194,1991,1,201793,232271,1.24,-0.22,9.92,-0.03,-0.01,-0.00,30.81
31540190,1985,1,201873,232411,1.23,-0.22,9.93,-0.03,-0.01,-0.01,30.81
31580194,1979,1,201873,232352,1.25,-0.23,9.93,-0.03,-0.01,-0.00,30.81
31620194,1967,1,201946,232541,1.25,-0.22,9.94,-0.03,-0.01,-0.00,30.81
31660194,1953,1,202066,233105,1.24,-0.22,9.95,-0.04,-0.01,-0.01,30.81
31700194,1900,1,202217,233342,1.24,-0.23,9.91,-0.03,-0.01,-0.00,30.81
31740880,1854,1,202324,233755,1.24,-0.21,9.91,-0.03,-0.01,-0.00,30.81
31780194,1869,1,202235,233069,1.24,-0.22,9.92,-0.03,-0.01,-0.00,30.81
31820194,1835,1,201819,231788,1.25,-0.24,9.93,-0.03,-0.01,-0.00,30.81
31860194,1810,1,201579,231537,1.26,-0.22,9.94,-0.04,-0.01,-0.00,30.81
31900194,1783,1,201734,232223,1.25,-0.25,9.92,-0.03,-0.01,-0.00,30.81
31940190,1805,1,202036,232954,1.25,-0.23,9.91,-0.03,-0.01,-0.00,30.81
31980207,1787,1,202307,233543,1.25,-0.24,9.93,-0.03,-0.01,-0.01,30.81
32020194,1795,1,202406,233761,1.21,-0.22,9.93,-0.03,-0.01,-0.01,30.81
32060194,1813,1,202325,233496,1.24,-0.23,9.92,-0.03,-0.01,-0.00,30.81
32100194,1832,1,202117,233057,1.24,-0.23,9.92,-0.03,-0.01,-0.00,30.81
32140195,1808,1,201939,232927,1.25,-0.21,9.93,-0.03,-0.01,-0.00,30.81
32180200,1834,1,202000,233155,1.25,-0.22,9.92,-0.03,-0.01,-0.00,30.81
32220191,1837,1,202086,233442,1.24,-0.23,9.92,-0.03,-0.01,-0.01,30.81
32260189,1857,1,202164,233588,1.25,-0.21,9.92,-0.03,-0.01,-0.01,30.81
32300195,1872,1,202195,233797,1.26,-0.23,9.91,-0.03,-0.01,-0.00,30.81
32340194,1866,1,202177,233795,1.25,-0.23,9.94,-0.03,-0.01,-0.00,30.81
32380217,1826,1,202096,233184,1.24,-0.23,9.93,-0.03,-0.01,-0.01,30.81
32420190,1840,1,201628,231030,1.25,-0.21,9.91,-0.03,-0.01,-0.00,30.81
32460194,1872,1,200734,228162,1.26,-0.22,9.92,-0.03,-0.01,-0.00,30.81
32500190,1846,1,200067,226338,1.23,-0.23,9.93,-0.03,-0.01,-0.00,30.81
32540195,1837,1,199834,225995,1.24,-0.21,9.90,-0.03,-0.01,-0.00,30.81
32580189,1861,1,199927,226435,1.24,-0.22,9.93,-0.03,-0.01,-0.00,30.81
32620194,1883,1,200071,227143,1.25,-0.24,9.93,-0.04,-0.01,-0.00,30.81
32660189,1931,1,200272,227450,1.25,-0.23,9.93,-0.03,-0.01,-0.00,30.81
32700192,1910,1,200207,226976,1.25,-0.20,9.95,-0.03,-0.01,-0.00,30.81
32740190,1924,1,200024,226194,1.23,-0.21,9.93,-0.03,-0.01,-0.00,30.81
32780877,1923,1,199870,225815,1.24,-0.22,9.92,-0.03,-0.01,-0.00,30.77
32820189,1941,1,199811,225944,1.25,-0.23,9.93,-0.04,-0.01,-0.00,30.77
32860192,1950,1,199892,226436,1.26,-0.23,9.92,-0.03,-0.01,-0.00,30.77
32900190,1946,1,200145,227291,1.24,-0.22,9.94,-0.03,-0.01,-0.01,30.77
32940191,1984,1,200430,227952,1.25,-0.23,9.90,-0.03,-0.01,-0.00,30.77
32980189,1936,1,200676,228134,1.25,-0.23,9.92,-0.03,-0.01,-0.00,30.77
33020191,1897,1,200402,225958,1.24,-0.21,9.92,-0.03,-0.01,-0.00,30.77
33060190,1957,1,199589,223584,1.21,-0.23,9.96,-0.03,-0.01,-0.00,30.77
33100192,1959,1,199089,222651,1.25,-0.23,9.91,-0.03,-0.01,-0.00,30.77
33140190,1970,1,199036,222513,1.27,-0.20,9.92,-0.03,-0.01,-0.00,30.77
33180191,1967,1,199125,223175,1.24,-0.20,9.92,-0.03,-0.01,-0.00,30.77
33220189,1981,1,199695,225354,1.25,-0.22,9.93,-0.04,-0.02,-0.00,30.77
33260191,1971,1,200373,226697,1.26,-0.20,9.86,-0.03,-0.00,-0.00,30.77
33300188,1968,1,200665,227720,1.25,-0.23,9.95,-0.03,-0.00,-0.00,30.77
33340191,2000,1,200899,228297,1.26,-0.23,9.94,-0.03,-0.01,-0.00,30.77
33380189,1997,1,200971,228474,1.24,-0.21,9.91,-0.03,-0.01,-0.00,30.77
33420190,1991,1,200953,228685,1.24,-0.23,9.93,-0.03,-0.01,-0.00,30.77
33460189,1971,1,200930,228855,1.24,-0.23,9.95,-0.04,-0.01,-0.00,30.77
33500191,1990,1,200940,229286,1.26,-0.22,9.93,-0.04,-0.02,-0.00,30.77
33540189,1994,1,200969,229877,1.26,-0.23,9.90,-0.04,-0.02,-0.00,30.77
33580191,2004,1,201100,229811,1.25,-0.23,9.92,-0.04,-0.01,-0.00,30.77
33620189,1996,1,200720,228262,1.25,-0.23,9.92,-0.03,-0.01,-0.00,30.77
33660191,1991,1,200213,227052,1.26,-0.23,9.93,-0.03,-0.01,-0.00,30.77
33700189,1952,1,199940,226422,1.24,-0.23,9.90,-0.03,-0.01,-0.00,30.77
33740191,1946,1,199768,226398,1.25,-0.23,9.90,-0.03,-0.01,-0.00,30.77
33780875,1956,1,199987,227360,1.27,-0.23,9.90,-0.03,-0.01,-0.00,30.71
33820191,1961,1,200380,228430,1.25,-0.23,9.93,-0.04,-0.01,-0.00,30.71
33860189,1940,1,200770,229350,1.26,-0.22,9.94,-0.03,-0.01,-0.00,30.71
33900192,1938,1,201105,229991,1.26,-0.23,9.90,-0.03,-0.00,-0.00,30.71
33940189,1935,1,201322,230447,1.27,-0.21,9.92,-0.03,-0.01,-0.00,30.71
33980191,1935,1,201503,230691,1.24,-0.22,9.93,-0.03,-0.01,-0.00,30.71
34020189,1875,1,201526,230787,1.25,-0.22,9.94,-0.03,-0.01,-0.00,30.71
34060191,1919,1,201561,230898,1.28,-0.22,9.92,-0.03,-0.01,-0.00,30.71
34100189,1923,1,201654,231139,1.25,-0.23,9.90,-0.03,-0.01,-0.00,30.71
34140191,1929,1,201819,231379,1.23,-0.22,9.92,-0.03,-0.01,-0.00,30.71
34180190,1906,1,201764,230775,1.28,-0.21,9.91,-0.03,-0.01,-0.01,30.71
34220192,1911,1,201316,228784,1.28,-0.24,9.94,-0.03,-0.01,-0.00,30.71
34260190,1920,1,200770,227538,1.25,-0.26,9.95,-0.03,-0.01,-0.00,30.71
34300191,1902,1,200632,227308,1.27,-0.23,9.94,-0.03,-0.01,-0.00,30.71
34340189,1883,1,200662,227882,1.25,-0.15,9.92,-0.03,-0.01,-0.00,30.71
34380192,1905,1,200904,228591,1.26,-0.27,9.93,-0.03,-0.01,-0.00,30.71
34420189,1932,1,201096,229030,1.28,-0.26,9.92,-0.04,-0.01,-0.00,30.71
34460192,1919,1,201186,228777,1.25,-0.22,9.92,-0.03,-0.01,-0.00,30.71
34500189,1921,1,201102,228554,1.24,-0.22,9.95,-0.03,-0.01,-0.00,30.71
34540192,1938,1,201097,228644,1.24,-0.23,9.92,-0.03,-0.01,-0.00,30.71
34580189,1936,1,201183,228851,1.29,-0.24,9.91,-0.03,-0.01,-0.00,30.71
34620191,1925,1,201238,229453,1.27,-0.23,9.91,-0.03,-0.01,-0.01,30.71
34660189,1922,1,201447,230515,1.23,-0.23,9.93,-0.04,-0.01,-0.00,30.71
34700192,1915,1,201798,231438,1.25,-0.22,9.95,-0.03,-0.01,-0.00,30.71
34740190,1914,1,202012,232079,1.27,-0.25,9.93,-0.03,-0.01,-0.00,30.71
34780192,1931,1,202205,232214,1.24,-0.23,9.93,-0.03,-0.00,-0.00,30.71
34820875,1922,1,201983,230804,1.22,-0.23,9.92,-0.03,-0.01,-0.00,31.01
34860191,1920,1,201455,229344,1.26,-0.21,9.93,-0.03,-0.01,-0.00,31.01
34900189,1917,1,201064,228564,1.27,-0.23,9.93,-0.03,-0.01,-0.00,31.01
34940191,1894,1,201066,228653,1.29,-0.23,9.92,-0.03,-0.01,-0.00,31.01
34980189,1943,1,201124,229210,1.24,-0.21,9.93,-0.03,-0.01,-0.00,31.01
35020191,1910,1,201396,229945,1.24,-0.20,9.92,-0.04,-0.01,-0.01,31.01
35060189,1897,1,201498,230007,1.27,-0.25,9.92,-0.03,-0.01,-0.00,31.01
35100191,1945,1,201497,229920,1.26,-0.22,9.93,-0.03,-0.01,-0.00,31.01
35140189,1936,1,201449,229761,1.24,-0.20,9.90,-0.03,-0.01,-0.00,31.01
35180191,1879,1,201326,229609,1.24,-0.23,9.95,-0.03,-0.01,-0.00,31.01
35220189,1916,1,201322,229723,1.26,-0.25,9.92,-0.03,-0.01,-0.00,31.01
35260191,1915,1,201445,230020,1.27,-0.24,9.92,-0.03,-0.01,-0.01,31.01
35300189,1929,1,201640,230393,1.26,-0.23,9.93,-0.03,-0.01,-0.00,31.01
35338194,1987,1,201715,230837,1.23,-0.21,9.95,-0.03,-0.01,-0.00,31.01
35378194,2038,1,201871,231319,1.25,-0.23,9.93,-0.03,-0.01,-0.00,31.01
35418194,1979,1,201894,230791,1.28,-0.22,9.91,-0.03,-0.01,-0.00,31.01
35458207,1984,1,201451,228988,1.23,-0.22,9.93,-0.03,-0.01,-0.00,31.01
35498194,1981,1,200919,227671,1.25,-0.23,9.92,-0.03,-0.01,-0.00,31.01
35538194,2009,1,200677,227358,1.26,-0.23,9.93,-0.03,-0.01,-0.00,31.01
35578194,1997,1,200741,227643,1.25,-0.26,9.92,-0.03,-0.01,-0.00,31.01
35618194,1984,1,200869,228241,1.26,-0.23,9.95,-0.03,-0.01,-0.00,31.01
35658194,1957,1,201123,228823,1.24,-0.21,9.93,-0.03,-0.01,-0.00,31.01
35698194,1927,1,201264,229069,1.26,-0.25,9.89,-0.03,-0.01,-0.00,31.01
35738194,1969,1,201326,229148,1.25,-0.23,9.95,-0.03,-0.01,-0.00,31.01
35778194,1953,1,201364,229374,1.25,-0.23,9.91,-0.03,-0.01,-0.00,31.01
35818194,1979,1,201443,229595,1.26,-0.21,9.90,-0.03,-0.01,-0.00,31.01
35858877,1878,1,201493,229775,1.24,-0.24,9.96,-0.03,-0.01,-0.00,30.87
35899194,1903,1,201570,229914,1.24,-0.21,9.92,-0.03,-0.01,-0.00,30.87
35939190,1905,1,201617,230063,1.25,-0.22,9.92,-0.03,-0.01,-0.00,30.87
35979191,1893,1,201730,230562,1.25,-0.24,9.94,-0.04,-0.01,-0.00,30.87
36019190,1905,1,201965,231253,1.26,-0.23,9.92,-0.04,-0.01,-0.00,30.87
36059192,1881,1,202140,231209,1.25,-0.23,9.93,-0.04,-0.01,-0.00,30.87
36099189,1902,1,201757,229445,1.27,-0.23,9.91,-0.03,-0.01,-0.00,30.87
36139191,1875,1,201123,227858,1.27,-0.24,9.92,-0.03,-0.01,-0.00,30.87
36179209,1904,1,200799,227652,1.28,-0.22,9.91,-0.03,-0.00,-0.00,30.87
36219192,1905,1,200877,228252,1.25,-0.22,9.92,-0.03,-0.01,-0.00,30.87
36259189,1895,1,201071,228942,1.24,-0.23,9.92,-0.03,-0.01,-0.00,30.87
36299192,1898,1,201297,229681,1.23,-0.21,9.91,-0.03,-0.01,-0.00,30.87
36339190,1906,1,201410,230066,1.26,-0.21,9.93,-0.03,-0.01,-0.01,30.87
36379194,1915,1,201451,230084,1.23,-0.23,9.94,-0.03,-0.01,-0.00,30.87
36419189,1914,1,201406,230048,1.25,-0.24,9.92,-0.03,-0.01,-0.00,30.87
36459192,1934,1,201448,230294,1.26,-0.20,9.93,-0.03,-0.01,-0.00,30.87
36499190,1904,1,201491,230523,1.26,-0.22,9.92,-0.04,-0.02,-0.01,30.87
36539192,1932,1,201587,230837,1.27,-0.23,9.91,-0.04,-0.01,-0.00,30.87
36579190,1936,1,201687,231315,1.25,-0.22,9.92,-0.04,-0.01,-0.00,30.87
36619191,1936,1,201851,231783,1.26,-0.23,9.94,-0.03,-0.01,-0.00,30.87
36659189,1922,1,201931,232074,1.26,-0.23,9.91,-0.03,-0.00,-0.00,30.87
36699191,1943,1,201934,231590,1.24,-0.21,9.95,-0.03,-0.01,-0.00,30.87
36739189,1933,1,201417,229903,1.27,-0.22,9.92,-0.03,-0.01,-0.00,30.87
36779191,1936,1,200990,228991,1.25,-0.23,9.93,-0.03,-0.01,-0.01,30.87
36819190,1907,1,200919,228960,1.25,-0.21,9.92,-0.03,-0.01,-0.00,30.87
36859878,1904,1,201052,229579,1.25,-0.23,9.92,-0.03,-0.01,-0.00,30.81
36898194,1953,1,201312,230462,1.24,-0.24,9.92,-0.03,-0.01,-0.00,30.81
36938194,1940,1,201672,231306,1.23,-0.23,9.93,-0.03,-0.01,-0.00,30.81
36978194,1941,1,201823,231596,1.24,-0.23,9.91,-0.04,-0.01,-0.00,30.81
37018194,1961,1,201799,231543,1.26,-0.22,9.91,-0.03,-0.01,-0.00,30.81
37058194,1965,1,201784,231568,1.27,-0.24,9.90,-0.03,-0.01,-0.00,30.81
37098194,1958,1,201805,231728,1.24,-0.22,9.92,-0.03,-0.01,-0.00,30.81
37138194,1941,1,201889,231846,1.25,-0.22,9.92,-0.03,-0.01,-0.00,30.81
37178194,1938,1,201950,232007,1.24,-0.24,9.94,-0.03,-0.01,-0.00,30.81
37218190,1936,1,202013,232236,1.26,-0.24,9.92,-0.03,-0.01,-0.00,30.81
37258194,1930,1,202150,232569,1.25,-0.21,9.93,-0.03,-0.01,-0.00,30.81
37298235,1933,1,202279,232823,1.23,-0.22,9.94,-0.03,-0.01,-0.00,30.81
37338194,1907,1,202233,231756,1.25,-0.23,9.94,-0.03,-0.01,-0.00,30.81
37378194,1903,1,201564,229387,1.25,-0.22,9.95,-0.03,-0.01,-0.00,30.81
37418194,1935,1,200999,227889,1.25,-0.24,9.92,-0.03,-0.01,-0.00,30.81
37458194,1911,1,200794,227627,1.26,-0.22,9.94,-0.03,-0.01,-0.00,30.81
37498194,1904,1,200826,227981,1.25,-0.21,9.92,-0.03,-0.01,-0.00,30.81
37538195,1897,1,200934,228643,1.26,-0.24,9.93,-0.03,-0.01,-0.01,30.81
37578194,1918,1,201154,229255,1.26,-0.23,9.95,-0.03,-0.01,-0.00,30.81
37618190,1930,1,201266,229589,1.26,-0.23,9.94,-0.03,-0.01,-0.00,30.81
37658194,1910,1,201362,229910,1.25,-0.22,9.92,-0.03,-0.01,-0.00,30.81
37698194,1931,1,201423,230178,1.25,-0.23,9.92,-0.03,-0.01,-0.00,30.81
37738194,1937,1,201499,230655,1.24,-0.23,9.91,-0.03,-0.01,-0.00,30.81
37778190,1920,1,201683,231225,1.27,-0.23,9.95,-0.03,-0.01,-0.00,30.81
37818194,1923,1,201792,231873,1.26,-0.21,9.90,-0.03,-0.01,-0.00,30.81
37858195,1911,1,202037,232611,1.26,-0.23,9.92,-0.03,-0.01,-0.01,30.81
37898881,1904,1,202315,233309,1.24,-0.23,9.92,-0.03,-0.01,-0.01,30.79
37939189,1926,1,202510,233903,1.26,-0.21,9.94,-0.03,-0.01,-0.00,30.79
37979191,1895,1,202660,234108,1.24,-0.23,9.91,-0.03,-0.01,-0.00,30.79
38019190,1926,1,202383,232458,1.24,-0.23,9.93,-0.03,-0.01,-0.00,30.79
38059192,1911,1,201732,230849,1.24,-0.22,9.93,-0.03,-0.01,-0.00,30.79
38099190,1903,1,201353,230100,1.25,-0.24,9.94,-0.03,-0.01,-0.00,30.79
38139192,1913,1,201283,230116,1.26,-0.24,9.91,-0.03,-0.01,-0.00,30.79
38179190,1905,1,201376,230557,1.25,-0.20,9.94,-0.03,-0.01,-0.00,30.79
38219191,1910,1,201622,231257,1.25,-0.21,9.93,-0.03,-0.01,-0.00,30.79
38259189,1903,1,201795,231784,1.26,-0.25,9.93,-0.03,-0.01,-0.00,30.79
38299192,1909,1,201899,232083,1.24,-0.24,9.94,-0.03,-0.01,-0.00,30.79
38339190,1892,1,201975,232337,1.24,-0.23,9.94,-0.03,-0.01,-0.00,30.79
38379192,1899,1,202081,232750,1.25,-0.22,9.93,-0.03,-0.01,-0.00,30.79
38419189,1882,1,202226,233215,1.24,-0.22,9.93,-0.03,-0.01,-0.01,30.79
38459192,1872,1,202398,233827,1.27,-0.23,9.93,-0.03,-0.01,-0.00,30.79
38497194,1968,1,202677,234649,1.27,-0.20,9.95,-0.04,-0.01,-0.00,30.79
38537194,1981,1,203203,236040,1.26,-0.22,9.92,-0.03,-0.01,-0.00,30.79
38577194,1985,1,203765,236795,1.27,-0.24,9.93,-0.03,-0.01,-0.00,30.79
38617194,1994,1,203818,236661,1.25,-0.23,9.95,-0.03,-0.01,-0.00,30.79
38657194,1962,1,203404,234605,1.25,-0.24,9.94,-0.03,-0.01,-0.00,30.79
38697194,1959,1,202554,232876,1.26,-0.22,9.92,-0.03,-0.01,-0.00,30.79
38737242,1942,1,202331,232355,1.27,-0.23,9.93,-0.03,-0.01,-0.00,30.79
38777194,1962,1,202317,232445,1.26,-0.23,9.91,-0.03,-0.01,-0.00,30.79
38817194,1954,1,202501,232853,1.27,-0.23,9.93,-0.03,-0.01,-0.00,30.79
38857194,1986,1,202654,233384,1.26,-0.23,9.92,-0.03,-0.01,-0.00,30.79
38897194,1981,1,202822,233824,1.25,-0.22,9.93,-0.03,-0.01,-0.00,30.79
38937912,1933,1,202870,233921,1.27,-0.25,9.91,-0.03,-0.01,-0.00,30.97
38978190,1925,1,202824,233911,1.28,-0.23,9.94,-0.03,-0.01,-0.00,30.97
39018195,1934,1,202744,233995,1.25,-0.23,9.90,-0.03,-0.01,-0.00,30.97
39058189,1921,1,202842,234405,1.25,-0.24,9.93,-0.03,-0.01,-0.00,30.97
39098194,1930,1,202957,234746,1.27,-0.23,9.92,-0.03,-0.01,-0.00,30.97
39138208,1927,1,203083,235066,1.26,-0.23,9.94,-0.03,-0.01,-0.00,30.97
39178192,1923,1,203210,235256,1.25,-0.23,9.93,-0.03,-0.01,-0.00,30.97
39218190,1920,1,203217,235535,1.24,-0.22,9.93,-0.03,-0.01,-0.00,30.97
39258192,1921,1,203212,234901,1.27,-0.23,9.90,-0.03,-0.01,-0.00,30.97
39298189,1925,1,202608,232883,1.27,-0.24,9.91,-0.03,-0.01,-0.00,30.97
39338191,1937,1,201930,231450,1.26,-0.24,9.92,-0.03,-0.01,-0.00,30.97
39378190,1920,1,201617,230887,1.25,-0.22,9.93,-0.03,-0.01,-0.00,30.97
39418192,1904,1,201522,230667,1.24,-0.21,9.91,-0.03,-0.01,-0.00,30.97
39458190,1907,1,201567,230885,1.25,-0.23,9.89,-0.03,-0.01,-0.00,30.97
39498191,1914,1,201693,231233,1.26,-0.22,9.93,-0.03,-0.01,-0.00,30.97
39538190,1913,1,201776,231443,1.25,-0.23,9.97,-0.03,-0.01,-0.00,30.97
39578192,1904,1,201832,231749,1.24,-0.21,9.93,-0.03,-0.01,-0.00,30.97
39618189,1899,1,201896,231874,1.26,-0.22,9.92,-0.03,-0.01,-0.00,30.97
39658195,1914,1,201973,232064,1.26,-0.21,9.93,-0.03,-0.01,-0.00,30.97
39698190,1934,1,201990,232248,1.25,-0.22,9.94,-0.03,-0.01,-0.00,30.97
39738192,1921,1,202036,232471,1.25,-0.24,9.96,-0.03,-0.01,-0.00,30.97
39778189,1906,1,202092,232727,1.26,-0.23,9.92,-0.03,-0.01,-0.01,30.97
39818191,1907,1,202209,232940,1.27,-0.25,9.93,-0.03,-0.01,-0.00,30.97
39858189,1921,1,202265,233015,1.24,-0.22,9.92,-0.03,-0.01,-0.00,30.97
39898191,1872,1,202243,232483,1.27,-0.24,9.93,-0.03,-0.01,-0.00,30.97
39938875,1895,1,201706,230080,1.24,-0.23,9.93,-0.03,-0.01,-0.00,31.01
39977194,1945,1,200984,228353,1.25,-0.23,9.92,-0.03,-0.01,-0.00,31.01
40017194,1945,1,200742,228076,1.27,-0.22,9.92,-0.03,-0.01,-0.00,31.01
40057194,1933,1,200851,228475,1.24,-0.23,9.95,-0.03,-0.01,-0.00,31.01
40097194,1906,1,201004,229115,1.25,-0.25,9.93,-0.03,-0.01,-0.00,31.01
40137194,1935,1,201153,229673,1.22,-0.20,9.92,-0.03,-0.01,-0.00,31.01
40177191,1936,1,201355,230111,1.26,-0.22,9.95,-0.03,-0.01,-0.00,31.01
40217194,1937,1,201451,230272,1.25,-0.23,9.93,-0.03,-0.01,-0.00,31.01
40257195,1933,1,201472,230237,1.25,-0.22,9.94,-0.03,-0.01,-0.00,31.01
40297194,1920,1,201426,230253,1.27,-0.22,9.91,-0.03,-0.01,-0.00,31.01
40337195,1931,1,201451,230322,1.25,-0.23,9.94,-0.03,-0.01,-0.00,31.01
40377210,1936,1,201430,230442,1.25,-0.23,9.94,-0.03,-0.01,-0.00,31.01
40417194,1918,1,201514,230809,1.25,-0.23,9.91,-0.03,-0.01,-0.00,31.01
40457195,1919,1,201647,231270,1.24,-0.23,9.92,-0.03,-0.01,-0.00,31.01
40497194,1941,1,201805,231825,1.25,-0.24,9.92,-0.03,-0.01,-0.00,31.01
40537195,1931,1,202008,232074,1.24,-0.24,9.91,-0.03,-0.01,-0.00,31.01
40577229,1930,1,201777,230289,1.25,-0.22,9.91,-0.03,-0.01,-0.00,31.01
40617194,1913,1,200912,227947,1.28,-0.21,9.92,-0.03,-0.01,-0.00,31.01
40657190,1936,1,200390,227057,1.28,-0.24,9.94,-0.03,-0.01,-0.00,31.01
40697194,1899,1,200383,227362,1.25,-0.21,9.93,-0.03,-0.01,-0.00,31.01
40737190,1894,1,200519,228060,1.24,-0.24,9.94,-0.03,-0.01,-0.00,31.01
40777214,1889,1,200763,228955,1.26,-0.23,9.92,-0.03,-0.01,-0.00,31.01
40817190,1902,1,200949,229514,1.25,-0.24,9.90,-0.03,-0.01,-0.00,31.01
40857194,1898,1,201114,229921,1.26,-0.23,9.90,-0.04,-0.01,-0.01,31.01
40897194,1921,1,201191,230409,1.26,-0.23,9.93,-0.04,-0.01,-0.00,31.01
40937195,1936,1,201395,230967,1.25,-0.24,9.91,-0.03,-0.01,-0.00,31.01
40977876,1893,1,201559,231466,1.26,-0.24,9.92,-0.03,-0.01,-0.00,30.87
41018192,1924,1,201679,231619,1.24,-0.21,9.93,-0.03,-0.01,-0.00,30.87
41058190,1887,1,201653,231690,1.26,-0.23,9.93,-0.03,-0.01,-0.00,30.87
41098191,1957,1,201750,231919,1.24,-0.21,9.93,-0.03,-0.01,-0.00,30.87
41138189,1934,1,201794,232316,1.24,-0.22,9.91,-0.03,-0.01,-0.00,30.87
41178192,1911,1,201951,232888,1.25,-0.21,9.93,-0.04,-0.01,-0.00,30.87
41218190,1912,1,202047,232518,1.24,-0.23,9.94,-0.03,-0.01,-0.00,30.87
41258192,1925,1,201537,230495,1.25,-0.21,9.91,-0.03,-0.01,-0.00,30.87
41298190,1919,1,200935,229141,1.26,-0.21,9.91,-0.03,-0.01,-0.01,30.87
41338192,1925,1,200767,228790,1.25,-0.24,9.94,-0.03,-0.01,-0.00,30.87
41376194,1982,1,200716,228820,1.25,-0.22,9.94,-0.03,-0.01,-0.00,30.87
41416194,1973,1,200766,229202,1.25,-0.23,9.93,-0.03,-0.01,-0.00,30.87
41456193,1981,1,200925,229193,1.24,-0.22,9.94,-0.04,-0.02,-0.00,30.87
41496194,1942,1,200604,228235,1.25,-0.24,9.94,-0.03,-0.01,-0.01,30.87
41536194,1967,1,200325,227894,1.25,-0.22,9.89,-0.03,-0.01,-0.00,30.87
41576194,1971,1,200482,228656,1.24,-0.22,9.93,-0.04,-0.01,-0.00,30.87
41616194,1937,1,200838,229851,1.26,-0.24,9.92,-0.03,-0.01,-0.00,30.87
41656194,1953,1,201294,230882,1.26,-0.22,9.92,-0.03,-0.01,-0.00,30.87
41696194,1958,1,201634,231643,1.24,-0.23,9.93,-0.03,-0.01,-0.00,30.87
41736194,1956,1,201779,231752,1.24,-0.23,9.92,-0.03,-0.01,-0.00,30.87
41776194,1969,1,201724,231798,1.26,-0.24,9.93,-0.03,-0.01,-0.00,30.87
41816194,1969,1,201736,231862,1.25,-0.23,9.94,-0.03,-0.01,-0.00,30.87
41856194,1959,1,201641,231031,1.25,-0.23,9.91,-0.03,-0.01,-0.00,30.87
41896194,1950,1,200994,228697,1.25,-0.23,9.95,-0.03,-0.01,-0.00,30.87
41936194,1968,1,200177,226719,1.24,-0.24,9.94,-0.03,-0.01,-0.00,30.87
41976194,1954,1,199838,226221,1.27,-0.23,9.93,-0.03,-0.01,-0.00,30.87
42016881,1904,1,199752,226181,1.24,-0.22,9.92,-0.03,-0.01,-0.00,30.85
42057195,1917,1,199864,226446,1.25,-0.23,9.90,-0.03,-0.01,-0.00,30.85
42097190,1941,1,199942,226646,1.25,-0.23,9.94,-0.03,-0.01,-0.01,30.85
42137192,1925,1,199913,226431,1.23,-0.22,9.92,-0.03,-0.01,-0.00,30.85
42177189,1904,1,199864,226187,1.25,-0.23,9.94,-0.03,-0.01,-0.00,30.85
42217191,1923,1,199721,225891,1.23,-0.22,9.92,-0.03,-0.01,-0.00,30.85
42257190,1922,1,199673,225871,1.24,-0.23,9.92,-0.03,-0.01,-0.01,30.85
42297192,1930,1,199725,226275,1.23,-0.23,9.92,-0.03,-0.01,-0.00,30.85
42337190,1909,1,199928,227084,1.23,-0.21,9.91,-0.03,-0.01,-0.00,30.85
42377195,1936,1,200180,228036,1.26,-0.22,9.94,-0.03,-0.01,-0.00,30.85
42417195,1920,1,200469,228864,1.24,-0.22,9.93,-0.03,-0.01,-0.00,30.85
42457195,1932,1,200655,228794,1.25,-0.23,9.94,-0.03,-0.01,-0.00,30.85
42497189,1904,1,200246,226989,1.23,-0.22,9.93,-0.03,-0.01,-0.00,30.85
42537191,1921,1,199702,225581,1.23,-0.22,9.92,-0.03,-0.01,-0.00,30.85
42577190,1906,1,199460,225319,1.23,-0.23,9.93,-0.03,-0.01,-0.00,30.85
42617195,1910,1,199497,225454,1.24,-0.21,9.95,-0.03,-0.01,-0.00,30.85
42657190,1938,1,199665,226122,1.23,-0.21,9.92,-0.03,-0.01,-0.00,30.85
42697191,1923,1,199998,226998,1.25,-0.24,9.92,-0.03,-0.01,-0.00,30.85
42737190,1909,1,200256,227559,1.23,-0.24,9.92,-0.03,-0.01,-0.00,30.85
42777192,1900,1,200394,227991,1.24,-0.22,9.94,-0.03,-0.01,-0.00,30.85
42817189,1904,1,200531,228298,1.25,-0.22,9.93,-0.03,-0.01,-0.00,30.85
42857191,1904,1,200657,228841,1.25,-0.22,9.94,-0.03,-0.01,-0.00,30.85
42897189,1905,1,200914,229474,1.24,-0.21,9.94,-0.03,-0.01,-0.00,30.85
42937195,1911,1,201119,230109,1.23,-0.22,9.90,-0.03,-0.01,-0.00,30.85
42977189,1917,1,201320,230704,1.26,-0.23,9.93,-0.03,-0.01,-0.00,30.85
43017881,1904,1,201512,231251,1.24,-0.23,9.94,-0.03,-0.01,-0.00,31.07
43056194,1927,1,201724,231698,1.24,-0.22,9.93,-0.03,-0.01,-0.00,31.07
43096194,1906,1,201641,230506,1.24,-0.22,9.93,-0.03,-0.01,-0.00,31.07
43136194,1933,1,200867,228282,1.24,-0.22,9.93,-0.03,-0.01,-0.01,31.07
43176194,1910,1,200331,226980,1.25,-0.23,9.95,-0.03,-0.01,-0.00,31.07
43216194,1958,1,200232,226855,1.24,-0.24,9.95,-0.03,-0.01,-0.00,31.07
43256194,1936,1,200287,227018,1.25,-0.23,9.92,-0.03,-0.01,-0.00,31.07
43296194,1937,1,200452,227739,1.25,-0.21,9.94,-0.03,-0.01,-0.00,31.07
43336194,1957,1,200752,228384,1.26,-0.23,9.94,-0.03,-0.01,-0.01,31.07
43376194,1921,1,200827,228739,1.24,-0.24,9.92,-0.03,-0.01,-0.00,31.07
43416194,1936,1,200903,228902,1.24,-0.22,9.90,-0.03,-0.01,-0.00,31.07
43456194,1918,1,200949,229267,1.24,-0.24,9.94,-0.03,-0.01,-0.00,31.07
43496194,1955,1,201099,229576,1.25,-0.24,9.93,-0.03,-0.01,-0.00,31.07
43536194,1936,1,201167,229939,1.25,-0.23,9.95,-0.03,-0.01,-0.00,31.07
43576194,1935,1,201255,230282,1.26,-0.21,9.93,-0.03,-0.01,-0.00,31.07
43616194,1915,1,201403,230552,1.25,-0.22,9.93,-0.03,-0.01,-0.00,31.07
43656195,1899,1,201533,230876,1.24,-0.21,9.94,-0.03,-0.01,-0.00,31.07
43696190,1916,1,201683,231233,1.23,-0.20,9.90,-0.03,-0.01,-0.00,31.07
43736194,1920,1,201657,230669,1.25,-0.23,9.91,-0.03,-0.01,-0.01,31.07
43776194,1936,1,201036,228554,1.26,-0.21,9.94,-0.03,-0.01,-0.00,31.07
43816195,1934,1,200440,227109,1.23,-0.24,9.91,-0.03,-0.01,-0.00,31.07
43857235,1920,1,200143,226854,1.24,-0.22,9.92,-0.03,-0.01,-0.00,31.07
43897192,1882,1,200178,227127,1.25,-0.23,9.95,-0.03,-0.01,-0.00,31.07
43937190,1894,1,200301,227745,1.25,-0.23,9.91,-0.03,-0.01,-0.00,31.07
43977191,1899,1,200544,228481,1.28,-0.23,9.95,-0.03,-0.01,-0.00,31.07
44017876,1870,1,200744,229039,1.26,-0.23,9.91,-0.03,-0.01,-0.00,31.07
44056220,1895,1,200966,229393,1.24,-0.24,9.94,-0.03,-0.01,-0.00,31.07
44096190,1936,1,201096,229818,1.23,-0.20,9.92,-0.03,-0.01,-0.00,31.07
44136191,1917,1,201257,230179,1.24,-0.23,9.93,-0.03,-0.01,-0.00,31.07
44176190,1921,1,201405,230407,1.25,-0.20,9.94,-0.03,-0.01,-0.00,31.07
44216191,1911,1,201479,230663,1.23,-0.23,9.91,-0.03,-0.01,-0.00,31.07
44256190,1934,1,201555,230813,1.24,-0.23,9.92,-0.03,-0.01,-0.00,31.07
44296195,1925,1,201580,231169,1.25,-0.22,9.95,-0.03,-0.01,-0.00,31.07
44336190,1924,1,201770,231483,1.25,-0.22,9.93,-0.03,-0.01,-0.00,31.07
44376194,1927,1,201727,230459,1.25,-0.22,9.92,-0.03,-0.01,-0.00,31.07
44416189,1947,1,201163,228833,1.24,-0.23,9.93,-0.04,-0.01,-0.00,31.07
44456191,1921,1,200827,228018,1.25,-0.23,9.91,-0.03,-0.01,-0.00,31.07
44496189,1929,1,200741,228032,1.27,-0.23,9.93,-0.03,-0.01,-0.01,31.07
44536194,1935,1,200737,228010,1.27,-0.25,9.94,-0.03,-0.01,-0.00,31.07
44576190,1942,1,200762,228298,1.26,-0.23,9.94,-0.03,-0.01,-0.00,31.07
44616191,1920,1,200850,228382,1.27,-0.23,9.93,-0.03,-0.01,-0.00,31.07
44656189,1922,1,200863,228371,1.26,-0.22,9.92,-0.03,-0.01,-0.00,31.07
44696191,1921,1,200825,228431,1.26,-0.23,9.90,-0.03,-0.01,-0.00,31.07
44736189,1954,1,200884,228656,1.24,-0.22,9.93,-0.03,-0.01,-0.00,31.07
44776191,1930,1,200977,229131,1.25,-0.24,9.93,-0.03,-0.01,-0.00,31.07
44816189,1948,1,201086,229599,1.25,-0.22,9.91,-0.04,-0.01,-0.00,31.07
44856194,1954,1,201217,229988,1.24,-0.22,9.92,-0.03,-0.01,-0.01,31.07
44896190,1939,1,201330,230473,1.24,-0.22,9.90,-0.03,-0.01,-0.00,31.07
44936191,1937,1,201460,230783,1.24,-0.24,9.94,-0.03,-0.01,-0.00,31.07
44976189,1933,1,201348,229566,1.25,-0.24,9.91,-0.03,-0.01,-0.00,31.07
45016195,1926,1,200645,227631,1.28,-0.21,9.93,-0.03,-0.01,-0.00,31.07
45056876,1911,1,200212,226710,1.26,-0.24,9.91,-0.03,-0.01,-0.00,30.99
45095194,1950,1,200027,226569,1.25,-0.24,9.93,-0.03,-0.01,-0.00,30.99
45135194,1968,1,200011,226815,1.26,-0.23,9.93,-0.03,-0.01,-0.00,30.99
45175194,1954,1,200147,227313,1.26,-0.23,9.91,-0.03,-0.01,-0.01,30.99
45215194,1955,1,200273,227669,1.26,-0.23,9.93,-0.04,-0.01,-0.00,30.99
45255194,1953,1,200306,227950,1.25,-0.23,9.94,-0.03,-0.01,-0.00,30.99
45295194,1940,1,200388,228323,1.24,-0.23,9.91,-0.04,-0.01,-0.00,30.99
45335194,1942,1,200556,228939,1.30,-0.24,9.91,-0.03,-0.01,-0.00,30.99
45375194,1942,1,200804,229459,1.24,-0.23,9.93,-0.03,-0.01,-0.00,30.99
45415194,1947,1,201029,229855,1.26,-0.22,9.93,-0.03,-0.01,-0.00,30.99
45455194,1929,1,201090,230110,1.26,-0.22,9.92,-0.03,-0.01,-0.00,30.99
45495232,1933,1,201169,230264,1.25,-0.23,9.93,-0.03,-0.01,-0.00,30.99
45535194,1930,1,201260,230450,1.25,-0.23,9.92,-0.03,-0.01,-0.00,30.99
45575194,1918,1,201307,229841,1.25,-0.22,9.95,-0.03,-0.01,-0.00,30.99
45615194,1919,1,200739,227838,1.27,-0.23,9.92,-0.03,-0.01,-0.01,30.99
45655194,1926,1,200110,226456,1.25,-0.21,9.91,-0.03,-0.01,-0.00,30.99
45695236,1932,1,199928,226254,1.25,-0.23,9.91,-0.03,-0.01,-0.00,30.99
45735194,1919,1,200020,226559,1.24,-0.23,9.92,-0.03,-0.01,-0.00,30.99
45775194,1923,1,200270,227298,1.25,-0.22,9.93,-0.03,-0.01,-0.00,30.99
45815194,1904,1,200515,228037,1.26,-0.23,9.91,-0.03,-0.01,-0.00,30.99
45855194,1919,1,200689,228474,1.26,-0.23,9.94,-0.03,-0.01,-0.00,30.99
45895194,1935,1,200784,228755,1.26,-0.23,9.91,-0.03,-0.01,-0.00,30.99
45935194,1935,1,200816,229083,1.25,-0.22,9.94,-0.03,-0.01,-0.00,30.99
45975194,1943,1,200884,229453,1.25,-0.22,9.93,-0.03,-0.01,-0.01,30.99
46015194,1935,1,201085,229968,1.25,-0.23,9.93,-0.03,-0.01,-0.00,30.99
46055194,1941,1,201234,230435,1.25,-0.23,9.92,-0.03,-0.01,-0.00,30.99
46095880,1920,1,201410,230960,1.25,-0.22,9.91,-0.03,-0.01,-0.00,30.87
46136191,1893,1,201607,231537,1.26,-0.22,9.94,-0.03,-0.01,-0.00,30.87
46176189,1892,1,201777,231811,1.24,-0.21,9.91,-0.03,-0.01,-0.00,30.87
46216192,1921,1,201689,230502,1.25,-0.23,9.92,-0.03,-0.01,-0.01,30.87
46256190,1931,1,200916,228722,1.26,-0.24,9.94,-0.03,-0.01,-0.00,30.87
46296192,1923,1,200467,227746,1.25,-0.23,9.92,-0.03,-0.01,-0.00,30.87
46336190,1914,1,200285,227600,1.26,-0.23,9.94,-0.03,-0.01,-0.00,30.87
46376191,1915,1,200304,227874,1.24,-0.23,9.96,-0.03,-0.01,-0.00,30.87
46416190,1926,1,200454,228576,1.25,-0.23,9.95,-0.03,-0.01,-0.00,30.87
46456192,1901,1,200773,229310,1.24,-0.22,9.94,-0.03,-0.01,-0.00,30.87
46496190,1890,1,200922,229762,1.24,-0.23,9.90,-0.03,-0.01,-0.00,30.87
46536192,1910,1,201004,230027,1.24,-0.24,9.91,-0.03,-0.01,-0.00,30.87
46576190,1903,1,201058,230304,1.25,-0.22,9.91,-0.03,-0.01,-0.01,30.87
46616195,1909,1,201140,230566,1.24,-0.22,9.94,-0.03,-0.01,-0.00,30.87
46656190,1904,1,201149,230595,1.25,-0.23,9.92,-0.03,-0.01,-0.00,30.87
46696195,1922,1,201185,230726,1.26,-0.22,9.91,-0.03,-0.02,-0.00,30.87
46736190,1940,1,201273,231198,1.25,-0.24,9.90,-0.04,-0.02,-0.00,30.87
46776191,1926,1,201497,231477,1.25,-0.24,9.91,-0.03,-0.01,-0.00,30.87
46816189,1925,1,201497,230347,1.26,-0.24,9.90,-0.03,-0.01,-0.00,30.87
46856191,1885,1,200873,228630,1.24,-0.23,9.94,-0.03,-0.00,-0.00,30.87
46894194,1984,1,200398,227702,1.26,-0.22,9.89,-0.03,-0.01,-0.01,30.87
46935194,1955,1,200235,227555,1.26,-0.22,9.92,-0.03,-0.01,-0.00,30.87
46975190,1957,1,200257,227780,1.24,-0.25,9.95,-0.03,-0.01,-0.00,30.87
47015192,1938,1,200322,228187,1.25,-0.23,9.93,-0.03,-0.01,-0.00,30.87
47055190,1952,1,200442,228426,1.27,-0.23,9.95,-0.03,-0.01,-0.00,30.87
47095195,1943,1,200475,228424,1.28,-0.24,9.93,-0.03,-0.01,-0.00,30.87
47135894,1899,1,200477,228449,1.24,-0.25,9.92,-0.03,-0.01,-0.00,30.63
47174194,1972,1,200572,228652,1.25,-0.22,9.92,-0.03,-0.01,-0.00,30.63
47214194,1984,1,200697,229128,1.26,-0.23,9.93,-0.03,-0.01,-0.01,30.63
47254194,1968,1,200811,229530,1.25,-0.23,9.91,-0.03,-0.01,-0.01,30.63
47294194,1975,1,200919,229907,1.24,-0.24,9.95,-0.03,-0.01,-0.00,30.63
47334197,1993,1,200998,230039,1.24,-0.21,9.94,-0.03,-0.01,-0.00,30.63
47374194,1983,1,201082,230185,1.28,-0.24,9.88,-0.03,-0.01,-0.00,30.63
47414194,1966,1,201029,229891,1.27,-0.22,9.91,-0.03,-0.01,-0.00,30.63
47454194,1970,1,200601,228383,1.26,-0.22,9.91,-0.03,-0.01,-0.00,30.63
47494194,1971,1,200180,227283,1.26,-0.24,9.95,-0.03,-0.01,-0.00,30.63
47534194,1990,1,200026,226883,1.26,-0.22,9.95,-0.03,-0.01,-0.00,30.63
47574194,1984,1,200001,226912,1.27,-0.22,9.92,-0.03,-0.01,-0.00,30.63
47614194,1971,1,200043,227294,1.23,-0.20,9.92,-0.03,-0.01,-0.00,30.63
47654194,1959,1,200202,227845,1.24,-0.24,9.91,-0.03,-0.01,-0.01,30.63
47694194,1923,1,200262,228217,1.25,-0.24,9.93,-0.03,-0.01,-0.00,30.63
47734194,1964,1,200323,228572,1.26,-0.23,9.91,-0.03,-0.01,-0.00,30.63
47774194,1943,1,200478,228910,1.26,-0.22,9.92,-0.03,-0.01,-0.00,30.63
47814194,1962,1,200543,229203,1.25,-0.23,9.93,-0.03,-0.01,-0.00,30.63
47854190,1967,1,200607,229340,1.28,-0.20,9.93,-0.03,-0.01,-0.00,30.63
47894194,1963,1,200641,229604,1.27,-0.24,9.92,-0.03,-0.01,-0.00,30.63
47934193,1940,1,200751,229864,1.26,-0.23,9.92,-0.03,-0.01,-0.00,30.63
47974194,1958,1,200921,230208,1.26,-0.22,9.92,-0.03,-0.01,-0.00,30.63
48014194,1970,1,201024,230463,1.26,-0.21,9.92,-0.04,-0.02,-0.00,30.63
48054194,1965,1,201087,230497,1.27,-0.23,9.89,-0.03,-0.01,-0.00,30.63
48094194,1963,1,200864,229170,1.27,-0.23,9.94,-0.03,-0.01,-0.00,30.63
48134194,1968,1,200369,227843,1.27,-0.22,9.92,-0.03,-0.01,-0.00,30.63
48174880,1935,1,200024,226780,1.26,-0.21,9.91,-0.03,-0.01,-0.00,30.53
48215194,1969,1,199809,226260,1.30,-0.22,9.93,-0.03,-0.01,-0.00,30.53
48255188,1967,1,199754,226416,1.26,-0.23,9.92,-0.03,-0.01,-0.00,30.53
48295192,1966,1,199932,226914,1.25,-0.22,9.93,-0.03,-0.01,-0.00,30.53
48335190,1981,1,200094,227454,1.26,-0.22,9.92,-0.03,-0.01,-0.00,30.53
48375194,2001,1,200193,227848,1.26,-0.23,9.94,-0.03,-0.00,-0.01,30.53
48415190,1985,1,200247,228187,1.26,-0.23,9.94,-0.03,-0.01,-0.00,30.53
48455192,1991,1,200271,228441,1.25,-0.25,9.92,-0.03,-0.01,-0.01,30.53
48495190,2000,1,200346,228653,1.26,-0.24,9.91,-0.03,-0.01,-0.01,30.53
48535192,2001,1,200365,228808,1.27,-0.22,9.91,-0.03,-0.01,-0.00,30.53
48575190,2003,1,200448,228959,1.27,-0.23,9.93,-0.03,-0.01,-0.00,30.53
48615192,2000,1,200508,229009,1.23,-0.22,9.94,-0.03,-0.01,-0.00,30.53
48655190,1989,1,200573,229170,1.25,-0.22,9.93,-0.03,-0.01,-0.00,30.53
48695192,2002,1,200595,229086,1.26,-0.24,9.93,-0.03,-0.01,-0.00,30.53
48735190,1997,1,200305,228071,1.26,-0.24,9.91,-0.03,-0.01,-0.00,30.53
48775191,2018,1,199945,227286,1.27,-0.23,9.95,-0.03,-0.01,-0.00,30.53
48815190,1998,1,199753,226936,1.28,-0.21,9.95,-0.03,-0.01,-0.00,30.53
48855192,1987,1,199680,227019,1.26,-0.22,9.94,-0.03,-0.01,-0.01,30.53
48895190,2021,1,199669,227235,1.26,-0.23,9.93,-0.03,-0.01,-0.00,30.53
48935192,2010,1,199718,227475,1.27,-0.23,9.92,-0.03,-0.01,-0.00,30.53
48975190,2013,1,199809,227562,1.25,-0.22,9.93,-0.03,-0.01,-0.00,30.53
49015192,1995,1,199822,227570,1.23,-0.23,9.91,-0.03,-0.01,-0.00,30.53
49055190,2021,1,199814,227551,1.26,-0.23,9.93,-0.03,-0.01,-0.00,30.53
49095192,2103,1,199740,227656,1.26,-0.21,9.92,-0.03,-0.01,-0.00,30.53
49135190,2203,1,199686,227892,1.25,-0.24,9.91,-0.03,-0.01,-0.00,30.53
49175878,2176,1,199747,228267,1.24,-0.22,9.92,-0.03,-0.01,-0.00,30.71
49214190,2167,1,199859,228676,1.24,-0.23,9.91,-0.03,-0.01,-0.00,30.71
49254194,2128,1,199929,229111,1.27,-0.21,9.95,-0.03,-0.01,-0.00,30.71
49294190,2101,1,200110,229656,1.24,-0.20,9.93,-0.03,-0.01,-0.00,30.71
49334194,2074,1,200310,229980,1.24,-0.23,9.94,-0.03,-0.01,-0.01,30.71
49374194,2032,1,200418,229687,1.25,-0.23,9.92,-0.04,-0.01,-0.00,30.71
49414195,2007,1,200096,228653,1.27,-0.23,9.89,-0.03,-0.01,-0.00,30.71
49454190,1986,1,199811,228069,1.27,-0.23,9.92,-0.03,-0.01,-0.00,30.71
49494194,1962,1,199705,227892,1.24,-0.25,9.91,-0.03,-0.01,-0.00,30.71
49534190,1943,1,199736,228127,1.24,-0.23,9.91,-0.03,-0.01,-0.00,30.71
49574194,1917,1,199856,228725,1.26,-0.21,9.93,-0.03,-0.01,-0.00,30.71
49614190,1899,1,200081,229474,1.26,-0.24,9.92,-0.03,-0.01,-0.01,30.71
49654194,1879,1,200296,230090,1.23,-0.20,9.95,-0.04,-0.01,-0.01,30.71
49694190,1885,1,200436,230395,1.26,-0.23,9.94,-0.04,-0.01,-0.00,30.71
49734195,1867,1,200486,230521,1.25,-0.22,9.94,-0.03,-0.01,-0.01,30.71
49774190,1867,1,200469,230620,1.27,-0.23,9.93,-0.03,-0.01,-0.00,30.71
49814192,1858,1,200563,230808,1.27,-0.23,9.94,-0.03,-0.01,-0.00,30.71
49854190,1856,1,200625,231083,1.25,-0.23,9.92,-0.03,-0.01,-0.00,30.71
49894191,1850,1,200733,231314,1.24,-0.22,9.93,-0.03,-0.01,-0.00,30.71
49934190,1873,1,200873,231564,1.26,-0.23,9.93,-0.03,-0.01,-0.00,30.71
49974191,1878,1,200980,231751,1.25,-0.24,9.91,-0.04,-0.01,-0.00,30.71
50014190,1881,1,201020,231974,1.25,-0.22,9.91,-0.03,-0.01,-0.00,30.71
50054194,1897,1,201058,232174,1.25,-0.23,9.90,-0.03,-0.01,-0.00,30.71
50094190,1897,1,200988,231604,1.24,-0.23,9.93,-0.03,-0.01,-0.00,30.71
50134195,1911,1,200656,230898,1.24,-0.23,9.93,-0.03,-0.01,-0.00,30.71
50174190,1917,1,200533,230530,1.25,-0.23,9.93,-0.03,-0.01,-0.00,30.71
50214878,1901,1,200456,230259,1.24,-0.23,9.94,-0.03,-0.01,-0.00,30.81
50253194,1963,1,200391,230105,1.27,-0.24,9.91,-0.03,-0.01,-0.00,30.81
50293194,1953,1,200400,230182,1.23,-0.23,9.91,-0.03,-0.01,-0.00,30.81
50333194,1981,1,200431,230283,1.26,-0.23,9.91,-0.03,-0.01,-0.00,30.81
50373194,1999,1,200434,230334,1.25,-0.24,9.92,-0.03,-0.01,-0.00,30.81
50413194,1987,1,200399,230251,1.25,-0.24,9.94,-0.03,-0.01,-0.00,30.81
50453194,1989,1,200370,230262,1.25,-0.24,9.93,-0.03,-0.01,-0.00,30.81
50493194,2013,1,200408,230623,1.25,-0.22,9.92,-0.03,-0.01,-0.00,30.81
50533194,2007,1,200489,230964,1.25,-0.23,9.94,-0.03,-0.01,-0.01,30.81
50573194,2023,1,200579,231250,1.25,-0.23,9.94,-0.03,-0.01,-0.00,30.81
50613210,2035,1,200725,231641,1.22,-0.23,9.93,-0.03,-0.01,-0.00,30.81
50653194,2034,1,200902,232075,1.23,-0.22,9.90,-0.03,-0.01,-0.00,30.81
50693194,2033,1,201043,232500,1.24,-0.22,9.93,-0.03,-0.00,-0.00,30.81
50733194,2032,1,201058,232145,1.24,-0.25,9.93,-0.03,-0.01,-0.00,30.81
50773194,2060,1,200622,231073,1.22,-0.22,9.94,-0.03,-0.01,-0.00,30.81
50813194,2064,1,200402,230581,1.24,-0.23,9.92,-0.03,-0.02,-0.00,30.81
50853194,2091,1,200295,230514,1.23,-0.23,9.92,-0.03,-0.01,-0.00,30.81
50893194,2091,1,200312,230731,1.22,-0.23,9.93,-0.04,-0.01,-0.00,30.81
50933194,2066,1,200458,231181,1.24,-0.21,9.93,-0.03,-0.01,-0.01,30.81
50973194,2061,1,200637,231509,1.25,-0.24,9.94,-0.03,-0.01,-0.00,30.81
51013194,2063,1,200728,231510,1.24,-0.23,9.94,-0.03,-0.01,-0.00,30.81
51053194,2065,1,200738,231455,1.24,-0.22,9.91,-0.03,-0.01,-0.00,30.81
51093194,2053,1,200758,231405,1.24,-0.22,9.92,-0.03,-0.01,-0.00,30.81
51133194,2057,1,200814,231393,1.23,-0.22,9.92,-0.03,-0.01,-0.00,30.81
51173194,2061,1,200758,231301,1.23,-0.23,9.93,-0.03,-0.01,-0.00,30.81
51213194,2064,1,200766,231310,1.25,-0.21,9.92,-0.03,-0.01,-0.00,30.81
51253880,1997,1,200839,231300,1.24,-0.21,9.93,-0.03,-0.01,-0.00,31.01
51294189,2000,1,200902,231335,1.26,-0.21,9.94,-0.03,-0.01,-0.00,31.01
51334191,2003,1,200929,231456,1.23,-0.22,9.93,-0.03,-0.01,-0.00,31.01
51374190,1974,1,200917,231195,1.25,-0.21,9.93,-0.03,-0.01,-0.00,31.01
51414191,2001,1,200493,229844,1.24,-0.23,9.94,-0.03,-0.01,-0.01,31.01
51454190,1968,1,200004,228640,1.24,-0.24,9.91,-0.03,-0.01,-0.00,31.01
51494195,1969,1,199702,227908,1.26,-0.21,9.93,-0.03,-0.01,-0.00,31.01
51534189,1942,1,199554,227677,1.24,-0.22,9.90,-0.03,-0.00,-0.00,31.01
51574191,1950,1,199537,227860,1.23,-0.22,9.93,-0.03,-0.01,-0.00,31.01
51614190,1932,1,199642,228245,1.24,-0.22,9.93,-0.03,-0.01,-0.00,31.01
51654195,1922,1,199723,228374,1.26,-0.23,9.91,-0.03,-0.01,-0.00,31.01
51694190,1943,1,199657,228344,1.23,-0.21,9.93,-0.03,-0.01,-0.00,31.01
51734192,1919,1,199626,228306,1.25,-0.23,9.94,-0.03,-0.01,-0.00,31.01
51774190,1934,1,199577,228375,1.23,-0.23,9.93,-0.03,-0.01,-0.00,31.01
51814192,1951,1,199584,228639,1.22,-0.22,9.94,-0.03,-0.01,-0.00,31.01
51854190,1943,1,199550,228867,1.24,-0.22,9.95,-0.03,-0.01,-0.00,31.01
51894191,1936,1,199599,229079,1.23,-0.21,9.94,-0.03,-0.01,-0.01,31.01
51934190,1941,1,199734,229306,1.24,-0.21,9.93,-0.03,-0.01,-0.00,31.01
51974191,1968,1,199789,229598,1.24,-0.20,9.92,-0.03,-0.01,-0.00,31.01
52014189,1937,1,199819,229816,1.24,-0.22,9.91,-0.03,-0.01,-0.00,31.01
52054195,1984,1,199771,229231,1.23,-0.23,9.93,-0.03,-0.01,-0.00,31.01
52094190,1966,1,199401,228104,1.24,-0.23,9.94,-0.03,-0.01,-0.00,31.01
52134191,1985,1,199215,227396,1.23,-0.23,9.94,-0.03,-0.01,-0.00,31.01
52174190,1962,1,199206,227408,1.24,-0.22,9.93,-0.03,-0.01,-0.00,31.01
52214192,1959,1,199349,227725,1.24,-0.22,9.91,-0.03,-0.01,-0.00,31.01
52254886,1951,1,199454,227993,1.22,-0.23,9.93,-0.03,-0.01,-0.00,30.73
52293195,1947,1,199529,228231,1.24,-0.23,9.91,-0.03,-0.01,-0.00,30.73
52333190,1963,1,199588,228346,1.23,-0.22,9.93,-0.03,-0.01,-0.01,30.73
52373195,1968,1,199598,228366,1.25,-0.21,9.92,-0.03,-0.01,-0.00,30.73
52413190,1967,1,199685,228636,1.25,-0.23,9.95,-0.03,-0.01,-0.00,30.73
52453240,1945,1,199880,229100,1.25,-0.21,9.93,-0.03,-0.01,-0.00,30.73
52493190,1947,1,200063,229835,1.25,-0.20,9.94,-0.04,-0.01,-0.01,30.73
52533194,1931,1,200266,230288,1.25,-0.22,9.93,-0.04,-0.01,-0.00,30.73
52573190,1950,1,200375,230442,1.25,-0.22,9.89,-0.03,-0.01,-0.00,30.73
52613194,1949,1,200397,230522,1.24,-0.24,9.93,-0.03,-0.01,-0.00,30.73
52653190,1970,1,200474,230538,1.25,-0.23,9.93,-0.03,-0.01,-0.00,30.73
52693194,1994,1,200540,230574,1.24,-0.21,9.94,-0.03,-0.01,-0.00,30.73
52733190,1962,1,200439,229652,1.24,-0.23,9.92,-0.03,-0.01,-0.00,30.73
52773192,1968,1,200016,228326,1.26,-0.22,9.93,-0.03,-0.01,-0.00,30.73
52813190,1918,1,199782,227795,1.27,-0.21,9.93,-0.04,-0.01,-0.00,30.73
52853194,1888,1,199733,228039,1.25,-0.21,9.91,-0.04,-0.01,-0.01,30.73
52893190,1907,1,199848,228579,1.25,-0.24,9.93,-0.03,-0.01,-0.00,30.73
52933192,1937,1,200047,229142,1.25,-0.21,9.92,-0.03,-0.01,-0.00,30.73
52973189,1932,1,200226,229448,1.25,-0.23,9.95,-0.03,-0.01,-0.00,30.73
53013192,1921,1,200260,229597,1.24,-0.25,9.91,-0.03,-0.01,-0.00,30.73
53053190,1920,1,200256,229609,1.26,-0.21,9.91,-0.03,-0.01,-0.00,30.73
53093192,1906,1,200220,229514,1.25,-0.22,9.94,-0.03,-0.01,-0.00,30.73
53133190,1889,1,200162,229439,1.25,-0.24,9.93,-0.03,-0.01,-0.00,30.73
53173194,1909,1,200141,229511,1.24,-0.22,9.92,-0.03,-0.01,-0.00,30.73
53213190,1906,1,200189,229854,1.23,-0.22,9.93,-0.03,-0.01,-0.00,30.73
53253192,1921,1,200306,230300,1.24,-0.23,9.92,-0.03,-0.01,-0.00,30.73
53293877,1905,1,200412,230648,1.24,-0.22,9.91,-0.03,-0.01,-0.01,30.67
53332194,1955,1,200412,230334,1.24,-0.22,9.93,-0.03,-0.01,-0.00,30.67
53372194,1968,1,200119,229065,1.24,-0.20,9.94,-0.03,-0.01,-0.00,30.67
53412194,1994,1,199771,228175,1.24,-0.22,9.91,-0.03,-0.01,-0.00,30.67
53452194,1984,1,199655,227943,1.24,-0.23,9.91,-0.03,-0.01,-0.00,30.67
53492195,1985,1,199719,228240,1.24,-0.23,9.92,-0.03,-0.01,-0.00,30.67
53532194,1967,1,199883,228613,1.23,-0.22,9.92,-0.03,-0.01,-0.00,30.67
53572194,1959,1,200029,228946,1.24,-0.23,9.94,-0.03,-0.01,-0.00,30.67
53612194,1920,1,200046,229047,1.24,-0.21,9.93,-0.03,-0.01,-0.00,30.67
53652194,1925,1,200039,229120,1.23,-0.21,9.93,-0.03,-0.01,-0.00,30.67
53692194,1929,1,200089,229185,1.24,-0.23,9.94,-0.03,-0.01,-0.00,30.67
53732194,1921,1,200159,229331,1.24,-0.23,9.92,-0.03,-0.01,-0.00,30.67
53772194,1936,1,200249,229556,1.25,-0.23,9.93,-0.03,-0.01,-0.00,30.67
53812194,1924,1,200372,229895,1.24,-0.23,9.94,-0.03,-0.01,-0.00,30.67
53852194,1937,1,200490,230234,1.25,-0.23,9.91,-0.03,-0.01,-0.00,30.67
53892235,1936,1,200608,230564,1.24,-0.21,9.91,-0.03,-0.01,-0.00,30.67
53932195,1921,1,200663,230288,1.24,-0.23,9.93,-0.03,-0.01,-0.00,30.67
53972194,1943,1,200249,228410,1.22,-0.22,9.96,-0.03,-0.01,-0.00,30.67
54012194,1933,1,199629,226581,1.25,-0.23,9.93,-0.03,-0.01,-0.00,30.67
54052194,1934,1,199248,225684,1.24,-0.23,9.93,-0.03,-0.01,-0.00,30.67
54092221,1920,1,199172,225677,1.24,-0.22,9.92,-0.03,-0.01,-0.00,30.67
54132194,1930,1,199258,226224,1.24,-0.21,9.94,-0.03,-0.01,-0.00,30.67
54172194,1904,1,199479,226932,1.23,-0.22,9.92,-0.03,-0.01,-0.00,30.67
54212194,1896,1,199656,227368,1.26,-0.23,9.89,-0.03,-0.01,-0.00,30.67
54252195,1919,1,199717,227648,1.24,-0.23,9.93,-0.03,-0.01,-0.01,30.67
54292194,1899,1,199796,227937,1.25,-0.23,9.90,-0.03,-0.01,-0.00,30.67
54332881,1886,1,199938,228118,1.24,-0.23,9.90,-0.03,-0.01,-0.00,31.05
54373191,1883,1,200034,228274,1.24,-0.23,9.94,-0.03,-0.01,-0.00,31.05
54413189,1883,1,200041,228315,1.25,-0.21,9.92,-0.03,-0.01,-0.00,31.05
54453191,1892,1,200083,228557,1.24,-0.22,9.94,-0.03,-0.01,-0.00,31.05
54493190,1863,1,200180,228685,1.24,-0.22,9.93,-0.03,-0.01,-0.00,31.05
54533191,1858,1,200250,228374,1.26,-0.22,9.91,-0.03,-0.01,-0.00,31.05
54573190,1839,1,199792,226360,1.25,-0.23,9.92,-0.03,-0.01,-0.01,31.05
54613192,1870,1,199190,224742,1.24,-0.20,9.90,-0.03,-0.01,-0.01,31.05
54653189,1878,1,199010,224673,1.23,-0.23,9.93,-0.03,-0.01,-0.00,31.05
54693191,1899,1,199032,225070,1.24,-0.23,9.93,-0.03,-0.01,-0.00,31.05
54733190,1862,1,199216,225729,1.23,-0.20,9.91,-0.03,-0.01,-0.00,31.05
54773191,1873,1,199389,225852,1.24,-0.22,9.94,-0.03,-0.01,-0.00,31.05
54811194,1979,1,199371,226030,1.23,-0.22,9.92,-0.03,-0.01,-0.00,31.05
54851193,1987,1,199594,226543,1.24,-0.21,9.94,-0.04,-0.02,-0.00,31.05
54891194,1991,1,199745,226798,1.25,-0.21,9.92,-0.03,-0.01,-0.00,31.05
54931193,1971,1,199795,227217,1.25,-0.22,9.91,-0.04,-0.01,-0.00,31.05
54971194,1993,1,199962,227645,1.25,-0.21,9.91,-0.04,-0.02,-0.00,31.05
55011194,1977,1,200133,228112,1.24,-0.23,9.93,-0.03,-0.01,-0.00,31.05
55051194,1957,1,200373,228709,1.27,-0.21,9.94,-0.04,-0.02,-0.00,31.05
55091194,1969,1,200500,229022,1.23,-0.23,9.93,-0.03,-0.01,-0.00,31.05
55131194,2000,1,200633,229114,1.24,-0.21,9.93,-0.04,-0.01,-0.00,31.05
55171194,1994,1,200298,227697,1.25,-0.24,9.95,-0.03,-0.01,-0.00,31.05
55211194,1979,1,199788,226610,1.25,-0.23,9.92,-0.03,-0.01,-0.00,31.05
55251194,1997,1,199744,226758,1.23,-0.23,9.93,-0.04,-0.01,-0.00,31.05
55291193,1949,1,199851,227349,1.24,-0.22,9.93,-0.03,-0.01,-0.00,31.05
55331194,1856,1,200072,227938,1.24,-0.23,9.93,-0.04,-0.01,-0.00,31.05
55371881,1891,1,200110,227844,1.26,-0.23,9.92,-0.03,-0.01,-0.00,30.85
55412195,1813,1,199883,227188,1.24,-0.22,9.93,-0.03,0.00,-0.00,30.85
55452173,1758,1,199648,226432,1.26,-0.22,9.93,-0.03,-0.00,-0.00,30.85
55492192,1649,1,199560,226460,1.27,-0.21,9.94,-0.04,-0.01,-0.00,30.85
55532189,1616,1,199684,226642,1.25,-0.24,9.93,-0.03,-0.01,-0.00,30.85
55572191,1622,1,199701,226755,1.24,-0.22,9.93,-0.03,-0.01,-0.00,30.85
55612189,1712,1,199849,227860,1.26,-0.23,9.96,-0.03,-0.01,-0.01,30.85
55652195,1859,1,200278,228084,1.27,-0.22,9.92,-0.04,-0.02,-0.00,30.85
55692190,1952,1,199853,227143,1.27,-0.22,9.91,-0.03,0.00,-0.01,30.85
55732197,1953,1,199688,226906,1.25,-0.24,9.92,-0.03,-0.01,-0.01,30.85
55772190,1971,1,199583,226209,1.26,-0.24,9.91,-0.04,-0.02,-0.00,30.85
55812195,2015,1,199452,225547,1.25,-0.22,9.92,-0.03,-0.01,-0.00,30.85
55852190,1984,1,199449,225652,1.22,-0.21,9.96,-0.03,-0.01,-0.00,30.85
55892194,2112,1,199468,225536,1.26,-0.21,9.92,-0.04,-0.02,-0.00,30.85
55932210,2006,1,199466,226126,1.29,-0.24,9.92,-0.03,-0.01,-0.00,30.85
55972192,2022,1,199944,227508,1.25,-0.24,9.88,-0.03,-0.01,-0.00,30.85
56012190,2023,1,200363,228048,1.22,-0.21,9.92,-0.03,-0.01,-0.00,30.85
56052191,2014,1,200475,227971,1.27,-0.23,9.91,-0.03,-0.00,-0.00,30.85
56092190,2000,1,200474,228039,1.26,-0.24,9.90,-0.03,-0.01,-0.00,30.85
56132191,1950,1,200410,227755,1.26,-0.23,9.93,-0.03,-0.01,-0.01,30.85
56172190,1925,1,200287,227753,1.25,-0.21,9.94,-0.03,-0.00,-0.00,30.85
56212192,1883,1,200313,228353,1.24,-0.19,9.94,-0.04,-0.00,-0.00,30.85
56252189,1819,1,200541,229080,1.25,-0.24,9.94,-0.04,-0.01,-0.00,30.85
56292192,1764,1,200711,229523,1.25,-0.23,9.93,-0.03,-0.01,-0.00,30.85
56332190,1798,1,200601,228250,1.22,-0.23,9.93,-0.03,-0.01,-0.00,30.85
56372878,1838,1,200020,226808,1.23,-0.22,9.94,-0.03,-0.01,-0.01,30.79
56411194,1878,1,199736,226098,1.25,-0.22,9.91,-0.03,-0.01,-0.00,30.79
56451194,1840,1,199609,225969,1.25,-0.21,9.94,-0.03,-0.02,-0.00,30.79
56491194,1908,1,199767,226109,1.26,-0.22,9.94,-0.03,-0.01,-0.00,30.79
56531194,1923,1,199836,226080,1.26,-0.21,9.94,-0.03,-0.01,-0.00,30.79
56571193,1989,1,199943,226030,1.24,-0.22,9.91,-0.03,-0.02,-0.00,30.79
56611194,1984,1,200059,226096,1.26,-0.22,9.90,-0.03,-0.01,-0.00,30.79
56651194,1995,1,200226,226551,1.24,-0.24,9.92,-0.03,-0.01,-0.00,30.79
56691194,1972,1,200258,226683,1.22,-0.22,9.93,-0.03,-0.00,-0.00,30.79
56731190,1935,1,200201,226432,1.25,-0.22,9.90,-0.03,-0.00,-0.00,30.79
56771194,1958,1,200127,226075,1.26,-0.21,9.91,-0.03,-0.00,-0.00,30.79
56811194,1947,1,200085,226152,1.27,-0.24,9.94,-0.03,-0.01,-0.00,30.79
56851194,1901,1,200155,226641,1.25,-0.20,9.92,-0.04,-0.01,-0.00,30.79
56891190,1842,1,200285,226657,1.22,-0.21,9.92,-0.04,-0.01,-0.00,30.79
56931194,1855,1,200052,225269,1.24,-0.23,9.93,-0.03,-0.01,-0.00,30.79
56972190,1826,1,199692,224151,1.27,-0.22,9.92,-0.03,-0.01,-0.00,30.79
57012192,1787,1,199432,223546,1.23,-0.20,9.92,-0.03,-0.01,-0.00,30.79
57052189,1792,1,199298,223243,1.22,-0.21,9.92,-0.03,-0.01,-0.00,30.79
57092192,1776,1,199300,223766,1.24,-0.21,9.91,-0.03,-0.01,-0.00,30.79
57132191,1795,1,199520,224651,1.25,-0.21,9.93,-0.04,-0.01,-0.00,30.79
57172192,1763,1,199642,225184,1.26,-0.23,9.92,-0.03,-0.01,-0.00,30.79
57212190,1767,1,199709,225735,1.24,-0.22,9.90,-0.03,-0.01,-0.01,30.79
57252192,1735,1,199752,226312,1.25,-0.21,9.95,-0.03,-0.01,-0.01,30.79
57292191,1747,1,199803,227047,1.27,-0.24,9.90,-0.03,-0.01,-0.01,30.79
57332192,1778,1,200072,227806,1.23,-0.22,9.95,-0.03,-0.01,-0.00,30.79
57372876,1728,1,200266,228057,1.23,-0.23,9.90,-0.03,-0.02,-0.00,30.93
57411195,1785,1,200269,228038,1.25,-0.22,9.92,-0.03,-0.01,-0.00,30.93
57451190,1825,1,200288,227910,1.23,-0.21,9.92,-0.03,-0.01,-0.00,30.93
57491194,1852,1,200262,227537,1.24,-0.22,9.93,-0.03,-0.02,-0.00,30.93
57531190,1939,1,200070,226164,1.25,-0.22,9.94,-0.03,-0.02,-0.00,30.93
57571206,1957,1,199676,225358,1.26,-0.23,9.94,-0.04,-0.02,-0.00,30.93
57611190,1950,1,199528,225390,1.27,-0.23,9.94,-0.04,-0.01,-0.00,30.93
57651191,1935,1,199559,225783,1.27,-0.23,9.90,-0.03,-0.01,-0.00,30.93
57691189,1898,1,199724,226636,1.26,-0.21,9.94,-0.04,-0.01,-0.00,30.93
57731191,1899,1,200033,227767,1.27,-0.23,9.89,-0.04,-0.01,-0.00,30.93
57771190,1931,1,200389,228602,1.26,-0.23,9.93,-0.04,-0.01,-0.00,30.93
57811194,1971,1,200544,228542,1.26,-0.22,9.92,-0.03,-0.01,-0.01,30.93
57851190,1980,1,200277,227175,1.25,-0.25,9.96,-0.03,-0.00,-0.00,30.93
57891194,1985,1,199654,225053,1.24,-0.22,9.93,-0.03,-0.01,-0.00,30.93
57931190,1913,1,199068,223087,1.25,-0.22,9.92,-0.03,-0.01,-0.00,30.93
57971194,1877,1,198856,222963,1.25,-0.21,9.91,-0.04,-0.01,-0.00,30.93
58010194,1889,1,199180,224127,1.26,-0.20,9.93,-0.04,-0.01,-0.00,30.93
58050194,1893,1,199610,225275,1.25,-0.23,9.94,-0.03,-0.01,-0.00,30.93
58090194,1898,1,199962,225984,1.25,-0.22,9.95,-0.03,-0.01,-0.00,30.93
58130194,1951,1,200054,225266,1.22,-0.19,9.92,-0.03,-0.01,-0.00,30.93
58170194,1993,1,199657,223977,1.24,-0.21,9.93,-0.04,-0.01,-0.00,30.93
58210194,2031,1,199489,223624,1.24,-0.23,9.91,-0.04,-0.01,-0.00,30.93
58250194,2017,1,199437,223429,1.25,-0.23,9.93,-0.03,-0.01,-0.00,30.93
58290194,2036,1,199477,223526,1.23,-0.23,9.96,-0.03,-0.02,-0.01,30.93
58330194,2069,1,199581,223586,1.24,-0.23,9.93,-0.03,-0.01,-0.00,30.93
58370194,2083,1,199714,223507,1.26,-0.24,9.92,-0.03,-0.01,-0.00,30.93
58410880,2073,1,199830,223884,1.27,-0.24,9.90,-0.03,-0.02,-0.00,30.93
58451191,2180,1,200173,224898,1.24,-0.22,9.93,-0.03,-0.02,-0.00,30.93
58491190,2199,1,200568,226184,1.26,-0.21,9.90,-0.04,-0.01,-0.00,30.93
58531192,2198,1,201076,227526,1.26,-0.24,9.89,-0.04,-0.01,-0.00,30.93
58571190,2140,1,201325,228192,1.24,-0.22,9.95,-0.04,-0.01,-0.00,30.93
58611192,2113,1,201446,228336,1.25,-0.22,9.95,-0.04,-0.01,-0.01,30.93
58651189,2102,1,201409,228072,1.25,-0.23,9.92,-0.03,-0.01,-0.00,30.93
58691191,2077,1,201236,227285,1.27,-0.21,9.91,-0.03,-0.01,-0.01,30.93
58731190,2033,1,200605,225168,1.26,-0.23,9.93,-0.03,-0.00,-0.01,30.93
58771195,1997,1,199964,224288,1.25,-0.23,9.91,-0.03,-0.00,-0.00,30.93
58811190,1929,1,199787,224334,1.23,-0.22,9.93,-0.03,-0.00,-0.01,30.93
58851195,1838,1,199757,224918,1.25,-0.24,9.93,-0.03,-0.01,-0.00,30.93
58891190,1882,1,199981,225773,1.27,-0.22,9.90,-0.03,-0.01,-0.00,30.93
58931192,1891,1,200162,225973,1.24,-0.23,9.92,-0.03,-0.01,-0.00,30.93
58971190,1894,1,200214,226081,1.26,-0.22,9.92,-0.03,-0.01,-0.00,30.93
59010194,1915,1,200267,226383,1.25,-0.21,9.95,-0.03,-0.01,-0.00,30.93
59050194,1949,1,200424,226499,1.25,-0.22,9.94,-0.03,-0.01,-0.00,30.93
59090194,1941,1,200454,226498,1.24,-0.22,9.92,-0.03,-0.01,-0.00,30.93
59130194,1930,1,200492,226721,1.25,-0.21,9.92,-0.03,-0.01,-0.01,30.93
59170194,1906,1,200547,226804,1.26,-0.23,9.93,-0.03,-0.01,-0.00,30.93
59210194,1942,1,200678,227249,1.25,-0.22,9.94,-0.03,-0.01,-0.00,30.93
59250194,1948,1,200855,228014,1.25,-0.23,9.94,-0.03,-0.01,-0.00,30.93
59290194,1955,1,201095,228508,1.25,-0.23,9.91,-0.03,-0.01,-0.00,30.93
59330194,1918,1,200984,227583,1.27,-0.23,9.93,-0.03,-0.01,-0.00,30.93
59370190,1956,1,200506,226328,1.26,-0.24,9.94,-0.03,-0.01,-0.00,30.93
59410194,1866,1,200147,225610,1.24,-0.23,9.94,-0.03,-0.01,-0.00,30.93
59450876,1744,1,200129,225648,1.26,-0.23,9.92,-0.03,-0.01,-0.00,30.99
59491192,1744,1,200174,225742,1.26,-0.22,9.93,-0.03,-0.01,-0.00,30.99
59531190,1712,1,200320,226400,1.25,-0.25,9.93,-0.03,-0.01,-0.00,30.99
59571195,1623,1,200510,226818,1.27,-0.22,9.93,-0.03,-0.01,-0.00,30.99
59611189,1561,1,200674,227177,1.24,-0.20,9.94,-0.03,-0.01,-0.01,30.99
59651192,1527,1,200849,227793,1.25,-0.25,9.91,-0.03,-0.01,-0.00,30.99
59691190,1503,1,201031,228303,1.28,-0.22,9.93,-0.03,-0.01,-0.00,30.99
59731192,1491,1,201177,228661,1.25,-0.23,9.92,-0.03,-0.01,-0.00,30.99
59771190,1513,1,201232,228699,1.24,-0.23,9.95,-0.03,-0.01,-0.00,30.99
59811192,1557,1,201223,228700,1.25,-0.23,9.91,-0.03,-0.01,-0.00,30.99
59851190,1627,1,201177,228997,1.26,-0.24,9.91,-0.03,-0.01,-0.01,30.99
59891195,1716,1,201316,229714,1.23,-0.22,9.95,-0.04,-0.02,-0.00,30.99
59931190,1805,1,201524,230076,1.25,-0.21,9.92,-0.04,-0.01,-0.00,30.99
59971192,1915,1,201680,230139,1.28,-0.24,9.92,-0.03,-0.01,-0.01,30.99
60011189,2015,1,201316,228321,1.26,-0.24,9.96,-0.03,-0.02,-0.00,30.99
60051192,2063,1,200720,226777,1.25,-0.22,9.90,-0.03,-0.01,-0.00,30.99
60091189,2066,1,200572,226928,1.29,-0.23,9.93,-0.04,-0.01,-0.00,30.99
60131191,1993,1,200675,227683,1.25,-0.21,9.91,-0.03,-0.00,-0.00,30.99
60171190,1971,1,200997,228874,1.26,-0.24,9.91,-0.04,-0.01,-0.01,30.99
60211192,1947,1,201294,229784,1.26,-0.21,9.94,-0.03,-0.01,-0.00,30.99
60251189,1968,1,201489,230197,1.25,-0.21,9.94,-0.03,-0.01,-0.00,30.99
60291191,1955,1,201469,230074,1.27,-0.24,9.90,-0.03,-0.01,-0.00,30.99
60331189,1961,1,201467,229910,1.26,-0.21,9.92,-0.03,-0.01,-0.00,30.99
60369194,2089,1,201458,229765,1.24,-0.22,9.92,-0.03,-0.01,-0.00,30.99
60409194,2154,1,201387,229745,1.23,-0.24,9.90,-0.03,-0.01,-0.00,30.99
60449194,2193,1,201459,229823,1.27,-0.22,9.90,-0.04,-0.02,-0.00,30.99
60489881,2143,1,201396,229466,1.26,-0.21,9.92,-0.03,-0.01,-0.00,30.99
60530195,2112,1,201393,229651,1.25,-0.25,9.94,-0.03,-0.01,-0.00,30.99
60570190,2128,1,201500,229693,1.27,-0.23,9.92,-0.04,-0.02,-0.00,30.99
60610194,2097,1,201350,229092,1.25,-0.20,9.92,-0.03,-0.01,-0.01,30.99
60650243,2060,1,200993,227873,1.28,-0.25,9.93,-0.03,-0.01,-0.00,30.99
60690194,2004,1,200666,227038,1.26,-0.23,9.92,-0.03,-0.01,-0.01,30.99
60730190,1891,1,200439,226232,1.24,-0.21,9.94,-0.03,-0.00,-0.00,30.99
60770192,1969,1,200146,225385,1.25,-0.24,9.92,-0.03,-0.01,-0.00,30.99
60810190,1874,1,200007,225077,1.21,-0.22,9.93,-0.03,-0.01,-0.00,30.99
60850225,1844,1,200161,226132,1.27,-0.22,9.92,-0.04,-0.01,-0.00,30.99
60890190,1840,1,200574,227335,1.25,-0.24,9.92,-0.04,-0.01,-0.01,30.99
60930195,1813,1,200827,227832,1.22,-0.22,9.93,-0.03,-0.01,-0.00,30.99
60970190,1883,1,200916,227926,1.27,-0.22,9.91,-0.03,-0.01,-0.00,30.99
61010194,1886,1,201073,227794,1.25,-0.21,9.93,-0.03,-0.02,-0.00,30.99
61050190,1917,1,201007,227140,1.26,-0.24,9.90,-0.03,-0.01,-0.00,30.99
61090192,1794,1,200743,226093,1.27,-0.23,9.93,-0.03,-0.00,-0.00,30.99
61130190,1852,1,200617,226518,1.25,-0.20,9.91,-0.03,-0.00,-0.00,30.99
61170191,1840,1,200944,227942,1.27,-0.24,9.93,-0.04,-0.01,-0.01,30.99
61210190,1759,1,201220,228985,1.25,-0.24,9.94,-0.04,-0.01,-0.00,30.99
61250195,1837,1,201471,229501,1.24,-0.20,9.93,-0.04,-0.01,-0.00,30.99
61290190,1786,1,201281,228352,1.25,-0.20,9.94,-0.03,-0.01,-0.00,30.99
61330192,1843,1,200691,225989,1.27,-0.23,9.93,-0.03,-0.01,-0.01,30.99
61370190,1845,1,199897,223903,1.24,-0.22,9.93,-0.03,-0.01,-0.00,30.99
61410192,1829,1,199435,223453,1.27,-0.21,9.93,-0.03,-0.01,-0.00,30.99
61450190,1872,1,199600,224569,1.24,-0.23,9.93,-0.04,-0.02,-0.00,30.99
61490878,1791,1,199852,225449,1.25,-0.21,9.93,-0.04,-0.02,-0.00,30.87
61529194,1887,1,200214,226471,1.25,-0.23,9.92,-0.04,-0.02,-0.00,30.87
61569194,1897,1,200575,227551,1.27,-0.22,9.93,-0.04,-0.01,-0.00,30.87
61609194,1917,1,200931,228460,1.25,-0.24,9.93,-0.03,-0.01,-0.00,30.87
61649195,2027,1,201129,228966,1.26,-0.23,9.90,-0.03,-0.00,-0.01,30.87
61689190,2002,1,201187,229172,1.25,-0.22,9.94,-0.03,-0.01,-0.00,30.87
